build	computer.platform	date	time	timestamp	time_elapsed_ms	subject	group	session	blockcode	blocknum	trialcode	trialnum	stimulus_left	stimulus_right	stim_index	target_present	response	correct	latency	headphonecheck_countTestTrials	headphonecheck_index	headphonecheck_testSound	headphonecheck_correctResponse	stereocheck_countTestTrials	stereocheck_index	stereocheck_testSound	stereocheck_correctResponse	DL_index	DL_soundfile	DL_leftSound	DL_rightSound	DL_dualSound	DL_choice
6.6.1	win	2023-06-02	01:39:16	01:44:58	337996	5ad57f5c27c301000101d9c5	3	1	practice_slash	5	practice_slash	1	stimuli_distractor_trianglediamonds.svg	stimuli_distractor_diamondtriangles.svg	16	no	53	0	874	0	0			0	0			1				0	
6.6.1	win	2023-06-02	01:39:16	01:44:58	337996	5ad57f5c27c301000101d9c5	3	1	practice_slash	5	advance_on_keypress_SLASH	2	stimuli_distractor_trianglediamonds.svg	stimuli_distractor_diamondtriangles.svg	16	no	57	0	857	0	0			0	0			1				0	
6.6.1	win	2023-06-02	01:39:16	01:45:01	340716	5ad57f5c27c301000101d9c5	3	1	practice_slash	5	practice_slash	3	stimuli_target_rectanglediamonds.svg	stimuli_distractor_trianglediamonds.svg	4	yes	53	1	233	0	0			0	0			1				0	
6.6.1	win	2023-06-02	01:39:16	01:45:01	340716	5ad57f5c27c301000101d9c5	3	1	practice_slash	5	advance_on_keypress_SLASH	4	stimuli_target_rectanglediamonds.svg	stimuli_distractor_trianglediamonds.svg	4	yes	57	0	997	0	0			0	0			1				0	
6.6.1	win	2023-06-02	01:39:16	01:45:04	343637	5ad57f5c27c301000101d9c5	3	1	practice_slash	5	practice_slash	5	stimuli_distractor_trianglediamonds.svg	stimuli_target_diamondrectangles.svg	12	yes	53	1	306	0	0			0	0			1				0	
6.6.1	win	2023-06-02	01:39:16	01:45:04	343637	5ad57f5c27c301000101d9c5	3	1	practice_slash	5	advance_on_keypress_SLASH	6	stimuli_distractor_trianglediamonds.svg	stimuli_target_diamondrectangles.svg	12	yes	57	0	353	0	0			0	0			1				0	
6.6.1	win	2023-06-02	01:39:16	01:45:06	345845	5ad57f5c27c301000101d9c5	3	1	practice_slash	5	practice_slash	7	stimuli_target_squarediamonds.svg	stimuli_distractor_trianglediamonds.svg	5	yes	53	1	235	0	0			0	0			1				0	
6.6.1	win	2023-06-02	01:39:16	01:45:06	345845	5ad57f5c27c301000101d9c5	3	1	practice_slash	5	advance_on_keypress_SLASH	8	stimuli_target_squarediamonds.svg	stimuli_distractor_trianglediamonds.svg	5	yes	57	0	448	0	0			0	0			1				0	
6.6.1	win	2023-06-02	01:39:16	01:45:08	348181	5ad57f5c27c301000101d9c5	3	1	practice_slash	5	practice_slash	9	stimuli_distractor_trianglediamonds.svg	stimuli_target_squarediamonds.svg	11	yes	53	1	265	0	0			0	0			1				0	
6.6.1	win	2023-06-02	01:39:16	01:45:08	348181	5ad57f5c27c301000101d9c5	3	1	practice_slash	5	advance_on_keypress_SLASH	10	stimuli_distractor_trianglediamonds.svg	stimuli_target_squarediamonds.svg	11	yes	57	0	251	0	0			0	0			1				0	
6.6.1	win	2023-06-02	01:39:16	01:45:10	350381	5ad57f5c27c301000101d9c5	3	1	practice_slash	5	practice_slash	11	stimuli_distractor_trianglediamonds.svg	stimuli_target_rectanglediamonds.svg	10	yes	53	1	334	0	0			0	0			1				0	
6.6.1	win	2023-06-02	01:39:16	01:45:10	350381	5ad57f5c27c301000101d9c5	3	1	practice_slash	5	advance_on_keypress_SLASH	12	stimuli_distractor_trianglediamonds.svg	stimuli_target_rectanglediamonds.svg	10	yes	57	0	217	0	0			0	0			1				0	
6.6.1	win	2023-06-02	01:39:16	01:45:12	352550	5ad57f5c27c301000101d9c5	3	1	practice_slash	5	practice_slash	13	stimuli_distractor_diamondtriangles.svg	stimuli_target_diamondrectangles.svg	8	yes	53	1	335	0	0			0	0			1				0	
6.6.1	win	2023-06-02	01:39:16	01:45:12	352550	5ad57f5c27c301000101d9c5	3	1	practice_slash	5	advance_on_keypress_SLASH	14	stimuli_distractor_diamondtriangles.svg	stimuli_target_diamondrectangles.svg	8	yes	57	0	234	0	0			0	0			1				0	
6.6.1	win	2023-06-02	01:39:16	01:45:15	354694	5ad57f5c27c301000101d9c5	3	1	practice_slash	5	practice_slash	15	stimuli_target_diamondsquares.svg	stimuli_distractor_trianglediamonds.svg	6	yes	53	1	291	0	0			0	0			1				0	
6.6.1	win	2023-06-02	01:39:16	01:45:15	354694	5ad57f5c27c301000101d9c5	3	1	practice_slash	5	advance_on_keypress_SLASH	16	stimuli_target_diamondsquares.svg	stimuli_distractor_trianglediamonds.svg	6	yes	57	0	377	0	0			0	0			1				0	
6.6.1	win	2023-06-02	01:39:16	01:45:17	356751	5ad57f5c27c301000101d9c5	3	1	practice_slash	5	practice_slash	17	stimuli_distractor_diamondtriangles.svg	stimuli_target_trianglerectangles.svg	9	yes	53	1	56	0	0			0	0			1				0	
6.6.1	win	2023-06-02	01:39:16	01:45:17	356751	5ad57f5c27c301000101d9c5	3	1	practice_slash	5	advance_on_keypress_SLASH	18	stimuli_distractor_diamondtriangles.svg	stimuli_target_trianglerectangles.svg	9	yes	57	0	329	0	0			0	0			1				0	
6.6.1	win	2023-06-02	01:39:16	01:45:19	358950	5ad57f5c27c301000101d9c5	3	1	practice_slash	5	practice_slash	19	stimuli_distractor_diamondtriangles.svg	stimuli_distractor_diamondtriangles.svg	13	no	53	0	256	0	0			0	0			1				0	
6.6.1	win	2023-06-02	01:39:16	01:45:19	358950	5ad57f5c27c301000101d9c5	3	1	practice_slash	5	advance_on_keypress_SLASH	20	stimuli_distractor_diamondtriangles.svg	stimuli_distractor_diamondtriangles.svg	13	no	57	0	431	0	0			0	0			1				0	
6.6.1	win	2023-06-02	01:39:16	01:45:21	361327	5ad57f5c27c301000101d9c5	3	1	practice_slash	5	practice_slash	21	stimuli_target_diamondsquares.svg	stimuli_distractor_diamondtriangles.svg	3	yes	53	1	326	0	0			0	0			1				0	
6.6.1	win	2023-06-02	01:39:16	01:45:21	361327	5ad57f5c27c301000101d9c5	3	1	practice_slash	5	advance_on_keypress_SLASH	22	stimuli_target_diamondsquares.svg	stimuli_distractor_diamondtriangles.svg	3	yes	57	0	384	0	0			0	0			1				0	
6.6.1	win	2023-06-02	01:39:16	01:45:23	363599	5ad57f5c27c301000101d9c5	3	1	practice_slash	5	practice_slash	23	stimuli_target_squarediamonds.svg	stimuli_distractor_diamondtriangles.svg	2	yes	53	1	271	0	0			0	0			1				0	
6.6.1	win	2023-06-02	01:39:16	01:45:23	363599	5ad57f5c27c301000101d9c5	3	1	practice_slash	5	advance_on_keypress_SLASH	24	stimuli_target_squarediamonds.svg	stimuli_distractor_diamondtriangles.svg	2	yes	57	0	370	0	0			0	0			1				0	
6.6.1	win	2023-06-02	01:39:16	01:45:26	365887	5ad57f5c27c301000101d9c5	3	1	practice_slash	5	practice_slash	25	stimuli_target_rectanglediamonds.svg	stimuli_distractor_diamondtriangles.svg	1	yes	53	1	302	0	0			0	0			1				0	
6.6.1	win	2023-06-02	01:39:16	01:45:26	365887	5ad57f5c27c301000101d9c5	3	1	practice_slash	5	advance_on_keypress_SLASH	26	stimuli_target_rectanglediamonds.svg	stimuli_distractor_diamondtriangles.svg	1	yes	57	0	357	0	0			0	0			1				0	
6.6.1	win	2023-06-02	01:39:16	01:45:30	369859	5ad57f5c27c301000101d9c5	3	1	practice_slash	5	practice_slash	27	stimuli_distractor_trianglediamonds.svg	stimuli_distractor_trianglediamonds.svg	15	no	0	1	2003	0	0			0	0			1				0	
6.6.1	win	2023-06-02	01:39:16	01:45:30	369859	5ad57f5c27c301000101d9c5	3	1	practice_slash	5	advance_on_keypress_SLASH	28	stimuli_distractor_trianglediamonds.svg	stimuli_distractor_trianglediamonds.svg	15	no	57	0	263	0	0			0	0			1				0	
6.6.1	win	2023-06-02	01:39:16	01:45:32	372072	5ad57f5c27c301000101d9c5	3	1	practice_slash	5	practice_slash	29	stimuli_distractor_diamondtriangles.svg	stimuli_target_rectangletriangles.svg	7	yes	53	1	332	0	0			0	0			1				0	
6.6.1	win	2023-06-02	01:39:16	01:45:32	372072	5ad57f5c27c301000101d9c5	3	1	practice_slash	5	advance_on_keypress_SLASH	30	stimuli_distractor_diamondtriangles.svg	stimuli_target_rectangletriangles.svg	7	yes	57	0	689	0	0			0	0			1				0	
6.6.1	win	2023-06-02	01:39:16	01:45:35	374928	5ad57f5c27c301000101d9c5	3	1	practice_slash	5	practice_slash	31	stimuli_distractor_diamondtriangles.svg	stimuli_distractor_trianglediamonds.svg	14	no	53	0	550	0	0			0	0			1				0	
6.6.1	win	2023-06-02	01:39:16	01:45:35	374928	5ad57f5c27c301000101d9c5	3	1	practice_slash	5	advance_on_keypress_SLASH	32	stimuli_distractor_diamondtriangles.svg	stimuli_distractor_trianglediamonds.svg	14	no	57	0	482	0	0			0	0			1				0	
6.6.1	win	2023-06-02	01:39:16	01:49:15	595314	5ad57f5c27c301000101d9c5	3	1	main_slash	7	main_slash	1	stimuli_distractor_diamondtriangles.svg	stimuli_target_squaretriangles.svg	15	yes	53	1	299	0	0			0	0			1				0	
6.6.1	win	2023-06-02	01:39:16	01:49:15	595314	5ad57f5c27c301000101d9c5	3	1	main_slash	7	advance_on_keypress_SLASH	2	stimuli_distractor_diamondtriangles.svg	stimuli_target_squaretriangles.svg	15	yes	57	0	1305	0	0			0	0			1				0	
6.6.1	win	2023-06-02	01:39:16	01:49:17	597467	5ad57f5c27c301000101d9c5	3	1	main_slash	7	main_slash	3	stimuli_distractor_trianglediamonds.svg	stimuli_distractor_diamondtriangles.svg	36	no	53	0	229	0	0			0	0			1				0	
6.6.1	win	2023-06-02	01:39:16	01:49:17	597467	5ad57f5c27c301000101d9c5	3	1	main_slash	7	advance_on_keypress_SLASH	4	stimuli_distractor_trianglediamonds.svg	stimuli_distractor_diamondtriangles.svg	36	no	57	0	1616	0	0			0	0			1				0	
6.6.1	win	2023-06-02	01:39:16	01:49:20	599923	5ad57f5c27c301000101d9c5	3	1	main_slash	7	main_slash	5	stimuli_target_trianglerectangles.svg	stimuli_distractor_diamondtriangles.svg	21	yes	53	1	226	0	0			0	0			1				0	
6.6.1	win	2023-06-02	01:39:16	01:49:20	599923	5ad57f5c27c301000101d9c5	3	1	main_slash	7	advance_on_keypress_SLASH	6	stimuli_target_trianglerectangles.svg	stimuli_distractor_diamondtriangles.svg	21	yes	57	0	1084	0	0			0	0			1				0	
6.6.1	win	2023-06-02	01:39:16	01:49:22	601843	5ad57f5c27c301000101d9c5	3	1	main_slash	7	main_slash	7	stimuli_target_rectangletriangles.svg	stimuli_distractor_diamondtriangles.svg	5	yes	53	1	222	0	0			0	0			1				0	
6.6.1	win	2023-06-02	01:39:16	01:49:22	601843	5ad57f5c27c301000101d9c5	3	1	main_slash	7	advance_on_keypress_SLASH	8	stimuli_target_rectangletriangles.svg	stimuli_distractor_diamondtriangles.svg	5	yes	57	0	592	0	0			0	0			1				0	
6.6.1	win	2023-06-02	01:39:16	01:49:23	603291	5ad57f5c27c301000101d9c5	3	1	main_slash	7	main_slash	9	stimuli_target_diamondsquares.svg	stimuli_distractor_diamondtriangles.svg	24	yes	53	1	239	0	0			0	0			1				0	
6.6.1	win	2023-06-02	01:39:16	01:49:23	603291	5ad57f5c27c301000101d9c5	3	1	main_slash	7	advance_on_keypress_SLASH	10	stimuli_target_diamondsquares.svg	stimuli_distractor_diamondtriangles.svg	24	yes	57	0	541	0	0			0	0			1				0	
6.6.1	win	2023-06-02	01:39:16	01:49:25	604756	5ad57f5c27c301000101d9c5	3	1	main_slash	7	main_slash	11	stimuli_distractor_trianglediamonds.svg	stimuli_target_diamondrectangles.svg	27	yes	53	1	308	0	0			0	0			1				0	
6.6.1	win	2023-06-02	01:39:16	01:49:25	604756	5ad57f5c27c301000101d9c5	3	1	main_slash	7	advance_on_keypress_SLASH	12	stimuli_distractor_trianglediamonds.svg	stimuli_target_diamondrectangles.svg	27	yes	57	0	627	0	0			0	0			1				0	
6.6.1	win	2023-06-02	01:39:16	01:49:26	606339	5ad57f5c27c301000101d9c5	3	1	main_slash	7	main_slash	13	stimuli_distractor_diamondtriangles.svg	stimuli_distractor_diamondtriangles.svg	39	no	53	0	343	0	0			0	0			1				0	
6.6.1	win	2023-06-02	01:39:16	01:49:26	606339	5ad57f5c27c301000101d9c5	3	1	main_slash	7	advance_on_keypress_SLASH	14	stimuli_distractor_diamondtriangles.svg	stimuli_distractor_diamondtriangles.svg	39	no	57	0	644	0	0			0	0			1				0	
6.6.1	win	2023-06-02	01:39:16	01:49:29	609605	5ad57f5c27c301000101d9c5	3	1	main_slash	7	main_slash	15	stimuli_distractor_trianglediamonds.svg	stimuli_distractor_trianglediamonds.svg	34	no	0	1	2003	0	0			0	0			1				0	
6.6.1	win	2023-06-02	01:39:16	01:49:29	609605	5ad57f5c27c301000101d9c5	3	1	main_slash	7	advance_on_keypress_SLASH	16	stimuli_distractor_trianglediamonds.svg	stimuli_distractor_trianglediamonds.svg	34	no	57	0	427	0	0			0	0			1				0	
6.6.1	win	2023-06-02	01:39:16	01:49:31	610940	5ad57f5c27c301000101d9c5	3	1	main_slash	7	main_slash	17	stimuli_distractor_diamondtriangles.svg	stimuli_target_rectanglediamonds.svg	14	yes	53	1	297	0	0			0	0			1				0	
6.6.1	win	2023-06-02	01:39:16	01:49:31	610940	5ad57f5c27c301000101d9c5	3	1	main_slash	7	advance_on_keypress_SLASH	18	stimuli_distractor_diamondtriangles.svg	stimuli_target_rectanglediamonds.svg	14	yes	57	0	583	0	0			0	0			1				0	
6.6.1	win	2023-06-02	01:39:16	01:49:34	614147	5ad57f5c27c301000101d9c5	3	1	main_slash	7	main_slash	19	stimuli_distractor_diamondtriangles.svg	stimuli_distractor_diamondtriangles.svg	40	no	0	1	2003	0	0			0	0			1				0	
6.6.1	win	2023-06-02	01:39:16	01:49:34	614147	5ad57f5c27c301000101d9c5	3	1	main_slash	7	advance_on_keypress_SLASH	20	stimuli_distractor_diamondtriangles.svg	stimuli_distractor_diamondtriangles.svg	40	no	57	0	333	0	0			0	0			1				0	
6.6.1	win	2023-06-02	01:39:16	01:49:35	615317	5ad57f5c27c301000101d9c5	3	1	main_slash	7	main_slash	21	stimuli_distractor_diamondtriangles.svg	stimuli_target_trianglesquares.svg	30	yes	53	1	221	0	0			0	0			1				0	
6.6.1	win	2023-06-02	01:39:16	01:49:35	615317	5ad57f5c27c301000101d9c5	3	1	main_slash	7	advance_on_keypress_SLASH	22	stimuli_distractor_diamondtriangles.svg	stimuli_target_trianglesquares.svg	30	yes	57	0	616	0	0			0	0			1				0	
6.6.1	win	2023-06-02	01:39:16	01:49:37	616854	5ad57f5c27c301000101d9c5	3	1	main_slash	7	main_slash	23	stimuli_distractor_trianglediamonds.svg	stimuli_target_trianglesquares.svg	26	yes	53	1	305	0	0			0	0			1				0	
6.6.1	win	2023-06-02	01:39:16	01:49:37	616854	5ad57f5c27c301000101d9c5	3	1	main_slash	7	advance_on_keypress_SLASH	24	stimuli_distractor_trianglediamonds.svg	stimuli_target_trianglesquares.svg	26	yes	57	0	425	0	0			0	0			1				0	
6.6.1	win	2023-06-02	01:39:16	01:49:38	618205	5ad57f5c27c301000101d9c5	3	1	main_slash	7	main_slash	25	stimuli_distractor_diamondtriangles.svg	stimuli_target_trianglerectangles.svg	29	yes	53	1	310	0	0			0	0			1				0	
6.6.1	win	2023-06-02	01:39:16	01:49:38	618205	5ad57f5c27c301000101d9c5	3	1	main_slash	7	advance_on_keypress_SLASH	26	stimuli_distractor_diamondtriangles.svg	stimuli_target_trianglerectangles.svg	29	yes	57	0	543	0	0			0	0			1				0	
6.6.1	win	2023-06-02	01:39:16	01:49:40	619661	5ad57f5c27c301000101d9c5	3	1	main_slash	7	main_slash	27	stimuli_target_squaretriangles.svg	stimuli_distractor_trianglediamonds.svg	3	yes	53	1	294	0	0			0	0			1				0	
6.6.1	win	2023-06-02	01:39:16	01:49:40	619661	5ad57f5c27c301000101d9c5	3	1	main_slash	7	advance_on_keypress_SLASH	28	stimuli_target_squaretriangles.svg	stimuli_distractor_trianglediamonds.svg	3	yes	57	0	563	0	0			0	0			1				0	
6.6.1	win	2023-06-02	01:39:16	01:49:41	621189	5ad57f5c27c301000101d9c5	3	1	main_slash	7	main_slash	29	stimuli_target_rectanglediamonds.svg	stimuli_distractor_trianglediamonds.svg	2	yes	53	1	350	0	0			0	0			1				0	
6.6.1	win	2023-06-02	01:39:16	01:49:41	621189	5ad57f5c27c301000101d9c5	3	1	main_slash	7	advance_on_keypress_SLASH	30	stimuli_target_rectanglediamonds.svg	stimuli_distractor_trianglediamonds.svg	2	yes	57	0	483	0	0			0	0			1				0	
6.6.1	win	2023-06-02	01:39:16	01:49:43	622701	5ad57f5c27c301000101d9c5	3	1	main_slash	7	main_slash	31	stimuli_distractor_trianglediamonds.svg	stimuli_target_rectangletriangles.svg	9	yes	53	1	417	0	0			0	0			1				0	
6.6.1	win	2023-06-02	01:39:16	01:49:43	622701	5ad57f5c27c301000101d9c5	3	1	main_slash	7	advance_on_keypress_SLASH	32	stimuli_distractor_trianglediamonds.svg	stimuli_target_rectangletriangles.svg	9	yes	57	0	489	0	0			0	0			1				0	
6.6.1	win	2023-06-02	01:39:16	01:49:44	624126	5ad57f5c27c301000101d9c5	3	1	main_slash	7	main_slash	33	stimuli_distractor_diamondtriangles.svg	stimuli_distractor_trianglediamonds.svg	38	no	53	0	320	0	0			0	0			1				0	
6.6.1	win	2023-06-02	01:39:16	01:49:44	624126	5ad57f5c27c301000101d9c5	3	1	main_slash	7	advance_on_keypress_SLASH	34	stimuli_distractor_diamondtriangles.svg	stimuli_distractor_trianglediamonds.svg	38	no	57	0	666	0	0			0	0			1				0	
6.6.1	win	2023-06-02	01:39:16	01:49:47	627413	5ad57f5c27c301000101d9c5	3	1	main_slash	7	main_slash	35	stimuli_distractor_trianglediamonds.svg	stimuli_distractor_trianglediamonds.svg	33	no	0	1	2003	0	0			0	0			1				0	
6.6.1	win	2023-06-02	01:39:16	01:49:47	627413	5ad57f5c27c301000101d9c5	3	1	main_slash	7	advance_on_keypress_SLASH	36	stimuli_distractor_trianglediamonds.svg	stimuli_distractor_trianglediamonds.svg	33	no	57	0	276	0	0			0	0			1				0	
6.6.1	win	2023-06-02	01:39:16	01:49:48	628574	5ad57f5c27c301000101d9c5	3	1	main_slash	7	main_slash	37	stimuli_target_squarediamonds.svg	stimuli_distractor_diamondtriangles.svg	8	yes	53	1	268	0	0			0	0			1				0	
6.6.1	win	2023-06-02	01:39:16	01:49:48	628574	5ad57f5c27c301000101d9c5	3	1	main_slash	7	advance_on_keypress_SLASH	38	stimuli_target_squarediamonds.svg	stimuli_distractor_diamondtriangles.svg	8	yes	57	0	509	0	0			0	0			1				0	
6.6.1	win	2023-06-02	01:39:16	01:49:50	630247	5ad57f5c27c301000101d9c5	3	1	main_slash	7	main_slash	39	stimuli_distractor_trianglediamonds.svg	stimuli_target_rectanglediamonds.svg	10	yes	53	1	551	0	0			0	0			1				0	
6.6.1	win	2023-06-02	01:39:16	01:49:50	630247	5ad57f5c27c301000101d9c5	3	1	main_slash	7	advance_on_keypress_SLASH	40	stimuli_distractor_trianglediamonds.svg	stimuli_target_rectanglediamonds.svg	10	yes	57	0	523	0	0			0	0			1				0	
6.6.1	win	2023-06-02	01:39:16	01:49:52	631927	5ad57f5c27c301000101d9c5	3	1	main_slash	7	main_slash	41	stimuli_distractor_diamondtriangles.svg	stimuli_target_diamondrectangles.svg	31	yes	53	1	543	0	0			0	0			1				0	
6.6.1	win	2023-06-02	01:39:16	01:49:52	631927	5ad57f5c27c301000101d9c5	3	1	main_slash	7	advance_on_keypress_SLASH	42	stimuli_distractor_diamondtriangles.svg	stimuli_target_diamondrectangles.svg	31	yes	57	0	459	0	0			0	0			1				0	
6.6.1	win	2023-06-02	01:39:16	01:49:53	633471	5ad57f5c27c301000101d9c5	3	1	main_slash	7	main_slash	43	stimuli_distractor_diamondtriangles.svg	stimuli_target_rectangletriangles.svg	13	yes	53	1	469	0	0			0	0			1				0	
6.6.1	win	2023-06-02	01:39:16	01:49:53	633471	5ad57f5c27c301000101d9c5	3	1	main_slash	7	advance_on_keypress_SLASH	44	stimuli_distractor_diamondtriangles.svg	stimuli_target_rectangletriangles.svg	13	yes	57	0	501	0	0			0	0			1				0	
6.6.1	win	2023-06-02	01:39:16	01:49:55	635047	5ad57f5c27c301000101d9c5	3	1	main_slash	7	main_slash	45	stimuli_distractor_diamondtriangles.svg	stimuli_target_diamondsquares.svg	32	yes	53	1	461	0	0			0	0			1				0	
6.6.1	win	2023-06-02	01:39:16	01:49:55	635047	5ad57f5c27c301000101d9c5	3	1	main_slash	7	advance_on_keypress_SLASH	46	stimuli_distractor_diamondtriangles.svg	stimuli_target_diamondsquares.svg	32	yes	57	0	572	0	0			0	0			1				0	
6.6.1	win	2023-06-02	01:39:16	01:49:56	636600	5ad57f5c27c301000101d9c5	3	1	main_slash	7	main_slash	47	stimuli_target_squaretriangles.svg	stimuli_distractor_diamondtriangles.svg	7	yes	53	1	368	0	0			0	0			1				0	
6.6.1	win	2023-06-02	01:39:16	01:49:56	636600	5ad57f5c27c301000101d9c5	3	1	main_slash	7	advance_on_keypress_SLASH	48	stimuli_target_squaretriangles.svg	stimuli_distractor_diamondtriangles.svg	7	yes	57	0	433	0	0			0	0			1				0	
6.6.1	win	2023-06-02	01:39:16	01:49:58	637920	5ad57f5c27c301000101d9c5	3	1	main_slash	7	main_slash	49	stimuli_distractor_trianglediamonds.svg	stimuli_target_trianglerectangles.svg	25	yes	53	1	271	0	0			0	0			1				0	
6.6.1	win	2023-06-02	01:39:16	01:49:58	637920	5ad57f5c27c301000101d9c5	3	1	main_slash	7	advance_on_keypress_SLASH	50	stimuli_distractor_trianglediamonds.svg	stimuli_target_trianglerectangles.svg	25	yes	57	0	457	0	0			0	0			1				0	
6.6.1	win	2023-06-02	01:39:16	01:49:59	639240	5ad57f5c27c301000101d9c5	3	1	main_slash	7	main_slash	51	stimuli_target_rectanglediamonds.svg	stimuli_distractor_diamondtriangles.svg	6	yes	53	1	244	0	0			0	0			1				0	
6.6.1	win	2023-06-02	01:39:16	01:49:59	639240	5ad57f5c27c301000101d9c5	3	1	main_slash	7	advance_on_keypress_SLASH	52	stimuli_target_rectanglediamonds.svg	stimuli_distractor_diamondtriangles.svg	6	yes	57	0	450	0	0			0	0			1				0	
6.6.1	win	2023-06-02	01:39:16	01:50:00	640568	5ad57f5c27c301000101d9c5	3	1	main_slash	7	main_slash	53	stimuli_target_rectangletriangles.svg	stimuli_distractor_trianglediamonds.svg	1	yes	53	1	259	0	0			0	0			1				0	
6.6.1	win	2023-06-02	01:39:16	01:50:00	640568	5ad57f5c27c301000101d9c5	3	1	main_slash	7	advance_on_keypress_SLASH	54	stimuli_target_rectangletriangles.svg	stimuli_distractor_trianglediamonds.svg	1	yes	57	0	467	0	0			0	0			1				0	
6.6.1	win	2023-06-02	01:39:16	01:50:02	641945	5ad57f5c27c301000101d9c5	3	1	main_slash	7	main_slash	55	stimuli_target_trianglesquares.svg	stimuli_distractor_diamondtriangles.svg	22	yes	53	1	295	0	0			0	0			1				0	
6.6.1	win	2023-06-02	01:39:16	01:50:02	641945	5ad57f5c27c301000101d9c5	3	1	main_slash	7	advance_on_keypress_SLASH	56	stimuli_target_trianglesquares.svg	stimuli_distractor_diamondtriangles.svg	22	yes	57	0	420	0	0			0	0			1				0	
6.6.1	win	2023-06-02	01:39:16	01:50:03	643320	5ad57f5c27c301000101d9c5	3	1	main_slash	7	main_slash	57	stimuli_distractor_trianglediamonds.svg	stimuli_target_diamondsquares.svg	28	yes	53	1	344	0	0			0	0			1				0	
6.6.1	win	2023-06-02	01:39:16	01:50:03	643320	5ad57f5c27c301000101d9c5	3	1	main_slash	7	advance_on_keypress_SLASH	58	stimuli_distractor_trianglediamonds.svg	stimuli_target_diamondsquares.svg	28	yes	57	0	421	0	0			0	0			1				0	
6.6.1	win	2023-06-02	01:39:16	01:50:05	644681	5ad57f5c27c301000101d9c5	3	1	main_slash	7	main_slash	59	stimuli_distractor_trianglediamonds.svg	stimuli_target_squarediamonds.svg	12	yes	53	1	323	0	0			0	0			1				0	
6.6.1	win	2023-06-02	01:39:16	01:50:05	644681	5ad57f5c27c301000101d9c5	3	1	main_slash	7	advance_on_keypress_SLASH	60	stimuli_distractor_trianglediamonds.svg	stimuli_target_squarediamonds.svg	12	yes	57	0	412	0	0			0	0			1				0	
6.6.1	win	2023-06-02	01:39:16	01:50:06	646145	5ad57f5c27c301000101d9c5	3	1	main_slash	7	main_slash	61	stimuli_target_squarediamonds.svg	stimuli_distractor_trianglediamonds.svg	4	yes	53	1	439	0	0			0	0			1				0	
6.6.1	win	2023-06-02	01:39:16	01:50:06	646145	5ad57f5c27c301000101d9c5	3	1	main_slash	7	advance_on_keypress_SLASH	62	stimuli_target_squarediamonds.svg	stimuli_distractor_trianglediamonds.svg	4	yes	57	0	579	0	0			0	0			1				0	
6.6.1	win	2023-06-02	01:39:16	01:50:07	647585	5ad57f5c27c301000101d9c5	3	1	main_slash	7	main_slash	63	stimuli_distractor_diamondtriangles.svg	stimuli_distractor_trianglediamonds.svg	37	no	53	0	247	0	0			0	0			1				0	
6.6.1	win	2023-06-02	01:39:16	01:50:07	647585	5ad57f5c27c301000101d9c5	3	1	main_slash	7	advance_on_keypress_SLASH	64	stimuli_distractor_diamondtriangles.svg	stimuli_distractor_trianglediamonds.svg	37	no	57	0	477	0	0			0	0			1				0	
6.6.1	win	2023-06-02	01:39:16	01:50:09	648961	5ad57f5c27c301000101d9c5	3	1	main_slash	7	main_slash	65	stimuli_target_diamondsquares.svg	stimuli_distractor_trianglediamonds.svg	20	yes	53	1	289	0	0			0	0			1				0	
6.6.1	win	2023-06-02	01:39:16	01:50:09	648961	5ad57f5c27c301000101d9c5	3	1	main_slash	7	advance_on_keypress_SLASH	66	stimuli_target_diamondsquares.svg	stimuli_distractor_trianglediamonds.svg	20	yes	57	0	551	0	0			0	0			1				0	
6.6.1	win	2023-06-02	01:39:16	01:50:10	650417	5ad57f5c27c301000101d9c5	3	1	main_slash	7	main_slash	67	stimuli_distractor_diamondtriangles.svg	stimuli_target_squarediamonds.svg	16	yes	53	1	287	0	0			0	0			1				0	
6.6.1	win	2023-06-02	01:39:16	01:50:10	650417	5ad57f5c27c301000101d9c5	3	1	main_slash	7	advance_on_keypress_SLASH	68	stimuli_distractor_diamondtriangles.svg	stimuli_target_squarediamonds.svg	16	yes	57	0	499	0	0			0	0			1				0	
6.6.1	win	2023-06-02	01:39:16	01:50:12	651777	5ad57f5c27c301000101d9c5	3	1	main_slash	7	main_slash	69	stimuli_target_trianglesquares.svg	stimuli_distractor_trianglediamonds.svg	18	yes	53	1	245	0	0			0	0			1				0	
6.6.1	win	2023-06-02	01:39:16	01:50:12	651777	5ad57f5c27c301000101d9c5	3	1	main_slash	7	advance_on_keypress_SLASH	70	stimuli_target_trianglesquares.svg	stimuli_distractor_trianglediamonds.svg	18	yes	57	0	482	0	0			0	0			1				0	
6.6.1	win	2023-06-02	01:39:16	01:50:13	653146	5ad57f5c27c301000101d9c5	3	1	main_slash	7	main_slash	71	stimuli_target_diamondrectangles.svg	stimuli_distractor_diamondtriangles.svg	23	yes	53	1	272	0	0			0	0			1				0	
6.6.1	win	2023-06-02	01:39:16	01:50:13	653146	5ad57f5c27c301000101d9c5	3	1	main_slash	7	advance_on_keypress_SLASH	72	stimuli_target_diamondrectangles.svg	stimuli_distractor_diamondtriangles.svg	23	yes	57	0	466	0	0			0	0			1				0	
6.6.1	win	2023-06-02	01:39:16	01:50:14	654585	5ad57f5c27c301000101d9c5	3	1	main_slash	7	main_slash	73	stimuli_distractor_trianglediamonds.svg	stimuli_distractor_diamondtriangles.svg	35	no	53	0	358	0	0			0	0			1				0	
6.6.1	win	2023-06-02	01:39:16	01:50:14	654585	5ad57f5c27c301000101d9c5	3	1	main_slash	7	advance_on_keypress_SLASH	74	stimuli_distractor_trianglediamonds.svg	stimuli_distractor_diamondtriangles.svg	35	no	57	0	523	0	0			0	0			1				0	
6.6.1	win	2023-06-02	01:39:16	01:50:16	655978	5ad57f5c27c301000101d9c5	3	1	main_slash	7	main_slash	75	stimuli_target_diamondrectangles.svg	stimuli_distractor_trianglediamonds.svg	19	yes	53	1	257	0	0			0	0			1				0	
6.6.1	win	2023-06-02	01:39:16	01:50:16	655978	5ad57f5c27c301000101d9c5	3	1	main_slash	7	advance_on_keypress_SLASH	76	stimuli_target_diamondrectangles.svg	stimuli_distractor_trianglediamonds.svg	19	yes	57	0	536	0	0			0	0			1				0	
6.6.1	win	2023-06-02	01:39:16	01:50:17	657386	5ad57f5c27c301000101d9c5	3	1	main_slash	7	main_slash	77	stimuli_target_trianglerectangles.svg	stimuli_distractor_trianglediamonds.svg	17	yes	53	1	255	0	0			0	0			1				0	
6.6.1	win	2023-06-02	01:39:16	01:50:17	657386	5ad57f5c27c301000101d9c5	3	1	main_slash	7	advance_on_keypress_SLASH	78	stimuli_target_trianglerectangles.svg	stimuli_distractor_trianglediamonds.svg	17	yes	57	0	671	0	0			0	0			1				0	
6.6.1	win	2023-06-02	01:39:16	01:50:19	658914	5ad57f5c27c301000101d9c5	3	1	main_slash	7	main_slash	79	stimuli_distractor_trianglediamonds.svg	stimuli_target_squaretriangles.svg	11	yes	53	1	241	0	0			0	0			1				0	
6.6.1	win	2023-06-02	01:39:16	01:50:19	658914	5ad57f5c27c301000101d9c5	3	1	main_slash	7	advance_on_keypress_SLASH	80	stimuli_distractor_trianglediamonds.svg	stimuli_target_squaretriangles.svg	11	yes	57	0	501	0	0			0	0			1				0	
6.6.1	win	2023-06-02	01:39:16	01:50:20	660330	5ad57f5c27c301000101d9c5	3	1	main_slash	7	main_slash	81	stimuli_distractor_trianglediamonds.svg	stimuli_target_rectanglediamonds.svg	10	yes	53	1	302	0	0			0	0			1				0	
6.6.1	win	2023-06-02	01:39:16	01:50:20	660330	5ad57f5c27c301000101d9c5	3	1	main_slash	7	advance_on_keypress_SLASH	82	stimuli_distractor_trianglediamonds.svg	stimuli_target_rectanglediamonds.svg	10	yes	57	0	477	0	0			0	0			1				0	
6.6.1	win	2023-06-02	01:39:16	01:50:21	661610	5ad57f5c27c301000101d9c5	3	1	main_slash	7	main_slash	83	stimuli_distractor_diamondtriangles.svg	stimuli_distractor_trianglediamonds.svg	38	no	53	0	193	0	0			0	0			1				0	
6.6.1	win	2023-06-02	01:39:16	01:50:21	661610	5ad57f5c27c301000101d9c5	3	1	main_slash	7	advance_on_keypress_SLASH	84	stimuli_distractor_diamondtriangles.svg	stimuli_distractor_trianglediamonds.svg	38	no	57	0	408	0	0			0	0			1				0	
6.6.1	win	2023-06-02	01:39:16	01:50:23	662874	5ad57f5c27c301000101d9c5	3	1	main_slash	7	main_slash	85	stimuli_target_trianglesquares.svg	stimuli_distractor_diamondtriangles.svg	22	yes	53	1	236	0	0			0	0			1				0	
6.6.1	win	2023-06-02	01:39:16	01:50:23	662874	5ad57f5c27c301000101d9c5	3	1	main_slash	7	advance_on_keypress_SLASH	86	stimuli_target_trianglesquares.svg	stimuli_distractor_diamondtriangles.svg	22	yes	57	0	432	0	0			0	0			1				0	
6.6.1	win	2023-06-02	01:39:16	01:50:24	664219	5ad57f5c27c301000101d9c5	3	1	main_slash	7	main_slash	87	stimuli_distractor_trianglediamonds.svg	stimuli_target_trianglesquares.svg	26	yes	53	1	294	0	0			0	0			1				0	
6.6.1	win	2023-06-02	01:39:16	01:50:24	664219	5ad57f5c27c301000101d9c5	3	1	main_slash	7	advance_on_keypress_SLASH	88	stimuli_distractor_trianglediamonds.svg	stimuli_target_trianglesquares.svg	26	yes	57	0	412	0	0			0	0			1				0	
6.6.1	win	2023-06-02	01:39:16	01:50:25	665483	5ad57f5c27c301000101d9c5	3	1	main_slash	7	main_slash	89	stimuli_target_trianglesquares.svg	stimuli_distractor_trianglediamonds.svg	18	yes	53	1	239	0	0			0	0			1				0	
6.6.1	win	2023-06-02	01:39:16	01:50:25	665483	5ad57f5c27c301000101d9c5	3	1	main_slash	7	advance_on_keypress_SLASH	90	stimuli_target_trianglesquares.svg	stimuli_distractor_trianglediamonds.svg	18	yes	57	0	348	0	0			0	0			1				0	
6.6.1	win	2023-06-02	01:39:16	01:50:27	666707	5ad57f5c27c301000101d9c5	3	1	main_slash	7	main_slash	91	stimuli_distractor_trianglediamonds.svg	stimuli_target_trianglerectangles.svg	25	yes	53	1	261	0	0			0	0			1				0	
6.6.1	win	2023-06-02	01:39:16	01:50:27	666707	5ad57f5c27c301000101d9c5	3	1	main_slash	7	advance_on_keypress_SLASH	92	stimuli_distractor_trianglediamonds.svg	stimuli_target_trianglerectangles.svg	25	yes	57	0	365	0	0			0	0			1				0	
6.6.1	win	2023-06-02	01:39:16	01:50:28	667875	5ad57f5c27c301000101d9c5	3	1	main_slash	7	main_slash	93	stimuli_target_diamondrectangles.svg	stimuli_distractor_diamondtriangles.svg	23	yes	53	1	193	0	0			0	0			1				0	
6.6.1	win	2023-06-02	01:39:16	01:50:28	667875	5ad57f5c27c301000101d9c5	3	1	main_slash	7	advance_on_keypress_SLASH	94	stimuli_target_diamondrectangles.svg	stimuli_distractor_diamondtriangles.svg	23	yes	57	0	447	0	0			0	0			1				0	
6.6.1	win	2023-06-02	01:39:16	01:50:29	669155	5ad57f5c27c301000101d9c5	3	1	main_slash	7	main_slash	95	stimuli_target_diamondrectangles.svg	stimuli_distractor_trianglediamonds.svg	19	yes	53	1	217	0	0			0	0			1				0	
6.6.1	win	2023-06-02	01:39:16	01:50:29	669155	5ad57f5c27c301000101d9c5	3	1	main_slash	7	advance_on_keypress_SLASH	96	stimuli_target_diamondrectangles.svg	stimuli_distractor_trianglediamonds.svg	19	yes	57	0	370	0	0			0	0			1				0	
6.6.1	win	2023-06-02	01:39:16	01:50:30	670363	5ad57f5c27c301000101d9c5	3	1	main_slash	7	main_slash	97	stimuli_distractor_trianglediamonds.svg	stimuli_target_squaretriangles.svg	11	yes	53	1	223	0	0			0	0			1				0	
6.6.1	win	2023-06-02	01:39:16	01:50:30	670363	5ad57f5c27c301000101d9c5	3	1	main_slash	7	advance_on_keypress_SLASH	98	stimuli_distractor_trianglediamonds.svg	stimuli_target_squaretriangles.svg	11	yes	57	0	434	0	0			0	0			1				0	
6.6.1	win	2023-06-02	01:39:16	01:50:32	671651	5ad57f5c27c301000101d9c5	3	1	main_slash	7	main_slash	99	stimuli_distractor_trianglediamonds.svg	stimuli_target_rectangletriangles.svg	9	yes	53	1	240	0	0			0	0			1				0	
6.6.1	win	2023-06-02	01:39:16	01:50:32	671651	5ad57f5c27c301000101d9c5	3	1	main_slash	7	advance_on_keypress_SLASH	100	stimuli_distractor_trianglediamonds.svg	stimuli_target_rectangletriangles.svg	9	yes	57	0	445	0	0			0	0			1				0	
6.6.1	win	2023-06-02	01:39:16	01:50:33	672924	5ad57f5c27c301000101d9c5	3	1	main_slash	7	main_slash	101	stimuli_target_rectangletriangles.svg	stimuli_distractor_trianglediamonds.svg	1	yes	53	1	213	0	0			0	0			1				0	
6.6.1	win	2023-06-02	01:39:16	01:50:33	672924	5ad57f5c27c301000101d9c5	3	1	main_slash	7	advance_on_keypress_SLASH	102	stimuli_target_rectangletriangles.svg	stimuli_distractor_trianglediamonds.svg	1	yes	57	0	303	0	0			0	0			1				0	
6.6.1	win	2023-06-02	01:39:16	01:50:34	674100	5ad57f5c27c301000101d9c5	3	1	main_slash	7	main_slash	103	stimuli_distractor_trianglediamonds.svg	stimuli_distractor_trianglediamonds.svg	33	no	53	0	250	0	0			0	0			1				0	
6.6.1	win	2023-06-02	01:39:16	01:50:34	674100	5ad57f5c27c301000101d9c5	3	1	main_slash	7	advance_on_keypress_SLASH	104	stimuli_distractor_trianglediamonds.svg	stimuli_distractor_trianglediamonds.svg	33	no	57	0	609	0	0			0	0			1				0	
6.6.1	win	2023-06-02	01:39:16	01:50:35	675596	5ad57f5c27c301000101d9c5	3	1	main_slash	7	main_slash	105	stimuli_distractor_trianglediamonds.svg	stimuli_distractor_diamondtriangles.svg	35	no	53	0	267	0	0			0	0			1				0	
6.6.1	win	2023-06-02	01:39:16	01:50:35	675596	5ad57f5c27c301000101d9c5	3	1	main_slash	7	advance_on_keypress_SLASH	106	stimuli_distractor_trianglediamonds.svg	stimuli_distractor_diamondtriangles.svg	35	no	57	0	444	0	0			0	0			1				0	
6.6.1	win	2023-06-02	01:39:16	01:50:37	676948	5ad57f5c27c301000101d9c5	3	1	main_slash	7	main_slash	107	stimuli_target_squaretriangles.svg	stimuli_distractor_trianglediamonds.svg	3	yes	53	1	292	0	0			0	0			1				0	
6.6.1	win	2023-06-02	01:39:16	01:50:37	676948	5ad57f5c27c301000101d9c5	3	1	main_slash	7	advance_on_keypress_SLASH	108	stimuli_target_squaretriangles.svg	stimuli_distractor_trianglediamonds.svg	3	yes	57	0	345	0	0			0	0			1				0	
6.6.1	win	2023-06-02	01:39:16	01:50:38	678180	5ad57f5c27c301000101d9c5	3	1	main_slash	7	main_slash	109	stimuli_target_squarediamonds.svg	stimuli_distractor_trianglediamonds.svg	4	yes	53	1	267	0	0			0	0			1				0	
6.6.1	win	2023-06-02	01:39:16	01:50:38	678180	5ad57f5c27c301000101d9c5	3	1	main_slash	7	advance_on_keypress_SLASH	110	stimuli_target_squarediamonds.svg	stimuli_distractor_trianglediamonds.svg	4	yes	57	0	325	0	0			0	0			1				0	
6.6.1	win	2023-06-02	01:39:16	01:50:39	679444	5ad57f5c27c301000101d9c5	3	1	main_slash	7	main_slash	111	stimuli_target_trianglerectangles.svg	stimuli_distractor_diamondtriangles.svg	21	yes	53	1	323	0	0			0	0			1				0	
6.6.1	win	2023-06-02	01:39:16	01:50:39	679444	5ad57f5c27c301000101d9c5	3	1	main_slash	7	advance_on_keypress_SLASH	112	stimuli_target_trianglerectangles.svg	stimuli_distractor_diamondtriangles.svg	21	yes	57	0	349	0	0			0	0			1				0	
6.6.1	win	2023-06-02	01:39:16	01:50:41	680701	5ad57f5c27c301000101d9c5	3	1	main_slash	7	main_slash	113	stimuli_distractor_diamondtriangles.svg	stimuli_distractor_diamondtriangles.svg	39	no	53	0	294	0	0			0	0			1				0	
6.6.1	win	2023-06-02	01:39:16	01:50:41	680701	5ad57f5c27c301000101d9c5	3	1	main_slash	7	advance_on_keypress_SLASH	114	stimuli_distractor_diamondtriangles.svg	stimuli_distractor_diamondtriangles.svg	39	no	57	0	396	0	0			0	0			1				0	
6.6.1	win	2023-06-02	01:39:16	01:50:42	682045	5ad57f5c27c301000101d9c5	3	1	main_slash	7	main_slash	115	stimuli_target_rectanglediamonds.svg	stimuli_distractor_trianglediamonds.svg	2	yes	53	1	332	0	0			0	0			1				0	
6.6.1	win	2023-06-02	01:39:16	01:50:42	682045	5ad57f5c27c301000101d9c5	3	1	main_slash	7	advance_on_keypress_SLASH	116	stimuli_target_rectanglediamonds.svg	stimuli_distractor_trianglediamonds.svg	2	yes	57	0	344	0	0			0	0			1				0	
6.6.1	win	2023-06-02	01:39:16	01:50:43	683445	5ad57f5c27c301000101d9c5	3	1	main_slash	7	main_slash	117	stimuli_distractor_diamondtriangles.svg	stimuli_target_trianglerectangles.svg	29	yes	53	1	441	0	0			0	0			1				0	
6.6.1	win	2023-06-02	01:39:16	01:50:43	683445	5ad57f5c27c301000101d9c5	3	1	main_slash	7	advance_on_keypress_SLASH	118	stimuli_distractor_diamondtriangles.svg	stimuli_target_trianglerectangles.svg	29	yes	57	0	348	0	0			0	0			1				0	
6.6.1	win	2023-06-02	01:39:16	01:50:45	684765	5ad57f5c27c301000101d9c5	3	1	main_slash	7	main_slash	119	stimuli_distractor_diamondtriangles.svg	stimuli_distractor_trianglediamonds.svg	37	no	53	0	358	0	0			0	0			1				0	
6.6.1	win	2023-06-02	01:39:16	01:50:45	684765	5ad57f5c27c301000101d9c5	3	1	main_slash	7	advance_on_keypress_SLASH	120	stimuli_distractor_diamondtriangles.svg	stimuli_distractor_trianglediamonds.svg	37	no	57	0	380	0	0			0	0			1				0	
6.6.1	win	2023-06-02	01:39:16	01:50:46	686045	5ad57f5c27c301000101d9c5	3	1	main_slash	7	main_slash	121	stimuli_distractor_diamondtriangles.svg	stimuli_target_rectangletriangles.svg	13	yes	53	1	283	0	0			0	0			1				0	
6.6.1	win	2023-06-02	01:39:16	01:50:46	686045	5ad57f5c27c301000101d9c5	3	1	main_slash	7	advance_on_keypress_SLASH	122	stimuli_distractor_diamondtriangles.svg	stimuli_target_rectangletriangles.svg	13	yes	57	0	336	0	0			0	0			1				0	
6.6.1	win	2023-06-02	01:39:16	01:50:47	687341	5ad57f5c27c301000101d9c5	3	1	main_slash	7	main_slash	123	stimuli_distractor_diamondtriangles.svg	stimuli_distractor_diamondtriangles.svg	40	no	53	0	344	0	0			0	0			1				0	
6.6.1	win	2023-06-02	01:39:16	01:50:47	687341	5ad57f5c27c301000101d9c5	3	1	main_slash	7	advance_on_keypress_SLASH	124	stimuli_distractor_diamondtriangles.svg	stimuli_distractor_diamondtriangles.svg	40	no	57	0	453	0	0			0	0			1				0	
6.6.1	win	2023-06-02	01:39:16	01:50:49	688750	5ad57f5c27c301000101d9c5	3	1	main_slash	7	main_slash	125	stimuli_distractor_trianglediamonds.svg	stimuli_distractor_trianglediamonds.svg	34	no	53	0	342	0	0			0	0			1				0	
6.6.1	win	2023-06-02	01:39:16	01:50:49	688750	5ad57f5c27c301000101d9c5	3	1	main_slash	7	advance_on_keypress_SLASH	126	stimuli_distractor_trianglediamonds.svg	stimuli_distractor_trianglediamonds.svg	34	no	57	0	402	0	0			0	0			1				0	
6.6.1	win	2023-06-02	01:39:16	01:50:50	690070	5ad57f5c27c301000101d9c5	3	1	main_slash	7	main_slash	127	stimuli_target_squaretriangles.svg	stimuli_distractor_diamondtriangles.svg	7	yes	53	1	301	0	0			0	0			1				0	
6.6.1	win	2023-06-02	01:39:16	01:50:50	690070	5ad57f5c27c301000101d9c5	3	1	main_slash	7	advance_on_keypress_SLASH	128	stimuli_target_squaretriangles.svg	stimuli_distractor_diamondtriangles.svg	7	yes	57	0	387	0	0			0	0			1				0	
6.6.1	win	2023-06-02	01:39:16	01:50:51	691550	5ad57f5c27c301000101d9c5	3	1	main_slash	7	main_slash	129	stimuli_distractor_trianglediamonds.svg	stimuli_distractor_diamondtriangles.svg	36	no	53	0	475	0	0			0	0			1				0	
6.6.1	win	2023-06-02	01:39:16	01:50:51	691550	5ad57f5c27c301000101d9c5	3	1	main_slash	7	advance_on_keypress_SLASH	130	stimuli_distractor_trianglediamonds.svg	stimuli_distractor_diamondtriangles.svg	36	no	57	0	387	0	0			0	0			1				0	
6.6.1	win	2023-06-02	01:39:16	01:50:53	692918	5ad57f5c27c301000101d9c5	3	1	main_slash	7	main_slash	131	stimuli_target_rectanglediamonds.svg	stimuli_distractor_diamondtriangles.svg	6	yes	53	1	363	0	0			0	0			1				0	
6.6.1	win	2023-06-02	01:39:16	01:50:53	692918	5ad57f5c27c301000101d9c5	3	1	main_slash	7	advance_on_keypress_SLASH	132	stimuli_target_rectanglediamonds.svg	stimuli_distractor_diamondtriangles.svg	6	yes	57	0	363	0	0			0	0			1				0	
6.6.1	win	2023-06-02	01:39:16	01:50:54	694294	5ad57f5c27c301000101d9c5	3	1	main_slash	7	main_slash	133	stimuli_distractor_diamondtriangles.svg	stimuli_target_squaretriangles.svg	15	yes	53	1	400	0	0			0	0			1				0	
6.6.1	win	2023-06-02	01:39:16	01:50:54	694294	5ad57f5c27c301000101d9c5	3	1	main_slash	7	advance_on_keypress_SLASH	134	stimuli_distractor_diamondtriangles.svg	stimuli_target_squaretriangles.svg	15	yes	57	0	493	0	0			0	0			1				0	
6.6.1	win	2023-06-02	01:39:16	01:50:56	695847	5ad57f5c27c301000101d9c5	3	1	main_slash	7	main_slash	135	stimuli_distractor_diamondtriangles.svg	stimuli_target_trianglesquares.svg	30	yes	53	1	444	0	0			0	0			1				0	
6.6.1	win	2023-06-02	01:39:16	01:50:56	695847	5ad57f5c27c301000101d9c5	3	1	main_slash	7	advance_on_keypress_SLASH	136	stimuli_distractor_diamondtriangles.svg	stimuli_target_trianglesquares.svg	30	yes	57	0	353	0	0			0	0			1				0	
6.6.1	win	2023-06-02	01:39:16	01:50:57	697239	5ad57f5c27c301000101d9c5	3	1	main_slash	7	main_slash	137	stimuli_distractor_trianglediamonds.svg	stimuli_target_diamondsquares.svg	28	yes	53	1	420	0	0			0	0			1				0	
6.6.1	win	2023-06-02	01:39:16	01:50:57	697239	5ad57f5c27c301000101d9c5	3	1	main_slash	7	advance_on_keypress_SLASH	138	stimuli_distractor_trianglediamonds.svg	stimuli_target_diamondsquares.svg	28	yes	57	0	308	0	0			0	0			1				0	
6.6.1	win	2023-06-02	01:39:16	01:50:58	698543	5ad57f5c27c301000101d9c5	3	1	main_slash	7	main_slash	139	stimuli_target_rectangletriangles.svg	stimuli_distractor_diamondtriangles.svg	5	yes	53	1	383	0	0			0	0			1				0	
6.6.1	win	2023-06-02	01:39:16	01:50:58	698543	5ad57f5c27c301000101d9c5	3	1	main_slash	7	advance_on_keypress_SLASH	140	stimuli_target_rectangletriangles.svg	stimuli_distractor_diamondtriangles.svg	5	yes	57	0	386	0	0			0	0			1				0	
6.6.1	win	2023-06-02	01:39:16	01:51:00	700007	5ad57f5c27c301000101d9c5	3	1	main_slash	7	main_slash	141	stimuli_distractor_diamondtriangles.svg	stimuli_target_diamondrectangles.svg	31	yes	53	1	465	0	0			0	0			1				0	
6.6.1	win	2023-06-02	01:39:16	01:51:00	700007	5ad57f5c27c301000101d9c5	3	1	main_slash	7	advance_on_keypress_SLASH	142	stimuli_distractor_diamondtriangles.svg	stimuli_target_diamondrectangles.svg	31	yes	57	0	321	0	0			0	0			1				0	
6.6.1	win	2023-06-02	01:39:16	01:51:01	701496	5ad57f5c27c301000101d9c5	3	1	main_slash	7	main_slash	143	stimuli_target_trianglerectangles.svg	stimuli_distractor_trianglediamonds.svg	17	yes	53	1	551	0	0			0	0			1				0	
6.6.1	win	2023-06-02	01:39:16	01:51:01	701496	5ad57f5c27c301000101d9c5	3	1	main_slash	7	advance_on_keypress_SLASH	144	stimuli_target_trianglerectangles.svg	stimuli_distractor_trianglediamonds.svg	17	yes	57	0	298	0	0			0	0			1				0	
6.6.1	win	2023-06-02	01:39:16	01:51:03	702735	5ad57f5c27c301000101d9c5	3	1	main_slash	7	main_slash	145	stimuli_target_diamondsquares.svg	stimuli_distractor_trianglediamonds.svg	20	yes	53	1	324	0	0			0	0			1				0	
6.6.1	win	2023-06-02	01:39:16	01:51:03	702735	5ad57f5c27c301000101d9c5	3	1	main_slash	7	advance_on_keypress_SLASH	146	stimuli_target_diamondsquares.svg	stimuli_distractor_trianglediamonds.svg	20	yes	57	0	344	0	0			0	0			1				0	
6.6.1	win	2023-06-02	01:39:16	01:51:04	704183	5ad57f5c27c301000101d9c5	3	1	main_slash	7	main_slash	147	stimuli_target_squarediamonds.svg	stimuli_distractor_diamondtriangles.svg	8	yes	53	1	488	0	0			0	0			1				0	
6.6.1	win	2023-06-02	01:39:16	01:51:04	704183	5ad57f5c27c301000101d9c5	3	1	main_slash	7	advance_on_keypress_SLASH	148	stimuli_target_squarediamonds.svg	stimuli_distractor_diamondtriangles.svg	8	yes	57	0	267	0	0			0	0			1				0	
6.6.1	win	2023-06-02	01:39:16	01:51:05	705584	5ad57f5c27c301000101d9c5	3	1	main_slash	7	main_slash	149	stimuli_distractor_diamondtriangles.svg	stimuli_target_squarediamonds.svg	16	yes	53	1	520	0	0			0	0			1				0	
6.6.1	win	2023-06-02	01:39:16	01:51:05	705584	5ad57f5c27c301000101d9c5	3	1	main_slash	7	advance_on_keypress_SLASH	150	stimuli_distractor_diamondtriangles.svg	stimuli_target_squarediamonds.svg	16	yes	57	0	256	0	0			0	0			1				0	
6.6.1	win	2023-06-02	01:39:16	01:51:07	707080	5ad57f5c27c301000101d9c5	3	1	main_slash	7	main_slash	151	stimuli_target_diamondsquares.svg	stimuli_distractor_diamondtriangles.svg	24	yes	53	1	620	0	0			0	0			1				0	
6.6.1	win	2023-06-02	01:39:16	01:51:07	707080	5ad57f5c27c301000101d9c5	3	1	main_slash	7	advance_on_keypress_SLASH	152	stimuli_target_diamondsquares.svg	stimuli_distractor_diamondtriangles.svg	24	yes	57	0	251	0	0			0	0			1				0	
6.6.1	win	2023-06-02	01:39:16	01:51:08	708584	5ad57f5c27c301000101d9c5	3	1	main_slash	7	main_slash	153	stimuli_distractor_trianglediamonds.svg	stimuli_target_squarediamonds.svg	12	yes	53	1	638	0	0			0	0			1				0	
6.6.1	win	2023-06-02	01:39:16	01:51:08	708584	5ad57f5c27c301000101d9c5	3	1	main_slash	7	advance_on_keypress_SLASH	154	stimuli_distractor_trianglediamonds.svg	stimuli_target_squarediamonds.svg	12	yes	57	0	200	0	0			0	0			1				0	
6.6.1	win	2023-06-02	01:39:16	01:51:10	710041	5ad57f5c27c301000101d9c5	3	1	main_slash	7	main_slash	155	stimuli_distractor_trianglediamonds.svg	stimuli_target_diamondrectangles.svg	27	yes	53	1	636	0	0			0	0			1				0	
6.6.1	win	2023-06-02	01:39:16	01:51:10	710041	5ad57f5c27c301000101d9c5	3	1	main_slash	7	advance_on_keypress_SLASH	156	stimuli_distractor_trianglediamonds.svg	stimuli_target_diamondrectangles.svg	27	yes	57	0	212	0	0			0	0			1				0	
6.6.1	win	2023-06-02	01:39:16	01:51:11	711529	5ad57f5c27c301000101d9c5	3	1	main_slash	7	main_slash	157	stimuli_distractor_diamondtriangles.svg	stimuli_target_rectanglediamonds.svg	14	yes	53	1	665	0	0			0	0			1				0	
6.6.1	win	2023-06-02	01:39:16	01:51:11	711529	5ad57f5c27c301000101d9c5	3	1	main_slash	7	advance_on_keypress_SLASH	158	stimuli_distractor_diamondtriangles.svg	stimuli_target_rectanglediamonds.svg	14	yes	57	0	191	0	0			0	0			1				0	
6.6.1	win	2023-06-02	01:39:16	01:51:13	713129	5ad57f5c27c301000101d9c5	3	1	main_slash	7	main_slash	159	stimuli_distractor_diamondtriangles.svg	stimuli_target_diamondsquares.svg	32	yes	53	1	793	0	0			0	0			1				0	
6.6.1	win	2023-06-02	01:39:16	01:51:13	713129	5ad57f5c27c301000101d9c5	3	1	main_slash	7	advance_on_keypress_SLASH	160	stimuli_distractor_diamondtriangles.svg	stimuli_target_diamondsquares.svg	32	yes	57	0	794	0	0			0	0			1				0	
6.6.1	win	2023-06-02	01:39:16	01:51:31	731003	5ad57f5c27c301000101d9c5	3	1	practice_z	9	practice_z	1	stimuli_distractor_trianglediamonds.svg	stimuli_target_squarediamonds.svg	11	yes	44	1	275	0	0			0	0			1				0	
6.6.1	win	2023-06-02	01:39:16	01:51:31	731003	5ad57f5c27c301000101d9c5	3	1	practice_z	9	advance_on_keypress_ZEE	2	stimuli_distractor_trianglediamonds.svg	stimuli_target_squarediamonds.svg	11	yes	57	0	406	0	0			0	0			1				0	
6.6.1	win	2023-06-02	01:39:16	01:51:33	733268	5ad57f5c27c301000101d9c5	3	1	practice_z	9	practice_z	3	stimuli_target_diamondsquares.svg	stimuli_distractor_diamondtriangles.svg	3	yes	44	1	233	0	0			0	0			1				0	
6.6.1	win	2023-06-02	01:39:16	01:51:33	733268	5ad57f5c27c301000101d9c5	3	1	practice_z	9	advance_on_keypress_ZEE	4	stimuli_target_diamondsquares.svg	stimuli_distractor_diamondtriangles.svg	3	yes	57	0	220	0	0			0	0			1				0	
6.6.1	win	2023-06-02	01:39:16	01:51:35	735468	5ad57f5c27c301000101d9c5	3	1	practice_z	9	practice_z	5	stimuli_target_rectanglediamonds.svg	stimuli_distractor_diamondtriangles.svg	1	yes	44	1	363	0	0			0	0			1				0	
6.6.1	win	2023-06-02	01:39:16	01:51:35	735468	5ad57f5c27c301000101d9c5	3	1	practice_z	9	advance_on_keypress_ZEE	6	stimuli_target_rectanglediamonds.svg	stimuli_distractor_diamondtriangles.svg	1	yes	57	0	268	0	0			0	0			1				0	
6.6.1	win	2023-06-02	01:39:16	01:51:38	737724	5ad57f5c27c301000101d9c5	3	1	practice_z	9	practice_z	7	stimuli_distractor_trianglediamonds.svg	stimuli_target_rectanglediamonds.svg	10	yes	44	1	377	0	0			0	0			1				0	
6.6.1	win	2023-06-02	01:39:16	01:51:38	737724	5ad57f5c27c301000101d9c5	3	1	practice_z	9	advance_on_keypress_ZEE	8	stimuli_distractor_trianglediamonds.svg	stimuli_target_rectanglediamonds.svg	10	yes	57	0	242	0	0			0	0			1				0	
6.6.1	win	2023-06-02	01:39:16	01:51:40	739916	5ad57f5c27c301000101d9c5	3	1	practice_z	9	practice_z	9	stimuli_target_diamondsquares.svg	stimuli_distractor_trianglediamonds.svg	6	yes	44	1	332	0	0			0	0			1				0	
6.6.1	win	2023-06-02	01:39:16	01:51:40	739916	5ad57f5c27c301000101d9c5	3	1	practice_z	9	advance_on_keypress_ZEE	10	stimuli_target_diamondsquares.svg	stimuli_distractor_trianglediamonds.svg	6	yes	57	0	351	0	0			0	0			1				0	
6.6.1	win	2023-06-02	01:39:16	01:51:44	743893	5ad57f5c27c301000101d9c5	3	1	practice_z	9	practice_z	11	stimuli_distractor_diamondtriangles.svg	stimuli_distractor_trianglediamonds.svg	14	no	0	1	2003	0	0			0	0			1				0	
6.6.1	win	2023-06-02	01:39:16	01:51:44	743893	5ad57f5c27c301000101d9c5	3	1	practice_z	9	advance_on_keypress_ZEE	12	stimuli_distractor_diamondtriangles.svg	stimuli_distractor_trianglediamonds.svg	14	no	57	0	348	0	0			0	0			1				0	
6.6.1	win	2023-06-02	01:39:16	01:51:46	746230	5ad57f5c27c301000101d9c5	3	1	practice_z	9	practice_z	13	stimuli_distractor_trianglediamonds.svg	stimuli_distractor_trianglediamonds.svg	15	no	44	0	373	0	0			0	0			1				0	
6.6.1	win	2023-06-02	01:39:16	01:51:46	746230	5ad57f5c27c301000101d9c5	3	1	practice_z	9	advance_on_keypress_ZEE	14	stimuli_distractor_trianglediamonds.svg	stimuli_distractor_trianglediamonds.svg	15	no	57	0	383	0	0			0	0			1				0	
6.6.1	win	2023-06-02	01:39:16	01:51:49	748662	5ad57f5c27c301000101d9c5	3	1	practice_z	9	practice_z	15	stimuli_target_rectanglediamonds.svg	stimuli_distractor_trianglediamonds.svg	4	yes	44	1	430	0	0			0	0			1				0	
6.6.1	win	2023-06-02	01:39:16	01:51:49	748662	5ad57f5c27c301000101d9c5	3	1	practice_z	9	advance_on_keypress_ZEE	16	stimuli_target_rectanglediamonds.svg	stimuli_distractor_trianglediamonds.svg	4	yes	57	0	312	0	0			0	0			1				0	
6.6.1	win	2023-06-02	01:39:16	01:51:51	750925	5ad57f5c27c301000101d9c5	3	1	practice_z	9	practice_z	17	stimuli_target_squarediamonds.svg	stimuli_distractor_diamondtriangles.svg	2	yes	44	1	332	0	0			0	0			1				0	
6.6.1	win	2023-06-02	01:39:16	01:51:51	750925	5ad57f5c27c301000101d9c5	3	1	practice_z	9	advance_on_keypress_ZEE	18	stimuli_target_squarediamonds.svg	stimuli_distractor_diamondtriangles.svg	2	yes	57	0	391	0	0			0	0			1				0	
6.6.1	win	2023-06-02	01:39:16	01:51:53	753438	5ad57f5c27c301000101d9c5	3	1	practice_z	9	practice_z	19	stimuli_distractor_trianglediamonds.svg	stimuli_target_diamondrectangles.svg	12	yes	44	1	504	0	0			0	0			1				0	
6.6.1	win	2023-06-02	01:39:16	01:51:53	753438	5ad57f5c27c301000101d9c5	3	1	practice_z	9	advance_on_keypress_ZEE	20	stimuli_distractor_trianglediamonds.svg	stimuli_target_diamondrectangles.svg	12	yes	57	0	318	0	0			0	0			1				0	
6.6.1	win	2023-06-02	01:39:16	01:51:56	755910	5ad57f5c27c301000101d9c5	3	1	practice_z	9	practice_z	21	stimuli_distractor_trianglediamonds.svg	stimuli_distractor_diamondtriangles.svg	16	no	44	0	532	0	0			0	0			1				0	
6.6.1	win	2023-06-02	01:39:16	01:51:56	755910	5ad57f5c27c301000101d9c5	3	1	practice_z	9	advance_on_keypress_ZEE	22	stimuli_distractor_trianglediamonds.svg	stimuli_distractor_diamondtriangles.svg	16	no	57	0	444	0	0			0	0			1				0	
6.6.1	win	2023-06-02	01:39:16	01:51:58	758279	5ad57f5c27c301000101d9c5	3	1	practice_z	9	practice_z	23	stimuli_target_squarediamonds.svg	stimuli_distractor_trianglediamonds.svg	5	yes	44	1	309	0	0			0	0			1				0	
6.6.1	win	2023-06-02	01:39:16	01:51:58	758279	5ad57f5c27c301000101d9c5	3	1	practice_z	9	advance_on_keypress_ZEE	24	stimuli_target_squarediamonds.svg	stimuli_distractor_trianglediamonds.svg	5	yes	57	0	356	0	0			0	0			1				0	
6.6.1	win	2023-06-02	01:39:16	01:52:01	760735	5ad57f5c27c301000101d9c5	3	1	practice_z	9	practice_z	25	stimuli_distractor_diamondtriangles.svg	stimuli_target_diamondrectangles.svg	8	yes	44	1	487	0	0			0	0			1				0	
6.6.1	win	2023-06-02	01:39:16	01:52:01	760735	5ad57f5c27c301000101d9c5	3	1	practice_z	9	advance_on_keypress_ZEE	26	stimuli_distractor_diamondtriangles.svg	stimuli_target_diamondrectangles.svg	8	yes	57	0	426	0	0			0	0			1				0	
6.6.1	win	2023-06-02	01:39:16	01:52:03	763215	5ad57f5c27c301000101d9c5	3	1	practice_z	9	practice_z	27	stimuli_distractor_diamondtriangles.svg	stimuli_target_trianglerectangles.svg	9	yes	44	1	439	0	0			0	0			1				0	
6.6.1	win	2023-06-02	01:39:16	01:52:03	763215	5ad57f5c27c301000101d9c5	3	1	practice_z	9	advance_on_keypress_ZEE	28	stimuli_distractor_diamondtriangles.svg	stimuli_target_trianglerectangles.svg	9	yes	57	0	339	0	0			0	0			1				0	
6.6.1	win	2023-06-02	01:39:16	01:52:05	765503	5ad57f5c27c301000101d9c5	3	1	practice_z	9	practice_z	29	stimuli_distractor_diamondtriangles.svg	stimuli_target_rectangletriangles.svg	7	yes	44	1	331	0	0			0	0			1				0	
6.6.1	win	2023-06-02	01:39:16	01:52:05	765503	5ad57f5c27c301000101d9c5	3	1	practice_z	9	advance_on_keypress_ZEE	30	stimuli_distractor_diamondtriangles.svg	stimuli_target_rectangletriangles.svg	7	yes	57	0	390	0	0			0	0			1				0	
6.6.1	win	2023-06-02	01:39:16	01:52:08	767872	5ad57f5c27c301000101d9c5	3	1	practice_z	9	practice_z	31	stimuli_distractor_diamondtriangles.svg	stimuli_distractor_diamondtriangles.svg	13	no	44	0	358	0	0			0	0			1				0	
6.6.1	win	2023-06-02	01:39:16	01:52:08	767872	5ad57f5c27c301000101d9c5	3	1	practice_z	9	advance_on_keypress_ZEE	32	stimuli_distractor_diamondtriangles.svg	stimuli_distractor_diamondtriangles.svg	13	no	57	0	967	0	0			0	0			1				0	
6.6.1	win	2023-06-02	01:39:16	01:52:12	772296	5ad57f5c27c301000101d9c5	3	1	main_z	11	main_z	1	stimuli_distractor_trianglediamonds.svg	stimuli_target_squarediamonds.svg	12	yes	44	1	289	0	0			0	0			1				0	
6.6.1	win	2023-06-02	01:39:16	01:52:12	772296	5ad57f5c27c301000101d9c5	3	1	main_z	11	advance_on_keypress_ZEE	2	stimuli_distractor_trianglediamonds.svg	stimuli_target_squarediamonds.svg	12	yes	57	0	502	0	0			0	0			1				0	
6.6.1	win	2023-06-02	01:39:16	01:52:14	773664	5ad57f5c27c301000101d9c5	3	1	main_z	11	main_z	3	stimuli_distractor_diamondtriangles.svg	stimuli_target_trianglesquares.svg	30	yes	44	1	247	0	0			0	0			1				0	
6.6.1	win	2023-06-02	01:39:16	01:52:14	773664	5ad57f5c27c301000101d9c5	3	1	main_z	11	advance_on_keypress_ZEE	4	stimuli_distractor_diamondtriangles.svg	stimuli_target_trianglesquares.svg	30	yes	57	0	374	0	0			0	0			1				0	
6.6.1	win	2023-06-02	01:39:16	01:52:15	774872	5ad57f5c27c301000101d9c5	3	1	main_z	11	main_z	5	stimuli_distractor_diamondtriangles.svg	stimuli_target_diamondrectangles.svg	31	yes	44	1	212	0	0			0	0			1				0	
6.6.1	win	2023-06-02	01:39:16	01:52:15	774872	5ad57f5c27c301000101d9c5	3	1	main_z	11	advance_on_keypress_ZEE	6	stimuli_distractor_diamondtriangles.svg	stimuli_target_diamondrectangles.svg	31	yes	57	0	293	0	0			0	0			1				0	
6.6.1	win	2023-06-02	01:39:16	01:52:16	776016	5ad57f5c27c301000101d9c5	3	1	main_z	11	main_z	7	stimuli_target_rectangletriangles.svg	stimuli_distractor_trianglediamonds.svg	1	yes	44	1	239	0	0			0	0			1				0	
6.6.1	win	2023-06-02	01:39:16	01:52:16	776016	5ad57f5c27c301000101d9c5	3	1	main_z	11	advance_on_keypress_ZEE	8	stimuli_target_rectangletriangles.svg	stimuli_distractor_trianglediamonds.svg	1	yes	57	0	371	0	0			0	0			1				0	
6.6.1	win	2023-06-02	01:39:16	01:52:17	777208	5ad57f5c27c301000101d9c5	3	1	main_z	11	main_z	9	stimuli_distractor_diamondtriangles.svg	stimuli_distractor_diamondtriangles.svg	40	no	44	0	207	0	0			0	0			1				0	
6.6.1	win	2023-06-02	01:39:16	01:52:17	777208	5ad57f5c27c301000101d9c5	3	1	main_z	11	advance_on_keypress_ZEE	10	stimuli_distractor_diamondtriangles.svg	stimuli_distractor_diamondtriangles.svg	40	no	57	0	449	0	0			0	0			1				0	
6.6.1	win	2023-06-02	01:39:16	01:52:18	778568	5ad57f5c27c301000101d9c5	3	1	main_z	11	main_z	11	stimuli_target_rectangletriangles.svg	stimuli_distractor_diamondtriangles.svg	5	yes	44	1	297	0	0			0	0			1				0	
6.6.1	win	2023-06-02	01:39:16	01:52:18	778568	5ad57f5c27c301000101d9c5	3	1	main_z	11	advance_on_keypress_ZEE	12	stimuli_target_rectangletriangles.svg	stimuli_distractor_diamondtriangles.svg	5	yes	57	0	374	0	0			0	0			1				0	
6.6.1	win	2023-06-02	01:39:16	01:52:20	779816	5ad57f5c27c301000101d9c5	3	1	main_z	11	main_z	13	stimuli_distractor_diamondtriangles.svg	stimuli_distractor_trianglediamonds.svg	38	no	44	0	260	0	0			0	0			1				0	
6.6.1	win	2023-06-02	01:39:16	01:52:20	779816	5ad57f5c27c301000101d9c5	3	1	main_z	11	advance_on_keypress_ZEE	14	stimuli_distractor_diamondtriangles.svg	stimuli_distractor_trianglediamonds.svg	38	no	57	0	348	0	0			0	0			1				0	
6.6.1	win	2023-06-02	01:39:16	01:52:21	781241	5ad57f5c27c301000101d9c5	3	1	main_z	11	main_z	15	stimuli_target_rectanglediamonds.svg	stimuli_distractor_diamondtriangles.svg	6	yes	44	1	462	0	0			0	0			1				0	
6.6.1	win	2023-06-02	01:39:16	01:52:21	781241	5ad57f5c27c301000101d9c5	3	1	main_z	11	advance_on_keypress_ZEE	16	stimuli_target_rectanglediamonds.svg	stimuli_distractor_diamondtriangles.svg	6	yes	57	0	396	0	0			0	0			1				0	
6.6.1	win	2023-06-02	01:39:16	01:52:24	784255	5ad57f5c27c301000101d9c5	3	1	main_z	11	main_z	17	stimuli_distractor_diamondtriangles.svg	stimuli_target_diamondsquares.svg	32	yes	0	0	2003	0	0			0	0			1				0	
6.6.1	win	2023-06-02	01:39:16	01:52:24	784255	5ad57f5c27c301000101d9c5	3	1	main_z	11	advance_on_keypress_ZEE	18	stimuli_distractor_diamondtriangles.svg	stimuli_target_diamondsquares.svg	32	yes	57	0	278	0	0			0	0			1				0	
6.6.1	win	2023-06-02	01:39:16	01:52:25	785449	5ad57f5c27c301000101d9c5	3	1	main_z	11	main_z	19	stimuli_distractor_trianglediamonds.svg	stimuli_target_trianglesquares.svg	26	yes	44	1	301	0	0			0	0			1				0	
6.6.1	win	2023-06-02	01:39:16	01:52:25	785449	5ad57f5c27c301000101d9c5	3	1	main_z	11	advance_on_keypress_ZEE	20	stimuli_distractor_trianglediamonds.svg	stimuli_target_trianglesquares.svg	26	yes	57	0	412	0	0			0	0			1				0	
6.6.1	win	2023-06-02	01:39:16	01:52:27	786818	5ad57f5c27c301000101d9c5	3	1	main_z	11	main_z	21	stimuli_distractor_diamondtriangles.svg	stimuli_target_squarediamonds.svg	16	yes	44	1	343	0	0			0	0			1				0	
6.6.1	win	2023-06-02	01:39:16	01:52:27	786818	5ad57f5c27c301000101d9c5	3	1	main_z	11	advance_on_keypress_ZEE	22	stimuli_distractor_diamondtriangles.svg	stimuli_target_squarediamonds.svg	16	yes	57	0	468	0	0			0	0			1				0	
6.6.1	win	2023-06-02	01:39:16	01:52:28	788282	5ad57f5c27c301000101d9c5	3	1	main_z	11	main_z	23	stimuli_target_rectanglediamonds.svg	stimuli_distractor_trianglediamonds.svg	2	yes	44	1	383	0	0			0	0			1				0	
6.6.1	win	2023-06-02	01:39:16	01:52:28	788282	5ad57f5c27c301000101d9c5	3	1	main_z	11	advance_on_keypress_ZEE	24	stimuli_target_rectanglediamonds.svg	stimuli_distractor_trianglediamonds.svg	2	yes	57	0	354	0	0			0	0			1				0	
6.6.1	win	2023-06-02	01:39:16	01:52:30	789754	5ad57f5c27c301000101d9c5	3	1	main_z	11	main_z	25	stimuli_target_squaretriangles.svg	stimuli_distractor_diamondtriangles.svg	7	yes	44	1	501	0	0			0	0			1				0	
6.6.1	win	2023-06-02	01:39:16	01:52:30	789754	5ad57f5c27c301000101d9c5	3	1	main_z	11	advance_on_keypress_ZEE	26	stimuli_target_squaretriangles.svg	stimuli_distractor_diamondtriangles.svg	7	yes	57	0	354	0	0			0	0			1				0	
6.6.1	win	2023-06-02	01:39:16	01:52:33	792728	5ad57f5c27c301000101d9c5	3	1	main_z	11	main_z	27	stimuli_distractor_trianglediamonds.svg	stimuli_distractor_trianglediamonds.svg	34	no	0	1	2003	0	0			0	0			1				0	
6.6.1	win	2023-06-02	01:39:16	01:52:33	792728	5ad57f5c27c301000101d9c5	3	1	main_z	11	advance_on_keypress_ZEE	28	stimuli_distractor_trianglediamonds.svg	stimuli_distractor_trianglediamonds.svg	34	no	57	0	254	0	0			0	0			1				0	
6.6.1	win	2023-06-02	01:39:16	01:52:34	793810	5ad57f5c27c301000101d9c5	3	1	main_z	11	main_z	29	stimuli_target_diamondrectangles.svg	stimuli_distractor_trianglediamonds.svg	19	yes	44	1	217	0	0			0	0			1				0	
6.6.1	win	2023-06-02	01:39:16	01:52:34	793810	5ad57f5c27c301000101d9c5	3	1	main_z	11	advance_on_keypress_ZEE	30	stimuli_target_diamondrectangles.svg	stimuli_distractor_trianglediamonds.svg	19	yes	57	0	419	0	0			0	0			1				0	
6.6.1	win	2023-06-02	01:39:16	01:52:35	795339	5ad57f5c27c301000101d9c5	3	1	main_z	11	main_z	31	stimuli_target_squaretriangles.svg	stimuli_distractor_trianglediamonds.svg	3	yes	44	1	495	0	0			0	0			1				0	
6.6.1	win	2023-06-02	01:39:16	01:52:35	795339	5ad57f5c27c301000101d9c5	3	1	main_z	11	advance_on_keypress_ZEE	32	stimuli_target_squaretriangles.svg	stimuli_distractor_trianglediamonds.svg	3	yes	57	0	459	0	0			0	0			1				0	
6.6.1	win	2023-06-02	01:39:16	01:52:37	796858	5ad57f5c27c301000101d9c5	3	1	main_z	11	main_z	33	stimuli_distractor_trianglediamonds.svg	stimuli_target_trianglerectangles.svg	25	yes	44	1	445	0	0			0	0			1				0	
6.6.1	win	2023-06-02	01:39:16	01:52:37	796858	5ad57f5c27c301000101d9c5	3	1	main_z	11	advance_on_keypress_ZEE	34	stimuli_distractor_trianglediamonds.svg	stimuli_target_trianglerectangles.svg	25	yes	57	0	393	0	0			0	0			1				0	
6.6.1	win	2023-06-02	01:39:16	01:52:38	798131	5ad57f5c27c301000101d9c5	3	1	main_z	11	main_z	35	stimuli_distractor_trianglediamonds.svg	stimuli_target_diamondsquares.svg	28	yes	44	1	265	0	0			0	0			1				0	
6.6.1	win	2023-06-02	01:39:16	01:52:38	798131	5ad57f5c27c301000101d9c5	3	1	main_z	11	advance_on_keypress_ZEE	36	stimuli_distractor_trianglediamonds.svg	stimuli_target_diamondsquares.svg	28	yes	57	0	394	0	0			0	0			1				0	
6.6.1	win	2023-06-02	01:39:16	01:52:39	799379	5ad57f5c27c301000101d9c5	3	1	main_z	11	main_z	37	stimuli_distractor_diamondtriangles.svg	stimuli_target_squaretriangles.svg	15	yes	44	1	235	0	0			0	0			1				0	
6.6.1	win	2023-06-02	01:39:16	01:52:39	799379	5ad57f5c27c301000101d9c5	3	1	main_z	11	advance_on_keypress_ZEE	38	stimuli_distractor_diamondtriangles.svg	stimuli_target_squaretriangles.svg	15	yes	57	0	344	0	0			0	0			1				0	
6.6.1	win	2023-06-02	01:39:16	01:52:40	800580	5ad57f5c27c301000101d9c5	3	1	main_z	11	main_z	39	stimuli_distractor_diamondtriangles.svg	stimuli_target_trianglerectangles.svg	29	yes	44	1	241	0	0			0	0			1				0	
6.6.1	win	2023-06-02	01:39:16	01:52:40	800580	5ad57f5c27c301000101d9c5	3	1	main_z	11	advance_on_keypress_ZEE	40	stimuli_distractor_diamondtriangles.svg	stimuli_target_trianglerectangles.svg	29	yes	57	0	407	0	0			0	0			1				0	
6.6.1	win	2023-06-02	01:39:16	01:52:42	801796	5ad57f5c27c301000101d9c5	3	1	main_z	11	main_z	41	stimuli_target_squarediamonds.svg	stimuli_distractor_trianglediamonds.svg	4	yes	44	1	193	0	0			0	0			1				0	
6.6.1	win	2023-06-02	01:39:16	01:52:42	801796	5ad57f5c27c301000101d9c5	3	1	main_z	11	advance_on_keypress_ZEE	42	stimuli_target_squarediamonds.svg	stimuli_distractor_trianglediamonds.svg	4	yes	57	0	352	0	0			0	0			1				0	
6.6.1	win	2023-06-02	01:39:16	01:52:43	802979	5ad57f5c27c301000101d9c5	3	1	main_z	11	main_z	43	stimuli_target_squarediamonds.svg	stimuli_distractor_diamondtriangles.svg	8	yes	44	1	210	0	0			0	0			1				0	
6.6.1	win	2023-06-02	01:39:16	01:52:43	802979	5ad57f5c27c301000101d9c5	3	1	main_z	11	advance_on_keypress_ZEE	44	stimuli_target_squarediamonds.svg	stimuli_distractor_diamondtriangles.svg	8	yes	57	0	307	0	0			0	0			1				0	
6.6.1	win	2023-06-02	01:39:16	01:52:44	804124	5ad57f5c27c301000101d9c5	3	1	main_z	11	main_z	45	stimuli_distractor_trianglediamonds.svg	stimuli_distractor_trianglediamonds.svg	33	no	44	0	222	0	0			0	0			1				0	
6.6.1	win	2023-06-02	01:39:16	01:52:44	804124	5ad57f5c27c301000101d9c5	3	1	main_z	11	advance_on_keypress_ZEE	46	stimuli_distractor_trianglediamonds.svg	stimuli_distractor_trianglediamonds.svg	33	no	57	0	609	0	0			0	0			1				0	
6.6.1	win	2023-06-02	01:39:16	01:52:47	807356	5ad57f5c27c301000101d9c5	3	1	main_z	11	main_z	47	stimuli_distractor_trianglediamonds.svg	stimuli_distractor_diamondtriangles.svg	35	no	0	1	2003	0	0			0	0			1				0	
6.6.1	win	2023-06-02	01:39:16	01:52:47	807356	5ad57f5c27c301000101d9c5	3	1	main_z	11	advance_on_keypress_ZEE	48	stimuli_distractor_trianglediamonds.svg	stimuli_distractor_diamondtriangles.svg	35	no	57	0	267	0	0			0	0			1				0	
6.6.1	win	2023-06-02	01:39:16	01:52:48	808524	5ad57f5c27c301000101d9c5	3	1	main_z	11	main_z	49	stimuli_distractor_diamondtriangles.svg	stimuli_target_rectanglediamonds.svg	14	yes	44	1	288	0	0			0	0			1				0	
6.6.1	win	2023-06-02	01:39:16	01:52:48	808524	5ad57f5c27c301000101d9c5	3	1	main_z	11	advance_on_keypress_ZEE	50	stimuli_distractor_diamondtriangles.svg	stimuli_target_rectanglediamonds.svg	14	yes	57	0	325	0	0			0	0			1				0	
6.6.1	win	2023-06-02	01:39:16	01:52:50	809828	5ad57f5c27c301000101d9c5	3	1	main_z	11	main_z	51	stimuli_distractor_trianglediamonds.svg	stimuli_target_squaretriangles.svg	11	yes	44	1	364	0	0			0	0			1				0	
6.6.1	win	2023-06-02	01:39:16	01:52:50	809828	5ad57f5c27c301000101d9c5	3	1	main_z	11	advance_on_keypress_ZEE	52	stimuli_distractor_trianglediamonds.svg	stimuli_target_squaretriangles.svg	11	yes	57	0	347	0	0			0	0			1				0	
6.6.1	win	2023-06-02	01:39:16	01:52:51	811356	5ad57f5c27c301000101d9c5	3	1	main_z	11	main_z	53	stimuli_distractor_trianglediamonds.svg	stimuli_target_diamondrectangles.svg	27	yes	44	1	565	0	0			0	0			1				0	
6.6.1	win	2023-06-02	01:39:16	01:52:51	811356	5ad57f5c27c301000101d9c5	3	1	main_z	11	advance_on_keypress_ZEE	54	stimuli_distractor_trianglediamonds.svg	stimuli_target_diamondrectangles.svg	27	yes	57	0	532	0	0			0	0			1				0	
6.6.1	win	2023-06-02	01:39:16	01:52:54	814503	5ad57f5c27c301000101d9c5	3	1	main_z	11	main_z	55	stimuli_distractor_trianglediamonds.svg	stimuli_distractor_diamondtriangles.svg	36	no	0	1	2003	0	0			0	0			1				0	
6.6.1	win	2023-06-02	01:39:16	01:52:54	814503	5ad57f5c27c301000101d9c5	3	1	main_z	11	advance_on_keypress_ZEE	56	stimuli_distractor_trianglediamonds.svg	stimuli_distractor_diamondtriangles.svg	36	no	57	0	241	0	0			0	0			1				0	
6.6.1	win	2023-06-02	01:39:16	01:52:56	815677	5ad57f5c27c301000101d9c5	3	1	main_z	11	main_z	57	stimuli_target_diamondsquares.svg	stimuli_distractor_diamondtriangles.svg	24	yes	44	1	315	0	0			0	0			1				0	
6.6.1	win	2023-06-02	01:39:16	01:52:56	815677	5ad57f5c27c301000101d9c5	3	1	main_z	11	advance_on_keypress_ZEE	58	stimuli_target_diamondsquares.svg	stimuli_distractor_diamondtriangles.svg	24	yes	57	0	395	0	0			0	0			1				0	
6.6.1	win	2023-06-02	01:39:16	01:52:57	817237	5ad57f5c27c301000101d9c5	3	1	main_z	11	main_z	59	stimuli_distractor_diamondtriangles.svg	stimuli_distractor_trianglediamonds.svg	37	no	44	0	548	0	0			0	0			1				0	
6.6.1	win	2023-06-02	01:39:16	01:52:57	817237	5ad57f5c27c301000101d9c5	3	1	main_z	11	advance_on_keypress_ZEE	60	stimuli_distractor_diamondtriangles.svg	stimuli_distractor_trianglediamonds.svg	37	no	57	0	425	0	0			0	0			1				0	
6.6.1	win	2023-06-02	01:39:16	01:52:59	818675	5ad57f5c27c301000101d9c5	3	1	main_z	11	main_z	61	stimuli_target_diamondrectangles.svg	stimuli_distractor_diamondtriangles.svg	23	yes	44	1	391	0	0			0	0			1				0	
6.6.1	win	2023-06-02	01:39:16	01:52:59	818675	5ad57f5c27c301000101d9c5	3	1	main_z	11	advance_on_keypress_ZEE	62	stimuli_target_diamondrectangles.svg	stimuli_distractor_diamondtriangles.svg	23	yes	57	0	340	0	0			0	0			1				0	
6.6.1	win	2023-06-02	01:39:16	01:53:00	820070	5ad57f5c27c301000101d9c5	3	1	main_z	11	main_z	63	stimuli_target_trianglerectangles.svg	stimuli_distractor_diamondtriangles.svg	21	yes	44	1	436	0	0			0	0			1				0	
6.6.1	win	2023-06-02	01:39:16	01:53:00	820070	5ad57f5c27c301000101d9c5	3	1	main_z	11	advance_on_keypress_ZEE	64	stimuli_target_trianglerectangles.svg	stimuli_distractor_diamondtriangles.svg	21	yes	57	0	320	0	0			0	0			1				0	
6.6.1	win	2023-06-02	01:39:16	01:53:02	821637	5ad57f5c27c301000101d9c5	3	1	main_z	11	main_z	65	stimuli_distractor_trianglediamonds.svg	stimuli_target_rectanglediamonds.svg	10	yes	44	1	629	0	0			0	0			1				0	
6.6.1	win	2023-06-02	01:39:16	01:53:02	821637	5ad57f5c27c301000101d9c5	3	1	main_z	11	advance_on_keypress_ZEE	66	stimuli_distractor_trianglediamonds.svg	stimuli_target_rectanglediamonds.svg	10	yes	57	0	445	0	0			0	0			1				0	
6.6.1	win	2023-06-02	01:39:16	01:53:03	823118	5ad57f5c27c301000101d9c5	3	1	main_z	11	main_z	67	stimuli_distractor_diamondtriangles.svg	stimuli_target_rectangletriangles.svg	13	yes	44	1	421	0	0			0	0			1				0	
6.6.1	win	2023-06-02	01:39:16	01:53:03	823118	5ad57f5c27c301000101d9c5	3	1	main_z	11	advance_on_keypress_ZEE	68	stimuli_distractor_diamondtriangles.svg	stimuli_target_rectangletriangles.svg	13	yes	57	0	350	0	0			0	0			1				0	
6.6.1	win	2023-06-02	01:39:16	01:53:04	824567	5ad57f5c27c301000101d9c5	3	1	main_z	11	main_z	69	stimuli_target_trianglesquares.svg	stimuli_distractor_trianglediamonds.svg	18	yes	44	1	487	0	0			0	0			1				0	
6.6.1	win	2023-06-02	01:39:16	01:53:04	824567	5ad57f5c27c301000101d9c5	3	1	main_z	11	advance_on_keypress_ZEE	70	stimuli_target_trianglesquares.svg	stimuli_distractor_trianglediamonds.svg	18	yes	57	0	347	0	0			0	0			1				0	
6.6.1	win	2023-06-02	01:39:16	01:53:06	825742	5ad57f5c27c301000101d9c5	3	1	main_z	11	main_z	71	stimuli_target_trianglesquares.svg	stimuli_distractor_diamondtriangles.svg	22	yes	44	1	211	0	0			0	0			1				0	
6.6.1	win	2023-06-02	01:39:16	01:53:06	825742	5ad57f5c27c301000101d9c5	3	1	main_z	11	advance_on_keypress_ZEE	72	stimuli_target_trianglesquares.svg	stimuli_distractor_diamondtriangles.svg	22	yes	57	0	348	0	0			0	0			1				0	
6.6.1	win	2023-06-02	01:39:16	01:53:07	826974	5ad57f5c27c301000101d9c5	3	1	main_z	11	main_z	73	stimuli_target_diamondsquares.svg	stimuli_distractor_trianglediamonds.svg	20	yes	44	1	270	0	0			0	0			1				0	
6.6.1	win	2023-06-02	01:39:16	01:53:07	826974	5ad57f5c27c301000101d9c5	3	1	main_z	11	advance_on_keypress_ZEE	74	stimuli_target_diamondsquares.svg	stimuli_distractor_trianglediamonds.svg	20	yes	57	0	345	0	0			0	0			1				0	
6.6.1	win	2023-06-02	01:39:16	01:53:08	828191	5ad57f5c27c301000101d9c5	3	1	main_z	11	main_z	75	stimuli_distractor_trianglediamonds.svg	stimuli_target_rectangletriangles.svg	9	yes	44	1	257	0	0			0	0			1				0	
6.6.1	win	2023-06-02	01:39:16	01:53:08	828191	5ad57f5c27c301000101d9c5	3	1	main_z	11	advance_on_keypress_ZEE	76	stimuli_distractor_trianglediamonds.svg	stimuli_target_rectangletriangles.svg	9	yes	57	0	393	0	0			0	0			1				0	
6.6.1	win	2023-06-02	01:39:16	01:53:09	829463	5ad57f5c27c301000101d9c5	3	1	main_z	11	main_z	77	stimuli_target_trianglerectangles.svg	stimuli_distractor_trianglediamonds.svg	17	yes	44	1	266	0	0			0	0			1				0	
6.6.1	win	2023-06-02	01:39:16	01:53:09	829463	5ad57f5c27c301000101d9c5	3	1	main_z	11	advance_on_keypress_ZEE	78	stimuli_target_trianglerectangles.svg	stimuli_distractor_trianglediamonds.svg	17	yes	57	0	346	0	0			0	0			1				0	
6.6.1	win	2023-06-02	01:39:16	01:53:11	830671	5ad57f5c27c301000101d9c5	3	1	main_z	11	main_z	79	stimuli_distractor_diamondtriangles.svg	stimuli_distractor_diamondtriangles.svg	39	no	44	0	244	0	0			0	0			1				0	
6.6.1	win	2023-06-02	01:39:16	01:53:11	830671	5ad57f5c27c301000101d9c5	3	1	main_z	11	advance_on_keypress_ZEE	80	stimuli_distractor_diamondtriangles.svg	stimuli_distractor_diamondtriangles.svg	39	no	57	0	402	0	0			0	0			1				0	
6.6.1	win	2023-06-02	01:39:16	01:53:12	831919	5ad57f5c27c301000101d9c5	3	1	main_z	11	main_z	81	stimuli_distractor_diamondtriangles.svg	stimuli_distractor_diamondtriangles.svg	40	no	44	0	228	0	0			0	0			1				0	
6.6.1	win	2023-06-02	01:39:16	01:53:12	831919	5ad57f5c27c301000101d9c5	3	1	main_z	11	advance_on_keypress_ZEE	82	stimuli_distractor_diamondtriangles.svg	stimuli_distractor_diamondtriangles.svg	40	no	57	0	935	0	0			0	0			1				0	
6.6.1	win	2023-06-02	01:39:16	01:53:14	833806	5ad57f5c27c301000101d9c5	3	1	main_z	11	main_z	83	stimuli_target_squarediamonds.svg	stimuli_distractor_trianglediamonds.svg	4	yes	44	1	331	0	0			0	0			1				0	
6.6.1	win	2023-06-02	01:39:16	01:53:14	833806	5ad57f5c27c301000101d9c5	3	1	main_z	11	advance_on_keypress_ZEE	84	stimuli_target_squarediamonds.svg	stimuli_distractor_trianglediamonds.svg	4	yes	57	0	350	0	0			0	0			1				0	
6.6.1	win	2023-06-02	01:39:16	01:53:15	835263	5ad57f5c27c301000101d9c5	3	1	main_z	11	main_z	85	stimuli_distractor_diamondtriangles.svg	stimuli_distractor_trianglediamonds.svg	37	no	44	0	496	0	0			0	0			1				0	
6.6.1	win	2023-06-02	01:39:16	01:53:15	835263	5ad57f5c27c301000101d9c5	3	1	main_z	11	advance_on_keypress_ZEE	86	stimuli_distractor_diamondtriangles.svg	stimuli_distractor_trianglediamonds.svg	37	no	57	0	371	0	0			0	0			1				0	
6.6.1	win	2023-06-02	01:39:16	01:53:16	836591	5ad57f5c27c301000101d9c5	3	1	main_z	11	main_z	87	stimuli_distractor_diamondtriangles.svg	stimuli_target_trianglerectangles.svg	29	yes	44	1	344	0	0			0	0			1				0	
6.6.1	win	2023-06-02	01:39:16	01:53:16	836591	5ad57f5c27c301000101d9c5	3	1	main_z	11	advance_on_keypress_ZEE	88	stimuli_distractor_diamondtriangles.svg	stimuli_target_trianglerectangles.svg	29	yes	57	0	317	0	0			0	0			1				0	
6.6.1	win	2023-06-02	01:39:16	01:53:18	837960	5ad57f5c27c301000101d9c5	3	1	main_z	11	main_z	89	stimuli_distractor_trianglediamonds.svg	stimuli_target_trianglerectangles.svg	25	yes	44	1	434	0	0			0	0			1				0	
6.6.1	win	2023-06-02	01:39:16	01:53:18	837960	5ad57f5c27c301000101d9c5	3	1	main_z	11	advance_on_keypress_ZEE	90	stimuli_distractor_trianglediamonds.svg	stimuli_target_trianglerectangles.svg	25	yes	57	0	301	0	0			0	0			1				0	
6.6.1	win	2023-06-02	01:39:16	01:53:19	839176	5ad57f5c27c301000101d9c5	3	1	main_z	11	main_z	91	stimuli_distractor_diamondtriangles.svg	stimuli_target_squarediamonds.svg	16	yes	44	1	303	0	0			0	0			1				0	
6.6.1	win	2023-06-02	01:39:16	01:53:19	839176	5ad57f5c27c301000101d9c5	3	1	main_z	11	advance_on_keypress_ZEE	92	stimuli_distractor_diamondtriangles.svg	stimuli_target_squarediamonds.svg	16	yes	57	0	261	0	0			0	0			1				0	
6.6.1	win	2023-06-02	01:39:16	01:53:20	840320	5ad57f5c27c301000101d9c5	3	1	main_z	11	main_z	93	stimuli_distractor_trianglediamonds.svg	stimuli_target_rectanglediamonds.svg	10	yes	44	1	273	0	0			0	0			1				0	
6.6.1	win	2023-06-02	01:39:16	01:53:20	840320	5ad57f5c27c301000101d9c5	3	1	main_z	11	advance_on_keypress_ZEE	94	stimuli_distractor_trianglediamonds.svg	stimuli_target_rectanglediamonds.svg	10	yes	57	0	283	0	0			0	0			1				0	
6.6.1	win	2023-06-02	01:39:16	01:53:21	841560	5ad57f5c27c301000101d9c5	3	1	main_z	11	main_z	95	stimuli_distractor_diamondtriangles.svg	stimuli_target_diamondsquares.svg	32	yes	44	1	339	0	0			0	0			1				0	
6.6.1	win	2023-06-02	01:39:16	01:53:21	841560	5ad57f5c27c301000101d9c5	3	1	main_z	11	advance_on_keypress_ZEE	96	stimuli_distractor_diamondtriangles.svg	stimuli_target_diamondsquares.svg	32	yes	57	0	304	0	0			0	0			1				0	
6.6.1	win	2023-06-02	01:39:16	01:53:23	842720	5ad57f5c27c301000101d9c5	3	1	main_z	11	main_z	97	stimuli_distractor_trianglediamonds.svg	stimuli_distractor_diamondtriangles.svg	35	no	44	0	236	0	0			0	0			1				0	
6.6.1	win	2023-06-02	01:39:16	01:53:23	842720	5ad57f5c27c301000101d9c5	3	1	main_z	11	advance_on_keypress_ZEE	98	stimuli_distractor_trianglediamonds.svg	stimuli_distractor_diamondtriangles.svg	35	no	57	0	489	0	0			0	0			1				0	
6.6.1	win	2023-06-02	01:39:16	01:53:24	844160	5ad57f5c27c301000101d9c5	3	1	main_z	11	main_z	99	stimuli_target_rectangletriangles.svg	stimuli_distractor_diamondtriangles.svg	5	yes	44	1	335	0	0			0	0			1				0	
6.6.1	win	2023-06-02	01:39:16	01:53:24	844160	5ad57f5c27c301000101d9c5	3	1	main_z	11	advance_on_keypress_ZEE	100	stimuli_target_rectangletriangles.svg	stimuli_distractor_diamondtriangles.svg	5	yes	57	0	339	0	0			0	0			1				0	
6.6.1	win	2023-06-02	01:39:16	01:53:25	845520	5ad57f5c27c301000101d9c5	3	1	main_z	11	main_z	101	stimuli_target_rectanglediamonds.svg	stimuli_distractor_trianglediamonds.svg	2	yes	44	1	404	0	0			0	0			1				0	
6.6.1	win	2023-06-02	01:39:16	01:53:25	845520	5ad57f5c27c301000101d9c5	3	1	main_z	11	advance_on_keypress_ZEE	102	stimuli_target_rectanglediamonds.svg	stimuli_distractor_trianglediamonds.svg	2	yes	57	0	353	0	0			0	0			1				0	
6.6.1	win	2023-06-02	01:39:16	01:53:27	846881	5ad57f5c27c301000101d9c5	3	1	main_z	11	main_z	103	stimuli_distractor_trianglediamonds.svg	stimuli_target_diamondsquares.svg	28	yes	44	1	388	0	0			0	0			1				0	
6.6.1	win	2023-06-02	01:39:16	01:53:27	846881	5ad57f5c27c301000101d9c5	3	1	main_z	11	advance_on_keypress_ZEE	104	stimuli_distractor_trianglediamonds.svg	stimuli_target_diamondsquares.svg	28	yes	57	0	264	0	0			0	0			1				0	
6.6.1	win	2023-06-02	01:39:16	01:53:28	848113	5ad57f5c27c301000101d9c5	3	1	main_z	11	main_z	105	stimuli_target_rectangletriangles.svg	stimuli_distractor_trianglediamonds.svg	1	yes	44	1	349	0	0			0	0			1				0	
6.6.1	win	2023-06-02	01:39:16	01:53:28	848113	5ad57f5c27c301000101d9c5	3	1	main_z	11	advance_on_keypress_ZEE	106	stimuli_target_rectangletriangles.svg	stimuli_distractor_trianglediamonds.svg	1	yes	57	0	436	0	0			0	0			1				0	
6.6.1	win	2023-06-02	01:39:16	01:53:29	849401	5ad57f5c27c301000101d9c5	3	1	main_z	11	main_z	107	stimuli_target_trianglerectangles.svg	stimuli_distractor_trianglediamonds.svg	17	yes	44	1	234	0	0			0	0			1				0	
6.6.1	win	2023-06-02	01:39:16	01:53:29	849401	5ad57f5c27c301000101d9c5	3	1	main_z	11	advance_on_keypress_ZEE	108	stimuli_target_trianglerectangles.svg	stimuli_distractor_trianglediamonds.svg	17	yes	57	0	351	0	0			0	0			1				0	
6.6.1	win	2023-06-02	01:39:16	01:53:31	850697	5ad57f5c27c301000101d9c5	3	1	main_z	11	main_z	109	stimuli_target_squaretriangles.svg	stimuli_distractor_diamondtriangles.svg	7	yes	44	1	330	0	0			0	0			1				0	
6.6.1	win	2023-06-02	01:39:16	01:53:31	850697	5ad57f5c27c301000101d9c5	3	1	main_z	11	advance_on_keypress_ZEE	110	stimuli_target_squaretriangles.svg	stimuli_distractor_diamondtriangles.svg	7	yes	57	0	308	0	0			0	0			1				0	
6.6.1	win	2023-06-02	01:39:16	01:53:32	851969	5ad57f5c27c301000101d9c5	3	1	main_z	11	main_z	111	stimuli_distractor_diamondtriangles.svg	stimuli_target_rectanglediamonds.svg	14	yes	44	1	351	0	0			0	0			1				0	
6.6.1	win	2023-06-02	01:39:16	01:53:32	851969	5ad57f5c27c301000101d9c5	3	1	main_z	11	advance_on_keypress_ZEE	112	stimuli_distractor_diamondtriangles.svg	stimuli_target_rectanglediamonds.svg	14	yes	57	0	349	0	0			0	0			1				0	
6.6.1	win	2023-06-02	01:39:16	01:53:33	853210	5ad57f5c27c301000101d9c5	3	1	main_z	11	main_z	113	stimuli_distractor_trianglediamonds.svg	stimuli_distractor_trianglediamonds.svg	34	no	44	0	279	0	0			0	0			1				0	
6.6.1	win	2023-06-02	01:39:16	01:53:33	853210	5ad57f5c27c301000101d9c5	3	1	main_z	11	advance_on_keypress_ZEE	114	stimuli_distractor_trianglediamonds.svg	stimuli_distractor_trianglediamonds.svg	34	no	57	0	434	0	0			0	0			1				0	
6.6.1	win	2023-06-02	01:39:16	01:53:34	854602	5ad57f5c27c301000101d9c5	3	1	main_z	11	main_z	115	stimuli_target_diamondrectangles.svg	stimuli_distractor_trianglediamonds.svg	19	yes	44	1	344	0	0			0	0			1				0	
6.6.1	win	2023-06-02	01:39:16	01:53:34	854602	5ad57f5c27c301000101d9c5	3	1	main_z	11	advance_on_keypress_ZEE	116	stimuli_target_diamondrectangles.svg	stimuli_distractor_trianglediamonds.svg	19	yes	57	0	301	0	0			0	0			1				0	
6.6.1	win	2023-06-02	01:39:16	01:53:37	857518	5ad57f5c27c301000101d9c5	3	1	main_z	11	main_z	117	stimuli_distractor_diamondtriangles.svg	stimuli_distractor_trianglediamonds.svg	38	no	0	1	2003	0	0			0	0			1				0	
6.6.1	win	2023-06-02	01:39:16	01:53:37	857518	5ad57f5c27c301000101d9c5	3	1	main_z	11	advance_on_keypress_ZEE	118	stimuli_distractor_diamondtriangles.svg	stimuli_distractor_trianglediamonds.svg	38	no	57	0	287	0	0			0	0			1				0	
6.6.1	win	2023-06-02	01:39:16	01:53:39	858746	5ad57f5c27c301000101d9c5	3	1	main_z	11	main_z	119	stimuli_distractor_diamondtriangles.svg	stimuli_distractor_diamondtriangles.svg	39	no	44	0	328	0	0			0	0			1				0	
6.6.1	win	2023-06-02	01:39:16	01:53:39	858746	5ad57f5c27c301000101d9c5	3	1	main_z	11	advance_on_keypress_ZEE	120	stimuli_distractor_diamondtriangles.svg	stimuli_distractor_diamondtriangles.svg	39	no	57	0	395	0	0			0	0			1				0	
6.6.1	win	2023-06-02	01:39:16	01:53:40	860258	5ad57f5c27c301000101d9c5	3	1	main_z	11	main_z	121	stimuli_distractor_trianglediamonds.svg	stimuli_target_squaretriangles.svg	11	yes	44	1	500	0	0			0	0			1				0	
6.6.1	win	2023-06-02	01:39:16	01:53:40	860258	5ad57f5c27c301000101d9c5	3	1	main_z	11	advance_on_keypress_ZEE	122	stimuli_distractor_trianglediamonds.svg	stimuli_target_squaretriangles.svg	11	yes	57	0	449	0	0			0	0			1				0	
6.6.1	win	2023-06-02	01:39:16	01:53:42	861619	5ad57f5c27c301000101d9c5	3	1	main_z	11	main_z	123	stimuli_target_squarediamonds.svg	stimuli_distractor_diamondtriangles.svg	8	yes	44	1	297	0	0			0	0			1				0	
6.6.1	win	2023-06-02	01:39:16	01:53:42	861619	5ad57f5c27c301000101d9c5	3	1	main_z	11	advance_on_keypress_ZEE	124	stimuli_target_squarediamonds.svg	stimuli_distractor_diamondtriangles.svg	8	yes	57	0	319	0	0			0	0			1				0	
6.6.1	win	2023-06-02	01:39:16	01:53:43	862899	5ad57f5c27c301000101d9c5	3	1	main_z	11	main_z	125	stimuli_distractor_diamondtriangles.svg	stimuli_target_rectangletriangles.svg	13	yes	44	1	341	0	0			0	0			1				0	
6.6.1	win	2023-06-02	01:39:16	01:53:43	862899	5ad57f5c27c301000101d9c5	3	1	main_z	11	advance_on_keypress_ZEE	126	stimuli_distractor_diamondtriangles.svg	stimuli_target_rectangletriangles.svg	13	yes	57	0	257	0	0			0	0			1				0	
6.6.1	win	2023-06-02	01:39:16	01:53:44	864169	5ad57f5c27c301000101d9c5	3	1	main_z	11	main_z	127	stimuli_target_diamondsquares.svg	stimuli_distractor_trianglediamonds.svg	20	yes	44	1	391	0	0			0	0			1				0	
6.6.1	win	2023-06-02	01:39:16	01:53:44	864169	5ad57f5c27c301000101d9c5	3	1	main_z	11	advance_on_keypress_ZEE	128	stimuli_target_diamondsquares.svg	stimuli_distractor_trianglediamonds.svg	20	yes	57	0	290	0	0			0	0			1				0	
6.6.1	win	2023-06-02	01:39:16	01:53:45	865555	5ad57f5c27c301000101d9c5	3	1	main_z	11	main_z	129	stimuli_distractor_diamondtriangles.svg	stimuli_target_trianglesquares.svg	30	yes	44	1	476	0	0			0	0			1				0	
6.6.1	win	2023-06-02	01:39:16	01:53:45	865555	5ad57f5c27c301000101d9c5	3	1	main_z	11	advance_on_keypress_ZEE	130	stimuli_distractor_diamondtriangles.svg	stimuli_target_trianglesquares.svg	30	yes	57	0	340	0	0			0	0			1				0	
6.6.1	win	2023-06-02	01:39:16	01:53:47	866747	5ad57f5c27c301000101d9c5	3	1	main_z	11	main_z	131	stimuli_target_trianglerectangles.svg	stimuli_distractor_diamondtriangles.svg	21	yes	44	1	237	0	0			0	0			1				0	
6.6.1	win	2023-06-02	01:39:16	01:53:47	866747	5ad57f5c27c301000101d9c5	3	1	main_z	11	advance_on_keypress_ZEE	132	stimuli_target_trianglerectangles.svg	stimuli_distractor_diamondtriangles.svg	21	yes	57	0	338	0	0			0	0			1				0	
6.6.1	win	2023-06-02	01:39:16	01:53:48	867923	5ad57f5c27c301000101d9c5	3	1	main_z	11	main_z	133	stimuli_target_squaretriangles.svg	stimuli_distractor_trianglediamonds.svg	3	yes	44	1	225	0	0			0	0			1				0	
6.6.1	win	2023-06-02	01:39:16	01:53:48	867923	5ad57f5c27c301000101d9c5	3	1	main_z	11	advance_on_keypress_ZEE	134	stimuli_target_squaretriangles.svg	stimuli_distractor_trianglediamonds.svg	3	yes	57	0	364	0	0			0	0			1				0	
6.6.1	win	2023-06-02	01:39:16	01:53:49	869147	5ad57f5c27c301000101d9c5	3	1	main_z	11	main_z	135	stimuli_distractor_trianglediamonds.svg	stimuli_target_diamondrectangles.svg	27	yes	44	1	248	0	0			0	0			1				0	
6.6.1	win	2023-06-02	01:39:16	01:53:49	869147	5ad57f5c27c301000101d9c5	3	1	main_z	11	advance_on_keypress_ZEE	136	stimuli_distractor_trianglediamonds.svg	stimuli_target_diamondrectangles.svg	27	yes	57	0	311	0	0			0	0			1				0	
6.6.1	win	2023-06-02	01:39:16	01:53:50	870308	5ad57f5c27c301000101d9c5	3	1	main_z	11	main_z	137	stimuli_distractor_diamondtriangles.svg	stimuli_target_diamondrectangles.svg	31	yes	44	1	228	0	0			0	0			1				0	
6.6.1	win	2023-06-02	01:39:16	01:53:50	870308	5ad57f5c27c301000101d9c5	3	1	main_z	11	advance_on_keypress_ZEE	138	stimuli_distractor_diamondtriangles.svg	stimuli_target_diamondrectangles.svg	31	yes	57	0	279	0	0			0	0			1				0	
6.6.1	win	2023-06-02	01:39:16	01:53:51	871419	5ad57f5c27c301000101d9c5	3	1	main_z	11	main_z	139	stimuli_target_diamondrectangles.svg	stimuli_distractor_diamondtriangles.svg	23	yes	44	1	214	0	0			0	0			1				0	
6.6.1	win	2023-06-02	01:39:16	01:53:51	871419	5ad57f5c27c301000101d9c5	3	1	main_z	11	advance_on_keypress_ZEE	140	stimuli_target_diamondrectangles.svg	stimuli_distractor_diamondtriangles.svg	23	yes	57	0	280	0	0			0	0			1				0	
6.6.1	win	2023-06-02	01:39:16	01:53:52	872588	5ad57f5c27c301000101d9c5	3	1	main_z	11	main_z	141	stimuli_target_diamondsquares.svg	stimuli_distractor_diamondtriangles.svg	24	yes	44	1	272	0	0			0	0			1				0	
6.6.1	win	2023-06-02	01:39:16	01:53:52	872588	5ad57f5c27c301000101d9c5	3	1	main_z	11	advance_on_keypress_ZEE	142	stimuli_target_diamondsquares.svg	stimuli_distractor_diamondtriangles.svg	24	yes	57	0	257	0	0			0	0			1				0	
6.6.1	win	2023-06-02	01:39:16	01:53:54	873741	5ad57f5c27c301000101d9c5	3	1	main_z	11	main_z	143	stimuli_target_trianglesquares.svg	stimuli_distractor_trianglediamonds.svg	18	yes	44	1	278	0	0			0	0			1				0	
6.6.1	win	2023-06-02	01:39:16	01:53:54	873741	5ad57f5c27c301000101d9c5	3	1	main_z	11	advance_on_keypress_ZEE	144	stimuli_target_trianglesquares.svg	stimuli_distractor_trianglediamonds.svg	18	yes	57	0	224	0	0			0	0			1				0	
6.6.1	win	2023-06-02	01:39:16	01:53:55	874852	5ad57f5c27c301000101d9c5	3	1	main_z	11	main_z	145	stimuli_distractor_trianglediamonds.svg	stimuli_target_squarediamonds.svg	12	yes	44	1	272	0	0			0	0			1				0	
6.6.1	win	2023-06-02	01:39:16	01:53:55	874852	5ad57f5c27c301000101d9c5	3	1	main_z	11	advance_on_keypress_ZEE	146	stimuli_distractor_trianglediamonds.svg	stimuli_target_squarediamonds.svg	12	yes	57	0	281	0	0			0	0			1				0	
6.6.1	win	2023-06-02	01:39:16	01:53:56	875988	5ad57f5c27c301000101d9c5	3	1	main_z	11	main_z	147	stimuli_target_rectanglediamonds.svg	stimuli_distractor_diamondtriangles.svg	6	yes	44	1	241	0	0			0	0			1				0	
6.6.1	win	2023-06-02	01:39:16	01:53:56	875988	5ad57f5c27c301000101d9c5	3	1	main_z	11	advance_on_keypress_ZEE	148	stimuli_target_rectanglediamonds.svg	stimuli_distractor_diamondtriangles.svg	6	yes	57	0	295	0	0			0	0			1				0	
6.6.1	win	2023-06-02	01:39:16	01:53:57	877140	5ad57f5c27c301000101d9c5	3	1	main_z	11	main_z	149	stimuli_target_trianglesquares.svg	stimuli_distractor_diamondtriangles.svg	22	yes	44	1	240	0	0			0	0			1				0	
6.6.1	win	2023-06-02	01:39:16	01:53:57	877140	5ad57f5c27c301000101d9c5	3	1	main_z	11	advance_on_keypress_ZEE	150	stimuli_target_trianglesquares.svg	stimuli_distractor_diamondtriangles.svg	22	yes	57	0	277	0	0			0	0			1				0	
6.6.1	win	2023-06-02	01:39:16	01:53:58	878269	5ad57f5c27c301000101d9c5	3	1	main_z	11	main_z	151	stimuli_distractor_trianglediamonds.svg	stimuli_distractor_diamondtriangles.svg	36	no	44	0	236	0	0			0	0			1				0	
6.6.1	win	2023-06-02	01:39:16	01:53:58	878269	5ad57f5c27c301000101d9c5	3	1	main_z	11	advance_on_keypress_ZEE	152	stimuli_distractor_trianglediamonds.svg	stimuli_distractor_diamondtriangles.svg	36	no	57	0	664	0	0			0	0			1				0	
6.6.1	win	2023-06-02	01:39:16	01:54:00	879749	5ad57f5c27c301000101d9c5	3	1	main_z	11	main_z	153	stimuli_distractor_trianglediamonds.svg	stimuli_target_rectangletriangles.svg	9	yes	44	1	195	0	0			0	0			1				0	
6.6.1	win	2023-06-02	01:39:16	01:54:00	879749	5ad57f5c27c301000101d9c5	3	1	main_z	11	advance_on_keypress_ZEE	154	stimuli_distractor_trianglediamonds.svg	stimuli_target_rectangletriangles.svg	9	yes	57	0	281	0	0			0	0			1				0	
6.6.1	win	2023-06-02	01:39:16	01:54:01	880885	5ad57f5c27c301000101d9c5	3	1	main_z	11	main_z	155	stimuli_distractor_diamondtriangles.svg	stimuli_target_squaretriangles.svg	15	yes	44	1	240	0	0			0	0			1				0	
6.6.1	win	2023-06-02	01:39:16	01:54:01	880885	5ad57f5c27c301000101d9c5	3	1	main_z	11	advance_on_keypress_ZEE	156	stimuli_distractor_diamondtriangles.svg	stimuli_target_squaretriangles.svg	15	yes	57	0	221	0	0			0	0			1				0	
6.6.1	win	2023-06-02	01:39:16	01:54:02	881933	5ad57f5c27c301000101d9c5	3	1	main_z	11	main_z	157	stimuli_distractor_trianglediamonds.svg	stimuli_target_trianglesquares.svg	26	yes	44	1	212	0	0			0	0			1				0	
6.6.1	win	2023-06-02	01:39:16	01:54:02	881933	5ad57f5c27c301000101d9c5	3	1	main_z	11	advance_on_keypress_ZEE	158	stimuli_distractor_trianglediamonds.svg	stimuli_target_trianglesquares.svg	26	yes	57	0	300	0	0			0	0			1				0	
6.6.1	win	2023-06-02	01:39:16	01:54:03	882909	5ad57f5c27c301000101d9c5	3	1	main_z	11	main_z	159	stimuli_distractor_trianglediamonds.svg	stimuli_distractor_trianglediamonds.svg	33	no	44	0	62	0	0			0	0			1				0	
6.6.1	win	2023-06-02	01:39:16	01:54:03	882909	5ad57f5c27c301000101d9c5	3	1	main_z	11	advance_on_keypress_ZEE	160	stimuli_distractor_trianglediamonds.svg	stimuli_distractor_trianglediamonds.svg	33	no	57	0	281	0	0			0	0			1				0	
6.6.1	win	2023-06-02	01:39:16	01:54:03	882909	5ad57f5c27c301000101d9c5	3	1	headphonecheck_calibration	14	headphonecheck_calibrationIntro	1	stimuli_distractor_trianglediamonds.svg	stimuli_distractor_trianglediamonds.svg	33	no	calibrationButton	0	1286	0	0			0	0			1				0	
6.6.1	win	2023-06-02	01:39:16	01:54:03	882909	5ad57f5c27c301000101d9c5	3	1	headphonecheck_testphase	15	test_collectResponse	3	stimuli_distractor_trianglediamonds.svg	stimuli_distractor_trianglediamonds.svg	33	no	first	1	259	1	3	antiphase_hc_soi.wav	1	0	0			1				0	
6.6.1	win	2023-06-02	01:39:16	01:54:03	882909	5ad57f5c27c301000101d9c5	3	1	headphonecheck_testphase	15	test_collectResponse	6	stimuli_distractor_trianglediamonds.svg	stimuli_distractor_trianglediamonds.svg	33	no	second	1	713	2	1	antiphase_hc_iso.wav	2	0	0			1				0	
6.6.1	win	2023-06-02	01:39:16	01:54:03	882909	5ad57f5c27c301000101d9c5	3	1	headphonecheck_testphase	15	test_collectResponse	9	stimuli_distractor_trianglediamonds.svg	stimuli_distractor_trianglediamonds.svg	33	no	third	1	434	3	2	antiphase_hc_ios.wav	3	0	0			1				0	
6.6.1	win	2023-06-02	01:39:16	01:54:03	882909	5ad57f5c27c301000101d9c5	3	1	headphonecheck_testphase	15	test_collectResponse	12	stimuli_distractor_trianglediamonds.svg	stimuli_distractor_trianglediamonds.svg	33	no	second	1	502	4	5	antiphase_hc_osi.wav	2	0	0			1				0	
6.6.1	win	2023-06-02	01:39:16	01:54:03	882909	5ad57f5c27c301000101d9c5	3	1	headphonecheck_testphase	15	test_collectResponse	15	stimuli_distractor_trianglediamonds.svg	stimuli_distractor_trianglediamonds.svg	33	no	first	1	418	5	4	antiphase_hc_sio.wav	1	0	0			1				0	
6.6.1	win	2023-06-02	01:39:16	01:54:03	882909	5ad57f5c27c301000101d9c5	3	1	headphonecheck_testphase	15	test_collectResponse	18	stimuli_distractor_trianglediamonds.svg	stimuli_distractor_trianglediamonds.svg	33	no	third	1	153	6	6	antiphase_hc_ois.wav	3	0	0			1				0	
6.6.1	win	2023-06-02	01:39:16	01:54:03	882909	5ad57f5c27c301000101d9c5	3	1	stereocheck_calibration	17	stereocheck_calibrationIntro	1	stimuli_distractor_trianglediamonds.svg	stimuli_distractor_trianglediamonds.svg	33	no	stereocheck_calibrationButton	0	1198	6	6	antiphase_hc_ois.wav	3	0	0			1				0	
6.6.1	win	2023-06-02	01:39:16	01:54:03	882909	5ad57f5c27c301000101d9c5	3	1	stereocheck_testphase	18	stereocheck_test_collectResponse	3	stimuli_distractor_trianglediamonds.svg	stimuli_distractor_trianglediamonds.svg	33	no	stereocheck_left	1	81	6	6	antiphase_hc_ois.wav	3	1	3	noise_calib_stim_LEFT.wav	1	1				0	
6.6.1	win	2023-06-02	01:39:16	01:54:03	882909	5ad57f5c27c301000101d9c5	3	1	stereocheck_testphase	18	stereocheck_test_collectResponse	6	stimuli_distractor_trianglediamonds.svg	stimuli_distractor_trianglediamonds.svg	33	no	stereocheck_right	1	0	6	6	antiphase_hc_ois.wav	3	2	5	noise_calib_stim_RIGHT.wav	2	1				0	
6.6.1	win	2023-06-02	01:39:16	01:54:03	882909	5ad57f5c27c301000101d9c5	3	1	stereocheck_testphase	18	stereocheck_test_collectResponse	9	stimuli_distractor_trianglediamonds.svg	stimuli_distractor_trianglediamonds.svg	33	no	stereocheck_right	1	82	6	6	antiphase_hc_ois.wav	3	3	6	noise_calib_stim_RIGHT.wav	2	1				0	
6.6.1	win	2023-06-02	01:39:16	01:54:03	882909	5ad57f5c27c301000101d9c5	3	1	stereocheck_testphase	18	stereocheck_test_collectResponse	12	stimuli_distractor_trianglediamonds.svg	stimuli_distractor_trianglediamonds.svg	33	no	stereocheck_left	1	80	6	6	antiphase_hc_ois.wav	3	4	2	noise_calib_stim_LEFT.wav	1	1				0	
6.6.1	win	2023-06-02	01:39:16	01:54:03	882909	5ad57f5c27c301000101d9c5	3	1	stereocheck_testphase	18	stereocheck_test_collectResponse	15	stimuli_distractor_trianglediamonds.svg	stimuli_distractor_trianglediamonds.svg	33	no	stereocheck_right	1	84	6	6	antiphase_hc_ois.wav	3	5	4	noise_calib_stim_RIGHT.wav	2	1				0	
6.6.1	win	2023-06-02	01:39:16	01:54:03	882909	5ad57f5c27c301000101d9c5	3	1	stereocheck_testphase	18	stereocheck_test_collectResponse	18	stimuli_distractor_trianglediamonds.svg	stimuli_distractor_trianglediamonds.svg	33	no	stereocheck_left	1	82	6	6	antiphase_hc_ois.wav	3	6	1	noise_calib_stim_LEFT.wav	1	1				0	
6.6.1	win	2023-06-02	01:39:16	01:54:03	882909	5ad57f5c27c301000101d9c5	3	1	DL_practice	21	DL_practice	2	stimuli_distractor_trianglediamonds.svg	stimuli_distractor_trianglediamonds.svg	33	no	ba	1	1346	6	6	antiphase_hc_ois.wav	3	6	1	noise_calib_stim_LEFT.wav	1	1	blb_dichoticlistening_ba-ba.mp3	ba	ba	0	left
6.6.1	win	2023-06-02	01:39:16	01:54:03	882909	5ad57f5c27c301000101d9c5	3	1	DL_practice	21	DL_practice	3	stimuli_distractor_trianglediamonds.svg	stimuli_distractor_trianglediamonds.svg	33	no	pa	1	1034	6	6	antiphase_hc_ois.wav	3	6	1	noise_calib_stim_LEFT.wav	1	29	blb_dichoticlistening_pa-pa.mp3	pa	pa	0	left
6.6.1	win	2023-06-02	01:39:16	01:54:03	882909	5ad57f5c27c301000101d9c5	3	1	DL_practice	21	DL_practice	4	stimuli_distractor_trianglediamonds.svg	stimuli_distractor_trianglediamonds.svg	33	no	da	1	727	6	6	antiphase_hc_ois.wav	3	6	1	noise_calib_stim_LEFT.wav	1	8	blb_dichoticlistening_da-da.mp3	da	da	0	left
6.6.1	win	2023-06-02	01:39:16	01:54:03	882909	5ad57f5c27c301000101d9c5	3	1	DL_practice	21	DL_practice	5	stimuli_distractor_trianglediamonds.svg	stimuli_distractor_trianglediamonds.svg	33	no	ta	1	666	6	6	antiphase_hc_ois.wav	3	6	1	noise_calib_stim_LEFT.wav	1	36	blb_dichoticlistening_ta-ta.mp3	ta	ta	0	left
6.6.1	win	2023-06-02	01:39:16	01:54:03	882909	5ad57f5c27c301000101d9c5	3	1	DL_practice	21	DL_practice	6	stimuli_distractor_trianglediamonds.svg	stimuli_distractor_trianglediamonds.svg	33	no	da	1	2392	6	6	antiphase_hc_ois.wav	3	6	1	noise_calib_stim_LEFT.wav	1	7	blb_dichoticlistening_da-ba.mp3	da	ba	1	left
6.6.1	win	2023-06-02	01:39:16	01:54:03	882909	5ad57f5c27c301000101d9c5	3	1	DL_practice	21	DL_practice	7	stimuli_distractor_trianglediamonds.svg	stimuli_distractor_trianglediamonds.svg	33	no	ka	1	875	6	6	antiphase_hc_ois.wav	3	6	1	noise_calib_stim_LEFT.wav	1	22	blb_dichoticlistening_ka-ka.mp3	ka	ka	0	left
6.6.1	win	2023-06-02	01:39:16	01:54:03	882909	5ad57f5c27c301000101d9c5	3	1	DL_practice	21	DL_practice	8	stimuli_distractor_trianglediamonds.svg	stimuli_distractor_trianglediamonds.svg	33	no	ka	0	1148	6	6	antiphase_hc_ois.wav	3	6	1	noise_calib_stim_LEFT.wav	1	18	blb_dichoticlistening_ga-ta.mp3	ga	ta	1	other
6.6.1	win	2023-06-02	01:39:16	01:54:03	882909	5ad57f5c27c301000101d9c5	3	1	DL_practice	21	DL_practice	9	stimuli_distractor_trianglediamonds.svg	stimuli_distractor_trianglediamonds.svg	33	no	ga	1	838	6	6	antiphase_hc_ois.wav	3	6	1	noise_calib_stim_LEFT.wav	1	15	blb_dichoticlistening_ga-ga.mp3	ga	ga	0	left
6.6.1	win	2023-06-02	01:39:16	01:54:03	882909	5ad57f5c27c301000101d9c5	3	1	DL_practice	21	DL_practice	10	stimuli_distractor_trianglediamonds.svg	stimuli_distractor_trianglediamonds.svg	33	no	pa	1	689	6	6	antiphase_hc_ois.wav	3	6	1	noise_calib_stim_LEFT.wav	1	23	blb_dichoticlistening_ka-pa.mp3	ka	pa	1	right
6.6.1	win	2023-06-02	01:39:16	01:54:03	882909	5ad57f5c27c301000101d9c5	3	1	DL_test	23	DL_test	1	stimuli_distractor_trianglediamonds.svg	stimuli_distractor_trianglediamonds.svg	33	no	da	1	1151	6	6	antiphase_hc_ois.wav	3	6	1	noise_calib_stim_LEFT.wav	1	32	blb_dichoticlistening_ta-da.mp3	ta	da	1	right
6.6.1	win	2023-06-02	01:39:16	01:54:03	882909	5ad57f5c27c301000101d9c5	3	1	DL_test	23	DL_test	2	stimuli_distractor_trianglediamonds.svg	stimuli_distractor_trianglediamonds.svg	33	no	pa	0	1014	6	6	antiphase_hc_ois.wav	3	6	1	noise_calib_stim_LEFT.wav	1	10	blb_dichoticlistening_da-ka.mp3	da	ka	1	other
6.6.1	win	2023-06-02	01:39:16	01:54:03	882909	5ad57f5c27c301000101d9c5	3	1	DL_test	23	DL_test	3	stimuli_distractor_trianglediamonds.svg	stimuli_distractor_trianglediamonds.svg	33	no	ta	1	621	6	6	antiphase_hc_ois.wav	3	6	1	noise_calib_stim_LEFT.wav	1	35	blb_dichoticlistening_ta-pa.mp3	ta	pa	1	left
6.6.1	win	2023-06-02	01:39:16	01:54:03	882909	5ad57f5c27c301000101d9c5	3	1	DL_test	23	DL_test	4	stimuli_distractor_trianglediamonds.svg	stimuli_distractor_trianglediamonds.svg	33	no	pa	1	1078	6	6	antiphase_hc_ois.wav	3	6	1	noise_calib_stim_LEFT.wav	1	25	blb_dichoticlistening_pa-ba.mp3	pa	ba	1	left
6.6.1	win	2023-06-02	01:39:16	01:54:03	882909	5ad57f5c27c301000101d9c5	3	1	DL_test	23	DL_test	5	stimuli_distractor_trianglediamonds.svg	stimuli_distractor_trianglediamonds.svg	33	no	ga	1	660	6	6	antiphase_hc_ois.wav	3	6	1	noise_calib_stim_LEFT.wav	1	33	blb_dichoticlistening_ta-ga.mp3	ta	ga	1	right
6.6.1	win	2023-06-02	01:39:16	01:54:03	882909	5ad57f5c27c301000101d9c5	3	1	DL_test	23	DL_test	6	stimuli_distractor_trianglediamonds.svg	stimuli_distractor_trianglediamonds.svg	33	no	ga	1	618	6	6	antiphase_hc_ois.wav	3	6	1	noise_calib_stim_LEFT.wav	1	3	blb_dichoticlistening_ba-ga.mp3	ba	ga	1	right
6.6.1	win	2023-06-02	01:39:16	01:54:03	882909	5ad57f5c27c301000101d9c5	3	1	DL_test	23	DL_test	7	stimuli_distractor_trianglediamonds.svg	stimuli_distractor_trianglediamonds.svg	33	no	pa	1	606	6	6	antiphase_hc_ois.wav	3	6	1	noise_calib_stim_LEFT.wav	1	5	blb_dichoticlistening_ba-pa.mp3	ba	pa	1	right
6.6.1	win	2023-06-02	01:39:16	01:54:03	882909	5ad57f5c27c301000101d9c5	3	1	DL_test	23	DL_test	8	stimuli_distractor_trianglediamonds.svg	stimuli_distractor_trianglediamonds.svg	33	no	ta	1	658	6	6	antiphase_hc_ois.wav	3	6	1	noise_calib_stim_LEFT.wav	1	36	blb_dichoticlistening_ta-ta.mp3	ta	ta	0	left
6.6.1	win	2023-06-02	01:39:16	01:54:03	882909	5ad57f5c27c301000101d9c5	3	1	DL_test	23	DL_test	9	stimuli_distractor_trianglediamonds.svg	stimuli_distractor_trianglediamonds.svg	33	no	ga	1	951	6	6	antiphase_hc_ois.wav	3	6	1	noise_calib_stim_LEFT.wav	1	15	blb_dichoticlistening_ga-ga.mp3	ga	ga	0	left
6.6.1	win	2023-06-02	01:39:16	01:54:03	882909	5ad57f5c27c301000101d9c5	3	1	DL_test	23	DL_test	10	stimuli_distractor_trianglediamonds.svg	stimuli_distractor_trianglediamonds.svg	33	no	ka	1	872	6	6	antiphase_hc_ois.wav	3	6	1	noise_calib_stim_LEFT.wav	1	20	blb_dichoticlistening_ka-da.mp3	ka	da	1	left
6.6.1	win	2023-06-02	01:39:16	01:54:03	882909	5ad57f5c27c301000101d9c5	3	1	DL_test	23	DL_test	11	stimuli_distractor_trianglediamonds.svg	stimuli_distractor_trianglediamonds.svg	33	no	da	1	739	6	6	antiphase_hc_ois.wav	3	6	1	noise_calib_stim_LEFT.wav	1	2	blb_dichoticlistening_ba-da.mp3	ba	da	1	right
6.6.1	win	2023-06-02	01:39:16	01:54:03	882909	5ad57f5c27c301000101d9c5	3	1	DL_test	23	DL_test	12	stimuli_distractor_trianglediamonds.svg	stimuli_distractor_trianglediamonds.svg	33	no	pa	1	701	6	6	antiphase_hc_ois.wav	3	6	1	noise_calib_stim_LEFT.wav	1	11	blb_dichoticlistening_da-pa.mp3	da	pa	1	right
6.6.1	win	2023-06-02	01:39:16	01:54:03	882909	5ad57f5c27c301000101d9c5	3	1	DL_test	23	DL_test	13	stimuli_distractor_trianglediamonds.svg	stimuli_distractor_trianglediamonds.svg	33	no	ga	1	1306	6	6	antiphase_hc_ois.wav	3	6	1	noise_calib_stim_LEFT.wav	1	14	blb_dichoticlistening_ga-da.mp3	ga	da	1	left
6.6.1	win	2023-06-02	01:39:16	01:54:03	882909	5ad57f5c27c301000101d9c5	3	1	DL_test	23	DL_test	14	stimuli_distractor_trianglediamonds.svg	stimuli_distractor_trianglediamonds.svg	33	no	pa	1	721	6	6	antiphase_hc_ois.wav	3	6	1	noise_calib_stim_LEFT.wav	1	26	blb_dichoticlistening_pa-da.mp3	pa	da	1	left
6.6.1	win	2023-06-02	01:39:16	01:54:03	882909	5ad57f5c27c301000101d9c5	3	1	DL_test	23	DL_test	15	stimuli_distractor_trianglediamonds.svg	stimuli_distractor_trianglediamonds.svg	33	no	ta	1	612	6	6	antiphase_hc_ois.wav	3	6	1	noise_calib_stim_LEFT.wav	1	30	blb_dichoticlistening_pa-ta.mp3	pa	ta	1	right
6.6.1	win	2023-06-02	01:39:16	01:54:03	882909	5ad57f5c27c301000101d9c5	3	1	DL_test	23	DL_test	16	stimuli_distractor_trianglediamonds.svg	stimuli_distractor_trianglediamonds.svg	33	no	ka	1	773	6	6	antiphase_hc_ois.wav	3	6	1	noise_calib_stim_LEFT.wav	1	24	blb_dichoticlistening_ka-ta.mp3	ka	ta	1	left
6.6.1	win	2023-06-02	01:39:16	01:54:03	882909	5ad57f5c27c301000101d9c5	3	1	DL_test	23	DL_test	17	stimuli_distractor_trianglediamonds.svg	stimuli_distractor_trianglediamonds.svg	33	no	da	1	657	6	6	antiphase_hc_ois.wav	3	6	1	noise_calib_stim_LEFT.wav	1	8	blb_dichoticlistening_da-da.mp3	da	da	0	left
6.6.1	win	2023-06-02	01:39:16	01:54:03	882909	5ad57f5c27c301000101d9c5	3	1	DL_test	23	DL_test	18	stimuli_distractor_trianglediamonds.svg	stimuli_distractor_trianglediamonds.svg	33	no	ta	1	964	6	6	antiphase_hc_ois.wav	3	6	1	noise_calib_stim_LEFT.wav	1	31	blb_dichoticlistening_ta-ba.mp3	ta	ba	1	left
6.6.1	win	2023-06-02	01:39:16	01:54:03	882909	5ad57f5c27c301000101d9c5	3	1	DL_test	23	DL_test	19	stimuli_distractor_trianglediamonds.svg	stimuli_distractor_trianglediamonds.svg	33	no	pa	0	468	6	6	antiphase_hc_ois.wav	3	6	1	noise_calib_stim_LEFT.wav	1	19	blb_dichoticlistening_ka-ba.mp3	ka	ba	1	other
6.6.1	win	2023-06-02	01:39:16	01:54:03	882909	5ad57f5c27c301000101d9c5	3	1	DL_test	23	DL_test	20	stimuli_distractor_trianglediamonds.svg	stimuli_distractor_trianglediamonds.svg	33	no	pa	0	660	6	6	antiphase_hc_ois.wav	3	6	1	noise_calib_stim_LEFT.wav	1	13	blb_dichoticlistening_ga-ba.mp3	ga	ba	1	other
6.6.1	win	2023-06-02	01:39:16	01:54:03	882909	5ad57f5c27c301000101d9c5	3	1	DL_test	23	DL_test	21	stimuli_distractor_trianglediamonds.svg	stimuli_distractor_trianglediamonds.svg	33	no	ka	1	1270	6	6	antiphase_hc_ois.wav	3	6	1	noise_calib_stim_LEFT.wav	1	28	blb_dichoticlistening_pa-ka.mp3	pa	ka	1	right
6.6.1	win	2023-06-02	01:39:16	01:54:03	882909	5ad57f5c27c301000101d9c5	3	1	DL_test	23	DL_test	22	stimuli_distractor_trianglediamonds.svg	stimuli_distractor_trianglediamonds.svg	33	no	ka	1	787	6	6	antiphase_hc_ois.wav	3	6	1	noise_calib_stim_LEFT.wav	1	22	blb_dichoticlistening_ka-ka.mp3	ka	ka	0	left
6.6.1	win	2023-06-02	01:39:16	01:54:03	882909	5ad57f5c27c301000101d9c5	3	1	DL_test	23	DL_test	23	stimuli_distractor_trianglediamonds.svg	stimuli_distractor_trianglediamonds.svg	33	no	pa	1	1587	6	6	antiphase_hc_ois.wav	3	6	1	noise_calib_stim_LEFT.wav	1	23	blb_dichoticlistening_ka-pa.mp3	ka	pa	1	right
6.6.1	win	2023-06-02	01:39:16	01:54:03	882909	5ad57f5c27c301000101d9c5	3	1	DL_test	23	DL_test	24	stimuli_distractor_trianglediamonds.svg	stimuli_distractor_trianglediamonds.svg	33	no	ta	1	1157	6	6	antiphase_hc_ois.wav	3	6	1	noise_calib_stim_LEFT.wav	1	12	blb_dichoticlistening_da-ta.mp3	da	ta	1	right
6.6.1	win	2023-06-02	01:39:16	01:54:03	882909	5ad57f5c27c301000101d9c5	3	1	DL_test	23	DL_test	25	stimuli_distractor_trianglediamonds.svg	stimuli_distractor_trianglediamonds.svg	33	no	ka	1	881	6	6	antiphase_hc_ois.wav	3	6	1	noise_calib_stim_LEFT.wav	1	4	blb_dichoticlistening_ba-ka.mp3	ba	ka	1	right
6.6.1	win	2023-06-02	01:39:16	01:54:03	882909	5ad57f5c27c301000101d9c5	3	1	DL_test	23	DL_test	26	stimuli_distractor_trianglediamonds.svg	stimuli_distractor_trianglediamonds.svg	33	no	ga	1	922	6	6	antiphase_hc_ois.wav	3	6	1	noise_calib_stim_LEFT.wav	1	18	blb_dichoticlistening_ga-ta.mp3	ga	ta	1	left
