build	computer.platform	date	time	timestamp	time_elapsed_ms	subject	group	session	blockcode	blocknum	trialcode	trialnum	stimulus_left	stimulus_right	stim_index	target_present	response	correct	latency	headphonecheck_countTestTrials	headphonecheck_index	headphonecheck_testSound	headphonecheck_correctResponse	stereocheck_countTestTrials	stereocheck_index	stereocheck_testSound	stereocheck_correctResponse	DL_index	DL_soundfile	DL_leftSound	DL_rightSound	DL_dualSound	DL_choice
6.6.1	win	2023-06-27	08:50:50	0	0	63d1412396ee4fa133b52643	2	1	headphonecheck_calibration	4	headphonecheck_calibrationIntro	1			0		calibrationButton	0	2408	0	0			0	0			1				0	
6.6.1	win	2023-06-27	08:50:50	0	0	63d1412396ee4fa133b52643	2	1	headphonecheck_testphase	5	test_collectResponse	3			0		third	0	43312	1	3	antiphase_hc_soi.wav	1	0	0			1				0	
6.6.1	win	2023-06-27	08:50:50	0	0	63d1412396ee4fa133b52643	2	1	headphonecheck_testphase	5	test_collectResponse	6			0		third	1	365	2	6	antiphase_hc_ois.wav	3	0	0			1				0	
6.6.1	win	2023-06-27	08:50:50	0	0	63d1412396ee4fa133b52643	2	1	headphonecheck_testphase	5	test_collectResponse	9			0		first	1	249	3	4	antiphase_hc_sio.wav	1	0	0			1				0	
6.6.1	win	2023-06-27	08:50:50	0	0	63d1412396ee4fa133b52643	2	1	headphonecheck_testphase	5	test_collectResponse	12			0		second	1	317	4	1	antiphase_hc_iso.wav	2	0	0			1				0	
6.6.1	win	2023-06-27	08:50:50	0	0	63d1412396ee4fa133b52643	2	1	headphonecheck_testphase	5	test_collectResponse	15			0		third	1	245	5	2	antiphase_hc_ios.wav	3	0	0			1				0	
6.6.1	win	2023-06-27	08:50:50	0	0	63d1412396ee4fa133b52643	2	1	headphonecheck_testphase	5	test_collectResponse	18			0		second	1	154	6	5	antiphase_hc_osi.wav	2	0	0			1				0	
6.6.1	win	2023-06-27	08:50:50	0	0	63d1412396ee4fa133b52643	2	1	stereocheck_calibration	7	stereocheck_calibrationIntro	1			0		stereocheck_calibrationButton	0	5641	6	5	antiphase_hc_osi.wav	2	0	0			1				0	
6.6.1	win	2023-06-27	08:50:50	0	0	63d1412396ee4fa133b52643	2	1	stereocheck_testphase	8	stereocheck_test_collectResponse	3			0		stereocheck_right	1	233	6	5	antiphase_hc_osi.wav	2	1	5	noise_calib_stim_RIGHT.wav	2	1				0	
6.6.1	win	2023-06-27	08:50:50	0	0	63d1412396ee4fa133b52643	2	1	stereocheck_testphase	8	stereocheck_test_collectResponse	6			0		stereocheck_right	1	150	6	5	antiphase_hc_osi.wav	2	2	4	noise_calib_stim_RIGHT.wav	2	1				0	
6.6.1	win	2023-06-27	08:50:50	0	0	63d1412396ee4fa133b52643	2	1	stereocheck_testphase	8	stereocheck_test_collectResponse	9			0		stereocheck_left	1	164	6	5	antiphase_hc_osi.wav	2	3	3	noise_calib_stim_LEFT.wav	1	1				0	
6.6.1	win	2023-06-27	08:50:50	0	0	63d1412396ee4fa133b52643	2	1	stereocheck_testphase	8	stereocheck_test_collectResponse	12			0		stereocheck_left	1	171	6	5	antiphase_hc_osi.wav	2	4	1	noise_calib_stim_LEFT.wav	1	1				0	
6.6.1	win	2023-06-27	08:50:50	0	0	63d1412396ee4fa133b52643	2	1	stereocheck_testphase	8	stereocheck_test_collectResponse	15			0		stereocheck_left	1	0	6	5	antiphase_hc_osi.wav	2	5	2	noise_calib_stim_LEFT.wav	1	1				0	
6.6.1	win	2023-06-27	08:50:50	0	0	63d1412396ee4fa133b52643	2	1	stereocheck_testphase	8	stereocheck_test_collectResponse	18			0		stereocheck_right	1	208	6	5	antiphase_hc_osi.wav	2	6	6	noise_calib_stim_RIGHT.wav	2	1				0	
6.6.1	win	2023-06-27	08:50:50	0	0	63d1412396ee4fa133b52643	2	1	DL_practice	11	DL_practice	2			0		ta	1	1133	6	5	antiphase_hc_osi.wav	2	6	6	noise_calib_stim_RIGHT.wav	2	36	blb_dichoticlistening_ta-ta.mp3	ta	ta	0	left
6.6.1	win	2023-06-27	08:50:50	0	0	63d1412396ee4fa133b52643	2	1	DL_practice	11	DL_practice	3			0		ba	1	2024	6	5	antiphase_hc_osi.wav	2	6	6	noise_calib_stim_RIGHT.wav	2	7	blb_dichoticlistening_da-ba.mp3	da	ba	1	right
6.6.1	win	2023-06-27	08:50:50	0	0	63d1412396ee4fa133b52643	2	1	DL_practice	11	DL_practice	4			0		ka	1	1210	6	5	antiphase_hc_osi.wav	2	6	6	noise_calib_stim_RIGHT.wav	2	23	blb_dichoticlistening_ka-pa.mp3	ka	pa	1	left
6.6.1	win	2023-06-27	08:50:50	0	0	63d1412396ee4fa133b52643	2	1	DL_practice	11	DL_practice	5			0		ba	1	1483	6	5	antiphase_hc_osi.wav	2	6	6	noise_calib_stim_RIGHT.wav	2	1	blb_dichoticlistening_ba-ba.mp3	ba	ba	0	left
6.6.1	win	2023-06-27	08:50:50	0	0	63d1412396ee4fa133b52643	2	1	DL_practice	11	DL_practice	6			0		pa	1	1020	6	5	antiphase_hc_osi.wav	2	6	6	noise_calib_stim_RIGHT.wav	2	29	blb_dichoticlistening_pa-pa.mp3	pa	pa	0	left
6.6.1	win	2023-06-27	08:50:50	0	0	63d1412396ee4fa133b52643	2	1	DL_practice	11	DL_practice	7			0		ka	1	742	6	5	antiphase_hc_osi.wav	2	6	6	noise_calib_stim_RIGHT.wav	2	22	blb_dichoticlistening_ka-ka.mp3	ka	ka	0	left
6.6.1	win	2023-06-27	08:50:50	0	0	63d1412396ee4fa133b52643	2	1	DL_practice	11	DL_practice	8			0		ga	1	698	6	5	antiphase_hc_osi.wav	2	6	6	noise_calib_stim_RIGHT.wav	2	15	blb_dichoticlistening_ga-ga.mp3	ga	ga	0	left
6.6.1	win	2023-06-27	08:50:50	0	0	63d1412396ee4fa133b52643	2	1	DL_practice	11	DL_practice	9			0		da	0	862	6	5	antiphase_hc_osi.wav	2	6	6	noise_calib_stim_RIGHT.wav	2	18	blb_dichoticlistening_ga-ta.mp3	ga	ta	1	other
6.6.1	win	2023-06-27	08:50:50	0	0	63d1412396ee4fa133b52643	2	1	DL_practice	11	DL_practice	10			0		da	1	561	6	5	antiphase_hc_osi.wav	2	6	6	noise_calib_stim_RIGHT.wav	2	8	blb_dichoticlistening_da-da.mp3	da	da	0	left
6.6.1	win	2023-06-27	08:50:50	0	0	63d1412396ee4fa133b52643	2	1	DL_test	13	DL_test	1			0		da	1	2080	6	5	antiphase_hc_osi.wav	2	6	6	noise_calib_stim_RIGHT.wav	2	32	blb_dichoticlistening_ta-da.mp3	ta	da	1	right
6.6.1	win	2023-06-27	08:50:50	0	0	63d1412396ee4fa133b52643	2	1	DL_test	13	DL_test	2			0		da	1	682	6	5	antiphase_hc_osi.wav	2	6	6	noise_calib_stim_RIGHT.wav	2	26	blb_dichoticlistening_pa-da.mp3	pa	da	1	right
6.6.1	win	2023-06-27	08:50:50	0	0	63d1412396ee4fa133b52643	2	1	DL_test	13	DL_test	3			0		ta	1	1354	6	5	antiphase_hc_osi.wav	2	6	6	noise_calib_stim_RIGHT.wav	2	30	blb_dichoticlistening_pa-ta.mp3	pa	ta	1	right
6.6.1	win	2023-06-27	08:50:50	0	0	63d1412396ee4fa133b52643	2	1	DL_test	13	DL_test	4			0		ga	1	1283	6	5	antiphase_hc_osi.wav	2	6	6	noise_calib_stim_RIGHT.wav	2	3	blb_dichoticlistening_ba-ga.mp3	ba	ga	1	right
6.6.1	win	2023-06-27	08:50:50	0	0	63d1412396ee4fa133b52643	2	1	DL_test	13	DL_test	5			0		ga	1	1391	6	5	antiphase_hc_osi.wav	2	6	6	noise_calib_stim_RIGHT.wav	2	16	blb_dichoticlistening_ga-ka.mp3	ga	ka	1	left
6.6.1	win	2023-06-27	08:50:50	0	0	63d1412396ee4fa133b52643	2	1	DL_test	13	DL_test	6			0		ka	1	1150	6	5	antiphase_hc_osi.wav	2	6	6	noise_calib_stim_RIGHT.wav	2	24	blb_dichoticlistening_ka-ta.mp3	ka	ta	1	left
6.6.1	win	2023-06-27	08:50:50	0	0	63d1412396ee4fa133b52643	2	1	DL_test	13	DL_test	7			0		ga	1	1219	6	5	antiphase_hc_osi.wav	2	6	6	noise_calib_stim_RIGHT.wav	2	33	blb_dichoticlistening_ta-ga.mp3	ta	ga	1	right
6.6.1	win	2023-06-27	08:50:50	0	0	63d1412396ee4fa133b52643	2	1	DL_test	13	DL_test	8			0		ka	1	736	6	5	antiphase_hc_osi.wav	2	6	6	noise_calib_stim_RIGHT.wav	2	23	blb_dichoticlistening_ka-pa.mp3	ka	pa	1	left
6.6.1	win	2023-06-27	08:50:50	0	0	63d1412396ee4fa133b52643	2	1	DL_test	13	DL_test	9			0		ga	1	834	6	5	antiphase_hc_osi.wav	2	6	6	noise_calib_stim_RIGHT.wav	2	21	blb_dichoticlistening_ka-ga.mp3	ka	ga	1	right
6.6.1	win	2023-06-27	08:50:50	0	0	63d1412396ee4fa133b52643	2	1	DL_test	13	DL_test	10			0		ga	1	870	6	5	antiphase_hc_osi.wav	2	6	6	noise_calib_stim_RIGHT.wav	2	9	blb_dichoticlistening_da-ga.mp3	da	ga	1	right
6.6.1	win	2023-06-27	08:50:50	0	0	63d1412396ee4fa133b52643	2	1	DL_test	13	DL_test	11			0		ta	1	1196	6	5	antiphase_hc_osi.wav	2	6	6	noise_calib_stim_RIGHT.wav	2	35	blb_dichoticlistening_ta-pa.mp3	ta	pa	1	left
6.6.1	win	2023-06-27	08:50:50	0	0	63d1412396ee4fa133b52643	2	1	DL_test	13	DL_test	12			0		ba	1	1166	6	5	antiphase_hc_osi.wav	2	6	6	noise_calib_stim_RIGHT.wav	2	25	blb_dichoticlistening_pa-ba.mp3	pa	ba	1	right
6.6.1	win	2023-06-27	08:50:50	0	0	63d1412396ee4fa133b52643	2	1	DL_test	13	DL_test	13			0		pa	1	1391	6	5	antiphase_hc_osi.wav	2	6	6	noise_calib_stim_RIGHT.wav	2	5	blb_dichoticlistening_ba-pa.mp3	ba	pa	1	right
6.6.1	win	2023-06-27	08:50:50	0	0	63d1412396ee4fa133b52643	2	1	DL_test	13	DL_test	14			0		ga	1	899	6	5	antiphase_hc_osi.wav	2	6	6	noise_calib_stim_RIGHT.wav	2	17	blb_dichoticlistening_ga-pa.mp3	ga	pa	1	left
6.6.1	win	2023-06-27	08:50:50	0	0	63d1412396ee4fa133b52643	2	1	DL_test	13	DL_test	15			0		ta	1	1218	6	5	antiphase_hc_osi.wav	2	6	6	noise_calib_stim_RIGHT.wav	2	31	blb_dichoticlistening_ta-ba.mp3	ta	ba	1	left
6.6.1	win	2023-06-27	08:50:50	0	0	63d1412396ee4fa133b52643	2	1	DL_test	13	DL_test	16			0		ga	0	1025	6	5	antiphase_hc_osi.wav	2	6	6	noise_calib_stim_RIGHT.wav	2	20	blb_dichoticlistening_ka-da.mp3	ka	da	1	other
6.6.1	win	2023-06-27	08:50:50	0	0	63d1412396ee4fa133b52643	2	1	DL_test	13	DL_test	17			0		pa	1	1417	6	5	antiphase_hc_osi.wav	2	6	6	noise_calib_stim_RIGHT.wav	2	29	blb_dichoticlistening_pa-pa.mp3	pa	pa	0	left
6.6.1	win	2023-06-27	08:50:50	0	0	63d1412396ee4fa133b52643	2	1	DL_test	13	DL_test	18			0		da	1	1296	6	5	antiphase_hc_osi.wav	2	6	6	noise_calib_stim_RIGHT.wav	2	2	blb_dichoticlistening_ba-da.mp3	ba	da	1	right
6.6.1	win	2023-06-27	08:50:50	0	0	63d1412396ee4fa133b52643	2	1	DL_test	13	DL_test	19			0		ta	1	1050	6	5	antiphase_hc_osi.wav	2	6	6	noise_calib_stim_RIGHT.wav	2	18	blb_dichoticlistening_ga-ta.mp3	ga	ta	1	right
6.6.1	win	2023-06-27	08:50:50	0	0	63d1412396ee4fa133b52643	2	1	DL_test	13	DL_test	20			0		da	1	959	6	5	antiphase_hc_osi.wav	2	6	6	noise_calib_stim_RIGHT.wav	2	14	blb_dichoticlistening_ga-da.mp3	ga	da	1	right
6.6.1	win	2023-06-27	08:50:50	0	0	63d1412396ee4fa133b52643	2	1	DL_test	13	DL_test	21			0		ba	1	1858	6	5	antiphase_hc_osi.wav	2	6	6	noise_calib_stim_RIGHT.wav	2	1	blb_dichoticlistening_ba-ba.mp3	ba	ba	0	left
6.6.1	win	2023-06-27	08:50:50	0	0	63d1412396ee4fa133b52643	2	1	DL_test	13	DL_test	22			0		ka	1	1078	6	5	antiphase_hc_osi.wav	2	6	6	noise_calib_stim_RIGHT.wav	2	28	blb_dichoticlistening_pa-ka.mp3	pa	ka	1	right
6.6.1	win	2023-06-27	08:50:50	0	0	63d1412396ee4fa133b52643	2	1	DL_test	13	DL_test	23			0		pa	0	2184	6	5	antiphase_hc_osi.wav	2	6	6	noise_calib_stim_RIGHT.wav	2	10	blb_dichoticlistening_da-ka.mp3	da	ka	1	other
6.6.1	win	2023-06-27	08:50:50	0	0	63d1412396ee4fa133b52643	2	1	DL_test	13	DL_test	24			0		ka	1	860	6	5	antiphase_hc_osi.wav	2	6	6	noise_calib_stim_RIGHT.wav	2	22	blb_dichoticlistening_ka-ka.mp3	ka	ka	0	left
6.6.1	win	2023-06-27	08:50:50	0	0	63d1412396ee4fa133b52643	2	1	DL_test	13	DL_test	25			0		pa	1	1983	6	5	antiphase_hc_osi.wav	2	6	6	noise_calib_stim_RIGHT.wav	2	11	blb_dichoticlistening_da-pa.mp3	da	pa	1	right
6.6.1	win	2023-06-27	08:50:50	0	0	63d1412396ee4fa133b52643	2	1	DL_test	13	DL_test	26			0		ga	1	753	6	5	antiphase_hc_osi.wav	2	6	6	noise_calib_stim_RIGHT.wav	2	15	blb_dichoticlistening_ga-ga.mp3	ga	ga	0	left
6.6.1	win	2023-06-27	08:50:50	0	0	63d1412396ee4fa133b52643	2	1	DL_test	13	DL_test	27			0		ba	1	1570	6	5	antiphase_hc_osi.wav	2	6	6	noise_calib_stim_RIGHT.wav	2	13	blb_dichoticlistening_ga-ba.mp3	ga	ba	1	right
6.6.1	win	2023-06-27	08:50:50	0	0	63d1412396ee4fa133b52643	2	1	DL_test	13	DL_test	28			0		da	1	1882	6	5	antiphase_hc_osi.wav	2	6	6	noise_calib_stim_RIGHT.wav	2	8	blb_dichoticlistening_da-da.mp3	da	da	0	left
6.6.1	win	2023-06-27	08:50:50	0	0	63d1412396ee4fa133b52643	2	1	DL_test	13	DL_test	29			0		ba	1	1186	6	5	antiphase_hc_osi.wav	2	6	6	noise_calib_stim_RIGHT.wav	2	7	blb_dichoticlistening_da-ba.mp3	da	ba	1	right
6.6.1	win	2023-06-27	08:50:50	0	0	63d1412396ee4fa133b52643	2	1	DL_test	13	DL_test	30			0		ta	1	1091	6	5	antiphase_hc_osi.wav	2	6	6	noise_calib_stim_RIGHT.wav	2	12	blb_dichoticlistening_da-ta.mp3	da	ta	1	right
6.6.1	win	2023-06-27	08:50:50	0	0	63d1412396ee4fa133b52643	2	1	DL_test	13	DL_test	31			0		pa	0	1180	6	5	antiphase_hc_osi.wav	2	6	6	noise_calib_stim_RIGHT.wav	2	6	blb_dichoticlistening_ba-ta.mp3	ba	ta	1	other
6.6.1	win	2023-06-27	08:50:50	0	0	63d1412396ee4fa133b52643	2	1	DL_test	13	DL_test	32			0		ka	1	1111	6	5	antiphase_hc_osi.wav	2	6	6	noise_calib_stim_RIGHT.wav	2	4	blb_dichoticlistening_ba-ka.mp3	ba	ka	1	right
6.6.1	win	2023-06-27	08:50:50	0	0	63d1412396ee4fa133b52643	2	1	DL_test	13	DL_test	33			0		ga	1	1319	6	5	antiphase_hc_osi.wav	2	6	6	noise_calib_stim_RIGHT.wav	2	27	blb_dichoticlistening_pa-ga.mp3	pa	ga	1	right
6.6.1	win	2023-06-27	08:50:50	0	0	63d1412396ee4fa133b52643	2	1	DL_test	13	DL_test	34			0		ba	1	2430	6	5	antiphase_hc_osi.wav	2	6	6	noise_calib_stim_RIGHT.wav	2	19	blb_dichoticlistening_ka-ba.mp3	ka	ba	1	right
6.6.1	win	2023-06-27	08:50:50	0	0	63d1412396ee4fa133b52643	2	1	DL_test	13	DL_test	35			0		ta	1	1682	6	5	antiphase_hc_osi.wav	2	6	6	noise_calib_stim_RIGHT.wav	2	36	blb_dichoticlistening_ta-ta.mp3	ta	ta	0	left
6.6.1	win	2023-06-27	08:50:50	0	0	63d1412396ee4fa133b52643	2	1	DL_test	13	DL_test	36			0		ta	1	1962	6	5	antiphase_hc_osi.wav	2	6	6	noise_calib_stim_RIGHT.wav	2	34	blb_dichoticlistening_ta-ka.mp3	ta	ka	1	left
6.6.1	win	2023-06-27	08:50:50	0	0	63d1412396ee4fa133b52643	2	1	DL_test	14	DL_test	1			0		da	1	2488	6	5	antiphase_hc_osi.wav	2	6	6	noise_calib_stim_RIGHT.wav	2	14	blb_dichoticlistening_ga-da.mp3	ga	da	1	right
6.6.1	win	2023-06-27	08:50:50	0	0	63d1412396ee4fa133b52643	2	1	DL_test	14	DL_test	2			0		ba	1	1378	6	5	antiphase_hc_osi.wav	2	6	6	noise_calib_stim_RIGHT.wav	2	1	blb_dichoticlistening_ba-ba.mp3	ba	ba	0	left
6.6.1	win	2023-06-27	08:50:50	0	0	63d1412396ee4fa133b52643	2	1	DL_test	14	DL_test	3			0		ga	1	815	6	5	antiphase_hc_osi.wav	2	6	6	noise_calib_stim_RIGHT.wav	2	27	blb_dichoticlistening_pa-ga.mp3	pa	ga	1	right
6.6.1	win	2023-06-27	08:50:50	0	0	63d1412396ee4fa133b52643	2	1	DL_test	14	DL_test	4			0		pa	0	1077	6	5	antiphase_hc_osi.wav	2	6	6	noise_calib_stim_RIGHT.wav	2	10	blb_dichoticlistening_da-ka.mp3	da	ka	1	other
6.6.1	win	2023-06-27	08:50:50	0	0	63d1412396ee4fa133b52643	2	1	DL_test	14	DL_test	5			0		ka	1	1073	6	5	antiphase_hc_osi.wav	2	6	6	noise_calib_stim_RIGHT.wav	2	24	blb_dichoticlistening_ka-ta.mp3	ka	ta	1	left
6.6.1	win	2023-06-27	08:50:50	0	0	63d1412396ee4fa133b52643	2	1	DL_test	14	DL_test	6			0		ba	1	1887	6	5	antiphase_hc_osi.wav	2	6	6	noise_calib_stim_RIGHT.wav	2	31	blb_dichoticlistening_ta-ba.mp3	ta	ba	1	right
6.6.1	win	2023-06-27	08:50:50	0	0	63d1412396ee4fa133b52643	2	1	DL_test	14	DL_test	7			0		da	1	1147	6	5	antiphase_hc_osi.wav	2	6	6	noise_calib_stim_RIGHT.wav	2	26	blb_dichoticlistening_pa-da.mp3	pa	da	1	right
6.6.1	win	2023-06-27	08:50:50	0	0	63d1412396ee4fa133b52643	2	1	DL_test	14	DL_test	8			0		ta	1	1022	6	5	antiphase_hc_osi.wav	2	6	6	noise_calib_stim_RIGHT.wav	2	36	blb_dichoticlistening_ta-ta.mp3	ta	ta	0	left
6.6.1	win	2023-06-27	08:50:50	0	0	63d1412396ee4fa133b52643	2	1	DL_test	14	DL_test	9			0		ba	1	1970	6	5	antiphase_hc_osi.wav	2	6	6	noise_calib_stim_RIGHT.wav	2	19	blb_dichoticlistening_ka-ba.mp3	ka	ba	1	right
6.6.1	win	2023-06-27	08:50:50	0	0	63d1412396ee4fa133b52643	2	1	DL_test	14	DL_test	10			0		pa	1	1137	6	5	antiphase_hc_osi.wav	2	6	6	noise_calib_stim_RIGHT.wav	2	17	blb_dichoticlistening_ga-pa.mp3	ga	pa	1	right
6.6.1	win	2023-06-27	08:50:50	0	0	63d1412396ee4fa133b52643	2	1	DL_test	14	DL_test	11			0		pa	1	1215	6	5	antiphase_hc_osi.wav	2	6	6	noise_calib_stim_RIGHT.wav	2	5	blb_dichoticlistening_ba-pa.mp3	ba	pa	1	right
6.6.1	win	2023-06-27	08:50:50	0	0	63d1412396ee4fa133b52643	2	1	DL_test	14	DL_test	12			0		ka	1	770	6	5	antiphase_hc_osi.wav	2	6	6	noise_calib_stim_RIGHT.wav	2	23	blb_dichoticlistening_ka-pa.mp3	ka	pa	1	left
6.6.1	win	2023-06-27	08:50:50	0	0	63d1412396ee4fa133b52643	2	1	DL_test	14	DL_test	13			0		ba	1	1728	6	5	antiphase_hc_osi.wav	2	6	6	noise_calib_stim_RIGHT.wav	2	25	blb_dichoticlistening_pa-ba.mp3	pa	ba	1	right
6.6.1	win	2023-06-27	08:50:50	0	0	63d1412396ee4fa133b52643	2	1	DL_test	14	DL_test	14			0		ta	1	1069	6	5	antiphase_hc_osi.wav	2	6	6	noise_calib_stim_RIGHT.wav	2	30	blb_dichoticlistening_pa-ta.mp3	pa	ta	1	right
6.6.1	win	2023-06-27	08:50:50	0	0	63d1412396ee4fa133b52643	2	1	DL_test	14	DL_test	15			0		ka	1	1096	6	5	antiphase_hc_osi.wav	2	6	6	noise_calib_stim_RIGHT.wav	2	28	blb_dichoticlistening_pa-ka.mp3	pa	ka	1	right
6.6.1	win	2023-06-27	08:50:50	0	0	63d1412396ee4fa133b52643	2	1	DL_test	14	DL_test	16			0		da	1	1153	6	5	antiphase_hc_osi.wav	2	6	6	noise_calib_stim_RIGHT.wav	2	32	blb_dichoticlistening_ta-da.mp3	ta	da	1	right
6.6.1	win	2023-06-27	08:50:50	0	0	63d1412396ee4fa133b52643	2	1	DL_test	14	DL_test	17			0		da	1	914	6	5	antiphase_hc_osi.wav	2	6	6	noise_calib_stim_RIGHT.wav	2	8	blb_dichoticlistening_da-da.mp3	da	da	0	left
6.6.1	win	2023-06-27	08:50:50	0	0	63d1412396ee4fa133b52643	2	1	DL_test	14	DL_test	18			0		pa	1	1326	6	5	antiphase_hc_osi.wav	2	6	6	noise_calib_stim_RIGHT.wav	2	29	blb_dichoticlistening_pa-pa.mp3	pa	pa	0	left
6.6.1	win	2023-06-27	08:50:50	0	0	63d1412396ee4fa133b52643	2	1	DL_test	14	DL_test	19			0		ga	1	1168	6	5	antiphase_hc_osi.wav	2	6	6	noise_calib_stim_RIGHT.wav	2	9	blb_dichoticlistening_da-ga.mp3	da	ga	1	right
6.6.1	win	2023-06-27	08:50:50	0	0	63d1412396ee4fa133b52643	2	1	DL_test	14	DL_test	20			0		ka	1	844	6	5	antiphase_hc_osi.wav	2	6	6	noise_calib_stim_RIGHT.wav	2	4	blb_dichoticlistening_ba-ka.mp3	ba	ka	1	right
6.6.1	win	2023-06-27	08:50:50	0	0	63d1412396ee4fa133b52643	2	1	DL_test	14	DL_test	21			0		pa	1	956	6	5	antiphase_hc_osi.wav	2	6	6	noise_calib_stim_RIGHT.wav	2	11	blb_dichoticlistening_da-pa.mp3	da	pa	1	right
6.6.1	win	2023-06-27	08:50:50	0	0	63d1412396ee4fa133b52643	2	1	DL_test	14	DL_test	22			0		ga	1	945	6	5	antiphase_hc_osi.wav	2	6	6	noise_calib_stim_RIGHT.wav	2	3	blb_dichoticlistening_ba-ga.mp3	ba	ga	1	right
6.6.1	win	2023-06-27	08:50:50	0	0	63d1412396ee4fa133b52643	2	1	DL_test	14	DL_test	23			0		ka	1	985	6	5	antiphase_hc_osi.wav	2	6	6	noise_calib_stim_RIGHT.wav	2	34	blb_dichoticlistening_ta-ka.mp3	ta	ka	1	right
6.6.1	win	2023-06-27	08:50:50	0	0	63d1412396ee4fa133b52643	2	1	DL_test	14	DL_test	24			0		ta	1	1946	6	5	antiphase_hc_osi.wav	2	6	6	noise_calib_stim_RIGHT.wav	2	12	blb_dichoticlistening_da-ta.mp3	da	ta	1	right
6.6.1	win	2023-06-27	08:50:50	0	0	63d1412396ee4fa133b52643	2	1	DL_test	14	DL_test	25			0		ga	1	1389	6	5	antiphase_hc_osi.wav	2	6	6	noise_calib_stim_RIGHT.wav	2	15	blb_dichoticlistening_ga-ga.mp3	ga	ga	0	left
6.6.1	win	2023-06-27	08:50:50	0	0	63d1412396ee4fa133b52643	2	1	DL_test	14	DL_test	26			0		ba	1	1746	6	5	antiphase_hc_osi.wav	2	6	6	noise_calib_stim_RIGHT.wav	2	13	blb_dichoticlistening_ga-ba.mp3	ga	ba	1	right
6.6.1	win	2023-06-27	08:50:50	0	0	63d1412396ee4fa133b52643	2	1	DL_test	14	DL_test	27			0		ta	1	1214	6	5	antiphase_hc_osi.wav	2	6	6	noise_calib_stim_RIGHT.wav	2	6	blb_dichoticlistening_ba-ta.mp3	ba	ta	1	right
6.6.1	win	2023-06-27	08:50:50	0	0	63d1412396ee4fa133b52643	2	1	DL_test	14	DL_test	28			0		ba	1	1626	6	5	antiphase_hc_osi.wav	2	6	6	noise_calib_stim_RIGHT.wav	2	7	blb_dichoticlistening_da-ba.mp3	da	ba	1	right
6.6.1	win	2023-06-27	08:50:50	0	0	63d1412396ee4fa133b52643	2	1	DL_test	14	DL_test	29			0		ta	1	1166	6	5	antiphase_hc_osi.wav	2	6	6	noise_calib_stim_RIGHT.wav	2	18	blb_dichoticlistening_ga-ta.mp3	ga	ta	1	right
6.6.1	win	2023-06-27	08:50:50	0	0	63d1412396ee4fa133b52643	2	1	DL_test	14	DL_test	30			0		ga	1	779	6	5	antiphase_hc_osi.wav	2	6	6	noise_calib_stim_RIGHT.wav	2	33	blb_dichoticlistening_ta-ga.mp3	ta	ga	1	right
6.6.1	win	2023-06-27	08:50:50	0	0	63d1412396ee4fa133b52643	2	1	DL_test	14	DL_test	31			0		ka	1	1148	6	5	antiphase_hc_osi.wav	2	6	6	noise_calib_stim_RIGHT.wav	2	22	blb_dichoticlistening_ka-ka.mp3	ka	ka	0	left
6.6.1	win	2023-06-27	08:50:50	0	0	63d1412396ee4fa133b52643	2	1	DL_test	14	DL_test	32			0		ka	1	952	6	5	antiphase_hc_osi.wav	2	6	6	noise_calib_stim_RIGHT.wav	2	16	blb_dichoticlistening_ga-ka.mp3	ga	ka	1	right
6.6.1	win	2023-06-27	08:50:50	0	0	63d1412396ee4fa133b52643	2	1	DL_test	14	DL_test	33			0		ga	1	1160	6	5	antiphase_hc_osi.wav	2	6	6	noise_calib_stim_RIGHT.wav	2	21	blb_dichoticlistening_ka-ga.mp3	ka	ga	1	right
6.6.1	win	2023-06-27	08:50:50	0	0	63d1412396ee4fa133b52643	2	1	DL_test	14	DL_test	34			0		da	1	678	6	5	antiphase_hc_osi.wav	2	6	6	noise_calib_stim_RIGHT.wav	2	20	blb_dichoticlistening_ka-da.mp3	ka	da	1	right
6.6.1	win	2023-06-27	08:50:50	0	0	63d1412396ee4fa133b52643	2	1	DL_test	14	DL_test	35			0		da	1	575	6	5	antiphase_hc_osi.wav	2	6	6	noise_calib_stim_RIGHT.wav	2	2	blb_dichoticlistening_ba-da.mp3	ba	da	1	right
6.6.1	win	2023-06-27	08:50:50	0	0	63d1412396ee4fa133b52643	2	1	DL_test	14	DL_test	36			0		da	0	598	6	5	antiphase_hc_osi.wav	2	6	6	noise_calib_stim_RIGHT.wav	2	35	blb_dichoticlistening_ta-pa.mp3	ta	pa	1	other
6.6.1	win	2023-06-27	08:50:50	0	0	63d1412396ee4fa133b52643	2	1	DL_test	15	DL_test	1			0		pa	1	1133	6	5	antiphase_hc_osi.wav	2	6	6	noise_calib_stim_RIGHT.wav	2	29	blb_dichoticlistening_pa-pa.mp3	pa	pa	0	left
6.6.1	win	2023-06-27	08:50:50	0	0	63d1412396ee4fa133b52643	2	1	DL_test	15	DL_test	2			0		da	1	1095	6	5	antiphase_hc_osi.wav	2	6	6	noise_calib_stim_RIGHT.wav	2	12	blb_dichoticlistening_da-ta.mp3	da	ta	1	left
6.6.1	win	2023-06-27	08:50:50	0	0	63d1412396ee4fa133b52643	2	1	DL_test	15	DL_test	3			0		ga	1	632	6	5	antiphase_hc_osi.wav	2	6	6	noise_calib_stim_RIGHT.wav	2	14	blb_dichoticlistening_ga-da.mp3	ga	da	1	left
6.6.1	win	2023-06-27	08:50:50	0	0	63d1412396ee4fa133b52643	2	1	DL_test	15	DL_test	4			0		pa	1	1330	6	5	antiphase_hc_osi.wav	2	6	6	noise_calib_stim_RIGHT.wav	2	5	blb_dichoticlistening_ba-pa.mp3	ba	pa	1	right
6.6.1	win	2023-06-27	08:50:50	0	0	63d1412396ee4fa133b52643	2	1	DL_test	15	DL_test	5			0		ga	1	580	6	5	antiphase_hc_osi.wav	2	6	6	noise_calib_stim_RIGHT.wav	2	9	blb_dichoticlistening_da-ga.mp3	da	ga	1	right
6.6.1	win	2023-06-27	08:50:50	0	0	63d1412396ee4fa133b52643	2	1	DL_test	15	DL_test	6			0		ka	1	667	6	5	antiphase_hc_osi.wav	2	6	6	noise_calib_stim_RIGHT.wav	2	28	blb_dichoticlistening_pa-ka.mp3	pa	ka	1	right
6.6.1	win	2023-06-27	08:50:50	0	0	63d1412396ee4fa133b52643	2	1	DL_test	15	DL_test	7			0		da	1	772	6	5	antiphase_hc_osi.wav	2	6	6	noise_calib_stim_RIGHT.wav	2	2	blb_dichoticlistening_ba-da.mp3	ba	da	1	right
6.6.1	win	2023-06-27	08:50:50	0	0	63d1412396ee4fa133b52643	2	1	DL_test	15	DL_test	8			0		ba	1	1623	6	5	antiphase_hc_osi.wav	2	6	6	noise_calib_stim_RIGHT.wav	2	31	blb_dichoticlistening_ta-ba.mp3	ta	ba	1	right
6.6.1	win	2023-06-27	08:50:50	0	0	63d1412396ee4fa133b52643	2	1	DL_test	15	DL_test	9			0		pa	1	2294	6	5	antiphase_hc_osi.wav	2	6	6	noise_calib_stim_RIGHT.wav	2	25	blb_dichoticlistening_pa-ba.mp3	pa	ba	1	left
6.6.1	win	2023-06-27	08:50:50	0	0	63d1412396ee4fa133b52643	2	1	DL_test	15	DL_test	10			0		ga	1	865	6	5	antiphase_hc_osi.wav	2	6	6	noise_calib_stim_RIGHT.wav	2	33	blb_dichoticlistening_ta-ga.mp3	ta	ga	1	right
6.6.1	win	2023-06-27	08:50:50	0	0	63d1412396ee4fa133b52643	2	1	DL_test	15	DL_test	11			0		da	1	911	6	5	antiphase_hc_osi.wav	2	6	6	noise_calib_stim_RIGHT.wav	2	26	blb_dichoticlistening_pa-da.mp3	pa	da	1	right
6.6.1	win	2023-06-27	08:50:50	0	0	63d1412396ee4fa133b52643	2	1	DL_test	15	DL_test	12			0		ka	1	1020	6	5	antiphase_hc_osi.wav	2	6	6	noise_calib_stim_RIGHT.wav	2	16	blb_dichoticlistening_ga-ka.mp3	ga	ka	1	right
6.6.1	win	2023-06-27	08:50:50	0	0	63d1412396ee4fa133b52643	2	1	DL_test	15	DL_test	13			0		ka	1	766	6	5	antiphase_hc_osi.wav	2	6	6	noise_calib_stim_RIGHT.wav	2	22	blb_dichoticlistening_ka-ka.mp3	ka	ka	0	left
6.6.1	win	2023-06-27	08:50:50	0	0	63d1412396ee4fa133b52643	2	1	DL_test	15	DL_test	14			0		ba	1	2206	6	5	antiphase_hc_osi.wav	2	6	6	noise_calib_stim_RIGHT.wav	2	1	blb_dichoticlistening_ba-ba.mp3	ba	ba	0	left
6.6.1	win	2023-06-27	08:50:50	0	0	63d1412396ee4fa133b52643	2	1	DL_test	15	DL_test	15			0		ba	1	1479	6	5	antiphase_hc_osi.wav	2	6	6	noise_calib_stim_RIGHT.wav	2	13	blb_dichoticlistening_ga-ba.mp3	ga	ba	1	right
6.6.1	win	2023-06-27	08:50:50	0	0	63d1412396ee4fa133b52643	2	1	DL_test	15	DL_test	16			0		pa	1	1675	6	5	antiphase_hc_osi.wav	2	6	6	noise_calib_stim_RIGHT.wav	2	11	blb_dichoticlistening_da-pa.mp3	da	pa	1	right
6.6.1	win	2023-06-27	08:50:50	0	0	63d1412396ee4fa133b52643	2	1	DL_test	15	DL_test	17			0		ta	1	1329	6	5	antiphase_hc_osi.wav	2	6	6	noise_calib_stim_RIGHT.wav	2	18	blb_dichoticlistening_ga-ta.mp3	ga	ta	1	right
6.6.1	win	2023-06-27	08:50:50	0	0	63d1412396ee4fa133b52643	2	1	DL_test	15	DL_test	18			0		ga	0	992	6	5	antiphase_hc_osi.wav	2	6	6	noise_calib_stim_RIGHT.wav	2	32	blb_dichoticlistening_ta-da.mp3	ta	da	1	other
6.6.1	win	2023-06-27	08:50:50	0	0	63d1412396ee4fa133b52643	2	1	DL_test	15	DL_test	19			0		ta	1	1320	6	5	antiphase_hc_osi.wav	2	6	6	noise_calib_stim_RIGHT.wav	2	6	blb_dichoticlistening_ba-ta.mp3	ba	ta	1	right
6.6.1	win	2023-06-27	08:50:50	0	0	63d1412396ee4fa133b52643	2	1	DL_test	15	DL_test	20			0		ka	1	1315	6	5	antiphase_hc_osi.wav	2	6	6	noise_calib_stim_RIGHT.wav	2	24	blb_dichoticlistening_ka-ta.mp3	ka	ta	1	left
6.6.1	win	2023-06-27	08:50:50	0	0	63d1412396ee4fa133b52643	2	1	DL_test	15	DL_test	21			0		ta	1	1858	6	5	antiphase_hc_osi.wav	2	6	6	noise_calib_stim_RIGHT.wav	2	36	blb_dichoticlistening_ta-ta.mp3	ta	ta	0	left
6.6.1	win	2023-06-27	08:50:50	0	0	63d1412396ee4fa133b52643	2	1	DL_test	15	DL_test	22			0		pa	1	1554	6	5	antiphase_hc_osi.wav	2	6	6	noise_calib_stim_RIGHT.wav	2	35	blb_dichoticlistening_ta-pa.mp3	ta	pa	1	right
6.6.1	win	2023-06-27	08:50:50	0	0	63d1412396ee4fa133b52643	2	1	DL_test	15	DL_test	23			0		ka	1	809	6	5	antiphase_hc_osi.wav	2	6	6	noise_calib_stim_RIGHT.wav	2	4	blb_dichoticlistening_ba-ka.mp3	ba	ka	1	right
6.6.1	win	2023-06-27	08:50:50	0	0	63d1412396ee4fa133b52643	2	1	DL_test	15	DL_test	24			0		ta	1	938	6	5	antiphase_hc_osi.wav	2	6	6	noise_calib_stim_RIGHT.wav	2	30	blb_dichoticlistening_pa-ta.mp3	pa	ta	1	right
6.6.1	win	2023-06-27	08:50:50	0	0	63d1412396ee4fa133b52643	2	1	DL_test	15	DL_test	25			0		ka	1	1069	6	5	antiphase_hc_osi.wav	2	6	6	noise_calib_stim_RIGHT.wav	2	34	blb_dichoticlistening_ta-ka.mp3	ta	ka	1	right
6.6.1	win	2023-06-27	08:50:50	0	0	63d1412396ee4fa133b52643	2	1	DL_test	15	DL_test	26			0		ba	1	1454	6	5	antiphase_hc_osi.wav	2	6	6	noise_calib_stim_RIGHT.wav	2	7	blb_dichoticlistening_da-ba.mp3	da	ba	1	right
6.6.1	win	2023-06-27	08:50:50	0	0	63d1412396ee4fa133b52643	2	1	DL_test	15	DL_test	27			0		ga	1	1319	6	5	antiphase_hc_osi.wav	2	6	6	noise_calib_stim_RIGHT.wav	2	15	blb_dichoticlistening_ga-ga.mp3	ga	ga	0	left
6.6.1	win	2023-06-27	08:50:50	0	0	63d1412396ee4fa133b52643	2	1	DL_test	15	DL_test	28			0		ga	1	1310	6	5	antiphase_hc_osi.wav	2	6	6	noise_calib_stim_RIGHT.wav	2	21	blb_dichoticlistening_ka-ga.mp3	ka	ga	1	right
6.6.1	win	2023-06-27	08:50:50	0	0	63d1412396ee4fa133b52643	2	1	DL_test	15	DL_test	29			0		da	1	1446	6	5	antiphase_hc_osi.wav	2	6	6	noise_calib_stim_RIGHT.wav	2	8	blb_dichoticlistening_da-da.mp3	da	da	0	left
6.6.1	win	2023-06-27	08:50:50	0	0	63d1412396ee4fa133b52643	2	1	DL_test	15	DL_test	30			0		ba	1	1920	6	5	antiphase_hc_osi.wav	2	6	6	noise_calib_stim_RIGHT.wav	2	19	blb_dichoticlistening_ka-ba.mp3	ka	ba	1	right
6.6.1	win	2023-06-27	08:50:50	0	0	63d1412396ee4fa133b52643	2	1	DL_test	15	DL_test	31			0		pa	0	1201	6	5	antiphase_hc_osi.wav	2	6	6	noise_calib_stim_RIGHT.wav	2	10	blb_dichoticlistening_da-ka.mp3	da	ka	1	other
6.6.1	win	2023-06-27	08:50:50	0	0	63d1412396ee4fa133b52643	2	1	DL_test	15	DL_test	32			0		ka	1	1933	6	5	antiphase_hc_osi.wav	2	6	6	noise_calib_stim_RIGHT.wav	2	20	blb_dichoticlistening_ka-da.mp3	ka	da	1	left
6.6.1	win	2023-06-27	08:50:50	0	0	63d1412396ee4fa133b52643	2	1	DL_test	15	DL_test	33			0		ga	1	1241	6	5	antiphase_hc_osi.wav	2	6	6	noise_calib_stim_RIGHT.wav	2	27	blb_dichoticlistening_pa-ga.mp3	pa	ga	1	right
6.6.1	win	2023-06-27	08:50:50	0	0	63d1412396ee4fa133b52643	2	1	DL_test	15	DL_test	34			0		ga	1	540	6	5	antiphase_hc_osi.wav	2	6	6	noise_calib_stim_RIGHT.wav	2	3	blb_dichoticlistening_ba-ga.mp3	ba	ga	1	right
6.6.1	win	2023-06-27	08:50:50	0	0	63d1412396ee4fa133b52643	2	1	DL_test	15	DL_test	35			0		ga	1	1318	6	5	antiphase_hc_osi.wav	2	6	6	noise_calib_stim_RIGHT.wav	2	17	blb_dichoticlistening_ga-pa.mp3	ga	pa	1	left
6.6.1	win	2023-06-27	08:50:50	0	0	63d1412396ee4fa133b52643	2	1	DL_test	15	DL_test	36			0		ka	1	939	6	5	antiphase_hc_osi.wav	2	6	6	noise_calib_stim_RIGHT.wav	2	23	blb_dichoticlistening_ka-pa.mp3	ka	pa	1	left
6.6.1	win	2023-06-27	08:50:50	0	0	63d1412396ee4fa133b52643	2	1	DL_test	16	DL_test	1			0		ka	1	690	6	5	antiphase_hc_osi.wav	2	6	6	noise_calib_stim_RIGHT.wav	2	22	blb_dichoticlistening_ka-ka.mp3	ka	ka	0	left
6.6.1	win	2023-06-27	08:50:50	0	0	63d1412396ee4fa133b52643	2	1	DL_test	16	DL_test	2			0		pa	1	1014	6	5	antiphase_hc_osi.wav	2	6	6	noise_calib_stim_RIGHT.wav	2	11	blb_dichoticlistening_da-pa.mp3	da	pa	1	right
6.6.1	win	2023-06-27	08:50:50	0	0	63d1412396ee4fa133b52643	2	1	DL_test	16	DL_test	3			0		ta	1	825	6	5	antiphase_hc_osi.wav	2	6	6	noise_calib_stim_RIGHT.wav	2	30	blb_dichoticlistening_pa-ta.mp3	pa	ta	1	right
6.6.1	win	2023-06-27	08:50:50	0	0	63d1412396ee4fa133b52643	2	1	DL_test	16	DL_test	4			0		pa	0	1308	6	5	antiphase_hc_osi.wav	2	6	6	noise_calib_stim_RIGHT.wav	2	1	blb_dichoticlistening_ba-ba.mp3	ba	ba	0	other
6.6.1	win	2023-06-27	08:50:50	0	0	63d1412396ee4fa133b52643	2	1	DL_test	16	DL_test	5			0		ga	1	693	6	5	antiphase_hc_osi.wav	2	6	6	noise_calib_stim_RIGHT.wav	2	9	blb_dichoticlistening_da-ga.mp3	da	ga	1	right
6.6.1	win	2023-06-27	08:50:50	0	0	63d1412396ee4fa133b52643	2	1	DL_test	16	DL_test	6			0		ta	1	1011	6	5	antiphase_hc_osi.wav	2	6	6	noise_calib_stim_RIGHT.wav	2	6	blb_dichoticlistening_ba-ta.mp3	ba	ta	1	right
6.6.1	win	2023-06-27	08:50:50	0	0	63d1412396ee4fa133b52643	2	1	DL_test	16	DL_test	7			0		ga	1	1969	6	5	antiphase_hc_osi.wav	2	6	6	noise_calib_stim_RIGHT.wav	2	15	blb_dichoticlistening_ga-ga.mp3	ga	ga	0	left
6.6.1	win	2023-06-27	08:50:50	0	0	63d1412396ee4fa133b52643	2	1	DL_test	16	DL_test	8			0		ta	1	1057	6	5	antiphase_hc_osi.wav	2	6	6	noise_calib_stim_RIGHT.wav	2	18	blb_dichoticlistening_ga-ta.mp3	ga	ta	1	right
6.6.1	win	2023-06-27	08:50:50	0	0	63d1412396ee4fa133b52643	2	1	DL_test	16	DL_test	9			0		ga	0	879	6	5	antiphase_hc_osi.wav	2	6	6	noise_calib_stim_RIGHT.wav	2	20	blb_dichoticlistening_ka-da.mp3	ka	da	1	other
6.6.1	win	2023-06-27	08:50:50	0	0	63d1412396ee4fa133b52643	2	1	DL_test	16	DL_test	10			0		ka	1	973	6	5	antiphase_hc_osi.wav	2	6	6	noise_calib_stim_RIGHT.wav	2	16	blb_dichoticlistening_ga-ka.mp3	ga	ka	1	right
6.6.1	win	2023-06-27	08:50:50	0	0	63d1412396ee4fa133b52643	2	1	DL_test	16	DL_test	11			0		pa	1	983	6	5	antiphase_hc_osi.wav	2	6	6	noise_calib_stim_RIGHT.wav	2	35	blb_dichoticlistening_ta-pa.mp3	ta	pa	1	right
6.6.1	win	2023-06-27	08:50:50	0	0	63d1412396ee4fa133b52643	2	1	DL_test	16	DL_test	12			0		ga	1	900	6	5	antiphase_hc_osi.wav	2	6	6	noise_calib_stim_RIGHT.wav	2	21	blb_dichoticlistening_ka-ga.mp3	ka	ga	1	right
6.6.1	win	2023-06-27	08:50:50	0	0	63d1412396ee4fa133b52643	2	1	DL_test	16	DL_test	13			0		da	1	1098	6	5	antiphase_hc_osi.wav	2	6	6	noise_calib_stim_RIGHT.wav	2	2	blb_dichoticlistening_ba-da.mp3	ba	da	1	right
6.6.1	win	2023-06-27	08:50:50	0	0	63d1412396ee4fa133b52643	2	1	DL_test	16	DL_test	14			0		ga	1	882	6	5	antiphase_hc_osi.wav	2	6	6	noise_calib_stim_RIGHT.wav	2	27	blb_dichoticlistening_pa-ga.mp3	pa	ga	1	right
6.6.1	win	2023-06-27	08:50:50	0	0	63d1412396ee4fa133b52643	2	1	DL_test	16	DL_test	15			0		ka	1	798	6	5	antiphase_hc_osi.wav	2	6	6	noise_calib_stim_RIGHT.wav	2	34	blb_dichoticlistening_ta-ka.mp3	ta	ka	1	right
6.6.1	win	2023-06-27	08:50:50	0	0	63d1412396ee4fa133b52643	2	1	DL_test	16	DL_test	16			0		ga	1	1066	6	5	antiphase_hc_osi.wav	2	6	6	noise_calib_stim_RIGHT.wav	2	3	blb_dichoticlistening_ba-ga.mp3	ba	ga	1	right
6.6.1	win	2023-06-27	08:50:50	0	0	63d1412396ee4fa133b52643	2	1	DL_test	16	DL_test	17			0		ta	1	1131	6	5	antiphase_hc_osi.wav	2	6	6	noise_calib_stim_RIGHT.wav	2	12	blb_dichoticlistening_da-ta.mp3	da	ta	1	right
6.6.1	win	2023-06-27	08:50:50	0	0	63d1412396ee4fa133b52643	2	1	DL_test	16	DL_test	18			0		pa	1	1285	6	5	antiphase_hc_osi.wav	2	6	6	noise_calib_stim_RIGHT.wav	2	5	blb_dichoticlistening_ba-pa.mp3	ba	pa	1	right
6.6.1	win	2023-06-27	08:50:50	0	0	63d1412396ee4fa133b52643	2	1	DL_test	16	DL_test	19			0		ba	1	1408	6	5	antiphase_hc_osi.wav	2	6	6	noise_calib_stim_RIGHT.wav	2	25	blb_dichoticlistening_pa-ba.mp3	pa	ba	1	right
6.6.1	win	2023-06-27	08:50:50	0	0	63d1412396ee4fa133b52643	2	1	DL_test	16	DL_test	20			0		pa	1	2241	6	5	antiphase_hc_osi.wav	2	6	6	noise_calib_stim_RIGHT.wav	2	17	blb_dichoticlistening_ga-pa.mp3	ga	pa	1	right
6.6.1	win	2023-06-27	08:50:50	0	0	63d1412396ee4fa133b52643	2	1	DL_test	16	DL_test	21			0		ka	1	905	6	5	antiphase_hc_osi.wav	2	6	6	noise_calib_stim_RIGHT.wav	2	28	blb_dichoticlistening_pa-ka.mp3	pa	ka	1	right
6.6.1	win	2023-06-27	08:50:50	0	0	63d1412396ee4fa133b52643	2	1	DL_test	16	DL_test	22			0		da	1	1015	6	5	antiphase_hc_osi.wav	2	6	6	noise_calib_stim_RIGHT.wav	2	8	blb_dichoticlistening_da-da.mp3	da	da	0	left
6.6.1	win	2023-06-27	08:50:50	0	0	63d1412396ee4fa133b52643	2	1	DL_test	16	DL_test	23			0		pa	0	1416	6	5	antiphase_hc_osi.wav	2	6	6	noise_calib_stim_RIGHT.wav	2	31	blb_dichoticlistening_ta-ba.mp3	ta	ba	1	other
6.6.1	win	2023-06-27	08:50:50	0	0	63d1412396ee4fa133b52643	2	1	DL_test	16	DL_test	24			0		ba	1	924	6	5	antiphase_hc_osi.wav	2	6	6	noise_calib_stim_RIGHT.wav	2	13	blb_dichoticlistening_ga-ba.mp3	ga	ba	1	right
6.6.1	win	2023-06-27	08:50:50	0	0	63d1412396ee4fa133b52643	2	1	DL_test	16	DL_test	25			0		ga	1	858	6	5	antiphase_hc_osi.wav	2	6	6	noise_calib_stim_RIGHT.wav	2	33	blb_dichoticlistening_ta-ga.mp3	ta	ga	1	right
6.6.1	win	2023-06-27	08:50:50	0	0	63d1412396ee4fa133b52643	2	1	DL_test	16	DL_test	26			0		ba	1	1908	6	5	antiphase_hc_osi.wav	2	6	6	noise_calib_stim_RIGHT.wav	2	19	blb_dichoticlistening_ka-ba.mp3	ka	ba	1	right
6.6.1	win	2023-06-27	08:50:50	0	0	63d1412396ee4fa133b52643	2	1	DL_test	16	DL_test	27			0		pa	0	3147	6	5	antiphase_hc_osi.wav	2	6	6	noise_calib_stim_RIGHT.wav	2	7	blb_dichoticlistening_da-ba.mp3	da	ba	1	other
6.6.1	win	2023-06-27	08:50:50	0	0	63d1412396ee4fa133b52643	2	1	DL_test	16	DL_test	28			0		ka	1	831	6	5	antiphase_hc_osi.wav	2	6	6	noise_calib_stim_RIGHT.wav	2	23	blb_dichoticlistening_ka-pa.mp3	ka	pa	1	left
6.6.1	win	2023-06-27	08:50:50	0	0	63d1412396ee4fa133b52643	2	1	DL_test	16	DL_test	29			0		ka	1	612	6	5	antiphase_hc_osi.wav	2	6	6	noise_calib_stim_RIGHT.wav	2	4	blb_dichoticlistening_ba-ka.mp3	ba	ka	1	right
6.6.1	win	2023-06-27	08:50:50	0	0	63d1412396ee4fa133b52643	2	1	DL_test	16	DL_test	30			0		ka	1	957	6	5	antiphase_hc_osi.wav	2	6	6	noise_calib_stim_RIGHT.wav	2	24	blb_dichoticlistening_ka-ta.mp3	ka	ta	1	left
6.6.1	win	2023-06-27	08:50:50	0	0	63d1412396ee4fa133b52643	2	1	DL_test	16	DL_test	31			0		ga	1	1179	6	5	antiphase_hc_osi.wav	2	6	6	noise_calib_stim_RIGHT.wav	2	14	blb_dichoticlistening_ga-da.mp3	ga	da	1	left
6.6.1	win	2023-06-27	08:50:50	0	0	63d1412396ee4fa133b52643	2	1	DL_test	16	DL_test	32			0		da	1	1386	6	5	antiphase_hc_osi.wav	2	6	6	noise_calib_stim_RIGHT.wav	2	32	blb_dichoticlistening_ta-da.mp3	ta	da	1	right
6.6.1	win	2023-06-27	08:50:50	0	0	63d1412396ee4fa133b52643	2	1	DL_test	16	DL_test	33			0		pa	1	1220	6	5	antiphase_hc_osi.wav	2	6	6	noise_calib_stim_RIGHT.wav	2	29	blb_dichoticlistening_pa-pa.mp3	pa	pa	0	left
6.6.1	win	2023-06-27	08:50:50	0	0	63d1412396ee4fa133b52643	2	1	DL_test	16	DL_test	34			0		pa	0	809	6	5	antiphase_hc_osi.wav	2	6	6	noise_calib_stim_RIGHT.wav	2	10	blb_dichoticlistening_da-ka.mp3	da	ka	1	other
6.6.1	win	2023-06-27	08:50:50	0	0	63d1412396ee4fa133b52643	2	1	DL_test	16	DL_test	35			0		pa	1	1423	6	5	antiphase_hc_osi.wav	2	6	6	noise_calib_stim_RIGHT.wav	2	26	blb_dichoticlistening_pa-da.mp3	pa	da	1	left
6.6.1	win	2023-06-27	08:50:50	0	0	63d1412396ee4fa133b52643	2	1	DL_test	16	DL_test	36			0		ta	1	1396	6	5	antiphase_hc_osi.wav	2	6	6	noise_calib_stim_RIGHT.wav	2	36	blb_dichoticlistening_ta-ta.mp3	ta	ta	0	left
6.6.1	win	2023-06-27	08:50:50	09:06:46	951426	63d1412396ee4fa133b52643	2	1	practice_z	22	practice_z	1	stimuli_distractor_trianglediamonds.svg	stimuli_target_squarediamonds.svg	11	yes	44	1	1729	6	5	antiphase_hc_osi.wav	2	6	6	noise_calib_stim_RIGHT.wav	2	36	blb_dichoticlistening_ta-ta.mp3	ta	ta	0	left
6.6.1	win	2023-06-27	08:50:50	09:06:46	951426	63d1412396ee4fa133b52643	2	1	practice_z	22	advance_on_keypress_ZEE	2	stimuli_distractor_trianglediamonds.svg	stimuli_target_squarediamonds.svg	11	yes	57	0	1483	6	5	antiphase_hc_osi.wav	2	6	6	noise_calib_stim_RIGHT.wav	2	36	blb_dichoticlistening_ta-ta.mp3	ta	ta	0	left
6.6.1	win	2023-06-27	08:50:50	09:06:51	956564	63d1412396ee4fa133b52643	2	1	practice_z	22	practice_z	3	stimuli_target_rectanglediamonds.svg	stimuli_distractor_trianglediamonds.svg	4	yes	0	0	2000	6	5	antiphase_hc_osi.wav	2	6	6	noise_calib_stim_RIGHT.wav	2	36	blb_dichoticlistening_ta-ta.mp3	ta	ta	0	left
6.6.1	win	2023-06-27	08:50:50	09:06:51	956564	63d1412396ee4fa133b52643	2	1	practice_z	22	advance_on_keypress_ZEE	4	stimuli_target_rectanglediamonds.svg	stimuli_distractor_trianglediamonds.svg	4	yes	57	0	598	6	5	antiphase_hc_osi.wav	2	6	6	noise_calib_stim_RIGHT.wav	2	36	blb_dichoticlistening_ta-ta.mp3	ta	ta	0	left
6.6.1	win	2023-06-27	08:50:50	09:06:55	960814	63d1412396ee4fa133b52643	2	1	practice_z	22	practice_z	5	stimuli_target_squarediamonds.svg	stimuli_distractor_diamondtriangles.svg	2	yes	0	0	2000	6	5	antiphase_hc_osi.wav	2	6	6	noise_calib_stim_RIGHT.wav	2	36	blb_dichoticlistening_ta-ta.mp3	ta	ta	0	left
6.6.1	win	2023-06-27	08:50:50	09:06:55	960814	63d1412396ee4fa133b52643	2	1	practice_z	22	advance_on_keypress_ZEE	6	stimuli_target_squarediamonds.svg	stimuli_distractor_diamondtriangles.svg	2	yes	57	0	500	6	5	antiphase_hc_osi.wav	2	6	6	noise_calib_stim_RIGHT.wav	2	36	blb_dichoticlistening_ta-ta.mp3	ta	ta	0	left
6.6.1	win	2023-06-27	08:50:50	09:06:59	964964	63d1412396ee4fa133b52643	2	1	practice_z	22	practice_z	7	stimuli_distractor_diamondtriangles.svg	stimuli_target_trianglerectangles.svg	9	yes	0	0	2000	6	5	antiphase_hc_osi.wav	2	6	6	noise_calib_stim_RIGHT.wav	2	36	blb_dichoticlistening_ta-ta.mp3	ta	ta	0	left
6.6.1	win	2023-06-27	08:50:50	09:06:59	964964	63d1412396ee4fa133b52643	2	1	practice_z	22	advance_on_keypress_ZEE	8	stimuli_distractor_diamondtriangles.svg	stimuli_target_trianglerectangles.svg	9	yes	57	0	646	6	5	antiphase_hc_osi.wav	2	6	6	noise_calib_stim_RIGHT.wav	2	36	blb_dichoticlistening_ta-ta.mp3	ta	ta	0	left
6.6.1	win	2023-06-27	08:50:50	09:07:03	968218	63d1412396ee4fa133b52643	2	1	practice_z	22	practice_z	9	stimuli_target_diamondsquares.svg	stimuli_distractor_trianglediamonds.svg	6	yes	44	1	955	6	5	antiphase_hc_osi.wav	2	6	6	noise_calib_stim_RIGHT.wav	2	36	blb_dichoticlistening_ta-ta.mp3	ta	ta	0	left
6.6.1	win	2023-06-27	08:50:50	09:07:03	968218	63d1412396ee4fa133b52643	2	1	practice_z	22	advance_on_keypress_ZEE	10	stimuli_target_diamondsquares.svg	stimuli_distractor_trianglediamonds.svg	6	yes	57	0	628	6	5	antiphase_hc_osi.wav	2	6	6	noise_calib_stim_RIGHT.wav	2	36	blb_dichoticlistening_ta-ta.mp3	ta	ta	0	left
6.6.1	win	2023-06-27	08:50:50	09:07:06	971378	63d1412396ee4fa133b52643	2	1	practice_z	22	practice_z	11	stimuli_target_diamondsquares.svg	stimuli_distractor_diamondtriangles.svg	3	yes	44	1	898	6	5	antiphase_hc_osi.wav	2	6	6	noise_calib_stim_RIGHT.wav	2	36	blb_dichoticlistening_ta-ta.mp3	ta	ta	0	left
6.6.1	win	2023-06-27	08:50:50	09:07:06	971378	63d1412396ee4fa133b52643	2	1	practice_z	22	advance_on_keypress_ZEE	12	stimuli_target_diamondsquares.svg	stimuli_distractor_diamondtriangles.svg	3	yes	57	0	390	6	5	antiphase_hc_osi.wav	2	6	6	noise_calib_stim_RIGHT.wav	2	36	blb_dichoticlistening_ta-ta.mp3	ta	ta	0	left
6.6.1	win	2023-06-27	08:50:50	09:07:10	975413	63d1412396ee4fa133b52643	2	1	practice_z	22	practice_z	13	stimuli_distractor_diamondtriangles.svg	stimuli_distractor_diamondtriangles.svg	13	no	0	1	2000	6	5	antiphase_hc_osi.wav	2	6	6	noise_calib_stim_RIGHT.wav	2	36	blb_dichoticlistening_ta-ta.mp3	ta	ta	0	left
6.6.1	win	2023-06-27	08:50:50	09:07:10	975413	63d1412396ee4fa133b52643	2	1	practice_z	22	advance_on_keypress_ZEE	14	stimuli_distractor_diamondtriangles.svg	stimuli_distractor_diamondtriangles.svg	13	no	57	0	492	6	5	antiphase_hc_osi.wav	2	6	6	noise_calib_stim_RIGHT.wav	2	36	blb_dichoticlistening_ta-ta.mp3	ta	ta	0	left
6.6.1	win	2023-06-27	08:50:50	09:07:14	979546	63d1412396ee4fa133b52643	2	1	practice_z	22	practice_z	15	stimuli_distractor_trianglediamonds.svg	stimuli_distractor_trianglediamonds.svg	15	no	0	1	2000	6	5	antiphase_hc_osi.wav	2	6	6	noise_calib_stim_RIGHT.wav	2	36	blb_dichoticlistening_ta-ta.mp3	ta	ta	0	left
6.6.1	win	2023-06-27	08:50:50	09:07:14	979546	63d1412396ee4fa133b52643	2	1	practice_z	22	advance_on_keypress_ZEE	16	stimuli_distractor_trianglediamonds.svg	stimuli_distractor_trianglediamonds.svg	15	no	57	0	495	6	5	antiphase_hc_osi.wav	2	6	6	noise_calib_stim_RIGHT.wav	2	36	blb_dichoticlistening_ta-ta.mp3	ta	ta	0	left
6.6.1	win	2023-06-27	08:50:50	09:07:17	982874	63d1412396ee4fa133b52643	2	1	practice_z	22	practice_z	17	stimuli_distractor_diamondtriangles.svg	stimuli_target_rectangletriangles.svg	7	yes	44	1	1178	6	5	antiphase_hc_osi.wav	2	6	6	noise_calib_stim_RIGHT.wav	2	36	blb_dichoticlistening_ta-ta.mp3	ta	ta	0	left
6.6.1	win	2023-06-27	08:50:50	09:07:17	982874	63d1412396ee4fa133b52643	2	1	practice_z	22	advance_on_keypress_ZEE	18	stimuli_distractor_diamondtriangles.svg	stimuli_target_rectangletriangles.svg	7	yes	57	0	411	6	5	antiphase_hc_osi.wav	2	6	6	noise_calib_stim_RIGHT.wav	2	36	blb_dichoticlistening_ta-ta.mp3	ta	ta	0	left
6.6.1	win	2023-06-27	08:50:50	09:07:21	986523	63d1412396ee4fa133b52643	2	1	practice_z	22	practice_z	19	stimuli_distractor_diamondtriangles.svg	stimuli_target_diamondrectangles.svg	8	yes	44	1	1593	6	5	antiphase_hc_osi.wav	2	6	6	noise_calib_stim_RIGHT.wav	2	36	blb_dichoticlistening_ta-ta.mp3	ta	ta	0	left
6.6.1	win	2023-06-27	08:50:50	09:07:21	986523	63d1412396ee4fa133b52643	2	1	practice_z	22	advance_on_keypress_ZEE	20	stimuli_distractor_diamondtriangles.svg	stimuli_target_diamondrectangles.svg	8	yes	57	0	337	6	5	antiphase_hc_osi.wav	2	6	6	noise_calib_stim_RIGHT.wav	2	36	blb_dichoticlistening_ta-ta.mp3	ta	ta	0	left
6.6.1	win	2023-06-27	08:50:50	09:07:25	990496	63d1412396ee4fa133b52643	2	1	practice_z	22	practice_z	21	stimuli_distractor_trianglediamonds.svg	stimuli_distractor_diamondtriangles.svg	16	no	0	1	2000	6	5	antiphase_hc_osi.wav	2	6	6	noise_calib_stim_RIGHT.wav	2	36	blb_dichoticlistening_ta-ta.mp3	ta	ta	0	left
6.6.1	win	2023-06-27	08:50:50	09:07:25	990496	63d1412396ee4fa133b52643	2	1	practice_z	22	advance_on_keypress_ZEE	22	stimuli_distractor_trianglediamonds.svg	stimuli_distractor_diamondtriangles.svg	16	no	57	0	594	6	5	antiphase_hc_osi.wav	2	6	6	noise_calib_stim_RIGHT.wav	2	36	blb_dichoticlistening_ta-ta.mp3	ta	ta	0	left
6.6.1	win	2023-06-27	08:50:50	09:07:29	994729	63d1412396ee4fa133b52643	2	1	practice_z	22	practice_z	23	stimuli_distractor_diamondtriangles.svg	stimuli_distractor_trianglediamonds.svg	14	no	0	1	2000	6	5	antiphase_hc_osi.wav	2	6	6	noise_calib_stim_RIGHT.wav	2	36	blb_dichoticlistening_ta-ta.mp3	ta	ta	0	left
6.6.1	win	2023-06-27	08:50:50	09:07:29	994729	63d1412396ee4fa133b52643	2	1	practice_z	22	advance_on_keypress_ZEE	24	stimuli_distractor_diamondtriangles.svg	stimuli_distractor_trianglediamonds.svg	14	no	57	0	544	6	5	antiphase_hc_osi.wav	2	6	6	noise_calib_stim_RIGHT.wav	2	36	blb_dichoticlistening_ta-ta.mp3	ta	ta	0	left
6.6.1	win	2023-06-27	08:50:50	09:07:32	997794	63d1412396ee4fa133b52643	2	1	practice_z	22	practice_z	25	stimuli_distractor_trianglediamonds.svg	stimuli_target_rectanglediamonds.svg	10	yes	44	1	882	6	5	antiphase_hc_osi.wav	2	6	6	noise_calib_stim_RIGHT.wav	2	36	blb_dichoticlistening_ta-ta.mp3	ta	ta	0	left
6.6.1	win	2023-06-27	08:50:50	09:07:32	997794	63d1412396ee4fa133b52643	2	1	practice_z	22	advance_on_keypress_ZEE	26	stimuli_distractor_trianglediamonds.svg	stimuli_target_rectanglediamonds.svg	10	yes	57	0	374	6	5	antiphase_hc_osi.wav	2	6	6	noise_calib_stim_RIGHT.wav	2	36	blb_dichoticlistening_ta-ta.mp3	ta	ta	0	left
6.6.1	win	2023-06-27	08:50:50	09:07:35	1000649	63d1412396ee4fa133b52643	2	1	practice_z	22	practice_z	27	stimuli_target_rectanglediamonds.svg	stimuli_distractor_diamondtriangles.svg	1	yes	44	1	838	6	5	antiphase_hc_osi.wav	2	6	6	noise_calib_stim_RIGHT.wav	2	36	blb_dichoticlistening_ta-ta.mp3	ta	ta	0	left
6.6.1	win	2023-06-27	08:50:50	09:07:35	1000649	63d1412396ee4fa133b52643	2	1	practice_z	22	advance_on_keypress_ZEE	28	stimuli_target_rectanglediamonds.svg	stimuli_distractor_diamondtriangles.svg	1	yes	57	0	428	6	5	antiphase_hc_osi.wav	2	6	6	noise_calib_stim_RIGHT.wav	2	36	blb_dichoticlistening_ta-ta.mp3	ta	ta	0	left
6.6.1	win	2023-06-27	08:50:50	09:07:38	1003970	63d1412396ee4fa133b52643	2	1	practice_z	22	practice_z	29	stimuli_target_squarediamonds.svg	stimuli_distractor_trianglediamonds.svg	5	yes	44	1	1258	6	5	antiphase_hc_osi.wav	2	6	6	noise_calib_stim_RIGHT.wav	2	36	blb_dichoticlistening_ta-ta.mp3	ta	ta	0	left
6.6.1	win	2023-06-27	08:50:50	09:07:38	1003970	63d1412396ee4fa133b52643	2	1	practice_z	22	advance_on_keypress_ZEE	30	stimuli_target_squarediamonds.svg	stimuli_distractor_trianglediamonds.svg	5	yes	57	0	295	6	5	antiphase_hc_osi.wav	2	6	6	noise_calib_stim_RIGHT.wav	2	36	blb_dichoticlistening_ta-ta.mp3	ta	ta	0	left
6.6.1	win	2023-06-27	08:50:50	09:07:42	1007202	63d1412396ee4fa133b52643	2	1	practice_z	22	practice_z	31	stimuli_distractor_trianglediamonds.svg	stimuli_target_diamondrectangles.svg	12	yes	44	1	1307	6	5	antiphase_hc_osi.wav	2	6	6	noise_calib_stim_RIGHT.wav	2	36	blb_dichoticlistening_ta-ta.mp3	ta	ta	0	left
6.6.1	win	2023-06-27	08:50:50	09:07:42	1007202	63d1412396ee4fa133b52643	2	1	practice_z	22	advance_on_keypress_ZEE	32	stimuli_distractor_trianglediamonds.svg	stimuli_target_diamondrectangles.svg	12	yes	57	0	246	6	5	antiphase_hc_osi.wav	2	6	6	noise_calib_stim_RIGHT.wav	2	36	blb_dichoticlistening_ta-ta.mp3	ta	ta	0	left
6.6.1	win	2023-06-27	08:50:50	09:08:05	1030211	63d1412396ee4fa133b52643	2	1	main_z	24	main_z	1	stimuli_distractor_diamondtriangles.svg	stimuli_distractor_diamondtriangles.svg	40	no	0	1	2000	6	5	antiphase_hc_osi.wav	2	6	6	noise_calib_stim_RIGHT.wav	2	36	blb_dichoticlistening_ta-ta.mp3	ta	ta	0	left
6.6.1	win	2023-06-27	08:50:50	09:08:05	1030211	63d1412396ee4fa133b52643	2	1	main_z	24	advance_on_keypress_ZEE	2	stimuli_distractor_diamondtriangles.svg	stimuli_distractor_diamondtriangles.svg	40	no	57	0	502	6	5	antiphase_hc_osi.wav	2	6	6	noise_calib_stim_RIGHT.wav	2	36	blb_dichoticlistening_ta-ta.mp3	ta	ta	0	left
6.6.1	win	2023-06-27	08:50:50	09:08:06	1032096	63d1412396ee4fa133b52643	2	1	main_z	24	main_z	3	stimuli_target_trianglerectangles.svg	stimuli_distractor_trianglediamonds.svg	17	yes	44	1	736	6	5	antiphase_hc_osi.wav	2	6	6	noise_calib_stim_RIGHT.wav	2	36	blb_dichoticlistening_ta-ta.mp3	ta	ta	0	left
6.6.1	win	2023-06-27	08:50:50	09:08:06	1032096	63d1412396ee4fa133b52643	2	1	main_z	24	advance_on_keypress_ZEE	4	stimuli_target_trianglerectangles.svg	stimuli_distractor_trianglediamonds.svg	17	yes	57	0	411	6	5	antiphase_hc_osi.wav	2	6	6	noise_calib_stim_RIGHT.wav	2	36	blb_dichoticlistening_ta-ta.mp3	ta	ta	0	left
6.6.1	win	2023-06-27	08:50:50	09:08:08	1033785	63d1412396ee4fa133b52643	2	1	main_z	24	main_z	5	stimuli_target_trianglerectangles.svg	stimuli_distractor_diamondtriangles.svg	21	yes	44	1	640	6	5	antiphase_hc_osi.wav	2	6	6	noise_calib_stim_RIGHT.wav	2	36	blb_dichoticlistening_ta-ta.mp3	ta	ta	0	left
6.6.1	win	2023-06-27	08:50:50	09:08:08	1033785	63d1412396ee4fa133b52643	2	1	main_z	24	advance_on_keypress_ZEE	6	stimuli_target_trianglerectangles.svg	stimuli_distractor_diamondtriangles.svg	21	yes	57	0	343	6	5	antiphase_hc_osi.wav	2	6	6	noise_calib_stim_RIGHT.wav	2	36	blb_dichoticlistening_ta-ta.mp3	ta	ta	0	left
6.6.1	win	2023-06-27	08:50:50	09:08:10	1035560	63d1412396ee4fa133b52643	2	1	main_z	24	main_z	7	stimuli_target_diamondrectangles.svg	stimuli_distractor_trianglediamonds.svg	19	yes	44	1	800	6	5	antiphase_hc_osi.wav	2	6	6	noise_calib_stim_RIGHT.wav	2	36	blb_dichoticlistening_ta-ta.mp3	ta	ta	0	left
6.6.1	win	2023-06-27	08:50:50	09:08:10	1035560	63d1412396ee4fa133b52643	2	1	main_z	24	advance_on_keypress_ZEE	8	stimuli_target_diamondrectangles.svg	stimuli_distractor_trianglediamonds.svg	19	yes	57	0	303	6	5	antiphase_hc_osi.wav	2	6	6	noise_calib_stim_RIGHT.wav	2	36	blb_dichoticlistening_ta-ta.mp3	ta	ta	0	left
6.6.1	win	2023-06-27	08:50:50	09:08:13	1038510	63d1412396ee4fa133b52643	2	1	main_z	24	main_z	9	stimuli_target_squarediamonds.svg	stimuli_distractor_diamondtriangles.svg	8	yes	0	0	2000	6	5	antiphase_hc_osi.wav	2	6	6	noise_calib_stim_RIGHT.wav	2	36	blb_dichoticlistening_ta-ta.mp3	ta	ta	0	left
6.6.1	win	2023-06-27	08:50:50	09:08:13	1038510	63d1412396ee4fa133b52643	2	1	main_z	24	advance_on_keypress_ZEE	10	stimuli_target_squarediamonds.svg	stimuli_distractor_diamondtriangles.svg	8	yes	57	0	281	6	5	antiphase_hc_osi.wav	2	6	6	noise_calib_stim_RIGHT.wav	2	36	blb_dichoticlistening_ta-ta.mp3	ta	ta	0	left
6.6.1	win	2023-06-27	08:50:50	09:08:15	1040401	63d1412396ee4fa133b52643	2	1	main_z	24	main_z	11	stimuli_distractor_diamondtriangles.svg	stimuli_target_squaretriangles.svg	15	yes	44	1	957	6	5	antiphase_hc_osi.wav	2	6	6	noise_calib_stim_RIGHT.wav	2	36	blb_dichoticlistening_ta-ta.mp3	ta	ta	0	left
6.6.1	win	2023-06-27	08:50:50	09:08:15	1040401	63d1412396ee4fa133b52643	2	1	main_z	24	advance_on_keypress_ZEE	12	stimuli_distractor_diamondtriangles.svg	stimuli_target_squaretriangles.svg	15	yes	57	0	206	6	5	antiphase_hc_osi.wav	2	6	6	noise_calib_stim_RIGHT.wav	2	36	blb_dichoticlistening_ta-ta.mp3	ta	ta	0	left
6.6.1	win	2023-06-27	08:50:50	09:08:17	1042184	63d1412396ee4fa133b52643	2	1	main_z	24	main_z	13	stimuli_target_diamondrectangles.svg	stimuli_distractor_diamondtriangles.svg	23	yes	44	1	941	6	5	antiphase_hc_osi.wav	2	6	6	noise_calib_stim_RIGHT.wav	2	36	blb_dichoticlistening_ta-ta.mp3	ta	ta	0	left
6.6.1	win	2023-06-27	08:50:50	09:08:17	1042184	63d1412396ee4fa133b52643	2	1	main_z	24	advance_on_keypress_ZEE	14	stimuli_target_diamondrectangles.svg	stimuli_distractor_diamondtriangles.svg	23	yes	57	0	223	6	5	antiphase_hc_osi.wav	2	6	6	noise_calib_stim_RIGHT.wav	2	36	blb_dichoticlistening_ta-ta.mp3	ta	ta	0	left
6.6.1	win	2023-06-27	08:50:50	09:08:18	1043785	63d1412396ee4fa133b52643	2	1	main_z	24	main_z	15	stimuli_distractor_trianglediamonds.svg	stimuli_target_rectangletriangles.svg	9	yes	44	1	741	6	5	antiphase_hc_osi.wav	2	6	6	noise_calib_stim_RIGHT.wav	2	36	blb_dichoticlistening_ta-ta.mp3	ta	ta	0	left
6.6.1	win	2023-06-27	08:50:50	09:08:18	1043785	63d1412396ee4fa133b52643	2	1	main_z	24	advance_on_keypress_ZEE	16	stimuli_distractor_trianglediamonds.svg	stimuli_target_rectangletriangles.svg	9	yes	57	0	247	6	5	antiphase_hc_osi.wav	2	6	6	noise_calib_stim_RIGHT.wav	2	36	blb_dichoticlistening_ta-ta.mp3	ta	ta	0	left
6.6.1	win	2023-06-27	08:50:50	09:08:21	1046660	63d1412396ee4fa133b52643	2	1	main_z	24	main_z	17	stimuli_distractor_trianglediamonds.svg	stimuli_distractor_diamondtriangles.svg	36	no	0	1	2000	6	5	antiphase_hc_osi.wav	2	6	6	noise_calib_stim_RIGHT.wav	2	36	blb_dichoticlistening_ta-ta.mp3	ta	ta	0	left
6.6.1	win	2023-06-27	08:50:50	09:08:21	1046660	63d1412396ee4fa133b52643	2	1	main_z	24	advance_on_keypress_ZEE	18	stimuli_distractor_trianglediamonds.svg	stimuli_distractor_diamondtriangles.svg	36	no	57	0	244	6	5	antiphase_hc_osi.wav	2	6	6	noise_calib_stim_RIGHT.wav	2	36	blb_dichoticlistening_ta-ta.mp3	ta	ta	0	left
6.6.1	win	2023-06-27	08:50:50	09:08:23	1048256	63d1412396ee4fa133b52643	2	1	main_z	24	main_z	19	stimuli_distractor_diamondtriangles.svg	stimuli_target_trianglerectangles.svg	29	yes	44	1	713	6	5	antiphase_hc_osi.wav	2	6	6	noise_calib_stim_RIGHT.wav	2	36	blb_dichoticlistening_ta-ta.mp3	ta	ta	0	left
6.6.1	win	2023-06-27	08:50:50	09:08:23	1048256	63d1412396ee4fa133b52643	2	1	main_z	24	advance_on_keypress_ZEE	20	stimuli_distractor_diamondtriangles.svg	stimuli_target_trianglerectangles.svg	29	yes	57	0	212	6	5	antiphase_hc_osi.wav	2	6	6	noise_calib_stim_RIGHT.wav	2	36	blb_dichoticlistening_ta-ta.mp3	ta	ta	0	left
6.6.1	win	2023-06-27	08:50:50	09:08:24	1049800	63d1412396ee4fa133b52643	2	1	main_z	24	main_z	21	stimuli_distractor_trianglediamonds.svg	stimuli_target_trianglesquares.svg	26	yes	44	1	707	6	5	antiphase_hc_osi.wav	2	6	6	noise_calib_stim_RIGHT.wav	2	36	blb_dichoticlistening_ta-ta.mp3	ta	ta	0	left
6.6.1	win	2023-06-27	08:50:50	09:08:24	1049800	63d1412396ee4fa133b52643	2	1	main_z	24	advance_on_keypress_ZEE	22	stimuli_distractor_trianglediamonds.svg	stimuli_target_trianglesquares.svg	26	yes	57	0	294	6	5	antiphase_hc_osi.wav	2	6	6	noise_calib_stim_RIGHT.wav	2	36	blb_dichoticlistening_ta-ta.mp3	ta	ta	0	left
6.6.1	win	2023-06-27	08:50:50	09:08:26	1051808	63d1412396ee4fa133b52643	2	1	main_z	24	main_z	23	stimuli_distractor_diamondtriangles.svg	stimuli_target_rectanglediamonds.svg	14	yes	44	1	1082	6	5	antiphase_hc_osi.wav	2	6	6	noise_calib_stim_RIGHT.wav	2	36	blb_dichoticlistening_ta-ta.mp3	ta	ta	0	left
6.6.1	win	2023-06-27	08:50:50	09:08:26	1051808	63d1412396ee4fa133b52643	2	1	main_z	24	advance_on_keypress_ZEE	24	stimuli_distractor_diamondtriangles.svg	stimuli_target_rectanglediamonds.svg	14	yes	57	0	238	6	5	antiphase_hc_osi.wav	2	6	6	noise_calib_stim_RIGHT.wav	2	36	blb_dichoticlistening_ta-ta.mp3	ta	ta	0	left
6.6.1	win	2023-06-27	08:50:50	09:08:28	1053377	63d1412396ee4fa133b52643	2	1	main_z	24	main_z	25	stimuli_distractor_trianglediamonds.svg	stimuli_target_squarediamonds.svg	12	yes	44	1	684	6	5	antiphase_hc_osi.wav	2	6	6	noise_calib_stim_RIGHT.wav	2	36	blb_dichoticlistening_ta-ta.mp3	ta	ta	0	left
6.6.1	win	2023-06-27	08:50:50	09:08:28	1053377	63d1412396ee4fa133b52643	2	1	main_z	24	advance_on_keypress_ZEE	26	stimuli_distractor_trianglediamonds.svg	stimuli_target_squarediamonds.svg	12	yes	57	0	239	6	5	antiphase_hc_osi.wav	2	6	6	noise_calib_stim_RIGHT.wav	2	36	blb_dichoticlistening_ta-ta.mp3	ta	ta	0	left
6.6.1	win	2023-06-27	08:50:50	09:08:29	1055056	63d1412396ee4fa133b52643	2	1	main_z	24	main_z	27	stimuli_target_rectanglediamonds.svg	stimuli_distractor_trianglediamonds.svg	2	yes	44	1	796	6	5	antiphase_hc_osi.wav	2	6	6	noise_calib_stim_RIGHT.wav	2	36	blb_dichoticlistening_ta-ta.mp3	ta	ta	0	left
6.6.1	win	2023-06-27	08:50:50	09:08:29	1055056	63d1412396ee4fa133b52643	2	1	main_z	24	advance_on_keypress_ZEE	28	stimuli_target_rectanglediamonds.svg	stimuli_distractor_trianglediamonds.svg	2	yes	57	0	268	6	5	antiphase_hc_osi.wav	2	6	6	noise_calib_stim_RIGHT.wav	2	36	blb_dichoticlistening_ta-ta.mp3	ta	ta	0	left
6.6.1	win	2023-06-27	08:50:50	09:08:31	1056728	63d1412396ee4fa133b52643	2	1	main_z	24	main_z	29	stimuli_target_diamondsquares.svg	stimuli_distractor_trianglediamonds.svg	20	yes	44	1	768	6	5	antiphase_hc_osi.wav	2	6	6	noise_calib_stim_RIGHT.wav	2	36	blb_dichoticlistening_ta-ta.mp3	ta	ta	0	left
6.6.1	win	2023-06-27	08:50:50	09:08:31	1056728	63d1412396ee4fa133b52643	2	1	main_z	24	advance_on_keypress_ZEE	30	stimuli_target_diamondsquares.svg	stimuli_distractor_trianglediamonds.svg	20	yes	57	0	209	6	5	antiphase_hc_osi.wav	2	6	6	noise_calib_stim_RIGHT.wav	2	36	blb_dichoticlistening_ta-ta.mp3	ta	ta	0	left
6.6.1	win	2023-06-27	08:50:50	09:08:33	1058568	63d1412396ee4fa133b52643	2	1	main_z	24	main_z	31	stimuli_distractor_trianglediamonds.svg	stimuli_target_diamondsquares.svg	28	yes	44	1	992	6	5	antiphase_hc_osi.wav	2	6	6	noise_calib_stim_RIGHT.wav	2	36	blb_dichoticlistening_ta-ta.mp3	ta	ta	0	left
6.6.1	win	2023-06-27	08:50:50	09:08:33	1058568	63d1412396ee4fa133b52643	2	1	main_z	24	advance_on_keypress_ZEE	32	stimuli_distractor_trianglediamonds.svg	stimuli_target_diamondsquares.svg	28	yes	57	0	152	6	5	antiphase_hc_osi.wav	2	6	6	noise_calib_stim_RIGHT.wav	2	36	blb_dichoticlistening_ta-ta.mp3	ta	ta	0	left
6.6.1	win	2023-06-27	08:50:50	09:08:36	1061360	63d1412396ee4fa133b52643	2	1	main_z	24	main_z	33	stimuli_distractor_diamondtriangles.svg	stimuli_distractor_diamondtriangles.svg	39	no	0	1	2000	6	5	antiphase_hc_osi.wav	2	6	6	noise_calib_stim_RIGHT.wav	2	36	blb_dichoticlistening_ta-ta.mp3	ta	ta	0	left
6.6.1	win	2023-06-27	08:50:50	09:08:36	1061360	63d1412396ee4fa133b52643	2	1	main_z	24	advance_on_keypress_ZEE	34	stimuli_distractor_diamondtriangles.svg	stimuli_distractor_diamondtriangles.svg	39	no	57	0	368	6	5	antiphase_hc_osi.wav	2	6	6	noise_calib_stim_RIGHT.wav	2	36	blb_dichoticlistening_ta-ta.mp3	ta	ta	0	left
6.6.1	win	2023-06-27	08:50:50	09:08:38	1063225	63d1412396ee4fa133b52643	2	1	main_z	24	main_z	35	stimuli_distractor_trianglediamonds.svg	stimuli_target_squaretriangles.svg	11	yes	44	1	848	6	5	antiphase_hc_osi.wav	2	6	6	noise_calib_stim_RIGHT.wav	2	36	blb_dichoticlistening_ta-ta.mp3	ta	ta	0	left
6.6.1	win	2023-06-27	08:50:50	09:08:38	1063225	63d1412396ee4fa133b52643	2	1	main_z	24	advance_on_keypress_ZEE	36	stimuli_distractor_trianglediamonds.svg	stimuli_target_squaretriangles.svg	11	yes	57	0	301	6	5	antiphase_hc_osi.wav	2	6	6	noise_calib_stim_RIGHT.wav	2	36	blb_dichoticlistening_ta-ta.mp3	ta	ta	0	left
6.6.1	win	2023-06-27	08:50:50	09:08:39	1064888	63d1412396ee4fa133b52643	2	1	main_z	24	main_z	37	stimuli_target_rectangletriangles.svg	stimuli_distractor_trianglediamonds.svg	1	yes	44	1	712	6	5	antiphase_hc_osi.wav	2	6	6	noise_calib_stim_RIGHT.wav	2	36	blb_dichoticlistening_ta-ta.mp3	ta	ta	0	left
6.6.1	win	2023-06-27	08:50:50	09:08:39	1064888	63d1412396ee4fa133b52643	2	1	main_z	24	advance_on_keypress_ZEE	38	stimuli_target_rectangletriangles.svg	stimuli_distractor_trianglediamonds.svg	1	yes	57	0	203	6	5	antiphase_hc_osi.wav	2	6	6	noise_calib_stim_RIGHT.wav	2	36	blb_dichoticlistening_ta-ta.mp3	ta	ta	0	left
6.6.1	win	2023-06-27	08:50:50	09:08:41	1066536	63d1412396ee4fa133b52643	2	1	main_z	24	main_z	39	stimuli_distractor_diamondtriangles.svg	stimuli_target_diamondrectangles.svg	31	yes	44	1	810	6	5	antiphase_hc_osi.wav	2	6	6	noise_calib_stim_RIGHT.wav	2	36	blb_dichoticlistening_ta-ta.mp3	ta	ta	0	left
6.6.1	win	2023-06-27	08:50:50	09:08:41	1066536	63d1412396ee4fa133b52643	2	1	main_z	24	advance_on_keypress_ZEE	40	stimuli_distractor_diamondtriangles.svg	stimuli_target_diamondrectangles.svg	31	yes	57	0	185	6	5	antiphase_hc_osi.wav	2	6	6	noise_calib_stim_RIGHT.wav	2	36	blb_dichoticlistening_ta-ta.mp3	ta	ta	0	left
6.6.1	win	2023-06-27	08:50:50	09:08:42	1067993	63d1412396ee4fa133b52643	2	1	main_z	24	main_z	41	stimuli_target_squarediamonds.svg	stimuli_distractor_trianglediamonds.svg	4	yes	44	1	633	6	5	antiphase_hc_osi.wav	2	6	6	noise_calib_stim_RIGHT.wav	2	36	blb_dichoticlistening_ta-ta.mp3	ta	ta	0	left
6.6.1	win	2023-06-27	08:50:50	09:08:42	1067993	63d1412396ee4fa133b52643	2	1	main_z	24	advance_on_keypress_ZEE	42	stimuli_target_squarediamonds.svg	stimuli_distractor_trianglediamonds.svg	4	yes	57	0	143	6	5	antiphase_hc_osi.wav	2	6	6	noise_calib_stim_RIGHT.wav	2	36	blb_dichoticlistening_ta-ta.mp3	ta	ta	0	left
6.6.1	win	2023-06-27	08:50:50	09:08:45	1070776	63d1412396ee4fa133b52643	2	1	main_z	24	main_z	43	stimuli_distractor_trianglediamonds.svg	stimuli_distractor_trianglediamonds.svg	33	no	0	1	2000	6	5	antiphase_hc_osi.wav	2	6	6	noise_calib_stim_RIGHT.wav	2	36	blb_dichoticlistening_ta-ta.mp3	ta	ta	0	left
6.6.1	win	2023-06-27	08:50:50	09:08:45	1070776	63d1412396ee4fa133b52643	2	1	main_z	24	advance_on_keypress_ZEE	44	stimuli_distractor_trianglediamonds.svg	stimuli_distractor_trianglediamonds.svg	33	no	57	0	768	6	5	antiphase_hc_osi.wav	2	6	6	noise_calib_stim_RIGHT.wav	2	36	blb_dichoticlistening_ta-ta.mp3	ta	ta	0	left
6.6.1	win	2023-06-27	08:50:50	09:08:49	1074193	63d1412396ee4fa133b52643	2	1	main_z	24	main_z	45	stimuli_distractor_trianglediamonds.svg	stimuli_distractor_trianglediamonds.svg	34	no	0	1	2000	6	5	antiphase_hc_osi.wav	2	6	6	noise_calib_stim_RIGHT.wav	2	36	blb_dichoticlistening_ta-ta.mp3	ta	ta	0	left
6.6.1	win	2023-06-27	08:50:50	09:08:49	1074193	63d1412396ee4fa133b52643	2	1	main_z	24	advance_on_keypress_ZEE	46	stimuli_distractor_trianglediamonds.svg	stimuli_distractor_trianglediamonds.svg	34	no	57	0	247	6	5	antiphase_hc_osi.wav	2	6	6	noise_calib_stim_RIGHT.wav	2	36	blb_dichoticlistening_ta-ta.mp3	ta	ta	0	left
6.6.1	win	2023-06-27	08:50:50	09:08:50	1075824	63d1412396ee4fa133b52643	2	1	main_z	24	main_z	47	stimuli_target_trianglesquares.svg	stimuli_distractor_trianglediamonds.svg	18	yes	44	1	748	6	5	antiphase_hc_osi.wav	2	6	6	noise_calib_stim_RIGHT.wav	2	36	blb_dichoticlistening_ta-ta.mp3	ta	ta	0	left
6.6.1	win	2023-06-27	08:50:50	09:08:50	1075824	63d1412396ee4fa133b52643	2	1	main_z	24	advance_on_keypress_ZEE	48	stimuli_target_trianglesquares.svg	stimuli_distractor_trianglediamonds.svg	18	yes	57	0	214	6	5	antiphase_hc_osi.wav	2	6	6	noise_calib_stim_RIGHT.wav	2	36	blb_dichoticlistening_ta-ta.mp3	ta	ta	0	left
6.6.1	win	2023-06-27	08:50:50	09:08:52	1077304	63d1412396ee4fa133b52643	2	1	main_z	24	main_z	49	stimuli_distractor_trianglediamonds.svg	stimuli_target_rectanglediamonds.svg	10	yes	44	1	628	6	5	antiphase_hc_osi.wav	2	6	6	noise_calib_stim_RIGHT.wav	2	36	blb_dichoticlistening_ta-ta.mp3	ta	ta	0	left
6.6.1	win	2023-06-27	08:50:50	09:08:52	1077304	63d1412396ee4fa133b52643	2	1	main_z	24	advance_on_keypress_ZEE	50	stimuli_distractor_trianglediamonds.svg	stimuli_target_rectanglediamonds.svg	10	yes	57	0	179	6	5	antiphase_hc_osi.wav	2	6	6	noise_calib_stim_RIGHT.wav	2	36	blb_dichoticlistening_ta-ta.mp3	ta	ta	0	left
6.6.1	win	2023-06-27	08:50:50	09:08:53	1078832	63d1412396ee4fa133b52643	2	1	main_z	24	main_z	51	stimuli_target_trianglesquares.svg	stimuli_distractor_diamondtriangles.svg	22	yes	44	1	723	6	5	antiphase_hc_osi.wav	2	6	6	noise_calib_stim_RIGHT.wav	2	36	blb_dichoticlistening_ta-ta.mp3	ta	ta	0	left
6.6.1	win	2023-06-27	08:50:50	09:08:53	1078832	63d1412396ee4fa133b52643	2	1	main_z	24	advance_on_keypress_ZEE	52	stimuli_target_trianglesquares.svg	stimuli_distractor_diamondtriangles.svg	22	yes	57	0	214	6	5	antiphase_hc_osi.wav	2	6	6	noise_calib_stim_RIGHT.wav	2	36	blb_dichoticlistening_ta-ta.mp3	ta	ta	0	left
6.6.1	win	2023-06-27	08:50:50	09:08:56	1081692	63d1412396ee4fa133b52643	2	1	main_z	24	main_z	53	stimuli_distractor_diamondtriangles.svg	stimuli_distractor_trianglediamonds.svg	38	no	0	1	2000	6	5	antiphase_hc_osi.wav	2	6	6	noise_calib_stim_RIGHT.wav	2	36	blb_dichoticlistening_ta-ta.mp3	ta	ta	0	left
6.6.1	win	2023-06-27	08:50:50	09:08:56	1081692	63d1412396ee4fa133b52643	2	1	main_z	24	advance_on_keypress_ZEE	54	stimuli_distractor_diamondtriangles.svg	stimuli_distractor_trianglediamonds.svg	38	no	57	0	547	6	5	antiphase_hc_osi.wav	2	6	6	noise_calib_stim_RIGHT.wav	2	36	blb_dichoticlistening_ta-ta.mp3	ta	ta	0	left
6.6.1	win	2023-06-27	08:50:50	09:08:58	1083624	63d1412396ee4fa133b52643	2	1	main_z	24	main_z	55	stimuli_target_rectanglediamonds.svg	stimuli_distractor_diamondtriangles.svg	6	yes	44	1	732	6	5	antiphase_hc_osi.wav	2	6	6	noise_calib_stim_RIGHT.wav	2	36	blb_dichoticlistening_ta-ta.mp3	ta	ta	0	left
6.6.1	win	2023-06-27	08:50:50	09:08:58	1083624	63d1412396ee4fa133b52643	2	1	main_z	24	advance_on_keypress_ZEE	56	stimuli_target_rectanglediamonds.svg	stimuli_distractor_diamondtriangles.svg	6	yes	57	0	182	6	5	antiphase_hc_osi.wav	2	6	6	noise_calib_stim_RIGHT.wav	2	36	blb_dichoticlistening_ta-ta.mp3	ta	ta	0	left
6.6.1	win	2023-06-27	08:50:50	09:09:00	1085224	63d1412396ee4fa133b52643	2	1	main_z	24	main_z	57	stimuli_target_rectangletriangles.svg	stimuli_distractor_diamondtriangles.svg	5	yes	44	1	765	6	5	antiphase_hc_osi.wav	2	6	6	noise_calib_stim_RIGHT.wav	2	36	blb_dichoticlistening_ta-ta.mp3	ta	ta	0	left
6.6.1	win	2023-06-27	08:50:50	09:09:00	1085224	63d1412396ee4fa133b52643	2	1	main_z	24	advance_on_keypress_ZEE	58	stimuli_target_rectangletriangles.svg	stimuli_distractor_diamondtriangles.svg	5	yes	57	0	246	6	5	antiphase_hc_osi.wav	2	6	6	noise_calib_stim_RIGHT.wav	2	36	blb_dichoticlistening_ta-ta.mp3	ta	ta	0	left
6.6.1	win	2023-06-27	08:50:50	09:09:02	1087328	63d1412396ee4fa133b52643	2	1	main_z	24	main_z	59	stimuli_distractor_trianglediamonds.svg	stimuli_target_diamondrectangles.svg	27	yes	44	1	1219	6	5	antiphase_hc_osi.wav	2	6	6	noise_calib_stim_RIGHT.wav	2	36	blb_dichoticlistening_ta-ta.mp3	ta	ta	0	left
6.6.1	win	2023-06-27	08:50:50	09:09:02	1087328	63d1412396ee4fa133b52643	2	1	main_z	24	advance_on_keypress_ZEE	60	stimuli_distractor_trianglediamonds.svg	stimuli_target_diamondrectangles.svg	27	yes	57	0	178	6	5	antiphase_hc_osi.wav	2	6	6	noise_calib_stim_RIGHT.wav	2	36	blb_dichoticlistening_ta-ta.mp3	ta	ta	0	left
6.6.1	win	2023-06-27	08:50:50	09:09:03	1088809	63d1412396ee4fa133b52643	2	1	main_z	24	main_z	61	stimuli_target_squaretriangles.svg	stimuli_distractor_trianglediamonds.svg	3	yes	44	1	666	6	5	antiphase_hc_osi.wav	2	6	6	noise_calib_stim_RIGHT.wav	2	36	blb_dichoticlistening_ta-ta.mp3	ta	ta	0	left
6.6.1	win	2023-06-27	08:50:50	09:09:03	1088809	63d1412396ee4fa133b52643	2	1	main_z	24	advance_on_keypress_ZEE	62	stimuli_target_squaretriangles.svg	stimuli_distractor_trianglediamonds.svg	3	yes	57	0	191	6	5	antiphase_hc_osi.wav	2	6	6	noise_calib_stim_RIGHT.wav	2	36	blb_dichoticlistening_ta-ta.mp3	ta	ta	0	left
6.6.1	win	2023-06-27	08:50:50	09:09:06	1091642	63d1412396ee4fa133b52643	2	1	main_z	24	main_z	63	stimuli_distractor_trianglediamonds.svg	stimuli_target_trianglerectangles.svg	25	yes	0	0	2000	6	5	antiphase_hc_osi.wav	2	6	6	noise_calib_stim_RIGHT.wav	2	36	blb_dichoticlistening_ta-ta.mp3	ta	ta	0	left
6.6.1	win	2023-06-27	08:50:50	09:09:06	1091642	63d1412396ee4fa133b52643	2	1	main_z	24	advance_on_keypress_ZEE	64	stimuli_distractor_trianglediamonds.svg	stimuli_target_trianglerectangles.svg	25	yes	57	0	333	6	5	antiphase_hc_osi.wav	2	6	6	noise_calib_stim_RIGHT.wav	2	36	blb_dichoticlistening_ta-ta.mp3	ta	ta	0	left
6.6.1	win	2023-06-27	08:50:50	09:09:08	1093504	63d1412396ee4fa133b52643	2	1	main_z	24	main_z	65	stimuli_distractor_diamondtriangles.svg	stimuli_target_diamondsquares.svg	32	yes	44	1	879	6	5	antiphase_hc_osi.wav	2	6	6	noise_calib_stim_RIGHT.wav	2	36	blb_dichoticlistening_ta-ta.mp3	ta	ta	0	left
6.6.1	win	2023-06-27	08:50:50	09:09:08	1093504	63d1412396ee4fa133b52643	2	1	main_z	24	advance_on_keypress_ZEE	66	stimuli_distractor_diamondtriangles.svg	stimuli_target_diamondsquares.svg	32	yes	57	0	148	6	5	antiphase_hc_osi.wav	2	6	6	noise_calib_stim_RIGHT.wav	2	36	blb_dichoticlistening_ta-ta.mp3	ta	ta	0	left
6.6.1	win	2023-06-27	08:50:50	09:09:11	1096292	63d1412396ee4fa133b52643	2	1	main_z	24	main_z	67	stimuli_distractor_trianglediamonds.svg	stimuli_distractor_diamondtriangles.svg	35	no	0	1	2000	6	5	antiphase_hc_osi.wav	2	6	6	noise_calib_stim_RIGHT.wav	2	36	blb_dichoticlistening_ta-ta.mp3	ta	ta	0	left
6.6.1	win	2023-06-27	08:50:50	09:09:11	1096292	63d1412396ee4fa133b52643	2	1	main_z	24	advance_on_keypress_ZEE	68	stimuli_distractor_trianglediamonds.svg	stimuli_distractor_diamondtriangles.svg	35	no	57	0	436	6	5	antiphase_hc_osi.wav	2	6	6	noise_calib_stim_RIGHT.wav	2	36	blb_dichoticlistening_ta-ta.mp3	ta	ta	0	left
6.6.1	win	2023-06-27	08:50:50	09:09:13	1098144	63d1412396ee4fa133b52643	2	1	main_z	24	main_z	69	stimuli_distractor_diamondtriangles.svg	stimuli_target_squarediamonds.svg	16	yes	44	1	769	6	5	antiphase_hc_osi.wav	2	6	6	noise_calib_stim_RIGHT.wav	2	36	blb_dichoticlistening_ta-ta.mp3	ta	ta	0	left
6.6.1	win	2023-06-27	08:50:50	09:09:13	1098144	63d1412396ee4fa133b52643	2	1	main_z	24	advance_on_keypress_ZEE	70	stimuli_distractor_diamondtriangles.svg	stimuli_target_squarediamonds.svg	16	yes	57	0	154	6	5	antiphase_hc_osi.wav	2	6	6	noise_calib_stim_RIGHT.wav	2	36	blb_dichoticlistening_ta-ta.mp3	ta	ta	0	left
6.6.1	win	2023-06-27	08:50:50	09:09:14	1099696	63d1412396ee4fa133b52643	2	1	main_z	24	main_z	71	stimuli_target_squaretriangles.svg	stimuli_distractor_diamondtriangles.svg	7	yes	44	1	754	6	5	antiphase_hc_osi.wav	2	6	6	noise_calib_stim_RIGHT.wav	2	36	blb_dichoticlistening_ta-ta.mp3	ta	ta	0	left
6.6.1	win	2023-06-27	08:50:50	09:09:14	1099696	63d1412396ee4fa133b52643	2	1	main_z	24	advance_on_keypress_ZEE	72	stimuli_target_squaretriangles.svg	stimuli_distractor_diamondtriangles.svg	7	yes	57	0	204	6	5	antiphase_hc_osi.wav	2	6	6	noise_calib_stim_RIGHT.wav	2	36	blb_dichoticlistening_ta-ta.mp3	ta	ta	0	left
6.6.1	win	2023-06-27	08:50:50	09:09:17	1102542	63d1412396ee4fa133b52643	2	1	main_z	24	main_z	73	stimuli_distractor_diamondtriangles.svg	stimuli_target_rectangletriangles.svg	13	yes	0	0	2000	6	5	antiphase_hc_osi.wav	2	6	6	noise_calib_stim_RIGHT.wav	2	36	blb_dichoticlistening_ta-ta.mp3	ta	ta	0	left
6.6.1	win	2023-06-27	08:50:50	09:09:17	1102542	63d1412396ee4fa133b52643	2	1	main_z	24	advance_on_keypress_ZEE	74	stimuli_distractor_diamondtriangles.svg	stimuli_target_rectangletriangles.svg	13	yes	57	0	482	6	5	antiphase_hc_osi.wav	2	6	6	noise_calib_stim_RIGHT.wav	2	36	blb_dichoticlistening_ta-ta.mp3	ta	ta	0	left
6.6.1	win	2023-06-27	08:50:50	09:09:19	1104352	63d1412396ee4fa133b52643	2	1	main_z	24	main_z	75	stimuli_target_diamondsquares.svg	stimuli_distractor_diamondtriangles.svg	24	yes	44	1	677	6	5	antiphase_hc_osi.wav	2	6	6	noise_calib_stim_RIGHT.wav	2	36	blb_dichoticlistening_ta-ta.mp3	ta	ta	0	left
6.6.1	win	2023-06-27	08:50:50	09:09:19	1104352	63d1412396ee4fa133b52643	2	1	main_z	24	advance_on_keypress_ZEE	76	stimuli_target_diamondsquares.svg	stimuli_distractor_diamondtriangles.svg	24	yes	57	0	226	6	5	antiphase_hc_osi.wav	2	6	6	noise_calib_stim_RIGHT.wav	2	36	blb_dichoticlistening_ta-ta.mp3	ta	ta	0	left
6.6.1	win	2023-06-27	08:50:50	09:09:22	1107208	63d1412396ee4fa133b52643	2	1	main_z	24	main_z	77	stimuli_distractor_diamondtriangles.svg	stimuli_distractor_trianglediamonds.svg	37	no	0	1	2000	6	5	antiphase_hc_osi.wav	2	6	6	noise_calib_stim_RIGHT.wav	2	36	blb_dichoticlistening_ta-ta.mp3	ta	ta	0	left
6.6.1	win	2023-06-27	08:50:50	09:09:22	1107208	63d1412396ee4fa133b52643	2	1	main_z	24	advance_on_keypress_ZEE	78	stimuli_distractor_diamondtriangles.svg	stimuli_distractor_trianglediamonds.svg	37	no	57	0	271	6	5	antiphase_hc_osi.wav	2	6	6	noise_calib_stim_RIGHT.wav	2	36	blb_dichoticlistening_ta-ta.mp3	ta	ta	0	left
6.6.1	win	2023-06-27	08:50:50	09:09:24	1109224	63d1412396ee4fa133b52643	2	1	main_z	24	main_z	79	stimuli_distractor_diamondtriangles.svg	stimuli_target_trianglesquares.svg	30	yes	44	1	1099	6	5	antiphase_hc_osi.wav	2	6	6	noise_calib_stim_RIGHT.wav	2	36	blb_dichoticlistening_ta-ta.mp3	ta	ta	0	left
6.6.1	win	2023-06-27	08:50:50	09:09:24	1109224	63d1412396ee4fa133b52643	2	1	main_z	24	advance_on_keypress_ZEE	80	stimuli_distractor_diamondtriangles.svg	stimuli_target_trianglesquares.svg	30	yes	57	0	207	6	5	antiphase_hc_osi.wav	2	6	6	noise_calib_stim_RIGHT.wav	2	36	blb_dichoticlistening_ta-ta.mp3	ta	ta	0	left
6.6.1	win	2023-06-27	08:50:50	09:09:25	1110744	63d1412396ee4fa133b52643	2	1	main_z	24	main_z	81	stimuli_target_trianglesquares.svg	stimuli_distractor_diamondtriangles.svg	22	yes	44	1	669	6	5	antiphase_hc_osi.wav	2	6	6	noise_calib_stim_RIGHT.wav	2	36	blb_dichoticlistening_ta-ta.mp3	ta	ta	0	left
6.6.1	win	2023-06-27	08:50:50	09:09:25	1110744	63d1412396ee4fa133b52643	2	1	main_z	24	advance_on_keypress_ZEE	82	stimuli_target_trianglesquares.svg	stimuli_distractor_diamondtriangles.svg	22	yes	57	0	162	6	5	antiphase_hc_osi.wav	2	6	6	noise_calib_stim_RIGHT.wav	2	36	blb_dichoticlistening_ta-ta.mp3	ta	ta	0	left
6.6.1	win	2023-06-27	08:50:50	09:09:27	1112248	63d1412396ee4fa133b52643	2	1	main_z	24	main_z	83	stimuli_distractor_trianglediamonds.svg	stimuli_target_rectangletriangles.svg	9	yes	44	1	707	6	5	antiphase_hc_osi.wav	2	6	6	noise_calib_stim_RIGHT.wav	2	36	blb_dichoticlistening_ta-ta.mp3	ta	ta	0	left
6.6.1	win	2023-06-27	08:50:50	09:09:27	1112248	63d1412396ee4fa133b52643	2	1	main_z	24	advance_on_keypress_ZEE	84	stimuli_distractor_trianglediamonds.svg	stimuli_target_rectangletriangles.svg	9	yes	57	0	158	6	5	antiphase_hc_osi.wav	2	6	6	noise_calib_stim_RIGHT.wav	2	36	blb_dichoticlistening_ta-ta.mp3	ta	ta	0	left
6.6.1	win	2023-06-27	08:50:50	09:09:28	1113776	63d1412396ee4fa133b52643	2	1	main_z	24	main_z	85	stimuli_distractor_diamondtriangles.svg	stimuli_target_squaretriangles.svg	15	yes	44	1	735	6	5	antiphase_hc_osi.wav	2	6	6	noise_calib_stim_RIGHT.wav	2	36	blb_dichoticlistening_ta-ta.mp3	ta	ta	0	left
6.6.1	win	2023-06-27	08:50:50	09:09:28	1113776	63d1412396ee4fa133b52643	2	1	main_z	24	advance_on_keypress_ZEE	86	stimuli_distractor_diamondtriangles.svg	stimuli_target_squaretriangles.svg	15	yes	57	0	145	6	5	antiphase_hc_osi.wav	2	6	6	noise_calib_stim_RIGHT.wav	2	36	blb_dichoticlistening_ta-ta.mp3	ta	ta	0	left
6.6.1	win	2023-06-27	08:50:50	09:09:31	1116558	63d1412396ee4fa133b52643	2	1	main_z	24	main_z	87	stimuli_distractor_diamondtriangles.svg	stimuli_distractor_diamondtriangles.svg	39	no	0	1	2000	6	5	antiphase_hc_osi.wav	2	6	6	noise_calib_stim_RIGHT.wav	2	36	blb_dichoticlistening_ta-ta.mp3	ta	ta	0	left
6.6.1	win	2023-06-27	08:50:50	09:09:31	1116558	63d1412396ee4fa133b52643	2	1	main_z	24	advance_on_keypress_ZEE	88	stimuli_distractor_diamondtriangles.svg	stimuli_distractor_diamondtriangles.svg	39	no	57	0	250	6	5	antiphase_hc_osi.wav	2	6	6	noise_calib_stim_RIGHT.wav	2	36	blb_dichoticlistening_ta-ta.mp3	ta	ta	0	left
6.6.1	win	2023-06-27	08:50:50	09:09:32	1118064	63d1412396ee4fa133b52643	2	1	main_z	24	main_z	89	stimuli_target_diamondsquares.svg	stimuli_distractor_trianglediamonds.svg	20	yes	44	1	606	6	5	antiphase_hc_osi.wav	2	6	6	noise_calib_stim_RIGHT.wav	2	36	blb_dichoticlistening_ta-ta.mp3	ta	ta	0	left
6.6.1	win	2023-06-27	08:50:50	09:09:32	1118064	63d1412396ee4fa133b52643	2	1	main_z	24	advance_on_keypress_ZEE	90	stimuli_target_diamondsquares.svg	stimuli_distractor_trianglediamonds.svg	20	yes	57	0	182	6	5	antiphase_hc_osi.wav	2	6	6	noise_calib_stim_RIGHT.wav	2	36	blb_dichoticlistening_ta-ta.mp3	ta	ta	0	left
6.6.1	win	2023-06-27	08:50:50	09:09:34	1119625	63d1412396ee4fa133b52643	2	1	main_z	24	main_z	91	stimuli_target_rectanglediamonds.svg	stimuli_distractor_trianglediamonds.svg	2	yes	44	1	733	6	5	antiphase_hc_osi.wav	2	6	6	noise_calib_stim_RIGHT.wav	2	36	blb_dichoticlistening_ta-ta.mp3	ta	ta	0	left
6.6.1	win	2023-06-27	08:50:50	09:09:34	1119625	63d1412396ee4fa133b52643	2	1	main_z	24	advance_on_keypress_ZEE	92	stimuli_target_rectanglediamonds.svg	stimuli_distractor_trianglediamonds.svg	2	yes	57	0	143	6	5	antiphase_hc_osi.wav	2	6	6	noise_calib_stim_RIGHT.wav	2	36	blb_dichoticlistening_ta-ta.mp3	ta	ta	0	left
6.6.1	win	2023-06-27	08:50:50	09:09:35	1121032	63d1412396ee4fa133b52643	2	1	main_z	24	main_z	93	stimuli_target_diamondrectangles.svg	stimuli_distractor_diamondtriangles.svg	23	yes	44	1	624	6	5	antiphase_hc_osi.wav	2	6	6	noise_calib_stim_RIGHT.wav	2	36	blb_dichoticlistening_ta-ta.mp3	ta	ta	0	left
6.6.1	win	2023-06-27	08:50:50	09:09:35	1121032	63d1412396ee4fa133b52643	2	1	main_z	24	advance_on_keypress_ZEE	94	stimuli_target_diamondrectangles.svg	stimuli_distractor_diamondtriangles.svg	23	yes	57	0	135	6	5	antiphase_hc_osi.wav	2	6	6	noise_calib_stim_RIGHT.wav	2	36	blb_dichoticlistening_ta-ta.mp3	ta	ta	0	left
6.6.1	win	2023-06-27	08:50:50	09:09:37	1122472	63d1412396ee4fa133b52643	2	1	main_z	24	main_z	95	stimuli_target_rectanglediamonds.svg	stimuli_distractor_diamondtriangles.svg	6	yes	44	1	664	6	5	antiphase_hc_osi.wav	2	6	6	noise_calib_stim_RIGHT.wav	2	36	blb_dichoticlistening_ta-ta.mp3	ta	ta	0	left
6.6.1	win	2023-06-27	08:50:50	09:09:37	1122472	63d1412396ee4fa133b52643	2	1	main_z	24	advance_on_keypress_ZEE	96	stimuli_target_rectanglediamonds.svg	stimuli_distractor_diamondtriangles.svg	6	yes	57	0	109	6	5	antiphase_hc_osi.wav	2	6	6	noise_calib_stim_RIGHT.wav	2	36	blb_dichoticlistening_ta-ta.mp3	ta	ta	0	left
6.6.1	win	2023-06-27	08:50:50	09:09:40	1125225	63d1412396ee4fa133b52643	2	1	main_z	24	main_z	97	stimuli_distractor_diamondtriangles.svg	stimuli_distractor_trianglediamonds.svg	38	no	0	1	2000	6	5	antiphase_hc_osi.wav	2	6	6	noise_calib_stim_RIGHT.wav	2	36	blb_dichoticlistening_ta-ta.mp3	ta	ta	0	left
6.6.1	win	2023-06-27	08:50:50	09:09:40	1125225	63d1412396ee4fa133b52643	2	1	main_z	24	advance_on_keypress_ZEE	98	stimuli_distractor_diamondtriangles.svg	stimuli_distractor_trianglediamonds.svg	38	no	57	0	439	6	5	antiphase_hc_osi.wav	2	6	6	noise_calib_stim_RIGHT.wav	2	36	blb_dichoticlistening_ta-ta.mp3	ta	ta	0	left
6.6.1	win	2023-06-27	08:50:50	09:09:42	1127104	63d1412396ee4fa133b52643	2	1	main_z	24	main_z	99	stimuli_distractor_trianglediamonds.svg	stimuli_target_diamondrectangles.svg	27	yes	44	1	797	6	5	antiphase_hc_osi.wav	2	6	6	noise_calib_stim_RIGHT.wav	2	36	blb_dichoticlistening_ta-ta.mp3	ta	ta	0	left
6.6.1	win	2023-06-27	08:50:50	09:09:42	1127104	63d1412396ee4fa133b52643	2	1	main_z	24	advance_on_keypress_ZEE	100	stimuli_distractor_trianglediamonds.svg	stimuli_target_diamondrectangles.svg	27	yes	57	0	125	6	5	antiphase_hc_osi.wav	2	6	6	noise_calib_stim_RIGHT.wav	2	36	blb_dichoticlistening_ta-ta.mp3	ta	ta	0	left
6.6.1	win	2023-06-27	08:50:50	09:09:43	1128552	63d1412396ee4fa133b52643	2	1	main_z	24	main_z	101	stimuli_distractor_diamondtriangles.svg	stimuli_target_squarediamonds.svg	16	yes	44	1	695	6	5	antiphase_hc_osi.wav	2	6	6	noise_calib_stim_RIGHT.wav	2	36	blb_dichoticlistening_ta-ta.mp3	ta	ta	0	left
6.6.1	win	2023-06-27	08:50:50	09:09:43	1128552	63d1412396ee4fa133b52643	2	1	main_z	24	advance_on_keypress_ZEE	102	stimuli_distractor_diamondtriangles.svg	stimuli_target_squarediamonds.svg	16	yes	57	0	107	6	5	antiphase_hc_osi.wav	2	6	6	noise_calib_stim_RIGHT.wav	2	36	blb_dichoticlistening_ta-ta.mp3	ta	ta	0	left
6.6.1	win	2023-06-27	08:50:50	09:09:44	1129960	63d1412396ee4fa133b52643	2	1	main_z	24	main_z	103	stimuli_distractor_trianglediamonds.svg	stimuli_target_trianglesquares.svg	26	yes	44	1	668	6	5	antiphase_hc_osi.wav	2	6	6	noise_calib_stim_RIGHT.wav	2	36	blb_dichoticlistening_ta-ta.mp3	ta	ta	0	left
6.6.1	win	2023-06-27	08:50:50	09:09:44	1129960	63d1412396ee4fa133b52643	2	1	main_z	24	advance_on_keypress_ZEE	104	stimuli_distractor_trianglediamonds.svg	stimuli_target_trianglesquares.svg	26	yes	57	0	89	6	5	antiphase_hc_osi.wav	2	6	6	noise_calib_stim_RIGHT.wav	2	36	blb_dichoticlistening_ta-ta.mp3	ta	ta	0	left
6.6.1	win	2023-06-27	08:50:50	09:09:46	1131352	63d1412396ee4fa133b52643	2	1	main_z	24	main_z	105	stimuli_distractor_trianglediamonds.svg	stimuli_target_diamondsquares.svg	28	yes	44	1	661	6	5	antiphase_hc_osi.wav	2	6	6	noise_calib_stim_RIGHT.wav	2	36	blb_dichoticlistening_ta-ta.mp3	ta	ta	0	left
6.6.1	win	2023-06-27	08:50:50	09:09:46	1131352	63d1412396ee4fa133b52643	2	1	main_z	24	advance_on_keypress_ZEE	106	stimuli_distractor_trianglediamonds.svg	stimuli_target_diamondsquares.svg	28	yes	57	0	107	6	5	antiphase_hc_osi.wav	2	6	6	noise_calib_stim_RIGHT.wav	2	36	blb_dichoticlistening_ta-ta.mp3	ta	ta	0	left
6.6.1	win	2023-06-27	08:50:50	09:09:47	1132711	63d1412396ee4fa133b52643	2	1	main_z	24	main_z	107	stimuli_distractor_diamondtriangles.svg	stimuli_target_rectanglediamonds.svg	14	yes	44	1	620	6	5	antiphase_hc_osi.wav	2	6	6	noise_calib_stim_RIGHT.wav	2	36	blb_dichoticlistening_ta-ta.mp3	ta	ta	0	left
6.6.1	win	2023-06-27	08:50:50	09:09:47	1132711	63d1412396ee4fa133b52643	2	1	main_z	24	advance_on_keypress_ZEE	108	stimuli_distractor_diamondtriangles.svg	stimuli_target_rectanglediamonds.svg	14	yes	57	0	92	6	5	antiphase_hc_osi.wav	2	6	6	noise_calib_stim_RIGHT.wav	2	36	blb_dichoticlistening_ta-ta.mp3	ta	ta	0	left
6.6.1	win	2023-06-27	08:50:50	09:09:50	1135441	63d1412396ee4fa133b52643	2	1	main_z	24	main_z	109	stimuli_distractor_trianglediamonds.svg	stimuli_distractor_trianglediamonds.svg	34	no	0	1	2000	6	5	antiphase_hc_osi.wav	2	6	6	noise_calib_stim_RIGHT.wav	2	36	blb_dichoticlistening_ta-ta.mp3	ta	ta	0	left
6.6.1	win	2023-06-27	08:50:50	09:09:50	1135441	63d1412396ee4fa133b52643	2	1	main_z	24	advance_on_keypress_ZEE	110	stimuli_distractor_trianglediamonds.svg	stimuli_distractor_trianglediamonds.svg	34	no	57	0	223	6	5	antiphase_hc_osi.wav	2	6	6	noise_calib_stim_RIGHT.wav	2	36	blb_dichoticlistening_ta-ta.mp3	ta	ta	0	left
6.6.1	win	2023-06-27	08:50:50	09:09:53	1138307	63d1412396ee4fa133b52643	2	1	main_z	24	main_z	111	stimuli_distractor_trianglediamonds.svg	stimuli_distractor_diamondtriangles.svg	36	no	0	1	2000	6	5	antiphase_hc_osi.wav	2	6	6	noise_calib_stim_RIGHT.wav	2	36	blb_dichoticlistening_ta-ta.mp3	ta	ta	0	left
6.6.1	win	2023-06-27	08:50:50	09:09:53	1138307	63d1412396ee4fa133b52643	2	1	main_z	24	advance_on_keypress_ZEE	112	stimuli_distractor_trianglediamonds.svg	stimuli_distractor_diamondtriangles.svg	36	no	57	0	244	6	5	antiphase_hc_osi.wav	2	6	6	noise_calib_stim_RIGHT.wav	2	36	blb_dichoticlistening_ta-ta.mp3	ta	ta	0	left
6.6.1	win	2023-06-27	08:50:50	09:09:54	1139799	63d1412396ee4fa133b52643	2	1	main_z	24	main_z	113	stimuli_target_trianglesquares.svg	stimuli_distractor_trianglediamonds.svg	18	yes	44	1	609	6	5	antiphase_hc_osi.wav	2	6	6	noise_calib_stim_RIGHT.wav	2	36	blb_dichoticlistening_ta-ta.mp3	ta	ta	0	left
6.6.1	win	2023-06-27	08:50:50	09:09:54	1139799	63d1412396ee4fa133b52643	2	1	main_z	24	advance_on_keypress_ZEE	114	stimuli_target_trianglesquares.svg	stimuli_distractor_trianglediamonds.svg	18	yes	57	0	112	6	5	antiphase_hc_osi.wav	2	6	6	noise_calib_stim_RIGHT.wav	2	36	blb_dichoticlistening_ta-ta.mp3	ta	ta	0	left
6.6.1	win	2023-06-27	08:50:50	09:09:57	1142541	63d1412396ee4fa133b52643	2	1	main_z	24	main_z	115	stimuli_distractor_diamondtriangles.svg	stimuli_distractor_trianglediamonds.svg	37	no	0	1	2000	6	5	antiphase_hc_osi.wav	2	6	6	noise_calib_stim_RIGHT.wav	2	36	blb_dichoticlistening_ta-ta.mp3	ta	ta	0	left
6.6.1	win	2023-06-27	08:50:50	09:09:57	1142541	63d1412396ee4fa133b52643	2	1	main_z	24	advance_on_keypress_ZEE	116	stimuli_distractor_diamondtriangles.svg	stimuli_distractor_trianglediamonds.svg	37	no	57	0	1706	6	5	antiphase_hc_osi.wav	2	6	6	noise_calib_stim_RIGHT.wav	2	36	blb_dichoticlistening_ta-ta.mp3	ta	ta	0	left
6.6.1	win	2023-06-27	08:50:50	09:10:00	1145559	63d1412396ee4fa133b52643	2	1	main_z	24	main_z	117	stimuli_target_trianglerectangles.svg	stimuli_distractor_diamondtriangles.svg	21	yes	44	1	669	6	5	antiphase_hc_osi.wav	2	6	6	noise_calib_stim_RIGHT.wav	2	36	blb_dichoticlistening_ta-ta.mp3	ta	ta	0	left
6.6.1	win	2023-06-27	08:50:50	09:10:00	1145559	63d1412396ee4fa133b52643	2	1	main_z	24	advance_on_keypress_ZEE	118	stimuli_target_trianglerectangles.svg	stimuli_distractor_diamondtriangles.svg	21	yes	57	0	49	6	5	antiphase_hc_osi.wav	2	6	6	noise_calib_stim_RIGHT.wav	2	36	blb_dichoticlistening_ta-ta.mp3	ta	ta	0	left
6.6.1	win	2023-06-27	08:50:50	09:10:03	1148257	63d1412396ee4fa133b52643	2	1	main_z	24	main_z	119	stimuli_distractor_trianglediamonds.svg	stimuli_distractor_trianglediamonds.svg	33	no	0	1	2000	6	5	antiphase_hc_osi.wav	2	6	6	noise_calib_stim_RIGHT.wav	2	36	blb_dichoticlistening_ta-ta.mp3	ta	ta	0	left
6.6.1	win	2023-06-27	08:50:50	09:10:03	1148257	63d1412396ee4fa133b52643	2	1	main_z	24	advance_on_keypress_ZEE	120	stimuli_distractor_trianglediamonds.svg	stimuli_distractor_trianglediamonds.svg	33	no	57	0	607	6	5	antiphase_hc_osi.wav	2	6	6	noise_calib_stim_RIGHT.wav	2	36	blb_dichoticlistening_ta-ta.mp3	ta	ta	0	left
6.6.1	win	2023-06-27	08:50:50	09:10:05	1150183	63d1412396ee4fa133b52643	2	1	main_z	24	main_z	121	stimuli_target_squarediamonds.svg	stimuli_distractor_trianglediamonds.svg	4	yes	44	1	676	6	5	antiphase_hc_osi.wav	2	6	6	noise_calib_stim_RIGHT.wav	2	36	blb_dichoticlistening_ta-ta.mp3	ta	ta	0	left
6.6.1	win	2023-06-27	08:50:50	09:10:05	1150183	63d1412396ee4fa133b52643	2	1	main_z	24	advance_on_keypress_ZEE	122	stimuli_target_squarediamonds.svg	stimuli_distractor_trianglediamonds.svg	4	yes	57	0	73	6	5	antiphase_hc_osi.wav	2	6	6	noise_calib_stim_RIGHT.wav	2	36	blb_dichoticlistening_ta-ta.mp3	ta	ta	0	left
6.6.1	win	2023-06-27	08:50:50	09:10:06	1151527	63d1412396ee4fa133b52643	2	1	main_z	24	main_z	123	stimuli_distractor_trianglediamonds.svg	stimuli_target_rectanglediamonds.svg	10	yes	44	1	637	6	5	antiphase_hc_osi.wav	2	6	6	noise_calib_stim_RIGHT.wav	2	36	blb_dichoticlistening_ta-ta.mp3	ta	ta	0	left
6.6.1	win	2023-06-27	08:50:50	09:10:06	1151527	63d1412396ee4fa133b52643	2	1	main_z	24	advance_on_keypress_ZEE	124	stimuli_distractor_trianglediamonds.svg	stimuli_target_rectanglediamonds.svg	10	yes	57	0	83	6	5	antiphase_hc_osi.wav	2	6	6	noise_calib_stim_RIGHT.wav	2	36	blb_dichoticlistening_ta-ta.mp3	ta	ta	0	left
6.6.1	win	2023-06-27	08:50:50	09:10:07	1152984	63d1412396ee4fa133b52643	2	1	main_z	24	main_z	125	stimuli_distractor_trianglediamonds.svg	stimuli_target_squarediamonds.svg	12	yes	44	1	726	6	5	antiphase_hc_osi.wav	2	6	6	noise_calib_stim_RIGHT.wav	2	36	blb_dichoticlistening_ta-ta.mp3	ta	ta	0	left
6.6.1	win	2023-06-27	08:50:50	09:10:07	1152984	63d1412396ee4fa133b52643	2	1	main_z	24	advance_on_keypress_ZEE	126	stimuli_distractor_trianglediamonds.svg	stimuli_target_squarediamonds.svg	12	yes	57	0	97	6	5	antiphase_hc_osi.wav	2	6	6	noise_calib_stim_RIGHT.wav	2	36	blb_dichoticlistening_ta-ta.mp3	ta	ta	0	left
6.6.1	win	2023-06-27	08:50:50	09:10:09	1154543	63d1412396ee4fa133b52643	2	1	main_z	24	main_z	127	stimuli_distractor_diamondtriangles.svg	stimuli_target_trianglerectangles.svg	29	yes	44	1	820	6	5	antiphase_hc_osi.wav	2	6	6	noise_calib_stim_RIGHT.wav	2	36	blb_dichoticlistening_ta-ta.mp3	ta	ta	0	left
6.6.1	win	2023-06-27	08:50:50	09:10:09	1154543	63d1412396ee4fa133b52643	2	1	main_z	24	advance_on_keypress_ZEE	128	stimuli_distractor_diamondtriangles.svg	stimuli_target_trianglerectangles.svg	29	yes	57	0	98	6	5	antiphase_hc_osi.wav	2	6	6	noise_calib_stim_RIGHT.wav	2	36	blb_dichoticlistening_ta-ta.mp3	ta	ta	0	left
6.6.1	win	2023-06-27	08:50:50	09:10:10	1155943	63d1412396ee4fa133b52643	2	1	main_z	24	main_z	129	stimuli_target_squarediamonds.svg	stimuli_distractor_diamondtriangles.svg	8	yes	44	1	653	6	5	antiphase_hc_osi.wav	2	6	6	noise_calib_stim_RIGHT.wav	2	36	blb_dichoticlistening_ta-ta.mp3	ta	ta	0	left
6.6.1	win	2023-06-27	08:50:50	09:10:10	1155943	63d1412396ee4fa133b52643	2	1	main_z	24	advance_on_keypress_ZEE	130	stimuli_target_squarediamonds.svg	stimuli_distractor_diamondtriangles.svg	8	yes	57	0	82	6	5	antiphase_hc_osi.wav	2	6	6	noise_calib_stim_RIGHT.wav	2	36	blb_dichoticlistening_ta-ta.mp3	ta	ta	0	left
6.6.1	win	2023-06-27	08:50:50	09:10:12	1157336	63d1412396ee4fa133b52643	2	1	main_z	24	main_z	131	stimuli_distractor_diamondtriangles.svg	stimuli_target_diamondrectangles.svg	31	yes	44	1	662	6	5	antiphase_hc_osi.wav	2	6	6	noise_calib_stim_RIGHT.wav	2	36	blb_dichoticlistening_ta-ta.mp3	ta	ta	0	left
6.6.1	win	2023-06-27	08:50:50	09:10:12	1157336	63d1412396ee4fa133b52643	2	1	main_z	24	advance_on_keypress_ZEE	132	stimuli_distractor_diamondtriangles.svg	stimuli_target_diamondrectangles.svg	31	yes	57	0	123	6	5	antiphase_hc_osi.wav	2	6	6	noise_calib_stim_RIGHT.wav	2	36	blb_dichoticlistening_ta-ta.mp3	ta	ta	0	left
6.6.1	win	2023-06-27	08:50:50	09:10:13	1158847	63d1412396ee4fa133b52643	2	1	main_z	24	main_z	133	stimuli_target_diamondrectangles.svg	stimuli_distractor_trianglediamonds.svg	19	yes	44	1	757	6	5	antiphase_hc_osi.wav	2	6	6	noise_calib_stim_RIGHT.wav	2	36	blb_dichoticlistening_ta-ta.mp3	ta	ta	0	left
6.6.1	win	2023-06-27	08:50:50	09:10:13	1158847	63d1412396ee4fa133b52643	2	1	main_z	24	advance_on_keypress_ZEE	134	stimuli_target_diamondrectangles.svg	stimuli_distractor_trianglediamonds.svg	19	yes	57	0	86	6	5	antiphase_hc_osi.wav	2	6	6	noise_calib_stim_RIGHT.wav	2	36	blb_dichoticlistening_ta-ta.mp3	ta	ta	0	left
6.6.1	win	2023-06-27	08:50:50	09:10:16	1161519	63d1412396ee4fa133b52643	2	1	main_z	24	main_z	135	stimuli_distractor_trianglediamonds.svg	stimuli_target_trianglerectangles.svg	25	yes	44	1	1946	6	5	antiphase_hc_osi.wav	2	6	6	noise_calib_stim_RIGHT.wav	2	36	blb_dichoticlistening_ta-ta.mp3	ta	ta	0	left
6.6.1	win	2023-06-27	08:50:50	09:10:16	1161519	63d1412396ee4fa133b52643	2	1	main_z	24	advance_on_keypress_ZEE	136	stimuli_distractor_trianglediamonds.svg	stimuli_target_trianglerectangles.svg	25	yes	57	0	484	6	5	antiphase_hc_osi.wav	2	6	6	noise_calib_stim_RIGHT.wav	2	36	blb_dichoticlistening_ta-ta.mp3	ta	ta	0	left
6.6.1	win	2023-06-27	08:50:50	09:10:18	1163183	63d1412396ee4fa133b52643	2	1	main_z	24	main_z	137	stimuli_distractor_diamondtriangles.svg	stimuli_target_diamondsquares.svg	32	yes	44	1	543	6	5	antiphase_hc_osi.wav	2	6	6	noise_calib_stim_RIGHT.wav	2	36	blb_dichoticlistening_ta-ta.mp3	ta	ta	0	left
6.6.1	win	2023-06-27	08:50:50	09:10:18	1163183	63d1412396ee4fa133b52643	2	1	main_z	24	advance_on_keypress_ZEE	138	stimuli_distractor_diamondtriangles.svg	stimuli_target_diamondsquares.svg	32	yes	57	0	89	6	5	antiphase_hc_osi.wav	2	6	6	noise_calib_stim_RIGHT.wav	2	36	blb_dichoticlistening_ta-ta.mp3	ta	ta	0	left
6.6.1	win	2023-06-27	08:50:50	09:10:20	1165907	63d1412396ee4fa133b52643	2	1	main_z	24	main_z	139	stimuli_distractor_trianglediamonds.svg	stimuli_distractor_diamondtriangles.svg	35	no	0	1	2000	6	5	antiphase_hc_osi.wav	2	6	6	noise_calib_stim_RIGHT.wav	2	36	blb_dichoticlistening_ta-ta.mp3	ta	ta	0	left
6.6.1	win	2023-06-27	08:50:50	09:10:20	1165907	63d1412396ee4fa133b52643	2	1	main_z	24	advance_on_keypress_ZEE	140	stimuli_distractor_trianglediamonds.svg	stimuli_distractor_diamondtriangles.svg	35	no	57	0	412	6	5	antiphase_hc_osi.wav	2	6	6	noise_calib_stim_RIGHT.wav	2	36	blb_dichoticlistening_ta-ta.mp3	ta	ta	0	left
6.6.1	win	2023-06-27	08:50:50	09:10:22	1167671	63d1412396ee4fa133b52643	2	1	main_z	24	main_z	141	stimuli_distractor_trianglediamonds.svg	stimuli_target_squaretriangles.svg	11	yes	44	1	715	6	5	antiphase_hc_osi.wav	2	6	6	noise_calib_stim_RIGHT.wav	2	36	blb_dichoticlistening_ta-ta.mp3	ta	ta	0	left
6.6.1	win	2023-06-27	08:50:50	09:10:22	1167671	63d1412396ee4fa133b52643	2	1	main_z	24	advance_on_keypress_ZEE	142	stimuli_distractor_trianglediamonds.svg	stimuli_target_squaretriangles.svg	11	yes	57	0	37	6	5	antiphase_hc_osi.wav	2	6	6	noise_calib_stim_RIGHT.wav	2	36	blb_dichoticlistening_ta-ta.mp3	ta	ta	0	left
6.6.1	win	2023-06-27	08:50:50	09:10:23	1169087	63d1412396ee4fa133b52643	2	1	main_z	24	main_z	143	stimuli_target_diamondsquares.svg	stimuli_distractor_diamondtriangles.svg	24	yes	44	1	731	6	5	antiphase_hc_osi.wav	2	6	6	noise_calib_stim_RIGHT.wav	2	36	blb_dichoticlistening_ta-ta.mp3	ta	ta	0	left
6.6.1	win	2023-06-27	08:50:50	09:10:23	1169087	63d1412396ee4fa133b52643	2	1	main_z	24	advance_on_keypress_ZEE	144	stimuli_target_diamondsquares.svg	stimuli_distractor_diamondtriangles.svg	24	yes	57	0	93	6	5	antiphase_hc_osi.wav	2	6	6	noise_calib_stim_RIGHT.wav	2	36	blb_dichoticlistening_ta-ta.mp3	ta	ta	0	left
6.6.1	win	2023-06-27	08:50:50	09:10:25	1170479	63d1412396ee4fa133b52643	2	1	main_z	24	main_z	145	stimuli_distractor_diamondtriangles.svg	stimuli_target_trianglesquares.svg	30	yes	44	1	656	6	5	antiphase_hc_osi.wav	2	6	6	noise_calib_stim_RIGHT.wav	2	36	blb_dichoticlistening_ta-ta.mp3	ta	ta	0	left
6.6.1	win	2023-06-27	08:50:50	09:10:25	1170479	63d1412396ee4fa133b52643	2	1	main_z	24	advance_on_keypress_ZEE	146	stimuli_distractor_diamondtriangles.svg	stimuli_target_trianglesquares.svg	30	yes	57	0	101	6	5	antiphase_hc_osi.wav	2	6	6	noise_calib_stim_RIGHT.wav	2	36	blb_dichoticlistening_ta-ta.mp3	ta	ta	0	left
6.6.1	win	2023-06-27	08:50:50	09:10:26	1171855	63d1412396ee4fa133b52643	2	1	main_z	24	main_z	147	stimuli_target_squaretriangles.svg	stimuli_distractor_diamondtriangles.svg	7	yes	44	1	632	6	5	antiphase_hc_osi.wav	2	6	6	noise_calib_stim_RIGHT.wav	2	36	blb_dichoticlistening_ta-ta.mp3	ta	ta	0	left
6.6.1	win	2023-06-27	08:50:50	09:10:26	1171855	63d1412396ee4fa133b52643	2	1	main_z	24	advance_on_keypress_ZEE	148	stimuli_target_squaretriangles.svg	stimuli_distractor_diamondtriangles.svg	7	yes	57	0	86	6	5	antiphase_hc_osi.wav	2	6	6	noise_calib_stim_RIGHT.wav	2	36	blb_dichoticlistening_ta-ta.mp3	ta	ta	0	left
6.6.1	win	2023-06-27	08:50:50	09:10:28	1173223	63d1412396ee4fa133b52643	2	1	main_z	24	main_z	149	stimuli_target_squaretriangles.svg	stimuli_distractor_trianglediamonds.svg	3	yes	44	1	634	6	5	antiphase_hc_osi.wav	2	6	6	noise_calib_stim_RIGHT.wav	2	36	blb_dichoticlistening_ta-ta.mp3	ta	ta	0	left
6.6.1	win	2023-06-27	08:50:50	09:10:28	1173223	63d1412396ee4fa133b52643	2	1	main_z	24	advance_on_keypress_ZEE	150	stimuli_target_squaretriangles.svg	stimuli_distractor_trianglediamonds.svg	3	yes	57	0	72	6	5	antiphase_hc_osi.wav	2	6	6	noise_calib_stim_RIGHT.wav	2	36	blb_dichoticlistening_ta-ta.mp3	ta	ta	0	left
6.6.1	win	2023-06-27	08:50:50	09:10:29	1174647	63d1412396ee4fa133b52643	2	1	main_z	24	main_z	151	stimuli_target_trianglerectangles.svg	stimuli_distractor_trianglediamonds.svg	17	yes	44	1	708	6	5	antiphase_hc_osi.wav	2	6	6	noise_calib_stim_RIGHT.wav	2	36	blb_dichoticlistening_ta-ta.mp3	ta	ta	0	left
6.6.1	win	2023-06-27	08:50:50	09:10:29	1174647	63d1412396ee4fa133b52643	2	1	main_z	24	advance_on_keypress_ZEE	152	stimuli_target_trianglerectangles.svg	stimuli_distractor_trianglediamonds.svg	17	yes	57	0	63	6	5	antiphase_hc_osi.wav	2	6	6	noise_calib_stim_RIGHT.wav	2	36	blb_dichoticlistening_ta-ta.mp3	ta	ta	0	left
6.6.1	win	2023-06-27	08:50:50	09:10:30	1176040	63d1412396ee4fa133b52643	2	1	main_z	24	main_z	153	stimuli_target_rectangletriangles.svg	stimuli_distractor_trianglediamonds.svg	1	yes	44	1	700	6	5	antiphase_hc_osi.wav	2	6	6	noise_calib_stim_RIGHT.wav	2	36	blb_dichoticlistening_ta-ta.mp3	ta	ta	0	left
6.6.1	win	2023-06-27	08:50:50	09:10:30	1176040	63d1412396ee4fa133b52643	2	1	main_z	24	advance_on_keypress_ZEE	154	stimuli_target_rectangletriangles.svg	stimuli_distractor_trianglediamonds.svg	1	yes	57	0	95	6	5	antiphase_hc_osi.wav	2	6	6	noise_calib_stim_RIGHT.wav	2	36	blb_dichoticlistening_ta-ta.mp3	ta	ta	0	left
6.6.1	win	2023-06-27	08:50:50	09:10:33	1178773	63d1412396ee4fa133b52643	2	1	main_z	24	main_z	155	stimuli_distractor_diamondtriangles.svg	stimuli_distractor_diamondtriangles.svg	40	no	0	1	2000	6	5	antiphase_hc_osi.wav	2	6	6	noise_calib_stim_RIGHT.wav	2	36	blb_dichoticlistening_ta-ta.mp3	ta	ta	0	left
6.6.1	win	2023-06-27	08:50:50	09:10:33	1178773	63d1412396ee4fa133b52643	2	1	main_z	24	advance_on_keypress_ZEE	156	stimuli_distractor_diamondtriangles.svg	stimuli_distractor_diamondtriangles.svg	40	no	57	0	362	6	5	antiphase_hc_osi.wav	2	6	6	noise_calib_stim_RIGHT.wav	2	36	blb_dichoticlistening_ta-ta.mp3	ta	ta	0	left
6.6.1	win	2023-06-27	08:50:50	09:10:35	1180471	63d1412396ee4fa133b52643	2	1	main_z	24	main_z	157	stimuli_distractor_diamondtriangles.svg	stimuli_target_rectangletriangles.svg	13	yes	44	1	698	6	5	antiphase_hc_osi.wav	2	6	6	noise_calib_stim_RIGHT.wav	2	36	blb_dichoticlistening_ta-ta.mp3	ta	ta	0	left
6.6.1	win	2023-06-27	08:50:50	09:10:35	1180471	63d1412396ee4fa133b52643	2	1	main_z	24	advance_on_keypress_ZEE	158	stimuli_distractor_diamondtriangles.svg	stimuli_target_rectangletriangles.svg	13	yes	57	0	62	6	5	antiphase_hc_osi.wav	2	6	6	noise_calib_stim_RIGHT.wav	2	36	blb_dichoticlistening_ta-ta.mp3	ta	ta	0	left
6.6.1	win	2023-06-27	08:50:50	09:10:36	1181783	63d1412396ee4fa133b52643	2	1	main_z	24	main_z	159	stimuli_target_rectangletriangles.svg	stimuli_distractor_diamondtriangles.svg	5	yes	44	1	610	6	5	antiphase_hc_osi.wav	2	6	6	noise_calib_stim_RIGHT.wav	2	36	blb_dichoticlistening_ta-ta.mp3	ta	ta	0	left
6.6.1	win	2023-06-27	08:50:50	09:10:36	1181783	63d1412396ee4fa133b52643	2	1	main_z	24	advance_on_keypress_ZEE	160	stimuli_target_rectangletriangles.svg	stimuli_distractor_diamondtriangles.svg	5	yes	57	0	66	6	5	antiphase_hc_osi.wav	2	6	6	noise_calib_stim_RIGHT.wav	2	36	blb_dichoticlistening_ta-ta.mp3	ta	ta	0	left
6.6.1	win	2023-06-27	08:50:50	09:12:17	1282738	63d1412396ee4fa133b52643	2	1	practice_slash	26	practice_slash	1	stimuli_distractor_trianglediamonds.svg	stimuli_target_diamondrectangles.svg	12	yes	0	0	2000	6	5	antiphase_hc_osi.wav	2	6	6	noise_calib_stim_RIGHT.wav	2	36	blb_dichoticlistening_ta-ta.mp3	ta	ta	0	left
6.6.1	win	2023-06-27	08:50:50	09:12:17	1282738	63d1412396ee4fa133b52643	2	1	practice_slash	26	advance_on_keypress_SLASH	2	stimuli_distractor_trianglediamonds.svg	stimuli_target_diamondrectangles.svg	12	yes	57	0	765	6	5	antiphase_hc_osi.wav	2	6	6	noise_calib_stim_RIGHT.wav	2	36	blb_dichoticlistening_ta-ta.mp3	ta	ta	0	left
6.6.1	win	2023-06-27	08:50:50	09:12:20	1285783	63d1412396ee4fa133b52643	2	1	practice_slash	26	practice_slash	3	stimuli_target_squarediamonds.svg	stimuli_distractor_diamondtriangles.svg	2	yes	53	1	629	6	5	antiphase_hc_osi.wav	2	6	6	noise_calib_stim_RIGHT.wav	2	36	blb_dichoticlistening_ta-ta.mp3	ta	ta	0	left
6.6.1	win	2023-06-27	08:50:50	09:12:20	1285783	63d1412396ee4fa133b52643	2	1	practice_slash	26	advance_on_keypress_SLASH	4	stimuli_target_squarediamonds.svg	stimuli_distractor_diamondtriangles.svg	2	yes	57	0	396	6	5	antiphase_hc_osi.wav	2	6	6	noise_calib_stim_RIGHT.wav	2	36	blb_dichoticlistening_ta-ta.mp3	ta	ta	0	left
6.6.1	win	2023-06-27	08:50:50	09:12:23	1288463	63d1412396ee4fa133b52643	2	1	practice_slash	26	practice_slash	5	stimuli_distractor_trianglediamonds.svg	stimuli_target_squarediamonds.svg	11	yes	53	1	659	6	5	antiphase_hc_osi.wav	2	6	6	noise_calib_stim_RIGHT.wav	2	36	blb_dichoticlistening_ta-ta.mp3	ta	ta	0	left
6.6.1	win	2023-06-27	08:50:50	09:12:23	1288463	63d1412396ee4fa133b52643	2	1	practice_slash	26	advance_on_keypress_SLASH	6	stimuli_distractor_trianglediamonds.svg	stimuli_target_squarediamonds.svg	11	yes	57	0	361	6	5	antiphase_hc_osi.wav	2	6	6	noise_calib_stim_RIGHT.wav	2	36	blb_dichoticlistening_ta-ta.mp3	ta	ta	0	left
6.6.1	win	2023-06-27	08:50:50	09:12:27	1292454	63d1412396ee4fa133b52643	2	1	practice_slash	26	practice_slash	7	stimuli_distractor_diamondtriangles.svg	stimuli_distractor_trianglediamonds.svg	14	no	0	1	2000	6	5	antiphase_hc_osi.wav	2	6	6	noise_calib_stim_RIGHT.wav	2	36	blb_dichoticlistening_ta-ta.mp3	ta	ta	0	left
6.6.1	win	2023-06-27	08:50:50	09:12:27	1292454	63d1412396ee4fa133b52643	2	1	practice_slash	26	advance_on_keypress_SLASH	8	stimuli_distractor_diamondtriangles.svg	stimuli_distractor_trianglediamonds.svg	14	no	57	0	537	6	5	antiphase_hc_osi.wav	2	6	6	noise_calib_stim_RIGHT.wav	2	36	blb_dichoticlistening_ta-ta.mp3	ta	ta	0	left
6.6.1	win	2023-06-27	08:50:50	09:12:30	1295383	63d1412396ee4fa133b52643	2	1	practice_slash	26	practice_slash	9	stimuli_distractor_diamondtriangles.svg	stimuli_target_rectangletriangles.svg	7	yes	53	1	746	6	5	antiphase_hc_osi.wav	2	6	6	noise_calib_stim_RIGHT.wav	2	36	blb_dichoticlistening_ta-ta.mp3	ta	ta	0	left
6.6.1	win	2023-06-27	08:50:50	09:12:30	1295383	63d1412396ee4fa133b52643	2	1	practice_slash	26	advance_on_keypress_SLASH	10	stimuli_distractor_diamondtriangles.svg	stimuli_target_rectangletriangles.svg	7	yes	57	0	339	6	5	antiphase_hc_osi.wav	2	6	6	noise_calib_stim_RIGHT.wav	2	36	blb_dichoticlistening_ta-ta.mp3	ta	ta	0	left
6.6.1	win	2023-06-27	08:50:50	09:12:32	1298087	63d1412396ee4fa133b52643	2	1	practice_slash	26	practice_slash	11	stimuli_target_rectanglediamonds.svg	stimuli_distractor_diamondtriangles.svg	1	yes	53	1	717	6	5	antiphase_hc_osi.wav	2	6	6	noise_calib_stim_RIGHT.wav	2	36	blb_dichoticlistening_ta-ta.mp3	ta	ta	0	left
6.6.1	win	2023-06-27	08:50:50	09:12:32	1298087	63d1412396ee4fa133b52643	2	1	practice_slash	26	advance_on_keypress_SLASH	12	stimuli_target_rectanglediamonds.svg	stimuli_distractor_diamondtriangles.svg	1	yes	57	0	351	6	5	antiphase_hc_osi.wav	2	6	6	noise_calib_stim_RIGHT.wav	2	36	blb_dichoticlistening_ta-ta.mp3	ta	ta	0	left
6.6.1	win	2023-06-27	08:50:50	09:12:35	1300863	63d1412396ee4fa133b52643	2	1	practice_slash	26	practice_slash	13	stimuli_target_diamondsquares.svg	stimuli_distractor_diamondtriangles.svg	3	yes	53	1	776	6	5	antiphase_hc_osi.wav	2	6	6	noise_calib_stim_RIGHT.wav	2	36	blb_dichoticlistening_ta-ta.mp3	ta	ta	0	left
6.6.1	win	2023-06-27	08:50:50	09:12:35	1300863	63d1412396ee4fa133b52643	2	1	practice_slash	26	advance_on_keypress_SLASH	14	stimuli_target_diamondsquares.svg	stimuli_distractor_diamondtriangles.svg	3	yes	57	0	393	6	5	antiphase_hc_osi.wav	2	6	6	noise_calib_stim_RIGHT.wav	2	36	blb_dichoticlistening_ta-ta.mp3	ta	ta	0	left
6.6.1	win	2023-06-27	08:50:50	09:12:38	1303631	63d1412396ee4fa133b52643	2	1	practice_slash	26	practice_slash	15	stimuli_distractor_diamondtriangles.svg	stimuli_target_diamondrectangles.svg	8	yes	53	1	744	6	5	antiphase_hc_osi.wav	2	6	6	noise_calib_stim_RIGHT.wav	2	36	blb_dichoticlistening_ta-ta.mp3	ta	ta	0	left
6.6.1	win	2023-06-27	08:50:50	09:12:38	1303631	63d1412396ee4fa133b52643	2	1	practice_slash	26	advance_on_keypress_SLASH	16	stimuli_distractor_diamondtriangles.svg	stimuli_target_diamondrectangles.svg	8	yes	57	0	330	6	5	antiphase_hc_osi.wav	2	6	6	noise_calib_stim_RIGHT.wav	2	36	blb_dichoticlistening_ta-ta.mp3	ta	ta	0	left
6.6.1	win	2023-06-27	08:50:50	09:12:41	1306392	63d1412396ee4fa133b52643	2	1	practice_slash	26	practice_slash	17	stimuli_target_squarediamonds.svg	stimuli_distractor_trianglediamonds.svg	5	yes	53	1	788	6	5	antiphase_hc_osi.wav	2	6	6	noise_calib_stim_RIGHT.wav	2	36	blb_dichoticlistening_ta-ta.mp3	ta	ta	0	left
6.6.1	win	2023-06-27	08:50:50	09:12:41	1306392	63d1412396ee4fa133b52643	2	1	practice_slash	26	advance_on_keypress_SLASH	18	stimuli_target_squarediamonds.svg	stimuli_distractor_trianglediamonds.svg	5	yes	57	0	404	6	5	antiphase_hc_osi.wav	2	6	6	noise_calib_stim_RIGHT.wav	2	36	blb_dichoticlistening_ta-ta.mp3	ta	ta	0	left
