build	computer.platform	date	time	timestamp	time_elapsed_ms	subject	group	session	blockcode	blocknum	trialcode	trialnum	stimulus_left	stimulus_right	stim_index	target_present	response	correct	latency	headphonecheck_countTestTrials	headphonecheck_index	headphonecheck_testSound	headphonecheck_correctResponse	stereocheck_countTestTrials	stereocheck_index	stereocheck_testSound	stereocheck_correctResponse	DL_index	DL_soundfile	DL_leftSound	DL_rightSound	DL_dualSound	DL_choice
6.6.1	mac	2023-06-27	15:35:50	15:38:02	128385	632881a28fcc3aae4da242e2	3	1	practice_slash	5	practice_slash	1	stimuli_target_rectanglediamonds.svg	stimuli_distractor_trianglediamonds.svg	4	yes	53	1	1391	0	0			0	0			1				0	
6.6.1	mac	2023-06-27	15:35:50	15:38:02	128385	632881a28fcc3aae4da242e2	3	1	practice_slash	5	advance_on_keypress_SLASH	2	stimuli_target_rectanglediamonds.svg	stimuli_distractor_trianglediamonds.svg	4	yes	57	0	1204	0	0			0	0			1				0	
6.6.1	mac	2023-06-27	15:35:50	15:38:07	133243	632881a28fcc3aae4da242e2	3	1	practice_slash	5	practice_slash	3	stimuli_distractor_trianglediamonds.svg	stimuli_distractor_diamondtriangles.svg	16	no	0	1	2000	0	0			0	0			1				0	
6.6.1	mac	2023-06-27	15:35:50	15:38:07	133243	632881a28fcc3aae4da242e2	3	1	practice_slash	5	advance_on_keypress_SLASH	4	stimuli_distractor_trianglediamonds.svg	stimuli_distractor_diamondtriangles.svg	16	no	57	0	607	0	0			0	0			1				0	
6.6.1	mac	2023-06-27	15:35:50	15:38:11	137493	632881a28fcc3aae4da242e2	3	1	practice_slash	5	practice_slash	5	stimuli_distractor_trianglediamonds.svg	stimuli_distractor_trianglediamonds.svg	15	no	0	1	2000	0	0			0	0			1				0	
6.6.1	mac	2023-06-27	15:35:50	15:38:11	137493	632881a28fcc3aae4da242e2	3	1	practice_slash	5	advance_on_keypress_SLASH	6	stimuli_distractor_trianglediamonds.svg	stimuli_distractor_trianglediamonds.svg	15	no	57	0	589	0	0			0	0			1				0	
6.6.1	mac	2023-06-27	15:35:50	15:38:14	140210	632881a28fcc3aae4da242e2	3	1	practice_slash	5	practice_slash	7	stimuli_distractor_trianglediamonds.svg	stimuli_target_rectanglediamonds.svg	10	yes	53	1	483	0	0			0	0			1				0	
6.6.1	mac	2023-06-27	15:35:50	15:38:14	140210	632881a28fcc3aae4da242e2	3	1	practice_slash	5	advance_on_keypress_SLASH	8	stimuli_distractor_trianglediamonds.svg	stimuli_target_rectanglediamonds.svg	10	yes	57	0	1544	0	0			0	0			1				0	
6.6.1	mac	2023-06-27	15:35:50	15:38:18	144152	632881a28fcc3aae4da242e2	3	1	practice_slash	5	practice_slash	9	stimuli_target_squarediamonds.svg	stimuli_distractor_diamondtriangles.svg	2	yes	53	1	742	0	0			0	0			1				0	
6.6.1	mac	2023-06-27	15:35:50	15:38:18	144152	632881a28fcc3aae4da242e2	3	1	practice_slash	5	advance_on_keypress_SLASH	10	stimuli_target_squarediamonds.svg	stimuli_distractor_diamondtriangles.svg	2	yes	57	0	423	0	0			0	0			1				0	
6.6.1	mac	2023-06-27	15:35:50	15:38:21	147085	632881a28fcc3aae4da242e2	3	1	practice_slash	5	practice_slash	11	stimuli_distractor_diamondtriangles.svg	stimuli_target_trianglerectangles.svg	9	yes	53	1	858	0	0			0	0			1				0	
6.6.1	mac	2023-06-27	15:35:50	15:38:21	147085	632881a28fcc3aae4da242e2	3	1	practice_slash	5	advance_on_keypress_SLASH	12	stimuli_distractor_diamondtriangles.svg	stimuli_target_trianglerectangles.svg	9	yes	57	0	559	0	0			0	0			1				0	
6.6.1	mac	2023-06-27	15:35:50	15:38:25	151293	632881a28fcc3aae4da242e2	3	1	practice_slash	5	practice_slash	13	stimuli_distractor_diamondtriangles.svg	stimuli_distractor_trianglediamonds.svg	14	no	0	1	2000	0	0			0	0			1				0	
6.6.1	mac	2023-06-27	15:35:50	15:38:25	151293	632881a28fcc3aae4da242e2	3	1	practice_slash	5	advance_on_keypress_SLASH	14	stimuli_distractor_diamondtriangles.svg	stimuli_distractor_trianglediamonds.svg	14	no	57	0	555	0	0			0	0			1				0	
6.6.1	mac	2023-06-27	15:35:50	15:38:28	154354	632881a28fcc3aae4da242e2	3	1	practice_slash	5	practice_slash	15	stimuli_distractor_diamondtriangles.svg	stimuli_target_rectangletriangles.svg	7	yes	53	1	861	0	0			0	0			1				0	
6.6.1	mac	2023-06-27	15:35:50	15:38:28	154354	632881a28fcc3aae4da242e2	3	1	practice_slash	5	advance_on_keypress_SLASH	16	stimuli_distractor_diamondtriangles.svg	stimuli_target_rectangletriangles.svg	7	yes	57	0	505	0	0			0	0			1				0	
6.6.1	mac	2023-06-27	15:35:50	15:38:31	157459	632881a28fcc3aae4da242e2	3	1	practice_slash	5	practice_slash	17	stimuli_distractor_trianglediamonds.svg	stimuli_target_diamondrectangles.svg	12	yes	53	1	949	0	0			0	0			1				0	
6.6.1	mac	2023-06-27	15:35:50	15:38:31	157459	632881a28fcc3aae4da242e2	3	1	practice_slash	5	advance_on_keypress_SLASH	18	stimuli_distractor_trianglediamonds.svg	stimuli_target_diamondrectangles.svg	12	yes	57	0	462	0	0			0	0			1				0	
6.6.1	mac	2023-06-27	15:35:50	15:38:34	160400	632881a28fcc3aae4da242e2	3	1	practice_slash	5	practice_slash	19	stimuli_target_diamondsquares.svg	stimuli_distractor_diamondtriangles.svg	3	yes	53	1	840	0	0			0	0			1				0	
6.6.1	mac	2023-06-27	15:35:50	15:38:34	160400	632881a28fcc3aae4da242e2	3	1	practice_slash	5	advance_on_keypress_SLASH	20	stimuli_target_diamondsquares.svg	stimuli_distractor_diamondtriangles.svg	3	yes	57	0	1306	0	0			0	0			1				0	
6.6.1	mac	2023-06-27	15:35:50	15:38:39	165360	632881a28fcc3aae4da242e2	3	1	practice_slash	5	practice_slash	21	stimuli_distractor_diamondtriangles.svg	stimuli_distractor_diamondtriangles.svg	13	no	0	1	2000	0	0			0	0			1				0	
6.6.1	mac	2023-06-27	15:35:50	15:38:39	165360	632881a28fcc3aae4da242e2	3	1	practice_slash	5	advance_on_keypress_SLASH	22	stimuli_distractor_diamondtriangles.svg	stimuli_distractor_diamondtriangles.svg	13	no	57	0	453	0	0			0	0			1				0	
6.6.1	mac	2023-06-27	15:35:50	15:38:42	168265	632881a28fcc3aae4da242e2	3	1	practice_slash	5	practice_slash	23	stimuli_distractor_diamondtriangles.svg	stimuli_target_diamondrectangles.svg	8	yes	53	1	821	0	0			0	0			1				0	
6.6.1	mac	2023-06-27	15:35:50	15:38:42	168265	632881a28fcc3aae4da242e2	3	1	practice_slash	5	advance_on_keypress_SLASH	24	stimuli_distractor_diamondtriangles.svg	stimuli_target_diamondrectangles.svg	8	yes	57	0	627	0	0			0	0			1				0	
6.6.1	mac	2023-06-27	15:35:50	15:38:45	171268	632881a28fcc3aae4da242e2	3	1	practice_slash	5	practice_slash	25	stimuli_target_diamondsquares.svg	stimuli_distractor_trianglediamonds.svg	6	yes	53	1	725	0	0			0	0			1				0	
6.6.1	mac	2023-06-27	15:35:50	15:38:45	171268	632881a28fcc3aae4da242e2	3	1	practice_slash	5	advance_on_keypress_SLASH	26	stimuli_target_diamondsquares.svg	stimuli_distractor_trianglediamonds.svg	6	yes	57	0	410	0	0			0	0			1				0	
6.6.1	mac	2023-06-27	15:35:50	15:38:48	174019	632881a28fcc3aae4da242e2	3	1	practice_slash	5	practice_slash	27	stimuli_target_rectanglediamonds.svg	stimuli_distractor_diamondtriangles.svg	1	yes	53	1	693	0	0			0	0			1				0	
6.6.1	mac	2023-06-27	15:35:50	15:38:48	174019	632881a28fcc3aae4da242e2	3	1	practice_slash	5	advance_on_keypress_SLASH	28	stimuli_target_rectanglediamonds.svg	stimuli_distractor_diamondtriangles.svg	1	yes	57	0	487	0	0			0	0			1				0	
6.6.1	mac	2023-06-27	15:35:50	15:38:51	176931	632881a28fcc3aae4da242e2	3	1	practice_slash	5	practice_slash	29	stimuli_target_squarediamonds.svg	stimuli_distractor_trianglediamonds.svg	5	yes	53	1	771	0	0			0	0			1				0	
6.6.1	mac	2023-06-27	15:35:50	15:38:51	176931	632881a28fcc3aae4da242e2	3	1	practice_slash	5	advance_on_keypress_SLASH	30	stimuli_target_squarediamonds.svg	stimuli_distractor_trianglediamonds.svg	5	yes	57	0	338	0	0			0	0			1				0	
6.6.1	mac	2023-06-27	15:35:50	15:38:54	179884	632881a28fcc3aae4da242e2	3	1	practice_slash	5	practice_slash	31	stimuli_distractor_trianglediamonds.svg	stimuli_target_squarediamonds.svg	11	yes	53	1	957	0	0			0	0			1				0	
6.6.1	mac	2023-06-27	15:35:50	15:38:54	179884	632881a28fcc3aae4da242e2	3	1	practice_slash	5	advance_on_keypress_SLASH	32	stimuli_distractor_trianglediamonds.svg	stimuli_target_squarediamonds.svg	11	yes	57	0	519	0	0			0	0			1				0	
6.6.1	mac	2023-06-27	15:35:50	15:39:06	192774	632881a28fcc3aae4da242e2	3	1	main_slash	7	main_slash	1	stimuli_distractor_trianglediamonds.svg	stimuli_distractor_trianglediamonds.svg	34	no	0	1	2000	0	0			0	0			1				0	
6.6.1	mac	2023-06-27	15:35:50	15:39:06	192774	632881a28fcc3aae4da242e2	3	1	main_slash	7	advance_on_keypress_SLASH	2	stimuli_distractor_trianglediamonds.svg	stimuli_distractor_trianglediamonds.svg	34	no	57	0	399	0	0			0	0			1				0	
6.6.1	mac	2023-06-27	15:35:50	15:39:09	195806	632881a28fcc3aae4da242e2	3	1	main_slash	7	main_slash	3	stimuli_distractor_diamondtriangles.svg	stimuli_distractor_diamondtriangles.svg	39	no	0	1	2000	0	0			0	0			1				0	
6.6.1	mac	2023-06-27	15:35:50	15:39:09	195806	632881a28fcc3aae4da242e2	3	1	main_slash	7	advance_on_keypress_SLASH	4	stimuli_distractor_diamondtriangles.svg	stimuli_distractor_diamondtriangles.svg	39	no	57	0	427	0	0			0	0			1				0	
6.6.1	mac	2023-06-27	15:35:50	15:39:11	197618	632881a28fcc3aae4da242e2	3	1	main_slash	7	main_slash	5	stimuli_distractor_trianglediamonds.svg	stimuli_target_diamondsquares.svg	28	yes	53	1	727	0	0			0	0			1				0	
6.6.1	mac	2023-06-27	15:35:50	15:39:11	197618	632881a28fcc3aae4da242e2	3	1	main_slash	7	advance_on_keypress_SLASH	6	stimuli_distractor_trianglediamonds.svg	stimuli_target_diamondsquares.svg	28	yes	57	0	938	0	0			0	0			1				0	
6.6.1	mac	2023-06-27	15:35:50	15:39:15	201207	632881a28fcc3aae4da242e2	3	1	main_slash	7	main_slash	7	stimuli_distractor_diamondtriangles.svg	stimuli_distractor_trianglediamonds.svg	38	no	0	1	2000	0	0			0	0			1				0	
6.6.1	mac	2023-06-27	15:35:50	15:39:15	201207	632881a28fcc3aae4da242e2	3	1	main_slash	7	advance_on_keypress_SLASH	8	stimuli_distractor_diamondtriangles.svg	stimuli_distractor_trianglediamonds.svg	38	no	57	0	456	0	0			0	0			1				0	
6.6.1	mac	2023-06-27	15:35:50	15:39:17	202979	632881a28fcc3aae4da242e2	3	1	main_slash	7	main_slash	9	stimuli_target_diamondsquares.svg	stimuli_distractor_diamondtriangles.svg	24	yes	53	1	670	0	0			0	0			1				0	
6.6.1	mac	2023-06-27	15:35:50	15:39:17	202979	632881a28fcc3aae4da242e2	3	1	main_slash	7	advance_on_keypress_SLASH	10	stimuli_target_diamondsquares.svg	stimuli_distractor_diamondtriangles.svg	24	yes	57	0	613	0	0			0	0			1				0	
6.6.1	mac	2023-06-27	15:35:50	15:39:19	204856	632881a28fcc3aae4da242e2	3	1	main_slash	7	main_slash	11	stimuli_target_trianglerectangles.svg	stimuli_distractor_diamondtriangles.svg	21	yes	53	1	631	0	0			0	0			1				0	
6.6.1	mac	2023-06-27	15:35:50	15:39:19	204856	632881a28fcc3aae4da242e2	3	1	main_slash	7	advance_on_keypress_SLASH	12	stimuli_target_trianglerectangles.svg	stimuli_distractor_diamondtriangles.svg	21	yes	57	0	453	0	0			0	0			1				0	
6.6.1	mac	2023-06-27	15:35:50	15:39:20	206618	632881a28fcc3aae4da242e2	3	1	main_slash	7	main_slash	13	stimuli_target_diamondrectangles.svg	stimuli_distractor_trianglediamonds.svg	19	yes	53	1	677	0	0			0	0			1				0	
6.6.1	mac	2023-06-27	15:35:50	15:39:20	206618	632881a28fcc3aae4da242e2	3	1	main_slash	7	advance_on_keypress_SLASH	14	stimuli_target_diamondrectangles.svg	stimuli_distractor_trianglediamonds.svg	19	yes	57	0	372	0	0			0	0			1				0	
6.6.1	mac	2023-06-27	15:35:50	15:39:22	208332	632881a28fcc3aae4da242e2	3	1	main_slash	7	main_slash	15	stimuli_distractor_trianglediamonds.svg	stimuli_target_diamondrectangles.svg	27	yes	53	1	690	0	0			0	0			1				0	
6.6.1	mac	2023-06-27	15:35:50	15:39:22	208332	632881a28fcc3aae4da242e2	3	1	main_slash	7	advance_on_keypress_SLASH	16	stimuli_distractor_trianglediamonds.svg	stimuli_target_diamondrectangles.svg	27	yes	57	0	996	0	0			0	0			1				0	
6.6.1	mac	2023-06-27	15:35:50	15:39:24	210844	632881a28fcc3aae4da242e2	3	1	main_slash	7	main_slash	17	stimuli_target_trianglerectangles.svg	stimuli_distractor_trianglediamonds.svg	17	yes	53	1	869	0	0			0	0			1				0	
6.6.1	mac	2023-06-27	15:35:50	15:39:24	210844	632881a28fcc3aae4da242e2	3	1	main_slash	7	advance_on_keypress_SLASH	18	stimuli_target_trianglerectangles.svg	stimuli_distractor_trianglediamonds.svg	17	yes	57	0	484	0	0			0	0			1				0	
6.6.1	mac	2023-06-27	15:35:50	15:39:26	212701	632881a28fcc3aae4da242e2	3	1	main_slash	7	main_slash	19	stimuli_distractor_diamondtriangles.svg	stimuli_target_diamondsquares.svg	32	yes	53	1	742	0	0			0	0			1				0	
6.6.1	mac	2023-06-27	15:35:50	15:39:26	212701	632881a28fcc3aae4da242e2	3	1	main_slash	7	advance_on_keypress_SLASH	20	stimuli_distractor_diamondtriangles.svg	stimuli_target_diamondsquares.svg	32	yes	57	0	363	0	0			0	0			1				0	
6.6.1	mac	2023-06-27	15:35:50	15:39:28	214529	632881a28fcc3aae4da242e2	3	1	main_slash	7	main_slash	21	stimuli_distractor_diamondtriangles.svg	stimuli_target_trianglerectangles.svg	29	yes	53	1	820	0	0			0	0			1				0	
6.6.1	mac	2023-06-27	15:35:50	15:39:28	214529	632881a28fcc3aae4da242e2	3	1	main_slash	7	advance_on_keypress_SLASH	22	stimuli_distractor_diamondtriangles.svg	stimuli_target_trianglerectangles.svg	29	yes	57	0	622	0	0			0	0			1				0	
6.6.1	mac	2023-06-27	15:35:50	15:39:30	216503	632881a28fcc3aae4da242e2	3	1	main_slash	7	main_slash	23	stimuli_distractor_trianglediamonds.svg	stimuli_target_squaretriangles.svg	11	yes	53	1	712	0	0			0	0			1				0	
6.6.1	mac	2023-06-27	15:35:50	15:39:30	216503	632881a28fcc3aae4da242e2	3	1	main_slash	7	advance_on_keypress_SLASH	24	stimuli_distractor_trianglediamonds.svg	stimuli_target_squaretriangles.svg	11	yes	57	0	459	0	0			0	0			1				0	
6.6.1	mac	2023-06-27	15:35:50	15:39:32	218738	632881a28fcc3aae4da242e2	3	1	main_slash	7	main_slash	25	stimuli_distractor_trianglediamonds.svg	stimuli_target_rectangletriangles.svg	9	yes	53	1	1129	0	0			0	0			1				0	
6.6.1	mac	2023-06-27	15:35:50	15:39:32	218738	632881a28fcc3aae4da242e2	3	1	main_slash	7	advance_on_keypress_SLASH	26	stimuli_distractor_trianglediamonds.svg	stimuli_target_rectangletriangles.svg	9	yes	57	0	570	0	0			0	0			1				0	
6.6.1	mac	2023-06-27	15:35:50	15:39:34	220758	632881a28fcc3aae4da242e2	3	1	main_slash	7	main_slash	27	stimuli_distractor_diamondtriangles.svg	stimuli_target_squarediamonds.svg	16	yes	53	1	817	0	0			0	0			1				0	
6.6.1	mac	2023-06-27	15:35:50	15:39:34	220758	632881a28fcc3aae4da242e2	3	1	main_slash	7	advance_on_keypress_SLASH	28	stimuli_distractor_diamondtriangles.svg	stimuli_target_squarediamonds.svg	16	yes	57	0	1007	0	0			0	0			1				0	
6.6.1	mac	2023-06-27	15:35:50	15:39:38	224408	632881a28fcc3aae4da242e2	3	1	main_slash	7	main_slash	29	stimuli_distractor_diamondtriangles.svg	stimuli_distractor_trianglediamonds.svg	37	no	0	1	2000	0	0			0	0			1				0	
6.6.1	mac	2023-06-27	15:35:50	15:39:38	224408	632881a28fcc3aae4da242e2	3	1	main_slash	7	advance_on_keypress_SLASH	30	stimuli_distractor_diamondtriangles.svg	stimuli_distractor_trianglediamonds.svg	37	no	57	0	438	0	0			0	0			1				0	
6.6.1	mac	2023-06-27	15:35:50	15:39:40	226193	632881a28fcc3aae4da242e2	3	1	main_slash	7	main_slash	31	stimuli_target_squarediamonds.svg	stimuli_distractor_diamondtriangles.svg	8	yes	53	1	701	0	0			0	0			1				0	
6.6.1	mac	2023-06-27	15:35:50	15:39:40	226193	632881a28fcc3aae4da242e2	3	1	main_slash	7	advance_on_keypress_SLASH	32	stimuli_target_squarediamonds.svg	stimuli_distractor_diamondtriangles.svg	8	yes	57	0	393	0	0			0	0			1				0	
6.6.1	mac	2023-06-27	15:35:50	15:39:43	229224	632881a28fcc3aae4da242e2	3	1	main_slash	7	main_slash	33	stimuli_distractor_trianglediamonds.svg	stimuli_distractor_trianglediamonds.svg	33	no	0	1	2000	0	0			0	0			1				0	
6.6.1	mac	2023-06-27	15:35:50	15:39:43	229224	632881a28fcc3aae4da242e2	3	1	main_slash	7	advance_on_keypress_SLASH	34	stimuli_distractor_trianglediamonds.svg	stimuli_distractor_trianglediamonds.svg	33	no	57	0	334	0	0			0	0			1				0	
6.6.1	mac	2023-06-27	15:35:50	15:39:46	232191	632881a28fcc3aae4da242e2	3	1	main_slash	7	main_slash	35	stimuli_distractor_diamondtriangles.svg	stimuli_distractor_diamondtriangles.svg	40	no	0	1	2000	0	0			0	0			1				0	
6.6.1	mac	2023-06-27	15:35:50	15:39:46	232191	632881a28fcc3aae4da242e2	3	1	main_slash	7	advance_on_keypress_SLASH	36	stimuli_distractor_diamondtriangles.svg	stimuli_distractor_diamondtriangles.svg	40	no	57	0	495	0	0			0	0			1				0	
6.6.1	mac	2023-06-27	15:35:50	15:39:48	234363	632881a28fcc3aae4da242e2	3	1	main_slash	7	main_slash	37	stimuli_target_rectangletriangles.svg	stimuli_distractor_diamondtriangles.svg	5	yes	53	1	1038	0	0			0	0			1				0	
6.6.1	mac	2023-06-27	15:35:50	15:39:48	234363	632881a28fcc3aae4da242e2	3	1	main_slash	7	advance_on_keypress_SLASH	38	stimuli_target_rectangletriangles.svg	stimuli_distractor_diamondtriangles.svg	5	yes	57	0	2550	0	0			0	0			1				0	
6.6.1	mac	2023-06-27	15:35:50	15:39:52	238329	632881a28fcc3aae4da242e2	3	1	main_slash	7	main_slash	39	stimuli_target_rectanglediamonds.svg	stimuli_distractor_trianglediamonds.svg	2	yes	53	1	771	0	0			0	0			1				0	
6.6.1	mac	2023-06-27	15:35:50	15:39:52	238329	632881a28fcc3aae4da242e2	3	1	main_slash	7	advance_on_keypress_SLASH	40	stimuli_target_rectanglediamonds.svg	stimuli_distractor_trianglediamonds.svg	2	yes	57	0	371	0	0			0	0			1				0	
6.6.1	mac	2023-06-27	15:35:50	15:39:54	239972	632881a28fcc3aae4da242e2	3	1	main_slash	7	main_slash	41	stimuli_distractor_trianglediamonds.svg	stimuli_target_squarediamonds.svg	12	yes	53	1	614	0	0			0	0			1				0	
6.6.1	mac	2023-06-27	15:35:50	15:39:54	239972	632881a28fcc3aae4da242e2	3	1	main_slash	7	advance_on_keypress_SLASH	42	stimuli_distractor_trianglediamonds.svg	stimuli_target_squarediamonds.svg	12	yes	57	0	395	0	0			0	0			1				0	
6.6.1	mac	2023-06-27	15:35:50	15:39:55	241699	632881a28fcc3aae4da242e2	3	1	main_slash	7	main_slash	43	stimuli_target_diamondrectangles.svg	stimuli_distractor_diamondtriangles.svg	23	yes	53	1	691	0	0			0	0			1				0	
6.6.1	mac	2023-06-27	15:35:50	15:39:55	241699	632881a28fcc3aae4da242e2	3	1	main_slash	7	advance_on_keypress_SLASH	44	stimuli_target_diamondrectangles.svg	stimuli_distractor_diamondtriangles.svg	23	yes	57	0	340	0	0			0	0			1				0	
6.6.1	mac	2023-06-27	15:35:50	15:39:57	243378	632881a28fcc3aae4da242e2	3	1	main_slash	7	main_slash	45	stimuli_distractor_diamondtriangles.svg	stimuli_target_rectanglediamonds.svg	14	yes	53	1	687	0	0			0	0			1				0	
6.6.1	mac	2023-06-27	15:35:50	15:39:57	243378	632881a28fcc3aae4da242e2	3	1	main_slash	7	advance_on_keypress_SLASH	46	stimuli_distractor_diamondtriangles.svg	stimuli_target_rectanglediamonds.svg	14	yes	57	0	351	0	0			0	0			1				0	
6.6.1	mac	2023-06-27	15:35:50	15:39:59	244978	632881a28fcc3aae4da242e2	3	1	main_slash	7	main_slash	47	stimuli_distractor_diamondtriangles.svg	stimuli_target_rectangletriangles.svg	13	yes	53	1	619	0	0			0	0			1				0	
6.6.1	mac	2023-06-27	15:35:50	15:39:59	244978	632881a28fcc3aae4da242e2	3	1	main_slash	7	advance_on_keypress_SLASH	48	stimuli_distractor_diamondtriangles.svg	stimuli_target_rectangletriangles.svg	13	yes	57	0	333	0	0			0	0			1				0	
6.6.1	mac	2023-06-27	15:35:50	15:40:00	246614	632881a28fcc3aae4da242e2	3	1	main_slash	7	main_slash	49	stimuli_distractor_diamondtriangles.svg	stimuli_target_squaretriangles.svg	15	yes	53	1	673	0	0			0	0			1				0	
6.6.1	mac	2023-06-27	15:35:50	15:40:00	246614	632881a28fcc3aae4da242e2	3	1	main_slash	7	advance_on_keypress_SLASH	50	stimuli_distractor_diamondtriangles.svg	stimuli_target_squaretriangles.svg	15	yes	57	0	356	0	0			0	0			1				0	
6.6.1	mac	2023-06-27	15:35:50	15:40:03	249624	632881a28fcc3aae4da242e2	3	1	main_slash	7	main_slash	51	stimuli_distractor_trianglediamonds.svg	stimuli_distractor_diamondtriangles.svg	35	no	0	1	2000	0	0			0	0			1				0	
6.6.1	mac	2023-06-27	15:35:50	15:40:03	249624	632881a28fcc3aae4da242e2	3	1	main_slash	7	advance_on_keypress_SLASH	52	stimuli_distractor_trianglediamonds.svg	stimuli_distractor_diamondtriangles.svg	35	no	57	0	338	0	0			0	0			1				0	
6.6.1	mac	2023-06-27	15:35:50	15:40:05	251269	632881a28fcc3aae4da242e2	3	1	main_slash	7	main_slash	53	stimuli_target_diamondsquares.svg	stimuli_distractor_trianglediamonds.svg	20	yes	53	1	661	0	0			0	0			1				0	
6.6.1	mac	2023-06-27	15:35:50	15:40:05	251269	632881a28fcc3aae4da242e2	3	1	main_slash	7	advance_on_keypress_SLASH	54	stimuli_target_diamondsquares.svg	stimuli_distractor_trianglediamonds.svg	20	yes	57	0	343	0	0			0	0			1				0	
6.6.1	mac	2023-06-27	15:35:50	15:40:07	252893	632881a28fcc3aae4da242e2	3	1	main_slash	7	main_slash	55	stimuli_target_trianglesquares.svg	stimuli_distractor_trianglediamonds.svg	18	yes	53	1	635	0	0			0	0			1				0	
6.6.1	mac	2023-06-27	15:35:50	15:40:07	252893	632881a28fcc3aae4da242e2	3	1	main_slash	7	advance_on_keypress_SLASH	56	stimuli_target_trianglesquares.svg	stimuli_distractor_trianglediamonds.svg	18	yes	57	0	306	0	0			0	0			1				0	
6.6.1	mac	2023-06-27	15:35:50	15:40:08	254616	632881a28fcc3aae4da242e2	3	1	main_slash	7	main_slash	57	stimuli_distractor_trianglediamonds.svg	stimuli_target_rectanglediamonds.svg	10	yes	53	1	774	0	0			0	0			1				0	
6.6.1	mac	2023-06-27	15:35:50	15:40:08	254616	632881a28fcc3aae4da242e2	3	1	main_slash	7	advance_on_keypress_SLASH	58	stimuli_distractor_trianglediamonds.svg	stimuli_target_rectanglediamonds.svg	10	yes	57	0	273	0	0			0	0			1				0	
6.6.1	mac	2023-06-27	15:35:50	15:40:10	256279	632881a28fcc3aae4da242e2	3	1	main_slash	7	main_slash	59	stimuli_distractor_diamondtriangles.svg	stimuli_target_trianglesquares.svg	30	yes	53	1	737	0	0			0	0			1				0	
6.6.1	mac	2023-06-27	15:35:50	15:40:10	256279	632881a28fcc3aae4da242e2	3	1	main_slash	7	advance_on_keypress_SLASH	60	stimuli_distractor_diamondtriangles.svg	stimuli_target_trianglesquares.svg	30	yes	57	0	399	0	0			0	0			1				0	
6.6.1	mac	2023-06-27	15:35:50	15:40:12	257947	632881a28fcc3aae4da242e2	3	1	main_slash	7	main_slash	61	stimuli_target_squaretriangles.svg	stimuli_distractor_diamondtriangles.svg	7	yes	53	1	623	0	0			0	0			1				0	
6.6.1	mac	2023-06-27	15:35:50	15:40:12	257947	632881a28fcc3aae4da242e2	3	1	main_slash	7	advance_on_keypress_SLASH	62	stimuli_target_squaretriangles.svg	stimuli_distractor_diamondtriangles.svg	7	yes	57	0	445	0	0			0	0			1				0	
6.6.1	mac	2023-06-27	15:35:50	15:40:13	259731	632881a28fcc3aae4da242e2	3	1	main_slash	7	main_slash	63	stimuli_target_rectanglediamonds.svg	stimuli_distractor_diamondtriangles.svg	6	yes	53	1	690	0	0			0	0			1				0	
6.6.1	mac	2023-06-27	15:35:50	15:40:13	259731	632881a28fcc3aae4da242e2	3	1	main_slash	7	advance_on_keypress_SLASH	64	stimuli_target_rectanglediamonds.svg	stimuli_distractor_diamondtriangles.svg	6	yes	57	0	654	0	0			0	0			1				0	
6.6.1	mac	2023-06-27	15:35:50	15:40:15	261807	632881a28fcc3aae4da242e2	3	1	main_slash	7	main_slash	65	stimuli_distractor_trianglediamonds.svg	stimuli_target_trianglerectangles.svg	25	yes	53	1	766	0	0			0	0			1				0	
6.6.1	mac	2023-06-27	15:35:50	15:40:15	261807	632881a28fcc3aae4da242e2	3	1	main_slash	7	advance_on_keypress_SLASH	66	stimuli_distractor_trianglediamonds.svg	stimuli_target_trianglerectangles.svg	25	yes	57	0	420	0	0			0	0			1				0	
6.6.1	mac	2023-06-27	15:35:50	15:40:17	263498	632881a28fcc3aae4da242e2	3	1	main_slash	7	main_slash	67	stimuli_target_rectangletriangles.svg	stimuli_distractor_trianglediamonds.svg	1	yes	53	1	639	0	0			0	0			1				0	
6.6.1	mac	2023-06-27	15:35:50	15:40:17	263498	632881a28fcc3aae4da242e2	3	1	main_slash	7	advance_on_keypress_SLASH	68	stimuli_target_rectangletriangles.svg	stimuli_distractor_trianglediamonds.svg	1	yes	57	0	326	0	0			0	0			1				0	
6.6.1	mac	2023-06-27	15:35:50	15:40:19	265214	632881a28fcc3aae4da242e2	3	1	main_slash	7	main_slash	69	stimuli_target_trianglesquares.svg	stimuli_distractor_diamondtriangles.svg	22	yes	53	1	739	0	0			0	0			1				0	
6.6.1	mac	2023-06-27	15:35:50	15:40:19	265214	632881a28fcc3aae4da242e2	3	1	main_slash	7	advance_on_keypress_SLASH	70	stimuli_target_trianglesquares.svg	stimuli_distractor_diamondtriangles.svg	22	yes	57	0	334	0	0			0	0			1				0	
6.6.1	mac	2023-06-27	15:35:50	15:40:22	268191	632881a28fcc3aae4da242e2	3	1	main_slash	7	main_slash	71	stimuli_distractor_trianglediamonds.svg	stimuli_distractor_diamondtriangles.svg	36	no	0	1	2000	0	0			0	0			1				0	
6.6.1	mac	2023-06-27	15:35:50	15:40:22	268191	632881a28fcc3aae4da242e2	3	1	main_slash	7	advance_on_keypress_SLASH	72	stimuli_distractor_trianglediamonds.svg	stimuli_distractor_diamondtriangles.svg	36	no	57	0	328	0	0			0	0			1				0	
6.6.1	mac	2023-06-27	15:35:50	15:40:23	269813	632881a28fcc3aae4da242e2	3	1	main_slash	7	main_slash	73	stimuli_target_squarediamonds.svg	stimuli_distractor_trianglediamonds.svg	4	yes	53	1	655	0	0			0	0			1				0	
6.6.1	mac	2023-06-27	15:35:50	15:40:23	269813	632881a28fcc3aae4da242e2	3	1	main_slash	7	advance_on_keypress_SLASH	74	stimuli_target_squarediamonds.svg	stimuli_distractor_trianglediamonds.svg	4	yes	57	0	275	0	0			0	0			1				0	
6.6.1	mac	2023-06-27	15:35:50	15:40:25	271346	632881a28fcc3aae4da242e2	3	1	main_slash	7	main_slash	75	stimuli_distractor_diamondtriangles.svg	stimuli_target_diamondrectangles.svg	31	yes	53	1	605	0	0			0	0			1				0	
6.6.1	mac	2023-06-27	15:35:50	15:40:25	271346	632881a28fcc3aae4da242e2	3	1	main_slash	7	advance_on_keypress_SLASH	76	stimuli_distractor_diamondtriangles.svg	stimuli_target_diamondrectangles.svg	31	yes	57	0	365	0	0			0	0			1				0	
6.6.1	mac	2023-06-27	15:35:50	15:40:27	273059	632881a28fcc3aae4da242e2	3	1	main_slash	7	main_slash	77	stimuli_target_squaretriangles.svg	stimuli_distractor_trianglediamonds.svg	3	yes	53	1	701	0	0			0	0			1				0	
6.6.1	mac	2023-06-27	15:35:50	15:40:27	273059	632881a28fcc3aae4da242e2	3	1	main_slash	7	advance_on_keypress_SLASH	78	stimuli_target_squaretriangles.svg	stimuli_distractor_trianglediamonds.svg	3	yes	57	0	327	0	0			0	0			1				0	
6.6.1	mac	2023-06-27	15:35:50	15:40:29	274891	632881a28fcc3aae4da242e2	3	1	main_slash	7	main_slash	79	stimuli_distractor_trianglediamonds.svg	stimuli_target_trianglesquares.svg	26	yes	53	1	866	0	0			0	0			1				0	
6.6.1	mac	2023-06-27	15:35:50	15:40:29	274891	632881a28fcc3aae4da242e2	3	1	main_slash	7	advance_on_keypress_SLASH	80	stimuli_distractor_trianglediamonds.svg	stimuli_target_trianglesquares.svg	26	yes	57	0	451	0	0			0	0			1				0	
6.6.1	mac	2023-06-27	15:35:50	15:40:30	276693	632881a28fcc3aae4da242e2	3	1	main_slash	7	main_slash	81	stimuli_target_rectangletriangles.svg	stimuli_distractor_diamondtriangles.svg	5	yes	53	1	701	0	0			0	0			1				0	
6.6.1	mac	2023-06-27	15:35:50	15:40:30	276693	632881a28fcc3aae4da242e2	3	1	main_slash	7	advance_on_keypress_SLASH	82	stimuli_target_rectangletriangles.svg	stimuli_distractor_diamondtriangles.svg	5	yes	57	0	324	0	0			0	0			1				0	
6.6.1	mac	2023-06-27	15:35:50	15:40:32	278327	632881a28fcc3aae4da242e2	3	1	main_slash	7	main_slash	83	stimuli_distractor_trianglediamonds.svg	stimuli_target_rectanglediamonds.svg	10	yes	53	1	668	0	0			0	0			1				0	
6.6.1	mac	2023-06-27	15:35:50	15:40:32	278327	632881a28fcc3aae4da242e2	3	1	main_slash	7	advance_on_keypress_SLASH	84	stimuli_distractor_trianglediamonds.svg	stimuli_target_rectanglediamonds.svg	10	yes	57	0	303	0	0			0	0			1				0	
6.6.1	mac	2023-06-27	15:35:50	15:40:34	280013	632881a28fcc3aae4da242e2	3	1	main_slash	7	main_slash	85	stimuli_distractor_diamondtriangles.svg	stimuli_target_diamondsquares.svg	32	yes	53	1	756	0	0			0	0			1				0	
6.6.1	mac	2023-06-27	15:35:50	15:40:34	280013	632881a28fcc3aae4da242e2	3	1	main_slash	7	advance_on_keypress_SLASH	86	stimuli_distractor_diamondtriangles.svg	stimuli_target_diamondsquares.svg	32	yes	57	0	557	0	0			0	0			1				0	
6.6.1	mac	2023-06-27	15:35:50	15:40:36	281914	632881a28fcc3aae4da242e2	3	1	main_slash	7	main_slash	87	stimuli_distractor_diamondtriangles.svg	stimuli_target_trianglesquares.svg	30	yes	53	1	690	0	0			0	0			1				0	
6.6.1	mac	2023-06-27	15:35:50	15:40:36	281914	632881a28fcc3aae4da242e2	3	1	main_slash	7	advance_on_keypress_SLASH	88	stimuli_distractor_diamondtriangles.svg	stimuli_target_trianglesquares.svg	30	yes	57	0	315	0	0			0	0			1				0	
6.6.1	mac	2023-06-27	15:35:50	15:40:39	284873	632881a28fcc3aae4da242e2	3	1	main_slash	7	main_slash	89	stimuli_distractor_trianglediamonds.svg	stimuli_distractor_trianglediamonds.svg	34	no	0	1	2000	0	0			0	0			1				0	
6.6.1	mac	2023-06-27	15:35:50	15:40:39	284873	632881a28fcc3aae4da242e2	3	1	main_slash	7	advance_on_keypress_SLASH	90	stimuli_distractor_trianglediamonds.svg	stimuli_distractor_trianglediamonds.svg	34	no	57	0	325	0	0			0	0			1				0	
6.6.1	mac	2023-06-27	15:35:50	15:40:40	286525	632881a28fcc3aae4da242e2	3	1	main_slash	7	main_slash	91	stimuli_distractor_diamondtriangles.svg	stimuli_target_diamondrectangles.svg	31	yes	53	1	683	0	0			0	0			1				0	
6.6.1	mac	2023-06-27	15:35:50	15:40:40	286525	632881a28fcc3aae4da242e2	3	1	main_slash	7	advance_on_keypress_SLASH	92	stimuli_distractor_diamondtriangles.svg	stimuli_target_diamondrectangles.svg	31	yes	57	0	340	0	0			0	0			1				0	
6.6.1	mac	2023-06-27	15:35:50	15:40:42	288112	632881a28fcc3aae4da242e2	3	1	main_slash	7	main_slash	93	stimuli_distractor_trianglediamonds.svg	stimuli_target_diamondrectangles.svg	27	yes	53	1	604	0	0			0	0			1				0	
6.6.1	mac	2023-06-27	15:35:50	15:40:42	288112	632881a28fcc3aae4da242e2	3	1	main_slash	7	advance_on_keypress_SLASH	94	stimuli_distractor_trianglediamonds.svg	stimuli_target_diamondrectangles.svg	27	yes	57	0	317	0	0			0	0			1				0	
6.6.1	mac	2023-06-27	15:35:50	15:40:45	291072	632881a28fcc3aae4da242e2	3	1	main_slash	7	main_slash	95	stimuli_distractor_diamondtriangles.svg	stimuli_distractor_trianglediamonds.svg	38	no	0	1	2000	0	0			0	0			1				0	
6.6.1	mac	2023-06-27	15:35:50	15:40:45	291072	632881a28fcc3aae4da242e2	3	1	main_slash	7	advance_on_keypress_SLASH	96	stimuli_distractor_diamondtriangles.svg	stimuli_distractor_trianglediamonds.svg	38	no	57	0	344	0	0			0	0			1				0	
6.6.1	mac	2023-06-27	15:35:50	15:40:46	292721	632881a28fcc3aae4da242e2	3	1	main_slash	7	main_slash	97	stimuli_distractor_diamondtriangles.svg	stimuli_target_rectanglediamonds.svg	14	yes	53	1	645	0	0			0	0			1				0	
6.6.1	mac	2023-06-27	15:35:50	15:40:46	292721	632881a28fcc3aae4da242e2	3	1	main_slash	7	advance_on_keypress_SLASH	98	stimuli_distractor_diamondtriangles.svg	stimuli_target_rectanglediamonds.svg	14	yes	57	0	279	0	0			0	0			1				0	
6.6.1	mac	2023-06-27	15:35:50	15:40:49	295639	632881a28fcc3aae4da242e2	3	1	main_slash	7	main_slash	99	stimuli_distractor_diamondtriangles.svg	stimuli_distractor_diamondtriangles.svg	39	no	0	1	2000	0	0			0	0			1				0	
6.6.1	mac	2023-06-27	15:35:50	15:40:49	295639	632881a28fcc3aae4da242e2	3	1	main_slash	7	advance_on_keypress_SLASH	100	stimuli_distractor_diamondtriangles.svg	stimuli_distractor_diamondtriangles.svg	39	no	57	0	317	0	0			0	0			1				0	
6.6.1	mac	2023-06-27	15:35:50	15:40:52	298606	632881a28fcc3aae4da242e2	3	1	main_slash	7	main_slash	101	stimuli_distractor_trianglediamonds.svg	stimuli_distractor_diamondtriangles.svg	35	no	0	1	2000	0	0			0	0			1				0	
6.6.1	mac	2023-06-27	15:35:50	15:40:52	298606	632881a28fcc3aae4da242e2	3	1	main_slash	7	advance_on_keypress_SLASH	102	stimuli_distractor_trianglediamonds.svg	stimuli_distractor_diamondtriangles.svg	35	no	57	0	360	0	0			0	0			1				0	
6.6.1	mac	2023-06-27	15:35:50	15:40:55	301623	632881a28fcc3aae4da242e2	3	1	main_slash	7	main_slash	103	stimuli_distractor_diamondtriangles.svg	stimuli_distractor_trianglediamonds.svg	37	no	0	1	2000	0	0			0	0			1				0	
6.6.1	mac	2023-06-27	15:35:50	15:40:55	301623	632881a28fcc3aae4da242e2	3	1	main_slash	7	advance_on_keypress_SLASH	104	stimuli_distractor_diamondtriangles.svg	stimuli_distractor_trianglediamonds.svg	37	no	57	0	425	0	0			0	0			1				0	
6.6.1	mac	2023-06-27	15:35:50	15:40:58	304707	632881a28fcc3aae4da242e2	3	1	main_slash	7	main_slash	105	stimuli_distractor_diamondtriangles.svg	stimuli_distractor_diamondtriangles.svg	40	no	0	1	2000	0	0			0	0			1				0	
6.6.1	mac	2023-06-27	15:35:50	15:40:58	304707	632881a28fcc3aae4da242e2	3	1	main_slash	7	advance_on_keypress_SLASH	106	stimuli_distractor_diamondtriangles.svg	stimuli_distractor_diamondtriangles.svg	40	no	57	0	275	0	0			0	0			1				0	
6.6.1	mac	2023-06-27	15:35:50	15:41:00	306346	632881a28fcc3aae4da242e2	3	1	main_slash	7	main_slash	107	stimuli_target_trianglerectangles.svg	stimuli_distractor_trianglediamonds.svg	17	yes	53	1	706	0	0			0	0			1				0	
6.6.1	mac	2023-06-27	15:35:50	15:41:00	306346	632881a28fcc3aae4da242e2	3	1	main_slash	7	advance_on_keypress_SLASH	108	stimuli_target_trianglerectangles.svg	stimuli_distractor_trianglediamonds.svg	17	yes	57	0	312	0	0			0	0			1				0	
6.6.1	mac	2023-06-27	15:35:50	15:41:02	307937	632881a28fcc3aae4da242e2	3	1	main_slash	7	main_slash	109	stimuli_distractor_trianglediamonds.svg	stimuli_target_diamondsquares.svg	28	yes	53	1	629	0	0			0	0			1				0	
6.6.1	mac	2023-06-27	15:35:50	15:41:02	307937	632881a28fcc3aae4da242e2	3	1	main_slash	7	advance_on_keypress_SLASH	110	stimuli_distractor_trianglediamonds.svg	stimuli_target_diamondsquares.svg	28	yes	57	0	298	0	0			0	0			1				0	
6.6.1	mac	2023-06-27	15:35:50	15:41:03	309521	632881a28fcc3aae4da242e2	3	1	main_slash	7	main_slash	111	stimuli_target_rectanglediamonds.svg	stimuli_distractor_diamondtriangles.svg	6	yes	53	1	645	0	0			0	0			1				0	
6.6.1	mac	2023-06-27	15:35:50	15:41:03	309521	632881a28fcc3aae4da242e2	3	1	main_slash	7	advance_on_keypress_SLASH	112	stimuli_target_rectanglediamonds.svg	stimuli_distractor_diamondtriangles.svg	6	yes	57	0	309	0	0			0	0			1				0	
6.6.1	mac	2023-06-27	15:35:50	15:41:05	311051	632881a28fcc3aae4da242e2	3	1	main_slash	7	main_slash	113	stimuli_distractor_diamondtriangles.svg	stimuli_target_squarediamonds.svg	16	yes	53	1	575	0	0			0	0			1				0	
6.6.1	mac	2023-06-27	15:35:50	15:41:05	311051	632881a28fcc3aae4da242e2	3	1	main_slash	7	advance_on_keypress_SLASH	114	stimuli_distractor_diamondtriangles.svg	stimuli_target_squarediamonds.svg	16	yes	57	0	314	0	0			0	0			1				0	
6.6.1	mac	2023-06-27	15:35:50	15:41:08	314007	632881a28fcc3aae4da242e2	3	1	main_slash	7	main_slash	115	stimuli_distractor_trianglediamonds.svg	stimuli_distractor_trianglediamonds.svg	33	no	0	1	2000	0	0			0	0			1				0	
6.6.1	mac	2023-06-27	15:35:50	15:41:08	314007	632881a28fcc3aae4da242e2	3	1	main_slash	7	advance_on_keypress_SLASH	116	stimuli_distractor_trianglediamonds.svg	stimuli_distractor_trianglediamonds.svg	33	no	57	0	459	0	0			0	0			1				0	
6.6.1	mac	2023-06-27	15:35:50	15:41:09	315747	632881a28fcc3aae4da242e2	3	1	main_slash	7	main_slash	117	stimuli_distractor_diamondtriangles.svg	stimuli_target_rectangletriangles.svg	13	yes	53	1	622	0	0			0	0			1				0	
6.6.1	mac	2023-06-27	15:35:50	15:41:09	315747	632881a28fcc3aae4da242e2	3	1	main_slash	7	advance_on_keypress_SLASH	118	stimuli_distractor_diamondtriangles.svg	stimuli_target_rectangletriangles.svg	13	yes	57	0	265	0	0			0	0			1				0	
6.6.1	mac	2023-06-27	15:35:50	15:41:11	317151	632881a28fcc3aae4da242e2	3	1	main_slash	7	main_slash	119	stimuli_distractor_trianglediamonds.svg	stimuli_target_rectangletriangles.svg	9	yes	53	1	493	0	0			0	0			1				0	
6.6.1	mac	2023-06-27	15:35:50	15:41:11	317151	632881a28fcc3aae4da242e2	3	1	main_slash	7	advance_on_keypress_SLASH	120	stimuli_distractor_trianglediamonds.svg	stimuli_target_rectangletriangles.svg	9	yes	57	0	318	0	0			0	0			1				0	
6.6.1	mac	2023-06-27	15:35:50	15:41:12	318672	632881a28fcc3aae4da242e2	3	1	main_slash	7	main_slash	121	stimuli_target_diamondsquares.svg	stimuli_distractor_trianglediamonds.svg	20	yes	53	1	564	0	0			0	0			1				0	
6.6.1	mac	2023-06-27	15:35:50	15:41:12	318672	632881a28fcc3aae4da242e2	3	1	main_slash	7	advance_on_keypress_SLASH	122	stimuli_target_diamondsquares.svg	stimuli_distractor_trianglediamonds.svg	20	yes	57	0	311	0	0			0	0			1				0	
6.6.1	mac	2023-06-27	15:35:50	15:41:14	320057	632881a28fcc3aae4da242e2	3	1	main_slash	7	main_slash	123	stimuli_distractor_trianglediamonds.svg	stimuli_target_squaretriangles.svg	11	yes	53	1	432	0	0			0	0			1				0	
6.6.1	mac	2023-06-27	15:35:50	15:41:14	320057	632881a28fcc3aae4da242e2	3	1	main_slash	7	advance_on_keypress_SLASH	124	stimuli_distractor_trianglediamonds.svg	stimuli_target_squaretriangles.svg	11	yes	57	0	211	0	0			0	0			1				0	
6.6.1	mac	2023-06-27	15:35:50	15:41:15	321569	632881a28fcc3aae4da242e2	3	1	main_slash	7	main_slash	125	stimuli_target_diamondrectangles.svg	stimuli_distractor_trianglediamonds.svg	19	yes	53	1	661	0	0			0	0			1				0	
6.6.1	mac	2023-06-27	15:35:50	15:41:15	321569	632881a28fcc3aae4da242e2	3	1	main_slash	7	advance_on_keypress_SLASH	126	stimuli_target_diamondrectangles.svg	stimuli_distractor_trianglediamonds.svg	19	yes	57	0	274	0	0			0	0			1				0	
6.6.1	mac	2023-06-27	15:35:50	15:41:17	323079	632881a28fcc3aae4da242e2	3	1	main_slash	7	main_slash	127	stimuli_target_squaretriangles.svg	stimuli_distractor_diamondtriangles.svg	7	yes	53	1	587	0	0			0	0			1				0	
6.6.1	mac	2023-06-27	15:35:50	15:41:17	323079	632881a28fcc3aae4da242e2	3	1	main_slash	7	advance_on_keypress_SLASH	128	stimuli_target_squaretriangles.svg	stimuli_distractor_diamondtriangles.svg	7	yes	57	0	262	0	0			0	0			1				0	
6.6.1	mac	2023-06-27	15:35:50	15:41:18	324622	632881a28fcc3aae4da242e2	3	1	main_slash	7	main_slash	129	stimuli_target_diamondsquares.svg	stimuli_distractor_diamondtriangles.svg	24	yes	53	1	631	0	0			0	0			1				0	
6.6.1	mac	2023-06-27	15:35:50	15:41:18	324622	632881a28fcc3aae4da242e2	3	1	main_slash	7	advance_on_keypress_SLASH	130	stimuli_target_diamondsquares.svg	stimuli_distractor_diamondtriangles.svg	24	yes	57	0	311	0	0			0	0			1				0	
6.6.1	mac	2023-06-27	15:35:50	15:41:20	326276	632881a28fcc3aae4da242e2	3	1	main_slash	7	main_slash	131	stimuli_target_trianglesquares.svg	stimuli_distractor_trianglediamonds.svg	18	yes	53	1	700	0	0			0	0			1				0	
6.6.1	mac	2023-06-27	15:35:50	15:41:20	326276	632881a28fcc3aae4da242e2	3	1	main_slash	7	advance_on_keypress_SLASH	132	stimuli_target_trianglesquares.svg	stimuli_distractor_trianglediamonds.svg	18	yes	57	0	384	0	0			0	0			1				0	
6.6.1	mac	2023-06-27	15:35:50	15:41:22	327930	632881a28fcc3aae4da242e2	3	1	main_slash	7	main_slash	133	stimuli_distractor_diamondtriangles.svg	stimuli_target_squaretriangles.svg	15	yes	53	1	639	0	0			0	0			1				0	
6.6.1	mac	2023-06-27	15:35:50	15:41:22	327930	632881a28fcc3aae4da242e2	3	1	main_slash	7	advance_on_keypress_SLASH	134	stimuli_distractor_diamondtriangles.svg	stimuli_target_squaretriangles.svg	15	yes	57	0	286	0	0			0	0			1				0	
6.6.1	mac	2023-06-27	15:35:50	15:41:23	329576	632881a28fcc3aae4da242e2	3	1	main_slash	7	main_slash	135	stimuli_target_trianglesquares.svg	stimuli_distractor_diamondtriangles.svg	22	yes	53	1	717	0	0			0	0			1				0	
6.6.1	mac	2023-06-27	15:35:50	15:41:23	329576	632881a28fcc3aae4da242e2	3	1	main_slash	7	advance_on_keypress_SLASH	136	stimuli_target_trianglesquares.svg	stimuli_distractor_diamondtriangles.svg	22	yes	57	0	413	0	0			0	0			1				0	
6.6.1	mac	2023-06-27	15:35:50	15:41:25	331192	632881a28fcc3aae4da242e2	3	1	main_slash	7	main_slash	137	stimuli_distractor_diamondtriangles.svg	stimuli_target_trianglerectangles.svg	29	yes	53	1	568	0	0			0	0			1				0	
6.6.1	mac	2023-06-27	15:35:50	15:41:25	331192	632881a28fcc3aae4da242e2	3	1	main_slash	7	advance_on_keypress_SLASH	138	stimuli_distractor_diamondtriangles.svg	stimuli_target_trianglerectangles.svg	29	yes	57	0	288	0	0			0	0			1				0	
6.6.1	mac	2023-06-27	15:35:50	15:41:27	333080	632881a28fcc3aae4da242e2	3	1	main_slash	7	main_slash	139	stimuli_target_squarediamonds.svg	stimuli_distractor_trianglediamonds.svg	4	yes	53	1	954	0	0			0	0			1				0	
6.6.1	mac	2023-06-27	15:35:50	15:41:27	333080	632881a28fcc3aae4da242e2	3	1	main_slash	7	advance_on_keypress_SLASH	140	stimuli_target_squarediamonds.svg	stimuli_distractor_trianglediamonds.svg	4	yes	57	0	372	0	0			0	0			1				0	
6.6.1	mac	2023-06-27	15:35:50	15:41:28	334837	632881a28fcc3aae4da242e2	3	1	main_slash	7	main_slash	141	stimuli_distractor_trianglediamonds.svg	stimuli_target_trianglerectangles.svg	25	yes	53	1	729	0	0			0	0			1				0	
6.6.1	mac	2023-06-27	15:35:50	15:41:28	334837	632881a28fcc3aae4da242e2	3	1	main_slash	7	advance_on_keypress_SLASH	142	stimuli_distractor_trianglediamonds.svg	stimuli_target_trianglerectangles.svg	25	yes	57	0	309	0	0			0	0			1				0	
6.6.1	mac	2023-06-27	15:35:50	15:41:30	336661	632881a28fcc3aae4da242e2	3	1	main_slash	7	main_slash	143	stimuli_target_trianglerectangles.svg	stimuli_distractor_diamondtriangles.svg	21	yes	53	1	869	0	0			0	0			1				0	
6.6.1	mac	2023-06-27	15:35:50	15:41:30	336661	632881a28fcc3aae4da242e2	3	1	main_slash	7	advance_on_keypress_SLASH	144	stimuli_target_trianglerectangles.svg	stimuli_distractor_diamondtriangles.svg	21	yes	57	0	413	0	0			0	0			1				0	
6.6.1	mac	2023-06-27	15:35:50	15:41:33	339706	632881a28fcc3aae4da242e2	3	1	main_slash	7	main_slash	145	stimuli_distractor_trianglediamonds.svg	stimuli_distractor_diamondtriangles.svg	36	no	0	1	2000	0	0			0	0			1				0	
6.6.1	mac	2023-06-27	15:35:50	15:41:33	339706	632881a28fcc3aae4da242e2	3	1	main_slash	7	advance_on_keypress_SLASH	146	stimuli_distractor_trianglediamonds.svg	stimuli_distractor_diamondtriangles.svg	36	no	57	0	796	0	0			0	0			1				0	
6.6.1	mac	2023-06-27	15:35:50	15:41:35	341792	632881a28fcc3aae4da242e2	3	1	main_slash	7	main_slash	147	stimuli_target_squaretriangles.svg	stimuli_distractor_trianglediamonds.svg	3	yes	53	1	634	0	0			0	0			1				0	
6.6.1	mac	2023-06-27	15:35:50	15:41:35	341792	632881a28fcc3aae4da242e2	3	1	main_slash	7	advance_on_keypress_SLASH	148	stimuli_target_squaretriangles.svg	stimuli_distractor_trianglediamonds.svg	3	yes	57	0	264	0	0			0	0			1				0	
6.6.1	mac	2023-06-27	15:35:50	15:41:37	343393	632881a28fcc3aae4da242e2	3	1	main_slash	7	main_slash	149	stimuli_target_diamondrectangles.svg	stimuli_distractor_diamondtriangles.svg	23	yes	53	1	702	0	0			0	0			1				0	
6.6.1	mac	2023-06-27	15:35:50	15:41:37	343393	632881a28fcc3aae4da242e2	3	1	main_slash	7	advance_on_keypress_SLASH	150	stimuli_target_diamondrectangles.svg	stimuli_distractor_diamondtriangles.svg	23	yes	57	0	243	0	0			0	0			1				0	
6.6.1	mac	2023-06-27	15:35:50	15:41:39	344903	632881a28fcc3aae4da242e2	3	1	main_slash	7	main_slash	151	stimuli_distractor_trianglediamonds.svg	stimuli_target_trianglesquares.svg	26	yes	53	1	628	0	0			0	0			1				0	
6.6.1	mac	2023-06-27	15:35:50	15:41:39	344903	632881a28fcc3aae4da242e2	3	1	main_slash	7	advance_on_keypress_SLASH	152	stimuli_distractor_trianglediamonds.svg	stimuli_target_trianglesquares.svg	26	yes	57	0	318	0	0			0	0			1				0	
6.6.1	mac	2023-06-27	15:35:50	15:41:40	346422	632881a28fcc3aae4da242e2	3	1	main_slash	7	main_slash	153	stimuli_distractor_trianglediamonds.svg	stimuli_target_squarediamonds.svg	12	yes	53	1	563	0	0			0	0			1				0	
6.6.1	mac	2023-06-27	15:35:50	15:41:40	346422	632881a28fcc3aae4da242e2	3	1	main_slash	7	advance_on_keypress_SLASH	154	stimuli_distractor_trianglediamonds.svg	stimuli_target_squarediamonds.svg	12	yes	57	0	314	0	0			0	0			1				0	
6.6.1	mac	2023-06-27	15:35:50	15:41:41	347840	632881a28fcc3aae4da242e2	3	1	main_slash	7	main_slash	155	stimuli_target_rectanglediamonds.svg	stimuli_distractor_trianglediamonds.svg	2	yes	53	1	464	0	0			0	0			1				0	
6.6.1	mac	2023-06-27	15:35:50	15:41:41	347840	632881a28fcc3aae4da242e2	3	1	main_slash	7	advance_on_keypress_SLASH	156	stimuli_target_rectanglediamonds.svg	stimuli_distractor_trianglediamonds.svg	2	yes	57	0	366	0	0			0	0			1				0	
6.6.1	mac	2023-06-27	15:35:50	15:41:43	349294	632881a28fcc3aae4da242e2	3	1	main_slash	7	main_slash	157	stimuli_target_squarediamonds.svg	stimuli_distractor_diamondtriangles.svg	8	yes	53	1	452	0	0			0	0			1				0	
6.6.1	mac	2023-06-27	15:35:50	15:41:43	349294	632881a28fcc3aae4da242e2	3	1	main_slash	7	advance_on_keypress_SLASH	158	stimuli_target_squarediamonds.svg	stimuli_distractor_diamondtriangles.svg	8	yes	57	0	238	0	0			0	0			1				0	
6.6.1	mac	2023-06-27	15:35:50	15:41:44	350590	632881a28fcc3aae4da242e2	3	1	main_slash	7	main_slash	159	stimuli_target_rectangletriangles.svg	stimuli_distractor_trianglediamonds.svg	1	yes	53	1	414	0	0			0	0			1				0	
6.6.1	mac	2023-06-27	15:35:50	15:41:44	350590	632881a28fcc3aae4da242e2	3	1	main_slash	7	advance_on_keypress_SLASH	160	stimuli_target_rectangletriangles.svg	stimuli_distractor_trianglediamonds.svg	1	yes	57	0	246	0	0			0	0			1				0	
6.6.1	mac	2023-06-27	15:35:50	15:42:17	383356	632881a28fcc3aae4da242e2	3	1	practice_z	9	practice_z	1	stimuli_target_diamondsquares.svg	stimuli_distractor_diamondtriangles.svg	3	yes	44	1	530	0	0			0	0			1				0	
6.6.1	mac	2023-06-27	15:35:50	15:42:17	383356	632881a28fcc3aae4da242e2	3	1	practice_z	9	advance_on_keypress_ZEE	2	stimuli_target_diamondsquares.svg	stimuli_distractor_diamondtriangles.svg	3	yes	57	0	1052	0	0			0	0			1				0	
6.6.1	mac	2023-06-27	15:35:50	15:42:20	386803	632881a28fcc3aae4da242e2	3	1	practice_z	9	practice_z	3	stimuli_distractor_diamondtriangles.svg	stimuli_target_rectangletriangles.svg	7	yes	44	1	744	0	0			0	0			1				0	
6.6.1	mac	2023-06-27	15:35:50	15:42:20	386803	632881a28fcc3aae4da242e2	3	1	practice_z	9	advance_on_keypress_ZEE	4	stimuli_distractor_diamondtriangles.svg	stimuli_target_rectangletriangles.svg	7	yes	57	0	717	0	0			0	0			1				0	
6.6.1	mac	2023-06-27	15:35:50	15:42:25	391160	632881a28fcc3aae4da242e2	3	1	practice_z	9	practice_z	5	stimuli_distractor_trianglediamonds.svg	stimuli_distractor_trianglediamonds.svg	15	no	0	1	2000	0	0			0	0			1				0	
6.6.1	mac	2023-06-27	15:35:50	15:42:25	391160	632881a28fcc3aae4da242e2	3	1	practice_z	9	advance_on_keypress_ZEE	6	stimuli_distractor_trianglediamonds.svg	stimuli_distractor_trianglediamonds.svg	15	no	57	0	437	0	0			0	0			1				0	
6.6.1	mac	2023-06-27	15:35:50	15:42:27	393804	632881a28fcc3aae4da242e2	3	1	practice_z	9	practice_z	7	stimuli_target_rectanglediamonds.svg	stimuli_distractor_diamondtriangles.svg	1	yes	44	1	577	0	0			0	0			1				0	
6.6.1	mac	2023-06-27	15:35:50	15:42:27	393804	632881a28fcc3aae4da242e2	3	1	practice_z	9	advance_on_keypress_ZEE	8	stimuli_target_rectanglediamonds.svg	stimuli_distractor_diamondtriangles.svg	1	yes	57	0	348	0	0			0	0			1				0	
6.6.1	mac	2023-06-27	15:35:50	15:42:30	396277	632881a28fcc3aae4da242e2	3	1	practice_z	9	practice_z	9	stimuli_distractor_trianglediamonds.svg	stimuli_target_diamondrectangles.svg	12	yes	44	1	485	0	0			0	0			1				0	
6.6.1	mac	2023-06-27	15:35:50	15:42:30	396277	632881a28fcc3aae4da242e2	3	1	practice_z	9	advance_on_keypress_ZEE	10	stimuli_distractor_trianglediamonds.svg	stimuli_target_diamondrectangles.svg	12	yes	57	0	377	0	0			0	0			1				0	
6.6.1	mac	2023-06-27	15:35:50	15:42:32	398788	632881a28fcc3aae4da242e2	3	1	practice_z	9	practice_z	11	stimuli_distractor_trianglediamonds.svg	stimuli_target_rectanglediamonds.svg	10	yes	44	1	480	0	0			0	0			1				0	
6.6.1	mac	2023-06-27	15:35:50	15:42:32	398788	632881a28fcc3aae4da242e2	3	1	practice_z	9	advance_on_keypress_ZEE	12	stimuli_distractor_trianglediamonds.svg	stimuli_target_rectanglediamonds.svg	10	yes	57	0	400	0	0			0	0			1				0	
6.6.1	mac	2023-06-27	15:35:50	15:42:35	401270	632881a28fcc3aae4da242e2	3	1	practice_z	9	practice_z	13	stimuli_target_rectanglediamonds.svg	stimuli_distractor_trianglediamonds.svg	4	yes	44	1	444	0	0			0	0			1				0	
6.6.1	mac	2023-06-27	15:35:50	15:42:35	401270	632881a28fcc3aae4da242e2	3	1	practice_z	9	advance_on_keypress_ZEE	14	stimuli_target_rectanglediamonds.svg	stimuli_distractor_trianglediamonds.svg	4	yes	57	0	319	0	0			0	0			1				0	
6.6.1	mac	2023-06-27	15:35:50	15:42:38	403927	632881a28fcc3aae4da242e2	3	1	practice_z	9	practice_z	15	stimuli_distractor_diamondtriangles.svg	stimuli_target_diamondrectangles.svg	8	yes	44	1	683	0	0			0	0			1				0	
6.6.1	mac	2023-06-27	15:35:50	15:42:38	403927	632881a28fcc3aae4da242e2	3	1	practice_z	9	advance_on_keypress_ZEE	16	stimuli_distractor_diamondtriangles.svg	stimuli_target_diamondrectangles.svg	8	yes	57	0	364	0	0			0	0			1				0	
6.6.1	mac	2023-06-27	15:35:50	15:42:42	407942	632881a28fcc3aae4da242e2	3	1	practice_z	9	practice_z	17	stimuli_distractor_trianglediamonds.svg	stimuli_distractor_diamondtriangles.svg	16	no	0	1	2000	0	0			0	0			1				0	
6.6.1	mac	2023-06-27	15:35:50	15:42:42	407942	632881a28fcc3aae4da242e2	3	1	practice_z	9	advance_on_keypress_ZEE	18	stimuli_distractor_trianglediamonds.svg	stimuli_distractor_diamondtriangles.svg	16	no	57	0	382	0	0			0	0			1				0	
6.6.1	mac	2023-06-27	15:35:50	15:42:44	410547	632881a28fcc3aae4da242e2	3	1	practice_z	9	practice_z	19	stimuli_target_diamondsquares.svg	stimuli_distractor_trianglediamonds.svg	6	yes	44	1	570	0	0			0	0			1				0	
6.6.1	mac	2023-06-27	15:35:50	15:42:44	410547	632881a28fcc3aae4da242e2	3	1	practice_z	9	advance_on_keypress_ZEE	20	stimuli_target_diamondsquares.svg	stimuli_distractor_trianglediamonds.svg	6	yes	57	0	424	0	0			0	0			1				0	
6.6.1	mac	2023-06-27	15:35:50	15:42:47	413076	632881a28fcc3aae4da242e2	3	1	practice_z	9	practice_z	21	stimuli_distractor_trianglediamonds.svg	stimuli_target_squarediamonds.svg	11	yes	44	1	450	0	0			0	0			1				0	
6.6.1	mac	2023-06-27	15:35:50	15:42:47	413076	632881a28fcc3aae4da242e2	3	1	practice_z	9	advance_on_keypress_ZEE	22	stimuli_distractor_trianglediamonds.svg	stimuli_target_squarediamonds.svg	11	yes	57	0	285	0	0			0	0			1				0	
6.6.1	mac	2023-06-27	15:35:50	15:42:49	415415	632881a28fcc3aae4da242e2	3	1	practice_z	9	practice_z	23	stimuli_target_squarediamonds.svg	stimuli_distractor_diamondtriangles.svg	2	yes	44	1	405	0	0			0	0			1				0	
6.6.1	mac	2023-06-27	15:35:50	15:42:49	415415	632881a28fcc3aae4da242e2	3	1	practice_z	9	advance_on_keypress_ZEE	24	stimuli_target_squarediamonds.svg	stimuli_distractor_diamondtriangles.svg	2	yes	57	0	415	0	0			0	0			1				0	
6.6.1	mac	2023-06-27	15:35:50	15:42:53	419477	632881a28fcc3aae4da242e2	3	1	practice_z	9	practice_z	25	stimuli_distractor_diamondtriangles.svg	stimuli_distractor_trianglediamonds.svg	14	no	0	1	2000	0	0			0	0			1				0	
6.6.1	mac	2023-06-27	15:35:50	15:42:53	419477	632881a28fcc3aae4da242e2	3	1	practice_z	9	advance_on_keypress_ZEE	26	stimuli_distractor_diamondtriangles.svg	stimuli_distractor_trianglediamonds.svg	14	no	57	0	353	0	0			0	0			1				0	
6.6.1	mac	2023-06-27	15:35:50	15:42:56	422003	632881a28fcc3aae4da242e2	3	1	practice_z	9	practice_z	27	stimuli_distractor_diamondtriangles.svg	stimuli_target_trianglerectangles.svg	9	yes	44	1	544	0	0			0	0			1				0	
6.6.1	mac	2023-06-27	15:35:50	15:42:56	422003	632881a28fcc3aae4da242e2	3	1	practice_z	9	advance_on_keypress_ZEE	28	stimuli_distractor_diamondtriangles.svg	stimuli_target_trianglerectangles.svg	9	yes	57	0	499	0	0			0	0			1				0	
6.6.1	mac	2023-06-27	15:35:50	15:42:58	424727	632881a28fcc3aae4da242e2	3	1	practice_z	9	practice_z	29	stimuli_target_squarediamonds.svg	stimuli_distractor_trianglediamonds.svg	5	yes	44	1	584	0	0			0	0			1				0	
6.6.1	mac	2023-06-27	15:35:50	15:42:58	424727	632881a28fcc3aae4da242e2	3	1	practice_z	9	advance_on_keypress_ZEE	30	stimuli_target_squarediamonds.svg	stimuli_distractor_trianglediamonds.svg	5	yes	57	0	450	0	0			0	0			1				0	
6.6.1	mac	2023-06-27	15:35:50	15:43:02	428826	632881a28fcc3aae4da242e2	3	1	practice_z	9	practice_z	31	stimuli_distractor_diamondtriangles.svg	stimuli_distractor_diamondtriangles.svg	13	no	0	1	2000	0	0			0	0			1				0	
6.6.1	mac	2023-06-27	15:35:50	15:43:02	428826	632881a28fcc3aae4da242e2	3	1	practice_z	9	advance_on_keypress_ZEE	32	stimuli_distractor_diamondtriangles.svg	stimuli_distractor_diamondtriangles.svg	13	no	57	0	393	0	0			0	0			1				0	
6.6.1	mac	2023-06-27	15:35:50	15:43:10	436491	632881a28fcc3aae4da242e2	3	1	main_z	11	main_z	1	stimuli_distractor_diamondtriangles.svg	stimuli_distractor_trianglediamonds.svg	38	no	0	1	2000	0	0			0	0			1				0	
6.6.1	mac	2023-06-27	15:35:50	15:43:10	436491	632881a28fcc3aae4da242e2	3	1	main_z	11	advance_on_keypress_ZEE	2	stimuli_distractor_diamondtriangles.svg	stimuli_distractor_trianglediamonds.svg	38	no	57	0	526	0	0			0	0			1				0	
6.6.1	mac	2023-06-27	15:35:50	15:43:12	438114	632881a28fcc3aae4da242e2	3	1	main_z	11	main_z	3	stimuli_target_rectanglediamonds.svg	stimuli_distractor_trianglediamonds.svg	2	yes	44	1	439	0	0			0	0			1				0	
6.6.1	mac	2023-06-27	15:35:50	15:43:12	438114	632881a28fcc3aae4da242e2	3	1	main_z	11	advance_on_keypress_ZEE	4	stimuli_target_rectanglediamonds.svg	stimuli_distractor_trianglediamonds.svg	2	yes	57	0	542	0	0			0	0			1				0	
6.6.1	mac	2023-06-27	15:35:50	15:43:15	441308	632881a28fcc3aae4da242e2	3	1	main_z	11	main_z	5	stimuli_distractor_trianglediamonds.svg	stimuli_distractor_diamondtriangles.svg	36	no	0	1	2000	0	0			0	0			1				0	
6.6.1	mac	2023-06-27	15:35:50	15:43:15	441308	632881a28fcc3aae4da242e2	3	1	main_z	11	advance_on_keypress_ZEE	6	stimuli_distractor_trianglediamonds.svg	stimuli_distractor_diamondtriangles.svg	36	no	57	0	331	0	0			0	0			1				0	
6.6.1	mac	2023-06-27	15:35:50	15:43:16	442725	632881a28fcc3aae4da242e2	3	1	main_z	11	main_z	7	stimuli_distractor_trianglediamonds.svg	stimuli_target_rectanglediamonds.svg	10	yes	44	1	434	0	0			0	0			1				0	
6.6.1	mac	2023-06-27	15:35:50	15:43:16	442725	632881a28fcc3aae4da242e2	3	1	main_z	11	advance_on_keypress_ZEE	8	stimuli_distractor_trianglediamonds.svg	stimuli_target_rectanglediamonds.svg	10	yes	57	0	531	0	0			0	0			1				0	
6.6.1	mac	2023-06-27	15:35:50	15:43:18	444357	632881a28fcc3aae4da242e2	3	1	main_z	11	main_z	9	stimuli_distractor_diamondtriangles.svg	stimuli_target_trianglerectangles.svg	29	yes	44	1	464	0	0			0	0			1				0	
6.6.1	mac	2023-06-27	15:35:50	15:43:18	444357	632881a28fcc3aae4da242e2	3	1	main_z	11	advance_on_keypress_ZEE	10	stimuli_distractor_diamondtriangles.svg	stimuli_target_trianglerectangles.svg	29	yes	57	0	400	0	0			0	0			1				0	
6.6.1	mac	2023-06-27	15:35:50	15:43:21	447391	632881a28fcc3aae4da242e2	3	1	main_z	11	main_z	11	stimuli_distractor_trianglediamonds.svg	stimuli_distractor_trianglediamonds.svg	33	no	0	1	2000	0	0			0	0			1				0	
6.6.1	mac	2023-06-27	15:35:50	15:43:21	447391	632881a28fcc3aae4da242e2	3	1	main_z	11	advance_on_keypress_ZEE	12	stimuli_distractor_trianglediamonds.svg	stimuli_distractor_trianglediamonds.svg	33	no	57	0	356	0	0			0	0			1				0	
6.6.1	mac	2023-06-27	15:35:50	15:43:23	448871	632881a28fcc3aae4da242e2	3	1	main_z	11	main_z	13	stimuli_target_squarediamonds.svg	stimuli_distractor_trianglediamonds.svg	4	yes	44	1	462	0	0			0	0			1				0	
6.6.1	mac	2023-06-27	15:35:50	15:43:23	448871	632881a28fcc3aae4da242e2	3	1	main_z	11	advance_on_keypress_ZEE	14	stimuli_target_squarediamonds.svg	stimuli_distractor_trianglediamonds.svg	4	yes	57	0	387	0	0			0	0			1				0	
6.6.1	mac	2023-06-27	15:35:50	15:43:24	450301	632881a28fcc3aae4da242e2	3	1	main_z	11	main_z	15	stimuli_distractor_diamondtriangles.svg	stimuli_target_rectanglediamonds.svg	14	yes	44	1	410	0	0			0	0			1				0	
6.6.1	mac	2023-06-27	15:35:50	15:43:24	450301	632881a28fcc3aae4da242e2	3	1	main_z	11	advance_on_keypress_ZEE	16	stimuli_distractor_diamondtriangles.svg	stimuli_target_rectanglediamonds.svg	14	yes	57	0	367	0	0			0	0			1				0	
6.6.1	mac	2023-06-27	15:35:50	15:43:25	451745	632881a28fcc3aae4da242e2	3	1	main_z	11	main_z	17	stimuli_distractor_trianglediamonds.svg	stimuli_target_squarediamonds.svg	12	yes	44	1	437	0	0			0	0			1				0	
6.6.1	mac	2023-06-27	15:35:50	15:43:25	451745	632881a28fcc3aae4da242e2	3	1	main_z	11	advance_on_keypress_ZEE	18	stimuli_distractor_trianglediamonds.svg	stimuli_target_squarediamonds.svg	12	yes	57	0	332	0	0			0	0			1				0	
6.6.1	mac	2023-06-27	15:35:50	15:43:27	453072	632881a28fcc3aae4da242e2	3	1	main_z	11	main_z	19	stimuli_distractor_diamondtriangles.svg	stimuli_target_squaretriangles.svg	15	yes	44	1	347	0	0			0	0			1				0	
6.6.1	mac	2023-06-27	15:35:50	15:43:27	453072	632881a28fcc3aae4da242e2	3	1	main_z	11	advance_on_keypress_ZEE	20	stimuli_distractor_diamondtriangles.svg	stimuli_target_squaretriangles.svg	15	yes	57	0	345	0	0			0	0			1				0	
6.6.1	mac	2023-06-27	15:35:50	15:43:28	454601	632881a28fcc3aae4da242e2	3	1	main_z	11	main_z	21	stimuli_target_trianglerectangles.svg	stimuli_distractor_trianglediamonds.svg	17	yes	44	1	543	0	0			0	0			1				0	
6.6.1	mac	2023-06-27	15:35:50	15:43:28	454601	632881a28fcc3aae4da242e2	3	1	main_z	11	advance_on_keypress_ZEE	22	stimuli_target_trianglerectangles.svg	stimuli_distractor_trianglediamonds.svg	17	yes	57	0	439	0	0			0	0			1				0	
6.6.1	mac	2023-06-27	15:35:50	15:43:30	456177	632881a28fcc3aae4da242e2	3	1	main_z	11	main_z	23	stimuli_target_diamondrectangles.svg	stimuli_distractor_diamondtriangles.svg	23	yes	44	1	486	0	0			0	0			1				0	
6.6.1	mac	2023-06-27	15:35:50	15:43:30	456177	632881a28fcc3aae4da242e2	3	1	main_z	11	advance_on_keypress_ZEE	24	stimuli_target_diamondrectangles.svg	stimuli_distractor_diamondtriangles.svg	23	yes	57	0	300	0	0			0	0			1				0	
6.6.1	mac	2023-06-27	15:35:50	15:43:31	457526	632881a28fcc3aae4da242e2	3	1	main_z	11	main_z	25	stimuli_target_trianglesquares.svg	stimuli_distractor_trianglediamonds.svg	18	yes	44	1	402	0	0			0	0			1				0	
6.6.1	mac	2023-06-27	15:35:50	15:43:31	457526	632881a28fcc3aae4da242e2	3	1	main_z	11	advance_on_keypress_ZEE	26	stimuli_target_trianglesquares.svg	stimuli_distractor_trianglediamonds.svg	18	yes	57	0	362	0	0			0	0			1				0	
6.6.1	mac	2023-06-27	15:35:50	15:43:34	460524	632881a28fcc3aae4da242e2	3	1	main_z	11	main_z	27	stimuli_distractor_diamondtriangles.svg	stimuli_distractor_diamondtriangles.svg	40	no	0	1	2000	0	0			0	0			1				0	
6.6.1	mac	2023-06-27	15:35:50	15:43:34	460524	632881a28fcc3aae4da242e2	3	1	main_z	11	advance_on_keypress_ZEE	28	stimuli_distractor_diamondtriangles.svg	stimuli_distractor_diamondtriangles.svg	40	no	57	0	333	0	0			0	0			1				0	
6.6.1	mac	2023-06-27	15:35:50	15:43:36	461934	632881a28fcc3aae4da242e2	3	1	main_z	11	main_z	29	stimuli_distractor_trianglediamonds.svg	stimuli_target_rectangletriangles.svg	9	yes	44	1	426	0	0			0	0			1				0	
6.6.1	mac	2023-06-27	15:35:50	15:43:36	461934	632881a28fcc3aae4da242e2	3	1	main_z	11	advance_on_keypress_ZEE	30	stimuli_distractor_trianglediamonds.svg	stimuli_target_rectangletriangles.svg	9	yes	57	0	356	0	0			0	0			1				0	
6.6.1	mac	2023-06-27	15:35:50	15:43:37	463542	632881a28fcc3aae4da242e2	3	1	main_z	11	main_z	31	stimuli_distractor_diamondtriangles.svg	stimuli_target_trianglesquares.svg	30	yes	44	1	602	0	0			0	0			1				0	
6.6.1	mac	2023-06-27	15:35:50	15:43:37	463542	632881a28fcc3aae4da242e2	3	1	main_z	11	advance_on_keypress_ZEE	32	stimuli_distractor_diamondtriangles.svg	stimuli_target_trianglesquares.svg	30	yes	57	0	1045	0	0			0	0			1				0	
6.6.1	mac	2023-06-27	15:35:50	15:43:40	465993	632881a28fcc3aae4da242e2	3	1	main_z	11	main_z	33	stimuli_target_diamondsquares.svg	stimuli_distractor_trianglediamonds.svg	20	yes	44	1	768	0	0			0	0			1				0	
6.6.1	mac	2023-06-27	15:35:50	15:43:40	465993	632881a28fcc3aae4da242e2	3	1	main_z	11	advance_on_keypress_ZEE	34	stimuli_target_diamondsquares.svg	stimuli_distractor_trianglediamonds.svg	20	yes	57	0	805	0	0			0	0			1				0	
6.6.1	mac	2023-06-27	15:35:50	15:43:42	468044	632881a28fcc3aae4da242e2	3	1	main_z	11	main_z	35	stimuli_target_rectangletriangles.svg	stimuli_distractor_trianglediamonds.svg	1	yes	44	1	603	0	0			0	0			1				0	
6.6.1	mac	2023-06-27	15:35:50	15:43:42	468044	632881a28fcc3aae4da242e2	3	1	main_z	11	advance_on_keypress_ZEE	36	stimuli_target_rectangletriangles.svg	stimuli_distractor_trianglediamonds.svg	1	yes	57	0	299	0	0			0	0			1				0	
6.6.1	mac	2023-06-27	15:35:50	15:43:43	469479	632881a28fcc3aae4da242e2	3	1	main_z	11	main_z	37	stimuli_target_trianglerectangles.svg	stimuli_distractor_diamondtriangles.svg	21	yes	44	1	503	0	0			0	0			1				0	
6.6.1	mac	2023-06-27	15:35:50	15:43:43	469479	632881a28fcc3aae4da242e2	3	1	main_z	11	advance_on_keypress_ZEE	38	stimuli_target_trianglerectangles.svg	stimuli_distractor_diamondtriangles.svg	21	yes	57	0	294	0	0			0	0			1				0	
6.6.1	mac	2023-06-27	15:35:50	15:43:46	472424	632881a28fcc3aae4da242e2	3	1	main_z	11	main_z	39	stimuli_distractor_diamondtriangles.svg	stimuli_distractor_trianglediamonds.svg	37	no	0	1	2000	0	0			0	0			1				0	
6.6.1	mac	2023-06-27	15:35:50	15:43:46	472424	632881a28fcc3aae4da242e2	3	1	main_z	11	advance_on_keypress_ZEE	40	stimuli_distractor_diamondtriangles.svg	stimuli_distractor_trianglediamonds.svg	37	no	57	0	345	0	0			0	0			1				0	
6.6.1	mac	2023-06-27	15:35:50	15:43:47	473826	632881a28fcc3aae4da242e2	3	1	main_z	11	main_z	41	stimuli_distractor_trianglediamonds.svg	stimuli_target_diamondrectangles.svg	27	yes	44	1	401	0	0			0	0			1				0	
6.6.1	mac	2023-06-27	15:35:50	15:43:47	473826	632881a28fcc3aae4da242e2	3	1	main_z	11	advance_on_keypress_ZEE	42	stimuli_distractor_trianglediamonds.svg	stimuli_target_diamondrectangles.svg	27	yes	57	0	309	0	0			0	0			1				0	
6.6.1	mac	2023-06-27	15:35:50	15:43:49	475111	632881a28fcc3aae4da242e2	3	1	main_z	11	main_z	43	stimuli_distractor_trianglediamonds.svg	stimuli_target_squaretriangles.svg	11	yes	44	1	335	0	0			0	0			1				0	
6.6.1	mac	2023-06-27	15:35:50	15:43:49	475111	632881a28fcc3aae4da242e2	3	1	main_z	11	advance_on_keypress_ZEE	44	stimuli_distractor_trianglediamonds.svg	stimuli_target_squaretriangles.svg	11	yes	57	0	346	0	0			0	0			1				0	
6.6.1	mac	2023-06-27	15:35:50	15:43:50	476621	632881a28fcc3aae4da242e2	3	1	main_z	11	main_z	45	stimuli_distractor_trianglediamonds.svg	stimuli_target_trianglesquares.svg	26	yes	44	1	530	0	0			0	0			1				0	
6.6.1	mac	2023-06-27	15:35:50	15:43:50	476621	632881a28fcc3aae4da242e2	3	1	main_z	11	advance_on_keypress_ZEE	46	stimuli_distractor_trianglediamonds.svg	stimuli_target_trianglesquares.svg	26	yes	57	0	249	0	0			0	0			1				0	
6.6.1	mac	2023-06-27	15:35:50	15:43:52	477890	632881a28fcc3aae4da242e2	3	1	main_z	11	main_z	47	stimuli_target_squarediamonds.svg	stimuli_distractor_diamondtriangles.svg	8	yes	44	1	384	0	0			0	0			1				0	
6.6.1	mac	2023-06-27	15:35:50	15:43:52	477890	632881a28fcc3aae4da242e2	3	1	main_z	11	advance_on_keypress_ZEE	48	stimuli_target_squarediamonds.svg	stimuli_distractor_diamondtriangles.svg	8	yes	57	0	365	0	0			0	0			1				0	
6.6.1	mac	2023-06-27	15:35:50	15:43:53	479622	632881a28fcc3aae4da242e2	3	1	main_z	11	main_z	49	stimuli_target_trianglesquares.svg	stimuli_distractor_diamondtriangles.svg	22	yes	44	1	730	0	0			0	0			1				0	
6.6.1	mac	2023-06-27	15:35:50	15:43:53	479622	632881a28fcc3aae4da242e2	3	1	main_z	11	advance_on_keypress_ZEE	50	stimuli_target_trianglesquares.svg	stimuli_distractor_diamondtriangles.svg	22	yes	57	0	326	0	0			0	0			1				0	
6.6.1	mac	2023-06-27	15:35:50	15:43:55	481088	632881a28fcc3aae4da242e2	3	1	main_z	11	main_z	51	stimuli_distractor_diamondtriangles.svg	stimuli_target_rectangletriangles.svg	13	yes	44	1	496	0	0			0	0			1				0	
6.6.1	mac	2023-06-27	15:35:50	15:43:55	481088	632881a28fcc3aae4da242e2	3	1	main_z	11	advance_on_keypress_ZEE	52	stimuli_distractor_diamondtriangles.svg	stimuli_target_rectangletriangles.svg	13	yes	57	0	296	0	0			0	0			1				0	
6.6.1	mac	2023-06-27	15:35:50	15:43:56	482534	632881a28fcc3aae4da242e2	3	1	main_z	11	main_z	53	stimuli_distractor_diamondtriangles.svg	stimuli_target_diamondsquares.svg	32	yes	44	1	508	0	0			0	0			1				0	
6.6.1	mac	2023-06-27	15:35:50	15:43:56	482534	632881a28fcc3aae4da242e2	3	1	main_z	11	advance_on_keypress_ZEE	54	stimuli_distractor_diamondtriangles.svg	stimuli_target_diamondsquares.svg	32	yes	57	0	272	0	0			0	0			1				0	
6.6.1	mac	2023-06-27	15:35:50	15:43:58	483908	632881a28fcc3aae4da242e2	3	1	main_z	11	main_z	55	stimuli_distractor_diamondtriangles.svg	stimuli_target_squarediamonds.svg	16	yes	44	1	451	0	0			0	0			1				0	
6.6.1	mac	2023-06-27	15:35:50	15:43:58	483908	632881a28fcc3aae4da242e2	3	1	main_z	11	advance_on_keypress_ZEE	56	stimuli_distractor_diamondtriangles.svg	stimuli_target_squarediamonds.svg	16	yes	57	0	419	0	0			0	0			1				0	
6.6.1	mac	2023-06-27	15:35:50	15:43:59	485527	632881a28fcc3aae4da242e2	3	1	main_z	11	main_z	57	stimuli_target_rectangletriangles.svg	stimuli_distractor_diamondtriangles.svg	5	yes	44	1	569	0	0			0	0			1				0	
6.6.1	mac	2023-06-27	15:35:50	15:43:59	485527	632881a28fcc3aae4da242e2	3	1	main_z	11	advance_on_keypress_ZEE	58	stimuli_target_rectangletriangles.svg	stimuli_distractor_diamondtriangles.svg	5	yes	57	0	465	0	0			0	0			1				0	
6.6.1	mac	2023-06-27	15:35:50	15:44:02	488624	632881a28fcc3aae4da242e2	3	1	main_z	11	main_z	59	stimuli_distractor_diamondtriangles.svg	stimuli_distractor_diamondtriangles.svg	39	no	0	1	2000	0	0			0	0			1				0	
6.6.1	mac	2023-06-27	15:35:50	15:44:02	488624	632881a28fcc3aae4da242e2	3	1	main_z	11	advance_on_keypress_ZEE	60	stimuli_distractor_diamondtriangles.svg	stimuli_distractor_diamondtriangles.svg	39	no	57	0	375	0	0			0	0			1				0	
6.6.1	mac	2023-06-27	15:35:50	15:44:04	490088	632881a28fcc3aae4da242e2	3	1	main_z	11	main_z	61	stimuli_distractor_trianglediamonds.svg	stimuli_target_diamondsquares.svg	28	yes	44	1	429	0	0			0	0			1				0	
6.6.1	mac	2023-06-27	15:35:50	15:44:04	490088	632881a28fcc3aae4da242e2	3	1	main_z	11	advance_on_keypress_ZEE	62	stimuli_distractor_trianglediamonds.svg	stimuli_target_diamondsquares.svg	28	yes	57	0	229	0	0			0	0			1				0	
6.6.1	mac	2023-06-27	15:35:50	15:44:05	491368	632881a28fcc3aae4da242e2	3	1	main_z	11	main_z	63	stimuli_distractor_trianglediamonds.svg	stimuli_target_trianglerectangles.svg	25	yes	44	1	410	0	0			0	0			1				0	
6.6.1	mac	2023-06-27	15:35:50	15:44:05	491368	632881a28fcc3aae4da242e2	3	1	main_z	11	advance_on_keypress_ZEE	64	stimuli_distractor_trianglediamonds.svg	stimuli_target_trianglerectangles.svg	25	yes	57	0	253	0	0			0	0			1				0	
6.6.1	mac	2023-06-27	15:35:50	15:44:07	492864	632881a28fcc3aae4da242e2	3	1	main_z	11	main_z	65	stimuli_target_rectanglediamonds.svg	stimuli_distractor_diamondtriangles.svg	6	yes	44	1	605	0	0			0	0			1				0	
6.6.1	mac	2023-06-27	15:35:50	15:44:07	492864	632881a28fcc3aae4da242e2	3	1	main_z	11	advance_on_keypress_ZEE	66	stimuli_target_rectanglediamonds.svg	stimuli_distractor_diamondtriangles.svg	6	yes	57	0	326	0	0			0	0			1				0	
6.6.1	mac	2023-06-27	15:35:50	15:44:08	494549	632881a28fcc3aae4da242e2	3	1	main_z	11	main_z	67	stimuli_target_diamondrectangles.svg	stimuli_distractor_trianglediamonds.svg	19	yes	44	1	707	0	0			0	0			1				0	
6.6.1	mac	2023-06-27	15:35:50	15:44:08	494549	632881a28fcc3aae4da242e2	3	1	main_z	11	advance_on_keypress_ZEE	68	stimuli_target_diamondrectangles.svg	stimuli_distractor_trianglediamonds.svg	19	yes	57	0	258	0	0			0	0			1				0	
6.6.1	mac	2023-06-27	15:35:50	15:44:10	495992	632881a28fcc3aae4da242e2	3	1	main_z	11	main_z	69	stimuli_target_squaretriangles.svg	stimuli_distractor_trianglediamonds.svg	3	yes	44	1	534	0	0			0	0			1				0	
6.6.1	mac	2023-06-27	15:35:50	15:44:10	495992	632881a28fcc3aae4da242e2	3	1	main_z	11	advance_on_keypress_ZEE	70	stimuli_target_squaretriangles.svg	stimuli_distractor_trianglediamonds.svg	3	yes	57	0	230	0	0			0	0			1				0	
6.6.1	mac	2023-06-27	15:35:50	15:44:11	497501	632881a28fcc3aae4da242e2	3	1	main_z	11	main_z	71	stimuli_target_diamondsquares.svg	stimuli_distractor_diamondtriangles.svg	24	yes	44	1	643	0	0			0	0			1				0	
6.6.1	mac	2023-06-27	15:35:50	15:44:11	497501	632881a28fcc3aae4da242e2	3	1	main_z	11	advance_on_keypress_ZEE	72	stimuli_target_diamondsquares.svg	stimuli_distractor_diamondtriangles.svg	24	yes	57	0	194	0	0			0	0			1				0	
6.6.1	mac	2023-06-27	15:35:50	15:44:14	500341	632881a28fcc3aae4da242e2	3	1	main_z	11	main_z	73	stimuli_distractor_trianglediamonds.svg	stimuli_distractor_trianglediamonds.svg	34	no	0	1	2000	0	0			0	0			1				0	
6.6.1	mac	2023-06-27	15:35:50	15:44:14	500341	632881a28fcc3aae4da242e2	3	1	main_z	11	advance_on_keypress_ZEE	74	stimuli_distractor_trianglediamonds.svg	stimuli_distractor_trianglediamonds.svg	34	no	57	0	386	0	0			0	0			1				0	
6.6.1	mac	2023-06-27	15:35:50	15:44:15	501825	632881a28fcc3aae4da242e2	3	1	main_z	11	main_z	75	stimuli_target_squaretriangles.svg	stimuli_distractor_diamondtriangles.svg	7	yes	44	1	450	0	0			0	0			1				0	
6.6.1	mac	2023-06-27	15:35:50	15:44:15	501825	632881a28fcc3aae4da242e2	3	1	main_z	11	advance_on_keypress_ZEE	76	stimuli_target_squaretriangles.svg	stimuli_distractor_diamondtriangles.svg	7	yes	57	0	330	0	0			0	0			1				0	
6.6.1	mac	2023-06-27	15:35:50	15:44:18	504791	632881a28fcc3aae4da242e2	3	1	main_z	11	main_z	77	stimuli_distractor_trianglediamonds.svg	stimuli_distractor_diamondtriangles.svg	35	no	0	1	2000	0	0			0	0			1				0	
6.6.1	mac	2023-06-27	15:35:50	15:44:18	504791	632881a28fcc3aae4da242e2	3	1	main_z	11	advance_on_keypress_ZEE	78	stimuli_distractor_trianglediamonds.svg	stimuli_distractor_diamondtriangles.svg	35	no	57	0	330	0	0			0	0			1				0	
6.6.1	mac	2023-06-27	15:35:50	15:44:20	506208	632881a28fcc3aae4da242e2	3	1	main_z	11	main_z	79	stimuli_distractor_diamondtriangles.svg	stimuli_target_diamondrectangles.svg	31	yes	44	1	433	0	0			0	0			1				0	
6.6.1	mac	2023-06-27	15:35:50	15:44:20	506208	632881a28fcc3aae4da242e2	3	1	main_z	11	advance_on_keypress_ZEE	80	stimuli_distractor_diamondtriangles.svg	stimuli_target_diamondrectangles.svg	31	yes	57	0	254	0	0			0	0			1				0	
6.6.1	mac	2023-06-27	15:35:50	15:44:23	509091	632881a28fcc3aae4da242e2	3	1	main_z	11	main_z	81	stimuli_distractor_trianglediamonds.svg	stimuli_distractor_trianglediamonds.svg	33	no	0	1	2000	0	0			0	0			1				0	
6.6.1	mac	2023-06-27	15:35:50	15:44:23	509091	632881a28fcc3aae4da242e2	3	1	main_z	11	advance_on_keypress_ZEE	82	stimuli_distractor_trianglediamonds.svg	stimuli_distractor_trianglediamonds.svg	33	no	57	0	393	0	0			0	0			1				0	
6.6.1	mac	2023-06-27	15:35:50	15:44:24	510575	632881a28fcc3aae4da242e2	3	1	main_z	11	main_z	83	stimuli_distractor_diamondtriangles.svg	stimuli_target_rectanglediamonds.svg	14	yes	44	1	434	0	0			0	0			1				0	
6.6.1	mac	2023-06-27	15:35:50	15:44:24	510575	632881a28fcc3aae4da242e2	3	1	main_z	11	advance_on_keypress_ZEE	84	stimuli_distractor_diamondtriangles.svg	stimuli_target_rectanglediamonds.svg	14	yes	57	0	183	0	0			0	0			1				0	
6.6.1	mac	2023-06-27	15:35:50	15:44:25	511817	632881a28fcc3aae4da242e2	3	1	main_z	11	main_z	85	stimuli_distractor_trianglediamonds.svg	stimuli_target_trianglerectangles.svg	25	yes	44	1	426	0	0			0	0			1				0	
6.6.1	mac	2023-06-27	15:35:50	15:44:25	511817	632881a28fcc3aae4da242e2	3	1	main_z	11	advance_on_keypress_ZEE	86	stimuli_distractor_trianglediamonds.svg	stimuli_target_trianglerectangles.svg	25	yes	57	0	204	0	0			0	0			1				0	
6.6.1	mac	2023-06-27	15:35:50	15:44:27	513055	632881a28fcc3aae4da242e2	3	1	main_z	11	main_z	87	stimuli_target_squarediamonds.svg	stimuli_distractor_trianglediamonds.svg	4	yes	44	1	397	0	0			0	0			1				0	
6.6.1	mac	2023-06-27	15:35:50	15:44:27	513055	632881a28fcc3aae4da242e2	3	1	main_z	11	advance_on_keypress_ZEE	88	stimuli_target_squarediamonds.svg	stimuli_distractor_trianglediamonds.svg	4	yes	57	0	185	0	0			0	0			1				0	
6.6.1	mac	2023-06-27	15:35:50	15:44:28	514256	632881a28fcc3aae4da242e2	3	1	main_z	11	main_z	89	stimuli_target_rectangletriangles.svg	stimuli_distractor_diamondtriangles.svg	5	yes	44	1	384	0	0			0	0			1				0	
6.6.1	mac	2023-06-27	15:35:50	15:44:28	514256	632881a28fcc3aae4da242e2	3	1	main_z	11	advance_on_keypress_ZEE	90	stimuli_target_rectangletriangles.svg	stimuli_distractor_diamondtriangles.svg	5	yes	57	0	194	0	0			0	0			1				0	
6.6.1	mac	2023-06-27	15:35:50	15:44:29	515669	632881a28fcc3aae4da242e2	3	1	main_z	11	main_z	91	stimuli_target_trianglerectangles.svg	stimuli_distractor_trianglediamonds.svg	17	yes	44	1	578	0	0			0	0			1				0	
6.6.1	mac	2023-06-27	15:35:50	15:44:29	515669	632881a28fcc3aae4da242e2	3	1	main_z	11	advance_on_keypress_ZEE	92	stimuli_target_trianglerectangles.svg	stimuli_distractor_trianglediamonds.svg	17	yes	57	0	182	0	0			0	0			1				0	
6.6.1	mac	2023-06-27	15:35:50	15:44:31	516986	632881a28fcc3aae4da242e2	3	1	main_z	11	main_z	93	stimuli_target_trianglesquares.svg	stimuli_distractor_diamondtriangles.svg	22	yes	44	1	495	0	0			0	0			1				0	
6.6.1	mac	2023-06-27	15:35:50	15:44:31	516986	632881a28fcc3aae4da242e2	3	1	main_z	11	advance_on_keypress_ZEE	94	stimuli_target_trianglesquares.svg	stimuli_distractor_diamondtriangles.svg	22	yes	57	0	215	0	0			0	0			1				0	
6.6.1	mac	2023-06-27	15:35:50	15:44:32	518369	632881a28fcc3aae4da242e2	3	1	main_z	11	main_z	95	stimuli_distractor_trianglediamonds.svg	stimuli_target_trianglesquares.svg	26	yes	44	1	523	0	0			0	0			1				0	
6.6.1	mac	2023-06-27	15:35:50	15:44:32	518369	632881a28fcc3aae4da242e2	3	1	main_z	11	advance_on_keypress_ZEE	96	stimuli_distractor_trianglediamonds.svg	stimuli_target_trianglesquares.svg	26	yes	57	0	206	0	0			0	0			1				0	
6.6.1	mac	2023-06-27	15:35:50	15:44:33	519664	632881a28fcc3aae4da242e2	3	1	main_z	11	main_z	97	stimuli_target_diamondsquares.svg	stimuli_distractor_diamondtriangles.svg	24	yes	44	1	439	0	0			0	0			1				0	
6.6.1	mac	2023-06-27	15:35:50	15:44:33	519664	632881a28fcc3aae4da242e2	3	1	main_z	11	advance_on_keypress_ZEE	98	stimuli_target_diamondsquares.svg	stimuli_distractor_diamondtriangles.svg	24	yes	57	0	139	0	0			0	0			1				0	
6.6.1	mac	2023-06-27	15:35:50	15:44:35	520918	632881a28fcc3aae4da242e2	3	1	main_z	11	main_z	99	stimuli_distractor_trianglediamonds.svg	stimuli_target_squaretriangles.svg	11	yes	44	1	460	0	0			0	0			1				0	
6.6.1	mac	2023-06-27	15:35:50	15:44:35	520918	632881a28fcc3aae4da242e2	3	1	main_z	11	advance_on_keypress_ZEE	100	stimuli_distractor_trianglediamonds.svg	stimuli_target_squaretriangles.svg	11	yes	57	0	379	0	0			0	0			1				0	
6.6.1	mac	2023-06-27	15:35:50	15:44:38	523941	632881a28fcc3aae4da242e2	3	1	main_z	11	main_z	101	stimuli_distractor_diamondtriangles.svg	stimuli_distractor_trianglediamonds.svg	38	no	0	1	2000	0	0			0	0			1				0	
6.6.1	mac	2023-06-27	15:35:50	15:44:38	523941	632881a28fcc3aae4da242e2	3	1	main_z	11	advance_on_keypress_ZEE	102	stimuli_distractor_diamondtriangles.svg	stimuli_distractor_trianglediamonds.svg	38	no	57	0	373	0	0			0	0			1				0	
6.6.1	mac	2023-06-27	15:35:50	15:44:39	525472	632881a28fcc3aae4da242e2	3	1	main_z	11	main_z	103	stimuli_distractor_diamondtriangles.svg	stimuli_target_rectangletriangles.svg	13	yes	44	1	498	0	0			0	0			1				0	
6.6.1	mac	2023-06-27	15:35:50	15:44:39	525472	632881a28fcc3aae4da242e2	3	1	main_z	11	advance_on_keypress_ZEE	104	stimuli_distractor_diamondtriangles.svg	stimuli_target_rectangletriangles.svg	13	yes	57	0	131	0	0			0	0			1				0	
6.6.1	mac	2023-06-27	15:35:50	15:44:40	526638	632881a28fcc3aae4da242e2	3	1	main_z	11	main_z	105	stimuli_distractor_trianglediamonds.svg	stimuli_target_diamondsquares.svg	28	yes	44	1	397	0	0			0	0			1				0	
6.6.1	mac	2023-06-27	15:35:50	15:44:40	526638	632881a28fcc3aae4da242e2	3	1	main_z	11	advance_on_keypress_ZEE	106	stimuli_distractor_trianglediamonds.svg	stimuli_target_diamondsquares.svg	28	yes	57	0	152	0	0			0	0			1				0	
6.6.1	mac	2023-06-27	15:35:50	15:44:43	529424	632881a28fcc3aae4da242e2	3	1	main_z	11	main_z	107	stimuli_distractor_diamondtriangles.svg	stimuli_distractor_diamondtriangles.svg	40	no	0	1	2000	0	0			0	0			1				0	
6.6.1	mac	2023-06-27	15:35:50	15:44:43	529424	632881a28fcc3aae4da242e2	3	1	main_z	11	advance_on_keypress_ZEE	108	stimuli_distractor_diamondtriangles.svg	stimuli_distractor_diamondtriangles.svg	40	no	57	0	3666	0	0			0	0			1				0	
6.6.1	mac	2023-06-27	15:35:50	15:44:48	534183	632881a28fcc3aae4da242e2	3	1	main_z	11	main_z	109	stimuli_target_diamondrectangles.svg	stimuli_distractor_diamondtriangles.svg	23	yes	44	1	426	0	0			0	0			1				0	
6.6.1	mac	2023-06-27	15:35:50	15:44:48	534183	632881a28fcc3aae4da242e2	3	1	main_z	11	advance_on_keypress_ZEE	110	stimuli_target_diamondrectangles.svg	stimuli_distractor_diamondtriangles.svg	23	yes	57	0	131	0	0			0	0			1				0	
6.6.1	mac	2023-06-27	15:35:50	15:44:49	535332	632881a28fcc3aae4da242e2	3	1	main_z	11	main_z	111	stimuli_target_squaretriangles.svg	stimuli_distractor_trianglediamonds.svg	3	yes	44	1	375	0	0			0	0			1				0	
6.6.1	mac	2023-06-27	15:35:50	15:44:49	535332	632881a28fcc3aae4da242e2	3	1	main_z	11	advance_on_keypress_ZEE	112	stimuli_target_squaretriangles.svg	stimuli_distractor_trianglediamonds.svg	3	yes	57	0	139	0	0			0	0			1				0	
6.6.1	mac	2023-06-27	15:35:50	15:44:50	536580	632881a28fcc3aae4da242e2	3	1	main_z	11	main_z	113	stimuli_target_trianglerectangles.svg	stimuli_distractor_diamondtriangles.svg	21	yes	44	1	454	0	0			0	0			1				0	
6.6.1	mac	2023-06-27	15:35:50	15:44:50	536580	632881a28fcc3aae4da242e2	3	1	main_z	11	advance_on_keypress_ZEE	114	stimuli_target_trianglerectangles.svg	stimuli_distractor_diamondtriangles.svg	21	yes	57	0	127	0	0			0	0			1				0	
6.6.1	mac	2023-06-27	15:35:50	15:44:51	537769	632881a28fcc3aae4da242e2	3	1	main_z	11	main_z	115	stimuli_distractor_trianglediamonds.svg	stimuli_distractor_diamondtriangles.svg	36	no	44	0	412	0	0			0	0			1				0	
6.6.1	mac	2023-06-27	15:35:50	15:44:51	537769	632881a28fcc3aae4da242e2	3	1	main_z	11	advance_on_keypress_ZEE	116	stimuli_distractor_trianglediamonds.svg	stimuli_distractor_diamondtriangles.svg	36	no	57	0	2110	0	0			0	0			1				0	
6.6.1	mac	2023-06-27	15:35:50	15:44:55	541012	632881a28fcc3aae4da242e2	3	1	main_z	11	main_z	117	stimuli_distractor_trianglediamonds.svg	stimuli_target_rectanglediamonds.svg	10	yes	44	1	470	0	0			0	0			1				0	
6.6.1	mac	2023-06-27	15:35:50	15:44:55	541012	632881a28fcc3aae4da242e2	3	1	main_z	11	advance_on_keypress_ZEE	118	stimuli_distractor_trianglediamonds.svg	stimuli_target_rectanglediamonds.svg	10	yes	57	0	186	0	0			0	0			1				0	
6.6.1	mac	2023-06-27	15:35:50	15:44:56	542305	632881a28fcc3aae4da242e2	3	1	main_z	11	main_z	119	stimuli_target_rectanglediamonds.svg	stimuli_distractor_diamondtriangles.svg	6	yes	44	1	480	0	0			0	0			1				0	
6.6.1	mac	2023-06-27	15:35:50	15:44:56	542305	632881a28fcc3aae4da242e2	3	1	main_z	11	advance_on_keypress_ZEE	120	stimuli_target_rectanglediamonds.svg	stimuli_distractor_diamondtriangles.svg	6	yes	57	0	448	0	0			0	0			1				0	
6.6.1	mac	2023-06-27	15:35:50	15:44:57	543812	632881a28fcc3aae4da242e2	3	1	main_z	11	main_z	121	stimuli_target_rectangletriangles.svg	stimuli_distractor_trianglediamonds.svg	1	yes	44	1	420	0	0			0	0			1				0	
6.6.1	mac	2023-06-27	15:35:50	15:44:57	543812	632881a28fcc3aae4da242e2	3	1	main_z	11	advance_on_keypress_ZEE	122	stimuli_target_rectangletriangles.svg	stimuli_distractor_trianglediamonds.svg	1	yes	57	0	176	0	0			0	0			1				0	
6.6.1	mac	2023-06-27	15:35:50	15:45:00	546623	632881a28fcc3aae4da242e2	3	1	main_z	11	main_z	123	stimuli_distractor_trianglediamonds.svg	stimuli_distractor_diamondtriangles.svg	35	no	0	1	2000	0	0			0	0			1				0	
6.6.1	mac	2023-06-27	15:35:50	15:45:00	546623	632881a28fcc3aae4da242e2	3	1	main_z	11	advance_on_keypress_ZEE	124	stimuli_distractor_trianglediamonds.svg	stimuli_distractor_diamondtriangles.svg	35	no	57	0	305	0	0			0	0			1				0	
6.6.1	mac	2023-06-27	15:35:50	15:45:03	549590	632881a28fcc3aae4da242e2	3	1	main_z	11	main_z	125	stimuli_distractor_diamondtriangles.svg	stimuli_distractor_diamondtriangles.svg	39	no	0	1	2000	0	0			0	0			1				0	
6.6.1	mac	2023-06-27	15:35:50	15:45:03	549590	632881a28fcc3aae4da242e2	3	1	main_z	11	advance_on_keypress_ZEE	126	stimuli_distractor_diamondtriangles.svg	stimuli_distractor_diamondtriangles.svg	39	no	57	0	260	0	0			0	0			1				0	
6.6.1	mac	2023-06-27	15:35:50	15:45:05	550980	632881a28fcc3aae4da242e2	3	1	main_z	11	main_z	127	stimuli_distractor_diamondtriangles.svg	stimuli_target_squarediamonds.svg	16	yes	44	1	472	0	0			0	0			1				0	
6.6.1	mac	2023-06-27	15:35:50	15:45:05	550980	632881a28fcc3aae4da242e2	3	1	main_z	11	advance_on_keypress_ZEE	128	stimuli_distractor_diamondtriangles.svg	stimuli_target_squarediamonds.svg	16	yes	57	0	206	0	0			0	0			1				0	
6.6.1	mac	2023-06-27	15:35:50	15:45:06	552359	632881a28fcc3aae4da242e2	3	1	main_z	11	main_z	129	stimuli_distractor_trianglediamonds.svg	stimuli_target_diamondrectangles.svg	27	yes	44	1	520	0	0			0	0			1				0	
6.6.1	mac	2023-06-27	15:35:50	15:45:06	552359	632881a28fcc3aae4da242e2	3	1	main_z	11	advance_on_keypress_ZEE	130	stimuli_distractor_trianglediamonds.svg	stimuli_target_diamondrectangles.svg	27	yes	57	0	181	0	0			0	0			1				0	
6.6.1	mac	2023-06-27	15:35:50	15:45:07	553721	632881a28fcc3aae4da242e2	3	1	main_z	11	main_z	131	stimuli_target_squarediamonds.svg	stimuli_distractor_diamondtriangles.svg	8	yes	44	1	547	0	0			0	0			1				0	
6.6.1	mac	2023-06-27	15:35:50	15:45:07	553721	632881a28fcc3aae4da242e2	3	1	main_z	11	advance_on_keypress_ZEE	132	stimuli_target_squarediamonds.svg	stimuli_distractor_diamondtriangles.svg	8	yes	57	0	140	0	0			0	0			1				0	
6.6.1	mac	2023-06-27	15:35:50	15:45:10	556506	632881a28fcc3aae4da242e2	3	1	main_z	11	main_z	133	stimuli_distractor_diamondtriangles.svg	stimuli_distractor_trianglediamonds.svg	37	no	0	1	2000	0	0			0	0			1				0	
6.6.1	mac	2023-06-27	15:35:50	15:45:10	556506	632881a28fcc3aae4da242e2	3	1	main_z	11	advance_on_keypress_ZEE	134	stimuli_distractor_diamondtriangles.svg	stimuli_distractor_trianglediamonds.svg	37	no	57	0	479	0	0			0	0			1				0	
6.6.1	mac	2023-06-27	15:35:50	15:45:12	558252	632881a28fcc3aae4da242e2	3	1	main_z	11	main_z	135	stimuli_target_rectanglediamonds.svg	stimuli_distractor_trianglediamonds.svg	2	yes	44	1	609	0	0			0	0			1				0	
6.6.1	mac	2023-06-27	15:35:50	15:45:12	558252	632881a28fcc3aae4da242e2	3	1	main_z	11	advance_on_keypress_ZEE	136	stimuli_target_rectanglediamonds.svg	stimuli_distractor_trianglediamonds.svg	2	yes	57	0	320	0	0			0	0			1				0	
6.6.1	mac	2023-06-27	15:35:50	15:45:13	559806	632881a28fcc3aae4da242e2	3	1	main_z	11	main_z	137	stimuli_distractor_diamondtriangles.svg	stimuli_target_diamondrectangles.svg	31	yes	44	1	582	0	0			0	0			1				0	
6.6.1	mac	2023-06-27	15:35:50	15:45:13	559806	632881a28fcc3aae4da242e2	3	1	main_z	11	advance_on_keypress_ZEE	138	stimuli_distractor_diamondtriangles.svg	stimuli_target_diamondrectangles.svg	31	yes	57	0	350	0	0			0	0			1				0	
6.6.1	mac	2023-06-27	15:35:50	15:45:15	561256	632881a28fcc3aae4da242e2	3	1	main_z	11	main_z	139	stimuli_distractor_trianglediamonds.svg	stimuli_target_squarediamonds.svg	12	yes	44	1	465	0	0			0	0			1				0	
6.6.1	mac	2023-06-27	15:35:50	15:45:15	561256	632881a28fcc3aae4da242e2	3	1	main_z	11	advance_on_keypress_ZEE	140	stimuli_distractor_trianglediamonds.svg	stimuli_target_squarediamonds.svg	12	yes	57	0	139	0	0			0	0			1				0	
6.6.1	mac	2023-06-27	15:35:50	15:45:16	562458	632881a28fcc3aae4da242e2	3	1	main_z	11	main_z	141	stimuli_target_diamondsquares.svg	stimuli_distractor_trianglediamonds.svg	20	yes	44	1	416	0	0			0	0			1				0	
6.6.1	mac	2023-06-27	15:35:50	15:45:16	562458	632881a28fcc3aae4da242e2	3	1	main_z	11	advance_on_keypress_ZEE	142	stimuli_target_diamondsquares.svg	stimuli_distractor_trianglediamonds.svg	20	yes	57	0	291	0	0			0	0			1				0	
6.6.1	mac	2023-06-27	15:35:50	15:45:17	563820	632881a28fcc3aae4da242e2	3	1	main_z	11	main_z	143	stimuli_target_diamondrectangles.svg	stimuli_distractor_trianglediamonds.svg	19	yes	44	1	429	0	0			0	0			1				0	
6.6.1	mac	2023-06-27	15:35:50	15:45:17	563820	632881a28fcc3aae4da242e2	3	1	main_z	11	advance_on_keypress_ZEE	144	stimuli_target_diamondrectangles.svg	stimuli_distractor_trianglediamonds.svg	19	yes	57	0	135	0	0			0	0			1				0	
6.6.1	mac	2023-06-27	15:35:50	15:45:19	565055	632881a28fcc3aae4da242e2	3	1	main_z	11	main_z	145	stimuli_target_squaretriangles.svg	stimuli_distractor_diamondtriangles.svg	7	yes	44	1	464	0	0			0	0			1				0	
6.6.1	mac	2023-06-27	15:35:50	15:45:19	565055	632881a28fcc3aae4da242e2	3	1	main_z	11	advance_on_keypress_ZEE	146	stimuli_target_squaretriangles.svg	stimuli_distractor_diamondtriangles.svg	7	yes	57	0	173	0	0			0	0			1				0	
6.6.1	mac	2023-06-27	15:35:50	15:45:20	566420	632881a28fcc3aae4da242e2	3	1	main_z	11	main_z	147	stimuli_distractor_diamondtriangles.svg	stimuli_target_diamondsquares.svg	32	yes	44	1	545	0	0			0	0			1				0	
6.6.1	mac	2023-06-27	15:35:50	15:45:20	566420	632881a28fcc3aae4da242e2	3	1	main_z	11	advance_on_keypress_ZEE	148	stimuli_distractor_diamondtriangles.svg	stimuli_target_diamondsquares.svg	32	yes	57	0	141	0	0			0	0			1				0	
6.6.1	mac	2023-06-27	15:35:50	15:45:21	567793	632881a28fcc3aae4da242e2	3	1	main_z	11	main_z	149	stimuli_distractor_trianglediamonds.svg	stimuli_target_rectangletriangles.svg	9	yes	44	1	585	0	0			0	0			1				0	
6.6.1	mac	2023-06-27	15:35:50	15:45:21	567793	632881a28fcc3aae4da242e2	3	1	main_z	11	advance_on_keypress_ZEE	150	stimuli_distractor_trianglediamonds.svg	stimuli_target_rectangletriangles.svg	9	yes	57	0	238	0	0			0	0			1				0	
6.6.1	mac	2023-06-27	15:35:50	15:45:24	569924	632881a28fcc3aae4da242e2	3	1	main_z	11	main_z	151	stimuli_distractor_diamondtriangles.svg	stimuli_target_trianglerectangles.svg	29	yes	44	1	1266	0	0			0	0			1				0	
6.6.1	mac	2023-06-27	15:35:50	15:45:24	569924	632881a28fcc3aae4da242e2	3	1	main_z	11	advance_on_keypress_ZEE	152	stimuli_distractor_diamondtriangles.svg	stimuli_target_trianglerectangles.svg	29	yes	57	0	456	0	0			0	0			1				0	
6.6.1	mac	2023-06-27	15:35:50	15:45:25	571521	632881a28fcc3aae4da242e2	3	1	main_z	11	main_z	153	stimuli_target_trianglesquares.svg	stimuli_distractor_trianglediamonds.svg	18	yes	44	1	496	0	0			0	0			1				0	
6.6.1	mac	2023-06-27	15:35:50	15:45:25	571521	632881a28fcc3aae4da242e2	3	1	main_z	11	advance_on_keypress_ZEE	154	stimuli_target_trianglesquares.svg	stimuli_distractor_trianglediamonds.svg	18	yes	57	0	101	0	0			0	0			1				0	
6.6.1	mac	2023-06-27	15:35:50	15:45:28	574257	632881a28fcc3aae4da242e2	3	1	main_z	11	main_z	155	stimuli_distractor_trianglediamonds.svg	stimuli_distractor_trianglediamonds.svg	34	no	0	1	2000	0	0			0	0			1				0	
6.6.1	mac	2023-06-27	15:35:50	15:45:28	574257	632881a28fcc3aae4da242e2	3	1	main_z	11	advance_on_keypress_ZEE	156	stimuli_distractor_trianglediamonds.svg	stimuli_distractor_trianglediamonds.svg	34	no	57	0	231	0	0			0	0			1				0	
6.6.1	mac	2023-06-27	15:35:50	15:45:29	575517	632881a28fcc3aae4da242e2	3	1	main_z	11	main_z	157	stimuli_distractor_diamondtriangles.svg	stimuli_target_trianglesquares.svg	30	yes	44	1	375	0	0			0	0			1				0	
6.6.1	mac	2023-06-27	15:35:50	15:45:29	575517	632881a28fcc3aae4da242e2	3	1	main_z	11	advance_on_keypress_ZEE	158	stimuli_distractor_diamondtriangles.svg	stimuli_target_trianglesquares.svg	30	yes	57	0	116	0	0			0	0			1				0	
6.6.1	mac	2023-06-27	15:35:50	15:45:30	576785	632881a28fcc3aae4da242e2	3	1	main_z	11	main_z	159	stimuli_distractor_diamondtriangles.svg	stimuli_target_squaretriangles.svg	15	yes	44	1	510	0	0			0	0			1				0	
6.6.1	mac	2023-06-27	15:35:50	15:45:30	576785	632881a28fcc3aae4da242e2	3	1	main_z	11	advance_on_keypress_ZEE	160	stimuli_distractor_diamondtriangles.svg	stimuli_target_squaretriangles.svg	15	yes	57	0	110	0	0			0	0			1				0	
6.6.1	mac	2023-06-27	15:35:50	15:45:30	576785	632881a28fcc3aae4da242e2	3	1	headphonecheck_calibration	14	headphonecheck_calibrationIntro	1	stimuli_distractor_diamondtriangles.svg	stimuli_target_squaretriangles.svg	15	yes	calibrationButton	0	1054	0	0			0	0			1				0	
6.6.1	mac	2023-06-27	15:35:50	15:45:30	576785	632881a28fcc3aae4da242e2	3	1	headphonecheck_testphase	15	test_collectResponse	3	stimuli_distractor_diamondtriangles.svg	stimuli_target_squaretriangles.svg	15	yes	third	1	278	1	6	antiphase_hc_ois.wav	3	0	0			1				0	
6.6.1	mac	2023-06-27	15:35:50	15:45:30	576785	632881a28fcc3aae4da242e2	3	1	headphonecheck_testphase	15	test_collectResponse	6	stimuli_distractor_diamondtriangles.svg	stimuli_target_squaretriangles.svg	15	yes	third	0	696	2	3	antiphase_hc_soi.wav	1	0	0			1				0	
6.6.1	mac	2023-06-27	15:35:50	15:45:30	576785	632881a28fcc3aae4da242e2	3	1	headphonecheck_testphase	15	test_collectResponse	9	stimuli_distractor_diamondtriangles.svg	stimuli_target_squaretriangles.svg	15	yes	second	1	285	3	1	antiphase_hc_iso.wav	2	0	0			1				0	
6.6.1	mac	2023-06-27	15:35:50	15:45:30	576785	632881a28fcc3aae4da242e2	3	1	headphonecheck_testphase	15	test_collectResponse	12	stimuli_distractor_diamondtriangles.svg	stimuli_target_squaretriangles.svg	15	yes	second	1	587	4	5	antiphase_hc_osi.wav	2	0	0			1				0	
6.6.1	mac	2023-06-27	15:35:50	15:45:30	576785	632881a28fcc3aae4da242e2	3	1	headphonecheck_testphase	15	test_collectResponse	15	stimuli_distractor_diamondtriangles.svg	stimuli_target_squaretriangles.svg	15	yes	first	1	78	5	4	antiphase_hc_sio.wav	1	0	0			1				0	
6.6.1	mac	2023-06-27	15:35:50	15:45:30	576785	632881a28fcc3aae4da242e2	3	1	headphonecheck_testphase	15	test_collectResponse	18	stimuli_distractor_diamondtriangles.svg	stimuli_target_squaretriangles.svg	15	yes	third	1	137	6	2	antiphase_hc_ios.wav	3	0	0			1				0	
6.6.1	mac	2023-06-27	15:35:50	15:45:30	576785	632881a28fcc3aae4da242e2	3	1	stereocheck_calibration	17	stereocheck_calibrationIntro	1	stimuli_distractor_diamondtriangles.svg	stimuli_target_squaretriangles.svg	15	yes	stereocheck_calibrationButton	0	5821	6	2	antiphase_hc_ios.wav	3	0	0			1				0	
6.6.1	mac	2023-06-27	15:35:50	15:45:30	576785	632881a28fcc3aae4da242e2	3	1	stereocheck_testphase	18	stereocheck_test_collectResponse	3	stimuli_distractor_diamondtriangles.svg	stimuli_target_squaretriangles.svg	15	yes	stereocheck_left	1	337	6	2	antiphase_hc_ios.wav	3	1	3	noise_calib_stim_LEFT.wav	1	1				0	
6.6.1	mac	2023-06-27	15:35:50	15:45:30	576785	632881a28fcc3aae4da242e2	3	1	stereocheck_testphase	18	stereocheck_test_collectResponse	6	stimuli_distractor_diamondtriangles.svg	stimuli_target_squaretriangles.svg	15	yes	stereocheck_right	1	279	6	2	antiphase_hc_ios.wav	3	2	4	noise_calib_stim_RIGHT.wav	2	1				0	
6.6.1	mac	2023-06-27	15:35:50	15:45:30	576785	632881a28fcc3aae4da242e2	3	1	stereocheck_testphase	18	stereocheck_test_collectResponse	9	stimuli_distractor_diamondtriangles.svg	stimuli_target_squaretriangles.svg	15	yes	stereocheck_right	1	263	6	2	antiphase_hc_ios.wav	3	3	6	noise_calib_stim_RIGHT.wav	2	1				0	
6.6.1	mac	2023-06-27	15:35:50	15:45:30	576785	632881a28fcc3aae4da242e2	3	1	stereocheck_testphase	18	stereocheck_test_collectResponse	12	stimuli_distractor_diamondtriangles.svg	stimuli_target_squaretriangles.svg	15	yes	stereocheck_right	1	446	6	2	antiphase_hc_ios.wav	3	4	5	noise_calib_stim_RIGHT.wav	2	1				0	
6.6.1	mac	2023-06-27	15:35:50	15:45:30	576785	632881a28fcc3aae4da242e2	3	1	stereocheck_testphase	18	stereocheck_test_collectResponse	15	stimuli_distractor_diamondtriangles.svg	stimuli_target_squaretriangles.svg	15	yes	stereocheck_left	1	279	6	2	antiphase_hc_ios.wav	3	5	1	noise_calib_stim_LEFT.wav	1	1				0	
6.6.1	mac	2023-06-27	15:35:50	15:45:30	576785	632881a28fcc3aae4da242e2	3	1	stereocheck_testphase	18	stereocheck_test_collectResponse	18	stimuli_distractor_diamondtriangles.svg	stimuli_target_squaretriangles.svg	15	yes	stereocheck_left	1	279	6	2	antiphase_hc_ios.wav	3	6	2	noise_calib_stim_LEFT.wav	1	1				0	
6.6.1	mac	2023-06-27	15:35:50	15:45:30	576785	632881a28fcc3aae4da242e2	3	1	DL_practice	21	DL_practice	2	stimuli_distractor_diamondtriangles.svg	stimuli_target_squaretriangles.svg	15	yes	ta	1	1481	6	2	antiphase_hc_ios.wav	3	6	2	noise_calib_stim_LEFT.wav	1	36	blb_dichoticlistening_ta-ta.mp3	ta	ta	0	left
6.6.1	mac	2023-06-27	15:35:50	15:45:30	576785	632881a28fcc3aae4da242e2	3	1	DL_practice	21	DL_practice	3	stimuli_distractor_diamondtriangles.svg	stimuli_target_squaretriangles.svg	15	yes	ga	1	1497	6	2	antiphase_hc_ios.wav	3	6	2	noise_calib_stim_LEFT.wav	1	18	blb_dichoticlistening_ga-ta.mp3	ga	ta	1	left
6.6.1	mac	2023-06-27	15:35:50	15:45:30	576785	632881a28fcc3aae4da242e2	3	1	DL_practice	21	DL_practice	4	stimuli_distractor_diamondtriangles.svg	stimuli_target_squaretriangles.svg	15	yes	da	1	1697	6	2	antiphase_hc_ios.wav	3	6	2	noise_calib_stim_LEFT.wav	1	8	blb_dichoticlistening_da-da.mp3	da	da	0	left
6.6.1	mac	2023-06-27	15:35:50	15:45:30	576785	632881a28fcc3aae4da242e2	3	1	DL_practice	21	DL_practice	5	stimuli_distractor_diamondtriangles.svg	stimuli_target_squaretriangles.svg	15	yes	da	1	1782	6	2	antiphase_hc_ios.wav	3	6	2	noise_calib_stim_LEFT.wav	1	7	blb_dichoticlistening_da-ba.mp3	da	ba	1	left
6.6.1	mac	2023-06-27	15:35:50	15:45:30	576785	632881a28fcc3aae4da242e2	3	1	DL_practice	21	DL_practice	6	stimuli_distractor_diamondtriangles.svg	stimuli_target_squaretriangles.svg	15	yes	ba	1	1131	6	2	antiphase_hc_ios.wav	3	6	2	noise_calib_stim_LEFT.wav	1	1	blb_dichoticlistening_ba-ba.mp3	ba	ba	0	left
6.6.1	mac	2023-06-27	15:35:50	15:45:30	576785	632881a28fcc3aae4da242e2	3	1	DL_practice	21	DL_practice	7	stimuli_distractor_diamondtriangles.svg	stimuli_target_squaretriangles.svg	15	yes	pa	1	1247	6	2	antiphase_hc_ios.wav	3	6	2	noise_calib_stim_LEFT.wav	1	29	blb_dichoticlistening_pa-pa.mp3	pa	pa	0	left
6.6.1	mac	2023-06-27	15:35:50	15:45:30	576785	632881a28fcc3aae4da242e2	3	1	DL_practice	21	DL_practice	8	stimuli_distractor_diamondtriangles.svg	stimuli_target_squaretriangles.svg	15	yes	ga	1	1064	6	2	antiphase_hc_ios.wav	3	6	2	noise_calib_stim_LEFT.wav	1	15	blb_dichoticlistening_ga-ga.mp3	ga	ga	0	left
6.6.1	mac	2023-06-27	15:35:50	15:45:30	576785	632881a28fcc3aae4da242e2	3	1	DL_practice	21	DL_practice	9	stimuli_distractor_diamondtriangles.svg	stimuli_target_squaretriangles.svg	15	yes	ka	1	1114	6	2	antiphase_hc_ios.wav	3	6	2	noise_calib_stim_LEFT.wav	1	23	blb_dichoticlistening_ka-pa.mp3	ka	pa	1	left
6.6.1	mac	2023-06-27	15:35:50	15:45:30	576785	632881a28fcc3aae4da242e2	3	1	DL_practice	21	DL_practice	10	stimuli_distractor_diamondtriangles.svg	stimuli_target_squaretriangles.svg	15	yes	ka	1	1215	6	2	antiphase_hc_ios.wav	3	6	2	noise_calib_stim_LEFT.wav	1	22	blb_dichoticlistening_ka-ka.mp3	ka	ka	0	left
6.6.1	mac	2023-06-27	15:35:50	15:45:30	576785	632881a28fcc3aae4da242e2	3	1	DL_test	23	DL_test	1	stimuli_distractor_diamondtriangles.svg	stimuli_target_squaretriangles.svg	15	yes	ta	0	3315	6	2	antiphase_hc_ios.wav	3	6	2	noise_calib_stim_LEFT.wav	1	26	blb_dichoticlistening_pa-da.mp3	pa	da	1	other
6.6.1	mac	2023-06-27	15:35:50	15:45:30	576785	632881a28fcc3aae4da242e2	3	1	DL_test	23	DL_test	2	stimuli_distractor_diamondtriangles.svg	stimuli_target_squaretriangles.svg	15	yes	ka	1	964	6	2	antiphase_hc_ios.wav	3	6	2	noise_calib_stim_LEFT.wav	1	23	blb_dichoticlistening_ka-pa.mp3	ka	pa	1	left
6.6.1	mac	2023-06-27	15:35:50	15:45:30	576785	632881a28fcc3aae4da242e2	3	1	DL_test	23	DL_test	3	stimuli_distractor_diamondtriangles.svg	stimuli_target_squaretriangles.svg	15	yes	pa	1	1015	6	2	antiphase_hc_ios.wav	3	6	2	noise_calib_stim_LEFT.wav	1	29	blb_dichoticlistening_pa-pa.mp3	pa	pa	0	left
6.6.1	mac	2023-06-27	15:35:50	15:45:30	576785	632881a28fcc3aae4da242e2	3	1	DL_test	23	DL_test	4	stimuli_distractor_diamondtriangles.svg	stimuli_target_squaretriangles.svg	15	yes	pa	1	2364	6	2	antiphase_hc_ios.wav	3	6	2	noise_calib_stim_LEFT.wav	1	11	blb_dichoticlistening_da-pa.mp3	da	pa	1	right
6.6.1	mac	2023-06-27	15:35:50	15:45:30	576785	632881a28fcc3aae4da242e2	3	1	DL_test	23	DL_test	5	stimuli_distractor_diamondtriangles.svg	stimuli_target_squaretriangles.svg	15	yes	ta	1	1431	6	2	antiphase_hc_ios.wav	3	6	2	noise_calib_stim_LEFT.wav	1	30	blb_dichoticlistening_pa-ta.mp3	pa	ta	1	right
6.6.1	mac	2023-06-27	15:35:50	15:45:30	576785	632881a28fcc3aae4da242e2	3	1	DL_test	23	DL_test	6	stimuli_distractor_diamondtriangles.svg	stimuli_target_squaretriangles.svg	15	yes	da	1	1848	6	2	antiphase_hc_ios.wav	3	6	2	noise_calib_stim_LEFT.wav	1	10	blb_dichoticlistening_da-ka.mp3	da	ka	1	left
6.6.1	mac	2023-06-27	15:35:50	15:45:30	576785	632881a28fcc3aae4da242e2	3	1	DL_test	23	DL_test	7	stimuli_distractor_diamondtriangles.svg	stimuli_target_squaretriangles.svg	15	yes	ta	1	2514	6	2	antiphase_hc_ios.wav	3	6	2	noise_calib_stim_LEFT.wav	1	32	blb_dichoticlistening_ta-da.mp3	ta	da	1	left
6.6.1	mac	2023-06-27	15:35:50	15:45:30	576785	632881a28fcc3aae4da242e2	3	1	DL_test	23	DL_test	8	stimuli_distractor_diamondtriangles.svg	stimuli_target_squaretriangles.svg	15	yes	ba	1	1481	6	2	antiphase_hc_ios.wav	3	6	2	noise_calib_stim_LEFT.wav	1	13	blb_dichoticlistening_ga-ba.mp3	ga	ba	1	right
6.6.1	mac	2023-06-27	15:35:50	15:45:30	576785	632881a28fcc3aae4da242e2	3	1	DL_test	23	DL_test	9	stimuli_distractor_diamondtriangles.svg	stimuli_target_squaretriangles.svg	15	yes	ba	1	1381	6	2	antiphase_hc_ios.wav	3	6	2	noise_calib_stim_LEFT.wav	1	1	blb_dichoticlistening_ba-ba.mp3	ba	ba	0	left
6.6.1	mac	2023-06-27	15:35:50	15:45:30	576785	632881a28fcc3aae4da242e2	3	1	DL_test	23	DL_test	10	stimuli_distractor_diamondtriangles.svg	stimuli_target_squaretriangles.svg	15	yes	ga	1	1098	6	2	antiphase_hc_ios.wav	3	6	2	noise_calib_stim_LEFT.wav	1	9	blb_dichoticlistening_da-ga.mp3	da	ga	1	right
6.6.1	mac	2023-06-27	15:35:50	15:45:30	576785	632881a28fcc3aae4da242e2	3	1	DL_test	23	DL_test	11	stimuli_distractor_diamondtriangles.svg	stimuli_target_squaretriangles.svg	15	yes	ta	1	1148	6	2	antiphase_hc_ios.wav	3	6	2	noise_calib_stim_LEFT.wav	1	12	blb_dichoticlistening_da-ta.mp3	da	ta	1	right
6.6.1	mac	2023-06-27	15:35:50	15:45:30	576785	632881a28fcc3aae4da242e2	3	1	DL_test	23	DL_test	12	stimuli_distractor_diamondtriangles.svg	stimuli_target_squaretriangles.svg	15	yes	da	1	1548	6	2	antiphase_hc_ios.wav	3	6	2	noise_calib_stim_LEFT.wav	1	2	blb_dichoticlistening_ba-da.mp3	ba	da	1	right
6.6.1	mac	2023-06-27	15:35:50	15:45:30	576785	632881a28fcc3aae4da242e2	3	1	DL_test	23	DL_test	13	stimuli_distractor_diamondtriangles.svg	stimuli_target_squaretriangles.svg	15	yes	ka	1	1064	6	2	antiphase_hc_ios.wav	3	6	2	noise_calib_stim_LEFT.wav	1	19	blb_dichoticlistening_ka-ba.mp3	ka	ba	1	left
6.6.1	mac	2023-06-27	15:35:50	15:45:30	576785	632881a28fcc3aae4da242e2	3	1	DL_test	23	DL_test	14	stimuli_distractor_diamondtriangles.svg	stimuli_target_squaretriangles.svg	15	yes	pa	1	1548	6	2	antiphase_hc_ios.wav	3	6	2	noise_calib_stim_LEFT.wav	1	27	blb_dichoticlistening_pa-ga.mp3	pa	ga	1	left
6.6.1	mac	2023-06-27	15:35:50	15:45:30	576785	632881a28fcc3aae4da242e2	3	1	DL_test	23	DL_test	15	stimuli_distractor_diamondtriangles.svg	stimuli_target_squaretriangles.svg	15	yes	ka	1	997	6	2	antiphase_hc_ios.wav	3	6	2	noise_calib_stim_LEFT.wav	1	16	blb_dichoticlistening_ga-ka.mp3	ga	ka	1	right
6.6.1	mac	2023-06-27	15:35:50	15:45:30	576785	632881a28fcc3aae4da242e2	3	1	DL_test	23	DL_test	16	stimuli_distractor_diamondtriangles.svg	stimuli_target_squaretriangles.svg	15	yes	ta	1	2698	6	2	antiphase_hc_ios.wav	3	6	2	noise_calib_stim_LEFT.wav	1	33	blb_dichoticlistening_ta-ga.mp3	ta	ga	1	left
6.6.1	mac	2023-06-27	15:35:50	15:45:30	576785	632881a28fcc3aae4da242e2	3	1	DL_test	23	DL_test	17	stimuli_distractor_diamondtriangles.svg	stimuli_target_squaretriangles.svg	15	yes	ga	1	932	6	2	antiphase_hc_ios.wav	3	6	2	noise_calib_stim_LEFT.wav	1	14	blb_dichoticlistening_ga-da.mp3	ga	da	1	left
6.6.1	mac	2023-06-27	15:35:50	15:45:30	576785	632881a28fcc3aae4da242e2	3	1	DL_test	23	DL_test	18	stimuli_distractor_diamondtriangles.svg	stimuli_target_squaretriangles.svg	15	yes	ta	1	998	6	2	antiphase_hc_ios.wav	3	6	2	noise_calib_stim_LEFT.wav	1	36	blb_dichoticlistening_ta-ta.mp3	ta	ta	0	left
6.6.1	mac	2023-06-27	15:35:50	15:45:30	576785	632881a28fcc3aae4da242e2	3	1	DL_test	23	DL_test	19	stimuli_distractor_diamondtriangles.svg	stimuli_target_squaretriangles.svg	15	yes	ka	0	2149	6	2	antiphase_hc_ios.wav	3	6	2	noise_calib_stim_LEFT.wav	1	18	blb_dichoticlistening_ga-ta.mp3	ga	ta	1	other
6.6.1	mac	2023-06-27	15:35:50	15:45:30	576785	632881a28fcc3aae4da242e2	3	1	DL_test	23	DL_test	20	stimuli_distractor_diamondtriangles.svg	stimuli_target_squaretriangles.svg	15	yes	ta	1	1598	6	2	antiphase_hc_ios.wav	3	6	2	noise_calib_stim_LEFT.wav	1	6	blb_dichoticlistening_ba-ta.mp3	ba	ta	1	right
6.6.1	mac	2023-06-27	15:35:50	15:45:30	576785	632881a28fcc3aae4da242e2	3	1	DL_test	23	DL_test	21	stimuli_distractor_diamondtriangles.svg	stimuli_target_squaretriangles.svg	15	yes	ka	1	1731	6	2	antiphase_hc_ios.wav	3	6	2	noise_calib_stim_LEFT.wav	1	4	blb_dichoticlistening_ba-ka.mp3	ba	ka	1	right
6.6.1	mac	2023-06-27	15:35:50	15:45:30	576785	632881a28fcc3aae4da242e2	3	1	DL_test	23	DL_test	22	stimuli_distractor_diamondtriangles.svg	stimuli_target_squaretriangles.svg	15	yes	ka	1	1082	6	2	antiphase_hc_ios.wav	3	6	2	noise_calib_stim_LEFT.wav	1	20	blb_dichoticlistening_ka-da.mp3	ka	da	1	left
6.6.1	mac	2023-06-27	15:35:50	15:45:30	576785	632881a28fcc3aae4da242e2	3	1	DL_test	23	DL_test	23	stimuli_distractor_diamondtriangles.svg	stimuli_target_squaretriangles.svg	15	yes	ka	1	848	6	2	antiphase_hc_ios.wav	3	6	2	noise_calib_stim_LEFT.wav	1	22	blb_dichoticlistening_ka-ka.mp3	ka	ka	0	left
6.6.1	mac	2023-06-27	15:35:50	15:45:30	576785	632881a28fcc3aae4da242e2	3	1	DL_test	23	DL_test	24	stimuli_distractor_diamondtriangles.svg	stimuli_target_squaretriangles.svg	15	yes	ta	1	1198	6	2	antiphase_hc_ios.wav	3	6	2	noise_calib_stim_LEFT.wav	1	31	blb_dichoticlistening_ta-ba.mp3	ta	ba	1	left
6.6.1	mac	2023-06-27	15:35:50	15:45:30	576785	632881a28fcc3aae4da242e2	3	1	DL_test	23	DL_test	25	stimuli_distractor_diamondtriangles.svg	stimuli_target_squaretriangles.svg	15	yes	pa	1	1365	6	2	antiphase_hc_ios.wav	3	6	2	noise_calib_stim_LEFT.wav	1	17	blb_dichoticlistening_ga-pa.mp3	ga	pa	1	right
6.6.1	mac	2023-06-27	15:35:50	15:45:30	576785	632881a28fcc3aae4da242e2	3	1	DL_test	23	DL_test	26	stimuli_distractor_diamondtriangles.svg	stimuli_target_squaretriangles.svg	15	yes	ka	1	1882	6	2	antiphase_hc_ios.wav	3	6	2	noise_calib_stim_LEFT.wav	1	21	blb_dichoticlistening_ka-ga.mp3	ka	ga	1	left
