build	computer.platform	date	time	timestamp	time_elapsed_ms	subject	group	session	blockcode	blocknum	trialcode	trialnum	stimulus_left	stimulus_right	stim_index	target_present	response	correct	latency	headphonecheck_countTestTrials	headphonecheck_index	headphonecheck_testSound	headphonecheck_correctResponse	stereocheck_countTestTrials	stereocheck_index	stereocheck_testSound	stereocheck_correctResponse	DL_index	DL_soundfile	DL_leftSound	DL_rightSound	DL_dualSound	DL_choice
6.6.1	mac	2023-07-17	15:27:43	15:30:14	147568	62ebf162fc296d770d108698	3	1	practice_slash	5	practice_slash	1	stimuli_distractor_diamondtriangles.svg	stimuli_target_rectangletriangles.svg	7	yes	0	0	2000	0	0			0	0			1				0	
6.6.1	mac	2023-07-17	15:27:43	15:30:14	147568	62ebf162fc296d770d108698	3	1	practice_slash	5	advance_on_keypress_SLASH	2	stimuli_distractor_diamondtriangles.svg	stimuli_target_rectangletriangles.svg	7	yes	57	0	806	0	0			0	0			1				0	
6.6.1	mac	2023-07-17	15:27:43	15:30:16	150384	62ebf162fc296d770d108698	3	1	practice_slash	5	practice_slash	3	stimuli_target_rectanglediamonds.svg	stimuli_distractor_diamondtriangles.svg	1	yes	53	1	380	0	0			0	0			1				0	
6.6.1	mac	2023-07-17	15:27:43	15:30:16	150384	62ebf162fc296d770d108698	3	1	practice_slash	5	advance_on_keypress_SLASH	4	stimuli_target_rectanglediamonds.svg	stimuli_distractor_diamondtriangles.svg	1	yes	57	0	706	0	0			0	0			1				0	
6.6.1	mac	2023-07-17	15:27:43	15:30:21	154704	62ebf162fc296d770d108698	3	1	practice_slash	5	practice_slash	5	stimuli_distractor_diamondtriangles.svg	stimuli_distractor_diamondtriangles.svg	13	no	0	1	2000	0	0			0	0			1				0	
6.6.1	mac	2023-07-17	15:27:43	15:30:21	154704	62ebf162fc296d770d108698	3	1	practice_slash	5	advance_on_keypress_SLASH	6	stimuli_distractor_diamondtriangles.svg	stimuli_distractor_diamondtriangles.svg	13	no	57	0	600	0	0			0	0			1				0	
6.6.1	mac	2023-07-17	15:27:43	15:30:25	158939	62ebf162fc296d770d108698	3	1	practice_slash	5	practice_slash	7	stimuli_distractor_trianglediamonds.svg	stimuli_distractor_diamondtriangles.svg	16	no	0	1	2000	0	0			0	0			1				0	
6.6.1	mac	2023-07-17	15:27:43	15:30:25	158939	62ebf162fc296d770d108698	3	1	practice_slash	5	advance_on_keypress_SLASH	8	stimuli_distractor_trianglediamonds.svg	stimuli_distractor_diamondtriangles.svg	16	no	57	0	574	0	0			0	0			1				0	
6.6.1	mac	2023-07-17	15:27:43	15:30:29	163139	62ebf162fc296d770d108698	3	1	practice_slash	5	practice_slash	9	stimuli_distractor_diamondtriangles.svg	stimuli_distractor_trianglediamonds.svg	14	no	0	1	2000	0	0			0	0			1				0	
6.6.1	mac	2023-07-17	15:27:43	15:30:29	163139	62ebf162fc296d770d108698	3	1	practice_slash	5	advance_on_keypress_SLASH	10	stimuli_distractor_diamondtriangles.svg	stimuli_distractor_trianglediamonds.svg	14	no	57	0	604	0	0			0	0			1				0	
6.6.1	mac	2023-07-17	15:27:43	15:30:32	166022	62ebf162fc296d770d108698	3	1	practice_slash	5	practice_slash	11	stimuli_target_diamondsquares.svg	stimuli_distractor_diamondtriangles.svg	3	yes	53	1	647	0	0			0	0			1				0	
6.6.1	mac	2023-07-17	15:27:43	15:30:32	166022	62ebf162fc296d770d108698	3	1	practice_slash	5	advance_on_keypress_SLASH	12	stimuli_target_diamondsquares.svg	stimuli_distractor_diamondtriangles.svg	3	yes	57	0	639	0	0			0	0			1				0	
6.6.1	mac	2023-07-17	15:27:43	15:30:36	170275	62ebf162fc296d770d108698	3	1	practice_slash	5	practice_slash	13	stimuli_distractor_trianglediamonds.svg	stimuli_distractor_trianglediamonds.svg	15	no	0	1	2000	0	0			0	0			1				0	
6.6.1	mac	2023-07-17	15:27:43	15:30:36	170275	62ebf162fc296d770d108698	3	1	practice_slash	5	advance_on_keypress_SLASH	14	stimuli_distractor_trianglediamonds.svg	stimuli_distractor_trianglediamonds.svg	15	no	57	0	600	0	0			0	0			1				0	
6.6.1	mac	2023-07-17	15:27:43	15:30:39	173020	62ebf162fc296d770d108698	3	1	practice_slash	5	practice_slash	15	stimuli_target_rectanglediamonds.svg	stimuli_distractor_trianglediamonds.svg	4	yes	53	1	509	0	0			0	0			1				0	
6.6.1	mac	2023-07-17	15:27:43	15:30:39	173020	62ebf162fc296d770d108698	3	1	practice_slash	5	advance_on_keypress_SLASH	16	stimuli_target_rectanglediamonds.svg	stimuli_distractor_trianglediamonds.svg	4	yes	57	0	769	0	0			0	0			1				0	
6.6.1	mac	2023-07-17	15:27:43	15:30:43	176530	62ebf162fc296d770d108698	3	1	practice_slash	5	practice_slash	17	stimuli_target_diamondsquares.svg	stimuli_distractor_trianglediamonds.svg	6	yes	53	1	1119	0	0			0	0			1				0	
6.6.1	mac	2023-07-17	15:27:43	15:30:43	176530	62ebf162fc296d770d108698	3	1	practice_slash	5	advance_on_keypress_SLASH	18	stimuli_target_diamondsquares.svg	stimuli_distractor_trianglediamonds.svg	6	yes	57	0	220	0	0			0	0			1				0	
6.6.1	mac	2023-07-17	15:27:43	15:30:45	178915	62ebf162fc296d770d108698	3	1	practice_slash	5	practice_slash	19	stimuli_target_squarediamonds.svg	stimuli_distractor_diamondtriangles.svg	2	yes	53	1	536	0	0			0	0			1				0	
6.6.1	mac	2023-07-17	15:27:43	15:30:45	178915	62ebf162fc296d770d108698	3	1	practice_slash	5	advance_on_keypress_SLASH	20	stimuli_target_squarediamonds.svg	stimuli_distractor_diamondtriangles.svg	2	yes	57	0	583	0	0			0	0			1				0	
6.6.1	mac	2023-07-17	15:27:43	15:30:48	181660	62ebf162fc296d770d108698	3	1	practice_slash	5	practice_slash	21	stimuli_distractor_trianglediamonds.svg	stimuli_target_rectanglediamonds.svg	10	yes	53	1	529	0	0			0	0			1				0	
6.6.1	mac	2023-07-17	15:27:43	15:30:48	181660	62ebf162fc296d770d108698	3	1	practice_slash	5	advance_on_keypress_SLASH	22	stimuli_distractor_trianglediamonds.svg	stimuli_target_rectanglediamonds.svg	10	yes	57	0	441	0	0			0	0			1				0	
6.6.1	mac	2023-07-17	15:27:43	15:30:50	184293	62ebf162fc296d770d108698	3	1	practice_slash	5	practice_slash	23	stimuli_target_squarediamonds.svg	stimuli_distractor_trianglediamonds.svg	5	yes	53	1	561	0	0			0	0			1				0	
6.6.1	mac	2023-07-17	15:27:43	15:30:50	184293	62ebf162fc296d770d108698	3	1	practice_slash	5	advance_on_keypress_SLASH	24	stimuli_target_squarediamonds.svg	stimuli_distractor_trianglediamonds.svg	5	yes	57	0	569	0	0			0	0			1				0	
6.6.1	mac	2023-07-17	15:27:43	15:30:53	186970	62ebf162fc296d770d108698	3	1	practice_slash	5	practice_slash	25	stimuli_distractor_diamondtriangles.svg	stimuli_target_diamondrectangles.svg	8	yes	53	1	488	0	0			0	0			1				0	
6.6.1	mac	2023-07-17	15:27:43	15:30:53	186970	62ebf162fc296d770d108698	3	1	practice_slash	5	advance_on_keypress_SLASH	26	stimuli_distractor_diamondtriangles.svg	stimuli_target_diamondrectangles.svg	8	yes	57	0	564	0	0			0	0			1				0	
6.6.1	mac	2023-07-17	15:27:43	15:30:56	189603	62ebf162fc296d770d108698	3	1	practice_slash	5	practice_slash	27	stimuli_distractor_trianglediamonds.svg	stimuli_target_squarediamonds.svg	11	yes	53	1	437	0	0			0	0			1				0	
6.6.1	mac	2023-07-17	15:27:43	15:30:56	189603	62ebf162fc296d770d108698	3	1	practice_slash	5	advance_on_keypress_SLASH	28	stimuli_distractor_trianglediamonds.svg	stimuli_target_squarediamonds.svg	11	yes	57	0	426	0	0			0	0			1				0	
6.6.1	mac	2023-07-17	15:27:43	15:30:59	192753	62ebf162fc296d770d108698	3	1	practice_slash	5	practice_slash	29	stimuli_distractor_diamondtriangles.svg	stimuli_target_trianglerectangles.svg	9	yes	53	1	1086	0	0			0	0			1				0	
6.6.1	mac	2023-07-17	15:27:43	15:30:59	192753	62ebf162fc296d770d108698	3	1	practice_slash	5	advance_on_keypress_SLASH	30	stimuli_distractor_diamondtriangles.svg	stimuli_target_trianglerectangles.svg	9	yes	57	0	381	0	0			0	0			1				0	
6.6.1	mac	2023-07-17	15:27:43	15:31:03	196765	62ebf162fc296d770d108698	3	1	practice_slash	5	practice_slash	31	stimuli_distractor_trianglediamonds.svg	stimuli_target_diamondrectangles.svg	12	yes	0	0	2000	0	0			0	0			1				0	
6.6.1	mac	2023-07-17	15:27:43	15:31:03	196765	62ebf162fc296d770d108698	3	1	practice_slash	5	advance_on_keypress_SLASH	32	stimuli_distractor_trianglediamonds.svg	stimuli_target_diamondrectangles.svg	12	yes	57	0	435	0	0			0	0			1				0	
6.6.1	mac	2023-07-17	15:27:43	15:31:12	206244	62ebf162fc296d770d108698	3	1	main_slash	7	main_slash	1	stimuli_distractor_trianglediamonds.svg	stimuli_target_rectanglediamonds.svg	10	yes	53	1	539	0	0			0	0			1				0	
6.6.1	mac	2023-07-17	15:27:43	15:31:12	206244	62ebf162fc296d770d108698	3	1	main_slash	7	advance_on_keypress_SLASH	2	stimuli_distractor_trianglediamonds.svg	stimuli_target_rectanglediamonds.svg	10	yes	57	0	2366	0	0			0	0			1				0	
6.6.1	mac	2023-07-17	15:27:43	15:31:16	210182	62ebf162fc296d770d108698	3	1	main_slash	7	main_slash	3	stimuli_target_diamondsquares.svg	stimuli_distractor_diamondtriangles.svg	24	yes	53	1	943	0	0			0	0			1				0	
6.6.1	mac	2023-07-17	15:27:43	15:31:16	210182	62ebf162fc296d770d108698	3	1	main_slash	7	advance_on_keypress_SLASH	4	stimuli_target_diamondsquares.svg	stimuli_distractor_diamondtriangles.svg	24	yes	57	0	1274	0	0			0	0			1				0	
6.6.1	mac	2023-07-17	15:27:43	15:31:19	212634	62ebf162fc296d770d108698	3	1	main_slash	7	main_slash	5	stimuli_distractor_trianglediamonds.svg	stimuli_target_trianglesquares.svg	26	yes	53	1	561	0	0			0	0			1				0	
6.6.1	mac	2023-07-17	15:27:43	15:31:19	212634	62ebf162fc296d770d108698	3	1	main_slash	7	advance_on_keypress_SLASH	6	stimuli_distractor_trianglediamonds.svg	stimuli_target_trianglesquares.svg	26	yes	57	0	1088	0	0			0	0			1				0	
6.6.1	mac	2023-07-17	15:27:43	15:31:21	214930	62ebf162fc296d770d108698	3	1	main_slash	7	main_slash	7	stimuli_distractor_trianglediamonds.svg	stimuli_target_squarediamonds.svg	12	yes	53	1	573	0	0			0	0			1				0	
6.6.1	mac	2023-07-17	15:27:43	15:31:21	214930	62ebf162fc296d770d108698	3	1	main_slash	7	advance_on_keypress_SLASH	8	stimuli_distractor_trianglediamonds.svg	stimuli_target_squarediamonds.svg	12	yes	57	0	857	0	0			0	0			1				0	
6.6.1	mac	2023-07-17	15:27:43	15:31:23	217045	62ebf162fc296d770d108698	3	1	main_slash	7	main_slash	9	stimuli_target_trianglerectangles.svg	stimuli_distractor_diamondtriangles.svg	21	yes	53	1	621	0	0			0	0			1				0	
6.6.1	mac	2023-07-17	15:27:43	15:31:23	217045	62ebf162fc296d770d108698	3	1	main_slash	7	advance_on_keypress_SLASH	10	stimuli_target_trianglerectangles.svg	stimuli_distractor_diamondtriangles.svg	21	yes	57	0	796	0	0			0	0			1				0	
6.6.1	mac	2023-07-17	15:27:43	15:31:25	219002	62ebf162fc296d770d108698	3	1	main_slash	7	main_slash	11	stimuli_target_squarediamonds.svg	stimuli_distractor_trianglediamonds.svg	4	yes	53	1	527	0	0			0	0			1				0	
6.6.1	mac	2023-07-17	15:27:43	15:31:25	219002	62ebf162fc296d770d108698	3	1	main_slash	7	advance_on_keypress_SLASH	12	stimuli_target_squarediamonds.svg	stimuli_distractor_trianglediamonds.svg	4	yes	57	0	615	0	0			0	0			1				0	
6.6.1	mac	2023-07-17	15:27:43	15:31:28	222241	62ebf162fc296d770d108698	3	1	main_slash	7	main_slash	13	stimuli_distractor_diamondtriangles.svg	stimuli_distractor_trianglediamonds.svg	37	no	0	1	2000	0	0			0	0			1				0	
6.6.1	mac	2023-07-17	15:27:43	15:31:28	222241	62ebf162fc296d770d108698	3	1	main_slash	7	advance_on_keypress_SLASH	14	stimuli_distractor_diamondtriangles.svg	stimuli_distractor_trianglediamonds.svg	37	no	57	0	432	0	0			0	0			1				0	
6.6.1	mac	2023-07-17	15:27:43	15:31:30	223817	62ebf162fc296d770d108698	3	1	main_slash	7	main_slash	15	stimuli_target_squarediamonds.svg	stimuli_distractor_diamondtriangles.svg	8	yes	53	1	509	0	0			0	0			1				0	
6.6.1	mac	2023-07-17	15:27:43	15:31:30	223817	62ebf162fc296d770d108698	3	1	main_slash	7	advance_on_keypress_SLASH	16	stimuli_target_squarediamonds.svg	stimuli_distractor_diamondtriangles.svg	8	yes	57	0	712	0	0			0	0			1				0	
6.6.1	mac	2023-07-17	15:27:43	15:31:33	227142	62ebf162fc296d770d108698	3	1	main_slash	7	main_slash	17	stimuli_distractor_trianglediamonds.svg	stimuli_target_diamondrectangles.svg	27	yes	0	0	2000	0	0			0	0			1				0	
6.6.1	mac	2023-07-17	15:27:43	15:31:33	227142	62ebf162fc296d770d108698	3	1	main_slash	7	advance_on_keypress_SLASH	18	stimuli_distractor_trianglediamonds.svg	stimuli_target_diamondrectangles.svg	27	yes	57	0	324	0	0			0	0			1				0	
6.6.1	mac	2023-07-17	15:27:43	15:31:35	228745	62ebf162fc296d770d108698	3	1	main_slash	7	main_slash	19	stimuli_target_rectanglediamonds.svg	stimuli_distractor_trianglediamonds.svg	2	yes	53	1	651	0	0			0	0			1				0	
6.6.1	mac	2023-07-17	15:27:43	15:31:35	228745	62ebf162fc296d770d108698	3	1	main_slash	7	advance_on_keypress_SLASH	20	stimuli_target_rectanglediamonds.svg	stimuli_distractor_trianglediamonds.svg	2	yes	57	0	748	0	0			0	0			1				0	
6.6.1	mac	2023-07-17	15:27:43	15:31:37	230861	62ebf162fc296d770d108698	3	1	main_slash	7	main_slash	21	stimuli_distractor_diamondtriangles.svg	stimuli_target_diamondsquares.svg	32	yes	53	1	732	0	0			0	0			1				0	
6.6.1	mac	2023-07-17	15:27:43	15:31:37	230861	62ebf162fc296d770d108698	3	1	main_slash	7	advance_on_keypress_SLASH	22	stimuli_distractor_diamondtriangles.svg	stimuli_target_diamondsquares.svg	32	yes	57	0	499	0	0			0	0			1				0	
6.6.1	mac	2023-07-17	15:27:43	15:31:39	232458	62ebf162fc296d770d108698	3	1	main_slash	7	main_slash	23	stimuli_target_rectangletriangles.svg	stimuli_distractor_trianglediamonds.svg	1	yes	53	1	462	0	0			0	0			1				0	
6.6.1	mac	2023-07-17	15:27:43	15:31:39	232458	62ebf162fc296d770d108698	3	1	main_slash	7	advance_on_keypress_SLASH	24	stimuli_target_rectangletriangles.svg	stimuli_distractor_trianglediamonds.svg	1	yes	57	0	541	0	0			0	0			1				0	
6.6.1	mac	2023-07-17	15:27:43	15:31:40	234190	62ebf162fc296d770d108698	3	1	main_slash	7	main_slash	25	stimuli_target_diamondrectangles.svg	stimuli_distractor_diamondtriangles.svg	23	yes	53	1	561	0	0			0	0			1				0	
6.6.1	mac	2023-07-17	15:27:43	15:31:40	234190	62ebf162fc296d770d108698	3	1	main_slash	7	advance_on_keypress_SLASH	26	stimuli_target_diamondrectangles.svg	stimuli_distractor_diamondtriangles.svg	23	yes	57	0	368	0	0			0	0			1				0	
6.6.1	mac	2023-07-17	15:27:43	15:31:42	235676	62ebf162fc296d770d108698	3	1	main_slash	7	main_slash	27	stimuli_distractor_diamondtriangles.svg	stimuli_target_rectangletriangles.svg	13	yes	53	1	496	0	0			0	0			1				0	
6.6.1	mac	2023-07-17	15:27:43	15:31:42	235676	62ebf162fc296d770d108698	3	1	main_slash	7	advance_on_keypress_SLASH	28	stimuli_distractor_diamondtriangles.svg	stimuli_target_rectangletriangles.svg	13	yes	57	0	315	0	0			0	0			1				0	
6.6.1	mac	2023-07-17	15:27:43	15:31:45	238628	62ebf162fc296d770d108698	3	1	main_slash	7	main_slash	29	stimuli_distractor_trianglediamonds.svg	stimuli_distractor_diamondtriangles.svg	36	no	0	1	2000	0	0			0	0			1				0	
6.6.1	mac	2023-07-17	15:27:43	15:31:45	238628	62ebf162fc296d770d108698	3	1	main_slash	7	advance_on_keypress_SLASH	30	stimuli_distractor_trianglediamonds.svg	stimuli_distractor_diamondtriangles.svg	36	no	57	0	335	0	0			0	0			1				0	
6.6.1	mac	2023-07-17	15:27:43	15:31:46	240153	62ebf162fc296d770d108698	3	1	main_slash	7	main_slash	31	stimuli_target_rectangletriangles.svg	stimuli_distractor_diamondtriangles.svg	5	yes	53	1	556	0	0			0	0			1				0	
6.6.1	mac	2023-07-17	15:27:43	15:31:46	240153	62ebf162fc296d770d108698	3	1	main_slash	7	advance_on_keypress_SLASH	32	stimuli_target_rectangletriangles.svg	stimuli_distractor_diamondtriangles.svg	5	yes	57	0	519	0	0			0	0			1				0	
6.6.1	mac	2023-07-17	15:27:43	15:31:48	241638	62ebf162fc296d770d108698	3	1	main_slash	7	main_slash	33	stimuli_target_squaretriangles.svg	stimuli_distractor_diamondtriangles.svg	7	yes	53	1	323	0	0			0	0			1				0	
6.6.1	mac	2023-07-17	15:27:43	15:31:48	241638	62ebf162fc296d770d108698	3	1	main_slash	7	advance_on_keypress_SLASH	34	stimuli_target_squaretriangles.svg	stimuli_distractor_diamondtriangles.svg	7	yes	57	0	462	0	0			0	0			1				0	
6.6.1	mac	2023-07-17	15:27:43	15:31:49	243213	62ebf162fc296d770d108698	3	1	main_slash	7	main_slash	35	stimuli_target_rectanglediamonds.svg	stimuli_distractor_diamondtriangles.svg	6	yes	53	1	497	0	0			0	0			1				0	
6.6.1	mac	2023-07-17	15:27:43	15:31:49	243213	62ebf162fc296d770d108698	3	1	main_slash	7	advance_on_keypress_SLASH	36	stimuli_target_rectanglediamonds.svg	stimuli_distractor_diamondtriangles.svg	6	yes	57	0	792	0	0			0	0			1				0	
6.6.1	mac	2023-07-17	15:27:43	15:31:51	244969	62ebf162fc296d770d108698	3	1	main_slash	7	main_slash	37	stimuli_distractor_diamondtriangles.svg	stimuli_target_rectanglediamonds.svg	14	yes	53	1	337	0	0			0	0			1				0	
6.6.1	mac	2023-07-17	15:27:43	15:31:51	244969	62ebf162fc296d770d108698	3	1	main_slash	7	advance_on_keypress_SLASH	38	stimuli_distractor_diamondtriangles.svg	stimuli_target_rectanglediamonds.svg	14	yes	57	0	526	0	0			0	0			1				0	
6.6.1	mac	2023-07-17	15:27:43	15:31:53	246859	62ebf162fc296d770d108698	3	1	main_slash	7	main_slash	39	stimuli_target_diamondrectangles.svg	stimuli_distractor_trianglediamonds.svg	19	yes	53	1	743	0	0			0	0			1				0	
6.6.1	mac	2023-07-17	15:27:43	15:31:53	246859	62ebf162fc296d770d108698	3	1	main_slash	7	advance_on_keypress_SLASH	40	stimuli_target_diamondrectangles.svg	stimuli_distractor_trianglediamonds.svg	19	yes	57	0	352	0	0			0	0			1				0	
6.6.1	mac	2023-07-17	15:27:43	15:31:54	248344	62ebf162fc296d770d108698	3	1	main_slash	7	main_slash	41	stimuli_distractor_diamondtriangles.svg	stimuli_target_trianglesquares.svg	30	yes	53	1	511	0	0			0	0			1				0	
6.6.1	mac	2023-07-17	15:27:43	15:31:54	248344	62ebf162fc296d770d108698	3	1	main_slash	7	advance_on_keypress_SLASH	42	stimuli_distractor_diamondtriangles.svg	stimuli_target_trianglesquares.svg	30	yes	57	0	331	0	0			0	0			1				0	
6.6.1	mac	2023-07-17	15:27:43	15:31:56	249739	62ebf162fc296d770d108698	3	1	main_slash	7	main_slash	43	stimuli_distractor_diamondtriangles.svg	stimuli_target_squarediamonds.svg	16	yes	53	1	439	0	0			0	0			1				0	
6.6.1	mac	2023-07-17	15:27:43	15:31:56	249739	62ebf162fc296d770d108698	3	1	main_slash	7	advance_on_keypress_SLASH	44	stimuli_distractor_diamondtriangles.svg	stimuli_target_squarediamonds.svg	16	yes	57	0	339	0	0			0	0			1				0	
6.6.1	mac	2023-07-17	15:27:43	15:31:58	251899	62ebf162fc296d770d108698	3	1	main_slash	7	main_slash	45	stimuli_distractor_diamondtriangles.svg	stimuli_distractor_diamondtriangles.svg	39	no	53	0	1181	0	0			0	0			1				0	
6.6.1	mac	2023-07-17	15:27:43	15:31:58	251899	62ebf162fc296d770d108698	3	1	main_slash	7	advance_on_keypress_SLASH	46	stimuli_distractor_diamondtriangles.svg	stimuli_distractor_diamondtriangles.svg	39	no	57	0	722	0	0			0	0			1				0	
6.6.1	mac	2023-07-17	15:27:43	15:32:01	255250	62ebf162fc296d770d108698	3	1	main_slash	7	main_slash	47	stimuli_distractor_trianglediamonds.svg	stimuli_distractor_trianglediamonds.svg	34	no	0	1	2000	0	0			0	0			1				0	
6.6.1	mac	2023-07-17	15:27:43	15:32:01	255250	62ebf162fc296d770d108698	3	1	main_slash	7	advance_on_keypress_SLASH	48	stimuli_distractor_trianglediamonds.svg	stimuli_distractor_trianglediamonds.svg	34	no	57	0	319	0	0			0	0			1				0	
6.6.1	mac	2023-07-17	15:27:43	15:32:04	258201	62ebf162fc296d770d108698	3	1	main_slash	7	main_slash	49	stimuli_distractor_diamondtriangles.svg	stimuli_distractor_diamondtriangles.svg	40	no	0	1	2000	0	0			0	0			1				0	
6.6.1	mac	2023-07-17	15:27:43	15:32:04	258201	62ebf162fc296d770d108698	3	1	main_slash	7	advance_on_keypress_SLASH	50	stimuli_distractor_diamondtriangles.svg	stimuli_distractor_diamondtriangles.svg	40	no	57	0	295	0	0			0	0			1				0	
6.6.1	mac	2023-07-17	15:27:43	15:32:06	260022	62ebf162fc296d770d108698	3	1	main_slash	7	main_slash	51	stimuli_distractor_trianglediamonds.svg	stimuli_target_diamondsquares.svg	28	yes	53	1	902	0	0			0	0			1				0	
6.6.1	mac	2023-07-17	15:27:43	15:32:06	260022	62ebf162fc296d770d108698	3	1	main_slash	7	advance_on_keypress_SLASH	52	stimuli_distractor_trianglediamonds.svg	stimuli_target_diamondsquares.svg	28	yes	57	0	524	0	0			0	0			1				0	
6.6.1	mac	2023-07-17	15:27:43	15:32:08	261710	62ebf162fc296d770d108698	3	1	main_slash	7	main_slash	53	stimuli_target_trianglesquares.svg	stimuli_distractor_trianglediamonds.svg	18	yes	53	1	538	0	0			0	0			1				0	
6.6.1	mac	2023-07-17	15:27:43	15:32:08	261710	62ebf162fc296d770d108698	3	1	main_slash	7	advance_on_keypress_SLASH	54	stimuli_target_trianglesquares.svg	stimuli_distractor_trianglediamonds.svg	18	yes	57	0	542	0	0			0	0			1				0	
6.6.1	mac	2023-07-17	15:27:43	15:32:10	263510	62ebf162fc296d770d108698	3	1	main_slash	7	main_slash	55	stimuli_target_diamondsquares.svg	stimuli_distractor_trianglediamonds.svg	20	yes	53	1	622	0	0			0	0			1				0	
6.6.1	mac	2023-07-17	15:27:43	15:32:10	263510	62ebf162fc296d770d108698	3	1	main_slash	7	advance_on_keypress_SLASH	56	stimuli_target_diamondsquares.svg	stimuli_distractor_trianglediamonds.svg	20	yes	57	0	438	0	0			0	0			1				0	
6.6.1	mac	2023-07-17	15:27:43	15:32:11	265085	62ebf162fc296d770d108698	3	1	main_slash	7	main_slash	57	stimuli_distractor_trianglediamonds.svg	stimuli_target_squaretriangles.svg	11	yes	53	1	514	0	0			0	0			1				0	
6.6.1	mac	2023-07-17	15:27:43	15:32:11	265085	62ebf162fc296d770d108698	3	1	main_slash	7	advance_on_keypress_SLASH	58	stimuli_distractor_trianglediamonds.svg	stimuli_target_squaretriangles.svg	11	yes	57	0	397	0	0			0	0			1				0	
6.6.1	mac	2023-07-17	15:27:43	15:32:13	266795	62ebf162fc296d770d108698	3	1	main_slash	7	main_slash	59	stimuli_distractor_diamondtriangles.svg	stimuli_target_squaretriangles.svg	15	yes	53	1	673	0	0			0	0			1				0	
6.6.1	mac	2023-07-17	15:27:43	15:32:13	266795	62ebf162fc296d770d108698	3	1	main_slash	7	advance_on_keypress_SLASH	60	stimuli_distractor_diamondtriangles.svg	stimuli_target_squaretriangles.svg	15	yes	57	0	394	0	0			0	0			1				0	
6.6.1	mac	2023-07-17	15:27:43	15:32:15	268752	62ebf162fc296d770d108698	3	1	main_slash	7	main_slash	61	stimuli_target_trianglerectangles.svg	stimuli_distractor_trianglediamonds.svg	17	yes	53	1	946	0	0			0	0			1				0	
6.6.1	mac	2023-07-17	15:27:43	15:32:15	268752	62ebf162fc296d770d108698	3	1	main_slash	7	advance_on_keypress_SLASH	62	stimuli_target_trianglerectangles.svg	stimuli_distractor_trianglediamonds.svg	17	yes	57	0	384	0	0			0	0			1				0	
6.6.1	mac	2023-07-17	15:27:43	15:32:16	270148	62ebf162fc296d770d108698	3	1	main_slash	7	main_slash	63	stimuli_distractor_trianglediamonds.svg	stimuli_target_rectangletriangles.svg	9	yes	53	1	374	0	0			0	0			1				0	
6.6.1	mac	2023-07-17	15:27:43	15:32:16	270148	62ebf162fc296d770d108698	3	1	main_slash	7	advance_on_keypress_SLASH	64	stimuli_distractor_trianglediamonds.svg	stimuli_target_rectangletriangles.svg	9	yes	57	0	642	0	0			0	0			1				0	
6.6.1	mac	2023-07-17	15:27:43	15:32:20	273406	62ebf162fc296d770d108698	3	1	main_slash	7	main_slash	65	stimuli_distractor_trianglediamonds.svg	stimuli_distractor_trianglediamonds.svg	33	no	0	1	2000	0	0			0	0			1				0	
6.6.1	mac	2023-07-17	15:27:43	15:32:20	273406	62ebf162fc296d770d108698	3	1	main_slash	7	advance_on_keypress_SLASH	66	stimuli_distractor_trianglediamonds.svg	stimuli_distractor_trianglediamonds.svg	33	no	57	0	323	0	0			0	0			1				0	
6.6.1	mac	2023-07-17	15:27:43	15:32:22	276355	62ebf162fc296d770d108698	3	1	main_slash	7	main_slash	67	stimuli_distractor_diamondtriangles.svg	stimuli_distractor_trianglediamonds.svg	38	no	0	1	2000	0	0			0	0			1				0	
6.6.1	mac	2023-07-17	15:27:43	15:32:22	276355	62ebf162fc296d770d108698	3	1	main_slash	7	advance_on_keypress_SLASH	68	stimuli_distractor_diamondtriangles.svg	stimuli_distractor_trianglediamonds.svg	38	no	57	0	364	0	0			0	0			1				0	
6.6.1	mac	2023-07-17	15:27:43	15:32:24	278315	62ebf162fc296d770d108698	3	1	main_slash	7	main_slash	69	stimuli_target_squaretriangles.svg	stimuli_distractor_trianglediamonds.svg	3	yes	53	1	955	0	0			0	0			1				0	
6.6.1	mac	2023-07-17	15:27:43	15:32:24	278315	62ebf162fc296d770d108698	3	1	main_slash	7	advance_on_keypress_SLASH	70	stimuli_target_squaretriangles.svg	stimuli_distractor_trianglediamonds.svg	3	yes	57	0	462	0	0			0	0			1				0	
6.6.1	mac	2023-07-17	15:27:43	15:32:26	280026	62ebf162fc296d770d108698	3	1	main_slash	7	main_slash	71	stimuli_target_trianglesquares.svg	stimuli_distractor_diamondtriangles.svg	22	yes	53	1	615	0	0			0	0			1				0	
6.6.1	mac	2023-07-17	15:27:43	15:32:26	280026	62ebf162fc296d770d108698	3	1	main_slash	7	advance_on_keypress_SLASH	72	stimuli_target_trianglesquares.svg	stimuli_distractor_diamondtriangles.svg	22	yes	57	0	320	0	0			0	0			1				0	
6.6.1	mac	2023-07-17	15:27:43	15:32:28	281533	62ebf162fc296d770d108698	3	1	main_slash	7	main_slash	73	stimuli_distractor_diamondtriangles.svg	stimuli_target_trianglerectangles.svg	29	yes	53	1	556	0	0			0	0			1				0	
6.6.1	mac	2023-07-17	15:27:43	15:32:28	281533	62ebf162fc296d770d108698	3	1	main_slash	7	advance_on_keypress_SLASH	74	stimuli_distractor_diamondtriangles.svg	stimuli_target_trianglerectangles.svg	29	yes	57	0	318	0	0			0	0			1				0	
6.6.1	mac	2023-07-17	15:27:43	15:32:29	283198	62ebf162fc296d770d108698	3	1	main_slash	7	main_slash	75	stimuli_distractor_diamondtriangles.svg	stimuli_target_diamondrectangles.svg	31	yes	53	1	720	0	0			0	0			1				0	
6.6.1	mac	2023-07-17	15:27:43	15:32:29	283198	62ebf162fc296d770d108698	3	1	main_slash	7	advance_on_keypress_SLASH	76	stimuli_distractor_diamondtriangles.svg	stimuli_target_diamondrectangles.svg	31	yes	57	0	235	0	0			0	0			1				0	
6.6.1	mac	2023-07-17	15:27:43	15:32:31	284616	62ebf162fc296d770d108698	3	1	main_slash	7	main_slash	77	stimuli_distractor_trianglediamonds.svg	stimuli_target_trianglerectangles.svg	25	yes	53	1	555	0	0			0	0			1				0	
6.6.1	mac	2023-07-17	15:27:43	15:32:31	284616	62ebf162fc296d770d108698	3	1	main_slash	7	advance_on_keypress_SLASH	78	stimuli_distractor_trianglediamonds.svg	stimuli_target_trianglerectangles.svg	25	yes	57	0	384	0	0			0	0			1				0	
6.6.1	mac	2023-07-17	15:27:43	15:32:34	287627	62ebf162fc296d770d108698	3	1	main_slash	7	main_slash	79	stimuli_distractor_trianglediamonds.svg	stimuli_distractor_diamondtriangles.svg	35	no	0	1	2000	0	0			0	0			1				0	
6.6.1	mac	2023-07-17	15:27:43	15:32:34	287627	62ebf162fc296d770d108698	3	1	main_slash	7	advance_on_keypress_SLASH	80	stimuli_distractor_trianglediamonds.svg	stimuli_distractor_diamondtriangles.svg	35	no	57	0	278	0	0			0	0			1				0	
6.6.1	mac	2023-07-17	15:27:43	15:32:35	288936	62ebf162fc296d770d108698	3	1	main_slash	7	main_slash	81	stimuli_distractor_diamondtriangles.svg	stimuli_target_rectanglediamonds.svg	14	yes	53	1	408	0	0			0	0			1				0	
6.6.1	mac	2023-07-17	15:27:43	15:32:35	288936	62ebf162fc296d770d108698	3	1	main_slash	7	advance_on_keypress_SLASH	82	stimuli_distractor_diamondtriangles.svg	stimuli_target_rectanglediamonds.svg	14	yes	57	0	252	0	0			0	0			1				0	
6.6.1	mac	2023-07-17	15:27:43	15:32:36	290173	62ebf162fc296d770d108698	3	1	main_slash	7	main_slash	83	stimuli_distractor_trianglediamonds.svg	stimuli_target_squarediamonds.svg	12	yes	53	1	361	0	0			0	0			1				0	
6.6.1	mac	2023-07-17	15:27:43	15:32:36	290173	62ebf162fc296d770d108698	3	1	main_slash	7	advance_on_keypress_SLASH	84	stimuli_distractor_trianglediamonds.svg	stimuli_target_squarediamonds.svg	12	yes	57	0	263	0	0			0	0			1				0	
6.6.1	mac	2023-07-17	15:27:43	15:32:38	291569	62ebf162fc296d770d108698	3	1	main_slash	7	main_slash	85	stimuli_distractor_diamondtriangles.svg	stimuli_target_trianglesquares.svg	30	yes	53	1	504	0	0			0	0			1				0	
6.6.1	mac	2023-07-17	15:27:43	15:32:38	291569	62ebf162fc296d770d108698	3	1	main_slash	7	advance_on_keypress_SLASH	86	stimuli_distractor_diamondtriangles.svg	stimuli_target_trianglesquares.svg	30	yes	57	0	256	0	0			0	0			1				0	
6.6.1	mac	2023-07-17	15:27:43	15:32:39	292986	62ebf162fc296d770d108698	3	1	main_slash	7	main_slash	87	stimuli_target_trianglesquares.svg	stimuli_distractor_diamondtriangles.svg	22	yes	53	1	507	0	0			0	0			1				0	
6.6.1	mac	2023-07-17	15:27:43	15:32:39	292986	62ebf162fc296d770d108698	3	1	main_slash	7	advance_on_keypress_SLASH	88	stimuli_target_trianglesquares.svg	stimuli_distractor_diamondtriangles.svg	22	yes	57	0	328	0	0			0	0			1				0	
6.6.1	mac	2023-07-17	15:27:43	15:32:40	294381	62ebf162fc296d770d108698	3	1	main_slash	7	main_slash	89	stimuli_distractor_diamondtriangles.svg	stimuli_target_squaretriangles.svg	15	yes	53	1	451	0	0			0	0			1				0	
6.6.1	mac	2023-07-17	15:27:43	15:32:40	294381	62ebf162fc296d770d108698	3	1	main_slash	7	advance_on_keypress_SLASH	90	stimuli_distractor_diamondtriangles.svg	stimuli_target_squaretriangles.svg	15	yes	57	0	344	0	0			0	0			1				0	
6.6.1	mac	2023-07-17	15:27:43	15:32:42	295911	62ebf162fc296d770d108698	3	1	main_slash	7	main_slash	91	stimuli_target_rectangletriangles.svg	stimuli_distractor_diamondtriangles.svg	5	yes	53	1	563	0	0			0	0			1				0	
6.6.1	mac	2023-07-17	15:27:43	15:32:42	295911	62ebf162fc296d770d108698	3	1	main_slash	7	advance_on_keypress_SLASH	92	stimuli_target_rectangletriangles.svg	stimuli_distractor_diamondtriangles.svg	5	yes	57	0	273	0	0			0	0			1				0	
6.6.1	mac	2023-07-17	15:27:43	15:32:43	297171	62ebf162fc296d770d108698	3	1	main_slash	7	main_slash	93	stimuli_distractor_trianglediamonds.svg	stimuli_target_squaretriangles.svg	11	yes	53	1	357	0	0			0	0			1				0	
6.6.1	mac	2023-07-17	15:27:43	15:32:43	297171	62ebf162fc296d770d108698	3	1	main_slash	7	advance_on_keypress_SLASH	94	stimuli_distractor_trianglediamonds.svg	stimuli_target_squaretriangles.svg	11	yes	57	0	350	0	0			0	0			1				0	
6.6.1	mac	2023-07-17	15:27:43	15:32:46	300147	62ebf162fc296d770d108698	3	1	main_slash	7	main_slash	95	stimuli_distractor_diamondtriangles.svg	stimuli_distractor_diamondtriangles.svg	40	no	0	1	2000	0	0			0	0			1				0	
6.6.1	mac	2023-07-17	15:27:43	15:32:46	300147	62ebf162fc296d770d108698	3	1	main_slash	7	advance_on_keypress_SLASH	96	stimuli_distractor_diamondtriangles.svg	stimuli_distractor_diamondtriangles.svg	40	no	57	0	268	0	0			0	0			1				0	
6.6.1	mac	2023-07-17	15:27:43	15:32:49	302932	62ebf162fc296d770d108698	3	1	main_slash	7	main_slash	97	stimuli_distractor_trianglediamonds.svg	stimuli_target_diamondrectangles.svg	27	yes	53	1	1882	0	0			0	0			1				0	
6.6.1	mac	2023-07-17	15:27:43	15:32:49	302932	62ebf162fc296d770d108698	3	1	main_slash	7	advance_on_keypress_SLASH	98	stimuli_distractor_trianglediamonds.svg	stimuli_target_diamondrectangles.svg	27	yes	57	0	499	0	0			0	0			1				0	
6.6.1	mac	2023-07-17	15:27:43	15:32:51	304664	62ebf162fc296d770d108698	3	1	main_slash	7	main_slash	99	stimuli_distractor_diamondtriangles.svg	stimuli_target_diamondrectangles.svg	31	yes	53	1	597	0	0			0	0			1				0	
6.6.1	mac	2023-07-17	15:27:43	15:32:51	304664	62ebf162fc296d770d108698	3	1	main_slash	7	advance_on_keypress_SLASH	100	stimuli_distractor_diamondtriangles.svg	stimuli_target_diamondrectangles.svg	31	yes	57	0	363	0	0			0	0			1				0	
6.6.1	mac	2023-07-17	15:27:43	15:32:52	306329	62ebf162fc296d770d108698	3	1	main_slash	7	main_slash	101	stimuli_target_squarediamonds.svg	stimuli_distractor_diamondtriangles.svg	8	yes	53	1	678	0	0			0	0			1				0	
6.6.1	mac	2023-07-17	15:27:43	15:32:52	306329	62ebf162fc296d770d108698	3	1	main_slash	7	advance_on_keypress_SLASH	102	stimuli_target_squarediamonds.svg	stimuli_distractor_diamondtriangles.svg	8	yes	57	0	288	0	0			0	0			1				0	
6.6.1	mac	2023-07-17	15:27:43	15:32:54	307679	62ebf162fc296d770d108698	3	1	main_slash	7	main_slash	103	stimuli_target_diamondsquares.svg	stimuli_distractor_trianglediamonds.svg	20	yes	53	1	445	0	0			0	0			1				0	
6.6.1	mac	2023-07-17	15:27:43	15:32:54	307679	62ebf162fc296d770d108698	3	1	main_slash	7	advance_on_keypress_SLASH	104	stimuli_target_diamondsquares.svg	stimuli_distractor_trianglediamonds.svg	20	yes	57	0	338	0	0			0	0			1				0	
6.6.1	mac	2023-07-17	15:27:43	15:32:55	309322	62ebf162fc296d770d108698	3	1	main_slash	7	main_slash	105	stimuli_distractor_diamondtriangles.svg	stimuli_target_diamondsquares.svg	32	yes	53	1	671	0	0			0	0			1				0	
6.6.1	mac	2023-07-17	15:27:43	15:32:55	309322	62ebf162fc296d770d108698	3	1	main_slash	7	advance_on_keypress_SLASH	106	stimuli_distractor_diamondtriangles.svg	stimuli_target_diamondsquares.svg	32	yes	57	0	324	0	0			0	0			1				0	
6.6.1	mac	2023-07-17	15:27:43	15:32:57	310627	62ebf162fc296d770d108698	3	1	main_slash	7	main_slash	107	stimuli_distractor_diamondtriangles.svg	stimuli_target_rectangletriangles.svg	13	yes	53	1	358	0	0			0	0			1				0	
6.6.1	mac	2023-07-17	15:27:43	15:32:57	310627	62ebf162fc296d770d108698	3	1	main_slash	7	advance_on_keypress_SLASH	108	stimuli_distractor_diamondtriangles.svg	stimuli_target_rectangletriangles.svg	13	yes	57	0	343	0	0			0	0			1				0	
6.6.1	mac	2023-07-17	15:27:43	15:32:58	312089	62ebf162fc296d770d108698	3	1	main_slash	7	main_slash	109	stimuli_distractor_trianglediamonds.svg	stimuli_target_trianglerectangles.svg	25	yes	53	1	487	0	0			0	0			1				0	
6.6.1	mac	2023-07-17	15:27:43	15:32:58	312089	62ebf162fc296d770d108698	3	1	main_slash	7	advance_on_keypress_SLASH	110	stimuli_distractor_trianglediamonds.svg	stimuli_target_trianglerectangles.svg	25	yes	57	0	685	0	0			0	0			1				0	
6.6.1	mac	2023-07-17	15:27:43	15:33:00	314024	62ebf162fc296d770d108698	3	1	main_slash	7	main_slash	111	stimuli_target_rectanglediamonds.svg	stimuli_distractor_trianglediamonds.svg	2	yes	53	1	623	0	0			0	0			1				0	
6.6.1	mac	2023-07-17	15:27:43	15:33:00	314024	62ebf162fc296d770d108698	3	1	main_slash	7	advance_on_keypress_SLASH	112	stimuli_target_rectanglediamonds.svg	stimuli_distractor_trianglediamonds.svg	2	yes	57	0	371	0	0			0	0			1				0	
6.6.1	mac	2023-07-17	15:27:43	15:33:02	316050	62ebf162fc296d770d108698	3	1	main_slash	7	main_slash	113	stimuli_target_squaretriangles.svg	stimuli_distractor_diamondtriangles.svg	7	yes	53	1	1030	0	0			0	0			1				0	
6.6.1	mac	2023-07-17	15:27:43	15:33:02	316050	62ebf162fc296d770d108698	3	1	main_slash	7	advance_on_keypress_SLASH	114	stimuli_target_squaretriangles.svg	stimuli_distractor_diamondtriangles.svg	7	yes	57	0	384	0	0			0	0			1				0	
6.6.1	mac	2023-07-17	15:27:43	15:33:04	317647	62ebf162fc296d770d108698	3	1	main_slash	7	main_slash	115	stimuli_distractor_diamondtriangles.svg	stimuli_target_squarediamonds.svg	16	yes	53	1	577	0	0			0	0			1				0	
6.6.1	mac	2023-07-17	15:27:43	15:33:04	317647	62ebf162fc296d770d108698	3	1	main_slash	7	advance_on_keypress_SLASH	116	stimuli_distractor_diamondtriangles.svg	stimuli_target_squarediamonds.svg	16	yes	57	0	299	0	0			0	0			1				0	
6.6.1	mac	2023-07-17	15:27:43	15:33:07	320569	62ebf162fc296d770d108698	3	1	main_slash	7	main_slash	117	stimuli_distractor_diamondtriangles.svg	stimuli_distractor_trianglediamonds.svg	37	no	0	1	2000	0	0			0	0			1				0	
6.6.1	mac	2023-07-17	15:27:43	15:33:07	320569	62ebf162fc296d770d108698	3	1	main_slash	7	advance_on_keypress_SLASH	118	stimuli_distractor_diamondtriangles.svg	stimuli_distractor_trianglediamonds.svg	37	no	57	0	501	0	0			0	0			1				0	
6.6.1	mac	2023-07-17	15:27:43	15:33:10	323704	62ebf162fc296d770d108698	3	1	main_slash	7	main_slash	119	stimuli_distractor_trianglediamonds.svg	stimuli_distractor_diamondtriangles.svg	36	no	0	1	2000	0	0			0	0			1				0	
6.6.1	mac	2023-07-17	15:27:43	15:33:10	323704	62ebf162fc296d770d108698	3	1	main_slash	7	advance_on_keypress_SLASH	120	stimuli_distractor_trianglediamonds.svg	stimuli_distractor_diamondtriangles.svg	36	no	57	0	225	0	0			0	0			1				0	
6.6.1	mac	2023-07-17	15:27:43	15:33:13	326554	62ebf162fc296d770d108698	3	1	main_slash	7	main_slash	121	stimuli_distractor_trianglediamonds.svg	stimuli_distractor_diamondtriangles.svg	35	no	0	1	2000	0	0			0	0			1				0	
6.6.1	mac	2023-07-17	15:27:43	15:33:13	326554	62ebf162fc296d770d108698	3	1	main_slash	7	advance_on_keypress_SLASH	122	stimuli_distractor_trianglediamonds.svg	stimuli_distractor_diamondtriangles.svg	35	no	57	0	276	0	0			0	0			1				0	
6.6.1	mac	2023-07-17	15:27:43	15:33:14	327885	62ebf162fc296d770d108698	3	1	main_slash	7	main_slash	123	stimuli_distractor_trianglediamonds.svg	stimuli_target_trianglesquares.svg	26	yes	53	1	428	0	0			0	0			1				0	
6.6.1	mac	2023-07-17	15:27:43	15:33:14	327885	62ebf162fc296d770d108698	3	1	main_slash	7	advance_on_keypress_SLASH	124	stimuli_distractor_trianglediamonds.svg	stimuli_target_trianglesquares.svg	26	yes	57	0	481	0	0			0	0			1				0	
6.6.1	mac	2023-07-17	15:27:43	15:33:16	329460	62ebf162fc296d770d108698	3	1	main_slash	7	main_slash	125	stimuli_target_trianglesquares.svg	stimuli_distractor_trianglediamonds.svg	18	yes	53	1	469	0	0			0	0			1				0	
6.6.1	mac	2023-07-17	15:27:43	15:33:16	329460	62ebf162fc296d770d108698	3	1	main_slash	7	advance_on_keypress_SLASH	126	stimuli_target_trianglesquares.svg	stimuli_distractor_trianglediamonds.svg	18	yes	57	0	391	0	0			0	0			1				0	
6.6.1	mac	2023-07-17	15:27:43	15:33:17	330878	62ebf162fc296d770d108698	3	1	main_slash	7	main_slash	127	stimuli_distractor_trianglediamonds.svg	stimuli_target_rectanglediamonds.svg	10	yes	53	1	403	0	0			0	0			1				0	
6.6.1	mac	2023-07-17	15:27:43	15:33:17	330878	62ebf162fc296d770d108698	3	1	main_slash	7	advance_on_keypress_SLASH	128	stimuli_distractor_trianglediamonds.svg	stimuli_target_rectanglediamonds.svg	10	yes	57	0	324	0	0			0	0			1				0	
6.6.1	mac	2023-07-17	15:27:43	15:33:20	333822	62ebf162fc296d770d108698	3	1	main_slash	7	main_slash	129	stimuli_distractor_diamondtriangles.svg	stimuli_distractor_diamondtriangles.svg	39	no	0	1	2000	0	0			0	0			1				0	
6.6.1	mac	2023-07-17	15:27:43	15:33:20	333822	62ebf162fc296d770d108698	3	1	main_slash	7	advance_on_keypress_SLASH	130	stimuli_distractor_diamondtriangles.svg	stimuli_distractor_diamondtriangles.svg	39	no	57	0	298	0	0			0	0			1				0	
6.6.1	mac	2023-07-17	15:27:43	15:33:21	335333	62ebf162fc296d770d108698	3	1	main_slash	7	main_slash	131	stimuli_target_diamondsquares.svg	stimuli_distractor_diamondtriangles.svg	24	yes	53	1	574	0	0			0	0			1				0	
6.6.1	mac	2023-07-17	15:27:43	15:33:21	335333	62ebf162fc296d770d108698	3	1	main_slash	7	advance_on_keypress_SLASH	132	stimuli_target_diamondsquares.svg	stimuli_distractor_diamondtriangles.svg	24	yes	57	0	319	0	0			0	0			1				0	
6.6.1	mac	2023-07-17	15:27:43	15:33:23	336728	62ebf162fc296d770d108698	3	1	main_slash	7	main_slash	133	stimuli_target_trianglerectangles.svg	stimuli_distractor_trianglediamonds.svg	17	yes	53	1	451	0	0			0	0			1				0	
6.6.1	mac	2023-07-17	15:27:43	15:33:23	336728	62ebf162fc296d770d108698	3	1	main_slash	7	advance_on_keypress_SLASH	134	stimuli_target_trianglerectangles.svg	stimuli_distractor_trianglediamonds.svg	17	yes	57	0	322	0	0			0	0			1				0	
6.6.1	mac	2023-07-17	15:27:43	15:33:24	338101	62ebf162fc296d770d108698	3	1	main_slash	7	main_slash	135	stimuli_distractor_diamondtriangles.svg	stimuli_target_trianglerectangles.svg	29	yes	53	1	425	0	0			0	0			1				0	
6.6.1	mac	2023-07-17	15:27:43	15:33:24	338101	62ebf162fc296d770d108698	3	1	main_slash	7	advance_on_keypress_SLASH	136	stimuli_distractor_diamondtriangles.svg	stimuli_target_trianglerectangles.svg	29	yes	57	0	319	0	0			0	0			1				0	
6.6.1	mac	2023-07-17	15:27:43	15:33:26	339631	62ebf162fc296d770d108698	3	1	main_slash	7	main_slash	137	stimuli_target_rectanglediamonds.svg	stimuli_distractor_diamondtriangles.svg	6	yes	53	1	588	0	0			0	0			1				0	
6.6.1	mac	2023-07-17	15:27:43	15:33:26	339631	62ebf162fc296d770d108698	3	1	main_slash	7	advance_on_keypress_SLASH	138	stimuli_target_rectanglediamonds.svg	stimuli_distractor_diamondtriangles.svg	6	yes	57	0	324	0	0			0	0			1				0	
6.6.1	mac	2023-07-17	15:27:43	15:33:29	342576	62ebf162fc296d770d108698	3	1	main_slash	7	main_slash	139	stimuli_target_rectangletriangles.svg	stimuli_distractor_trianglediamonds.svg	1	yes	0	0	2000	0	0			0	0			1				0	
6.6.1	mac	2023-07-17	15:27:43	15:33:29	342576	62ebf162fc296d770d108698	3	1	main_slash	7	advance_on_keypress_SLASH	140	stimuli_target_rectangletriangles.svg	stimuli_distractor_trianglediamonds.svg	1	yes	57	0	591	0	0			0	0			1				0	
6.6.1	mac	2023-07-17	15:27:43	15:33:30	344356	62ebf162fc296d770d108698	3	1	main_slash	7	main_slash	141	stimuli_distractor_trianglediamonds.svg	stimuli_target_diamondsquares.svg	28	yes	53	1	562	0	0			0	0			1				0	
6.6.1	mac	2023-07-17	15:27:43	15:33:30	344356	62ebf162fc296d770d108698	3	1	main_slash	7	advance_on_keypress_SLASH	142	stimuli_distractor_trianglediamonds.svg	stimuli_target_diamondsquares.svg	28	yes	57	0	346	0	0			0	0			1				0	
6.6.1	mac	2023-07-17	15:27:43	15:33:33	347327	62ebf162fc296d770d108698	3	1	main_slash	7	main_slash	143	stimuli_distractor_trianglediamonds.svg	stimuli_distractor_trianglediamonds.svg	34	no	0	1	2000	0	0			0	0			1				0	
6.6.1	mac	2023-07-17	15:27:43	15:33:33	347327	62ebf162fc296d770d108698	3	1	main_slash	7	advance_on_keypress_SLASH	144	stimuli_distractor_trianglediamonds.svg	stimuli_distractor_trianglediamonds.svg	34	no	57	0	295	0	0			0	0			1				0	
6.6.1	mac	2023-07-17	15:27:43	15:33:35	348834	62ebf162fc296d770d108698	3	1	main_slash	7	main_slash	145	stimuli_target_diamondrectangles.svg	stimuli_distractor_trianglediamonds.svg	19	yes	53	1	571	0	0			0	0			1				0	
6.6.1	mac	2023-07-17	15:27:43	15:33:35	348834	62ebf162fc296d770d108698	3	1	main_slash	7	advance_on_keypress_SLASH	146	stimuli_target_diamondrectangles.svg	stimuli_distractor_trianglediamonds.svg	19	yes	57	0	302	0	0			0	0			1				0	
6.6.1	mac	2023-07-17	15:27:43	15:33:36	350274	62ebf162fc296d770d108698	3	1	main_slash	7	main_slash	147	stimuli_target_diamondrectangles.svg	stimuli_distractor_diamondtriangles.svg	23	yes	53	1	510	0	0			0	0			1				0	
6.6.1	mac	2023-07-17	15:27:43	15:33:36	350274	62ebf162fc296d770d108698	3	1	main_slash	7	advance_on_keypress_SLASH	148	stimuli_target_diamondrectangles.svg	stimuli_distractor_diamondtriangles.svg	23	yes	57	0	350	0	0			0	0			1				0	
6.6.1	mac	2023-07-17	15:27:43	15:33:38	351781	62ebf162fc296d770d108698	3	1	main_slash	7	main_slash	149	stimuli_target_trianglerectangles.svg	stimuli_distractor_diamondtriangles.svg	21	yes	53	1	518	0	0			0	0			1				0	
6.6.1	mac	2023-07-17	15:27:43	15:33:38	351781	62ebf162fc296d770d108698	3	1	main_slash	7	advance_on_keypress_SLASH	150	stimuli_target_trianglerectangles.svg	stimuli_distractor_diamondtriangles.svg	21	yes	57	0	336	0	0			0	0			1				0	
6.6.1	mac	2023-07-17	15:27:43	15:33:41	354746	62ebf162fc296d770d108698	3	1	main_slash	7	main_slash	151	stimuli_distractor_trianglediamonds.svg	stimuli_distractor_trianglediamonds.svg	33	no	0	1	2000	0	0			0	0			1				0	
6.6.1	mac	2023-07-17	15:27:43	15:33:41	354746	62ebf162fc296d770d108698	3	1	main_slash	7	advance_on_keypress_SLASH	152	stimuli_distractor_trianglediamonds.svg	stimuli_distractor_trianglediamonds.svg	33	no	57	0	638	0	0			0	0			1				0	
6.6.1	mac	2023-07-17	15:27:43	15:33:43	356552	62ebf162fc296d770d108698	3	1	main_slash	7	main_slash	153	stimuli_distractor_trianglediamonds.svg	stimuli_target_rectangletriangles.svg	9	yes	53	1	536	0	0			0	0			1				0	
6.6.1	mac	2023-07-17	15:27:43	15:33:43	356552	62ebf162fc296d770d108698	3	1	main_slash	7	advance_on_keypress_SLASH	154	stimuli_distractor_trianglediamonds.svg	stimuli_target_rectangletriangles.svg	9	yes	57	0	323	0	0			0	0			1				0	
6.6.1	mac	2023-07-17	15:27:43	15:33:44	358374	62ebf162fc296d770d108698	3	1	main_slash	7	main_slash	155	stimuli_target_squaretriangles.svg	stimuli_distractor_trianglediamonds.svg	3	yes	53	1	875	0	0			0	0			1				0	
6.6.1	mac	2023-07-17	15:27:43	15:33:44	358374	62ebf162fc296d770d108698	3	1	main_slash	7	advance_on_keypress_SLASH	156	stimuli_target_squaretriangles.svg	stimuli_distractor_trianglediamonds.svg	3	yes	57	0	546	0	0			0	0			1				0	
6.6.1	mac	2023-07-17	15:27:43	15:33:48	361548	62ebf162fc296d770d108698	3	1	main_slash	7	main_slash	157	stimuli_distractor_diamondtriangles.svg	stimuli_distractor_trianglediamonds.svg	38	no	0	1	2000	0	0			0	0			1				0	
6.6.1	mac	2023-07-17	15:27:43	15:33:48	361548	62ebf162fc296d770d108698	3	1	main_slash	7	advance_on_keypress_SLASH	158	stimuli_distractor_diamondtriangles.svg	stimuli_distractor_trianglediamonds.svg	38	no	57	0	541	0	0			0	0			1				0	
6.6.1	mac	2023-07-17	15:27:43	15:33:49	363258	62ebf162fc296d770d108698	3	1	main_slash	7	main_slash	159	stimuli_target_squarediamonds.svg	stimuli_distractor_trianglediamonds.svg	4	yes	53	1	539	0	0			0	0			1				0	
6.6.1	mac	2023-07-17	15:27:43	15:33:49	363258	62ebf162fc296d770d108698	3	1	main_slash	7	advance_on_keypress_SLASH	160	stimuli_target_squarediamonds.svg	stimuli_distractor_trianglediamonds.svg	4	yes	57	0	455	0	0			0	0			1				0	
6.6.1	mac	2023-07-17	15:27:43	15:34:11	384441	62ebf162fc296d770d108698	3	1	practice_z	9	practice_z	1	stimuli_target_diamondsquares.svg	stimuli_distractor_diamondtriangles.svg	3	yes	44	1	568	0	0			0	0			1				0	
6.6.1	mac	2023-07-17	15:27:43	15:34:11	384441	62ebf162fc296d770d108698	3	1	practice_z	9	advance_on_keypress_ZEE	2	stimuli_target_diamondsquares.svg	stimuli_distractor_diamondtriangles.svg	3	yes	57	0	560	0	0			0	0			1				0	
6.6.1	mac	2023-07-17	15:27:43	15:34:13	387140	62ebf162fc296d770d108698	3	1	practice_z	9	practice_z	3	stimuli_target_diamondsquares.svg	stimuli_distractor_trianglediamonds.svg	6	yes	44	1	517	0	0			0	0			1				0	
6.6.1	mac	2023-07-17	15:27:43	15:34:13	387140	62ebf162fc296d770d108698	3	1	practice_z	9	advance_on_keypress_ZEE	4	stimuli_target_diamondsquares.svg	stimuli_distractor_trianglediamonds.svg	6	yes	57	0	423	0	0			0	0			1				0	
6.6.1	mac	2023-07-17	15:27:43	15:34:16	389661	62ebf162fc296d770d108698	3	1	practice_z	9	practice_z	5	stimuli_target_squarediamonds.svg	stimuli_distractor_diamondtriangles.svg	2	yes	44	1	469	0	0			0	0			1				0	
6.6.1	mac	2023-07-17	15:27:43	15:34:16	389661	62ebf162fc296d770d108698	3	1	practice_z	9	advance_on_keypress_ZEE	6	stimuli_target_squarediamonds.svg	stimuli_distractor_diamondtriangles.svg	2	yes	57	0	470	0	0			0	0			1				0	
6.6.1	mac	2023-07-17	15:27:43	15:34:20	393757	62ebf162fc296d770d108698	3	1	practice_z	9	practice_z	7	stimuli_distractor_diamondtriangles.svg	stimuli_distractor_diamondtriangles.svg	13	no	0	1	2000	0	0			0	0			1				0	
6.6.1	mac	2023-07-17	15:27:43	15:34:20	393757	62ebf162fc296d770d108698	3	1	practice_z	9	advance_on_keypress_ZEE	8	stimuli_distractor_diamondtriangles.svg	stimuli_distractor_diamondtriangles.svg	13	no	57	0	577	0	0			0	0			1				0	
6.6.1	mac	2023-07-17	15:27:43	15:34:23	396478	62ebf162fc296d770d108698	3	1	practice_z	9	practice_z	9	stimuli_distractor_diamondtriangles.svg	stimuli_target_trianglerectangles.svg	9	yes	44	1	520	0	0			0	0			1				0	
6.6.1	mac	2023-07-17	15:27:43	15:34:23	396478	62ebf162fc296d770d108698	3	1	practice_z	9	advance_on_keypress_ZEE	10	stimuli_distractor_diamondtriangles.svg	stimuli_target_trianglerectangles.svg	9	yes	57	0	492	0	0			0	0			1				0	
6.6.1	mac	2023-07-17	15:27:43	15:34:25	399090	62ebf162fc296d770d108698	3	1	practice_z	9	practice_z	11	stimuli_target_squarediamonds.svg	stimuli_distractor_trianglediamonds.svg	5	yes	44	1	495	0	0			0	0			1				0	
6.6.1	mac	2023-07-17	15:27:43	15:34:25	399090	62ebf162fc296d770d108698	3	1	practice_z	9	advance_on_keypress_ZEE	12	stimuli_target_squarediamonds.svg	stimuli_distractor_trianglediamonds.svg	5	yes	57	0	426	0	0			0	0			1				0	
6.6.1	mac	2023-07-17	15:27:43	15:34:29	403142	62ebf162fc296d770d108698	3	1	practice_z	9	practice_z	13	stimuli_distractor_trianglediamonds.svg	stimuli_distractor_diamondtriangles.svg	16	no	0	1	2000	0	0			0	0			1				0	
6.6.1	mac	2023-07-17	15:27:43	15:34:29	403142	62ebf162fc296d770d108698	3	1	practice_z	9	advance_on_keypress_ZEE	14	stimuli_distractor_trianglediamonds.svg	stimuli_distractor_diamondtriangles.svg	16	no	57	0	439	0	0			0	0			1				0	
6.6.1	mac	2023-07-17	15:27:43	15:34:32	405750	62ebf162fc296d770d108698	3	1	practice_z	9	practice_z	15	stimuli_distractor_trianglediamonds.svg	stimuli_target_squarediamonds.svg	11	yes	44	1	537	0	0			0	0			1				0	
6.6.1	mac	2023-07-17	15:27:43	15:34:32	405750	62ebf162fc296d770d108698	3	1	practice_z	9	advance_on_keypress_ZEE	16	stimuli_distractor_trianglediamonds.svg	stimuli_target_squarediamonds.svg	11	yes	57	0	359	0	0			0	0			1				0	
6.6.1	mac	2023-07-17	15:27:43	15:34:34	408179	62ebf162fc296d770d108698	3	1	practice_z	9	practice_z	17	stimuli_target_rectanglediamonds.svg	stimuli_distractor_trianglediamonds.svg	4	yes	44	1	448	0	0			0	0			1				0	
6.6.1	mac	2023-07-17	15:27:43	15:34:34	408179	62ebf162fc296d770d108698	3	1	practice_z	9	advance_on_keypress_ZEE	18	stimuli_target_rectanglediamonds.svg	stimuli_distractor_trianglediamonds.svg	4	yes	57	0	399	0	0			0	0			1				0	
6.6.1	mac	2023-07-17	15:27:43	15:34:37	410768	62ebf162fc296d770d108698	3	1	practice_z	9	practice_z	19	stimuli_distractor_trianglediamonds.svg	stimuli_target_rectanglediamonds.svg	10	yes	44	1	553	0	0			0	0			1				0	
6.6.1	mac	2023-07-17	15:27:43	15:34:37	410768	62ebf162fc296d770d108698	3	1	practice_z	9	advance_on_keypress_ZEE	20	stimuli_distractor_trianglediamonds.svg	stimuli_target_rectanglediamonds.svg	10	yes	57	0	583	0	0			0	0			1				0	
6.6.1	mac	2023-07-17	15:27:43	15:34:40	413400	62ebf162fc296d770d108698	3	1	practice_z	9	practice_z	21	stimuli_distractor_diamondtriangles.svg	stimuli_distractor_trianglediamonds.svg	14	no	44	0	418	0	0			0	0			1				0	
6.6.1	mac	2023-07-17	15:27:43	15:34:40	413400	62ebf162fc296d770d108698	3	1	practice_z	9	advance_on_keypress_ZEE	22	stimuli_distractor_diamondtriangles.svg	stimuli_distractor_trianglediamonds.svg	14	no	57	0	671	0	0			0	0			1				0	
6.6.1	mac	2023-07-17	15:27:43	15:34:44	417697	62ebf162fc296d770d108698	3	1	practice_z	9	practice_z	23	stimuli_distractor_trianglediamonds.svg	stimuli_distractor_trianglediamonds.svg	15	no	0	1	2000	0	0			0	0			1				0	
6.6.1	mac	2023-07-17	15:27:43	15:34:44	417697	62ebf162fc296d770d108698	3	1	practice_z	9	advance_on_keypress_ZEE	24	stimuli_distractor_trianglediamonds.svg	stimuli_distractor_trianglediamonds.svg	15	no	57	0	420	0	0			0	0			1				0	
6.6.1	mac	2023-07-17	15:27:43	15:34:48	421748	62ebf162fc296d770d108698	3	1	practice_z	9	practice_z	25	stimuli_distractor_trianglediamonds.svg	stimuli_target_diamondrectangles.svg	12	yes	0	0	2000	0	0			0	0			1				0	
6.6.1	mac	2023-07-17	15:27:43	15:34:48	421748	62ebf162fc296d770d108698	3	1	practice_z	9	advance_on_keypress_ZEE	26	stimuli_distractor_trianglediamonds.svg	stimuli_target_diamondrectangles.svg	12	yes	57	0	509	0	0			0	0			1				0	
6.6.1	mac	2023-07-17	15:27:43	15:34:50	424381	62ebf162fc296d770d108698	3	1	practice_z	9	practice_z	27	stimuli_target_rectanglediamonds.svg	stimuli_distractor_diamondtriangles.svg	1	yes	44	1	495	0	0			0	0			1				0	
6.6.1	mac	2023-07-17	15:27:43	15:34:50	424381	62ebf162fc296d770d108698	3	1	practice_z	9	advance_on_keypress_ZEE	28	stimuli_target_rectanglediamonds.svg	stimuli_distractor_diamondtriangles.svg	1	yes	57	0	463	0	0			0	0			1				0	
6.6.1	mac	2023-07-17	15:27:43	15:34:53	427058	62ebf162fc296d770d108698	3	1	practice_z	9	practice_z	29	stimuli_distractor_diamondtriangles.svg	stimuli_target_rectangletriangles.svg	7	yes	44	1	572	0	0			0	0			1				0	
6.6.1	mac	2023-07-17	15:27:43	15:34:53	427058	62ebf162fc296d770d108698	3	1	practice_z	9	advance_on_keypress_ZEE	30	stimuli_distractor_diamondtriangles.svg	stimuli_target_rectangletriangles.svg	7	yes	57	0	384	0	0			0	0			1				0	
6.6.1	mac	2023-07-17	15:27:43	15:34:56	429691	62ebf162fc296d770d108698	3	1	practice_z	9	practice_z	31	stimuli_distractor_diamondtriangles.svg	stimuli_target_diamondrectangles.svg	8	yes	44	1	621	0	0			0	0			1				0	
6.6.1	mac	2023-07-17	15:27:43	15:34:56	429691	62ebf162fc296d770d108698	3	1	practice_z	9	advance_on_keypress_ZEE	32	stimuli_distractor_diamondtriangles.svg	stimuli_target_diamondrectangles.svg	8	yes	57	0	336	0	0			0	0			1				0	
6.6.1	mac	2023-07-17	15:27:43	15:34:59	432583	62ebf162fc296d770d108698	3	1	main_z	11	main_z	1	stimuli_target_rectanglediamonds.svg	stimuli_distractor_trianglediamonds.svg	2	yes	44	1	645	0	0			0	0			1				0	
6.6.1	mac	2023-07-17	15:27:43	15:34:59	432583	62ebf162fc296d770d108698	3	1	main_z	11	advance_on_keypress_ZEE	2	stimuli_target_rectanglediamonds.svg	stimuli_distractor_trianglediamonds.svg	2	yes	57	0	518	0	0			0	0			1				0	
6.6.1	mac	2023-07-17	15:27:43	15:35:01	434451	62ebf162fc296d770d108698	3	1	main_z	11	main_z	3	stimuli_target_diamondrectangles.svg	stimuli_distractor_diamondtriangles.svg	23	yes	44	1	713	0	0			0	0			1				0	
6.6.1	mac	2023-07-17	15:27:43	15:35:01	434451	62ebf162fc296d770d108698	3	1	main_z	11	advance_on_keypress_ZEE	4	stimuli_target_diamondrectangles.svg	stimuli_distractor_diamondtriangles.svg	23	yes	57	0	249	0	0			0	0			1				0	
6.6.1	mac	2023-07-17	15:27:43	15:35:02	435733	62ebf162fc296d770d108698	3	1	main_z	11	main_z	5	stimuli_distractor_trianglediamonds.svg	stimuli_distractor_trianglediamonds.svg	34	no	44	0	394	0	0			0	0			1				0	
6.6.1	mac	2023-07-17	15:27:43	15:35:02	435733	62ebf162fc296d770d108698	3	1	main_z	11	advance_on_keypress_ZEE	6	stimuli_distractor_trianglediamonds.svg	stimuli_distractor_trianglediamonds.svg	34	no	57	0	188	0	0			0	0			1				0	
6.6.1	mac	2023-07-17	15:27:43	15:35:03	437083	62ebf162fc296d770d108698	3	1	main_z	11	main_z	7	stimuli_distractor_trianglediamonds.svg	stimuli_target_squarediamonds.svg	12	yes	44	1	527	0	0			0	0			1				0	
6.6.1	mac	2023-07-17	15:27:43	15:35:03	437083	62ebf162fc296d770d108698	3	1	main_z	11	advance_on_keypress_ZEE	8	stimuli_distractor_trianglediamonds.svg	stimuli_target_squarediamonds.svg	12	yes	57	0	188	0	0			0	0			1				0	
6.6.1	mac	2023-07-17	15:27:43	15:35:05	438480	62ebf162fc296d770d108698	3	1	main_z	11	main_z	9	stimuli_target_diamondsquares.svg	stimuli_distractor_trianglediamonds.svg	20	yes	44	1	574	0	0			0	0			1				0	
6.6.1	mac	2023-07-17	15:27:43	15:35:05	438480	62ebf162fc296d770d108698	3	1	main_z	11	advance_on_keypress_ZEE	10	stimuli_target_diamondsquares.svg	stimuli_distractor_trianglediamonds.svg	20	yes	57	0	158	0	0			0	0			1				0	
6.6.1	mac	2023-07-17	15:27:43	15:35:07	441271	62ebf162fc296d770d108698	3	1	main_z	11	main_z	11	stimuli_distractor_trianglediamonds.svg	stimuli_distractor_diamondtriangles.svg	35	no	0	1	2000	0	0			0	0			1				0	
6.6.1	mac	2023-07-17	15:27:43	15:35:07	441271	62ebf162fc296d770d108698	3	1	main_z	11	advance_on_keypress_ZEE	12	stimuli_distractor_trianglediamonds.svg	stimuli_distractor_diamondtriangles.svg	35	no	57	0	271	0	0			0	0			1				0	
6.6.1	mac	2023-07-17	15:27:43	15:35:09	442754	62ebf162fc296d770d108698	3	1	main_z	11	main_z	13	stimuli_distractor_trianglediamonds.svg	stimuli_target_diamondsquares.svg	28	yes	44	1	580	0	0			0	0			1				0	
6.6.1	mac	2023-07-17	15:27:43	15:35:09	442754	62ebf162fc296d770d108698	3	1	main_z	11	advance_on_keypress_ZEE	14	stimuli_distractor_trianglediamonds.svg	stimuli_target_diamondsquares.svg	28	yes	57	0	295	0	0			0	0			1				0	
6.6.1	mac	2023-07-17	15:27:43	15:35:10	444261	62ebf162fc296d770d108698	3	1	main_z	11	main_z	15	stimuli_distractor_diamondtriangles.svg	stimuli_distractor_trianglediamonds.svg	38	no	44	0	587	0	0			0	0			1				0	
6.6.1	mac	2023-07-17	15:27:43	15:35:10	444261	62ebf162fc296d770d108698	3	1	main_z	11	advance_on_keypress_ZEE	16	stimuli_distractor_diamondtriangles.svg	stimuli_distractor_trianglediamonds.svg	38	no	57	0	302	0	0			0	0			1				0	
6.6.1	mac	2023-07-17	15:27:43	15:35:12	445724	62ebf162fc296d770d108698	3	1	main_z	11	main_z	17	stimuli_distractor_trianglediamonds.svg	stimuli_target_rectangletriangles.svg	9	yes	44	1	533	0	0			0	0			1				0	
6.6.1	mac	2023-07-17	15:27:43	15:35:12	445724	62ebf162fc296d770d108698	3	1	main_z	11	advance_on_keypress_ZEE	18	stimuli_distractor_trianglediamonds.svg	stimuli_target_rectangletriangles.svg	9	yes	57	0	252	0	0			0	0			1				0	
6.6.1	mac	2023-07-17	15:27:43	15:35:15	448607	62ebf162fc296d770d108698	3	1	main_z	11	main_z	19	stimuli_distractor_diamondtriangles.svg	stimuli_distractor_diamondtriangles.svg	40	no	0	1	2000	0	0			0	0			1				0	
6.6.1	mac	2023-07-17	15:27:43	15:35:15	448607	62ebf162fc296d770d108698	3	1	main_z	11	advance_on_keypress_ZEE	20	stimuli_distractor_diamondtriangles.svg	stimuli_distractor_diamondtriangles.svg	40	no	57	0	270	0	0			0	0			1				0	
6.6.1	mac	2023-07-17	15:27:43	15:35:16	449954	62ebf162fc296d770d108698	3	1	main_z	11	main_z	21	stimuli_distractor_diamondtriangles.svg	stimuli_target_trianglesquares.svg	30	yes	44	1	445	0	0			0	0			1				0	
6.6.1	mac	2023-07-17	15:27:43	15:35:16	449954	62ebf162fc296d770d108698	3	1	main_z	11	advance_on_keypress_ZEE	22	stimuli_distractor_diamondtriangles.svg	stimuli_target_trianglesquares.svg	30	yes	57	0	300	0	0			0	0			1				0	
6.6.1	mac	2023-07-17	15:27:43	15:35:17	451372	62ebf162fc296d770d108698	3	1	main_z	11	main_z	23	stimuli_target_diamondsquares.svg	stimuli_distractor_diamondtriangles.svg	24	yes	44	1	495	0	0			0	0			1				0	
6.6.1	mac	2023-07-17	15:27:43	15:35:17	451372	62ebf162fc296d770d108698	3	1	main_z	11	advance_on_keypress_ZEE	24	stimuli_target_diamondsquares.svg	stimuli_distractor_diamondtriangles.svg	24	yes	57	0	265	0	0			0	0			1				0	
6.6.1	mac	2023-07-17	15:27:43	15:35:19	452654	62ebf162fc296d770d108698	3	1	main_z	11	main_z	25	stimuli_target_trianglerectangles.svg	stimuli_distractor_trianglediamonds.svg	17	yes	44	1	394	0	0			0	0			1				0	
6.6.1	mac	2023-07-17	15:27:43	15:35:19	452654	62ebf162fc296d770d108698	3	1	main_z	11	advance_on_keypress_ZEE	26	stimuli_target_trianglerectangles.svg	stimuli_distractor_trianglediamonds.svg	17	yes	57	0	165	0	0			0	0			1				0	
6.6.1	mac	2023-07-17	15:27:43	15:35:21	454544	62ebf162fc296d770d108698	3	1	main_z	11	main_z	27	stimuli_target_trianglerectangles.svg	stimuli_distractor_diamondtriangles.svg	21	yes	44	1	1100	0	0			0	0			1				0	
6.6.1	mac	2023-07-17	15:27:43	15:35:21	454544	62ebf162fc296d770d108698	3	1	main_z	11	advance_on_keypress_ZEE	28	stimuli_target_trianglerectangles.svg	stimuli_distractor_diamondtriangles.svg	21	yes	57	0	276	0	0			0	0			1				0	
6.6.1	mac	2023-07-17	15:27:43	15:35:22	455962	62ebf162fc296d770d108698	3	1	main_z	11	main_z	29	stimuli_target_squaretriangles.svg	stimuli_distractor_diamondtriangles.svg	7	yes	44	1	517	0	0			0	0			1				0	
6.6.1	mac	2023-07-17	15:27:43	15:35:22	455962	62ebf162fc296d770d108698	3	1	main_z	11	advance_on_keypress_ZEE	30	stimuli_target_squaretriangles.svg	stimuli_distractor_diamondtriangles.svg	7	yes	57	0	253	0	0			0	0			1				0	
6.6.1	mac	2023-07-17	15:27:43	15:35:24	457425	62ebf162fc296d770d108698	3	1	main_z	11	main_z	31	stimuli_target_squarediamonds.svg	stimuli_distractor_trianglediamonds.svg	4	yes	44	1	579	0	0			0	0			1				0	
6.6.1	mac	2023-07-17	15:27:43	15:35:24	457425	62ebf162fc296d770d108698	3	1	main_z	11	advance_on_keypress_ZEE	32	stimuli_target_squarediamonds.svg	stimuli_distractor_trianglediamonds.svg	4	yes	57	0	519	0	0			0	0			1				0	
6.6.1	mac	2023-07-17	15:27:43	15:35:25	459225	62ebf162fc296d770d108698	3	1	main_z	11	main_z	33	stimuli_distractor_diamondtriangles.svg	stimuli_target_rectangletriangles.svg	13	yes	44	1	646	0	0			0	0			1				0	
6.6.1	mac	2023-07-17	15:27:43	15:35:25	459225	62ebf162fc296d770d108698	3	1	main_z	11	advance_on_keypress_ZEE	34	stimuli_distractor_diamondtriangles.svg	stimuli_target_rectangletriangles.svg	13	yes	57	0	316	0	0			0	0			1				0	
6.6.1	mac	2023-07-17	15:27:43	15:35:27	460574	62ebf162fc296d770d108698	3	1	main_z	11	main_z	35	stimuli_distractor_diamondtriangles.svg	stimuli_target_squarediamonds.svg	16	yes	44	1	396	0	0			0	0			1				0	
6.6.1	mac	2023-07-17	15:27:43	15:35:27	460574	62ebf162fc296d770d108698	3	1	main_z	11	advance_on_keypress_ZEE	36	stimuli_distractor_diamondtriangles.svg	stimuli_target_squarediamonds.svg	16	yes	57	0	458	0	0			0	0			1				0	
6.6.1	mac	2023-07-17	15:27:43	15:35:28	462172	62ebf162fc296d770d108698	3	1	main_z	11	main_z	37	stimuli_distractor_diamondtriangles.svg	stimuli_target_rectanglediamonds.svg	14	yes	44	1	509	0	0			0	0			1				0	
6.6.1	mac	2023-07-17	15:27:43	15:35:28	462172	62ebf162fc296d770d108698	3	1	main_z	11	advance_on_keypress_ZEE	38	stimuli_distractor_diamondtriangles.svg	stimuli_target_rectanglediamonds.svg	14	yes	57	0	307	0	0			0	0			1				0	
6.6.1	mac	2023-07-17	15:27:43	15:35:30	463500	62ebf162fc296d770d108698	3	1	main_z	11	main_z	39	stimuli_target_rectanglediamonds.svg	stimuli_distractor_diamondtriangles.svg	6	yes	44	1	403	0	0			0	0			1				0	
6.6.1	mac	2023-07-17	15:27:43	15:35:30	463500	62ebf162fc296d770d108698	3	1	main_z	11	advance_on_keypress_ZEE	40	stimuli_target_rectanglediamonds.svg	stimuli_distractor_diamondtriangles.svg	6	yes	57	0	323	0	0			0	0			1				0	
6.6.1	mac	2023-07-17	15:27:43	15:35:33	466444	62ebf162fc296d770d108698	3	1	main_z	11	main_z	41	stimuli_distractor_trianglediamonds.svg	stimuli_distractor_diamondtriangles.svg	36	no	0	1	2000	0	0			0	0			1				0	
6.6.1	mac	2023-07-17	15:27:43	15:35:33	466444	62ebf162fc296d770d108698	3	1	main_z	11	advance_on_keypress_ZEE	42	stimuli_distractor_trianglediamonds.svg	stimuli_distractor_diamondtriangles.svg	36	no	57	0	500	0	0			0	0			1				0	
6.6.1	mac	2023-07-17	15:27:43	15:35:34	468113	62ebf162fc296d770d108698	3	1	main_z	11	main_z	43	stimuli_distractor_trianglediamonds.svg	stimuli_target_squaretriangles.svg	11	yes	44	1	531	0	0			0	0			1				0	
6.6.1	mac	2023-07-17	15:27:43	15:35:34	468113	62ebf162fc296d770d108698	3	1	main_z	11	advance_on_keypress_ZEE	44	stimuli_distractor_trianglediamonds.svg	stimuli_target_squaretriangles.svg	11	yes	57	0	340	0	0			0	0			1				0	
6.6.1	mac	2023-07-17	15:27:43	15:35:36	469688	62ebf162fc296d770d108698	3	1	main_z	11	main_z	45	stimuli_distractor_diamondtriangles.svg	stimuli_target_diamondsquares.svg	32	yes	44	1	605	0	0			0	0			1				0	
6.6.1	mac	2023-07-17	15:27:43	15:35:36	469688	62ebf162fc296d770d108698	3	1	main_z	11	advance_on_keypress_ZEE	46	stimuli_distractor_diamondtriangles.svg	stimuli_target_diamondsquares.svg	32	yes	57	0	249	0	0			0	0			1				0	
6.6.1	mac	2023-07-17	15:27:43	15:35:37	471105	62ebf162fc296d770d108698	3	1	main_z	11	main_z	47	stimuli_target_squarediamonds.svg	stimuli_distractor_diamondtriangles.svg	8	yes	44	1	539	0	0			0	0			1				0	
6.6.1	mac	2023-07-17	15:27:43	15:35:37	471105	62ebf162fc296d770d108698	3	1	main_z	11	advance_on_keypress_ZEE	48	stimuli_target_squarediamonds.svg	stimuli_distractor_diamondtriangles.svg	8	yes	57	0	295	0	0			0	0			1				0	
6.6.1	mac	2023-07-17	15:27:43	15:35:39	472635	62ebf162fc296d770d108698	3	1	main_z	11	main_z	49	stimuli_distractor_trianglediamonds.svg	stimuli_target_rectanglediamonds.svg	10	yes	44	1	602	0	0			0	0			1				0	
6.6.1	mac	2023-07-17	15:27:43	15:35:39	472635	62ebf162fc296d770d108698	3	1	main_z	11	advance_on_keypress_ZEE	50	stimuli_distractor_trianglediamonds.svg	stimuli_target_rectanglediamonds.svg	10	yes	57	0	323	0	0			0	0			1				0	
6.6.1	mac	2023-07-17	15:27:43	15:35:40	474233	62ebf162fc296d770d108698	3	1	main_z	11	main_z	51	stimuli_target_rectangletriangles.svg	stimuli_distractor_diamondtriangles.svg	5	yes	44	1	650	0	0			0	0			1				0	
6.6.1	mac	2023-07-17	15:27:43	15:35:40	474233	62ebf162fc296d770d108698	3	1	main_z	11	advance_on_keypress_ZEE	52	stimuli_target_rectangletriangles.svg	stimuli_distractor_diamondtriangles.svg	5	yes	57	0	254	0	0			0	0			1				0	
6.6.1	mac	2023-07-17	15:27:43	15:35:42	475515	62ebf162fc296d770d108698	3	1	main_z	11	main_z	53	stimuli_target_diamondrectangles.svg	stimuli_distractor_trianglediamonds.svg	19	yes	44	1	398	0	0			0	0			1				0	
6.6.1	mac	2023-07-17	15:27:43	15:35:42	475515	62ebf162fc296d770d108698	3	1	main_z	11	advance_on_keypress_ZEE	54	stimuli_target_diamondrectangles.svg	stimuli_distractor_trianglediamonds.svg	19	yes	57	0	295	0	0			0	0			1				0	
6.6.1	mac	2023-07-17	15:27:43	15:35:43	476820	62ebf162fc296d770d108698	3	1	main_z	11	main_z	55	stimuli_target_trianglesquares.svg	stimuli_distractor_diamondtriangles.svg	22	yes	44	1	369	0	0			0	0			1				0	
6.6.1	mac	2023-07-17	15:27:43	15:35:43	476820	62ebf162fc296d770d108698	3	1	main_z	11	advance_on_keypress_ZEE	56	stimuli_target_trianglesquares.svg	stimuli_distractor_diamondtriangles.svg	22	yes	57	0	255	0	0			0	0			1				0	
6.6.1	mac	2023-07-17	15:27:43	15:35:44	478148	62ebf162fc296d770d108698	3	1	main_z	11	main_z	57	stimuli_distractor_diamondtriangles.svg	stimuli_distractor_trianglediamonds.svg	37	no	44	0	447	0	0			0	0			1				0	
6.6.1	mac	2023-07-17	15:27:43	15:35:44	478148	62ebf162fc296d770d108698	3	1	main_z	11	advance_on_keypress_ZEE	58	stimuli_distractor_diamondtriangles.svg	stimuli_distractor_trianglediamonds.svg	37	no	57	0	317	0	0			0	0			1				0	
6.6.1	mac	2023-07-17	15:27:43	15:35:46	479701	62ebf162fc296d770d108698	3	1	main_z	11	main_z	59	stimuli_target_trianglesquares.svg	stimuli_distractor_trianglediamonds.svg	18	yes	44	1	600	0	0			0	0			1				0	
6.6.1	mac	2023-07-17	15:27:43	15:35:46	479701	62ebf162fc296d770d108698	3	1	main_z	11	advance_on_keypress_ZEE	60	stimuli_target_trianglesquares.svg	stimuli_distractor_trianglediamonds.svg	18	yes	57	0	229	0	0			0	0			1				0	
6.6.1	mac	2023-07-17	15:27:43	15:35:47	481028	62ebf162fc296d770d108698	3	1	main_z	11	main_z	61	stimuli_target_squaretriangles.svg	stimuli_distractor_trianglediamonds.svg	3	yes	44	1	460	0	0			0	0			1				0	
6.6.1	mac	2023-07-17	15:27:43	15:35:47	481028	62ebf162fc296d770d108698	3	1	main_z	11	advance_on_keypress_ZEE	62	stimuli_target_squaretriangles.svg	stimuli_distractor_trianglediamonds.svg	3	yes	57	0	307	0	0			0	0			1				0	
6.6.1	mac	2023-07-17	15:27:43	15:35:49	482401	62ebf162fc296d770d108698	3	1	main_z	11	main_z	63	stimuli_distractor_trianglediamonds.svg	stimuli_target_trianglesquares.svg	26	yes	44	1	449	0	0			0	0			1				0	
6.6.1	mac	2023-07-17	15:27:43	15:35:49	482401	62ebf162fc296d770d108698	3	1	main_z	11	advance_on_keypress_ZEE	64	stimuli_distractor_trianglediamonds.svg	stimuli_target_trianglesquares.svg	26	yes	57	0	296	0	0			0	0			1				0	
6.6.1	mac	2023-07-17	15:27:43	15:35:51	485334	62ebf162fc296d770d108698	3	1	main_z	11	main_z	65	stimuli_distractor_diamondtriangles.svg	stimuli_distractor_diamondtriangles.svg	39	no	0	1	2000	0	0			0	0			1				0	
6.6.1	mac	2023-07-17	15:27:43	15:35:51	485334	62ebf162fc296d770d108698	3	1	main_z	11	advance_on_keypress_ZEE	66	stimuli_distractor_diamondtriangles.svg	stimuli_distractor_diamondtriangles.svg	39	no	57	0	444	0	0			0	0			1				0	
6.6.1	mac	2023-07-17	15:27:43	15:35:53	486879	62ebf162fc296d770d108698	3	1	main_z	11	main_z	67	stimuli_distractor_trianglediamonds.svg	stimuli_target_trianglerectangles.svg	25	yes	44	1	474	0	0			0	0			1				0	
6.6.1	mac	2023-07-17	15:27:43	15:35:53	486879	62ebf162fc296d770d108698	3	1	main_z	11	advance_on_keypress_ZEE	68	stimuli_distractor_trianglediamonds.svg	stimuli_target_trianglerectangles.svg	25	yes	57	0	328	0	0			0	0			1				0	
6.6.1	mac	2023-07-17	15:27:43	15:35:55	488521	62ebf162fc296d770d108698	3	1	main_z	11	main_z	69	stimuli_distractor_diamondtriangles.svg	stimuli_target_squaretriangles.svg	15	yes	44	1	700	0	0			0	0			1				0	
6.6.1	mac	2023-07-17	15:27:43	15:35:55	488521	62ebf162fc296d770d108698	3	1	main_z	11	advance_on_keypress_ZEE	70	stimuli_distractor_diamondtriangles.svg	stimuli_target_squaretriangles.svg	15	yes	57	0	613	0	0			0	0			1				0	
6.6.1	mac	2023-07-17	15:27:43	15:35:56	490231	62ebf162fc296d770d108698	3	1	main_z	11	main_z	71	stimuli_distractor_diamondtriangles.svg	stimuli_target_trianglerectangles.svg	29	yes	44	1	460	0	0			0	0			1				0	
6.6.1	mac	2023-07-17	15:27:43	15:35:56	490231	62ebf162fc296d770d108698	3	1	main_z	11	advance_on_keypress_ZEE	72	stimuli_distractor_diamondtriangles.svg	stimuli_target_trianglerectangles.svg	29	yes	57	0	397	0	0			0	0			1				0	
6.6.1	mac	2023-07-17	15:27:43	15:35:58	491693	62ebf162fc296d770d108698	3	1	main_z	11	main_z	73	stimuli_target_rectangletriangles.svg	stimuli_distractor_trianglediamonds.svg	1	yes	44	1	439	0	0			0	0			1				0	
6.6.1	mac	2023-07-17	15:27:43	15:35:58	491693	62ebf162fc296d770d108698	3	1	main_z	11	advance_on_keypress_ZEE	74	stimuli_target_rectangletriangles.svg	stimuli_distractor_trianglediamonds.svg	1	yes	57	0	272	0	0			0	0			1				0	
6.6.1	mac	2023-07-17	15:27:43	15:35:59	493044	62ebf162fc296d770d108698	3	1	main_z	11	main_z	75	stimuli_distractor_trianglediamonds.svg	stimuli_distractor_trianglediamonds.svg	33	no	44	0	439	0	0			0	0			1				0	
6.6.1	mac	2023-07-17	15:27:43	15:35:59	493044	62ebf162fc296d770d108698	3	1	main_z	11	advance_on_keypress_ZEE	76	stimuli_distractor_trianglediamonds.svg	stimuli_distractor_trianglediamonds.svg	33	no	57	0	542	0	0			0	0			1				0	
6.6.1	mac	2023-07-17	15:27:43	15:36:01	494709	62ebf162fc296d770d108698	3	1	main_z	11	main_z	77	stimuli_distractor_trianglediamonds.svg	stimuli_target_diamondrectangles.svg	27	yes	44	1	486	0	0			0	0			1				0	
6.6.1	mac	2023-07-17	15:27:43	15:36:01	494709	62ebf162fc296d770d108698	3	1	main_z	11	advance_on_keypress_ZEE	78	stimuli_distractor_trianglediamonds.svg	stimuli_target_diamondrectangles.svg	27	yes	57	0	300	0	0			0	0			1				0	
6.6.1	mac	2023-07-17	15:27:43	15:36:02	496126	62ebf162fc296d770d108698	3	1	main_z	11	main_z	79	stimuli_distractor_diamondtriangles.svg	stimuli_target_diamondrectangles.svg	31	yes	44	1	487	0	0			0	0			1				0	
6.6.1	mac	2023-07-17	15:27:43	15:36:02	496126	62ebf162fc296d770d108698	3	1	main_z	11	advance_on_keypress_ZEE	80	stimuli_distractor_diamondtriangles.svg	stimuli_target_diamondrectangles.svg	31	yes	57	0	279	0	0			0	0			1				0	
6.6.1	mac	2023-07-17	15:27:43	15:36:05	499039	62ebf162fc296d770d108698	3	1	main_z	11	main_z	81	stimuli_target_squaretriangles.svg	stimuli_distractor_diamondtriangles.svg	7	yes	0	0	2000	0	0			0	0			1				0	
6.6.1	mac	2023-07-17	15:27:43	15:36:05	499039	62ebf162fc296d770d108698	3	1	main_z	11	advance_on_keypress_ZEE	82	stimuli_target_squaretriangles.svg	stimuli_distractor_diamondtriangles.svg	7	yes	57	0	602	0	0			0	0			1				0	
6.6.1	mac	2023-07-17	15:27:43	15:36:07	500874	62ebf162fc296d770d108698	3	1	main_z	11	main_z	83	stimuli_target_trianglerectangles.svg	stimuli_distractor_trianglediamonds.svg	17	yes	44	1	599	0	0			0	0			1				0	
6.6.1	mac	2023-07-17	15:27:43	15:36:07	500874	62ebf162fc296d770d108698	3	1	main_z	11	advance_on_keypress_ZEE	84	stimuli_target_trianglerectangles.svg	stimuli_distractor_trianglediamonds.svg	17	yes	57	0	252	0	0			0	0			1				0	
6.6.1	mac	2023-07-17	15:27:43	15:36:08	502292	62ebf162fc296d770d108698	3	1	main_z	11	main_z	85	stimuli_target_rectanglediamonds.svg	stimuli_distractor_diamondtriangles.svg	6	yes	44	1	534	0	0			0	0			1				0	
6.6.1	mac	2023-07-17	15:27:43	15:36:08	502292	62ebf162fc296d770d108698	3	1	main_z	11	advance_on_keypress_ZEE	86	stimuli_target_rectanglediamonds.svg	stimuli_distractor_diamondtriangles.svg	6	yes	57	0	344	0	0			0	0			1				0	
6.6.1	mac	2023-07-17	15:27:43	15:36:10	503732	62ebf162fc296d770d108698	3	1	main_z	11	main_z	87	stimuli_target_diamondrectangles.svg	stimuli_distractor_trianglediamonds.svg	19	yes	44	1	474	0	0			0	0			1				0	
6.6.1	mac	2023-07-17	15:27:43	15:36:10	503732	62ebf162fc296d770d108698	3	1	main_z	11	advance_on_keypress_ZEE	88	stimuli_target_diamondrectangles.svg	stimuli_distractor_trianglediamonds.svg	19	yes	57	0	318	0	0			0	0			1				0	
6.6.1	mac	2023-07-17	15:27:43	15:36:11	505104	62ebf162fc296d770d108698	3	1	main_z	11	main_z	89	stimuli_distractor_trianglediamonds.svg	stimuli_target_squaretriangles.svg	11	yes	44	1	428	0	0			0	0			1				0	
6.6.1	mac	2023-07-17	15:27:43	15:36:11	505104	62ebf162fc296d770d108698	3	1	main_z	11	advance_on_keypress_ZEE	90	stimuli_distractor_trianglediamonds.svg	stimuli_target_squaretriangles.svg	11	yes	57	0	256	0	0			0	0			1				0	
6.6.1	mac	2023-07-17	15:27:43	15:36:13	506386	62ebf162fc296d770d108698	3	1	main_z	11	main_z	91	stimuli_target_trianglerectangles.svg	stimuli_distractor_diamondtriangles.svg	21	yes	44	1	395	0	0			0	0			1				0	
6.6.1	mac	2023-07-17	15:27:43	15:36:13	506386	62ebf162fc296d770d108698	3	1	main_z	11	advance_on_keypress_ZEE	92	stimuli_target_trianglerectangles.svg	stimuli_distractor_diamondtriangles.svg	21	yes	57	0	345	0	0			0	0			1				0	
6.6.1	mac	2023-07-17	15:27:43	15:36:14	507804	62ebf162fc296d770d108698	3	1	main_z	11	main_z	93	stimuli_distractor_diamondtriangles.svg	stimuli_target_diamondsquares.svg	32	yes	44	1	445	0	0			0	0			1				0	
6.6.1	mac	2023-07-17	15:27:43	15:36:14	507804	62ebf162fc296d770d108698	3	1	main_z	11	advance_on_keypress_ZEE	94	stimuli_distractor_diamondtriangles.svg	stimuli_target_diamondsquares.svg	32	yes	57	0	188	0	0			0	0			1				0	
6.6.1	mac	2023-07-17	15:27:43	15:36:15	509109	62ebf162fc296d770d108698	3	1	main_z	11	main_z	95	stimuli_target_diamondsquares.svg	stimuli_distractor_diamondtriangles.svg	24	yes	44	1	484	0	0			0	0			1				0	
6.6.1	mac	2023-07-17	15:27:43	15:36:15	509109	62ebf162fc296d770d108698	3	1	main_z	11	advance_on_keypress_ZEE	96	stimuli_target_diamondsquares.svg	stimuli_distractor_diamondtriangles.svg	24	yes	57	0	230	0	0			0	0			1				0	
6.6.1	mac	2023-07-17	15:27:43	15:36:17	510662	62ebf162fc296d770d108698	3	1	main_z	11	main_z	97	stimuli_distractor_diamondtriangles.svg	stimuli_target_squarediamonds.svg	16	yes	44	1	685	0	0			0	0			1				0	
6.6.1	mac	2023-07-17	15:27:43	15:36:17	510662	62ebf162fc296d770d108698	3	1	main_z	11	advance_on_keypress_ZEE	98	stimuli_distractor_diamondtriangles.svg	stimuli_target_squarediamonds.svg	16	yes	57	0	614	0	0			0	0			1				0	
6.6.1	mac	2023-07-17	15:27:43	15:36:20	513909	62ebf162fc296d770d108698	3	1	main_z	11	main_z	99	stimuli_target_trianglesquares.svg	stimuli_distractor_trianglediamonds.svg	18	yes	0	0	2000	0	0			0	0			1				0	
6.6.1	mac	2023-07-17	15:27:43	15:36:20	513909	62ebf162fc296d770d108698	3	1	main_z	11	advance_on_keypress_ZEE	100	stimuli_target_trianglesquares.svg	stimuli_distractor_trianglediamonds.svg	18	yes	57	0	356	0	0			0	0			1				0	
6.6.1	mac	2023-07-17	15:27:43	15:36:23	516893	62ebf162fc296d770d108698	3	1	main_z	11	main_z	101	stimuli_distractor_diamondtriangles.svg	stimuli_distractor_trianglediamonds.svg	38	no	0	1	2000	0	0			0	0			1				0	
6.6.1	mac	2023-07-17	15:27:43	15:36:23	516893	62ebf162fc296d770d108698	3	1	main_z	11	advance_on_keypress_ZEE	102	stimuli_distractor_diamondtriangles.svg	stimuli_distractor_trianglediamonds.svg	38	no	57	0	274	0	0			0	0			1				0	
6.6.1	mac	2023-07-17	15:27:43	15:36:24	518312	62ebf162fc296d770d108698	3	1	main_z	11	main_z	103	stimuli_target_squarediamonds.svg	stimuli_distractor_trianglediamonds.svg	4	yes	44	1	517	0	0			0	0			1				0	
6.6.1	mac	2023-07-17	15:27:43	15:36:24	518312	62ebf162fc296d770d108698	3	1	main_z	11	advance_on_keypress_ZEE	104	stimuli_target_squarediamonds.svg	stimuli_distractor_trianglediamonds.svg	4	yes	57	0	410	0	0			0	0			1				0	
6.6.1	mac	2023-07-17	15:27:43	15:36:27	521344	62ebf162fc296d770d108698	3	1	main_z	11	main_z	105	stimuli_distractor_trianglediamonds.svg	stimuli_target_diamondsquares.svg	28	yes	0	0	2000	0	0			0	0			1				0	
6.6.1	mac	2023-07-17	15:27:43	15:36:27	521344	62ebf162fc296d770d108698	3	1	main_z	11	advance_on_keypress_ZEE	106	stimuli_distractor_trianglediamonds.svg	stimuli_target_diamondsquares.svg	28	yes	57	0	459	0	0			0	0			1				0	
6.6.1	mac	2023-07-17	15:27:43	15:36:29	522947	62ebf162fc296d770d108698	3	1	main_z	11	main_z	107	stimuli_distractor_diamondtriangles.svg	stimuli_target_rectangletriangles.svg	13	yes	44	1	516	0	0			0	0			1				0	
6.6.1	mac	2023-07-17	15:27:43	15:36:29	522947	62ebf162fc296d770d108698	3	1	main_z	11	advance_on_keypress_ZEE	108	stimuli_distractor_diamondtriangles.svg	stimuli_target_rectangletriangles.svg	13	yes	57	0	320	0	0			0	0			1				0	
6.6.1	mac	2023-07-17	15:27:43	15:36:32	525896	62ebf162fc296d770d108698	3	1	main_z	11	main_z	109	stimuli_distractor_diamondtriangles.svg	stimuli_distractor_diamondtriangles.svg	39	no	0	1	2000	0	0			0	0			1				0	
6.6.1	mac	2023-07-17	15:27:43	15:36:32	525896	62ebf162fc296d770d108698	3	1	main_z	11	advance_on_keypress_ZEE	110	stimuli_distractor_diamondtriangles.svg	stimuli_distractor_diamondtriangles.svg	39	no	57	0	1014	0	0			0	0			1				0	
6.6.1	mac	2023-07-17	15:27:43	15:36:34	528033	62ebf162fc296d770d108698	3	1	main_z	11	main_z	111	stimuli_distractor_trianglediamonds.svg	stimuli_target_trianglesquares.svg	26	yes	44	1	483	0	0			0	0			1				0	
6.6.1	mac	2023-07-17	15:27:43	15:36:34	528033	62ebf162fc296d770d108698	3	1	main_z	11	advance_on_keypress_ZEE	112	stimuli_distractor_trianglediamonds.svg	stimuli_target_trianglesquares.svg	26	yes	57	0	275	0	0			0	0			1				0	
6.6.1	mac	2023-07-17	15:27:43	15:36:37	530930	62ebf162fc296d770d108698	3	1	main_z	11	main_z	113	stimuli_distractor_diamondtriangles.svg	stimuli_distractor_diamondtriangles.svg	40	no	0	1	2000	0	0			0	0			1				0	
6.6.1	mac	2023-07-17	15:27:43	15:36:37	530930	62ebf162fc296d770d108698	3	1	main_z	11	advance_on_keypress_ZEE	114	stimuli_distractor_diamondtriangles.svg	stimuli_distractor_diamondtriangles.svg	40	no	57	0	391	0	0			0	0			1				0	
6.6.1	mac	2023-07-17	15:27:43	15:36:39	532421	62ebf162fc296d770d108698	3	1	main_z	11	main_z	115	stimuli_target_squaretriangles.svg	stimuli_distractor_trianglediamonds.svg	3	yes	44	1	470	0	0			0	0			1				0	
6.6.1	mac	2023-07-17	15:27:43	15:36:39	532421	62ebf162fc296d770d108698	3	1	main_z	11	advance_on_keypress_ZEE	116	stimuli_target_squaretriangles.svg	stimuli_distractor_trianglediamonds.svg	3	yes	57	0	279	0	0			0	0			1				0	
6.6.1	mac	2023-07-17	15:27:43	15:36:40	533838	62ebf162fc296d770d108698	3	1	main_z	11	main_z	117	stimuli_target_rectangletriangles.svg	stimuli_distractor_trianglediamonds.svg	1	yes	44	1	504	0	0			0	0			1				0	
6.6.1	mac	2023-07-17	15:27:43	15:36:40	533838	62ebf162fc296d770d108698	3	1	main_z	11	advance_on_keypress_ZEE	118	stimuli_target_rectangletriangles.svg	stimuli_distractor_trianglediamonds.svg	1	yes	57	0	235	0	0			0	0			1				0	
6.6.1	mac	2023-07-17	15:27:43	15:36:41	535346	62ebf162fc296d770d108698	3	1	main_z	11	main_z	119	stimuli_distractor_trianglediamonds.svg	stimuli_distractor_diamondtriangles.svg	36	no	44	0	645	0	0			0	0			1				0	
6.6.1	mac	2023-07-17	15:27:43	15:36:41	535346	62ebf162fc296d770d108698	3	1	main_z	11	advance_on_keypress_ZEE	120	stimuli_distractor_trianglediamonds.svg	stimuli_distractor_diamondtriangles.svg	36	no	57	0	286	0	0			0	0			1				0	
6.6.1	mac	2023-07-17	15:27:43	15:36:43	536944	62ebf162fc296d770d108698	3	1	main_z	11	main_z	121	stimuli_distractor_trianglediamonds.svg	stimuli_target_trianglerectangles.svg	25	yes	44	1	692	0	0			0	0			1				0	
6.6.1	mac	2023-07-17	15:27:43	15:36:43	536944	62ebf162fc296d770d108698	3	1	main_z	11	advance_on_keypress_ZEE	122	stimuli_distractor_trianglediamonds.svg	stimuli_target_trianglerectangles.svg	25	yes	57	0	306	0	0			0	0			1				0	
6.6.1	mac	2023-07-17	15:27:43	15:36:44	538339	62ebf162fc296d770d108698	3	1	main_z	11	main_z	123	stimuli_distractor_diamondtriangles.svg	stimuli_target_trianglerectangles.svg	29	yes	44	1	470	0	0			0	0			1				0	
6.6.1	mac	2023-07-17	15:27:43	15:36:44	538339	62ebf162fc296d770d108698	3	1	main_z	11	advance_on_keypress_ZEE	124	stimuli_distractor_diamondtriangles.svg	stimuli_target_trianglerectangles.svg	29	yes	57	0	302	0	0			0	0			1				0	
6.6.1	mac	2023-07-17	15:27:43	15:36:46	539644	62ebf162fc296d770d108698	3	1	main_z	11	main_z	125	stimuli_distractor_trianglediamonds.svg	stimuli_target_diamondrectangles.svg	27	yes	44	1	375	0	0			0	0			1				0	
6.6.1	mac	2023-07-17	15:27:43	15:36:46	539644	62ebf162fc296d770d108698	3	1	main_z	11	advance_on_keypress_ZEE	126	stimuli_distractor_trianglediamonds.svg	stimuli_target_diamondrectangles.svg	27	yes	57	0	306	0	0			0	0			1				0	
6.6.1	mac	2023-07-17	15:27:43	15:36:47	540949	62ebf162fc296d770d108698	3	1	main_z	11	main_z	127	stimuli_target_squarediamonds.svg	stimuli_distractor_diamondtriangles.svg	8	yes	44	1	379	0	0			0	0			1				0	
6.6.1	mac	2023-07-17	15:27:43	15:36:47	540949	62ebf162fc296d770d108698	3	1	main_z	11	advance_on_keypress_ZEE	128	stimuli_target_squarediamonds.svg	stimuli_distractor_diamondtriangles.svg	8	yes	57	0	339	0	0			0	0			1				0	
6.6.1	mac	2023-07-17	15:27:43	15:36:49	542479	62ebf162fc296d770d108698	3	1	main_z	11	main_z	129	stimuli_distractor_diamondtriangles.svg	stimuli_target_rectanglediamonds.svg	14	yes	44	1	559	0	0			0	0			1				0	
6.6.1	mac	2023-07-17	15:27:43	15:36:49	542479	62ebf162fc296d770d108698	3	1	main_z	11	advance_on_keypress_ZEE	130	stimuli_distractor_diamondtriangles.svg	stimuli_target_rectanglediamonds.svg	14	yes	57	0	344	0	0			0	0			1				0	
6.6.1	mac	2023-07-17	15:27:43	15:36:52	545452	62ebf162fc296d770d108698	3	1	main_z	11	main_z	131	stimuli_distractor_trianglediamonds.svg	stimuli_target_rectanglediamonds.svg	10	yes	0	0	2000	0	0			0	0			1				0	
6.6.1	mac	2023-07-17	15:27:43	15:36:52	545452	62ebf162fc296d770d108698	3	1	main_z	11	advance_on_keypress_ZEE	132	stimuli_distractor_trianglediamonds.svg	stimuli_target_rectanglediamonds.svg	10	yes	57	0	607	0	0			0	0			1				0	
6.6.1	mac	2023-07-17	15:27:43	15:36:53	547317	62ebf162fc296d770d108698	3	1	main_z	11	main_z	133	stimuli_distractor_diamondtriangles.svg	stimuli_target_trianglesquares.svg	30	yes	44	1	627	0	0			0	0			1				0	
6.6.1	mac	2023-07-17	15:27:43	15:36:53	547317	62ebf162fc296d770d108698	3	1	main_z	11	advance_on_keypress_ZEE	134	stimuli_distractor_diamondtriangles.svg	stimuli_target_trianglesquares.svg	30	yes	57	0	309	0	0			0	0			1				0	
6.6.1	mac	2023-07-17	15:27:43	15:36:56	550237	62ebf162fc296d770d108698	3	1	main_z	11	main_z	135	stimuli_distractor_trianglediamonds.svg	stimuli_distractor_trianglediamonds.svg	33	no	0	1	2000	0	0			0	0			1				0	
6.6.1	mac	2023-07-17	15:27:43	15:36:56	550237	62ebf162fc296d770d108698	3	1	main_z	11	advance_on_keypress_ZEE	136	stimuli_distractor_trianglediamonds.svg	stimuli_distractor_trianglediamonds.svg	33	no	57	0	705	0	0			0	0			1				0	
6.6.1	mac	2023-07-17	15:27:43	15:36:58	552087	62ebf162fc296d770d108698	3	1	main_z	11	main_z	137	stimuli_distractor_trianglediamonds.svg	stimuli_target_squarediamonds.svg	12	yes	44	1	514	0	0			0	0			1				0	
6.6.1	mac	2023-07-17	15:27:43	15:36:58	552087	62ebf162fc296d770d108698	3	1	main_z	11	advance_on_keypress_ZEE	138	stimuli_distractor_trianglediamonds.svg	stimuli_target_squarediamonds.svg	12	yes	57	0	332	0	0			0	0			1				0	
6.6.1	mac	2023-07-17	15:27:43	15:37:01	555055	62ebf162fc296d770d108698	3	1	main_z	11	main_z	139	stimuli_distractor_diamondtriangles.svg	stimuli_distractor_trianglediamonds.svg	37	no	0	1	2000	0	0			0	0			1				0	
6.6.1	mac	2023-07-17	15:27:43	15:37:01	555055	62ebf162fc296d770d108698	3	1	main_z	11	advance_on_keypress_ZEE	140	stimuli_distractor_diamondtriangles.svg	stimuli_distractor_trianglediamonds.svg	37	no	57	0	72	0	0			0	0			1				0	
6.6.1	mac	2023-07-17	15:27:43	15:37:03	556452	62ebf162fc296d770d108698	3	1	main_z	11	main_z	141	stimuli_target_rectangletriangles.svg	stimuli_distractor_diamondtriangles.svg	5	yes	44	1	695	0	0			0	0			1				0	
6.6.1	mac	2023-07-17	15:27:43	15:37:03	556452	62ebf162fc296d770d108698	3	1	main_z	11	advance_on_keypress_ZEE	142	stimuli_target_rectangletriangles.svg	stimuli_distractor_diamondtriangles.svg	5	yes	57	0	444	0	0			0	0			1				0	
6.6.1	mac	2023-07-17	15:27:43	15:37:04	557915	62ebf162fc296d770d108698	3	1	main_z	11	main_z	143	stimuli_distractor_trianglediamonds.svg	stimuli_target_rectangletriangles.svg	9	yes	44	1	407	0	0			0	0			1				0	
6.6.1	mac	2023-07-17	15:27:43	15:37:04	557915	62ebf162fc296d770d108698	3	1	main_z	11	advance_on_keypress_ZEE	144	stimuli_distractor_trianglediamonds.svg	stimuli_target_rectangletriangles.svg	9	yes	57	0	252	0	0			0	0			1				0	
6.6.1	mac	2023-07-17	15:27:43	15:37:05	559174	62ebf162fc296d770d108698	3	1	main_z	11	main_z	145	stimuli_target_diamondsquares.svg	stimuli_distractor_trianglediamonds.svg	20	yes	44	1	384	0	0			0	0			1				0	
6.6.1	mac	2023-07-17	15:27:43	15:37:05	559174	62ebf162fc296d770d108698	3	1	main_z	11	advance_on_keypress_ZEE	146	stimuli_target_diamondsquares.svg	stimuli_distractor_trianglediamonds.svg	20	yes	57	0	289	0	0			0	0			1				0	
6.6.1	mac	2023-07-17	15:27:43	15:37:07	560480	62ebf162fc296d770d108698	3	1	main_z	11	main_z	147	stimuli_target_rectanglediamonds.svg	stimuli_distractor_trianglediamonds.svg	2	yes	44	1	371	0	0			0	0			1				0	
6.6.1	mac	2023-07-17	15:27:43	15:37:07	560480	62ebf162fc296d770d108698	3	1	main_z	11	advance_on_keypress_ZEE	148	stimuli_target_rectanglediamonds.svg	stimuli_distractor_trianglediamonds.svg	2	yes	57	0	294	0	0			0	0			1				0	
6.6.1	mac	2023-07-17	15:27:43	15:37:10	563407	62ebf162fc296d770d108698	3	1	main_z	11	main_z	149	stimuli_distractor_trianglediamonds.svg	stimuli_distractor_trianglediamonds.svg	34	no	0	1	2000	0	0			0	0			1				0	
6.6.1	mac	2023-07-17	15:27:43	15:37:10	563407	62ebf162fc296d770d108698	3	1	main_z	11	advance_on_keypress_ZEE	150	stimuli_distractor_trianglediamonds.svg	stimuli_distractor_trianglediamonds.svg	34	no	57	0	631	0	0			0	0			1				0	
6.6.1	mac	2023-07-17	15:27:43	15:37:13	566488	62ebf162fc296d770d108698	3	1	main_z	11	main_z	151	stimuli_target_trianglesquares.svg	stimuli_distractor_diamondtriangles.svg	22	yes	44	1	1810	0	0			0	0			1				0	
6.6.1	mac	2023-07-17	15:27:43	15:37:13	566488	62ebf162fc296d770d108698	3	1	main_z	11	advance_on_keypress_ZEE	152	stimuli_target_trianglesquares.svg	stimuli_distractor_diamondtriangles.svg	22	yes	57	0	286	0	0			0	0			1				0	
6.6.1	mac	2023-07-17	15:27:43	15:37:14	567950	62ebf162fc296d770d108698	3	1	main_z	11	main_z	153	stimuli_target_diamondrectangles.svg	stimuli_distractor_diamondtriangles.svg	23	yes	44	1	555	0	0			0	0			1				0	
6.6.1	mac	2023-07-17	15:27:43	15:37:14	567950	62ebf162fc296d770d108698	3	1	main_z	11	advance_on_keypress_ZEE	154	stimuli_target_diamondrectangles.svg	stimuli_distractor_diamondtriangles.svg	23	yes	57	0	363	0	0			0	0			1				0	
6.6.1	mac	2023-07-17	15:27:43	15:37:16	569547	62ebf162fc296d770d108698	3	1	main_z	11	main_z	155	stimuli_distractor_diamondtriangles.svg	stimuli_target_squaretriangles.svg	15	yes	44	1	603	0	0			0	0			1				0	
6.6.1	mac	2023-07-17	15:27:43	15:37:16	569547	62ebf162fc296d770d108698	3	1	main_z	11	advance_on_keypress_ZEE	156	stimuli_distractor_diamondtriangles.svg	stimuli_target_squaretriangles.svg	15	yes	57	0	302	0	0			0	0			1				0	
6.6.1	mac	2023-07-17	15:27:43	15:37:17	571078	62ebf162fc296d770d108698	3	1	main_z	11	main_z	157	stimuli_distractor_diamondtriangles.svg	stimuli_target_diamondrectangles.svg	31	yes	44	1	599	0	0			0	0			1				0	
6.6.1	mac	2023-07-17	15:27:43	15:37:17	571078	62ebf162fc296d770d108698	3	1	main_z	11	advance_on_keypress_ZEE	158	stimuli_distractor_diamondtriangles.svg	stimuli_target_diamondrectangles.svg	31	yes	57	0	274	0	0			0	0			1				0	
6.6.1	mac	2023-07-17	15:27:43	15:37:19	572855	62ebf162fc296d770d108698	3	1	main_z	11	main_z	159	stimuli_distractor_trianglediamonds.svg	stimuli_distractor_diamondtriangles.svg	35	no	44	0	876	0	0			0	0			1				0	
6.6.1	mac	2023-07-17	15:27:43	15:37:19	572855	62ebf162fc296d770d108698	3	1	main_z	11	advance_on_keypress_ZEE	160	stimuli_distractor_trianglediamonds.svg	stimuli_distractor_diamondtriangles.svg	35	no	57	0	240	0	0			0	0			1				0	
6.6.1	mac	2023-07-17	15:27:43	15:37:19	572855	62ebf162fc296d770d108698	3	1	headphonecheck_calibration	14	headphonecheck_calibrationIntro	1	stimuli_distractor_trianglediamonds.svg	stimuli_distractor_diamondtriangles.svg	35	no	calibrationButton	0	6114	0	0			0	0			1				0	
6.6.1	mac	2023-07-17	15:27:43	15:37:19	572855	62ebf162fc296d770d108698	3	1	headphonecheck_testphase	15	test_collectResponse	3	stimuli_distractor_trianglediamonds.svg	stimuli_distractor_diamondtriangles.svg	35	no	second	0	5029	1	4	antiphase_hc_sio.wav	1	0	0			1				0	
6.6.1	mac	2023-07-17	15:27:43	15:37:19	572855	62ebf162fc296d770d108698	3	1	headphonecheck_testphase	15	test_collectResponse	6	stimuli_distractor_trianglediamonds.svg	stimuli_distractor_diamondtriangles.svg	35	no	third	0	590	2	5	antiphase_hc_osi.wav	2	0	0			1				0	
6.6.1	mac	2023-07-17	15:27:43	15:37:19	572855	62ebf162fc296d770d108698	3	1	headphonecheck_testphase	15	test_collectResponse	9	stimuli_distractor_trianglediamonds.svg	stimuli_distractor_diamondtriangles.svg	35	no	first	0	6049	3	6	antiphase_hc_ois.wav	3	0	0			1				0	
6.6.1	mac	2023-07-17	15:27:43	15:37:19	572855	62ebf162fc296d770d108698	3	1	headphonecheck_testphase	15	test_collectResponse	12	stimuli_distractor_trianglediamonds.svg	stimuli_distractor_diamondtriangles.svg	35	no	second	1	4369	4	1	antiphase_hc_iso.wav	2	0	0			1				0	
6.6.1	mac	2023-07-17	15:27:43	15:37:19	572855	62ebf162fc296d770d108698	3	1	headphonecheck_testphase	15	test_collectResponse	15	stimuli_distractor_trianglediamonds.svg	stimuli_distractor_diamondtriangles.svg	35	no	first	1	300	5	3	antiphase_hc_soi.wav	1	0	0			1				0	
6.6.1	mac	2023-07-17	15:27:43	15:37:19	572855	62ebf162fc296d770d108698	3	1	headphonecheck_testphase	15	test_collectResponse	18	stimuli_distractor_trianglediamonds.svg	stimuli_distractor_diamondtriangles.svg	35	no	third	1	304	6	2	antiphase_hc_ios.wav	3	0	0			1				0	
6.6.1	mac	2023-07-17	15:27:43	15:37:19	572855	62ebf162fc296d770d108698	3	1	stereocheck_calibration	17	stereocheck_calibrationIntro	1	stimuli_distractor_trianglediamonds.svg	stimuli_distractor_diamondtriangles.svg	35	no	stereocheck_calibrationButton	0	1422	6	2	antiphase_hc_ios.wav	3	0	0			1				0	
6.6.1	mac	2023-07-17	15:27:43	15:37:19	572855	62ebf162fc296d770d108698	3	1	stereocheck_testphase	18	stereocheck_test_collectResponse	3	stimuli_distractor_trianglediamonds.svg	stimuli_distractor_diamondtriangles.svg	35	no	stereocheck_left	1	1290	6	2	antiphase_hc_ios.wav	3	1	3	noise_calib_stim_LEFT.wav	1	1				0	
6.6.1	mac	2023-07-17	15:27:43	15:37:19	572855	62ebf162fc296d770d108698	3	1	stereocheck_testphase	18	stereocheck_test_collectResponse	6	stimuli_distractor_trianglediamonds.svg	stimuli_distractor_diamondtriangles.svg	35	no	stereocheck_right	1	316	6	2	antiphase_hc_ios.wav	3	2	5	noise_calib_stim_RIGHT.wav	2	1				0	
6.6.1	mac	2023-07-17	15:27:43	15:37:19	572855	62ebf162fc296d770d108698	3	1	stereocheck_testphase	18	stereocheck_test_collectResponse	9	stimuli_distractor_trianglediamonds.svg	stimuli_distractor_diamondtriangles.svg	35	no	stereocheck_right	1	174	6	2	antiphase_hc_ios.wav	3	3	6	noise_calib_stim_RIGHT.wav	2	1				0	
6.6.1	mac	2023-07-17	15:27:43	15:37:19	572855	62ebf162fc296d770d108698	3	1	stereocheck_testphase	18	stereocheck_test_collectResponse	12	stimuli_distractor_trianglediamonds.svg	stimuli_distractor_diamondtriangles.svg	35	no	stereocheck_right	1	543	6	2	antiphase_hc_ios.wav	3	4	4	noise_calib_stim_RIGHT.wav	2	1				0	
6.6.1	mac	2023-07-17	15:27:43	15:37:19	572855	62ebf162fc296d770d108698	3	1	stereocheck_testphase	18	stereocheck_test_collectResponse	15	stimuli_distractor_trianglediamonds.svg	stimuli_distractor_diamondtriangles.svg	35	no	stereocheck_left	1	210	6	2	antiphase_hc_ios.wav	3	5	2	noise_calib_stim_LEFT.wav	1	1				0	
6.6.1	mac	2023-07-17	15:27:43	15:37:19	572855	62ebf162fc296d770d108698	3	1	stereocheck_testphase	18	stereocheck_test_collectResponse	18	stimuli_distractor_trianglediamonds.svg	stimuli_distractor_diamondtriangles.svg	35	no	stereocheck_left	1	331	6	2	antiphase_hc_ios.wav	3	6	1	noise_calib_stim_LEFT.wav	1	1				0	
6.6.1	mac	2023-07-17	15:27:43	15:37:19	572855	62ebf162fc296d770d108698	3	1	DL_practice	21	DL_practice	2	stimuli_distractor_trianglediamonds.svg	stimuli_distractor_diamondtriangles.svg	35	no	ka	0	1203	6	2	antiphase_hc_ios.wav	3	6	1	noise_calib_stim_LEFT.wav	1	18	blb_dichoticlistening_ga-ta.mp3	ga	ta	1	other
6.6.1	mac	2023-07-17	15:27:43	15:37:19	572855	62ebf162fc296d770d108698	3	1	DL_practice	21	DL_practice	3	stimuli_distractor_trianglediamonds.svg	stimuli_distractor_diamondtriangles.svg	35	no	pa	1	1112	6	2	antiphase_hc_ios.wav	3	6	1	noise_calib_stim_LEFT.wav	1	23	blb_dichoticlistening_ka-pa.mp3	ka	pa	1	right
6.6.1	mac	2023-07-17	15:27:43	15:37:19	572855	62ebf162fc296d770d108698	3	1	DL_practice	21	DL_practice	4	stimuli_distractor_trianglediamonds.svg	stimuli_distractor_diamondtriangles.svg	35	no	ka	1	872	6	2	antiphase_hc_ios.wav	3	6	1	noise_calib_stim_LEFT.wav	1	22	blb_dichoticlistening_ka-ka.mp3	ka	ka	0	left
6.6.1	mac	2023-07-17	15:27:43	15:37:19	572855	62ebf162fc296d770d108698	3	1	DL_practice	21	DL_practice	5	stimuli_distractor_trianglediamonds.svg	stimuli_distractor_diamondtriangles.svg	35	no	pa	1	863	6	2	antiphase_hc_ios.wav	3	6	1	noise_calib_stim_LEFT.wav	1	29	blb_dichoticlistening_pa-pa.mp3	pa	pa	0	left
6.6.1	mac	2023-07-17	15:27:43	15:37:19	572855	62ebf162fc296d770d108698	3	1	DL_practice	21	DL_practice	6	stimuli_distractor_trianglediamonds.svg	stimuli_distractor_diamondtriangles.svg	35	no	ga	1	891	6	2	antiphase_hc_ios.wav	3	6	1	noise_calib_stim_LEFT.wav	1	15	blb_dichoticlistening_ga-ga.mp3	ga	ga	0	left
6.6.1	mac	2023-07-17	15:27:43	15:37:19	572855	62ebf162fc296d770d108698	3	1	DL_practice	21	DL_practice	7	stimuli_distractor_trianglediamonds.svg	stimuli_distractor_diamondtriangles.svg	35	no	pa	0	1163	6	2	antiphase_hc_ios.wav	3	6	1	noise_calib_stim_LEFT.wav	1	1	blb_dichoticlistening_ba-ba.mp3	ba	ba	0	other
6.6.1	mac	2023-07-17	15:27:43	15:37:19	572855	62ebf162fc296d770d108698	3	1	DL_practice	21	DL_practice	8	stimuli_distractor_trianglediamonds.svg	stimuli_distractor_diamondtriangles.svg	35	no	da	1	1210	6	2	antiphase_hc_ios.wav	3	6	1	noise_calib_stim_LEFT.wav	1	8	blb_dichoticlistening_da-da.mp3	da	da	0	left
6.6.1	mac	2023-07-17	15:27:43	15:37:19	572855	62ebf162fc296d770d108698	3	1	DL_practice	21	DL_practice	9	stimuli_distractor_trianglediamonds.svg	stimuli_distractor_diamondtriangles.svg	35	no	ta	1	827	6	2	antiphase_hc_ios.wav	3	6	1	noise_calib_stim_LEFT.wav	1	36	blb_dichoticlistening_ta-ta.mp3	ta	ta	0	left
6.6.1	mac	2023-07-17	15:27:43	15:37:19	572855	62ebf162fc296d770d108698	3	1	DL_practice	21	DL_practice	10	stimuli_distractor_trianglediamonds.svg	stimuli_distractor_diamondtriangles.svg	35	no	da	1	1074	6	2	antiphase_hc_ios.wav	3	6	1	noise_calib_stim_LEFT.wav	1	7	blb_dichoticlistening_da-ba.mp3	da	ba	1	left
6.6.1	mac	2023-07-17	15:27:43	15:37:19	572855	62ebf162fc296d770d108698	3	1	DL_test	23	DL_test	1	stimuli_distractor_trianglediamonds.svg	stimuli_distractor_diamondtriangles.svg	35	no	ta	1	2002	6	2	antiphase_hc_ios.wav	3	6	1	noise_calib_stim_LEFT.wav	1	36	blb_dichoticlistening_ta-ta.mp3	ta	ta	0	left
6.6.1	mac	2023-07-17	15:27:43	15:37:19	572855	62ebf162fc296d770d108698	3	1	DL_test	23	DL_test	2	stimuli_distractor_trianglediamonds.svg	stimuli_distractor_diamondtriangles.svg	35	no	ga	1	864	6	2	antiphase_hc_ios.wav	3	6	1	noise_calib_stim_LEFT.wav	1	14	blb_dichoticlistening_ga-da.mp3	ga	da	1	left
6.6.1	mac	2023-07-17	15:27:43	15:37:19	572855	62ebf162fc296d770d108698	3	1	DL_test	23	DL_test	3	stimuli_distractor_trianglediamonds.svg	stimuli_distractor_diamondtriangles.svg	35	no	ga	1	717	6	2	antiphase_hc_ios.wav	3	6	1	noise_calib_stim_LEFT.wav	1	9	blb_dichoticlistening_da-ga.mp3	da	ga	1	right
6.6.1	mac	2023-07-17	15:27:43	15:37:19	572855	62ebf162fc296d770d108698	3	1	DL_test	23	DL_test	4	stimuli_distractor_trianglediamonds.svg	stimuli_distractor_diamondtriangles.svg	35	no	ta	1	1548	6	2	antiphase_hc_ios.wav	3	6	1	noise_calib_stim_LEFT.wav	1	12	blb_dichoticlistening_da-ta.mp3	da	ta	1	right
6.6.1	mac	2023-07-17	15:27:43	15:37:19	572855	62ebf162fc296d770d108698	3	1	DL_test	23	DL_test	5	stimuli_distractor_trianglediamonds.svg	stimuli_distractor_diamondtriangles.svg	35	no	pa	1	741	6	2	antiphase_hc_ios.wav	3	6	1	noise_calib_stim_LEFT.wav	1	29	blb_dichoticlistening_pa-pa.mp3	pa	pa	0	left
6.6.1	mac	2023-07-17	15:27:43	15:37:19	572855	62ebf162fc296d770d108698	3	1	DL_test	23	DL_test	6	stimuli_distractor_trianglediamonds.svg	stimuli_distractor_diamondtriangles.svg	35	no	ka	1	858	6	2	antiphase_hc_ios.wav	3	6	1	noise_calib_stim_LEFT.wav	1	34	blb_dichoticlistening_ta-ka.mp3	ta	ka	1	right
6.6.1	mac	2023-07-17	15:27:43	15:37:19	572855	62ebf162fc296d770d108698	3	1	DL_test	23	DL_test	7	stimuli_distractor_trianglediamonds.svg	stimuli_distractor_diamondtriangles.svg	35	no	ka	1	634	6	2	antiphase_hc_ios.wav	3	6	1	noise_calib_stim_LEFT.wav	1	28	blb_dichoticlistening_pa-ka.mp3	pa	ka	1	right
6.6.1	mac	2023-07-17	15:27:43	15:37:19	572855	62ebf162fc296d770d108698	3	1	DL_test	23	DL_test	8	stimuli_distractor_trianglediamonds.svg	stimuli_distractor_diamondtriangles.svg	35	no	ka	1	495	6	2	antiphase_hc_ios.wav	3	6	1	noise_calib_stim_LEFT.wav	1	22	blb_dichoticlistening_ka-ka.mp3	ka	ka	0	left
6.6.1	mac	2023-07-17	15:27:43	15:37:19	572855	62ebf162fc296d770d108698	3	1	DL_test	23	DL_test	9	stimuli_distractor_trianglediamonds.svg	stimuli_distractor_diamondtriangles.svg	35	no	pa	1	711	6	2	antiphase_hc_ios.wav	3	6	1	noise_calib_stim_LEFT.wav	1	5	blb_dichoticlistening_ba-pa.mp3	ba	pa	1	right
6.6.1	mac	2023-07-17	15:27:43	15:37:19	572855	62ebf162fc296d770d108698	3	1	DL_test	23	DL_test	10	stimuli_distractor_trianglediamonds.svg	stimuli_distractor_diamondtriangles.svg	35	no	pa	0	743	6	2	antiphase_hc_ios.wav	3	6	1	noise_calib_stim_LEFT.wav	1	2	blb_dichoticlistening_ba-da.mp3	ba	da	1	other
6.6.1	mac	2023-07-17	15:27:43	15:37:19	572855	62ebf162fc296d770d108698	3	1	DL_test	23	DL_test	11	stimuli_distractor_trianglediamonds.svg	stimuli_distractor_diamondtriangles.svg	35	no	pa	1	775	6	2	antiphase_hc_ios.wav	3	6	1	noise_calib_stim_LEFT.wav	1	35	blb_dichoticlistening_ta-pa.mp3	ta	pa	1	right
6.6.1	mac	2023-07-17	15:27:43	15:37:19	572855	62ebf162fc296d770d108698	3	1	DL_test	23	DL_test	12	stimuli_distractor_trianglediamonds.svg	stimuli_distractor_diamondtriangles.svg	35	no	pa	1	718	6	2	antiphase_hc_ios.wav	3	6	1	noise_calib_stim_LEFT.wav	1	25	blb_dichoticlistening_pa-ba.mp3	pa	ba	1	left
6.6.1	mac	2023-07-17	15:27:43	15:37:19	572855	62ebf162fc296d770d108698	3	1	DL_test	23	DL_test	13	stimuli_distractor_trianglediamonds.svg	stimuli_distractor_diamondtriangles.svg	35	no	ba	1	897	6	2	antiphase_hc_ios.wav	3	6	1	noise_calib_stim_LEFT.wav	1	13	blb_dichoticlistening_ga-ba.mp3	ga	ba	1	right
6.6.1	mac	2023-07-17	15:27:43	15:37:19	572855	62ebf162fc296d770d108698	3	1	DL_test	23	DL_test	14	stimuli_distractor_trianglediamonds.svg	stimuli_distractor_diamondtriangles.svg	35	no	ba	1	577	6	2	antiphase_hc_ios.wav	3	6	1	noise_calib_stim_LEFT.wav	1	1	blb_dichoticlistening_ba-ba.mp3	ba	ba	0	left
6.6.1	mac	2023-07-17	15:27:43	15:37:19	572855	62ebf162fc296d770d108698	3	1	DL_test	23	DL_test	15	stimuli_distractor_trianglediamonds.svg	stimuli_distractor_diamondtriangles.svg	35	no	da	1	822	6	2	antiphase_hc_ios.wav	3	6	1	noise_calib_stim_LEFT.wav	1	32	blb_dichoticlistening_ta-da.mp3	ta	da	1	right
6.6.1	mac	2023-07-17	15:27:43	15:37:19	572855	62ebf162fc296d770d108698	3	1	DL_test	23	DL_test	16	stimuli_distractor_trianglediamonds.svg	stimuli_distractor_diamondtriangles.svg	35	no	pa	1	1930	6	2	antiphase_hc_ios.wav	3	6	1	noise_calib_stim_LEFT.wav	1	17	blb_dichoticlistening_ga-pa.mp3	ga	pa	1	right
6.6.1	mac	2023-07-17	15:27:43	15:37:19	572855	62ebf162fc296d770d108698	3	1	DL_test	23	DL_test	17	stimuli_distractor_trianglediamonds.svg	stimuli_distractor_diamondtriangles.svg	35	no	ga	1	1216	6	2	antiphase_hc_ios.wav	3	6	1	noise_calib_stim_LEFT.wav	1	3	blb_dichoticlistening_ba-ga.mp3	ba	ga	1	right
6.6.1	mac	2023-07-17	15:27:43	15:37:19	572855	62ebf162fc296d770d108698	3	1	DL_test	23	DL_test	18	stimuli_distractor_trianglediamonds.svg	stimuli_distractor_diamondtriangles.svg	35	no	ka	0	985	6	2	antiphase_hc_ios.wav	3	6	1	noise_calib_stim_LEFT.wav	1	6	blb_dichoticlistening_ba-ta.mp3	ba	ta	1	other
6.6.1	mac	2023-07-17	15:27:43	15:37:19	572855	62ebf162fc296d770d108698	3	1	DL_test	23	DL_test	19	stimuli_distractor_trianglediamonds.svg	stimuli_distractor_diamondtriangles.svg	35	no	ka	1	797	6	2	antiphase_hc_ios.wav	3	6	1	noise_calib_stim_LEFT.wav	1	20	blb_dichoticlistening_ka-da.mp3	ka	da	1	left
6.6.1	mac	2023-07-17	15:27:43	15:37:19	572855	62ebf162fc296d770d108698	3	1	DL_test	23	DL_test	20	stimuli_distractor_trianglediamonds.svg	stimuli_distractor_diamondtriangles.svg	35	no	ba	1	1217	6	2	antiphase_hc_ios.wav	3	6	1	noise_calib_stim_LEFT.wav	1	7	blb_dichoticlistening_da-ba.mp3	da	ba	1	right
6.6.1	mac	2023-07-17	15:27:43	15:37:19	572855	62ebf162fc296d770d108698	3	1	DL_test	23	DL_test	21	stimuli_distractor_trianglediamonds.svg	stimuli_distractor_diamondtriangles.svg	35	no	ba	1	3450	6	2	antiphase_hc_ios.wav	3	6	1	noise_calib_stim_LEFT.wav	1	31	blb_dichoticlistening_ta-ba.mp3	ta	ba	1	right
6.6.1	mac	2023-07-17	15:27:43	15:37:19	572855	62ebf162fc296d770d108698	3	1	DL_test	23	DL_test	22	stimuli_distractor_trianglediamonds.svg	stimuli_distractor_diamondtriangles.svg	35	no	ga	1	1062	6	2	antiphase_hc_ios.wav	3	6	1	noise_calib_stim_LEFT.wav	1	21	blb_dichoticlistening_ka-ga.mp3	ka	ga	1	right
6.6.1	mac	2023-07-17	15:27:43	15:37:19	572855	62ebf162fc296d770d108698	3	1	DL_test	23	DL_test	23	stimuli_distractor_trianglediamonds.svg	stimuli_distractor_diamondtriangles.svg	35	no	ka	1	980	6	2	antiphase_hc_ios.wav	3	6	1	noise_calib_stim_LEFT.wav	1	19	blb_dichoticlistening_ka-ba.mp3	ka	ba	1	left
6.6.1	mac	2023-07-17	15:27:43	15:37:19	572855	62ebf162fc296d770d108698	3	1	DL_test	23	DL_test	24	stimuli_distractor_trianglediamonds.svg	stimuli_distractor_diamondtriangles.svg	35	no	ka	1	634	6	2	antiphase_hc_ios.wav	3	6	1	noise_calib_stim_LEFT.wav	1	24	blb_dichoticlistening_ka-ta.mp3	ka	ta	1	left
6.6.1	mac	2023-07-17	15:27:43	15:37:19	572855	62ebf162fc296d770d108698	3	1	DL_test	23	DL_test	25	stimuli_distractor_trianglediamonds.svg	stimuli_distractor_diamondtriangles.svg	35	no	pa	1	789	6	2	antiphase_hc_ios.wav	3	6	1	noise_calib_stim_LEFT.wav	1	30	blb_dichoticlistening_pa-ta.mp3	pa	ta	1	left
6.6.1	mac	2023-07-17	15:27:43	15:37:19	572855	62ebf162fc296d770d108698	3	1	DL_test	23	DL_test	26	stimuli_distractor_trianglediamonds.svg	stimuli_distractor_diamondtriangles.svg	35	no	pa	0	570	6	2	antiphase_hc_ios.wav	3	6	1	noise_calib_stim_LEFT.wav	1	33	blb_dichoticlistening_ta-ga.mp3	ta	ga	1	other
