build	computer.platform	date	time	timestamp	time_elapsed_ms	subject	group	session	blockcode	blocknum	trialcode	trialnum	stimulus_left	stimulus_right	stim_index	target_present	response	correct	latency	headphonecheck_countTestTrials	headphonecheck_index	headphonecheck_testSound	headphonecheck_correctResponse	stereocheck_countTestTrials	stereocheck_index	stereocheck_testSound	stereocheck_correctResponse	DL_index	DL_soundfile	DL_leftSound	DL_rightSound	DL_dualSound	DL_choice
6.6.1	mac	2023-06-27	20:46:36	20:49:20	160740	644a8c25f747d73d9828bee3	4	1	practice_z	5	practice_z	1	stimuli_target_rectanglediamonds.svg	stimuli_distractor_trianglediamonds.svg	4	yes	44	1	1539	0	0			0	0			1				0	
6.6.1	mac	2023-06-27	20:46:36	20:49:20	160740	644a8c25f747d73d9828bee3	4	1	practice_z	5	advance_on_keypress_ZEE	2	stimuli_target_rectanglediamonds.svg	stimuli_distractor_trianglediamonds.svg	4	yes	57	0	1752	0	0			0	0			1				0	
6.6.1	mac	2023-06-27	20:46:36	20:49:25	166123	644a8c25f747d73d9828bee3	4	1	practice_z	5	practice_z	3	stimuli_distractor_trianglediamonds.svg	stimuli_distractor_diamondtriangles.svg	16	no	0	1	2000	0	0			0	0			1				0	
6.6.1	mac	2023-06-27	20:46:36	20:49:25	166123	644a8c25f747d73d9828bee3	4	1	practice_z	5	advance_on_keypress_ZEE	4	stimuli_distractor_trianglediamonds.svg	stimuli_distractor_diamondtriangles.svg	16	no	57	0	1979	0	0			0	0			1				0	
6.6.1	mac	2023-06-27	20:46:36	20:49:30	170827	644a8c25f747d73d9828bee3	4	1	practice_z	5	practice_z	5	stimuli_target_diamondsquares.svg	stimuli_distractor_diamondtriangles.svg	3	yes	44	1	1091	0	0			0	0			1				0	
6.6.1	mac	2023-06-27	20:46:36	20:49:30	170827	644a8c25f747d73d9828bee3	4	1	practice_z	5	advance_on_keypress_ZEE	6	stimuli_target_diamondsquares.svg	stimuli_distractor_diamondtriangles.svg	3	yes	57	0	1468	0	0			0	0			1				0	
6.6.1	mac	2023-06-27	20:46:36	20:49:34	175066	644a8c25f747d73d9828bee3	4	1	practice_z	5	practice_z	7	stimuli_target_squarediamonds.svg	stimuli_distractor_diamondtriangles.svg	2	yes	44	1	1137	0	0			0	0			1				0	
6.6.1	mac	2023-06-27	20:46:36	20:49:34	175066	644a8c25f747d73d9828bee3	4	1	practice_z	5	advance_on_keypress_ZEE	8	stimuli_target_squarediamonds.svg	stimuli_distractor_diamondtriangles.svg	2	yes	57	0	712	0	0			0	0			1				0	
6.6.1	mac	2023-06-27	20:46:36	20:49:39	179403	644a8c25f747d73d9828bee3	4	1	practice_z	5	practice_z	9	stimuli_distractor_diamondtriangles.svg	stimuli_distractor_diamondtriangles.svg	13	no	0	1	2000	0	0			0	0			1				0	
6.6.1	mac	2023-06-27	20:46:36	20:49:39	179403	644a8c25f747d73d9828bee3	4	1	practice_z	5	advance_on_keypress_ZEE	10	stimuli_distractor_diamondtriangles.svg	stimuli_distractor_diamondtriangles.svg	13	no	57	0	693	0	0			0	0			1				0	
6.6.1	mac	2023-06-27	20:46:36	20:49:42	183222	644a8c25f747d73d9828bee3	4	1	practice_z	5	practice_z	11	stimuli_target_rectanglediamonds.svg	stimuli_distractor_diamondtriangles.svg	1	yes	44	1	1507	0	0			0	0			1				0	
6.6.1	mac	2023-06-27	20:46:36	20:49:42	183222	644a8c25f747d73d9828bee3	4	1	practice_z	5	advance_on_keypress_ZEE	12	stimuli_target_rectanglediamonds.svg	stimuli_distractor_diamondtriangles.svg	1	yes	57	0	1268	0	0			0	0			1				0	
6.6.1	mac	2023-06-27	20:46:36	20:49:46	187215	644a8c25f747d73d9828bee3	4	1	practice_z	5	practice_z	13	stimuli_distractor_trianglediamonds.svg	stimuli_target_rectanglediamonds.svg	10	yes	44	1	1100	0	0			0	0			1				0	
6.6.1	mac	2023-06-27	20:46:36	20:49:46	187215	644a8c25f747d73d9828bee3	4	1	practice_z	5	advance_on_keypress_ZEE	14	stimuli_distractor_trianglediamonds.svg	stimuli_target_rectanglediamonds.svg	10	yes	57	0	736	0	0			0	0			1				0	
6.6.1	mac	2023-06-27	20:46:36	20:49:50	190757	644a8c25f747d73d9828bee3	4	1	practice_z	5	practice_z	15	stimuli_target_squarediamonds.svg	stimuli_distractor_trianglediamonds.svg	5	yes	44	1	1183	0	0			0	0			1				0	
6.6.1	mac	2023-06-27	20:46:36	20:49:50	190757	644a8c25f747d73d9828bee3	4	1	practice_z	5	advance_on_keypress_ZEE	16	stimuli_target_squarediamonds.svg	stimuli_distractor_trianglediamonds.svg	5	yes	57	0	758	0	0			0	0			1				0	
6.6.1	mac	2023-06-27	20:46:36	20:49:54	194408	644a8c25f747d73d9828bee3	4	1	practice_z	5	practice_z	17	stimuli_distractor_diamondtriangles.svg	stimuli_target_diamondrectangles.svg	8	yes	44	1	1256	0	0			0	0			1				0	
6.6.1	mac	2023-06-27	20:46:36	20:49:54	194408	644a8c25f747d73d9828bee3	4	1	practice_z	5	advance_on_keypress_ZEE	18	stimuli_distractor_diamondtriangles.svg	stimuli_target_diamondrectangles.svg	8	yes	57	0	760	0	0			0	0			1				0	
6.6.1	mac	2023-06-27	20:46:36	20:49:58	198782	644a8c25f747d73d9828bee3	4	1	practice_z	5	practice_z	19	stimuli_distractor_diamondtriangles.svg	stimuli_distractor_trianglediamonds.svg	14	no	0	1	2000	0	0			0	0			1				0	
6.6.1	mac	2023-06-27	20:46:36	20:49:58	198782	644a8c25f747d73d9828bee3	4	1	practice_z	5	advance_on_keypress_ZEE	20	stimuli_distractor_diamondtriangles.svg	stimuli_distractor_trianglediamonds.svg	14	no	57	0	1725	0	0			0	0			1				0	
6.6.1	mac	2023-06-27	20:46:36	20:50:02	203071	644a8c25f747d73d9828bee3	4	1	practice_z	5	practice_z	21	stimuli_distractor_trianglediamonds.svg	stimuli_target_squarediamonds.svg	11	yes	44	1	943	0	0			0	0			1				0	
6.6.1	mac	2023-06-27	20:46:36	20:50:02	203071	644a8c25f747d73d9828bee3	4	1	practice_z	5	advance_on_keypress_ZEE	22	stimuli_distractor_trianglediamonds.svg	stimuli_target_squarediamonds.svg	11	yes	57	0	588	0	0			0	0			1				0	
6.6.1	mac	2023-06-27	20:46:36	20:50:06	206458	644a8c25f747d73d9828bee3	4	1	practice_z	5	practice_z	23	stimuli_target_diamondsquares.svg	stimuli_distractor_trianglediamonds.svg	6	yes	44	1	1169	0	0			0	0			1				0	
6.6.1	mac	2023-06-27	20:46:36	20:50:06	206458	644a8c25f747d73d9828bee3	4	1	practice_z	5	advance_on_keypress_ZEE	24	stimuli_target_diamondsquares.svg	stimuli_distractor_trianglediamonds.svg	6	yes	57	0	590	0	0			0	0			1				0	
6.6.1	mac	2023-06-27	20:46:36	20:50:09	209786	644a8c25f747d73d9828bee3	4	1	practice_z	5	practice_z	25	stimuli_distractor_diamondtriangles.svg	stimuli_target_trianglerectangles.svg	9	yes	44	1	1105	0	0			0	0			1				0	
6.6.1	mac	2023-06-27	20:46:36	20:50:09	209786	644a8c25f747d73d9828bee3	4	1	practice_z	5	advance_on_keypress_ZEE	26	stimuli_distractor_diamondtriangles.svg	stimuli_target_trianglerectangles.svg	9	yes	57	0	483	0	0			0	0			1				0	
6.6.1	mac	2023-06-27	20:46:36	20:50:13	213895	644a8c25f747d73d9828bee3	4	1	practice_z	5	practice_z	27	stimuli_distractor_trianglediamonds.svg	stimuli_distractor_trianglediamonds.svg	15	no	0	1	2000	0	0			0	0			1				0	
6.6.1	mac	2023-06-27	20:46:36	20:50:13	213895	644a8c25f747d73d9828bee3	4	1	practice_z	5	advance_on_keypress_ZEE	28	stimuli_distractor_trianglediamonds.svg	stimuli_distractor_trianglediamonds.svg	15	no	57	0	581	0	0			0	0			1				0	
6.6.1	mac	2023-06-27	20:46:36	20:50:16	217084	644a8c25f747d73d9828bee3	4	1	practice_z	5	practice_z	29	stimuli_distractor_diamondtriangles.svg	stimuli_target_rectangletriangles.svg	7	yes	44	1	975	0	0			0	0			1				0	
6.6.1	mac	2023-06-27	20:46:36	20:50:16	217084	644a8c25f747d73d9828bee3	4	1	practice_z	5	advance_on_keypress_ZEE	30	stimuli_distractor_diamondtriangles.svg	stimuli_target_rectangletriangles.svg	7	yes	57	0	535	0	0			0	0			1				0	
6.6.1	mac	2023-06-27	20:46:36	20:50:19	220217	644a8c25f747d73d9828bee3	4	1	practice_z	5	practice_z	31	stimuli_distractor_trianglediamonds.svg	stimuli_target_diamondrectangles.svg	12	yes	44	1	977	0	0			0	0			1				0	
6.6.1	mac	2023-06-27	20:46:36	20:50:19	220217	644a8c25f747d73d9828bee3	4	1	practice_z	5	advance_on_keypress_ZEE	32	stimuli_distractor_trianglediamonds.svg	stimuli_target_diamondrectangles.svg	12	yes	57	0	489	0	0			0	0			1				0	
6.6.1	mac	2023-06-27	20:46:36	20:50:28	229232	644a8c25f747d73d9828bee3	4	1	main_z	7	main_z	1	stimuli_target_squaretriangles.svg	stimuli_distractor_diamondtriangles.svg	7	yes	44	1	867	0	0			0	0			1				0	
6.6.1	mac	2023-06-27	20:46:36	20:50:28	229232	644a8c25f747d73d9828bee3	4	1	main_z	7	advance_on_keypress_ZEE	2	stimuli_target_squaretriangles.svg	stimuli_distractor_diamondtriangles.svg	7	yes	57	0	1311	0	0			0	0			1				0	
6.6.1	mac	2023-06-27	20:46:36	20:50:32	232399	644a8c25f747d73d9828bee3	4	1	main_z	7	main_z	3	stimuli_target_squarediamonds.svg	stimuli_distractor_diamondtriangles.svg	8	yes	44	1	1229	0	0			0	0			1				0	
6.6.1	mac	2023-06-27	20:46:36	20:50:32	232399	644a8c25f747d73d9828bee3	4	1	main_z	7	advance_on_keypress_ZEE	4	stimuli_target_squarediamonds.svg	stimuli_distractor_diamondtriangles.svg	8	yes	57	0	1658	0	0			0	0			1				0	
6.6.1	mac	2023-06-27	20:46:36	20:50:35	235730	644a8c25f747d73d9828bee3	4	1	main_z	7	main_z	5	stimuli_distractor_diamondtriangles.svg	stimuli_target_diamondrectangles.svg	31	yes	44	1	1042	0	0			0	0			1				0	
6.6.1	mac	2023-06-27	20:46:36	20:50:35	235730	644a8c25f747d73d9828bee3	4	1	main_z	7	advance_on_keypress_ZEE	6	stimuli_distractor_diamondtriangles.svg	stimuli_target_diamondrectangles.svg	31	yes	57	0	1539	0	0			0	0			1				0	
6.6.1	mac	2023-06-27	20:46:36	20:50:38	238858	644a8c25f747d73d9828bee3	4	1	main_z	7	main_z	7	stimuli_target_rectanglediamonds.svg	stimuli_distractor_trianglediamonds.svg	2	yes	44	1	962	0	0			0	0			1				0	
6.6.1	mac	2023-06-27	20:46:36	20:50:38	238858	644a8c25f747d73d9828bee3	4	1	main_z	7	advance_on_keypress_ZEE	8	stimuli_target_rectanglediamonds.svg	stimuli_distractor_trianglediamonds.svg	2	yes	57	0	1317	0	0			0	0			1				0	
6.6.1	mac	2023-06-27	20:46:36	20:50:41	241919	644a8c25f747d73d9828bee3	4	1	main_z	7	main_z	9	stimuli_distractor_trianglediamonds.svg	stimuli_target_squaretriangles.svg	11	yes	44	1	1124	0	0			0	0			1				0	
6.6.1	mac	2023-06-27	20:46:36	20:50:41	241919	644a8c25f747d73d9828bee3	4	1	main_z	7	advance_on_keypress_ZEE	10	stimuli_distractor_trianglediamonds.svg	stimuli_target_squaretriangles.svg	11	yes	57	0	1290	0	0			0	0			1				0	
6.6.1	mac	2023-06-27	20:46:36	20:50:44	244925	644a8c25f747d73d9828bee3	4	1	main_z	7	main_z	11	stimuli_distractor_diamondtriangles.svg	stimuli_target_diamondsquares.svg	32	yes	44	1	1086	0	0			0	0			1				0	
6.6.1	mac	2023-06-27	20:46:36	20:50:44	244925	644a8c25f747d73d9828bee3	4	1	main_z	7	advance_on_keypress_ZEE	12	stimuli_distractor_diamondtriangles.svg	stimuli_target_diamondsquares.svg	32	yes	57	0	1159	0	0			0	0			1				0	
6.6.1	mac	2023-06-27	20:46:36	20:50:47	247917	644a8c25f747d73d9828bee3	4	1	main_z	7	main_z	13	stimuli_distractor_trianglediamonds.svg	stimuli_target_trianglerectangles.svg	25	yes	44	1	1212	0	0			0	0			1				0	
6.6.1	mac	2023-06-27	20:46:36	20:50:47	247917	644a8c25f747d73d9828bee3	4	1	main_z	7	advance_on_keypress_ZEE	14	stimuli_distractor_trianglediamonds.svg	stimuli_target_trianglerectangles.svg	25	yes	57	0	1279	0	0			0	0			1				0	
6.6.1	mac	2023-06-27	20:46:36	20:50:50	250903	644a8c25f747d73d9828bee3	4	1	main_z	7	main_z	15	stimuli_target_rectangletriangles.svg	stimuli_distractor_diamondtriangles.svg	5	yes	44	1	1071	0	0			0	0			1				0	
6.6.1	mac	2023-06-27	20:46:36	20:50:50	250903	644a8c25f747d73d9828bee3	4	1	main_z	7	advance_on_keypress_ZEE	16	stimuli_target_rectangletriangles.svg	stimuli_distractor_diamondtriangles.svg	5	yes	57	0	1488	0	0			0	0			1				0	
6.6.1	mac	2023-06-27	20:46:36	20:50:53	254040	644a8c25f747d73d9828bee3	4	1	main_z	7	main_z	17	stimuli_distractor_trianglediamonds.svg	stimuli_target_diamondsquares.svg	28	yes	44	1	1024	0	0			0	0			1				0	
6.6.1	mac	2023-06-27	20:46:36	20:50:53	254040	644a8c25f747d73d9828bee3	4	1	main_z	7	advance_on_keypress_ZEE	18	stimuli_distractor_trianglediamonds.svg	stimuli_target_diamondsquares.svg	28	yes	57	0	1050	0	0			0	0			1				0	
6.6.1	mac	2023-06-27	20:46:36	20:50:56	257249	644a8c25f747d73d9828bee3	4	1	main_z	7	main_z	19	stimuli_target_rectanglediamonds.svg	stimuli_distractor_diamondtriangles.svg	6	yes	44	1	1524	0	0			0	0			1				0	
6.6.1	mac	2023-06-27	20:46:36	20:50:56	257249	644a8c25f747d73d9828bee3	4	1	main_z	7	advance_on_keypress_ZEE	20	stimuli_target_rectanglediamonds.svg	stimuli_distractor_diamondtriangles.svg	6	yes	57	0	996	0	0			0	0			1				0	
6.6.1	mac	2023-06-27	20:46:36	20:50:59	259883	644a8c25f747d73d9828bee3	4	1	main_z	7	main_z	21	stimuli_distractor_diamondtriangles.svg	stimuli_target_trianglesquares.svg	30	yes	44	1	1009	0	0			0	0			1				0	
6.6.1	mac	2023-06-27	20:46:36	20:50:59	259883	644a8c25f747d73d9828bee3	4	1	main_z	7	advance_on_keypress_ZEE	22	stimuli_distractor_diamondtriangles.svg	stimuli_target_trianglesquares.svg	30	yes	57	0	1143	0	0			0	0			1				0	
6.6.1	mac	2023-06-27	20:46:36	20:51:02	262633	644a8c25f747d73d9828bee3	4	1	main_z	7	main_z	23	stimuli_target_diamondrectangles.svg	stimuli_distractor_diamondtriangles.svg	23	yes	44	1	982	0	0			0	0			1				0	
6.6.1	mac	2023-06-27	20:46:36	20:51:02	262633	644a8c25f747d73d9828bee3	4	1	main_z	7	advance_on_keypress_ZEE	24	stimuli_target_diamondrectangles.svg	stimuli_distractor_diamondtriangles.svg	23	yes	57	0	858	0	0			0	0			1				0	
6.6.1	mac	2023-06-27	20:46:36	20:51:05	266115	644a8c25f747d73d9828bee3	4	1	main_z	7	main_z	25	stimuli_target_diamondrectangles.svg	stimuli_distractor_trianglediamonds.svg	19	yes	0	0	2000	0	0			0	0			1				0	
6.6.1	mac	2023-06-27	20:46:36	20:51:05	266115	644a8c25f747d73d9828bee3	4	1	main_z	7	advance_on_keypress_ZEE	26	stimuli_target_diamondrectangles.svg	stimuli_distractor_trianglediamonds.svg	19	yes	57	0	584	0	0			0	0			1				0	
6.6.1	mac	2023-06-27	20:46:36	20:51:08	269006	644a8c25f747d73d9828bee3	4	1	main_z	7	main_z	27	stimuli_distractor_trianglediamonds.svg	stimuli_distractor_diamondtriangles.svg	35	no	44	0	1679	0	0			0	0			1				0	
6.6.1	mac	2023-06-27	20:46:36	20:51:08	269006	644a8c25f747d73d9828bee3	4	1	main_z	7	advance_on_keypress_ZEE	28	stimuli_distractor_trianglediamonds.svg	stimuli_distractor_diamondtriangles.svg	35	no	57	0	599	0	0			0	0			1				0	
6.6.1	mac	2023-06-27	20:46:36	20:51:10	271232	644a8c25f747d73d9828bee3	4	1	main_z	7	main_z	29	stimuli_distractor_trianglediamonds.svg	stimuli_target_rectangletriangles.svg	9	yes	44	1	995	0	0			0	0			1				0	
6.6.1	mac	2023-06-27	20:46:36	20:51:10	271232	644a8c25f747d73d9828bee3	4	1	main_z	7	advance_on_keypress_ZEE	30	stimuli_distractor_trianglediamonds.svg	stimuli_target_rectangletriangles.svg	9	yes	57	0	592	0	0			0	0			1				0	
6.6.1	mac	2023-06-27	20:46:36	20:51:14	274450	644a8c25f747d73d9828bee3	4	1	main_z	7	main_z	31	stimuli_distractor_diamondtriangles.svg	stimuli_target_squarediamonds.svg	16	yes	0	0	2000	0	0			0	0			1				0	
6.6.1	mac	2023-06-27	20:46:36	20:51:14	274450	644a8c25f747d73d9828bee3	4	1	main_z	7	advance_on_keypress_ZEE	32	stimuli_distractor_diamondtriangles.svg	stimuli_target_squarediamonds.svg	16	yes	57	0	1021	0	0			0	0			1				0	
6.6.1	mac	2023-06-27	20:46:36	20:51:16	277063	644a8c25f747d73d9828bee3	4	1	main_z	7	main_z	33	stimuli_target_trianglerectangles.svg	stimuli_distractor_trianglediamonds.svg	17	yes	44	1	966	0	0			0	0			1				0	
6.6.1	mac	2023-06-27	20:46:36	20:51:16	277063	644a8c25f747d73d9828bee3	4	1	main_z	7	advance_on_keypress_ZEE	34	stimuli_target_trianglerectangles.svg	stimuli_distractor_trianglediamonds.svg	17	yes	57	0	844	0	0			0	0			1				0	
6.6.1	mac	2023-06-27	20:46:36	20:51:19	279410	644a8c25f747d73d9828bee3	4	1	main_z	7	main_z	35	stimuli_distractor_trianglediamonds.svg	stimuli_target_diamondrectangles.svg	27	yes	44	1	863	0	0			0	0			1				0	
6.6.1	mac	2023-06-27	20:46:36	20:51:19	279410	644a8c25f747d73d9828bee3	4	1	main_z	7	advance_on_keypress_ZEE	36	stimuli_distractor_trianglediamonds.svg	stimuli_target_diamondrectangles.svg	27	yes	57	0	711	0	0			0	0			1				0	
6.6.1	mac	2023-06-27	20:46:36	20:51:22	282744	644a8c25f747d73d9828bee3	4	1	main_z	7	main_z	37	stimuli_distractor_diamondtriangles.svg	stimuli_distractor_trianglediamonds.svg	37	no	0	1	2000	0	0			0	0			1				0	
6.6.1	mac	2023-06-27	20:46:36	20:51:22	282744	644a8c25f747d73d9828bee3	4	1	main_z	7	advance_on_keypress_ZEE	38	stimuli_distractor_diamondtriangles.svg	stimuli_distractor_trianglediamonds.svg	37	no	57	0	360	0	0			0	0			1				0	
6.6.1	mac	2023-06-27	20:46:36	20:51:24	284556	644a8c25f747d73d9828bee3	4	1	main_z	7	main_z	39	stimuli_target_squarediamonds.svg	stimuli_distractor_trianglediamonds.svg	4	yes	44	1	835	0	0			0	0			1				0	
6.6.1	mac	2023-06-27	20:46:36	20:51:24	284556	644a8c25f747d73d9828bee3	4	1	main_z	7	advance_on_keypress_ZEE	40	stimuli_target_squarediamonds.svg	stimuli_distractor_trianglediamonds.svg	4	yes	57	0	798	0	0			0	0			1				0	
6.6.1	mac	2023-06-27	20:46:36	20:51:26	286831	644a8c25f747d73d9828bee3	4	1	main_z	7	main_z	41	stimuli_target_diamondsquares.svg	stimuli_distractor_trianglediamonds.svg	20	yes	44	1	841	0	0			0	0			1				0	
6.6.1	mac	2023-06-27	20:46:36	20:51:26	286831	644a8c25f747d73d9828bee3	4	1	main_z	7	advance_on_keypress_ZEE	42	stimuli_target_diamondsquares.svg	stimuli_distractor_trianglediamonds.svg	20	yes	57	0	573	0	0			0	0			1				0	
6.6.1	mac	2023-06-27	20:46:36	20:51:28	288844	644a8c25f747d73d9828bee3	4	1	main_z	7	main_z	43	stimuli_distractor_trianglediamonds.svg	stimuli_target_rectanglediamonds.svg	10	yes	44	1	811	0	0			0	0			1				0	
6.6.1	mac	2023-06-27	20:46:36	20:51:28	288844	644a8c25f747d73d9828bee3	4	1	main_z	7	advance_on_keypress_ZEE	44	stimuli_distractor_trianglediamonds.svg	stimuli_target_rectanglediamonds.svg	10	yes	57	0	464	0	0			0	0			1				0	
6.6.1	mac	2023-06-27	20:46:36	20:51:30	290987	644a8c25f747d73d9828bee3	4	1	main_z	7	main_z	45	stimuli_distractor_trianglediamonds.svg	stimuli_target_squarediamonds.svg	12	yes	44	1	1037	0	0			0	0			1				0	
6.6.1	mac	2023-06-27	20:46:36	20:51:30	290987	644a8c25f747d73d9828bee3	4	1	main_z	7	advance_on_keypress_ZEE	46	stimuli_distractor_trianglediamonds.svg	stimuli_target_squarediamonds.svg	12	yes	57	0	358	0	0			0	0			1				0	
6.6.1	mac	2023-06-27	20:46:36	20:51:33	293972	644a8c25f747d73d9828bee3	4	1	main_z	7	main_z	47	stimuli_distractor_trianglediamonds.svg	stimuli_distractor_diamondtriangles.svg	36	no	0	1	2000	0	0			0	0			1				0	
6.6.1	mac	2023-06-27	20:46:36	20:51:33	293972	644a8c25f747d73d9828bee3	4	1	main_z	7	advance_on_keypress_ZEE	48	stimuli_distractor_trianglediamonds.svg	stimuli_distractor_diamondtriangles.svg	36	no	57	0	619	0	0			0	0			1				0	
6.6.1	mac	2023-06-27	20:46:36	20:51:35	295959	644a8c25f747d73d9828bee3	4	1	main_z	7	main_z	49	stimuli_distractor_diamondtriangles.svg	stimuli_target_rectangletriangles.svg	13	yes	44	1	736	0	0			0	0			1				0	
6.6.1	mac	2023-06-27	20:46:36	20:51:35	295959	644a8c25f747d73d9828bee3	4	1	main_z	7	advance_on_keypress_ZEE	50	stimuli_distractor_diamondtriangles.svg	stimuli_target_rectangletriangles.svg	13	yes	57	0	794	0	0			0	0			1				0	
6.6.1	mac	2023-06-27	20:46:36	20:51:38	298550	644a8c25f747d73d9828bee3	4	1	main_z	7	main_z	51	stimuli_target_trianglerectangles.svg	stimuli_distractor_diamondtriangles.svg	21	yes	44	1	1181	0	0			0	0			1				0	
6.6.1	mac	2023-06-27	20:46:36	20:51:38	298550	644a8c25f747d73d9828bee3	4	1	main_z	7	advance_on_keypress_ZEE	52	stimuli_target_trianglerectangles.svg	stimuli_distractor_diamondtriangles.svg	21	yes	57	0	421	0	0			0	0			1				0	
6.6.1	mac	2023-06-27	20:46:36	20:51:40	300977	644a8c25f747d73d9828bee3	4	1	main_z	7	main_z	53	stimuli_target_diamondsquares.svg	stimuli_distractor_diamondtriangles.svg	24	yes	44	1	1376	0	0			0	0			1				0	
6.6.1	mac	2023-06-27	20:46:36	20:51:40	300977	644a8c25f747d73d9828bee3	4	1	main_z	7	advance_on_keypress_ZEE	54	stimuli_target_diamondsquares.svg	stimuli_distractor_diamondtriangles.svg	24	yes	57	0	412	0	0			0	0			1				0	
6.6.1	mac	2023-06-27	20:46:36	20:51:43	304009	644a8c25f747d73d9828bee3	4	1	main_z	7	main_z	55	stimuli_distractor_diamondtriangles.svg	stimuli_distractor_diamondtriangles.svg	39	no	0	1	2000	0	0			0	0			1				0	
6.6.1	mac	2023-06-27	20:46:36	20:51:43	304009	644a8c25f747d73d9828bee3	4	1	main_z	7	advance_on_keypress_ZEE	56	stimuli_distractor_diamondtriangles.svg	stimuli_distractor_diamondtriangles.svg	39	no	57	0	305	0	0			0	0			1				0	
6.6.1	mac	2023-06-27	20:46:36	20:51:46	306942	644a8c25f747d73d9828bee3	4	1	main_z	7	main_z	57	stimuli_distractor_trianglediamonds.svg	stimuli_distractor_trianglediamonds.svg	33	no	0	1	2000	0	0			0	0			1				0	
6.6.1	mac	2023-06-27	20:46:36	20:51:46	306942	644a8c25f747d73d9828bee3	4	1	main_z	7	advance_on_keypress_ZEE	58	stimuli_distractor_trianglediamonds.svg	stimuli_distractor_trianglediamonds.svg	33	no	57	0	302	0	0			0	0			1				0	
6.6.1	mac	2023-06-27	20:46:36	20:51:48	308654	644a8c25f747d73d9828bee3	4	1	main_z	7	main_z	59	stimuli_distractor_diamondtriangles.svg	stimuli_target_squaretriangles.svg	15	yes	44	1	783	0	0			0	0			1				0	
6.6.1	mac	2023-06-27	20:46:36	20:51:48	308654	644a8c25f747d73d9828bee3	4	1	main_z	7	advance_on_keypress_ZEE	60	stimuli_distractor_diamondtriangles.svg	stimuli_target_squaretriangles.svg	15	yes	57	0	680	0	0			0	0			1				0	
6.6.1	mac	2023-06-27	20:46:36	20:51:50	310777	644a8c25f747d73d9828bee3	4	1	main_z	7	main_z	61	stimuli_distractor_trianglediamonds.svg	stimuli_target_trianglesquares.svg	26	yes	44	1	806	0	0			0	0			1				0	
6.6.1	mac	2023-06-27	20:46:36	20:51:50	310777	644a8c25f747d73d9828bee3	4	1	main_z	7	advance_on_keypress_ZEE	62	stimuli_distractor_trianglediamonds.svg	stimuli_target_trianglesquares.svg	26	yes	57	0	541	0	0			0	0			1				0	
6.6.1	mac	2023-06-27	20:46:36	20:51:53	313935	644a8c25f747d73d9828bee3	4	1	main_z	7	main_z	63	stimuli_distractor_diamondtriangles.svg	stimuli_target_trianglerectangles.svg	29	yes	0	0	2000	0	0			0	0			1				0	
6.6.1	mac	2023-06-27	20:46:36	20:51:53	313935	644a8c25f747d73d9828bee3	4	1	main_z	7	advance_on_keypress_ZEE	64	stimuli_distractor_diamondtriangles.svg	stimuli_target_trianglerectangles.svg	29	yes	57	0	252	0	0			0	0			1				0	
6.6.1	mac	2023-06-27	20:46:36	20:51:55	315519	644a8c25f747d73d9828bee3	4	1	main_z	7	main_z	65	stimuli_target_squaretriangles.svg	stimuli_distractor_trianglediamonds.svg	3	yes	44	1	704	0	0			0	0			1				0	
6.6.1	mac	2023-06-27	20:46:36	20:51:55	315519	644a8c25f747d73d9828bee3	4	1	main_z	7	advance_on_keypress_ZEE	66	stimuli_target_squaretriangles.svg	stimuli_distractor_trianglediamonds.svg	3	yes	57	0	592	0	0			0	0			1				0	
6.6.1	mac	2023-06-27	20:46:36	20:51:57	317272	644a8c25f747d73d9828bee3	4	1	main_z	7	main_z	67	stimuli_target_trianglesquares.svg	stimuli_distractor_trianglediamonds.svg	18	yes	44	1	541	0	0			0	0			1				0	
6.6.1	mac	2023-06-27	20:46:36	20:51:57	317272	644a8c25f747d73d9828bee3	4	1	main_z	7	advance_on_keypress_ZEE	68	stimuli_target_trianglesquares.svg	stimuli_distractor_trianglediamonds.svg	18	yes	57	0	472	0	0			0	0			1				0	
6.6.1	mac	2023-06-27	20:46:36	20:51:58	318952	644a8c25f747d73d9828bee3	4	1	main_z	7	main_z	69	stimuli_distractor_diamondtriangles.svg	stimuli_target_rectanglediamonds.svg	14	yes	44	1	577	0	0			0	0			1				0	
6.6.1	mac	2023-06-27	20:46:36	20:51:58	318952	644a8c25f747d73d9828bee3	4	1	main_z	7	advance_on_keypress_ZEE	70	stimuli_distractor_diamondtriangles.svg	stimuli_target_rectanglediamonds.svg	14	yes	57	0	421	0	0			0	0			1				0	
6.6.1	mac	2023-06-27	20:46:36	20:52:00	320595	644a8c25f747d73d9828bee3	4	1	main_z	7	main_z	71	stimuli_target_trianglesquares.svg	stimuli_distractor_diamondtriangles.svg	22	yes	44	1	588	0	0			0	0			1				0	
6.6.1	mac	2023-06-27	20:46:36	20:52:00	320595	644a8c25f747d73d9828bee3	4	1	main_z	7	advance_on_keypress_ZEE	72	stimuli_target_trianglesquares.svg	stimuli_distractor_diamondtriangles.svg	22	yes	57	0	410	0	0			0	0			1				0	
6.6.1	mac	2023-06-27	20:46:36	20:52:03	323621	644a8c25f747d73d9828bee3	4	1	main_z	7	main_z	73	stimuli_distractor_trianglediamonds.svg	stimuli_distractor_trianglediamonds.svg	34	no	0	1	2000	0	0			0	0			1				0	
6.6.1	mac	2023-06-27	20:46:36	20:52:03	323621	644a8c25f747d73d9828bee3	4	1	main_z	7	advance_on_keypress_ZEE	74	stimuli_distractor_trianglediamonds.svg	stimuli_distractor_trianglediamonds.svg	34	no	57	0	289	0	0			0	0			1				0	
6.6.1	mac	2023-06-27	20:46:36	20:52:06	326532	644a8c25f747d73d9828bee3	4	1	main_z	7	main_z	75	stimuli_distractor_diamondtriangles.svg	stimuli_distractor_diamondtriangles.svg	40	no	0	1	2000	0	0			0	0			1				0	
6.6.1	mac	2023-06-27	20:46:36	20:52:06	326532	644a8c25f747d73d9828bee3	4	1	main_z	7	advance_on_keypress_ZEE	76	stimuli_distractor_diamondtriangles.svg	stimuli_distractor_diamondtriangles.svg	40	no	57	0	1052	0	0			0	0			1				0	
6.6.1	mac	2023-06-27	20:46:36	20:52:09	329639	644a8c25f747d73d9828bee3	4	1	main_z	7	main_z	77	stimuli_distractor_diamondtriangles.svg	stimuli_distractor_trianglediamonds.svg	38	no	44	0	1420	0	0			0	0			1				0	
6.6.1	mac	2023-06-27	20:46:36	20:52:09	329639	644a8c25f747d73d9828bee3	4	1	main_z	7	advance_on_keypress_ZEE	78	stimuli_distractor_diamondtriangles.svg	stimuli_distractor_trianglediamonds.svg	38	no	57	0	525	0	0			0	0			1				0	
6.6.1	mac	2023-06-27	20:46:36	20:52:11	331696	644a8c25f747d73d9828bee3	4	1	main_z	7	main_z	79	stimuli_target_rectangletriangles.svg	stimuli_distractor_trianglediamonds.svg	1	yes	44	1	903	0	0			0	0			1				0	
6.6.1	mac	2023-06-27	20:46:36	20:52:11	331696	644a8c25f747d73d9828bee3	4	1	main_z	7	advance_on_keypress_ZEE	80	stimuli_target_rectangletriangles.svg	stimuli_distractor_trianglediamonds.svg	1	yes	57	0	677	0	0			0	0			1				0	
6.6.1	mac	2023-06-27	20:46:36	20:52:14	334501	644a8c25f747d73d9828bee3	4	1	main_z	7	main_z	81	stimuli_distractor_diamondtriangles.svg	stimuli_target_squaretriangles.svg	15	yes	44	1	1509	0	0			0	0			1				0	
6.6.1	mac	2023-06-27	20:46:36	20:52:14	334501	644a8c25f747d73d9828bee3	4	1	main_z	7	advance_on_keypress_ZEE	82	stimuli_distractor_diamondtriangles.svg	stimuli_target_squaretriangles.svg	15	yes	57	0	343	0	0			0	0			1				0	
6.6.1	mac	2023-06-27	20:46:36	20:52:16	336626	644a8c25f747d73d9828bee3	4	1	main_z	7	main_z	83	stimuli_distractor_trianglediamonds.svg	stimuli_target_squaretriangles.svg	11	yes	44	1	1158	0	0			0	0			1				0	
6.6.1	mac	2023-06-27	20:46:36	20:52:16	336626	644a8c25f747d73d9828bee3	4	1	main_z	7	advance_on_keypress_ZEE	84	stimuli_distractor_trianglediamonds.svg	stimuli_target_squaretriangles.svg	11	yes	57	0	340	0	0			0	0			1				0	
6.6.1	mac	2023-06-27	20:46:36	20:52:19	339584	644a8c25f747d73d9828bee3	4	1	main_z	7	main_z	85	stimuli_distractor_diamondtriangles.svg	stimuli_distractor_trianglediamonds.svg	37	no	0	1	2000	0	0			0	0			1				0	
6.6.1	mac	2023-06-27	20:46:36	20:52:19	339584	644a8c25f747d73d9828bee3	4	1	main_z	7	advance_on_keypress_ZEE	86	stimuli_distractor_diamondtriangles.svg	stimuli_distractor_trianglediamonds.svg	37	no	57	0	337	0	0			0	0			1				0	
6.6.1	mac	2023-06-27	20:46:36	20:52:20	341166	644a8c25f747d73d9828bee3	4	1	main_z	7	main_z	87	stimuli_target_trianglesquares.svg	stimuli_distractor_trianglediamonds.svg	18	yes	44	1	619	0	0			0	0			1				0	
6.6.1	mac	2023-06-27	20:46:36	20:52:20	341166	644a8c25f747d73d9828bee3	4	1	main_z	7	advance_on_keypress_ZEE	88	stimuli_target_trianglesquares.svg	stimuli_distractor_trianglediamonds.svg	18	yes	57	0	491	0	0			0	0			1				0	
6.6.1	mac	2023-06-27	20:46:36	20:52:22	342968	644a8c25f747d73d9828bee3	4	1	main_z	7	main_z	89	stimuli_target_rectangletriangles.svg	stimuli_distractor_trianglediamonds.svg	1	yes	44	1	689	0	0			0	0			1				0	
6.6.1	mac	2023-06-27	20:46:36	20:52:22	342968	644a8c25f747d73d9828bee3	4	1	main_z	7	advance_on_keypress_ZEE	90	stimuli_target_rectangletriangles.svg	stimuli_distractor_trianglediamonds.svg	1	yes	57	0	485	0	0			0	0			1				0	
6.6.1	mac	2023-06-27	20:46:36	20:52:24	344984	644a8c25f747d73d9828bee3	4	1	main_z	7	main_z	91	stimuli_distractor_diamondtriangles.svg	stimuli_target_rectanglediamonds.svg	14	yes	44	1	906	0	0			0	0			1				0	
6.6.1	mac	2023-06-27	20:46:36	20:52:24	344984	644a8c25f747d73d9828bee3	4	1	main_z	7	advance_on_keypress_ZEE	92	stimuli_distractor_diamondtriangles.svg	stimuli_target_rectanglediamonds.svg	14	yes	57	0	359	0	0			0	0			1				0	
6.6.1	mac	2023-06-27	20:46:36	20:52:26	347240	644a8c25f747d73d9828bee3	4	1	main_z	7	main_z	93	stimuli_distractor_diamondtriangles.svg	stimuli_target_rectangletriangles.svg	13	yes	44	1	1269	0	0			0	0			1				0	
6.6.1	mac	2023-06-27	20:46:36	20:52:26	347240	644a8c25f747d73d9828bee3	4	1	main_z	7	advance_on_keypress_ZEE	94	stimuli_distractor_diamondtriangles.svg	stimuli_target_rectangletriangles.svg	13	yes	57	0	386	0	0			0	0			1				0	
6.6.1	mac	2023-06-27	20:46:36	20:52:28	349141	644a8c25f747d73d9828bee3	4	1	main_z	7	main_z	95	stimuli_target_trianglerectangles.svg	stimuli_distractor_trianglediamonds.svg	17	yes	44	1	886	0	0			0	0			1				0	
6.6.1	mac	2023-06-27	20:46:36	20:52:28	349141	644a8c25f747d73d9828bee3	4	1	main_z	7	advance_on_keypress_ZEE	96	stimuli_target_trianglerectangles.svg	stimuli_distractor_trianglediamonds.svg	17	yes	57	0	396	0	0			0	0			1				0	
6.6.1	mac	2023-06-27	20:46:36	20:52:30	350976	644a8c25f747d73d9828bee3	4	1	main_z	7	main_z	97	stimuli_target_squaretriangles.svg	stimuli_distractor_trianglediamonds.svg	3	yes	44	1	828	0	0			0	0			1				0	
6.6.1	mac	2023-06-27	20:46:36	20:52:30	350976	644a8c25f747d73d9828bee3	4	1	main_z	7	advance_on_keypress_ZEE	98	stimuli_target_squaretriangles.svg	stimuli_distractor_trianglediamonds.svg	3	yes	57	0	514	0	0			0	0			1				0	
6.6.1	mac	2023-06-27	20:46:36	20:52:33	354129	644a8c25f747d73d9828bee3	4	1	main_z	7	main_z	99	stimuli_distractor_diamondtriangles.svg	stimuli_distractor_diamondtriangles.svg	40	no	0	1	2000	0	0			0	0			1				0	
6.6.1	mac	2023-06-27	20:46:36	20:52:33	354129	644a8c25f747d73d9828bee3	4	1	main_z	7	advance_on_keypress_ZEE	100	stimuli_distractor_diamondtriangles.svg	stimuli_distractor_diamondtriangles.svg	40	no	57	0	332	0	0			0	0			1				0	
6.6.1	mac	2023-06-27	20:46:36	20:52:35	356005	644a8c25f747d73d9828bee3	4	1	main_z	7	main_z	101	stimuli_target_diamondrectangles.svg	stimuli_distractor_trianglediamonds.svg	19	yes	44	1	913	0	0			0	0			1				0	
6.6.1	mac	2023-06-27	20:46:36	20:52:35	356005	644a8c25f747d73d9828bee3	4	1	main_z	7	advance_on_keypress_ZEE	102	stimuli_target_diamondrectangles.svg	stimuli_distractor_trianglediamonds.svg	19	yes	57	0	406	0	0			0	0			1				0	
6.6.1	mac	2023-06-27	20:46:36	20:52:38	359040	644a8c25f747d73d9828bee3	4	1	main_z	7	main_z	103	stimuli_distractor_trianglediamonds.svg	stimuli_distractor_diamondtriangles.svg	36	no	0	1	2000	0	0			0	0			1				0	
6.6.1	mac	2023-06-27	20:46:36	20:52:38	359040	644a8c25f747d73d9828bee3	4	1	main_z	7	advance_on_keypress_ZEE	104	stimuli_distractor_trianglediamonds.svg	stimuli_distractor_diamondtriangles.svg	36	no	57	0	261	0	0			0	0			1				0	
6.6.1	mac	2023-06-27	20:46:36	20:52:41	361311	644a8c25f747d73d9828bee3	4	1	main_z	7	main_z	105	stimuli_distractor_diamondtriangles.svg	stimuli_distractor_diamondtriangles.svg	39	no	44	0	1370	0	0			0	0			1				0	
6.6.1	mac	2023-06-27	20:46:36	20:52:41	361311	644a8c25f747d73d9828bee3	4	1	main_z	7	advance_on_keypress_ZEE	106	stimuli_distractor_diamondtriangles.svg	stimuli_distractor_diamondtriangles.svg	39	no	57	0	492	0	0			0	0			1				0	
6.6.1	mac	2023-06-27	20:46:36	20:52:44	364432	644a8c25f747d73d9828bee3	4	1	main_z	7	main_z	107	stimuli_distractor_trianglediamonds.svg	stimuli_distractor_trianglediamonds.svg	33	no	0	1	2000	0	0			0	0			1				0	
6.6.1	mac	2023-06-27	20:46:36	20:52:44	364432	644a8c25f747d73d9828bee3	4	1	main_z	7	advance_on_keypress_ZEE	108	stimuli_distractor_trianglediamonds.svg	stimuli_distractor_trianglediamonds.svg	33	no	57	0	779	0	0			0	0			1				0	
6.6.1	mac	2023-06-27	20:46:36	20:52:46	366769	644a8c25f747d73d9828bee3	4	1	main_z	7	main_z	109	stimuli_distractor_trianglediamonds.svg	stimuli_target_diamondsquares.svg	28	yes	44	1	922	0	0			0	0			1				0	
6.6.1	mac	2023-06-27	20:46:36	20:52:46	366769	644a8c25f747d73d9828bee3	4	1	main_z	7	advance_on_keypress_ZEE	110	stimuli_distractor_trianglediamonds.svg	stimuli_target_diamondsquares.svg	28	yes	57	0	1196	0	0			0	0			1				0	
6.6.1	mac	2023-06-27	20:46:36	20:52:49	369407	644a8c25f747d73d9828bee3	4	1	main_z	7	main_z	111	stimuli_target_rectangletriangles.svg	stimuli_distractor_diamondtriangles.svg	5	yes	44	1	812	0	0			0	0			1				0	
6.6.1	mac	2023-06-27	20:46:36	20:52:49	369407	644a8c25f747d73d9828bee3	4	1	main_z	7	advance_on_keypress_ZEE	112	stimuli_target_rectangletriangles.svg	stimuli_distractor_diamondtriangles.svg	5	yes	57	0	473	0	0			0	0			1				0	
6.6.1	mac	2023-06-27	20:46:36	20:52:51	371318	644a8c25f747d73d9828bee3	4	1	main_z	7	main_z	113	stimuli_distractor_diamondtriangles.svg	stimuli_target_diamondsquares.svg	32	yes	44	1	822	0	0			0	0			1				0	
6.6.1	mac	2023-06-27	20:46:36	20:52:51	371318	644a8c25f747d73d9828bee3	4	1	main_z	7	advance_on_keypress_ZEE	114	stimuli_distractor_diamondtriangles.svg	stimuli_target_diamondsquares.svg	32	yes	57	0	445	0	0			0	0			1				0	
6.6.1	mac	2023-06-27	20:46:36	20:52:52	373220	644a8c25f747d73d9828bee3	4	1	main_z	7	main_z	115	stimuli_distractor_trianglediamonds.svg	stimuli_target_trianglerectangles.svg	25	yes	44	1	816	0	0			0	0			1				0	
6.6.1	mac	2023-06-27	20:46:36	20:52:52	373220	644a8c25f747d73d9828bee3	4	1	main_z	7	advance_on_keypress_ZEE	116	stimuli_distractor_trianglediamonds.svg	stimuli_target_trianglerectangles.svg	25	yes	57	0	398	0	0			0	0			1				0	
6.6.1	mac	2023-06-27	20:46:36	20:52:54	375146	644a8c25f747d73d9828bee3	4	1	main_z	7	main_z	117	stimuli_target_diamondsquares.svg	stimuli_distractor_diamondtriangles.svg	24	yes	44	1	892	0	0			0	0			1				0	
6.6.1	mac	2023-06-27	20:46:36	20:52:54	375146	644a8c25f747d73d9828bee3	4	1	main_z	7	advance_on_keypress_ZEE	118	stimuli_target_diamondsquares.svg	stimuli_distractor_diamondtriangles.svg	24	yes	57	0	1091	0	0			0	0			1				0	
6.6.1	mac	2023-06-27	20:46:36	20:52:57	378084	644a8c25f747d73d9828bee3	4	1	main_z	7	main_z	119	stimuli_target_diamondsquares.svg	stimuli_distractor_trianglediamonds.svg	20	yes	44	1	1220	0	0			0	0			1				0	
6.6.1	mac	2023-06-27	20:46:36	20:52:57	378084	644a8c25f747d73d9828bee3	4	1	main_z	7	advance_on_keypress_ZEE	120	stimuli_target_diamondsquares.svg	stimuli_distractor_trianglediamonds.svg	20	yes	57	0	375	0	0			0	0			1				0	
6.6.1	mac	2023-06-27	20:46:36	20:53:00	380254	644a8c25f747d73d9828bee3	4	1	main_z	7	main_z	121	stimuli_distractor_trianglediamonds.svg	stimuli_target_trianglesquares.svg	26	yes	44	1	1173	0	0			0	0			1				0	
6.6.1	mac	2023-06-27	20:46:36	20:53:00	380254	644a8c25f747d73d9828bee3	4	1	main_z	7	advance_on_keypress_ZEE	122	stimuli_distractor_trianglediamonds.svg	stimuli_target_trianglesquares.svg	26	yes	57	0	964	0	0			0	0			1				0	
6.6.1	mac	2023-06-27	20:46:36	20:53:02	382784	644a8c25f747d73d9828bee3	4	1	main_z	7	main_z	123	stimuli_distractor_trianglediamonds.svg	stimuli_target_squarediamonds.svg	12	yes	44	1	942	0	0			0	0			1				0	
6.6.1	mac	2023-06-27	20:46:36	20:53:02	382784	644a8c25f747d73d9828bee3	4	1	main_z	7	advance_on_keypress_ZEE	124	stimuli_distractor_trianglediamonds.svg	stimuli_target_squarediamonds.svg	12	yes	57	0	380	0	0			0	0			1				0	
6.6.1	mac	2023-06-27	20:46:36	20:53:04	384914	644a8c25f747d73d9828bee3	4	1	main_z	7	main_z	125	stimuli_target_trianglesquares.svg	stimuli_distractor_diamondtriangles.svg	22	yes	44	1	1137	0	0			0	0			1				0	
6.6.1	mac	2023-06-27	20:46:36	20:53:04	384914	644a8c25f747d73d9828bee3	4	1	main_z	7	advance_on_keypress_ZEE	126	stimuli_target_trianglesquares.svg	stimuli_distractor_diamondtriangles.svg	22	yes	57	0	364	0	0			0	0			1				0	
6.6.1	mac	2023-06-27	20:46:36	20:53:06	386445	644a8c25f747d73d9828bee3	4	1	main_z	7	main_z	127	stimuli_distractor_trianglediamonds.svg	stimuli_target_diamondrectangles.svg	27	yes	44	1	538	0	0			0	0			1				0	
6.6.1	mac	2023-06-27	20:46:36	20:53:06	386445	644a8c25f747d73d9828bee3	4	1	main_z	7	advance_on_keypress_ZEE	128	stimuli_distractor_trianglediamonds.svg	stimuli_target_diamondrectangles.svg	27	yes	57	0	427	0	0			0	0			1				0	
6.6.1	mac	2023-06-27	20:46:36	20:53:07	387868	644a8c25f747d73d9828bee3	4	1	main_z	7	main_z	129	stimuli_distractor_trianglediamonds.svg	stimuli_target_rectangletriangles.svg	9	yes	44	1	367	0	0			0	0			1				0	
6.6.1	mac	2023-06-27	20:46:36	20:53:07	387868	644a8c25f747d73d9828bee3	4	1	main_z	7	advance_on_keypress_ZEE	130	stimuli_distractor_trianglediamonds.svg	stimuli_target_rectangletriangles.svg	9	yes	57	0	296	0	0			0	0			1				0	
6.6.1	mac	2023-06-27	20:46:36	20:53:10	390799	644a8c25f747d73d9828bee3	4	1	main_z	7	main_z	131	stimuli_distractor_trianglediamonds.svg	stimuli_distractor_trianglediamonds.svg	34	no	0	1	2000	0	0			0	0			1				0	
6.6.1	mac	2023-06-27	20:46:36	20:53:10	390799	644a8c25f747d73d9828bee3	4	1	main_z	7	advance_on_keypress_ZEE	132	stimuli_distractor_trianglediamonds.svg	stimuli_distractor_trianglediamonds.svg	34	no	57	0	322	0	0			0	0			1				0	
6.6.1	mac	2023-06-27	20:46:36	20:53:12	392459	644a8c25f747d73d9828bee3	4	1	main_z	7	main_z	133	stimuli_target_squaretriangles.svg	stimuli_distractor_diamondtriangles.svg	7	yes	44	1	698	0	0			0	0			1				0	
6.6.1	mac	2023-06-27	20:46:36	20:53:12	392459	644a8c25f747d73d9828bee3	4	1	main_z	7	advance_on_keypress_ZEE	134	stimuli_target_squaretriangles.svg	stimuli_distractor_diamondtriangles.svg	7	yes	57	0	287	0	0			0	0			1				0	
6.6.1	mac	2023-06-27	20:46:36	20:53:13	393724	644a8c25f747d73d9828bee3	4	1	main_z	7	main_z	135	stimuli_target_rectanglediamonds.svg	stimuli_distractor_trianglediamonds.svg	2	yes	44	1	345	0	0			0	0			1				0	
6.6.1	mac	2023-06-27	20:46:36	20:53:13	393724	644a8c25f747d73d9828bee3	4	1	main_z	7	advance_on_keypress_ZEE	136	stimuli_target_rectanglediamonds.svg	stimuli_distractor_trianglediamonds.svg	2	yes	57	0	313	0	0			0	0			1				0	
6.6.1	mac	2023-06-27	20:46:36	20:53:14	395154	644a8c25f747d73d9828bee3	4	1	main_z	7	main_z	137	stimuli_distractor_diamondtriangles.svg	stimuli_target_trianglesquares.svg	30	yes	44	1	477	0	0			0	0			1				0	
6.6.1	mac	2023-06-27	20:46:36	20:53:14	395154	644a8c25f747d73d9828bee3	4	1	main_z	7	advance_on_keypress_ZEE	138	stimuli_distractor_diamondtriangles.svg	stimuli_target_trianglesquares.svg	30	yes	57	0	301	0	0			0	0			1				0	
6.6.1	mac	2023-06-27	20:46:36	20:53:16	396531	644a8c25f747d73d9828bee3	4	1	main_z	7	main_z	139	stimuli_distractor_diamondtriangles.svg	stimuli_target_trianglerectangles.svg	29	yes	44	1	454	0	0			0	0			1				0	
6.6.1	mac	2023-06-27	20:46:36	20:53:16	396531	644a8c25f747d73d9828bee3	4	1	main_z	7	advance_on_keypress_ZEE	140	stimuli_distractor_diamondtriangles.svg	stimuli_target_trianglerectangles.svg	29	yes	57	0	282	0	0			0	0			1				0	
6.6.1	mac	2023-06-27	20:46:36	20:53:17	397913	644a8c25f747d73d9828bee3	4	1	main_z	7	main_z	141	stimuli_target_rectanglediamonds.svg	stimuli_distractor_diamondtriangles.svg	6	yes	44	1	460	0	0			0	0			1				0	
6.6.1	mac	2023-06-27	20:46:36	20:53:17	397913	644a8c25f747d73d9828bee3	4	1	main_z	7	advance_on_keypress_ZEE	142	stimuli_target_rectanglediamonds.svg	stimuli_distractor_diamondtriangles.svg	6	yes	57	0	273	0	0			0	0			1				0	
6.6.1	mac	2023-06-27	20:46:36	20:53:19	399480	644a8c25f747d73d9828bee3	4	1	main_z	7	main_z	143	stimuli_target_squarediamonds.svg	stimuli_distractor_diamondtriangles.svg	8	yes	44	1	676	0	0			0	0			1				0	
6.6.1	mac	2023-06-27	20:46:36	20:53:19	399480	644a8c25f747d73d9828bee3	4	1	main_z	7	advance_on_keypress_ZEE	144	stimuli_target_squarediamonds.svg	stimuli_distractor_diamondtriangles.svg	8	yes	57	0	250	0	0			0	0			1				0	
6.6.1	mac	2023-06-27	20:46:36	20:53:20	401184	644a8c25f747d73d9828bee3	4	1	main_z	7	main_z	145	stimuli_target_diamondrectangles.svg	stimuli_distractor_diamondtriangles.svg	23	yes	44	1	832	0	0			0	0			1				0	
6.6.1	mac	2023-06-27	20:46:36	20:53:20	401184	644a8c25f747d73d9828bee3	4	1	main_z	7	advance_on_keypress_ZEE	146	stimuli_target_diamondrectangles.svg	stimuli_distractor_diamondtriangles.svg	23	yes	57	0	236	0	0			0	0			1				0	
6.6.1	mac	2023-06-27	20:46:36	20:53:23	404043	644a8c25f747d73d9828bee3	4	1	main_z	7	main_z	147	stimuli_target_trianglerectangles.svg	stimuli_distractor_diamondtriangles.svg	21	yes	0	0	2000	0	0			0	0			1				0	
6.6.1	mac	2023-06-27	20:46:36	20:53:23	404043	644a8c25f747d73d9828bee3	4	1	main_z	7	advance_on_keypress_ZEE	148	stimuli_target_trianglerectangles.svg	stimuli_distractor_diamondtriangles.svg	21	yes	57	0	467	0	0			0	0			1				0	
6.6.1	mac	2023-06-27	20:46:36	20:53:26	407144	644a8c25f747d73d9828bee3	4	1	main_z	7	main_z	149	stimuli_distractor_trianglediamonds.svg	stimuli_distractor_diamondtriangles.svg	35	no	0	1	2000	0	0			0	0			1				0	
6.6.1	mac	2023-06-27	20:46:36	20:53:26	407144	644a8c25f747d73d9828bee3	4	1	main_z	7	advance_on_keypress_ZEE	150	stimuli_distractor_trianglediamonds.svg	stimuli_distractor_diamondtriangles.svg	35	no	57	0	299	0	0			0	0			1				0	
6.6.1	mac	2023-06-27	20:46:36	20:53:29	410070	644a8c25f747d73d9828bee3	4	1	main_z	7	main_z	151	stimuli_distractor_diamondtriangles.svg	stimuli_distractor_trianglediamonds.svg	38	no	0	1	2000	0	0			0	0			1				0	
6.6.1	mac	2023-06-27	20:46:36	20:53:29	410070	644a8c25f747d73d9828bee3	4	1	main_z	7	advance_on_keypress_ZEE	152	stimuli_distractor_diamondtriangles.svg	stimuli_distractor_trianglediamonds.svg	38	no	57	0	318	0	0			0	0			1				0	
6.6.1	mac	2023-06-27	20:46:36	20:53:31	411674	644a8c25f747d73d9828bee3	4	1	main_z	7	main_z	153	stimuli_distractor_diamondtriangles.svg	stimuli_target_squarediamonds.svg	16	yes	44	1	652	0	0			0	0			1				0	
6.6.1	mac	2023-06-27	20:46:36	20:53:31	411674	644a8c25f747d73d9828bee3	4	1	main_z	7	advance_on_keypress_ZEE	154	stimuli_distractor_diamondtriangles.svg	stimuli_target_squarediamonds.svg	16	yes	57	0	302	0	0			0	0			1				0	
6.6.1	mac	2023-06-27	20:46:36	20:53:32	412957	644a8c25f747d73d9828bee3	4	1	main_z	7	main_z	155	stimuli_distractor_trianglediamonds.svg	stimuli_target_rectanglediamonds.svg	10	yes	44	1	351	0	0			0	0			1				0	
6.6.1	mac	2023-06-27	20:46:36	20:53:32	412957	644a8c25f747d73d9828bee3	4	1	main_z	7	advance_on_keypress_ZEE	156	stimuli_distractor_trianglediamonds.svg	stimuli_target_rectanglediamonds.svg	10	yes	57	0	277	0	0			0	0			1				0	
6.6.1	mac	2023-06-27	20:46:36	20:53:34	414346	644a8c25f747d73d9828bee3	4	1	main_z	7	main_z	157	stimuli_distractor_diamondtriangles.svg	stimuli_target_diamondrectangles.svg	31	yes	44	1	500	0	0			0	0			1				0	
6.6.1	mac	2023-06-27	20:46:36	20:53:34	414346	644a8c25f747d73d9828bee3	4	1	main_z	7	advance_on_keypress_ZEE	158	stimuli_distractor_diamondtriangles.svg	stimuli_target_diamondrectangles.svg	31	yes	57	0	277	0	0			0	0			1				0	
6.6.1	mac	2023-06-27	20:46:36	20:53:35	415700	644a8c25f747d73d9828bee3	4	1	main_z	7	main_z	159	stimuli_target_squarediamonds.svg	stimuli_distractor_trianglediamonds.svg	4	yes	44	1	453	0	0			0	0			1				0	
6.6.1	mac	2023-06-27	20:46:36	20:53:35	415700	644a8c25f747d73d9828bee3	4	1	main_z	7	advance_on_keypress_ZEE	160	stimuli_target_squarediamonds.svg	stimuli_distractor_trianglediamonds.svg	4	yes	57	0	268	0	0			0	0			1				0	
6.6.1	mac	2023-06-27	20:46:36	20:54:00	440921	644a8c25f747d73d9828bee3	4	1	practice_slash	9	practice_slash	1	stimuli_target_rectanglediamonds.svg	stimuli_distractor_trianglediamonds.svg	4	yes	53	1	1140	0	0			0	0			1				0	
6.6.1	mac	2023-06-27	20:46:36	20:54:00	440921	644a8c25f747d73d9828bee3	4	1	practice_slash	9	advance_on_keypress_SLASH	2	stimuli_target_rectanglediamonds.svg	stimuli_distractor_trianglediamonds.svg	4	yes	57	0	657	0	0			0	0			1				0	
6.6.1	mac	2023-06-27	20:46:36	20:54:03	443742	644a8c25f747d73d9828bee3	4	1	practice_slash	9	practice_slash	3	stimuli_distractor_diamondtriangles.svg	stimuli_target_trianglerectangles.svg	9	yes	53	1	534	0	0			0	0			1				0	
6.6.1	mac	2023-06-27	20:46:36	20:54:03	443742	644a8c25f747d73d9828bee3	4	1	practice_slash	9	advance_on_keypress_SLASH	4	stimuli_distractor_diamondtriangles.svg	stimuli_target_trianglerectangles.svg	9	yes	57	0	535	0	0			0	0			1				0	
6.6.1	mac	2023-06-27	20:46:36	20:54:06	446488	644a8c25f747d73d9828bee3	4	1	practice_slash	9	practice_slash	5	stimuli_target_diamondsquares.svg	stimuli_distractor_trianglediamonds.svg	6	yes	53	1	579	0	0			0	0			1				0	
6.6.1	mac	2023-06-27	20:46:36	20:54:06	446488	644a8c25f747d73d9828bee3	4	1	practice_slash	9	advance_on_keypress_SLASH	6	stimuli_target_diamondsquares.svg	stimuli_distractor_trianglediamonds.svg	6	yes	57	0	511	0	0			0	0			1				0	
6.6.1	mac	2023-06-27	20:46:36	20:54:09	449274	644a8c25f747d73d9828bee3	4	1	practice_slash	9	practice_slash	7	stimuli_target_rectanglediamonds.svg	stimuli_distractor_diamondtriangles.svg	1	yes	53	1	640	0	0			0	0			1				0	
6.6.1	mac	2023-06-27	20:46:36	20:54:09	449274	644a8c25f747d73d9828bee3	4	1	practice_slash	9	advance_on_keypress_SLASH	8	stimuli_target_rectanglediamonds.svg	stimuli_distractor_diamondtriangles.svg	1	yes	57	0	728	0	0			0	0			1				0	
6.6.1	mac	2023-06-27	20:46:36	20:54:12	452371	644a8c25f747d73d9828bee3	4	1	practice_slash	9	practice_slash	9	stimuli_target_diamondsquares.svg	stimuli_distractor_diamondtriangles.svg	3	yes	53	1	743	0	0			0	0			1				0	
6.6.1	mac	2023-06-27	20:46:36	20:54:12	452371	644a8c25f747d73d9828bee3	4	1	practice_slash	9	advance_on_keypress_SLASH	10	stimuli_target_diamondsquares.svg	stimuli_distractor_diamondtriangles.svg	3	yes	57	0	616	0	0			0	0			1				0	
6.6.1	mac	2023-06-27	20:46:36	20:54:16	456609	644a8c25f747d73d9828bee3	4	1	practice_slash	9	practice_slash	11	stimuli_distractor_trianglediamonds.svg	stimuli_distractor_trianglediamonds.svg	15	no	0	1	2000	0	0			0	0			1				0	
6.6.1	mac	2023-06-27	20:46:36	20:54:16	456609	644a8c25f747d73d9828bee3	4	1	practice_slash	9	advance_on_keypress_SLASH	12	stimuli_distractor_trianglediamonds.svg	stimuli_distractor_trianglediamonds.svg	15	no	57	0	601	0	0			0	0			1				0	
6.6.1	mac	2023-06-27	20:46:36	20:54:19	459380	644a8c25f747d73d9828bee3	4	1	practice_slash	9	practice_slash	13	stimuli_distractor_trianglediamonds.svg	stimuli_target_rectanglediamonds.svg	10	yes	53	1	542	0	0			0	0			1				0	
6.6.1	mac	2023-06-27	20:46:36	20:54:19	459380	644a8c25f747d73d9828bee3	4	1	practice_slash	9	advance_on_keypress_SLASH	14	stimuli_distractor_trianglediamonds.svg	stimuli_target_rectanglediamonds.svg	10	yes	57	0	1437	0	0			0	0			1				0	
6.6.1	mac	2023-06-27	20:46:36	20:54:22	462962	644a8c25f747d73d9828bee3	4	1	practice_slash	9	practice_slash	15	stimuli_distractor_diamondtriangles.svg	stimuli_target_diamondrectangles.svg	8	yes	53	1	525	0	0			0	0			1				0	
6.6.1	mac	2023-06-27	20:46:36	20:54:22	462962	644a8c25f747d73d9828bee3	4	1	practice_slash	9	advance_on_keypress_SLASH	16	stimuli_distractor_diamondtriangles.svg	stimuli_target_diamondrectangles.svg	8	yes	57	0	554	0	0			0	0			1				0	
6.6.1	mac	2023-06-27	20:46:36	20:54:25	465773	644a8c25f747d73d9828bee3	4	1	practice_slash	9	practice_slash	17	stimuli_distractor_diamondtriangles.svg	stimuli_target_rectangletriangles.svg	7	yes	53	1	623	0	0			0	0			1				0	
6.6.1	mac	2023-06-27	20:46:36	20:54:25	465773	644a8c25f747d73d9828bee3	4	1	practice_slash	9	advance_on_keypress_SLASH	18	stimuli_distractor_diamondtriangles.svg	stimuli_target_rectangletriangles.svg	7	yes	57	0	444	0	0			0	0			1				0	
6.6.1	mac	2023-06-27	20:46:36	20:54:29	469830	644a8c25f747d73d9828bee3	4	1	practice_slash	9	practice_slash	19	stimuli_distractor_diamondtriangles.svg	stimuli_distractor_trianglediamonds.svg	14	no	0	1	2000	0	0			0	0			1				0	
6.6.1	mac	2023-06-27	20:46:36	20:54:29	469830	644a8c25f747d73d9828bee3	4	1	practice_slash	9	advance_on_keypress_SLASH	20	stimuli_distractor_diamondtriangles.svg	stimuli_distractor_trianglediamonds.svg	14	no	57	0	836	0	0			0	0			1				0	
6.6.1	mac	2023-06-27	20:46:36	20:54:32	472781	644a8c25f747d73d9828bee3	4	1	practice_slash	9	practice_slash	21	stimuli_distractor_trianglediamonds.svg	stimuli_target_squarediamonds.svg	11	yes	53	1	488	0	0			0	0			1				0	
6.6.1	mac	2023-06-27	20:46:36	20:54:32	472781	644a8c25f747d73d9828bee3	4	1	practice_slash	9	advance_on_keypress_SLASH	22	stimuli_distractor_trianglediamonds.svg	stimuli_target_squarediamonds.svg	11	yes	57	0	1611	0	0			0	0			1				0	
6.6.1	mac	2023-06-27	20:46:36	20:54:37	477702	644a8c25f747d73d9828bee3	4	1	practice_slash	9	practice_slash	23	stimuli_distractor_trianglediamonds.svg	stimuli_target_diamondrectangles.svg	12	yes	53	1	1666	0	0			0	0			1				0	
6.6.1	mac	2023-06-27	20:46:36	20:54:37	477702	644a8c25f747d73d9828bee3	4	1	practice_slash	9	advance_on_keypress_SLASH	24	stimuli_distractor_trianglediamonds.svg	stimuli_target_diamondrectangles.svg	12	yes	57	0	524	0	0			0	0			1				0	
6.6.1	mac	2023-06-27	20:46:36	20:54:41	481842	644a8c25f747d73d9828bee3	4	1	practice_slash	9	practice_slash	25	stimuli_distractor_diamondtriangles.svg	stimuli_distractor_diamondtriangles.svg	13	no	0	1	2000	0	0			0	0			1				0	
6.6.1	mac	2023-06-27	20:46:36	20:54:41	481842	644a8c25f747d73d9828bee3	4	1	practice_slash	9	advance_on_keypress_SLASH	26	stimuli_distractor_diamondtriangles.svg	stimuli_distractor_diamondtriangles.svg	13	no	57	0	507	0	0			0	0			1				0	
6.6.1	mac	2023-06-27	20:46:36	20:54:44	484447	644a8c25f747d73d9828bee3	4	1	practice_slash	9	practice_slash	27	stimuli_target_squarediamonds.svg	stimuli_distractor_trianglediamonds.svg	5	yes	53	1	458	0	0			0	0			1				0	
6.6.1	mac	2023-06-27	20:46:36	20:54:44	484447	644a8c25f747d73d9828bee3	4	1	practice_slash	9	advance_on_keypress_SLASH	28	stimuli_target_squarediamonds.svg	stimuli_distractor_trianglediamonds.svg	5	yes	57	0	552	0	0			0	0			1				0	
6.6.1	mac	2023-06-27	20:46:36	20:54:46	487073	644a8c25f747d73d9828bee3	4	1	practice_slash	9	practice_slash	29	stimuli_target_squarediamonds.svg	stimuli_distractor_diamondtriangles.svg	2	yes	53	1	450	0	0			0	0			1				0	
6.6.1	mac	2023-06-27	20:46:36	20:54:46	487073	644a8c25f747d73d9828bee3	4	1	practice_slash	9	advance_on_keypress_SLASH	30	stimuli_target_squarediamonds.svg	stimuli_distractor_diamondtriangles.svg	2	yes	57	0	482	0	0			0	0			1				0	
6.6.1	mac	2023-06-27	20:46:36	20:54:50	491180	644a8c25f747d73d9828bee3	4	1	practice_slash	9	practice_slash	31	stimuli_distractor_trianglediamonds.svg	stimuli_distractor_diamondtriangles.svg	16	no	0	1	2000	0	0			0	0			1				0	
6.6.1	mac	2023-06-27	20:46:36	20:54:50	491180	644a8c25f747d73d9828bee3	4	1	practice_slash	9	advance_on_keypress_SLASH	32	stimuli_distractor_trianglediamonds.svg	stimuli_distractor_diamondtriangles.svg	16	no	57	0	430	0	0			0	0			1				0	
6.6.1	mac	2023-06-27	20:46:36	20:54:55	496194	644a8c25f747d73d9828bee3	4	1	main_slash	11	main_slash	1	stimuli_target_squaretriangles.svg	stimuli_distractor_trianglediamonds.svg	3	yes	53	1	469	0	0			0	0			1				0	
6.6.1	mac	2023-06-27	20:46:36	20:54:55	496194	644a8c25f747d73d9828bee3	4	1	main_slash	11	advance_on_keypress_SLASH	2	stimuli_target_squaretriangles.svg	stimuli_distractor_trianglediamonds.svg	3	yes	57	0	935	0	0			0	0			1				0	
6.6.1	mac	2023-06-27	20:46:36	20:54:58	498265	644a8c25f747d73d9828bee3	4	1	main_slash	11	main_slash	3	stimuli_target_diamondsquares.svg	stimuli_distractor_diamondtriangles.svg	24	yes	53	1	505	0	0			0	0			1				0	
6.6.1	mac	2023-06-27	20:46:36	20:54:58	498265	644a8c25f747d73d9828bee3	4	1	main_slash	11	advance_on_keypress_SLASH	4	stimuli_target_diamondsquares.svg	stimuli_distractor_diamondtriangles.svg	24	yes	57	0	318	0	0			0	0			1				0	
6.6.1	mac	2023-06-27	20:46:36	20:55:00	501214	644a8c25f747d73d9828bee3	4	1	main_slash	11	main_slash	5	stimuli_distractor_diamondtriangles.svg	stimuli_distractor_diamondtriangles.svg	39	no	0	1	2000	0	0			0	0			1				0	
6.6.1	mac	2023-06-27	20:46:36	20:55:00	501214	644a8c25f747d73d9828bee3	4	1	main_slash	11	advance_on_keypress_SLASH	6	stimuli_distractor_diamondtriangles.svg	stimuli_distractor_diamondtriangles.svg	39	no	57	0	334	0	0			0	0			1				0	
6.6.1	mac	2023-06-27	20:46:36	20:55:02	502556	644a8c25f747d73d9828bee3	4	1	main_slash	11	main_slash	7	stimuli_target_squarediamonds.svg	stimuli_distractor_trianglediamonds.svg	4	yes	53	1	373	0	0			0	0			1				0	
6.6.1	mac	2023-06-27	20:46:36	20:55:02	502556	644a8c25f747d73d9828bee3	4	1	main_slash	11	advance_on_keypress_SLASH	8	stimuli_target_squarediamonds.svg	stimuli_distractor_trianglediamonds.svg	4	yes	57	0	365	0	0			0	0			1				0	
6.6.1	mac	2023-06-27	20:46:36	20:55:04	504450	644a8c25f747d73d9828bee3	4	1	main_slash	11	main_slash	9	stimuli_distractor_trianglediamonds.svg	stimuli_target_rectangletriangles.svg	9	yes	53	1	900	0	0			0	0			1				0	
6.6.1	mac	2023-06-27	20:46:36	20:55:04	504450	644a8c25f747d73d9828bee3	4	1	main_slash	11	advance_on_keypress_SLASH	10	stimuli_distractor_trianglediamonds.svg	stimuli_target_rectangletriangles.svg	9	yes	57	0	313	0	0			0	0			1				0	
6.6.1	mac	2023-06-27	20:46:36	20:55:07	507390	644a8c25f747d73d9828bee3	4	1	main_slash	11	main_slash	11	stimuli_distractor_diamondtriangles.svg	stimuli_target_rectanglediamonds.svg	14	yes	0	0	2000	0	0			0	0			1				0	
6.6.1	mac	2023-06-27	20:46:36	20:55:07	507390	644a8c25f747d73d9828bee3	4	1	main_slash	11	advance_on_keypress_SLASH	12	stimuli_distractor_diamondtriangles.svg	stimuli_target_rectanglediamonds.svg	14	yes	57	0	724	0	0			0	0			1				0	
6.6.1	mac	2023-06-27	20:46:36	20:55:08	509251	644a8c25f747d73d9828bee3	4	1	main_slash	11	main_slash	13	stimuli_target_trianglerectangles.svg	stimuli_distractor_trianglediamonds.svg	17	yes	53	1	507	0	0			0	0			1				0	
6.6.1	mac	2023-06-27	20:46:36	20:55:08	509251	644a8c25f747d73d9828bee3	4	1	main_slash	11	advance_on_keypress_SLASH	14	stimuli_target_trianglerectangles.svg	stimuli_distractor_trianglediamonds.svg	17	yes	57	0	427	0	0			0	0			1				0	
6.6.1	mac	2023-06-27	20:46:36	20:55:10	511116	644a8c25f747d73d9828bee3	4	1	main_slash	11	main_slash	15	stimuli_distractor_trianglediamonds.svg	stimuli_target_diamondrectangles.svg	27	yes	53	1	799	0	0			0	0			1				0	
6.6.1	mac	2023-06-27	20:46:36	20:55:10	511116	644a8c25f747d73d9828bee3	4	1	main_slash	11	advance_on_keypress_SLASH	16	stimuli_distractor_trianglediamonds.svg	stimuli_target_diamondrectangles.svg	27	yes	57	0	395	0	0			0	0			1				0	
6.6.1	mac	2023-06-27	20:46:36	20:55:13	513399	644a8c25f747d73d9828bee3	4	1	main_slash	11	main_slash	17	stimuli_target_squaretriangles.svg	stimuli_distractor_diamondtriangles.svg	7	yes	53	1	1248	0	0			0	0			1				0	
6.6.1	mac	2023-06-27	20:46:36	20:55:13	513399	644a8c25f747d73d9828bee3	4	1	main_slash	11	advance_on_keypress_SLASH	18	stimuli_target_squaretriangles.svg	stimuli_distractor_diamondtriangles.svg	7	yes	57	0	467	0	0			0	0			1				0	
6.6.1	mac	2023-06-27	20:46:36	20:55:14	515117	644a8c25f747d73d9828bee3	4	1	main_slash	11	main_slash	19	stimuli_distractor_trianglediamonds.svg	stimuli_target_squaretriangles.svg	11	yes	53	1	621	0	0			0	0			1				0	
6.6.1	mac	2023-06-27	20:46:36	20:55:14	515117	644a8c25f747d73d9828bee3	4	1	main_slash	11	advance_on_keypress_SLASH	20	stimuli_distractor_trianglediamonds.svg	stimuli_target_squaretriangles.svg	11	yes	57	0	568	0	0			0	0			1				0	
6.6.1	mac	2023-06-27	20:46:36	20:55:16	516741	644a8c25f747d73d9828bee3	4	1	main_slash	11	main_slash	21	stimuli_target_rectangletriangles.svg	stimuli_distractor_diamondtriangles.svg	5	yes	53	1	429	0	0			0	0			1				0	
6.6.1	mac	2023-06-27	20:46:36	20:55:16	516741	644a8c25f747d73d9828bee3	4	1	main_slash	11	advance_on_keypress_SLASH	22	stimuli_target_rectangletriangles.svg	stimuli_distractor_diamondtriangles.svg	5	yes	57	0	382	0	0			0	0			1				0	
6.6.1	mac	2023-06-27	20:46:36	20:55:17	518218	644a8c25f747d73d9828bee3	4	1	main_slash	11	main_slash	23	stimuli_distractor_diamondtriangles.svg	stimuli_target_rectangletriangles.svg	13	yes	53	1	455	0	0			0	0			1				0	
6.6.1	mac	2023-06-27	20:46:36	20:55:17	518218	644a8c25f747d73d9828bee3	4	1	main_slash	11	advance_on_keypress_SLASH	24	stimuli_distractor_diamondtriangles.svg	stimuli_target_rectangletriangles.svg	13	yes	57	0	494	0	0			0	0			1				0	
6.6.1	mac	2023-06-27	20:46:36	20:55:19	520232	644a8c25f747d73d9828bee3	4	1	main_slash	11	main_slash	25	stimuli_distractor_trianglediamonds.svg	stimuli_target_trianglerectangles.svg	25	yes	53	1	904	0	0			0	0			1				0	
6.6.1	mac	2023-06-27	20:46:36	20:55:19	520232	644a8c25f747d73d9828bee3	4	1	main_slash	11	advance_on_keypress_SLASH	26	stimuli_distractor_trianglediamonds.svg	stimuli_target_trianglerectangles.svg	25	yes	57	0	418	0	0			0	0			1				0	
6.6.1	mac	2023-06-27	20:46:36	20:55:23	523268	644a8c25f747d73d9828bee3	4	1	main_slash	11	main_slash	27	stimuli_distractor_trianglediamonds.svg	stimuli_distractor_diamondtriangles.svg	35	no	0	1	2000	0	0			0	0			1				0	
6.6.1	mac	2023-06-27	20:46:36	20:55:23	523268	644a8c25f747d73d9828bee3	4	1	main_slash	11	advance_on_keypress_SLASH	28	stimuli_distractor_trianglediamonds.svg	stimuli_distractor_diamondtriangles.svg	35	no	57	0	279	0	0			0	0			1				0	
6.6.1	mac	2023-06-27	20:46:36	20:55:25	526185	644a8c25f747d73d9828bee3	4	1	main_slash	11	main_slash	29	stimuli_distractor_diamondtriangles.svg	stimuli_distractor_trianglediamonds.svg	37	no	0	1	2000	0	0			0	0			1				0	
6.6.1	mac	2023-06-27	20:46:36	20:55:25	526185	644a8c25f747d73d9828bee3	4	1	main_slash	11	advance_on_keypress_SLASH	30	stimuli_distractor_diamondtriangles.svg	stimuli_distractor_trianglediamonds.svg	37	no	57	0	320	0	0			0	0			1				0	
6.6.1	mac	2023-06-27	20:46:36	20:55:27	527515	644a8c25f747d73d9828bee3	4	1	main_slash	11	main_slash	31	stimuli_target_rectanglediamonds.svg	stimuli_distractor_trianglediamonds.svg	2	yes	53	1	385	0	0			0	0			1				0	
6.6.1	mac	2023-06-27	20:46:36	20:55:27	527515	644a8c25f747d73d9828bee3	4	1	main_slash	11	advance_on_keypress_SLASH	32	stimuli_target_rectanglediamonds.svg	stimuli_distractor_trianglediamonds.svg	2	yes	57	0	486	0	0			0	0			1				0	
6.6.1	mac	2023-06-27	20:46:36	20:55:29	529260	644a8c25f747d73d9828bee3	4	1	main_slash	11	main_slash	33	stimuli_target_rectangletriangles.svg	stimuli_distractor_trianglediamonds.svg	1	yes	53	1	631	0	0			0	0			1				0	
6.6.1	mac	2023-06-27	20:46:36	20:55:29	529260	644a8c25f747d73d9828bee3	4	1	main_slash	11	advance_on_keypress_SLASH	34	stimuli_target_rectangletriangles.svg	stimuli_distractor_trianglediamonds.svg	1	yes	57	0	448	0	0			0	0			1				0	
6.6.1	mac	2023-06-27	20:46:36	20:55:30	530910	644a8c25f747d73d9828bee3	4	1	main_slash	11	main_slash	35	stimuli_distractor_diamondtriangles.svg	stimuli_target_squarediamonds.svg	16	yes	53	1	570	0	0			0	0			1				0	
6.6.1	mac	2023-06-27	20:46:36	20:55:30	530910	644a8c25f747d73d9828bee3	4	1	main_slash	11	advance_on_keypress_SLASH	36	stimuli_distractor_diamondtriangles.svg	stimuli_target_squarediamonds.svg	16	yes	57	0	435	0	0			0	0			1				0	
6.6.1	mac	2023-06-27	20:46:36	20:55:32	533068	644a8c25f747d73d9828bee3	4	1	main_slash	11	main_slash	37	stimuli_distractor_diamondtriangles.svg	stimuli_target_trianglesquares.svg	30	yes	53	1	1077	0	0			0	0			1				0	
6.6.1	mac	2023-06-27	20:46:36	20:55:32	533068	644a8c25f747d73d9828bee3	4	1	main_slash	11	advance_on_keypress_SLASH	38	stimuli_distractor_diamondtriangles.svg	stimuli_target_trianglesquares.svg	30	yes	57	0	527	0	0			0	0			1				0	
6.6.1	mac	2023-06-27	20:46:36	20:55:35	536221	644a8c25f747d73d9828bee3	4	1	main_slash	11	main_slash	39	stimuli_distractor_diamondtriangles.svg	stimuli_distractor_diamondtriangles.svg	40	no	0	1	2000	0	0			0	0			1				0	
6.6.1	mac	2023-06-27	20:46:36	20:55:35	536221	644a8c25f747d73d9828bee3	4	1	main_slash	11	advance_on_keypress_SLASH	40	stimuli_distractor_diamondtriangles.svg	stimuli_distractor_diamondtriangles.svg	40	no	57	0	566	0	0			0	0			1				0	
6.6.1	mac	2023-06-27	20:46:36	20:55:37	537940	644a8c25f747d73d9828bee3	4	1	main_slash	11	main_slash	41	stimuli_target_squarediamonds.svg	stimuli_distractor_diamondtriangles.svg	8	yes	53	1	523	0	0			0	0			1				0	
6.6.1	mac	2023-06-27	20:46:36	20:55:37	537940	644a8c25f747d73d9828bee3	4	1	main_slash	11	advance_on_keypress_SLASH	42	stimuli_target_squarediamonds.svg	stimuli_distractor_diamondtriangles.svg	8	yes	57	0	828	0	0			0	0			1				0	
6.6.1	mac	2023-06-27	20:46:36	20:55:39	539832	644a8c25f747d73d9828bee3	4	1	main_slash	11	main_slash	43	stimuli_distractor_diamondtriangles.svg	stimuli_target_squaretriangles.svg	15	yes	53	1	431	0	0			0	0			1				0	
6.6.1	mac	2023-06-27	20:46:36	20:55:39	539832	644a8c25f747d73d9828bee3	4	1	main_slash	11	advance_on_keypress_SLASH	44	stimuli_distractor_diamondtriangles.svg	stimuli_target_squaretriangles.svg	15	yes	57	0	517	0	0			0	0			1				0	
6.6.1	mac	2023-06-27	20:46:36	20:55:41	541549	644a8c25f747d73d9828bee3	4	1	main_slash	11	main_slash	45	stimuli_distractor_diamondtriangles.svg	stimuli_target_trianglerectangles.svg	29	yes	53	1	574	0	0			0	0			1				0	
6.6.1	mac	2023-06-27	20:46:36	20:55:41	541549	644a8c25f747d73d9828bee3	4	1	main_slash	11	advance_on_keypress_SLASH	46	stimuli_distractor_diamondtriangles.svg	stimuli_target_trianglerectangles.svg	29	yes	57	0	477	0	0			0	0			1				0	
6.6.1	mac	2023-06-27	20:46:36	20:55:43	543348	644a8c25f747d73d9828bee3	4	1	main_slash	11	main_slash	47	stimuli_target_diamondrectangles.svg	stimuli_distractor_diamondtriangles.svg	23	yes	53	1	687	0	0			0	0			1				0	
6.6.1	mac	2023-06-27	20:46:36	20:55:43	543348	644a8c25f747d73d9828bee3	4	1	main_slash	11	advance_on_keypress_SLASH	48	stimuli_target_diamondrectangles.svg	stimuli_distractor_diamondtriangles.svg	23	yes	57	0	588	0	0			0	0			1				0	
6.6.1	mac	2023-06-27	20:46:36	20:55:45	545395	644a8c25f747d73d9828bee3	4	1	main_slash	11	main_slash	49	stimuli_distractor_diamondtriangles.svg	stimuli_target_diamondsquares.svg	32	yes	53	1	836	0	0			0	0			1				0	
6.6.1	mac	2023-06-27	20:46:36	20:55:45	545395	644a8c25f747d73d9828bee3	4	1	main_slash	11	advance_on_keypress_SLASH	50	stimuli_distractor_diamondtriangles.svg	stimuli_target_diamondsquares.svg	32	yes	57	0	540	0	0			0	0			1				0	
6.6.1	mac	2023-06-27	20:46:36	20:55:47	547353	644a8c25f747d73d9828bee3	4	1	main_slash	11	main_slash	51	stimuli_target_trianglesquares.svg	stimuli_distractor_trianglediamonds.svg	18	yes	53	1	800	0	0			0	0			1				0	
6.6.1	mac	2023-06-27	20:46:36	20:55:47	547353	644a8c25f747d73d9828bee3	4	1	main_slash	11	advance_on_keypress_SLASH	52	stimuli_target_trianglesquares.svg	stimuli_distractor_trianglediamonds.svg	18	yes	57	0	485	0	0			0	0			1				0	
6.6.1	mac	2023-06-27	20:46:36	20:55:50	550467	644a8c25f747d73d9828bee3	4	1	main_slash	11	main_slash	53	stimuli_distractor_diamondtriangles.svg	stimuli_distractor_trianglediamonds.svg	38	no	0	1	2000	0	0			0	0			1				0	
6.6.1	mac	2023-06-27	20:46:36	20:55:50	550467	644a8c25f747d73d9828bee3	4	1	main_slash	11	advance_on_keypress_SLASH	54	stimuli_distractor_diamondtriangles.svg	stimuli_distractor_trianglediamonds.svg	38	no	57	0	492	0	0			0	0			1				0	
6.6.1	mac	2023-06-27	20:46:36	20:55:51	552089	644a8c25f747d73d9828bee3	4	1	main_slash	11	main_slash	55	stimuli_target_diamondsquares.svg	stimuli_distractor_trianglediamonds.svg	20	yes	53	1	492	0	0			0	0			1				0	
6.6.1	mac	2023-06-27	20:46:36	20:55:51	552089	644a8c25f747d73d9828bee3	4	1	main_slash	11	advance_on_keypress_SLASH	56	stimuli_target_diamondsquares.svg	stimuli_distractor_trianglediamonds.svg	20	yes	57	0	499	0	0			0	0			1				0	
6.6.1	mac	2023-06-27	20:46:36	20:55:53	553659	644a8c25f747d73d9828bee3	4	1	main_slash	11	main_slash	57	stimuli_distractor_trianglediamonds.svg	stimuli_target_trianglesquares.svg	26	yes	53	1	447	0	0			0	0			1				0	
6.6.1	mac	2023-06-27	20:46:36	20:55:53	553659	644a8c25f747d73d9828bee3	4	1	main_slash	11	advance_on_keypress_SLASH	58	stimuli_distractor_trianglediamonds.svg	stimuli_target_trianglesquares.svg	26	yes	57	0	382	0	0			0	0			1				0	
6.6.1	mac	2023-06-27	20:46:36	20:55:54	555124	644a8c25f747d73d9828bee3	4	1	main_slash	11	main_slash	59	stimuli_distractor_trianglediamonds.svg	stimuli_target_diamondsquares.svg	28	yes	53	1	445	0	0			0	0			1				0	
6.6.1	mac	2023-06-27	20:46:36	20:55:54	555124	644a8c25f747d73d9828bee3	4	1	main_slash	11	advance_on_keypress_SLASH	60	stimuli_distractor_trianglediamonds.svg	stimuli_target_diamondsquares.svg	28	yes	57	0	432	0	0			0	0			1				0	
6.6.1	mac	2023-06-27	20:46:36	20:55:57	558178	644a8c25f747d73d9828bee3	4	1	main_slash	11	main_slash	61	stimuli_distractor_trianglediamonds.svg	stimuli_distractor_trianglediamonds.svg	33	no	0	1	2000	0	0			0	0			1				0	
6.6.1	mac	2023-06-27	20:46:36	20:55:57	558178	644a8c25f747d73d9828bee3	4	1	main_slash	11	advance_on_keypress_SLASH	62	stimuli_distractor_trianglediamonds.svg	stimuli_distractor_trianglediamonds.svg	33	no	57	0	273	0	0			0	0			1				0	
6.6.1	mac	2023-06-27	20:46:36	20:56:00	561070	644a8c25f747d73d9828bee3	4	1	main_slash	11	main_slash	63	stimuli_target_trianglerectangles.svg	stimuli_distractor_diamondtriangles.svg	21	yes	0	0	2000	0	0			0	0			1				0	
6.6.1	mac	2023-06-27	20:46:36	20:56:00	561070	644a8c25f747d73d9828bee3	4	1	main_slash	11	advance_on_keypress_SLASH	64	stimuli_target_trianglerectangles.svg	stimuli_distractor_diamondtriangles.svg	21	yes	57	0	245	0	0			0	0			1				0	
6.6.1	mac	2023-06-27	20:46:36	20:56:03	563948	644a8c25f747d73d9828bee3	4	1	main_slash	11	main_slash	65	stimuli_distractor_trianglediamonds.svg	stimuli_distractor_trianglediamonds.svg	34	no	0	1	2000	0	0			0	0			1				0	
6.6.1	mac	2023-06-27	20:46:36	20:56:03	563948	644a8c25f747d73d9828bee3	4	1	main_slash	11	advance_on_keypress_SLASH	66	stimuli_distractor_trianglediamonds.svg	stimuli_distractor_trianglediamonds.svg	34	no	57	0	342	0	0			0	0			1				0	
6.6.1	mac	2023-06-27	20:46:36	20:56:05	565356	644a8c25f747d73d9828bee3	4	1	main_slash	11	main_slash	67	stimuli_target_diamondrectangles.svg	stimuli_distractor_trianglediamonds.svg	19	yes	53	1	441	0	0			0	0			1				0	
6.6.1	mac	2023-06-27	20:46:36	20:56:05	565356	644a8c25f747d73d9828bee3	4	1	main_slash	11	advance_on_keypress_SLASH	68	stimuli_target_diamondrectangles.svg	stimuli_distractor_trianglediamonds.svg	19	yes	57	0	364	0	0			0	0			1				0	
6.6.1	mac	2023-06-27	20:46:36	20:56:08	568347	644a8c25f747d73d9828bee3	4	1	main_slash	11	main_slash	69	stimuli_distractor_trianglediamonds.svg	stimuli_distractor_diamondtriangles.svg	36	no	0	1	2000	0	0			0	0			1				0	
6.6.1	mac	2023-06-27	20:46:36	20:56:08	568347	644a8c25f747d73d9828bee3	4	1	main_slash	11	advance_on_keypress_SLASH	70	stimuli_distractor_trianglediamonds.svg	stimuli_distractor_diamondtriangles.svg	36	no	57	0	405	0	0			0	0			1				0	
6.6.1	mac	2023-06-27	20:46:36	20:56:09	570201	644a8c25f747d73d9828bee3	4	1	main_slash	11	main_slash	71	stimuli_distractor_trianglediamonds.svg	stimuli_target_rectanglediamonds.svg	10	yes	53	1	826	0	0			0	0			1				0	
6.6.1	mac	2023-06-27	20:46:36	20:56:09	570201	644a8c25f747d73d9828bee3	4	1	main_slash	11	advance_on_keypress_SLASH	72	stimuli_distractor_trianglediamonds.svg	stimuli_target_rectanglediamonds.svg	10	yes	57	0	349	0	0			0	0			1				0	
6.6.1	mac	2023-06-27	20:46:36	20:56:11	571764	644a8c25f747d73d9828bee3	4	1	main_slash	11	main_slash	73	stimuli_target_trianglesquares.svg	stimuli_distractor_diamondtriangles.svg	22	yes	53	1	588	0	0			0	0			1				0	
6.6.1	mac	2023-06-27	20:46:36	20:56:11	571764	644a8c25f747d73d9828bee3	4	1	main_slash	11	advance_on_keypress_SLASH	74	stimuli_target_trianglesquares.svg	stimuli_distractor_diamondtriangles.svg	22	yes	57	0	399	0	0			0	0			1				0	
6.6.1	mac	2023-06-27	20:46:36	20:56:13	573344	644a8c25f747d73d9828bee3	4	1	main_slash	11	main_slash	75	stimuli_distractor_diamondtriangles.svg	stimuli_target_diamondrectangles.svg	31	yes	53	1	543	0	0			0	0			1				0	
6.6.1	mac	2023-06-27	20:46:36	20:56:13	573344	644a8c25f747d73d9828bee3	4	1	main_slash	11	advance_on_keypress_SLASH	76	stimuli_distractor_diamondtriangles.svg	stimuli_target_diamondrectangles.svg	31	yes	57	0	407	0	0			0	0			1				0	
6.6.1	mac	2023-06-27	20:46:36	20:56:14	575137	644a8c25f747d73d9828bee3	4	1	main_slash	11	main_slash	77	stimuli_distractor_trianglediamonds.svg	stimuli_target_squarediamonds.svg	12	yes	53	1	753	0	0			0	0			1				0	
6.6.1	mac	2023-06-27	20:46:36	20:56:14	575137	644a8c25f747d73d9828bee3	4	1	main_slash	11	advance_on_keypress_SLASH	78	stimuli_distractor_trianglediamonds.svg	stimuli_target_squarediamonds.svg	12	yes	57	0	338	0	0			0	0			1				0	
6.6.1	mac	2023-06-27	20:46:36	20:56:16	576611	644a8c25f747d73d9828bee3	4	1	main_slash	11	main_slash	79	stimuli_target_rectanglediamonds.svg	stimuli_distractor_diamondtriangles.svg	6	yes	53	1	510	0	0			0	0			1				0	
6.6.1	mac	2023-06-27	20:46:36	20:56:16	576611	644a8c25f747d73d9828bee3	4	1	main_slash	11	advance_on_keypress_SLASH	80	stimuli_target_rectanglediamonds.svg	stimuli_distractor_diamondtriangles.svg	6	yes	57	0	379	0	0			0	0			1				0	
6.6.1	mac	2023-06-27	20:46:36	20:56:17	578257	644a8c25f747d73d9828bee3	4	1	main_slash	11	main_slash	81	stimuli_target_rectangletriangles.svg	stimuli_distractor_diamondtriangles.svg	5	yes	53	1	646	0	0			0	0			1				0	
6.6.1	mac	2023-06-27	20:46:36	20:56:17	578257	644a8c25f747d73d9828bee3	4	1	main_slash	11	advance_on_keypress_SLASH	82	stimuli_target_rectangletriangles.svg	stimuli_distractor_diamondtriangles.svg	5	yes	57	0	358	0	0			0	0			1				0	
6.6.1	mac	2023-06-27	20:46:36	20:56:19	579688	644a8c25f747d73d9828bee3	4	1	main_slash	11	main_slash	83	stimuli_target_rectanglediamonds.svg	stimuli_distractor_diamondtriangles.svg	6	yes	53	1	444	0	0			0	0			1				0	
6.6.1	mac	2023-06-27	20:46:36	20:56:19	579688	644a8c25f747d73d9828bee3	4	1	main_slash	11	advance_on_keypress_SLASH	84	stimuli_target_rectanglediamonds.svg	stimuli_distractor_diamondtriangles.svg	6	yes	57	0	335	0	0			0	0			1				0	
6.6.1	mac	2023-06-27	20:46:36	20:56:21	581546	644a8c25f747d73d9828bee3	4	1	main_slash	11	main_slash	85	stimuli_target_trianglerectangles.svg	stimuli_distractor_trianglediamonds.svg	17	yes	53	1	903	0	0			0	0			1				0	
6.6.1	mac	2023-06-27	20:46:36	20:56:21	581546	644a8c25f747d73d9828bee3	4	1	main_slash	11	advance_on_keypress_SLASH	86	stimuli_target_trianglerectangles.svg	stimuli_distractor_trianglediamonds.svg	17	yes	57	0	267	0	0			0	0			1				0	
6.6.1	mac	2023-06-27	20:46:36	20:56:22	582861	644a8c25f747d73d9828bee3	4	1	main_slash	11	main_slash	87	stimuli_target_diamondsquares.svg	stimuli_distractor_trianglediamonds.svg	20	yes	53	1	416	0	0			0	0			1				0	
6.6.1	mac	2023-06-27	20:46:36	20:56:22	582861	644a8c25f747d73d9828bee3	4	1	main_slash	11	advance_on_keypress_SLASH	88	stimuli_target_diamondsquares.svg	stimuli_distractor_trianglediamonds.svg	20	yes	57	0	305	0	0			0	0			1				0	
6.6.1	mac	2023-06-27	20:46:36	20:56:25	585802	644a8c25f747d73d9828bee3	4	1	main_slash	11	main_slash	89	stimuli_target_squarediamonds.svg	stimuli_distractor_diamondtriangles.svg	8	yes	0	0	2000	0	0			0	0			1				0	
6.6.1	mac	2023-06-27	20:46:36	20:56:25	585802	644a8c25f747d73d9828bee3	4	1	main_slash	11	advance_on_keypress_SLASH	90	stimuli_target_squarediamonds.svg	stimuli_distractor_diamondtriangles.svg	8	yes	57	0	370	0	0			0	0			1				0	
6.6.1	mac	2023-06-27	20:46:36	20:56:28	588801	644a8c25f747d73d9828bee3	4	1	main_slash	11	main_slash	91	stimuli_distractor_trianglediamonds.svg	stimuli_distractor_diamondtriangles.svg	35	no	0	1	2000	0	0			0	0			1				0	
6.6.1	mac	2023-06-27	20:46:36	20:56:28	588801	644a8c25f747d73d9828bee3	4	1	main_slash	11	advance_on_keypress_SLASH	92	stimuli_distractor_trianglediamonds.svg	stimuli_distractor_diamondtriangles.svg	35	no	57	0	570	0	0			0	0			1				0	
6.6.1	mac	2023-06-27	20:46:36	20:56:31	591994	644a8c25f747d73d9828bee3	4	1	main_slash	11	main_slash	93	stimuli_distractor_diamondtriangles.svg	stimuli_distractor_diamondtriangles.svg	39	no	0	1	2000	0	0			0	0			1				0	
6.6.1	mac	2023-06-27	20:46:36	20:56:31	591994	644a8c25f747d73d9828bee3	4	1	main_slash	11	advance_on_keypress_SLASH	94	stimuli_distractor_diamondtriangles.svg	stimuli_distractor_diamondtriangles.svg	39	no	57	0	338	0	0			0	0			1				0	
6.6.1	mac	2023-06-27	20:46:36	20:56:33	593345	644a8c25f747d73d9828bee3	4	1	main_slash	11	main_slash	95	stimuli_distractor_diamondtriangles.svg	stimuli_target_rectanglediamonds.svg	14	yes	53	1	390	0	0			0	0			1				0	
6.6.1	mac	2023-06-27	20:46:36	20:56:33	593345	644a8c25f747d73d9828bee3	4	1	main_slash	11	advance_on_keypress_SLASH	96	stimuli_distractor_diamondtriangles.svg	stimuli_target_rectanglediamonds.svg	14	yes	57	0	385	0	0			0	0			1				0	
6.6.1	mac	2023-06-27	20:46:36	20:56:34	594857	644a8c25f747d73d9828bee3	4	1	main_slash	11	main_slash	97	stimuli_target_squarediamonds.svg	stimuli_distractor_trianglediamonds.svg	4	yes	53	1	500	0	0			0	0			1				0	
6.6.1	mac	2023-06-27	20:46:36	20:56:34	594857	644a8c25f747d73d9828bee3	4	1	main_slash	11	advance_on_keypress_SLASH	98	stimuli_target_squarediamonds.svg	stimuli_distractor_trianglediamonds.svg	4	yes	57	0	443	0	0			0	0			1				0	
6.6.1	mac	2023-06-27	20:46:36	20:56:36	596536	644a8c25f747d73d9828bee3	4	1	main_slash	11	main_slash	99	stimuli_distractor_diamondtriangles.svg	stimuli_target_rectangletriangles.svg	13	yes	53	1	613	0	0			0	0			1				0	
6.6.1	mac	2023-06-27	20:46:36	20:56:36	596536	644a8c25f747d73d9828bee3	4	1	main_slash	11	advance_on_keypress_SLASH	100	stimuli_distractor_diamondtriangles.svg	stimuli_target_rectangletriangles.svg	13	yes	57	0	370	0	0			0	0			1				0	
6.6.1	mac	2023-06-27	20:46:36	20:56:37	598134	644a8c25f747d73d9828bee3	4	1	main_slash	11	main_slash	101	stimuli_distractor_diamondtriangles.svg	stimuli_target_diamondrectangles.svg	31	yes	53	1	593	0	0			0	0			1				0	
6.6.1	mac	2023-06-27	20:46:36	20:56:37	598134	644a8c25f747d73d9828bee3	4	1	main_slash	11	advance_on_keypress_SLASH	102	stimuli_distractor_diamondtriangles.svg	stimuli_target_diamondrectangles.svg	31	yes	57	0	433	0	0			0	0			1				0	
6.6.1	mac	2023-06-27	20:46:36	20:56:39	600203	644a8c25f747d73d9828bee3	4	1	main_slash	11	main_slash	103	stimuli_distractor_trianglediamonds.svg	stimuli_target_squaretriangles.svg	11	yes	53	1	1005	0	0			0	0			1				0	
6.6.1	mac	2023-06-27	20:46:36	20:56:39	600203	644a8c25f747d73d9828bee3	4	1	main_slash	11	advance_on_keypress_SLASH	104	stimuli_distractor_trianglediamonds.svg	stimuli_target_squaretriangles.svg	11	yes	57	0	696	0	0			0	0			1				0	
6.6.1	mac	2023-06-27	20:46:36	20:56:43	603529	644a8c25f747d73d9828bee3	4	1	main_slash	11	main_slash	105	stimuli_distractor_diamondtriangles.svg	stimuli_distractor_diamondtriangles.svg	40	no	0	1	2000	0	0			0	0			1				0	
6.6.1	mac	2023-06-27	20:46:36	20:56:43	603529	644a8c25f747d73d9828bee3	4	1	main_slash	11	advance_on_keypress_SLASH	106	stimuli_distractor_diamondtriangles.svg	stimuli_distractor_diamondtriangles.svg	40	no	57	0	359	0	0			0	0			1				0	
6.6.1	mac	2023-06-27	20:46:36	20:56:44	605167	644a8c25f747d73d9828bee3	4	1	main_slash	11	main_slash	107	stimuli_distractor_diamondtriangles.svg	stimuli_target_squarediamonds.svg	16	yes	53	1	642	0	0			0	0			1				0	
6.6.1	mac	2023-06-27	20:46:36	20:56:44	605167	644a8c25f747d73d9828bee3	4	1	main_slash	11	advance_on_keypress_SLASH	108	stimuli_distractor_diamondtriangles.svg	stimuli_target_squarediamonds.svg	16	yes	57	0	351	0	0			0	0			1				0	
6.6.1	mac	2023-06-27	20:46:36	20:56:46	606622	644a8c25f747d73d9828bee3	4	1	main_slash	11	main_slash	109	stimuli_distractor_trianglediamonds.svg	stimuli_target_rectangletriangles.svg	9	yes	53	1	482	0	0			0	0			1				0	
6.6.1	mac	2023-06-27	20:46:36	20:56:46	606622	644a8c25f747d73d9828bee3	4	1	main_slash	11	advance_on_keypress_SLASH	110	stimuli_distractor_trianglediamonds.svg	stimuli_target_rectangletriangles.svg	9	yes	57	0	365	0	0			0	0			1				0	
6.6.1	mac	2023-06-27	20:46:36	20:56:48	608493	644a8c25f747d73d9828bee3	4	1	main_slash	11	main_slash	111	stimuli_target_diamondsquares.svg	stimuli_distractor_diamondtriangles.svg	24	yes	53	1	868	0	0			0	0			1				0	
6.6.1	mac	2023-06-27	20:46:36	20:56:48	608493	644a8c25f747d73d9828bee3	4	1	main_slash	11	advance_on_keypress_SLASH	112	stimuli_target_diamondsquares.svg	stimuli_distractor_diamondtriangles.svg	24	yes	57	0	292	0	0			0	0			1				0	
6.6.1	mac	2023-06-27	20:46:36	20:56:49	609979	644a8c25f747d73d9828bee3	4	1	main_slash	11	main_slash	113	stimuli_target_diamondrectangles.svg	stimuli_distractor_trianglediamonds.svg	19	yes	53	1	571	0	0			0	0			1				0	
6.6.1	mac	2023-06-27	20:46:36	20:56:49	609979	644a8c25f747d73d9828bee3	4	1	main_slash	11	advance_on_keypress_SLASH	114	stimuli_target_diamondrectangles.svg	stimuli_distractor_trianglediamonds.svg	19	yes	57	0	377	0	0			0	0			1				0	
6.6.1	mac	2023-06-27	20:46:36	20:56:51	612025	644a8c25f747d73d9828bee3	4	1	main_slash	11	main_slash	115	stimuli_distractor_diamondtriangles.svg	stimuli_target_trianglerectangles.svg	29	yes	53	1	1040	0	0			0	0			1				0	
6.6.1	mac	2023-06-27	20:46:36	20:56:51	612025	644a8c25f747d73d9828bee3	4	1	main_slash	11	advance_on_keypress_SLASH	116	stimuli_distractor_diamondtriangles.svg	stimuli_target_trianglerectangles.svg	29	yes	57	0	288	0	0			0	0			1				0	
6.6.1	mac	2023-06-27	20:46:36	20:56:53	614018	644a8c25f747d73d9828bee3	4	1	main_slash	11	main_slash	117	stimuli_distractor_trianglediamonds.svg	stimuli_target_trianglerectangles.svg	25	yes	53	1	1084	0	0			0	0			1				0	
6.6.1	mac	2023-06-27	20:46:36	20:56:53	614018	644a8c25f747d73d9828bee3	4	1	main_slash	11	advance_on_keypress_SLASH	118	stimuli_distractor_trianglediamonds.svg	stimuli_target_trianglerectangles.svg	25	yes	57	0	270	0	0			0	0			1				0	
6.6.1	mac	2023-06-27	20:46:36	20:56:56	616907	644a8c25f747d73d9828bee3	4	1	main_slash	11	main_slash	119	stimuli_distractor_trianglediamonds.svg	stimuli_distractor_diamondtriangles.svg	36	no	0	1	2000	0	0			0	0			1				0	
6.6.1	mac	2023-06-27	20:46:36	20:56:56	616907	644a8c25f747d73d9828bee3	4	1	main_slash	11	advance_on_keypress_SLASH	120	stimuli_distractor_trianglediamonds.svg	stimuli_distractor_diamondtriangles.svg	36	no	57	0	400	0	0			0	0			1				0	
6.6.1	mac	2023-06-27	20:46:36	20:56:58	618681	644a8c25f747d73d9828bee3	4	1	main_slash	11	main_slash	121	stimuli_distractor_trianglediamonds.svg	stimuli_target_diamondrectangles.svg	27	yes	53	1	737	0	0			0	0			1				0	
6.6.1	mac	2023-06-27	20:46:36	20:56:58	618681	644a8c25f747d73d9828bee3	4	1	main_slash	11	advance_on_keypress_SLASH	122	stimuli_distractor_trianglediamonds.svg	stimuli_target_diamondrectangles.svg	27	yes	57	0	410	0	0			0	0			1				0	
6.6.1	mac	2023-06-27	20:46:36	20:57:00	620285	644a8c25f747d73d9828bee3	4	1	main_slash	11	main_slash	123	stimuli_distractor_diamondtriangles.svg	stimuli_target_squaretriangles.svg	15	yes	53	1	575	0	0			0	0			1				0	
6.6.1	mac	2023-06-27	20:46:36	20:57:00	620285	644a8c25f747d73d9828bee3	4	1	main_slash	11	advance_on_keypress_SLASH	124	stimuli_distractor_diamondtriangles.svg	stimuli_target_squaretriangles.svg	15	yes	57	0	411	0	0			0	0			1				0	
6.6.1	mac	2023-06-27	20:46:36	20:57:03	623317	644a8c25f747d73d9828bee3	4	1	main_slash	11	main_slash	125	stimuli_distractor_trianglediamonds.svg	stimuli_distractor_trianglediamonds.svg	33	no	0	1	2000	0	0			0	0			1				0	
6.6.1	mac	2023-06-27	20:46:36	20:57:03	623317	644a8c25f747d73d9828bee3	4	1	main_slash	11	advance_on_keypress_SLASH	126	stimuli_distractor_trianglediamonds.svg	stimuli_distractor_trianglediamonds.svg	33	no	57	0	444	0	0			0	0			1				0	
6.6.1	mac	2023-06-27	20:46:36	20:57:04	624877	644a8c25f747d73d9828bee3	4	1	main_slash	11	main_slash	127	stimuli_distractor_diamondtriangles.svg	stimuli_target_trianglesquares.svg	30	yes	53	1	491	0	0			0	0			1				0	
6.6.1	mac	2023-06-27	20:46:36	20:57:04	624877	644a8c25f747d73d9828bee3	4	1	main_slash	11	advance_on_keypress_SLASH	128	stimuli_distractor_diamondtriangles.svg	stimuli_target_trianglesquares.svg	30	yes	57	0	320	0	0			0	0			1				0	
6.6.1	mac	2023-06-27	20:46:36	20:57:06	626426	644a8c25f747d73d9828bee3	4	1	main_slash	11	main_slash	129	stimuli_distractor_trianglediamonds.svg	stimuli_target_diamondsquares.svg	28	yes	53	1	595	0	0			0	0			1				0	
6.6.1	mac	2023-06-27	20:46:36	20:57:06	626426	644a8c25f747d73d9828bee3	4	1	main_slash	11	advance_on_keypress_SLASH	130	stimuli_distractor_trianglediamonds.svg	stimuli_target_diamondsquares.svg	28	yes	57	0	338	0	0			0	0			1				0	
6.6.1	mac	2023-06-27	20:46:36	20:57:07	627913	644a8c25f747d73d9828bee3	4	1	main_slash	11	main_slash	131	stimuli_target_rectanglediamonds.svg	stimuli_distractor_trianglediamonds.svg	2	yes	53	1	517	0	0			0	0			1				0	
6.6.1	mac	2023-06-27	20:46:36	20:57:07	627913	644a8c25f747d73d9828bee3	4	1	main_slash	11	advance_on_keypress_SLASH	132	stimuli_target_rectanglediamonds.svg	stimuli_distractor_trianglediamonds.svg	2	yes	57	0	409	0	0			0	0			1				0	
6.6.1	mac	2023-06-27	20:46:36	20:57:09	629386	644a8c25f747d73d9828bee3	4	1	main_slash	11	main_slash	133	stimuli_target_trianglesquares.svg	stimuli_distractor_trianglediamonds.svg	18	yes	53	1	440	0	0			0	0			1				0	
6.6.1	mac	2023-06-27	20:46:36	20:57:09	629386	644a8c25f747d73d9828bee3	4	1	main_slash	11	advance_on_keypress_SLASH	134	stimuli_target_trianglesquares.svg	stimuli_distractor_trianglediamonds.svg	18	yes	57	0	377	0	0			0	0			1				0	
6.6.1	mac	2023-06-27	20:46:36	20:57:11	631396	644a8c25f747d73d9828bee3	4	1	main_slash	11	main_slash	135	stimuli_distractor_trianglediamonds.svg	stimuli_target_squarediamonds.svg	12	yes	53	1	1006	0	0			0	0			1				0	
6.6.1	mac	2023-06-27	20:46:36	20:57:11	631396	644a8c25f747d73d9828bee3	4	1	main_slash	11	advance_on_keypress_SLASH	136	stimuli_distractor_trianglediamonds.svg	stimuli_target_squarediamonds.svg	12	yes	57	0	251	0	0			0	0			1				0	
6.6.1	mac	2023-06-27	20:46:36	20:57:12	633112	644a8c25f747d73d9828bee3	4	1	main_slash	11	main_slash	137	stimuli_distractor_trianglediamonds.svg	stimuli_target_trianglesquares.svg	26	yes	53	1	840	0	0			0	0			1				0	
6.6.1	mac	2023-06-27	20:46:36	20:57:12	633112	644a8c25f747d73d9828bee3	4	1	main_slash	11	advance_on_keypress_SLASH	138	stimuli_distractor_trianglediamonds.svg	stimuli_target_trianglesquares.svg	26	yes	57	0	322	0	0			0	0			1				0	
6.6.1	mac	2023-06-27	20:46:36	20:57:14	634932	644a8c25f747d73d9828bee3	4	1	main_slash	11	main_slash	139	stimuli_target_diamondrectangles.svg	stimuli_distractor_diamondtriangles.svg	23	yes	53	1	874	0	0			0	0			1				0	
6.6.1	mac	2023-06-27	20:46:36	20:57:14	634932	644a8c25f747d73d9828bee3	4	1	main_slash	11	advance_on_keypress_SLASH	140	stimuli_target_diamondrectangles.svg	stimuli_distractor_diamondtriangles.svg	23	yes	57	0	244	0	0			0	0			1				0	
6.6.1	mac	2023-06-27	20:46:36	20:57:16	636507	644a8c25f747d73d9828bee3	4	1	main_slash	11	main_slash	141	stimuli_target_trianglesquares.svg	stimuli_distractor_diamondtriangles.svg	22	yes	53	1	689	0	0			0	0			1				0	
6.6.1	mac	2023-06-27	20:46:36	20:57:16	636507	644a8c25f747d73d9828bee3	4	1	main_slash	11	advance_on_keypress_SLASH	142	stimuli_target_trianglesquares.svg	stimuli_distractor_diamondtriangles.svg	22	yes	57	0	384	0	0			0	0			1				0	
6.6.1	mac	2023-06-27	20:46:36	20:57:17	638034	644a8c25f747d73d9828bee3	4	1	main_slash	11	main_slash	143	stimuli_target_rectangletriangles.svg	stimuli_distractor_trianglediamonds.svg	1	yes	53	1	518	0	0			0	0			1				0	
6.6.1	mac	2023-06-27	20:46:36	20:57:17	638034	644a8c25f747d73d9828bee3	4	1	main_slash	11	advance_on_keypress_SLASH	144	stimuli_target_rectangletriangles.svg	stimuli_distractor_trianglediamonds.svg	1	yes	57	0	313	0	0			0	0			1				0	
6.6.1	mac	2023-06-27	20:46:36	20:57:19	639697	644a8c25f747d73d9828bee3	4	1	main_slash	11	main_slash	145	stimuli_distractor_diamondtriangles.svg	stimuli_target_diamondsquares.svg	32	yes	53	1	713	0	0			0	0			1				0	
6.6.1	mac	2023-06-27	20:46:36	20:57:19	639697	644a8c25f747d73d9828bee3	4	1	main_slash	11	advance_on_keypress_SLASH	146	stimuli_distractor_diamondtriangles.svg	stimuli_target_diamondsquares.svg	32	yes	57	0	308	0	0			0	0			1				0	
6.6.1	mac	2023-06-27	20:46:36	20:57:21	641707	644a8c25f747d73d9828bee3	4	1	main_slash	11	main_slash	147	stimuli_distractor_trianglediamonds.svg	stimuli_target_rectanglediamonds.svg	10	yes	53	1	1082	0	0			0	0			1				0	
6.6.1	mac	2023-06-27	20:46:36	20:57:21	641707	644a8c25f747d73d9828bee3	4	1	main_slash	11	advance_on_keypress_SLASH	148	stimuli_distractor_trianglediamonds.svg	stimuli_target_rectanglediamonds.svg	10	yes	57	0	501	0	0			0	0			1				0	
6.6.1	mac	2023-06-27	20:46:36	20:57:24	644841	644a8c25f747d73d9828bee3	4	1	main_slash	11	main_slash	149	stimuli_distractor_diamondtriangles.svg	stimuli_distractor_trianglediamonds.svg	38	no	0	1	2000	0	0			0	0			1				0	
6.6.1	mac	2023-06-27	20:46:36	20:57:24	644841	644a8c25f747d73d9828bee3	4	1	main_slash	11	advance_on_keypress_SLASH	150	stimuli_distractor_diamondtriangles.svg	stimuli_distractor_trianglediamonds.svg	38	no	57	0	307	0	0			0	0			1				0	
6.6.1	mac	2023-06-27	20:46:36	20:57:27	647784	644a8c25f747d73d9828bee3	4	1	main_slash	11	main_slash	151	stimuli_distractor_trianglediamonds.svg	stimuli_distractor_trianglediamonds.svg	34	no	0	1	2000	0	0			0	0			1				0	
6.6.1	mac	2023-06-27	20:46:36	20:57:27	647784	644a8c25f747d73d9828bee3	4	1	main_slash	11	advance_on_keypress_SLASH	152	stimuli_distractor_trianglediamonds.svg	stimuli_distractor_trianglediamonds.svg	34	no	57	0	301	0	0			0	0			1				0	
6.6.1	mac	2023-06-27	20:46:36	20:57:29	649288	644a8c25f747d73d9828bee3	4	1	main_slash	11	main_slash	153	stimuli_target_squaretriangles.svg	stimuli_distractor_diamondtriangles.svg	7	yes	53	1	567	0	0			0	0			1				0	
6.6.1	mac	2023-06-27	20:46:36	20:57:29	649288	644a8c25f747d73d9828bee3	4	1	main_slash	11	advance_on_keypress_SLASH	154	stimuli_target_squaretriangles.svg	stimuli_distractor_diamondtriangles.svg	7	yes	57	0	421	0	0			0	0			1				0	
6.6.1	mac	2023-06-27	20:46:36	20:57:30	650811	644a8c25f747d73d9828bee3	4	1	main_slash	11	main_slash	155	stimuli_distractor_diamondtriangles.svg	stimuli_distractor_trianglediamonds.svg	37	no	53	0	474	0	0			0	0			1				0	
6.6.1	mac	2023-06-27	20:46:36	20:57:30	650811	644a8c25f747d73d9828bee3	4	1	main_slash	11	advance_on_keypress_SLASH	156	stimuli_distractor_diamondtriangles.svg	stimuli_distractor_trianglediamonds.svg	37	no	57	0	321	0	0			0	0			1				0	
6.6.1	mac	2023-06-27	20:46:36	20:57:32	652864	644a8c25f747d73d9828bee3	4	1	main_slash	11	main_slash	157	stimuli_target_squaretriangles.svg	stimuli_distractor_trianglediamonds.svg	3	yes	53	1	1103	0	0			0	0			1				0	
6.6.1	mac	2023-06-27	20:46:36	20:57:32	652864	644a8c25f747d73d9828bee3	4	1	main_slash	11	advance_on_keypress_SLASH	158	stimuli_target_squaretriangles.svg	stimuli_distractor_trianglediamonds.svg	3	yes	57	0	779	0	0			0	0			1				0	
6.6.1	mac	2023-06-27	20:46:36	20:57:34	654820	644a8c25f747d73d9828bee3	4	1	main_slash	11	main_slash	159	stimuli_target_trianglerectangles.svg	stimuli_distractor_diamondtriangles.svg	21	yes	53	1	540	0	0			0	0			1				0	
6.6.1	mac	2023-06-27	20:46:36	20:57:34	654820	644a8c25f747d73d9828bee3	4	1	main_slash	11	advance_on_keypress_SLASH	160	stimuli_target_trianglerectangles.svg	stimuli_distractor_diamondtriangles.svg	21	yes	57	0	326	0	0			0	0			1				0	
6.6.1	mac	2023-06-27	20:46:36	20:57:34	654820	644a8c25f747d73d9828bee3	4	1	headphonecheck_calibration	14	headphonecheck_calibrationIntro	1	stimuli_target_trianglerectangles.svg	stimuli_distractor_diamondtriangles.svg	21	yes	calibrationButton	0	3394	0	0			0	0			1				0	
6.6.1	mac	2023-06-27	20:46:36	20:57:34	654820	644a8c25f747d73d9828bee3	4	1	headphonecheck_testphase	15	test_collectResponse	3	stimuli_target_trianglerectangles.svg	stimuli_distractor_diamondtriangles.svg	21	yes	third	1	2344	1	6	antiphase_hc_ois.wav	3	0	0			1				0	
6.6.1	mac	2023-06-27	20:46:36	20:57:34	654820	644a8c25f747d73d9828bee3	4	1	headphonecheck_testphase	15	test_collectResponse	6	stimuli_target_trianglerectangles.svg	stimuli_distractor_diamondtriangles.svg	21	yes	first	1	634	2	3	antiphase_hc_soi.wav	1	0	0			1				0	
6.6.1	mac	2023-06-27	20:46:36	20:57:34	654820	644a8c25f747d73d9828bee3	4	1	headphonecheck_testphase	15	test_collectResponse	9	stimuli_target_trianglerectangles.svg	stimuli_distractor_diamondtriangles.svg	21	yes	third	0	2130	3	1	antiphase_hc_iso.wav	2	0	0			1				0	
6.6.1	mac	2023-06-27	20:46:36	20:57:34	654820	644a8c25f747d73d9828bee3	4	1	headphonecheck_testphase	15	test_collectResponse	12	stimuli_target_trianglerectangles.svg	stimuli_distractor_diamondtriangles.svg	21	yes	first	1	497	4	4	antiphase_hc_sio.wav	1	0	0			1				0	
6.6.1	mac	2023-06-27	20:46:36	20:57:34	654820	644a8c25f747d73d9828bee3	4	1	headphonecheck_testphase	15	test_collectResponse	15	stimuli_target_trianglerectangles.svg	stimuli_distractor_diamondtriangles.svg	21	yes	second	1	2070	5	5	antiphase_hc_osi.wav	2	0	0			1				0	
6.6.1	mac	2023-06-27	20:46:36	20:57:34	654820	644a8c25f747d73d9828bee3	4	1	headphonecheck_testphase	15	test_collectResponse	18	stimuli_target_trianglerectangles.svg	stimuli_distractor_diamondtriangles.svg	21	yes	second	0	851	6	2	antiphase_hc_ios.wav	3	0	0			1				0	
6.6.1	mac	2023-06-27	20:46:36	20:57:34	654820	644a8c25f747d73d9828bee3	4	1	stereocheck_calibration	17	stereocheck_calibrationIntro	1	stimuli_target_trianglerectangles.svg	stimuli_distractor_diamondtriangles.svg	21	yes	stereocheck_calibrationButton	0	37219	6	2	antiphase_hc_ios.wav	3	0	0			1				0	
6.6.1	mac	2023-06-27	20:46:36	20:57:34	654820	644a8c25f747d73d9828bee3	4	1	stereocheck_testphase	18	stereocheck_test_collectResponse	3	stimuli_target_trianglerectangles.svg	stimuli_distractor_diamondtriangles.svg	21	yes	stereocheck_right	1	2305	6	2	antiphase_hc_ios.wav	3	1	5	noise_calib_stim_RIGHT.wav	2	1				0	
6.6.1	mac	2023-06-27	20:46:36	20:57:34	654820	644a8c25f747d73d9828bee3	4	1	stereocheck_testphase	18	stereocheck_test_collectResponse	6	stimuli_target_trianglerectangles.svg	stimuli_distractor_diamondtriangles.svg	21	yes	stereocheck_right	1	647	6	2	antiphase_hc_ios.wav	3	2	6	noise_calib_stim_RIGHT.wav	2	1				0	
6.6.1	mac	2023-06-27	20:46:36	20:57:34	654820	644a8c25f747d73d9828bee3	4	1	stereocheck_testphase	18	stereocheck_test_collectResponse	9	stimuli_target_trianglerectangles.svg	stimuli_distractor_diamondtriangles.svg	21	yes	stereocheck_right	1	568	6	2	antiphase_hc_ios.wav	3	3	4	noise_calib_stim_RIGHT.wav	2	1				0	
6.6.1	mac	2023-06-27	20:46:36	20:57:34	654820	644a8c25f747d73d9828bee3	4	1	stereocheck_testphase	18	stereocheck_test_collectResponse	12	stimuli_target_trianglerectangles.svg	stimuli_distractor_diamondtriangles.svg	21	yes	stereocheck_left	1	450	6	2	antiphase_hc_ios.wav	3	4	3	noise_calib_stim_LEFT.wav	1	1				0	
6.6.1	mac	2023-06-27	20:46:36	20:57:34	654820	644a8c25f747d73d9828bee3	4	1	stereocheck_testphase	18	stereocheck_test_collectResponse	15	stimuli_target_trianglerectangles.svg	stimuli_distractor_diamondtriangles.svg	21	yes	stereocheck_left	1	422	6	2	antiphase_hc_ios.wav	3	5	2	noise_calib_stim_LEFT.wav	1	1				0	
6.6.1	mac	2023-06-27	20:46:36	20:57:34	654820	644a8c25f747d73d9828bee3	4	1	stereocheck_testphase	18	stereocheck_test_collectResponse	18	stimuli_target_trianglerectangles.svg	stimuli_distractor_diamondtriangles.svg	21	yes	stereocheck_left	1	456	6	2	antiphase_hc_ios.wav	3	6	1	noise_calib_stim_LEFT.wav	1	1				0	
6.6.1	mac	2023-06-27	20:46:36	20:57:34	654820	644a8c25f747d73d9828bee3	4	1	DL_practice	21	DL_practice	2	stimuli_target_trianglerectangles.svg	stimuli_distractor_diamondtriangles.svg	21	yes	pa	1	1841	6	2	antiphase_hc_ios.wav	3	6	1	noise_calib_stim_LEFT.wav	1	29	blb_dichoticlistening_pa-pa.mp3	pa	pa	0	left
6.6.1	mac	2023-06-27	20:46:36	20:57:34	654820	644a8c25f747d73d9828bee3	4	1	DL_practice	21	DL_practice	3	stimuli_target_trianglerectangles.svg	stimuli_distractor_diamondtriangles.svg	21	yes	ka	1	1277	6	2	antiphase_hc_ios.wav	3	6	1	noise_calib_stim_LEFT.wav	1	23	blb_dichoticlistening_ka-pa.mp3	ka	pa	1	left
6.6.1	mac	2023-06-27	20:46:36	20:57:34	654820	644a8c25f747d73d9828bee3	4	1	DL_practice	21	DL_practice	4	stimuli_target_trianglerectangles.svg	stimuli_distractor_diamondtriangles.svg	21	yes	ga	1	1007	6	2	antiphase_hc_ios.wav	3	6	1	noise_calib_stim_LEFT.wav	1	15	blb_dichoticlistening_ga-ga.mp3	ga	ga	0	left
6.6.1	mac	2023-06-27	20:46:36	20:57:34	654820	644a8c25f747d73d9828bee3	4	1	DL_practice	21	DL_practice	5	stimuli_target_trianglerectangles.svg	stimuli_distractor_diamondtriangles.svg	21	yes	ga	1	1171	6	2	antiphase_hc_ios.wav	3	6	1	noise_calib_stim_LEFT.wav	1	18	blb_dichoticlistening_ga-ta.mp3	ga	ta	1	left
6.6.1	mac	2023-06-27	20:46:36	20:57:34	654820	644a8c25f747d73d9828bee3	4	1	DL_practice	21	DL_practice	6	stimuli_target_trianglerectangles.svg	stimuli_distractor_diamondtriangles.svg	21	yes	da	1	966	6	2	antiphase_hc_ios.wav	3	6	1	noise_calib_stim_LEFT.wav	1	7	blb_dichoticlistening_da-ba.mp3	da	ba	1	left
6.6.1	mac	2023-06-27	20:46:36	20:57:34	654820	644a8c25f747d73d9828bee3	4	1	DL_practice	21	DL_practice	7	stimuli_target_trianglerectangles.svg	stimuli_distractor_diamondtriangles.svg	21	yes	ta	1	1688	6	2	antiphase_hc_ios.wav	3	6	1	noise_calib_stim_LEFT.wav	1	36	blb_dichoticlistening_ta-ta.mp3	ta	ta	0	left
6.6.1	mac	2023-06-27	20:46:36	20:57:34	654820	644a8c25f747d73d9828bee3	4	1	DL_practice	21	DL_practice	8	stimuli_target_trianglerectangles.svg	stimuli_distractor_diamondtriangles.svg	21	yes	ka	1	1336	6	2	antiphase_hc_ios.wav	3	6	1	noise_calib_stim_LEFT.wav	1	22	blb_dichoticlistening_ka-ka.mp3	ka	ka	0	left
6.6.1	mac	2023-06-27	20:46:36	20:57:34	654820	644a8c25f747d73d9828bee3	4	1	DL_practice	21	DL_practice	9	stimuli_target_trianglerectangles.svg	stimuli_distractor_diamondtriangles.svg	21	yes	da	1	1249	6	2	antiphase_hc_ios.wav	3	6	1	noise_calib_stim_LEFT.wav	1	8	blb_dichoticlistening_da-da.mp3	da	da	0	left
6.6.1	mac	2023-06-27	20:46:36	20:57:34	654820	644a8c25f747d73d9828bee3	4	1	DL_practice	21	DL_practice	10	stimuli_target_trianglerectangles.svg	stimuli_distractor_diamondtriangles.svg	21	yes	ba	1	1065	6	2	antiphase_hc_ios.wav	3	6	1	noise_calib_stim_LEFT.wav	1	1	blb_dichoticlistening_ba-ba.mp3	ba	ba	0	left
6.6.1	mac	2023-06-27	20:46:36	20:57:34	654820	644a8c25f747d73d9828bee3	4	1	DL_test	23	DL_test	1	stimuli_target_trianglerectangles.svg	stimuli_distractor_diamondtriangles.svg	21	yes	ka	1	1221	6	2	antiphase_hc_ios.wav	3	6	1	noise_calib_stim_LEFT.wav	1	23	blb_dichoticlistening_ka-pa.mp3	ka	pa	1	left
6.6.1	mac	2023-06-27	20:46:36	20:57:34	654820	644a8c25f747d73d9828bee3	4	1	DL_test	23	DL_test	2	stimuli_target_trianglerectangles.svg	stimuli_distractor_diamondtriangles.svg	21	yes	ka	1	997	6	2	antiphase_hc_ios.wav	3	6	1	noise_calib_stim_LEFT.wav	1	20	blb_dichoticlistening_ka-da.mp3	ka	da	1	left
6.6.1	mac	2023-06-27	20:46:36	20:57:34	654820	644a8c25f747d73d9828bee3	4	1	DL_test	23	DL_test	3	stimuli_target_trianglerectangles.svg	stimuli_distractor_diamondtriangles.svg	21	yes	ka	1	829	6	2	antiphase_hc_ios.wav	3	6	1	noise_calib_stim_LEFT.wav	1	22	blb_dichoticlistening_ka-ka.mp3	ka	ka	0	left
6.6.1	mac	2023-06-27	20:46:36	20:57:34	654820	644a8c25f747d73d9828bee3	4	1	DL_test	23	DL_test	4	stimuli_target_trianglerectangles.svg	stimuli_distractor_diamondtriangles.svg	21	yes	pa	1	1403	6	2	antiphase_hc_ios.wav	3	6	1	noise_calib_stim_LEFT.wav	1	30	blb_dichoticlistening_pa-ta.mp3	pa	ta	1	left
6.6.1	mac	2023-06-27	20:46:36	20:57:34	654820	644a8c25f747d73d9828bee3	4	1	DL_test	23	DL_test	5	stimuli_target_trianglerectangles.svg	stimuli_distractor_diamondtriangles.svg	21	yes	ga	1	1327	6	2	antiphase_hc_ios.wav	3	6	1	noise_calib_stim_LEFT.wav	1	15	blb_dichoticlistening_ga-ga.mp3	ga	ga	0	left
6.6.1	mac	2023-06-27	20:46:36	20:57:34	654820	644a8c25f747d73d9828bee3	4	1	DL_test	23	DL_test	6	stimuli_target_trianglerectangles.svg	stimuli_distractor_diamondtriangles.svg	21	yes	da	1	827	6	2	antiphase_hc_ios.wav	3	6	1	noise_calib_stim_LEFT.wav	1	7	blb_dichoticlistening_da-ba.mp3	da	ba	1	left
6.6.1	mac	2023-06-27	20:46:36	20:57:34	654820	644a8c25f747d73d9828bee3	4	1	DL_test	23	DL_test	7	stimuli_target_trianglerectangles.svg	stimuli_distractor_diamondtriangles.svg	21	yes	ka	1	1068	6	2	antiphase_hc_ios.wav	3	6	1	noise_calib_stim_LEFT.wav	1	21	blb_dichoticlistening_ka-ga.mp3	ka	ga	1	left
6.6.1	mac	2023-06-27	20:46:36	20:57:34	654820	644a8c25f747d73d9828bee3	4	1	DL_test	23	DL_test	8	stimuli_target_trianglerectangles.svg	stimuli_distractor_diamondtriangles.svg	21	yes	ka	1	818	6	2	antiphase_hc_ios.wav	3	6	1	noise_calib_stim_LEFT.wav	1	24	blb_dichoticlistening_ka-ta.mp3	ka	ta	1	left
6.6.1	mac	2023-06-27	20:46:36	20:57:34	654820	644a8c25f747d73d9828bee3	4	1	DL_test	23	DL_test	9	stimuli_target_trianglerectangles.svg	stimuli_distractor_diamondtriangles.svg	21	yes	ta	1	1666	6	2	antiphase_hc_ios.wav	3	6	1	noise_calib_stim_LEFT.wav	1	35	blb_dichoticlistening_ta-pa.mp3	ta	pa	1	left
6.6.1	mac	2023-06-27	20:46:36	20:57:34	654820	644a8c25f747d73d9828bee3	4	1	DL_test	23	DL_test	10	stimuli_target_trianglerectangles.svg	stimuli_distractor_diamondtriangles.svg	21	yes	ba	1	1819	6	2	antiphase_hc_ios.wav	3	6	1	noise_calib_stim_LEFT.wav	1	4	blb_dichoticlistening_ba-ka.mp3	ba	ka	1	left
6.6.1	mac	2023-06-27	20:46:36	20:57:34	654820	644a8c25f747d73d9828bee3	4	1	DL_test	23	DL_test	11	stimuli_target_trianglerectangles.svg	stimuli_distractor_diamondtriangles.svg	21	yes	ga	1	1068	6	2	antiphase_hc_ios.wav	3	6	1	noise_calib_stim_LEFT.wav	1	16	blb_dichoticlistening_ga-ka.mp3	ga	ka	1	left
6.6.1	mac	2023-06-27	20:46:36	20:57:34	654820	644a8c25f747d73d9828bee3	4	1	DL_test	23	DL_test	12	stimuli_target_trianglerectangles.svg	stimuli_distractor_diamondtriangles.svg	21	yes	ta	1	1287	6	2	antiphase_hc_ios.wav	3	6	1	noise_calib_stim_LEFT.wav	1	32	blb_dichoticlistening_ta-da.mp3	ta	da	1	left
6.6.1	mac	2023-06-27	20:46:36	20:57:34	654820	644a8c25f747d73d9828bee3	4	1	DL_test	23	DL_test	13	stimuli_target_trianglerectangles.svg	stimuli_distractor_diamondtriangles.svg	21	yes	pa	1	1198	6	2	antiphase_hc_ios.wav	3	6	1	noise_calib_stim_LEFT.wav	1	28	blb_dichoticlistening_pa-ka.mp3	pa	ka	1	left
6.6.1	mac	2023-06-27	20:46:36	20:57:34	654820	644a8c25f747d73d9828bee3	4	1	DL_test	23	DL_test	14	stimuli_target_trianglerectangles.svg	stimuli_distractor_diamondtriangles.svg	21	yes	ga	1	887	6	2	antiphase_hc_ios.wav	3	6	1	noise_calib_stim_LEFT.wav	1	18	blb_dichoticlistening_ga-ta.mp3	ga	ta	1	left
6.6.1	mac	2023-06-27	20:46:36	20:57:34	654820	644a8c25f747d73d9828bee3	4	1	DL_test	23	DL_test	15	stimuli_target_trianglerectangles.svg	stimuli_distractor_diamondtriangles.svg	21	yes	ka	0	2080	6	2	antiphase_hc_ios.wav	3	6	1	noise_calib_stim_LEFT.wav	1	33	blb_dichoticlistening_ta-ga.mp3	ta	ga	1	other
6.6.1	mac	2023-06-27	20:46:36	20:57:34	654820	644a8c25f747d73d9828bee3	4	1	DL_test	23	DL_test	16	stimuli_target_trianglerectangles.svg	stimuli_distractor_diamondtriangles.svg	21	yes	ba	1	1326	6	2	antiphase_hc_ios.wav	3	6	1	noise_calib_stim_LEFT.wav	1	3	blb_dichoticlistening_ba-ga.mp3	ba	ga	1	left
6.6.1	mac	2023-06-27	20:46:36	20:57:34	654820	644a8c25f747d73d9828bee3	4	1	DL_test	23	DL_test	17	stimuli_target_trianglerectangles.svg	stimuli_distractor_diamondtriangles.svg	21	yes	pa	1	1632	6	2	antiphase_hc_ios.wav	3	6	1	noise_calib_stim_LEFT.wav	1	27	blb_dichoticlistening_pa-ga.mp3	pa	ga	1	left
6.6.1	mac	2023-06-27	20:46:36	20:57:34	654820	644a8c25f747d73d9828bee3	4	1	DL_test	23	DL_test	18	stimuli_target_trianglerectangles.svg	stimuli_distractor_diamondtriangles.svg	21	yes	ba	1	1389	6	2	antiphase_hc_ios.wav	3	6	1	noise_calib_stim_LEFT.wav	1	6	blb_dichoticlistening_ba-ta.mp3	ba	ta	1	left
6.6.1	mac	2023-06-27	20:46:36	20:57:34	654820	644a8c25f747d73d9828bee3	4	1	DL_test	23	DL_test	19	stimuli_target_trianglerectangles.svg	stimuli_distractor_diamondtriangles.svg	21	yes	da	1	926	6	2	antiphase_hc_ios.wav	3	6	1	noise_calib_stim_LEFT.wav	1	12	blb_dichoticlistening_da-ta.mp3	da	ta	1	left
6.6.1	mac	2023-06-27	20:46:36	20:57:34	654820	644a8c25f747d73d9828bee3	4	1	DL_test	23	DL_test	20	stimuli_target_trianglerectangles.svg	stimuli_distractor_diamondtriangles.svg	21	yes	ga	1	1034	6	2	antiphase_hc_ios.wav	3	6	1	noise_calib_stim_LEFT.wav	1	14	blb_dichoticlistening_ga-da.mp3	ga	da	1	left
6.6.1	mac	2023-06-27	20:46:36	20:57:34	654820	644a8c25f747d73d9828bee3	4	1	DL_test	23	DL_test	21	stimuli_target_trianglerectangles.svg	stimuli_distractor_diamondtriangles.svg	21	yes	ga	1	850	6	2	antiphase_hc_ios.wav	3	6	1	noise_calib_stim_LEFT.wav	1	13	blb_dichoticlistening_ga-ba.mp3	ga	ba	1	left
6.6.1	mac	2023-06-27	20:46:36	20:57:34	654820	644a8c25f747d73d9828bee3	4	1	DL_test	23	DL_test	22	stimuli_target_trianglerectangles.svg	stimuli_distractor_diamondtriangles.svg	21	yes	ka	1	2439	6	2	antiphase_hc_ios.wav	3	6	1	noise_calib_stim_LEFT.wav	1	19	blb_dichoticlistening_ka-ba.mp3	ka	ba	1	left
6.6.1	mac	2023-06-27	20:46:36	20:57:34	654820	644a8c25f747d73d9828bee3	4	1	DL_test	23	DL_test	23	stimuli_target_trianglerectangles.svg	stimuli_distractor_diamondtriangles.svg	21	yes	da	1	1322	6	2	antiphase_hc_ios.wav	3	6	1	noise_calib_stim_LEFT.wav	1	10	blb_dichoticlistening_da-ka.mp3	da	ka	1	left
6.6.1	mac	2023-06-27	20:46:36	20:57:34	654820	644a8c25f747d73d9828bee3	4	1	DL_test	23	DL_test	24	stimuli_target_trianglerectangles.svg	stimuli_distractor_diamondtriangles.svg	21	yes	ta	1	1144	6	2	antiphase_hc_ios.wav	3	6	1	noise_calib_stim_LEFT.wav	1	36	blb_dichoticlistening_ta-ta.mp3	ta	ta	0	left
6.6.1	mac	2023-06-27	20:46:36	20:57:34	654820	644a8c25f747d73d9828bee3	4	1	DL_test	23	DL_test	25	stimuli_target_trianglerectangles.svg	stimuli_distractor_diamondtriangles.svg	21	yes	pa	1	1390	6	2	antiphase_hc_ios.wav	3	6	1	noise_calib_stim_LEFT.wav	1	25	blb_dichoticlistening_pa-ba.mp3	pa	ba	1	left
6.6.1	mac	2023-06-27	20:46:36	20:57:34	654820	644a8c25f747d73d9828bee3	4	1	DL_test	23	DL_test	26	stimuli_target_trianglerectangles.svg	stimuli_distractor_diamondtriangles.svg	21	yes	da	1	1075	6	2	antiphase_hc_ios.wav	3	6	1	noise_calib_stim_LEFT.wav	1	8	blb_dichoticlistening_da-da.mp3	da	da	0	left
