build	computer.platform	date	time	timestamp	time_elapsed_ms	subject	group	session	blockcode	blocknum	trialcode	trialnum	stimulus_left	stimulus_right	stim_index	target_present	response	correct	latency	headphonecheck_countTestTrials	headphonecheck_index	headphonecheck_testSound	headphonecheck_correctResponse	stereocheck_countTestTrials	stereocheck_index	stereocheck_testSound	stereocheck_correctResponse	DL_index	DL_soundfile	DL_leftSound	DL_rightSound	DL_dualSound	DL_choice
6.6.1	win	2023-06-26	22:50:41	22:53:47	182156	5c6838ea5f8d580001e8a8ab	4	1	practice_z	5	practice_z	1	stimuli_target_diamondsquares.svg	stimuli_distractor_trianglediamonds.svg	6	yes	44	1	424	0	0			0	0			1				0	
6.6.1	win	2023-06-26	22:50:41	22:53:47	182156	5c6838ea5f8d580001e8a8ab	4	1	practice_z	5	advance_on_keypress_ZEE	2	stimuli_target_diamondsquares.svg	stimuli_distractor_trianglediamonds.svg	6	yes	57	0	660	0	0			0	0			1				0	
6.6.1	win	2023-06-26	22:50:41	22:53:51	186469	5c6838ea5f8d580001e8a8ab	4	1	practice_z	5	practice_z	3	stimuli_distractor_diamondtriangles.svg	stimuli_distractor_trianglediamonds.svg	14	no	0	1	2000	0	0			0	0			1				0	
6.6.1	win	2023-06-26	22:50:41	22:53:51	186469	5c6838ea5f8d580001e8a8ab	4	1	practice_z	5	advance_on_keypress_ZEE	4	stimuli_distractor_diamondtriangles.svg	stimuli_distractor_trianglediamonds.svg	14	no	57	0	412	0	0			0	0			1				0	
6.6.1	win	2023-06-26	22:50:41	22:53:54	189053	5c6838ea5f8d580001e8a8ab	4	1	practice_z	5	practice_z	5	stimuli_target_diamondsquares.svg	stimuli_distractor_diamondtriangles.svg	3	yes	44	1	513	0	0			0	0			1				0	
6.6.1	win	2023-06-26	22:50:41	22:53:54	189053	5c6838ea5f8d580001e8a8ab	4	1	practice_z	5	advance_on_keypress_ZEE	6	stimuli_target_diamondsquares.svg	stimuli_distractor_diamondtriangles.svg	3	yes	57	0	466	0	0			0	0			1				0	
6.6.1	win	2023-06-26	22:50:41	22:53:57	191957	5c6838ea5f8d580001e8a8ab	4	1	practice_z	5	practice_z	7	stimuli_distractor_diamondtriangles.svg	stimuli_target_trianglerectangles.svg	9	yes	44	1	781	0	0			0	0			1				0	
6.6.1	win	2023-06-26	22:50:41	22:53:57	191957	5c6838ea5f8d580001e8a8ab	4	1	practice_z	5	advance_on_keypress_ZEE	8	stimuli_distractor_diamondtriangles.svg	stimuli_target_trianglerectangles.svg	9	yes	57	0	466	0	0			0	0			1				0	
6.6.1	win	2023-06-26	22:50:41	22:53:59	194612	5c6838ea5f8d580001e8a8ab	4	1	practice_z	5	practice_z	9	stimuli_target_rectanglediamonds.svg	stimuli_distractor_diamondtriangles.svg	1	yes	44	1	534	0	0			0	0			1				0	
6.6.1	win	2023-06-26	22:50:41	22:53:59	194612	5c6838ea5f8d580001e8a8ab	4	1	practice_z	5	advance_on_keypress_ZEE	10	stimuli_target_rectanglediamonds.svg	stimuli_distractor_diamondtriangles.svg	1	yes	57	0	277	0	0			0	0			1				0	
6.6.1	win	2023-06-26	22:50:41	22:54:03	198548	5c6838ea5f8d580001e8a8ab	4	1	practice_z	5	practice_z	11	stimuli_distractor_trianglediamonds.svg	stimuli_distractor_trianglediamonds.svg	15	no	0	1	2000	0	0			0	0			1				0	
6.6.1	win	2023-06-26	22:50:41	22:54:03	198548	5c6838ea5f8d580001e8a8ab	4	1	practice_z	5	advance_on_keypress_ZEE	12	stimuli_distractor_trianglediamonds.svg	stimuli_distractor_trianglediamonds.svg	15	no	57	0	477	0	0			0	0			1				0	
6.6.1	win	2023-06-26	22:50:41	22:54:07	201748	5c6838ea5f8d580001e8a8ab	4	1	practice_z	5	practice_z	13	stimuli_distractor_diamondtriangles.svg	stimuli_target_diamondrectangles.svg	8	yes	44	1	1064	0	0			0	0			1				0	
6.6.1	win	2023-06-26	22:50:41	22:54:07	201748	5c6838ea5f8d580001e8a8ab	4	1	practice_z	5	advance_on_keypress_ZEE	14	stimuli_distractor_diamondtriangles.svg	stimuli_target_diamondrectangles.svg	8	yes	57	0	433	0	0			0	0			1				0	
6.6.1	win	2023-06-26	22:50:41	22:54:11	205838	5c6838ea5f8d580001e8a8ab	4	1	practice_z	5	practice_z	15	stimuli_distractor_diamondtriangles.svg	stimuli_distractor_diamondtriangles.svg	13	no	0	1	2000	0	0			0	0			1				0	
6.6.1	win	2023-06-26	22:50:41	22:54:11	205838	5c6838ea5f8d580001e8a8ab	4	1	practice_z	5	advance_on_keypress_ZEE	16	stimuli_distractor_diamondtriangles.svg	stimuli_distractor_diamondtriangles.svg	13	no	57	0	378	0	0			0	0			1				0	
6.6.1	win	2023-06-26	22:50:41	22:54:14	208837	5c6838ea5f8d580001e8a8ab	4	1	practice_z	5	practice_z	17	stimuli_distractor_diamondtriangles.svg	stimuli_target_rectangletriangles.svg	7	yes	44	1	961	0	0			0	0			1				0	
6.6.1	win	2023-06-26	22:50:41	22:54:14	208837	5c6838ea5f8d580001e8a8ab	4	1	practice_z	5	advance_on_keypress_ZEE	18	stimuli_distractor_diamondtriangles.svg	stimuli_target_rectangletriangles.svg	7	yes	57	0	496	0	0			0	0			1				0	
6.6.1	win	2023-06-26	22:50:41	22:54:17	211989	5c6838ea5f8d580001e8a8ab	4	1	practice_z	5	practice_z	19	stimuli_distractor_trianglediamonds.svg	stimuli_target_squarediamonds.svg	11	yes	44	1	1010	0	0			0	0			1				0	
6.6.1	win	2023-06-26	22:50:41	22:54:17	211989	5c6838ea5f8d580001e8a8ab	4	1	practice_z	5	advance_on_keypress_ZEE	20	stimuli_distractor_trianglediamonds.svg	stimuli_target_squarediamonds.svg	11	yes	57	0	455	0	0			0	0			1				0	
6.6.1	win	2023-06-26	22:50:41	22:54:19	214573	5c6838ea5f8d580001e8a8ab	4	1	practice_z	5	practice_z	21	stimuli_distractor_trianglediamonds.svg	stimuli_target_rectanglediamonds.svg	10	yes	44	1	490	0	0			0	0			1				0	
6.6.1	win	2023-06-26	22:50:41	22:54:19	214573	5c6838ea5f8d580001e8a8ab	4	1	practice_z	5	advance_on_keypress_ZEE	22	stimuli_distractor_trianglediamonds.svg	stimuli_target_rectanglediamonds.svg	10	yes	57	0	381	0	0			0	0			1				0	
6.6.1	win	2023-06-26	22:50:41	22:54:22	217093	5c6838ea5f8d580001e8a8ab	4	1	practice_z	5	practice_z	23	stimuli_target_squarediamonds.svg	stimuli_distractor_trianglediamonds.svg	5	yes	44	1	492	0	0			0	0			1				0	
6.6.1	win	2023-06-26	22:50:41	22:54:22	217093	5c6838ea5f8d580001e8a8ab	4	1	practice_z	5	advance_on_keypress_ZEE	24	stimuli_target_squarediamonds.svg	stimuli_distractor_trianglediamonds.svg	5	yes	57	0	886	0	0			0	0			1				0	
6.6.1	win	2023-06-26	22:50:41	22:54:25	220109	5c6838ea5f8d580001e8a8ab	4	1	practice_z	5	practice_z	25	stimuli_target_squarediamonds.svg	stimuli_distractor_diamondtriangles.svg	2	yes	44	1	487	0	0			0	0			1				0	
6.6.1	win	2023-06-26	22:50:41	22:54:25	220109	5c6838ea5f8d580001e8a8ab	4	1	practice_z	5	advance_on_keypress_ZEE	26	stimuli_target_squarediamonds.svg	stimuli_distractor_diamondtriangles.svg	2	yes	57	0	290	0	0			0	0			1				0	
6.6.1	win	2023-06-26	22:50:41	22:54:27	222493	5c6838ea5f8d580001e8a8ab	4	1	practice_z	5	practice_z	27	stimuli_target_rectanglediamonds.svg	stimuli_distractor_trianglediamonds.svg	4	yes	44	1	453	0	0			0	0			1				0	
6.6.1	win	2023-06-26	22:50:41	22:54:27	222493	5c6838ea5f8d580001e8a8ab	4	1	practice_z	5	advance_on_keypress_ZEE	28	stimuli_target_rectanglediamonds.svg	stimuli_distractor_trianglediamonds.svg	4	yes	57	0	280	0	0			0	0			1				0	
6.6.1	win	2023-06-26	22:50:41	22:54:30	225356	5c6838ea5f8d580001e8a8ab	4	1	practice_z	5	practice_z	29	stimuli_distractor_trianglediamonds.svg	stimuli_target_diamondrectangles.svg	12	yes	44	1	930	0	0			0	0			1				0	
6.6.1	win	2023-06-26	22:50:41	22:54:30	225356	5c6838ea5f8d580001e8a8ab	4	1	practice_z	5	advance_on_keypress_ZEE	30	stimuli_distractor_trianglediamonds.svg	stimuli_target_diamondrectangles.svg	12	yes	57	0	339	0	0			0	0			1				0	
6.6.1	win	2023-06-26	22:50:41	22:54:34	229345	5c6838ea5f8d580001e8a8ab	4	1	practice_z	5	practice_z	31	stimuli_distractor_trianglediamonds.svg	stimuli_distractor_diamondtriangles.svg	16	no	0	1	2000	0	0			0	0			1				0	
6.6.1	win	2023-06-26	22:50:41	22:54:34	229345	5c6838ea5f8d580001e8a8ab	4	1	practice_z	5	advance_on_keypress_ZEE	32	stimuli_distractor_trianglediamonds.svg	stimuli_distractor_diamondtriangles.svg	16	no	57	0	399	0	0			0	0			1				0	
6.6.1	win	2023-06-26	22:50:41	22:54:42	237586	5c6838ea5f8d580001e8a8ab	4	1	main_z	7	main_z	1	stimuli_distractor_trianglediamonds.svg	stimuli_distractor_diamondtriangles.svg	36	no	0	1	2000	0	0			0	0			1				0	
6.6.1	win	2023-06-26	22:50:41	22:54:42	237586	5c6838ea5f8d580001e8a8ab	4	1	main_z	7	advance_on_keypress_ZEE	2	stimuli_distractor_trianglediamonds.svg	stimuli_distractor_diamondtriangles.svg	36	no	57	0	710	0	0			0	0			1				0	
6.6.1	win	2023-06-26	22:50:41	22:54:44	239418	5c6838ea5f8d580001e8a8ab	4	1	main_z	7	main_z	3	stimuli_distractor_diamondtriangles.svg	stimuli_target_trianglesquares.svg	30	yes	44	1	480	0	0			0	0			1				0	
6.6.1	win	2023-06-26	22:50:41	22:54:44	239418	5c6838ea5f8d580001e8a8ab	4	1	main_z	7	advance_on_keypress_ZEE	4	stimuli_distractor_diamondtriangles.svg	stimuli_target_trianglesquares.svg	30	yes	57	0	475	0	0			0	0			1				0	
6.6.1	win	2023-06-26	22:50:41	22:54:47	242524	5c6838ea5f8d580001e8a8ab	4	1	main_z	7	main_z	5	stimuli_distractor_diamondtriangles.svg	stimuli_distractor_diamondtriangles.svg	39	no	0	1	2000	0	0			0	0			1				0	
6.6.1	win	2023-06-26	22:50:41	22:54:47	242524	5c6838ea5f8d580001e8a8ab	4	1	main_z	7	advance_on_keypress_ZEE	6	stimuli_distractor_diamondtriangles.svg	stimuli_distractor_diamondtriangles.svg	39	no	57	0	468	0	0			0	0			1				0	
6.6.1	win	2023-06-26	22:50:41	22:54:49	244186	5c6838ea5f8d580001e8a8ab	4	1	main_z	7	main_z	7	stimuli_target_squaretriangles.svg	stimuli_distractor_trianglediamonds.svg	3	yes	44	1	543	0	0			0	0			1				0	
6.6.1	win	2023-06-26	22:50:41	22:54:49	244186	5c6838ea5f8d580001e8a8ab	4	1	main_z	7	advance_on_keypress_ZEE	8	stimuli_target_squaretriangles.svg	stimuli_distractor_trianglediamonds.svg	3	yes	57	0	424	0	0			0	0			1				0	
6.6.1	win	2023-06-26	22:50:41	22:54:51	245762	5c6838ea5f8d580001e8a8ab	4	1	main_z	7	main_z	9	stimuli_target_diamondsquares.svg	stimuli_distractor_diamondtriangles.svg	24	yes	44	1	517	0	0			0	0			1				0	
6.6.1	win	2023-06-26	22:50:41	22:54:51	245762	5c6838ea5f8d580001e8a8ab	4	1	main_z	7	advance_on_keypress_ZEE	10	stimuli_target_diamondsquares.svg	stimuli_distractor_diamondtriangles.svg	24	yes	57	0	263	0	0			0	0			1				0	
6.6.1	win	2023-06-26	22:50:41	22:54:52	247282	5c6838ea5f8d580001e8a8ab	4	1	main_z	7	main_z	11	stimuli_distractor_trianglediamonds.svg	stimuli_target_trianglerectangles.svg	25	yes	44	1	619	0	0			0	0			1				0	
6.6.1	win	2023-06-26	22:50:41	22:54:52	247282	5c6838ea5f8d580001e8a8ab	4	1	main_z	7	advance_on_keypress_ZEE	12	stimuli_distractor_trianglediamonds.svg	stimuli_target_trianglerectangles.svg	25	yes	57	0	233	0	0			0	0			1				0	
6.6.1	win	2023-06-26	22:50:41	22:54:54	248850	5c6838ea5f8d580001e8a8ab	4	1	main_z	7	main_z	13	stimuli_distractor_trianglediamonds.svg	stimuli_target_rectangletriangles.svg	9	yes	44	1	686	0	0			0	0			1				0	
6.6.1	win	2023-06-26	22:50:41	22:54:54	248850	5c6838ea5f8d580001e8a8ab	4	1	main_z	7	advance_on_keypress_ZEE	14	stimuli_distractor_trianglediamonds.svg	stimuli_target_rectangletriangles.svg	9	yes	57	0	223	0	0			0	0			1				0	
6.6.1	win	2023-06-26	22:50:41	22:54:57	251716	5c6838ea5f8d580001e8a8ab	4	1	main_z	7	main_z	15	stimuli_distractor_diamondtriangles.svg	stimuli_distractor_diamondtriangles.svg	40	no	0	1	2000	0	0			0	0			1				0	
6.6.1	win	2023-06-26	22:50:41	22:54:57	251716	5c6838ea5f8d580001e8a8ab	4	1	main_z	7	advance_on_keypress_ZEE	16	stimuli_distractor_diamondtriangles.svg	stimuli_distractor_diamondtriangles.svg	40	no	57	0	291	0	0			0	0			1				0	
6.6.1	win	2023-06-26	22:50:41	22:54:58	253160	5c6838ea5f8d580001e8a8ab	4	1	main_z	7	main_z	17	stimuli_target_squarediamonds.svg	stimuli_distractor_trianglediamonds.svg	4	yes	44	1	504	0	0			0	0			1				0	
6.6.1	win	2023-06-26	22:50:41	22:54:58	253160	5c6838ea5f8d580001e8a8ab	4	1	main_z	7	advance_on_keypress_ZEE	18	stimuli_target_squarediamonds.svg	stimuli_distractor_trianglediamonds.svg	4	yes	57	0	352	0	0			0	0			1				0	
6.6.1	win	2023-06-26	22:50:41	22:55:00	254762	5c6838ea5f8d580001e8a8ab	4	1	main_z	7	main_z	19	stimuli_distractor_diamondtriangles.svg	stimuli_target_diamondsquares.svg	32	yes	44	1	609	0	0			0	0			1				0	
6.6.1	win	2023-06-26	22:50:41	22:55:00	254762	5c6838ea5f8d580001e8a8ab	4	1	main_z	7	advance_on_keypress_ZEE	20	stimuli_distractor_diamondtriangles.svg	stimuli_target_diamondsquares.svg	32	yes	57	0	279	0	0			0	0			1				0	
6.6.1	win	2023-06-26	22:50:41	22:55:03	257673	5c6838ea5f8d580001e8a8ab	4	1	main_z	7	main_z	21	stimuli_distractor_diamondtriangles.svg	stimuli_distractor_trianglediamonds.svg	37	no	0	1	2000	0	0			0	0			1				0	
6.6.1	win	2023-06-26	22:50:41	22:55:03	257673	5c6838ea5f8d580001e8a8ab	4	1	main_z	7	advance_on_keypress_ZEE	22	stimuli_distractor_diamondtriangles.svg	stimuli_distractor_trianglediamonds.svg	37	no	57	0	415	0	0			0	0			1				0	
6.6.1	win	2023-06-26	22:50:41	22:55:04	259314	5c6838ea5f8d580001e8a8ab	4	1	main_z	7	main_z	23	stimuli_target_trianglesquares.svg	stimuli_distractor_diamondtriangles.svg	22	yes	44	1	573	0	0			0	0			1				0	
6.6.1	win	2023-06-26	22:50:41	22:55:04	259314	5c6838ea5f8d580001e8a8ab	4	1	main_z	7	advance_on_keypress_ZEE	24	stimuli_target_trianglesquares.svg	stimuli_distractor_diamondtriangles.svg	22	yes	57	0	292	0	0			0	0			1				0	
6.6.1	win	2023-06-26	22:50:41	22:55:06	260898	5c6838ea5f8d580001e8a8ab	4	1	main_z	7	main_z	25	stimuli_target_squaretriangles.svg	stimuli_distractor_diamondtriangles.svg	7	yes	44	1	655	0	0			0	0			1				0	
6.6.1	win	2023-06-26	22:50:41	22:55:06	260898	5c6838ea5f8d580001e8a8ab	4	1	main_z	7	advance_on_keypress_ZEE	26	stimuli_target_squaretriangles.svg	stimuli_distractor_diamondtriangles.svg	7	yes	57	0	235	0	0			0	0			1				0	
6.6.1	win	2023-06-26	22:50:41	22:55:07	262490	5c6838ea5f8d580001e8a8ab	4	1	main_z	7	main_z	27	stimuli_distractor_trianglediamonds.svg	stimuli_target_diamondsquares.svg	28	yes	44	1	712	0	0			0	0			1				0	
6.6.1	win	2023-06-26	22:50:41	22:55:07	262490	5c6838ea5f8d580001e8a8ab	4	1	main_z	7	advance_on_keypress_ZEE	28	stimuli_distractor_trianglediamonds.svg	stimuli_target_diamondsquares.svg	28	yes	57	0	202	0	0			0	0			1				0	
6.6.1	win	2023-06-26	22:50:41	22:55:09	263914	5c6838ea5f8d580001e8a8ab	4	1	main_z	7	main_z	29	stimuli_target_diamondrectangles.svg	stimuli_distractor_trianglediamonds.svg	19	yes	44	1	585	0	0			0	0			1				0	
6.6.1	win	2023-06-26	22:50:41	22:55:09	263914	5c6838ea5f8d580001e8a8ab	4	1	main_z	7	advance_on_keypress_ZEE	30	stimuli_target_diamondrectangles.svg	stimuli_distractor_trianglediamonds.svg	19	yes	57	0	143	0	0			0	0			1				0	
6.6.1	win	2023-06-26	22:50:41	22:55:10	265290	5c6838ea5f8d580001e8a8ab	4	1	main_z	7	main_z	31	stimuli_distractor_diamondtriangles.svg	stimuli_target_trianglerectangles.svg	29	yes	44	1	593	0	0			0	0			1				0	
6.6.1	win	2023-06-26	22:50:41	22:55:10	265290	5c6838ea5f8d580001e8a8ab	4	1	main_z	7	advance_on_keypress_ZEE	32	stimuli_distractor_diamondtriangles.svg	stimuli_target_trianglerectangles.svg	29	yes	57	0	158	0	0			0	0			1				0	
6.6.1	win	2023-06-26	22:50:41	22:55:11	266594	5c6838ea5f8d580001e8a8ab	4	1	main_z	7	main_z	33	stimuli_target_rectangletriangles.svg	stimuli_distractor_diamondtriangles.svg	5	yes	44	1	512	0	0			0	0			1				0	
6.6.1	win	2023-06-26	22:50:41	22:55:11	266594	5c6838ea5f8d580001e8a8ab	4	1	main_z	7	advance_on_keypress_ZEE	34	stimuli_target_rectangletriangles.svg	stimuli_distractor_diamondtriangles.svg	5	yes	57	0	161	0	0			0	0			1				0	
6.6.1	win	2023-06-26	22:50:41	22:55:13	268090	5c6838ea5f8d580001e8a8ab	4	1	main_z	7	main_z	35	stimuli_distractor_trianglediamonds.svg	stimuli_target_rectanglediamonds.svg	10	yes	44	1	707	0	0			0	0			1				0	
6.6.1	win	2023-06-26	22:50:41	22:55:13	268090	5c6838ea5f8d580001e8a8ab	4	1	main_z	7	advance_on_keypress_ZEE	36	stimuli_distractor_trianglediamonds.svg	stimuli_target_rectanglediamonds.svg	10	yes	57	0	157	0	0			0	0			1				0	
6.6.1	win	2023-06-26	22:50:41	22:55:14	269570	5c6838ea5f8d580001e8a8ab	4	1	main_z	7	main_z	37	stimuli_distractor_trianglediamonds.svg	stimuli_target_diamondrectangles.svg	27	yes	44	1	685	0	0			0	0			1				0	
6.6.1	win	2023-06-26	22:50:41	22:55:14	269570	5c6838ea5f8d580001e8a8ab	4	1	main_z	7	advance_on_keypress_ZEE	38	stimuli_distractor_trianglediamonds.svg	stimuli_target_diamondrectangles.svg	27	yes	57	0	111	0	0			0	0			1				0	
6.6.1	win	2023-06-26	22:50:41	22:55:17	272337	5c6838ea5f8d580001e8a8ab	4	1	main_z	7	main_z	39	stimuli_distractor_trianglediamonds.svg	stimuli_distractor_diamondtriangles.svg	35	no	0	1	2000	0	0			0	0			1				0	
6.6.1	win	2023-06-26	22:50:41	22:55:17	272337	5c6838ea5f8d580001e8a8ab	4	1	main_z	7	advance_on_keypress_ZEE	40	stimuli_distractor_trianglediamonds.svg	stimuli_distractor_diamondtriangles.svg	35	no	57	0	366	0	0			0	0			1				0	
6.6.1	win	2023-06-26	22:50:41	22:55:20	275357	5c6838ea5f8d580001e8a8ab	4	1	main_z	7	main_z	41	stimuli_distractor_trianglediamonds.svg	stimuli_distractor_trianglediamonds.svg	34	no	0	1	2000	0	0			0	0			1				0	
6.6.1	win	2023-06-26	22:50:41	22:55:20	275357	5c6838ea5f8d580001e8a8ab	4	1	main_z	7	advance_on_keypress_ZEE	42	stimuli_distractor_trianglediamonds.svg	stimuli_distractor_trianglediamonds.svg	34	no	57	0	267	0	0			0	0			1				0	
6.6.1	win	2023-06-26	22:50:41	22:55:22	276826	5c6838ea5f8d580001e8a8ab	4	1	main_z	7	main_z	43	stimuli_distractor_diamondtriangles.svg	stimuli_target_diamondrectangles.svg	31	yes	44	1	550	0	0			0	0			1				0	
6.6.1	win	2023-06-26	22:50:41	22:55:22	276826	5c6838ea5f8d580001e8a8ab	4	1	main_z	7	advance_on_keypress_ZEE	44	stimuli_distractor_diamondtriangles.svg	stimuli_target_diamondrectangles.svg	31	yes	57	0	159	0	0			0	0			1				0	
6.6.1	win	2023-06-26	22:50:41	22:55:23	278274	5c6838ea5f8d580001e8a8ab	4	1	main_z	7	main_z	45	stimuli_target_rectanglediamonds.svg	stimuli_distractor_diamondtriangles.svg	6	yes	44	1	647	0	0			0	0			1				0	
6.6.1	win	2023-06-26	22:50:41	22:55:23	278274	5c6838ea5f8d580001e8a8ab	4	1	main_z	7	advance_on_keypress_ZEE	46	stimuli_target_rectanglediamonds.svg	stimuli_distractor_diamondtriangles.svg	6	yes	57	0	140	0	0			0	0			1				0	
6.6.1	win	2023-06-26	22:50:41	22:55:25	279698	5c6838ea5f8d580001e8a8ab	4	1	main_z	7	main_z	47	stimuli_distractor_diamondtriangles.svg	stimuli_target_squarediamonds.svg	16	yes	44	1	653	0	0			0	0			1				0	
6.6.1	win	2023-06-26	22:50:41	22:55:25	279698	5c6838ea5f8d580001e8a8ab	4	1	main_z	7	advance_on_keypress_ZEE	48	stimuli_distractor_diamondtriangles.svg	stimuli_target_squarediamonds.svg	16	yes	57	0	97	0	0			0	0			1				0	
6.6.1	win	2023-06-26	22:50:41	22:55:26	281066	5c6838ea5f8d580001e8a8ab	4	1	main_z	7	main_z	49	stimuli_target_rectanglediamonds.svg	stimuli_distractor_trianglediamonds.svg	2	yes	44	1	619	0	0			0	0			1				0	
6.6.1	win	2023-06-26	22:50:41	22:55:26	281066	5c6838ea5f8d580001e8a8ab	4	1	main_z	7	advance_on_keypress_ZEE	50	stimuli_target_rectanglediamonds.svg	stimuli_distractor_trianglediamonds.svg	2	yes	57	0	121	0	0			0	0			1				0	
6.6.1	win	2023-06-26	22:50:41	22:55:27	282482	5c6838ea5f8d580001e8a8ab	4	1	main_z	7	main_z	51	stimuli_distractor_trianglediamonds.svg	stimuli_target_trianglesquares.svg	26	yes	44	1	651	0	0			0	0			1				0	
6.6.1	win	2023-06-26	22:50:41	22:55:27	282482	5c6838ea5f8d580001e8a8ab	4	1	main_z	7	advance_on_keypress_ZEE	52	stimuli_distractor_trianglediamonds.svg	stimuli_target_trianglesquares.svg	26	yes	57	0	78	0	0			0	0			1				0	
6.6.1	win	2023-06-26	22:50:41	22:55:30	285200	5c6838ea5f8d580001e8a8ab	4	1	main_z	7	main_z	53	stimuli_distractor_trianglediamonds.svg	stimuli_distractor_trianglediamonds.svg	33	no	0	1	2000	0	0			0	0			1				0	
6.6.1	win	2023-06-26	22:50:41	22:55:30	285200	5c6838ea5f8d580001e8a8ab	4	1	main_z	7	advance_on_keypress_ZEE	54	stimuli_distractor_trianglediamonds.svg	stimuli_distractor_trianglediamonds.svg	33	no	57	0	271	0	0			0	0			1				0	
6.6.1	win	2023-06-26	22:50:41	22:55:32	286666	5c6838ea5f8d580001e8a8ab	4	1	main_z	7	main_z	55	stimuli_distractor_diamondtriangles.svg	stimuli_target_rectanglediamonds.svg	14	yes	44	1	547	0	0			0	0			1				0	
6.6.1	win	2023-06-26	22:50:41	22:55:32	286666	5c6838ea5f8d580001e8a8ab	4	1	main_z	7	advance_on_keypress_ZEE	56	stimuli_distractor_diamondtriangles.svg	stimuli_target_rectanglediamonds.svg	14	yes	57	0	147	0	0			0	0			1				0	
6.6.1	win	2023-06-26	22:50:41	22:55:33	288042	5c6838ea5f8d580001e8a8ab	4	1	main_z	7	main_z	57	stimuli_distractor_diamondtriangles.svg	stimuli_target_squaretriangles.svg	15	yes	44	1	572	0	0			0	0			1				0	
6.6.1	win	2023-06-26	22:50:41	22:55:33	288042	5c6838ea5f8d580001e8a8ab	4	1	main_z	7	advance_on_keypress_ZEE	58	stimuli_distractor_diamondtriangles.svg	stimuli_target_squaretriangles.svg	15	yes	57	0	171	0	0			0	0			1				0	
6.6.1	win	2023-06-26	22:50:41	22:55:34	289442	5c6838ea5f8d580001e8a8ab	4	1	main_z	7	main_z	59	stimuli_distractor_trianglediamonds.svg	stimuli_target_squaretriangles.svg	11	yes	44	1	587	0	0			0	0			1				0	
6.6.1	win	2023-06-26	22:50:41	22:55:34	289442	5c6838ea5f8d580001e8a8ab	4	1	main_z	7	advance_on_keypress_ZEE	60	stimuli_distractor_trianglediamonds.svg	stimuli_target_squaretriangles.svg	11	yes	57	0	113	0	0			0	0			1				0	
6.6.1	win	2023-06-26	22:50:41	22:55:36	290826	5c6838ea5f8d580001e8a8ab	4	1	main_z	7	main_z	61	stimuli_target_rectangletriangles.svg	stimuli_distractor_trianglediamonds.svg	1	yes	44	1	620	0	0			0	0			1				0	
6.6.1	win	2023-06-26	22:50:41	22:55:36	290826	5c6838ea5f8d580001e8a8ab	4	1	main_z	7	advance_on_keypress_ZEE	62	stimuli_target_rectangletriangles.svg	stimuli_distractor_trianglediamonds.svg	1	yes	57	0	105	0	0			0	0			1				0	
6.6.1	win	2023-06-26	22:50:41	22:55:37	292194	5c6838ea5f8d580001e8a8ab	4	1	main_z	7	main_z	63	stimuli_distractor_trianglediamonds.svg	stimuli_target_squarediamonds.svg	12	yes	44	1	620	0	0			0	0			1				0	
6.6.1	win	2023-06-26	22:50:41	22:55:37	292194	5c6838ea5f8d580001e8a8ab	4	1	main_z	7	advance_on_keypress_ZEE	64	stimuli_distractor_trianglediamonds.svg	stimuli_target_squarediamonds.svg	12	yes	57	0	113	0	0			0	0			1				0	
6.6.1	win	2023-06-26	22:50:41	22:55:38	293602	5c6838ea5f8d580001e8a8ab	4	1	main_z	7	main_z	65	stimuli_target_trianglesquares.svg	stimuli_distractor_trianglediamonds.svg	18	yes	44	1	643	0	0			0	0			1				0	
6.6.1	win	2023-06-26	22:50:41	22:55:38	293602	5c6838ea5f8d580001e8a8ab	4	1	main_z	7	advance_on_keypress_ZEE	66	stimuli_target_trianglesquares.svg	stimuli_distractor_trianglediamonds.svg	18	yes	57	0	112	0	0			0	0			1				0	
6.6.1	win	2023-06-26	22:50:41	22:55:40	294978	5c6838ea5f8d580001e8a8ab	4	1	main_z	7	main_z	67	stimuli_target_squarediamonds.svg	stimuli_distractor_diamondtriangles.svg	8	yes	44	1	634	0	0			0	0			1				0	
6.6.1	win	2023-06-26	22:50:41	22:55:40	294978	5c6838ea5f8d580001e8a8ab	4	1	main_z	7	advance_on_keypress_ZEE	68	stimuli_target_squarediamonds.svg	stimuli_distractor_diamondtriangles.svg	8	yes	57	0	63	0	0			0	0			1				0	
6.6.1	win	2023-06-26	22:50:41	22:55:41	296458	5c6838ea5f8d580001e8a8ab	4	1	main_z	7	main_z	69	stimuli_target_trianglerectangles.svg	stimuli_distractor_diamondtriangles.svg	21	yes	44	1	763	0	0			0	0			1				0	
6.6.1	win	2023-06-26	22:50:41	22:55:41	296458	5c6838ea5f8d580001e8a8ab	4	1	main_z	7	advance_on_keypress_ZEE	70	stimuli_target_trianglerectangles.svg	stimuli_distractor_diamondtriangles.svg	21	yes	57	0	91	0	0			0	0			1				0	
6.6.1	win	2023-06-26	22:50:41	22:55:43	297834	5c6838ea5f8d580001e8a8ab	4	1	main_z	7	main_z	71	stimuli_target_trianglerectangles.svg	stimuli_distractor_trianglediamonds.svg	17	yes	44	1	654	0	0			0	0			1				0	
6.6.1	win	2023-06-26	22:50:41	22:55:43	297834	5c6838ea5f8d580001e8a8ab	4	1	main_z	7	advance_on_keypress_ZEE	72	stimuli_target_trianglerectangles.svg	stimuli_distractor_trianglediamonds.svg	17	yes	57	0	105	0	0			0	0			1				0	
6.6.1	win	2023-06-26	22:50:41	22:55:44	299258	5c6838ea5f8d580001e8a8ab	4	1	main_z	7	main_z	73	stimuli_target_diamondrectangles.svg	stimuli_distractor_diamondtriangles.svg	23	yes	44	1	677	0	0			0	0			1				0	
6.6.1	win	2023-06-26	22:50:41	22:55:44	299258	5c6838ea5f8d580001e8a8ab	4	1	main_z	7	advance_on_keypress_ZEE	74	stimuli_target_diamondrectangles.svg	stimuli_distractor_diamondtriangles.svg	23	yes	57	0	80	0	0			0	0			1				0	
6.6.1	win	2023-06-26	22:50:41	22:55:47	301983	5c6838ea5f8d580001e8a8ab	4	1	main_z	7	main_z	75	stimuli_distractor_diamondtriangles.svg	stimuli_distractor_trianglediamonds.svg	38	no	0	1	2000	0	0			0	0			1				0	
6.6.1	win	2023-06-26	22:50:41	22:55:47	301983	5c6838ea5f8d580001e8a8ab	4	1	main_z	7	advance_on_keypress_ZEE	76	stimuli_distractor_diamondtriangles.svg	stimuli_distractor_trianglediamonds.svg	38	no	57	0	304	0	0			0	0			1				0	
6.6.1	win	2023-06-26	22:50:41	22:55:48	303586	5c6838ea5f8d580001e8a8ab	4	1	main_z	7	main_z	77	stimuli_distractor_diamondtriangles.svg	stimuli_target_rectangletriangles.svg	13	yes	44	1	650	0	0			0	0			1				0	
6.6.1	win	2023-06-26	22:50:41	22:55:48	303586	5c6838ea5f8d580001e8a8ab	4	1	main_z	7	advance_on_keypress_ZEE	78	stimuli_distractor_diamondtriangles.svg	stimuli_target_rectangletriangles.svg	13	yes	57	0	86	0	0			0	0			1				0	
6.6.1	win	2023-06-26	22:50:41	22:55:50	305010	5c6838ea5f8d580001e8a8ab	4	1	main_z	7	main_z	79	stimuli_target_diamondsquares.svg	stimuli_distractor_trianglediamonds.svg	20	yes	44	1	690	0	0			0	0			1				0	
6.6.1	win	2023-06-26	22:50:41	22:55:50	305010	5c6838ea5f8d580001e8a8ab	4	1	main_z	7	advance_on_keypress_ZEE	80	stimuli_target_diamondsquares.svg	stimuli_distractor_trianglediamonds.svg	20	yes	57	0	107	0	0			0	0			1				0	
6.6.1	win	2023-06-26	22:50:41	22:55:51	306442	5c6838ea5f8d580001e8a8ab	4	1	main_z	7	main_z	81	stimuli_distractor_diamondtriangles.svg	stimuli_target_diamondrectangles.svg	31	yes	44	1	687	0	0			0	0			1				0	
6.6.1	win	2023-06-26	22:50:41	22:55:51	306442	5c6838ea5f8d580001e8a8ab	4	1	main_z	7	advance_on_keypress_ZEE	82	stimuli_distractor_diamondtriangles.svg	stimuli_target_diamondrectangles.svg	31	yes	57	0	82	0	0			0	0			1				0	
6.6.1	win	2023-06-26	22:50:41	22:55:53	307874	5c6838ea5f8d580001e8a8ab	4	1	main_z	7	main_z	83	stimuli_distractor_diamondtriangles.svg	stimuli_target_trianglerectangles.svg	29	yes	44	1	701	0	0			0	0			1				0	
6.6.1	win	2023-06-26	22:50:41	22:55:53	307874	5c6838ea5f8d580001e8a8ab	4	1	main_z	7	advance_on_keypress_ZEE	84	stimuli_distractor_diamondtriangles.svg	stimuli_target_trianglerectangles.svg	29	yes	57	0	62	0	0			0	0			1				0	
6.6.1	win	2023-06-26	22:50:41	22:55:54	309258	5c6838ea5f8d580001e8a8ab	4	1	main_z	7	main_z	85	stimuli_distractor_diamondtriangles.svg	stimuli_target_squaretriangles.svg	15	yes	44	1	684	0	0			0	0			1				0	
6.6.1	win	2023-06-26	22:50:41	22:55:54	309258	5c6838ea5f8d580001e8a8ab	4	1	main_z	7	advance_on_keypress_ZEE	86	stimuli_distractor_diamondtriangles.svg	stimuli_target_squaretriangles.svg	15	yes	57	0	70	0	0			0	0			1				0	
6.6.1	win	2023-06-26	22:50:41	22:55:56	310674	5c6838ea5f8d580001e8a8ab	4	1	main_z	7	main_z	87	stimuli_target_squarediamonds.svg	stimuli_distractor_trianglediamonds.svg	4	yes	44	1	698	0	0			0	0			1				0	
6.6.1	win	2023-06-26	22:50:41	22:55:56	310674	5c6838ea5f8d580001e8a8ab	4	1	main_z	7	advance_on_keypress_ZEE	88	stimuli_target_squarediamonds.svg	stimuli_distractor_trianglediamonds.svg	4	yes	57	0	67	0	0			0	0			1				0	
6.6.1	win	2023-06-26	22:50:41	22:55:57	312090	5c6838ea5f8d580001e8a8ab	4	1	main_z	7	main_z	89	stimuli_distractor_trianglediamonds.svg	stimuli_target_diamondsquares.svg	28	yes	44	1	696	0	0			0	0			1				0	
6.6.1	win	2023-06-26	22:50:41	22:55:57	312090	5c6838ea5f8d580001e8a8ab	4	1	main_z	7	advance_on_keypress_ZEE	90	stimuli_distractor_trianglediamonds.svg	stimuli_target_diamondsquares.svg	28	yes	57	0	59	0	0			0	0			1				0	
6.6.1	win	2023-06-26	22:50:41	22:55:58	313482	5c6838ea5f8d580001e8a8ab	4	1	main_z	7	main_z	91	stimuli_target_diamondsquares.svg	stimuli_distractor_trianglediamonds.svg	20	yes	44	1	703	0	0			0	0			1				0	
6.6.1	win	2023-06-26	22:50:41	22:55:58	313482	5c6838ea5f8d580001e8a8ab	4	1	main_z	7	advance_on_keypress_ZEE	92	stimuli_target_diamondsquares.svg	stimuli_distractor_trianglediamonds.svg	20	yes	57	0	57	0	0			0	0			1				0	
6.6.1	win	2023-06-26	22:50:41	22:56:00	314818	5c6838ea5f8d580001e8a8ab	4	1	main_z	7	main_z	93	stimuli_target_rectangletriangles.svg	stimuli_distractor_trianglediamonds.svg	1	yes	44	1	638	0	0			0	0			1				0	
6.6.1	win	2023-06-26	22:50:41	22:56:00	314818	5c6838ea5f8d580001e8a8ab	4	1	main_z	7	advance_on_keypress_ZEE	94	stimuli_target_rectangletriangles.svg	stimuli_distractor_trianglediamonds.svg	1	yes	57	0	43	0	0			0	0			1				0	
6.6.1	win	2023-06-26	22:50:41	22:56:01	316234	5c6838ea5f8d580001e8a8ab	4	1	main_z	7	main_z	95	stimuli_target_trianglerectangles.svg	stimuli_distractor_diamondtriangles.svg	21	yes	44	1	736	0	0			0	0			1				0	
6.6.1	win	2023-06-26	22:50:41	22:56:01	316234	5c6838ea5f8d580001e8a8ab	4	1	main_z	7	advance_on_keypress_ZEE	96	stimuli_target_trianglerectangles.svg	stimuli_distractor_diamondtriangles.svg	21	yes	57	0	57	0	0			0	0			1				0	
6.6.1	win	2023-06-26	22:50:41	22:56:02	317562	5c6838ea5f8d580001e8a8ab	4	1	main_z	7	main_z	97	stimuli_distractor_trianglediamonds.svg	stimuli_target_diamondrectangles.svg	27	yes	44	1	629	0	0			0	0			1				0	
6.6.1	win	2023-06-26	22:50:41	22:56:02	317562	5c6838ea5f8d580001e8a8ab	4	1	main_z	7	advance_on_keypress_ZEE	98	stimuli_distractor_trianglediamonds.svg	stimuli_target_diamondrectangles.svg	27	yes	57	0	66	0	0			0	0			1				0	
6.6.1	win	2023-06-26	22:50:41	22:56:04	318874	5c6838ea5f8d580001e8a8ab	4	1	main_z	7	main_z	99	stimuli_distractor_trianglediamonds.svg	stimuli_target_rectangletriangles.svg	9	yes	44	1	606	0	0			0	0			1				0	
6.6.1	win	2023-06-26	22:50:41	22:56:04	318874	5c6838ea5f8d580001e8a8ab	4	1	main_z	7	advance_on_keypress_ZEE	100	stimuli_distractor_trianglediamonds.svg	stimuli_target_rectangletriangles.svg	9	yes	57	0	68	0	0			0	0			1				0	
6.6.1	win	2023-06-26	22:50:41	22:56:06	320698	5c6838ea5f8d580001e8a8ab	4	1	main_z	7	main_z	101	stimuli_distractor_diamondtriangles.svg	stimuli_target_rectangletriangles.svg	13	yes	44	1	1112	0	0			0	0			1				0	
6.6.1	win	2023-06-26	22:50:41	22:56:06	320698	5c6838ea5f8d580001e8a8ab	4	1	main_z	7	advance_on_keypress_ZEE	102	stimuli_distractor_diamondtriangles.svg	stimuli_target_rectangletriangles.svg	13	yes	57	0	33	0	0			0	0			1				0	
6.6.1	win	2023-06-26	22:50:41	22:56:07	322042	5c6838ea5f8d580001e8a8ab	4	1	main_z	7	main_z	103	stimuli_target_diamondrectangles.svg	stimuli_distractor_diamondtriangles.svg	23	yes	44	1	655	0	0			0	0			1				0	
6.6.1	win	2023-06-26	22:50:41	22:56:07	322042	5c6838ea5f8d580001e8a8ab	4	1	main_z	7	advance_on_keypress_ZEE	104	stimuli_target_diamondrectangles.svg	stimuli_distractor_diamondtriangles.svg	23	yes	57	0	51	0	0			0	0			1				0	
6.6.1	win	2023-06-26	22:50:41	22:56:08	323330	5c6838ea5f8d580001e8a8ab	4	1	main_z	7	main_z	105	stimuli_target_squaretriangles.svg	stimuli_distractor_diamondtriangles.svg	7	yes	44	1	590	0	0			0	0			1				0	
6.6.1	win	2023-06-26	22:50:41	22:56:08	323330	5c6838ea5f8d580001e8a8ab	4	1	main_z	7	advance_on_keypress_ZEE	106	stimuli_target_squaretriangles.svg	stimuli_distractor_diamondtriangles.svg	7	yes	57	0	46	0	0			0	0			1				0	
6.6.1	win	2023-06-26	22:50:41	22:56:10	324834	5c6838ea5f8d580001e8a8ab	4	1	main_z	7	main_z	107	stimuli_distractor_diamondtriangles.svg	stimuli_target_trianglesquares.svg	30	yes	44	1	811	0	0			0	0			1				0	
6.6.1	win	2023-06-26	22:50:41	22:56:10	324834	5c6838ea5f8d580001e8a8ab	4	1	main_z	7	advance_on_keypress_ZEE	108	stimuli_distractor_diamondtriangles.svg	stimuli_target_trianglesquares.svg	30	yes	57	0	57	0	0			0	0			1				0	
6.6.1	win	2023-06-26	22:50:41	22:56:11	326162	5c6838ea5f8d580001e8a8ab	4	1	main_z	7	main_z	109	stimuli_target_rectangletriangles.svg	stimuli_distractor_diamondtriangles.svg	5	yes	44	1	636	0	0			0	0			1				0	
6.6.1	win	2023-06-26	22:50:41	22:56:11	326162	5c6838ea5f8d580001e8a8ab	4	1	main_z	7	advance_on_keypress_ZEE	110	stimuli_target_rectangletriangles.svg	stimuli_distractor_diamondtriangles.svg	5	yes	57	0	66	0	0			0	0			1				0	
6.6.1	win	2023-06-26	22:50:41	22:56:12	327514	5c6838ea5f8d580001e8a8ab	4	1	main_z	7	main_z	111	stimuli_distractor_diamondtriangles.svg	stimuli_target_rectanglediamonds.svg	14	yes	44	1	638	0	0			0	0			1				0	
6.6.1	win	2023-06-26	22:50:41	22:56:12	327514	5c6838ea5f8d580001e8a8ab	4	1	main_z	7	advance_on_keypress_ZEE	112	stimuli_distractor_diamondtriangles.svg	stimuli_target_rectanglediamonds.svg	14	yes	57	0	66	0	0			0	0			1				0	
6.6.1	win	2023-06-26	22:50:41	22:56:14	328818	5c6838ea5f8d580001e8a8ab	4	1	main_z	7	main_z	113	stimuli_target_squaretriangles.svg	stimuli_distractor_trianglediamonds.svg	3	yes	44	1	590	0	0			0	0			1				0	
6.6.1	win	2023-06-26	22:50:41	22:56:14	328818	5c6838ea5f8d580001e8a8ab	4	1	main_z	7	advance_on_keypress_ZEE	114	stimuli_target_squaretriangles.svg	stimuli_distractor_trianglediamonds.svg	3	yes	57	0	45	0	0			0	0			1				0	
6.6.1	win	2023-06-26	22:50:41	22:56:16	331496	5c6838ea5f8d580001e8a8ab	4	1	main_z	7	main_z	115	stimuli_distractor_trianglediamonds.svg	stimuli_distractor_trianglediamonds.svg	34	no	0	1	2000	0	0			0	0			1				0	
6.6.1	win	2023-06-26	22:50:41	22:56:16	331496	5c6838ea5f8d580001e8a8ab	4	1	main_z	7	advance_on_keypress_ZEE	116	stimuli_distractor_trianglediamonds.svg	stimuli_distractor_trianglediamonds.svg	34	no	57	0	255	0	0			0	0			1				0	
6.6.1	win	2023-06-26	22:50:41	22:56:19	334399	5c6838ea5f8d580001e8a8ab	4	1	main_z	7	main_z	117	stimuli_distractor_trianglediamonds.svg	stimuli_distractor_diamondtriangles.svg	36	no	0	1	2000	0	0			0	0			1				0	
6.6.1	win	2023-06-26	22:50:41	22:56:19	334399	5c6838ea5f8d580001e8a8ab	4	1	main_z	7	advance_on_keypress_ZEE	118	stimuli_distractor_trianglediamonds.svg	stimuli_distractor_diamondtriangles.svg	36	no	57	0	320	0	0			0	0			1				0	
6.6.1	win	2023-06-26	22:50:41	22:56:21	335946	5c6838ea5f8d580001e8a8ab	4	1	main_z	7	main_z	119	stimuli_distractor_trianglediamonds.svg	stimuli_target_trianglesquares.svg	26	yes	44	1	578	0	0			0	0			1				0	
6.6.1	win	2023-06-26	22:50:41	22:56:21	335946	5c6838ea5f8d580001e8a8ab	4	1	main_z	7	advance_on_keypress_ZEE	120	stimuli_distractor_trianglediamonds.svg	stimuli_target_trianglesquares.svg	26	yes	57	0	57	0	0			0	0			1				0	
6.6.1	win	2023-06-26	22:50:41	22:56:22	337186	5c6838ea5f8d580001e8a8ab	4	1	main_z	7	main_z	121	stimuli_distractor_trianglediamonds.svg	stimuli_target_squaretriangles.svg	11	yes	44	1	550	0	0			0	0			1				0	
6.6.1	win	2023-06-26	22:50:41	22:56:22	337186	5c6838ea5f8d580001e8a8ab	4	1	main_z	7	advance_on_keypress_ZEE	122	stimuli_distractor_trianglediamonds.svg	stimuli_target_squaretriangles.svg	11	yes	57	0	70	0	0			0	0			1				0	
6.6.1	win	2023-06-26	22:50:41	22:56:25	339904	5c6838ea5f8d580001e8a8ab	4	1	main_z	7	main_z	123	stimuli_distractor_diamondtriangles.svg	stimuli_distractor_diamondtriangles.svg	40	no	0	1	2000	0	0			0	0			1				0	
6.6.1	win	2023-06-26	22:50:41	22:56:25	339904	5c6838ea5f8d580001e8a8ab	4	1	main_z	7	advance_on_keypress_ZEE	124	stimuli_distractor_diamondtriangles.svg	stimuli_distractor_diamondtriangles.svg	40	no	57	0	247	0	0			0	0			1				0	
6.6.1	win	2023-06-26	22:50:41	22:56:28	342808	5c6838ea5f8d580001e8a8ab	4	1	main_z	7	main_z	125	stimuli_distractor_trianglediamonds.svg	stimuli_distractor_trianglediamonds.svg	33	no	0	1	2000	0	0			0	0			1				0	
6.6.1	win	2023-06-26	22:50:41	22:56:28	342808	5c6838ea5f8d580001e8a8ab	4	1	main_z	7	advance_on_keypress_ZEE	126	stimuli_distractor_trianglediamonds.svg	stimuli_distractor_trianglediamonds.svg	33	no	57	0	1952	0	0			0	0			1				0	
6.6.1	win	2023-06-26	22:50:41	22:56:32	347412	5c6838ea5f8d580001e8a8ab	4	1	main_z	7	main_z	127	stimuli_distractor_diamondtriangles.svg	stimuli_distractor_trianglediamonds.svg	37	no	0	1	2000	0	0			0	0			1				0	
6.6.1	win	2023-06-26	22:50:41	22:56:32	347412	5c6838ea5f8d580001e8a8ab	4	1	main_z	7	advance_on_keypress_ZEE	128	stimuli_distractor_diamondtriangles.svg	stimuli_distractor_trianglediamonds.svg	37	no	57	0	275	0	0			0	0			1				0	
6.6.1	win	2023-06-26	22:50:41	22:56:34	348838	5c6838ea5f8d580001e8a8ab	4	1	main_z	7	main_z	129	stimuli_target_trianglesquares.svg	stimuli_distractor_trianglediamonds.svg	18	yes	44	1	504	0	0			0	0			1				0	
6.6.1	win	2023-06-26	22:50:41	22:56:34	348838	5c6838ea5f8d580001e8a8ab	4	1	main_z	7	advance_on_keypress_ZEE	130	stimuli_target_trianglesquares.svg	stimuli_distractor_trianglediamonds.svg	18	yes	57	0	89	0	0			0	0			1				0	
6.6.1	win	2023-06-26	22:50:41	22:56:35	350090	5c6838ea5f8d580001e8a8ab	4	1	main_z	7	main_z	131	stimuli_target_rectanglediamonds.svg	stimuli_distractor_diamondtriangles.svg	6	yes	44	1	525	0	0			0	0			1				0	
6.6.1	win	2023-06-26	22:50:41	22:56:35	350090	5c6838ea5f8d580001e8a8ab	4	1	main_z	7	advance_on_keypress_ZEE	132	stimuli_target_rectanglediamonds.svg	stimuli_distractor_diamondtriangles.svg	6	yes	57	0	62	0	0			0	0			1				0	
6.6.1	win	2023-06-26	22:50:41	22:56:38	352784	5c6838ea5f8d580001e8a8ab	4	1	main_z	7	main_z	133	stimuli_distractor_diamondtriangles.svg	stimuli_distractor_trianglediamonds.svg	38	no	0	1	2000	0	0			0	0			1				0	
6.6.1	win	2023-06-26	22:50:41	22:56:38	352784	5c6838ea5f8d580001e8a8ab	4	1	main_z	7	advance_on_keypress_ZEE	134	stimuli_distractor_diamondtriangles.svg	stimuli_distractor_trianglediamonds.svg	38	no	57	0	263	0	0			0	0			1				0	
6.6.1	win	2023-06-26	22:50:41	22:56:39	354251	5c6838ea5f8d580001e8a8ab	4	1	main_z	7	main_z	135	stimuli_target_squarediamonds.svg	stimuli_distractor_diamondtriangles.svg	8	yes	44	1	547	0	0			0	0			1				0	
6.6.1	win	2023-06-26	22:50:41	22:56:39	354251	5c6838ea5f8d580001e8a8ab	4	1	main_z	7	advance_on_keypress_ZEE	136	stimuli_target_squarediamonds.svg	stimuli_distractor_diamondtriangles.svg	8	yes	57	0	51	0	0			0	0			1				0	
6.6.1	win	2023-06-26	22:50:41	22:56:40	355578	5c6838ea5f8d580001e8a8ab	4	1	main_z	7	main_z	137	stimuli_distractor_diamondtriangles.svg	stimuli_target_diamondsquares.svg	32	yes	44	1	624	0	0			0	0			1				0	
6.6.1	win	2023-06-26	22:50:41	22:56:40	355578	5c6838ea5f8d580001e8a8ab	4	1	main_z	7	advance_on_keypress_ZEE	138	stimuli_distractor_diamondtriangles.svg	stimuli_target_diamondsquares.svg	32	yes	57	0	45	0	0			0	0			1				0	
6.6.1	win	2023-06-26	22:50:41	22:56:42	357314	5c6838ea5f8d580001e8a8ab	4	1	main_z	7	main_z	139	stimuli_target_diamondrectangles.svg	stimuli_distractor_trianglediamonds.svg	19	yes	44	1	1059	0	0			0	0			1				0	
6.6.1	win	2023-06-26	22:50:41	22:56:42	357314	5c6838ea5f8d580001e8a8ab	4	1	main_z	7	advance_on_keypress_ZEE	140	stimuli_target_diamondrectangles.svg	stimuli_distractor_trianglediamonds.svg	19	yes	57	0	70	0	0			0	0			1				0	
6.6.1	win	2023-06-26	22:50:41	22:56:45	360024	5c6838ea5f8d580001e8a8ab	4	1	main_z	7	main_z	141	stimuli_distractor_trianglediamonds.svg	stimuli_distractor_diamondtriangles.svg	35	no	0	1	2000	0	0			0	0			1				0	
6.6.1	win	2023-06-26	22:50:41	22:56:45	360024	5c6838ea5f8d580001e8a8ab	4	1	main_z	7	advance_on_keypress_ZEE	142	stimuli_distractor_trianglediamonds.svg	stimuli_distractor_diamondtriangles.svg	35	no	57	0	254	0	0			0	0			1				0	
6.6.1	win	2023-06-26	22:50:41	22:56:46	361435	5c6838ea5f8d580001e8a8ab	4	1	main_z	7	main_z	143	stimuli_target_trianglerectangles.svg	stimuli_distractor_trianglediamonds.svg	17	yes	44	1	507	0	0			0	0			1				0	
6.6.1	win	2023-06-26	22:50:41	22:56:46	361435	5c6838ea5f8d580001e8a8ab	4	1	main_z	7	advance_on_keypress_ZEE	144	stimuli_target_trianglerectangles.svg	stimuli_distractor_trianglediamonds.svg	17	yes	57	0	61	0	0			0	0			1				0	
6.6.1	win	2023-06-26	22:50:41	22:56:48	362722	5c6838ea5f8d580001e8a8ab	4	1	main_z	7	main_z	145	stimuli_distractor_trianglediamonds.svg	stimuli_target_rectanglediamonds.svg	10	yes	44	1	594	0	0			0	0			1				0	
6.6.1	win	2023-06-26	22:50:41	22:56:48	362722	5c6838ea5f8d580001e8a8ab	4	1	main_z	7	advance_on_keypress_ZEE	146	stimuli_distractor_trianglediamonds.svg	stimuli_target_rectanglediamonds.svg	10	yes	57	0	81	0	0			0	0			1				0	
6.6.1	win	2023-06-26	22:50:41	22:56:49	363978	5c6838ea5f8d580001e8a8ab	4	1	main_z	7	main_z	147	stimuli_distractor_trianglediamonds.svg	stimuli_target_squarediamonds.svg	12	yes	44	1	532	0	0			0	0			1				0	
6.6.1	win	2023-06-26	22:50:41	22:56:49	363978	5c6838ea5f8d580001e8a8ab	4	1	main_z	7	advance_on_keypress_ZEE	148	stimuli_distractor_trianglediamonds.svg	stimuli_target_squarediamonds.svg	12	yes	57	0	61	0	0			0	0			1				0	
6.6.1	win	2023-06-26	22:50:41	22:56:50	365322	5c6838ea5f8d580001e8a8ab	4	1	main_z	7	main_z	149	stimuli_target_trianglesquares.svg	stimuli_distractor_diamondtriangles.svg	22	yes	44	1	641	0	0			0	0			1				0	
6.6.1	win	2023-06-26	22:50:41	22:56:50	365322	5c6838ea5f8d580001e8a8ab	4	1	main_z	7	advance_on_keypress_ZEE	150	stimuli_target_trianglesquares.svg	stimuli_distractor_diamondtriangles.svg	22	yes	57	0	54	0	0			0	0			1				0	
6.6.1	win	2023-06-26	22:50:41	22:56:51	366578	5c6838ea5f8d580001e8a8ab	4	1	main_z	7	main_z	151	stimuli_target_rectanglediamonds.svg	stimuli_distractor_trianglediamonds.svg	2	yes	44	1	563	0	0			0	0			1				0	
6.6.1	win	2023-06-26	22:50:41	22:56:51	366578	5c6838ea5f8d580001e8a8ab	4	1	main_z	7	advance_on_keypress_ZEE	152	stimuli_target_rectanglediamonds.svg	stimuli_distractor_trianglediamonds.svg	2	yes	57	0	59	0	0			0	0			1				0	
6.6.1	win	2023-06-26	22:50:41	22:56:53	367866	5c6838ea5f8d580001e8a8ab	4	1	main_z	7	main_z	153	stimuli_target_diamondsquares.svg	stimuli_distractor_diamondtriangles.svg	24	yes	44	1	600	0	0			0	0			1				0	
6.6.1	win	2023-06-26	22:50:41	22:56:53	367866	5c6838ea5f8d580001e8a8ab	4	1	main_z	7	advance_on_keypress_ZEE	154	stimuli_target_diamondsquares.svg	stimuli_distractor_diamondtriangles.svg	24	yes	57	0	14	0	0			0	0			1				0	
6.6.1	win	2023-06-26	22:50:41	22:56:54	369082	5c6838ea5f8d580001e8a8ab	4	1	main_z	7	main_z	155	stimuli_distractor_diamondtriangles.svg	stimuli_target_squarediamonds.svg	16	yes	44	1	547	0	0			0	0			1				0	
6.6.1	win	2023-06-26	22:50:41	22:56:54	369082	5c6838ea5f8d580001e8a8ab	4	1	main_z	7	advance_on_keypress_ZEE	156	stimuli_distractor_diamondtriangles.svg	stimuli_target_squarediamonds.svg	16	yes	57	0	36	0	0			0	0			1				0	
6.6.1	win	2023-06-26	22:50:41	22:56:55	370347	5c6838ea5f8d580001e8a8ab	4	1	main_z	7	main_z	157	stimuli_distractor_trianglediamonds.svg	stimuli_target_trianglerectangles.svg	25	yes	44	1	578	0	0			0	0			1				0	
6.6.1	win	2023-06-26	22:50:41	22:56:55	370347	5c6838ea5f8d580001e8a8ab	4	1	main_z	7	advance_on_keypress_ZEE	158	stimuli_distractor_trianglediamonds.svg	stimuli_target_trianglerectangles.svg	25	yes	57	0	64	0	0			0	0			1				0	
6.6.1	win	2023-06-26	22:50:41	22:56:58	373054	5c6838ea5f8d580001e8a8ab	4	1	main_z	7	main_z	159	stimuli_distractor_diamondtriangles.svg	stimuli_distractor_diamondtriangles.svg	39	no	0	1	2000	0	0			0	0			1				0	
6.6.1	win	2023-06-26	22:50:41	22:56:58	373054	5c6838ea5f8d580001e8a8ab	4	1	main_z	7	advance_on_keypress_ZEE	160	stimuli_distractor_diamondtriangles.svg	stimuli_distractor_diamondtriangles.svg	39	no	57	0	321	0	0			0	0			1				0	
6.6.1	win	2023-06-26	22:50:41	22:57:15	390141	5c6838ea5f8d580001e8a8ab	4	1	practice_slash	9	practice_slash	1	stimuli_distractor_diamondtriangles.svg	stimuli_target_trianglerectangles.svg	9	yes	53	1	550	0	0			0	0			1				0	
6.6.1	win	2023-06-26	22:50:41	22:57:15	390141	5c6838ea5f8d580001e8a8ab	4	1	practice_slash	9	advance_on_keypress_SLASH	2	stimuli_distractor_diamondtriangles.svg	stimuli_target_trianglerectangles.svg	9	yes	57	0	261	0	0			0	0			1				0	
6.6.1	win	2023-06-26	22:50:41	22:57:17	392572	5c6838ea5f8d580001e8a8ab	4	1	practice_slash	9	practice_slash	3	stimuli_target_squarediamonds.svg	stimuli_distractor_trianglediamonds.svg	5	yes	53	1	530	0	0			0	0			1				0	
6.6.1	win	2023-06-26	22:50:41	22:57:17	392572	5c6838ea5f8d580001e8a8ab	4	1	practice_slash	9	advance_on_keypress_SLASH	4	stimuli_target_squarediamonds.svg	stimuli_distractor_trianglediamonds.svg	5	yes	57	0	338	0	0			0	0			1				0	
6.6.1	win	2023-06-26	22:50:41	22:57:21	396545	5c6838ea5f8d580001e8a8ab	4	1	practice_slash	9	practice_slash	5	stimuli_distractor_trianglediamonds.svg	stimuli_distractor_trianglediamonds.svg	15	no	0	1	2000	0	0			0	0			1				0	
6.6.1	win	2023-06-26	22:50:41	22:57:21	396545	5c6838ea5f8d580001e8a8ab	4	1	practice_slash	9	advance_on_keypress_SLASH	6	stimuli_distractor_trianglediamonds.svg	stimuli_distractor_trianglediamonds.svg	15	no	57	0	263	0	0			0	0			1				0	
6.6.1	win	2023-06-26	22:50:41	22:57:25	400466	5c6838ea5f8d580001e8a8ab	4	1	practice_slash	9	practice_slash	7	stimuli_distractor_diamondtriangles.svg	stimuli_distractor_trianglediamonds.svg	14	no	0	1	2000	0	0			0	0			1				0	
6.6.1	win	2023-06-26	22:50:41	22:57:25	400466	5c6838ea5f8d580001e8a8ab	4	1	practice_slash	9	advance_on_keypress_SLASH	8	stimuli_distractor_diamondtriangles.svg	stimuli_distractor_trianglediamonds.svg	14	no	57	0	270	0	0			0	0			1				0	
6.6.1	win	2023-06-26	22:50:41	22:57:28	402949	5c6838ea5f8d580001e8a8ab	4	1	practice_slash	9	practice_slash	9	stimuli_distractor_diamondtriangles.svg	stimuli_target_diamondrectangles.svg	8	yes	53	1	562	0	0			0	0			1				0	
6.6.1	win	2023-06-26	22:50:41	22:57:28	402949	5c6838ea5f8d580001e8a8ab	4	1	practice_slash	9	advance_on_keypress_SLASH	10	stimuli_distractor_diamondtriangles.svg	stimuli_target_diamondrectangles.svg	8	yes	57	0	257	0	0			0	0			1				0	
6.6.1	win	2023-06-26	22:50:41	22:57:30	405445	5c6838ea5f8d580001e8a8ab	4	1	practice_slash	9	practice_slash	11	stimuli_distractor_trianglediamonds.svg	stimuli_target_diamondrectangles.svg	12	yes	53	1	589	0	0			0	0			1				0	
6.6.1	win	2023-06-26	22:50:41	22:57:30	405445	5c6838ea5f8d580001e8a8ab	4	1	practice_slash	9	advance_on_keypress_SLASH	12	stimuli_distractor_trianglediamonds.svg	stimuli_target_diamondrectangles.svg	12	yes	57	0	75	0	0			0	0			1				0	
6.6.1	win	2023-06-26	22:50:41	22:57:33	407804	5c6838ea5f8d580001e8a8ab	4	1	practice_slash	9	practice_slash	13	stimuli_target_squarediamonds.svg	stimuli_distractor_diamondtriangles.svg	2	yes	53	1	647	0	0			0	0			1				0	
6.6.1	win	2023-06-26	22:50:41	22:57:33	407804	5c6838ea5f8d580001e8a8ab	4	1	practice_slash	9	advance_on_keypress_SLASH	14	stimuli_target_squarediamonds.svg	stimuli_distractor_diamondtriangles.svg	2	yes	57	0	98	0	0			0	0			1				0	
6.6.1	win	2023-06-26	22:50:41	22:57:35	410157	5c6838ea5f8d580001e8a8ab	4	1	practice_slash	9	practice_slash	15	stimuli_distractor_trianglediamonds.svg	stimuli_target_rectanglediamonds.svg	10	yes	53	1	596	0	0			0	0			1				0	
6.6.1	win	2023-06-26	22:50:41	22:57:35	410157	5c6838ea5f8d580001e8a8ab	4	1	practice_slash	9	advance_on_keypress_SLASH	16	stimuli_distractor_trianglediamonds.svg	stimuli_target_rectanglediamonds.svg	10	yes	57	0	73	0	0			0	0			1				0	
6.6.1	win	2023-06-26	22:50:41	22:57:37	412604	5c6838ea5f8d580001e8a8ab	4	1	practice_slash	9	practice_slash	17	stimuli_distractor_diamondtriangles.svg	stimuli_target_rectangletriangles.svg	7	yes	53	1	725	0	0			0	0			1				0	
6.6.1	win	2023-06-26	22:50:41	22:57:37	412604	5c6838ea5f8d580001e8a8ab	4	1	practice_slash	9	advance_on_keypress_SLASH	18	stimuli_distractor_diamondtriangles.svg	stimuli_target_rectangletriangles.svg	7	yes	57	0	254	0	0			0	0			1				0	
6.6.1	win	2023-06-26	22:50:41	22:57:40	415133	5c6838ea5f8d580001e8a8ab	4	1	practice_slash	9	practice_slash	19	stimuli_target_rectanglediamonds.svg	stimuli_distractor_trianglediamonds.svg	4	yes	53	1	634	0	0			0	0			1				0	
6.6.1	win	2023-06-26	22:50:41	22:57:40	415133	5c6838ea5f8d580001e8a8ab	4	1	practice_slash	9	advance_on_keypress_SLASH	20	stimuli_target_rectanglediamonds.svg	stimuli_distractor_trianglediamonds.svg	4	yes	57	0	366	0	0			0	0			1				0	
6.6.1	win	2023-06-26	22:50:41	22:57:43	417828	5c6838ea5f8d580001e8a8ab	4	1	practice_slash	9	practice_slash	21	stimuli_target_rectanglediamonds.svg	stimuli_distractor_diamondtriangles.svg	1	yes	53	1	677	0	0			0	0			1				0	
6.6.1	win	2023-06-26	22:50:41	22:57:43	417828	5c6838ea5f8d580001e8a8ab	4	1	practice_slash	9	advance_on_keypress_SLASH	22	stimuli_target_rectanglediamonds.svg	stimuli_distractor_diamondtriangles.svg	1	yes	57	0	312	0	0			0	0			1				0	
6.6.1	win	2023-06-26	22:50:41	22:57:45	420637	5c6838ea5f8d580001e8a8ab	4	1	practice_slash	9	practice_slash	23	stimuli_distractor_trianglediamonds.svg	stimuli_target_squarediamonds.svg	11	yes	53	1	866	0	0			0	0			1				0	
6.6.1	win	2023-06-26	22:50:41	22:57:45	420637	5c6838ea5f8d580001e8a8ab	4	1	practice_slash	9	advance_on_keypress_SLASH	24	stimuli_distractor_trianglediamonds.svg	stimuli_target_squarediamonds.svg	11	yes	57	0	396	0	0			0	0			1				0	
6.6.1	win	2023-06-26	22:50:41	22:57:48	423316	5c6838ea5f8d580001e8a8ab	4	1	practice_slash	9	practice_slash	25	stimuli_target_diamondsquares.svg	stimuli_distractor_trianglediamonds.svg	6	yes	53	1	626	0	0			0	0			1				0	
6.6.1	win	2023-06-26	22:50:41	22:57:48	423316	5c6838ea5f8d580001e8a8ab	4	1	practice_slash	9	advance_on_keypress_SLASH	26	stimuli_target_diamondsquares.svg	stimuli_distractor_trianglediamonds.svg	6	yes	57	0	407	0	0			0	0			1				0	
6.6.1	win	2023-06-26	22:50:41	22:57:52	427360	5c6838ea5f8d580001e8a8ab	4	1	practice_slash	9	practice_slash	27	stimuli_distractor_trianglediamonds.svg	stimuli_distractor_diamondtriangles.svg	16	no	0	1	2000	0	0			0	0			1				0	
6.6.1	win	2023-06-26	22:50:41	22:57:52	427360	5c6838ea5f8d580001e8a8ab	4	1	practice_slash	9	advance_on_keypress_SLASH	28	stimuli_distractor_trianglediamonds.svg	stimuli_distractor_diamondtriangles.svg	16	no	57	0	313	0	0			0	0			1				0	
6.6.1	win	2023-06-26	22:50:41	22:57:56	431330	5c6838ea5f8d580001e8a8ab	4	1	practice_slash	9	practice_slash	29	stimuli_distractor_diamondtriangles.svg	stimuli_distractor_diamondtriangles.svg	13	no	0	1	2000	0	0			0	0			1				0	
6.6.1	win	2023-06-26	22:50:41	22:57:56	431330	5c6838ea5f8d580001e8a8ab	4	1	practice_slash	9	advance_on_keypress_SLASH	30	stimuli_distractor_diamondtriangles.svg	stimuli_distractor_diamondtriangles.svg	13	no	57	0	278	0	0			0	0			1				0	
6.6.1	win	2023-06-26	22:50:41	22:57:59	433797	5c6838ea5f8d580001e8a8ab	4	1	practice_slash	9	practice_slash	31	stimuli_target_diamondsquares.svg	stimuli_distractor_diamondtriangles.svg	3	yes	53	1	546	0	0			0	0			1				0	
6.6.1	win	2023-06-26	22:50:41	22:57:59	433797	5c6838ea5f8d580001e8a8ab	4	1	practice_slash	9	advance_on_keypress_SLASH	32	stimuli_target_diamondsquares.svg	stimuli_distractor_diamondtriangles.svg	3	yes	57	0	121	0	0			0	0			1				0	
6.6.1	win	2023-06-26	22:50:41	22:58:02	436914	5c6838ea5f8d580001e8a8ab	4	1	main_slash	11	main_slash	1	stimuli_target_rectangletriangles.svg	stimuli_distractor_trianglediamonds.svg	1	yes	53	1	512	0	0			0	0			1				0	
6.6.1	win	2023-06-26	22:50:41	22:58:02	436914	5c6838ea5f8d580001e8a8ab	4	1	main_slash	11	advance_on_keypress_SLASH	2	stimuli_target_rectangletriangles.svg	stimuli_distractor_trianglediamonds.svg	1	yes	57	0	242	0	0			0	0			1				0	
6.6.1	win	2023-06-26	22:50:41	22:58:03	438330	5c6838ea5f8d580001e8a8ab	4	1	main_slash	11	main_slash	3	stimuli_distractor_trianglediamonds.svg	stimuli_target_squaretriangles.svg	11	yes	53	1	543	0	0			0	0			1				0	
6.6.1	win	2023-06-26	22:50:41	22:58:03	438330	5c6838ea5f8d580001e8a8ab	4	1	main_slash	11	advance_on_keypress_SLASH	4	stimuli_distractor_trianglediamonds.svg	stimuli_target_squaretriangles.svg	11	yes	57	0	160	0	0			0	0			1				0	
6.6.1	win	2023-06-26	22:50:41	22:58:05	440058	5c6838ea5f8d580001e8a8ab	4	1	main_slash	11	main_slash	5	stimuli_target_diamondrectangles.svg	stimuli_distractor_trianglediamonds.svg	19	yes	53	1	936	0	0			0	0			1				0	
6.6.1	win	2023-06-26	22:50:41	22:58:05	440058	5c6838ea5f8d580001e8a8ab	4	1	main_slash	11	advance_on_keypress_SLASH	6	stimuli_target_diamondrectangles.svg	stimuli_distractor_trianglediamonds.svg	19	yes	57	0	153	0	0			0	0			1				0	
6.6.1	win	2023-06-26	22:50:41	22:58:08	442857	5c6838ea5f8d580001e8a8ab	4	1	main_slash	11	main_slash	7	stimuli_distractor_trianglediamonds.svg	stimuli_distractor_trianglediamonds.svg	34	no	0	1	2000	0	0			0	0			1				0	
6.6.1	win	2023-06-26	22:50:41	22:58:08	442857	5c6838ea5f8d580001e8a8ab	4	1	main_slash	11	advance_on_keypress_SLASH	8	stimuli_distractor_trianglediamonds.svg	stimuli_distractor_trianglediamonds.svg	34	no	57	0	454	0	0			0	0			1				0	
6.6.1	win	2023-06-26	22:50:41	22:58:09	444650	5c6838ea5f8d580001e8a8ab	4	1	main_slash	11	main_slash	9	stimuli_distractor_diamondtriangles.svg	stimuli_target_rectangletriangles.svg	13	yes	53	1	690	0	0			0	0			1				0	
6.6.1	win	2023-06-26	22:50:41	22:58:09	444650	5c6838ea5f8d580001e8a8ab	4	1	main_slash	11	advance_on_keypress_SLASH	10	stimuli_distractor_diamondtriangles.svg	stimuli_target_rectangletriangles.svg	13	yes	57	0	93	0	0			0	0			1				0	
6.6.1	win	2023-06-26	22:50:41	22:58:11	445970	5c6838ea5f8d580001e8a8ab	4	1	main_slash	11	main_slash	11	stimuli_target_squaretriangles.svg	stimuli_distractor_diamondtriangles.svg	7	yes	53	1	592	0	0			0	0			1				0	
6.6.1	win	2023-06-26	22:50:41	22:58:11	445970	5c6838ea5f8d580001e8a8ab	4	1	main_slash	11	advance_on_keypress_SLASH	12	stimuli_target_squaretriangles.svg	stimuli_distractor_diamondtriangles.svg	7	yes	57	0	71	0	0			0	0			1				0	
6.6.1	win	2023-06-26	22:50:41	22:58:12	447194	5c6838ea5f8d580001e8a8ab	4	1	main_slash	11	main_slash	13	stimuli_target_squarediamonds.svg	stimuli_distractor_diamondtriangles.svg	8	yes	53	1	515	0	0			0	0			1				0	
6.6.1	win	2023-06-26	22:50:41	22:58:12	447194	5c6838ea5f8d580001e8a8ab	4	1	main_slash	11	advance_on_keypress_SLASH	14	stimuli_target_squarediamonds.svg	stimuli_distractor_diamondtriangles.svg	8	yes	57	0	68	0	0			0	0			1				0	
6.6.1	win	2023-06-26	22:50:41	22:58:13	448610	5c6838ea5f8d580001e8a8ab	4	1	main_slash	11	main_slash	15	stimuli_target_diamondrectangles.svg	stimuli_distractor_diamondtriangles.svg	23	yes	53	1	696	0	0			0	0			1				0	
6.6.1	win	2023-06-26	22:50:41	22:58:13	448610	5c6838ea5f8d580001e8a8ab	4	1	main_slash	11	advance_on_keypress_SLASH	16	stimuli_target_diamondrectangles.svg	stimuli_distractor_diamondtriangles.svg	23	yes	57	0	58	0	0			0	0			1				0	
6.6.1	win	2023-06-26	22:50:41	22:58:15	450010	5c6838ea5f8d580001e8a8ab	4	1	main_slash	11	main_slash	17	stimuli_target_squarediamonds.svg	stimuli_distractor_trianglediamonds.svg	4	yes	53	1	695	0	0			0	0			1				0	
6.6.1	win	2023-06-26	22:50:41	22:58:15	450010	5c6838ea5f8d580001e8a8ab	4	1	main_slash	11	advance_on_keypress_SLASH	18	stimuli_target_squarediamonds.svg	stimuli_distractor_trianglediamonds.svg	4	yes	57	0	65	0	0			0	0			1				0	
6.6.1	win	2023-06-26	22:50:41	22:58:18	452717	5c6838ea5f8d580001e8a8ab	4	1	main_slash	11	main_slash	19	stimuli_distractor_diamondtriangles.svg	stimuli_distractor_diamondtriangles.svg	40	no	0	1	2000	0	0			0	0			1				0	
6.6.1	win	2023-06-26	22:50:41	22:58:18	452717	5c6838ea5f8d580001e8a8ab	4	1	main_slash	11	advance_on_keypress_SLASH	20	stimuli_distractor_diamondtriangles.svg	stimuli_distractor_diamondtriangles.svg	40	no	57	0	258	0	0			0	0			1				0	
6.6.1	win	2023-06-26	22:50:41	22:58:20	455620	5c6838ea5f8d580001e8a8ab	4	1	main_slash	11	main_slash	21	stimuli_distractor_diamondtriangles.svg	stimuli_distractor_trianglediamonds.svg	37	no	0	1	2000	0	0			0	0			1				0	
6.6.1	win	2023-06-26	22:50:41	22:58:20	455620	5c6838ea5f8d580001e8a8ab	4	1	main_slash	11	advance_on_keypress_SLASH	22	stimuli_distractor_diamondtriangles.svg	stimuli_distractor_trianglediamonds.svg	37	no	57	0	251	0	0			0	0			1				0	
6.6.1	win	2023-06-26	22:50:41	22:58:22	456954	5c6838ea5f8d580001e8a8ab	4	1	main_slash	11	main_slash	23	stimuli_distractor_trianglediamonds.svg	stimuli_target_rectangletriangles.svg	9	yes	53	1	432	0	0			0	0			1				0	
6.6.1	win	2023-06-26	22:50:41	22:58:22	456954	5c6838ea5f8d580001e8a8ab	4	1	main_slash	11	advance_on_keypress_SLASH	24	stimuli_distractor_trianglediamonds.svg	stimuli_target_rectangletriangles.svg	9	yes	57	0	69	0	0			0	0			1				0	
6.6.1	win	2023-06-26	22:50:41	22:58:23	458338	5c6838ea5f8d580001e8a8ab	4	1	main_slash	11	main_slash	25	stimuli_distractor_trianglediamonds.svg	stimuli_distractor_diamondtriangles.svg	35	no	53	0	665	0	0			0	0			1				0	
6.6.1	win	2023-06-26	22:50:41	22:58:23	458338	5c6838ea5f8d580001e8a8ab	4	1	main_slash	11	advance_on_keypress_SLASH	26	stimuli_distractor_trianglediamonds.svg	stimuli_distractor_diamondtriangles.svg	35	no	57	0	52	0	0			0	0			1				0	
6.6.1	win	2023-06-26	22:50:41	22:58:24	459570	5c6838ea5f8d580001e8a8ab	4	1	main_slash	11	main_slash	27	stimuli_target_diamondsquares.svg	stimuli_distractor_trianglediamonds.svg	20	yes	53	1	528	0	0			0	0			1				0	
6.6.1	win	2023-06-26	22:50:41	22:58:24	459570	5c6838ea5f8d580001e8a8ab	4	1	main_slash	11	advance_on_keypress_SLASH	28	stimuli_target_diamondsquares.svg	stimuli_distractor_trianglediamonds.svg	20	yes	57	0	74	0	0			0	0			1				0	
6.6.1	win	2023-06-26	22:50:41	22:58:27	462277	5c6838ea5f8d580001e8a8ab	4	1	main_slash	11	main_slash	29	stimuli_distractor_trianglediamonds.svg	stimuli_distractor_trianglediamonds.svg	33	no	0	1	2000	0	0			0	0			1				0	
6.6.1	win	2023-06-26	22:50:41	22:58:27	462277	5c6838ea5f8d580001e8a8ab	4	1	main_slash	11	advance_on_keypress_SLASH	30	stimuli_distractor_trianglediamonds.svg	stimuli_distractor_trianglediamonds.svg	33	no	57	0	666	0	0			0	0			1				0	
6.6.1	win	2023-06-26	22:50:41	22:58:29	464090	5c6838ea5f8d580001e8a8ab	4	1	main_slash	11	main_slash	31	stimuli_distractor_trianglediamonds.svg	stimuli_target_rectanglediamonds.svg	10	yes	53	1	494	0	0			0	0			1				0	
6.6.1	win	2023-06-26	22:50:41	22:58:29	464090	5c6838ea5f8d580001e8a8ab	4	1	main_slash	11	advance_on_keypress_SLASH	32	stimuli_distractor_trianglediamonds.svg	stimuli_target_rectanglediamonds.svg	10	yes	57	0	65	0	0			0	0			1				0	
6.6.1	win	2023-06-26	22:50:41	22:58:30	465162	5c6838ea5f8d580001e8a8ab	4	1	main_slash	11	main_slash	33	stimuli_target_trianglesquares.svg	stimuli_distractor_trianglediamonds.svg	18	yes	53	1	365	0	0			0	0			1				0	
6.6.1	win	2023-06-26	22:50:41	22:58:30	465162	5c6838ea5f8d580001e8a8ab	4	1	main_slash	11	advance_on_keypress_SLASH	34	stimuli_target_trianglesquares.svg	stimuli_distractor_trianglediamonds.svg	18	yes	57	0	44	0	0			0	0			1				0	
6.6.1	win	2023-06-26	22:50:41	22:58:31	466250	5c6838ea5f8d580001e8a8ab	4	1	main_slash	11	main_slash	35	stimuli_distractor_trianglediamonds.svg	stimuli_target_squarediamonds.svg	12	yes	53	1	402	0	0			0	0			1				0	
6.6.1	win	2023-06-26	22:50:41	22:58:31	466250	5c6838ea5f8d580001e8a8ab	4	1	main_slash	11	advance_on_keypress_SLASH	36	stimuli_distractor_trianglediamonds.svg	stimuli_target_squarediamonds.svg	12	yes	57	0	56	0	0			0	0			1				0	
6.6.1	win	2023-06-26	22:50:41	22:58:32	467314	5c6838ea5f8d580001e8a8ab	4	1	main_slash	11	main_slash	37	stimuli_distractor_diamondtriangles.svg	stimuli_target_trianglesquares.svg	30	yes	53	1	365	0	0			0	0			1				0	
6.6.1	win	2023-06-26	22:50:41	22:58:32	467314	5c6838ea5f8d580001e8a8ab	4	1	main_slash	11	advance_on_keypress_SLASH	38	stimuli_distractor_diamondtriangles.svg	stimuli_target_trianglesquares.svg	30	yes	57	0	60	0	0			0	0			1				0	
6.6.1	win	2023-06-26	22:50:41	22:58:33	468363	5c6838ea5f8d580001e8a8ab	4	1	main_slash	11	main_slash	39	stimuli_distractor_trianglediamonds.svg	stimuli_target_trianglesquares.svg	26	yes	53	1	345	0	0			0	0			1				0	
6.6.1	win	2023-06-26	22:50:41	22:58:33	468363	5c6838ea5f8d580001e8a8ab	4	1	main_slash	11	advance_on_keypress_SLASH	40	stimuli_distractor_trianglediamonds.svg	stimuli_target_trianglesquares.svg	26	yes	57	0	57	0	0			0	0			1				0	
6.6.1	win	2023-06-26	22:50:41	22:58:34	469578	5c6838ea5f8d580001e8a8ab	4	1	main_slash	11	main_slash	41	stimuli_target_trianglesquares.svg	stimuli_distractor_diamondtriangles.svg	22	yes	53	1	510	0	0			0	0			1				0	
6.6.1	win	2023-06-26	22:50:41	22:58:34	469578	5c6838ea5f8d580001e8a8ab	4	1	main_slash	11	advance_on_keypress_SLASH	42	stimuli_target_trianglesquares.svg	stimuli_distractor_diamondtriangles.svg	22	yes	57	0	64	0	0			0	0			1				0	
6.6.1	win	2023-06-26	22:50:41	22:58:36	470746	5c6838ea5f8d580001e8a8ab	4	1	main_slash	11	main_slash	43	stimuli_target_rectanglediamonds.svg	stimuli_distractor_trianglediamonds.svg	2	yes	53	1	460	0	0			0	0			1				0	
6.6.1	win	2023-06-26	22:50:41	22:58:36	470746	5c6838ea5f8d580001e8a8ab	4	1	main_slash	11	advance_on_keypress_SLASH	44	stimuli_target_rectanglediamonds.svg	stimuli_distractor_trianglediamonds.svg	2	yes	57	0	88	0	0			0	0			1				0	
6.6.1	win	2023-06-26	22:50:41	22:58:37	471882	5c6838ea5f8d580001e8a8ab	4	1	main_slash	11	main_slash	45	stimuli_distractor_trianglediamonds.svg	stimuli_target_diamondsquares.svg	28	yes	53	1	411	0	0			0	0			1				0	
6.6.1	win	2023-06-26	22:50:41	22:58:37	471882	5c6838ea5f8d580001e8a8ab	4	1	main_slash	11	advance_on_keypress_SLASH	46	stimuli_distractor_trianglediamonds.svg	stimuli_target_diamondsquares.svg	28	yes	57	0	49	0	0			0	0			1				0	
6.6.1	win	2023-06-26	22:50:41	22:58:38	473226	5c6838ea5f8d580001e8a8ab	4	1	main_slash	11	main_slash	47	stimuli_distractor_diamondtriangles.svg	stimuli_target_squaretriangles.svg	15	yes	53	1	654	0	0			0	0			1				0	
6.6.1	win	2023-06-26	22:50:41	22:58:38	473226	5c6838ea5f8d580001e8a8ab	4	1	main_slash	11	advance_on_keypress_SLASH	48	stimuli_distractor_diamondtriangles.svg	stimuli_target_squaretriangles.svg	15	yes	57	0	26	0	0			0	0			1				0	
6.6.1	win	2023-06-26	22:50:41	22:58:39	474474	5c6838ea5f8d580001e8a8ab	4	1	main_slash	11	main_slash	49	stimuli_target_trianglerectangles.svg	stimuli_distractor_trianglediamonds.svg	17	yes	53	1	584	0	0			0	0			1				0	
6.6.1	win	2023-06-26	22:50:41	22:58:39	474474	5c6838ea5f8d580001e8a8ab	4	1	main_slash	11	advance_on_keypress_SLASH	50	stimuli_target_trianglerectangles.svg	stimuli_distractor_trianglediamonds.svg	17	yes	57	0	39	0	0			0	0			1				0	
6.6.1	win	2023-06-26	22:50:41	22:58:42	477158	5c6838ea5f8d580001e8a8ab	4	1	main_slash	11	main_slash	51	stimuli_distractor_diamondtriangles.svg	stimuli_distractor_diamondtriangles.svg	39	no	0	1	2000	0	0			0	0			1				0	
6.6.1	win	2023-06-26	22:50:41	22:58:42	477158	5c6838ea5f8d580001e8a8ab	4	1	main_slash	11	advance_on_keypress_SLASH	52	stimuli_distractor_diamondtriangles.svg	stimuli_distractor_diamondtriangles.svg	39	no	57	0	241	0	0			0	0			1				0	
6.6.1	win	2023-06-26	22:50:41	22:58:44	478706	5c6838ea5f8d580001e8a8ab	4	1	main_slash	11	main_slash	53	stimuli_distractor_diamondtriangles.svg	stimuli_target_squarediamonds.svg	16	yes	53	1	662	0	0			0	0			1				0	
6.6.1	win	2023-06-26	22:50:41	22:58:44	478706	5c6838ea5f8d580001e8a8ab	4	1	main_slash	11	advance_on_keypress_SLASH	54	stimuli_distractor_diamondtriangles.svg	stimuli_target_squarediamonds.svg	16	yes	57	0	66	0	0			0	0			1				0	
6.6.1	win	2023-06-26	22:50:41	22:58:45	479938	5c6838ea5f8d580001e8a8ab	4	1	main_slash	11	main_slash	55	stimuli_target_squaretriangles.svg	stimuli_distractor_trianglediamonds.svg	3	yes	53	1	526	0	0			0	0			1				0	
6.6.1	win	2023-06-26	22:50:41	22:58:45	479938	5c6838ea5f8d580001e8a8ab	4	1	main_slash	11	advance_on_keypress_SLASH	56	stimuli_target_squaretriangles.svg	stimuli_distractor_trianglediamonds.svg	3	yes	57	0	56	0	0			0	0			1				0	
6.6.1	win	2023-06-26	22:50:41	22:58:46	481050	5c6838ea5f8d580001e8a8ab	4	1	main_slash	11	main_slash	57	stimuli_target_rectangletriangles.svg	stimuli_distractor_diamondtriangles.svg	5	yes	53	1	420	0	0			0	0			1				0	
6.6.1	win	2023-06-26	22:50:41	22:58:46	481050	5c6838ea5f8d580001e8a8ab	4	1	main_slash	11	advance_on_keypress_SLASH	58	stimuli_target_rectangletriangles.svg	stimuli_distractor_diamondtriangles.svg	5	yes	57	0	66	0	0			0	0			1				0	
6.6.1	win	2023-06-26	22:50:41	22:58:47	482402	5c6838ea5f8d580001e8a8ab	4	1	main_slash	11	main_slash	59	stimuli_distractor_trianglediamonds.svg	stimuli_target_trianglerectangles.svg	25	yes	53	1	638	0	0			0	0			1				0	
6.6.1	win	2023-06-26	22:50:41	22:58:47	482402	5c6838ea5f8d580001e8a8ab	4	1	main_slash	11	advance_on_keypress_SLASH	60	stimuli_distractor_trianglediamonds.svg	stimuli_target_trianglerectangles.svg	25	yes	57	0	4	0	0			0	0			1				0	
6.6.1	win	2023-06-26	22:50:41	22:58:48	483522	5c6838ea5f8d580001e8a8ab	4	1	main_slash	11	main_slash	61	stimuli_distractor_diamondtriangles.svg	stimuli_target_trianglerectangles.svg	29	yes	53	1	473	0	0			0	0			1				0	
6.6.1	win	2023-06-26	22:50:41	22:58:48	483522	5c6838ea5f8d580001e8a8ab	4	1	main_slash	11	advance_on_keypress_SLASH	62	stimuli_distractor_diamondtriangles.svg	stimuli_target_trianglerectangles.svg	29	yes	57	0	37	0	0			0	0			1				0	
6.6.1	win	2023-06-26	22:50:41	22:58:50	484898	5c6838ea5f8d580001e8a8ab	4	1	main_slash	11	main_slash	63	stimuli_target_trianglerectangles.svg	stimuli_distractor_diamondtriangles.svg	21	yes	53	1	698	0	0			0	0			1				0	
6.6.1	win	2023-06-26	22:50:41	22:58:50	484898	5c6838ea5f8d580001e8a8ab	4	1	main_slash	11	advance_on_keypress_SLASH	64	stimuli_target_trianglerectangles.svg	stimuli_distractor_diamondtriangles.svg	21	yes	57	0	35	0	0			0	0			1				0	
6.6.1	win	2023-06-26	22:50:41	22:58:51	486114	5c6838ea5f8d580001e8a8ab	4	1	main_slash	11	main_slash	65	stimuli_distractor_diamondtriangles.svg	stimuli_target_diamondrectangles.svg	31	yes	53	1	529	0	0			0	0			1				0	
6.6.1	win	2023-06-26	22:50:41	22:58:51	486114	5c6838ea5f8d580001e8a8ab	4	1	main_slash	11	advance_on_keypress_SLASH	66	stimuli_distractor_diamondtriangles.svg	stimuli_target_diamondrectangles.svg	31	yes	57	0	59	0	0			0	0			1				0	
6.6.1	win	2023-06-26	22:50:41	22:58:54	488803	5c6838ea5f8d580001e8a8ab	4	1	main_slash	11	main_slash	67	stimuli_distractor_trianglediamonds.svg	stimuli_distractor_diamondtriangles.svg	36	no	0	1	2000	0	0			0	0			1				0	
6.6.1	win	2023-06-26	22:50:41	22:58:54	488803	5c6838ea5f8d580001e8a8ab	4	1	main_slash	11	advance_on_keypress_SLASH	68	stimuli_distractor_trianglediamonds.svg	stimuli_distractor_diamondtriangles.svg	36	no	57	0	244	0	0			0	0			1				0	
6.6.1	win	2023-06-26	22:50:41	22:58:55	490226	5c6838ea5f8d580001e8a8ab	4	1	main_slash	11	main_slash	69	stimuli_distractor_diamondtriangles.svg	stimuli_target_rectanglediamonds.svg	14	yes	53	1	537	0	0			0	0			1				0	
6.6.1	win	2023-06-26	22:50:41	22:58:55	490226	5c6838ea5f8d580001e8a8ab	4	1	main_slash	11	advance_on_keypress_SLASH	70	stimuli_distractor_diamondtriangles.svg	stimuli_target_rectanglediamonds.svg	14	yes	57	0	50	0	0			0	0			1				0	
6.6.1	win	2023-06-26	22:50:41	22:58:56	491346	5c6838ea5f8d580001e8a8ab	4	1	main_slash	11	main_slash	71	stimuli_distractor_diamondtriangles.svg	stimuli_target_diamondsquares.svg	32	yes	53	1	423	0	0			0	0			1				0	
6.6.1	win	2023-06-26	22:50:41	22:58:56	491346	5c6838ea5f8d580001e8a8ab	4	1	main_slash	11	advance_on_keypress_SLASH	72	stimuli_distractor_diamondtriangles.svg	stimuli_target_diamondsquares.svg	32	yes	57	0	60	0	0			0	0			1				0	
6.6.1	win	2023-06-26	22:50:41	22:58:57	492442	5c6838ea5f8d580001e8a8ab	4	1	main_slash	11	main_slash	73	stimuli_target_rectanglediamonds.svg	stimuli_distractor_diamondtriangles.svg	6	yes	53	1	401	0	0			0	0			1				0	
6.6.1	win	2023-06-26	22:50:41	22:58:57	492442	5c6838ea5f8d580001e8a8ab	4	1	main_slash	11	advance_on_keypress_SLASH	74	stimuli_target_rectanglediamonds.svg	stimuli_distractor_diamondtriangles.svg	6	yes	57	0	55	0	0			0	0			1				0	
6.6.1	win	2023-06-26	22:50:41	22:58:59	494139	5c6838ea5f8d580001e8a8ab	4	1	main_slash	11	main_slash	75	stimuli_distractor_trianglediamonds.svg	stimuli_target_diamondrectangles.svg	27	yes	53	1	996	0	0			0	0			1				0	
6.6.1	win	2023-06-26	22:50:41	22:58:59	494139	5c6838ea5f8d580001e8a8ab	4	1	main_slash	11	advance_on_keypress_SLASH	76	stimuli_distractor_trianglediamonds.svg	stimuli_target_diamondrectangles.svg	27	yes	57	0	33	0	0			0	0			1				0	
6.6.1	win	2023-06-26	22:50:41	22:59:00	495274	5c6838ea5f8d580001e8a8ab	4	1	main_slash	11	main_slash	77	stimuli_target_diamondsquares.svg	stimuli_distractor_diamondtriangles.svg	24	yes	53	1	447	0	0			0	0			1				0	
6.6.1	win	2023-06-26	22:50:41	22:59:00	495274	5c6838ea5f8d580001e8a8ab	4	1	main_slash	11	advance_on_keypress_SLASH	78	stimuli_target_diamondsquares.svg	stimuli_distractor_diamondtriangles.svg	24	yes	57	0	60	0	0			0	0			1				0	
6.6.1	win	2023-06-26	22:50:41	22:59:03	497963	5c6838ea5f8d580001e8a8ab	4	1	main_slash	11	main_slash	79	stimuli_distractor_diamondtriangles.svg	stimuli_distractor_trianglediamonds.svg	38	no	0	1	2000	0	0			0	0			1				0	
6.6.1	win	2023-06-26	22:50:41	22:59:03	497963	5c6838ea5f8d580001e8a8ab	4	1	main_slash	11	advance_on_keypress_SLASH	80	stimuli_distractor_diamondtriangles.svg	stimuli_distractor_trianglediamonds.svg	38	no	57	0	485	0	0			0	0			1				0	
6.6.1	win	2023-06-26	22:50:41	22:59:06	501099	5c6838ea5f8d580001e8a8ab	4	1	main_slash	11	main_slash	81	stimuli_distractor_trianglediamonds.svg	stimuli_distractor_trianglediamonds.svg	33	no	0	1	2000	0	0			0	0			1				0	
6.6.1	win	2023-06-26	22:50:41	22:59:06	501099	5c6838ea5f8d580001e8a8ab	4	1	main_slash	11	advance_on_keypress_SLASH	82	stimuli_distractor_trianglediamonds.svg	stimuli_distractor_trianglediamonds.svg	33	no	57	0	164	0	0			0	0			1				0	
6.6.1	win	2023-06-26	22:50:41	22:59:07	502322	5c6838ea5f8d580001e8a8ab	4	1	main_slash	11	main_slash	83	stimuli_distractor_diamondtriangles.svg	stimuli_target_rectanglediamonds.svg	14	yes	53	1	404	0	0			0	0			1				0	
6.6.1	win	2023-06-26	22:50:41	22:59:07	502322	5c6838ea5f8d580001e8a8ab	4	1	main_slash	11	advance_on_keypress_SLASH	84	stimuli_distractor_diamondtriangles.svg	stimuli_target_rectanglediamonds.svg	14	yes	57	0	66	0	0			0	0			1				0	
6.6.1	win	2023-06-26	22:50:41	22:59:08	503434	5c6838ea5f8d580001e8a8ab	4	1	main_slash	11	main_slash	85	stimuli_target_diamondrectangles.svg	stimuli_distractor_trianglediamonds.svg	19	yes	53	1	398	0	0			0	0			1				0	
6.6.1	win	2023-06-26	22:50:41	22:59:08	503434	5c6838ea5f8d580001e8a8ab	4	1	main_slash	11	advance_on_keypress_SLASH	86	stimuli_target_diamondrectangles.svg	stimuli_distractor_trianglediamonds.svg	19	yes	57	0	61	0	0			0	0			1				0	
6.6.1	win	2023-06-26	22:50:41	22:59:09	504530	5c6838ea5f8d580001e8a8ab	4	1	main_slash	11	main_slash	87	stimuli_target_trianglesquares.svg	stimuli_distractor_diamondtriangles.svg	22	yes	53	1	393	0	0			0	0			1				0	
6.6.1	win	2023-06-26	22:50:41	22:59:09	504530	5c6838ea5f8d580001e8a8ab	4	1	main_slash	11	advance_on_keypress_SLASH	88	stimuli_target_trianglesquares.svg	stimuli_distractor_diamondtriangles.svg	22	yes	57	0	72	0	0			0	0			1				0	
6.6.1	win	2023-06-26	22:50:41	22:59:10	505642	5c6838ea5f8d580001e8a8ab	4	1	main_slash	11	main_slash	89	stimuli_target_rectangletriangles.svg	stimuli_distractor_trianglediamonds.svg	1	yes	53	1	404	0	0			0	0			1				0	
6.6.1	win	2023-06-26	22:50:41	22:59:10	505642	5c6838ea5f8d580001e8a8ab	4	1	main_slash	11	advance_on_keypress_SLASH	90	stimuli_target_rectangletriangles.svg	stimuli_distractor_trianglediamonds.svg	1	yes	57	0	75	0	0			0	0			1				0	
6.6.1	win	2023-06-26	22:50:41	22:59:13	508356	5c6838ea5f8d580001e8a8ab	4	1	main_slash	11	main_slash	91	stimuli_distractor_diamondtriangles.svg	stimuli_distractor_diamondtriangles.svg	40	no	0	1	2000	0	0			0	0			1				0	
6.6.1	win	2023-06-26	22:50:41	22:59:13	508356	5c6838ea5f8d580001e8a8ab	4	1	main_slash	11	advance_on_keypress_SLASH	92	stimuli_distractor_diamondtriangles.svg	stimuli_distractor_diamondtriangles.svg	40	no	57	0	315	0	0			0	0			1				0	
6.6.1	win	2023-06-26	22:50:41	22:59:15	509763	5c6838ea5f8d580001e8a8ab	4	1	main_slash	11	main_slash	93	stimuli_distractor_trianglediamonds.svg	stimuli_target_squaretriangles.svg	11	yes	53	1	437	0	0			0	0			1				0	
6.6.1	win	2023-06-26	22:50:41	22:59:15	509763	5c6838ea5f8d580001e8a8ab	4	1	main_slash	11	advance_on_keypress_SLASH	94	stimuli_distractor_trianglediamonds.svg	stimuli_target_squaretriangles.svg	11	yes	57	0	50	0	0			0	0			1				0	
6.6.1	win	2023-06-26	22:50:41	22:59:16	510842	5c6838ea5f8d580001e8a8ab	4	1	main_slash	11	main_slash	95	stimuli_target_rectanglediamonds.svg	stimuli_distractor_diamondtriangles.svg	6	yes	53	1	382	0	0			0	0			1				0	
6.6.1	win	2023-06-26	22:50:41	22:59:16	510842	5c6838ea5f8d580001e8a8ab	4	1	main_slash	11	advance_on_keypress_SLASH	96	stimuli_target_rectanglediamonds.svg	stimuli_distractor_diamondtriangles.svg	6	yes	57	0	37	0	0			0	0			1				0	
6.6.1	win	2023-06-26	22:50:41	22:59:17	511955	5c6838ea5f8d580001e8a8ab	4	1	main_slash	11	main_slash	97	stimuli_distractor_trianglediamonds.svg	stimuli_target_rectanglediamonds.svg	10	yes	53	1	427	0	0			0	0			1				0	
6.6.1	win	2023-06-26	22:50:41	22:59:17	511955	5c6838ea5f8d580001e8a8ab	4	1	main_slash	11	advance_on_keypress_SLASH	98	stimuli_distractor_trianglediamonds.svg	stimuli_target_rectanglediamonds.svg	10	yes	57	0	56	0	0			0	0			1				0	
6.6.1	win	2023-06-26	22:50:41	22:59:18	513010	5c6838ea5f8d580001e8a8ab	4	1	main_slash	11	main_slash	99	stimuli_distractor_diamondtriangles.svg	stimuli_target_rectangletriangles.svg	13	yes	53	1	365	0	0			0	0			1				0	
6.6.1	win	2023-06-26	22:50:41	22:59:18	513010	5c6838ea5f8d580001e8a8ab	4	1	main_slash	11	advance_on_keypress_SLASH	100	stimuli_distractor_diamondtriangles.svg	stimuli_target_rectangletriangles.svg	13	yes	57	0	44	0	0			0	0			1				0	
6.6.1	win	2023-06-26	22:50:41	22:59:19	514266	5c6838ea5f8d580001e8a8ab	4	1	main_slash	11	main_slash	101	stimuli_distractor_diamondtriangles.svg	stimuli_target_diamondrectangles.svg	31	yes	53	1	553	0	0			0	0			1				0	
6.6.1	win	2023-06-26	22:50:41	22:59:19	514266	5c6838ea5f8d580001e8a8ab	4	1	main_slash	11	advance_on_keypress_SLASH	102	stimuli_distractor_diamondtriangles.svg	stimuli_target_diamondrectangles.svg	31	yes	57	0	41	0	0			0	0			1				0	
6.6.1	win	2023-06-26	22:50:41	22:59:20	515650	5c6838ea5f8d580001e8a8ab	4	1	main_slash	11	main_slash	103	stimuli_target_trianglerectangles.svg	stimuli_distractor_diamondtriangles.svg	21	yes	53	1	702	0	0			0	0			1				0	
6.6.1	win	2023-06-26	22:50:41	22:59:20	515650	5c6838ea5f8d580001e8a8ab	4	1	main_slash	11	advance_on_keypress_SLASH	104	stimuli_target_trianglerectangles.svg	stimuli_distractor_diamondtriangles.svg	21	yes	57	0	48	0	0			0	0			1				0	
6.6.1	win	2023-06-26	22:50:41	22:59:22	516730	5c6838ea5f8d580001e8a8ab	4	1	main_slash	11	main_slash	105	stimuli_distractor_trianglediamonds.svg	stimuli_target_rectangletriangles.svg	9	yes	53	1	381	0	0			0	0			1				0	
6.6.1	win	2023-06-26	22:50:41	22:59:22	516730	5c6838ea5f8d580001e8a8ab	4	1	main_slash	11	advance_on_keypress_SLASH	106	stimuli_distractor_trianglediamonds.svg	stimuli_target_rectangletriangles.svg	9	yes	57	0	52	0	0			0	0			1				0	
6.6.1	win	2023-06-26	22:50:41	22:59:24	519434	5c6838ea5f8d580001e8a8ab	4	1	main_slash	11	main_slash	107	stimuli_distractor_diamondtriangles.svg	stimuli_distractor_diamondtriangles.svg	39	no	0	1	2000	0	0			0	0			1				0	
6.6.1	win	2023-06-26	22:50:41	22:59:24	519434	5c6838ea5f8d580001e8a8ab	4	1	main_slash	11	advance_on_keypress_SLASH	108	stimuli_distractor_diamondtriangles.svg	stimuli_distractor_diamondtriangles.svg	39	no	57	0	237	0	0			0	0			1				0	
6.6.1	win	2023-06-26	22:50:41	22:59:26	520730	5c6838ea5f8d580001e8a8ab	4	1	main_slash	11	main_slash	109	stimuli_distractor_trianglediamonds.svg	stimuli_target_squarediamonds.svg	12	yes	53	1	410	0	0			0	0			1				0	
6.6.1	win	2023-06-26	22:50:41	22:59:26	520730	5c6838ea5f8d580001e8a8ab	4	1	main_slash	11	advance_on_keypress_SLASH	110	stimuli_distractor_trianglediamonds.svg	stimuli_target_squarediamonds.svg	12	yes	57	0	65	0	0			0	0			1				0	
6.6.1	win	2023-06-26	22:50:41	22:59:27	521962	5c6838ea5f8d580001e8a8ab	4	1	main_slash	11	main_slash	111	stimuli_distractor_trianglediamonds.svg	stimuli_distractor_diamondtriangles.svg	35	no	53	0	525	0	0			0	0			1				0	
6.6.1	win	2023-06-26	22:50:41	22:59:27	521962	5c6838ea5f8d580001e8a8ab	4	1	main_slash	11	advance_on_keypress_SLASH	112	stimuli_distractor_trianglediamonds.svg	stimuli_distractor_diamondtriangles.svg	35	no	57	0	62	0	0			0	0			1				0	
6.6.1	win	2023-06-26	22:50:41	22:59:28	523514	5c6838ea5f8d580001e8a8ab	4	1	main_slash	11	main_slash	113	stimuli_distractor_trianglediamonds.svg	stimuli_target_trianglesquares.svg	26	yes	53	1	859	0	0			0	0			1				0	
6.6.1	win	2023-06-26	22:50:41	22:59:28	523514	5c6838ea5f8d580001e8a8ab	4	1	main_slash	11	advance_on_keypress_SLASH	114	stimuli_distractor_trianglediamonds.svg	stimuli_target_trianglesquares.svg	26	yes	57	0	55	0	0			0	0			1				0	
6.6.1	win	2023-06-26	22:50:41	22:59:31	526207	5c6838ea5f8d580001e8a8ab	4	1	main_slash	11	main_slash	115	stimuli_distractor_diamondtriangles.svg	stimuli_distractor_trianglediamonds.svg	38	no	0	1	2000	0	0			0	0			1				0	
6.6.1	win	2023-06-26	22:50:41	22:59:31	526207	5c6838ea5f8d580001e8a8ab	4	1	main_slash	11	advance_on_keypress_SLASH	116	stimuli_distractor_diamondtriangles.svg	stimuli_distractor_trianglediamonds.svg	38	no	57	0	256	0	0			0	0			1				0	
6.6.1	win	2023-06-26	22:50:41	22:59:32	527594	5c6838ea5f8d580001e8a8ab	4	1	main_slash	11	main_slash	117	stimuli_target_trianglesquares.svg	stimuli_distractor_trianglediamonds.svg	18	yes	53	1	484	0	0			0	0			1				0	
6.6.1	win	2023-06-26	22:50:41	22:59:32	527594	5c6838ea5f8d580001e8a8ab	4	1	main_slash	11	advance_on_keypress_SLASH	118	stimuli_target_trianglesquares.svg	stimuli_distractor_trianglediamonds.svg	18	yes	57	0	63	0	0			0	0			1				0	
6.6.1	win	2023-06-26	22:50:41	22:59:34	528821	5c6838ea5f8d580001e8a8ab	4	1	main_slash	11	main_slash	119	stimuli_target_trianglerectangles.svg	stimuli_distractor_trianglediamonds.svg	17	yes	53	1	507	0	0			0	0			1				0	
6.6.1	win	2023-06-26	22:50:41	22:59:34	528821	5c6838ea5f8d580001e8a8ab	4	1	main_slash	11	advance_on_keypress_SLASH	120	stimuli_target_trianglerectangles.svg	stimuli_distractor_trianglediamonds.svg	17	yes	57	0	13	0	0			0	0			1				0	
6.6.1	win	2023-06-26	22:50:41	22:59:35	530154	5c6838ea5f8d580001e8a8ab	4	1	main_slash	11	main_slash	121	stimuli_distractor_diamondtriangles.svg	stimuli_target_squarediamonds.svg	16	yes	53	1	675	0	0			0	0			1				0	
6.6.1	win	2023-06-26	22:50:41	22:59:35	530154	5c6838ea5f8d580001e8a8ab	4	1	main_slash	11	advance_on_keypress_SLASH	122	stimuli_distractor_diamondtriangles.svg	stimuli_target_squarediamonds.svg	16	yes	57	0	23	0	0			0	0			1				0	
6.6.1	win	2023-06-26	22:50:41	22:59:36	531321	5c6838ea5f8d580001e8a8ab	4	1	main_slash	11	main_slash	123	stimuli_target_squaretriangles.svg	stimuli_distractor_diamondtriangles.svg	7	yes	53	1	504	0	0			0	0			1				0	
6.6.1	win	2023-06-26	22:50:41	22:59:36	531321	5c6838ea5f8d580001e8a8ab	4	1	main_slash	11	advance_on_keypress_SLASH	124	stimuli_target_squaretriangles.svg	stimuli_distractor_diamondtriangles.svg	7	yes	57	0	23	0	0			0	0			1				0	
6.6.1	win	2023-06-26	22:50:41	22:59:37	532466	5c6838ea5f8d580001e8a8ab	4	1	main_slash	11	main_slash	125	stimuli_distractor_diamondtriangles.svg	stimuli_target_trianglesquares.svg	30	yes	53	1	485	0	0			0	0			1				0	
6.6.1	win	2023-06-26	22:50:41	22:59:37	532466	5c6838ea5f8d580001e8a8ab	4	1	main_slash	11	advance_on_keypress_SLASH	126	stimuli_distractor_diamondtriangles.svg	stimuli_target_trianglesquares.svg	30	yes	57	0	64	0	0			0	0			1				0	
6.6.1	win	2023-06-26	22:50:41	22:59:39	533674	5c6838ea5f8d580001e8a8ab	4	1	main_slash	11	main_slash	127	stimuli_target_diamondsquares.svg	stimuli_distractor_trianglediamonds.svg	20	yes	53	1	492	0	0			0	0			1				0	
6.6.1	win	2023-06-26	22:50:41	22:59:39	533674	5c6838ea5f8d580001e8a8ab	4	1	main_slash	11	advance_on_keypress_SLASH	128	stimuli_target_diamondsquares.svg	stimuli_distractor_trianglediamonds.svg	20	yes	57	0	46	0	0			0	0			1				0	
6.6.1	win	2023-06-26	22:50:41	22:59:40	534762	5c6838ea5f8d580001e8a8ab	4	1	main_slash	11	main_slash	129	stimuli_distractor_diamondtriangles.svg	stimuli_target_diamondsquares.svg	32	yes	53	1	395	0	0			0	0			1				0	
6.6.1	win	2023-06-26	22:50:41	22:59:40	534762	5c6838ea5f8d580001e8a8ab	4	1	main_slash	11	advance_on_keypress_SLASH	130	stimuli_distractor_diamondtriangles.svg	stimuli_target_diamondsquares.svg	32	yes	57	0	58	0	0			0	0			1				0	
6.6.1	win	2023-06-26	22:50:41	22:59:41	536066	5c6838ea5f8d580001e8a8ab	4	1	main_slash	11	main_slash	131	stimuli_target_rectangletriangles.svg	stimuli_distractor_diamondtriangles.svg	5	yes	53	1	615	0	0			0	0			1				0	
6.6.1	win	2023-06-26	22:50:41	22:59:41	536066	5c6838ea5f8d580001e8a8ab	4	1	main_slash	11	advance_on_keypress_SLASH	132	stimuli_target_rectangletriangles.svg	stimuli_distractor_diamondtriangles.svg	5	yes	57	0	36	0	0			0	0			1				0	
6.6.1	win	2023-06-26	22:50:41	22:59:42	537234	5c6838ea5f8d580001e8a8ab	4	1	main_slash	11	main_slash	133	stimuli_target_diamondsquares.svg	stimuli_distractor_diamondtriangles.svg	24	yes	53	1	481	0	0			0	0			1				0	
6.6.1	win	2023-06-26	22:50:41	22:59:42	537234	5c6838ea5f8d580001e8a8ab	4	1	main_slash	11	advance_on_keypress_SLASH	134	stimuli_target_diamondsquares.svg	stimuli_distractor_diamondtriangles.svg	24	yes	57	0	20	0	0			0	0			1				0	
6.6.1	win	2023-06-26	22:50:41	22:59:43	538298	5c6838ea5f8d580001e8a8ab	4	1	main_slash	11	main_slash	135	stimuli_target_squarediamonds.svg	stimuli_distractor_trianglediamonds.svg	4	yes	53	1	394	0	0			0	0			1				0	
6.6.1	win	2023-06-26	22:50:41	22:59:43	538298	5c6838ea5f8d580001e8a8ab	4	1	main_slash	11	advance_on_keypress_SLASH	136	stimuli_target_squarediamonds.svg	stimuli_distractor_trianglediamonds.svg	4	yes	57	0	33	0	0			0	0			1				0	
6.6.1	win	2023-06-26	22:50:41	22:59:44	539314	5c6838ea5f8d580001e8a8ab	4	1	main_slash	11	main_slash	137	stimuli_distractor_trianglediamonds.svg	stimuli_target_diamondsquares.svg	28	yes	53	1	343	0	0			0	0			1				0	
6.6.1	win	2023-06-26	22:50:41	22:59:44	539314	5c6838ea5f8d580001e8a8ab	4	1	main_slash	11	advance_on_keypress_SLASH	138	stimuli_distractor_trianglediamonds.svg	stimuli_target_diamondsquares.svg	28	yes	57	0	40	0	0			0	0			1				0	
6.6.1	win	2023-06-26	22:50:41	22:59:45	540338	5c6838ea5f8d580001e8a8ab	4	1	main_slash	11	main_slash	139	stimuli_distractor_diamondtriangles.svg	stimuli_distractor_trianglediamonds.svg	37	no	53	0	349	0	0			0	0			1				0	
6.6.1	win	2023-06-26	22:50:41	22:59:45	540338	5c6838ea5f8d580001e8a8ab	4	1	main_slash	11	advance_on_keypress_SLASH	140	stimuli_distractor_diamondtriangles.svg	stimuli_distractor_trianglediamonds.svg	37	no	57	0	21	0	0			0	0			1				0	
6.6.1	win	2023-06-26	22:50:41	22:59:46	541563	5c6838ea5f8d580001e8a8ab	4	1	main_slash	11	main_slash	141	stimuli_target_squarediamonds.svg	stimuli_distractor_diamondtriangles.svg	8	yes	53	1	555	0	0			0	0			1				0	
6.6.1	win	2023-06-26	22:50:41	22:59:46	541563	5c6838ea5f8d580001e8a8ab	4	1	main_slash	11	advance_on_keypress_SLASH	142	stimuli_target_squarediamonds.svg	stimuli_distractor_diamondtriangles.svg	8	yes	57	0	4	0	0			0	0			1				0	
6.6.1	win	2023-06-26	22:50:41	22:59:48	543170	5c6838ea5f8d580001e8a8ab	4	1	main_slash	11	main_slash	143	stimuli_distractor_trianglediamonds.svg	stimuli_target_trianglerectangles.svg	25	yes	53	1	962	0	0			0	0			1				0	
6.6.1	win	2023-06-26	22:50:41	22:59:48	543170	5c6838ea5f8d580001e8a8ab	4	1	main_slash	11	advance_on_keypress_SLASH	144	stimuli_distractor_trianglediamonds.svg	stimuli_target_trianglerectangles.svg	25	yes	57	0	34	0	0			0	0			1				0	
6.6.1	win	2023-06-26	22:50:41	22:59:49	544354	5c6838ea5f8d580001e8a8ab	4	1	main_slash	11	main_slash	145	stimuli_target_squaretriangles.svg	stimuli_distractor_trianglediamonds.svg	3	yes	53	1	511	0	0			0	0			1				0	
6.6.1	win	2023-06-26	22:50:41	22:59:49	544354	5c6838ea5f8d580001e8a8ab	4	1	main_slash	11	advance_on_keypress_SLASH	146	stimuli_target_squaretriangles.svg	stimuli_distractor_trianglediamonds.svg	3	yes	57	0	57	0	0			0	0			1				0	
6.6.1	win	2023-06-26	22:50:41	22:59:52	547045	5c6838ea5f8d580001e8a8ab	4	1	main_slash	11	main_slash	147	stimuli_distractor_trianglediamonds.svg	stimuli_distractor_diamondtriangles.svg	36	no	0	1	2000	0	0			0	0			1				0	
6.6.1	win	2023-06-26	22:50:41	22:59:52	547045	5c6838ea5f8d580001e8a8ab	4	1	main_slash	11	advance_on_keypress_SLASH	148	stimuli_distractor_trianglediamonds.svg	stimuli_distractor_diamondtriangles.svg	36	no	57	0	243	0	0			0	0			1				0	
6.6.1	win	2023-06-26	22:50:41	22:59:53	548394	5c6838ea5f8d580001e8a8ab	4	1	main_slash	11	main_slash	149	stimuli_distractor_diamondtriangles.svg	stimuli_target_squaretriangles.svg	15	yes	53	1	464	0	0			0	0			1				0	
6.6.1	win	2023-06-26	22:50:41	22:59:53	548394	5c6838ea5f8d580001e8a8ab	4	1	main_slash	11	advance_on_keypress_SLASH	150	stimuli_distractor_diamondtriangles.svg	stimuli_target_squaretriangles.svg	15	yes	57	0	60	0	0			0	0			1				0	
6.6.1	win	2023-06-26	22:50:41	22:59:54	549554	5c6838ea5f8d580001e8a8ab	4	1	main_slash	11	main_slash	151	stimuli_distractor_trianglediamonds.svg	stimuli_target_diamondrectangles.svg	27	yes	53	1	456	0	0			0	0			1				0	
6.6.1	win	2023-06-26	22:50:41	22:59:54	549554	5c6838ea5f8d580001e8a8ab	4	1	main_slash	11	advance_on_keypress_SLASH	152	stimuli_distractor_trianglediamonds.svg	stimuli_target_diamondrectangles.svg	27	yes	57	0	52	0	0			0	0			1				0	
6.6.1	win	2023-06-26	22:50:41	22:59:55	550624	5c6838ea5f8d580001e8a8ab	4	1	main_slash	11	main_slash	153	stimuli_distractor_diamondtriangles.svg	stimuli_target_trianglerectangles.svg	29	yes	53	1	370	0	0			0	0			1				0	
6.6.1	win	2023-06-26	22:50:41	22:59:55	550624	5c6838ea5f8d580001e8a8ab	4	1	main_slash	11	advance_on_keypress_SLASH	154	stimuli_distractor_diamondtriangles.svg	stimuli_target_trianglerectangles.svg	29	yes	57	0	40	0	0			0	0			1				0	
6.6.1	win	2023-06-26	22:50:41	22:59:57	551690	5c6838ea5f8d580001e8a8ab	4	1	main_slash	11	main_slash	155	stimuli_distractor_trianglediamonds.svg	stimuli_distractor_trianglediamonds.svg	34	no	53	0	390	0	0			0	0			1				0	
6.6.1	win	2023-06-26	22:50:41	22:59:57	551690	5c6838ea5f8d580001e8a8ab	4	1	main_slash	11	advance_on_keypress_SLASH	156	stimuli_distractor_trianglediamonds.svg	stimuli_distractor_trianglediamonds.svg	34	no	57	0	68	0	0			0	0			1				0	
6.6.1	win	2023-06-26	22:50:41	22:59:58	552930	5c6838ea5f8d580001e8a8ab	4	1	main_slash	11	main_slash	157	stimuli_target_rectanglediamonds.svg	stimuli_distractor_trianglediamonds.svg	2	yes	53	1	528	0	0			0	0			1				0	
6.6.1	win	2023-06-26	22:50:41	22:59:58	552930	5c6838ea5f8d580001e8a8ab	4	1	main_slash	11	advance_on_keypress_SLASH	158	stimuli_target_rectanglediamonds.svg	stimuli_distractor_trianglediamonds.svg	2	yes	57	0	34	0	0			0	0			1				0	
6.6.1	win	2023-06-26	22:50:41	22:59:59	554074	5c6838ea5f8d580001e8a8ab	4	1	main_slash	11	main_slash	159	stimuli_target_diamondrectangles.svg	stimuli_distractor_diamondtriangles.svg	23	yes	53	1	471	0	0			0	0			1				0	
6.6.1	win	2023-06-26	22:50:41	22:59:59	554074	5c6838ea5f8d580001e8a8ab	4	1	main_slash	11	advance_on_keypress_SLASH	160	stimuli_target_diamondrectangles.svg	stimuli_distractor_diamondtriangles.svg	23	yes	57	0	51	0	0			0	0			1				0	
6.6.1	win	2023-06-26	22:50:41	22:59:59	554074	5c6838ea5f8d580001e8a8ab	4	1	headphonecheck_calibration	14	headphonecheck_calibrationIntro	1	stimuli_target_diamondrectangles.svg	stimuli_distractor_diamondtriangles.svg	23	yes	calibrationButton	0	2423	0	0			0	0			1				0	
6.6.1	win	2023-06-26	22:50:41	22:59:59	554074	5c6838ea5f8d580001e8a8ab	4	1	headphonecheck_testphase	15	test_collectResponse	3	stimuli_target_diamondrectangles.svg	stimuli_distractor_diamondtriangles.svg	23	yes	second	1	1059	1	1	antiphase_hc_iso.wav	2	0	0			1				0	
6.6.1	win	2023-06-26	22:50:41	22:59:59	554074	5c6838ea5f8d580001e8a8ab	4	1	headphonecheck_testphase	15	test_collectResponse	6	stimuli_target_diamondrectangles.svg	stimuli_distractor_diamondtriangles.svg	23	yes	second	1	1185	2	5	antiphase_hc_osi.wav	2	0	0			1				0	
6.6.1	win	2023-06-26	22:50:41	22:59:59	554074	5c6838ea5f8d580001e8a8ab	4	1	headphonecheck_testphase	15	test_collectResponse	9	stimuli_target_diamondrectangles.svg	stimuli_distractor_diamondtriangles.svg	23	yes	third	1	616	3	6	antiphase_hc_ois.wav	3	0	0			1				0	
6.6.1	win	2023-06-26	22:50:41	22:59:59	554074	5c6838ea5f8d580001e8a8ab	4	1	headphonecheck_testphase	15	test_collectResponse	12	stimuli_target_diamondrectangles.svg	stimuli_distractor_diamondtriangles.svg	23	yes	third	1	348	4	2	antiphase_hc_ios.wav	3	0	0			1				0	
6.6.1	win	2023-06-26	22:50:41	22:59:59	554074	5c6838ea5f8d580001e8a8ab	4	1	headphonecheck_testphase	15	test_collectResponse	15	stimuli_target_diamondrectangles.svg	stimuli_distractor_diamondtriangles.svg	23	yes	first	1	549	5	3	antiphase_hc_soi.wav	1	0	0			1				0	
6.6.1	win	2023-06-26	22:50:41	22:59:59	554074	5c6838ea5f8d580001e8a8ab	4	1	headphonecheck_testphase	15	test_collectResponse	18	stimuli_target_diamondrectangles.svg	stimuli_distractor_diamondtriangles.svg	23	yes	first	1	304	6	4	antiphase_hc_sio.wav	1	0	0			1				0	
6.6.1	win	2023-06-26	22:50:41	22:59:59	554074	5c6838ea5f8d580001e8a8ab	4	1	stereocheck_calibration	17	stereocheck_calibrationIntro	1	stimuli_target_diamondrectangles.svg	stimuli_distractor_diamondtriangles.svg	23	yes	stereocheck_calibrationButton	0	3492	6	4	antiphase_hc_sio.wav	1	0	0			1				0	
6.6.1	win	2023-06-26	22:50:41	22:59:59	554074	5c6838ea5f8d580001e8a8ab	4	1	stereocheck_testphase	18	stereocheck_test_collectResponse	3	stimuli_target_diamondrectangles.svg	stimuli_distractor_diamondtriangles.svg	23	yes	stereocheck_right	1	157	6	4	antiphase_hc_sio.wav	1	1	6	noise_calib_stim_RIGHT.wav	2	1				0	
6.6.1	win	2023-06-26	22:50:41	22:59:59	554074	5c6838ea5f8d580001e8a8ab	4	1	stereocheck_testphase	18	stereocheck_test_collectResponse	6	stimuli_target_diamondrectangles.svg	stimuli_distractor_diamondtriangles.svg	23	yes	stereocheck_left	1	94	6	4	antiphase_hc_sio.wav	1	2	3	noise_calib_stim_LEFT.wav	1	1				0	
6.6.1	win	2023-06-26	22:50:41	22:59:59	554074	5c6838ea5f8d580001e8a8ab	4	1	stereocheck_testphase	18	stereocheck_test_collectResponse	9	stimuli_target_diamondrectangles.svg	stimuli_distractor_diamondtriangles.svg	23	yes	stereocheck_right	1	93	6	4	antiphase_hc_sio.wav	1	3	5	noise_calib_stim_RIGHT.wav	2	1				0	
6.6.1	win	2023-06-26	22:50:41	22:59:59	554074	5c6838ea5f8d580001e8a8ab	4	1	stereocheck_testphase	18	stereocheck_test_collectResponse	12	stimuli_target_diamondrectangles.svg	stimuli_distractor_diamondtriangles.svg	23	yes	stereocheck_left	1	234	6	4	antiphase_hc_sio.wav	1	4	1	noise_calib_stim_LEFT.wav	1	1				0	
6.6.1	win	2023-06-26	22:50:41	22:59:59	554074	5c6838ea5f8d580001e8a8ab	4	1	stereocheck_testphase	18	stereocheck_test_collectResponse	15	stimuli_target_diamondrectangles.svg	stimuli_distractor_diamondtriangles.svg	23	yes	stereocheck_left	1	268	6	4	antiphase_hc_sio.wav	1	5	2	noise_calib_stim_LEFT.wav	1	1				0	
6.6.1	win	2023-06-26	22:50:41	22:59:59	554074	5c6838ea5f8d580001e8a8ab	4	1	stereocheck_testphase	18	stereocheck_test_collectResponse	18	stimuli_target_diamondrectangles.svg	stimuli_distractor_diamondtriangles.svg	23	yes	stereocheck_right	1	173	6	4	antiphase_hc_sio.wav	1	6	4	noise_calib_stim_RIGHT.wav	2	1				0	
6.6.1	win	2023-06-26	22:50:41	22:59:59	554074	5c6838ea5f8d580001e8a8ab	4	1	DL_practice	21	DL_practice	2	stimuli_target_diamondrectangles.svg	stimuli_distractor_diamondtriangles.svg	23	yes	ba	1	1767	6	4	antiphase_hc_sio.wav	1	6	4	noise_calib_stim_RIGHT.wav	2	1	blb_dichoticlistening_ba-ba.mp3	ba	ba	0	left
6.6.1	win	2023-06-26	22:50:41	22:59:59	554074	5c6838ea5f8d580001e8a8ab	4	1	DL_practice	21	DL_practice	3	stimuli_target_diamondrectangles.svg	stimuli_distractor_diamondtriangles.svg	23	yes	pa	1	1402	6	4	antiphase_hc_sio.wav	1	6	4	noise_calib_stim_RIGHT.wav	2	23	blb_dichoticlistening_ka-pa.mp3	ka	pa	1	right
6.6.1	win	2023-06-26	22:50:41	22:59:59	554074	5c6838ea5f8d580001e8a8ab	4	1	DL_practice	21	DL_practice	4	stimuli_target_diamondrectangles.svg	stimuli_distractor_diamondtriangles.svg	23	yes	da	1	1178	6	4	antiphase_hc_sio.wav	1	6	4	noise_calib_stim_RIGHT.wav	2	7	blb_dichoticlistening_da-ba.mp3	da	ba	1	left
6.6.1	win	2023-06-26	22:50:41	22:59:59	554074	5c6838ea5f8d580001e8a8ab	4	1	DL_practice	21	DL_practice	5	stimuli_target_diamondrectangles.svg	stimuli_distractor_diamondtriangles.svg	23	yes	ga	1	872	6	4	antiphase_hc_sio.wav	1	6	4	noise_calib_stim_RIGHT.wav	2	15	blb_dichoticlistening_ga-ga.mp3	ga	ga	0	left
6.6.1	win	2023-06-26	22:50:41	22:59:59	554074	5c6838ea5f8d580001e8a8ab	4	1	DL_practice	21	DL_practice	6	stimuli_target_diamondrectangles.svg	stimuli_distractor_diamondtriangles.svg	23	yes	pa	1	1117	6	4	antiphase_hc_sio.wav	1	6	4	noise_calib_stim_RIGHT.wav	2	29	blb_dichoticlistening_pa-pa.mp3	pa	pa	0	left
6.6.1	win	2023-06-26	22:50:41	22:59:59	554074	5c6838ea5f8d580001e8a8ab	4	1	DL_practice	21	DL_practice	7	stimuli_target_diamondrectangles.svg	stimuli_distractor_diamondtriangles.svg	23	yes	ka	0	861	6	4	antiphase_hc_sio.wav	1	6	4	noise_calib_stim_RIGHT.wav	2	18	blb_dichoticlistening_ga-ta.mp3	ga	ta	1	other
6.6.1	win	2023-06-26	22:50:41	22:59:59	554074	5c6838ea5f8d580001e8a8ab	4	1	DL_practice	21	DL_practice	8	stimuli_target_diamondrectangles.svg	stimuli_distractor_diamondtriangles.svg	23	yes	da	1	694	6	4	antiphase_hc_sio.wav	1	6	4	noise_calib_stim_RIGHT.wav	2	8	blb_dichoticlistening_da-da.mp3	da	da	0	left
6.6.1	win	2023-06-26	22:50:41	22:59:59	554074	5c6838ea5f8d580001e8a8ab	4	1	DL_practice	21	DL_practice	9	stimuli_target_diamondrectangles.svg	stimuli_distractor_diamondtriangles.svg	23	yes	ka	1	756	6	4	antiphase_hc_sio.wav	1	6	4	noise_calib_stim_RIGHT.wav	2	22	blb_dichoticlistening_ka-ka.mp3	ka	ka	0	left
6.6.1	win	2023-06-26	22:50:41	22:59:59	554074	5c6838ea5f8d580001e8a8ab	4	1	DL_practice	21	DL_practice	10	stimuli_target_diamondrectangles.svg	stimuli_distractor_diamondtriangles.svg	23	yes	ka	0	960	6	4	antiphase_hc_sio.wav	1	6	4	noise_calib_stim_RIGHT.wav	2	36	blb_dichoticlistening_ta-ta.mp3	ta	ta	0	other
6.6.1	win	2023-06-26	22:50:41	22:59:59	554074	5c6838ea5f8d580001e8a8ab	4	1	DL_test	23	DL_test	1	stimuli_target_diamondrectangles.svg	stimuli_distractor_diamondtriangles.svg	23	yes	ga	1	1101	6	4	antiphase_hc_sio.wav	1	6	4	noise_calib_stim_RIGHT.wav	2	15	blb_dichoticlistening_ga-ga.mp3	ga	ga	0	left
6.6.1	win	2023-06-26	22:50:41	22:59:59	554074	5c6838ea5f8d580001e8a8ab	4	1	DL_test	23	DL_test	2	stimuli_target_diamondrectangles.svg	stimuli_distractor_diamondtriangles.svg	23	yes	pa	1	807	6	4	antiphase_hc_sio.wav	1	6	4	noise_calib_stim_RIGHT.wav	2	25	blb_dichoticlistening_pa-ba.mp3	pa	ba	1	left
6.6.1	win	2023-06-26	22:50:41	22:59:59	554074	5c6838ea5f8d580001e8a8ab	4	1	DL_test	23	DL_test	3	stimuli_target_diamondrectangles.svg	stimuli_distractor_diamondtriangles.svg	23	yes	pa	1	447	6	4	antiphase_hc_sio.wav	1	6	4	noise_calib_stim_RIGHT.wav	2	29	blb_dichoticlistening_pa-pa.mp3	pa	pa	0	left
6.6.1	win	2023-06-26	22:50:41	22:59:59	554074	5c6838ea5f8d580001e8a8ab	4	1	DL_test	23	DL_test	4	stimuli_target_diamondrectangles.svg	stimuli_distractor_diamondtriangles.svg	23	yes	da	1	1035	6	4	antiphase_hc_sio.wav	1	6	4	noise_calib_stim_RIGHT.wav	2	14	blb_dichoticlistening_ga-da.mp3	ga	da	1	right
6.6.1	win	2023-06-26	22:50:41	22:59:59	554074	5c6838ea5f8d580001e8a8ab	4	1	DL_test	23	DL_test	5	stimuli_target_diamondrectangles.svg	stimuli_distractor_diamondtriangles.svg	23	yes	ka	1	1090	6	4	antiphase_hc_sio.wav	1	6	4	noise_calib_stim_RIGHT.wav	2	23	blb_dichoticlistening_ka-pa.mp3	ka	pa	1	left
6.6.1	win	2023-06-26	22:50:41	22:59:59	554074	5c6838ea5f8d580001e8a8ab	4	1	DL_test	23	DL_test	6	stimuli_target_diamondrectangles.svg	stimuli_distractor_diamondtriangles.svg	23	yes	da	0	747	6	4	antiphase_hc_sio.wav	1	6	4	noise_calib_stim_RIGHT.wav	2	3	blb_dichoticlistening_ba-ga.mp3	ba	ga	1	other
6.6.1	win	2023-06-26	22:50:41	22:59:59	554074	5c6838ea5f8d580001e8a8ab	4	1	DL_test	23	DL_test	7	stimuli_target_diamondrectangles.svg	stimuli_distractor_diamondtriangles.svg	23	yes	ka	1	1492	6	4	antiphase_hc_sio.wav	1	6	4	noise_calib_stim_RIGHT.wav	2	24	blb_dichoticlistening_ka-ta.mp3	ka	ta	1	left
6.6.1	win	2023-06-26	22:50:41	22:59:59	554074	5c6838ea5f8d580001e8a8ab	4	1	DL_test	23	DL_test	8	stimuli_target_diamondrectangles.svg	stimuli_distractor_diamondtriangles.svg	23	yes	ka	0	776	6	4	antiphase_hc_sio.wav	1	6	4	noise_calib_stim_RIGHT.wav	2	12	blb_dichoticlistening_da-ta.mp3	da	ta	1	other
6.6.1	win	2023-06-26	22:50:41	22:59:59	554074	5c6838ea5f8d580001e8a8ab	4	1	DL_test	23	DL_test	9	stimuli_target_diamondrectangles.svg	stimuli_distractor_diamondtriangles.svg	23	yes	pa	0	819	6	4	antiphase_hc_sio.wav	1	6	4	noise_calib_stim_RIGHT.wav	2	10	blb_dichoticlistening_da-ka.mp3	da	ka	1	other
6.6.1	win	2023-06-26	22:50:41	22:59:59	554074	5c6838ea5f8d580001e8a8ab	4	1	DL_test	23	DL_test	10	stimuli_target_diamondrectangles.svg	stimuli_distractor_diamondtriangles.svg	23	yes	pa	1	719	6	4	antiphase_hc_sio.wav	1	6	4	noise_calib_stim_RIGHT.wav	2	35	blb_dichoticlistening_ta-pa.mp3	ta	pa	1	right
6.6.1	win	2023-06-26	22:50:41	22:59:59	554074	5c6838ea5f8d580001e8a8ab	4	1	DL_test	23	DL_test	11	stimuli_target_diamondrectangles.svg	stimuli_distractor_diamondtriangles.svg	23	yes	ta	1	878	6	4	antiphase_hc_sio.wav	1	6	4	noise_calib_stim_RIGHT.wav	2	30	blb_dichoticlistening_pa-ta.mp3	pa	ta	1	right
6.6.1	win	2023-06-26	22:50:41	22:59:59	554074	5c6838ea5f8d580001e8a8ab	4	1	DL_test	23	DL_test	12	stimuli_target_diamondrectangles.svg	stimuli_distractor_diamondtriangles.svg	23	yes	ka	1	1183	6	4	antiphase_hc_sio.wav	1	6	4	noise_calib_stim_RIGHT.wav	2	4	blb_dichoticlistening_ba-ka.mp3	ba	ka	1	right
6.6.1	win	2023-06-26	22:50:41	22:59:59	554074	5c6838ea5f8d580001e8a8ab	4	1	DL_test	23	DL_test	13	stimuli_target_diamondrectangles.svg	stimuli_distractor_diamondtriangles.svg	23	yes	da	1	833	6	4	antiphase_hc_sio.wav	1	6	4	noise_calib_stim_RIGHT.wav	2	8	blb_dichoticlistening_da-da.mp3	da	da	0	left
6.6.1	win	2023-06-26	22:50:41	22:59:59	554074	5c6838ea5f8d580001e8a8ab	4	1	DL_test	23	DL_test	14	stimuli_target_diamondrectangles.svg	stimuli_distractor_diamondtriangles.svg	23	yes	ga	1	1286	6	4	antiphase_hc_sio.wav	1	6	4	noise_calib_stim_RIGHT.wav	2	13	blb_dichoticlistening_ga-ba.mp3	ga	ba	1	left
6.6.1	win	2023-06-26	22:50:41	22:59:59	554074	5c6838ea5f8d580001e8a8ab	4	1	DL_test	23	DL_test	15	stimuli_target_diamondrectangles.svg	stimuli_distractor_diamondtriangles.svg	23	yes	ba	1	840	6	4	antiphase_hc_sio.wav	1	6	4	noise_calib_stim_RIGHT.wav	2	1	blb_dichoticlistening_ba-ba.mp3	ba	ba	0	left
6.6.1	win	2023-06-26	22:50:41	22:59:59	554074	5c6838ea5f8d580001e8a8ab	4	1	DL_test	23	DL_test	16	stimuli_target_diamondrectangles.svg	stimuli_distractor_diamondtriangles.svg	23	yes	ka	1	893	6	4	antiphase_hc_sio.wav	1	6	4	noise_calib_stim_RIGHT.wav	2	19	blb_dichoticlistening_ka-ba.mp3	ka	ba	1	left
6.6.1	win	2023-06-26	22:50:41	22:59:59	554074	5c6838ea5f8d580001e8a8ab	4	1	DL_test	23	DL_test	17	stimuli_target_diamondrectangles.svg	stimuli_distractor_diamondtriangles.svg	23	yes	ta	1	879	6	4	antiphase_hc_sio.wav	1	6	4	noise_calib_stim_RIGHT.wav	2	36	blb_dichoticlistening_ta-ta.mp3	ta	ta	0	left
6.6.1	win	2023-06-26	22:50:41	22:59:59	554074	5c6838ea5f8d580001e8a8ab	4	1	DL_test	23	DL_test	18	stimuli_target_diamondrectangles.svg	stimuli_distractor_diamondtriangles.svg	23	yes	ka	1	1108	6	4	antiphase_hc_sio.wav	1	6	4	noise_calib_stim_RIGHT.wav	2	22	blb_dichoticlistening_ka-ka.mp3	ka	ka	0	left
6.6.1	win	2023-06-26	22:50:41	22:59:59	554074	5c6838ea5f8d580001e8a8ab	4	1	DL_test	23	DL_test	19	stimuli_target_diamondrectangles.svg	stimuli_distractor_diamondtriangles.svg	23	yes	pa	1	806	6	4	antiphase_hc_sio.wav	1	6	4	noise_calib_stim_RIGHT.wav	2	5	blb_dichoticlistening_ba-pa.mp3	ba	pa	1	right
6.6.1	win	2023-06-26	22:50:41	22:59:59	554074	5c6838ea5f8d580001e8a8ab	4	1	DL_test	23	DL_test	20	stimuli_target_diamondrectangles.svg	stimuli_distractor_diamondtriangles.svg	23	yes	pa	1	388	6	4	antiphase_hc_sio.wav	1	6	4	noise_calib_stim_RIGHT.wav	2	11	blb_dichoticlistening_da-pa.mp3	da	pa	1	right
6.6.1	win	2023-06-26	22:50:41	22:59:59	554074	5c6838ea5f8d580001e8a8ab	4	1	DL_test	23	DL_test	21	stimuli_target_diamondrectangles.svg	stimuli_distractor_diamondtriangles.svg	23	yes	ka	1	2121	6	4	antiphase_hc_sio.wav	1	6	4	noise_calib_stim_RIGHT.wav	2	20	blb_dichoticlistening_ka-da.mp3	ka	da	1	left
6.6.1	win	2023-06-26	22:50:41	22:59:59	554074	5c6838ea5f8d580001e8a8ab	4	1	DL_test	23	DL_test	22	stimuli_target_diamondrectangles.svg	stimuli_distractor_diamondtriangles.svg	23	yes	ka	1	1119	6	4	antiphase_hc_sio.wav	1	6	4	noise_calib_stim_RIGHT.wav	2	21	blb_dichoticlistening_ka-ga.mp3	ka	ga	1	left
6.6.1	win	2023-06-26	22:50:41	22:59:59	554074	5c6838ea5f8d580001e8a8ab	4	1	DL_test	23	DL_test	23	stimuli_target_diamondrectangles.svg	stimuli_distractor_diamondtriangles.svg	23	yes	ga	1	1378	6	4	antiphase_hc_sio.wav	1	6	4	noise_calib_stim_RIGHT.wav	2	27	blb_dichoticlistening_pa-ga.mp3	pa	ga	1	right
6.6.1	win	2023-06-26	22:50:41	22:59:59	554074	5c6838ea5f8d580001e8a8ab	4	1	DL_test	23	DL_test	24	stimuli_target_diamondrectangles.svg	stimuli_distractor_diamondtriangles.svg	23	yes	da	1	660	6	4	antiphase_hc_sio.wav	1	6	4	noise_calib_stim_RIGHT.wav	2	7	blb_dichoticlistening_da-ba.mp3	da	ba	1	left
6.6.1	win	2023-06-26	22:50:41	22:59:59	554074	5c6838ea5f8d580001e8a8ab	4	1	DL_test	23	DL_test	25	stimuli_target_diamondrectangles.svg	stimuli_distractor_diamondtriangles.svg	23	yes	da	0	756	6	4	antiphase_hc_sio.wav	1	6	4	noise_calib_stim_RIGHT.wav	2	33	blb_dichoticlistening_ta-ga.mp3	ta	ga	1	other
6.6.1	win	2023-06-26	22:50:41	22:59:59	554074	5c6838ea5f8d580001e8a8ab	4	1	DL_test	23	DL_test	26	stimuli_target_diamondrectangles.svg	stimuli_distractor_diamondtriangles.svg	23	yes	ka	0	1046	6	4	antiphase_hc_sio.wav	1	6	4	noise_calib_stim_RIGHT.wav	2	6	blb_dichoticlistening_ba-ta.mp3	ba	ta	1	other
