build	computer.platform	date	time	timestamp	time_elapsed_ms	subject	group	session	blockcode	blocknum	trialcode	trialnum	stimulus_left	stimulus_right	stim_index	target_present	response	correct	latency	headphonecheck_countTestTrials	headphonecheck_index	headphonecheck_testSound	headphonecheck_correctResponse	stereocheck_countTestTrials	stereocheck_index	stereocheck_testSound	stereocheck_correctResponse	DL_index	DL_soundfile	DL_leftSound	DL_rightSound	DL_dualSound	DL_choice
6.6.1	win	2023-06-02	06:29:58	06:32:10	127566	5e937e8e4d246b6b4162ae72	4	1	practice_z	5	practice_z	1	stimuli_distractor_trianglediamonds.svg	stimuli_target_rectanglediamonds.svg	10	yes	44	1	615	0	0			0	0			1				0	
6.6.1	win	2023-06-02	06:29:58	06:32:10	127566	5e937e8e4d246b6b4162ae72	4	1	practice_z	5	advance_on_keypress_ZEE	2	stimuli_distractor_trianglediamonds.svg	stimuli_target_rectanglediamonds.svg	10	yes	57	0	713	0	0			0	0			1				0	
6.6.1	win	2023-06-02	06:29:58	06:32:13	131496	5e937e8e4d246b6b4162ae72	4	1	practice_z	5	practice_z	3	stimuli_distractor_diamondtriangles.svg	stimuli_target_trianglerectangles.svg	9	yes	44	1	1565	0	0			0	0			1				0	
6.6.1	win	2023-06-02	06:29:58	06:32:13	131496	5e937e8e4d246b6b4162ae72	4	1	practice_z	5	advance_on_keypress_ZEE	4	stimuli_distractor_diamondtriangles.svg	stimuli_target_trianglerectangles.svg	9	yes	57	0	596	0	0			0	0			1				0	
6.6.1	win	2023-06-02	06:29:58	06:32:18	135746	5e937e8e4d246b6b4162ae72	4	1	practice_z	5	practice_z	5	stimuli_distractor_trianglediamonds.svg	stimuli_distractor_trianglediamonds.svg	15	no	0	1	2000	0	0			0	0			1				0	
6.6.1	win	2023-06-02	06:29:58	06:32:18	135746	5e937e8e4d246b6b4162ae72	4	1	practice_z	5	advance_on_keypress_ZEE	6	stimuli_distractor_trianglediamonds.svg	stimuli_distractor_trianglediamonds.svg	15	no	57	0	553	0	0			0	0			1				0	
6.6.1	win	2023-06-02	06:29:58	06:32:21	138726	5e937e8e4d246b6b4162ae72	4	1	practice_z	5	practice_z	7	stimuli_distractor_diamondtriangles.svg	stimuli_target_rectangletriangles.svg	7	yes	44	1	783	0	0			0	0			1				0	
6.6.1	win	2023-06-02	06:29:58	06:32:21	138726	5e937e8e4d246b6b4162ae72	4	1	practice_z	5	advance_on_keypress_ZEE	8	stimuli_distractor_diamondtriangles.svg	stimuli_target_rectangletriangles.svg	7	yes	57	0	508	0	0			0	0			1				0	
6.6.1	win	2023-06-02	06:29:58	06:32:25	142891	5e937e8e4d246b6b4162ae72	4	1	practice_z	5	practice_z	9	stimuli_distractor_diamondtriangles.svg	stimuli_target_diamondrectangles.svg	8	yes	0	0	2000	0	0			0	0			1				0	
6.6.1	win	2023-06-02	06:29:58	06:32:25	142891	5e937e8e4d246b6b4162ae72	4	1	practice_z	5	advance_on_keypress_ZEE	10	stimuli_distractor_diamondtriangles.svg	stimuli_target_diamondrectangles.svg	8	yes	57	0	586	0	0			0	0			1				0	
6.6.1	win	2023-06-02	06:29:58	06:32:29	147123	5e937e8e4d246b6b4162ae72	4	1	practice_z	5	practice_z	11	stimuli_distractor_diamondtriangles.svg	stimuli_distractor_trianglediamonds.svg	14	no	0	1	2000	0	0			0	0			1				0	
6.6.1	win	2023-06-02	06:29:58	06:32:29	147123	5e937e8e4d246b6b4162ae72	4	1	practice_z	5	advance_on_keypress_ZEE	12	stimuli_distractor_diamondtriangles.svg	stimuli_distractor_trianglediamonds.svg	14	no	57	0	518	0	0			0	0			1				0	
6.6.1	win	2023-06-02	06:29:58	06:32:32	150120	5e937e8e4d246b6b4162ae72	4	1	practice_z	5	practice_z	13	stimuli_target_squarediamonds.svg	stimuli_distractor_diamondtriangles.svg	2	yes	44	1	834	0	0			0	0			1				0	
6.6.1	win	2023-06-02	06:29:58	06:32:32	150120	5e937e8e4d246b6b4162ae72	4	1	practice_z	5	advance_on_keypress_ZEE	14	stimuli_target_squarediamonds.svg	stimuli_distractor_diamondtriangles.svg	2	yes	57	0	561	0	0			0	0			1				0	
6.6.1	win	2023-06-02	06:29:58	06:32:36	154350	5e937e8e4d246b6b4162ae72	4	1	practice_z	5	practice_z	15	stimuli_distractor_trianglediamonds.svg	stimuli_target_diamondrectangles.svg	12	yes	0	0	2000	0	0			0	0			1				0	
6.6.1	win	2023-06-02	06:29:58	06:32:36	154350	5e937e8e4d246b6b4162ae72	4	1	practice_z	5	advance_on_keypress_ZEE	16	stimuli_distractor_trianglediamonds.svg	stimuli_target_diamondrectangles.svg	12	yes	57	0	443	0	0			0	0			1				0	
6.6.1	win	2023-06-02	06:29:58	06:32:39	157281	5e937e8e4d246b6b4162ae72	4	1	practice_z	5	practice_z	17	stimuli_distractor_trianglediamonds.svg	stimuli_target_squarediamonds.svg	11	yes	44	1	833	0	0			0	0			1				0	
6.6.1	win	2023-06-02	06:29:58	06:32:39	157281	5e937e8e4d246b6b4162ae72	4	1	practice_z	5	advance_on_keypress_ZEE	18	stimuli_distractor_trianglediamonds.svg	stimuli_target_squarediamonds.svg	11	yes	57	0	456	0	0			0	0			1				0	
6.6.1	win	2023-06-02	06:29:58	06:32:42	160418	5e937e8e4d246b6b4162ae72	4	1	practice_z	5	practice_z	19	stimuli_target_rectanglediamonds.svg	stimuli_distractor_diamondtriangles.svg	1	yes	44	1	1038	0	0			0	0			1				0	
6.6.1	win	2023-06-02	06:29:58	06:32:42	160418	5e937e8e4d246b6b4162ae72	4	1	practice_z	5	advance_on_keypress_ZEE	20	stimuli_target_rectanglediamonds.svg	stimuli_distractor_diamondtriangles.svg	1	yes	57	0	487	0	0			0	0			1				0	
6.6.1	win	2023-06-02	06:29:58	06:32:45	163433	5e937e8e4d246b6b4162ae72	4	1	practice_z	5	practice_z	21	stimuli_target_diamondsquares.svg	stimuli_distractor_diamondtriangles.svg	3	yes	44	1	889	0	0			0	0			1				0	
6.6.1	win	2023-06-02	06:29:58	06:32:45	163433	5e937e8e4d246b6b4162ae72	4	1	practice_z	5	advance_on_keypress_ZEE	22	stimuli_target_diamondsquares.svg	stimuli_distractor_diamondtriangles.svg	3	yes	57	0	534	0	0			0	0			1				0	
6.6.1	win	2023-06-02	06:29:58	06:32:48	166406	5e937e8e4d246b6b4162ae72	4	1	practice_z	5	practice_z	23	stimuli_target_rectanglediamonds.svg	stimuli_distractor_trianglediamonds.svg	4	yes	44	1	797	0	0			0	0			1				0	
6.6.1	win	2023-06-02	06:29:58	06:32:48	166406	5e937e8e4d246b6b4162ae72	4	1	practice_z	5	advance_on_keypress_ZEE	24	stimuli_target_rectanglediamonds.svg	stimuli_distractor_trianglediamonds.svg	4	yes	57	0	435	0	0			0	0			1				0	
6.6.1	win	2023-06-02	06:29:58	06:32:52	170490	5e937e8e4d246b6b4162ae72	4	1	practice_z	5	practice_z	25	stimuli_distractor_trianglediamonds.svg	stimuli_distractor_diamondtriangles.svg	16	no	0	1	2000	0	0			0	0			1				0	
6.6.1	win	2023-06-02	06:29:58	06:32:52	170490	5e937e8e4d246b6b4162ae72	4	1	practice_z	5	advance_on_keypress_ZEE	26	stimuli_distractor_trianglediamonds.svg	stimuli_distractor_diamondtriangles.svg	16	no	57	0	507	0	0			0	0			1				0	
6.6.1	win	2023-06-02	06:29:58	06:32:55	173334	5e937e8e4d246b6b4162ae72	4	1	practice_z	5	practice_z	27	stimuli_target_diamondsquares.svg	stimuli_distractor_trianglediamonds.svg	6	yes	44	1	697	0	0			0	0			1				0	
6.6.1	win	2023-06-02	06:29:58	06:32:55	173334	5e937e8e4d246b6b4162ae72	4	1	practice_z	5	advance_on_keypress_ZEE	28	stimuli_target_diamondsquares.svg	stimuli_distractor_trianglediamonds.svg	6	yes	57	0	434	0	0			0	0			1				0	
6.6.1	win	2023-06-02	06:29:58	06:32:59	177420	5e937e8e4d246b6b4162ae72	4	1	practice_z	5	practice_z	29	stimuli_distractor_diamondtriangles.svg	stimuli_distractor_diamondtriangles.svg	13	no	0	1	2000	0	0			0	0			1				0	
6.6.1	win	2023-06-02	06:29:58	06:32:59	177420	5e937e8e4d246b6b4162ae72	4	1	practice_z	5	advance_on_keypress_ZEE	30	stimuli_distractor_diamondtriangles.svg	stimuli_distractor_diamondtriangles.svg	13	no	57	0	444	0	0			0	0			1				0	
6.6.1	win	2023-06-02	06:29:58	06:33:02	180365	5e937e8e4d246b6b4162ae72	4	1	practice_z	5	practice_z	31	stimuli_target_squarediamonds.svg	stimuli_distractor_trianglediamonds.svg	5	yes	44	1	846	0	0			0	0			1				0	
6.6.1	win	2023-06-02	06:29:58	06:33:02	180365	5e937e8e4d246b6b4162ae72	4	1	practice_z	5	advance_on_keypress_ZEE	32	stimuli_target_squarediamonds.svg	stimuli_distractor_trianglediamonds.svg	5	yes	57	0	457	0	0			0	0			1				0	
6.6.1	win	2023-06-02	06:29:58	06:33:09	187397	5e937e8e4d246b6b4162ae72	4	1	main_z	7	main_z	1	stimuli_target_rectangletriangles.svg	stimuli_distractor_diamondtriangles.svg	5	yes	44	1	705	0	0			0	0			1				0	
6.6.1	win	2023-06-02	06:29:58	06:33:09	187397	5e937e8e4d246b6b4162ae72	4	1	main_z	7	advance_on_keypress_ZEE	2	stimuli_target_rectangletriangles.svg	stimuli_distractor_diamondtriangles.svg	5	yes	57	0	1145	0	0			0	0			1				0	
6.6.1	win	2023-06-02	06:29:58	06:33:12	190087	5e937e8e4d246b6b4162ae72	4	1	main_z	7	main_z	3	stimuli_target_squarediamonds.svg	stimuli_distractor_trianglediamonds.svg	4	yes	44	1	893	0	0			0	0			1				0	
6.6.1	win	2023-06-02	06:29:58	06:33:12	190087	5e937e8e4d246b6b4162ae72	4	1	main_z	7	advance_on_keypress_ZEE	4	stimuli_target_squarediamonds.svg	stimuli_distractor_trianglediamonds.svg	4	yes	57	0	985	0	0			0	0			1				0	
6.6.1	win	2023-06-02	06:29:58	06:33:15	192813	5e937e8e4d246b6b4162ae72	4	1	main_z	7	main_z	5	stimuli_target_rectanglediamonds.svg	stimuli_distractor_trianglediamonds.svg	2	yes	44	1	1091	0	0			0	0			1				0	
6.6.1	win	2023-06-02	06:29:58	06:33:15	192813	5e937e8e4d246b6b4162ae72	4	1	main_z	7	advance_on_keypress_ZEE	6	stimuli_target_rectanglediamonds.svg	stimuli_distractor_trianglediamonds.svg	2	yes	57	0	845	0	0			0	0			1				0	
6.6.1	win	2023-06-02	06:29:58	06:33:17	195230	5e937e8e4d246b6b4162ae72	4	1	main_z	7	main_z	7	stimuli_target_trianglerectangles.svg	stimuli_distractor_trianglediamonds.svg	17	yes	44	1	926	0	0			0	0			1				0	
6.6.1	win	2023-06-02	06:29:58	06:33:17	195230	5e937e8e4d246b6b4162ae72	4	1	main_z	7	advance_on_keypress_ZEE	8	stimuli_target_trianglerectangles.svg	stimuli_distractor_trianglediamonds.svg	17	yes	57	0	912	0	0			0	0			1				0	
6.6.1	win	2023-06-02	06:29:58	06:33:21	198786	5e937e8e4d246b6b4162ae72	4	1	main_z	7	main_z	9	stimuli_distractor_trianglediamonds.svg	stimuli_distractor_diamondtriangles.svg	35	no	0	1	2000	0	0			0	0			1				0	
6.6.1	win	2023-06-02	06:29:58	06:33:21	198786	5e937e8e4d246b6b4162ae72	4	1	main_z	7	advance_on_keypress_ZEE	10	stimuli_distractor_trianglediamonds.svg	stimuli_distractor_diamondtriangles.svg	35	no	57	0	588	0	0			0	0			1				0	
6.6.1	win	2023-06-02	06:29:58	06:33:23	200910	5e937e8e4d246b6b4162ae72	4	1	main_z	7	main_z	11	stimuli_distractor_diamondtriangles.svg	stimuli_target_diamondrectangles.svg	31	yes	44	1	893	0	0			0	0			1				0	
6.6.1	win	2023-06-02	06:29:58	06:33:23	200910	5e937e8e4d246b6b4162ae72	4	1	main_z	7	advance_on_keypress_ZEE	12	stimuli_distractor_diamondtriangles.svg	stimuli_target_diamondrectangles.svg	31	yes	57	0	941	0	0			0	0			1				0	
6.6.1	win	2023-06-02	06:29:58	06:33:26	204482	5e937e8e4d246b6b4162ae72	4	1	main_z	7	main_z	13	stimuli_distractor_trianglediamonds.svg	stimuli_distractor_diamondtriangles.svg	36	no	0	1	2000	0	0			0	0			1				0	
6.6.1	win	2023-06-02	06:29:58	06:33:26	204482	5e937e8e4d246b6b4162ae72	4	1	main_z	7	advance_on_keypress_ZEE	14	stimuli_distractor_trianglediamonds.svg	stimuli_distractor_diamondtriangles.svg	36	no	57	0	435	0	0			0	0			1				0	
6.6.1	win	2023-06-02	06:29:58	06:33:29	206600	5e937e8e4d246b6b4162ae72	4	1	main_z	7	main_z	15	stimuli_distractor_diamondtriangles.svg	stimuli_target_rectangletriangles.svg	13	yes	44	1	1037	0	0			0	0			1				0	
6.6.1	win	2023-06-02	06:29:58	06:33:29	206600	5e937e8e4d246b6b4162ae72	4	1	main_z	7	advance_on_keypress_ZEE	16	stimuli_distractor_diamondtriangles.svg	stimuli_target_rectangletriangles.svg	13	yes	57	0	892	0	0			0	0			1				0	
6.6.1	win	2023-06-02	06:29:58	06:33:31	209163	5e937e8e4d246b6b4162ae72	4	1	main_z	7	main_z	17	stimuli_distractor_trianglediamonds.svg	stimuli_target_rectangletriangles.svg	9	yes	44	1	1033	0	0			0	0			1				0	
6.6.1	win	2023-06-02	06:29:58	06:33:31	209163	5e937e8e4d246b6b4162ae72	4	1	main_z	7	advance_on_keypress_ZEE	18	stimuli_distractor_trianglediamonds.svg	stimuli_target_rectangletriangles.svg	9	yes	57	0	636	0	0			0	0			1				0	
6.6.1	win	2023-06-02	06:29:58	06:33:34	211513	5e937e8e4d246b6b4162ae72	4	1	main_z	7	main_z	19	stimuli_target_diamondrectangles.svg	stimuli_distractor_trianglediamonds.svg	19	yes	44	1	1068	0	0			0	0			1				0	
6.6.1	win	2023-06-02	06:29:58	06:33:34	211513	5e937e8e4d246b6b4162ae72	4	1	main_z	7	advance_on_keypress_ZEE	20	stimuli_target_diamondrectangles.svg	stimuli_distractor_trianglediamonds.svg	19	yes	57	0	645	0	0			0	0			1				0	
6.6.1	win	2023-06-02	06:29:58	06:33:36	213843	5e937e8e4d246b6b4162ae72	4	1	main_z	7	main_z	21	stimuli_target_squaretriangles.svg	stimuli_distractor_diamondtriangles.svg	7	yes	44	1	1034	0	0			0	0			1				0	
6.6.1	win	2023-06-02	06:29:58	06:33:36	213843	5e937e8e4d246b6b4162ae72	4	1	main_z	7	advance_on_keypress_ZEE	22	stimuli_target_squaretriangles.svg	stimuli_distractor_diamondtriangles.svg	7	yes	57	0	599	0	0			0	0			1				0	
6.6.1	win	2023-06-02	06:29:58	06:33:38	216097	5e937e8e4d246b6b4162ae72	4	1	main_z	7	main_z	23	stimuli_target_diamondsquares.svg	stimuli_distractor_diamondtriangles.svg	24	yes	44	1	1006	0	0			0	0			1				0	
6.6.1	win	2023-06-02	06:29:58	06:33:38	216097	5e937e8e4d246b6b4162ae72	4	1	main_z	7	advance_on_keypress_ZEE	24	stimuli_target_diamondsquares.svg	stimuli_distractor_diamondtriangles.svg	24	yes	57	0	518	0	0			0	0			1				0	
6.6.1	win	2023-06-02	06:29:58	06:33:40	218424	5e937e8e4d246b6b4162ae72	4	1	main_z	7	main_z	25	stimuli_distractor_diamondtriangles.svg	stimuli_target_rectanglediamonds.svg	14	yes	44	1	1168	0	0			0	0			1				0	
6.6.1	win	2023-06-02	06:29:58	06:33:40	218424	5e937e8e4d246b6b4162ae72	4	1	main_z	7	advance_on_keypress_ZEE	26	stimuli_distractor_diamondtriangles.svg	stimuli_target_rectanglediamonds.svg	14	yes	57	0	648	0	0			0	0			1				0	
6.6.1	win	2023-06-02	06:29:58	06:33:43	220784	5e937e8e4d246b6b4162ae72	4	1	main_z	7	main_z	27	stimuli_distractor_diamondtriangles.svg	stimuli_target_trianglesquares.svg	30	yes	44	1	1062	0	0			0	0			1				0	
6.6.1	win	2023-06-02	06:29:58	06:33:43	220784	5e937e8e4d246b6b4162ae72	4	1	main_z	7	advance_on_keypress_ZEE	28	stimuli_distractor_diamondtriangles.svg	stimuli_target_trianglesquares.svg	30	yes	57	0	535	0	0			0	0			1				0	
6.6.1	win	2023-06-02	06:29:58	06:33:46	223970	5e937e8e4d246b6b4162ae72	4	1	main_z	7	main_z	29	stimuli_distractor_diamondtriangles.svg	stimuli_distractor_diamondtriangles.svg	39	no	0	1	2000	0	0			0	0			1				0	
6.6.1	win	2023-06-02	06:29:58	06:33:46	223970	5e937e8e4d246b6b4162ae72	4	1	main_z	7	advance_on_keypress_ZEE	30	stimuli_distractor_diamondtriangles.svg	stimuli_distractor_diamondtriangles.svg	39	no	57	0	390	0	0			0	0			1				0	
6.6.1	win	2023-06-02	06:29:58	06:33:48	225960	5e937e8e4d246b6b4162ae72	4	1	main_z	7	main_z	31	stimuli_distractor_trianglediamonds.svg	stimuli_target_diamondrectangles.svg	27	yes	44	1	958	0	0			0	0			1				0	
6.6.1	win	2023-06-02	06:29:58	06:33:48	225960	5e937e8e4d246b6b4162ae72	4	1	main_z	7	advance_on_keypress_ZEE	32	stimuli_distractor_trianglediamonds.svg	stimuli_target_diamondrectangles.svg	27	yes	57	0	613	0	0			0	0			1				0	
6.6.1	win	2023-06-02	06:29:58	06:33:50	228213	5e937e8e4d246b6b4162ae72	4	1	main_z	7	main_z	33	stimuli_target_diamondsquares.svg	stimuli_distractor_trianglediamonds.svg	20	yes	44	1	997	0	0			0	0			1				0	
6.6.1	win	2023-06-02	06:29:58	06:33:50	228213	5e937e8e4d246b6b4162ae72	4	1	main_z	7	advance_on_keypress_ZEE	34	stimuli_target_diamondsquares.svg	stimuli_distractor_trianglediamonds.svg	20	yes	57	0	468	0	0			0	0			1				0	
6.6.1	win	2023-06-02	06:29:58	06:33:52	230270	5e937e8e4d246b6b4162ae72	4	1	main_z	7	main_z	35	stimuli_distractor_trianglediamonds.svg	stimuli_target_trianglerectangles.svg	25	yes	44	1	938	0	0			0	0			1				0	
6.6.1	win	2023-06-02	06:29:58	06:33:52	230270	5e937e8e4d246b6b4162ae72	4	1	main_z	7	advance_on_keypress_ZEE	36	stimuli_distractor_trianglediamonds.svg	stimuli_target_trianglerectangles.svg	25	yes	57	0	455	0	0			0	0			1				0	
6.6.1	win	2023-06-02	06:29:58	06:33:54	232331	5e937e8e4d246b6b4162ae72	4	1	main_z	7	main_z	37	stimuli_distractor_trianglediamonds.svg	stimuli_target_squarediamonds.svg	12	yes	44	1	967	0	0			0	0			1				0	
6.6.1	win	2023-06-02	06:29:58	06:33:54	232331	5e937e8e4d246b6b4162ae72	4	1	main_z	7	advance_on_keypress_ZEE	38	stimuli_distractor_trianglediamonds.svg	stimuli_target_squarediamonds.svg	12	yes	57	0	432	0	0			0	0			1				0	
6.6.1	win	2023-06-02	06:29:58	06:33:56	234313	5e937e8e4d246b6b4162ae72	4	1	main_z	7	main_z	39	stimuli_distractor_trianglediamonds.svg	stimuli_target_squaretriangles.svg	11	yes	44	1	901	0	0			0	0			1				0	
6.6.1	win	2023-06-02	06:29:58	06:33:56	234313	5e937e8e4d246b6b4162ae72	4	1	main_z	7	advance_on_keypress_ZEE	40	stimuli_distractor_trianglediamonds.svg	stimuli_target_squaretriangles.svg	11	yes	57	0	462	0	0			0	0			1				0	
6.6.1	win	2023-06-02	06:29:58	06:33:59	237428	5e937e8e4d246b6b4162ae72	4	1	main_z	7	main_z	41	stimuli_distractor_diamondtriangles.svg	stimuli_distractor_diamondtriangles.svg	40	no	0	1	2000	0	0			0	0			1				0	
6.6.1	win	2023-06-02	06:29:58	06:33:59	237428	5e937e8e4d246b6b4162ae72	4	1	main_z	7	advance_on_keypress_ZEE	42	stimuli_distractor_diamondtriangles.svg	stimuli_distractor_diamondtriangles.svg	40	no	57	0	414	0	0			0	0			1				0	
6.6.1	win	2023-06-02	06:29:58	06:34:01	239398	5e937e8e4d246b6b4162ae72	4	1	main_z	7	main_z	43	stimuli_target_squaretriangles.svg	stimuli_distractor_trianglediamonds.svg	3	yes	44	1	906	0	0			0	0			1				0	
6.6.1	win	2023-06-02	06:29:58	06:34:01	239398	5e937e8e4d246b6b4162ae72	4	1	main_z	7	advance_on_keypress_ZEE	44	stimuli_target_squaretriangles.svg	stimuli_distractor_trianglediamonds.svg	3	yes	57	0	459	0	0			0	0			1				0	
6.6.1	win	2023-06-02	06:29:58	06:34:03	241387	5e937e8e4d246b6b4162ae72	4	1	main_z	7	main_z	45	stimuli_distractor_trianglediamonds.svg	stimuli_target_diamondsquares.svg	28	yes	44	1	896	0	0			0	0			1				0	
6.6.1	win	2023-06-02	06:29:58	06:34:03	241387	5e937e8e4d246b6b4162ae72	4	1	main_z	7	advance_on_keypress_ZEE	46	stimuli_distractor_trianglediamonds.svg	stimuli_target_diamondsquares.svg	28	yes	57	0	472	0	0			0	0			1				0	
6.6.1	win	2023-06-02	06:29:58	06:34:06	243768	5e937e8e4d246b6b4162ae72	4	1	main_z	7	main_z	47	stimuli_target_trianglerectangles.svg	stimuli_distractor_diamondtriangles.svg	21	yes	44	1	1262	0	0			0	0			1				0	
6.6.1	win	2023-06-02	06:29:58	06:34:06	243768	5e937e8e4d246b6b4162ae72	4	1	main_z	7	advance_on_keypress_ZEE	48	stimuli_target_trianglerectangles.svg	stimuli_distractor_diamondtriangles.svg	21	yes	57	0	654	0	0			0	0			1				0	
6.6.1	win	2023-06-02	06:29:58	06:34:08	246053	5e937e8e4d246b6b4162ae72	4	1	main_z	7	main_z	49	stimuli_target_diamondrectangles.svg	stimuli_distractor_diamondtriangles.svg	23	yes	44	1	981	0	0			0	0			1				0	
6.6.1	win	2023-06-02	06:29:58	06:34:08	246053	5e937e8e4d246b6b4162ae72	4	1	main_z	7	advance_on_keypress_ZEE	50	stimuli_target_diamondrectangles.svg	stimuli_distractor_diamondtriangles.svg	23	yes	57	0	408	0	0			0	0			1				0	
6.6.1	win	2023-06-02	06:29:58	06:34:10	248046	5e937e8e4d246b6b4162ae72	4	1	main_z	7	main_z	51	stimuli_distractor_diamondtriangles.svg	stimuli_target_squaretriangles.svg	15	yes	44	1	942	0	0			0	0			1				0	
6.6.1	win	2023-06-02	06:29:58	06:34:10	248046	5e937e8e4d246b6b4162ae72	4	1	main_z	7	advance_on_keypress_ZEE	52	stimuli_distractor_diamondtriangles.svg	stimuli_target_squaretriangles.svg	15	yes	57	0	354	0	0			0	0			1				0	
6.6.1	win	2023-06-02	06:29:58	06:34:13	251036	5e937e8e4d246b6b4162ae72	4	1	main_z	7	main_z	53	stimuli_distractor_diamondtriangles.svg	stimuli_distractor_trianglediamonds.svg	38	no	0	1	2000	0	0			0	0			1				0	
6.6.1	win	2023-06-02	06:29:58	06:34:13	251036	5e937e8e4d246b6b4162ae72	4	1	main_z	7	advance_on_keypress_ZEE	54	stimuli_distractor_diamondtriangles.svg	stimuli_distractor_trianglediamonds.svg	38	no	57	0	376	0	0			0	0			1				0	
6.6.1	win	2023-06-02	06:29:58	06:34:15	252988	5e937e8e4d246b6b4162ae72	4	1	main_z	7	main_z	55	stimuli_distractor_diamondtriangles.svg	stimuli_target_squarediamonds.svg	16	yes	44	1	921	0	0			0	0			1				0	
6.6.1	win	2023-06-02	06:29:58	06:34:15	252988	5e937e8e4d246b6b4162ae72	4	1	main_z	7	advance_on_keypress_ZEE	56	stimuli_distractor_diamondtriangles.svg	stimuli_target_squarediamonds.svg	16	yes	57	0	517	0	0			0	0			1				0	
6.6.1	win	2023-06-02	06:29:58	06:34:17	255117	5e937e8e4d246b6b4162ae72	4	1	main_z	7	main_z	57	stimuli_target_rectanglediamonds.svg	stimuli_distractor_diamondtriangles.svg	6	yes	44	1	968	0	0			0	0			1				0	
6.6.1	win	2023-06-02	06:29:58	06:34:17	255117	5e937e8e4d246b6b4162ae72	4	1	main_z	7	advance_on_keypress_ZEE	58	stimuli_target_rectanglediamonds.svg	stimuli_distractor_diamondtriangles.svg	6	yes	57	0	478	0	0			0	0			1				0	
6.6.1	win	2023-06-02	06:29:58	06:34:19	257140	5e937e8e4d246b6b4162ae72	4	1	main_z	7	main_z	59	stimuli_target_rectangletriangles.svg	stimuli_distractor_trianglediamonds.svg	1	yes	44	1	875	0	0			0	0			1				0	
6.6.1	win	2023-06-02	06:29:58	06:34:19	257140	5e937e8e4d246b6b4162ae72	4	1	main_z	7	advance_on_keypress_ZEE	60	stimuli_target_rectangletriangles.svg	stimuli_distractor_trianglediamonds.svg	1	yes	57	0	525	0	0			0	0			1				0	
6.6.1	win	2023-06-02	06:29:58	06:34:21	259233	5e937e8e4d246b6b4162ae72	4	1	main_z	7	main_z	61	stimuli_target_squarediamonds.svg	stimuli_distractor_diamondtriangles.svg	8	yes	44	1	936	0	0			0	0			1				0	
6.6.1	win	2023-06-02	06:29:58	06:34:21	259233	5e937e8e4d246b6b4162ae72	4	1	main_z	7	advance_on_keypress_ZEE	62	stimuli_target_squarediamonds.svg	stimuli_distractor_diamondtriangles.svg	8	yes	57	0	431	0	0			0	0			1				0	
6.6.1	win	2023-06-02	06:29:58	06:34:24	262312	5e937e8e4d246b6b4162ae72	4	1	main_z	7	main_z	63	stimuli_distractor_trianglediamonds.svg	stimuli_distractor_trianglediamonds.svg	34	no	0	1	2000	0	0			0	0			1				0	
6.6.1	win	2023-06-02	06:29:58	06:34:24	262312	5e937e8e4d246b6b4162ae72	4	1	main_z	7	advance_on_keypress_ZEE	64	stimuli_distractor_trianglediamonds.svg	stimuli_distractor_trianglediamonds.svg	34	no	57	0	358	0	0			0	0			1				0	
6.6.1	win	2023-06-02	06:29:58	06:34:26	264243	5e937e8e4d246b6b4162ae72	4	1	main_z	7	main_z	65	stimuli_distractor_trianglediamonds.svg	stimuli_target_rectanglediamonds.svg	10	yes	44	1	932	0	0			0	0			1				0	
6.6.1	win	2023-06-02	06:29:58	06:34:26	264243	5e937e8e4d246b6b4162ae72	4	1	main_z	7	advance_on_keypress_ZEE	66	stimuli_distractor_trianglediamonds.svg	stimuli_target_rectanglediamonds.svg	10	yes	57	0	471	0	0			0	0			1				0	
6.6.1	win	2023-06-02	06:29:58	06:34:29	267371	5e937e8e4d246b6b4162ae72	4	1	main_z	7	main_z	67	stimuli_distractor_diamondtriangles.svg	stimuli_distractor_trianglediamonds.svg	37	no	0	1	2000	0	0			0	0			1				0	
6.6.1	win	2023-06-02	06:29:58	06:34:29	267371	5e937e8e4d246b6b4162ae72	4	1	main_z	7	advance_on_keypress_ZEE	68	stimuli_distractor_diamondtriangles.svg	stimuli_distractor_trianglediamonds.svg	37	no	57	0	391	0	0			0	0			1				0	
6.6.1	win	2023-06-02	06:29:58	06:34:31	269427	5e937e8e4d246b6b4162ae72	4	1	main_z	7	main_z	69	stimuli_distractor_diamondtriangles.svg	stimuli_target_diamondsquares.svg	32	yes	44	1	1019	0	0			0	0			1				0	
6.6.1	win	2023-06-02	06:29:58	06:34:31	269427	5e937e8e4d246b6b4162ae72	4	1	main_z	7	advance_on_keypress_ZEE	70	stimuli_distractor_diamondtriangles.svg	stimuli_target_diamondsquares.svg	32	yes	57	0	503	0	0			0	0			1				0	
6.6.1	win	2023-06-02	06:29:58	06:34:34	271536	5e937e8e4d246b6b4162ae72	4	1	main_z	7	main_z	71	stimuli_target_trianglesquares.svg	stimuli_distractor_trianglediamonds.svg	18	yes	44	1	963	0	0			0	0			1				0	
6.6.1	win	2023-06-02	06:29:58	06:34:34	271536	5e937e8e4d246b6b4162ae72	4	1	main_z	7	advance_on_keypress_ZEE	72	stimuli_target_trianglesquares.svg	stimuli_distractor_trianglediamonds.svg	18	yes	57	0	574	0	0			0	0			1				0	
6.6.1	win	2023-06-02	06:29:58	06:34:36	273633	5e937e8e4d246b6b4162ae72	4	1	main_z	7	main_z	73	stimuli_distractor_diamondtriangles.svg	stimuli_target_trianglerectangles.svg	29	yes	44	1	879	0	0			0	0			1				0	
6.6.1	win	2023-06-02	06:29:58	06:34:36	273633	5e937e8e4d246b6b4162ae72	4	1	main_z	7	advance_on_keypress_ZEE	74	stimuli_distractor_diamondtriangles.svg	stimuli_target_trianglerectangles.svg	29	yes	57	0	493	0	0			0	0			1				0	
6.6.1	win	2023-06-02	06:29:58	06:34:39	276770	5e937e8e4d246b6b4162ae72	4	1	main_z	7	main_z	75	stimuli_distractor_trianglediamonds.svg	stimuli_distractor_trianglediamonds.svg	33	no	0	1	2000	0	0			0	0			1				0	
6.6.1	win	2023-06-02	06:29:58	06:34:39	276770	5e937e8e4d246b6b4162ae72	4	1	main_z	7	advance_on_keypress_ZEE	76	stimuli_distractor_trianglediamonds.svg	stimuli_distractor_trianglediamonds.svg	33	no	57	0	423	0	0			0	0			1				0	
6.6.1	win	2023-06-02	06:29:58	06:34:41	278753	5e937e8e4d246b6b4162ae72	4	1	main_z	7	main_z	77	stimuli_distractor_trianglediamonds.svg	stimuli_target_trianglesquares.svg	26	yes	44	1	919	0	0			0	0			1				0	
6.6.1	win	2023-06-02	06:29:58	06:34:41	278753	5e937e8e4d246b6b4162ae72	4	1	main_z	7	advance_on_keypress_ZEE	78	stimuli_distractor_trianglediamonds.svg	stimuli_target_trianglesquares.svg	26	yes	57	0	478	0	0			0	0			1				0	
6.6.1	win	2023-06-02	06:29:58	06:34:43	280765	5e937e8e4d246b6b4162ae72	4	1	main_z	7	main_z	79	stimuli_target_trianglesquares.svg	stimuli_distractor_diamondtriangles.svg	22	yes	44	1	882	0	0			0	0			1				0	
6.6.1	win	2023-06-02	06:29:58	06:34:43	280765	5e937e8e4d246b6b4162ae72	4	1	main_z	7	advance_on_keypress_ZEE	80	stimuli_target_trianglesquares.svg	stimuli_distractor_diamondtriangles.svg	22	yes	57	0	435	0	0			0	0			1				0	
6.6.1	win	2023-06-02	06:29:58	06:34:45	282830	5e937e8e4d246b6b4162ae72	4	1	main_z	7	main_z	81	stimuli_target_diamondrectangles.svg	stimuli_distractor_diamondtriangles.svg	23	yes	44	1	982	0	0			0	0			1				0	
6.6.1	win	2023-06-02	06:29:58	06:34:45	282830	5e937e8e4d246b6b4162ae72	4	1	main_z	7	advance_on_keypress_ZEE	82	stimuli_target_diamondrectangles.svg	stimuli_distractor_diamondtriangles.svg	23	yes	57	0	498	0	0			0	0			1				0	
6.6.1	win	2023-06-02	06:29:58	06:34:47	284941	5e937e8e4d246b6b4162ae72	4	1	main_z	7	main_z	83	stimuli_distractor_diamondtriangles.svg	stimuli_target_diamondsquares.svg	32	yes	44	1	961	0	0			0	0			1				0	
6.6.1	win	2023-06-02	06:29:58	06:34:47	284941	5e937e8e4d246b6b4162ae72	4	1	main_z	7	advance_on_keypress_ZEE	84	stimuli_distractor_diamondtriangles.svg	stimuli_target_diamondsquares.svg	32	yes	57	0	506	0	0			0	0			1				0	
6.6.1	win	2023-06-02	06:29:58	06:34:49	287012	5e937e8e4d246b6b4162ae72	4	1	main_z	7	main_z	85	stimuli_target_rectangletriangles.svg	stimuli_distractor_trianglediamonds.svg	1	yes	44	1	917	0	0			0	0			1				0	
6.6.1	win	2023-06-02	06:29:58	06:34:49	287012	5e937e8e4d246b6b4162ae72	4	1	main_z	7	advance_on_keypress_ZEE	86	stimuli_target_rectangletriangles.svg	stimuli_distractor_trianglediamonds.svg	1	yes	57	0	569	0	0			0	0			1				0	
6.6.1	win	2023-06-02	06:29:58	06:34:51	289296	5e937e8e4d246b6b4162ae72	4	1	main_z	7	main_z	87	stimuli_distractor_trianglediamonds.svg	stimuli_target_diamondrectangles.svg	27	yes	44	1	1069	0	0			0	0			1				0	
6.6.1	win	2023-06-02	06:29:58	06:34:51	289296	5e937e8e4d246b6b4162ae72	4	1	main_z	7	advance_on_keypress_ZEE	88	stimuli_distractor_trianglediamonds.svg	stimuli_target_diamondrectangles.svg	27	yes	57	0	588	0	0			0	0			1				0	
6.6.1	win	2023-06-02	06:29:58	06:34:54	291544	5e937e8e4d246b6b4162ae72	4	1	main_z	7	main_z	89	stimuli_target_rectanglediamonds.svg	stimuli_distractor_diamondtriangles.svg	6	yes	44	1	1017	0	0			0	0			1				0	
6.6.1	win	2023-06-02	06:29:58	06:34:54	291544	5e937e8e4d246b6b4162ae72	4	1	main_z	7	advance_on_keypress_ZEE	90	stimuli_target_rectanglediamonds.svg	stimuli_distractor_diamondtriangles.svg	6	yes	57	0	433	0	0			0	0			1				0	
6.6.1	win	2023-06-02	06:29:58	06:34:56	293547	5e937e8e4d246b6b4162ae72	4	1	main_z	7	main_z	91	stimuli_target_squaretriangles.svg	stimuli_distractor_trianglediamonds.svg	3	yes	44	1	923	0	0			0	0			1				0	
6.6.1	win	2023-06-02	06:29:58	06:34:56	293547	5e937e8e4d246b6b4162ae72	4	1	main_z	7	advance_on_keypress_ZEE	92	stimuli_target_squaretriangles.svg	stimuli_distractor_trianglediamonds.svg	3	yes	57	0	543	0	0			0	0			1				0	
6.6.1	win	2023-06-02	06:29:58	06:34:58	295656	5e937e8e4d246b6b4162ae72	4	1	main_z	7	main_z	93	stimuli_distractor_trianglediamonds.svg	stimuli_target_rectanglediamonds.svg	10	yes	44	1	933	0	0			0	0			1				0	
6.6.1	win	2023-06-02	06:29:58	06:34:58	295656	5e937e8e4d246b6b4162ae72	4	1	main_z	7	advance_on_keypress_ZEE	94	stimuli_distractor_trianglediamonds.svg	stimuli_target_rectanglediamonds.svg	10	yes	57	0	574	0	0			0	0			1				0	
6.6.1	win	2023-06-02	06:29:58	06:35:00	297928	5e937e8e4d246b6b4162ae72	4	1	main_z	7	main_z	95	stimuli_distractor_trianglediamonds.svg	stimuli_distractor_diamondtriangles.svg	35	no	44	0	1054	0	0			0	0			1				0	
6.6.1	win	2023-06-02	06:29:58	06:35:00	297928	5e937e8e4d246b6b4162ae72	4	1	main_z	7	advance_on_keypress_ZEE	96	stimuli_distractor_trianglediamonds.svg	stimuli_distractor_diamondtriangles.svg	35	no	57	0	499	0	0			0	0			1				0	
6.6.1	win	2023-06-02	06:29:58	06:35:02	299986	5e937e8e4d246b6b4162ae72	4	1	main_z	7	main_z	97	stimuli_target_trianglesquares.svg	stimuli_distractor_trianglediamonds.svg	18	yes	44	1	915	0	0			0	0			1				0	
6.6.1	win	2023-06-02	06:29:58	06:35:02	299986	5e937e8e4d246b6b4162ae72	4	1	main_z	7	advance_on_keypress_ZEE	98	stimuli_target_trianglesquares.svg	stimuli_distractor_trianglediamonds.svg	18	yes	57	0	545	0	0			0	0			1				0	
6.6.1	win	2023-06-02	06:29:58	06:35:04	302250	5e937e8e4d246b6b4162ae72	4	1	main_z	7	main_z	99	stimuli_distractor_diamondtriangles.svg	stimuli_target_trianglesquares.svg	30	yes	44	1	1064	0	0			0	0			1				0	
6.6.1	win	2023-06-02	06:29:58	06:35:04	302250	5e937e8e4d246b6b4162ae72	4	1	main_z	7	advance_on_keypress_ZEE	100	stimuli_distractor_diamondtriangles.svg	stimuli_target_trianglesquares.svg	30	yes	57	0	438	0	0			0	0			1				0	
6.6.1	win	2023-06-02	06:29:58	06:35:06	304431	5e937e8e4d246b6b4162ae72	4	1	main_z	7	main_z	101	stimuli_distractor_trianglediamonds.svg	stimuli_target_trianglerectangles.svg	25	yes	44	1	1097	0	0			0	0			1				0	
6.6.1	win	2023-06-02	06:29:58	06:35:06	304431	5e937e8e4d246b6b4162ae72	4	1	main_z	7	advance_on_keypress_ZEE	102	stimuli_distractor_trianglediamonds.svg	stimuli_target_trianglerectangles.svg	25	yes	57	0	431	0	0			0	0			1				0	
6.6.1	win	2023-06-02	06:29:58	06:35:09	306559	5e937e8e4d246b6b4162ae72	4	1	main_z	7	main_z	103	stimuli_distractor_trianglediamonds.svg	stimuli_target_rectangletriangles.svg	9	yes	44	1	1043	0	0			0	0			1				0	
6.6.1	win	2023-06-02	06:29:58	06:35:09	306559	5e937e8e4d246b6b4162ae72	4	1	main_z	7	advance_on_keypress_ZEE	104	stimuli_distractor_trianglediamonds.svg	stimuli_target_rectangletriangles.svg	9	yes	57	0	567	0	0			0	0			1				0	
6.6.1	win	2023-06-02	06:29:58	06:35:11	308765	5e937e8e4d246b6b4162ae72	4	1	main_z	7	main_z	105	stimuli_target_rectangletriangles.svg	stimuli_distractor_diamondtriangles.svg	5	yes	44	1	1000	0	0			0	0			1				0	
6.6.1	win	2023-06-02	06:29:58	06:35:11	308765	5e937e8e4d246b6b4162ae72	4	1	main_z	7	advance_on_keypress_ZEE	106	stimuli_target_rectangletriangles.svg	stimuli_distractor_diamondtriangles.svg	5	yes	57	0	572	0	0			0	0			1				0	
6.6.1	win	2023-06-02	06:29:58	06:35:13	311176	5e937e8e4d246b6b4162ae72	4	1	main_z	7	main_z	107	stimuli_target_diamondrectangles.svg	stimuli_distractor_trianglediamonds.svg	19	yes	44	1	1195	0	0			0	0			1				0	
6.6.1	win	2023-06-02	06:29:58	06:35:13	311176	5e937e8e4d246b6b4162ae72	4	1	main_z	7	advance_on_keypress_ZEE	108	stimuli_target_diamondrectangles.svg	stimuli_distractor_trianglediamonds.svg	19	yes	57	0	488	0	0			0	0			1				0	
6.6.1	win	2023-06-02	06:29:58	06:35:15	313406	5e937e8e4d246b6b4162ae72	4	1	main_z	7	main_z	109	stimuli_distractor_diamondtriangles.svg	stimuli_target_squarediamonds.svg	16	yes	44	1	1094	0	0			0	0			1				0	
6.6.1	win	2023-06-02	06:29:58	06:35:15	313406	5e937e8e4d246b6b4162ae72	4	1	main_z	7	advance_on_keypress_ZEE	110	stimuli_distractor_diamondtriangles.svg	stimuli_target_squarediamonds.svg	16	yes	57	0	466	0	0			0	0			1				0	
6.6.1	win	2023-06-02	06:29:58	06:35:19	316527	5e937e8e4d246b6b4162ae72	4	1	main_z	7	main_z	111	stimuli_distractor_diamondtriangles.svg	stimuli_distractor_diamondtriangles.svg	39	no	0	1	2000	0	0			0	0			1				0	
6.6.1	win	2023-06-02	06:29:58	06:35:19	316527	5e937e8e4d246b6b4162ae72	4	1	main_z	7	advance_on_keypress_ZEE	112	stimuli_distractor_diamondtriangles.svg	stimuli_distractor_diamondtriangles.svg	39	no	57	0	565	0	0			0	0			1				0	
6.6.1	win	2023-06-02	06:29:58	06:35:21	318778	5e937e8e4d246b6b4162ae72	4	1	main_z	7	main_z	113	stimuli_target_trianglesquares.svg	stimuli_distractor_diamondtriangles.svg	22	yes	44	1	1035	0	0			0	0			1				0	
6.6.1	win	2023-06-02	06:29:58	06:35:21	318778	5e937e8e4d246b6b4162ae72	4	1	main_z	7	advance_on_keypress_ZEE	114	stimuli_target_trianglesquares.svg	stimuli_distractor_diamondtriangles.svg	22	yes	57	0	602	0	0			0	0			1				0	
6.6.1	win	2023-06-02	06:29:58	06:35:23	321105	5e937e8e4d246b6b4162ae72	4	1	main_z	7	main_z	115	stimuli_distractor_trianglediamonds.svg	stimuli_target_trianglesquares.svg	26	yes	44	1	1081	0	0			0	0			1				0	
6.6.1	win	2023-06-02	06:29:58	06:35:23	321105	5e937e8e4d246b6b4162ae72	4	1	main_z	7	advance_on_keypress_ZEE	116	stimuli_distractor_trianglediamonds.svg	stimuli_target_trianglesquares.svg	26	yes	57	0	655	0	0			0	0			1				0	
6.6.1	win	2023-06-02	06:29:58	06:35:26	324406	5e937e8e4d246b6b4162ae72	4	1	main_z	7	main_z	117	stimuli_distractor_trianglediamonds.svg	stimuli_distractor_trianglediamonds.svg	33	no	0	1	2000	0	0			0	0			1				0	
6.6.1	win	2023-06-02	06:29:58	06:35:26	324406	5e937e8e4d246b6b4162ae72	4	1	main_z	7	advance_on_keypress_ZEE	118	stimuli_distractor_trianglediamonds.svg	stimuli_distractor_trianglediamonds.svg	33	no	57	0	371	0	0			0	0			1				0	
6.6.1	win	2023-06-02	06:29:58	06:35:28	326404	5e937e8e4d246b6b4162ae72	4	1	main_z	7	main_z	119	stimuli_distractor_trianglediamonds.svg	stimuli_target_squarediamonds.svg	12	yes	44	1	983	0	0			0	0			1				0	
6.6.1	win	2023-06-02	06:29:58	06:35:28	326404	5e937e8e4d246b6b4162ae72	4	1	main_z	7	advance_on_keypress_ZEE	120	stimuli_distractor_trianglediamonds.svg	stimuli_target_squarediamonds.svg	12	yes	57	0	436	0	0			0	0			1				0	
6.6.1	win	2023-06-02	06:29:58	06:35:30	328253	5e937e8e4d246b6b4162ae72	4	1	main_z	7	main_z	121	stimuli_distractor_diamondtriangles.svg	stimuli_target_trianglerectangles.svg	29	yes	44	1	767	0	0			0	0			1				0	
6.6.1	win	2023-06-02	06:29:58	06:35:30	328253	5e937e8e4d246b6b4162ae72	4	1	main_z	7	advance_on_keypress_ZEE	122	stimuli_distractor_diamondtriangles.svg	stimuli_target_trianglerectangles.svg	29	yes	57	0	627	0	0			0	0			1				0	
6.6.1	win	2023-06-02	06:29:58	06:35:32	330366	5e937e8e4d246b6b4162ae72	4	1	main_z	7	main_z	123	stimuli_target_diamondsquares.svg	stimuli_distractor_trianglediamonds.svg	20	yes	44	1	830	0	0			0	0			1				0	
6.6.1	win	2023-06-02	06:29:58	06:35:32	330366	5e937e8e4d246b6b4162ae72	4	1	main_z	7	advance_on_keypress_ZEE	124	stimuli_target_diamondsquares.svg	stimuli_distractor_trianglediamonds.svg	20	yes	57	0	513	0	0			0	0			1				0	
6.6.1	win	2023-06-02	06:29:58	06:35:35	332609	5e937e8e4d246b6b4162ae72	4	1	main_z	7	main_z	125	stimuli_target_trianglerectangles.svg	stimuli_distractor_diamondtriangles.svg	21	yes	44	1	1076	0	0			0	0			1				0	
6.6.1	win	2023-06-02	06:29:58	06:35:35	332609	5e937e8e4d246b6b4162ae72	4	1	main_z	7	advance_on_keypress_ZEE	126	stimuli_target_trianglerectangles.svg	stimuli_distractor_diamondtriangles.svg	21	yes	57	0	594	0	0			0	0			1				0	
6.6.1	win	2023-06-02	06:29:58	06:35:37	334750	5e937e8e4d246b6b4162ae72	4	1	main_z	7	main_z	127	stimuli_target_squarediamonds.svg	stimuli_distractor_diamondtriangles.svg	8	yes	44	1	902	0	0			0	0			1				0	
6.6.1	win	2023-06-02	06:29:58	06:35:37	334750	5e937e8e4d246b6b4162ae72	4	1	main_z	7	advance_on_keypress_ZEE	128	stimuli_target_squarediamonds.svg	stimuli_distractor_diamondtriangles.svg	8	yes	57	0	587	0	0			0	0			1				0	
6.6.1	win	2023-06-02	06:29:58	06:35:39	337046	5e937e8e4d246b6b4162ae72	4	1	main_z	7	main_z	129	stimuli_distractor_diamondtriangles.svg	stimuli_target_rectangletriangles.svg	13	yes	44	1	1066	0	0			0	0			1				0	
6.6.1	win	2023-06-02	06:29:58	06:35:39	337046	5e937e8e4d246b6b4162ae72	4	1	main_z	7	advance_on_keypress_ZEE	130	stimuli_distractor_diamondtriangles.svg	stimuli_target_rectangletriangles.svg	13	yes	57	0	570	0	0			0	0			1				0	
6.6.1	win	2023-06-02	06:29:58	06:35:41	339348	5e937e8e4d246b6b4162ae72	4	1	main_z	7	main_z	131	stimuli_distractor_trianglediamonds.svg	stimuli_target_diamondsquares.svg	28	yes	44	1	1086	0	0			0	0			1				0	
6.6.1	win	2023-06-02	06:29:58	06:35:41	339348	5e937e8e4d246b6b4162ae72	4	1	main_z	7	advance_on_keypress_ZEE	132	stimuli_distractor_trianglediamonds.svg	stimuli_target_diamondsquares.svg	28	yes	57	0	580	0	0			0	0			1				0	
6.6.1	win	2023-06-02	06:29:58	06:35:44	341543	5e937e8e4d246b6b4162ae72	4	1	main_z	7	main_z	133	stimuli_target_diamondsquares.svg	stimuli_distractor_diamondtriangles.svg	24	yes	44	1	966	0	0			0	0			1				0	
6.6.1	win	2023-06-02	06:29:58	06:35:44	341543	5e937e8e4d246b6b4162ae72	4	1	main_z	7	advance_on_keypress_ZEE	134	stimuli_target_diamondsquares.svg	stimuli_distractor_diamondtriangles.svg	24	yes	57	0	748	0	0			0	0			1				0	
6.6.1	win	2023-06-02	06:29:58	06:35:46	344104	5e937e8e4d246b6b4162ae72	4	1	main_z	7	main_z	135	stimuli_target_rectanglediamonds.svg	stimuli_distractor_trianglediamonds.svg	2	yes	44	1	1161	0	0			0	0			1				0	
6.6.1	win	2023-06-02	06:29:58	06:35:46	344104	5e937e8e4d246b6b4162ae72	4	1	main_z	7	advance_on_keypress_ZEE	136	stimuli_target_rectanglediamonds.svg	stimuli_distractor_trianglediamonds.svg	2	yes	57	0	697	0	0			0	0			1				0	
6.6.1	win	2023-06-02	06:29:58	06:35:49	346534	5e937e8e4d246b6b4162ae72	4	1	main_z	7	main_z	137	stimuli_target_squarediamonds.svg	stimuli_distractor_trianglediamonds.svg	4	yes	44	1	1077	0	0			0	0			1				0	
6.6.1	win	2023-06-02	06:29:58	06:35:49	346534	5e937e8e4d246b6b4162ae72	4	1	main_z	7	advance_on_keypress_ZEE	138	stimuli_target_squarediamonds.svg	stimuli_distractor_trianglediamonds.svg	4	yes	57	0	697	0	0			0	0			1				0	
6.6.1	win	2023-06-02	06:29:58	06:35:51	348806	5e937e8e4d246b6b4162ae72	4	1	main_z	7	main_z	139	stimuli_distractor_diamondtriangles.svg	stimuli_target_squaretriangles.svg	15	yes	44	1	934	0	0			0	0			1				0	
6.6.1	win	2023-06-02	06:29:58	06:35:51	348806	5e937e8e4d246b6b4162ae72	4	1	main_z	7	advance_on_keypress_ZEE	140	stimuli_distractor_diamondtriangles.svg	stimuli_target_squaretriangles.svg	15	yes	57	0	618	0	0			0	0			1				0	
6.6.1	win	2023-06-02	06:29:58	06:35:54	352071	5e937e8e4d246b6b4162ae72	4	1	main_z	7	main_z	141	stimuli_distractor_trianglediamonds.svg	stimuli_distractor_diamondtriangles.svg	36	no	0	1	2000	0	0			0	0			1				0	
6.6.1	win	2023-06-02	06:29:58	06:35:54	352071	5e937e8e4d246b6b4162ae72	4	1	main_z	7	advance_on_keypress_ZEE	142	stimuli_distractor_trianglediamonds.svg	stimuli_distractor_diamondtriangles.svg	36	no	57	0	466	0	0			0	0			1				0	
6.6.1	win	2023-06-02	06:29:58	06:35:57	355186	5e937e8e4d246b6b4162ae72	4	1	main_z	7	main_z	143	stimuli_target_squaretriangles.svg	stimuli_distractor_diamondtriangles.svg	7	yes	0	0	2000	0	0			0	0			1				0	
6.6.1	win	2023-06-02	06:29:58	06:35:57	355186	5e937e8e4d246b6b4162ae72	4	1	main_z	7	advance_on_keypress_ZEE	144	stimuli_target_squaretriangles.svg	stimuli_distractor_diamondtriangles.svg	7	yes	57	0	431	0	0			0	0			1				0	
6.6.1	win	2023-06-02	06:29:58	06:36:00	358267	5e937e8e4d246b6b4162ae72	4	1	main_z	7	main_z	145	stimuli_distractor_trianglediamonds.svg	stimuli_distractor_trianglediamonds.svg	34	no	0	1	2000	0	0			0	0			1				0	
6.6.1	win	2023-06-02	06:29:58	06:36:00	358267	5e937e8e4d246b6b4162ae72	4	1	main_z	7	advance_on_keypress_ZEE	146	stimuli_distractor_trianglediamonds.svg	stimuli_distractor_trianglediamonds.svg	34	no	57	0	467	0	0			0	0			1				0	
6.6.1	win	2023-06-02	06:29:58	06:36:03	361384	5e937e8e4d246b6b4162ae72	4	1	main_z	7	main_z	147	stimuli_distractor_diamondtriangles.svg	stimuli_distractor_trianglediamonds.svg	38	no	0	1	2000	0	0			0	0			1				0	
6.6.1	win	2023-06-02	06:29:58	06:36:03	361384	5e937e8e4d246b6b4162ae72	4	1	main_z	7	advance_on_keypress_ZEE	148	stimuli_distractor_diamondtriangles.svg	stimuli_distractor_trianglediamonds.svg	38	no	57	0	396	0	0			0	0			1				0	
6.6.1	win	2023-06-02	06:29:58	06:36:05	363362	5e937e8e4d246b6b4162ae72	4	1	main_z	7	main_z	149	stimuli_distractor_diamondtriangles.svg	stimuli_target_diamondrectangles.svg	31	yes	44	1	932	0	0			0	0			1				0	
6.6.1	win	2023-06-02	06:29:58	06:36:05	363362	5e937e8e4d246b6b4162ae72	4	1	main_z	7	advance_on_keypress_ZEE	150	stimuli_distractor_diamondtriangles.svg	stimuli_target_diamondrectangles.svg	31	yes	57	0	552	0	0			0	0			1				0	
6.6.1	win	2023-06-02	06:29:58	06:36:07	365451	5e937e8e4d246b6b4162ae72	4	1	main_z	7	main_z	151	stimuli_distractor_diamondtriangles.svg	stimuli_target_rectanglediamonds.svg	14	yes	44	1	888	0	0			0	0			1				0	
6.6.1	win	2023-06-02	06:29:58	06:36:07	365451	5e937e8e4d246b6b4162ae72	4	1	main_z	7	advance_on_keypress_ZEE	152	stimuli_distractor_diamondtriangles.svg	stimuli_target_rectanglediamonds.svg	14	yes	57	0	611	0	0			0	0			1				0	
6.6.1	win	2023-06-02	06:29:58	06:36:11	368711	5e937e8e4d246b6b4162ae72	4	1	main_z	7	main_z	153	stimuli_distractor_diamondtriangles.svg	stimuli_distractor_trianglediamonds.svg	37	no	0	1	2000	0	0			0	0			1				0	
6.6.1	win	2023-06-02	06:29:58	06:36:11	368711	5e937e8e4d246b6b4162ae72	4	1	main_z	7	advance_on_keypress_ZEE	154	stimuli_distractor_diamondtriangles.svg	stimuli_distractor_trianglediamonds.svg	37	no	57	0	440	0	0			0	0			1				0	
6.6.1	win	2023-06-02	06:29:58	06:36:13	370835	5e937e8e4d246b6b4162ae72	4	1	main_z	7	main_z	155	stimuli_distractor_trianglediamonds.svg	stimuli_target_squaretriangles.svg	11	yes	44	1	1043	0	0			0	0			1				0	
6.6.1	win	2023-06-02	06:29:58	06:36:13	370835	5e937e8e4d246b6b4162ae72	4	1	main_z	7	advance_on_keypress_ZEE	156	stimuli_distractor_trianglediamonds.svg	stimuli_target_squaretriangles.svg	11	yes	57	0	552	0	0			0	0			1				0	
6.6.1	win	2023-06-02	06:29:58	06:36:16	374024	5e937e8e4d246b6b4162ae72	4	1	main_z	7	main_z	157	stimuli_target_trianglerectangles.svg	stimuli_distractor_trianglediamonds.svg	17	yes	0	0	2000	0	0			0	0			1				0	
6.6.1	win	2023-06-02	06:29:58	06:36:16	374024	5e937e8e4d246b6b4162ae72	4	1	main_z	7	advance_on_keypress_ZEE	158	stimuli_target_trianglerectangles.svg	stimuli_distractor_trianglediamonds.svg	17	yes	57	0	422	0	0			0	0			1				0	
6.6.1	win	2023-06-02	06:29:58	06:36:19	377089	5e937e8e4d246b6b4162ae72	4	1	main_z	7	main_z	159	stimuli_distractor_diamondtriangles.svg	stimuli_distractor_diamondtriangles.svg	40	no	0	1	2000	0	0			0	0			1				0	
6.6.1	win	2023-06-02	06:29:58	06:36:19	377089	5e937e8e4d246b6b4162ae72	4	1	main_z	7	advance_on_keypress_ZEE	160	stimuli_distractor_diamondtriangles.svg	stimuli_distractor_diamondtriangles.svg	40	no	57	0	452	0	0			0	0			1				0	
6.6.1	win	2023-06-02	06:29:58	06:36:46	403725	5e937e8e4d246b6b4162ae72	4	1	practice_slash	9	practice_slash	1	stimuli_distractor_diamondtriangles.svg	stimuli_distractor_diamondtriangles.svg	13	no	0	1	2000	0	0			0	0			1				0	
6.6.1	win	2023-06-02	06:29:58	06:36:46	403725	5e937e8e4d246b6b4162ae72	4	1	practice_slash	9	advance_on_keypress_SLASH	2	stimuli_distractor_diamondtriangles.svg	stimuli_distractor_diamondtriangles.svg	13	no	57	0	462	0	0			0	0			1				0	
6.6.1	win	2023-06-02	06:29:58	06:36:49	406531	5e937e8e4d246b6b4162ae72	4	1	practice_slash	9	practice_slash	3	stimuli_distractor_trianglediamonds.svg	stimuli_target_diamondrectangles.svg	12	yes	53	1	692	0	0			0	0			1				0	
6.6.1	win	2023-06-02	06:29:58	06:36:49	406531	5e937e8e4d246b6b4162ae72	4	1	practice_slash	9	advance_on_keypress_SLASH	4	stimuli_distractor_trianglediamonds.svg	stimuli_target_diamondrectangles.svg	12	yes	57	0	513	0	0			0	0			1				0	
6.6.1	win	2023-06-02	06:29:58	06:36:52	409741	5e937e8e4d246b6b4162ae72	4	1	practice_slash	9	practice_slash	5	stimuli_distractor_trianglediamonds.svg	stimuli_target_squarediamonds.svg	11	yes	53	1	1039	0	0			0	0			1				0	
6.6.1	win	2023-06-02	06:29:58	06:36:52	409741	5e937e8e4d246b6b4162ae72	4	1	practice_slash	9	advance_on_keypress_SLASH	6	stimuli_distractor_trianglediamonds.svg	stimuli_target_squarediamonds.svg	11	yes	57	0	426	0	0			0	0			1				0	
6.6.1	win	2023-06-02	06:29:58	06:36:55	412579	5e937e8e4d246b6b4162ae72	4	1	practice_slash	9	practice_slash	7	stimuli_distractor_diamondtriangles.svg	stimuli_target_diamondrectangles.svg	8	yes	53	1	761	0	0			0	0			1				0	
6.6.1	win	2023-06-02	06:29:58	06:36:55	412579	5e937e8e4d246b6b4162ae72	4	1	practice_slash	9	advance_on_keypress_SLASH	8	stimuli_distractor_diamondtriangles.svg	stimuli_target_diamondrectangles.svg	8	yes	57	0	395	0	0			0	0			1				0	
6.6.1	win	2023-06-02	06:29:58	06:36:59	416634	5e937e8e4d246b6b4162ae72	4	1	practice_slash	9	practice_slash	9	stimuli_distractor_diamondtriangles.svg	stimuli_distractor_trianglediamonds.svg	14	no	0	1	2000	0	0			0	0			1				0	
6.6.1	win	2023-06-02	06:29:58	06:36:59	416634	5e937e8e4d246b6b4162ae72	4	1	practice_slash	9	advance_on_keypress_SLASH	10	stimuli_distractor_diamondtriangles.svg	stimuli_distractor_trianglediamonds.svg	14	no	57	0	403	0	0			0	0			1				0	
6.6.1	win	2023-06-02	06:29:58	06:37:03	420681	5e937e8e4d246b6b4162ae72	4	1	practice_slash	9	practice_slash	11	stimuli_distractor_trianglediamonds.svg	stimuli_distractor_trianglediamonds.svg	15	no	0	1	2000	0	0			0	0			1				0	
6.6.1	win	2023-06-02	06:29:58	06:37:03	420681	5e937e8e4d246b6b4162ae72	4	1	practice_slash	9	advance_on_keypress_SLASH	12	stimuli_distractor_trianglediamonds.svg	stimuli_distractor_trianglediamonds.svg	15	no	57	0	462	0	0			0	0			1				0	
6.6.1	win	2023-06-02	06:29:58	06:37:06	423759	5e937e8e4d246b6b4162ae72	4	1	practice_slash	9	practice_slash	13	stimuli_distractor_diamondtriangles.svg	stimuli_target_rectangletriangles.svg	7	yes	53	1	965	0	0			0	0			1				0	
6.6.1	win	2023-06-02	06:29:58	06:37:06	423759	5e937e8e4d246b6b4162ae72	4	1	practice_slash	9	advance_on_keypress_SLASH	14	stimuli_distractor_diamondtriangles.svg	stimuli_target_rectangletriangles.svg	7	yes	57	0	710	0	0			0	0			1				0	
6.6.1	win	2023-06-02	06:29:58	06:37:09	426980	5e937e8e4d246b6b4162ae72	4	1	practice_slash	9	practice_slash	15	stimuli_target_rectanglediamonds.svg	stimuli_distractor_trianglediamonds.svg	4	yes	53	1	854	0	0			0	0			1				0	
6.6.1	win	2023-06-02	06:29:58	06:37:09	426980	5e937e8e4d246b6b4162ae72	4	1	practice_slash	9	advance_on_keypress_SLASH	16	stimuli_target_rectanglediamonds.svg	stimuli_distractor_trianglediamonds.svg	4	yes	57	0	421	0	0			0	0			1				0	
6.6.1	win	2023-06-02	06:29:58	06:37:12	429904	5e937e8e4d246b6b4162ae72	4	1	practice_slash	9	practice_slash	17	stimuli_distractor_diamondtriangles.svg	stimuli_target_trianglerectangles.svg	9	yes	53	1	863	0	0			0	0			1				0	
6.6.1	win	2023-06-02	06:29:58	06:37:12	429904	5e937e8e4d246b6b4162ae72	4	1	practice_slash	9	advance_on_keypress_SLASH	18	stimuli_distractor_diamondtriangles.svg	stimuli_target_trianglerectangles.svg	9	yes	57	0	438	0	0			0	0			1				0	
6.6.1	win	2023-06-02	06:29:58	06:37:15	432794	5e937e8e4d246b6b4162ae72	4	1	practice_slash	9	practice_slash	19	stimuli_target_rectanglediamonds.svg	stimuli_distractor_diamondtriangles.svg	1	yes	53	1	805	0	0			0	0			1				0	
6.6.1	win	2023-06-02	06:29:58	06:37:15	432794	5e937e8e4d246b6b4162ae72	4	1	practice_slash	9	advance_on_keypress_SLASH	20	stimuli_target_rectanglediamonds.svg	stimuli_distractor_diamondtriangles.svg	1	yes	57	0	411	0	0			0	0			1				0	
6.6.1	win	2023-06-02	06:29:58	06:37:18	435725	5e937e8e4d246b6b4162ae72	4	1	practice_slash	9	practice_slash	21	stimuli_target_squarediamonds.svg	stimuli_distractor_trianglediamonds.svg	5	yes	53	1	871	0	0			0	0			1				0	
6.6.1	win	2023-06-02	06:29:58	06:37:18	435725	5e937e8e4d246b6b4162ae72	4	1	practice_slash	9	advance_on_keypress_SLASH	22	stimuli_target_squarediamonds.svg	stimuli_distractor_trianglediamonds.svg	5	yes	57	0	498	0	0			0	0			1				0	
6.6.1	win	2023-06-02	06:29:58	06:37:21	438760	5e937e8e4d246b6b4162ae72	4	1	practice_slash	9	practice_slash	23	stimuli_distractor_trianglediamonds.svg	stimuli_target_rectanglediamonds.svg	10	yes	53	1	891	0	0			0	0			1				0	
6.6.1	win	2023-06-02	06:29:58	06:37:21	438760	5e937e8e4d246b6b4162ae72	4	1	practice_slash	9	advance_on_keypress_SLASH	24	stimuli_distractor_trianglediamonds.svg	stimuli_target_rectanglediamonds.svg	10	yes	57	0	414	0	0			0	0			1				0	
6.6.1	win	2023-06-02	06:29:58	06:37:25	442834	5e937e8e4d246b6b4162ae72	4	1	practice_slash	9	practice_slash	25	stimuli_distractor_trianglediamonds.svg	stimuli_distractor_diamondtriangles.svg	16	no	0	1	2000	0	0			0	0			1				0	
6.6.1	win	2023-06-02	06:29:58	06:37:25	442834	5e937e8e4d246b6b4162ae72	4	1	practice_slash	9	advance_on_keypress_SLASH	26	stimuli_distractor_trianglediamonds.svg	stimuli_distractor_diamondtriangles.svg	16	no	57	0	385	0	0			0	0			1				0	
6.6.1	win	2023-06-02	06:29:58	06:37:28	445906	5e937e8e4d246b6b4162ae72	4	1	practice_slash	9	practice_slash	27	stimuli_target_diamondsquares.svg	stimuli_distractor_diamondtriangles.svg	3	yes	53	1	1042	0	0			0	0			1				0	
6.6.1	win	2023-06-02	06:29:58	06:37:28	445906	5e937e8e4d246b6b4162ae72	4	1	practice_slash	9	advance_on_keypress_SLASH	28	stimuli_target_diamondsquares.svg	stimuli_distractor_diamondtriangles.svg	3	yes	57	0	456	0	0			0	0			1				0	
6.6.1	win	2023-06-02	06:29:58	06:37:31	448881	5e937e8e4d246b6b4162ae72	4	1	practice_slash	9	practice_slash	29	stimuli_target_squarediamonds.svg	stimuli_distractor_diamondtriangles.svg	2	yes	53	1	869	0	0			0	0			1				0	
6.6.1	win	2023-06-02	06:29:58	06:37:31	448881	5e937e8e4d246b6b4162ae72	4	1	practice_slash	9	advance_on_keypress_SLASH	30	stimuli_target_squarediamonds.svg	stimuli_distractor_diamondtriangles.svg	2	yes	57	0	447	0	0			0	0			1				0	
6.6.1	win	2023-06-02	06:29:58	06:37:34	451714	5e937e8e4d246b6b4162ae72	4	1	practice_slash	9	practice_slash	31	stimuli_target_diamondsquares.svg	stimuli_distractor_trianglediamonds.svg	6	yes	53	1	738	0	0			0	0			1				0	
6.6.1	win	2023-06-02	06:29:58	06:37:34	451714	5e937e8e4d246b6b4162ae72	4	1	practice_slash	9	advance_on_keypress_SLASH	32	stimuli_target_diamondsquares.svg	stimuli_distractor_trianglediamonds.svg	6	yes	57	0	402	0	0			0	0			1				0	
6.6.1	win	2023-06-02	06:29:58	06:37:37	455135	5e937e8e4d246b6b4162ae72	4	1	main_slash	11	main_slash	1	stimuli_distractor_diamondtriangles.svg	stimuli_target_squarediamonds.svg	16	yes	53	1	863	0	0			0	0			1				0	
6.6.1	win	2023-06-02	06:29:58	06:37:37	455135	5e937e8e4d246b6b4162ae72	4	1	main_slash	11	advance_on_keypress_SLASH	2	stimuli_distractor_diamondtriangles.svg	stimuli_target_squarediamonds.svg	16	yes	57	0	591	0	0			0	0			1				0	
6.6.1	win	2023-06-02	06:29:58	06:37:39	457221	5e937e8e4d246b6b4162ae72	4	1	main_slash	11	main_slash	3	stimuli_target_rectangletriangles.svg	stimuli_distractor_trianglediamonds.svg	1	yes	53	1	850	0	0			0	0			1				0	
6.6.1	win	2023-06-02	06:29:58	06:37:39	457221	5e937e8e4d246b6b4162ae72	4	1	main_slash	11	advance_on_keypress_SLASH	4	stimuli_target_rectangletriangles.svg	stimuli_distractor_trianglediamonds.svg	1	yes	57	0	580	0	0			0	0			1				0	
6.6.1	win	2023-06-02	06:29:58	06:37:42	460452	5e937e8e4d246b6b4162ae72	4	1	main_slash	11	main_slash	5	stimuli_distractor_trianglediamonds.svg	stimuli_distractor_trianglediamonds.svg	34	no	0	1	2000	0	0			0	0			1				0	
6.6.1	win	2023-06-02	06:29:58	06:37:42	460452	5e937e8e4d246b6b4162ae72	4	1	main_slash	11	advance_on_keypress_SLASH	6	stimuli_distractor_trianglediamonds.svg	stimuli_distractor_trianglediamonds.svg	34	no	57	0	489	0	0			0	0			1				0	
6.6.1	win	2023-06-02	06:29:58	06:37:44	462411	5e937e8e4d246b6b4162ae72	4	1	main_slash	11	main_slash	7	stimuli_target_squarediamonds.svg	stimuli_distractor_trianglediamonds.svg	4	yes	53	1	827	0	0			0	0			1				0	
6.6.1	win	2023-06-02	06:29:58	06:37:44	462411	5e937e8e4d246b6b4162ae72	4	1	main_slash	11	advance_on_keypress_SLASH	8	stimuli_target_squarediamonds.svg	stimuli_distractor_trianglediamonds.svg	4	yes	57	0	577	0	0			0	0			1				0	
6.6.1	win	2023-06-02	06:29:58	06:37:48	465616	5e937e8e4d246b6b4162ae72	4	1	main_slash	11	main_slash	9	stimuli_distractor_diamondtriangles.svg	stimuli_distractor_trianglediamonds.svg	37	no	0	1	2000	0	0			0	0			1				0	
6.6.1	win	2023-06-02	06:29:58	06:37:48	465616	5e937e8e4d246b6b4162ae72	4	1	main_slash	11	advance_on_keypress_SLASH	10	stimuli_distractor_diamondtriangles.svg	stimuli_distractor_trianglediamonds.svg	37	no	57	0	478	0	0			0	0			1				0	
6.6.1	win	2023-06-02	06:29:58	06:37:51	468730	5e937e8e4d246b6b4162ae72	4	1	main_slash	11	main_slash	11	stimuli_distractor_trianglediamonds.svg	stimuli_distractor_diamondtriangles.svg	35	no	0	1	2000	0	0			0	0			1				0	
6.6.1	win	2023-06-02	06:29:58	06:37:51	468730	5e937e8e4d246b6b4162ae72	4	1	main_slash	11	advance_on_keypress_SLASH	12	stimuli_distractor_trianglediamonds.svg	stimuli_distractor_diamondtriangles.svg	35	no	57	0	328	0	0			0	0			1				0	
6.6.1	win	2023-06-02	06:29:58	06:37:52	470349	5e937e8e4d246b6b4162ae72	4	1	main_slash	11	main_slash	13	stimuli_target_squaretriangles.svg	stimuli_distractor_diamondtriangles.svg	7	yes	53	1	653	0	0			0	0			1				0	
6.6.1	win	2023-06-02	06:29:58	06:37:52	470349	5e937e8e4d246b6b4162ae72	4	1	main_slash	11	advance_on_keypress_SLASH	14	stimuli_target_squaretriangles.svg	stimuli_distractor_diamondtriangles.svg	7	yes	57	0	642	0	0			0	0			1				0	
6.6.1	win	2023-06-02	06:29:58	06:37:55	472570	5e937e8e4d246b6b4162ae72	4	1	main_slash	11	main_slash	15	stimuli_target_squarediamonds.svg	stimuli_distractor_diamondtriangles.svg	8	yes	53	1	943	0	0			0	0			1				0	
6.6.1	win	2023-06-02	06:29:58	06:37:55	472570	5e937e8e4d246b6b4162ae72	4	1	main_slash	11	advance_on_keypress_SLASH	16	stimuli_target_squarediamonds.svg	stimuli_distractor_diamondtriangles.svg	8	yes	57	0	591	0	0			0	0			1				0	
6.6.1	win	2023-06-02	06:29:58	06:37:57	474545	5e937e8e4d246b6b4162ae72	4	1	main_slash	11	main_slash	17	stimuli_target_diamondrectangles.svg	stimuli_distractor_trianglediamonds.svg	19	yes	53	1	752	0	0			0	0			1				0	
6.6.1	win	2023-06-02	06:29:58	06:37:57	474545	5e937e8e4d246b6b4162ae72	4	1	main_slash	11	advance_on_keypress_SLASH	18	stimuli_target_diamondrectangles.svg	stimuli_distractor_trianglediamonds.svg	19	yes	57	0	591	0	0			0	0			1				0	
6.6.1	win	2023-06-02	06:29:58	06:37:59	476629	5e937e8e4d246b6b4162ae72	4	1	main_slash	11	main_slash	19	stimuli_distractor_diamondtriangles.svg	stimuli_target_rectangletriangles.svg	13	yes	53	1	854	0	0			0	0			1				0	
6.6.1	win	2023-06-02	06:29:58	06:37:59	476629	5e937e8e4d246b6b4162ae72	4	1	main_slash	11	advance_on_keypress_SLASH	20	stimuli_distractor_diamondtriangles.svg	stimuli_target_rectangletriangles.svg	13	yes	57	0	490	0	0			0	0			1				0	
6.6.1	win	2023-06-02	06:29:58	06:38:01	478632	5e937e8e4d246b6b4162ae72	4	1	main_slash	11	main_slash	21	stimuli_distractor_diamondtriangles.svg	stimuli_target_trianglesquares.svg	30	yes	53	1	876	0	0			0	0			1				0	
6.6.1	win	2023-06-02	06:29:58	06:38:01	478632	5e937e8e4d246b6b4162ae72	4	1	main_slash	11	advance_on_keypress_SLASH	22	stimuli_distractor_diamondtriangles.svg	stimuli_target_trianglesquares.svg	30	yes	57	0	481	0	0			0	0			1				0	
6.6.1	win	2023-06-02	06:29:58	06:38:03	480622	5e937e8e4d246b6b4162ae72	4	1	main_slash	11	main_slash	23	stimuli_target_rectanglediamonds.svg	stimuli_distractor_trianglediamonds.svg	2	yes	53	1	867	0	0			0	0			1				0	
6.6.1	win	2023-06-02	06:29:58	06:38:03	480622	5e937e8e4d246b6b4162ae72	4	1	main_slash	11	advance_on_keypress_SLASH	24	stimuli_target_rectanglediamonds.svg	stimuli_distractor_trianglediamonds.svg	2	yes	57	0	470	0	0			0	0			1				0	
6.6.1	win	2023-06-02	06:29:58	06:38:04	482443	5e937e8e4d246b6b4162ae72	4	1	main_slash	11	main_slash	25	stimuli_distractor_trianglediamonds.svg	stimuli_target_squaretriangles.svg	11	yes	53	1	706	0	0			0	0			1				0	
6.6.1	win	2023-06-02	06:29:58	06:38:04	482443	5e937e8e4d246b6b4162ae72	4	1	main_slash	11	advance_on_keypress_SLASH	26	stimuli_distractor_trianglediamonds.svg	stimuli_target_squaretriangles.svg	11	yes	57	0	483	0	0			0	0			1				0	
6.6.1	win	2023-06-02	06:29:58	06:38:06	484444	5e937e8e4d246b6b4162ae72	4	1	main_slash	11	main_slash	27	stimuli_target_trianglesquares.svg	stimuli_distractor_trianglediamonds.svg	18	yes	53	1	875	0	0			0	0			1				0	
6.6.1	win	2023-06-02	06:29:58	06:38:06	484444	5e937e8e4d246b6b4162ae72	4	1	main_slash	11	advance_on_keypress_SLASH	28	stimuli_target_trianglesquares.svg	stimuli_distractor_trianglediamonds.svg	18	yes	57	0	459	0	0			0	0			1				0	
6.6.1	win	2023-06-02	06:29:58	06:38:08	486306	5e937e8e4d246b6b4162ae72	4	1	main_slash	11	main_slash	29	stimuli_target_rectanglediamonds.svg	stimuli_distractor_diamondtriangles.svg	6	yes	53	1	770	0	0			0	0			1				0	
6.6.1	win	2023-06-02	06:29:58	06:38:08	486306	5e937e8e4d246b6b4162ae72	4	1	main_slash	11	advance_on_keypress_SLASH	30	stimuli_target_rectanglediamonds.svg	stimuli_distractor_diamondtriangles.svg	6	yes	57	0	464	0	0			0	0			1				0	
6.6.1	win	2023-06-02	06:29:58	06:38:11	489417	5e937e8e4d246b6b4162ae72	4	1	main_slash	11	main_slash	31	stimuli_distractor_trianglediamonds.svg	stimuli_distractor_diamondtriangles.svg	36	no	0	1	2000	0	0			0	0			1				0	
6.6.1	win	2023-06-02	06:29:58	06:38:11	489417	5e937e8e4d246b6b4162ae72	4	1	main_slash	11	advance_on_keypress_SLASH	32	stimuli_distractor_trianglediamonds.svg	stimuli_distractor_diamondtriangles.svg	36	no	57	0	344	0	0			0	0			1				0	
6.6.1	win	2023-06-02	06:29:58	06:38:13	491227	5e937e8e4d246b6b4162ae72	4	1	main_slash	11	main_slash	33	stimuli_target_diamondsquares.svg	stimuli_distractor_diamondtriangles.svg	24	yes	53	1	828	0	0			0	0			1				0	
6.6.1	win	2023-06-02	06:29:58	06:38:13	491227	5e937e8e4d246b6b4162ae72	4	1	main_slash	11	advance_on_keypress_SLASH	34	stimuli_target_diamondsquares.svg	stimuli_distractor_diamondtriangles.svg	24	yes	57	0	463	0	0			0	0			1				0	
6.6.1	win	2023-06-02	06:29:58	06:38:15	493202	5e937e8e4d246b6b4162ae72	4	1	main_slash	11	main_slash	35	stimuli_distractor_diamondtriangles.svg	stimuli_target_rectanglediamonds.svg	14	yes	53	1	855	0	0			0	0			1				0	
6.6.1	win	2023-06-02	06:29:58	06:38:15	493202	5e937e8e4d246b6b4162ae72	4	1	main_slash	11	advance_on_keypress_SLASH	36	stimuli_distractor_diamondtriangles.svg	stimuli_target_rectanglediamonds.svg	14	yes	57	0	427	0	0			0	0			1				0	
6.6.1	win	2023-06-02	06:29:58	06:38:17	495190	5e937e8e4d246b6b4162ae72	4	1	main_slash	11	main_slash	37	stimuli_distractor_diamondtriangles.svg	stimuli_target_diamondsquares.svg	32	yes	53	1	894	0	0			0	0			1				0	
6.6.1	win	2023-06-02	06:29:58	06:38:17	495190	5e937e8e4d246b6b4162ae72	4	1	main_slash	11	advance_on_keypress_SLASH	38	stimuli_distractor_diamondtriangles.svg	stimuli_target_diamondsquares.svg	32	yes	57	0	424	0	0			0	0			1				0	
6.6.1	win	2023-06-02	06:29:58	06:38:20	498262	5e937e8e4d246b6b4162ae72	4	1	main_slash	11	main_slash	39	stimuli_distractor_diamondtriangles.svg	stimuli_distractor_trianglediamonds.svg	38	no	0	1	2000	0	0			0	0			1				0	
6.6.1	win	2023-06-02	06:29:58	06:38:20	498262	5e937e8e4d246b6b4162ae72	4	1	main_slash	11	advance_on_keypress_SLASH	40	stimuli_distractor_diamondtriangles.svg	stimuli_distractor_trianglediamonds.svg	38	no	57	0	412	0	0			0	0			1				0	
6.6.1	win	2023-06-02	06:29:58	06:38:22	500052	5e937e8e4d246b6b4162ae72	4	1	main_slash	11	main_slash	41	stimuli_target_trianglesquares.svg	stimuli_distractor_diamondtriangles.svg	22	yes	53	1	726	0	0			0	0			1				0	
6.6.1	win	2023-06-02	06:29:58	06:38:22	500052	5e937e8e4d246b6b4162ae72	4	1	main_slash	11	advance_on_keypress_SLASH	42	stimuli_target_trianglesquares.svg	stimuli_distractor_diamondtriangles.svg	22	yes	57	0	512	0	0			0	0			1				0	
6.6.1	win	2023-06-02	06:29:58	06:38:24	501981	5e937e8e4d246b6b4162ae72	4	1	main_slash	11	main_slash	43	stimuli_distractor_trianglediamonds.svg	stimuli_target_rectangletriangles.svg	9	yes	53	1	773	0	0			0	0			1				0	
6.6.1	win	2023-06-02	06:29:58	06:38:24	501981	5e937e8e4d246b6b4162ae72	4	1	main_slash	11	advance_on_keypress_SLASH	44	stimuli_distractor_trianglediamonds.svg	stimuli_target_rectangletriangles.svg	9	yes	57	0	489	0	0			0	0			1				0	
6.6.1	win	2023-06-02	06:29:58	06:38:26	503841	5e937e8e4d246b6b4162ae72	4	1	main_slash	11	main_slash	45	stimuli_distractor_diamondtriangles.svg	stimuli_target_trianglerectangles.svg	29	yes	53	1	734	0	0			0	0			1				0	
6.6.1	win	2023-06-02	06:29:58	06:38:26	503841	5e937e8e4d246b6b4162ae72	4	1	main_slash	11	advance_on_keypress_SLASH	46	stimuli_distractor_diamondtriangles.svg	stimuli_target_trianglerectangles.svg	29	yes	57	0	560	0	0			0	0			1				0	
6.6.1	win	2023-06-02	06:29:58	06:38:28	505619	5e937e8e4d246b6b4162ae72	4	1	main_slash	11	main_slash	47	stimuli_distractor_trianglediamonds.svg	stimuli_target_diamondrectangles.svg	27	yes	53	1	578	0	0			0	0			1				0	
6.6.1	win	2023-06-02	06:29:58	06:38:28	505619	5e937e8e4d246b6b4162ae72	4	1	main_slash	11	advance_on_keypress_SLASH	48	stimuli_distractor_trianglediamonds.svg	stimuli_target_diamondrectangles.svg	27	yes	57	0	456	0	0			0	0			1				0	
6.6.1	win	2023-06-02	06:29:58	06:38:29	507462	5e937e8e4d246b6b4162ae72	4	1	main_slash	11	main_slash	49	stimuli_target_trianglerectangles.svg	stimuli_distractor_diamondtriangles.svg	21	yes	53	1	741	0	0			0	0			1				0	
6.6.1	win	2023-06-02	06:29:58	06:38:29	507462	5e937e8e4d246b6b4162ae72	4	1	main_slash	11	advance_on_keypress_SLASH	50	stimuli_target_trianglerectangles.svg	stimuli_distractor_diamondtriangles.svg	21	yes	57	0	462	0	0			0	0			1				0	
6.6.1	win	2023-06-02	06:29:58	06:38:31	509231	5e937e8e4d246b6b4162ae72	4	1	main_slash	11	main_slash	51	stimuli_distractor_diamondtriangles.svg	stimuli_target_squaretriangles.svg	15	yes	53	1	661	0	0			0	0			1				0	
6.6.1	win	2023-06-02	06:29:58	06:38:31	509231	5e937e8e4d246b6b4162ae72	4	1	main_slash	11	advance_on_keypress_SLASH	52	stimuli_distractor_diamondtriangles.svg	stimuli_target_squaretriangles.svg	15	yes	57	0	442	0	0			0	0			1				0	
6.6.1	win	2023-06-02	06:29:58	06:38:33	510974	5e937e8e4d246b6b4162ae72	4	1	main_slash	11	main_slash	53	stimuli_target_squaretriangles.svg	stimuli_distractor_trianglediamonds.svg	3	yes	53	1	654	0	0			0	0			1				0	
6.6.1	win	2023-06-02	06:29:58	06:38:33	510974	5e937e8e4d246b6b4162ae72	4	1	main_slash	11	advance_on_keypress_SLASH	54	stimuli_target_squaretriangles.svg	stimuli_distractor_trianglediamonds.svg	3	yes	57	0	519	0	0			0	0			1				0	
6.6.1	win	2023-06-02	06:29:58	06:38:35	512722	5e937e8e4d246b6b4162ae72	4	1	main_slash	11	main_slash	55	stimuli_target_diamondsquares.svg	stimuli_distractor_trianglediamonds.svg	20	yes	53	1	587	0	0			0	0			1				0	
6.6.1	win	2023-06-02	06:29:58	06:38:35	512722	5e937e8e4d246b6b4162ae72	4	1	main_slash	11	advance_on_keypress_SLASH	56	stimuli_target_diamondsquares.svg	stimuli_distractor_trianglediamonds.svg	20	yes	57	0	377	0	0			0	0			1				0	
6.6.1	win	2023-06-02	06:29:58	06:38:38	515734	5e937e8e4d246b6b4162ae72	4	1	main_slash	11	main_slash	57	stimuli_distractor_trianglediamonds.svg	stimuli_distractor_trianglediamonds.svg	33	no	0	1	2000	0	0			0	0			1				0	
6.6.1	win	2023-06-02	06:29:58	06:38:38	515734	5e937e8e4d246b6b4162ae72	4	1	main_slash	11	advance_on_keypress_SLASH	58	stimuli_distractor_trianglediamonds.svg	stimuli_distractor_trianglediamonds.svg	33	no	57	0	351	0	0			0	0			1				0	
6.6.1	win	2023-06-02	06:29:58	06:38:39	517324	5e937e8e4d246b6b4162ae72	4	1	main_slash	11	main_slash	59	stimuli_target_rectangletriangles.svg	stimuli_distractor_diamondtriangles.svg	5	yes	53	1	591	0	0			0	0			1				0	
6.6.1	win	2023-06-02	06:29:58	06:38:39	517324	5e937e8e4d246b6b4162ae72	4	1	main_slash	11	advance_on_keypress_SLASH	60	stimuli_target_rectangletriangles.svg	stimuli_distractor_diamondtriangles.svg	5	yes	57	0	433	0	0			0	0			1				0	
6.6.1	win	2023-06-02	06:29:58	06:38:41	519091	5e937e8e4d246b6b4162ae72	4	1	main_slash	11	main_slash	61	stimuli_target_diamondrectangles.svg	stimuli_distractor_diamondtriangles.svg	23	yes	53	1	694	0	0			0	0			1				0	
6.6.1	win	2023-06-02	06:29:58	06:38:41	519091	5e937e8e4d246b6b4162ae72	4	1	main_slash	11	advance_on_keypress_SLASH	62	stimuli_target_diamondrectangles.svg	stimuli_distractor_diamondtriangles.svg	23	yes	57	0	439	0	0			0	0			1				0	
6.6.1	win	2023-06-02	06:29:58	06:38:43	520770	5e937e8e4d246b6b4162ae72	4	1	main_slash	11	main_slash	63	stimuli_distractor_trianglediamonds.svg	stimuli_target_rectanglediamonds.svg	10	yes	53	1	591	0	0			0	0			1				0	
6.6.1	win	2023-06-02	06:29:58	06:38:43	520770	5e937e8e4d246b6b4162ae72	4	1	main_slash	11	advance_on_keypress_SLASH	64	stimuli_distractor_trianglediamonds.svg	stimuli_target_rectanglediamonds.svg	10	yes	57	0	395	0	0			0	0			1				0	
6.6.1	win	2023-06-02	06:29:58	06:38:46	523812	5e937e8e4d246b6b4162ae72	4	1	main_slash	11	main_slash	65	stimuli_distractor_diamondtriangles.svg	stimuli_distractor_diamondtriangles.svg	39	no	0	1	2000	0	0			0	0			1				0	
6.6.1	win	2023-06-02	06:29:58	06:38:46	523812	5e937e8e4d246b6b4162ae72	4	1	main_slash	11	advance_on_keypress_SLASH	66	stimuli_distractor_diamondtriangles.svg	stimuli_distractor_diamondtriangles.svg	39	no	57	0	409	0	0			0	0			1				0	
6.6.1	win	2023-06-02	06:29:58	06:38:47	525486	5e937e8e4d246b6b4162ae72	4	1	main_slash	11	main_slash	67	stimuli_distractor_diamondtriangles.svg	stimuli_target_diamondrectangles.svg	31	yes	53	1	625	0	0			0	0			1				0	
6.6.1	win	2023-06-02	06:29:58	06:38:47	525486	5e937e8e4d246b6b4162ae72	4	1	main_slash	11	advance_on_keypress_SLASH	68	stimuli_distractor_diamondtriangles.svg	stimuli_target_diamondrectangles.svg	31	yes	57	0	470	0	0			0	0			1				0	
6.6.1	win	2023-06-02	06:29:58	06:38:49	527182	5e937e8e4d246b6b4162ae72	4	1	main_slash	11	main_slash	69	stimuli_distractor_trianglediamonds.svg	stimuli_target_trianglerectangles.svg	25	yes	53	1	590	0	0			0	0			1				0	
6.6.1	win	2023-06-02	06:29:58	06:38:49	527182	5e937e8e4d246b6b4162ae72	4	1	main_slash	11	advance_on_keypress_SLASH	70	stimuli_distractor_trianglediamonds.svg	stimuli_target_trianglerectangles.svg	25	yes	57	0	409	0	0			0	0			1				0	
6.6.1	win	2023-06-02	06:29:58	06:38:51	528841	5e937e8e4d246b6b4162ae72	4	1	main_slash	11	main_slash	71	stimuli_target_trianglerectangles.svg	stimuli_distractor_trianglediamonds.svg	17	yes	53	1	617	0	0			0	0			1				0	
6.6.1	win	2023-06-02	06:29:58	06:38:51	528841	5e937e8e4d246b6b4162ae72	4	1	main_slash	11	advance_on_keypress_SLASH	72	stimuli_target_trianglerectangles.svg	stimuli_distractor_trianglediamonds.svg	17	yes	57	0	423	0	0			0	0			1				0	
6.6.1	win	2023-06-02	06:29:58	06:38:52	530491	5e937e8e4d246b6b4162ae72	4	1	main_slash	11	main_slash	73	stimuli_distractor_trianglediamonds.svg	stimuli_target_trianglesquares.svg	26	yes	53	1	584	0	0			0	0			1				0	
6.6.1	win	2023-06-02	06:29:58	06:38:52	530491	5e937e8e4d246b6b4162ae72	4	1	main_slash	11	advance_on_keypress_SLASH	74	stimuli_distractor_trianglediamonds.svg	stimuli_target_trianglesquares.svg	26	yes	57	0	388	0	0			0	0			1				0	
6.6.1	win	2023-06-02	06:29:58	06:38:54	531990	5e937e8e4d246b6b4162ae72	4	1	main_slash	11	main_slash	75	stimuli_distractor_trianglediamonds.svg	stimuli_target_diamondsquares.svg	28	yes	53	1	467	0	0			0	0			1				0	
6.6.1	win	2023-06-02	06:29:58	06:38:54	531990	5e937e8e4d246b6b4162ae72	4	1	main_slash	11	advance_on_keypress_SLASH	76	stimuli_distractor_trianglediamonds.svg	stimuli_target_diamondsquares.svg	28	yes	57	0	426	0	0			0	0			1				0	
6.6.1	win	2023-06-02	06:29:58	06:38:57	535055	5e937e8e4d246b6b4162ae72	4	1	main_slash	11	main_slash	77	stimuli_distractor_diamondtriangles.svg	stimuli_distractor_diamondtriangles.svg	40	no	0	1	2000	0	0			0	0			1				0	
6.6.1	win	2023-06-02	06:29:58	06:38:57	535055	5e937e8e4d246b6b4162ae72	4	1	main_slash	11	advance_on_keypress_SLASH	78	stimuli_distractor_diamondtriangles.svg	stimuli_distractor_diamondtriangles.svg	40	no	57	0	301	0	0			0	0			1				0	
6.6.1	win	2023-06-02	06:29:58	06:38:59	536616	5e937e8e4d246b6b4162ae72	4	1	main_slash	11	main_slash	79	stimuli_distractor_trianglediamonds.svg	stimuli_target_squarediamonds.svg	12	yes	53	1	613	0	0			0	0			1				0	
6.6.1	win	2023-06-02	06:29:58	06:38:59	536616	5e937e8e4d246b6b4162ae72	4	1	main_slash	11	advance_on_keypress_SLASH	80	stimuli_distractor_trianglediamonds.svg	stimuli_target_squarediamonds.svg	12	yes	57	0	422	0	0			0	0			1				0	
6.6.1	win	2023-06-02	06:29:58	06:39:00	538308	5e937e8e4d246b6b4162ae72	4	1	main_slash	11	main_slash	81	stimuli_target_diamondrectangles.svg	stimuli_distractor_diamondtriangles.svg	23	yes	53	1	623	0	0			0	0			1				0	
6.6.1	win	2023-06-02	06:29:58	06:39:00	538308	5e937e8e4d246b6b4162ae72	4	1	main_slash	11	advance_on_keypress_SLASH	82	stimuli_target_diamondrectangles.svg	stimuli_distractor_diamondtriangles.svg	23	yes	57	0	520	0	0			0	0			1				0	
6.6.1	win	2023-06-02	06:29:58	06:39:02	540114	5e937e8e4d246b6b4162ae72	4	1	main_slash	11	main_slash	83	stimuli_target_trianglerectangles.svg	stimuli_distractor_diamondtriangles.svg	21	yes	53	1	647	0	0			0	0			1				0	
6.6.1	win	2023-06-02	06:29:58	06:39:02	540114	5e937e8e4d246b6b4162ae72	4	1	main_slash	11	advance_on_keypress_SLASH	84	stimuli_target_trianglerectangles.svg	stimuli_distractor_diamondtriangles.svg	21	yes	57	0	470	0	0			0	0			1				0	
6.6.1	win	2023-06-02	06:29:58	06:39:04	541848	5e937e8e4d246b6b4162ae72	4	1	main_slash	11	main_slash	85	stimuli_distractor_trianglediamonds.svg	stimuli_distractor_trianglediamonds.svg	34	no	53	0	614	0	0			0	0			1				0	
6.6.1	win	2023-06-02	06:29:58	06:39:04	541848	5e937e8e4d246b6b4162ae72	4	1	main_slash	11	advance_on_keypress_SLASH	86	stimuli_distractor_trianglediamonds.svg	stimuli_distractor_trianglediamonds.svg	34	no	57	0	598	0	0			0	0			1				0	
6.6.1	win	2023-06-02	06:29:58	06:39:06	543852	5e937e8e4d246b6b4162ae72	4	1	main_slash	11	main_slash	87	stimuli_distractor_diamondtriangles.svg	stimuli_target_rectangletriangles.svg	13	yes	53	1	753	0	0			0	0			1				0	
6.6.1	win	2023-06-02	06:29:58	06:39:06	543852	5e937e8e4d246b6b4162ae72	4	1	main_slash	11	advance_on_keypress_SLASH	88	stimuli_distractor_diamondtriangles.svg	stimuli_target_rectangletriangles.svg	13	yes	57	0	452	0	0			0	0			1				0	
6.6.1	win	2023-06-02	06:29:58	06:39:09	546947	5e937e8e4d246b6b4162ae72	4	1	main_slash	11	main_slash	89	stimuli_distractor_diamondtriangles.svg	stimuli_distractor_diamondtriangles.svg	40	no	0	1	2000	0	0			0	0			1				0	
6.6.1	win	2023-06-02	06:29:58	06:39:09	546947	5e937e8e4d246b6b4162ae72	4	1	main_slash	11	advance_on_keypress_SLASH	90	stimuli_distractor_diamondtriangles.svg	stimuli_distractor_diamondtriangles.svg	40	no	57	0	381	0	0			0	0			1				0	
6.6.1	win	2023-06-02	06:29:58	06:39:11	548712	5e937e8e4d246b6b4162ae72	4	1	main_slash	11	main_slash	91	stimuli_target_squarediamonds.svg	stimuli_distractor_trianglediamonds.svg	4	yes	53	1	733	0	0			0	0			1				0	
6.6.1	win	2023-06-02	06:29:58	06:39:11	548712	5e937e8e4d246b6b4162ae72	4	1	main_slash	11	advance_on_keypress_SLASH	92	stimuli_target_squarediamonds.svg	stimuli_distractor_trianglediamonds.svg	4	yes	57	0	534	0	0			0	0			1				0	
6.6.1	win	2023-06-02	06:29:58	06:39:13	550771	5e937e8e4d246b6b4162ae72	4	1	main_slash	11	main_slash	93	stimuli_distractor_diamondtriangles.svg	stimuli_target_squarediamonds.svg	16	yes	53	1	876	0	0			0	0			1				0	
6.6.1	win	2023-06-02	06:29:58	06:39:13	550771	5e937e8e4d246b6b4162ae72	4	1	main_slash	11	advance_on_keypress_SLASH	94	stimuli_distractor_diamondtriangles.svg	stimuli_target_squarediamonds.svg	16	yes	57	0	653	0	0			0	0			1				0	
6.6.1	win	2023-06-02	06:29:58	06:39:15	552934	5e937e8e4d246b6b4162ae72	4	1	main_slash	11	main_slash	95	stimuli_distractor_trianglediamonds.svg	stimuli_target_rectangletriangles.svg	9	yes	53	1	875	0	0			0	0			1				0	
6.6.1	win	2023-06-02	06:29:58	06:39:15	552934	5e937e8e4d246b6b4162ae72	4	1	main_slash	11	advance_on_keypress_SLASH	96	stimuli_distractor_trianglediamonds.svg	stimuli_target_rectangletriangles.svg	9	yes	57	0	598	0	0			0	0			1				0	
6.6.1	win	2023-06-02	06:29:58	06:39:17	554993	5e937e8e4d246b6b4162ae72	4	1	main_slash	11	main_slash	97	stimuli_target_rectangletriangles.svg	stimuli_distractor_trianglediamonds.svg	1	yes	53	1	819	0	0			0	0			1				0	
6.6.1	win	2023-06-02	06:29:58	06:39:17	554993	5e937e8e4d246b6b4162ae72	4	1	main_slash	11	advance_on_keypress_SLASH	98	stimuli_target_rectangletriangles.svg	stimuli_distractor_trianglediamonds.svg	1	yes	57	0	515	0	0			0	0			1				0	
6.6.1	win	2023-06-02	06:29:58	06:39:19	557026	5e937e8e4d246b6b4162ae72	4	1	main_slash	11	main_slash	99	stimuli_target_squarediamonds.svg	stimuli_distractor_diamondtriangles.svg	8	yes	53	1	870	0	0			0	0			1				0	
6.6.1	win	2023-06-02	06:29:58	06:39:19	557026	5e937e8e4d246b6b4162ae72	4	1	main_slash	11	advance_on_keypress_SLASH	100	stimuli_target_squarediamonds.svg	stimuli_distractor_diamondtriangles.svg	8	yes	57	0	508	0	0			0	0			1				0	
6.6.1	win	2023-06-02	06:29:58	06:39:21	559071	5e937e8e4d246b6b4162ae72	4	1	main_slash	11	main_slash	101	stimuli_distractor_trianglediamonds.svg	stimuli_target_trianglesquares.svg	26	yes	53	1	899	0	0			0	0			1				0	
6.6.1	win	2023-06-02	06:29:58	06:39:21	559071	5e937e8e4d246b6b4162ae72	4	1	main_slash	11	advance_on_keypress_SLASH	102	stimuli_distractor_trianglediamonds.svg	stimuli_target_trianglesquares.svg	26	yes	57	0	508	0	0			0	0			1				0	
6.6.1	win	2023-06-02	06:29:58	06:39:23	561137	5e937e8e4d246b6b4162ae72	4	1	main_slash	11	main_slash	103	stimuli_distractor_trianglediamonds.svg	stimuli_target_squarediamonds.svg	12	yes	53	1	915	0	0			0	0			1				0	
6.6.1	win	2023-06-02	06:29:58	06:39:23	561137	5e937e8e4d246b6b4162ae72	4	1	main_slash	11	advance_on_keypress_SLASH	104	stimuli_distractor_trianglediamonds.svg	stimuli_target_squarediamonds.svg	12	yes	57	0	546	0	0			0	0			1				0	
6.6.1	win	2023-06-02	06:29:58	06:39:25	563289	5e937e8e4d246b6b4162ae72	4	1	main_slash	11	main_slash	105	stimuli_distractor_trianglediamonds.svg	stimuli_target_diamondrectangles.svg	27	yes	53	1	949	0	0			0	0			1				0	
6.6.1	win	2023-06-02	06:29:58	06:39:25	563289	5e937e8e4d246b6b4162ae72	4	1	main_slash	11	advance_on_keypress_SLASH	106	stimuli_distractor_trianglediamonds.svg	stimuli_target_diamondrectangles.svg	27	yes	57	0	549	0	0			0	0			1				0	
6.6.1	win	2023-06-02	06:29:58	06:39:27	565418	5e937e8e4d246b6b4162ae72	4	1	main_slash	11	main_slash	107	stimuli_target_diamondsquares.svg	stimuli_distractor_trianglediamonds.svg	20	yes	53	1	934	0	0			0	0			1				0	
6.6.1	win	2023-06-02	06:29:58	06:39:27	565418	5e937e8e4d246b6b4162ae72	4	1	main_slash	11	advance_on_keypress_SLASH	108	stimuli_target_diamondsquares.svg	stimuli_distractor_trianglediamonds.svg	20	yes	57	0	512	0	0			0	0			1				0	
6.6.1	win	2023-06-02	06:29:58	06:39:29	567335	5e937e8e4d246b6b4162ae72	4	1	main_slash	11	main_slash	109	stimuli_target_rectanglediamonds.svg	stimuli_distractor_diamondtriangles.svg	6	yes	53	1	747	0	0			0	0			1				0	
6.6.1	win	2023-06-02	06:29:58	06:39:29	567335	5e937e8e4d246b6b4162ae72	4	1	main_slash	11	advance_on_keypress_SLASH	110	stimuli_target_rectanglediamonds.svg	stimuli_distractor_diamondtriangles.svg	6	yes	57	0	570	0	0			0	0			1				0	
6.6.1	win	2023-06-02	06:29:58	06:39:32	569553	5e937e8e4d246b6b4162ae72	4	1	main_slash	11	main_slash	111	stimuli_distractor_diamondtriangles.svg	stimuli_target_trianglesquares.svg	30	yes	53	1	1004	0	0			0	0			1				0	
6.6.1	win	2023-06-02	06:29:58	06:39:32	569553	5e937e8e4d246b6b4162ae72	4	1	main_slash	11	advance_on_keypress_SLASH	112	stimuli_distractor_diamondtriangles.svg	stimuli_target_trianglesquares.svg	30	yes	57	0	552	0	0			0	0			1				0	
6.6.1	win	2023-06-02	06:29:58	06:39:34	571666	5e937e8e4d246b6b4162ae72	4	1	main_slash	11	main_slash	113	stimuli_target_trianglerectangles.svg	stimuli_distractor_trianglediamonds.svg	17	yes	53	1	918	0	0			0	0			1				0	
6.6.1	win	2023-06-02	06:29:58	06:39:34	571666	5e937e8e4d246b6b4162ae72	4	1	main_slash	11	advance_on_keypress_SLASH	114	stimuli_target_trianglerectangles.svg	stimuli_distractor_trianglediamonds.svg	17	yes	57	0	433	0	0			0	0			1				0	
6.6.1	win	2023-06-02	06:29:58	06:39:37	574746	5e937e8e4d246b6b4162ae72	4	1	main_slash	11	main_slash	115	stimuli_distractor_diamondtriangles.svg	stimuli_distractor_diamondtriangles.svg	39	no	0	1	2000	0	0			0	0			1				0	
6.6.1	win	2023-06-02	06:29:58	06:39:37	574746	5e937e8e4d246b6b4162ae72	4	1	main_slash	11	advance_on_keypress_SLASH	116	stimuli_distractor_diamondtriangles.svg	stimuli_distractor_diamondtriangles.svg	39	no	57	0	368	0	0			0	0			1				0	
6.6.1	win	2023-06-02	06:29:58	06:39:39	576579	5e937e8e4d246b6b4162ae72	4	1	main_slash	11	main_slash	117	stimuli_distractor_diamondtriangles.svg	stimuli_target_trianglerectangles.svg	29	yes	53	1	818	0	0			0	0			1				0	
6.6.1	win	2023-06-02	06:29:58	06:39:39	576579	5e937e8e4d246b6b4162ae72	4	1	main_slash	11	advance_on_keypress_SLASH	118	stimuli_distractor_diamondtriangles.svg	stimuli_target_trianglerectangles.svg	29	yes	57	0	465	0	0			0	0			1				0	
6.6.1	win	2023-06-02	06:29:58	06:39:41	578612	5e937e8e4d246b6b4162ae72	4	1	main_slash	11	main_slash	119	stimuli_target_squaretriangles.svg	stimuli_distractor_diamondtriangles.svg	7	yes	53	1	919	0	0			0	0			1				0	
6.6.1	win	2023-06-02	06:29:58	06:39:41	578612	5e937e8e4d246b6b4162ae72	4	1	main_slash	11	advance_on_keypress_SLASH	120	stimuli_target_squaretriangles.svg	stimuli_distractor_diamondtriangles.svg	7	yes	57	0	554	0	0			0	0			1				0	
6.6.1	win	2023-06-02	06:29:58	06:39:43	580835	5e937e8e4d246b6b4162ae72	4	1	main_slash	11	main_slash	121	stimuli_distractor_trianglediamonds.svg	stimuli_target_squaretriangles.svg	11	yes	53	1	1026	0	0			0	0			1				0	
6.6.1	win	2023-06-02	06:29:58	06:39:43	580835	5e937e8e4d246b6b4162ae72	4	1	main_slash	11	advance_on_keypress_SLASH	122	stimuli_distractor_trianglediamonds.svg	stimuli_target_squaretriangles.svg	11	yes	57	0	510	0	0			0	0			1				0	
6.6.1	win	2023-06-02	06:29:58	06:39:45	583033	5e937e8e4d246b6b4162ae72	4	1	main_slash	11	main_slash	123	stimuli_distractor_trianglediamonds.svg	stimuli_target_diamondsquares.svg	28	yes	53	1	1042	0	0			0	0			1				0	
6.6.1	win	2023-06-02	06:29:58	06:39:45	583033	5e937e8e4d246b6b4162ae72	4	1	main_slash	11	advance_on_keypress_SLASH	124	stimuli_distractor_trianglediamonds.svg	stimuli_target_diamondsquares.svg	28	yes	57	0	516	0	0			0	0			1				0	
6.6.1	win	2023-06-02	06:29:58	06:39:47	585105	5e937e8e4d246b6b4162ae72	4	1	main_slash	11	main_slash	125	stimuli_target_diamondrectangles.svg	stimuli_distractor_trianglediamonds.svg	19	yes	53	1	916	0	0			0	0			1				0	
6.6.1	win	2023-06-02	06:29:58	06:39:47	585105	5e937e8e4d246b6b4162ae72	4	1	main_slash	11	advance_on_keypress_SLASH	126	stimuli_target_diamondrectangles.svg	stimuli_distractor_trianglediamonds.svg	19	yes	57	0	456	0	0			0	0			1				0	
6.6.1	win	2023-06-02	06:29:58	06:39:49	587108	5e937e8e4d246b6b4162ae72	4	1	main_slash	11	main_slash	127	stimuli_distractor_diamondtriangles.svg	stimuli_target_diamondrectangles.svg	31	yes	53	1	903	0	0			0	0			1				0	
6.6.1	win	2023-06-02	06:29:58	06:39:49	587108	5e937e8e4d246b6b4162ae72	4	1	main_slash	11	advance_on_keypress_SLASH	128	stimuli_distractor_diamondtriangles.svg	stimuli_target_diamondrectangles.svg	31	yes	57	0	431	0	0			0	0			1				0	
6.6.1	win	2023-06-02	06:29:58	06:39:51	589034	5e937e8e4d246b6b4162ae72	4	1	main_slash	11	main_slash	129	stimuli_distractor_diamondtriangles.svg	stimuli_target_squaretriangles.svg	15	yes	53	1	848	0	0			0	0			1				0	
6.6.1	win	2023-06-02	06:29:58	06:39:51	589034	5e937e8e4d246b6b4162ae72	4	1	main_slash	11	advance_on_keypress_SLASH	130	stimuli_distractor_diamondtriangles.svg	stimuli_target_squaretriangles.svg	15	yes	57	0	393	0	0			0	0			1				0	
6.6.1	win	2023-06-02	06:29:58	06:39:53	590997	5e937e8e4d246b6b4162ae72	4	1	main_slash	11	main_slash	131	stimuli_target_rectangletriangles.svg	stimuli_distractor_diamondtriangles.svg	5	yes	53	1	912	0	0			0	0			1				0	
6.6.1	win	2023-06-02	06:29:58	06:39:53	590997	5e937e8e4d246b6b4162ae72	4	1	main_slash	11	advance_on_keypress_SLASH	132	stimuli_target_rectangletriangles.svg	stimuli_distractor_diamondtriangles.svg	5	yes	57	0	391	0	0			0	0			1				0	
6.6.1	win	2023-06-02	06:29:58	06:39:55	592936	5e937e8e4d246b6b4162ae72	4	1	main_slash	11	main_slash	133	stimuli_target_squaretriangles.svg	stimuli_distractor_trianglediamonds.svg	3	yes	53	1	903	0	0			0	0			1				0	
6.6.1	win	2023-06-02	06:29:58	06:39:55	592936	5e937e8e4d246b6b4162ae72	4	1	main_slash	11	advance_on_keypress_SLASH	134	stimuli_target_squaretriangles.svg	stimuli_distractor_trianglediamonds.svg	3	yes	57	0	440	0	0			0	0			1				0	
6.6.1	win	2023-06-02	06:29:58	06:39:57	594818	5e937e8e4d246b6b4162ae72	4	1	main_slash	11	main_slash	135	stimuli_target_trianglesquares.svg	stimuli_distractor_diamondtriangles.svg	22	yes	53	1	801	0	0			0	0			1				0	
6.6.1	win	2023-06-02	06:29:58	06:39:57	594818	5e937e8e4d246b6b4162ae72	4	1	main_slash	11	advance_on_keypress_SLASH	136	stimuli_target_trianglesquares.svg	stimuli_distractor_diamondtriangles.svg	22	yes	57	0	450	0	0			0	0			1				0	
6.6.1	win	2023-06-02	06:29:58	06:39:59	596813	5e937e8e4d246b6b4162ae72	4	1	main_slash	11	main_slash	137	stimuli_distractor_diamondtriangles.svg	stimuli_target_rectanglediamonds.svg	14	yes	53	1	898	0	0			0	0			1				0	
6.6.1	win	2023-06-02	06:29:58	06:39:59	596813	5e937e8e4d246b6b4162ae72	4	1	main_slash	11	advance_on_keypress_SLASH	138	stimuli_distractor_diamondtriangles.svg	stimuli_target_rectanglediamonds.svg	14	yes	57	0	387	0	0			0	0			1				0	
6.6.1	win	2023-06-02	06:29:58	06:40:01	599124	5e937e8e4d246b6b4162ae72	4	1	main_slash	11	main_slash	139	stimuli_target_rectanglediamonds.svg	stimuli_distractor_trianglediamonds.svg	2	yes	53	1	1278	0	0			0	0			1				0	
6.6.1	win	2023-06-02	06:29:58	06:40:01	599124	5e937e8e4d246b6b4162ae72	4	1	main_slash	11	advance_on_keypress_SLASH	140	stimuli_target_rectanglediamonds.svg	stimuli_distractor_trianglediamonds.svg	2	yes	57	0	446	0	0			0	0			1				0	
6.6.1	win	2023-06-02	06:29:58	06:40:03	601195	5e937e8e4d246b6b4162ae72	4	1	main_slash	11	main_slash	141	stimuli_target_trianglesquares.svg	stimuli_distractor_trianglediamonds.svg	18	yes	53	1	900	0	0			0	0			1				0	
6.6.1	win	2023-06-02	06:29:58	06:40:03	601195	5e937e8e4d246b6b4162ae72	4	1	main_slash	11	advance_on_keypress_SLASH	142	stimuli_target_trianglesquares.svg	stimuli_distractor_trianglediamonds.svg	18	yes	57	0	450	0	0			0	0			1				0	
6.6.1	win	2023-06-02	06:29:58	06:40:06	604294	5e937e8e4d246b6b4162ae72	4	1	main_slash	11	main_slash	143	stimuli_distractor_trianglediamonds.svg	stimuli_distractor_trianglediamonds.svg	33	no	0	1	2000	0	0			0	0			1				0	
6.6.1	win	2023-06-02	06:29:58	06:40:06	604294	5e937e8e4d246b6b4162ae72	4	1	main_slash	11	advance_on_keypress_SLASH	144	stimuli_distractor_trianglediamonds.svg	stimuli_distractor_trianglediamonds.svg	33	no	57	0	367	0	0			0	0			1				0	
6.6.1	win	2023-06-02	06:29:58	06:40:08	606313	5e937e8e4d246b6b4162ae72	4	1	main_slash	11	main_slash	145	stimuli_distractor_trianglediamonds.svg	stimuli_target_trianglerectangles.svg	25	yes	53	1	1005	0	0			0	0			1				0	
6.6.1	win	2023-06-02	06:29:58	06:40:08	606313	5e937e8e4d246b6b4162ae72	4	1	main_slash	11	advance_on_keypress_SLASH	146	stimuli_distractor_trianglediamonds.svg	stimuli_target_trianglerectangles.svg	25	yes	57	0	425	0	0			0	0			1				0	
6.6.1	win	2023-06-02	06:29:58	06:40:11	609374	5e937e8e4d246b6b4162ae72	4	1	main_slash	11	main_slash	147	stimuli_distractor_diamondtriangles.svg	stimuli_distractor_trianglediamonds.svg	38	no	0	1	2000	0	0			0	0			1				0	
6.6.1	win	2023-06-02	06:29:58	06:40:11	609374	5e937e8e4d246b6b4162ae72	4	1	main_slash	11	advance_on_keypress_SLASH	148	stimuli_distractor_diamondtriangles.svg	stimuli_distractor_trianglediamonds.svg	38	no	57	0	387	0	0			0	0			1				0	
6.6.1	win	2023-06-02	06:29:58	06:40:14	612406	5e937e8e4d246b6b4162ae72	4	1	main_slash	11	main_slash	149	stimuli_distractor_trianglediamonds.svg	stimuli_distractor_diamondtriangles.svg	35	no	0	1	2000	0	0			0	0			1				0	
6.6.1	win	2023-06-02	06:29:58	06:40:14	612406	5e937e8e4d246b6b4162ae72	4	1	main_slash	11	advance_on_keypress_SLASH	150	stimuli_distractor_trianglediamonds.svg	stimuli_distractor_diamondtriangles.svg	35	no	57	0	385	0	0			0	0			1				0	
6.6.1	win	2023-06-02	06:29:58	06:40:16	614294	5e937e8e4d246b6b4162ae72	4	1	main_slash	11	main_slash	151	stimuli_distractor_diamondtriangles.svg	stimuli_target_diamondsquares.svg	32	yes	53	1	857	0	0			0	0			1				0	
6.6.1	win	2023-06-02	06:29:58	06:40:16	614294	5e937e8e4d246b6b4162ae72	4	1	main_slash	11	advance_on_keypress_SLASH	152	stimuli_distractor_diamondtriangles.svg	stimuli_target_diamondsquares.svg	32	yes	57	0	509	0	0			0	0			1				0	
6.6.1	win	2023-06-02	06:29:58	06:40:19	617436	5e937e8e4d246b6b4162ae72	4	1	main_slash	11	main_slash	153	stimuli_distractor_trianglediamonds.svg	stimuli_distractor_diamondtriangles.svg	36	no	0	1	2000	0	0			0	0			1				0	
6.6.1	win	2023-06-02	06:29:58	06:40:19	617436	5e937e8e4d246b6b4162ae72	4	1	main_slash	11	advance_on_keypress_SLASH	154	stimuli_distractor_trianglediamonds.svg	stimuli_distractor_diamondtriangles.svg	36	no	57	0	396	0	0			0	0			1				0	
6.6.1	win	2023-06-02	06:29:58	06:40:21	619208	5e937e8e4d246b6b4162ae72	4	1	main_slash	11	main_slash	155	stimuli_target_diamondsquares.svg	stimuli_distractor_diamondtriangles.svg	24	yes	53	1	725	0	0			0	0			1				0	
6.6.1	win	2023-06-02	06:29:58	06:40:21	619208	5e937e8e4d246b6b4162ae72	4	1	main_slash	11	advance_on_keypress_SLASH	156	stimuli_target_diamondsquares.svg	stimuli_distractor_diamondtriangles.svg	24	yes	57	0	450	0	0			0	0			1				0	
6.6.1	win	2023-06-02	06:29:58	06:40:23	621030	5e937e8e4d246b6b4162ae72	4	1	main_slash	11	main_slash	157	stimuli_distractor_trianglediamonds.svg	stimuli_target_rectanglediamonds.svg	10	yes	53	1	731	0	0			0	0			1				0	
6.6.1	win	2023-06-02	06:29:58	06:40:23	621030	5e937e8e4d246b6b4162ae72	4	1	main_slash	11	advance_on_keypress_SLASH	158	stimuli_distractor_trianglediamonds.svg	stimuli_target_rectanglediamonds.svg	10	yes	57	0	394	0	0			0	0			1				0	
6.6.1	win	2023-06-02	06:29:58	06:40:26	624081	5e937e8e4d246b6b4162ae72	4	1	main_slash	11	main_slash	159	stimuli_distractor_diamondtriangles.svg	stimuli_distractor_trianglediamonds.svg	37	no	0	1	2000	0	0			0	0			1				0	
6.6.1	win	2023-06-02	06:29:58	06:40:26	624081	5e937e8e4d246b6b4162ae72	4	1	main_slash	11	advance_on_keypress_SLASH	160	stimuli_distractor_diamondtriangles.svg	stimuli_distractor_trianglediamonds.svg	37	no	57	0	433	0	0			0	0			1				0	
6.6.1	win	2023-06-02	06:29:58	06:40:26	624081	5e937e8e4d246b6b4162ae72	4	1	headphonecheck_calibration	14	headphonecheck_calibrationIntro	1	stimuli_distractor_diamondtriangles.svg	stimuli_distractor_trianglediamonds.svg	37	no	calibrationButton	0	2970	0	0			0	0			1				0	
6.6.1	win	2023-06-02	06:29:58	06:40:26	624081	5e937e8e4d246b6b4162ae72	4	1	headphonecheck_testphase	15	test_collectResponse	3	stimuli_distractor_diamondtriangles.svg	stimuli_distractor_trianglediamonds.svg	37	no	first	0	1245	1	6	antiphase_hc_ois.wav	3	0	0			1				0	
6.6.1	win	2023-06-02	06:29:58	06:40:26	624081	5e937e8e4d246b6b4162ae72	4	1	headphonecheck_testphase	15	test_collectResponse	6	stimuli_distractor_diamondtriangles.svg	stimuli_distractor_trianglediamonds.svg	37	no	second	1	703	2	1	antiphase_hc_iso.wav	2	0	0			1				0	
6.6.1	win	2023-06-02	06:29:58	06:40:26	624081	5e937e8e4d246b6b4162ae72	4	1	headphonecheck_testphase	15	test_collectResponse	9	stimuli_distractor_diamondtriangles.svg	stimuli_distractor_trianglediamonds.svg	37	no	first	1	950	3	3	antiphase_hc_soi.wav	1	0	0			1				0	
6.6.1	win	2023-06-02	06:29:58	06:40:26	624081	5e937e8e4d246b6b4162ae72	4	1	headphonecheck_testphase	15	test_collectResponse	12	stimuli_distractor_diamondtriangles.svg	stimuli_distractor_trianglediamonds.svg	37	no	first	1	720	4	4	antiphase_hc_sio.wav	1	0	0			1				0	
6.6.1	win	2023-06-02	06:29:58	06:40:26	624081	5e937e8e4d246b6b4162ae72	4	1	headphonecheck_testphase	15	test_collectResponse	15	stimuli_distractor_diamondtriangles.svg	stimuli_distractor_trianglediamonds.svg	37	no	second	1	630	5	5	antiphase_hc_osi.wav	2	0	0			1				0	
6.6.1	win	2023-06-02	06:29:58	06:40:26	624081	5e937e8e4d246b6b4162ae72	4	1	headphonecheck_testphase	15	test_collectResponse	18	stimuli_distractor_diamondtriangles.svg	stimuli_distractor_trianglediamonds.svg	37	no	third	1	707	6	2	antiphase_hc_ios.wav	3	0	0			1				0	
6.6.1	win	2023-06-02	06:29:58	06:40:26	624081	5e937e8e4d246b6b4162ae72	4	1	stereocheck_calibration	17	stereocheck_calibrationIntro	1	stimuli_distractor_diamondtriangles.svg	stimuli_distractor_trianglediamonds.svg	37	no	stereocheck_calibrationButton	0	2900	6	2	antiphase_hc_ios.wav	3	0	0			1				0	
6.6.1	win	2023-06-02	06:29:58	06:40:26	624081	5e937e8e4d246b6b4162ae72	4	1	stereocheck_testphase	18	stereocheck_test_collectResponse	3	stimuli_distractor_diamondtriangles.svg	stimuli_distractor_trianglediamonds.svg	37	no	stereocheck_right	1	5451	6	2	antiphase_hc_ios.wav	3	1	6	noise_calib_stim_RIGHT.wav	2	1				0	
6.6.1	win	2023-06-02	06:29:58	06:40:26	624081	5e937e8e4d246b6b4162ae72	4	1	stereocheck_testphase	18	stereocheck_test_collectResponse	6	stimuli_distractor_diamondtriangles.svg	stimuli_distractor_trianglediamonds.svg	37	no	stereocheck_right	1	1013	6	2	antiphase_hc_ios.wav	3	2	4	noise_calib_stim_RIGHT.wav	2	1				0	
6.6.1	win	2023-06-02	06:29:58	06:40:26	624081	5e937e8e4d246b6b4162ae72	4	1	stereocheck_testphase	18	stereocheck_test_collectResponse	9	stimuli_distractor_diamondtriangles.svg	stimuli_distractor_trianglediamonds.svg	37	no	stereocheck_left	1	666	6	2	antiphase_hc_ios.wav	3	3	2	noise_calib_stim_LEFT.wav	1	1				0	
6.6.1	win	2023-06-02	06:29:58	06:40:26	624081	5e937e8e4d246b6b4162ae72	4	1	stereocheck_testphase	18	stereocheck_test_collectResponse	12	stimuli_distractor_diamondtriangles.svg	stimuli_distractor_trianglediamonds.svg	37	no	stereocheck_right	1	512	6	2	antiphase_hc_ios.wav	3	4	5	noise_calib_stim_RIGHT.wav	2	1				0	
6.6.1	win	2023-06-02	06:29:58	06:40:26	624081	5e937e8e4d246b6b4162ae72	4	1	stereocheck_testphase	18	stereocheck_test_collectResponse	15	stimuli_distractor_diamondtriangles.svg	stimuli_distractor_trianglediamonds.svg	37	no	stereocheck_left	1	546	6	2	antiphase_hc_ios.wav	3	5	1	noise_calib_stim_LEFT.wav	1	1				0	
6.6.1	win	2023-06-02	06:29:58	06:40:26	624081	5e937e8e4d246b6b4162ae72	4	1	stereocheck_testphase	18	stereocheck_test_collectResponse	18	stimuli_distractor_diamondtriangles.svg	stimuli_distractor_trianglediamonds.svg	37	no	stereocheck_left	1	535	6	2	antiphase_hc_ios.wav	3	6	3	noise_calib_stim_LEFT.wav	1	1				0	
6.6.1	win	2023-06-02	06:29:58	06:40:26	624081	5e937e8e4d246b6b4162ae72	4	1	DL_practice	21	DL_practice	2	stimuli_distractor_diamondtriangles.svg	stimuli_distractor_trianglediamonds.svg	37	no	ka	0	1291	6	2	antiphase_hc_ios.wav	3	6	3	noise_calib_stim_LEFT.wav	1	18	blb_dichoticlistening_ga-ta.mp3	ga	ta	1	other
6.6.1	win	2023-06-02	06:29:58	06:40:26	624081	5e937e8e4d246b6b4162ae72	4	1	DL_practice	21	DL_practice	3	stimuli_distractor_diamondtriangles.svg	stimuli_distractor_trianglediamonds.svg	37	no	ta	1	1111	6	2	antiphase_hc_ios.wav	3	6	3	noise_calib_stim_LEFT.wav	1	36	blb_dichoticlistening_ta-ta.mp3	ta	ta	0	left
6.6.1	win	2023-06-02	06:29:58	06:40:26	624081	5e937e8e4d246b6b4162ae72	4	1	DL_practice	21	DL_practice	4	stimuli_distractor_diamondtriangles.svg	stimuli_distractor_trianglediamonds.svg	37	no	ba	1	1063	6	2	antiphase_hc_ios.wav	3	6	3	noise_calib_stim_LEFT.wav	1	1	blb_dichoticlistening_ba-ba.mp3	ba	ba	0	left
6.6.1	win	2023-06-02	06:29:58	06:40:26	624081	5e937e8e4d246b6b4162ae72	4	1	DL_practice	21	DL_practice	5	stimuli_distractor_diamondtriangles.svg	stimuli_distractor_trianglediamonds.svg	37	no	pa	1	1086	6	2	antiphase_hc_ios.wav	3	6	3	noise_calib_stim_LEFT.wav	1	29	blb_dichoticlistening_pa-pa.mp3	pa	pa	0	left
6.6.1	win	2023-06-02	06:29:58	06:40:26	624081	5e937e8e4d246b6b4162ae72	4	1	DL_practice	21	DL_practice	6	stimuli_distractor_diamondtriangles.svg	stimuli_distractor_trianglediamonds.svg	37	no	ga	1	675	6	2	antiphase_hc_ios.wav	3	6	3	noise_calib_stim_LEFT.wav	1	15	blb_dichoticlistening_ga-ga.mp3	ga	ga	0	left
6.6.1	win	2023-06-02	06:29:58	06:40:26	624081	5e937e8e4d246b6b4162ae72	4	1	DL_practice	21	DL_practice	7	stimuli_distractor_diamondtriangles.svg	stimuli_distractor_trianglediamonds.svg	37	no	da	1	988	6	2	antiphase_hc_ios.wav	3	6	3	noise_calib_stim_LEFT.wav	1	7	blb_dichoticlistening_da-ba.mp3	da	ba	1	left
6.6.1	win	2023-06-02	06:29:58	06:40:26	624081	5e937e8e4d246b6b4162ae72	4	1	DL_practice	21	DL_practice	8	stimuli_distractor_diamondtriangles.svg	stimuli_distractor_trianglediamonds.svg	37	no	da	1	754	6	2	antiphase_hc_ios.wav	3	6	3	noise_calib_stim_LEFT.wav	1	8	blb_dichoticlistening_da-da.mp3	da	da	0	left
6.6.1	win	2023-06-02	06:29:58	06:40:26	624081	5e937e8e4d246b6b4162ae72	4	1	DL_practice	21	DL_practice	9	stimuli_distractor_diamondtriangles.svg	stimuli_distractor_trianglediamonds.svg	37	no	pa	1	909	6	2	antiphase_hc_ios.wav	3	6	3	noise_calib_stim_LEFT.wav	1	23	blb_dichoticlistening_ka-pa.mp3	ka	pa	1	right
6.6.1	win	2023-06-02	06:29:58	06:40:26	624081	5e937e8e4d246b6b4162ae72	4	1	DL_practice	21	DL_practice	10	stimuli_distractor_diamondtriangles.svg	stimuli_distractor_trianglediamonds.svg	37	no	ka	1	924	6	2	antiphase_hc_ios.wav	3	6	3	noise_calib_stim_LEFT.wav	1	22	blb_dichoticlistening_ka-ka.mp3	ka	ka	0	left
6.6.1	win	2023-06-02	06:29:58	06:40:26	624081	5e937e8e4d246b6b4162ae72	4	1	DL_test	23	DL_test	1	stimuli_distractor_diamondtriangles.svg	stimuli_distractor_trianglediamonds.svg	37	no	da	1	1083	6	2	antiphase_hc_ios.wav	3	6	3	noise_calib_stim_LEFT.wav	1	7	blb_dichoticlistening_da-ba.mp3	da	ba	1	left
6.6.1	win	2023-06-02	06:29:58	06:40:26	624081	5e937e8e4d246b6b4162ae72	4	1	DL_test	23	DL_test	2	stimuli_distractor_diamondtriangles.svg	stimuli_distractor_trianglediamonds.svg	37	no	ka	1	932	6	2	antiphase_hc_ios.wav	3	6	3	noise_calib_stim_LEFT.wav	1	28	blb_dichoticlistening_pa-ka.mp3	pa	ka	1	right
6.6.1	win	2023-06-02	06:29:58	06:40:26	624081	5e937e8e4d246b6b4162ae72	4	1	DL_test	23	DL_test	3	stimuli_distractor_diamondtriangles.svg	stimuli_distractor_trianglediamonds.svg	37	no	ga	1	697	6	2	antiphase_hc_ios.wav	3	6	3	noise_calib_stim_LEFT.wav	1	15	blb_dichoticlistening_ga-ga.mp3	ga	ga	0	left
6.6.1	win	2023-06-02	06:29:58	06:40:26	624081	5e937e8e4d246b6b4162ae72	4	1	DL_test	23	DL_test	4	stimuli_distractor_diamondtriangles.svg	stimuli_distractor_trianglediamonds.svg	37	no	ka	0	846	6	2	antiphase_hc_ios.wav	3	6	3	noise_calib_stim_LEFT.wav	1	33	blb_dichoticlistening_ta-ga.mp3	ta	ga	1	other
6.6.1	win	2023-06-02	06:29:58	06:40:26	624081	5e937e8e4d246b6b4162ae72	4	1	DL_test	23	DL_test	5	stimuli_distractor_diamondtriangles.svg	stimuli_distractor_trianglediamonds.svg	37	no	pa	1	1204	6	2	antiphase_hc_ios.wav	3	6	3	noise_calib_stim_LEFT.wav	1	26	blb_dichoticlistening_pa-da.mp3	pa	da	1	left
6.6.1	win	2023-06-02	06:29:58	06:40:26	624081	5e937e8e4d246b6b4162ae72	4	1	DL_test	23	DL_test	6	stimuli_distractor_diamondtriangles.svg	stimuli_distractor_trianglediamonds.svg	37	no	ba	1	1091	6	2	antiphase_hc_ios.wav	3	6	3	noise_calib_stim_LEFT.wav	1	1	blb_dichoticlistening_ba-ba.mp3	ba	ba	0	left
6.6.1	win	2023-06-02	06:29:58	06:40:26	624081	5e937e8e4d246b6b4162ae72	4	1	DL_test	23	DL_test	7	stimuli_distractor_diamondtriangles.svg	stimuli_distractor_trianglediamonds.svg	37	no	pa	1	1362	6	2	antiphase_hc_ios.wav	3	6	3	noise_calib_stim_LEFT.wav	1	27	blb_dichoticlistening_pa-ga.mp3	pa	ga	1	left
6.6.1	win	2023-06-02	06:29:58	06:40:26	624081	5e937e8e4d246b6b4162ae72	4	1	DL_test	23	DL_test	8	stimuli_distractor_diamondtriangles.svg	stimuli_distractor_trianglediamonds.svg	37	no	ka	0	1070	6	2	antiphase_hc_ios.wav	3	6	3	noise_calib_stim_LEFT.wav	1	12	blb_dichoticlistening_da-ta.mp3	da	ta	1	other
6.6.1	win	2023-06-02	06:29:58	06:40:26	624081	5e937e8e4d246b6b4162ae72	4	1	DL_test	23	DL_test	9	stimuli_distractor_diamondtriangles.svg	stimuli_distractor_trianglediamonds.svg	37	no	pa	1	997	6	2	antiphase_hc_ios.wav	3	6	3	noise_calib_stim_LEFT.wav	1	29	blb_dichoticlistening_pa-pa.mp3	pa	pa	0	left
6.6.1	win	2023-06-02	06:29:58	06:40:26	624081	5e937e8e4d246b6b4162ae72	4	1	DL_test	23	DL_test	10	stimuli_distractor_diamondtriangles.svg	stimuli_distractor_trianglediamonds.svg	37	no	da	1	851	6	2	antiphase_hc_ios.wav	3	6	3	noise_calib_stim_LEFT.wav	1	2	blb_dichoticlistening_ba-da.mp3	ba	da	1	right
6.6.1	win	2023-06-02	06:29:58	06:40:26	624081	5e937e8e4d246b6b4162ae72	4	1	DL_test	23	DL_test	11	stimuli_distractor_diamondtriangles.svg	stimuli_distractor_trianglediamonds.svg	37	no	pa	1	874	6	2	antiphase_hc_ios.wav	3	6	3	noise_calib_stim_LEFT.wav	1	5	blb_dichoticlistening_ba-pa.mp3	ba	pa	1	right
6.6.1	win	2023-06-02	06:29:58	06:40:26	624081	5e937e8e4d246b6b4162ae72	4	1	DL_test	23	DL_test	12	stimuli_distractor_diamondtriangles.svg	stimuli_distractor_trianglediamonds.svg	37	no	ka	1	884	6	2	antiphase_hc_ios.wav	3	6	3	noise_calib_stim_LEFT.wav	1	20	blb_dichoticlistening_ka-da.mp3	ka	da	1	left
6.6.1	win	2023-06-02	06:29:58	06:40:26	624081	5e937e8e4d246b6b4162ae72	4	1	DL_test	23	DL_test	13	stimuli_distractor_diamondtriangles.svg	stimuli_distractor_trianglediamonds.svg	37	no	pa	1	859	6	2	antiphase_hc_ios.wav	3	6	3	noise_calib_stim_LEFT.wav	1	25	blb_dichoticlistening_pa-ba.mp3	pa	ba	1	left
6.6.1	win	2023-06-02	06:29:58	06:40:26	624081	5e937e8e4d246b6b4162ae72	4	1	DL_test	23	DL_test	14	stimuli_distractor_diamondtriangles.svg	stimuli_distractor_trianglediamonds.svg	37	no	ka	1	1186	6	2	antiphase_hc_ios.wav	3	6	3	noise_calib_stim_LEFT.wav	1	23	blb_dichoticlistening_ka-pa.mp3	ka	pa	1	left
6.6.1	win	2023-06-02	06:29:58	06:40:26	624081	5e937e8e4d246b6b4162ae72	4	1	DL_test	23	DL_test	15	stimuli_distractor_diamondtriangles.svg	stimuli_distractor_trianglediamonds.svg	37	no	ka	0	787	6	2	antiphase_hc_ios.wav	3	6	3	noise_calib_stim_LEFT.wav	1	18	blb_dichoticlistening_ga-ta.mp3	ga	ta	1	other
6.6.1	win	2023-06-02	06:29:58	06:40:26	624081	5e937e8e4d246b6b4162ae72	4	1	DL_test	23	DL_test	16	stimuli_distractor_diamondtriangles.svg	stimuli_distractor_trianglediamonds.svg	37	no	ka	1	770	6	2	antiphase_hc_ios.wav	3	6	3	noise_calib_stim_LEFT.wav	1	22	blb_dichoticlistening_ka-ka.mp3	ka	ka	0	left
6.6.1	win	2023-06-02	06:29:58	06:40:26	624081	5e937e8e4d246b6b4162ae72	4	1	DL_test	23	DL_test	17	stimuli_distractor_diamondtriangles.svg	stimuli_distractor_trianglediamonds.svg	37	no	ka	0	1106	6	2	antiphase_hc_ios.wav	3	6	3	noise_calib_stim_LEFT.wav	1	36	blb_dichoticlistening_ta-ta.mp3	ta	ta	0	other
6.6.1	win	2023-06-02	06:29:58	06:40:26	624081	5e937e8e4d246b6b4162ae72	4	1	DL_test	23	DL_test	18	stimuli_distractor_diamondtriangles.svg	stimuli_distractor_trianglediamonds.svg	37	no	da	1	994	6	2	antiphase_hc_ios.wav	3	6	3	noise_calib_stim_LEFT.wav	1	8	blb_dichoticlistening_da-da.mp3	da	da	0	left
6.6.1	win	2023-06-02	06:29:58	06:40:26	624081	5e937e8e4d246b6b4162ae72	4	1	DL_test	23	DL_test	19	stimuli_distractor_diamondtriangles.svg	stimuli_distractor_trianglediamonds.svg	37	no	ga	1	1187	6	2	antiphase_hc_ios.wav	3	6	3	noise_calib_stim_LEFT.wav	1	14	blb_dichoticlistening_ga-da.mp3	ga	da	1	left
6.6.1	win	2023-06-02	06:29:58	06:40:26	624081	5e937e8e4d246b6b4162ae72	4	1	DL_test	23	DL_test	20	stimuli_distractor_diamondtriangles.svg	stimuli_distractor_trianglediamonds.svg	37	no	ga	1	723	6	2	antiphase_hc_ios.wav	3	6	3	noise_calib_stim_LEFT.wav	1	9	blb_dichoticlistening_da-ga.mp3	da	ga	1	right
6.6.1	win	2023-06-02	06:29:58	06:40:26	624081	5e937e8e4d246b6b4162ae72	4	1	DL_test	23	DL_test	21	stimuli_distractor_diamondtriangles.svg	stimuli_distractor_trianglediamonds.svg	37	no	ba	1	1566	6	2	antiphase_hc_ios.wav	3	6	3	noise_calib_stim_LEFT.wav	1	3	blb_dichoticlistening_ba-ga.mp3	ba	ga	1	left
6.6.1	win	2023-06-02	06:29:58	06:40:26	624081	5e937e8e4d246b6b4162ae72	4	1	DL_test	23	DL_test	22	stimuli_distractor_diamondtriangles.svg	stimuli_distractor_trianglediamonds.svg	37	no	pa	0	1368	6	2	antiphase_hc_ios.wav	3	6	3	noise_calib_stim_LEFT.wav	1	10	blb_dichoticlistening_da-ka.mp3	da	ka	1	other
6.6.1	win	2023-06-02	06:29:58	06:40:26	624081	5e937e8e4d246b6b4162ae72	4	1	DL_test	23	DL_test	23	stimuli_distractor_diamondtriangles.svg	stimuli_distractor_trianglediamonds.svg	37	no	ka	1	794	6	2	antiphase_hc_ios.wav	3	6	3	noise_calib_stim_LEFT.wav	1	34	blb_dichoticlistening_ta-ka.mp3	ta	ka	1	right
6.6.1	win	2023-06-02	06:29:58	06:40:26	624081	5e937e8e4d246b6b4162ae72	4	1	DL_test	23	DL_test	24	stimuli_distractor_diamondtriangles.svg	stimuli_distractor_trianglediamonds.svg	37	no	pa	1	1048	6	2	antiphase_hc_ios.wav	3	6	3	noise_calib_stim_LEFT.wav	1	11	blb_dichoticlistening_da-pa.mp3	da	pa	1	right
6.6.1	win	2023-06-02	06:29:58	06:40:26	624081	5e937e8e4d246b6b4162ae72	4	1	DL_test	23	DL_test	25	stimuli_distractor_diamondtriangles.svg	stimuli_distractor_trianglediamonds.svg	37	no	ka	1	1126	6	2	antiphase_hc_ios.wav	3	6	3	noise_calib_stim_LEFT.wav	1	21	blb_dichoticlistening_ka-ga.mp3	ka	ga	1	left
6.6.1	win	2023-06-02	06:29:58	06:40:26	624081	5e937e8e4d246b6b4162ae72	4	1	DL_test	23	DL_test	26	stimuli_distractor_diamondtriangles.svg	stimuli_distractor_trianglediamonds.svg	37	no	pa	0	1171	6	2	antiphase_hc_ios.wav	3	6	3	noise_calib_stim_LEFT.wav	1	31	blb_dichoticlistening_ta-ba.mp3	ta	ba	1	other
