build	computer.platform	date	time	timestamp	time_elapsed_ms	subject	group	session	blockcode	blocknum	trialcode	trialnum	stimulus_left	stimulus_right	stim_index	target_present	response	correct	latency	headphonecheck_countTestTrials	headphonecheck_index	headphonecheck_testSound	headphonecheck_correctResponse	stereocheck_countTestTrials	stereocheck_index	stereocheck_testSound	stereocheck_correctResponse	DL_index	DL_soundfile	DL_leftSound	DL_rightSound	DL_dualSound	DL_choice
6.6.1	win	2023-07-13	22:55:15	23:00:34	313826	5ebed2706c113a28c66ad396	4	1	practice_z	5	practice_z	1	stimuli_target_squarediamonds.svg	stimuli_distractor_trianglediamonds.svg	5	yes	44	1	426	0	0			0	0			1				0	
6.6.1	win	2023-07-13	22:55:15	23:00:34	313826	5ebed2706c113a28c66ad396	4	1	practice_z	5	advance_on_keypress_ZEE	2	stimuli_target_squarediamonds.svg	stimuli_distractor_trianglediamonds.svg	5	yes	57	0	1825	0	0			0	0			1				0	
6.6.1	win	2023-07-13	22:55:15	23:00:38	317838	5ebed2706c113a28c66ad396	4	1	practice_z	5	practice_z	3	stimuli_distractor_trianglediamonds.svg	stimuli_target_diamondrectangles.svg	12	yes	44	1	535	0	0			0	0			1				0	
6.6.1	win	2023-07-13	22:55:15	23:00:38	317838	5ebed2706c113a28c66ad396	4	1	practice_z	5	advance_on_keypress_ZEE	4	stimuli_distractor_trianglediamonds.svg	stimuli_target_diamondrectangles.svg	12	yes	57	0	3093	0	0			0	0			1				0	
6.6.1	win	2023-07-13	22:55:15	23:00:43	323370	5ebed2706c113a28c66ad396	4	1	practice_z	5	practice_z	5	stimuli_distractor_diamondtriangles.svg	stimuli_distractor_diamondtriangles.svg	13	no	44	0	790	0	0			0	0			1				0	
6.6.1	win	2023-07-13	22:55:15	23:00:43	323370	5ebed2706c113a28c66ad396	4	1	practice_z	5	advance_on_keypress_ZEE	6	stimuli_distractor_diamondtriangles.svg	stimuli_distractor_diamondtriangles.svg	13	no	57	0	1819	0	0			0	0			1				0	
6.6.1	win	2023-07-13	22:55:15	23:00:49	328822	5ebed2706c113a28c66ad396	4	1	practice_z	5	practice_z	7	stimuli_distractor_diamondtriangles.svg	stimuli_distractor_trianglediamonds.svg	14	no	0	1	2003	0	0			0	0			1				0	
6.6.1	win	2023-07-13	22:55:15	23:00:49	328822	5ebed2706c113a28c66ad396	4	1	practice_z	5	advance_on_keypress_ZEE	8	stimuli_distractor_diamondtriangles.svg	stimuli_distractor_trianglediamonds.svg	14	no	57	0	890	0	0			0	0			1				0	
6.6.1	win	2023-07-13	22:55:15	23:00:52	332386	5ebed2706c113a28c66ad396	4	1	practice_z	5	practice_z	9	stimuli_distractor_diamondtriangles.svg	stimuli_target_rectangletriangles.svg	7	yes	44	1	1047	0	0			0	0			1				0	
6.6.1	win	2023-07-13	22:55:15	23:00:52	332386	5ebed2706c113a28c66ad396	4	1	practice_z	5	advance_on_keypress_ZEE	10	stimuli_distractor_diamondtriangles.svg	stimuli_target_rectangletriangles.svg	7	yes	57	0	1499	0	0			0	0			1				0	
6.6.1	win	2023-07-13	22:55:15	23:00:56	336369	5ebed2706c113a28c66ad396	4	1	practice_z	5	practice_z	11	stimuli_distractor_diamondtriangles.svg	stimuli_target_trianglerectangles.svg	9	yes	44	1	855	0	0			0	0			1				0	
6.6.1	win	2023-07-13	22:55:15	23:00:56	336369	5ebed2706c113a28c66ad396	4	1	practice_z	5	advance_on_keypress_ZEE	12	stimuli_distractor_diamondtriangles.svg	stimuli_target_trianglerectangles.svg	9	yes	57	0	1455	0	0			0	0			1				0	
6.6.1	win	2023-07-13	22:55:15	23:01:00	340329	5ebed2706c113a28c66ad396	4	1	practice_z	5	practice_z	13	stimuli_target_rectanglediamonds.svg	stimuli_distractor_trianglediamonds.svg	4	yes	44	1	877	0	0			0	0			1				0	
6.6.1	win	2023-07-13	22:55:15	23:01:00	340329	5ebed2706c113a28c66ad396	4	1	practice_z	5	advance_on_keypress_ZEE	14	stimuli_target_rectanglediamonds.svg	stimuli_distractor_trianglediamonds.svg	4	yes	57	0	624	0	0			0	0			1				0	
6.6.1	win	2023-07-13	22:55:15	23:01:04	344608	5ebed2706c113a28c66ad396	4	1	practice_z	5	practice_z	15	stimuli_target_diamondsquares.svg	stimuli_distractor_diamondtriangles.svg	3	yes	0	0	2003	0	0			0	0			1				0	
6.6.1	win	2023-07-13	22:55:15	23:01:04	344608	5ebed2706c113a28c66ad396	4	1	practice_z	5	advance_on_keypress_ZEE	16	stimuli_target_diamondsquares.svg	stimuli_distractor_diamondtriangles.svg	3	yes	57	0	1202	0	0			0	0			1				0	
6.6.1	win	2023-07-13	22:55:15	23:01:08	348131	5ebed2706c113a28c66ad396	4	1	practice_z	5	practice_z	17	stimuli_target_diamondsquares.svg	stimuli_distractor_trianglediamonds.svg	6	yes	44	1	676	0	0			0	0			1				0	
6.6.1	win	2023-07-13	22:55:15	23:01:08	348131	5ebed2706c113a28c66ad396	4	1	practice_z	5	advance_on_keypress_ZEE	18	stimuli_target_diamondsquares.svg	stimuli_distractor_trianglediamonds.svg	6	yes	57	0	838	0	0			0	0			1				0	
6.6.1	win	2023-07-13	22:55:15	23:01:11	351241	5ebed2706c113a28c66ad396	4	1	practice_z	5	practice_z	19	stimuli_distractor_trianglediamonds.svg	stimuli_distractor_trianglediamonds.svg	15	no	44	0	650	0	0			0	0			1				0	
6.6.1	win	2023-07-13	22:55:15	23:01:11	351241	5ebed2706c113a28c66ad396	4	1	practice_z	5	advance_on_keypress_ZEE	20	stimuli_distractor_trianglediamonds.svg	stimuli_distractor_trianglediamonds.svg	15	no	57	0	586	0	0			0	0			1				0	
6.6.1	win	2023-07-13	22:55:15	23:01:14	354160	5ebed2706c113a28c66ad396	4	1	practice_z	5	practice_z	21	stimuli_target_rectanglediamonds.svg	stimuli_distractor_diamondtriangles.svg	1	yes	44	1	716	0	0			0	0			1				0	
6.6.1	win	2023-07-13	22:55:15	23:01:14	354160	5ebed2706c113a28c66ad396	4	1	practice_z	5	advance_on_keypress_ZEE	22	stimuli_target_rectanglediamonds.svg	stimuli_distractor_diamondtriangles.svg	1	yes	57	0	739	0	0			0	0			1				0	
6.6.1	win	2023-07-13	22:55:15	23:01:18	358524	5ebed2706c113a28c66ad396	4	1	practice_z	5	practice_z	23	stimuli_distractor_trianglediamonds.svg	stimuli_distractor_diamondtriangles.svg	16	no	0	1	2003	0	0			0	0			1				0	
6.6.1	win	2023-07-13	22:55:15	23:01:18	358524	5ebed2706c113a28c66ad396	4	1	practice_z	5	advance_on_keypress_ZEE	24	stimuli_distractor_trianglediamonds.svg	stimuli_distractor_diamondtriangles.svg	16	no	57	0	605	0	0			0	0			1				0	
6.6.1	win	2023-07-13	22:55:15	23:01:21	361365	5ebed2706c113a28c66ad396	4	1	practice_z	5	practice_z	25	stimuli_distractor_trianglediamonds.svg	stimuli_target_squarediamonds.svg	11	yes	44	1	614	0	0			0	0			1				0	
6.6.1	win	2023-07-13	22:55:15	23:01:21	361365	5ebed2706c113a28c66ad396	4	1	practice_z	5	advance_on_keypress_ZEE	26	stimuli_distractor_trianglediamonds.svg	stimuli_target_squarediamonds.svg	11	yes	57	0	427	0	0			0	0			1				0	
6.6.1	win	2023-07-13	22:55:15	23:01:24	364183	5ebed2706c113a28c66ad396	4	1	practice_z	5	practice_z	27	stimuli_distractor_trianglediamonds.svg	stimuli_target_rectanglediamonds.svg	10	yes	44	1	767	0	0			0	0			1				0	
6.6.1	win	2023-07-13	22:55:15	23:01:24	364183	5ebed2706c113a28c66ad396	4	1	practice_z	5	advance_on_keypress_ZEE	28	stimuli_distractor_trianglediamonds.svg	stimuli_target_rectanglediamonds.svg	10	yes	57	0	382	0	0			0	0			1				0	
6.6.1	win	2023-07-13	22:55:15	23:01:27	367133	5ebed2706c113a28c66ad396	4	1	practice_z	5	practice_z	29	stimuli_distractor_diamondtriangles.svg	stimuli_target_diamondrectangles.svg	8	yes	44	1	922	0	0			0	0			1				0	
6.6.1	win	2023-07-13	22:55:15	23:01:27	367133	5ebed2706c113a28c66ad396	4	1	practice_z	5	advance_on_keypress_ZEE	30	stimuli_distractor_diamondtriangles.svg	stimuli_target_diamondrectangles.svg	8	yes	57	0	464	0	0			0	0			1				0	
6.6.1	win	2023-07-13	22:55:15	23:01:30	369850	5ebed2706c113a28c66ad396	4	1	practice_z	5	practice_z	31	stimuli_target_squarediamonds.svg	stimuli_distractor_diamondtriangles.svg	2	yes	44	1	635	0	0			0	0			1				0	
6.6.1	win	2023-07-13	22:55:15	23:01:30	369850	5ebed2706c113a28c66ad396	4	1	practice_z	5	advance_on_keypress_ZEE	32	stimuli_target_squarediamonds.svg	stimuli_distractor_diamondtriangles.svg	2	yes	57	0	448	0	0			0	0			1				0	
6.6.1	win	2023-07-13	22:55:15	23:01:38	378504	5ebed2706c113a28c66ad396	4	1	main_z	7	main_z	1	stimuli_target_diamondrectangles.svg	stimuli_distractor_trianglediamonds.svg	19	yes	44	1	642	0	0			0	0			1				0	
6.6.1	win	2023-07-13	22:55:15	23:01:38	378504	5ebed2706c113a28c66ad396	4	1	main_z	7	advance_on_keypress_ZEE	2	stimuli_target_diamondrectangles.svg	stimuli_distractor_trianglediamonds.svg	19	yes	57	0	1128	0	0			0	0			1				0	
6.6.1	win	2023-07-13	22:55:15	23:01:42	382259	5ebed2706c113a28c66ad396	4	1	main_z	7	main_z	3	stimuli_target_diamondsquares.svg	stimuli_distractor_trianglediamonds.svg	20	yes	0	0	2003	0	0			0	0			1				0	
6.6.1	win	2023-07-13	22:55:15	23:01:42	382259	5ebed2706c113a28c66ad396	4	1	main_z	7	advance_on_keypress_ZEE	4	stimuli_target_diamondsquares.svg	stimuli_distractor_trianglediamonds.svg	20	yes	57	0	378	0	0			0	0			1				0	
6.6.1	win	2023-07-13	22:55:15	23:01:44	383800	5ebed2706c113a28c66ad396	4	1	main_z	7	main_z	5	stimuli_target_squaretriangles.svg	stimuli_distractor_diamondtriangles.svg	7	yes	44	1	544	0	0			0	0			1				0	
6.6.1	win	2023-07-13	22:55:15	23:01:44	383800	5ebed2706c113a28c66ad396	4	1	main_z	7	advance_on_keypress_ZEE	6	stimuli_target_squaretriangles.svg	stimuli_distractor_diamondtriangles.svg	7	yes	57	0	987	0	0			0	0			1				0	
6.6.1	win	2023-07-13	22:55:15	23:01:47	387405	5ebed2706c113a28c66ad396	4	1	main_z	7	main_z	7	stimuli_distractor_diamondtriangles.svg	stimuli_distractor_diamondtriangles.svg	39	no	0	1	2003	0	0			0	0			1				0	
6.6.1	win	2023-07-13	22:55:15	23:01:47	387405	5ebed2706c113a28c66ad396	4	1	main_z	7	advance_on_keypress_ZEE	8	stimuli_distractor_diamondtriangles.svg	stimuli_distractor_diamondtriangles.svg	39	no	57	0	413	0	0			0	0			1				0	
6.6.1	win	2023-07-13	22:55:15	23:01:49	388962	5ebed2706c113a28c66ad396	4	1	main_z	7	main_z	9	stimuli_distractor_diamondtriangles.svg	stimuli_target_rectanglediamonds.svg	14	yes	44	1	522	0	0			0	0			1				0	
6.6.1	win	2023-07-13	22:55:15	23:01:49	388962	5ebed2706c113a28c66ad396	4	1	main_z	7	advance_on_keypress_ZEE	10	stimuli_distractor_diamondtriangles.svg	stimuli_target_rectanglediamonds.svg	14	yes	57	0	994	0	0			0	0			1				0	
6.6.1	win	2023-07-13	22:55:15	23:01:51	391342	5ebed2706c113a28c66ad396	4	1	main_z	7	main_z	11	stimuli_distractor_trianglediamonds.svg	stimuli_distractor_trianglediamonds.svg	34	no	44	0	766	0	0			0	0			1				0	
6.6.1	win	2023-07-13	22:55:15	23:01:51	391342	5ebed2706c113a28c66ad396	4	1	main_z	7	advance_on_keypress_ZEE	12	stimuli_distractor_trianglediamonds.svg	stimuli_distractor_trianglediamonds.svg	34	no	57	0	737	0	0			0	0			1				0	
6.6.1	win	2023-07-13	22:55:15	23:01:53	393500	5ebed2706c113a28c66ad396	4	1	main_z	7	main_z	13	stimuli_distractor_trianglediamonds.svg	stimuli_target_trianglesquares.svg	26	yes	44	1	807	0	0			0	0			1				0	
6.6.1	win	2023-07-13	22:55:15	23:01:53	393500	5ebed2706c113a28c66ad396	4	1	main_z	7	advance_on_keypress_ZEE	14	stimuli_distractor_trianglediamonds.svg	stimuli_target_trianglesquares.svg	26	yes	57	0	622	0	0			0	0			1				0	
6.6.1	win	2023-07-13	22:55:15	23:01:55	395412	5ebed2706c113a28c66ad396	4	1	main_z	7	main_z	15	stimuli_target_rectanglediamonds.svg	stimuli_distractor_diamondtriangles.svg	6	yes	44	1	669	0	0			0	0			1				0	
6.6.1	win	2023-07-13	22:55:15	23:01:55	395412	5ebed2706c113a28c66ad396	4	1	main_z	7	advance_on_keypress_ZEE	16	stimuli_target_rectanglediamonds.svg	stimuli_distractor_diamondtriangles.svg	6	yes	57	0	748	0	0			0	0			1				0	
6.6.1	win	2023-07-13	22:55:15	23:01:59	398780	5ebed2706c113a28c66ad396	4	1	main_z	7	main_z	17	stimuli_distractor_trianglediamonds.svg	stimuli_distractor_diamondtriangles.svg	36	no	0	1	2003	0	0			0	0			1				0	
6.6.1	win	2023-07-13	22:55:15	23:01:59	398780	5ebed2706c113a28c66ad396	4	1	main_z	7	advance_on_keypress_ZEE	18	stimuli_distractor_trianglediamonds.svg	stimuli_distractor_diamondtriangles.svg	36	no	57	0	391	0	0			0	0			1				0	
6.6.1	win	2023-07-13	22:55:15	23:02:00	400484	5ebed2706c113a28c66ad396	4	1	main_z	7	main_z	19	stimuli_distractor_trianglediamonds.svg	stimuli_distractor_diamondtriangles.svg	35	no	44	0	674	0	0			0	0			1				0	
6.6.1	win	2023-07-13	22:55:15	23:02:00	400484	5ebed2706c113a28c66ad396	4	1	main_z	7	advance_on_keypress_ZEE	20	stimuli_distractor_trianglediamonds.svg	stimuli_distractor_diamondtriangles.svg	35	no	57	0	605	0	0			0	0			1				0	
6.6.1	win	2023-07-13	22:55:15	23:02:02	402333	5ebed2706c113a28c66ad396	4	1	main_z	7	main_z	21	stimuli_distractor_diamondtriangles.svg	stimuli_target_rectangletriangles.svg	13	yes	44	1	609	0	0			0	0			1				0	
6.6.1	win	2023-07-13	22:55:15	23:02:02	402333	5ebed2706c113a28c66ad396	4	1	main_z	7	advance_on_keypress_ZEE	22	stimuli_distractor_diamondtriangles.svg	stimuli_target_rectangletriangles.svg	13	yes	57	0	779	0	0			0	0			1				0	
6.6.1	win	2023-07-13	22:55:15	23:02:04	404446	5ebed2706c113a28c66ad396	4	1	main_z	7	main_z	23	stimuli_distractor_diamondtriangles.svg	stimuli_distractor_trianglediamonds.svg	37	no	44	0	697	0	0			0	0			1				0	
6.6.1	win	2023-07-13	22:55:15	23:02:04	404446	5ebed2706c113a28c66ad396	4	1	main_z	7	advance_on_keypress_ZEE	24	stimuli_distractor_diamondtriangles.svg	stimuli_distractor_trianglediamonds.svg	37	no	57	0	585	0	0			0	0			1				0	
6.6.1	win	2023-07-13	22:55:15	23:02:06	406221	5ebed2706c113a28c66ad396	4	1	main_z	7	main_z	25	stimuli_distractor_trianglediamonds.svg	stimuli_target_squarediamonds.svg	12	yes	44	1	545	0	0			0	0			1				0	
6.6.1	win	2023-07-13	22:55:15	23:02:06	406221	5ebed2706c113a28c66ad396	4	1	main_z	7	advance_on_keypress_ZEE	26	stimuli_distractor_trianglediamonds.svg	stimuli_target_squarediamonds.svg	12	yes	57	0	502	0	0			0	0			1				0	
6.6.1	win	2023-07-13	22:55:15	23:02:09	409350	5ebed2706c113a28c66ad396	4	1	main_z	7	main_z	27	stimuli_distractor_diamondtriangles.svg	stimuli_target_diamondrectangles.svg	31	yes	0	0	2003	0	0			0	0			1				0	
6.6.1	win	2023-07-13	22:55:15	23:02:09	409350	5ebed2706c113a28c66ad396	4	1	main_z	7	advance_on_keypress_ZEE	28	stimuli_distractor_diamondtriangles.svg	stimuli_target_diamondrectangles.svg	31	yes	57	0	456	0	0			0	0			1				0	
6.6.1	win	2023-07-13	22:55:15	23:02:11	410949	5ebed2706c113a28c66ad396	4	1	main_z	7	main_z	29	stimuli_target_squarediamonds.svg	stimuli_distractor_trianglediamonds.svg	4	yes	44	1	525	0	0			0	0			1				0	
6.6.1	win	2023-07-13	22:55:15	23:02:11	410949	5ebed2706c113a28c66ad396	4	1	main_z	7	advance_on_keypress_ZEE	30	stimuli_target_squarediamonds.svg	stimuli_distractor_trianglediamonds.svg	4	yes	57	0	495	0	0			0	0			1				0	
6.6.1	win	2023-07-13	22:55:15	23:02:12	412661	5ebed2706c113a28c66ad396	4	1	main_z	7	main_z	31	stimuli_target_rectanglediamonds.svg	stimuli_distractor_trianglediamonds.svg	2	yes	44	1	599	0	0			0	0			1				0	
6.6.1	win	2023-07-13	22:55:15	23:02:12	412661	5ebed2706c113a28c66ad396	4	1	main_z	7	advance_on_keypress_ZEE	32	stimuli_target_rectanglediamonds.svg	stimuli_distractor_trianglediamonds.svg	2	yes	57	0	458	0	0			0	0			1				0	
6.6.1	win	2023-07-13	22:55:15	23:02:15	415739	5ebed2706c113a28c66ad396	4	1	main_z	7	main_z	33	stimuli_distractor_trianglediamonds.svg	stimuli_target_rectangletriangles.svg	9	yes	0	0	2003	0	0			0	0			1				0	
6.6.1	win	2023-07-13	22:55:15	23:02:15	415739	5ebed2706c113a28c66ad396	4	1	main_z	7	advance_on_keypress_ZEE	34	stimuli_distractor_trianglediamonds.svg	stimuli_target_rectangletriangles.svg	9	yes	57	0	575	0	0			0	0			1				0	
6.6.1	win	2023-07-13	22:55:15	23:02:19	418951	5ebed2706c113a28c66ad396	4	1	main_z	7	main_z	35	stimuli_distractor_trianglediamonds.svg	stimuli_target_diamondsquares.svg	28	yes	0	0	2003	0	0			0	0			1				0	
6.6.1	win	2023-07-13	22:55:15	23:02:19	418951	5ebed2706c113a28c66ad396	4	1	main_z	7	advance_on_keypress_ZEE	36	stimuli_distractor_trianglediamonds.svg	stimuli_target_diamondsquares.svg	28	yes	57	0	375	0	0			0	0			1				0	
6.6.1	win	2023-07-13	22:55:15	23:02:20	420557	5ebed2706c113a28c66ad396	4	1	main_z	7	main_z	37	stimuli_target_squarediamonds.svg	stimuli_distractor_diamondtriangles.svg	8	yes	44	1	593	0	0			0	0			1				0	
6.6.1	win	2023-07-13	22:55:15	23:02:20	420557	5ebed2706c113a28c66ad396	4	1	main_z	7	advance_on_keypress_ZEE	38	stimuli_target_squarediamonds.svg	stimuli_distractor_diamondtriangles.svg	8	yes	57	0	610	0	0			0	0			1				0	
6.6.1	win	2023-07-13	22:55:15	23:02:22	422581	5ebed2706c113a28c66ad396	4	1	main_z	7	main_z	39	stimuli_distractor_diamondtriangles.svg	stimuli_target_trianglesquares.svg	30	yes	44	1	761	0	0			0	0			1				0	
6.6.1	win	2023-07-13	22:55:15	23:02:22	422581	5ebed2706c113a28c66ad396	4	1	main_z	7	advance_on_keypress_ZEE	40	stimuli_distractor_diamondtriangles.svg	stimuli_target_trianglesquares.svg	30	yes	57	0	554	0	0			0	0			1				0	
6.6.1	win	2023-07-13	22:55:15	23:02:25	425774	5ebed2706c113a28c66ad396	4	1	main_z	7	main_z	41	stimuli_distractor_trianglediamonds.svg	stimuli_distractor_trianglediamonds.svg	33	no	0	1	2003	0	0			0	0			1				0	
6.6.1	win	2023-07-13	22:55:15	23:02:25	425774	5ebed2706c113a28c66ad396	4	1	main_z	7	advance_on_keypress_ZEE	42	stimuli_distractor_trianglediamonds.svg	stimuli_distractor_trianglediamonds.svg	33	no	57	0	422	0	0			0	0			1				0	
6.6.1	win	2023-07-13	22:55:15	23:02:29	428840	5ebed2706c113a28c66ad396	4	1	main_z	7	main_z	43	stimuli_target_trianglesquares.svg	stimuli_distractor_trianglediamonds.svg	18	yes	0	0	2003	0	0			0	0			1				0	
6.6.1	win	2023-07-13	22:55:15	23:02:29	428840	5ebed2706c113a28c66ad396	4	1	main_z	7	advance_on_keypress_ZEE	44	stimuli_target_trianglesquares.svg	stimuli_distractor_trianglediamonds.svg	18	yes	57	0	402	0	0			0	0			1				0	
6.6.1	win	2023-07-13	22:55:15	23:02:30	430375	5ebed2706c113a28c66ad396	4	1	main_z	7	main_z	45	stimuli_distractor_trianglediamonds.svg	stimuli_target_rectanglediamonds.svg	10	yes	44	1	513	0	0			0	0			1				0	
6.6.1	win	2023-07-13	22:55:15	23:02:30	430375	5ebed2706c113a28c66ad396	4	1	main_z	7	advance_on_keypress_ZEE	46	stimuli_distractor_trianglediamonds.svg	stimuli_target_rectanglediamonds.svg	10	yes	57	0	625	0	0			0	0			1				0	
6.6.1	win	2023-07-13	22:55:15	23:02:32	432268	5ebed2706c113a28c66ad396	4	1	main_z	7	main_z	47	stimuli_distractor_trianglediamonds.svg	stimuli_target_trianglerectangles.svg	25	yes	44	1	651	0	0			0	0			1				0	
6.6.1	win	2023-07-13	22:55:15	23:02:32	432268	5ebed2706c113a28c66ad396	4	1	main_z	7	advance_on_keypress_ZEE	48	stimuli_distractor_trianglediamonds.svg	stimuli_target_trianglerectangles.svg	25	yes	57	0	451	0	0			0	0			1				0	
6.6.1	win	2023-07-13	22:55:15	23:02:34	433890	5ebed2706c113a28c66ad396	4	1	main_z	7	main_z	49	stimuli_target_rectangletriangles.svg	stimuli_distractor_trianglediamonds.svg	1	yes	44	1	538	0	0			0	0			1				0	
6.6.1	win	2023-07-13	22:55:15	23:02:34	433890	5ebed2706c113a28c66ad396	4	1	main_z	7	advance_on_keypress_ZEE	50	stimuli_target_rectangletriangles.svg	stimuli_distractor_trianglediamonds.svg	1	yes	57	0	526	0	0			0	0			1				0	
6.6.1	win	2023-07-13	22:55:15	23:02:37	437053	5ebed2706c113a28c66ad396	4	1	main_z	7	main_z	51	stimuli_distractor_diamondtriangles.svg	stimuli_target_diamondsquares.svg	32	yes	0	0	2003	0	0			0	0			1				0	
6.6.1	win	2023-07-13	22:55:15	23:02:37	437053	5ebed2706c113a28c66ad396	4	1	main_z	7	advance_on_keypress_ZEE	52	stimuli_distractor_diamondtriangles.svg	stimuli_target_diamondsquares.svg	32	yes	57	0	466	0	0			0	0			1				0	
6.6.1	win	2023-07-13	22:55:15	23:02:38	438700	5ebed2706c113a28c66ad396	4	1	main_z	7	main_z	53	stimuli_distractor_trianglediamonds.svg	stimuli_target_squaretriangles.svg	11	yes	44	1	553	0	0			0	0			1				0	
6.6.1	win	2023-07-13	22:55:15	23:02:38	438700	5ebed2706c113a28c66ad396	4	1	main_z	7	advance_on_keypress_ZEE	54	stimuli_distractor_trianglediamonds.svg	stimuli_target_squaretriangles.svg	11	yes	57	0	426	0	0			0	0			1				0	
6.6.1	win	2023-07-13	22:55:15	23:02:40	440308	5ebed2706c113a28c66ad396	4	1	main_z	7	main_z	55	stimuli_distractor_diamondtriangles.svg	stimuli_target_squarediamonds.svg	16	yes	44	1	543	0	0			0	0			1				0	
6.6.1	win	2023-07-13	22:55:15	23:02:40	440308	5ebed2706c113a28c66ad396	4	1	main_z	7	advance_on_keypress_ZEE	56	stimuli_distractor_diamondtriangles.svg	stimuli_target_squarediamonds.svg	16	yes	57	0	494	0	0			0	0			1				0	
6.6.1	win	2023-07-13	22:55:15	23:02:43	443420	5ebed2706c113a28c66ad396	4	1	main_z	7	main_z	57	stimuli_distractor_diamondtriangles.svg	stimuli_target_trianglerectangles.svg	29	yes	0	0	2003	0	0			0	0			1				0	
6.6.1	win	2023-07-13	22:55:15	23:02:43	443420	5ebed2706c113a28c66ad396	4	1	main_z	7	advance_on_keypress_ZEE	58	stimuli_distractor_diamondtriangles.svg	stimuli_target_trianglerectangles.svg	29	yes	57	0	620	0	0			0	0			1				0	
6.6.1	win	2023-07-13	22:55:15	23:02:46	446656	5ebed2706c113a28c66ad396	4	1	main_z	7	main_z	59	stimuli_distractor_trianglediamonds.svg	stimuli_target_diamondrectangles.svg	27	yes	0	0	2003	0	0			0	0			1				0	
6.6.1	win	2023-07-13	22:55:15	23:02:46	446656	5ebed2706c113a28c66ad396	4	1	main_z	7	advance_on_keypress_ZEE	60	stimuli_distractor_trianglediamonds.svg	stimuli_target_diamondrectangles.svg	27	yes	57	0	623	0	0			0	0			1				0	
6.6.1	win	2023-07-13	22:55:15	23:02:48	448575	5ebed2706c113a28c66ad396	4	1	main_z	7	main_z	61	stimuli_target_trianglesquares.svg	stimuli_distractor_diamondtriangles.svg	22	yes	44	1	664	0	0			0	0			1				0	
6.6.1	win	2023-07-13	22:55:15	23:02:48	448575	5ebed2706c113a28c66ad396	4	1	main_z	7	advance_on_keypress_ZEE	62	stimuli_target_trianglesquares.svg	stimuli_distractor_diamondtriangles.svg	22	yes	57	0	465	0	0			0	0			1				0	
6.6.1	win	2023-07-13	22:55:15	23:02:50	450205	5ebed2706c113a28c66ad396	4	1	main_z	7	main_z	63	stimuli_target_squaretriangles.svg	stimuli_distractor_trianglediamonds.svg	3	yes	44	1	520	0	0			0	0			1				0	
6.6.1	win	2023-07-13	22:55:15	23:02:50	450205	5ebed2706c113a28c66ad396	4	1	main_z	7	advance_on_keypress_ZEE	64	stimuli_target_squaretriangles.svg	stimuli_distractor_trianglediamonds.svg	3	yes	57	0	605	0	0			0	0			1				0	
6.6.1	win	2023-07-13	22:55:15	23:02:53	453452	5ebed2706c113a28c66ad396	4	1	main_z	7	main_z	65	stimuli_target_diamondrectangles.svg	stimuli_distractor_diamondtriangles.svg	23	yes	0	0	2003	0	0			0	0			1				0	
6.6.1	win	2023-07-13	22:55:15	23:02:53	453452	5ebed2706c113a28c66ad396	4	1	main_z	7	advance_on_keypress_ZEE	66	stimuli_target_diamondrectangles.svg	stimuli_distractor_diamondtriangles.svg	23	yes	57	0	1156	0	0			0	0			1				0	
6.6.1	win	2023-07-13	22:55:15	23:02:57	457249	5ebed2706c113a28c66ad396	4	1	main_z	7	main_z	67	stimuli_target_diamondsquares.svg	stimuli_distractor_diamondtriangles.svg	24	yes	0	0	2003	0	0			0	0			1				0	
6.6.1	win	2023-07-13	22:55:15	23:02:57	457249	5ebed2706c113a28c66ad396	4	1	main_z	7	advance_on_keypress_ZEE	68	stimuli_target_diamondsquares.svg	stimuli_distractor_diamondtriangles.svg	24	yes	57	0	1004	0	0			0	0			1				0	
6.6.1	win	2023-07-13	22:55:15	23:02:59	459532	5ebed2706c113a28c66ad396	4	1	main_z	7	main_z	69	stimuli_target_trianglerectangles.svg	stimuli_distractor_diamondtriangles.svg	21	yes	44	1	642	0	0			0	0			1				0	
6.6.1	win	2023-07-13	22:55:15	23:02:59	459532	5ebed2706c113a28c66ad396	4	1	main_z	7	advance_on_keypress_ZEE	70	stimuli_target_trianglerectangles.svg	stimuli_distractor_diamondtriangles.svg	21	yes	57	0	450	0	0			0	0			1				0	
6.6.1	win	2023-07-13	22:55:15	23:03:01	461514	5ebed2706c113a28c66ad396	4	1	main_z	7	main_z	71	stimuli_distractor_diamondtriangles.svg	stimuli_distractor_diamondtriangles.svg	40	no	44	0	901	0	0			0	0			1				0	
6.6.1	win	2023-07-13	22:55:15	23:03:01	461514	5ebed2706c113a28c66ad396	4	1	main_z	7	advance_on_keypress_ZEE	72	stimuli_distractor_diamondtriangles.svg	stimuli_distractor_diamondtriangles.svg	40	no	57	0	434	0	0			0	0			1				0	
6.6.1	win	2023-07-13	22:55:15	23:03:03	463070	5ebed2706c113a28c66ad396	4	1	main_z	7	main_z	73	stimuli_target_rectangletriangles.svg	stimuli_distractor_diamondtriangles.svg	5	yes	44	1	500	0	0			0	0			1				0	
6.6.1	win	2023-07-13	22:55:15	23:03:03	463070	5ebed2706c113a28c66ad396	4	1	main_z	7	advance_on_keypress_ZEE	74	stimuli_target_rectangletriangles.svg	stimuli_distractor_diamondtriangles.svg	5	yes	57	0	431	0	0			0	0			1				0	
6.6.1	win	2023-07-13	22:55:15	23:03:06	466122	5ebed2706c113a28c66ad396	4	1	main_z	7	main_z	75	stimuli_target_trianglerectangles.svg	stimuli_distractor_trianglediamonds.svg	17	yes	0	0	2003	0	0			0	0			1				0	
6.6.1	win	2023-07-13	22:55:15	23:03:06	466122	5ebed2706c113a28c66ad396	4	1	main_z	7	advance_on_keypress_ZEE	76	stimuli_target_trianglerectangles.svg	stimuli_distractor_trianglediamonds.svg	17	yes	57	0	604	0	0			0	0			1				0	
6.6.1	win	2023-07-13	22:55:15	23:03:08	468051	5ebed2706c113a28c66ad396	4	1	main_z	7	main_z	77	stimuli_distractor_diamondtriangles.svg	stimuli_distractor_trianglediamonds.svg	38	no	44	0	709	0	0			0	0			1				0	
6.6.1	win	2023-07-13	22:55:15	23:03:08	468051	5ebed2706c113a28c66ad396	4	1	main_z	7	advance_on_keypress_ZEE	78	stimuli_distractor_diamondtriangles.svg	stimuli_distractor_trianglediamonds.svg	38	no	57	0	460	0	0			0	0			1				0	
6.6.1	win	2023-07-13	22:55:15	23:03:09	469748	5ebed2706c113a28c66ad396	4	1	main_z	7	main_z	79	stimuli_distractor_diamondtriangles.svg	stimuli_target_squaretriangles.svg	15	yes	44	1	623	0	0			0	0			1				0	
6.6.1	win	2023-07-13	22:55:15	23:03:09	469748	5ebed2706c113a28c66ad396	4	1	main_z	7	advance_on_keypress_ZEE	80	stimuli_distractor_diamondtriangles.svg	stimuli_target_squaretriangles.svg	15	yes	57	0	426	0	0			0	0			1				0	
6.6.1	win	2023-07-13	22:55:15	23:03:13	472812	5ebed2706c113a28c66ad396	4	1	main_z	7	main_z	81	stimuli_distractor_diamondtriangles.svg	stimuli_distractor_diamondtriangles.svg	40	no	0	1	2003	0	0			0	0			1				0	
6.6.1	win	2023-07-13	22:55:15	23:03:13	472812	5ebed2706c113a28c66ad396	4	1	main_z	7	advance_on_keypress_ZEE	82	stimuli_distractor_diamondtriangles.svg	stimuli_distractor_diamondtriangles.svg	40	no	57	0	394	0	0			0	0			1				0	
6.6.1	win	2023-07-13	22:55:15	23:03:14	474464	5ebed2706c113a28c66ad396	4	1	main_z	7	main_z	83	stimuli_distractor_diamondtriangles.svg	stimuli_target_squaretriangles.svg	15	yes	44	1	618	0	0			0	0			1				0	
6.6.1	win	2023-07-13	22:55:15	23:03:14	474464	5ebed2706c113a28c66ad396	4	1	main_z	7	advance_on_keypress_ZEE	84	stimuli_distractor_diamondtriangles.svg	stimuli_target_squaretriangles.svg	15	yes	57	0	403	0	0			0	0			1				0	
6.6.1	win	2023-07-13	22:55:15	23:03:16	476033	5ebed2706c113a28c66ad396	4	1	main_z	7	main_z	85	stimuli_target_rectanglediamonds.svg	stimuli_distractor_trianglediamonds.svg	2	yes	44	1	545	0	0			0	0			1				0	
6.6.1	win	2023-07-13	22:55:15	23:03:16	476033	5ebed2706c113a28c66ad396	4	1	main_z	7	advance_on_keypress_ZEE	86	stimuli_target_rectanglediamonds.svg	stimuli_distractor_trianglediamonds.svg	2	yes	57	0	358	0	0			0	0			1				0	
6.6.1	win	2023-07-13	22:55:15	23:03:17	477593	5ebed2706c113a28c66ad396	4	1	main_z	7	main_z	87	stimuli_target_rectangletriangles.svg	stimuli_distractor_trianglediamonds.svg	1	yes	44	1	578	0	0			0	0			1				0	
6.6.1	win	2023-07-13	22:55:15	23:03:17	477593	5ebed2706c113a28c66ad396	4	1	main_z	7	advance_on_keypress_ZEE	88	stimuli_target_rectangletriangles.svg	stimuli_distractor_trianglediamonds.svg	1	yes	57	0	365	0	0			0	0			1				0	
6.6.1	win	2023-07-13	22:55:15	23:03:19	479160	5ebed2706c113a28c66ad396	4	1	main_z	7	main_z	89	stimuli_distractor_trianglediamonds.svg	stimuli_target_rectanglediamonds.svg	10	yes	44	1	582	0	0			0	0			1				0	
6.6.1	win	2023-07-13	22:55:15	23:03:19	479160	5ebed2706c113a28c66ad396	4	1	main_z	7	advance_on_keypress_ZEE	90	stimuli_distractor_trianglediamonds.svg	stimuli_target_rectanglediamonds.svg	10	yes	57	0	320	0	0			0	0			1				0	
6.6.1	win	2023-07-13	22:55:15	23:03:21	480785	5ebed2706c113a28c66ad396	4	1	main_z	7	main_z	91	stimuli_distractor_trianglediamonds.svg	stimuli_target_squaretriangles.svg	11	yes	44	1	686	0	0			0	0			1				0	
6.6.1	win	2023-07-13	22:55:15	23:03:21	480785	5ebed2706c113a28c66ad396	4	1	main_z	7	advance_on_keypress_ZEE	92	stimuli_distractor_trianglediamonds.svg	stimuli_target_squaretriangles.svg	11	yes	57	0	308	0	0			0	0			1				0	
6.6.1	win	2023-07-13	22:55:15	23:03:23	483712	5ebed2706c113a28c66ad396	4	1	main_z	7	main_z	93	stimuli_distractor_trianglediamonds.svg	stimuli_target_trianglerectangles.svg	25	yes	0	0	2003	0	0			0	0			1				0	
6.6.1	win	2023-07-13	22:55:15	23:03:23	483712	5ebed2706c113a28c66ad396	4	1	main_z	7	advance_on_keypress_ZEE	94	stimuli_distractor_trianglediamonds.svg	stimuli_target_trianglerectangles.svg	25	yes	57	0	431	0	0			0	0			1				0	
6.6.1	win	2023-07-13	22:55:15	23:03:25	485678	5ebed2706c113a28c66ad396	4	1	main_z	7	main_z	95	stimuli_distractor_diamondtriangles.svg	stimuli_target_diamondrectangles.svg	31	yes	44	1	895	0	0			0	0			1				0	
6.6.1	win	2023-07-13	22:55:15	23:03:25	485678	5ebed2706c113a28c66ad396	4	1	main_z	7	advance_on_keypress_ZEE	96	stimuli_distractor_diamondtriangles.svg	stimuli_target_diamondrectangles.svg	31	yes	57	0	326	0	0			0	0			1				0	
6.6.1	win	2023-07-13	22:55:15	23:03:27	487246	5ebed2706c113a28c66ad396	4	1	main_z	7	main_z	97	stimuli_target_squarediamonds.svg	stimuli_distractor_trianglediamonds.svg	4	yes	44	1	609	0	0			0	0			1				0	
6.6.1	win	2023-07-13	22:55:15	23:03:27	487246	5ebed2706c113a28c66ad396	4	1	main_z	7	advance_on_keypress_ZEE	98	stimuli_target_squarediamonds.svg	stimuli_distractor_trianglediamonds.svg	4	yes	57	0	318	0	0			0	0			1				0	
6.6.1	win	2023-07-13	22:55:15	23:03:29	488837	5ebed2706c113a28c66ad396	4	1	main_z	7	main_z	99	stimuli_distractor_diamondtriangles.svg	stimuli_target_rectangletriangles.svg	13	yes	44	1	636	0	0			0	0			1				0	
6.6.1	win	2023-07-13	22:55:15	23:03:29	488837	5ebed2706c113a28c66ad396	4	1	main_z	7	advance_on_keypress_ZEE	100	stimuli_distractor_diamondtriangles.svg	stimuli_target_rectangletriangles.svg	13	yes	57	0	341	0	0			0	0			1				0	
6.6.1	win	2023-07-13	22:55:15	23:03:30	490518	5ebed2706c113a28c66ad396	4	1	main_z	7	main_z	101	stimuli_target_squaretriangles.svg	stimuli_distractor_trianglediamonds.svg	3	yes	44	1	709	0	0			0	0			1				0	
6.6.1	win	2023-07-13	22:55:15	23:03:30	490518	5ebed2706c113a28c66ad396	4	1	main_z	7	advance_on_keypress_ZEE	102	stimuli_target_squaretriangles.svg	stimuli_distractor_trianglediamonds.svg	3	yes	57	0	287	0	0			0	0			1				0	
6.6.1	win	2023-07-13	22:55:15	23:03:33	493435	5ebed2706c113a28c66ad396	4	1	main_z	7	main_z	103	stimuli_target_trianglesquares.svg	stimuli_distractor_trianglediamonds.svg	18	yes	0	0	2003	0	0			0	0			1				0	
6.6.1	win	2023-07-13	22:55:15	23:03:33	493435	5ebed2706c113a28c66ad396	4	1	main_z	7	advance_on_keypress_ZEE	104	stimuli_target_trianglesquares.svg	stimuli_distractor_trianglediamonds.svg	18	yes	57	0	628	0	0			0	0			1				0	
6.6.1	win	2023-07-13	22:55:15	23:03:35	495295	5ebed2706c113a28c66ad396	4	1	main_z	7	main_z	105	stimuli_distractor_trianglediamonds.svg	stimuli_target_trianglesquares.svg	26	yes	44	1	606	0	0			0	0			1				0	
6.6.1	win	2023-07-13	22:55:15	23:03:35	495295	5ebed2706c113a28c66ad396	4	1	main_z	7	advance_on_keypress_ZEE	106	stimuli_distractor_trianglediamonds.svg	stimuli_target_trianglesquares.svg	26	yes	57	0	387	0	0			0	0			1				0	
6.6.1	win	2023-07-13	22:55:15	23:03:37	497115	5ebed2706c113a28c66ad396	4	1	main_z	7	main_z	107	stimuli_distractor_trianglediamonds.svg	stimuli_target_diamondsquares.svg	28	yes	44	1	815	0	0			0	0			1				0	
6.6.1	win	2023-07-13	22:55:15	23:03:37	497115	5ebed2706c113a28c66ad396	4	1	main_z	7	advance_on_keypress_ZEE	108	stimuli_distractor_trianglediamonds.svg	stimuli_target_diamondsquares.svg	28	yes	57	0	332	0	0			0	0			1				0	
6.6.1	win	2023-07-13	22:55:15	23:03:40	500067	5ebed2706c113a28c66ad396	4	1	main_z	7	main_z	109	stimuli_distractor_trianglediamonds.svg	stimuli_distractor_diamondtriangles.svg	36	no	0	1	2003	0	0			0	0			1				0	
6.6.1	win	2023-07-13	22:55:15	23:03:40	500067	5ebed2706c113a28c66ad396	4	1	main_z	7	advance_on_keypress_ZEE	110	stimuli_distractor_trianglediamonds.svg	stimuli_distractor_diamondtriangles.svg	36	no	57	0	501	0	0			0	0			1				0	
6.6.1	win	2023-07-13	22:55:15	23:03:43	503199	5ebed2706c113a28c66ad396	4	1	main_z	7	main_z	111	stimuli_target_diamondrectangles.svg	stimuli_distractor_diamondtriangles.svg	23	yes	0	0	2003	0	0			0	0			1				0	
6.6.1	win	2023-07-13	22:55:15	23:03:43	503199	5ebed2706c113a28c66ad396	4	1	main_z	7	advance_on_keypress_ZEE	112	stimuli_target_diamondrectangles.svg	stimuli_distractor_diamondtriangles.svg	23	yes	57	0	521	0	0			0	0			1				0	
6.6.1	win	2023-07-13	22:55:15	23:03:46	506357	5ebed2706c113a28c66ad396	4	1	main_z	7	main_z	113	stimuli_distractor_trianglediamonds.svg	stimuli_distractor_trianglediamonds.svg	33	no	0	1	2003	0	0			0	0			1				0	
6.6.1	win	2023-07-13	22:55:15	23:03:46	506357	5ebed2706c113a28c66ad396	4	1	main_z	7	advance_on_keypress_ZEE	114	stimuli_distractor_trianglediamonds.svg	stimuli_distractor_trianglediamonds.svg	33	no	57	0	439	0	0			0	0			1				0	
6.6.1	win	2023-07-13	22:55:15	23:03:48	507932	5ebed2706c113a28c66ad396	4	1	main_z	7	main_z	115	stimuli_distractor_trianglediamonds.svg	stimuli_distractor_diamondtriangles.svg	35	no	44	0	506	0	0			0	0			1				0	
6.6.1	win	2023-07-13	22:55:15	23:03:48	507932	5ebed2706c113a28c66ad396	4	1	main_z	7	advance_on_keypress_ZEE	116	stimuli_distractor_trianglediamonds.svg	stimuli_distractor_diamondtriangles.svg	35	no	57	0	463	0	0			0	0			1				0	
6.6.1	win	2023-07-13	22:55:15	23:03:49	509527	5ebed2706c113a28c66ad396	4	1	main_z	7	main_z	117	stimuli_distractor_trianglediamonds.svg	stimuli_target_rectangletriangles.svg	9	yes	44	1	512	0	0			0	0			1				0	
6.6.1	win	2023-07-13	22:55:15	23:03:49	509527	5ebed2706c113a28c66ad396	4	1	main_z	7	advance_on_keypress_ZEE	118	stimuli_distractor_trianglediamonds.svg	stimuli_target_rectangletriangles.svg	9	yes	57	0	349	0	0			0	0			1				0	
6.6.1	win	2023-07-13	22:55:15	23:03:51	511264	5ebed2706c113a28c66ad396	4	1	main_z	7	main_z	119	stimuli_distractor_diamondtriangles.svg	stimuli_target_diamondsquares.svg	32	yes	44	1	769	0	0			0	0			1				0	
6.6.1	win	2023-07-13	22:55:15	23:03:51	511264	5ebed2706c113a28c66ad396	4	1	main_z	7	advance_on_keypress_ZEE	120	stimuli_distractor_diamondtriangles.svg	stimuli_target_diamondsquares.svg	32	yes	57	0	314	0	0			0	0			1				0	
6.6.1	win	2023-07-13	22:55:15	23:03:52	512703	5ebed2706c113a28c66ad396	4	1	main_z	7	main_z	121	stimuli_target_rectangletriangles.svg	stimuli_distractor_diamondtriangles.svg	5	yes	44	1	507	0	0			0	0			1				0	
6.6.1	win	2023-07-13	22:55:15	23:03:52	512703	5ebed2706c113a28c66ad396	4	1	main_z	7	advance_on_keypress_ZEE	122	stimuli_target_rectangletriangles.svg	stimuli_distractor_diamondtriangles.svg	5	yes	57	0	336	0	0			0	0			1				0	
6.6.1	win	2023-07-13	22:55:15	23:03:54	514157	5ebed2706c113a28c66ad396	4	1	main_z	7	main_z	123	stimuli_target_rectanglediamonds.svg	stimuli_distractor_diamondtriangles.svg	6	yes	44	1	503	0	0			0	0			1				0	
6.6.1	win	2023-07-13	22:55:15	23:03:54	514157	5ebed2706c113a28c66ad396	4	1	main_z	7	advance_on_keypress_ZEE	124	stimuli_target_rectanglediamonds.svg	stimuli_distractor_diamondtriangles.svg	6	yes	57	0	286	0	0			0	0			1				0	
6.6.1	win	2023-07-13	22:55:15	23:03:57	517075	5ebed2706c113a28c66ad396	4	1	main_z	7	main_z	125	stimuli_target_diamondsquares.svg	stimuli_distractor_trianglediamonds.svg	20	yes	0	0	2003	0	0			0	0			1				0	
6.6.1	win	2023-07-13	22:55:15	23:03:57	517075	5ebed2706c113a28c66ad396	4	1	main_z	7	advance_on_keypress_ZEE	126	stimuli_target_diamondsquares.svg	stimuli_distractor_trianglediamonds.svg	20	yes	57	0	602	0	0			0	0			1				0	
6.6.1	win	2023-07-13	22:55:15	23:03:59	518822	5ebed2706c113a28c66ad396	4	1	main_z	7	main_z	127	stimuli_distractor_diamondtriangles.svg	stimuli_distractor_trianglediamonds.svg	37	no	44	0	513	0	0			0	0			1				0	
6.6.1	win	2023-07-13	22:55:15	23:03:59	518822	5ebed2706c113a28c66ad396	4	1	main_z	7	advance_on_keypress_ZEE	128	stimuli_distractor_diamondtriangles.svg	stimuli_distractor_trianglediamonds.svg	37	no	57	0	357	0	0			0	0			1				0	
6.6.1	win	2023-07-13	22:55:15	23:04:02	521815	5ebed2706c113a28c66ad396	4	1	main_z	7	main_z	129	stimuli_distractor_diamondtriangles.svg	stimuli_distractor_diamondtriangles.svg	39	no	0	1	2003	0	0			0	0			1				0	
6.6.1	win	2023-07-13	22:55:15	23:04:02	521815	5ebed2706c113a28c66ad396	4	1	main_z	7	advance_on_keypress_ZEE	130	stimuli_distractor_diamondtriangles.svg	stimuli_distractor_diamondtriangles.svg	39	no	57	0	418	0	0			0	0			1				0	
6.6.1	win	2023-07-13	22:55:15	23:04:05	524852	5ebed2706c113a28c66ad396	4	1	main_z	7	main_z	131	stimuli_target_trianglesquares.svg	stimuli_distractor_diamondtriangles.svg	22	yes	0	0	2003	0	0			0	0			1				0	
6.6.1	win	2023-07-13	22:55:15	23:04:05	524852	5ebed2706c113a28c66ad396	4	1	main_z	7	advance_on_keypress_ZEE	132	stimuli_target_trianglesquares.svg	stimuli_distractor_diamondtriangles.svg	22	yes	57	0	983	0	0			0	0			1				0	
6.6.1	win	2023-07-13	22:55:15	23:04:07	527300	5ebed2706c113a28c66ad396	4	1	main_z	7	main_z	133	stimuli_distractor_trianglediamonds.svg	stimuli_distractor_trianglediamonds.svg	34	no	44	0	846	0	0			0	0			1				0	
6.6.1	win	2023-07-13	22:55:15	23:04:07	527300	5ebed2706c113a28c66ad396	4	1	main_z	7	advance_on_keypress_ZEE	134	stimuli_distractor_trianglediamonds.svg	stimuli_distractor_trianglediamonds.svg	34	no	57	0	383	0	0			0	0			1				0	
6.6.1	win	2023-07-13	22:55:15	23:04:09	529164	5ebed2706c113a28c66ad396	4	1	main_z	7	main_z	135	stimuli_distractor_diamondtriangles.svg	stimuli_target_trianglerectangles.svg	29	yes	44	1	844	0	0			0	0			1				0	
6.6.1	win	2023-07-13	22:55:15	23:04:09	529164	5ebed2706c113a28c66ad396	4	1	main_z	7	advance_on_keypress_ZEE	136	stimuli_distractor_diamondtriangles.svg	stimuli_target_trianglerectangles.svg	29	yes	57	0	875	0	0			0	0			1				0	
6.6.1	win	2023-07-13	22:55:15	23:04:12	532671	5ebed2706c113a28c66ad396	4	1	main_z	7	main_z	137	stimuli_target_diamondrectangles.svg	stimuli_distractor_trianglediamonds.svg	19	yes	0	0	2003	0	0			0	0			1				0	
6.6.1	win	2023-07-13	22:55:15	23:04:12	532671	5ebed2706c113a28c66ad396	4	1	main_z	7	advance_on_keypress_ZEE	138	stimuli_target_diamondrectangles.svg	stimuli_distractor_trianglediamonds.svg	19	yes	57	0	563	0	0			0	0			1				0	
6.6.1	win	2023-07-13	22:55:15	23:04:16	535873	5ebed2706c113a28c66ad396	4	1	main_z	7	main_z	139	stimuli_target_trianglerectangles.svg	stimuli_distractor_diamondtriangles.svg	21	yes	0	0	2003	0	0			0	0			1				0	
6.6.1	win	2023-07-13	22:55:15	23:04:16	535873	5ebed2706c113a28c66ad396	4	1	main_z	7	advance_on_keypress_ZEE	140	stimuli_target_trianglerectangles.svg	stimuli_distractor_diamondtriangles.svg	21	yes	57	0	486	0	0			0	0			1				0	
6.6.1	win	2023-07-13	22:55:15	23:04:17	537508	5ebed2706c113a28c66ad396	4	1	main_z	7	main_z	141	stimuli_target_diamondsquares.svg	stimuli_distractor_diamondtriangles.svg	24	yes	44	1	517	0	0			0	0			1				0	
6.6.1	win	2023-07-13	22:55:15	23:04:17	537508	5ebed2706c113a28c66ad396	4	1	main_z	7	advance_on_keypress_ZEE	142	stimuli_target_diamondsquares.svg	stimuli_distractor_diamondtriangles.svg	24	yes	57	0	1246	0	0			0	0			1				0	
6.6.1	win	2023-07-13	22:55:15	23:04:20	540082	5ebed2706c113a28c66ad396	4	1	main_z	7	main_z	143	stimuli_distractor_diamondtriangles.svg	stimuli_target_squarediamonds.svg	16	yes	44	1	690	0	0			0	0			1				0	
6.6.1	win	2023-07-13	22:55:15	23:04:20	540082	5ebed2706c113a28c66ad396	4	1	main_z	7	advance_on_keypress_ZEE	144	stimuli_distractor_diamondtriangles.svg	stimuli_target_squarediamonds.svg	16	yes	57	0	714	0	0			0	0			1				0	
6.6.1	win	2023-07-13	22:55:15	23:04:23	543435	5ebed2706c113a28c66ad396	4	1	main_z	7	main_z	145	stimuli_target_trianglerectangles.svg	stimuli_distractor_trianglediamonds.svg	17	yes	0	0	2003	0	0			0	0			1				0	
6.6.1	win	2023-07-13	22:55:15	23:04:23	543435	5ebed2706c113a28c66ad396	4	1	main_z	7	advance_on_keypress_ZEE	146	stimuli_target_trianglerectangles.svg	stimuli_distractor_trianglediamonds.svg	17	yes	57	0	438	0	0			0	0			1				0	
6.6.1	win	2023-07-13	22:55:15	23:04:25	545010	5ebed2706c113a28c66ad396	4	1	main_z	7	main_z	147	stimuli_target_squarediamonds.svg	stimuli_distractor_diamondtriangles.svg	8	yes	44	1	512	0	0			0	0			1				0	
6.6.1	win	2023-07-13	22:55:15	23:04:25	545010	5ebed2706c113a28c66ad396	4	1	main_z	7	advance_on_keypress_ZEE	148	stimuli_target_squarediamonds.svg	stimuli_distractor_diamondtriangles.svg	8	yes	57	0	751	0	0			0	0			1				0	
6.6.1	win	2023-07-13	22:55:15	23:04:27	547076	5ebed2706c113a28c66ad396	4	1	main_z	7	main_z	149	stimuli_distractor_trianglediamonds.svg	stimuli_target_squarediamonds.svg	12	yes	44	1	669	0	0			0	0			1				0	
6.6.1	win	2023-07-13	22:55:15	23:04:27	547076	5ebed2706c113a28c66ad396	4	1	main_z	7	advance_on_keypress_ZEE	150	stimuli_distractor_trianglediamonds.svg	stimuli_target_squarediamonds.svg	12	yes	57	0	786	0	0			0	0			1				0	
6.6.1	win	2023-07-13	22:55:15	23:04:29	549409	5ebed2706c113a28c66ad396	4	1	main_z	7	main_z	151	stimuli_distractor_diamondtriangles.svg	stimuli_target_trianglesquares.svg	30	yes	44	1	927	0	0			0	0			1				0	
6.6.1	win	2023-07-13	22:55:15	23:04:29	549409	5ebed2706c113a28c66ad396	4	1	main_z	7	advance_on_keypress_ZEE	152	stimuli_distractor_diamondtriangles.svg	stimuli_target_trianglesquares.svg	30	yes	57	0	713	0	0			0	0			1				0	
6.6.1	win	2023-07-13	22:55:15	23:04:32	552749	5ebed2706c113a28c66ad396	4	1	main_z	7	main_z	153	stimuli_distractor_diamondtriangles.svg	stimuli_distractor_trianglediamonds.svg	38	no	0	1	2003	0	0			0	0			1				0	
6.6.1	win	2023-07-13	22:55:15	23:04:32	552749	5ebed2706c113a28c66ad396	4	1	main_z	7	advance_on_keypress_ZEE	154	stimuli_distractor_diamondtriangles.svg	stimuli_distractor_trianglediamonds.svg	38	no	57	0	1078	0	0			0	0			1				0	
6.6.1	win	2023-07-13	22:55:15	23:04:36	556450	5ebed2706c113a28c66ad396	4	1	main_z	7	main_z	155	stimuli_distractor_trianglediamonds.svg	stimuli_target_diamondrectangles.svg	27	yes	0	0	2003	0	0			0	0			1				0	
6.6.1	win	2023-07-13	22:55:15	23:04:36	556450	5ebed2706c113a28c66ad396	4	1	main_z	7	advance_on_keypress_ZEE	156	stimuli_distractor_trianglediamonds.svg	stimuli_target_diamondrectangles.svg	27	yes	57	0	484	0	0			0	0			1				0	
6.6.1	win	2023-07-13	22:55:15	23:04:38	557993	5ebed2706c113a28c66ad396	4	1	main_z	7	main_z	157	stimuli_distractor_diamondtriangles.svg	stimuli_target_rectanglediamonds.svg	14	yes	44	1	442	0	0			0	0			1				0	
6.6.1	win	2023-07-13	22:55:15	23:04:38	557993	5ebed2706c113a28c66ad396	4	1	main_z	7	advance_on_keypress_ZEE	158	stimuli_distractor_diamondtriangles.svg	stimuli_target_rectanglediamonds.svg	14	yes	57	0	617	0	0			0	0			1				0	
6.6.1	win	2023-07-13	22:55:15	23:04:39	559630	5ebed2706c113a28c66ad396	4	1	main_z	7	main_z	159	stimuli_target_squaretriangles.svg	stimuli_distractor_diamondtriangles.svg	7	yes	44	1	397	0	0			0	0			1				0	
6.6.1	win	2023-07-13	22:55:15	23:04:39	559630	5ebed2706c113a28c66ad396	4	1	main_z	7	advance_on_keypress_ZEE	160	stimuli_target_squaretriangles.svg	stimuli_distractor_diamondtriangles.svg	7	yes	57	0	506	0	0			0	0			1				0	
6.6.1	win	2023-07-13	22:55:15	23:05:15	595510	5ebed2706c113a28c66ad396	4	1	practice_slash	9	practice_slash	1	stimuli_distractor_diamondtriangles.svg	stimuli_distractor_diamondtriangles.svg	13	no	53	0	296	0	0			0	0			1				0	
6.6.1	win	2023-07-13	22:55:15	23:05:15	595510	5ebed2706c113a28c66ad396	4	1	practice_slash	9	advance_on_keypress_SLASH	2	stimuli_distractor_diamondtriangles.svg	stimuli_distractor_diamondtriangles.svg	13	no	57	0	1206	0	0			0	0			1				0	
6.6.1	win	2023-07-13	22:55:15	23:05:18	598593	5ebed2706c113a28c66ad396	4	1	practice_slash	9	practice_slash	3	stimuli_target_squarediamonds.svg	stimuli_distractor_diamondtriangles.svg	2	yes	53	1	253	0	0			0	0			1				0	
6.6.1	win	2023-07-13	22:55:15	23:05:18	598593	5ebed2706c113a28c66ad396	4	1	practice_slash	9	advance_on_keypress_SLASH	4	stimuli_target_squarediamonds.svg	stimuli_distractor_diamondtriangles.svg	2	yes	57	0	736	0	0			0	0			1				0	
6.6.1	win	2023-07-13	22:55:15	23:05:21	601297	5ebed2706c113a28c66ad396	4	1	practice_slash	9	practice_slash	5	stimuli_distractor_diamondtriangles.svg	stimuli_distractor_trianglediamonds.svg	14	no	53	0	347	0	0			0	0			1				0	
6.6.1	win	2023-07-13	22:55:15	23:05:21	601297	5ebed2706c113a28c66ad396	4	1	practice_slash	9	advance_on_keypress_SLASH	6	stimuli_distractor_diamondtriangles.svg	stimuli_distractor_trianglediamonds.svg	14	no	57	0	361	0	0			0	0			1				0	
6.6.1	win	2023-07-13	22:55:15	23:05:23	603653	5ebed2706c113a28c66ad396	4	1	practice_slash	9	practice_slash	7	stimuli_target_squarediamonds.svg	stimuli_distractor_trianglediamonds.svg	5	yes	53	1	377	0	0			0	0			1				0	
6.6.1	win	2023-07-13	22:55:15	23:05:23	603653	5ebed2706c113a28c66ad396	4	1	practice_slash	9	advance_on_keypress_SLASH	8	stimuli_target_squarediamonds.svg	stimuli_distractor_trianglediamonds.svg	5	yes	57	0	297	0	0			0	0			1				0	
6.6.1	win	2023-07-13	22:55:15	23:05:26	605908	5ebed2706c113a28c66ad396	4	1	practice_slash	9	practice_slash	9	stimuli_target_rectanglediamonds.svg	stimuli_distractor_trianglediamonds.svg	4	yes	53	1	332	0	0			0	0			1				0	
6.6.1	win	2023-07-13	22:55:15	23:05:26	605908	5ebed2706c113a28c66ad396	4	1	practice_slash	9	advance_on_keypress_SLASH	10	stimuli_target_rectanglediamonds.svg	stimuli_distractor_trianglediamonds.svg	4	yes	57	0	314	0	0			0	0			1				0	
6.6.1	win	2023-07-13	22:55:15	23:05:30	609842	5ebed2706c113a28c66ad396	4	1	practice_slash	9	practice_slash	11	stimuli_distractor_trianglediamonds.svg	stimuli_target_diamondrectangles.svg	12	yes	0	0	2003	0	0			0	0			1				0	
6.6.1	win	2023-07-13	22:55:15	23:05:30	609842	5ebed2706c113a28c66ad396	4	1	practice_slash	9	advance_on_keypress_SLASH	12	stimuli_distractor_trianglediamonds.svg	stimuli_target_diamondrectangles.svg	12	yes	57	0	467	0	0			0	0			1				0	
6.6.1	win	2023-07-13	22:55:15	23:05:34	613932	5ebed2706c113a28c66ad396	4	1	practice_slash	9	practice_slash	13	stimuli_distractor_trianglediamonds.svg	stimuli_distractor_diamondtriangles.svg	16	no	0	1	2003	0	0			0	0			1				0	
6.6.1	win	2023-07-13	22:55:15	23:05:34	613932	5ebed2706c113a28c66ad396	4	1	practice_slash	9	advance_on_keypress_SLASH	14	stimuli_distractor_trianglediamonds.svg	stimuli_distractor_diamondtriangles.svg	16	no	57	0	433	0	0			0	0			1				0	
6.6.1	win	2023-07-13	22:55:15	23:05:36	616311	5ebed2706c113a28c66ad396	4	1	practice_slash	9	practice_slash	15	stimuli_target_rectanglediamonds.svg	stimuli_distractor_diamondtriangles.svg	1	yes	53	1	301	0	0			0	0			1				0	
6.6.1	win	2023-07-13	22:55:15	23:05:36	616311	5ebed2706c113a28c66ad396	4	1	practice_slash	9	advance_on_keypress_SLASH	16	stimuli_target_rectanglediamonds.svg	stimuli_distractor_diamondtriangles.svg	1	yes	57	0	885	0	0			0	0			1				0	
6.6.1	win	2023-07-13	22:55:15	23:05:39	619144	5ebed2706c113a28c66ad396	4	1	practice_slash	9	practice_slash	17	stimuli_distractor_diamondtriangles.svg	stimuli_target_diamondrectangles.svg	8	yes	53	1	326	0	0			0	0			1				0	
6.6.1	win	2023-07-13	22:55:15	23:05:39	619144	5ebed2706c113a28c66ad396	4	1	practice_slash	9	advance_on_keypress_SLASH	18	stimuli_distractor_diamondtriangles.svg	stimuli_target_diamondrectangles.svg	8	yes	57	0	247	0	0			0	0			1				0	
6.6.1	win	2023-07-13	22:55:15	23:05:41	621363	5ebed2706c113a28c66ad396	4	1	practice_slash	9	practice_slash	19	stimuli_target_diamondsquares.svg	stimuli_distractor_diamondtriangles.svg	3	yes	53	1	350	0	0			0	0			1				0	
6.6.1	win	2023-07-13	22:55:15	23:05:41	621363	5ebed2706c113a28c66ad396	4	1	practice_slash	9	advance_on_keypress_SLASH	20	stimuli_target_diamondsquares.svg	stimuli_distractor_diamondtriangles.svg	3	yes	57	0	116	0	0			0	0			1				0	
6.6.1	win	2023-07-13	22:55:15	23:05:43	623465	5ebed2706c113a28c66ad396	4	1	practice_slash	9	practice_slash	21	stimuli_distractor_diamondtriangles.svg	stimuli_target_trianglerectangles.svg	9	yes	53	1	362	0	0			0	0			1				0	
6.6.1	win	2023-07-13	22:55:15	23:05:43	623465	5ebed2706c113a28c66ad396	4	1	practice_slash	9	advance_on_keypress_SLASH	22	stimuli_distractor_diamondtriangles.svg	stimuli_target_trianglerectangles.svg	9	yes	57	0	645	0	0			0	0			1				0	
6.6.1	win	2023-07-13	22:55:15	23:05:46	626056	5ebed2706c113a28c66ad396	4	1	practice_slash	9	practice_slash	23	stimuli_target_diamondsquares.svg	stimuli_distractor_trianglediamonds.svg	6	yes	53	1	328	0	0			0	0			1				0	
6.6.1	win	2023-07-13	22:55:15	23:05:46	626056	5ebed2706c113a28c66ad396	4	1	practice_slash	9	advance_on_keypress_SLASH	24	stimuli_target_diamondsquares.svg	stimuli_distractor_trianglediamonds.svg	6	yes	57	0	288	0	0			0	0			1				0	
6.6.1	win	2023-07-13	22:55:15	23:05:50	629985	5ebed2706c113a28c66ad396	4	1	practice_slash	9	practice_slash	25	stimuli_distractor_trianglediamonds.svg	stimuli_distractor_trianglediamonds.svg	15	no	0	1	2003	0	0			0	0			1				0	
6.6.1	win	2023-07-13	22:55:15	23:05:50	629985	5ebed2706c113a28c66ad396	4	1	practice_slash	9	advance_on_keypress_SLASH	26	stimuli_distractor_trianglediamonds.svg	stimuli_distractor_trianglediamonds.svg	15	no	57	0	384	0	0			0	0			1				0	
6.6.1	win	2023-07-13	22:55:15	23:05:52	632229	5ebed2706c113a28c66ad396	4	1	practice_slash	9	practice_slash	27	stimuli_distractor_trianglediamonds.svg	stimuli_target_rectanglediamonds.svg	10	yes	53	1	237	0	0			0	0			1				0	
6.6.1	win	2023-07-13	22:55:15	23:05:52	632229	5ebed2706c113a28c66ad396	4	1	practice_slash	9	advance_on_keypress_SLASH	28	stimuli_distractor_trianglediamonds.svg	stimuli_target_rectanglediamonds.svg	10	yes	57	0	616	0	0			0	0			1				0	
6.6.1	win	2023-07-13	22:55:15	23:05:54	634712	5ebed2706c113a28c66ad396	4	1	practice_slash	9	practice_slash	29	stimuli_distractor_trianglediamonds.svg	stimuli_target_squarediamonds.svg	11	yes	53	1	248	0	0			0	0			1				0	
6.6.1	win	2023-07-13	22:55:15	23:05:54	634712	5ebed2706c113a28c66ad396	4	1	practice_slash	9	advance_on_keypress_SLASH	30	stimuli_distractor_trianglediamonds.svg	stimuli_target_squarediamonds.svg	11	yes	57	0	339	0	0			0	0			1				0	
6.6.1	win	2023-07-13	22:55:15	23:05:57	636902	5ebed2706c113a28c66ad396	4	1	practice_slash	9	practice_slash	31	stimuli_distractor_diamondtriangles.svg	stimuli_target_rectangletriangles.svg	7	yes	53	1	229	0	0			0	0			1				0	
6.6.1	win	2023-07-13	22:55:15	23:05:57	636902	5ebed2706c113a28c66ad396	4	1	practice_slash	9	advance_on_keypress_SLASH	32	stimuli_distractor_diamondtriangles.svg	stimuli_target_rectangletriangles.svg	7	yes	57	0	363	0	0			0	0			1				0	
6.6.1	win	2023-07-13	22:55:15	23:06:00	640615	5ebed2706c113a28c66ad396	4	1	main_slash	11	main_slash	1	stimuli_target_squarediamonds.svg	stimuli_distractor_diamondtriangles.svg	8	yes	53	1	339	0	0			0	0			1				0	
6.6.1	win	2023-07-13	22:55:15	23:06:00	640615	5ebed2706c113a28c66ad396	4	1	main_slash	11	advance_on_keypress_SLASH	2	stimuli_target_squarediamonds.svg	stimuli_distractor_diamondtriangles.svg	8	yes	57	0	1040	0	0			0	0			1				0	
6.6.1	win	2023-07-13	22:55:15	23:06:02	642559	5ebed2706c113a28c66ad396	4	1	main_slash	11	main_slash	3	stimuli_target_squaretriangles.svg	stimuli_distractor_diamondtriangles.svg	7	yes	53	1	283	0	0			0	0			1				0	
6.6.1	win	2023-07-13	22:55:15	23:06:02	642559	5ebed2706c113a28c66ad396	4	1	main_slash	11	advance_on_keypress_SLASH	4	stimuli_target_squaretriangles.svg	stimuli_distractor_diamondtriangles.svg	7	yes	57	0	382	0	0			0	0			1				0	
6.6.1	win	2023-07-13	22:55:15	23:06:04	643804	5ebed2706c113a28c66ad396	4	1	main_slash	11	main_slash	5	stimuli_distractor_trianglediamonds.svg	stimuli_target_squarediamonds.svg	12	yes	53	1	244	0	0			0	0			1				0	
6.6.1	win	2023-07-13	22:55:15	23:06:04	643804	5ebed2706c113a28c66ad396	4	1	main_slash	11	advance_on_keypress_SLASH	6	stimuli_distractor_trianglediamonds.svg	stimuli_target_squarediamonds.svg	12	yes	57	0	415	0	0			0	0			1				0	
6.6.1	win	2023-07-13	22:55:15	23:06:05	645122	5ebed2706c113a28c66ad396	4	1	main_slash	11	main_slash	7	stimuli_distractor_diamondtriangles.svg	stimuli_target_trianglesquares.svg	30	yes	53	1	283	0	0			0	0			1				0	
6.6.1	win	2023-07-13	22:55:15	23:06:05	645122	5ebed2706c113a28c66ad396	4	1	main_slash	11	advance_on_keypress_SLASH	8	stimuli_distractor_diamondtriangles.svg	stimuli_target_trianglesquares.svg	30	yes	57	0	342	0	0			0	0			1				0	
6.6.1	win	2023-07-13	22:55:15	23:06:06	646715	5ebed2706c113a28c66ad396	4	1	main_slash	11	main_slash	9	stimuli_target_rectangletriangles.svg	stimuli_distractor_diamondtriangles.svg	5	yes	53	1	633	0	0			0	0			1				0	
6.6.1	win	2023-07-13	22:55:15	23:06:06	646715	5ebed2706c113a28c66ad396	4	1	main_slash	11	advance_on_keypress_SLASH	10	stimuli_target_rectangletriangles.svg	stimuli_distractor_diamondtriangles.svg	5	yes	57	0	814	0	0			0	0			1				0	
6.6.1	win	2023-07-13	22:55:15	23:06:08	648742	5ebed2706c113a28c66ad396	4	1	main_slash	11	main_slash	11	stimuli_distractor_diamondtriangles.svg	stimuli_target_diamondsquares.svg	32	yes	53	1	588	0	0			0	0			1				0	
6.6.1	win	2023-07-13	22:55:15	23:06:08	648742	5ebed2706c113a28c66ad396	4	1	main_slash	11	advance_on_keypress_SLASH	12	stimuli_distractor_diamondtriangles.svg	stimuli_target_diamondsquares.svg	32	yes	57	0	517	0	0			0	0			1				0	
6.6.1	win	2023-07-13	22:55:15	23:06:10	650295	5ebed2706c113a28c66ad396	4	1	main_slash	11	main_slash	13	stimuli_distractor_diamondtriangles.svg	stimuli_target_squarediamonds.svg	16	yes	53	1	415	0	0			0	0			1				0	
6.6.1	win	2023-07-13	22:55:15	23:06:10	650295	5ebed2706c113a28c66ad396	4	1	main_slash	11	advance_on_keypress_SLASH	14	stimuli_distractor_diamondtriangles.svg	stimuli_target_squarediamonds.svg	16	yes	57	0	341	0	0			0	0			1				0	
6.6.1	win	2023-07-13	22:55:15	23:06:11	651623	5ebed2706c113a28c66ad396	4	1	main_slash	11	main_slash	15	stimuli_distractor_trianglediamonds.svg	stimuli_distractor_diamondtriangles.svg	35	no	53	0	358	0	0			0	0			1				0	
6.6.1	win	2023-07-13	22:55:15	23:06:11	651623	5ebed2706c113a28c66ad396	4	1	main_slash	11	advance_on_keypress_SLASH	16	stimuli_distractor_trianglediamonds.svg	stimuli_distractor_diamondtriangles.svg	35	no	57	0	363	0	0			0	0			1				0	
6.6.1	win	2023-07-13	22:55:15	23:06:14	654610	5ebed2706c113a28c66ad396	4	1	main_slash	11	main_slash	17	stimuli_distractor_diamondtriangles.svg	stimuli_distractor_diamondtriangles.svg	40	no	0	1	2003	0	0			0	0			1				0	
6.6.1	win	2023-07-13	22:55:15	23:06:14	654610	5ebed2706c113a28c66ad396	4	1	main_slash	11	advance_on_keypress_SLASH	18	stimuli_distractor_diamondtriangles.svg	stimuli_distractor_diamondtriangles.svg	40	no	57	0	347	0	0			0	0			1				0	
6.6.1	win	2023-07-13	22:55:15	23:06:16	655888	5ebed2706c113a28c66ad396	4	1	main_slash	11	main_slash	19	stimuli_distractor_trianglediamonds.svg	stimuli_target_rectanglediamonds.svg	10	yes	53	1	295	0	0			0	0			1				0	
6.6.1	win	2023-07-13	22:55:15	23:06:16	655888	5ebed2706c113a28c66ad396	4	1	main_slash	11	advance_on_keypress_SLASH	20	stimuli_distractor_trianglediamonds.svg	stimuli_target_rectanglediamonds.svg	10	yes	57	0	329	0	0			0	0			1				0	
6.6.1	win	2023-07-13	22:55:15	23:06:19	658848	5ebed2706c113a28c66ad396	4	1	main_slash	11	main_slash	21	stimuli_distractor_trianglediamonds.svg	stimuli_distractor_trianglediamonds.svg	34	no	0	1	2003	0	0			0	0			1				0	
6.6.1	win	2023-07-13	22:55:15	23:06:19	658848	5ebed2706c113a28c66ad396	4	1	main_slash	11	advance_on_keypress_SLASH	22	stimuli_distractor_trianglediamonds.svg	stimuli_distractor_trianglediamonds.svg	34	no	57	0	186	0	0			0	0			1				0	
6.6.1	win	2023-07-13	22:55:15	23:06:20	659918	5ebed2706c113a28c66ad396	4	1	main_slash	11	main_slash	23	stimuli_target_trianglerectangles.svg	stimuli_distractor_diamondtriangles.svg	21	yes	53	1	267	0	0			0	0			1				0	
6.6.1	win	2023-07-13	22:55:15	23:06:20	659918	5ebed2706c113a28c66ad396	4	1	main_slash	11	advance_on_keypress_SLASH	24	stimuli_target_trianglerectangles.svg	stimuli_distractor_diamondtriangles.svg	21	yes	57	0	331	0	0			0	0			1				0	
6.6.1	win	2023-07-13	22:55:15	23:06:23	662869	5ebed2706c113a28c66ad396	4	1	main_slash	11	main_slash	25	stimuli_distractor_diamondtriangles.svg	stimuli_target_trianglerectangles.svg	29	yes	0	0	2003	0	0			0	0			1				0	
6.6.1	win	2023-07-13	22:55:15	23:06:23	662869	5ebed2706c113a28c66ad396	4	1	main_slash	11	advance_on_keypress_SLASH	26	stimuli_distractor_diamondtriangles.svg	stimuli_target_trianglerectangles.svg	29	yes	57	0	471	0	0			0	0			1				0	
6.6.1	win	2023-07-13	22:55:15	23:06:24	664228	5ebed2706c113a28c66ad396	4	1	main_slash	11	main_slash	27	stimuli_distractor_trianglediamonds.svg	stimuli_distractor_trianglediamonds.svg	33	no	53	0	264	0	0			0	0			1				0	
6.6.1	win	2023-07-13	22:55:15	23:06:24	664228	5ebed2706c113a28c66ad396	4	1	main_slash	11	advance_on_keypress_SLASH	28	stimuli_distractor_trianglediamonds.svg	stimuli_distractor_trianglediamonds.svg	33	no	57	0	381	0	0			0	0			1				0	
6.6.1	win	2023-07-13	22:55:15	23:06:27	667240	5ebed2706c113a28c66ad396	4	1	main_slash	11	main_slash	29	stimuli_target_diamondsquares.svg	stimuli_distractor_trianglediamonds.svg	20	yes	0	0	2003	0	0			0	0			1				0	
6.6.1	win	2023-07-13	22:55:15	23:06:27	667240	5ebed2706c113a28c66ad396	4	1	main_slash	11	advance_on_keypress_SLASH	30	stimuli_target_diamondsquares.svg	stimuli_distractor_trianglediamonds.svg	20	yes	57	0	359	0	0			0	0			1				0	
6.6.1	win	2023-07-13	22:55:15	23:06:28	668455	5ebed2706c113a28c66ad396	4	1	main_slash	11	main_slash	31	stimuli_distractor_diamondtriangles.svg	stimuli_distractor_diamondtriangles.svg	39	no	53	0	215	0	0			0	0			1				0	
6.6.1	win	2023-07-13	22:55:15	23:06:28	668455	5ebed2706c113a28c66ad396	4	1	main_slash	11	advance_on_keypress_SLASH	32	stimuli_distractor_diamondtriangles.svg	stimuli_distractor_diamondtriangles.svg	39	no	57	0	370	0	0			0	0			1				0	
6.6.1	win	2023-07-13	22:55:15	23:06:31	671460	5ebed2706c113a28c66ad396	4	1	main_slash	11	main_slash	33	stimuli_distractor_diamondtriangles.svg	stimuli_target_diamondrectangles.svg	31	yes	0	0	2003	0	0			0	0			1				0	
6.6.1	win	2023-07-13	22:55:15	23:06:31	671460	5ebed2706c113a28c66ad396	4	1	main_slash	11	advance_on_keypress_SLASH	34	stimuli_distractor_diamondtriangles.svg	stimuli_target_diamondrectangles.svg	31	yes	57	0	301	0	0			0	0			1				0	
6.6.1	win	2023-07-13	22:55:15	23:06:32	672601	5ebed2706c113a28c66ad396	4	1	main_slash	11	main_slash	35	stimuli_distractor_diamondtriangles.svg	stimuli_target_rectangletriangles.svg	13	yes	53	1	221	0	0			0	0			1				0	
6.6.1	win	2023-07-13	22:55:15	23:06:32	672601	5ebed2706c113a28c66ad396	4	1	main_slash	11	advance_on_keypress_SLASH	36	stimuli_distractor_diamondtriangles.svg	stimuli_target_rectangletriangles.svg	13	yes	57	0	408	0	0			0	0			1				0	
6.6.1	win	2023-07-13	22:55:15	23:06:34	673845	5ebed2706c113a28c66ad396	4	1	main_slash	11	main_slash	37	stimuli_distractor_diamondtriangles.svg	stimuli_target_rectanglediamonds.svg	14	yes	53	1	215	0	0			0	0			1				0	
6.6.1	win	2023-07-13	22:55:15	23:06:34	673845	5ebed2706c113a28c66ad396	4	1	main_slash	11	advance_on_keypress_SLASH	38	stimuli_distractor_diamondtriangles.svg	stimuli_target_rectanglediamonds.svg	14	yes	57	0	395	0	0			0	0			1				0	
6.6.1	win	2023-07-13	22:55:15	23:06:35	675082	5ebed2706c113a28c66ad396	4	1	main_slash	11	main_slash	39	stimuli_target_rectanglediamonds.svg	stimuli_distractor_diamondtriangles.svg	6	yes	53	1	222	0	0			0	0			1				0	
6.6.1	win	2023-07-13	22:55:15	23:06:35	675082	5ebed2706c113a28c66ad396	4	1	main_slash	11	advance_on_keypress_SLASH	40	stimuli_target_rectanglediamonds.svg	stimuli_distractor_diamondtriangles.svg	6	yes	57	0	421	0	0			0	0			1				0	
6.6.1	win	2023-07-13	22:55:15	23:06:36	676383	5ebed2706c113a28c66ad396	4	1	main_slash	11	main_slash	41	stimuli_distractor_trianglediamonds.svg	stimuli_target_diamondsquares.svg	28	yes	53	1	260	0	0			0	0			1				0	
6.6.1	win	2023-07-13	22:55:15	23:06:36	676383	5ebed2706c113a28c66ad396	4	1	main_slash	11	advance_on_keypress_SLASH	42	stimuli_distractor_trianglediamonds.svg	stimuli_target_diamondsquares.svg	28	yes	57	0	440	0	0			0	0			1				0	
6.6.1	win	2023-07-13	22:55:15	23:06:37	677730	5ebed2706c113a28c66ad396	4	1	main_slash	11	main_slash	43	stimuli_target_squarediamonds.svg	stimuli_distractor_trianglediamonds.svg	4	yes	53	1	265	0	0			0	0			1				0	
6.6.1	win	2023-07-13	22:55:15	23:06:37	677730	5ebed2706c113a28c66ad396	4	1	main_slash	11	advance_on_keypress_SLASH	44	stimuli_target_squarediamonds.svg	stimuli_distractor_trianglediamonds.svg	4	yes	57	0	455	0	0			0	0			1				0	
6.6.1	win	2023-07-13	22:55:15	23:06:41	680814	5ebed2706c113a28c66ad396	4	1	main_slash	11	main_slash	45	stimuli_target_trianglerectangles.svg	stimuli_distractor_trianglediamonds.svg	17	yes	0	0	2003	0	0			0	0			1				0	
6.6.1	win	2023-07-13	22:55:15	23:06:41	680814	5ebed2706c113a28c66ad396	4	1	main_slash	11	advance_on_keypress_SLASH	46	stimuli_target_trianglerectangles.svg	stimuli_distractor_trianglediamonds.svg	17	yes	57	0	340	0	0			0	0			1				0	
6.6.1	win	2023-07-13	22:55:15	23:06:42	682031	5ebed2706c113a28c66ad396	4	1	main_slash	11	main_slash	47	stimuli_distractor_trianglediamonds.svg	stimuli_distractor_diamondtriangles.svg	36	no	53	0	245	0	0			0	0			1				0	
6.6.1	win	2023-07-13	22:55:15	23:06:42	682031	5ebed2706c113a28c66ad396	4	1	main_slash	11	advance_on_keypress_SLASH	48	stimuli_distractor_trianglediamonds.svg	stimuli_distractor_diamondtriangles.svg	36	no	57	0	438	0	0			0	0			1				0	
6.6.1	win	2023-07-13	22:55:15	23:06:43	683356	5ebed2706c113a28c66ad396	4	1	main_slash	11	main_slash	49	stimuli_target_rectangletriangles.svg	stimuli_distractor_trianglediamonds.svg	1	yes	53	1	252	0	0			0	0			1				0	
6.6.1	win	2023-07-13	22:55:15	23:06:43	683356	5ebed2706c113a28c66ad396	4	1	main_slash	11	advance_on_keypress_SLASH	50	stimuli_target_rectangletriangles.svg	stimuli_distractor_trianglediamonds.svg	1	yes	57	0	451	0	0			0	0			1				0	
6.6.1	win	2023-07-13	22:55:15	23:06:44	684749	5ebed2706c113a28c66ad396	4	1	main_slash	11	main_slash	51	stimuli_target_rectanglediamonds.svg	stimuli_distractor_trianglediamonds.svg	2	yes	53	1	304	0	0			0	0			1				0	
6.6.1	win	2023-07-13	22:55:15	23:06:44	684749	5ebed2706c113a28c66ad396	4	1	main_slash	11	advance_on_keypress_SLASH	52	stimuli_target_rectanglediamonds.svg	stimuli_distractor_trianglediamonds.svg	2	yes	57	0	324	0	0			0	0			1				0	
6.6.1	win	2023-07-13	22:55:15	23:06:46	685970	5ebed2706c113a28c66ad396	4	1	main_slash	11	main_slash	53	stimuli_distractor_trianglediamonds.svg	stimuli_target_diamondrectangles.svg	27	yes	53	1	256	0	0			0	0			1				0	
6.6.1	win	2023-07-13	22:55:15	23:06:46	685970	5ebed2706c113a28c66ad396	4	1	main_slash	11	advance_on_keypress_SLASH	54	stimuli_distractor_trianglediamonds.svg	stimuli_target_diamondrectangles.svg	27	yes	57	0	376	0	0			0	0			1				0	
6.6.1	win	2023-07-13	22:55:15	23:06:47	687236	5ebed2706c113a28c66ad396	4	1	main_slash	11	main_slash	55	stimuli_target_diamondrectangles.svg	stimuli_distractor_diamondtriangles.svg	23	yes	53	1	265	0	0			0	0			1				0	
6.6.1	win	2023-07-13	22:55:15	23:06:47	687236	5ebed2706c113a28c66ad396	4	1	main_slash	11	advance_on_keypress_SLASH	56	stimuli_target_diamondrectangles.svg	stimuli_distractor_diamondtriangles.svg	23	yes	57	0	507	0	0			0	0			1				0	
6.6.1	win	2023-07-13	22:55:15	23:06:50	690377	5ebed2706c113a28c66ad396	4	1	main_slash	11	main_slash	57	stimuli_distractor_diamondtriangles.svg	stimuli_distractor_trianglediamonds.svg	37	no	0	1	2003	0	0			0	0			1				0	
6.6.1	win	2023-07-13	22:55:15	23:06:50	690377	5ebed2706c113a28c66ad396	4	1	main_slash	11	advance_on_keypress_SLASH	58	stimuli_distractor_diamondtriangles.svg	stimuli_distractor_trianglediamonds.svg	37	no	57	0	775	0	0			0	0			1				0	
6.6.1	win	2023-07-13	22:55:15	23:06:52	692093	5ebed2706c113a28c66ad396	4	1	main_slash	11	main_slash	59	stimuli_target_trianglesquares.svg	stimuli_distractor_diamondtriangles.svg	22	yes	53	1	294	0	0			0	0			1				0	
6.6.1	win	2023-07-13	22:55:15	23:06:52	692093	5ebed2706c113a28c66ad396	4	1	main_slash	11	advance_on_keypress_SLASH	60	stimuli_target_trianglesquares.svg	stimuli_distractor_diamondtriangles.svg	22	yes	57	0	340	0	0			0	0			1				0	
6.6.1	win	2023-07-13	22:55:15	23:06:55	695079	5ebed2706c113a28c66ad396	4	1	main_slash	11	main_slash	61	stimuli_target_trianglesquares.svg	stimuli_distractor_trianglediamonds.svg	18	yes	0	0	2003	0	0			0	0			1				0	
6.6.1	win	2023-07-13	22:55:15	23:06:55	695079	5ebed2706c113a28c66ad396	4	1	main_slash	11	advance_on_keypress_SLASH	62	stimuli_target_trianglesquares.svg	stimuli_distractor_trianglediamonds.svg	18	yes	57	0	364	0	0			0	0			1				0	
6.6.1	win	2023-07-13	22:55:15	23:06:56	696259	5ebed2706c113a28c66ad396	4	1	main_slash	11	main_slash	63	stimuli_target_squaretriangles.svg	stimuli_distractor_trianglediamonds.svg	3	yes	53	1	190	0	0			0	0			1				0	
6.6.1	win	2023-07-13	22:55:15	23:06:56	696259	5ebed2706c113a28c66ad396	4	1	main_slash	11	advance_on_keypress_SLASH	64	stimuli_target_squaretriangles.svg	stimuli_distractor_trianglediamonds.svg	3	yes	57	0	383	0	0			0	0			1				0	
6.6.1	win	2023-07-13	22:55:15	23:06:57	697345	5ebed2706c113a28c66ad396	4	1	main_slash	11	main_slash	65	stimuli_target_diamondrectangles.svg	stimuli_distractor_trianglediamonds.svg	19	yes	53	1	88	0	0			0	0			1				0	
6.6.1	win	2023-07-13	22:55:15	23:06:57	697345	5ebed2706c113a28c66ad396	4	1	main_slash	11	advance_on_keypress_SLASH	66	stimuli_target_diamondrectangles.svg	stimuli_distractor_trianglediamonds.svg	19	yes	57	0	491	0	0			0	0			1				0	
6.6.1	win	2023-07-13	22:55:15	23:07:00	700460	5ebed2706c113a28c66ad396	4	1	main_slash	11	main_slash	67	stimuli_distractor_trianglediamonds.svg	stimuli_target_squaretriangles.svg	11	yes	0	0	2003	0	0			0	0			1				0	
6.6.1	win	2023-07-13	22:55:15	23:07:00	700460	5ebed2706c113a28c66ad396	4	1	main_slash	11	advance_on_keypress_SLASH	68	stimuli_distractor_trianglediamonds.svg	stimuli_target_squaretriangles.svg	11	yes	57	0	425	0	0			0	0			1				0	
6.6.1	win	2023-07-13	22:55:15	23:07:02	701795	5ebed2706c113a28c66ad396	4	1	main_slash	11	main_slash	69	stimuli_distractor_diamondtriangles.svg	stimuli_distractor_trianglediamonds.svg	38	no	53	0	282	0	0			0	0			1				0	
6.6.1	win	2023-07-13	22:55:15	23:07:02	701795	5ebed2706c113a28c66ad396	4	1	main_slash	11	advance_on_keypress_SLASH	70	stimuli_distractor_diamondtriangles.svg	stimuli_distractor_trianglediamonds.svg	38	no	57	0	451	0	0			0	0			1				0	
6.6.1	win	2023-07-13	22:55:15	23:07:03	703081	5ebed2706c113a28c66ad396	4	1	main_slash	11	main_slash	71	stimuli_distractor_diamondtriangles.svg	stimuli_target_squaretriangles.svg	15	yes	53	1	214	0	0			0	0			1				0	
6.6.1	win	2023-07-13	22:55:15	23:07:03	703081	5ebed2706c113a28c66ad396	4	1	main_slash	11	advance_on_keypress_SLASH	72	stimuli_distractor_diamondtriangles.svg	stimuli_target_squaretriangles.svg	15	yes	57	0	526	0	0			0	0			1				0	
6.6.1	win	2023-07-13	22:55:15	23:07:04	704488	5ebed2706c113a28c66ad396	4	1	main_slash	11	main_slash	73	stimuli_target_diamondsquares.svg	stimuli_distractor_diamondtriangles.svg	24	yes	53	1	259	0	0			0	0			1				0	
6.6.1	win	2023-07-13	22:55:15	23:07:04	704488	5ebed2706c113a28c66ad396	4	1	main_slash	11	advance_on_keypress_SLASH	74	stimuli_target_diamondsquares.svg	stimuli_distractor_diamondtriangles.svg	24	yes	57	0	410	0	0			0	0			1				0	
6.6.1	win	2023-07-13	22:55:15	23:07:05	705746	5ebed2706c113a28c66ad396	4	1	main_slash	11	main_slash	75	stimuli_distractor_trianglediamonds.svg	stimuli_target_rectangletriangles.svg	9	yes	53	1	223	0	0			0	0			1				0	
6.6.1	win	2023-07-13	22:55:15	23:07:05	705746	5ebed2706c113a28c66ad396	4	1	main_slash	11	advance_on_keypress_SLASH	76	stimuli_distractor_trianglediamonds.svg	stimuli_target_rectangletriangles.svg	9	yes	57	0	348	0	0			0	0			1				0	
6.6.1	win	2023-07-13	22:55:15	23:07:07	706971	5ebed2706c113a28c66ad396	4	1	main_slash	11	main_slash	77	stimuli_distractor_trianglediamonds.svg	stimuli_target_trianglerectangles.svg	25	yes	53	1	257	0	0			0	0			1				0	
6.6.1	win	2023-07-13	22:55:15	23:07:07	706971	5ebed2706c113a28c66ad396	4	1	main_slash	11	advance_on_keypress_SLASH	78	stimuli_distractor_trianglediamonds.svg	stimuli_target_trianglerectangles.svg	25	yes	57	0	423	0	0			0	0			1				0	
6.6.1	win	2023-07-13	22:55:15	23:07:10	710032	5ebed2706c113a28c66ad396	4	1	main_slash	11	main_slash	79	stimuli_distractor_trianglediamonds.svg	stimuli_target_trianglesquares.svg	26	yes	0	0	2003	0	0			0	0			1				0	
6.6.1	win	2023-07-13	22:55:15	23:07:10	710032	5ebed2706c113a28c66ad396	4	1	main_slash	11	advance_on_keypress_SLASH	80	stimuli_distractor_trianglediamonds.svg	stimuli_target_trianglesquares.svg	26	yes	57	0	409	0	0			0	0			1				0	
6.6.1	win	2023-07-13	22:55:15	23:07:11	711534	5ebed2706c113a28c66ad396	4	1	main_slash	11	main_slash	81	stimuli_target_rectangletriangles.svg	stimuli_distractor_trianglediamonds.svg	1	yes	53	1	457	0	0			0	0			1				0	
6.6.1	win	2023-07-13	22:55:15	23:07:11	711534	5ebed2706c113a28c66ad396	4	1	main_slash	11	advance_on_keypress_SLASH	82	stimuli_target_rectangletriangles.svg	stimuli_distractor_trianglediamonds.svg	1	yes	57	0	570	0	0			0	0			1				0	
6.6.1	win	2023-07-13	22:55:15	23:07:13	713027	5ebed2706c113a28c66ad396	4	1	main_slash	11	main_slash	83	stimuli_distractor_trianglediamonds.svg	stimuli_distractor_trianglediamonds.svg	34	no	53	0	305	0	0			0	0			1				0	
6.6.1	win	2023-07-13	22:55:15	23:07:13	713027	5ebed2706c113a28c66ad396	4	1	main_slash	11	advance_on_keypress_SLASH	84	stimuli_distractor_trianglediamonds.svg	stimuli_distractor_trianglediamonds.svg	34	no	57	0	380	0	0			0	0			1				0	
6.6.1	win	2023-07-13	22:55:15	23:07:14	714284	5ebed2706c113a28c66ad396	4	1	main_slash	11	main_slash	85	stimuli_distractor_trianglediamonds.svg	stimuli_target_rectanglediamonds.svg	10	yes	53	1	256	0	0			0	0			1				0	
6.6.1	win	2023-07-13	22:55:15	23:07:14	714284	5ebed2706c113a28c66ad396	4	1	main_slash	11	advance_on_keypress_SLASH	86	stimuli_distractor_trianglediamonds.svg	stimuli_target_rectanglediamonds.svg	10	yes	57	0	1998	0	0			0	0			1				0	
6.6.1	win	2023-07-13	22:55:15	23:07:17	717173	5ebed2706c113a28c66ad396	4	1	main_slash	11	main_slash	87	stimuli_distractor_diamondtriangles.svg	stimuli_target_trianglerectangles.svg	29	yes	53	1	270	0	0			0	0			1				0	
6.6.1	win	2023-07-13	22:55:15	23:07:17	717173	5ebed2706c113a28c66ad396	4	1	main_slash	11	advance_on_keypress_SLASH	88	stimuli_distractor_diamondtriangles.svg	stimuli_target_trianglerectangles.svg	29	yes	57	0	346	0	0			0	0			1				0	
6.6.1	win	2023-07-13	22:55:15	23:07:20	720155	5ebed2706c113a28c66ad396	4	1	main_slash	11	main_slash	89	stimuli_target_trianglesquares.svg	stimuli_distractor_diamondtriangles.svg	22	yes	0	0	2003	0	0			0	0			1				0	
6.6.1	win	2023-07-13	22:55:15	23:07:20	720155	5ebed2706c113a28c66ad396	4	1	main_slash	11	advance_on_keypress_SLASH	90	stimuli_target_trianglesquares.svg	stimuli_distractor_diamondtriangles.svg	22	yes	57	0	337	0	0			0	0			1				0	
6.6.1	win	2023-07-13	22:55:15	23:07:21	721333	5ebed2706c113a28c66ad396	4	1	main_slash	11	main_slash	91	stimuli_distractor_trianglediamonds.svg	stimuli_distractor_diamondtriangles.svg	35	no	53	0	195	0	0			0	0			1				0	
6.6.1	win	2023-07-13	22:55:15	23:07:21	721333	5ebed2706c113a28c66ad396	4	1	main_slash	11	advance_on_keypress_SLASH	92	stimuli_distractor_trianglediamonds.svg	stimuli_distractor_diamondtriangles.svg	35	no	57	0	363	0	0			0	0			1				0	
6.6.1	win	2023-07-13	22:55:15	23:07:22	722529	5ebed2706c113a28c66ad396	4	1	main_slash	11	main_slash	93	stimuli_target_squaretriangles.svg	stimuli_distractor_trianglediamonds.svg	3	yes	53	1	217	0	0			0	0			1				0	
6.6.1	win	2023-07-13	22:55:15	23:07:22	722529	5ebed2706c113a28c66ad396	4	1	main_slash	11	advance_on_keypress_SLASH	94	stimuli_target_squaretriangles.svg	stimuli_distractor_trianglediamonds.svg	3	yes	57	0	270	0	0			0	0			1				0	
6.6.1	win	2023-07-13	22:55:15	23:07:23	723736	5ebed2706c113a28c66ad396	4	1	main_slash	11	main_slash	95	stimuli_distractor_trianglediamonds.svg	stimuli_distractor_diamondtriangles.svg	36	no	53	0	320	0	0			0	0			1				0	
6.6.1	win	2023-07-13	22:55:15	23:07:23	723736	5ebed2706c113a28c66ad396	4	1	main_slash	11	advance_on_keypress_SLASH	96	stimuli_distractor_trianglediamonds.svg	stimuli_distractor_diamondtriangles.svg	36	no	57	0	374	0	0			0	0			1				0	
6.6.1	win	2023-07-13	22:55:15	23:07:26	726739	5ebed2706c113a28c66ad396	4	1	main_slash	11	main_slash	97	stimuli_distractor_diamondtriangles.svg	stimuli_distractor_diamondtriangles.svg	40	no	0	1	2003	0	0			0	0			1				0	
6.6.1	win	2023-07-13	22:55:15	23:07:26	726739	5ebed2706c113a28c66ad396	4	1	main_slash	11	advance_on_keypress_SLASH	98	stimuli_distractor_diamondtriangles.svg	stimuli_distractor_diamondtriangles.svg	40	no	57	0	366	0	0			0	0			1				0	
6.6.1	win	2023-07-13	22:55:15	23:07:28	727912	5ebed2706c113a28c66ad396	4	1	main_slash	11	main_slash	99	stimuli_target_squarediamonds.svg	stimuli_distractor_diamondtriangles.svg	8	yes	53	1	190	0	0			0	0			1				0	
6.6.1	win	2023-07-13	22:55:15	23:07:28	727912	5ebed2706c113a28c66ad396	4	1	main_slash	11	advance_on_keypress_SLASH	100	stimuli_target_squarediamonds.svg	stimuli_distractor_diamondtriangles.svg	8	yes	57	0	395	0	0			0	0			1				0	
6.6.1	win	2023-07-13	22:55:15	23:07:29	728971	5ebed2706c113a28c66ad396	4	1	main_slash	11	main_slash	101	stimuli_target_diamondsquares.svg	stimuli_distractor_trianglediamonds.svg	20	yes	53	1	48	0	0			0	0			1				0	
6.6.1	win	2023-07-13	22:55:15	23:07:29	728971	5ebed2706c113a28c66ad396	4	1	main_slash	11	advance_on_keypress_SLASH	102	stimuli_target_diamondsquares.svg	stimuli_distractor_trianglediamonds.svg	20	yes	57	0	644	0	0			0	0			1				0	
6.6.1	win	2023-07-13	22:55:15	23:07:30	730532	5ebed2706c113a28c66ad396	4	1	main_slash	11	main_slash	103	stimuli_distractor_trianglediamonds.svg	stimuli_target_squarediamonds.svg	12	yes	53	1	296	0	0			0	0			1				0	
6.6.1	win	2023-07-13	22:55:15	23:07:30	730532	5ebed2706c113a28c66ad396	4	1	main_slash	11	advance_on_keypress_SLASH	104	stimuli_distractor_trianglediamonds.svg	stimuli_target_squarediamonds.svg	12	yes	57	0	366	0	0			0	0			1				0	
6.6.1	win	2023-07-13	22:55:15	23:07:32	731823	5ebed2706c113a28c66ad396	4	1	main_slash	11	main_slash	105	stimuli_distractor_diamondtriangles.svg	stimuli_distractor_diamondtriangles.svg	39	no	53	0	302	0	0			0	0			1				0	
6.6.1	win	2023-07-13	22:55:15	23:07:32	731823	5ebed2706c113a28c66ad396	4	1	main_slash	11	advance_on_keypress_SLASH	106	stimuli_distractor_diamondtriangles.svg	stimuli_distractor_diamondtriangles.svg	39	no	57	0	532	0	0			0	0			1				0	
6.6.1	win	2023-07-13	22:55:15	23:07:35	734982	5ebed2706c113a28c66ad396	4	1	main_slash	11	main_slash	107	stimuli_distractor_diamondtriangles.svg	stimuli_distractor_trianglediamonds.svg	38	no	0	1	2003	0	0			0	0			1				0	
6.6.1	win	2023-07-13	22:55:15	23:07:35	734982	5ebed2706c113a28c66ad396	4	1	main_slash	11	advance_on_keypress_SLASH	108	stimuli_distractor_diamondtriangles.svg	stimuli_distractor_trianglediamonds.svg	38	no	57	0	499	0	0			0	0			1				0	
6.6.1	win	2023-07-13	22:55:15	23:07:36	736349	5ebed2706c113a28c66ad396	4	1	main_slash	11	main_slash	109	stimuli_target_diamondsquares.svg	stimuli_distractor_diamondtriangles.svg	24	yes	53	1	245	0	0			0	0			1				0	
6.6.1	win	2023-07-13	22:55:15	23:07:36	736349	5ebed2706c113a28c66ad396	4	1	main_slash	11	advance_on_keypress_SLASH	110	stimuli_target_diamondsquares.svg	stimuli_distractor_diamondtriangles.svg	24	yes	57	0	390	0	0			0	0			1				0	
6.6.1	win	2023-07-13	22:55:15	23:07:37	737563	5ebed2706c113a28c66ad396	4	1	main_slash	11	main_slash	111	stimuli_target_trianglerectangles.svg	stimuli_distractor_diamondtriangles.svg	21	yes	53	1	209	0	0			0	0			1				0	
6.6.1	win	2023-07-13	22:55:15	23:07:37	737563	5ebed2706c113a28c66ad396	4	1	main_slash	11	advance_on_keypress_SLASH	112	stimuli_target_trianglerectangles.svg	stimuli_distractor_diamondtriangles.svg	21	yes	57	0	466	0	0			0	0			1				0	
6.6.1	win	2023-07-13	22:55:15	23:07:40	740649	5ebed2706c113a28c66ad396	4	1	main_slash	11	main_slash	113	stimuli_target_trianglerectangles.svg	stimuli_distractor_trianglediamonds.svg	17	yes	0	0	2003	0	0			0	0			1				0	
6.6.1	win	2023-07-13	22:55:15	23:07:40	740649	5ebed2706c113a28c66ad396	4	1	main_slash	11	advance_on_keypress_SLASH	114	stimuli_target_trianglerectangles.svg	stimuli_distractor_trianglediamonds.svg	17	yes	57	0	383	0	0			0	0			1				0	
6.6.1	win	2023-07-13	22:55:15	23:07:42	742030	5ebed2706c113a28c66ad396	4	1	main_slash	11	main_slash	115	stimuli_distractor_trianglediamonds.svg	stimuli_target_rectangletriangles.svg	9	yes	53	1	384	0	0			0	0			1				0	
6.6.1	win	2023-07-13	22:55:15	23:07:42	742030	5ebed2706c113a28c66ad396	4	1	main_slash	11	advance_on_keypress_SLASH	116	stimuli_distractor_trianglediamonds.svg	stimuli_target_rectangletriangles.svg	9	yes	57	0	360	0	0			0	0			1				0	
6.6.1	win	2023-07-13	22:55:15	23:07:45	745010	5ebed2706c113a28c66ad396	4	1	main_slash	11	main_slash	117	stimuli_distractor_diamondtriangles.svg	stimuli_target_diamondrectangles.svg	31	yes	0	0	2003	0	0			0	0			1				0	
6.6.1	win	2023-07-13	22:55:15	23:07:45	745010	5ebed2706c113a28c66ad396	4	1	main_slash	11	advance_on_keypress_SLASH	118	stimuli_distractor_diamondtriangles.svg	stimuli_target_diamondrectangles.svg	31	yes	57	0	330	0	0			0	0			1				0	
6.6.1	win	2023-07-13	22:55:15	23:07:48	747962	5ebed2706c113a28c66ad396	4	1	main_slash	11	main_slash	119	stimuli_target_diamondrectangles.svg	stimuli_distractor_diamondtriangles.svg	23	yes	0	0	2003	0	0			0	0			1				0	
6.6.1	win	2023-07-13	22:55:15	23:07:48	747962	5ebed2706c113a28c66ad396	4	1	main_slash	11	advance_on_keypress_SLASH	120	stimuli_target_diamondrectangles.svg	stimuli_distractor_diamondtriangles.svg	23	yes	57	0	357	0	0			0	0			1				0	
6.6.1	win	2023-07-13	22:55:15	23:07:51	750934	5ebed2706c113a28c66ad396	4	1	main_slash	11	main_slash	121	stimuli_target_diamondrectangles.svg	stimuli_distractor_trianglediamonds.svg	19	yes	0	0	2003	0	0			0	0			1				0	
6.6.1	win	2023-07-13	22:55:15	23:07:51	750934	5ebed2706c113a28c66ad396	4	1	main_slash	11	advance_on_keypress_SLASH	122	stimuli_target_diamondrectangles.svg	stimuli_distractor_trianglediamonds.svg	19	yes	57	0	304	0	0			0	0			1				0	
6.6.1	win	2023-07-13	22:55:15	23:07:52	752300	5ebed2706c113a28c66ad396	4	1	main_slash	11	main_slash	123	stimuli_distractor_trianglediamonds.svg	stimuli_target_squaretriangles.svg	11	yes	53	1	446	0	0			0	0			1				0	
6.6.1	win	2023-07-13	22:55:15	23:07:52	752300	5ebed2706c113a28c66ad396	4	1	main_slash	11	advance_on_keypress_SLASH	124	stimuli_distractor_trianglediamonds.svg	stimuli_target_squaretriangles.svg	11	yes	57	0	363	0	0			0	0			1				0	
6.6.1	win	2023-07-13	22:55:15	23:07:53	753554	5ebed2706c113a28c66ad396	4	1	main_slash	11	main_slash	125	stimuli_target_squarediamonds.svg	stimuli_distractor_trianglediamonds.svg	4	yes	53	1	275	0	0			0	0			1				0	
6.6.1	win	2023-07-13	22:55:15	23:07:53	753554	5ebed2706c113a28c66ad396	4	1	main_slash	11	advance_on_keypress_SLASH	126	stimuli_target_squarediamonds.svg	stimuli_distractor_trianglediamonds.svg	4	yes	57	0	305	0	0			0	0			1				0	
6.6.1	win	2023-07-13	22:55:15	23:07:54	754763	5ebed2706c113a28c66ad396	4	1	main_slash	11	main_slash	127	stimuli_distractor_trianglediamonds.svg	stimuli_target_trianglesquares.svg	26	yes	53	1	264	0	0			0	0			1				0	
6.6.1	win	2023-07-13	22:55:15	23:07:54	754763	5ebed2706c113a28c66ad396	4	1	main_slash	11	advance_on_keypress_SLASH	128	stimuli_distractor_trianglediamonds.svg	stimuli_target_trianglesquares.svg	26	yes	57	0	433	0	0			0	0			1				0	
6.6.1	win	2023-07-13	22:55:15	23:07:56	756121	5ebed2706c113a28c66ad396	4	1	main_slash	11	main_slash	129	stimuli_distractor_diamondtriangles.svg	stimuli_target_trianglesquares.svg	30	yes	53	1	279	0	0			0	0			1				0	
6.6.1	win	2023-07-13	22:55:15	23:07:56	756121	5ebed2706c113a28c66ad396	4	1	main_slash	11	advance_on_keypress_SLASH	130	stimuli_distractor_diamondtriangles.svg	stimuli_target_trianglesquares.svg	30	yes	57	0	373	0	0			0	0			1				0	
6.6.1	win	2023-07-13	22:55:15	23:07:57	757515	5ebed2706c113a28c66ad396	4	1	main_slash	11	main_slash	131	stimuli_distractor_diamondtriangles.svg	stimuli_target_rectangletriangles.svg	13	yes	53	1	384	0	0			0	0			1				0	
6.6.1	win	2023-07-13	22:55:15	23:07:57	757515	5ebed2706c113a28c66ad396	4	1	main_slash	11	advance_on_keypress_SLASH	132	stimuli_distractor_diamondtriangles.svg	stimuli_target_rectangletriangles.svg	13	yes	57	0	420	0	0			0	0			1				0	
6.6.1	win	2023-07-13	22:55:15	23:08:00	760577	5ebed2706c113a28c66ad396	4	1	main_slash	11	main_slash	133	stimuli_distractor_trianglediamonds.svg	stimuli_target_trianglerectangles.svg	25	yes	0	0	2003	0	0			0	0			1				0	
6.6.1	win	2023-07-13	22:55:15	23:08:00	760577	5ebed2706c113a28c66ad396	4	1	main_slash	11	advance_on_keypress_SLASH	134	stimuli_distractor_trianglediamonds.svg	stimuli_target_trianglerectangles.svg	25	yes	57	0	702	0	0			0	0			1				0	
6.6.1	win	2023-07-13	22:55:15	23:08:02	762276	5ebed2706c113a28c66ad396	4	1	main_slash	11	main_slash	135	stimuli_target_rectanglediamonds.svg	stimuli_distractor_diamondtriangles.svg	6	yes	53	1	380	0	0			0	0			1				0	
6.6.1	win	2023-07-13	22:55:15	23:08:02	762276	5ebed2706c113a28c66ad396	4	1	main_slash	11	advance_on_keypress_SLASH	136	stimuli_target_rectanglediamonds.svg	stimuli_distractor_diamondtriangles.svg	6	yes	57	0	333	0	0			0	0			1				0	
6.6.1	win	2023-07-13	22:55:15	23:08:03	763628	5ebed2706c113a28c66ad396	4	1	main_slash	11	main_slash	137	stimuli_distractor_diamondtriangles.svg	stimuli_target_squaretriangles.svg	15	yes	53	1	385	0	0			0	0			1				0	
6.6.1	win	2023-07-13	22:55:15	23:08:03	763628	5ebed2706c113a28c66ad396	4	1	main_slash	11	advance_on_keypress_SLASH	138	stimuli_distractor_diamondtriangles.svg	stimuli_target_squaretriangles.svg	15	yes	57	0	302	0	0			0	0			1				0	
6.6.1	win	2023-07-13	22:55:15	23:08:05	764918	5ebed2706c113a28c66ad396	4	1	main_slash	11	main_slash	139	stimuli_target_rectangletriangles.svg	stimuli_distractor_diamondtriangles.svg	5	yes	53	1	346	0	0			0	0			1				0	
6.6.1	win	2023-07-13	22:55:15	23:08:05	764918	5ebed2706c113a28c66ad396	4	1	main_slash	11	advance_on_keypress_SLASH	140	stimuli_target_rectangletriangles.svg	stimuli_distractor_diamondtriangles.svg	5	yes	57	0	297	0	0			0	0			1				0	
6.6.1	win	2023-07-13	22:55:15	23:08:06	766160	5ebed2706c113a28c66ad396	4	1	main_slash	11	main_slash	141	stimuli_distractor_diamondtriangles.svg	stimuli_target_squarediamonds.svg	16	yes	53	1	320	0	0			0	0			1				0	
6.6.1	win	2023-07-13	22:55:15	23:08:06	766160	5ebed2706c113a28c66ad396	4	1	main_slash	11	advance_on_keypress_SLASH	142	stimuli_distractor_diamondtriangles.svg	stimuli_target_squarediamonds.svg	16	yes	57	0	346	0	0			0	0			1				0	
6.6.1	win	2023-07-13	22:55:15	23:08:07	767384	5ebed2706c113a28c66ad396	4	1	main_slash	11	main_slash	143	stimuli_target_squaretriangles.svg	stimuli_distractor_diamondtriangles.svg	7	yes	53	1	259	0	0			0	0			1				0	
6.6.1	win	2023-07-13	22:55:15	23:08:07	767384	5ebed2706c113a28c66ad396	4	1	main_slash	11	advance_on_keypress_SLASH	144	stimuli_target_squaretriangles.svg	stimuli_distractor_diamondtriangles.svg	7	yes	57	0	380	0	0			0	0			1				0	
6.6.1	win	2023-07-13	22:55:15	23:08:08	768702	5ebed2706c113a28c66ad396	4	1	main_slash	11	main_slash	145	stimuli_distractor_diamondtriangles.svg	stimuli_distractor_trianglediamonds.svg	37	no	53	0	305	0	0			0	0			1				0	
6.6.1	win	2023-07-13	22:55:15	23:08:08	768702	5ebed2706c113a28c66ad396	4	1	main_slash	11	advance_on_keypress_SLASH	146	stimuli_distractor_diamondtriangles.svg	stimuli_distractor_trianglediamonds.svg	37	no	57	0	408	0	0			0	0			1				0	
6.6.1	win	2023-07-13	22:55:15	23:08:11	771733	5ebed2706c113a28c66ad396	4	1	main_slash	11	main_slash	147	stimuli_distractor_trianglediamonds.svg	stimuli_target_diamondsquares.svg	28	yes	0	0	2003	0	0			0	0			1				0	
6.6.1	win	2023-07-13	22:55:15	23:08:11	771733	5ebed2706c113a28c66ad396	4	1	main_slash	11	advance_on_keypress_SLASH	148	stimuli_distractor_trianglediamonds.svg	stimuli_target_diamondsquares.svg	28	yes	57	0	428	0	0			0	0			1				0	
6.6.1	win	2023-07-13	22:55:15	23:08:13	773077	5ebed2706c113a28c66ad396	4	1	main_slash	11	main_slash	149	stimuli_target_trianglesquares.svg	stimuli_distractor_trianglediamonds.svg	18	yes	53	1	299	0	0			0	0			1				0	
6.6.1	win	2023-07-13	22:55:15	23:08:13	773077	5ebed2706c113a28c66ad396	4	1	main_slash	11	advance_on_keypress_SLASH	150	stimuli_target_trianglesquares.svg	stimuli_distractor_trianglediamonds.svg	18	yes	57	0	371	0	0			0	0			1				0	
6.6.1	win	2023-07-13	22:55:15	23:08:16	776073	5ebed2706c113a28c66ad396	4	1	main_slash	11	main_slash	151	stimuli_distractor_trianglediamonds.svg	stimuli_target_diamondrectangles.svg	27	yes	0	0	2003	0	0			0	0			1				0	
6.6.1	win	2023-07-13	22:55:15	23:08:16	776073	5ebed2706c113a28c66ad396	4	1	main_slash	11	advance_on_keypress_SLASH	152	stimuli_distractor_trianglediamonds.svg	stimuli_target_diamondrectangles.svg	27	yes	57	0	474	0	0			0	0			1				0	
6.6.1	win	2023-07-13	22:55:15	23:08:17	777452	5ebed2706c113a28c66ad396	4	1	main_slash	11	main_slash	153	stimuli_distractor_diamondtriangles.svg	stimuli_target_rectanglediamonds.svg	14	yes	53	1	265	0	0			0	0			1				0	
6.6.1	win	2023-07-13	22:55:15	23:08:17	777452	5ebed2706c113a28c66ad396	4	1	main_slash	11	advance_on_keypress_SLASH	154	stimuli_distractor_diamondtriangles.svg	stimuli_target_rectanglediamonds.svg	14	yes	57	0	355	0	0			0	0			1				0	
6.6.1	win	2023-07-13	22:55:15	23:08:19	778798	5ebed2706c113a28c66ad396	4	1	main_slash	11	main_slash	155	stimuli_distractor_trianglediamonds.svg	stimuli_distractor_trianglediamonds.svg	33	no	53	0	357	0	0			0	0			1				0	
6.6.1	win	2023-07-13	22:55:15	23:08:19	778798	5ebed2706c113a28c66ad396	4	1	main_slash	11	advance_on_keypress_SLASH	156	stimuli_distractor_trianglediamonds.svg	stimuli_distractor_trianglediamonds.svg	33	no	57	0	365	0	0			0	0			1				0	
6.6.1	win	2023-07-13	22:55:15	23:08:22	781789	5ebed2706c113a28c66ad396	4	1	main_slash	11	main_slash	157	stimuli_distractor_diamondtriangles.svg	stimuli_target_diamondsquares.svg	32	yes	0	0	2003	0	0			0	0			1				0	
6.6.1	win	2023-07-13	22:55:15	23:08:22	781789	5ebed2706c113a28c66ad396	4	1	main_slash	11	advance_on_keypress_SLASH	158	stimuli_distractor_diamondtriangles.svg	stimuli_target_diamondsquares.svg	32	yes	57	0	441	0	0			0	0			1				0	
6.6.1	win	2023-07-13	22:55:15	23:08:23	783124	5ebed2706c113a28c66ad396	4	1	main_slash	11	main_slash	159	stimuli_target_rectanglediamonds.svg	stimuli_distractor_trianglediamonds.svg	2	yes	53	1	275	0	0			0	0			1				0	
6.6.1	win	2023-07-13	22:55:15	23:08:23	783124	5ebed2706c113a28c66ad396	4	1	main_slash	11	advance_on_keypress_SLASH	160	stimuli_target_rectanglediamonds.svg	stimuli_distractor_trianglediamonds.svg	2	yes	57	0	401	0	0			0	0			1				0	
6.6.1	win	2023-07-13	22:55:15	23:08:23	783124	5ebed2706c113a28c66ad396	4	1	headphonecheck_calibration	14	headphonecheck_calibrationIntro	1	stimuli_target_rectanglediamonds.svg	stimuli_distractor_trianglediamonds.svg	2	yes	calibrationButton	0	3828	0	0			0	0			1				0	
6.6.1	win	2023-07-13	22:55:15	23:08:23	783124	5ebed2706c113a28c66ad396	4	1	headphonecheck_testphase	15	test_collectResponse	3	stimuli_target_rectanglediamonds.svg	stimuli_distractor_trianglediamonds.svg	2	yes	third	0	6434	1	1	antiphase_hc_iso.wav	2	0	0			1				0	
6.6.1	win	2023-07-13	22:55:15	23:08:23	783124	5ebed2706c113a28c66ad396	4	1	headphonecheck_testphase	15	test_collectResponse	6	stimuli_target_rectanglediamonds.svg	stimuli_distractor_trianglediamonds.svg	2	yes	second	0	1183	2	3	antiphase_hc_soi.wav	1	0	0			1				0	
6.6.1	win	2023-07-13	22:55:15	23:08:23	783124	5ebed2706c113a28c66ad396	4	1	headphonecheck_testphase	15	test_collectResponse	9	stimuli_target_rectanglediamonds.svg	stimuli_distractor_trianglediamonds.svg	2	yes	third	0	1727	3	4	antiphase_hc_sio.wav	1	0	0			1				0	
6.6.1	win	2023-07-13	22:55:15	23:08:23	783124	5ebed2706c113a28c66ad396	4	1	headphonecheck_testphase	15	test_collectResponse	12	stimuli_target_rectanglediamonds.svg	stimuli_distractor_trianglediamonds.svg	2	yes	second	0	439	4	6	antiphase_hc_ois.wav	3	0	0			1				0	
6.6.1	win	2023-07-13	22:55:15	23:08:23	783124	5ebed2706c113a28c66ad396	4	1	headphonecheck_testphase	15	test_collectResponse	15	stimuli_target_rectanglediamonds.svg	stimuli_distractor_trianglediamonds.svg	2	yes	second	0	469	5	2	antiphase_hc_ios.wav	3	0	0			1				0	
6.6.1	win	2023-07-13	22:55:15	23:08:23	783124	5ebed2706c113a28c66ad396	4	1	headphonecheck_testphase	15	test_collectResponse	18	stimuli_target_rectanglediamonds.svg	stimuli_distractor_trianglediamonds.svg	2	yes	third	0	2368	6	5	antiphase_hc_osi.wav	2	0	0			1				0	
6.6.1	win	2023-07-13	22:55:15	23:08:23	783124	5ebed2706c113a28c66ad396	4	1	stereocheck_calibration	17	stereocheck_calibrationIntro	1	stimuli_target_rectanglediamonds.svg	stimuli_distractor_trianglediamonds.svg	2	yes	stereocheck_calibrationButton	0	4336	6	5	antiphase_hc_osi.wav	2	0	0			1				0	
6.6.1	win	2023-07-13	22:55:15	23:08:23	783124	5ebed2706c113a28c66ad396	4	1	stereocheck_testphase	18	stereocheck_test_collectResponse	3	stimuli_target_rectanglediamonds.svg	stimuli_distractor_trianglediamonds.svg	2	yes	stereocheck_left	1	585	6	5	antiphase_hc_osi.wav	2	1	1	noise_calib_stim_LEFT.wav	1	1				0	
6.6.1	win	2023-07-13	22:55:15	23:08:23	783124	5ebed2706c113a28c66ad396	4	1	stereocheck_testphase	18	stereocheck_test_collectResponse	6	stimuli_target_rectanglediamonds.svg	stimuli_distractor_trianglediamonds.svg	2	yes	stereocheck_right	1	394	6	5	antiphase_hc_osi.wav	2	2	5	noise_calib_stim_RIGHT.wav	2	1				0	
6.6.1	win	2023-07-13	22:55:15	23:08:23	783124	5ebed2706c113a28c66ad396	4	1	stereocheck_testphase	18	stereocheck_test_collectResponse	9	stimuli_target_rectanglediamonds.svg	stimuli_distractor_trianglediamonds.svg	2	yes	stereocheck_right	1	309	6	5	antiphase_hc_osi.wav	2	3	6	noise_calib_stim_RIGHT.wav	2	1				0	
6.6.1	win	2023-07-13	22:55:15	23:08:23	783124	5ebed2706c113a28c66ad396	4	1	stereocheck_testphase	18	stereocheck_test_collectResponse	12	stimuli_target_rectanglediamonds.svg	stimuli_distractor_trianglediamonds.svg	2	yes	stereocheck_left	1	505	6	5	antiphase_hc_osi.wav	2	4	3	noise_calib_stim_LEFT.wav	1	1				0	
6.6.1	win	2023-07-13	22:55:15	23:08:23	783124	5ebed2706c113a28c66ad396	4	1	stereocheck_testphase	18	stereocheck_test_collectResponse	15	stimuli_target_rectanglediamonds.svg	stimuli_distractor_trianglediamonds.svg	2	yes	stereocheck_left	1	584	6	5	antiphase_hc_osi.wav	2	5	2	noise_calib_stim_LEFT.wav	1	1				0	
6.6.1	win	2023-07-13	22:55:15	23:08:23	783124	5ebed2706c113a28c66ad396	4	1	stereocheck_testphase	18	stereocheck_test_collectResponse	18	stimuli_target_rectanglediamonds.svg	stimuli_distractor_trianglediamonds.svg	2	yes	stereocheck_right	1	345	6	5	antiphase_hc_osi.wav	2	6	4	noise_calib_stim_RIGHT.wav	2	1				0	
6.6.1	win	2023-07-13	22:55:15	23:08:23	783124	5ebed2706c113a28c66ad396	4	1	DL_practice	21	DL_practice	2	stimuli_target_rectanglediamonds.svg	stimuli_distractor_trianglediamonds.svg	2	yes	ga	0	1669	6	5	antiphase_hc_osi.wav	2	6	4	noise_calib_stim_RIGHT.wav	2	23	blb_dichoticlistening_ka-pa.mp3	ka	pa	1	other
6.6.1	win	2023-07-13	22:55:15	23:08:23	783124	5ebed2706c113a28c66ad396	4	1	DL_practice	21	DL_practice	3	stimuli_target_rectanglediamonds.svg	stimuli_distractor_trianglediamonds.svg	2	yes	da	1	1734	6	5	antiphase_hc_osi.wav	2	6	4	noise_calib_stim_RIGHT.wav	2	7	blb_dichoticlistening_da-ba.mp3	da	ba	1	left
6.6.1	win	2023-07-13	22:55:15	23:08:23	783124	5ebed2706c113a28c66ad396	4	1	DL_practice	21	DL_practice	4	stimuli_target_rectanglediamonds.svg	stimuli_distractor_trianglediamonds.svg	2	yes	ta	0	3221	6	5	antiphase_hc_osi.wav	2	6	4	noise_calib_stim_RIGHT.wav	2	1	blb_dichoticlistening_ba-ba.mp3	ba	ba	0	other
6.6.1	win	2023-07-13	22:55:15	23:08:23	783124	5ebed2706c113a28c66ad396	4	1	DL_practice	21	DL_practice	5	stimuli_target_rectanglediamonds.svg	stimuli_distractor_trianglediamonds.svg	2	yes	ka	0	1453	6	5	antiphase_hc_osi.wav	2	6	4	noise_calib_stim_RIGHT.wav	2	29	blb_dichoticlistening_pa-pa.mp3	pa	pa	0	other
6.6.1	win	2023-07-13	22:55:15	23:08:23	783124	5ebed2706c113a28c66ad396	4	1	DL_practice	21	DL_practice	6	stimuli_target_rectanglediamonds.svg	stimuli_distractor_trianglediamonds.svg	2	yes	ka	1	2163	6	5	antiphase_hc_osi.wav	2	6	4	noise_calib_stim_RIGHT.wav	2	22	blb_dichoticlistening_ka-ka.mp3	ka	ka	0	left
6.6.1	win	2023-07-13	22:55:15	23:08:23	783124	5ebed2706c113a28c66ad396	4	1	DL_practice	21	DL_practice	7	stimuli_target_rectanglediamonds.svg	stimuli_distractor_trianglediamonds.svg	2	yes	ba	0	2605	6	5	antiphase_hc_osi.wav	2	6	4	noise_calib_stim_RIGHT.wav	2	15	blb_dichoticlistening_ga-ga.mp3	ga	ga	0	other
6.6.1	win	2023-07-13	22:55:15	23:08:23	783124	5ebed2706c113a28c66ad396	4	1	DL_practice	21	DL_practice	8	stimuli_target_rectanglediamonds.svg	stimuli_distractor_trianglediamonds.svg	2	yes	da	1	1553	6	5	antiphase_hc_osi.wav	2	6	4	noise_calib_stim_RIGHT.wav	2	8	blb_dichoticlistening_da-da.mp3	da	da	0	left
6.6.1	win	2023-07-13	22:55:15	23:08:23	783124	5ebed2706c113a28c66ad396	4	1	DL_practice	21	DL_practice	9	stimuli_target_rectanglediamonds.svg	stimuli_distractor_trianglediamonds.svg	2	yes	pa	0	2267	6	5	antiphase_hc_osi.wav	2	6	4	noise_calib_stim_RIGHT.wav	2	18	blb_dichoticlistening_ga-ta.mp3	ga	ta	1	other
6.6.1	win	2023-07-13	22:55:15	23:08:23	783124	5ebed2706c113a28c66ad396	4	1	DL_practice	21	DL_practice	10	stimuli_target_rectanglediamonds.svg	stimuli_distractor_trianglediamonds.svg	2	yes	da	0	2133	6	5	antiphase_hc_osi.wav	2	6	4	noise_calib_stim_RIGHT.wav	2	36	blb_dichoticlistening_ta-ta.mp3	ta	ta	0	other
6.6.1	win	2023-07-13	22:55:15	23:08:23	783124	5ebed2706c113a28c66ad396	4	1	DL_test	23	DL_test	1	stimuli_target_rectanglediamonds.svg	stimuli_distractor_trianglediamonds.svg	2	yes	da	1	1328	6	5	antiphase_hc_osi.wav	2	6	4	noise_calib_stim_RIGHT.wav	2	12	blb_dichoticlistening_da-ta.mp3	da	ta	1	left
6.6.1	win	2023-07-13	22:55:15	23:08:23	783124	5ebed2706c113a28c66ad396	4	1	DL_test	23	DL_test	2	stimuli_target_rectanglediamonds.svg	stimuli_distractor_trianglediamonds.svg	2	yes	ta	0	2049	6	5	antiphase_hc_osi.wav	2	6	4	noise_calib_stim_RIGHT.wav	2	17	blb_dichoticlistening_ga-pa.mp3	ga	pa	1	other
6.6.1	win	2023-07-13	22:55:15	23:08:23	783124	5ebed2706c113a28c66ad396	4	1	DL_test	23	DL_test	3	stimuli_target_rectanglediamonds.svg	stimuli_distractor_trianglediamonds.svg	2	yes	pa	0	1701	6	5	antiphase_hc_osi.wav	2	6	4	noise_calib_stim_RIGHT.wav	2	36	blb_dichoticlistening_ta-ta.mp3	ta	ta	0	other
6.6.1	win	2023-07-13	22:55:15	23:08:23	783124	5ebed2706c113a28c66ad396	4	1	DL_test	23	DL_test	4	stimuli_target_rectanglediamonds.svg	stimuli_distractor_trianglediamonds.svg	2	yes	ba	1	1759	6	5	antiphase_hc_osi.wav	2	6	4	noise_calib_stim_RIGHT.wav	2	4	blb_dichoticlistening_ba-ka.mp3	ba	ka	1	left
6.6.1	win	2023-07-13	22:55:15	23:08:23	783124	5ebed2706c113a28c66ad396	4	1	DL_test	23	DL_test	5	stimuli_target_rectanglediamonds.svg	stimuli_distractor_trianglediamonds.svg	2	yes	ba	1	1809	6	5	antiphase_hc_osi.wav	2	6	4	noise_calib_stim_RIGHT.wav	2	3	blb_dichoticlistening_ba-ga.mp3	ba	ga	1	left
6.6.1	win	2023-07-13	22:55:15	23:08:23	783124	5ebed2706c113a28c66ad396	4	1	DL_test	23	DL_test	6	stimuli_target_rectanglediamonds.svg	stimuli_distractor_trianglediamonds.svg	2	yes	pa	0	1627	6	5	antiphase_hc_osi.wav	2	6	4	noise_calib_stim_RIGHT.wav	2	33	blb_dichoticlistening_ta-ga.mp3	ta	ga	1	other
6.6.1	win	2023-07-13	22:55:15	23:08:23	783124	5ebed2706c113a28c66ad396	4	1	DL_test	23	DL_test	7	stimuli_target_rectanglediamonds.svg	stimuli_distractor_trianglediamonds.svg	2	yes	da	1	2338	6	5	antiphase_hc_osi.wav	2	6	4	noise_calib_stim_RIGHT.wav	2	2	blb_dichoticlistening_ba-da.mp3	ba	da	1	right
6.6.1	win	2023-07-13	22:55:15	23:08:23	783124	5ebed2706c113a28c66ad396	4	1	DL_test	23	DL_test	8	stimuli_target_rectanglediamonds.svg	stimuli_distractor_trianglediamonds.svg	2	yes	ba	0	2326	6	5	antiphase_hc_osi.wav	2	6	4	noise_calib_stim_RIGHT.wav	2	8	blb_dichoticlistening_da-da.mp3	da	da	0	other
6.6.1	win	2023-07-13	22:55:15	23:08:23	783124	5ebed2706c113a28c66ad396	4	1	DL_test	23	DL_test	9	stimuli_target_rectanglediamonds.svg	stimuli_distractor_trianglediamonds.svg	2	yes	da	0	1947	6	5	antiphase_hc_osi.wav	2	6	4	noise_calib_stim_RIGHT.wav	2	30	blb_dichoticlistening_pa-ta.mp3	pa	ta	1	other
6.6.1	win	2023-07-13	22:55:15	23:08:23	783124	5ebed2706c113a28c66ad396	4	1	DL_test	23	DL_test	10	stimuli_target_rectanglediamonds.svg	stimuli_distractor_trianglediamonds.svg	2	yes	ta	0	1826	6	5	antiphase_hc_osi.wav	2	6	4	noise_calib_stim_RIGHT.wav	2	14	blb_dichoticlistening_ga-da.mp3	ga	da	1	other
6.6.1	win	2023-07-13	22:55:15	23:08:23	783124	5ebed2706c113a28c66ad396	4	1	DL_test	23	DL_test	11	stimuli_target_rectanglediamonds.svg	stimuli_distractor_trianglediamonds.svg	2	yes	da	0	1091	6	5	antiphase_hc_osi.wav	2	6	4	noise_calib_stim_RIGHT.wav	2	21	blb_dichoticlistening_ka-ga.mp3	ka	ga	1	other
6.6.1	win	2023-07-13	22:55:15	23:08:23	783124	5ebed2706c113a28c66ad396	4	1	DL_test	23	DL_test	12	stimuli_target_rectanglediamonds.svg	stimuli_distractor_trianglediamonds.svg	2	yes	ka	1	2211	6	5	antiphase_hc_osi.wav	2	6	4	noise_calib_stim_RIGHT.wav	2	19	blb_dichoticlistening_ka-ba.mp3	ka	ba	1	left
6.6.1	win	2023-07-13	22:55:15	23:08:23	783124	5ebed2706c113a28c66ad396	4	1	DL_test	23	DL_test	13	stimuli_target_rectanglediamonds.svg	stimuli_distractor_trianglediamonds.svg	2	yes	ba	0	3817	6	5	antiphase_hc_osi.wav	2	6	4	noise_calib_stim_RIGHT.wav	2	15	blb_dichoticlistening_ga-ga.mp3	ga	ga	0	other
6.6.1	win	2023-07-13	22:55:15	23:08:23	783124	5ebed2706c113a28c66ad396	4	1	DL_test	23	DL_test	14	stimuli_target_rectanglediamonds.svg	stimuli_distractor_trianglediamonds.svg	2	yes	pa	0	1440	6	5	antiphase_hc_osi.wav	2	6	4	noise_calib_stim_RIGHT.wav	2	10	blb_dichoticlistening_da-ka.mp3	da	ka	1	other
6.6.1	win	2023-07-13	22:55:15	23:08:23	783124	5ebed2706c113a28c66ad396	4	1	DL_test	23	DL_test	15	stimuli_target_rectanglediamonds.svg	stimuli_distractor_trianglediamonds.svg	2	yes	ta	0	2164	6	5	antiphase_hc_osi.wav	2	6	4	noise_calib_stim_RIGHT.wav	2	23	blb_dichoticlistening_ka-pa.mp3	ka	pa	1	other
6.6.1	win	2023-07-13	22:55:15	23:08:23	783124	5ebed2706c113a28c66ad396	4	1	DL_test	23	DL_test	16	stimuli_target_rectanglediamonds.svg	stimuli_distractor_trianglediamonds.svg	2	yes	da	1	1712	6	5	antiphase_hc_osi.wav	2	6	4	noise_calib_stim_RIGHT.wav	2	26	blb_dichoticlistening_pa-da.mp3	pa	da	1	right
6.6.1	win	2023-07-13	22:55:15	23:08:23	783124	5ebed2706c113a28c66ad396	4	1	DL_test	23	DL_test	17	stimuli_target_rectanglediamonds.svg	stimuli_distractor_trianglediamonds.svg	2	yes	pa	1	1821	6	5	antiphase_hc_osi.wav	2	6	4	noise_calib_stim_RIGHT.wav	2	35	blb_dichoticlistening_ta-pa.mp3	ta	pa	1	right
6.6.1	win	2023-07-13	22:55:15	23:08:23	783124	5ebed2706c113a28c66ad396	4	1	DL_test	23	DL_test	18	stimuli_target_rectanglediamonds.svg	stimuli_distractor_trianglediamonds.svg	2	yes	ba	0	1158	6	5	antiphase_hc_osi.wav	2	6	4	noise_calib_stim_RIGHT.wav	2	28	blb_dichoticlistening_pa-ka.mp3	pa	ka	1	other
6.6.1	win	2023-07-13	22:55:15	23:08:23	783124	5ebed2706c113a28c66ad396	4	1	DL_test	23	DL_test	19	stimuli_target_rectanglediamonds.svg	stimuli_distractor_trianglediamonds.svg	2	yes	pa	1	1861	6	5	antiphase_hc_osi.wav	2	6	4	noise_calib_stim_RIGHT.wav	2	5	blb_dichoticlistening_ba-pa.mp3	ba	pa	1	right
6.6.1	win	2023-07-13	22:55:15	23:08:23	783124	5ebed2706c113a28c66ad396	4	1	DL_test	23	DL_test	20	stimuli_target_rectanglediamonds.svg	stimuli_distractor_trianglediamonds.svg	2	yes	ba	1	1143	6	5	antiphase_hc_osi.wav	2	6	4	noise_calib_stim_RIGHT.wav	2	7	blb_dichoticlistening_da-ba.mp3	da	ba	1	right
6.6.1	win	2023-07-13	22:55:15	23:08:23	783124	5ebed2706c113a28c66ad396	4	1	DL_test	23	DL_test	21	stimuli_target_rectanglediamonds.svg	stimuli_distractor_trianglediamonds.svg	2	yes	ta	1	2053	6	5	antiphase_hc_osi.wav	2	6	4	noise_calib_stim_RIGHT.wav	2	32	blb_dichoticlistening_ta-da.mp3	ta	da	1	left
6.6.1	win	2023-07-13	22:55:15	23:08:23	783124	5ebed2706c113a28c66ad396	4	1	DL_test	23	DL_test	22	stimuli_target_rectanglediamonds.svg	stimuli_distractor_trianglediamonds.svg	2	yes	ba	0	813	6	5	antiphase_hc_osi.wav	2	6	4	noise_calib_stim_RIGHT.wav	2	34	blb_dichoticlistening_ta-ka.mp3	ta	ka	1	other
6.6.1	win	2023-07-13	22:55:15	23:08:23	783124	5ebed2706c113a28c66ad396	4	1	DL_test	23	DL_test	23	stimuli_target_rectanglediamonds.svg	stimuli_distractor_trianglediamonds.svg	2	yes	da	1	1737	6	5	antiphase_hc_osi.wav	2	6	4	noise_calib_stim_RIGHT.wav	2	9	blb_dichoticlistening_da-ga.mp3	da	ga	1	left
6.6.1	win	2023-07-13	22:55:15	23:08:23	783124	5ebed2706c113a28c66ad396	4	1	DL_test	23	DL_test	24	stimuli_target_rectanglediamonds.svg	stimuli_distractor_trianglediamonds.svg	2	yes	ba	0	884	6	5	antiphase_hc_osi.wav	2	6	4	noise_calib_stim_RIGHT.wav	2	16	blb_dichoticlistening_ga-ka.mp3	ga	ka	1	other
6.6.1	win	2023-07-13	22:55:15	23:08:23	783124	5ebed2706c113a28c66ad396	4	1	DL_test	23	DL_test	25	stimuli_target_rectanglediamonds.svg	stimuli_distractor_trianglediamonds.svg	2	yes	ka	0	2404	6	5	antiphase_hc_osi.wav	2	6	4	noise_calib_stim_RIGHT.wav	2	18	blb_dichoticlistening_ga-ta.mp3	ga	ta	1	other
6.6.1	win	2023-07-13	22:55:15	23:08:23	783124	5ebed2706c113a28c66ad396	4	1	DL_test	23	DL_test	26	stimuli_target_rectanglediamonds.svg	stimuli_distractor_trianglediamonds.svg	2	yes	ba	1	799	6	5	antiphase_hc_osi.wav	2	6	4	noise_calib_stim_RIGHT.wav	2	25	blb_dichoticlistening_pa-ba.mp3	pa	ba	1	right
