build	computer.platform	date	time	timestamp	time_elapsed_ms	subject	group	session	blockcode	blocknum	trialcode	trialnum	stimulus_left	stimulus_right	stim_index	target_present	response	correct	latency	headphonecheck_countTestTrials	headphonecheck_index	headphonecheck_testSound	headphonecheck_correctResponse	stereocheck_countTestTrials	stereocheck_index	stereocheck_testSound	stereocheck_correctResponse	DL_index	DL_soundfile	DL_leftSound	DL_rightSound	DL_dualSound	DL_choice
6.6.1	win	2023-06-02	07:08:40	07:15:29	399811	641c6443a8bca78cf7a512d1	3	1	practice_slash	5	practice_slash	1	stimuli_target_diamondsquares.svg	stimuli_distractor_trianglediamonds.svg	6	yes	0	0	2000	0	0			0	0			1				0	
6.6.1	win	2023-06-02	07:08:40	07:15:29	399811	641c6443a8bca78cf7a512d1	3	1	practice_slash	5	advance_on_keypress_SLASH	2	stimuli_target_diamondsquares.svg	stimuli_distractor_trianglediamonds.svg	6	yes	57	0	4090	0	0			0	0			1				0	
6.6.1	win	2023-06-02	07:08:40	07:15:35	406081	641c6443a8bca78cf7a512d1	3	1	practice_slash	5	practice_slash	3	stimuli_distractor_trianglediamonds.svg	stimuli_target_squarediamonds.svg	11	yes	53	1	505	0	0			0	0			1				0	
6.6.1	win	2023-06-02	07:08:40	07:15:35	406081	641c6443a8bca78cf7a512d1	3	1	practice_slash	5	advance_on_keypress_SLASH	4	stimuli_distractor_trianglediamonds.svg	stimuli_target_squarediamonds.svg	11	yes	57	0	1956	0	0			0	0			1				0	
6.6.1	win	2023-06-02	07:08:40	07:15:40	411696	641c6443a8bca78cf7a512d1	3	1	practice_slash	5	practice_slash	5	stimuli_distractor_diamondtriangles.svg	stimuli_distractor_trianglediamonds.svg	14	no	0	1	2000	0	0			0	0			1				0	
6.6.1	win	2023-06-02	07:08:40	07:15:40	411696	641c6443a8bca78cf7a512d1	3	1	practice_slash	5	advance_on_keypress_SLASH	6	stimuli_distractor_diamondtriangles.svg	stimuli_distractor_trianglediamonds.svg	14	no	57	0	1126	0	0			0	0			1				0	
6.6.1	win	2023-06-02	07:08:40	07:15:44	415427	641c6443a8bca78cf7a512d1	3	1	practice_slash	5	practice_slash	7	stimuli_distractor_trianglediamonds.svg	stimuli_distractor_diamondtriangles.svg	16	no	53	0	964	0	0			0	0			1				0	
6.6.1	win	2023-06-02	07:08:40	07:15:44	415427	641c6443a8bca78cf7a512d1	3	1	practice_slash	5	advance_on_keypress_SLASH	8	stimuli_distractor_trianglediamonds.svg	stimuli_distractor_diamondtriangles.svg	16	no	57	0	907	0	0			0	0			1				0	
6.6.1	win	2023-06-02	07:08:40	07:15:48	418941	641c6443a8bca78cf7a512d1	3	1	practice_slash	5	practice_slash	9	stimuli_distractor_trianglediamonds.svg	stimuli_distractor_trianglediamonds.svg	15	no	53	0	969	0	0			0	0			1				0	
6.6.1	win	2023-06-02	07:08:40	07:15:48	418941	641c6443a8bca78cf7a512d1	3	1	practice_slash	5	advance_on_keypress_SLASH	10	stimuli_distractor_trianglediamonds.svg	stimuli_distractor_trianglediamonds.svg	15	no	57	0	1242	0	0			0	0			1				0	
6.6.1	win	2023-06-02	07:08:40	07:15:51	422558	641c6443a8bca78cf7a512d1	3	1	practice_slash	5	practice_slash	11	stimuli_target_squarediamonds.svg	stimuli_distractor_diamondtriangles.svg	2	yes	53	1	719	0	0			0	0			1				0	
6.6.1	win	2023-06-02	07:08:40	07:15:51	422558	641c6443a8bca78cf7a512d1	3	1	practice_slash	5	advance_on_keypress_SLASH	12	stimuli_target_squarediamonds.svg	stimuli_distractor_diamondtriangles.svg	2	yes	57	0	578	0	0			0	0			1				0	
6.6.1	win	2023-06-02	07:08:40	07:15:56	426793	641c6443a8bca78cf7a512d1	3	1	practice_slash	5	practice_slash	13	stimuli_distractor_trianglediamonds.svg	stimuli_target_diamondrectangles.svg	12	yes	0	0	2000	0	0			0	0			1				0	
6.6.1	win	2023-06-02	07:08:40	07:15:56	426793	641c6443a8bca78cf7a512d1	3	1	practice_slash	5	advance_on_keypress_SLASH	14	stimuli_distractor_trianglediamonds.svg	stimuli_target_diamondrectangles.svg	12	yes	57	0	598	0	0			0	0			1				0	
6.6.1	win	2023-06-02	07:08:40	07:15:59	429810	641c6443a8bca78cf7a512d1	3	1	practice_slash	5	practice_slash	15	stimuli_target_rectanglediamonds.svg	stimuli_distractor_trianglediamonds.svg	4	yes	53	1	761	0	0			0	0			1				0	
6.6.1	win	2023-06-02	07:08:40	07:15:59	429810	641c6443a8bca78cf7a512d1	3	1	practice_slash	5	advance_on_keypress_SLASH	16	stimuli_target_rectanglediamonds.svg	stimuli_distractor_trianglediamonds.svg	4	yes	57	0	125	0	0			0	0			1				0	
6.6.1	win	2023-06-02	07:08:40	07:16:02	433590	641c6443a8bca78cf7a512d1	3	1	practice_slash	5	practice_slash	17	stimuli_distractor_diamondtriangles.svg	stimuli_target_trianglerectangles.svg	9	yes	0	0	2000	0	0			0	0			1				0	
6.6.1	win	2023-06-02	07:08:40	07:16:02	433590	641c6443a8bca78cf7a512d1	3	1	practice_slash	5	advance_on_keypress_SLASH	18	stimuli_distractor_diamondtriangles.svg	stimuli_target_trianglerectangles.svg	9	yes	57	0	1078	0	0			0	0			1				0	
6.6.1	win	2023-06-02	07:08:40	07:16:06	437016	641c6443a8bca78cf7a512d1	3	1	practice_slash	5	practice_slash	19	stimuli_target_rectanglediamonds.svg	stimuli_distractor_diamondtriangles.svg	1	yes	53	1	709	0	0			0	0			1				0	
6.6.1	win	2023-06-02	07:08:40	07:16:06	437016	641c6443a8bca78cf7a512d1	3	1	practice_slash	5	advance_on_keypress_SLASH	20	stimuli_target_rectanglediamonds.svg	stimuli_distractor_diamondtriangles.svg	1	yes	57	0	731	0	0			0	0			1				0	
6.6.1	win	2023-06-02	07:08:40	07:16:09	440147	641c6443a8bca78cf7a512d1	3	1	practice_slash	5	practice_slash	21	stimuli_distractor_diamondtriangles.svg	stimuli_target_rectangletriangles.svg	7	yes	53	1	743	0	0			0	0			1				0	
6.6.1	win	2023-06-02	07:08:40	07:16:09	440147	641c6443a8bca78cf7a512d1	3	1	practice_slash	5	advance_on_keypress_SLASH	22	stimuli_distractor_diamondtriangles.svg	stimuli_target_rectangletriangles.svg	7	yes	57	0	469	0	0			0	0			1				0	
6.6.1	win	2023-06-02	07:08:40	07:16:12	443083	641c6443a8bca78cf7a512d1	3	1	practice_slash	5	practice_slash	23	stimuli_target_squarediamonds.svg	stimuli_distractor_trianglediamonds.svg	5	yes	53	1	810	0	0			0	0			1				0	
6.6.1	win	2023-06-02	07:08:40	07:16:12	443083	641c6443a8bca78cf7a512d1	3	1	practice_slash	5	advance_on_keypress_SLASH	24	stimuli_target_squarediamonds.svg	stimuli_distractor_trianglediamonds.svg	5	yes	57	0	643	0	0			0	0			1				0	
6.6.1	win	2023-06-02	07:08:40	07:16:15	446107	641c6443a8bca78cf7a512d1	3	1	practice_slash	5	practice_slash	25	stimuli_distractor_trianglediamonds.svg	stimuli_target_rectanglediamonds.svg	10	yes	53	1	725	0	0			0	0			1				0	
6.6.1	win	2023-06-02	07:08:40	07:16:15	446107	641c6443a8bca78cf7a512d1	3	1	practice_slash	5	advance_on_keypress_SLASH	26	stimuli_distractor_trianglediamonds.svg	stimuli_target_rectanglediamonds.svg	10	yes	57	0	47	0	0			0	0			1				0	
6.6.1	win	2023-06-02	07:08:40	07:16:17	448326	641c6443a8bca78cf7a512d1	3	1	practice_slash	5	practice_slash	27	stimuli_target_diamondsquares.svg	stimuli_distractor_diamondtriangles.svg	3	yes	53	1	523	0	0			0	0			1				0	
6.6.1	win	2023-06-02	07:08:40	07:16:17	448326	641c6443a8bca78cf7a512d1	3	1	practice_slash	5	advance_on_keypress_SLASH	28	stimuli_target_diamondsquares.svg	stimuli_distractor_diamondtriangles.svg	3	yes	57	0	932	0	0			0	0			1				0	
6.6.1	win	2023-06-02	07:08:40	07:16:20	451445	641c6443a8bca78cf7a512d1	3	1	practice_slash	5	practice_slash	29	stimuli_distractor_diamondtriangles.svg	stimuli_distractor_diamondtriangles.svg	13	no	53	0	549	0	0			0	0			1				0	
6.6.1	win	2023-06-02	07:08:40	07:16:20	451445	641c6443a8bca78cf7a512d1	3	1	practice_slash	5	advance_on_keypress_SLASH	30	stimuli_distractor_diamondtriangles.svg	stimuli_distractor_diamondtriangles.svg	13	no	57	0	1225	0	0			0	0			1				0	
6.6.1	win	2023-06-02	07:08:40	07:16:24	454967	641c6443a8bca78cf7a512d1	3	1	practice_slash	5	practice_slash	31	stimuli_distractor_diamondtriangles.svg	stimuli_target_diamondrectangles.svg	8	yes	53	1	653	0	0			0	0			1				0	
6.6.1	win	2023-06-02	07:08:40	07:16:24	454967	641c6443a8bca78cf7a512d1	3	1	practice_slash	5	advance_on_keypress_SLASH	32	stimuli_distractor_diamondtriangles.svg	stimuli_target_diamondrectangles.svg	8	yes	57	0	580	0	0			0	0			1				0	
6.6.1	win	2023-06-02	07:08:40	07:16:53	484526	641c6443a8bca78cf7a512d1	3	1	main_slash	7	main_slash	1	stimuli_distractor_diamondtriangles.svg	stimuli_target_rectanglediamonds.svg	14	yes	53	1	812	0	0			0	0			1				0	
6.6.1	win	2023-06-02	07:08:40	07:16:53	484526	641c6443a8bca78cf7a512d1	3	1	main_slash	7	advance_on_keypress_SLASH	2	stimuli_distractor_diamondtriangles.svg	stimuli_target_rectanglediamonds.svg	14	yes	57	0	2929	0	0			0	0			1				0	
6.6.1	win	2023-06-02	07:08:40	07:16:57	488650	641c6443a8bca78cf7a512d1	3	1	main_slash	7	main_slash	3	stimuli_target_trianglerectangles.svg	stimuli_distractor_diamondtriangles.svg	21	yes	53	1	560	0	0			0	0			1				0	
6.6.1	win	2023-06-02	07:08:40	07:16:57	488650	641c6443a8bca78cf7a512d1	3	1	main_slash	7	advance_on_keypress_SLASH	4	stimuli_target_trianglerectangles.svg	stimuli_distractor_diamondtriangles.svg	21	yes	57	0	936	0	0			0	0			1				0	
6.6.1	win	2023-06-02	07:08:40	07:17:00	490896	641c6443a8bca78cf7a512d1	3	1	main_slash	7	main_slash	5	stimuli_distractor_trianglediamonds.svg	stimuli_target_diamondsquares.svg	28	yes	53	1	667	0	0			0	0			1				0	
6.6.1	win	2023-06-02	07:08:40	07:17:00	490896	641c6443a8bca78cf7a512d1	3	1	main_slash	7	advance_on_keypress_SLASH	6	stimuli_distractor_trianglediamonds.svg	stimuli_target_diamondsquares.svg	28	yes	57	0	621	0	0			0	0			1				0	
6.6.1	win	2023-06-02	07:08:40	07:17:02	493083	641c6443a8bca78cf7a512d1	3	1	main_slash	7	main_slash	7	stimuli_distractor_diamondtriangles.svg	stimuli_distractor_diamondtriangles.svg	39	no	53	0	928	0	0			0	0			1				0	
6.6.1	win	2023-06-02	07:08:40	07:17:02	493083	641c6443a8bca78cf7a512d1	3	1	main_slash	7	advance_on_keypress_SLASH	8	stimuli_distractor_diamondtriangles.svg	stimuli_distractor_diamondtriangles.svg	39	no	57	0	1714	0	0			0	0			1				0	
6.6.1	win	2023-06-02	07:08:40	07:17:05	496470	641c6443a8bca78cf7a512d1	3	1	main_slash	7	main_slash	9	stimuli_distractor_diamondtriangles.svg	stimuli_distractor_trianglediamonds.svg	38	no	53	0	1037	0	0			0	0			1				0	
6.6.1	win	2023-06-02	07:08:40	07:17:05	496470	641c6443a8bca78cf7a512d1	3	1	main_slash	7	advance_on_keypress_SLASH	10	stimuli_distractor_diamondtriangles.svg	stimuli_distractor_trianglediamonds.svg	38	no	57	0	588	0	0			0	0			1				0	
6.6.1	win	2023-06-02	07:08:40	07:17:08	499428	641c6443a8bca78cf7a512d1	3	1	main_slash	7	main_slash	11	stimuli_distractor_trianglediamonds.svg	stimuli_distractor_diamondtriangles.svg	36	no	53	0	1734	0	0			0	0			1				0	
6.6.1	win	2023-06-02	07:08:40	07:17:08	499428	641c6443a8bca78cf7a512d1	3	1	main_slash	7	advance_on_keypress_SLASH	12	stimuli_distractor_trianglediamonds.svg	stimuli_distractor_diamondtriangles.svg	36	no	57	0	434	0	0			0	0			1				0	
6.6.1	win	2023-06-02	07:08:40	07:17:10	501520	641c6443a8bca78cf7a512d1	3	1	main_slash	7	main_slash	13	stimuli_distractor_diamondtriangles.svg	stimuli_target_trianglesquares.svg	30	yes	53	1	1021	0	0			0	0			1				0	
6.6.1	win	2023-06-02	07:08:40	07:17:10	501520	641c6443a8bca78cf7a512d1	3	1	main_slash	7	advance_on_keypress_SLASH	14	stimuli_distractor_diamondtriangles.svg	stimuli_target_trianglesquares.svg	30	yes	57	0	686	0	0			0	0			1				0	
6.6.1	win	2023-06-02	07:08:40	07:17:13	503940	641c6443a8bca78cf7a512d1	3	1	main_slash	7	main_slash	15	stimuli_target_squarediamonds.svg	stimuli_distractor_trianglediamonds.svg	4	yes	53	1	1093	0	0			0	0			1				0	
6.6.1	win	2023-06-02	07:08:40	07:17:13	503940	641c6443a8bca78cf7a512d1	3	1	main_slash	7	advance_on_keypress_SLASH	16	stimuli_target_squarediamonds.svg	stimuli_distractor_trianglediamonds.svg	4	yes	57	0	661	0	0			0	0			1				0	
6.6.1	win	2023-06-02	07:08:40	07:17:15	506421	641c6443a8bca78cf7a512d1	3	1	main_slash	7	main_slash	17	stimuli_target_diamondsquares.svg	stimuli_distractor_diamondtriangles.svg	24	yes	53	1	1184	0	0			0	0			1				0	
6.6.1	win	2023-06-02	07:08:40	07:17:15	506421	641c6443a8bca78cf7a512d1	3	1	main_slash	7	advance_on_keypress_SLASH	18	stimuli_target_diamondsquares.svg	stimuli_distractor_diamondtriangles.svg	24	yes	57	0	570	0	0			0	0			1				0	
6.6.1	win	2023-06-02	07:08:40	07:17:18	509627	641c6443a8bca78cf7a512d1	3	1	main_slash	7	main_slash	19	stimuli_distractor_diamondtriangles.svg	stimuli_target_rectangletriangles.svg	13	yes	0	0	2000	0	0			0	0			1				0	
6.6.1	win	2023-06-02	07:08:40	07:17:18	509627	641c6443a8bca78cf7a512d1	3	1	main_slash	7	advance_on_keypress_SLASH	20	stimuli_distractor_diamondtriangles.svg	stimuli_target_rectangletriangles.svg	13	yes	57	0	828	0	0			0	0			1				0	
6.6.1	win	2023-06-02	07:08:40	07:17:21	511972	641c6443a8bca78cf7a512d1	3	1	main_slash	7	main_slash	21	stimuli_target_trianglerectangles.svg	stimuli_distractor_trianglediamonds.svg	17	yes	53	1	881	0	0			0	0			1				0	
6.6.1	win	2023-06-02	07:08:40	07:17:21	511972	641c6443a8bca78cf7a512d1	3	1	main_slash	7	advance_on_keypress_SLASH	22	stimuli_target_trianglerectangles.svg	stimuli_distractor_trianglediamonds.svg	17	yes	57	0	562	0	0			0	0			1				0	
6.6.1	win	2023-06-02	07:08:40	07:17:23	514205	641c6443a8bca78cf7a512d1	3	1	main_slash	7	main_slash	23	stimuli_distractor_trianglediamonds.svg	stimuli_target_trianglesquares.svg	26	yes	53	1	1034	0	0			0	0			1				0	
6.6.1	win	2023-06-02	07:08:40	07:17:23	514205	641c6443a8bca78cf7a512d1	3	1	main_slash	7	advance_on_keypress_SLASH	24	stimuli_distractor_trianglediamonds.svg	stimuli_target_trianglesquares.svg	26	yes	57	0	426	0	0			0	0			1				0	
6.6.1	win	2023-06-02	07:08:40	07:17:25	516177	641c6443a8bca78cf7a512d1	3	1	main_slash	7	main_slash	25	stimuli_target_squarediamonds.svg	stimuli_distractor_diamondtriangles.svg	8	yes	53	1	910	0	0			0	0			1				0	
6.6.1	win	2023-06-02	07:08:40	07:17:25	516177	641c6443a8bca78cf7a512d1	3	1	main_slash	7	advance_on_keypress_SLASH	26	stimuli_target_squarediamonds.svg	stimuli_distractor_diamondtriangles.svg	8	yes	57	0	475	0	0			0	0			1				0	
6.6.1	win	2023-06-02	07:08:40	07:17:27	518384	641c6443a8bca78cf7a512d1	3	1	main_slash	7	main_slash	27	stimuli_distractor_diamondtriangles.svg	stimuli_target_squarediamonds.svg	16	yes	53	1	1094	0	0			0	0			1				0	
6.6.1	win	2023-06-02	07:08:40	07:17:27	518384	641c6443a8bca78cf7a512d1	3	1	main_slash	7	advance_on_keypress_SLASH	28	stimuli_distractor_diamondtriangles.svg	stimuli_target_squarediamonds.svg	16	yes	57	0	393	0	0			0	0			1				0	
6.6.1	win	2023-06-02	07:08:40	07:17:29	520537	641c6443a8bca78cf7a512d1	3	1	main_slash	7	main_slash	29	stimuli_target_trianglesquares.svg	stimuli_distractor_trianglediamonds.svg	18	yes	53	1	1123	0	0			0	0			1				0	
6.6.1	win	2023-06-02	07:08:40	07:17:29	520537	641c6443a8bca78cf7a512d1	3	1	main_slash	7	advance_on_keypress_SLASH	30	stimuli_target_trianglesquares.svg	stimuli_distractor_trianglediamonds.svg	18	yes	57	0	565	0	0			0	0			1				0	
6.6.1	win	2023-06-02	07:08:40	07:17:32	522888	641c6443a8bca78cf7a512d1	3	1	main_slash	7	main_slash	31	stimuli_distractor_diamondtriangles.svg	stimuli_target_squaretriangles.svg	15	yes	53	1	1132	0	0			0	0			1				0	
6.6.1	win	2023-06-02	07:08:40	07:17:32	522888	641c6443a8bca78cf7a512d1	3	1	main_slash	7	advance_on_keypress_SLASH	32	stimuli_distractor_diamondtriangles.svg	stimuli_target_squaretriangles.svg	15	yes	57	0	528	0	0			0	0			1				0	
6.6.1	win	2023-06-02	07:08:40	07:17:34	525244	641c6443a8bca78cf7a512d1	3	1	main_slash	7	main_slash	33	stimuli_distractor_trianglediamonds.svg	stimuli_distractor_trianglediamonds.svg	34	no	53	0	1192	0	0			0	0			1				0	
6.6.1	win	2023-06-02	07:08:40	07:17:34	525244	641c6443a8bca78cf7a512d1	3	1	main_slash	7	advance_on_keypress_SLASH	34	stimuli_distractor_trianglediamonds.svg	stimuli_distractor_trianglediamonds.svg	34	no	57	0	556	0	0			0	0			1				0	
6.6.1	win	2023-06-02	07:08:40	07:17:37	528437	641c6443a8bca78cf7a512d1	3	1	main_slash	7	main_slash	35	stimuli_distractor_diamondtriangles.svg	stimuli_distractor_diamondtriangles.svg	40	no	0	1	2000	0	0			0	0			1				0	
6.6.1	win	2023-06-02	07:08:40	07:17:37	528437	641c6443a8bca78cf7a512d1	3	1	main_slash	7	advance_on_keypress_SLASH	36	stimuli_distractor_diamondtriangles.svg	stimuli_distractor_diamondtriangles.svg	40	no	57	0	392	0	0			0	0			1				0	
6.6.1	win	2023-06-02	07:08:40	07:17:40	531467	641c6443a8bca78cf7a512d1	3	1	main_slash	7	main_slash	37	stimuli_distractor_trianglediamonds.svg	stimuli_distractor_diamondtriangles.svg	35	no	0	1	2000	0	0			0	0			1				0	
6.6.1	win	2023-06-02	07:08:40	07:17:40	531467	641c6443a8bca78cf7a512d1	3	1	main_slash	7	advance_on_keypress_SLASH	38	stimuli_distractor_trianglediamonds.svg	stimuli_distractor_diamondtriangles.svg	35	no	57	0	488	0	0			0	0			1				0	
6.6.1	win	2023-06-02	07:08:40	07:17:42	533391	641c6443a8bca78cf7a512d1	3	1	main_slash	7	main_slash	39	stimuli_target_squaretriangles.svg	stimuli_distractor_diamondtriangles.svg	7	yes	53	1	799	0	0			0	0			1				0	
6.6.1	win	2023-06-02	07:08:40	07:17:42	533391	641c6443a8bca78cf7a512d1	3	1	main_slash	7	advance_on_keypress_SLASH	40	stimuli_target_squaretriangles.svg	stimuli_distractor_diamondtriangles.svg	7	yes	57	0	642	0	0			0	0			1				0	
6.6.1	win	2023-06-02	07:08:40	07:17:44	535723	641c6443a8bca78cf7a512d1	3	1	main_slash	7	main_slash	41	stimuli_distractor_trianglediamonds.svg	stimuli_target_rectangletriangles.svg	9	yes	53	1	1054	0	0			0	0			1				0	
6.6.1	win	2023-06-02	07:08:40	07:17:44	535723	641c6443a8bca78cf7a512d1	3	1	main_slash	7	advance_on_keypress_SLASH	42	stimuli_distractor_trianglediamonds.svg	stimuli_target_rectangletriangles.svg	9	yes	57	0	2291	0	0			0	0			1				0	
6.6.1	win	2023-06-02	07:08:40	07:17:48	539495	641c6443a8bca78cf7a512d1	3	1	main_slash	7	main_slash	43	stimuli_target_rectanglediamonds.svg	stimuli_distractor_trianglediamonds.svg	2	yes	53	1	845	0	0			0	0			1				0	
6.6.1	win	2023-06-02	07:08:40	07:17:48	539495	641c6443a8bca78cf7a512d1	3	1	main_slash	7	advance_on_keypress_SLASH	44	stimuli_target_rectanglediamonds.svg	stimuli_distractor_trianglediamonds.svg	2	yes	57	0	608	0	0			0	0			1				0	
6.6.1	win	2023-06-02	07:08:40	07:17:51	541813	641c6443a8bca78cf7a512d1	3	1	main_slash	7	main_slash	45	stimuli_distractor_diamondtriangles.svg	stimuli_target_diamondrectangles.svg	31	yes	53	1	1074	0	0			0	0			1				0	
6.6.1	win	2023-06-02	07:08:40	07:17:51	541813	641c6443a8bca78cf7a512d1	3	1	main_slash	7	advance_on_keypress_SLASH	46	stimuli_distractor_diamondtriangles.svg	stimuli_target_diamondrectangles.svg	31	yes	57	0	562	0	0			0	0			1				0	
6.6.1	win	2023-06-02	07:08:40	07:17:53	544021	641c6443a8bca78cf7a512d1	3	1	main_slash	7	main_slash	47	stimuli_distractor_trianglediamonds.svg	stimuli_target_squaretriangles.svg	11	yes	53	1	1010	0	0			0	0			1				0	
6.6.1	win	2023-06-02	07:08:40	07:17:53	544021	641c6443a8bca78cf7a512d1	3	1	main_slash	7	advance_on_keypress_SLASH	48	stimuli_distractor_trianglediamonds.svg	stimuli_target_squaretriangles.svg	11	yes	57	0	633	0	0			0	0			1				0	
6.6.1	win	2023-06-02	07:08:40	07:17:55	546400	641c6443a8bca78cf7a512d1	3	1	main_slash	7	main_slash	49	stimuli_distractor_trianglediamonds.svg	stimuli_target_trianglerectangles.svg	25	yes	53	1	1104	0	0			0	0			1				0	
6.6.1	win	2023-06-02	07:08:40	07:17:55	546400	641c6443a8bca78cf7a512d1	3	1	main_slash	7	advance_on_keypress_SLASH	50	stimuli_distractor_trianglediamonds.svg	stimuli_target_trianglerectangles.svg	25	yes	57	0	421	0	0			0	0			1				0	
6.6.1	win	2023-06-02	07:08:40	07:17:57	548433	641c6443a8bca78cf7a512d1	3	1	main_slash	7	main_slash	51	stimuli_target_rectanglediamonds.svg	stimuli_distractor_diamondtriangles.svg	6	yes	53	1	976	0	0			0	0			1				0	
6.6.1	win	2023-06-02	07:08:40	07:17:57	548433	641c6443a8bca78cf7a512d1	3	1	main_slash	7	advance_on_keypress_SLASH	52	stimuli_target_rectanglediamonds.svg	stimuli_distractor_diamondtriangles.svg	6	yes	57	0	731	0	0			0	0			1				0	
6.6.1	win	2023-06-02	07:08:40	07:18:00	550899	641c6443a8bca78cf7a512d1	3	1	main_slash	7	main_slash	53	stimuli_target_diamondrectangles.svg	stimuli_distractor_trianglediamonds.svg	19	yes	53	1	1091	0	0			0	0			1				0	
6.6.1	win	2023-06-02	07:08:40	07:18:00	550899	641c6443a8bca78cf7a512d1	3	1	main_slash	7	advance_on_keypress_SLASH	54	stimuli_target_diamondrectangles.svg	stimuli_distractor_trianglediamonds.svg	19	yes	57	0	493	0	0			0	0			1				0	
6.6.1	win	2023-06-02	07:08:40	07:18:02	553034	641c6443a8bca78cf7a512d1	3	1	main_slash	7	main_slash	55	stimuli_distractor_trianglediamonds.svg	stimuli_target_squarediamonds.svg	12	yes	53	1	1002	0	0			0	0			1				0	
6.6.1	win	2023-06-02	07:08:40	07:18:02	553034	641c6443a8bca78cf7a512d1	3	1	main_slash	7	advance_on_keypress_SLASH	56	stimuli_distractor_trianglediamonds.svg	stimuli_target_squarediamonds.svg	12	yes	57	0	469	0	0			0	0			1				0	
6.6.1	win	2023-06-02	07:08:40	07:18:04	555120	641c6443a8bca78cf7a512d1	3	1	main_slash	7	main_slash	57	stimuli_target_diamondrectangles.svg	stimuli_distractor_diamondtriangles.svg	23	yes	53	1	980	0	0			0	0			1				0	
6.6.1	win	2023-06-02	07:08:40	07:18:04	555120	641c6443a8bca78cf7a512d1	3	1	main_slash	7	advance_on_keypress_SLASH	58	stimuli_target_diamondrectangles.svg	stimuli_distractor_diamondtriangles.svg	23	yes	57	0	565	0	0			0	0			1				0	
6.6.1	win	2023-06-02	07:08:40	07:18:06	557404	641c6443a8bca78cf7a512d1	3	1	main_slash	7	main_slash	59	stimuli_distractor_trianglediamonds.svg	stimuli_distractor_trianglediamonds.svg	33	no	53	0	1082	0	0			0	0			1				0	
6.6.1	win	2023-06-02	07:08:40	07:18:06	557404	641c6443a8bca78cf7a512d1	3	1	main_slash	7	advance_on_keypress_SLASH	60	stimuli_distractor_trianglediamonds.svg	stimuli_distractor_trianglediamonds.svg	33	no	57	0	457	0	0			0	0			1				0	
6.6.1	win	2023-06-02	07:08:40	07:18:08	559516	641c6443a8bca78cf7a512d1	3	1	main_slash	7	main_slash	61	stimuli_target_squaretriangles.svg	stimuli_distractor_trianglediamonds.svg	3	yes	53	1	1019	0	0			0	0			1				0	
6.6.1	win	2023-06-02	07:08:40	07:18:08	559516	641c6443a8bca78cf7a512d1	3	1	main_slash	7	advance_on_keypress_SLASH	62	stimuli_target_squaretriangles.svg	stimuli_distractor_trianglediamonds.svg	3	yes	57	0	532	0	0			0	0			1				0	
6.6.1	win	2023-06-02	07:08:40	07:18:10	561660	641c6443a8bca78cf7a512d1	3	1	main_slash	7	main_slash	63	stimuli_distractor_trianglediamonds.svg	stimuli_target_rectanglediamonds.svg	10	yes	53	1	976	0	0			0	0			1				0	
6.6.1	win	2023-06-02	07:08:40	07:18:10	561660	641c6443a8bca78cf7a512d1	3	1	main_slash	7	advance_on_keypress_SLASH	64	stimuli_distractor_trianglediamonds.svg	stimuli_target_rectanglediamonds.svg	10	yes	57	0	375	0	0			0	0			1				0	
6.6.1	win	2023-06-02	07:08:40	07:18:13	563803	641c6443a8bca78cf7a512d1	3	1	main_slash	7	main_slash	65	stimuli_distractor_diamondtriangles.svg	stimuli_distractor_trianglediamonds.svg	37	no	53	0	1119	0	0			0	0			1				0	
6.6.1	win	2023-06-02	07:08:40	07:18:13	563803	641c6443a8bca78cf7a512d1	3	1	main_slash	7	advance_on_keypress_SLASH	66	stimuli_distractor_diamondtriangles.svg	stimuli_distractor_trianglediamonds.svg	37	no	57	0	382	0	0			0	0			1				0	
6.6.1	win	2023-06-02	07:08:40	07:18:15	565905	641c6443a8bca78cf7a512d1	3	1	main_slash	7	main_slash	67	stimuli_target_trianglesquares.svg	stimuli_distractor_diamondtriangles.svg	22	yes	53	1	1083	0	0			0	0			1				0	
6.6.1	win	2023-06-02	07:08:40	07:18:15	565905	641c6443a8bca78cf7a512d1	3	1	main_slash	7	advance_on_keypress_SLASH	68	stimuli_target_trianglesquares.svg	stimuli_distractor_diamondtriangles.svg	22	yes	57	0	383	0	0			0	0			1				0	
6.6.1	win	2023-06-02	07:08:40	07:18:17	568084	641c6443a8bca78cf7a512d1	3	1	main_slash	7	main_slash	69	stimuli_distractor_diamondtriangles.svg	stimuli_target_trianglerectangles.svg	29	yes	53	1	1159	0	0			0	0			1				0	
6.6.1	win	2023-06-02	07:08:40	07:18:17	568084	641c6443a8bca78cf7a512d1	3	1	main_slash	7	advance_on_keypress_SLASH	70	stimuli_distractor_diamondtriangles.svg	stimuli_target_trianglerectangles.svg	29	yes	57	0	422	0	0			0	0			1				0	
6.6.1	win	2023-06-02	07:08:40	07:18:19	570519	641c6443a8bca78cf7a512d1	3	1	main_slash	7	main_slash	71	stimuli_target_rectangletriangles.svg	stimuli_distractor_trianglediamonds.svg	1	yes	53	1	1377	0	0			0	0			1				0	
6.6.1	win	2023-06-02	07:08:40	07:18:19	570519	641c6443a8bca78cf7a512d1	3	1	main_slash	7	advance_on_keypress_SLASH	72	stimuli_target_rectangletriangles.svg	stimuli_distractor_trianglediamonds.svg	1	yes	57	0	418	0	0			0	0			1				0	
6.6.1	win	2023-06-02	07:08:40	07:18:21	572662	641c6443a8bca78cf7a512d1	3	1	main_slash	7	main_slash	73	stimuli_distractor_trianglediamonds.svg	stimuli_target_diamondrectangles.svg	27	yes	53	1	1085	0	0			0	0			1				0	
6.6.1	win	2023-06-02	07:08:40	07:18:21	572662	641c6443a8bca78cf7a512d1	3	1	main_slash	7	advance_on_keypress_SLASH	74	stimuli_distractor_trianglediamonds.svg	stimuli_target_diamondrectangles.svg	27	yes	57	0	336	0	0			0	0			1				0	
6.6.1	win	2023-06-02	07:08:40	07:18:24	574812	641c6443a8bca78cf7a512d1	3	1	main_slash	7	main_slash	75	stimuli_target_rectangletriangles.svg	stimuli_distractor_diamondtriangles.svg	5	yes	53	1	1179	0	0			0	0			1				0	
6.6.1	win	2023-06-02	07:08:40	07:18:24	574812	641c6443a8bca78cf7a512d1	3	1	main_slash	7	advance_on_keypress_SLASH	76	stimuli_target_rectangletriangles.svg	stimuli_distractor_diamondtriangles.svg	5	yes	57	0	357	0	0			0	0			1				0	
6.6.1	win	2023-06-02	07:08:40	07:18:26	576859	641c6443a8bca78cf7a512d1	3	1	main_slash	7	main_slash	77	stimuli_distractor_diamondtriangles.svg	stimuli_target_diamondsquares.svg	32	yes	53	1	1044	0	0			0	0			1				0	
6.6.1	win	2023-06-02	07:08:40	07:18:26	576859	641c6443a8bca78cf7a512d1	3	1	main_slash	7	advance_on_keypress_SLASH	78	stimuli_distractor_diamondtriangles.svg	stimuli_target_diamondsquares.svg	32	yes	57	0	245	0	0			0	0			1				0	
6.6.1	win	2023-06-02	07:08:40	07:18:28	579154	641c6443a8bca78cf7a512d1	3	1	main_slash	7	main_slash	79	stimuli_target_diamondsquares.svg	stimuli_distractor_trianglediamonds.svg	20	yes	53	1	1416	0	0			0	0			1				0	
6.6.1	win	2023-06-02	07:08:40	07:18:28	579154	641c6443a8bca78cf7a512d1	3	1	main_slash	7	advance_on_keypress_SLASH	80	stimuli_target_diamondsquares.svg	stimuli_distractor_trianglediamonds.svg	20	yes	57	0	322	0	0			0	0			1				0	
6.6.1	win	2023-06-02	07:08:40	07:18:30	581510	641c6443a8bca78cf7a512d1	3	1	main_slash	7	main_slash	81	stimuli_target_trianglerectangles.svg	stimuli_distractor_trianglediamonds.svg	17	yes	53	1	1391	0	0			0	0			1				0	
6.6.1	win	2023-06-02	07:08:40	07:18:30	581510	641c6443a8bca78cf7a512d1	3	1	main_slash	7	advance_on_keypress_SLASH	82	stimuli_target_trianglerectangles.svg	stimuli_distractor_trianglediamonds.svg	17	yes	57	0	379	0	0			0	0			1				0	
6.6.1	win	2023-06-02	07:08:40	07:18:32	583542	641c6443a8bca78cf7a512d1	3	1	main_slash	7	main_slash	83	stimuli_target_rectangletriangles.svg	stimuli_distractor_diamondtriangles.svg	5	yes	53	1	1017	0	0			0	0			1				0	
6.6.1	win	2023-06-02	07:08:40	07:18:32	583542	641c6443a8bca78cf7a512d1	3	1	main_slash	7	advance_on_keypress_SLASH	84	stimuli_target_rectangletriangles.svg	stimuli_distractor_diamondtriangles.svg	5	yes	57	0	538	0	0			0	0			1				0	
6.6.1	win	2023-06-02	07:08:40	07:18:35	586641	641c6443a8bca78cf7a512d1	3	1	main_slash	7	main_slash	85	stimuli_distractor_trianglediamonds.svg	stimuli_distractor_trianglediamonds.svg	34	no	53	0	1925	0	0			0	0			1				0	
6.6.1	win	2023-06-02	07:08:40	07:18:35	586641	641c6443a8bca78cf7a512d1	3	1	main_slash	7	advance_on_keypress_SLASH	86	stimuli_distractor_trianglediamonds.svg	stimuli_distractor_trianglediamonds.svg	34	no	57	0	379	0	0			0	0			1				0	
6.6.1	win	2023-06-02	07:08:40	07:18:38	589657	641c6443a8bca78cf7a512d1	3	1	main_slash	7	main_slash	87	stimuli_distractor_trianglediamonds.svg	stimuli_distractor_diamondtriangles.svg	36	no	0	1	2000	0	0			0	0			1				0	
6.6.1	win	2023-06-02	07:08:40	07:18:38	589657	641c6443a8bca78cf7a512d1	3	1	main_slash	7	advance_on_keypress_SLASH	88	stimuli_distractor_trianglediamonds.svg	stimuli_distractor_diamondtriangles.svg	36	no	57	0	676	0	0			0	0			1				0	
6.6.1	win	2023-06-02	07:08:40	07:18:41	591846	641c6443a8bca78cf7a512d1	3	1	main_slash	7	main_slash	89	stimuli_target_trianglesquares.svg	stimuli_distractor_diamondtriangles.svg	22	yes	53	1	876	0	0			0	0			1				0	
6.6.1	win	2023-06-02	07:08:40	07:18:41	591846	641c6443a8bca78cf7a512d1	3	1	main_slash	7	advance_on_keypress_SLASH	90	stimuli_target_trianglesquares.svg	stimuli_distractor_diamondtriangles.svg	22	yes	57	0	577	0	0			0	0			1				0	
6.6.1	win	2023-06-02	07:08:40	07:18:43	594086	641c6443a8bca78cf7a512d1	3	1	main_slash	7	main_slash	91	stimuli_target_diamondrectangles.svg	stimuli_distractor_trianglediamonds.svg	19	yes	53	1	1028	0	0			0	0			1				0	
6.6.1	win	2023-06-02	07:08:40	07:18:43	594086	641c6443a8bca78cf7a512d1	3	1	main_slash	7	advance_on_keypress_SLASH	92	stimuli_target_diamondrectangles.svg	stimuli_distractor_trianglediamonds.svg	19	yes	57	0	341	0	0			0	0			1				0	
6.6.1	win	2023-06-02	07:08:40	07:18:46	597063	641c6443a8bca78cf7a512d1	3	1	main_slash	7	main_slash	93	stimuli_distractor_diamondtriangles.svg	stimuli_distractor_trianglediamonds.svg	37	no	0	1	2000	0	0			0	0			1				0	
6.6.1	win	2023-06-02	07:08:40	07:18:46	597063	641c6443a8bca78cf7a512d1	3	1	main_slash	7	advance_on_keypress_SLASH	94	stimuli_distractor_diamondtriangles.svg	stimuli_distractor_trianglediamonds.svg	37	no	57	0	422	0	0			0	0			1				0	
6.6.1	win	2023-06-02	07:08:40	07:18:48	599015	641c6443a8bca78cf7a512d1	3	1	main_slash	7	main_slash	95	stimuli_target_squaretriangles.svg	stimuli_distractor_trianglediamonds.svg	3	yes	53	1	893	0	0			0	0			1				0	
6.6.1	win	2023-06-02	07:08:40	07:18:48	599015	641c6443a8bca78cf7a512d1	3	1	main_slash	7	advance_on_keypress_SLASH	96	stimuli_target_squaretriangles.svg	stimuli_distractor_trianglediamonds.svg	3	yes	57	0	391	0	0			0	0			1				0	
6.6.1	win	2023-06-02	07:08:40	07:18:50	601094	641c6443a8bca78cf7a512d1	3	1	main_slash	7	main_slash	97	stimuli_target_diamondsquares.svg	stimuli_distractor_diamondtriangles.svg	24	yes	53	1	1052	0	0			0	0			1				0	
6.6.1	win	2023-06-02	07:08:40	07:18:50	601094	641c6443a8bca78cf7a512d1	3	1	main_slash	7	advance_on_keypress_SLASH	98	stimuli_target_diamondsquares.svg	stimuli_distractor_diamondtriangles.svg	24	yes	57	0	174	0	0			0	0			1				0	
6.6.1	win	2023-06-02	07:08:40	07:18:52	603164	641c6443a8bca78cf7a512d1	3	1	main_slash	7	main_slash	99	stimuli_distractor_diamondtriangles.svg	stimuli_target_rectangletriangles.svg	13	yes	53	1	1260	0	0			0	0			1				0	
6.6.1	win	2023-06-02	07:08:40	07:18:52	603164	641c6443a8bca78cf7a512d1	3	1	main_slash	7	advance_on_keypress_SLASH	100	stimuli_distractor_diamondtriangles.svg	stimuli_target_rectangletriangles.svg	13	yes	57	0	520	0	0			0	0			1				0	
6.6.1	win	2023-06-02	07:08:40	07:18:54	605398	641c6443a8bca78cf7a512d1	3	1	main_slash	7	main_slash	101	stimuli_distractor_trianglediamonds.svg	stimuli_target_trianglerectangles.svg	25	yes	53	1	1077	0	0			0	0			1				0	
6.6.1	win	2023-06-02	07:08:40	07:18:54	605398	641c6443a8bca78cf7a512d1	3	1	main_slash	7	advance_on_keypress_SLASH	102	stimuli_distractor_trianglediamonds.svg	stimuli_target_trianglerectangles.svg	25	yes	57	0	468	0	0			0	0			1				0	
6.6.1	win	2023-06-02	07:08:40	07:18:56	607568	641c6443a8bca78cf7a512d1	3	1	main_slash	7	main_slash	103	stimuli_distractor_trianglediamonds.svg	stimuli_target_diamondrectangles.svg	27	yes	53	1	1065	0	0			0	0			1				0	
6.6.1	win	2023-06-02	07:08:40	07:18:56	607568	641c6443a8bca78cf7a512d1	3	1	main_slash	7	advance_on_keypress_SLASH	104	stimuli_distractor_trianglediamonds.svg	stimuli_target_diamondrectangles.svg	27	yes	57	0	396	0	0			0	0			1				0	
6.6.1	win	2023-06-02	07:08:40	07:18:58	609341	641c6443a8bca78cf7a512d1	3	1	main_slash	7	main_slash	105	stimuli_target_diamondsquares.svg	stimuli_distractor_trianglediamonds.svg	20	yes	53	1	741	0	0			0	0			1				0	
6.6.1	win	2023-06-02	07:08:40	07:18:58	609341	641c6443a8bca78cf7a512d1	3	1	main_slash	7	advance_on_keypress_SLASH	106	stimuli_target_diamondsquares.svg	stimuli_distractor_trianglediamonds.svg	20	yes	57	0	432	0	0			0	0			1				0	
6.6.1	win	2023-06-02	07:08:40	07:19:00	611470	641c6443a8bca78cf7a512d1	3	1	main_slash	7	main_slash	107	stimuli_target_rectanglediamonds.svg	stimuli_distractor_diamondtriangles.svg	6	yes	53	1	1059	0	0			0	0			1				0	
6.6.1	win	2023-06-02	07:08:40	07:19:00	611470	641c6443a8bca78cf7a512d1	3	1	main_slash	7	advance_on_keypress_SLASH	108	stimuli_target_rectanglediamonds.svg	stimuli_distractor_diamondtriangles.svg	6	yes	57	0	354	0	0			0	0			1				0	
6.6.1	win	2023-06-02	07:08:40	07:19:02	613377	641c6443a8bca78cf7a512d1	3	1	main_slash	7	main_slash	109	stimuli_target_rectanglediamonds.svg	stimuli_distractor_trianglediamonds.svg	2	yes	53	1	916	0	0			0	0			1				0	
6.6.1	win	2023-06-02	07:08:40	07:19:02	613377	641c6443a8bca78cf7a512d1	3	1	main_slash	7	advance_on_keypress_SLASH	110	stimuli_target_rectanglediamonds.svg	stimuli_distractor_trianglediamonds.svg	2	yes	57	0	294	0	0			0	0			1				0	
6.6.1	win	2023-06-02	07:08:40	07:19:04	615131	641c6443a8bca78cf7a512d1	3	1	main_slash	7	main_slash	111	stimuli_distractor_trianglediamonds.svg	stimuli_target_squarediamonds.svg	12	yes	53	1	811	0	0			0	0			1				0	
6.6.1	win	2023-06-02	07:08:40	07:19:04	615131	641c6443a8bca78cf7a512d1	3	1	main_slash	7	advance_on_keypress_SLASH	112	stimuli_distractor_trianglediamonds.svg	stimuli_target_squarediamonds.svg	12	yes	57	0	322	0	0			0	0			1				0	
6.6.1	win	2023-06-02	07:08:40	07:19:06	617124	641c6443a8bca78cf7a512d1	3	1	main_slash	7	main_slash	113	stimuli_distractor_diamondtriangles.svg	stimuli_target_rectanglediamonds.svg	14	yes	53	1	1017	0	0			0	0			1				0	
6.6.1	win	2023-06-02	07:08:40	07:19:06	617124	641c6443a8bca78cf7a512d1	3	1	main_slash	7	advance_on_keypress_SLASH	114	stimuli_distractor_diamondtriangles.svg	stimuli_target_rectanglediamonds.svg	14	yes	57	0	284	0	0			0	0			1				0	
6.6.1	win	2023-06-02	07:08:40	07:19:08	619208	641c6443a8bca78cf7a512d1	3	1	main_slash	7	main_slash	115	stimuli_target_trianglesquares.svg	stimuli_distractor_trianglediamonds.svg	18	yes	53	1	1159	0	0			0	0			1				0	
6.6.1	win	2023-06-02	07:08:40	07:19:08	619208	641c6443a8bca78cf7a512d1	3	1	main_slash	7	advance_on_keypress_SLASH	116	stimuli_target_trianglesquares.svg	stimuli_distractor_trianglediamonds.svg	18	yes	57	0	389	0	0			0	0			1				0	
6.6.1	win	2023-06-02	07:08:40	07:19:10	620945	641c6443a8bca78cf7a512d1	3	1	main_slash	7	main_slash	117	stimuli_distractor_trianglediamonds.svg	stimuli_target_rectangletriangles.svg	9	yes	53	1	712	0	0			0	0			1				0	
6.6.1	win	2023-06-02	07:08:40	07:19:10	620945	641c6443a8bca78cf7a512d1	3	1	main_slash	7	advance_on_keypress_SLASH	118	stimuli_distractor_trianglediamonds.svg	stimuli_target_rectangletriangles.svg	9	yes	57	0	378	0	0			0	0			1				0	
6.6.1	win	2023-06-02	07:08:40	07:19:11	622663	641c6443a8bca78cf7a512d1	3	1	main_slash	7	main_slash	119	stimuli_distractor_diamondtriangles.svg	stimuli_target_squarediamonds.svg	16	yes	53	1	705	0	0			0	0			1				0	
6.6.1	win	2023-06-02	07:08:40	07:19:11	622663	641c6443a8bca78cf7a512d1	3	1	main_slash	7	advance_on_keypress_SLASH	120	stimuli_distractor_diamondtriangles.svg	stimuli_target_squarediamonds.svg	16	yes	57	0	426	0	0			0	0			1				0	
6.6.1	win	2023-06-02	07:08:40	07:19:13	624770	641c6443a8bca78cf7a512d1	3	1	main_slash	7	main_slash	121	stimuli_distractor_diamondtriangles.svg	stimuli_target_diamondrectangles.svg	31	yes	53	1	1044	0	0			0	0			1				0	
6.6.1	win	2023-06-02	07:08:40	07:19:13	624770	641c6443a8bca78cf7a512d1	3	1	main_slash	7	advance_on_keypress_SLASH	122	stimuli_distractor_diamondtriangles.svg	stimuli_target_diamondrectangles.svg	31	yes	57	0	440	0	0			0	0			1				0	
6.6.1	win	2023-06-02	07:08:40	07:19:15	626710	641c6443a8bca78cf7a512d1	3	1	main_slash	7	main_slash	123	stimuli_distractor_diamondtriangles.svg	stimuli_distractor_trianglediamonds.svg	38	no	53	0	854	0	0			0	0			1				0	
6.6.1	win	2023-06-02	07:08:40	07:19:15	626710	641c6443a8bca78cf7a512d1	3	1	main_slash	7	advance_on_keypress_SLASH	124	stimuli_distractor_diamondtriangles.svg	stimuli_distractor_trianglediamonds.svg	38	no	57	0	422	0	0			0	0			1				0	
6.6.1	win	2023-06-02	07:08:40	07:19:17	628765	641c6443a8bca78cf7a512d1	3	1	main_slash	7	main_slash	125	stimuli_target_squaretriangles.svg	stimuli_distractor_diamondtriangles.svg	7	yes	53	1	985	0	0			0	0			1				0	
6.6.1	win	2023-06-02	07:08:40	07:19:17	628765	641c6443a8bca78cf7a512d1	3	1	main_slash	7	advance_on_keypress_SLASH	126	stimuli_target_squaretriangles.svg	stimuli_distractor_diamondtriangles.svg	7	yes	57	0	435	0	0			0	0			1				0	
6.6.1	win	2023-06-02	07:08:40	07:19:20	630862	641c6443a8bca78cf7a512d1	3	1	main_slash	7	main_slash	127	stimuli_distractor_diamondtriangles.svg	stimuli_distractor_diamondtriangles.svg	40	no	53	0	1026	0	0			0	0			1				0	
6.6.1	win	2023-06-02	07:08:40	07:19:20	630862	641c6443a8bca78cf7a512d1	3	1	main_slash	7	advance_on_keypress_SLASH	128	stimuli_distractor_diamondtriangles.svg	stimuli_distractor_diamondtriangles.svg	40	no	57	0	439	0	0			0	0			1				0	
6.6.1	win	2023-06-02	07:08:40	07:19:21	632503	641c6443a8bca78cf7a512d1	3	1	main_slash	7	main_slash	129	stimuli_distractor_diamondtriangles.svg	stimuli_target_trianglesquares.svg	30	yes	53	1	551	0	0			0	0			1				0	
6.6.1	win	2023-06-02	07:08:40	07:19:21	632503	641c6443a8bca78cf7a512d1	3	1	main_slash	7	advance_on_keypress_SLASH	130	stimuli_distractor_diamondtriangles.svg	stimuli_target_trianglesquares.svg	30	yes	57	0	632	0	0			0	0			1				0	
6.6.1	win	2023-06-02	07:08:40	07:19:23	634515	641c6443a8bca78cf7a512d1	3	1	main_slash	7	main_slash	131	stimuli_distractor_diamondtriangles.svg	stimuli_target_squaretriangles.svg	15	yes	53	1	744	0	0			0	0			1				0	
6.6.1	win	2023-06-02	07:08:40	07:19:23	634515	641c6443a8bca78cf7a512d1	3	1	main_slash	7	advance_on_keypress_SLASH	132	stimuli_distractor_diamondtriangles.svg	stimuli_target_squaretriangles.svg	15	yes	57	0	977	0	0			0	0			1				0	
6.6.1	win	2023-06-02	07:08:40	07:19:26	636851	641c6443a8bca78cf7a512d1	3	1	main_slash	7	main_slash	133	stimuli_distractor_trianglediamonds.svg	stimuli_distractor_diamondtriangles.svg	35	no	53	0	722	0	0			0	0			1				0	
6.6.1	win	2023-06-02	07:08:40	07:19:26	636851	641c6443a8bca78cf7a512d1	3	1	main_slash	7	advance_on_keypress_SLASH	134	stimuli_distractor_trianglediamonds.svg	stimuli_distractor_diamondtriangles.svg	35	no	57	0	2637	0	0			0	0			1				0	
6.6.1	win	2023-06-02	07:08:40	07:19:30	640803	641c6443a8bca78cf7a512d1	3	1	main_slash	7	main_slash	135	stimuli_distractor_trianglediamonds.svg	stimuli_target_squaretriangles.svg	11	yes	53	1	674	0	0			0	0			1				0	
6.6.1	win	2023-06-02	07:08:40	07:19:30	640803	641c6443a8bca78cf7a512d1	3	1	main_slash	7	advance_on_keypress_SLASH	136	stimuli_distractor_trianglediamonds.svg	stimuli_target_squaretriangles.svg	11	yes	57	0	976	0	0			0	0			1				0	
6.6.1	win	2023-06-02	07:08:40	07:19:32	643155	641c6443a8bca78cf7a512d1	3	1	main_slash	7	main_slash	137	stimuli_target_trianglerectangles.svg	stimuli_distractor_diamondtriangles.svg	21	yes	53	1	729	0	0			0	0			1				0	
6.6.1	win	2023-06-02	07:08:40	07:19:32	643155	641c6443a8bca78cf7a512d1	3	1	main_slash	7	advance_on_keypress_SLASH	138	stimuli_target_trianglerectangles.svg	stimuli_distractor_diamondtriangles.svg	21	yes	57	0	582	0	0			0	0			1				0	
6.6.1	win	2023-06-02	07:08:40	07:19:34	645081	641c6443a8bca78cf7a512d1	3	1	main_slash	7	main_slash	139	stimuli_distractor_diamondtriangles.svg	stimuli_target_diamondsquares.svg	32	yes	53	1	707	0	0			0	0			1				0	
6.6.1	win	2023-06-02	07:08:40	07:19:34	645081	641c6443a8bca78cf7a512d1	3	1	main_slash	7	advance_on_keypress_SLASH	140	stimuli_distractor_diamondtriangles.svg	stimuli_target_diamondsquares.svg	32	yes	57	0	1628	0	0			0	0			1				0	
6.6.1	win	2023-06-02	07:08:40	07:19:37	648005	641c6443a8bca78cf7a512d1	3	1	main_slash	7	main_slash	141	stimuli_distractor_diamondtriangles.svg	stimuli_distractor_diamondtriangles.svg	39	no	53	0	661	0	0			0	0			1				0	
6.6.1	win	2023-06-02	07:08:40	07:19:37	648005	641c6443a8bca78cf7a512d1	3	1	main_slash	7	advance_on_keypress_SLASH	142	stimuli_distractor_diamondtriangles.svg	stimuli_distractor_diamondtriangles.svg	39	no	57	0	524	0	0			0	0			1				0	
6.6.1	win	2023-06-02	07:08:40	07:19:39	649986	641c6443a8bca78cf7a512d1	3	1	main_slash	7	main_slash	143	stimuli_distractor_trianglediamonds.svg	stimuli_target_rectanglediamonds.svg	10	yes	53	1	815	0	0			0	0			1				0	
6.6.1	win	2023-06-02	07:08:40	07:19:39	649986	641c6443a8bca78cf7a512d1	3	1	main_slash	7	advance_on_keypress_SLASH	144	stimuli_distractor_trianglediamonds.svg	stimuli_target_rectanglediamonds.svg	10	yes	57	0	684	0	0			0	0			1				0	
6.6.1	win	2023-06-02	07:08:40	07:19:41	652039	641c6443a8bca78cf7a512d1	3	1	main_slash	7	main_slash	145	stimuli_target_diamondrectangles.svg	stimuli_distractor_diamondtriangles.svg	23	yes	53	1	732	0	0			0	0			1				0	
6.6.1	win	2023-06-02	07:08:40	07:19:41	652039	641c6443a8bca78cf7a512d1	3	1	main_slash	7	advance_on_keypress_SLASH	146	stimuli_target_diamondrectangles.svg	stimuli_distractor_diamondtriangles.svg	23	yes	57	0	473	0	0			0	0			1				0	
6.6.1	win	2023-06-02	07:08:40	07:19:43	654154	641c6443a8bca78cf7a512d1	3	1	main_slash	7	main_slash	147	stimuli_distractor_trianglediamonds.svg	stimuli_target_trianglesquares.svg	26	yes	53	1	1004	0	0			0	0			1				0	
6.6.1	win	2023-06-02	07:08:40	07:19:43	654154	641c6443a8bca78cf7a512d1	3	1	main_slash	7	advance_on_keypress_SLASH	148	stimuli_distractor_trianglediamonds.svg	stimuli_target_trianglesquares.svg	26	yes	57	0	331	0	0			0	0			1				0	
6.6.1	win	2023-06-02	07:08:40	07:19:45	656093	641c6443a8bca78cf7a512d1	3	1	main_slash	7	main_slash	149	stimuli_target_rectangletriangles.svg	stimuli_distractor_trianglediamonds.svg	1	yes	53	1	971	0	0			0	0			1				0	
6.6.1	win	2023-06-02	07:08:40	07:19:45	656093	641c6443a8bca78cf7a512d1	3	1	main_slash	7	advance_on_keypress_SLASH	150	stimuli_target_rectangletriangles.svg	stimuli_distractor_trianglediamonds.svg	1	yes	57	0	380	0	0			0	0			1				0	
6.6.1	win	2023-06-02	07:08:40	07:19:47	658083	641c6443a8bca78cf7a512d1	3	1	main_slash	7	main_slash	151	stimuli_distractor_diamondtriangles.svg	stimuli_target_trianglerectangles.svg	29	yes	53	1	972	0	0			0	0			1				0	
6.6.1	win	2023-06-02	07:08:40	07:19:47	658083	641c6443a8bca78cf7a512d1	3	1	main_slash	7	advance_on_keypress_SLASH	152	stimuli_distractor_diamondtriangles.svg	stimuli_target_trianglerectangles.svg	29	yes	57	0	541	0	0			0	0			1				0	
6.6.1	win	2023-06-02	07:08:40	07:19:49	660219	641c6443a8bca78cf7a512d1	3	1	main_slash	7	main_slash	153	stimuli_target_squarediamonds.svg	stimuli_distractor_trianglediamonds.svg	4	yes	53	1	958	0	0			0	0			1				0	
6.6.1	win	2023-06-02	07:08:40	07:19:49	660219	641c6443a8bca78cf7a512d1	3	1	main_slash	7	advance_on_keypress_SLASH	154	stimuli_target_squarediamonds.svg	stimuli_distractor_trianglediamonds.svg	4	yes	57	0	409	0	0			0	0			1				0	
6.6.1	win	2023-06-02	07:08:40	07:19:51	662195	641c6443a8bca78cf7a512d1	3	1	main_slash	7	main_slash	155	stimuli_distractor_trianglediamonds.svg	stimuli_distractor_trianglediamonds.svg	33	no	53	0	924	0	0			0	0			1				0	
6.6.1	win	2023-06-02	07:08:40	07:19:51	662195	641c6443a8bca78cf7a512d1	3	1	main_slash	7	advance_on_keypress_SLASH	156	stimuli_distractor_trianglediamonds.svg	stimuli_distractor_trianglediamonds.svg	33	no	57	0	529	0	0			0	0			1				0	
6.6.1	win	2023-06-02	07:08:40	07:19:53	664204	641c6443a8bca78cf7a512d1	3	1	main_slash	7	main_slash	157	stimuli_distractor_trianglediamonds.svg	stimuli_target_diamondsquares.svg	28	yes	53	1	843	0	0			0	0			1				0	
6.6.1	win	2023-06-02	07:08:40	07:19:53	664204	641c6443a8bca78cf7a512d1	3	1	main_slash	7	advance_on_keypress_SLASH	158	stimuli_distractor_trianglediamonds.svg	stimuli_target_diamondsquares.svg	28	yes	57	0	543	0	0			0	0			1				0	
6.6.1	win	2023-06-02	07:08:40	07:19:55	666139	641c6443a8bca78cf7a512d1	3	1	main_slash	7	main_slash	159	stimuli_target_squarediamonds.svg	stimuli_distractor_diamondtriangles.svg	8	yes	53	1	754	0	0			0	0			1				0	
6.6.1	win	2023-06-02	07:08:40	07:19:55	666139	641c6443a8bca78cf7a512d1	3	1	main_slash	7	advance_on_keypress_SLASH	160	stimuli_target_squarediamonds.svg	stimuli_distractor_diamondtriangles.svg	8	yes	57	0	334	0	0			0	0			1				0	
6.6.1	win	2023-06-02	07:08:40	07:20:28	699117	641c6443a8bca78cf7a512d1	3	1	practice_z	9	practice_z	1	stimuli_target_diamondsquares.svg	stimuli_distractor_diamondtriangles.svg	3	yes	44	1	493	0	0			0	0			1				0	
6.6.1	win	2023-06-02	07:08:40	07:20:28	699117	641c6443a8bca78cf7a512d1	3	1	practice_z	9	advance_on_keypress_ZEE	2	stimuli_target_diamondsquares.svg	stimuli_distractor_diamondtriangles.svg	3	yes	57	0	1328	0	0			0	0			1				0	
6.6.1	win	2023-06-02	07:08:40	07:20:31	702532	641c6443a8bca78cf7a512d1	3	1	practice_z	9	practice_z	3	stimuli_distractor_trianglediamonds.svg	stimuli_target_squarediamonds.svg	11	yes	44	1	424	0	0			0	0			1				0	
6.6.1	win	2023-06-02	07:08:40	07:20:31	702532	641c6443a8bca78cf7a512d1	3	1	practice_z	9	advance_on_keypress_ZEE	4	stimuli_distractor_trianglediamonds.svg	stimuli_target_squarediamonds.svg	11	yes	57	0	2066	0	0			0	0			1				0	
6.6.1	win	2023-06-02	07:08:40	07:20:35	706686	641c6443a8bca78cf7a512d1	3	1	practice_z	9	practice_z	5	stimuli_target_squarediamonds.svg	stimuli_distractor_trianglediamonds.svg	5	yes	44	1	404	0	0			0	0			1				0	
6.6.1	win	2023-06-02	07:08:40	07:20:35	706686	641c6443a8bca78cf7a512d1	3	1	practice_z	9	advance_on_keypress_ZEE	6	stimuli_target_squarediamonds.svg	stimuli_distractor_trianglediamonds.svg	5	yes	57	0	749	0	0			0	0			1				0	
6.6.1	win	2023-06-02	07:08:40	07:20:38	709539	641c6443a8bca78cf7a512d1	3	1	practice_z	9	practice_z	7	stimuli_target_squarediamonds.svg	stimuli_distractor_diamondtriangles.svg	2	yes	44	1	431	0	0			0	0			1				0	
6.6.1	win	2023-06-02	07:08:40	07:20:38	709539	641c6443a8bca78cf7a512d1	3	1	practice_z	9	advance_on_keypress_ZEE	8	stimuli_target_squarediamonds.svg	stimuli_distractor_diamondtriangles.svg	2	yes	57	0	503	0	0			0	0			1				0	
6.6.1	win	2023-06-02	07:08:40	07:20:41	712193	641c6443a8bca78cf7a512d1	3	1	practice_z	9	practice_z	9	stimuli_target_diamondsquares.svg	stimuli_distractor_trianglediamonds.svg	6	yes	44	1	495	0	0			0	0			1				0	
6.6.1	win	2023-06-02	07:08:40	07:20:41	712193	641c6443a8bca78cf7a512d1	3	1	practice_z	9	advance_on_keypress_ZEE	10	stimuli_target_diamondsquares.svg	stimuli_distractor_trianglediamonds.svg	6	yes	57	0	415	0	0			0	0			1				0	
6.6.1	win	2023-06-02	07:08:40	07:20:43	714776	641c6443a8bca78cf7a512d1	3	1	practice_z	9	practice_z	11	stimuli_distractor_diamondtriangles.svg	stimuli_target_rectangletriangles.svg	7	yes	44	1	528	0	0			0	0			1				0	
6.6.1	win	2023-06-02	07:08:40	07:20:43	714776	641c6443a8bca78cf7a512d1	3	1	practice_z	9	advance_on_keypress_ZEE	12	stimuli_distractor_diamondtriangles.svg	stimuli_target_rectangletriangles.svg	7	yes	57	0	438	0	0			0	0			1				0	
6.6.1	win	2023-06-02	07:08:40	07:20:46	717302	641c6443a8bca78cf7a512d1	3	1	practice_z	9	practice_z	13	stimuli_distractor_diamondtriangles.svg	stimuli_target_trianglerectangles.svg	9	yes	44	1	439	0	0			0	0			1				0	
6.6.1	win	2023-06-02	07:08:40	07:20:46	717302	641c6443a8bca78cf7a512d1	3	1	practice_z	9	advance_on_keypress_ZEE	14	stimuli_distractor_diamondtriangles.svg	stimuli_target_trianglerectangles.svg	9	yes	57	0	895	0	0			0	0			1				0	
6.6.1	win	2023-06-02	07:08:40	07:20:50	720798	641c6443a8bca78cf7a512d1	3	1	practice_z	9	practice_z	15	stimuli_distractor_trianglediamonds.svg	stimuli_target_diamondrectangles.svg	12	yes	44	1	941	0	0			0	0			1				0	
6.6.1	win	2023-06-02	07:08:40	07:20:50	720798	641c6443a8bca78cf7a512d1	3	1	practice_z	9	advance_on_keypress_ZEE	16	stimuli_distractor_trianglediamonds.svg	stimuli_target_diamondrectangles.svg	12	yes	57	0	9026	0	0			0	0			1				0	
6.6.1	win	2023-06-02	07:08:40	07:21:01	732076	641c6443a8bca78cf7a512d1	3	1	practice_z	9	practice_z	17	stimuli_distractor_diamondtriangles.svg	stimuli_distractor_trianglediamonds.svg	14	no	44	0	595	0	0			0	0			1				0	
6.6.1	win	2023-06-02	07:08:40	07:21:01	732076	641c6443a8bca78cf7a512d1	3	1	practice_z	9	advance_on_keypress_ZEE	18	stimuli_distractor_diamondtriangles.svg	stimuli_distractor_trianglediamonds.svg	14	no	57	0	1195	0	0			0	0			1				0	
6.6.1	win	2023-06-02	07:08:40	07:21:04	735357	641c6443a8bca78cf7a512d1	3	1	practice_z	9	practice_z	19	stimuli_distractor_diamondtriangles.svg	stimuli_target_diamondrectangles.svg	8	yes	44	1	448	0	0			0	0			1				0	
6.6.1	win	2023-06-02	07:08:40	07:21:04	735357	641c6443a8bca78cf7a512d1	3	1	practice_z	9	advance_on_keypress_ZEE	20	stimuli_distractor_diamondtriangles.svg	stimuli_target_diamondrectangles.svg	8	yes	57	0	634	0	0			0	0			1				0	
6.6.1	win	2023-06-02	07:08:40	07:21:07	738152	641c6443a8bca78cf7a512d1	3	1	practice_z	9	practice_z	21	stimuli_distractor_trianglediamonds.svg	stimuli_distractor_trianglediamonds.svg	15	no	44	0	523	0	0			0	0			1				0	
6.6.1	win	2023-06-02	07:08:40	07:21:07	738152	641c6443a8bca78cf7a512d1	3	1	practice_z	9	advance_on_keypress_ZEE	22	stimuli_distractor_trianglediamonds.svg	stimuli_distractor_trianglediamonds.svg	15	no	57	0	524	0	0			0	0			1				0	
6.6.1	win	2023-06-02	07:08:40	07:21:10	740832	641c6443a8bca78cf7a512d1	3	1	practice_z	9	practice_z	23	stimuli_target_rectanglediamonds.svg	stimuli_distractor_diamondtriangles.svg	1	yes	44	1	499	0	0			0	0			1				0	
6.6.1	win	2023-06-02	07:08:40	07:21:10	740832	641c6443a8bca78cf7a512d1	3	1	practice_z	9	advance_on_keypress_ZEE	24	stimuli_target_rectanglediamonds.svg	stimuli_distractor_diamondtriangles.svg	1	yes	57	0	558	0	0			0	0			1				0	
6.6.1	win	2023-06-02	07:08:40	07:21:12	743581	641c6443a8bca78cf7a512d1	3	1	practice_z	9	practice_z	25	stimuli_distractor_trianglediamonds.svg	stimuli_target_rectanglediamonds.svg	10	yes	44	1	535	0	0			0	0			1				0	
6.6.1	win	2023-06-02	07:08:40	07:21:12	743581	641c6443a8bca78cf7a512d1	3	1	practice_z	9	advance_on_keypress_ZEE	26	stimuli_distractor_trianglediamonds.svg	stimuli_target_rectanglediamonds.svg	10	yes	57	0	460	0	0			0	0			1				0	
6.6.1	win	2023-06-02	07:08:40	07:21:15	746166	641c6443a8bca78cf7a512d1	3	1	practice_z	9	practice_z	27	stimuli_distractor_diamondtriangles.svg	stimuli_distractor_diamondtriangles.svg	13	no	44	0	467	0	0			0	0			1				0	
6.6.1	win	2023-06-02	07:08:40	07:21:15	746166	641c6443a8bca78cf7a512d1	3	1	practice_z	9	advance_on_keypress_ZEE	28	stimuli_distractor_diamondtriangles.svg	stimuli_distractor_diamondtriangles.svg	13	no	57	0	537	0	0			0	0			1				0	
6.6.1	win	2023-06-02	07:08:40	07:21:18	748839	641c6443a8bca78cf7a512d1	3	1	practice_z	9	practice_z	29	stimuli_distractor_trianglediamonds.svg	stimuli_distractor_diamondtriangles.svg	16	no	44	0	494	0	0			0	0			1				0	
6.6.1	win	2023-06-02	07:08:40	07:21:18	748839	641c6443a8bca78cf7a512d1	3	1	practice_z	9	advance_on_keypress_ZEE	30	stimuli_distractor_trianglediamonds.svg	stimuli_distractor_diamondtriangles.svg	16	no	57	0	4301	0	0			0	0			1				0	
6.6.1	win	2023-06-02	07:08:40	07:21:24	755259	641c6443a8bca78cf7a512d1	3	1	practice_z	9	practice_z	31	stimuli_target_rectanglediamonds.svg	stimuli_distractor_trianglediamonds.svg	4	yes	44	1	464	0	0			0	0			1				0	
6.6.1	win	2023-06-02	07:08:40	07:21:24	755259	641c6443a8bca78cf7a512d1	3	1	practice_z	9	advance_on_keypress_ZEE	32	stimuli_target_rectanglediamonds.svg	stimuli_distractor_trianglediamonds.svg	4	yes	57	0	697	0	0			0	0			1				0	
6.6.1	win	2023-06-02	07:08:40	07:21:36	767726	641c6443a8bca78cf7a512d1	3	1	main_z	11	main_z	1	stimuli_distractor_trianglediamonds.svg	stimuli_target_rectangletriangles.svg	9	yes	44	1	825	0	0			0	0			1				0	
6.6.1	win	2023-06-02	07:08:40	07:21:36	767726	641c6443a8bca78cf7a512d1	3	1	main_z	11	advance_on_keypress_ZEE	2	stimuli_distractor_trianglediamonds.svg	stimuli_target_rectangletriangles.svg	9	yes	57	0	1306	0	0			0	0			1				0	
6.6.1	win	2023-06-02	07:08:40	07:21:39	770483	641c6443a8bca78cf7a512d1	3	1	main_z	11	main_z	3	stimuli_distractor_diamondtriangles.svg	stimuli_distractor_diamondtriangles.svg	40	no	44	0	814	0	0			0	0			1				0	
6.6.1	win	2023-06-02	07:08:40	07:21:39	770483	641c6443a8bca78cf7a512d1	3	1	main_z	11	advance_on_keypress_ZEE	4	stimuli_distractor_diamondtriangles.svg	stimuli_distractor_diamondtriangles.svg	40	no	57	0	860	0	0			0	0			1				0	
6.6.1	win	2023-06-02	07:08:40	07:21:41	772691	641c6443a8bca78cf7a512d1	3	1	main_z	11	main_z	5	stimuli_distractor_trianglediamonds.svg	stimuli_distractor_trianglediamonds.svg	34	no	44	0	713	0	0			0	0			1				0	
6.6.1	win	2023-06-02	07:08:40	07:21:41	772691	641c6443a8bca78cf7a512d1	3	1	main_z	11	advance_on_keypress_ZEE	6	stimuli_distractor_trianglediamonds.svg	stimuli_distractor_trianglediamonds.svg	34	no	57	0	1275	0	0			0	0			1				0	
6.6.1	win	2023-06-02	07:08:40	07:21:44	775333	641c6443a8bca78cf7a512d1	3	1	main_z	11	main_z	7	stimuli_distractor_diamondtriangles.svg	stimuli_distractor_diamondtriangles.svg	39	no	44	0	716	0	0			0	0			1				0	
6.6.1	win	2023-06-02	07:08:40	07:21:44	775333	641c6443a8bca78cf7a512d1	3	1	main_z	11	advance_on_keypress_ZEE	8	stimuli_distractor_diamondtriangles.svg	stimuli_distractor_diamondtriangles.svg	39	no	57	0	3557	0	0			0	0			1				0	
6.6.1	win	2023-06-02	07:08:40	07:21:49	780206	641c6443a8bca78cf7a512d1	3	1	main_z	11	main_z	9	stimuli_distractor_diamondtriangles.svg	stimuli_target_diamondsquares.svg	32	yes	44	1	679	0	0			0	0			1				0	
6.6.1	win	2023-06-02	07:08:40	07:21:49	780206	641c6443a8bca78cf7a512d1	3	1	main_z	11	advance_on_keypress_ZEE	10	stimuli_distractor_diamondtriangles.svg	stimuli_target_diamondsquares.svg	32	yes	57	0	3055	0	0			0	0			1				0	
6.6.1	win	2023-06-02	07:08:40	07:21:53	784531	641c6443a8bca78cf7a512d1	3	1	main_z	11	main_z	11	stimuli_target_diamondsquares.svg	stimuli_distractor_diamondtriangles.svg	24	yes	44	1	626	0	0			0	0			1				0	
6.6.1	win	2023-06-02	07:08:40	07:21:53	784531	641c6443a8bca78cf7a512d1	3	1	main_z	11	advance_on_keypress_ZEE	12	stimuli_target_diamondsquares.svg	stimuli_distractor_diamondtriangles.svg	24	yes	57	0	4280	0	0			0	0			1				0	
6.6.1	win	2023-06-02	07:08:40	07:21:59	789902	641c6443a8bca78cf7a512d1	3	1	main_z	11	main_z	13	stimuli_distractor_diamondtriangles.svg	stimuli_target_squarediamonds.svg	16	yes	44	1	448	0	0			0	0			1				0	
6.6.1	win	2023-06-02	07:08:40	07:21:59	789902	641c6443a8bca78cf7a512d1	3	1	main_z	11	advance_on_keypress_ZEE	14	stimuli_distractor_diamondtriangles.svg	stimuli_target_squarediamonds.svg	16	yes	57	0	3155	0	0			0	0			1				0	
6.6.1	win	2023-06-02	07:08:40	07:22:03	794138	641c6443a8bca78cf7a512d1	3	1	main_z	11	main_z	15	stimuli_target_squarediamonds.svg	stimuli_distractor_diamondtriangles.svg	8	yes	44	1	443	0	0			0	0			1				0	
6.6.1	win	2023-06-02	07:08:40	07:22:03	794138	641c6443a8bca78cf7a512d1	3	1	main_z	11	advance_on_keypress_ZEE	16	stimuli_target_squarediamonds.svg	stimuli_distractor_diamondtriangles.svg	8	yes	57	0	16497	0	0			0	0			1				0	
6.6.1	win	2023-06-02	07:08:40	07:22:21	811818	641c6443a8bca78cf7a512d1	3	1	main_z	11	main_z	17	stimuli_distractor_trianglediamonds.svg	stimuli_target_trianglesquares.svg	26	yes	44	1	541	0	0			0	0			1				0	
6.6.1	win	2023-06-02	07:08:40	07:22:21	811818	641c6443a8bca78cf7a512d1	3	1	main_z	11	advance_on_keypress_ZEE	18	stimuli_distractor_trianglediamonds.svg	stimuli_target_trianglesquares.svg	26	yes	57	0	2698	0	0			0	0			1				0	
6.6.1	win	2023-06-02	07:08:40	07:22:24	815561	641c6443a8bca78cf7a512d1	3	1	main_z	11	main_z	19	stimuli_target_rectangletriangles.svg	stimuli_distractor_diamondtriangles.svg	5	yes	44	1	399	0	0			0	0			1				0	
6.6.1	win	2023-06-02	07:08:40	07:22:24	815561	641c6443a8bca78cf7a512d1	3	1	main_z	11	advance_on_keypress_ZEE	20	stimuli_target_rectangletriangles.svg	stimuli_distractor_diamondtriangles.svg	5	yes	57	0	8085	0	0			0	0			1				0	
6.6.1	win	2023-06-02	07:08:40	07:22:33	824720	641c6443a8bca78cf7a512d1	3	1	main_z	11	main_z	21	stimuli_distractor_trianglediamonds.svg	stimuli_target_diamondsquares.svg	28	yes	44	1	437	0	0			0	0			1				0	
6.6.1	win	2023-06-02	07:08:40	07:22:33	824720	641c6443a8bca78cf7a512d1	3	1	main_z	11	advance_on_keypress_ZEE	22	stimuli_distractor_trianglediamonds.svg	stimuli_target_diamondsquares.svg	28	yes	57	0	2713	0	0			0	0			1				0	
6.6.1	win	2023-06-02	07:08:40	07:22:37	828439	641c6443a8bca78cf7a512d1	3	1	main_z	11	main_z	23	stimuli_distractor_diamondtriangles.svg	stimuli_target_rectangletriangles.svg	13	yes	44	1	374	0	0			0	0			1				0	
6.6.1	win	2023-06-02	07:08:40	07:22:37	828439	641c6443a8bca78cf7a512d1	3	1	main_z	11	advance_on_keypress_ZEE	24	stimuli_distractor_diamondtriangles.svg	stimuli_target_rectangletriangles.svg	13	yes	57	0	8510	0	0			0	0			1				0	
6.6.1	win	2023-06-02	07:08:40	07:22:47	837990	641c6443a8bca78cf7a512d1	3	1	main_z	11	main_z	25	stimuli_distractor_diamondtriangles.svg	stimuli_target_trianglerectangles.svg	29	yes	44	1	396	0	0			0	0			1				0	
6.6.1	win	2023-06-02	07:08:40	07:22:47	837990	641c6443a8bca78cf7a512d1	3	1	main_z	11	advance_on_keypress_ZEE	26	stimuli_distractor_diamondtriangles.svg	stimuli_target_trianglerectangles.svg	29	yes	57	0	3051	0	0			0	0			1				0	
6.6.1	win	2023-06-02	07:08:40	07:22:51	842110	641c6443a8bca78cf7a512d1	3	1	main_z	11	main_z	27	stimuli_distractor_diamondtriangles.svg	stimuli_target_rectanglediamonds.svg	14	yes	44	1	428	0	0			0	0			1				0	
6.6.1	win	2023-06-02	07:08:40	07:22:51	842110	641c6443a8bca78cf7a512d1	3	1	main_z	11	advance_on_keypress_ZEE	28	stimuli_distractor_diamondtriangles.svg	stimuli_target_rectanglediamonds.svg	14	yes	57	0	2362	0	0			0	0			1				0	
6.6.1	win	2023-06-02	07:08:40	07:22:54	845510	641c6443a8bca78cf7a512d1	3	1	main_z	11	main_z	29	stimuli_target_trianglerectangles.svg	stimuli_distractor_diamondtriangles.svg	21	yes	44	1	397	0	0			0	0			1				0	
6.6.1	win	2023-06-02	07:08:40	07:22:54	845510	641c6443a8bca78cf7a512d1	3	1	main_z	11	advance_on_keypress_ZEE	30	stimuli_target_trianglerectangles.svg	stimuli_distractor_diamondtriangles.svg	21	yes	57	0	2978	0	0			0	0			1				0	
6.6.1	win	2023-06-02	07:08:40	07:22:58	849561	641c6443a8bca78cf7a512d1	3	1	main_z	11	main_z	31	stimuli_target_rectangletriangles.svg	stimuli_distractor_trianglediamonds.svg	1	yes	44	1	434	0	0			0	0			1				0	
6.6.1	win	2023-06-02	07:08:40	07:22:58	849561	641c6443a8bca78cf7a512d1	3	1	main_z	11	advance_on_keypress_ZEE	32	stimuli_target_rectangletriangles.svg	stimuli_distractor_trianglediamonds.svg	1	yes	57	0	4323	0	0			0	0			1				0	
6.6.1	win	2023-06-02	07:08:40	07:23:04	854957	641c6443a8bca78cf7a512d1	3	1	main_z	11	main_z	33	stimuli_target_trianglesquares.svg	stimuli_distractor_trianglediamonds.svg	18	yes	44	1	438	0	0			0	0			1				0	
6.6.1	win	2023-06-02	07:08:40	07:23:04	854957	641c6443a8bca78cf7a512d1	3	1	main_z	11	advance_on_keypress_ZEE	34	stimuli_target_trianglesquares.svg	stimuli_distractor_trianglediamonds.svg	18	yes	57	0	24563	0	0			0	0			1				0	
6.6.1	win	2023-06-02	07:08:40	07:23:30	880801	641c6443a8bca78cf7a512d1	3	1	main_z	11	main_z	35	stimuli_target_squarediamonds.svg	stimuli_distractor_trianglediamonds.svg	4	yes	44	1	616	0	0			0	0			1				0	
6.6.1	win	2023-06-02	07:08:40	07:23:30	880801	641c6443a8bca78cf7a512d1	3	1	main_z	11	advance_on_keypress_ZEE	36	stimuli_target_squarediamonds.svg	stimuli_distractor_trianglediamonds.svg	4	yes	57	0	1623	0	0			0	0			1				0	
6.6.1	win	2023-06-02	07:08:40	07:23:32	883527	641c6443a8bca78cf7a512d1	3	1	main_z	11	main_z	37	stimuli_distractor_diamondtriangles.svg	stimuli_target_diamondrectangles.svg	31	yes	44	1	465	0	0			0	0			1				0	
6.6.1	win	2023-06-02	07:08:40	07:23:32	883527	641c6443a8bca78cf7a512d1	3	1	main_z	11	advance_on_keypress_ZEE	38	stimuli_distractor_diamondtriangles.svg	stimuli_target_diamondrectangles.svg	31	yes	57	0	15823	0	0			0	0			1				0	
6.6.1	win	2023-06-02	07:08:40	07:23:49	900356	641c6443a8bca78cf7a512d1	3	1	main_z	11	main_z	39	stimuli_distractor_trianglediamonds.svg	stimuli_target_rectanglediamonds.svg	10	yes	44	1	351	0	0			0	0			1				0	
6.6.1	win	2023-06-02	07:08:40	07:23:49	900356	641c6443a8bca78cf7a512d1	3	1	main_z	11	advance_on_keypress_ZEE	40	stimuli_distractor_trianglediamonds.svg	stimuli_target_rectanglediamonds.svg	10	yes	57	0	1033	0	0			0	0			1				0	
6.6.1	win	2023-06-02	07:08:40	07:23:51	902346	641c6443a8bca78cf7a512d1	3	1	main_z	11	main_z	41	stimuli_target_diamondrectangles.svg	stimuli_distractor_diamondtriangles.svg	23	yes	44	1	322	0	0			0	0			1				0	
6.6.1	win	2023-06-02	07:08:40	07:23:51	902346	641c6443a8bca78cf7a512d1	3	1	main_z	11	advance_on_keypress_ZEE	42	stimuli_target_diamondrectangles.svg	stimuli_distractor_diamondtriangles.svg	23	yes	57	0	908	0	0			0	0			1				0	
6.6.1	win	2023-06-02	07:08:40	07:23:53	904198	641c6443a8bca78cf7a512d1	3	1	main_z	11	main_z	43	stimuli_target_diamondrectangles.svg	stimuli_distractor_trianglediamonds.svg	19	yes	44	1	309	0	0			0	0			1				0	
6.6.1	win	2023-06-02	07:08:40	07:23:53	904198	641c6443a8bca78cf7a512d1	3	1	main_z	11	advance_on_keypress_ZEE	44	stimuli_target_diamondrectangles.svg	stimuli_distractor_trianglediamonds.svg	19	yes	57	0	1157	0	0			0	0			1				0	
6.6.1	win	2023-06-02	07:08:40	07:23:55	906388	641c6443a8bca78cf7a512d1	3	1	main_z	11	main_z	45	stimuli_distractor_trianglediamonds.svg	stimuli_distractor_trianglediamonds.svg	33	no	44	0	397	0	0			0	0			1				0	
6.6.1	win	2023-06-02	07:08:40	07:23:55	906388	641c6443a8bca78cf7a512d1	3	1	main_z	11	advance_on_keypress_ZEE	46	stimuli_distractor_trianglediamonds.svg	stimuli_distractor_trianglediamonds.svg	33	no	57	0	735	0	0			0	0			1				0	
6.6.1	win	2023-06-02	07:08:40	07:23:57	908258	641c6443a8bca78cf7a512d1	3	1	main_z	11	main_z	47	stimuli_distractor_trianglediamonds.svg	stimuli_target_squarediamonds.svg	12	yes	44	1	494	0	0			0	0			1				0	
6.6.1	win	2023-06-02	07:08:40	07:23:57	908258	641c6443a8bca78cf7a512d1	3	1	main_z	11	advance_on_keypress_ZEE	48	stimuli_distractor_trianglediamonds.svg	stimuli_target_squarediamonds.svg	12	yes	57	0	1390	0	0			0	0			1				0	
6.6.1	win	2023-06-02	07:08:40	07:23:59	910750	641c6443a8bca78cf7a512d1	3	1	main_z	11	main_z	49	stimuli_distractor_trianglediamonds.svg	stimuli_target_trianglerectangles.svg	25	yes	44	1	461	0	0			0	0			1				0	
6.6.1	win	2023-06-02	07:08:40	07:23:59	910750	641c6443a8bca78cf7a512d1	3	1	main_z	11	advance_on_keypress_ZEE	50	stimuli_distractor_trianglediamonds.svg	stimuli_target_trianglerectangles.svg	25	yes	57	0	3711	0	0			0	0			1				0	
6.6.1	win	2023-06-02	07:08:40	07:24:04	915477	641c6443a8bca78cf7a512d1	3	1	main_z	11	main_z	51	stimuli_target_trianglesquares.svg	stimuli_distractor_diamondtriangles.svg	22	yes	44	1	372	0	0			0	0			1				0	
6.6.1	win	2023-06-02	07:08:40	07:24:04	915477	641c6443a8bca78cf7a512d1	3	1	main_z	11	advance_on_keypress_ZEE	52	stimuli_target_trianglesquares.svg	stimuli_distractor_diamondtriangles.svg	22	yes	57	0	3456	0	0			0	0			1				0	
6.6.1	win	2023-06-02	07:08:40	07:24:09	919976	641c6443a8bca78cf7a512d1	3	1	main_z	11	main_z	53	stimuli_target_trianglerectangles.svg	stimuli_distractor_trianglediamonds.svg	17	yes	44	1	397	0	0			0	0			1				0	
6.6.1	win	2023-06-02	07:08:40	07:24:09	919976	641c6443a8bca78cf7a512d1	3	1	main_z	11	advance_on_keypress_ZEE	54	stimuli_target_trianglerectangles.svg	stimuli_distractor_trianglediamonds.svg	17	yes	57	0	885	0	0			0	0			1				0	
6.6.1	win	2023-06-02	07:08:40	07:24:11	921943	641c6443a8bca78cf7a512d1	3	1	main_z	11	main_z	55	stimuli_distractor_diamondtriangles.svg	stimuli_distractor_trianglediamonds.svg	37	no	44	0	444	0	0			0	0			1				0	
6.6.1	win	2023-06-02	07:08:40	07:24:11	921943	641c6443a8bca78cf7a512d1	3	1	main_z	11	advance_on_keypress_ZEE	56	stimuli_distractor_diamondtriangles.svg	stimuli_distractor_trianglediamonds.svg	37	no	57	0	1583	0	0			0	0			1				0	
6.6.1	win	2023-06-02	07:08:40	07:24:13	924649	641c6443a8bca78cf7a512d1	3	1	main_z	11	main_z	57	stimuli_distractor_trianglediamonds.svg	stimuli_distractor_diamondtriangles.svg	36	no	44	0	479	0	0			0	0			1				0	
6.6.1	win	2023-06-02	07:08:40	07:24:13	924649	641c6443a8bca78cf7a512d1	3	1	main_z	11	advance_on_keypress_ZEE	58	stimuli_distractor_trianglediamonds.svg	stimuli_distractor_diamondtriangles.svg	36	no	57	0	805	0	0			0	0			1				0	
6.6.1	win	2023-06-02	07:08:40	07:24:15	926510	641c6443a8bca78cf7a512d1	3	1	main_z	11	main_z	59	stimuli_target_squaretriangles.svg	stimuli_distractor_diamondtriangles.svg	7	yes	44	1	415	0	0			0	0			1				0	
6.6.1	win	2023-06-02	07:08:40	07:24:15	926510	641c6443a8bca78cf7a512d1	3	1	main_z	11	advance_on_keypress_ZEE	60	stimuli_target_squaretriangles.svg	stimuli_distractor_diamondtriangles.svg	7	yes	57	0	890	0	0			0	0			1				0	
6.6.1	win	2023-06-02	07:08:40	07:24:17	928435	641c6443a8bca78cf7a512d1	3	1	main_z	11	main_z	61	stimuli_distractor_diamondtriangles.svg	stimuli_distractor_trianglediamonds.svg	38	no	44	0	397	0	0			0	0			1				0	
6.6.1	win	2023-06-02	07:08:40	07:24:17	928435	641c6443a8bca78cf7a512d1	3	1	main_z	11	advance_on_keypress_ZEE	62	stimuli_distractor_diamondtriangles.svg	stimuli_distractor_trianglediamonds.svg	38	no	57	0	664	0	0			0	0			1				0	
6.6.1	win	2023-06-02	07:08:40	07:24:19	930351	641c6443a8bca78cf7a512d1	3	1	main_z	11	main_z	63	stimuli_target_rectanglediamonds.svg	stimuli_distractor_diamondtriangles.svg	6	yes	44	1	614	0	0			0	0			1				0	
6.6.1	win	2023-06-02	07:08:40	07:24:19	930351	641c6443a8bca78cf7a512d1	3	1	main_z	11	advance_on_keypress_ZEE	64	stimuli_target_rectanglediamonds.svg	stimuli_distractor_diamondtriangles.svg	6	yes	57	0	609	0	0			0	0			1				0	
6.6.1	win	2023-06-02	07:08:40	07:24:21	932069	641c6443a8bca78cf7a512d1	3	1	main_z	11	main_z	65	stimuli_distractor_trianglediamonds.svg	stimuli_distractor_diamondtriangles.svg	35	no	44	0	469	0	0			0	0			1				0	
6.6.1	win	2023-06-02	07:08:40	07:24:21	932069	641c6443a8bca78cf7a512d1	3	1	main_z	11	advance_on_keypress_ZEE	66	stimuli_distractor_trianglediamonds.svg	stimuli_distractor_diamondtriangles.svg	35	no	57	0	1163	0	0			0	0			1				0	
6.6.1	win	2023-06-02	07:08:40	07:24:23	934258	641c6443a8bca78cf7a512d1	3	1	main_z	11	main_z	67	stimuli_target_rectanglediamonds.svg	stimuli_distractor_trianglediamonds.svg	2	yes	44	1	389	0	0			0	0			1				0	
6.6.1	win	2023-06-02	07:08:40	07:24:23	934258	641c6443a8bca78cf7a512d1	3	1	main_z	11	advance_on_keypress_ZEE	68	stimuli_target_rectanglediamonds.svg	stimuli_distractor_trianglediamonds.svg	2	yes	57	0	847	0	0			0	0			1				0	
6.6.1	win	2023-06-02	07:08:40	07:24:25	936289	641c6443a8bca78cf7a512d1	3	1	main_z	11	main_z	69	stimuli_distractor_trianglediamonds.svg	stimuli_target_diamondrectangles.svg	27	yes	44	1	536	0	0			0	0			1				0	
6.6.1	win	2023-06-02	07:08:40	07:24:25	936289	641c6443a8bca78cf7a512d1	3	1	main_z	11	advance_on_keypress_ZEE	70	stimuli_distractor_trianglediamonds.svg	stimuli_target_diamondrectangles.svg	27	yes	57	0	1011	0	0			0	0			1				0	
6.6.1	win	2023-06-02	07:08:40	07:24:27	938335	641c6443a8bca78cf7a512d1	3	1	main_z	11	main_z	71	stimuli_distractor_trianglediamonds.svg	stimuli_target_squaretriangles.svg	11	yes	44	1	402	0	0			0	0			1				0	
6.6.1	win	2023-06-02	07:08:40	07:24:27	938335	641c6443a8bca78cf7a512d1	3	1	main_z	11	advance_on_keypress_ZEE	72	stimuli_distractor_trianglediamonds.svg	stimuli_target_squaretriangles.svg	11	yes	57	0	5335	0	0			0	0			1				0	
6.6.1	win	2023-06-02	07:08:40	07:24:34	944783	641c6443a8bca78cf7a512d1	3	1	main_z	11	main_z	73	stimuli_distractor_diamondtriangles.svg	stimuli_target_trianglesquares.svg	30	yes	44	1	478	0	0			0	0			1				0	
6.6.1	win	2023-06-02	07:08:40	07:24:34	944783	641c6443a8bca78cf7a512d1	3	1	main_z	11	advance_on_keypress_ZEE	74	stimuli_distractor_diamondtriangles.svg	stimuli_target_trianglesquares.svg	30	yes	57	0	17247	0	0			0	0			1				0	
6.6.1	win	2023-06-02	07:08:40	07:24:52	963103	641c6443a8bca78cf7a512d1	3	1	main_z	11	main_z	75	stimuli_target_squaretriangles.svg	stimuli_distractor_trianglediamonds.svg	3	yes	44	1	413	0	0			0	0			1				0	
6.6.1	win	2023-06-02	07:08:40	07:24:52	963103	641c6443a8bca78cf7a512d1	3	1	main_z	11	advance_on_keypress_ZEE	76	stimuli_target_squaretriangles.svg	stimuli_distractor_trianglediamonds.svg	3	yes	57	0	3624	0	0			0	0			1				0	
6.6.1	win	2023-06-02	07:08:40	07:24:57	967809	641c6443a8bca78cf7a512d1	3	1	main_z	11	main_z	77	stimuli_distractor_diamondtriangles.svg	stimuli_target_squaretriangles.svg	15	yes	44	1	443	0	0			0	0			1				0	
6.6.1	win	2023-06-02	07:08:40	07:24:57	967809	641c6443a8bca78cf7a512d1	3	1	main_z	11	advance_on_keypress_ZEE	78	stimuli_distractor_diamondtriangles.svg	stimuli_target_squaretriangles.svg	15	yes	57	0	2361	0	0			0	0			1				0	
6.6.1	win	2023-06-02	07:08:40	07:25:00	971423	641c6443a8bca78cf7a512d1	3	1	main_z	11	main_z	79	stimuli_target_diamondsquares.svg	stimuli_distractor_trianglediamonds.svg	20	yes	44	1	609	0	0			0	0			1				0	
6.6.1	win	2023-06-02	07:08:40	07:25:00	971423	641c6443a8bca78cf7a512d1	3	1	main_z	11	advance_on_keypress_ZEE	80	stimuli_target_diamondsquares.svg	stimuli_distractor_trianglediamonds.svg	20	yes	57	0	1182	0	0			0	0			1				0	
6.6.1	win	2023-06-02	07:08:40	07:25:02	973696	641c6443a8bca78cf7a512d1	3	1	main_z	11	main_z	81	stimuli_distractor_trianglediamonds.svg	stimuli_target_squarediamonds.svg	12	yes	44	1	448	0	0			0	0			1				0	
6.6.1	win	2023-06-02	07:08:40	07:25:02	973696	641c6443a8bca78cf7a512d1	3	1	main_z	11	advance_on_keypress_ZEE	82	stimuli_distractor_trianglediamonds.svg	stimuli_target_squarediamonds.svg	12	yes	57	0	13460	0	0			0	0			1				0	
6.6.1	win	2023-06-02	07:08:40	07:25:17	988312	641c6443a8bca78cf7a512d1	3	1	main_z	11	main_z	83	stimuli_distractor_trianglediamonds.svg	stimuli_target_diamondrectangles.svg	27	yes	44	1	520	0	0			0	0			1				0	
6.6.1	win	2023-06-02	07:08:40	07:25:17	988312	641c6443a8bca78cf7a512d1	3	1	main_z	11	advance_on_keypress_ZEE	84	stimuli_distractor_trianglediamonds.svg	stimuli_target_diamondrectangles.svg	27	yes	57	0	1779	0	0			0	0			1				0	
6.6.1	win	2023-06-02	07:08:40	07:25:20	991102	641c6443a8bca78cf7a512d1	3	1	main_z	11	main_z	85	stimuli_target_trianglerectangles.svg	stimuli_distractor_diamondtriangles.svg	21	yes	44	1	379	0	0			0	0			1				0	
6.6.1	win	2023-06-02	07:08:40	07:25:20	991102	641c6443a8bca78cf7a512d1	3	1	main_z	11	advance_on_keypress_ZEE	86	stimuli_target_trianglerectangles.svg	stimuli_distractor_diamondtriangles.svg	21	yes	57	0	846	0	0			0	0			1				0	
6.6.1	win	2023-06-02	07:08:40	07:25:22	992976	641c6443a8bca78cf7a512d1	3	1	main_z	11	main_z	87	stimuli_target_squaretriangles.svg	stimuli_distractor_trianglediamonds.svg	3	yes	44	1	386	0	0			0	0			1				0	
6.6.1	win	2023-06-02	07:08:40	07:25:22	992976	641c6443a8bca78cf7a512d1	3	1	main_z	11	advance_on_keypress_ZEE	88	stimuli_target_squaretriangles.svg	stimuli_distractor_trianglediamonds.svg	3	yes	57	0	1216	0	0			0	0			1				0	
6.6.1	win	2023-06-02	07:08:40	07:25:24	995222	641c6443a8bca78cf7a512d1	3	1	main_z	11	main_z	89	stimuli_distractor_diamondtriangles.svg	stimuli_target_trianglerectangles.svg	29	yes	44	1	396	0	0			0	0			1				0	
6.6.1	win	2023-06-02	07:08:40	07:25:24	995222	641c6443a8bca78cf7a512d1	3	1	main_z	11	advance_on_keypress_ZEE	90	stimuli_distractor_diamondtriangles.svg	stimuli_target_trianglerectangles.svg	29	yes	57	0	1178	0	0			0	0			1				0	
6.6.1	win	2023-06-02	07:08:40	07:25:26	997480	641c6443a8bca78cf7a512d1	3	1	main_z	11	main_z	91	stimuli_distractor_diamondtriangles.svg	stimuli_target_squaretriangles.svg	15	yes	44	1	440	0	0			0	0			1				0	
6.6.1	win	2023-06-02	07:08:40	07:25:26	997480	641c6443a8bca78cf7a512d1	3	1	main_z	11	advance_on_keypress_ZEE	92	stimuli_distractor_diamondtriangles.svg	stimuli_target_squaretriangles.svg	15	yes	57	0	700	0	0			0	0			1				0	
6.6.1	win	2023-06-02	07:08:40	07:25:28	999181	641c6443a8bca78cf7a512d1	3	1	main_z	11	main_z	93	stimuli_target_rectanglediamonds.svg	stimuli_distractor_diamondtriangles.svg	6	yes	44	1	355	0	0			0	0			1				0	
6.6.1	win	2023-06-02	07:08:40	07:25:28	999181	641c6443a8bca78cf7a512d1	3	1	main_z	11	advance_on_keypress_ZEE	94	stimuli_target_rectanglediamonds.svg	stimuli_distractor_diamondtriangles.svg	6	yes	57	0	1367	0	0			0	0			1				0	
6.6.1	win	2023-06-02	07:08:40	07:25:30	1001548	641c6443a8bca78cf7a512d1	3	1	main_z	11	main_z	95	stimuli_distractor_trianglediamonds.svg	stimuli_target_rectanglediamonds.svg	10	yes	44	1	365	0	0			0	0			1				0	
6.6.1	win	2023-06-02	07:08:40	07:25:30	1001548	641c6443a8bca78cf7a512d1	3	1	main_z	11	advance_on_keypress_ZEE	96	stimuli_distractor_trianglediamonds.svg	stimuli_target_rectanglediamonds.svg	10	yes	57	0	828	0	0			0	0			1				0	
6.6.1	win	2023-06-02	07:08:40	07:25:32	1003432	641c6443a8bca78cf7a512d1	3	1	main_z	11	main_z	97	stimuli_target_diamondrectangles.svg	stimuli_distractor_diamondtriangles.svg	23	yes	44	1	420	0	0			0	0			1				0	
6.6.1	win	2023-06-02	07:08:40	07:25:32	1003432	641c6443a8bca78cf7a512d1	3	1	main_z	11	advance_on_keypress_ZEE	98	stimuli_target_diamondrectangles.svg	stimuli_distractor_diamondtriangles.svg	23	yes	57	0	2065	0	0			0	0			1				0	
6.6.1	win	2023-06-02	07:08:40	07:25:35	1006551	641c6443a8bca78cf7a512d1	3	1	main_z	11	main_z	99	stimuli_distractor_diamondtriangles.svg	stimuli_target_rectanglediamonds.svg	14	yes	44	1	405	0	0			0	0			1				0	
6.6.1	win	2023-06-02	07:08:40	07:25:35	1006551	641c6443a8bca78cf7a512d1	3	1	main_z	11	advance_on_keypress_ZEE	100	stimuli_distractor_diamondtriangles.svg	stimuli_target_rectanglediamonds.svg	14	yes	57	0	1402	0	0			0	0			1				0	
6.6.1	win	2023-06-02	07:08:40	07:25:38	1008960	641c6443a8bca78cf7a512d1	3	1	main_z	11	main_z	101	stimuli_distractor_trianglediamonds.svg	stimuli_target_trianglesquares.svg	26	yes	44	1	360	0	0			0	0			1				0	
6.6.1	win	2023-06-02	07:08:40	07:25:38	1008960	641c6443a8bca78cf7a512d1	3	1	main_z	11	advance_on_keypress_ZEE	102	stimuli_distractor_trianglediamonds.svg	stimuli_target_trianglesquares.svg	26	yes	57	0	1257	0	0			0	0			1				0	
6.6.1	win	2023-06-02	07:08:40	07:25:40	1011272	641c6443a8bca78cf7a512d1	3	1	main_z	11	main_z	103	stimuli_distractor_trianglediamonds.svg	stimuli_distractor_diamondtriangles.svg	36	no	44	0	419	0	0			0	0			1				0	
6.6.1	win	2023-06-02	07:08:40	07:25:40	1011272	641c6443a8bca78cf7a512d1	3	1	main_z	11	advance_on_keypress_ZEE	104	stimuli_distractor_trianglediamonds.svg	stimuli_distractor_diamondtriangles.svg	36	no	57	0	5149	0	0			0	0			1				0	
6.6.1	win	2023-06-02	07:08:40	07:25:46	1017400	641c6443a8bca78cf7a512d1	3	1	main_z	11	main_z	105	stimuli_distractor_diamondtriangles.svg	stimuli_distractor_diamondtriangles.svg	39	no	44	0	344	0	0			0	0			1				0	
6.6.1	win	2023-06-02	07:08:40	07:25:46	1017400	641c6443a8bca78cf7a512d1	3	1	main_z	11	advance_on_keypress_ZEE	106	stimuli_distractor_diamondtriangles.svg	stimuli_distractor_diamondtriangles.svg	39	no	57	0	731	0	0			0	0			1				0	
6.6.1	win	2023-06-02	07:08:40	07:25:48	1019153	641c6443a8bca78cf7a512d1	3	1	main_z	11	main_z	107	stimuli_target_trianglesquares.svg	stimuli_distractor_diamondtriangles.svg	22	yes	44	1	387	0	0			0	0			1				0	
6.6.1	win	2023-06-02	07:08:40	07:25:48	1019153	641c6443a8bca78cf7a512d1	3	1	main_z	11	advance_on_keypress_ZEE	108	stimuli_target_trianglesquares.svg	stimuli_distractor_diamondtriangles.svg	22	yes	57	0	1056	0	0			0	0			1				0	
6.6.1	win	2023-06-02	07:08:40	07:25:50	1021343	641c6443a8bca78cf7a512d1	3	1	main_z	11	main_z	109	stimuli_target_squarediamonds.svg	stimuli_distractor_diamondtriangles.svg	8	yes	44	1	484	0	0			0	0			1				0	
6.6.1	win	2023-06-02	07:08:40	07:25:50	1021343	641c6443a8bca78cf7a512d1	3	1	main_z	11	advance_on_keypress_ZEE	110	stimuli_target_squarediamonds.svg	stimuli_distractor_diamondtriangles.svg	8	yes	57	0	1033	0	0			0	0			1				0	
6.6.1	win	2023-06-02	07:08:40	07:25:52	1023569	641c6443a8bca78cf7a512d1	3	1	main_z	11	main_z	111	stimuli_distractor_diamondtriangles.svg	stimuli_target_diamondrectangles.svg	31	yes	44	1	557	0	0			0	0			1				0	
6.6.1	win	2023-06-02	07:08:40	07:25:52	1023569	641c6443a8bca78cf7a512d1	3	1	main_z	11	advance_on_keypress_ZEE	112	stimuli_distractor_diamondtriangles.svg	stimuli_target_diamondrectangles.svg	31	yes	57	0	1172	0	0			0	0			1				0	
6.6.1	win	2023-06-02	07:08:40	07:25:54	1025705	641c6443a8bca78cf7a512d1	3	1	main_z	11	main_z	113	stimuli_target_rectangletriangles.svg	stimuli_distractor_trianglediamonds.svg	1	yes	44	1	316	0	0			0	0			1				0	
6.6.1	win	2023-06-02	07:08:40	07:25:54	1025705	641c6443a8bca78cf7a512d1	3	1	main_z	11	advance_on_keypress_ZEE	114	stimuli_target_rectangletriangles.svg	stimuli_distractor_trianglediamonds.svg	1	yes	57	0	1249	0	0			0	0			1				0	
6.6.1	win	2023-06-02	07:08:40	07:25:57	1027965	641c6443a8bca78cf7a512d1	3	1	main_z	11	main_z	115	stimuli_target_trianglesquares.svg	stimuli_distractor_trianglediamonds.svg	18	yes	44	1	376	0	0			0	0			1				0	
6.6.1	win	2023-06-02	07:08:40	07:25:57	1027965	641c6443a8bca78cf7a512d1	3	1	main_z	11	advance_on_keypress_ZEE	116	stimuli_target_trianglesquares.svg	stimuli_distractor_trianglediamonds.svg	18	yes	57	0	2882	0	0			0	0			1				0	
6.6.1	win	2023-06-02	07:08:40	07:26:01	1032077	641c6443a8bca78cf7a512d1	3	1	main_z	11	main_z	117	stimuli_distractor_trianglediamonds.svg	stimuli_target_rectangletriangles.svg	9	yes	44	1	585	0	0			0	0			1				0	
6.6.1	win	2023-06-02	07:08:40	07:26:01	1032077	641c6443a8bca78cf7a512d1	3	1	main_z	11	advance_on_keypress_ZEE	118	stimuli_distractor_trianglediamonds.svg	stimuli_target_rectangletriangles.svg	9	yes	57	0	798	0	0			0	0			1				0	
6.6.1	win	2023-06-02	07:08:40	07:26:03	1033825	641c6443a8bca78cf7a512d1	3	1	main_z	11	main_z	119	stimuli_target_diamondsquares.svg	stimuli_distractor_trianglediamonds.svg	20	yes	44	1	315	0	0			0	0			1				0	
6.6.1	win	2023-06-02	07:08:40	07:26:03	1033825	641c6443a8bca78cf7a512d1	3	1	main_z	11	advance_on_keypress_ZEE	120	stimuli_target_diamondsquares.svg	stimuli_distractor_trianglediamonds.svg	20	yes	57	0	876	0	0			0	0			1				0	
6.6.1	win	2023-06-02	07:08:40	07:26:04	1035649	641c6443a8bca78cf7a512d1	3	1	main_z	11	main_z	121	stimuli_distractor_diamondtriangles.svg	stimuli_target_diamondsquares.svg	32	yes	44	1	313	0	0			0	0			1				0	
6.6.1	win	2023-06-02	07:08:40	07:26:04	1035649	641c6443a8bca78cf7a512d1	3	1	main_z	11	advance_on_keypress_ZEE	122	stimuli_distractor_diamondtriangles.svg	stimuli_target_diamondsquares.svg	32	yes	57	0	586	0	0			0	0			1				0	
6.6.1	win	2023-06-02	07:08:40	07:26:06	1037326	641c6443a8bca78cf7a512d1	3	1	main_z	11	main_z	123	stimuli_distractor_diamondtriangles.svg	stimuli_target_trianglesquares.svg	30	yes	44	1	448	0	0			0	0			1				0	
6.6.1	win	2023-06-02	07:08:40	07:26:06	1037326	641c6443a8bca78cf7a512d1	3	1	main_z	11	advance_on_keypress_ZEE	124	stimuli_distractor_diamondtriangles.svg	stimuli_target_trianglesquares.svg	30	yes	57	0	602	0	0			0	0			1				0	
6.6.1	win	2023-06-02	07:08:40	07:26:08	1039081	641c6443a8bca78cf7a512d1	3	1	main_z	11	main_z	125	stimuli_target_squaretriangles.svg	stimuli_distractor_diamondtriangles.svg	7	yes	44	1	515	0	0			0	0			1				0	
6.6.1	win	2023-06-02	07:08:40	07:26:08	1039081	641c6443a8bca78cf7a512d1	3	1	main_z	11	advance_on_keypress_ZEE	126	stimuli_target_squaretriangles.svg	stimuli_distractor_diamondtriangles.svg	7	yes	57	0	916	0	0			0	0			1				0	
6.6.1	win	2023-06-02	07:08:40	07:26:10	1040997	641c6443a8bca78cf7a512d1	3	1	main_z	11	main_z	127	stimuli_target_diamondsquares.svg	stimuli_distractor_diamondtriangles.svg	24	yes	44	1	361	0	0			0	0			1				0	
6.6.1	win	2023-06-02	07:08:40	07:26:10	1040997	641c6443a8bca78cf7a512d1	3	1	main_z	11	advance_on_keypress_ZEE	128	stimuli_target_diamondsquares.svg	stimuli_distractor_diamondtriangles.svg	24	yes	57	0	45902	0	0			0	0			1				0	
6.6.1	win	2023-06-02	07:08:40	07:26:57	1087886	641c6443a8bca78cf7a512d1	3	1	main_z	11	main_z	129	stimuli_distractor_diamondtriangles.svg	stimuli_distractor_diamondtriangles.svg	40	no	44	0	335	0	0			0	0			1				0	
6.6.1	win	2023-06-02	07:08:40	07:26:57	1087886	641c6443a8bca78cf7a512d1	3	1	main_z	11	advance_on_keypress_ZEE	130	stimuli_distractor_diamondtriangles.svg	stimuli_distractor_diamondtriangles.svg	40	no	57	0	557	0	0			0	0			1				0	
6.6.1	win	2023-06-02	07:08:40	07:26:58	1089480	641c6443a8bca78cf7a512d1	3	1	main_z	11	main_z	131	stimuli_distractor_trianglediamonds.svg	stimuli_distractor_diamondtriangles.svg	35	no	44	0	401	0	0			0	0			1				0	
6.6.1	win	2023-06-02	07:08:40	07:26:58	1089480	641c6443a8bca78cf7a512d1	3	1	main_z	11	advance_on_keypress_ZEE	132	stimuli_distractor_trianglediamonds.svg	stimuli_distractor_diamondtriangles.svg	35	no	57	0	498	0	0			0	0			1				0	
6.6.1	win	2023-06-02	07:08:40	07:27:00	1091075	641c6443a8bca78cf7a512d1	3	1	main_z	11	main_z	133	stimuli_distractor_diamondtriangles.svg	stimuli_distractor_trianglediamonds.svg	38	no	44	0	457	0	0			0	0			1				0	
6.6.1	win	2023-06-02	07:08:40	07:27:00	1091075	641c6443a8bca78cf7a512d1	3	1	main_z	11	advance_on_keypress_ZEE	134	stimuli_distractor_diamondtriangles.svg	stimuli_distractor_trianglediamonds.svg	38	no	57	0	511	0	0			0	0			1				0	
6.6.1	win	2023-06-02	07:08:40	07:27:01	1092607	641c6443a8bca78cf7a512d1	3	1	main_z	11	main_z	135	stimuli_target_rectangletriangles.svg	stimuli_distractor_diamondtriangles.svg	5	yes	44	1	374	0	0			0	0			1				0	
6.6.1	win	2023-06-02	07:08:40	07:27:01	1092607	641c6443a8bca78cf7a512d1	3	1	main_z	11	advance_on_keypress_ZEE	136	stimuli_target_rectangletriangles.svg	stimuli_distractor_diamondtriangles.svg	5	yes	57	0	851	0	0			0	0			1				0	
6.6.1	win	2023-06-02	07:08:40	07:27:03	1094481	641c6443a8bca78cf7a512d1	3	1	main_z	11	main_z	137	stimuli_distractor_diamondtriangles.svg	stimuli_distractor_trianglediamonds.svg	37	no	44	0	377	0	0			0	0			1				0	
6.6.1	win	2023-06-02	07:08:40	07:27:03	1094481	641c6443a8bca78cf7a512d1	3	1	main_z	11	advance_on_keypress_ZEE	138	stimuli_distractor_diamondtriangles.svg	stimuli_distractor_trianglediamonds.svg	37	no	57	0	807	0	0			0	0			1				0	
6.6.1	win	2023-06-02	07:08:40	07:27:05	1096293	641c6443a8bca78cf7a512d1	3	1	main_z	11	main_z	139	stimuli_target_squarediamonds.svg	stimuli_distractor_trianglediamonds.svg	4	yes	44	1	351	0	0			0	0			1				0	
6.6.1	win	2023-06-02	07:08:40	07:27:05	1096293	641c6443a8bca78cf7a512d1	3	1	main_z	11	advance_on_keypress_ZEE	140	stimuli_target_squarediamonds.svg	stimuli_distractor_trianglediamonds.svg	4	yes	57	0	451	0	0			0	0			1				0	
6.6.1	win	2023-06-02	07:08:40	07:27:06	1097674	641c6443a8bca78cf7a512d1	3	1	main_z	11	main_z	141	stimuli_distractor_diamondtriangles.svg	stimuli_target_squarediamonds.svg	16	yes	44	1	295	0	0			0	0			1				0	
6.6.1	win	2023-06-02	07:08:40	07:27:06	1097674	641c6443a8bca78cf7a512d1	3	1	main_z	11	advance_on_keypress_ZEE	142	stimuli_distractor_diamondtriangles.svg	stimuli_target_squarediamonds.svg	16	yes	57	0	1146	0	0			0	0			1				0	
6.6.1	win	2023-06-02	07:08:40	07:27:10	1101476	641c6443a8bca78cf7a512d1	3	1	main_z	11	main_z	143	stimuli_distractor_trianglediamonds.svg	stimuli_target_trianglerectangles.svg	25	yes	0	0	2000	0	0			0	0			1				0	
6.6.1	win	2023-06-02	07:08:40	07:27:10	1101476	641c6443a8bca78cf7a512d1	3	1	main_z	11	advance_on_keypress_ZEE	144	stimuli_distractor_trianglediamonds.svg	stimuli_target_trianglerectangles.svg	25	yes	57	0	620	0	0			0	0			1				0	
6.6.1	win	2023-06-02	07:08:40	07:27:12	1103247	641c6443a8bca78cf7a512d1	3	1	main_z	11	main_z	145	stimuli_target_rectanglediamonds.svg	stimuli_distractor_trianglediamonds.svg	2	yes	44	1	514	0	0			0	0			1				0	
6.6.1	win	2023-06-02	07:08:40	07:27:12	1103247	641c6443a8bca78cf7a512d1	3	1	main_z	11	advance_on_keypress_ZEE	146	stimuli_target_rectanglediamonds.svg	stimuli_distractor_trianglediamonds.svg	2	yes	57	0	506	0	0			0	0			1				0	
6.6.1	win	2023-06-02	07:08:40	07:27:14	1104931	641c6443a8bca78cf7a512d1	3	1	main_z	11	main_z	147	stimuli_target_trianglerectangles.svg	stimuli_distractor_trianglediamonds.svg	17	yes	44	1	539	0	0			0	0			1				0	
6.6.1	win	2023-06-02	07:08:40	07:27:14	1104931	641c6443a8bca78cf7a512d1	3	1	main_z	11	advance_on_keypress_ZEE	148	stimuli_target_trianglerectangles.svg	stimuli_distractor_trianglediamonds.svg	17	yes	57	0	1631	0	0			0	0			1				0	
6.6.1	win	2023-06-02	07:08:40	07:27:16	1107709	641c6443a8bca78cf7a512d1	3	1	main_z	11	main_z	149	stimuli_target_diamondrectangles.svg	stimuli_distractor_trianglediamonds.svg	19	yes	44	1	499	0	0			0	0			1				0	
6.6.1	win	2023-06-02	07:08:40	07:27:16	1107709	641c6443a8bca78cf7a512d1	3	1	main_z	11	advance_on_keypress_ZEE	150	stimuli_target_diamondrectangles.svg	stimuli_distractor_trianglediamonds.svg	19	yes	57	0	947	0	0			0	0			1				0	
6.6.1	win	2023-06-02	07:08:40	07:27:19	1109808	641c6443a8bca78cf7a512d1	3	1	main_z	11	main_z	151	stimuli_distractor_trianglediamonds.svg	stimuli_target_diamondsquares.svg	28	yes	44	1	515	0	0			0	0			1				0	
6.6.1	win	2023-06-02	07:08:40	07:27:19	1109808	641c6443a8bca78cf7a512d1	3	1	main_z	11	advance_on_keypress_ZEE	152	stimuli_distractor_trianglediamonds.svg	stimuli_target_diamondsquares.svg	28	yes	57	0	15118	0	0			0	0			1				0	
6.6.1	win	2023-06-02	07:08:40	07:27:35	1126082	641c6443a8bca78cf7a512d1	3	1	main_z	11	main_z	153	stimuli_distractor_diamondtriangles.svg	stimuli_target_rectangletriangles.svg	13	yes	44	1	518	0	0			0	0			1				0	
6.6.1	win	2023-06-02	07:08:40	07:27:35	1126082	641c6443a8bca78cf7a512d1	3	1	main_z	11	advance_on_keypress_ZEE	154	stimuli_distractor_diamondtriangles.svg	stimuli_target_rectangletriangles.svg	13	yes	57	0	2716	0	0			0	0			1				0	
6.6.1	win	2023-06-02	07:08:40	07:27:39	1130280	641c6443a8bca78cf7a512d1	3	1	main_z	11	main_z	155	stimuli_distractor_trianglediamonds.svg	stimuli_distractor_trianglediamonds.svg	33	no	44	0	846	0	0			0	0			1				0	
6.6.1	win	2023-06-02	07:08:40	07:27:39	1130280	641c6443a8bca78cf7a512d1	3	1	main_z	11	advance_on_keypress_ZEE	156	stimuli_distractor_trianglediamonds.svg	stimuli_distractor_trianglediamonds.svg	33	no	57	0	2998	0	0			0	0			1				0	
6.6.1	win	2023-06-02	07:08:40	07:27:43	1134622	641c6443a8bca78cf7a512d1	3	1	main_z	11	main_z	157	stimuli_distractor_trianglediamonds.svg	stimuli_target_squaretriangles.svg	11	yes	44	1	707	0	0			0	0			1				0	
6.6.1	win	2023-06-02	07:08:40	07:27:43	1134622	641c6443a8bca78cf7a512d1	3	1	main_z	11	advance_on_keypress_ZEE	158	stimuli_distractor_trianglediamonds.svg	stimuli_target_squaretriangles.svg	11	yes	57	0	1385	0	0			0	0			1				0	
6.6.1	win	2023-06-02	07:08:40	07:27:46	1137347	641c6443a8bca78cf7a512d1	3	1	main_z	11	main_z	159	stimuli_distractor_trianglediamonds.svg	stimuli_distractor_trianglediamonds.svg	34	no	44	0	704	0	0			0	0			1				0	
6.6.1	win	2023-06-02	07:08:40	07:27:46	1137347	641c6443a8bca78cf7a512d1	3	1	main_z	11	advance_on_keypress_ZEE	160	stimuli_distractor_trianglediamonds.svg	stimuli_distractor_trianglediamonds.svg	34	no	57	0	553	0	0			0	0			1				0	
6.6.1	win	2023-06-02	07:08:40	07:27:46	1137347	641c6443a8bca78cf7a512d1	3	1	headphonecheck_calibration	14	headphonecheck_calibrationIntro	1	stimuli_distractor_trianglediamonds.svg	stimuli_distractor_trianglediamonds.svg	34	no	calibrationButton	0	10783	0	0			0	0			1				0	
6.6.1	win	2023-06-02	07:08:40	07:27:46	1137347	641c6443a8bca78cf7a512d1	3	1	headphonecheck_testphase	15	test_collectResponse	3	stimuli_distractor_trianglediamonds.svg	stimuli_distractor_trianglediamonds.svg	34	no	third	1	2418	1	6	antiphase_hc_ois.wav	3	0	0			1				0	
6.6.1	win	2023-06-02	07:08:40	07:27:46	1137347	641c6443a8bca78cf7a512d1	3	1	headphonecheck_testphase	15	test_collectResponse	6	stimuli_distractor_trianglediamonds.svg	stimuli_distractor_trianglediamonds.svg	34	no	first	1	1321	2	4	antiphase_hc_sio.wav	1	0	0			1				0	
6.6.1	win	2023-06-02	07:08:40	07:27:46	1137347	641c6443a8bca78cf7a512d1	3	1	headphonecheck_testphase	15	test_collectResponse	9	stimuli_distractor_trianglediamonds.svg	stimuli_distractor_trianglediamonds.svg	34	no	second	1	217	3	1	antiphase_hc_iso.wav	2	0	0			1				0	
6.6.1	win	2023-06-02	07:08:40	07:27:46	1137347	641c6443a8bca78cf7a512d1	3	1	headphonecheck_testphase	15	test_collectResponse	12	stimuli_distractor_trianglediamonds.svg	stimuli_distractor_trianglediamonds.svg	34	no	first	1	547	4	3	antiphase_hc_soi.wav	1	0	0			1				0	
6.6.1	win	2023-06-02	07:08:40	07:27:46	1137347	641c6443a8bca78cf7a512d1	3	1	headphonecheck_testphase	15	test_collectResponse	15	stimuli_distractor_trianglediamonds.svg	stimuli_distractor_trianglediamonds.svg	34	no	third	1	89	5	2	antiphase_hc_ios.wav	3	0	0			1				0	
6.6.1	win	2023-06-02	07:08:40	07:27:46	1137347	641c6443a8bca78cf7a512d1	3	1	headphonecheck_testphase	15	test_collectResponse	18	stimuli_distractor_trianglediamonds.svg	stimuli_distractor_trianglediamonds.svg	34	no	second	1	267	6	5	antiphase_hc_osi.wav	2	0	0			1				0	
6.6.1	win	2023-06-02	07:08:40	07:27:46	1137347	641c6443a8bca78cf7a512d1	3	1	stereocheck_calibration	17	stereocheck_calibrationIntro	1	stimuli_distractor_trianglediamonds.svg	stimuli_distractor_trianglediamonds.svg	34	no	stereocheck_calibrationButton	0	3180	6	5	antiphase_hc_osi.wav	2	0	0			1				0	
6.6.1	win	2023-06-02	07:08:40	07:27:46	1137347	641c6443a8bca78cf7a512d1	3	1	stereocheck_testphase	18	stereocheck_test_collectResponse	3	stimuli_distractor_trianglediamonds.svg	stimuli_distractor_trianglediamonds.svg	34	no	stereocheck_left	0	1179	6	5	antiphase_hc_osi.wav	2	1	4	noise_calib_stim_RIGHT.wav	2	1				0	
6.6.1	win	2023-06-02	07:08:40	07:27:46	1137347	641c6443a8bca78cf7a512d1	3	1	stereocheck_testphase	18	stereocheck_test_collectResponse	6	stimuli_distractor_trianglediamonds.svg	stimuli_distractor_trianglediamonds.svg	34	no	stereocheck_right	0	256	6	5	antiphase_hc_osi.wav	2	2	3	noise_calib_stim_LEFT.wav	1	1				0	
6.6.1	win	2023-06-02	07:08:40	07:27:46	1137347	641c6443a8bca78cf7a512d1	3	1	stereocheck_testphase	18	stereocheck_test_collectResponse	9	stimuli_distractor_trianglediamonds.svg	stimuli_distractor_trianglediamonds.svg	34	no	stereocheck_right	0	343	6	5	antiphase_hc_osi.wav	2	3	2	noise_calib_stim_LEFT.wav	1	1				0	
6.6.1	win	2023-06-02	07:08:40	07:27:46	1137347	641c6443a8bca78cf7a512d1	3	1	stereocheck_testphase	18	stereocheck_test_collectResponse	12	stimuli_distractor_trianglediamonds.svg	stimuli_distractor_trianglediamonds.svg	34	no	stereocheck_left	0	249	6	5	antiphase_hc_osi.wav	2	4	5	noise_calib_stim_RIGHT.wav	2	1				0	
6.6.1	win	2023-06-02	07:08:40	07:27:46	1137347	641c6443a8bca78cf7a512d1	3	1	stereocheck_testphase	18	stereocheck_test_collectResponse	15	stimuli_distractor_trianglediamonds.svg	stimuli_distractor_trianglediamonds.svg	34	no	stereocheck_right	0	390	6	5	antiphase_hc_osi.wav	2	5	1	noise_calib_stim_LEFT.wav	1	1				0	
6.6.1	win	2023-06-02	07:08:40	07:27:46	1137347	641c6443a8bca78cf7a512d1	3	1	stereocheck_testphase	18	stereocheck_test_collectResponse	18	stimuli_distractor_trianglediamonds.svg	stimuli_distractor_trianglediamonds.svg	34	no	stereocheck_left	0	188	6	5	antiphase_hc_osi.wav	2	6	6	noise_calib_stim_RIGHT.wav	2	1				0	
6.6.1	win	2023-06-02	07:08:40	07:27:46	1137347	641c6443a8bca78cf7a512d1	3	1	DL_practice	21	DL_practice	2	stimuli_distractor_trianglediamonds.svg	stimuli_distractor_trianglediamonds.svg	34	no	da	0	2392	6	5	antiphase_hc_osi.wav	2	6	6	noise_calib_stim_RIGHT.wav	2	15	blb_dichoticlistening_ga-ga.mp3	ga	ga	0	other
6.6.1	win	2023-06-02	07:08:40	07:27:46	1137347	641c6443a8bca78cf7a512d1	3	1	DL_practice	21	DL_practice	3	stimuli_distractor_trianglediamonds.svg	stimuli_distractor_trianglediamonds.svg	34	no	ta	1	2131	6	5	antiphase_hc_osi.wav	2	6	6	noise_calib_stim_RIGHT.wav	2	36	blb_dichoticlistening_ta-ta.mp3	ta	ta	0	left
6.6.1	win	2023-06-02	07:08:40	07:27:46	1137347	641c6443a8bca78cf7a512d1	3	1	DL_practice	21	DL_practice	4	stimuli_distractor_trianglediamonds.svg	stimuli_distractor_trianglediamonds.svg	34	no	ga	1	1609	6	5	antiphase_hc_osi.wav	2	6	6	noise_calib_stim_RIGHT.wav	2	18	blb_dichoticlistening_ga-ta.mp3	ga	ta	1	left
6.6.1	win	2023-06-02	07:08:40	07:27:46	1137347	641c6443a8bca78cf7a512d1	3	1	DL_practice	21	DL_practice	5	stimuli_distractor_trianglediamonds.svg	stimuli_distractor_trianglediamonds.svg	34	no	da	1	1404	6	5	antiphase_hc_osi.wav	2	6	6	noise_calib_stim_RIGHT.wav	2	8	blb_dichoticlistening_da-da.mp3	da	da	0	left
6.6.1	win	2023-06-02	07:08:40	07:27:46	1137347	641c6443a8bca78cf7a512d1	3	1	DL_practice	21	DL_practice	6	stimuli_distractor_trianglediamonds.svg	stimuli_distractor_trianglediamonds.svg	34	no	pa	0	1463	6	5	antiphase_hc_osi.wav	2	6	6	noise_calib_stim_RIGHT.wav	2	1	blb_dichoticlistening_ba-ba.mp3	ba	ba	0	other
6.6.1	win	2023-06-02	07:08:40	07:27:46	1137347	641c6443a8bca78cf7a512d1	3	1	DL_practice	21	DL_practice	7	stimuli_distractor_trianglediamonds.svg	stimuli_distractor_trianglediamonds.svg	34	no	ka	1	932	6	5	antiphase_hc_osi.wav	2	6	6	noise_calib_stim_RIGHT.wav	2	22	blb_dichoticlistening_ka-ka.mp3	ka	ka	0	left
6.6.1	win	2023-06-02	07:08:40	07:27:46	1137347	641c6443a8bca78cf7a512d1	3	1	DL_practice	21	DL_practice	8	stimuli_distractor_trianglediamonds.svg	stimuli_distractor_trianglediamonds.svg	34	no	ta	0	1438	6	5	antiphase_hc_osi.wav	2	6	6	noise_calib_stim_RIGHT.wav	2	7	blb_dichoticlistening_da-ba.mp3	da	ba	1	other
6.6.1	win	2023-06-02	07:08:40	07:27:46	1137347	641c6443a8bca78cf7a512d1	3	1	DL_practice	21	DL_practice	9	stimuli_distractor_trianglediamonds.svg	stimuli_distractor_trianglediamonds.svg	34	no	ta	0	1202	6	5	antiphase_hc_osi.wav	2	6	6	noise_calib_stim_RIGHT.wav	2	23	blb_dichoticlistening_ka-pa.mp3	ka	pa	1	other
6.6.1	win	2023-06-02	07:08:40	07:27:46	1137347	641c6443a8bca78cf7a512d1	3	1	DL_practice	21	DL_practice	10	stimuli_distractor_trianglediamonds.svg	stimuli_distractor_trianglediamonds.svg	34	no	pa	1	597	6	5	antiphase_hc_osi.wav	2	6	6	noise_calib_stim_RIGHT.wav	2	29	blb_dichoticlistening_pa-pa.mp3	pa	pa	0	left
6.6.1	win	2023-06-02	07:08:40	07:27:46	1137347	641c6443a8bca78cf7a512d1	3	1	DL_test	23	DL_test	1	stimuli_distractor_trianglediamonds.svg	stimuli_distractor_trianglediamonds.svg	34	no	ka	1	2101	6	5	antiphase_hc_osi.wav	2	6	6	noise_calib_stim_RIGHT.wav	2	16	blb_dichoticlistening_ga-ka.mp3	ga	ka	1	right
6.6.1	win	2023-06-02	07:08:40	07:27:46	1137347	641c6443a8bca78cf7a512d1	3	1	DL_test	23	DL_test	2	stimuli_distractor_trianglediamonds.svg	stimuli_distractor_trianglediamonds.svg	34	no	ta	0	1237	6	5	antiphase_hc_osi.wav	2	6	6	noise_calib_stim_RIGHT.wav	2	26	blb_dichoticlistening_pa-da.mp3	pa	da	1	other
6.6.1	win	2023-06-02	07:08:40	07:27:46	1137347	641c6443a8bca78cf7a512d1	3	1	DL_test	23	DL_test	3	stimuli_distractor_trianglediamonds.svg	stimuli_distractor_trianglediamonds.svg	34	no	ta	1	1171	6	5	antiphase_hc_osi.wav	2	6	6	noise_calib_stim_RIGHT.wav	2	32	blb_dichoticlistening_ta-da.mp3	ta	da	1	left
6.6.1	win	2023-06-02	07:08:40	07:27:46	1137347	641c6443a8bca78cf7a512d1	3	1	DL_test	23	DL_test	4	stimuli_distractor_trianglediamonds.svg	stimuli_distractor_trianglediamonds.svg	34	no	ta	0	1149	6	5	antiphase_hc_osi.wav	2	6	6	noise_calib_stim_RIGHT.wav	2	7	blb_dichoticlistening_da-ba.mp3	da	ba	1	other
6.6.1	win	2023-06-02	07:08:40	07:27:46	1137347	641c6443a8bca78cf7a512d1	3	1	DL_test	23	DL_test	5	stimuli_distractor_trianglediamonds.svg	stimuli_distractor_trianglediamonds.svg	34	no	ga	1	1364	6	5	antiphase_hc_osi.wav	2	6	6	noise_calib_stim_RIGHT.wav	2	18	blb_dichoticlistening_ga-ta.mp3	ga	ta	1	left
6.6.1	win	2023-06-02	07:08:40	07:27:46	1137347	641c6443a8bca78cf7a512d1	3	1	DL_test	23	DL_test	6	stimuli_distractor_trianglediamonds.svg	stimuli_distractor_trianglediamonds.svg	34	no	ga	0	2252	6	5	antiphase_hc_osi.wav	2	6	6	noise_calib_stim_RIGHT.wav	2	20	blb_dichoticlistening_ka-da.mp3	ka	da	1	other
6.6.1	win	2023-06-02	07:08:40	07:27:46	1137347	641c6443a8bca78cf7a512d1	3	1	DL_test	23	DL_test	7	stimuli_distractor_trianglediamonds.svg	stimuli_distractor_trianglediamonds.svg	34	no	pa	1	1415	6	5	antiphase_hc_osi.wav	2	6	6	noise_calib_stim_RIGHT.wav	2	30	blb_dichoticlistening_pa-ta.mp3	pa	ta	1	left
6.6.1	win	2023-06-02	07:08:40	07:27:46	1137347	641c6443a8bca78cf7a512d1	3	1	DL_test	23	DL_test	8	stimuli_distractor_trianglediamonds.svg	stimuli_distractor_trianglediamonds.svg	34	no	pa	1	963	6	5	antiphase_hc_osi.wav	2	6	6	noise_calib_stim_RIGHT.wav	2	23	blb_dichoticlistening_ka-pa.mp3	ka	pa	1	right
6.6.1	win	2023-06-02	07:08:40	07:27:46	1137347	641c6443a8bca78cf7a512d1	3	1	DL_test	23	DL_test	9	stimuli_distractor_trianglediamonds.svg	stimuli_distractor_trianglediamonds.svg	34	no	ta	0	1555	6	5	antiphase_hc_osi.wav	2	6	6	noise_calib_stim_RIGHT.wav	2	13	blb_dichoticlistening_ga-ba.mp3	ga	ba	1	other
6.6.1	win	2023-06-02	07:08:40	07:27:46	1137347	641c6443a8bca78cf7a512d1	3	1	DL_test	23	DL_test	10	stimuli_distractor_trianglediamonds.svg	stimuli_distractor_trianglediamonds.svg	34	no	ta	0	1082	6	5	antiphase_hc_osi.wav	2	6	6	noise_calib_stim_RIGHT.wav	2	2	blb_dichoticlistening_ba-da.mp3	ba	da	1	other
6.6.1	win	2023-06-02	07:08:40	07:27:46	1137347	641c6443a8bca78cf7a512d1	3	1	DL_test	23	DL_test	11	stimuli_distractor_trianglediamonds.svg	stimuli_distractor_trianglediamonds.svg	34	no	pa	1	930	6	5	antiphase_hc_osi.wav	2	6	6	noise_calib_stim_RIGHT.wav	2	5	blb_dichoticlistening_ba-pa.mp3	ba	pa	1	right
6.6.1	win	2023-06-02	07:08:40	07:27:46	1137347	641c6443a8bca78cf7a512d1	3	1	DL_test	23	DL_test	12	stimuli_distractor_trianglediamonds.svg	stimuli_distractor_trianglediamonds.svg	34	no	ka	1	1057	6	5	antiphase_hc_osi.wav	2	6	6	noise_calib_stim_RIGHT.wav	2	21	blb_dichoticlistening_ka-ga.mp3	ka	ga	1	left
6.6.1	win	2023-06-02	07:08:40	07:27:46	1137347	641c6443a8bca78cf7a512d1	3	1	DL_test	23	DL_test	13	stimuli_distractor_trianglediamonds.svg	stimuli_distractor_trianglediamonds.svg	34	no	ga	1	775	6	5	antiphase_hc_osi.wav	2	6	6	noise_calib_stim_RIGHT.wav	2	9	blb_dichoticlistening_da-ga.mp3	da	ga	1	right
6.6.1	win	2023-06-02	07:08:40	07:27:46	1137347	641c6443a8bca78cf7a512d1	3	1	DL_test	23	DL_test	14	stimuli_distractor_trianglediamonds.svg	stimuli_distractor_trianglediamonds.svg	34	no	pa	1	3073	6	5	antiphase_hc_osi.wav	2	6	6	noise_calib_stim_RIGHT.wav	2	27	blb_dichoticlistening_pa-ga.mp3	pa	ga	1	left
6.6.1	win	2023-06-02	07:08:40	07:27:46	1137347	641c6443a8bca78cf7a512d1	3	1	DL_test	23	DL_test	15	stimuli_distractor_trianglediamonds.svg	stimuli_distractor_trianglediamonds.svg	34	no	ga	1	1545	6	5	antiphase_hc_osi.wav	2	6	6	noise_calib_stim_RIGHT.wav	2	15	blb_dichoticlistening_ga-ga.mp3	ga	ga	0	left
6.6.1	win	2023-06-02	07:08:40	07:27:46	1137347	641c6443a8bca78cf7a512d1	3	1	DL_test	23	DL_test	16	stimuli_distractor_trianglediamonds.svg	stimuli_distractor_trianglediamonds.svg	34	no	ta	1	1313	6	5	antiphase_hc_osi.wav	2	6	6	noise_calib_stim_RIGHT.wav	2	24	blb_dichoticlistening_ka-ta.mp3	ka	ta	1	right
6.6.1	win	2023-06-02	07:08:40	07:27:46	1137347	641c6443a8bca78cf7a512d1	3	1	DL_test	23	DL_test	17	stimuli_distractor_trianglediamonds.svg	stimuli_distractor_trianglediamonds.svg	34	no	ga	0	2069	6	5	antiphase_hc_osi.wav	2	6	6	noise_calib_stim_RIGHT.wav	2	8	blb_dichoticlistening_da-da.mp3	da	da	0	other
6.6.1	win	2023-06-02	07:08:40	07:27:46	1137347	641c6443a8bca78cf7a512d1	3	1	DL_test	23	DL_test	18	stimuli_distractor_trianglediamonds.svg	stimuli_distractor_trianglediamonds.svg	34	no	pa	1	1537	6	5	antiphase_hc_osi.wav	2	6	6	noise_calib_stim_RIGHT.wav	2	28	blb_dichoticlistening_pa-ka.mp3	pa	ka	1	left
6.6.1	win	2023-06-02	07:08:40	07:27:46	1137347	641c6443a8bca78cf7a512d1	3	1	DL_test	23	DL_test	19	stimuli_distractor_trianglediamonds.svg	stimuli_distractor_trianglediamonds.svg	34	no	ta	0	1726	6	5	antiphase_hc_osi.wav	2	6	6	noise_calib_stim_RIGHT.wav	2	10	blb_dichoticlistening_da-ka.mp3	da	ka	1	other
6.6.1	win	2023-06-02	07:08:40	07:27:46	1137347	641c6443a8bca78cf7a512d1	3	1	DL_test	23	DL_test	20	stimuli_distractor_trianglediamonds.svg	stimuli_distractor_trianglediamonds.svg	34	no	ga	0	1915	6	5	antiphase_hc_osi.wav	2	6	6	noise_calib_stim_RIGHT.wav	2	22	blb_dichoticlistening_ka-ka.mp3	ka	ka	0	other
6.6.1	win	2023-06-02	07:08:40	07:27:46	1137347	641c6443a8bca78cf7a512d1	3	1	DL_test	23	DL_test	21	stimuli_distractor_trianglediamonds.svg	stimuli_distractor_trianglediamonds.svg	34	no	pa	1	1291	6	5	antiphase_hc_osi.wav	2	6	6	noise_calib_stim_RIGHT.wav	2	35	blb_dichoticlistening_ta-pa.mp3	ta	pa	1	right
6.6.1	win	2023-06-02	07:08:40	07:27:46	1137347	641c6443a8bca78cf7a512d1	3	1	DL_test	23	DL_test	22	stimuli_distractor_trianglediamonds.svg	stimuli_distractor_trianglediamonds.svg	34	no	ta	0	1429	6	5	antiphase_hc_osi.wav	2	6	6	noise_calib_stim_RIGHT.wav	2	19	blb_dichoticlistening_ka-ba.mp3	ka	ba	1	other
6.6.1	win	2023-06-02	07:08:40	07:27:46	1137347	641c6443a8bca78cf7a512d1	3	1	DL_test	23	DL_test	23	stimuli_distractor_trianglediamonds.svg	stimuli_distractor_trianglediamonds.svg	34	no	ta	1	1210	6	5	antiphase_hc_osi.wav	2	6	6	noise_calib_stim_RIGHT.wav	2	36	blb_dichoticlistening_ta-ta.mp3	ta	ta	0	left
6.6.1	win	2023-06-02	07:08:40	07:27:46	1137347	641c6443a8bca78cf7a512d1	3	1	DL_test	23	DL_test	24	stimuli_distractor_trianglediamonds.svg	stimuli_distractor_trianglediamonds.svg	34	no	ta	1	1085	6	5	antiphase_hc_osi.wav	2	6	6	noise_calib_stim_RIGHT.wav	2	12	blb_dichoticlistening_da-ta.mp3	da	ta	1	right
6.6.1	win	2023-06-02	07:08:40	07:27:46	1137347	641c6443a8bca78cf7a512d1	3	1	DL_test	23	DL_test	25	stimuli_distractor_trianglediamonds.svg	stimuli_distractor_trianglediamonds.svg	34	no	pa	1	915	6	5	antiphase_hc_osi.wav	2	6	6	noise_calib_stim_RIGHT.wav	2	17	blb_dichoticlistening_ga-pa.mp3	ga	pa	1	right
