build	computer.platform	date	time	timestamp	time_elapsed_ms	subject	group	session	blockcode	blocknum	trialcode	trialnum	stimulus_left	stimulus_right	stim_index	target_present	response	correct	latency	headphonecheck_countTestTrials	headphonecheck_index	headphonecheck_testSound	headphonecheck_correctResponse	stereocheck_countTestTrials	stereocheck_index	stereocheck_testSound	stereocheck_correctResponse	DL_index	DL_soundfile	DL_leftSound	DL_rightSound	DL_dualSound	DL_choice
6.6.1	win	2023-06-02	05:53:48	05:56:32	159732	579f1d3bc9abeb0001af52d8	3	1	practice_slash	5	practice_slash	1	stimuli_distractor_diamondtriangles.svg	stimuli_target_rectangletriangles.svg	7	yes	53	1	499	0	0			0	0			1				0	
6.6.1	win	2023-06-02	05:53:48	05:56:32	159732	579f1d3bc9abeb0001af52d8	3	1	practice_slash	5	advance_on_keypress_SLASH	2	stimuli_distractor_diamondtriangles.svg	stimuli_target_rectangletriangles.svg	7	yes	57	0	1463	0	0			0	0			1				0	
6.6.1	win	2023-06-02	05:53:48	05:56:36	163380	579f1d3bc9abeb0001af52d8	3	1	practice_slash	5	practice_slash	3	stimuli_target_rectanglediamonds.svg	stimuli_distractor_diamondtriangles.svg	1	yes	53	1	531	0	0			0	0			1				0	
6.6.1	win	2023-06-02	05:53:48	05:56:36	163380	579f1d3bc9abeb0001af52d8	3	1	practice_slash	5	advance_on_keypress_SLASH	4	stimuli_target_rectanglediamonds.svg	stimuli_distractor_diamondtriangles.svg	1	yes	57	0	613	0	0			0	0			1				0	
6.6.1	win	2023-06-02	05:53:48	05:56:39	166246	579f1d3bc9abeb0001af52d8	3	1	practice_slash	5	practice_slash	5	stimuli_distractor_trianglediamonds.svg	stimuli_target_rectanglediamonds.svg	10	yes	53	1	595	0	0			0	0			1				0	
6.6.1	win	2023-06-02	05:53:48	05:56:39	166246	579f1d3bc9abeb0001af52d8	3	1	practice_slash	5	advance_on_keypress_SLASH	6	stimuli_distractor_trianglediamonds.svg	stimuli_target_rectanglediamonds.svg	10	yes	57	0	627	0	0			0	0			1				0	
6.6.1	win	2023-06-02	05:53:48	05:56:42	169061	579f1d3bc9abeb0001af52d8	3	1	practice_slash	5	practice_slash	7	stimuli_target_diamondsquares.svg	stimuli_distractor_diamondtriangles.svg	3	yes	53	1	561	0	0			0	0			1				0	
6.6.1	win	2023-06-02	05:53:48	05:56:42	169061	579f1d3bc9abeb0001af52d8	3	1	practice_slash	5	advance_on_keypress_SLASH	8	stimuli_target_diamondsquares.svg	stimuli_distractor_diamondtriangles.svg	3	yes	57	0	571	0	0			0	0			1				0	
6.6.1	win	2023-06-02	05:53:48	05:56:45	172181	579f1d3bc9abeb0001af52d8	3	1	practice_slash	5	practice_slash	9	stimuli_distractor_diamondtriangles.svg	stimuli_target_trianglerectangles.svg	9	yes	53	1	914	0	0			0	0			1				0	
6.6.1	win	2023-06-02	05:53:48	05:56:45	172181	579f1d3bc9abeb0001af52d8	3	1	practice_slash	5	advance_on_keypress_SLASH	10	stimuli_distractor_diamondtriangles.svg	stimuli_target_trianglerectangles.svg	9	yes	57	0	677	0	0			0	0			1				0	
6.6.1	win	2023-06-02	05:53:48	05:56:49	176500	579f1d3bc9abeb0001af52d8	3	1	practice_slash	5	practice_slash	11	stimuli_distractor_trianglediamonds.svg	stimuli_distractor_trianglediamonds.svg	15	no	0	1	2000	0	0			0	0			1				0	
6.6.1	win	2023-06-02	05:53:48	05:56:49	176500	579f1d3bc9abeb0001af52d8	3	1	practice_slash	5	advance_on_keypress_SLASH	12	stimuli_distractor_trianglediamonds.svg	stimuli_distractor_trianglediamonds.svg	15	no	57	0	601	0	0			0	0			1				0	
6.6.1	win	2023-06-02	05:53:48	05:56:52	179644	579f1d3bc9abeb0001af52d8	3	1	practice_slash	5	practice_slash	13	stimuli_target_rectanglediamonds.svg	stimuli_distractor_trianglediamonds.svg	4	yes	53	1	895	0	0			0	0			1				0	
6.6.1	win	2023-06-02	05:53:48	05:56:52	179644	579f1d3bc9abeb0001af52d8	3	1	practice_slash	5	advance_on_keypress_SLASH	14	stimuli_target_rectanglediamonds.svg	stimuli_distractor_trianglediamonds.svg	4	yes	57	0	628	0	0			0	0			1				0	
6.6.1	win	2023-06-02	05:53:48	05:56:55	182516	579f1d3bc9abeb0001af52d8	3	1	practice_slash	5	practice_slash	15	stimuli_distractor_trianglediamonds.svg	stimuli_target_squarediamonds.svg	11	yes	53	1	618	0	0			0	0			1				0	
6.6.1	win	2023-06-02	05:53:48	05:56:55	182516	579f1d3bc9abeb0001af52d8	3	1	practice_slash	5	advance_on_keypress_SLASH	16	stimuli_distractor_trianglediamonds.svg	stimuli_target_squarediamonds.svg	11	yes	57	0	536	0	0			0	0			1				0	
6.6.1	win	2023-06-02	05:53:48	05:56:59	186699	579f1d3bc9abeb0001af52d8	3	1	practice_slash	5	practice_slash	17	stimuli_distractor_trianglediamonds.svg	stimuli_distractor_diamondtriangles.svg	16	no	0	1	2000	0	0			0	0			1				0	
6.6.1	win	2023-06-02	05:53:48	05:56:59	186699	579f1d3bc9abeb0001af52d8	3	1	practice_slash	5	advance_on_keypress_SLASH	18	stimuli_distractor_trianglediamonds.svg	stimuli_distractor_diamondtriangles.svg	16	no	57	0	569	0	0			0	0			1				0	
6.6.1	win	2023-06-02	05:53:48	05:57:03	190189	579f1d3bc9abeb0001af52d8	3	1	practice_slash	5	practice_slash	19	stimuli_distractor_diamondtriangles.svg	stimuli_distractor_trianglediamonds.svg	14	no	53	0	1273	0	0			0	0			1				0	
6.6.1	win	2023-06-02	05:53:48	05:57:03	190189	579f1d3bc9abeb0001af52d8	3	1	practice_slash	5	advance_on_keypress_SLASH	20	stimuli_distractor_diamondtriangles.svg	stimuli_distractor_trianglediamonds.svg	14	no	57	0	606	0	0			0	0			1				0	
6.6.1	win	2023-06-02	05:53:48	05:57:07	194433	579f1d3bc9abeb0001af52d8	3	1	practice_slash	5	practice_slash	21	stimuli_distractor_diamondtriangles.svg	stimuli_distractor_diamondtriangles.svg	13	no	0	1	2000	0	0			0	0			1				0	
6.6.1	win	2023-06-02	05:53:48	05:57:07	194433	579f1d3bc9abeb0001af52d8	3	1	practice_slash	5	advance_on_keypress_SLASH	22	stimuli_distractor_diamondtriangles.svg	stimuli_distractor_diamondtriangles.svg	13	no	57	0	564	0	0			0	0			1				0	
6.6.1	win	2023-06-02	05:53:48	05:57:10	197533	579f1d3bc9abeb0001af52d8	3	1	practice_slash	5	practice_slash	23	stimuli_distractor_trianglediamonds.svg	stimuli_target_diamondrectangles.svg	12	yes	53	1	884	0	0			0	0			1				0	
6.6.1	win	2023-06-02	05:53:48	05:57:10	197533	579f1d3bc9abeb0001af52d8	3	1	practice_slash	5	advance_on_keypress_SLASH	24	stimuli_distractor_trianglediamonds.svg	stimuli_target_diamondrectangles.svg	12	yes	57	0	528	0	0			0	0			1				0	
6.6.1	win	2023-06-02	05:53:48	05:57:13	200701	579f1d3bc9abeb0001af52d8	3	1	practice_slash	5	practice_slash	25	stimuli_target_diamondsquares.svg	stimuli_distractor_trianglediamonds.svg	6	yes	53	1	1002	0	0			0	0			1				0	
6.6.1	win	2023-06-02	05:53:48	05:57:13	200701	579f1d3bc9abeb0001af52d8	3	1	practice_slash	5	advance_on_keypress_SLASH	26	stimuli_target_diamondsquares.svg	stimuli_distractor_trianglediamonds.svg	6	yes	57	0	458	0	0			0	0			1				0	
6.6.1	win	2023-06-02	05:53:48	05:57:16	203797	579f1d3bc9abeb0001af52d8	3	1	practice_slash	5	practice_slash	27	stimuli_target_squarediamonds.svg	stimuli_distractor_diamondtriangles.svg	2	yes	53	1	998	0	0			0	0			1				0	
6.6.1	win	2023-06-02	05:53:48	05:57:16	203797	579f1d3bc9abeb0001af52d8	3	1	practice_slash	5	advance_on_keypress_SLASH	28	stimuli_target_squarediamonds.svg	stimuli_distractor_diamondtriangles.svg	2	yes	57	0	414	0	0			0	0			1				0	
6.6.1	win	2023-06-02	05:53:48	05:57:20	206933	579f1d3bc9abeb0001af52d8	3	1	practice_slash	5	practice_slash	29	stimuli_distractor_diamondtriangles.svg	stimuli_target_diamondrectangles.svg	8	yes	53	1	1067	0	0			0	0			1				0	
6.6.1	win	2023-06-02	05:53:48	05:57:20	206933	579f1d3bc9abeb0001af52d8	3	1	practice_slash	5	advance_on_keypress_SLASH	30	stimuli_distractor_diamondtriangles.svg	stimuli_target_diamondrectangles.svg	8	yes	57	0	376	0	0			0	0			1				0	
6.6.1	win	2023-06-02	05:53:48	05:57:23	209917	579f1d3bc9abeb0001af52d8	3	1	practice_slash	5	practice_slash	31	stimuli_target_squarediamonds.svg	stimuli_distractor_trianglediamonds.svg	5	yes	53	1	968	0	0			0	0			1				0	
6.6.1	win	2023-06-02	05:53:48	05:57:23	209917	579f1d3bc9abeb0001af52d8	3	1	practice_slash	5	advance_on_keypress_SLASH	32	stimuli_target_squarediamonds.svg	stimuli_distractor_trianglediamonds.svg	5	yes	57	0	361	0	0			0	0			1				0	
6.6.1	win	2023-06-02	05:53:48	05:57:27	214492	579f1d3bc9abeb0001af52d8	3	1	main_slash	7	main_slash	1	stimuli_distractor_trianglediamonds.svg	stimuli_distractor_trianglediamonds.svg	34	no	53	0	1128	0	0			0	0			1				0	
6.6.1	win	2023-06-02	05:53:48	05:57:27	214492	579f1d3bc9abeb0001af52d8	3	1	main_slash	7	advance_on_keypress_SLASH	2	stimuli_distractor_trianglediamonds.svg	stimuli_distractor_trianglediamonds.svg	34	no	57	0	946	0	0			0	0			1				0	
6.6.1	win	2023-06-02	05:53:48	05:57:30	217076	579f1d3bc9abeb0001af52d8	3	1	main_slash	7	main_slash	3	stimuli_distractor_diamondtriangles.svg	stimuli_target_trianglesquares.svg	30	yes	53	1	979	0	0			0	0			1				0	
6.6.1	win	2023-06-02	05:53:48	05:57:30	217076	579f1d3bc9abeb0001af52d8	3	1	main_slash	7	advance_on_keypress_SLASH	4	stimuli_distractor_diamondtriangles.svg	stimuli_target_trianglesquares.svg	30	yes	57	0	651	0	0			0	0			1				0	
6.6.1	win	2023-06-02	05:53:48	05:57:32	219428	579f1d3bc9abeb0001af52d8	3	1	main_slash	7	main_slash	5	stimuli_target_trianglerectangles.svg	stimuli_distractor_trianglediamonds.svg	17	yes	53	1	1064	0	0			0	0			1				0	
6.6.1	win	2023-06-02	05:53:48	05:57:32	219428	579f1d3bc9abeb0001af52d8	3	1	main_slash	7	advance_on_keypress_SLASH	6	stimuli_target_trianglerectangles.svg	stimuli_distractor_trianglediamonds.svg	17	yes	57	0	524	0	0			0	0			1				0	
6.6.1	win	2023-06-02	05:53:48	05:57:34	221516	579f1d3bc9abeb0001af52d8	3	1	main_slash	7	main_slash	7	stimuli_distractor_trianglediamonds.svg	stimuli_target_trianglesquares.svg	26	yes	53	1	919	0	0			0	0			1				0	
6.6.1	win	2023-06-02	05:53:48	05:57:34	221516	579f1d3bc9abeb0001af52d8	3	1	main_slash	7	advance_on_keypress_SLASH	8	stimuli_distractor_trianglediamonds.svg	stimuli_target_trianglesquares.svg	26	yes	57	0	633	0	0			0	0			1				0	
6.6.1	win	2023-06-02	05:53:48	05:57:37	223860	579f1d3bc9abeb0001af52d8	3	1	main_slash	7	main_slash	9	stimuli_target_diamondsquares.svg	stimuli_distractor_diamondtriangles.svg	24	yes	53	1	1062	0	0			0	0			1				0	
6.6.1	win	2023-06-02	05:53:48	05:57:37	223860	579f1d3bc9abeb0001af52d8	3	1	main_slash	7	advance_on_keypress_SLASH	10	stimuli_target_diamondsquares.svg	stimuli_distractor_diamondtriangles.svg	24	yes	57	0	492	0	0			0	0			1				0	
6.6.1	win	2023-06-02	05:53:48	05:57:39	225932	579f1d3bc9abeb0001af52d8	3	1	main_slash	7	main_slash	11	stimuli_target_trianglesquares.svg	stimuli_distractor_diamondtriangles.svg	22	yes	53	1	952	0	0			0	0			1				0	
6.6.1	win	2023-06-02	05:53:48	05:57:39	225932	579f1d3bc9abeb0001af52d8	3	1	main_slash	7	advance_on_keypress_SLASH	12	stimuli_target_trianglesquares.svg	stimuli_distractor_diamondtriangles.svg	22	yes	57	0	545	0	0			0	0			1				0	
6.6.1	win	2023-06-02	05:53:48	05:57:42	229114	579f1d3bc9abeb0001af52d8	3	1	main_slash	7	main_slash	13	stimuli_target_trianglerectangles.svg	stimuli_distractor_diamondtriangles.svg	21	yes	0	0	2000	0	0			0	0			1				0	
6.6.1	win	2023-06-02	05:53:48	05:57:42	229114	579f1d3bc9abeb0001af52d8	3	1	main_slash	7	advance_on_keypress_SLASH	14	stimuli_target_trianglerectangles.svg	stimuli_distractor_diamondtriangles.svg	21	yes	57	0	417	0	0			0	0			1				0	
6.6.1	win	2023-06-02	05:53:48	05:57:44	231092	579f1d3bc9abeb0001af52d8	3	1	main_slash	7	main_slash	15	stimuli_target_rectanglediamonds.svg	stimuli_distractor_trianglediamonds.svg	2	yes	53	1	912	0	0			0	0			1				0	
6.6.1	win	2023-06-02	05:53:48	05:57:44	231092	579f1d3bc9abeb0001af52d8	3	1	main_slash	7	advance_on_keypress_SLASH	16	stimuli_target_rectanglediamonds.svg	stimuli_distractor_trianglediamonds.svg	2	yes	57	0	1075	0	0			0	0			1				0	
6.6.1	win	2023-06-02	05:53:48	05:57:46	233555	579f1d3bc9abeb0001af52d8	3	1	main_slash	7	main_slash	17	stimuli_target_rectanglediamonds.svg	stimuli_distractor_diamondtriangles.svg	6	yes	53	1	759	0	0			0	0			1				0	
6.6.1	win	2023-06-02	05:53:48	05:57:46	233555	579f1d3bc9abeb0001af52d8	3	1	main_slash	7	advance_on_keypress_SLASH	18	stimuli_target_rectanglediamonds.svg	stimuli_distractor_diamondtriangles.svg	6	yes	57	0	761	0	0			0	0			1				0	
6.6.1	win	2023-06-02	05:53:48	05:57:49	235836	579f1d3bc9abeb0001af52d8	3	1	main_slash	7	main_slash	19	stimuli_target_squaretriangles.svg	stimuli_distractor_diamondtriangles.svg	7	yes	53	1	889	0	0			0	0			1				0	
6.6.1	win	2023-06-02	05:53:48	05:57:49	235836	579f1d3bc9abeb0001af52d8	3	1	main_slash	7	advance_on_keypress_SLASH	20	stimuli_target_squaretriangles.svg	stimuli_distractor_diamondtriangles.svg	7	yes	57	0	781	0	0			0	0			1				0	
6.6.1	win	2023-06-02	05:53:48	05:57:51	238428	579f1d3bc9abeb0001af52d8	3	1	main_slash	7	main_slash	21	stimuli_distractor_diamondtriangles.svg	stimuli_distractor_trianglediamonds.svg	38	no	53	0	1165	0	0			0	0			1				0	
6.6.1	win	2023-06-02	05:53:48	05:57:51	238428	579f1d3bc9abeb0001af52d8	3	1	main_slash	7	advance_on_keypress_SLASH	22	stimuli_distractor_diamondtriangles.svg	stimuli_distractor_trianglediamonds.svg	38	no	57	0	565	0	0			0	0			1				0	
6.6.1	win	2023-06-02	05:53:48	05:57:53	240652	579f1d3bc9abeb0001af52d8	3	1	main_slash	7	main_slash	23	stimuli_target_rectangletriangles.svg	stimuli_distractor_trianglediamonds.svg	1	yes	53	1	1005	0	0			0	0			1				0	
6.6.1	win	2023-06-02	05:53:48	05:57:53	240652	579f1d3bc9abeb0001af52d8	3	1	main_slash	7	advance_on_keypress_SLASH	24	stimuli_target_rectangletriangles.svg	stimuli_distractor_trianglediamonds.svg	1	yes	57	0	604	0	0			0	0			1				0	
6.6.1	win	2023-06-02	05:53:48	05:57:55	242636	579f1d3bc9abeb0001af52d8	3	1	main_slash	7	main_slash	25	stimuli_distractor_diamondtriangles.svg	stimuli_target_rectanglediamonds.svg	14	yes	53	1	739	0	0			0	0			1				0	
6.6.1	win	2023-06-02	05:53:48	05:57:55	242636	579f1d3bc9abeb0001af52d8	3	1	main_slash	7	advance_on_keypress_SLASH	26	stimuli_distractor_diamondtriangles.svg	stimuli_target_rectanglediamonds.svg	14	yes	57	0	501	0	0			0	0			1				0	
6.6.1	win	2023-06-02	05:53:48	05:57:57	244484	579f1d3bc9abeb0001af52d8	3	1	main_slash	7	main_slash	27	stimuli_distractor_trianglediamonds.svg	stimuli_target_rectangletriangles.svg	9	yes	53	1	704	0	0			0	0			1				0	
6.6.1	win	2023-06-02	05:53:48	05:57:57	244484	579f1d3bc9abeb0001af52d8	3	1	main_slash	7	advance_on_keypress_SLASH	28	stimuli_distractor_trianglediamonds.svg	stimuli_target_rectangletriangles.svg	9	yes	57	0	620	0	0			0	0			1				0	
6.6.1	win	2023-06-02	05:53:48	05:57:59	246596	579f1d3bc9abeb0001af52d8	3	1	main_slash	7	main_slash	29	stimuli_distractor_trianglediamonds.svg	stimuli_target_trianglerectangles.svg	25	yes	53	1	850	0	0			0	0			1				0	
6.6.1	win	2023-06-02	05:53:48	05:57:59	246596	579f1d3bc9abeb0001af52d8	3	1	main_slash	7	advance_on_keypress_SLASH	30	stimuli_distractor_trianglediamonds.svg	stimuli_target_trianglerectangles.svg	25	yes	57	0	535	0	0			0	0			1				0	
6.6.1	win	2023-06-02	05:53:48	05:58:01	248516	579f1d3bc9abeb0001af52d8	3	1	main_slash	7	main_slash	31	stimuli_distractor_diamondtriangles.svg	stimuli_target_rectangletriangles.svg	13	yes	53	1	736	0	0			0	0			1				0	
6.6.1	win	2023-06-02	05:53:48	05:58:01	248516	579f1d3bc9abeb0001af52d8	3	1	main_slash	7	advance_on_keypress_SLASH	32	stimuli_distractor_diamondtriangles.svg	stimuli_target_rectangletriangles.svg	13	yes	57	0	402	0	0			0	0			1				0	
6.6.1	win	2023-06-02	05:53:48	05:58:03	250364	579f1d3bc9abeb0001af52d8	3	1	main_slash	7	main_slash	33	stimuli_distractor_trianglediamonds.svg	stimuli_target_squaretriangles.svg	11	yes	53	1	801	0	0			0	0			1				0	
6.6.1	win	2023-06-02	05:53:48	05:58:03	250364	579f1d3bc9abeb0001af52d8	3	1	main_slash	7	advance_on_keypress_SLASH	34	stimuli_distractor_trianglediamonds.svg	stimuli_target_squaretriangles.svg	11	yes	57	0	416	0	0			0	0			1				0	
6.6.1	win	2023-06-02	05:53:48	05:58:05	252188	579f1d3bc9abeb0001af52d8	3	1	main_slash	7	main_slash	35	stimuli_distractor_diamondtriangles.svg	stimuli_target_squarediamonds.svg	16	yes	53	1	758	0	0			0	0			1				0	
6.6.1	win	2023-06-02	05:53:48	05:58:05	252188	579f1d3bc9abeb0001af52d8	3	1	main_slash	7	advance_on_keypress_SLASH	36	stimuli_distractor_diamondtriangles.svg	stimuli_target_squarediamonds.svg	16	yes	57	0	432	0	0			0	0			1				0	
6.6.1	win	2023-06-02	05:53:48	05:58:07	254028	579f1d3bc9abeb0001af52d8	3	1	main_slash	7	main_slash	37	stimuli_target_squarediamonds.svg	stimuli_distractor_trianglediamonds.svg	4	yes	53	1	765	0	0			0	0			1				0	
6.6.1	win	2023-06-02	05:53:48	05:58:07	254028	579f1d3bc9abeb0001af52d8	3	1	main_slash	7	advance_on_keypress_SLASH	38	stimuli_target_squarediamonds.svg	stimuli_distractor_trianglediamonds.svg	4	yes	57	0	445	0	0			0	0			1				0	
6.6.1	win	2023-06-02	05:53:48	05:58:09	255860	579f1d3bc9abeb0001af52d8	3	1	main_slash	7	main_slash	39	stimuli_distractor_trianglediamonds.svg	stimuli_target_rectanglediamonds.svg	10	yes	53	1	747	0	0			0	0			1				0	
6.6.1	win	2023-06-02	05:53:48	05:58:09	255860	579f1d3bc9abeb0001af52d8	3	1	main_slash	7	advance_on_keypress_SLASH	40	stimuli_distractor_trianglediamonds.svg	stimuli_target_rectanglediamonds.svg	10	yes	57	0	621	0	0			0	0			1				0	
6.6.1	win	2023-06-02	05:53:48	05:58:11	258612	579f1d3bc9abeb0001af52d8	3	1	main_slash	7	main_slash	41	stimuli_distractor_diamondtriangles.svg	stimuli_target_diamondsquares.svg	32	yes	53	1	1483	0	0			0	0			1				0	
6.6.1	win	2023-06-02	05:53:48	05:58:11	258612	579f1d3bc9abeb0001af52d8	3	1	main_slash	7	advance_on_keypress_SLASH	42	stimuli_distractor_diamondtriangles.svg	stimuli_target_diamondsquares.svg	32	yes	57	0	423	0	0			0	0			1				0	
6.6.1	win	2023-06-02	05:53:48	05:58:13	260644	579f1d3bc9abeb0001af52d8	3	1	main_slash	7	main_slash	43	stimuli_target_diamondrectangles.svg	stimuli_distractor_trianglediamonds.svg	19	yes	53	1	964	0	0			0	0			1				0	
6.6.1	win	2023-06-02	05:53:48	05:58:13	260644	579f1d3bc9abeb0001af52d8	3	1	main_slash	7	advance_on_keypress_SLASH	44	stimuli_target_diamondrectangles.svg	stimuli_distractor_trianglediamonds.svg	19	yes	57	0	461	0	0			0	0			1				0	
6.6.1	win	2023-06-02	05:53:48	05:58:15	262596	579f1d3bc9abeb0001af52d8	3	1	main_slash	7	main_slash	45	stimuli_distractor_trianglediamonds.svg	stimuli_target_diamondsquares.svg	28	yes	53	1	850	0	0			0	0			1				0	
6.6.1	win	2023-06-02	05:53:48	05:58:15	262596	579f1d3bc9abeb0001af52d8	3	1	main_slash	7	advance_on_keypress_SLASH	46	stimuli_distractor_trianglediamonds.svg	stimuli_target_diamondsquares.svg	28	yes	57	0	495	0	0			0	0			1				0	
6.6.1	win	2023-06-02	05:53:48	05:58:18	264836	579f1d3bc9abeb0001af52d8	3	1	main_slash	7	main_slash	47	stimuli_target_trianglesquares.svg	stimuli_distractor_trianglediamonds.svg	18	yes	53	1	1107	0	0			0	0			1				0	
6.6.1	win	2023-06-02	05:53:48	05:58:18	264836	579f1d3bc9abeb0001af52d8	3	1	main_slash	7	advance_on_keypress_SLASH	48	stimuli_target_trianglesquares.svg	stimuli_distractor_trianglediamonds.svg	18	yes	57	0	718	0	0			0	0			1				0	
6.6.1	win	2023-06-02	05:53:48	05:58:21	268196	579f1d3bc9abeb0001af52d8	3	1	main_slash	7	main_slash	49	stimuli_distractor_diamondtriangles.svg	stimuli_distractor_diamondtriangles.svg	40	no	0	1	2000	0	0			0	0			1				0	
6.6.1	win	2023-06-02	05:53:48	05:58:21	268196	579f1d3bc9abeb0001af52d8	3	1	main_slash	7	advance_on_keypress_SLASH	50	stimuli_distractor_diamondtriangles.svg	stimuli_distractor_diamondtriangles.svg	40	no	57	0	624	0	0			0	0			1				0	
6.6.1	win	2023-06-02	05:53:48	05:58:24	271463	579f1d3bc9abeb0001af52d8	3	1	main_slash	7	main_slash	51	stimuli_distractor_trianglediamonds.svg	stimuli_distractor_diamondtriangles.svg	35	no	0	1	2000	0	0			0	0			1				0	
6.6.1	win	2023-06-02	05:53:48	05:58:24	271463	579f1d3bc9abeb0001af52d8	3	1	main_slash	7	advance_on_keypress_SLASH	52	stimuli_distractor_trianglediamonds.svg	stimuli_distractor_diamondtriangles.svg	35	no	57	0	501	0	0			0	0			1				0	
6.6.1	win	2023-06-02	05:53:48	05:58:27	274612	579f1d3bc9abeb0001af52d8	3	1	main_slash	7	main_slash	53	stimuli_distractor_diamondtriangles.svg	stimuli_distractor_trianglediamonds.svg	37	no	0	1	2000	0	0			0	0			1				0	
6.6.1	win	2023-06-02	05:53:48	05:58:27	274612	579f1d3bc9abeb0001af52d8	3	1	main_slash	7	advance_on_keypress_SLASH	54	stimuli_distractor_diamondtriangles.svg	stimuli_distractor_trianglediamonds.svg	37	no	57	0	447	0	0			0	0			1				0	
6.6.1	win	2023-06-02	05:53:48	05:58:29	276740	579f1d3bc9abeb0001af52d8	3	1	main_slash	7	main_slash	55	stimuli_target_squarediamonds.svg	stimuli_distractor_diamondtriangles.svg	8	yes	53	1	1028	0	0			0	0			1				0	
6.6.1	win	2023-06-02	05:53:48	05:58:29	276740	579f1d3bc9abeb0001af52d8	3	1	main_slash	7	advance_on_keypress_SLASH	56	stimuli_target_squarediamonds.svg	stimuli_distractor_diamondtriangles.svg	8	yes	57	0	547	0	0			0	0			1				0	
6.6.1	win	2023-06-02	05:53:48	05:58:33	279912	579f1d3bc9abeb0001af52d8	3	1	main_slash	7	main_slash	57	stimuli_distractor_diamondtriangles.svg	stimuli_distractor_diamondtriangles.svg	39	no	0	1	2000	0	0			0	0			1				0	
6.6.1	win	2023-06-02	05:53:48	05:58:33	279912	579f1d3bc9abeb0001af52d8	3	1	main_slash	7	advance_on_keypress_SLASH	58	stimuli_distractor_diamondtriangles.svg	stimuli_distractor_diamondtriangles.svg	39	no	57	0	363	0	0			0	0			1				0	
6.6.1	win	2023-06-02	05:53:48	05:58:35	282084	579f1d3bc9abeb0001af52d8	3	1	main_slash	7	main_slash	59	stimuli_distractor_trianglediamonds.svg	stimuli_target_diamondrectangles.svg	27	yes	53	1	1172	0	0			0	0			1				0	
6.6.1	win	2023-06-02	05:53:48	05:58:35	282084	579f1d3bc9abeb0001af52d8	3	1	main_slash	7	advance_on_keypress_SLASH	60	stimuli_distractor_trianglediamonds.svg	stimuli_target_diamondrectangles.svg	27	yes	57	0	652	0	0			0	0			1				0	
6.6.1	win	2023-06-02	05:53:48	05:58:37	284412	579f1d3bc9abeb0001af52d8	3	1	main_slash	7	main_slash	61	stimuli_distractor_trianglediamonds.svg	stimuli_target_squarediamonds.svg	12	yes	53	1	1033	0	0			0	0			1				0	
6.6.1	win	2023-06-02	05:53:48	05:58:37	284412	579f1d3bc9abeb0001af52d8	3	1	main_slash	7	advance_on_keypress_SLASH	62	stimuli_distractor_trianglediamonds.svg	stimuli_target_squarediamonds.svg	12	yes	57	0	559	0	0			0	0			1				0	
6.6.1	win	2023-06-02	05:53:48	05:58:39	286788	579f1d3bc9abeb0001af52d8	3	1	main_slash	7	main_slash	63	stimuli_distractor_diamondtriangles.svg	stimuli_target_trianglerectangles.svg	29	yes	53	1	1176	0	0			0	0			1				0	
6.6.1	win	2023-06-02	05:53:48	05:58:39	286788	579f1d3bc9abeb0001af52d8	3	1	main_slash	7	advance_on_keypress_SLASH	64	stimuli_distractor_diamondtriangles.svg	stimuli_target_trianglerectangles.svg	29	yes	57	0	441	0	0			0	0			1				0	
6.6.1	win	2023-06-02	05:53:48	05:58:42	288892	579f1d3bc9abeb0001af52d8	3	1	main_slash	7	main_slash	65	stimuli_target_squaretriangles.svg	stimuli_distractor_trianglediamonds.svg	3	yes	53	1	1030	0	0			0	0			1				0	
6.6.1	win	2023-06-02	05:53:48	05:58:42	288892	579f1d3bc9abeb0001af52d8	3	1	main_slash	7	advance_on_keypress_SLASH	66	stimuli_target_squaretriangles.svg	stimuli_distractor_trianglediamonds.svg	3	yes	57	0	509	0	0			0	0			1				0	
6.6.1	win	2023-06-02	05:53:48	05:58:45	292028	579f1d3bc9abeb0001af52d8	3	1	main_slash	7	main_slash	67	stimuli_distractor_trianglediamonds.svg	stimuli_distractor_trianglediamonds.svg	33	no	0	1	2000	0	0			0	0			1				0	
6.6.1	win	2023-06-02	05:53:48	05:58:45	292028	579f1d3bc9abeb0001af52d8	3	1	main_slash	7	advance_on_keypress_SLASH	68	stimuli_distractor_trianglediamonds.svg	stimuli_distractor_trianglediamonds.svg	33	no	57	0	471	0	0			0	0			1				0	
6.6.1	win	2023-06-02	05:53:48	05:58:47	294348	579f1d3bc9abeb0001af52d8	3	1	main_slash	7	main_slash	69	stimuli_target_diamondrectangles.svg	stimuli_distractor_diamondtriangles.svg	23	yes	53	1	1203	0	0			0	0			1				0	
6.6.1	win	2023-06-02	05:53:48	05:58:47	294348	579f1d3bc9abeb0001af52d8	3	1	main_slash	7	advance_on_keypress_SLASH	70	stimuli_target_diamondrectangles.svg	stimuli_distractor_diamondtriangles.svg	23	yes	57	0	442	0	0			0	0			1				0	
6.6.1	win	2023-06-02	05:53:48	05:58:49	296596	579f1d3bc9abeb0001af52d8	3	1	main_slash	7	main_slash	71	stimuli_distractor_diamondtriangles.svg	stimuli_target_diamondrectangles.svg	31	yes	53	1	1168	0	0			0	0			1				0	
6.6.1	win	2023-06-02	05:53:48	05:58:49	296596	579f1d3bc9abeb0001af52d8	3	1	main_slash	7	advance_on_keypress_SLASH	72	stimuli_distractor_diamondtriangles.svg	stimuli_target_diamondrectangles.svg	31	yes	57	0	897	0	0			0	0			1				0	
6.6.1	win	2023-06-02	05:53:48	05:58:52	299188	579f1d3bc9abeb0001af52d8	3	1	main_slash	7	main_slash	73	stimuli_distractor_diamondtriangles.svg	stimuli_target_squaretriangles.svg	15	yes	53	1	1060	0	0			0	0			1				0	
6.6.1	win	2023-06-02	05:53:48	05:58:52	299188	579f1d3bc9abeb0001af52d8	3	1	main_slash	7	advance_on_keypress_SLASH	74	stimuli_distractor_diamondtriangles.svg	stimuli_target_squaretriangles.svg	15	yes	57	0	617	0	0			0	0			1				0	
6.6.1	win	2023-06-02	05:53:48	05:58:54	301676	579f1d3bc9abeb0001af52d8	3	1	main_slash	7	main_slash	75	stimuli_target_diamondsquares.svg	stimuli_distractor_trianglediamonds.svg	20	yes	53	1	1231	0	0			0	0			1				0	
6.6.1	win	2023-06-02	05:53:48	05:58:54	301676	579f1d3bc9abeb0001af52d8	3	1	main_slash	7	advance_on_keypress_SLASH	76	stimuli_target_diamondsquares.svg	stimuli_distractor_trianglediamonds.svg	20	yes	57	0	526	0	0			0	0			1				0	
6.6.1	win	2023-06-02	05:53:48	05:58:57	304004	579f1d3bc9abeb0001af52d8	3	1	main_slash	7	main_slash	77	stimuli_target_rectangletriangles.svg	stimuli_distractor_diamondtriangles.svg	5	yes	53	1	1159	0	0			0	0			1				0	
6.6.1	win	2023-06-02	05:53:48	05:58:57	304004	579f1d3bc9abeb0001af52d8	3	1	main_slash	7	advance_on_keypress_SLASH	78	stimuli_target_rectangletriangles.svg	stimuli_distractor_diamondtriangles.svg	5	yes	57	0	409	0	0			0	0			1				0	
6.6.1	win	2023-06-02	05:53:48	05:58:59	306620	579f1d3bc9abeb0001af52d8	3	1	main_slash	7	main_slash	79	stimuli_distractor_trianglediamonds.svg	stimuli_distractor_diamondtriangles.svg	36	no	53	0	1575	0	0			0	0			1				0	
6.6.1	win	2023-06-02	05:53:48	05:58:59	306620	579f1d3bc9abeb0001af52d8	3	1	main_slash	7	advance_on_keypress_SLASH	80	stimuli_distractor_trianglediamonds.svg	stimuli_distractor_diamondtriangles.svg	36	no	57	0	488	0	0			0	0			1				0	
6.6.1	win	2023-06-02	05:53:48	05:59:02	308836	579f1d3bc9abeb0001af52d8	3	1	main_slash	7	main_slash	81	stimuli_distractor_trianglediamonds.svg	stimuli_target_trianglesquares.svg	26	yes	53	1	1092	0	0			0	0			1				0	
6.6.1	win	2023-06-02	05:53:48	05:59:02	308836	579f1d3bc9abeb0001af52d8	3	1	main_slash	7	advance_on_keypress_SLASH	82	stimuli_distractor_trianglediamonds.svg	stimuli_target_trianglesquares.svg	26	yes	57	0	576	0	0			0	0			1				0	
6.6.1	win	2023-06-02	05:53:48	05:59:04	311228	579f1d3bc9abeb0001af52d8	3	1	main_slash	7	main_slash	83	stimuli_target_diamondsquares.svg	stimuli_distractor_diamondtriangles.svg	24	yes	53	1	1184	0	0			0	0			1				0	
6.6.1	win	2023-06-02	05:53:48	05:59:04	311228	579f1d3bc9abeb0001af52d8	3	1	main_slash	7	advance_on_keypress_SLASH	84	stimuli_target_diamondsquares.svg	stimuli_distractor_diamondtriangles.svg	24	yes	57	0	519	0	0			0	0			1				0	
6.6.1	win	2023-06-02	05:53:48	05:59:06	313668	579f1d3bc9abeb0001af52d8	3	1	main_slash	7	main_slash	85	stimuli_target_trianglesquares.svg	stimuli_distractor_diamondtriangles.svg	22	yes	53	1	1273	0	0			0	0			1				0	
6.6.1	win	2023-06-02	05:53:48	05:59:06	313668	579f1d3bc9abeb0001af52d8	3	1	main_slash	7	advance_on_keypress_SLASH	86	stimuli_target_trianglesquares.svg	stimuli_distractor_diamondtriangles.svg	22	yes	57	0	526	0	0			0	0			1				0	
6.6.1	win	2023-06-02	05:53:48	05:59:09	316044	579f1d3bc9abeb0001af52d8	3	1	main_slash	7	main_slash	87	stimuli_distractor_trianglediamonds.svg	stimuli_distractor_trianglediamonds.svg	34	no	53	0	1216	0	0			0	0			1				0	
6.6.1	win	2023-06-02	05:53:48	05:59:09	316044	579f1d3bc9abeb0001af52d8	3	1	main_slash	7	advance_on_keypress_SLASH	88	stimuli_distractor_trianglediamonds.svg	stimuli_distractor_trianglediamonds.svg	34	no	57	0	415	0	0			0	0			1				0	
6.6.1	win	2023-06-02	05:53:48	05:59:11	318140	579f1d3bc9abeb0001af52d8	3	1	main_slash	7	main_slash	89	stimuli_target_trianglerectangles.svg	stimuli_distractor_diamondtriangles.svg	21	yes	53	1	1029	0	0			0	0			1				0	
6.6.1	win	2023-06-02	05:53:48	05:59:11	318140	579f1d3bc9abeb0001af52d8	3	1	main_slash	7	advance_on_keypress_SLASH	90	stimuli_target_trianglerectangles.svg	stimuli_distractor_diamondtriangles.svg	21	yes	57	0	476	0	0			0	0			1				0	
6.6.1	win	2023-06-02	05:53:48	05:59:13	320524	579f1d3bc9abeb0001af52d8	3	1	main_slash	7	main_slash	91	stimuli_distractor_trianglediamonds.svg	stimuli_distractor_diamondtriangles.svg	35	no	53	0	1280	0	0			0	0			1				0	
6.6.1	win	2023-06-02	05:53:48	05:59:13	320524	579f1d3bc9abeb0001af52d8	3	1	main_slash	7	advance_on_keypress_SLASH	92	stimuli_distractor_trianglediamonds.svg	stimuli_distractor_diamondtriangles.svg	35	no	57	0	837	0	0			0	0			1				0	
6.6.1	win	2023-06-02	05:53:48	05:59:16	323020	579f1d3bc9abeb0001af52d8	3	1	main_slash	7	main_slash	93	stimuli_target_squaretriangles.svg	stimuli_distractor_trianglediamonds.svg	3	yes	53	1	1026	0	0			0	0			1				0	
6.6.1	win	2023-06-02	05:53:48	05:59:16	323020	579f1d3bc9abeb0001af52d8	3	1	main_slash	7	advance_on_keypress_SLASH	94	stimuli_target_squaretriangles.svg	stimuli_distractor_trianglediamonds.svg	3	yes	57	0	425	0	0			0	0			1				0	
6.6.1	win	2023-06-02	05:53:48	05:59:18	325292	579f1d3bc9abeb0001af52d8	3	1	main_slash	7	main_slash	95	stimuli_distractor_diamondtriangles.svg	stimuli_distractor_diamondtriangles.svg	39	no	53	0	1215	0	0			0	0			1				0	
6.6.1	win	2023-06-02	05:53:48	05:59:18	325292	579f1d3bc9abeb0001af52d8	3	1	main_slash	7	advance_on_keypress_SLASH	96	stimuli_distractor_diamondtriangles.svg	stimuli_distractor_diamondtriangles.svg	39	no	57	0	349	0	0			0	0			1				0	
6.6.1	win	2023-06-02	05:53:48	05:59:20	327412	579f1d3bc9abeb0001af52d8	3	1	main_slash	7	main_slash	97	stimuli_distractor_diamondtriangles.svg	stimuli_target_trianglerectangles.svg	29	yes	53	1	1118	0	0			0	0			1				0	
6.6.1	win	2023-06-02	05:53:48	05:59:20	327412	579f1d3bc9abeb0001af52d8	3	1	main_slash	7	advance_on_keypress_SLASH	98	stimuli_distractor_diamondtriangles.svg	stimuli_target_trianglerectangles.svg	29	yes	57	0	481	0	0			0	0			1				0	
6.6.1	win	2023-06-02	05:53:48	05:59:22	329644	579f1d3bc9abeb0001af52d8	3	1	main_slash	7	main_slash	99	stimuli_distractor_diamondtriangles.svg	stimuli_target_diamondsquares.svg	32	yes	53	1	1100	0	0			0	0			1				0	
6.6.1	win	2023-06-02	05:53:48	05:59:22	329644	579f1d3bc9abeb0001af52d8	3	1	main_slash	7	advance_on_keypress_SLASH	100	stimuli_distractor_diamondtriangles.svg	stimuli_target_diamondsquares.svg	32	yes	57	0	424	0	0			0	0			1				0	
6.6.1	win	2023-06-02	05:53:48	05:59:25	332711	579f1d3bc9abeb0001af52d8	3	1	main_slash	7	main_slash	101	stimuli_distractor_diamondtriangles.svg	stimuli_target_squarediamonds.svg	16	yes	0	0	2000	0	0			0	0			1				0	
6.6.1	win	2023-06-02	05:53:48	05:59:25	332711	579f1d3bc9abeb0001af52d8	3	1	main_slash	7	advance_on_keypress_SLASH	102	stimuli_distractor_diamondtriangles.svg	stimuli_target_squarediamonds.svg	16	yes	57	0	733	0	0			0	0			1				0	
6.6.1	win	2023-06-02	05:53:48	05:59:28	335196	579f1d3bc9abeb0001af52d8	3	1	main_slash	7	main_slash	103	stimuli_target_rectangletriangles.svg	stimuli_distractor_trianglediamonds.svg	1	yes	53	1	1102	0	0			0	0			1				0	
6.6.1	win	2023-06-02	05:53:48	05:59:28	335196	579f1d3bc9abeb0001af52d8	3	1	main_slash	7	advance_on_keypress_SLASH	104	stimuli_target_rectangletriangles.svg	stimuli_distractor_trianglediamonds.svg	1	yes	57	0	546	0	0			0	0			1				0	
6.6.1	win	2023-06-02	05:53:48	05:59:30	337316	579f1d3bc9abeb0001af52d8	3	1	main_slash	7	main_slash	105	stimuli_target_rectanglediamonds.svg	stimuli_distractor_trianglediamonds.svg	2	yes	53	1	939	0	0			0	0			1				0	
6.6.1	win	2023-06-02	05:53:48	05:59:30	337316	579f1d3bc9abeb0001af52d8	3	1	main_slash	7	advance_on_keypress_SLASH	106	stimuli_target_rectanglediamonds.svg	stimuli_distractor_trianglediamonds.svg	2	yes	57	0	413	0	0			0	0			1				0	
6.6.1	win	2023-06-02	05:53:48	05:59:32	339436	579f1d3bc9abeb0001af52d8	3	1	main_slash	7	main_slash	107	stimuli_distractor_trianglediamonds.svg	stimuli_target_trianglerectangles.svg	25	yes	53	1	1076	0	0			0	0			1				0	
6.6.1	win	2023-06-02	05:53:48	05:59:32	339436	579f1d3bc9abeb0001af52d8	3	1	main_slash	7	advance_on_keypress_SLASH	108	stimuli_distractor_trianglediamonds.svg	stimuli_target_trianglerectangles.svg	25	yes	57	0	433	0	0			0	0			1				0	
6.6.1	win	2023-06-02	05:53:48	05:59:35	342510	579f1d3bc9abeb0001af52d8	3	1	main_slash	7	main_slash	109	stimuli_distractor_diamondtriangles.svg	stimuli_distractor_trianglediamonds.svg	37	no	0	1	2000	0	0			0	0			1				0	
6.6.1	win	2023-06-02	05:53:48	05:59:35	342510	579f1d3bc9abeb0001af52d8	3	1	main_slash	7	advance_on_keypress_SLASH	110	stimuli_distractor_diamondtriangles.svg	stimuli_distractor_trianglediamonds.svg	37	no	57	0	653	0	0			0	0			1				0	
6.6.1	win	2023-06-02	05:53:48	05:59:37	344516	579f1d3bc9abeb0001af52d8	3	1	main_slash	7	main_slash	111	stimuli_distractor_trianglediamonds.svg	stimuli_target_squaretriangles.svg	11	yes	53	1	706	0	0			0	0			1				0	
6.6.1	win	2023-06-02	05:53:48	05:59:37	344516	579f1d3bc9abeb0001af52d8	3	1	main_slash	7	advance_on_keypress_SLASH	112	stimuli_distractor_trianglediamonds.svg	stimuli_target_squaretriangles.svg	11	yes	57	0	661	0	0			0	0			1				0	
6.6.1	win	2023-06-02	05:53:48	05:59:39	346708	579f1d3bc9abeb0001af52d8	3	1	main_slash	7	main_slash	113	stimuli_distractor_diamondtriangles.svg	stimuli_target_squaretriangles.svg	15	yes	53	1	898	0	0			0	0			1				0	
6.6.1	win	2023-06-02	05:53:48	05:59:39	346708	579f1d3bc9abeb0001af52d8	3	1	main_slash	7	advance_on_keypress_SLASH	114	stimuli_distractor_diamondtriangles.svg	stimuli_target_squaretriangles.svg	15	yes	57	0	469	0	0			0	0			1				0	
6.6.1	win	2023-06-02	05:53:48	05:59:41	348796	579f1d3bc9abeb0001af52d8	3	1	main_slash	7	main_slash	115	stimuli_target_diamondsquares.svg	stimuli_distractor_trianglediamonds.svg	20	yes	53	1	969	0	0			0	0			1				0	
6.6.1	win	2023-06-02	05:53:48	05:59:41	348796	579f1d3bc9abeb0001af52d8	3	1	main_slash	7	advance_on_keypress_SLASH	116	stimuli_target_diamondsquares.svg	stimuli_distractor_trianglediamonds.svg	20	yes	57	0	522	0	0			0	0			1				0	
6.6.1	win	2023-06-02	05:53:48	05:59:44	350956	579f1d3bc9abeb0001af52d8	3	1	main_slash	7	main_slash	117	stimuli_target_diamondrectangles.svg	stimuli_distractor_diamondtriangles.svg	23	yes	53	1	996	0	0			0	0			1				0	
6.6.1	win	2023-06-02	05:53:48	05:59:44	350956	579f1d3bc9abeb0001af52d8	3	1	main_slash	7	advance_on_keypress_SLASH	118	stimuli_target_diamondrectangles.svg	stimuli_distractor_diamondtriangles.svg	23	yes	57	0	444	0	0			0	0			1				0	
6.6.1	win	2023-06-02	05:53:48	05:59:46	353252	579f1d3bc9abeb0001af52d8	3	1	main_slash	7	main_slash	119	stimuli_target_trianglerectangles.svg	stimuli_distractor_trianglediamonds.svg	17	yes	53	1	1226	0	0			0	0			1				0	
6.6.1	win	2023-06-02	05:53:48	05:59:46	353252	579f1d3bc9abeb0001af52d8	3	1	main_slash	7	advance_on_keypress_SLASH	120	stimuli_target_trianglerectangles.svg	stimuli_distractor_trianglediamonds.svg	17	yes	57	0	561	0	0			0	0			1				0	
6.6.1	win	2023-06-02	05:53:48	05:59:48	355404	579f1d3bc9abeb0001af52d8	3	1	main_slash	7	main_slash	121	stimuli_target_trianglesquares.svg	stimuli_distractor_trianglediamonds.svg	18	yes	53	1	961	0	0			0	0			1				0	
6.6.1	win	2023-06-02	05:53:48	05:59:48	355404	579f1d3bc9abeb0001af52d8	3	1	main_slash	7	advance_on_keypress_SLASH	122	stimuli_target_trianglesquares.svg	stimuli_distractor_trianglediamonds.svg	18	yes	57	0	467	0	0			0	0			1				0	
6.6.1	win	2023-06-02	05:53:48	05:59:51	358510	579f1d3bc9abeb0001af52d8	3	1	main_slash	7	main_slash	123	stimuli_distractor_trianglediamonds.svg	stimuli_distractor_trianglediamonds.svg	33	no	0	1	2000	0	0			0	0			1				0	
6.6.1	win	2023-06-02	05:53:48	05:59:51	358510	579f1d3bc9abeb0001af52d8	3	1	main_slash	7	advance_on_keypress_SLASH	124	stimuli_distractor_trianglediamonds.svg	stimuli_distractor_trianglediamonds.svg	33	no	57	0	390	0	0			0	0			1				0	
6.6.1	win	2023-06-02	05:53:48	05:59:53	360404	579f1d3bc9abeb0001af52d8	3	1	main_slash	7	main_slash	125	stimuli_distractor_trianglediamonds.svg	stimuli_target_squarediamonds.svg	12	yes	53	1	861	0	0			0	0			1				0	
6.6.1	win	2023-06-02	05:53:48	05:59:53	360404	579f1d3bc9abeb0001af52d8	3	1	main_slash	7	advance_on_keypress_SLASH	126	stimuli_distractor_trianglediamonds.svg	stimuli_target_squarediamonds.svg	12	yes	57	0	539	0	0			0	0			1				0	
6.6.1	win	2023-06-02	05:53:48	05:59:55	362356	579f1d3bc9abeb0001af52d8	3	1	main_slash	7	main_slash	127	stimuli_distractor_trianglediamonds.svg	stimuli_target_rectangletriangles.svg	9	yes	53	1	780	0	0			0	0			1				0	
6.6.1	win	2023-06-02	05:53:48	05:59:55	362356	579f1d3bc9abeb0001af52d8	3	1	main_slash	7	advance_on_keypress_SLASH	128	stimuli_distractor_trianglediamonds.svg	stimuli_target_rectangletriangles.svg	9	yes	57	0	413	0	0			0	0			1				0	
6.6.1	win	2023-06-02	05:53:48	05:59:57	364116	579f1d3bc9abeb0001af52d8	3	1	main_slash	7	main_slash	129	stimuli_target_squarediamonds.svg	stimuli_distractor_trianglediamonds.svg	4	yes	53	1	724	0	0			0	0			1				0	
6.6.1	win	2023-06-02	05:53:48	05:59:57	364116	579f1d3bc9abeb0001af52d8	3	1	main_slash	7	advance_on_keypress_SLASH	130	stimuli_target_squarediamonds.svg	stimuli_distractor_trianglediamonds.svg	4	yes	57	0	462	0	0			0	0			1				0	
6.6.1	win	2023-06-02	05:53:48	05:59:59	366092	579f1d3bc9abeb0001af52d8	3	1	main_slash	7	main_slash	131	stimuli_distractor_diamondtriangles.svg	stimuli_target_rectangletriangles.svg	13	yes	53	1	883	0	0			0	0			1				0	
6.6.1	win	2023-06-02	05:53:48	05:59:59	366092	579f1d3bc9abeb0001af52d8	3	1	main_slash	7	advance_on_keypress_SLASH	132	stimuli_distractor_diamondtriangles.svg	stimuli_target_rectangletriangles.svg	13	yes	57	0	439	0	0			0	0			1				0	
6.6.1	win	2023-06-02	05:53:48	06:00:02	369176	579f1d3bc9abeb0001af52d8	3	1	main_slash	7	main_slash	133	stimuli_distractor_diamondtriangles.svg	stimuli_distractor_trianglediamonds.svg	38	no	0	1	2000	0	0			0	0			1				0	
6.6.1	win	2023-06-02	05:53:48	06:00:02	369176	579f1d3bc9abeb0001af52d8	3	1	main_slash	7	advance_on_keypress_SLASH	134	stimuli_distractor_diamondtriangles.svg	stimuli_distractor_trianglediamonds.svg	38	no	57	0	308	0	0			0	0			1				0	
6.6.1	win	2023-06-02	05:53:48	06:00:04	371388	579f1d3bc9abeb0001af52d8	3	1	main_slash	7	main_slash	135	stimuli_distractor_trianglediamonds.svg	stimuli_distractor_diamondtriangles.svg	36	no	53	0	1262	0	0			0	0			1				0	
6.6.1	win	2023-06-02	05:53:48	06:00:04	371388	579f1d3bc9abeb0001af52d8	3	1	main_slash	7	advance_on_keypress_SLASH	136	stimuli_distractor_trianglediamonds.svg	stimuli_distractor_diamondtriangles.svg	36	no	57	0	480	0	0			0	0			1				0	
6.6.1	win	2023-06-02	05:53:48	06:00:06	373780	579f1d3bc9abeb0001af52d8	3	1	main_slash	7	main_slash	137	stimuli_target_diamondrectangles.svg	stimuli_distractor_trianglediamonds.svg	19	yes	53	1	1288	0	0			0	0			1				0	
6.6.1	win	2023-06-02	05:53:48	06:00:06	373780	579f1d3bc9abeb0001af52d8	3	1	main_slash	7	advance_on_keypress_SLASH	138	stimuli_target_diamondrectangles.svg	stimuli_distractor_trianglediamonds.svg	19	yes	57	0	411	0	0			0	0			1				0	
6.6.1	win	2023-06-02	05:53:48	06:00:08	375764	579f1d3bc9abeb0001af52d8	3	1	main_slash	7	main_slash	139	stimuli_target_rectanglediamonds.svg	stimuli_distractor_diamondtriangles.svg	6	yes	53	1	939	0	0			0	0			1				0	
6.6.1	win	2023-06-02	05:53:48	06:00:08	375764	579f1d3bc9abeb0001af52d8	3	1	main_slash	7	advance_on_keypress_SLASH	140	stimuli_target_rectanglediamonds.svg	stimuli_distractor_diamondtriangles.svg	6	yes	57	0	460	0	0			0	0			1				0	
6.6.1	win	2023-06-02	05:53:48	06:00:11	377844	579f1d3bc9abeb0001af52d8	3	1	main_slash	7	main_slash	141	stimuli_distractor_diamondtriangles.svg	stimuli_target_rectanglediamonds.svg	14	yes	53	1	985	0	0			0	0			1				0	
6.6.1	win	2023-06-02	05:53:48	06:00:11	377844	579f1d3bc9abeb0001af52d8	3	1	main_slash	7	advance_on_keypress_SLASH	142	stimuli_distractor_diamondtriangles.svg	stimuli_target_rectanglediamonds.svg	14	yes	57	0	377	0	0			0	0			1				0	
6.6.1	win	2023-06-02	05:53:48	06:00:13	379828	579f1d3bc9abeb0001af52d8	3	1	main_slash	7	main_slash	143	stimuli_distractor_trianglediamonds.svg	stimuli_target_diamondsquares.svg	28	yes	53	1	969	0	0			0	0			1				0	
6.6.1	win	2023-06-02	05:53:48	06:00:13	379828	579f1d3bc9abeb0001af52d8	3	1	main_slash	7	advance_on_keypress_SLASH	144	stimuli_distractor_trianglediamonds.svg	stimuli_target_diamondsquares.svg	28	yes	57	0	394	0	0			0	0			1				0	
6.6.1	win	2023-06-02	05:53:48	06:00:14	381780	579f1d3bc9abeb0001af52d8	3	1	main_slash	7	main_slash	145	stimuli_target_rectangletriangles.svg	stimuli_distractor_diamondtriangles.svg	5	yes	53	1	921	0	0			0	0			1				0	
6.6.1	win	2023-06-02	05:53:48	06:00:14	381780	579f1d3bc9abeb0001af52d8	3	1	main_slash	7	advance_on_keypress_SLASH	146	stimuli_target_rectangletriangles.svg	stimuli_distractor_diamondtriangles.svg	5	yes	57	0	444	0	0			0	0			1				0	
6.6.1	win	2023-06-02	05:53:48	06:00:16	383732	579f1d3bc9abeb0001af52d8	3	1	main_slash	7	main_slash	147	stimuli_distractor_diamondtriangles.svg	stimuli_target_trianglesquares.svg	30	yes	53	1	873	0	0			0	0			1				0	
6.6.1	win	2023-06-02	05:53:48	06:00:16	383732	579f1d3bc9abeb0001af52d8	3	1	main_slash	7	advance_on_keypress_SLASH	148	stimuli_distractor_diamondtriangles.svg	stimuli_target_trianglesquares.svg	30	yes	57	0	430	0	0			0	0			1				0	
6.6.1	win	2023-06-02	05:53:48	06:00:18	385748	579f1d3bc9abeb0001af52d8	3	1	main_slash	7	main_slash	149	stimuli_distractor_trianglediamonds.svg	stimuli_target_rectanglediamonds.svg	10	yes	53	1	939	0	0			0	0			1				0	
6.6.1	win	2023-06-02	05:53:48	06:00:18	385748	579f1d3bc9abeb0001af52d8	3	1	main_slash	7	advance_on_keypress_SLASH	150	stimuli_distractor_trianglediamonds.svg	stimuli_target_rectanglediamonds.svg	10	yes	57	0	510	0	0			0	0			1				0	
6.6.1	win	2023-06-02	05:53:48	06:00:22	388892	579f1d3bc9abeb0001af52d8	3	1	main_slash	7	main_slash	151	stimuli_distractor_diamondtriangles.svg	stimuli_distractor_diamondtriangles.svg	40	no	0	1	2000	0	0			0	0			1				0	
6.6.1	win	2023-06-02	05:53:48	06:00:22	388892	579f1d3bc9abeb0001af52d8	3	1	main_slash	7	advance_on_keypress_SLASH	152	stimuli_distractor_diamondtriangles.svg	stimuli_distractor_diamondtriangles.svg	40	no	57	0	520	0	0			0	0			1				0	
6.6.1	win	2023-06-02	05:53:48	06:00:24	391004	579f1d3bc9abeb0001af52d8	3	1	main_slash	7	main_slash	153	stimuli_distractor_diamondtriangles.svg	stimuli_target_diamondrectangles.svg	31	yes	53	1	945	0	0			0	0			1				0	
6.6.1	win	2023-06-02	05:53:48	06:00:24	391004	579f1d3bc9abeb0001af52d8	3	1	main_slash	7	advance_on_keypress_SLASH	154	stimuli_distractor_diamondtriangles.svg	stimuli_target_diamondrectangles.svg	31	yes	57	0	700	0	0			0	0			1				0	
6.6.1	win	2023-06-02	05:53:48	06:00:26	393260	579f1d3bc9abeb0001af52d8	3	1	main_slash	7	main_slash	155	stimuli_target_squaretriangles.svg	stimuli_distractor_diamondtriangles.svg	7	yes	53	1	918	0	0			0	0			1				0	
6.6.1	win	2023-06-02	05:53:48	06:00:26	393260	579f1d3bc9abeb0001af52d8	3	1	main_slash	7	advance_on_keypress_SLASH	156	stimuli_target_squaretriangles.svg	stimuli_distractor_diamondtriangles.svg	7	yes	57	0	345	0	0			0	0			1				0	
6.6.1	win	2023-06-02	05:53:48	06:00:28	395164	579f1d3bc9abeb0001af52d8	3	1	main_slash	7	main_slash	157	stimuli_target_squarediamonds.svg	stimuli_distractor_diamondtriangles.svg	8	yes	53	1	922	0	0			0	0			1				0	
6.6.1	win	2023-06-02	05:53:48	06:00:28	395164	579f1d3bc9abeb0001af52d8	3	1	main_slash	7	advance_on_keypress_SLASH	158	stimuli_target_squarediamonds.svg	stimuli_distractor_diamondtriangles.svg	8	yes	57	0	565	0	0			0	0			1				0	
6.6.1	win	2023-06-02	05:53:48	06:00:30	397404	579f1d3bc9abeb0001af52d8	3	1	main_slash	7	main_slash	159	stimuli_distractor_trianglediamonds.svg	stimuli_target_diamondrectangles.svg	27	yes	53	1	1029	0	0			0	0			1				0	
6.6.1	win	2023-06-02	05:53:48	06:00:30	397404	579f1d3bc9abeb0001af52d8	3	1	main_slash	7	advance_on_keypress_SLASH	160	stimuli_distractor_trianglediamonds.svg	stimuli_target_diamondrectangles.svg	27	yes	57	0	516	0	0			0	0			1				0	
6.6.1	win	2023-06-02	05:53:48	06:00:53	419805	579f1d3bc9abeb0001af52d8	3	1	practice_z	9	practice_z	1	stimuli_target_squarediamonds.svg	stimuli_distractor_diamondtriangles.svg	2	yes	44	1	613	0	0			0	0			1				0	
6.6.1	win	2023-06-02	05:53:48	06:00:53	419805	579f1d3bc9abeb0001af52d8	3	1	practice_z	9	advance_on_keypress_ZEE	2	stimuli_target_squarediamonds.svg	stimuli_distractor_diamondtriangles.svg	2	yes	57	0	603	0	0			0	0			1				0	
6.6.1	win	2023-06-02	05:53:48	06:00:57	424059	579f1d3bc9abeb0001af52d8	3	1	practice_z	9	practice_z	3	stimuli_distractor_diamondtriangles.svg	stimuli_distractor_diamondtriangles.svg	13	no	0	1	2000	0	0			0	0			1				0	
6.6.1	win	2023-06-02	05:53:48	06:00:57	424059	579f1d3bc9abeb0001af52d8	3	1	practice_z	9	advance_on_keypress_ZEE	4	stimuli_distractor_diamondtriangles.svg	stimuli_distractor_diamondtriangles.svg	13	no	57	0	513	0	0			0	0			1				0	
6.6.1	win	2023-06-02	05:53:48	06:01:00	427645	579f1d3bc9abeb0001af52d8	3	1	practice_z	9	practice_z	5	stimuli_distractor_diamondtriangles.svg	stimuli_target_diamondrectangles.svg	8	yes	44	1	1420	0	0			0	0			1				0	
6.6.1	win	2023-06-02	05:53:48	06:01:00	427645	579f1d3bc9abeb0001af52d8	3	1	practice_z	9	advance_on_keypress_ZEE	6	stimuli_distractor_diamondtriangles.svg	stimuli_target_diamondrectangles.svg	8	yes	57	0	555	0	0			0	0			1				0	
6.6.1	win	2023-06-02	05:53:48	06:01:03	430710	579f1d3bc9abeb0001af52d8	3	1	practice_z	9	practice_z	7	stimuli_target_squarediamonds.svg	stimuli_distractor_trianglediamonds.svg	5	yes	44	1	867	0	0			0	0			1				0	
6.6.1	win	2023-06-02	05:53:48	06:01:03	430710	579f1d3bc9abeb0001af52d8	3	1	practice_z	9	advance_on_keypress_ZEE	8	stimuli_target_squarediamonds.svg	stimuli_distractor_trianglediamonds.svg	5	yes	57	0	472	0	0			0	0			1				0	
6.6.1	win	2023-06-02	05:53:48	06:01:07	433861	579f1d3bc9abeb0001af52d8	3	1	practice_z	9	practice_z	9	stimuli_distractor_diamondtriangles.svg	stimuli_target_trianglerectangles.svg	9	yes	44	1	1036	0	0			0	0			1				0	
6.6.1	win	2023-06-02	05:53:48	06:01:07	433861	579f1d3bc9abeb0001af52d8	3	1	practice_z	9	advance_on_keypress_ZEE	10	stimuli_distractor_diamondtriangles.svg	stimuli_target_trianglerectangles.svg	9	yes	57	0	466	0	0			0	0			1				0	
6.6.1	win	2023-06-02	05:53:48	06:01:11	437975	579f1d3bc9abeb0001af52d8	3	1	practice_z	9	practice_z	11	stimuli_distractor_diamondtriangles.svg	stimuli_distractor_trianglediamonds.svg	14	no	0	1	2000	0	0			0	0			1				0	
6.6.1	win	2023-06-02	05:53:48	06:01:11	437975	579f1d3bc9abeb0001af52d8	3	1	practice_z	9	advance_on_keypress_ZEE	12	stimuli_distractor_diamondtriangles.svg	stimuli_distractor_trianglediamonds.svg	14	no	57	0	565	0	0			0	0			1				0	
6.6.1	win	2023-06-02	05:53:48	06:01:14	441182	579f1d3bc9abeb0001af52d8	3	1	practice_z	9	practice_z	13	stimuli_target_rectanglediamonds.svg	stimuli_distractor_trianglediamonds.svg	4	yes	44	1	989	0	0			0	0			1				0	
6.6.1	win	2023-06-02	05:53:48	06:01:14	441182	579f1d3bc9abeb0001af52d8	3	1	practice_z	9	advance_on_keypress_ZEE	14	stimuli_target_rectanglediamonds.svg	stimuli_distractor_trianglediamonds.svg	4	yes	57	0	502	0	0			0	0			1				0	
6.6.1	win	2023-06-02	05:53:48	06:01:17	444182	579f1d3bc9abeb0001af52d8	3	1	practice_z	9	practice_z	15	stimuli_distractor_trianglediamonds.svg	stimuli_target_squarediamonds.svg	11	yes	44	1	857	0	0			0	0			1				0	
6.6.1	win	2023-06-02	05:53:48	06:01:17	444182	579f1d3bc9abeb0001af52d8	3	1	practice_z	9	advance_on_keypress_ZEE	16	stimuli_distractor_trianglediamonds.svg	stimuli_target_squarediamonds.svg	11	yes	57	0	598	0	0			0	0			1				0	
6.6.1	win	2023-06-02	05:53:48	06:01:20	447285	579f1d3bc9abeb0001af52d8	3	1	practice_z	9	practice_z	17	stimuli_distractor_trianglediamonds.svg	stimuli_target_diamondrectangles.svg	12	yes	44	1	861	0	0			0	0			1				0	
6.6.1	win	2023-06-02	05:53:48	06:01:20	447285	579f1d3bc9abeb0001af52d8	3	1	practice_z	9	advance_on_keypress_ZEE	18	stimuli_distractor_trianglediamonds.svg	stimuli_target_diamondrectangles.svg	12	yes	57	0	498	0	0			0	0			1				0	
6.6.1	win	2023-06-02	05:53:48	06:01:24	451424	579f1d3bc9abeb0001af52d8	3	1	practice_z	9	practice_z	19	stimuli_distractor_trianglediamonds.svg	stimuli_distractor_diamondtriangles.svg	16	no	0	1	2000	0	0			0	0			1				0	
6.6.1	win	2023-06-02	05:53:48	06:01:24	451424	579f1d3bc9abeb0001af52d8	3	1	practice_z	9	advance_on_keypress_ZEE	20	stimuli_distractor_trianglediamonds.svg	stimuli_distractor_diamondtriangles.svg	16	no	57	0	564	0	0			0	0			1				0	
6.6.1	win	2023-06-02	05:53:48	06:01:27	454542	579f1d3bc9abeb0001af52d8	3	1	practice_z	9	practice_z	21	stimuli_distractor_trianglediamonds.svg	stimuli_target_rectanglediamonds.svg	10	yes	44	1	900	0	0			0	0			1				0	
6.6.1	win	2023-06-02	05:53:48	06:01:27	454542	579f1d3bc9abeb0001af52d8	3	1	practice_z	9	advance_on_keypress_ZEE	22	stimuli_distractor_trianglediamonds.svg	stimuli_target_rectanglediamonds.svg	10	yes	57	0	487	0	0			0	0			1				0	
6.6.1	win	2023-06-02	05:53:48	06:01:31	458674	579f1d3bc9abeb0001af52d8	3	1	practice_z	9	practice_z	23	stimuli_distractor_trianglediamonds.svg	stimuli_distractor_trianglediamonds.svg	15	no	0	1	2000	0	0			0	0			1				0	
6.6.1	win	2023-06-02	05:53:48	06:01:31	458674	579f1d3bc9abeb0001af52d8	3	1	practice_z	9	advance_on_keypress_ZEE	24	stimuli_distractor_trianglediamonds.svg	stimuli_distractor_trianglediamonds.svg	15	no	57	0	490	0	0			0	0			1				0	
6.6.1	win	2023-06-02	05:53:48	06:01:34	461781	579f1d3bc9abeb0001af52d8	3	1	practice_z	9	practice_z	25	stimuli_target_diamondsquares.svg	stimuli_distractor_diamondtriangles.svg	3	yes	44	1	974	0	0			0	0			1				0	
6.6.1	win	2023-06-02	05:53:48	06:01:34	461781	579f1d3bc9abeb0001af52d8	3	1	practice_z	9	advance_on_keypress_ZEE	26	stimuli_target_diamondsquares.svg	stimuli_distractor_diamondtriangles.svg	3	yes	57	0	519	0	0			0	0			1				0	
6.6.1	win	2023-06-02	05:53:48	06:01:38	464813	579f1d3bc9abeb0001af52d8	3	1	practice_z	9	practice_z	27	stimuli_target_rectanglediamonds.svg	stimuli_distractor_diamondtriangles.svg	1	yes	44	1	872	0	0			0	0			1				0	
6.6.1	win	2023-06-02	05:53:48	06:01:38	464813	579f1d3bc9abeb0001af52d8	3	1	practice_z	9	advance_on_keypress_ZEE	28	stimuli_target_rectanglediamonds.svg	stimuli_distractor_diamondtriangles.svg	1	yes	57	0	485	0	0			0	0			1				0	
6.6.1	win	2023-06-02	05:53:48	06:01:41	467909	579f1d3bc9abeb0001af52d8	3	1	practice_z	9	practice_z	29	stimuli_distractor_diamondtriangles.svg	stimuli_target_rectangletriangles.svg	7	yes	44	1	969	0	0			0	0			1				0	
6.6.1	win	2023-06-02	05:53:48	06:01:41	467909	579f1d3bc9abeb0001af52d8	3	1	practice_z	9	advance_on_keypress_ZEE	30	stimuli_distractor_diamondtriangles.svg	stimuli_target_rectangletriangles.svg	7	yes	57	0	473	0	0			0	0			1				0	
6.6.1	win	2023-06-02	05:53:48	06:01:44	471014	579f1d3bc9abeb0001af52d8	3	1	practice_z	9	practice_z	31	stimuli_target_diamondsquares.svg	stimuli_distractor_trianglediamonds.svg	6	yes	44	1	989	0	0			0	0			1				0	
6.6.1	win	2023-06-02	05:53:48	06:01:44	471014	579f1d3bc9abeb0001af52d8	3	1	practice_z	9	advance_on_keypress_ZEE	32	stimuli_target_diamondsquares.svg	stimuli_distractor_trianglediamonds.svg	6	yes	57	0	486	0	0			0	0			1				0	
6.6.1	win	2023-06-02	05:53:48	06:01:47	474764	579f1d3bc9abeb0001af52d8	3	1	main_z	11	main_z	1	stimuli_target_trianglerectangles.svg	stimuli_distractor_diamondtriangles.svg	21	yes	44	1	708	0	0			0	0			1				0	
6.6.1	win	2023-06-02	05:53:48	06:01:47	474764	579f1d3bc9abeb0001af52d8	3	1	main_z	11	advance_on_keypress_ZEE	2	stimuli_target_trianglerectangles.svg	stimuli_distractor_diamondtriangles.svg	21	yes	57	0	1128	0	0			0	0			1				0	
6.6.1	win	2023-06-02	05:53:48	06:01:50	477276	579f1d3bc9abeb0001af52d8	3	1	main_z	11	main_z	3	stimuli_distractor_trianglediamonds.svg	stimuli_target_trianglesquares.svg	26	yes	44	1	737	0	0			0	0			1				0	
6.6.1	win	2023-06-02	05:53:48	06:01:50	477276	579f1d3bc9abeb0001af52d8	3	1	main_z	11	advance_on_keypress_ZEE	4	stimuli_distractor_trianglediamonds.svg	stimuli_target_trianglesquares.svg	26	yes	57	0	787	0	0			0	0			1				0	
6.6.1	win	2023-06-02	05:53:48	06:01:52	479556	579f1d3bc9abeb0001af52d8	3	1	main_z	11	main_z	5	stimuli_distractor_diamondtriangles.svg	stimuli_target_squarediamonds.svg	16	yes	44	1	850	0	0			0	0			1				0	
6.6.1	win	2023-06-02	05:53:48	06:01:52	479556	579f1d3bc9abeb0001af52d8	3	1	main_z	11	advance_on_keypress_ZEE	6	stimuli_distractor_diamondtriangles.svg	stimuli_target_squarediamonds.svg	16	yes	57	0	752	0	0			0	0			1				0	
6.6.1	win	2023-06-02	05:53:48	06:01:54	481700	579f1d3bc9abeb0001af52d8	3	1	main_z	11	main_z	7	stimuli_target_trianglerectangles.svg	stimuli_distractor_trianglediamonds.svg	17	yes	44	1	745	0	0			0	0			1				0	
6.6.1	win	2023-06-02	05:53:48	06:01:54	481700	579f1d3bc9abeb0001af52d8	3	1	main_z	11	advance_on_keypress_ZEE	8	stimuli_target_trianglerectangles.svg	stimuli_distractor_trianglediamonds.svg	17	yes	57	0	619	0	0			0	0			1				0	
6.6.1	win	2023-06-02	05:53:48	06:01:58	484956	579f1d3bc9abeb0001af52d8	3	1	main_z	11	main_z	9	stimuli_distractor_diamondtriangles.svg	stimuli_distractor_trianglediamonds.svg	38	no	0	1	2000	0	0			0	0			1				0	
6.6.1	win	2023-06-02	05:53:48	06:01:58	484956	579f1d3bc9abeb0001af52d8	3	1	main_z	11	advance_on_keypress_ZEE	10	stimuli_distractor_diamondtriangles.svg	stimuli_distractor_trianglediamonds.svg	38	no	57	0	480	0	0			0	0			1				0	
6.6.1	win	2023-06-02	05:53:48	06:02:01	488072	579f1d3bc9abeb0001af52d8	3	1	main_z	11	main_z	11	stimuli_distractor_trianglediamonds.svg	stimuli_distractor_trianglediamonds.svg	34	no	0	1	2000	0	0			0	0			1				0	
6.6.1	win	2023-06-02	05:53:48	06:02:01	488072	579f1d3bc9abeb0001af52d8	3	1	main_z	11	advance_on_keypress_ZEE	12	stimuli_distractor_trianglediamonds.svg	stimuli_distractor_trianglediamonds.svg	34	no	57	0	467	0	0			0	0			1				0	
6.6.1	win	2023-06-02	05:53:48	06:02:03	489852	579f1d3bc9abeb0001af52d8	3	1	main_z	11	main_z	13	stimuli_target_squaretriangles.svg	stimuli_distractor_diamondtriangles.svg	7	yes	44	1	663	0	0			0	0			1				0	
6.6.1	win	2023-06-02	05:53:48	06:02:03	489852	579f1d3bc9abeb0001af52d8	3	1	main_z	11	advance_on_keypress_ZEE	14	stimuli_target_squaretriangles.svg	stimuli_distractor_diamondtriangles.svg	7	yes	57	0	1069	0	0			0	0			1				0	
6.6.1	win	2023-06-02	05:53:48	06:02:05	492564	579f1d3bc9abeb0001af52d8	3	1	main_z	11	main_z	15	stimuli_distractor_trianglediamonds.svg	stimuli_target_diamondsquares.svg	28	yes	44	1	1008	0	0			0	0			1				0	
6.6.1	win	2023-06-02	05:53:48	06:02:05	492564	579f1d3bc9abeb0001af52d8	3	1	main_z	11	advance_on_keypress_ZEE	16	stimuli_distractor_trianglediamonds.svg	stimuli_target_diamondsquares.svg	28	yes	57	0	704	0	0			0	0			1				0	
6.6.1	win	2023-06-02	05:53:48	06:02:08	495044	579f1d3bc9abeb0001af52d8	3	1	main_z	11	main_z	17	stimuli_target_squarediamonds.svg	stimuli_distractor_diamondtriangles.svg	8	yes	44	1	1139	0	0			0	0			1				0	
6.6.1	win	2023-06-02	05:53:48	06:02:08	495044	579f1d3bc9abeb0001af52d8	3	1	main_z	11	advance_on_keypress_ZEE	18	stimuli_target_squarediamonds.svg	stimuli_distractor_diamondtriangles.svg	8	yes	57	0	733	0	0			0	0			1				0	
6.6.1	win	2023-06-02	05:53:48	06:02:10	497444	579f1d3bc9abeb0001af52d8	3	1	main_z	11	main_z	19	stimuli_distractor_trianglediamonds.svg	stimuli_target_diamondrectangles.svg	27	yes	44	1	1022	0	0			0	0			1				0	
6.6.1	win	2023-06-02	05:53:48	06:02:10	497444	579f1d3bc9abeb0001af52d8	3	1	main_z	11	advance_on_keypress_ZEE	20	stimuli_distractor_trianglediamonds.svg	stimuli_target_diamondrectangles.svg	27	yes	57	0	709	0	0			0	0			1				0	
6.6.1	win	2023-06-02	05:53:48	06:02:12	499780	579f1d3bc9abeb0001af52d8	3	1	main_z	11	main_z	21	stimuli_target_diamondsquares.svg	stimuli_distractor_trianglediamonds.svg	20	yes	44	1	992	0	0			0	0			1				0	
6.6.1	win	2023-06-02	05:53:48	06:02:12	499780	579f1d3bc9abeb0001af52d8	3	1	main_z	11	advance_on_keypress_ZEE	22	stimuli_target_diamondsquares.svg	stimuli_distractor_trianglediamonds.svg	20	yes	57	0	528	0	0			0	0			1				0	
6.6.1	win	2023-06-02	05:53:48	06:02:14	501796	579f1d3bc9abeb0001af52d8	3	1	main_z	11	main_z	23	stimuli_distractor_trianglediamonds.svg	stimuli_target_rectangletriangles.svg	9	yes	44	1	858	0	0			0	0			1				0	
6.6.1	win	2023-06-02	05:53:48	06:02:14	501796	579f1d3bc9abeb0001af52d8	3	1	main_z	11	advance_on_keypress_ZEE	24	stimuli_distractor_trianglediamonds.svg	stimuli_target_rectangletriangles.svg	9	yes	57	0	527	0	0			0	0			1				0	
6.6.1	win	2023-06-02	05:53:48	06:02:16	503788	579f1d3bc9abeb0001af52d8	3	1	main_z	11	main_z	25	stimuli_target_squarediamonds.svg	stimuli_distractor_trianglediamonds.svg	4	yes	44	1	833	0	0			0	0			1				0	
6.6.1	win	2023-06-02	05:53:48	06:02:16	503788	579f1d3bc9abeb0001af52d8	3	1	main_z	11	advance_on_keypress_ZEE	26	stimuli_target_squarediamonds.svg	stimuli_distractor_trianglediamonds.svg	4	yes	57	0	559	0	0			0	0			1				0	
6.6.1	win	2023-06-02	05:53:48	06:02:18	505604	579f1d3bc9abeb0001af52d8	3	1	main_z	11	main_z	27	stimuli_distractor_trianglediamonds.svg	stimuli_target_squarediamonds.svg	12	yes	44	1	616	0	0			0	0			1				0	
6.6.1	win	2023-06-02	05:53:48	06:02:18	505604	579f1d3bc9abeb0001af52d8	3	1	main_z	11	advance_on_keypress_ZEE	28	stimuli_distractor_trianglediamonds.svg	stimuli_target_squarediamonds.svg	12	yes	57	0	870	0	0			0	0			1				0	
6.6.1	win	2023-06-02	05:53:48	06:02:20	507716	579f1d3bc9abeb0001af52d8	3	1	main_z	11	main_z	29	stimuli_target_rectanglediamonds.svg	stimuli_distractor_trianglediamonds.svg	2	yes	44	1	594	0	0			0	0			1				0	
6.6.1	win	2023-06-02	05:53:48	06:02:20	507716	579f1d3bc9abeb0001af52d8	3	1	main_z	11	advance_on_keypress_ZEE	30	stimuli_target_rectanglediamonds.svg	stimuli_distractor_trianglediamonds.svg	2	yes	57	0	643	0	0			0	0			1				0	
6.6.1	win	2023-06-02	05:53:48	06:02:23	509820	579f1d3bc9abeb0001af52d8	3	1	main_z	11	main_z	31	stimuli_target_diamondrectangles.svg	stimuli_distractor_diamondtriangles.svg	23	yes	44	1	832	0	0			0	0			1				0	
6.6.1	win	2023-06-02	05:53:48	06:02:23	509820	579f1d3bc9abeb0001af52d8	3	1	main_z	11	advance_on_keypress_ZEE	32	stimuli_target_diamondrectangles.svg	stimuli_distractor_diamondtriangles.svg	23	yes	57	0	582	0	0			0	0			1				0	
6.6.1	win	2023-06-02	05:53:48	06:02:25	512132	579f1d3bc9abeb0001af52d8	3	1	main_z	11	main_z	33	stimuli_distractor_diamondtriangles.svg	stimuli_distractor_trianglediamonds.svg	37	no	44	0	1077	0	0			0	0			1				0	
6.6.1	win	2023-06-02	05:53:48	06:02:25	512132	579f1d3bc9abeb0001af52d8	3	1	main_z	11	advance_on_keypress_ZEE	34	stimuli_distractor_diamondtriangles.svg	stimuli_distractor_trianglediamonds.svg	37	no	57	0	490	0	0			0	0			1				0	
6.6.1	win	2023-06-02	05:53:48	06:02:28	515254	579f1d3bc9abeb0001af52d8	3	1	main_z	11	main_z	35	stimuli_distractor_trianglediamonds.svg	stimuli_distractor_diamondtriangles.svg	36	no	0	1	2000	0	0			0	0			1				0	
6.6.1	win	2023-06-02	05:53:48	06:02:28	515254	579f1d3bc9abeb0001af52d8	3	1	main_z	11	advance_on_keypress_ZEE	36	stimuli_distractor_trianglediamonds.svg	stimuli_distractor_diamondtriangles.svg	36	no	57	0	373	0	0			0	0			1				0	
6.6.1	win	2023-06-02	05:53:48	06:02:30	516868	579f1d3bc9abeb0001af52d8	3	1	main_z	11	main_z	37	stimuli_distractor_trianglediamonds.svg	stimuli_target_rectanglediamonds.svg	10	yes	44	1	597	0	0			0	0			1				0	
6.6.1	win	2023-06-02	05:53:48	06:02:30	516868	579f1d3bc9abeb0001af52d8	3	1	main_z	11	advance_on_keypress_ZEE	38	stimuli_distractor_trianglediamonds.svg	stimuli_target_rectanglediamonds.svg	10	yes	57	0	724	0	0			0	0			1				0	
6.6.1	win	2023-06-02	05:53:48	06:02:32	519052	579f1d3bc9abeb0001af52d8	3	1	main_z	11	main_z	39	stimuli_target_diamondrectangles.svg	stimuli_distractor_trianglediamonds.svg	19	yes	44	1	814	0	0			0	0			1				0	
6.6.1	win	2023-06-02	05:53:48	06:02:32	519052	579f1d3bc9abeb0001af52d8	3	1	main_z	11	advance_on_keypress_ZEE	40	stimuli_target_diamondrectangles.svg	stimuli_distractor_trianglediamonds.svg	19	yes	57	0	645	0	0			0	0			1				0	
6.6.1	win	2023-06-02	05:53:48	06:02:34	521108	579f1d3bc9abeb0001af52d8	3	1	main_z	11	main_z	41	stimuli_target_diamondsquares.svg	stimuli_distractor_diamondtriangles.svg	24	yes	44	1	771	0	0			0	0			1				0	
6.6.1	win	2023-06-02	05:53:48	06:02:34	521108	579f1d3bc9abeb0001af52d8	3	1	main_z	11	advance_on_keypress_ZEE	42	stimuli_target_diamondsquares.svg	stimuli_distractor_diamondtriangles.svg	24	yes	57	0	507	0	0			0	0			1				0	
6.6.1	win	2023-06-02	05:53:48	06:02:36	523036	579f1d3bc9abeb0001af52d8	3	1	main_z	11	main_z	43	stimuli_distractor_diamondtriangles.svg	stimuli_target_rectangletriangles.svg	13	yes	44	1	782	0	0			0	0			1				0	
6.6.1	win	2023-06-02	05:53:48	06:02:36	523036	579f1d3bc9abeb0001af52d8	3	1	main_z	11	advance_on_keypress_ZEE	44	stimuli_distractor_diamondtriangles.svg	stimuli_target_rectangletriangles.svg	13	yes	57	0	453	0	0			0	0			1				0	
6.6.1	win	2023-06-02	05:53:48	06:02:39	526137	579f1d3bc9abeb0001af52d8	3	1	main_z	11	main_z	45	stimuli_distractor_diamondtriangles.svg	stimuli_distractor_diamondtriangles.svg	39	no	0	1	2000	0	0			0	0			1				0	
6.6.1	win	2023-06-02	05:53:48	06:02:39	526137	579f1d3bc9abeb0001af52d8	3	1	main_z	11	advance_on_keypress_ZEE	46	stimuli_distractor_diamondtriangles.svg	stimuli_distractor_diamondtriangles.svg	39	no	57	0	482	0	0			0	0			1				0	
6.6.1	win	2023-06-02	05:53:48	06:02:41	528356	579f1d3bc9abeb0001af52d8	3	1	main_z	11	main_z	47	stimuli_distractor_diamondtriangles.svg	stimuli_target_diamondrectangles.svg	31	yes	44	1	1085	0	0			0	0			1				0	
6.6.1	win	2023-06-02	05:53:48	06:02:41	528356	579f1d3bc9abeb0001af52d8	3	1	main_z	11	advance_on_keypress_ZEE	48	stimuli_distractor_diamondtriangles.svg	stimuli_target_diamondrectangles.svg	31	yes	57	0	521	0	0			0	0			1				0	
6.6.1	win	2023-06-02	05:53:48	06:02:43	530532	579f1d3bc9abeb0001af52d8	3	1	main_z	11	main_z	49	stimuli_distractor_trianglediamonds.svg	stimuli_target_squaretriangles.svg	11	yes	44	1	1011	0	0			0	0			1				0	
6.6.1	win	2023-06-02	05:53:48	06:02:43	530532	579f1d3bc9abeb0001af52d8	3	1	main_z	11	advance_on_keypress_ZEE	50	stimuli_distractor_trianglediamonds.svg	stimuli_target_squaretriangles.svg	11	yes	57	0	475	0	0			0	0			1				0	
6.6.1	win	2023-06-02	05:53:48	06:02:45	532652	579f1d3bc9abeb0001af52d8	3	1	main_z	11	main_z	51	stimuli_distractor_diamondtriangles.svg	stimuli_target_trianglesquares.svg	30	yes	44	1	1015	0	0			0	0			1				0	
6.6.1	win	2023-06-02	05:53:48	06:02:45	532652	579f1d3bc9abeb0001af52d8	3	1	main_z	11	advance_on_keypress_ZEE	52	stimuli_distractor_diamondtriangles.svg	stimuli_target_trianglesquares.svg	30	yes	57	0	525	0	0			0	0			1				0	
6.6.1	win	2023-06-02	05:53:48	06:02:47	534788	579f1d3bc9abeb0001af52d8	3	1	main_z	11	main_z	53	stimuli_target_rectanglediamonds.svg	stimuli_distractor_diamondtriangles.svg	6	yes	44	1	967	0	0			0	0			1				0	
6.6.1	win	2023-06-02	05:53:48	06:02:47	534788	579f1d3bc9abeb0001af52d8	3	1	main_z	11	advance_on_keypress_ZEE	54	stimuli_target_rectanglediamonds.svg	stimuli_distractor_diamondtriangles.svg	6	yes	57	0	488	0	0			0	0			1				0	
6.6.1	win	2023-06-02	05:53:48	06:02:49	536724	579f1d3bc9abeb0001af52d8	3	1	main_z	11	main_z	55	stimuli_distractor_diamondtriangles.svg	stimuli_target_rectanglediamonds.svg	14	yes	44	1	804	0	0			0	0			1				0	
6.6.1	win	2023-06-02	05:53:48	06:02:49	536724	579f1d3bc9abeb0001af52d8	3	1	main_z	11	advance_on_keypress_ZEE	56	stimuli_distractor_diamondtriangles.svg	stimuli_target_rectanglediamonds.svg	14	yes	57	0	451	0	0			0	0			1				0	
6.6.1	win	2023-06-02	05:53:48	06:02:52	539028	579f1d3bc9abeb0001af52d8	3	1	main_z	11	main_z	57	stimuli_target_trianglesquares.svg	stimuli_distractor_diamondtriangles.svg	22	yes	44	1	1208	0	0			0	0			1				0	
6.6.1	win	2023-06-02	05:53:48	06:02:52	539028	579f1d3bc9abeb0001af52d8	3	1	main_z	11	advance_on_keypress_ZEE	58	stimuli_target_trianglesquares.svg	stimuli_distractor_diamondtriangles.svg	22	yes	57	0	495	0	0			0	0			1				0	
6.6.1	win	2023-06-02	05:53:48	06:02:54	541132	579f1d3bc9abeb0001af52d8	3	1	main_z	11	main_z	59	stimuli_distractor_diamondtriangles.svg	stimuli_target_trianglerectangles.svg	29	yes	44	1	979	0	0			0	0			1				0	
6.6.1	win	2023-06-02	05:53:48	06:02:54	541132	579f1d3bc9abeb0001af52d8	3	1	main_z	11	advance_on_keypress_ZEE	60	stimuli_distractor_diamondtriangles.svg	stimuli_target_trianglerectangles.svg	29	yes	57	0	499	0	0			0	0			1				0	
6.6.1	win	2023-06-02	05:53:48	06:02:57	544270	579f1d3bc9abeb0001af52d8	3	1	main_z	11	main_z	61	stimuli_distractor_diamondtriangles.svg	stimuli_distractor_diamondtriangles.svg	40	no	0	1	2000	0	0			0	0			1				0	
6.6.1	win	2023-06-02	05:53:48	06:02:57	544270	579f1d3bc9abeb0001af52d8	3	1	main_z	11	advance_on_keypress_ZEE	62	stimuli_distractor_diamondtriangles.svg	stimuli_distractor_diamondtriangles.svg	40	no	57	0	661	0	0			0	0			1				0	
6.6.1	win	2023-06-02	05:53:48	06:02:59	546508	579f1d3bc9abeb0001af52d8	3	1	main_z	11	main_z	63	stimuli_target_squaretriangles.svg	stimuli_distractor_trianglediamonds.svg	3	yes	44	1	938	0	0			0	0			1				0	
6.6.1	win	2023-06-02	05:53:48	06:02:59	546508	579f1d3bc9abeb0001af52d8	3	1	main_z	11	advance_on_keypress_ZEE	64	stimuli_target_squaretriangles.svg	stimuli_distractor_trianglediamonds.svg	3	yes	57	0	468	0	0			0	0			1				0	
6.6.1	win	2023-06-02	05:53:48	06:03:01	548524	579f1d3bc9abeb0001af52d8	3	1	main_z	11	main_z	65	stimuli_distractor_diamondtriangles.svg	stimuli_target_squaretriangles.svg	15	yes	44	1	904	0	0			0	0			1				0	
6.6.1	win	2023-06-02	05:53:48	06:03:01	548524	579f1d3bc9abeb0001af52d8	3	1	main_z	11	advance_on_keypress_ZEE	66	stimuli_distractor_diamondtriangles.svg	stimuli_target_squaretriangles.svg	15	yes	57	0	411	0	0			0	0			1				0	
6.6.1	win	2023-06-02	05:53:48	06:03:03	550508	579f1d3bc9abeb0001af52d8	3	1	main_z	11	main_z	67	stimuli_target_trianglesquares.svg	stimuli_distractor_trianglediamonds.svg	18	yes	44	1	938	0	0			0	0			1				0	
6.6.1	win	2023-06-02	05:53:48	06:03:03	550508	579f1d3bc9abeb0001af52d8	3	1	main_z	11	advance_on_keypress_ZEE	68	stimuli_target_trianglesquares.svg	stimuli_distractor_trianglediamonds.svg	18	yes	57	0	580	0	0			0	0			1				0	
6.6.1	win	2023-06-02	05:53:48	06:03:05	552572	579f1d3bc9abeb0001af52d8	3	1	main_z	11	main_z	69	stimuli_target_rectangletriangles.svg	stimuli_distractor_trianglediamonds.svg	1	yes	44	1	852	0	0			0	0			1				0	
6.6.1	win	2023-06-02	05:53:48	06:03:05	552572	579f1d3bc9abeb0001af52d8	3	1	main_z	11	advance_on_keypress_ZEE	70	stimuli_target_rectangletriangles.svg	stimuli_distractor_trianglediamonds.svg	1	yes	57	0	465	0	0			0	0			1				0	
6.6.1	win	2023-06-02	05:53:48	06:03:07	554532	579f1d3bc9abeb0001af52d8	3	1	main_z	11	main_z	71	stimuli_target_rectangletriangles.svg	stimuli_distractor_diamondtriangles.svg	5	yes	44	1	845	0	0			0	0			1				0	
6.6.1	win	2023-06-02	05:53:48	06:03:07	554532	579f1d3bc9abeb0001af52d8	3	1	main_z	11	advance_on_keypress_ZEE	72	stimuli_target_rectangletriangles.svg	stimuli_distractor_diamondtriangles.svg	5	yes	57	0	492	0	0			0	0			1				0	
6.6.1	win	2023-06-02	05:53:48	06:03:10	557653	579f1d3bc9abeb0001af52d8	3	1	main_z	11	main_z	73	stimuli_distractor_trianglediamonds.svg	stimuli_distractor_trianglediamonds.svg	33	no	0	1	2000	0	0			0	0			1				0	
6.6.1	win	2023-06-02	05:53:48	06:03:10	557653	579f1d3bc9abeb0001af52d8	3	1	main_z	11	advance_on_keypress_ZEE	74	stimuli_distractor_trianglediamonds.svg	stimuli_distractor_trianglediamonds.svg	33	no	57	0	486	0	0			0	0			1				0	
6.6.1	win	2023-06-02	05:53:48	06:03:12	559500	579f1d3bc9abeb0001af52d8	3	1	main_z	11	main_z	75	stimuli_distractor_trianglediamonds.svg	stimuli_target_trianglerectangles.svg	25	yes	44	1	713	0	0			0	0			1				0	
6.6.1	win	2023-06-02	05:53:48	06:03:12	559500	579f1d3bc9abeb0001af52d8	3	1	main_z	11	advance_on_keypress_ZEE	76	stimuli_distractor_trianglediamonds.svg	stimuli_target_trianglerectangles.svg	25	yes	57	0	500	0	0			0	0			1				0	
6.6.1	win	2023-06-02	05:53:48	06:03:14	561372	579f1d3bc9abeb0001af52d8	3	1	main_z	11	main_z	77	stimuli_distractor_diamondtriangles.svg	stimuli_target_diamondsquares.svg	32	yes	44	1	719	0	0			0	0			1				0	
6.6.1	win	2023-06-02	05:53:48	06:03:14	561372	579f1d3bc9abeb0001af52d8	3	1	main_z	11	advance_on_keypress_ZEE	78	stimuli_distractor_diamondtriangles.svg	stimuli_target_diamondsquares.svg	32	yes	57	0	450	0	0			0	0			1				0	
6.6.1	win	2023-06-02	05:53:48	06:03:17	564470	579f1d3bc9abeb0001af52d8	3	1	main_z	11	main_z	79	stimuli_distractor_trianglediamonds.svg	stimuli_distractor_diamondtriangles.svg	35	no	0	1	2000	0	0			0	0			1				0	
6.6.1	win	2023-06-02	05:53:48	06:03:17	564470	579f1d3bc9abeb0001af52d8	3	1	main_z	11	advance_on_keypress_ZEE	80	stimuli_distractor_trianglediamonds.svg	stimuli_distractor_diamondtriangles.svg	35	no	57	0	229	0	0			0	0			1				0	
6.6.1	win	2023-06-02	05:53:48	06:03:19	566148	579f1d3bc9abeb0001af52d8	3	1	main_z	11	main_z	81	stimuli_target_diamondsquares.svg	stimuli_distractor_trianglediamonds.svg	20	yes	44	1	812	0	0			0	0			1				0	
6.6.1	win	2023-06-02	05:53:48	06:03:19	566148	579f1d3bc9abeb0001af52d8	3	1	main_z	11	advance_on_keypress_ZEE	82	stimuli_target_diamondsquares.svg	stimuli_distractor_trianglediamonds.svg	20	yes	57	0	467	0	0			0	0			1				0	
6.6.1	win	2023-06-02	05:53:48	06:03:21	568245	579f1d3bc9abeb0001af52d8	3	1	main_z	11	main_z	83	stimuli_distractor_trianglediamonds.svg	stimuli_target_squaretriangles.svg	11	yes	44	1	992	0	0			0	0			1				0	
6.6.1	win	2023-06-02	05:53:48	06:03:21	568245	579f1d3bc9abeb0001af52d8	3	1	main_z	11	advance_on_keypress_ZEE	84	stimuli_distractor_trianglediamonds.svg	stimuli_target_squaretriangles.svg	11	yes	57	0	503	0	0			0	0			1				0	
6.6.1	win	2023-06-02	05:53:48	06:03:23	570380	579f1d3bc9abeb0001af52d8	3	1	main_z	11	main_z	85	stimuli_target_trianglerectangles.svg	stimuli_distractor_diamondtriangles.svg	21	yes	44	1	994	0	0			0	0			1				0	
6.6.1	win	2023-06-02	05:53:48	06:03:23	570380	579f1d3bc9abeb0001af52d8	3	1	main_z	11	advance_on_keypress_ZEE	86	stimuli_target_trianglerectangles.svg	stimuli_distractor_diamondtriangles.svg	21	yes	57	0	426	0	0			0	0			1				0	
6.6.1	win	2023-06-02	05:53:48	06:03:25	572388	579f1d3bc9abeb0001af52d8	3	1	main_z	11	main_z	87	stimuli_target_squaretriangles.svg	stimuli_distractor_diamondtriangles.svg	7	yes	44	1	952	0	0			0	0			1				0	
6.6.1	win	2023-06-02	05:53:48	06:03:25	572388	579f1d3bc9abeb0001af52d8	3	1	main_z	11	advance_on_keypress_ZEE	88	stimuli_target_squaretriangles.svg	stimuli_distractor_diamondtriangles.svg	7	yes	57	0	369	0	0			0	0			1				0	
6.6.1	win	2023-06-02	05:53:48	06:03:27	574468	579f1d3bc9abeb0001af52d8	3	1	main_z	11	main_z	89	stimuli_distractor_diamondtriangles.svg	stimuli_target_trianglesquares.svg	30	yes	44	1	1065	0	0			0	0			1				0	
6.6.1	win	2023-06-02	05:53:48	06:03:27	574468	579f1d3bc9abeb0001af52d8	3	1	main_z	11	advance_on_keypress_ZEE	90	stimuli_distractor_diamondtriangles.svg	stimuli_target_trianglesquares.svg	30	yes	57	0	422	0	0			0	0			1				0	
6.6.1	win	2023-06-02	05:53:48	06:03:29	576604	579f1d3bc9abeb0001af52d8	3	1	main_z	11	main_z	91	stimuli_distractor_trianglediamonds.svg	stimuli_target_diamondrectangles.svg	27	yes	44	1	1068	0	0			0	0			1				0	
6.6.1	win	2023-06-02	05:53:48	06:03:29	576604	579f1d3bc9abeb0001af52d8	3	1	main_z	11	advance_on_keypress_ZEE	92	stimuli_distractor_trianglediamonds.svg	stimuli_target_diamondrectangles.svg	27	yes	57	0	432	0	0			0	0			1				0	
6.6.1	win	2023-06-02	05:53:48	06:03:31	578540	579f1d3bc9abeb0001af52d8	3	1	main_z	11	main_z	93	stimuli_target_rectanglediamonds.svg	stimuli_distractor_trianglediamonds.svg	2	yes	44	1	854	0	0			0	0			1				0	
6.6.1	win	2023-06-02	05:53:48	06:03:31	578540	579f1d3bc9abeb0001af52d8	3	1	main_z	11	advance_on_keypress_ZEE	94	stimuli_target_rectanglediamonds.svg	stimuli_distractor_trianglediamonds.svg	2	yes	57	0	395	0	0			0	0			1				0	
6.6.1	win	2023-06-02	05:53:48	06:03:34	581569	579f1d3bc9abeb0001af52d8	3	1	main_z	11	main_z	95	stimuli_distractor_diamondtriangles.svg	stimuli_target_rectangletriangles.svg	13	yes	0	0	2000	0	0			0	0			1				0	
6.6.1	win	2023-06-02	05:53:48	06:03:34	581569	579f1d3bc9abeb0001af52d8	3	1	main_z	11	advance_on_keypress_ZEE	96	stimuli_distractor_diamondtriangles.svg	stimuli_target_rectangletriangles.svg	13	yes	57	0	698	0	0			0	0			1				0	
6.6.1	win	2023-06-02	05:53:48	06:03:36	583788	579f1d3bc9abeb0001af52d8	3	1	main_z	11	main_z	97	stimuli_target_squaretriangles.svg	stimuli_distractor_trianglediamonds.svg	3	yes	44	1	869	0	0			0	0			1				0	
6.6.1	win	2023-06-02	05:53:48	06:03:36	583788	579f1d3bc9abeb0001af52d8	3	1	main_z	11	advance_on_keypress_ZEE	98	stimuli_target_squaretriangles.svg	stimuli_distractor_trianglediamonds.svg	3	yes	57	0	633	0	0			0	0			1				0	
6.6.1	win	2023-06-02	05:53:48	06:03:40	587072	579f1d3bc9abeb0001af52d8	3	1	main_z	11	main_z	99	stimuli_distractor_diamondtriangles.svg	stimuli_distractor_trianglediamonds.svg	38	no	0	1	2000	0	0			0	0			1				0	
6.6.1	win	2023-06-02	05:53:48	06:03:40	587072	579f1d3bc9abeb0001af52d8	3	1	main_z	11	advance_on_keypress_ZEE	100	stimuli_distractor_diamondtriangles.svg	stimuli_distractor_trianglediamonds.svg	38	no	57	0	431	0	0			0	0			1				0	
6.6.1	win	2023-06-02	05:53:48	06:03:43	590152	579f1d3bc9abeb0001af52d8	3	1	main_z	11	main_z	101	stimuli_distractor_trianglediamonds.svg	stimuli_distractor_diamondtriangles.svg	35	no	0	1	2000	0	0			0	0			1				0	
6.6.1	win	2023-06-02	05:53:48	06:03:43	590152	579f1d3bc9abeb0001af52d8	3	1	main_z	11	advance_on_keypress_ZEE	102	stimuli_distractor_trianglediamonds.svg	stimuli_distractor_diamondtriangles.svg	35	no	57	0	363	0	0			0	0			1				0	
6.6.1	win	2023-06-02	05:53:48	06:03:46	593169	579f1d3bc9abeb0001af52d8	3	1	main_z	11	main_z	103	stimuli_distractor_trianglediamonds.svg	stimuli_distractor_trianglediamonds.svg	33	no	0	1	2000	0	0			0	0			1				0	
6.6.1	win	2023-06-02	05:53:48	06:03:46	593169	579f1d3bc9abeb0001af52d8	3	1	main_z	11	advance_on_keypress_ZEE	104	stimuli_distractor_trianglediamonds.svg	stimuli_distractor_trianglediamonds.svg	33	no	57	0	339	0	0			0	0			1				0	
6.6.1	win	2023-06-02	05:53:48	06:03:49	596152	579f1d3bc9abeb0001af52d8	3	1	main_z	11	main_z	105	stimuli_distractor_trianglediamonds.svg	stimuli_distractor_trianglediamonds.svg	34	no	0	1	2000	0	0			0	0			1				0	
6.6.1	win	2023-06-02	05:53:48	06:03:49	596152	579f1d3bc9abeb0001af52d8	3	1	main_z	11	advance_on_keypress_ZEE	106	stimuli_distractor_trianglediamonds.svg	stimuli_distractor_trianglediamonds.svg	34	no	57	0	323	0	0			0	0			1				0	
6.6.1	win	2023-06-02	05:53:48	06:03:51	597916	579f1d3bc9abeb0001af52d8	3	1	main_z	11	main_z	107	stimuli_distractor_trianglediamonds.svg	stimuli_target_rectanglediamonds.svg	10	yes	44	1	798	0	0			0	0			1				0	
6.6.1	win	2023-06-02	05:53:48	06:03:51	597916	579f1d3bc9abeb0001af52d8	3	1	main_z	11	advance_on_keypress_ZEE	108	stimuli_distractor_trianglediamonds.svg	stimuli_target_rectanglediamonds.svg	10	yes	57	0	661	0	0			0	0			1				0	
6.6.1	win	2023-06-02	05:53:48	06:03:53	600148	579f1d3bc9abeb0001af52d8	3	1	main_z	11	main_z	109	stimuli_target_trianglerectangles.svg	stimuli_distractor_trianglediamonds.svg	17	yes	44	1	930	0	0			0	0			1				0	
6.6.1	win	2023-06-02	05:53:48	06:03:53	600148	579f1d3bc9abeb0001af52d8	3	1	main_z	11	advance_on_keypress_ZEE	110	stimuli_target_trianglerectangles.svg	stimuli_distractor_trianglediamonds.svg	17	yes	57	0	589	0	0			0	0			1				0	
6.6.1	win	2023-06-02	05:53:48	06:03:55	602084	579f1d3bc9abeb0001af52d8	3	1	main_z	11	main_z	111	stimuli_distractor_diamondtriangles.svg	stimuli_target_rectanglediamonds.svg	14	yes	44	1	716	0	0			0	0			1				0	
6.6.1	win	2023-06-02	05:53:48	06:03:55	602084	579f1d3bc9abeb0001af52d8	3	1	main_z	11	advance_on_keypress_ZEE	112	stimuli_distractor_diamondtriangles.svg	stimuli_target_rectanglediamonds.svg	14	yes	57	0	558	0	0			0	0			1				0	
6.6.1	win	2023-06-02	05:53:48	06:03:58	605284	579f1d3bc9abeb0001af52d8	3	1	main_z	11	main_z	113	stimuli_distractor_diamondtriangles.svg	stimuli_distractor_trianglediamonds.svg	37	no	0	1	2000	0	0			0	0			1				0	
6.6.1	win	2023-06-02	05:53:48	06:03:58	605284	579f1d3bc9abeb0001af52d8	3	1	main_z	11	advance_on_keypress_ZEE	114	stimuli_distractor_diamondtriangles.svg	stimuli_distractor_trianglediamonds.svg	37	no	57	0	391	0	0			0	0			1				0	
6.6.1	win	2023-06-02	05:53:48	06:04:00	607188	579f1d3bc9abeb0001af52d8	3	1	main_z	11	main_z	115	stimuli_target_diamondrectangles.svg	stimuli_distractor_diamondtriangles.svg	23	yes	44	1	870	0	0			0	0			1				0	
6.6.1	win	2023-06-02	05:53:48	06:04:00	607188	579f1d3bc9abeb0001af52d8	3	1	main_z	11	advance_on_keypress_ZEE	116	stimuli_target_diamondrectangles.svg	stimuli_distractor_diamondtriangles.svg	23	yes	57	0	610	0	0			0	0			1				0	
6.6.1	win	2023-06-02	05:53:48	06:04:02	609252	579f1d3bc9abeb0001af52d8	3	1	main_z	11	main_z	117	stimuli_distractor_trianglediamonds.svg	stimuli_target_squarediamonds.svg	12	yes	44	1	817	0	0			0	0			1				0	
6.6.1	win	2023-06-02	05:53:48	06:04:02	609252	579f1d3bc9abeb0001af52d8	3	1	main_z	11	advance_on_keypress_ZEE	118	stimuli_distractor_trianglediamonds.svg	stimuli_target_squarediamonds.svg	12	yes	57	0	552	0	0			0	0			1				0	
6.6.1	win	2023-06-02	05:53:48	06:04:04	611340	579f1d3bc9abeb0001af52d8	3	1	main_z	11	main_z	119	stimuli_target_trianglesquares.svg	stimuli_distractor_trianglediamonds.svg	18	yes	44	1	889	0	0			0	0			1				0	
6.6.1	win	2023-06-02	05:53:48	06:04:04	611340	579f1d3bc9abeb0001af52d8	3	1	main_z	11	advance_on_keypress_ZEE	120	stimuli_target_trianglesquares.svg	stimuli_distractor_trianglediamonds.svg	18	yes	57	0	509	0	0			0	0			1				0	
6.6.1	win	2023-06-02	05:53:48	06:04:06	613420	579f1d3bc9abeb0001af52d8	3	1	main_z	11	main_z	121	stimuli_distractor_diamondtriangles.svg	stimuli_target_diamondrectangles.svg	31	yes	44	1	935	0	0			0	0			1				0	
6.6.1	win	2023-06-02	05:53:48	06:04:06	613420	579f1d3bc9abeb0001af52d8	3	1	main_z	11	advance_on_keypress_ZEE	122	stimuli_distractor_diamondtriangles.svg	stimuli_target_diamondrectangles.svg	31	yes	57	0	465	0	0			0	0			1				0	
6.6.1	win	2023-06-02	05:53:48	06:04:08	615421	579f1d3bc9abeb0001af52d8	3	1	main_z	11	main_z	123	stimuli_target_rectanglediamonds.svg	stimuli_distractor_diamondtriangles.svg	6	yes	44	1	885	0	0			0	0			1				0	
6.6.1	win	2023-06-02	05:53:48	06:04:08	615421	579f1d3bc9abeb0001af52d8	3	1	main_z	11	advance_on_keypress_ZEE	124	stimuli_target_rectanglediamonds.svg	stimuli_distractor_diamondtriangles.svg	6	yes	57	0	426	0	0			0	0			1				0	
6.6.1	win	2023-06-02	05:53:48	06:04:10	617324	579f1d3bc9abeb0001af52d8	3	1	main_z	11	main_z	125	stimuli_distractor_trianglediamonds.svg	stimuli_target_diamondsquares.svg	28	yes	44	1	839	0	0			0	0			1				0	
6.6.1	win	2023-06-02	05:53:48	06:04:10	617324	579f1d3bc9abeb0001af52d8	3	1	main_z	11	advance_on_keypress_ZEE	126	stimuli_distractor_trianglediamonds.svg	stimuli_target_diamondsquares.svg	28	yes	57	0	470	0	0			0	0			1				0	
6.6.1	win	2023-06-02	05:53:48	06:04:12	619316	579f1d3bc9abeb0001af52d8	3	1	main_z	11	main_z	127	stimuli_distractor_trianglediamonds.svg	stimuli_target_trianglesquares.svg	26	yes	44	1	882	0	0			0	0			1				0	
6.6.1	win	2023-06-02	05:53:48	06:04:12	619316	579f1d3bc9abeb0001af52d8	3	1	main_z	11	advance_on_keypress_ZEE	128	stimuli_distractor_trianglediamonds.svg	stimuli_target_trianglesquares.svg	26	yes	57	0	430	0	0			0	0			1				0	
6.6.1	win	2023-06-02	05:53:48	06:04:15	622385	579f1d3bc9abeb0001af52d8	3	1	main_z	11	main_z	129	stimuli_distractor_trianglediamonds.svg	stimuli_distractor_diamondtriangles.svg	36	no	0	1	2000	0	0			0	0			1				0	
6.6.1	win	2023-06-02	05:53:48	06:04:15	622385	579f1d3bc9abeb0001af52d8	3	1	main_z	11	advance_on_keypress_ZEE	130	stimuli_distractor_trianglediamonds.svg	stimuli_distractor_diamondtriangles.svg	36	no	57	0	347	0	0			0	0			1				0	
6.6.1	win	2023-06-02	05:53:48	06:04:17	624148	579f1d3bc9abeb0001af52d8	3	1	main_z	11	main_z	131	stimuli_target_rectangletriangles.svg	stimuli_distractor_diamondtriangles.svg	5	yes	44	1	763	0	0			0	0			1				0	
6.6.1	win	2023-06-02	05:53:48	06:04:17	624148	579f1d3bc9abeb0001af52d8	3	1	main_z	11	advance_on_keypress_ZEE	132	stimuli_target_rectangletriangles.svg	stimuli_distractor_diamondtriangles.svg	5	yes	57	0	469	0	0			0	0			1				0	
6.6.1	win	2023-06-02	05:53:48	06:04:19	626132	579f1d3bc9abeb0001af52d8	3	1	main_z	11	main_z	133	stimuli_distractor_diamondtriangles.svg	stimuli_target_trianglerectangles.svg	29	yes	44	1	864	0	0			0	0			1				0	
6.6.1	win	2023-06-02	05:53:48	06:04:19	626132	579f1d3bc9abeb0001af52d8	3	1	main_z	11	advance_on_keypress_ZEE	134	stimuli_distractor_diamondtriangles.svg	stimuli_target_trianglerectangles.svg	29	yes	57	0	509	0	0			0	0			1				0	
6.6.1	win	2023-06-02	05:53:48	06:04:21	628140	579f1d3bc9abeb0001af52d8	3	1	main_z	11	main_z	135	stimuli_target_squarediamonds.svg	stimuli_distractor_trianglediamonds.svg	4	yes	44	1	856	0	0			0	0			1				0	
6.6.1	win	2023-06-02	05:53:48	06:04:21	628140	579f1d3bc9abeb0001af52d8	3	1	main_z	11	advance_on_keypress_ZEE	136	stimuli_target_squarediamonds.svg	stimuli_distractor_trianglediamonds.svg	4	yes	57	0	365	0	0			0	0			1				0	
6.6.1	win	2023-06-02	05:53:48	06:04:23	630164	579f1d3bc9abeb0001af52d8	3	1	main_z	11	main_z	137	stimuli_target_trianglesquares.svg	stimuli_distractor_diamondtriangles.svg	22	yes	44	1	1013	0	0			0	0			1				0	
6.6.1	win	2023-06-02	05:53:48	06:04:23	630164	579f1d3bc9abeb0001af52d8	3	1	main_z	11	advance_on_keypress_ZEE	138	stimuli_target_trianglesquares.svg	stimuli_distractor_diamondtriangles.svg	22	yes	57	0	541	0	0			0	0			1				0	
6.6.1	win	2023-06-02	05:53:48	06:04:25	632300	579f1d3bc9abeb0001af52d8	3	1	main_z	11	main_z	139	stimuli_target_diamondsquares.svg	stimuli_distractor_diamondtriangles.svg	24	yes	44	1	966	0	0			0	0			1				0	
6.6.1	win	2023-06-02	05:53:48	06:04:25	632300	579f1d3bc9abeb0001af52d8	3	1	main_z	11	advance_on_keypress_ZEE	140	stimuli_target_diamondsquares.svg	stimuli_distractor_diamondtriangles.svg	24	yes	57	0	535	0	0			0	0			1				0	
6.6.1	win	2023-06-02	05:53:48	06:04:27	634420	579f1d3bc9abeb0001af52d8	3	1	main_z	11	main_z	141	stimuli_distractor_diamondtriangles.svg	stimuli_target_diamondsquares.svg	32	yes	44	1	935	0	0			0	0			1				0	
6.6.1	win	2023-06-02	05:53:48	06:04:27	634420	579f1d3bc9abeb0001af52d8	3	1	main_z	11	advance_on_keypress_ZEE	142	stimuli_distractor_diamondtriangles.svg	stimuli_target_diamondsquares.svg	32	yes	57	0	514	0	0			0	0			1				0	
6.6.1	win	2023-06-02	05:53:48	06:04:29	636556	579f1d3bc9abeb0001af52d8	3	1	main_z	11	main_z	143	stimuli_distractor_diamondtriangles.svg	stimuli_target_squaretriangles.svg	15	yes	44	1	972	0	0			0	0			1				0	
6.6.1	win	2023-06-02	05:53:48	06:04:29	636556	579f1d3bc9abeb0001af52d8	3	1	main_z	11	advance_on_keypress_ZEE	144	stimuli_distractor_diamondtriangles.svg	stimuli_target_squaretriangles.svg	15	yes	57	0	485	0	0			0	0			1				0	
6.6.1	win	2023-06-02	05:53:48	06:04:32	639684	579f1d3bc9abeb0001af52d8	3	1	main_z	11	main_z	145	stimuli_distractor_diamondtriangles.svg	stimuli_distractor_diamondtriangles.svg	40	no	0	1	2000	0	0			0	0			1				0	
6.6.1	win	2023-06-02	05:53:48	06:04:32	639684	579f1d3bc9abeb0001af52d8	3	1	main_z	11	advance_on_keypress_ZEE	146	stimuli_distractor_diamondtriangles.svg	stimuli_distractor_diamondtriangles.svg	40	no	57	0	359	0	0			0	0			1				0	
6.6.1	win	2023-06-02	05:53:48	06:04:34	641596	579f1d3bc9abeb0001af52d8	3	1	main_z	11	main_z	147	stimuli_target_squarediamonds.svg	stimuli_distractor_diamondtriangles.svg	8	yes	44	1	912	0	0			0	0			1				0	
6.6.1	win	2023-06-02	05:53:48	06:04:34	641596	579f1d3bc9abeb0001af52d8	3	1	main_z	11	advance_on_keypress_ZEE	148	stimuli_target_squarediamonds.svg	stimuli_distractor_diamondtriangles.svg	8	yes	57	0	476	0	0			0	0			1				0	
6.6.1	win	2023-06-02	05:53:48	06:04:36	643484	579f1d3bc9abeb0001af52d8	3	1	main_z	11	main_z	149	stimuli_distractor_diamondtriangles.svg	stimuli_target_squarediamonds.svg	16	yes	44	1	784	0	0			0	0			1				0	
6.6.1	win	2023-06-02	05:53:48	06:04:36	643484	579f1d3bc9abeb0001af52d8	3	1	main_z	11	advance_on_keypress_ZEE	150	stimuli_distractor_diamondtriangles.svg	stimuli_target_squarediamonds.svg	16	yes	57	0	415	0	0			0	0			1				0	
6.6.1	win	2023-06-02	05:53:48	06:04:39	646550	579f1d3bc9abeb0001af52d8	3	1	main_z	11	main_z	151	stimuli_distractor_diamondtriangles.svg	stimuli_distractor_diamondtriangles.svg	39	no	0	1	2000	0	0			0	0			1				0	
6.6.1	win	2023-06-02	05:53:48	06:04:39	646550	579f1d3bc9abeb0001af52d8	3	1	main_z	11	advance_on_keypress_ZEE	152	stimuli_distractor_diamondtriangles.svg	stimuli_distractor_diamondtriangles.svg	39	no	57	0	325	0	0			0	0			1				0	
6.6.1	win	2023-06-02	05:53:48	06:04:41	648462	579f1d3bc9abeb0001af52d8	3	1	main_z	11	main_z	153	stimuli_target_rectangletriangles.svg	stimuli_distractor_trianglediamonds.svg	1	yes	44	1	943	0	0			0	0			1				0	
6.6.1	win	2023-06-02	05:53:48	06:04:41	648462	579f1d3bc9abeb0001af52d8	3	1	main_z	11	advance_on_keypress_ZEE	154	stimuli_target_rectangletriangles.svg	stimuli_distractor_trianglediamonds.svg	1	yes	57	0	481	0	0			0	0			1				0	
6.6.1	win	2023-06-02	05:53:48	06:04:43	650285	579f1d3bc9abeb0001af52d8	3	1	main_z	11	main_z	155	stimuli_target_diamondrectangles.svg	stimuli_distractor_trianglediamonds.svg	19	yes	44	1	700	0	0			0	0			1				0	
6.6.1	win	2023-06-02	05:53:48	06:04:43	650285	579f1d3bc9abeb0001af52d8	3	1	main_z	11	advance_on_keypress_ZEE	156	stimuli_target_diamondrectangles.svg	stimuli_distractor_trianglediamonds.svg	19	yes	57	0	440	0	0			0	0			1				0	
6.6.1	win	2023-06-02	05:53:48	06:04:45	652156	579f1d3bc9abeb0001af52d8	3	1	main_z	11	main_z	157	stimuli_distractor_trianglediamonds.svg	stimuli_target_trianglerectangles.svg	25	yes	44	1	789	0	0			0	0			1				0	
6.6.1	win	2023-06-02	05:53:48	06:04:45	652156	579f1d3bc9abeb0001af52d8	3	1	main_z	11	advance_on_keypress_ZEE	158	stimuli_distractor_trianglediamonds.svg	stimuli_target_trianglerectangles.svg	25	yes	57	0	381	0	0			0	0			1				0	
6.6.1	win	2023-06-02	05:53:48	06:04:47	653996	579f1d3bc9abeb0001af52d8	3	1	main_z	11	main_z	159	stimuli_distractor_trianglediamonds.svg	stimuli_target_rectangletriangles.svg	9	yes	44	1	812	0	0			0	0			1				0	
6.6.1	win	2023-06-02	05:53:48	06:04:47	653996	579f1d3bc9abeb0001af52d8	3	1	main_z	11	advance_on_keypress_ZEE	160	stimuli_distractor_trianglediamonds.svg	stimuli_target_rectangletriangles.svg	9	yes	57	0	388	0	0			0	0			1				0	
6.6.1	win	2023-06-02	05:53:48	06:04:47	653996	579f1d3bc9abeb0001af52d8	3	1	headphonecheck_calibration	14	headphonecheck_calibrationIntro	1	stimuli_distractor_trianglediamonds.svg	stimuli_target_rectangletriangles.svg	9	yes	calibrationButton	0	1796	0	0			0	0			1				0	
6.6.1	win	2023-06-02	05:53:48	06:04:47	653996	579f1d3bc9abeb0001af52d8	3	1	headphonecheck_testphase	15	test_collectResponse	3	stimuli_distractor_trianglediamonds.svg	stimuli_target_rectangletriangles.svg	9	yes	third	1	591	1	2	antiphase_hc_ios.wav	3	0	0			1				0	
6.6.1	win	2023-06-02	05:53:48	06:04:47	653996	579f1d3bc9abeb0001af52d8	3	1	headphonecheck_testphase	15	test_collectResponse	6	stimuli_distractor_trianglediamonds.svg	stimuli_target_rectangletriangles.svg	9	yes	second	1	427	2	1	antiphase_hc_iso.wav	2	0	0			1				0	
6.6.1	win	2023-06-02	05:53:48	06:04:47	653996	579f1d3bc9abeb0001af52d8	3	1	headphonecheck_testphase	15	test_collectResponse	9	stimuli_distractor_trianglediamonds.svg	stimuli_target_rectangletriangles.svg	9	yes	first	1	329	3	4	antiphase_hc_sio.wav	1	0	0			1				0	
6.6.1	win	2023-06-02	05:53:48	06:04:47	653996	579f1d3bc9abeb0001af52d8	3	1	headphonecheck_testphase	15	test_collectResponse	12	stimuli_distractor_trianglediamonds.svg	stimuli_target_rectangletriangles.svg	9	yes	second	1	315	4	5	antiphase_hc_osi.wav	2	0	0			1				0	
6.6.1	win	2023-06-02	05:53:48	06:04:47	653996	579f1d3bc9abeb0001af52d8	3	1	headphonecheck_testphase	15	test_collectResponse	15	stimuli_distractor_trianglediamonds.svg	stimuli_target_rectangletriangles.svg	9	yes	third	1	198	5	6	antiphase_hc_ois.wav	3	0	0			1				0	
6.6.1	win	2023-06-02	05:53:48	06:04:47	653996	579f1d3bc9abeb0001af52d8	3	1	headphonecheck_testphase	15	test_collectResponse	18	stimuli_distractor_trianglediamonds.svg	stimuli_target_rectangletriangles.svg	9	yes	first	1	369	6	3	antiphase_hc_soi.wav	1	0	0			1				0	
6.6.1	win	2023-06-02	05:53:48	06:04:47	653996	579f1d3bc9abeb0001af52d8	3	1	stereocheck_calibration	17	stereocheck_calibrationIntro	1	stimuli_distractor_trianglediamonds.svg	stimuli_target_rectangletriangles.svg	9	yes	stereocheck_calibrationButton	0	9362	6	3	antiphase_hc_soi.wav	1	0	0			1				0	
6.6.1	win	2023-06-02	05:53:48	06:04:47	653996	579f1d3bc9abeb0001af52d8	3	1	stereocheck_testphase	18	stereocheck_test_collectResponse	3	stimuli_distractor_trianglediamonds.svg	stimuli_target_rectangletriangles.svg	9	yes	stereocheck_right	1	2699	6	3	antiphase_hc_soi.wav	1	1	5	noise_calib_stim_RIGHT.wav	2	1				0	
6.6.1	win	2023-06-02	05:53:48	06:04:47	653996	579f1d3bc9abeb0001af52d8	3	1	stereocheck_testphase	18	stereocheck_test_collectResponse	6	stimuli_distractor_trianglediamonds.svg	stimuli_target_rectangletriangles.svg	9	yes	stereocheck_left	1	1008	6	3	antiphase_hc_soi.wav	1	2	1	noise_calib_stim_LEFT.wav	1	1				0	
6.6.1	win	2023-06-02	05:53:48	06:04:47	653996	579f1d3bc9abeb0001af52d8	3	1	stereocheck_testphase	18	stereocheck_test_collectResponse	9	stimuli_distractor_trianglediamonds.svg	stimuli_target_rectangletriangles.svg	9	yes	stereocheck_left	1	271	6	3	antiphase_hc_soi.wav	1	3	2	noise_calib_stim_LEFT.wav	1	1				0	
6.6.1	win	2023-06-02	05:53:48	06:04:47	653996	579f1d3bc9abeb0001af52d8	3	1	stereocheck_testphase	18	stereocheck_test_collectResponse	12	stimuli_distractor_trianglediamonds.svg	stimuli_target_rectangletriangles.svg	9	yes	stereocheck_right	1	279	6	3	antiphase_hc_soi.wav	1	4	4	noise_calib_stim_RIGHT.wav	2	1				0	
6.6.1	win	2023-06-02	05:53:48	06:04:47	653996	579f1d3bc9abeb0001af52d8	3	1	stereocheck_testphase	18	stereocheck_test_collectResponse	15	stimuli_distractor_trianglediamonds.svg	stimuli_target_rectangletriangles.svg	9	yes	stereocheck_right	1	329	6	3	antiphase_hc_soi.wav	1	5	6	noise_calib_stim_RIGHT.wav	2	1				0	
6.6.1	win	2023-06-02	05:53:48	06:04:47	653996	579f1d3bc9abeb0001af52d8	3	1	stereocheck_testphase	18	stereocheck_test_collectResponse	18	stimuli_distractor_trianglediamonds.svg	stimuli_target_rectangletriangles.svg	9	yes	stereocheck_left	1	450	6	3	antiphase_hc_soi.wav	1	6	3	noise_calib_stim_LEFT.wav	1	1				0	
6.6.1	win	2023-06-02	05:53:48	06:04:47	653996	579f1d3bc9abeb0001af52d8	3	1	DL_practice	21	DL_practice	2	stimuli_distractor_trianglediamonds.svg	stimuli_target_rectangletriangles.svg	9	yes	da	1	1270	6	3	antiphase_hc_soi.wav	1	6	3	noise_calib_stim_LEFT.wav	1	7	blb_dichoticlistening_da-ba.mp3	da	ba	1	left
6.6.1	win	2023-06-02	05:53:48	06:04:47	653996	579f1d3bc9abeb0001af52d8	3	1	DL_practice	21	DL_practice	3	stimuli_distractor_trianglediamonds.svg	stimuli_target_rectangletriangles.svg	9	yes	ta	0	1577	6	3	antiphase_hc_soi.wav	1	6	3	noise_calib_stim_LEFT.wav	1	23	blb_dichoticlistening_ka-pa.mp3	ka	pa	1	other
6.6.1	win	2023-06-02	05:53:48	06:04:47	653996	579f1d3bc9abeb0001af52d8	3	1	DL_practice	21	DL_practice	4	stimuli_distractor_trianglediamonds.svg	stimuli_target_rectangletriangles.svg	9	yes	ga	1	1055	6	3	antiphase_hc_soi.wav	1	6	3	noise_calib_stim_LEFT.wav	1	15	blb_dichoticlistening_ga-ga.mp3	ga	ga	0	left
6.6.1	win	2023-06-02	05:53:48	06:04:47	653996	579f1d3bc9abeb0001af52d8	3	1	DL_practice	21	DL_practice	5	stimuli_distractor_trianglediamonds.svg	stimuli_target_rectangletriangles.svg	9	yes	ba	1	1073	6	3	antiphase_hc_soi.wav	1	6	3	noise_calib_stim_LEFT.wav	1	1	blb_dichoticlistening_ba-ba.mp3	ba	ba	0	left
6.6.1	win	2023-06-02	05:53:48	06:04:47	653996	579f1d3bc9abeb0001af52d8	3	1	DL_practice	21	DL_practice	6	stimuli_distractor_trianglediamonds.svg	stimuli_target_rectangletriangles.svg	9	yes	ta	1	1067	6	3	antiphase_hc_soi.wav	1	6	3	noise_calib_stim_LEFT.wav	1	36	blb_dichoticlistening_ta-ta.mp3	ta	ta	0	left
6.6.1	win	2023-06-02	05:53:48	06:04:47	653996	579f1d3bc9abeb0001af52d8	3	1	DL_practice	21	DL_practice	7	stimuli_distractor_trianglediamonds.svg	stimuli_target_rectangletriangles.svg	9	yes	ka	1	1054	6	3	antiphase_hc_soi.wav	1	6	3	noise_calib_stim_LEFT.wav	1	22	blb_dichoticlistening_ka-ka.mp3	ka	ka	0	left
6.6.1	win	2023-06-02	05:53:48	06:04:47	653996	579f1d3bc9abeb0001af52d8	3	1	DL_practice	21	DL_practice	8	stimuli_distractor_trianglediamonds.svg	stimuli_target_rectangletriangles.svg	9	yes	pa	1	949	6	3	antiphase_hc_soi.wav	1	6	3	noise_calib_stim_LEFT.wav	1	29	blb_dichoticlistening_pa-pa.mp3	pa	pa	0	left
6.6.1	win	2023-06-02	05:53:48	06:04:47	653996	579f1d3bc9abeb0001af52d8	3	1	DL_practice	21	DL_practice	9	stimuli_distractor_trianglediamonds.svg	stimuli_target_rectangletriangles.svg	9	yes	da	1	798	6	3	antiphase_hc_soi.wav	1	6	3	noise_calib_stim_LEFT.wav	1	8	blb_dichoticlistening_da-da.mp3	da	da	0	left
6.6.1	win	2023-06-02	05:53:48	06:04:47	653996	579f1d3bc9abeb0001af52d8	3	1	DL_practice	21	DL_practice	10	stimuli_distractor_trianglediamonds.svg	stimuli_target_rectangletriangles.svg	9	yes	da	0	2307	6	3	antiphase_hc_soi.wav	1	6	3	noise_calib_stim_LEFT.wav	1	18	blb_dichoticlistening_ga-ta.mp3	ga	ta	1	other
6.6.1	win	2023-06-02	05:53:48	06:04:47	653996	579f1d3bc9abeb0001af52d8	3	1	DL_test	23	DL_test	1	stimuli_distractor_trianglediamonds.svg	stimuli_target_rectangletriangles.svg	9	yes	ta	1	3800	6	3	antiphase_hc_soi.wav	1	6	3	noise_calib_stim_LEFT.wav	1	12	blb_dichoticlistening_da-ta.mp3	da	ta	1	right
6.6.1	win	2023-06-02	05:53:48	06:04:47	653996	579f1d3bc9abeb0001af52d8	3	1	DL_test	23	DL_test	2	stimuli_distractor_trianglediamonds.svg	stimuli_target_rectangletriangles.svg	9	yes	ta	0	1125	6	3	antiphase_hc_soi.wav	1	6	3	noise_calib_stim_LEFT.wav	1	10	blb_dichoticlistening_da-ka.mp3	da	ka	1	other
6.6.1	win	2023-06-02	05:53:48	06:04:47	653996	579f1d3bc9abeb0001af52d8	3	1	DL_test	23	DL_test	3	stimuli_distractor_trianglediamonds.svg	stimuli_target_rectangletriangles.svg	9	yes	pa	1	1197	6	3	antiphase_hc_soi.wav	1	6	3	noise_calib_stim_LEFT.wav	1	25	blb_dichoticlistening_pa-ba.mp3	pa	ba	1	left
6.6.1	win	2023-06-02	05:53:48	06:04:47	653996	579f1d3bc9abeb0001af52d8	3	1	DL_test	23	DL_test	4	stimuli_distractor_trianglediamonds.svg	stimuli_target_rectangletriangles.svg	9	yes	da	1	2682	6	3	antiphase_hc_soi.wav	1	6	3	noise_calib_stim_LEFT.wav	1	32	blb_dichoticlistening_ta-da.mp3	ta	da	1	right
6.6.1	win	2023-06-02	05:53:48	06:04:47	653996	579f1d3bc9abeb0001af52d8	3	1	DL_test	23	DL_test	5	stimuli_distractor_trianglediamonds.svg	stimuli_target_rectangletriangles.svg	9	yes	ta	1	1107	6	3	antiphase_hc_soi.wav	1	6	3	noise_calib_stim_LEFT.wav	1	34	blb_dichoticlistening_ta-ka.mp3	ta	ka	1	left
6.6.1	win	2023-06-02	05:53:48	06:04:47	653996	579f1d3bc9abeb0001af52d8	3	1	DL_test	23	DL_test	6	stimuli_distractor_trianglediamonds.svg	stimuli_target_rectangletriangles.svg	9	yes	ta	0	932	6	3	antiphase_hc_soi.wav	1	6	3	noise_calib_stim_LEFT.wav	1	28	blb_dichoticlistening_pa-ka.mp3	pa	ka	1	other
6.6.1	win	2023-06-02	05:53:48	06:04:47	653996	579f1d3bc9abeb0001af52d8	3	1	DL_test	23	DL_test	7	stimuli_distractor_trianglediamonds.svg	stimuli_target_rectangletriangles.svg	9	yes	pa	1	2757	6	3	antiphase_hc_soi.wav	1	6	3	noise_calib_stim_LEFT.wav	1	23	blb_dichoticlistening_ka-pa.mp3	ka	pa	1	right
6.6.1	win	2023-06-02	05:53:48	06:04:47	653996	579f1d3bc9abeb0001af52d8	3	1	DL_test	23	DL_test	8	stimuli_distractor_trianglediamonds.svg	stimuli_target_rectangletriangles.svg	9	yes	ta	1	913	6	3	antiphase_hc_soi.wav	1	6	3	noise_calib_stim_LEFT.wav	1	24	blb_dichoticlistening_ka-ta.mp3	ka	ta	1	right
6.6.1	win	2023-06-02	05:53:48	06:04:47	653996	579f1d3bc9abeb0001af52d8	3	1	DL_test	23	DL_test	9	stimuli_distractor_trianglediamonds.svg	stimuli_target_rectangletriangles.svg	9	yes	ka	1	4767	6	3	antiphase_hc_soi.wav	1	6	3	noise_calib_stim_LEFT.wav	1	4	blb_dichoticlistening_ba-ka.mp3	ba	ka	1	right
6.6.1	win	2023-06-02	05:53:48	06:04:47	653996	579f1d3bc9abeb0001af52d8	3	1	DL_test	23	DL_test	10	stimuli_distractor_trianglediamonds.svg	stimuli_target_rectangletriangles.svg	9	yes	ta	1	903	6	3	antiphase_hc_soi.wav	1	6	3	noise_calib_stim_LEFT.wav	1	36	blb_dichoticlistening_ta-ta.mp3	ta	ta	0	left
6.6.1	win	2023-06-02	05:53:48	06:04:47	653996	579f1d3bc9abeb0001af52d8	3	1	DL_test	23	DL_test	11	stimuli_distractor_trianglediamonds.svg	stimuli_target_rectangletriangles.svg	9	yes	da	1	1600	6	3	antiphase_hc_soi.wav	1	6	3	noise_calib_stim_LEFT.wav	1	11	blb_dichoticlistening_da-pa.mp3	da	pa	1	left
6.6.1	win	2023-06-02	05:53:48	06:04:47	653996	579f1d3bc9abeb0001af52d8	3	1	DL_test	23	DL_test	12	stimuli_distractor_trianglediamonds.svg	stimuli_target_rectangletriangles.svg	9	yes	ka	1	1246	6	3	antiphase_hc_soi.wav	1	6	3	noise_calib_stim_LEFT.wav	1	22	blb_dichoticlistening_ka-ka.mp3	ka	ka	0	left
6.6.1	win	2023-06-02	05:53:48	06:04:47	653996	579f1d3bc9abeb0001af52d8	3	1	DL_test	23	DL_test	13	stimuli_distractor_trianglediamonds.svg	stimuli_target_rectangletriangles.svg	9	yes	ta	1	1785	6	3	antiphase_hc_soi.wav	1	6	3	noise_calib_stim_LEFT.wav	1	33	blb_dichoticlistening_ta-ga.mp3	ta	ga	1	left
6.6.1	win	2023-06-02	05:53:48	06:04:47	653996	579f1d3bc9abeb0001af52d8	3	1	DL_test	23	DL_test	14	stimuli_distractor_trianglediamonds.svg	stimuli_target_rectangletriangles.svg	9	yes	ga	1	1887	6	3	antiphase_hc_soi.wav	1	6	3	noise_calib_stim_LEFT.wav	1	21	blb_dichoticlistening_ka-ga.mp3	ka	ga	1	right
6.6.1	win	2023-06-02	05:53:48	06:04:47	653996	579f1d3bc9abeb0001af52d8	3	1	DL_test	23	DL_test	15	stimuli_distractor_trianglediamonds.svg	stimuli_target_rectangletriangles.svg	9	yes	ka	1	1824	6	3	antiphase_hc_soi.wav	1	6	3	noise_calib_stim_LEFT.wav	1	20	blb_dichoticlistening_ka-da.mp3	ka	da	1	left
6.6.1	win	2023-06-02	05:53:48	06:04:47	653996	579f1d3bc9abeb0001af52d8	3	1	DL_test	23	DL_test	16	stimuli_distractor_trianglediamonds.svg	stimuli_target_rectangletriangles.svg	9	yes	ta	1	757	6	3	antiphase_hc_soi.wav	1	6	3	noise_calib_stim_LEFT.wav	1	6	blb_dichoticlistening_ba-ta.mp3	ba	ta	1	right
6.6.1	win	2023-06-02	05:53:48	06:04:47	653996	579f1d3bc9abeb0001af52d8	3	1	DL_test	23	DL_test	17	stimuli_distractor_trianglediamonds.svg	stimuli_target_rectangletriangles.svg	9	yes	ba	1	1532	6	3	antiphase_hc_soi.wav	1	6	3	noise_calib_stim_LEFT.wav	1	31	blb_dichoticlistening_ta-ba.mp3	ta	ba	1	right
6.6.1	win	2023-06-02	05:53:48	06:04:47	653996	579f1d3bc9abeb0001af52d8	3	1	DL_test	23	DL_test	18	stimuli_distractor_trianglediamonds.svg	stimuli_target_rectangletriangles.svg	9	yes	ba	1	988	6	3	antiphase_hc_soi.wav	1	6	3	noise_calib_stim_LEFT.wav	1	1	blb_dichoticlistening_ba-ba.mp3	ba	ba	0	left
6.6.1	win	2023-06-02	05:53:48	06:04:47	653996	579f1d3bc9abeb0001af52d8	3	1	DL_test	23	DL_test	19	stimuli_distractor_trianglediamonds.svg	stimuli_target_rectangletriangles.svg	9	yes	ta	1	1242	6	3	antiphase_hc_soi.wav	1	6	3	noise_calib_stim_LEFT.wav	1	30	blb_dichoticlistening_pa-ta.mp3	pa	ta	1	right
6.6.1	win	2023-06-02	05:53:48	06:04:47	653996	579f1d3bc9abeb0001af52d8	3	1	DL_test	23	DL_test	20	stimuli_distractor_trianglediamonds.svg	stimuli_target_rectangletriangles.svg	9	yes	da	1	909	6	3	antiphase_hc_soi.wav	1	6	3	noise_calib_stim_LEFT.wav	1	2	blb_dichoticlistening_ba-da.mp3	ba	da	1	right
6.6.1	win	2023-06-02	05:53:48	06:04:47	653996	579f1d3bc9abeb0001af52d8	3	1	DL_test	23	DL_test	21	stimuli_distractor_trianglediamonds.svg	stimuli_target_rectangletriangles.svg	9	yes	ba	1	918	6	3	antiphase_hc_soi.wav	1	6	3	noise_calib_stim_LEFT.wav	1	13	blb_dichoticlistening_ga-ba.mp3	ga	ba	1	right
6.6.1	win	2023-06-02	05:53:48	06:04:47	653996	579f1d3bc9abeb0001af52d8	3	1	DL_test	23	DL_test	22	stimuli_distractor_trianglediamonds.svg	stimuli_target_rectangletriangles.svg	9	yes	da	1	966	6	3	antiphase_hc_soi.wav	1	6	3	noise_calib_stim_LEFT.wav	1	14	blb_dichoticlistening_ga-da.mp3	ga	da	1	right
6.6.1	win	2023-06-02	05:53:48	06:04:47	653996	579f1d3bc9abeb0001af52d8	3	1	DL_test	23	DL_test	23	stimuli_distractor_trianglediamonds.svg	stimuli_target_rectangletriangles.svg	9	yes	ta	1	1116	6	3	antiphase_hc_soi.wav	1	6	3	noise_calib_stim_LEFT.wav	1	35	blb_dichoticlistening_ta-pa.mp3	ta	pa	1	left
6.6.1	win	2023-06-02	05:53:48	06:04:47	653996	579f1d3bc9abeb0001af52d8	3	1	DL_test	23	DL_test	24	stimuli_distractor_trianglediamonds.svg	stimuli_target_rectangletriangles.svg	9	yes	da	1	1140	6	3	antiphase_hc_soi.wav	1	6	3	noise_calib_stim_LEFT.wav	1	8	blb_dichoticlistening_da-da.mp3	da	da	0	left
6.6.1	win	2023-06-02	05:53:48	06:04:47	653996	579f1d3bc9abeb0001af52d8	3	1	DL_test	23	DL_test	25	stimuli_distractor_trianglediamonds.svg	stimuli_target_rectangletriangles.svg	9	yes	pa	1	2077	6	3	antiphase_hc_soi.wav	1	6	3	noise_calib_stim_LEFT.wav	1	26	blb_dichoticlistening_pa-da.mp3	pa	da	1	left
6.6.1	win	2023-06-02	05:53:48	06:04:47	653996	579f1d3bc9abeb0001af52d8	3	1	DL_test	23	DL_test	26	stimuli_distractor_trianglediamonds.svg	stimuli_target_rectangletriangles.svg	9	yes	ka	1	1039	6	3	antiphase_hc_soi.wav	1	6	3	noise_calib_stim_LEFT.wav	1	19	blb_dichoticlistening_ka-ba.mp3	ka	ba	1	left
