build	computer.platform	date	time	timestamp	time_elapsed_ms	subject	group	session	blockcode	blocknum	trialcode	trialnum	stimulus_left	stimulus_right	stim_index	target_present	response	correct	latency	headphonecheck_countTestTrials	headphonecheck_index	headphonecheck_testSound	headphonecheck_correctResponse	stereocheck_countTestTrials	stereocheck_index	stereocheck_testSound	stereocheck_correctResponse	DL_index	DL_soundfile	DL_leftSound	DL_rightSound	DL_dualSound	DL_choice
6.6.1	win	2023-06-15	11:12:22	11:15:54	206911	6111cbf1e5dffb55a8f70153	4	1	practice_z	5	practice_z	1	stimuli_target_rectanglediamonds.svg	stimuli_distractor_trianglediamonds.svg	4	yes	0	0	2000	0	0			0	0			1				0	
6.6.1	win	2023-06-15	11:12:22	11:15:54	206911	6111cbf1e5dffb55a8f70153	4	1	practice_z	5	advance_on_keypress_ZEE	2	stimuli_target_rectanglediamonds.svg	stimuli_distractor_trianglediamonds.svg	4	yes	57	0	1160	0	0			0	0			1				0	
6.6.1	win	2023-06-15	11:12:22	11:15:59	211731	6111cbf1e5dffb55a8f70153	4	1	practice_z	5	practice_z	3	stimuli_distractor_diamondtriangles.svg	stimuli_distractor_trianglediamonds.svg	14	no	0	1	2000	0	0			0	0			1				0	
6.6.1	win	2023-06-15	11:12:22	11:15:59	211731	6111cbf1e5dffb55a8f70153	4	1	practice_z	5	advance_on_keypress_ZEE	4	stimuli_distractor_diamondtriangles.svg	stimuli_distractor_trianglediamonds.svg	14	no	57	0	1370	0	0			0	0			1				0	
6.6.1	win	2023-06-15	11:12:22	11:16:03	215496	6111cbf1e5dffb55a8f70153	4	1	practice_z	5	practice_z	5	stimuli_distractor_trianglediamonds.svg	stimuli_distractor_diamondtriangles.svg	16	no	44	0	737	0	0			0	0			1				0	
6.6.1	win	2023-06-15	11:12:22	11:16:03	215496	6111cbf1e5dffb55a8f70153	4	1	practice_z	5	advance_on_keypress_ZEE	6	stimuli_distractor_trianglediamonds.svg	stimuli_distractor_diamondtriangles.svg	16	no	57	0	877	0	0			0	0			1				0	
6.6.1	win	2023-06-15	11:12:22	11:16:08	220029	6111cbf1e5dffb55a8f70153	4	1	practice_z	5	practice_z	7	stimuli_target_diamondsquares.svg	stimuli_distractor_trianglediamonds.svg	6	yes	0	0	2000	0	0			0	0			1				0	
6.6.1	win	2023-06-15	11:12:22	11:16:08	220029	6111cbf1e5dffb55a8f70153	4	1	practice_z	5	advance_on_keypress_ZEE	8	stimuli_target_diamondsquares.svg	stimuli_distractor_trianglediamonds.svg	6	yes	57	0	857	0	0			0	0			1				0	
6.6.1	win	2023-06-15	11:12:22	11:16:10	222706	6111cbf1e5dffb55a8f70153	4	1	practice_z	5	practice_z	9	stimuli_distractor_trianglediamonds.svg	stimuli_target_squarediamonds.svg	11	yes	44	1	170	0	0			0	0			1				0	
6.6.1	win	2023-06-15	11:12:22	11:16:10	222706	6111cbf1e5dffb55a8f70153	4	1	practice_z	5	advance_on_keypress_ZEE	10	stimuli_distractor_trianglediamonds.svg	stimuli_target_squarediamonds.svg	11	yes	57	0	4043	0	0			0	0			1				0	
6.6.1	win	2023-06-15	11:12:22	11:16:17	229467	6111cbf1e5dffb55a8f70153	4	1	practice_z	5	practice_z	11	stimuli_distractor_diamondtriangles.svg	stimuli_target_trianglerectangles.svg	9	yes	44	1	1052	0	0			0	0			1				0	
6.6.1	win	2023-06-15	11:12:22	11:16:17	229467	6111cbf1e5dffb55a8f70153	4	1	practice_z	5	advance_on_keypress_ZEE	12	stimuli_distractor_diamondtriangles.svg	stimuli_target_trianglerectangles.svg	9	yes	57	0	4603	0	0			0	0			1				0	
6.6.1	win	2023-06-15	11:12:22	11:16:24	236074	6111cbf1e5dffb55a8f70153	4	1	practice_z	5	practice_z	13	stimuli_target_rectanglediamonds.svg	stimuli_distractor_diamondtriangles.svg	1	yes	44	1	352	0	0			0	0			1				0	
6.6.1	win	2023-06-15	11:12:22	11:16:24	236074	6111cbf1e5dffb55a8f70153	4	1	practice_z	5	advance_on_keypress_ZEE	14	stimuli_target_rectanglediamonds.svg	stimuli_distractor_diamondtriangles.svg	1	yes	57	0	224	0	0			0	0			1				0	
6.6.1	win	2023-06-15	11:12:22	11:16:26	238210	6111cbf1e5dffb55a8f70153	4	1	practice_z	5	practice_z	15	stimuli_target_squarediamonds.svg	stimuli_distractor_diamondtriangles.svg	2	yes	44	1	267	0	0			0	0			1				0	
6.6.1	win	2023-06-15	11:12:22	11:16:26	238210	6111cbf1e5dffb55a8f70153	4	1	practice_z	5	advance_on_keypress_ZEE	16	stimuli_target_squarediamonds.svg	stimuli_distractor_diamondtriangles.svg	2	yes	57	0	195	0	0			0	0			1				0	
6.6.1	win	2023-06-15	11:12:22	11:16:28	240348	6111cbf1e5dffb55a8f70153	4	1	practice_z	5	practice_z	17	stimuli_distractor_trianglediamonds.svg	stimuli_distractor_trianglediamonds.svg	15	no	44	0	298	0	0			0	0			1				0	
6.6.1	win	2023-06-15	11:12:22	11:16:28	240348	6111cbf1e5dffb55a8f70153	4	1	practice_z	5	advance_on_keypress_ZEE	18	stimuli_distractor_trianglediamonds.svg	stimuli_distractor_trianglediamonds.svg	15	no	57	0	399	0	0			0	0			1				0	
6.6.1	win	2023-06-15	11:12:22	11:16:30	242822	6111cbf1e5dffb55a8f70153	4	1	practice_z	5	practice_z	19	stimuli_target_squarediamonds.svg	stimuli_distractor_trianglediamonds.svg	5	yes	44	1	419	0	0			0	0			1				0	
6.6.1	win	2023-06-15	11:12:22	11:16:30	242822	6111cbf1e5dffb55a8f70153	4	1	practice_z	5	advance_on_keypress_ZEE	20	stimuli_target_squarediamonds.svg	stimuli_distractor_trianglediamonds.svg	5	yes	57	0	217	0	0			0	0			1				0	
6.6.1	win	2023-06-15	11:12:22	11:16:34	246704	6111cbf1e5dffb55a8f70153	4	1	practice_z	5	practice_z	21	stimuli_distractor_trianglediamonds.svg	stimuli_target_diamondrectangles.svg	12	yes	0	0	2000	0	0			0	0			1				0	
6.6.1	win	2023-06-15	11:12:22	11:16:34	246704	6111cbf1e5dffb55a8f70153	4	1	practice_z	5	advance_on_keypress_ZEE	22	stimuli_distractor_trianglediamonds.svg	stimuli_target_diamondrectangles.svg	12	yes	57	0	490	0	0			0	0			1				0	
6.6.1	win	2023-06-15	11:12:22	11:16:37	249801	6111cbf1e5dffb55a8f70153	4	1	practice_z	5	practice_z	23	stimuli_target_diamondsquares.svg	stimuli_distractor_diamondtriangles.svg	3	yes	44	1	958	0	0			0	0			1				0	
6.6.1	win	2023-06-15	11:12:22	11:16:37	249801	6111cbf1e5dffb55a8f70153	4	1	practice_z	5	advance_on_keypress_ZEE	24	stimuli_target_diamondsquares.svg	stimuli_distractor_diamondtriangles.svg	3	yes	57	0	269	0	0			0	0			1				0	
6.6.1	win	2023-06-15	11:12:22	11:16:40	251991	6111cbf1e5dffb55a8f70153	4	1	practice_z	5	practice_z	25	stimuli_distractor_diamondtriangles.svg	stimuli_distractor_diamondtriangles.svg	13	no	44	0	281	0	0			0	0			1				0	
6.6.1	win	2023-06-15	11:12:22	11:16:40	251991	6111cbf1e5dffb55a8f70153	4	1	practice_z	5	advance_on_keypress_ZEE	26	stimuli_distractor_diamondtriangles.svg	stimuli_distractor_diamondtriangles.svg	13	no	57	0	425	0	0			0	0			1				0	
6.6.1	win	2023-06-15	11:12:22	11:16:42	254770	6111cbf1e5dffb55a8f70153	4	1	practice_z	5	practice_z	27	stimuli_distractor_diamondtriangles.svg	stimuli_target_diamondrectangles.svg	8	yes	44	1	698	0	0			0	0			1				0	
6.6.1	win	2023-06-15	11:12:22	11:16:42	254770	6111cbf1e5dffb55a8f70153	4	1	practice_z	5	advance_on_keypress_ZEE	28	stimuli_distractor_diamondtriangles.svg	stimuli_target_diamondrectangles.svg	8	yes	57	0	241	0	0			0	0			1				0	
6.6.1	win	2023-06-15	11:12:22	11:16:45	257300	6111cbf1e5dffb55a8f70153	4	1	practice_z	5	practice_z	29	stimuli_distractor_diamondtriangles.svg	stimuli_target_rectangletriangles.svg	7	yes	44	1	633	0	0			0	0			1				0	
6.6.1	win	2023-06-15	11:12:22	11:16:45	257300	6111cbf1e5dffb55a8f70153	4	1	practice_z	5	advance_on_keypress_ZEE	30	stimuli_distractor_diamondtriangles.svg	stimuli_target_rectangletriangles.svg	7	yes	57	0	280	0	0			0	0			1				0	
6.6.1	win	2023-06-15	11:12:22	11:16:49	261233	6111cbf1e5dffb55a8f70153	4	1	practice_z	5	practice_z	31	stimuli_distractor_trianglediamonds.svg	stimuli_target_rectanglediamonds.svg	10	yes	0	0	2000	0	0			0	0			1				0	
6.6.1	win	2023-06-15	11:12:22	11:16:49	261233	6111cbf1e5dffb55a8f70153	4	1	practice_z	5	advance_on_keypress_ZEE	32	stimuli_distractor_trianglediamonds.svg	stimuli_target_rectanglediamonds.svg	10	yes	57	0	527	0	0			0	0			1				0	
6.6.1	win	2023-06-15	11:12:22	11:16:58	270015	6111cbf1e5dffb55a8f70153	4	1	main_z	7	main_z	1	stimuli_target_squarediamonds.svg	stimuli_distractor_diamondtriangles.svg	8	yes	44	1	1307	0	0			0	0			1				0	
6.6.1	win	2023-06-15	11:12:22	11:16:58	270015	6111cbf1e5dffb55a8f70153	4	1	main_z	7	advance_on_keypress_ZEE	2	stimuli_target_squarediamonds.svg	stimuli_distractor_diamondtriangles.svg	8	yes	57	0	1113	0	0			0	0			1				0	
6.6.1	win	2023-06-15	11:12:22	11:17:00	272560	6111cbf1e5dffb55a8f70153	4	1	main_z	7	main_z	3	stimuli_distractor_trianglediamonds.svg	stimuli_target_trianglerectangles.svg	25	yes	44	1	769	0	0			0	0			1				0	
6.6.1	win	2023-06-15	11:12:22	11:17:00	272560	6111cbf1e5dffb55a8f70153	4	1	main_z	7	advance_on_keypress_ZEE	4	stimuli_distractor_trianglediamonds.svg	stimuli_target_trianglerectangles.svg	25	yes	57	0	2981	0	0			0	0			1				0	
6.6.1	win	2023-06-15	11:12:22	11:17:04	276724	6111cbf1e5dffb55a8f70153	4	1	main_z	7	main_z	5	stimuli_distractor_trianglediamonds.svg	stimuli_target_squaretriangles.svg	11	yes	44	1	534	0	0			0	0			1				0	
6.6.1	win	2023-06-15	11:12:22	11:17:04	276724	6111cbf1e5dffb55a8f70153	4	1	main_z	7	advance_on_keypress_ZEE	6	stimuli_distractor_trianglediamonds.svg	stimuli_target_squaretriangles.svg	11	yes	57	0	893	0	0			0	0			1				0	
6.6.1	win	2023-06-15	11:12:22	11:17:06	278891	6111cbf1e5dffb55a8f70153	4	1	main_z	7	main_z	7	stimuli_target_trianglesquares.svg	stimuli_distractor_diamondtriangles.svg	22	yes	44	1	615	0	0			0	0			1				0	
6.6.1	win	2023-06-15	11:12:22	11:17:06	278891	6111cbf1e5dffb55a8f70153	4	1	main_z	7	advance_on_keypress_ZEE	8	stimuli_target_trianglesquares.svg	stimuli_distractor_diamondtriangles.svg	22	yes	57	0	812	0	0			0	0			1				0	
6.6.1	win	2023-06-15	11:12:22	11:17:10	282222	6111cbf1e5dffb55a8f70153	4	1	main_z	7	main_z	9	stimuli_distractor_trianglediamonds.svg	stimuli_target_rectangletriangles.svg	9	yes	44	1	1863	0	0			0	0			1				0	
6.6.1	win	2023-06-15	11:12:22	11:17:10	282222	6111cbf1e5dffb55a8f70153	4	1	main_z	7	advance_on_keypress_ZEE	10	stimuli_distractor_trianglediamonds.svg	stimuli_target_rectangletriangles.svg	9	yes	57	0	863	0	0			0	0			1				0	
6.6.1	win	2023-06-15	11:12:22	11:17:12	284428	6111cbf1e5dffb55a8f70153	4	1	main_z	7	main_z	11	stimuli_target_diamondsquares.svg	stimuli_distractor_trianglediamonds.svg	20	yes	44	1	682	0	0			0	0			1				0	
6.6.1	win	2023-06-15	11:12:22	11:17:12	284428	6111cbf1e5dffb55a8f70153	4	1	main_z	7	advance_on_keypress_ZEE	12	stimuli_target_diamondsquares.svg	stimuli_distractor_trianglediamonds.svg	20	yes	57	0	664	0	0			0	0			1				0	
6.6.1	win	2023-06-15	11:12:22	11:17:15	287728	6111cbf1e5dffb55a8f70153	4	1	main_z	7	main_z	13	stimuli_distractor_diamondtriangles.svg	stimuli_target_squarediamonds.svg	16	yes	44	1	1982	0	0			0	0			1				0	
6.6.1	win	2023-06-15	11:12:22	11:17:15	287728	6111cbf1e5dffb55a8f70153	4	1	main_z	7	advance_on_keypress_ZEE	14	stimuli_distractor_diamondtriangles.svg	stimuli_target_squarediamonds.svg	16	yes	57	0	1322	0	0			0	0			1				0	
6.6.1	win	2023-06-15	11:12:22	11:17:19	291711	6111cbf1e5dffb55a8f70153	4	1	main_z	7	main_z	15	stimuli_distractor_diamondtriangles.svg	stimuli_distractor_diamondtriangles.svg	40	no	0	1	2000	0	0			0	0			1				0	
6.6.1	win	2023-06-15	11:12:22	11:17:19	291711	6111cbf1e5dffb55a8f70153	4	1	main_z	7	advance_on_keypress_ZEE	16	stimuli_distractor_diamondtriangles.svg	stimuli_distractor_diamondtriangles.svg	40	no	57	0	525	0	0			0	0			1				0	
6.6.1	win	2023-06-15	11:12:22	11:17:21	293500	6111cbf1e5dffb55a8f70153	4	1	main_z	7	main_z	17	stimuli_distractor_diamondtriangles.svg	stimuli_target_trianglerectangles.svg	29	yes	44	1	614	0	0			0	0			1				0	
6.6.1	win	2023-06-15	11:12:22	11:17:21	293500	6111cbf1e5dffb55a8f70153	4	1	main_z	7	advance_on_keypress_ZEE	18	stimuli_distractor_diamondtriangles.svg	stimuli_target_trianglerectangles.svg	29	yes	57	0	848	0	0			0	0			1				0	
6.6.1	win	2023-06-15	11:12:22	11:17:25	297006	6111cbf1e5dffb55a8f70153	4	1	main_z	7	main_z	19	stimuli_distractor_diamondtriangles.svg	stimuli_distractor_trianglediamonds.svg	38	no	0	1	2000	0	0			0	0			1				0	
6.6.1	win	2023-06-15	11:12:22	11:17:25	297006	6111cbf1e5dffb55a8f70153	4	1	main_z	7	advance_on_keypress_ZEE	20	stimuli_distractor_diamondtriangles.svg	stimuli_distractor_trianglediamonds.svg	38	no	57	0	1103	0	0			0	0			1				0	
6.6.1	win	2023-06-15	11:12:22	11:17:27	299664	6111cbf1e5dffb55a8f70153	4	1	main_z	7	main_z	21	stimuli_target_trianglerectangles.svg	stimuli_distractor_diamondtriangles.svg	21	yes	44	1	922	0	0			0	0			1				0	
6.6.1	win	2023-06-15	11:12:22	11:17:27	299664	6111cbf1e5dffb55a8f70153	4	1	main_z	7	advance_on_keypress_ZEE	22	stimuli_target_trianglerectangles.svg	stimuli_distractor_diamondtriangles.svg	21	yes	57	0	510	0	0			0	0			1				0	
6.6.1	win	2023-06-15	11:12:22	11:17:29	301811	6111cbf1e5dffb55a8f70153	4	1	main_z	7	main_z	23	stimuli_target_diamondrectangles.svg	stimuli_distractor_trianglediamonds.svg	19	yes	44	1	977	0	0			0	0			1				0	
6.6.1	win	2023-06-15	11:12:22	11:17:29	301811	6111cbf1e5dffb55a8f70153	4	1	main_z	7	advance_on_keypress_ZEE	24	stimuli_target_diamondrectangles.svg	stimuli_distractor_trianglediamonds.svg	19	yes	57	0	429	0	0			0	0			1				0	
6.6.1	win	2023-06-15	11:12:22	11:17:32	304887	6111cbf1e5dffb55a8f70153	4	1	main_z	7	main_z	25	stimuli_target_rectanglediamonds.svg	stimuli_distractor_trianglediamonds.svg	2	yes	0	0	2000	0	0			0	0			1				0	
6.6.1	win	2023-06-15	11:12:22	11:17:32	304887	6111cbf1e5dffb55a8f70153	4	1	main_z	7	advance_on_keypress_ZEE	26	stimuli_target_rectanglediamonds.svg	stimuli_distractor_trianglediamonds.svg	2	yes	57	0	433	0	0			0	0			1				0	
6.6.1	win	2023-06-15	11:12:22	11:17:34	306533	6111cbf1e5dffb55a8f70153	4	1	main_z	7	main_z	27	stimuli_distractor_diamondtriangles.svg	stimuli_target_diamondsquares.svg	32	yes	44	1	558	0	0			0	0			1				0	
6.6.1	win	2023-06-15	11:12:22	11:17:34	306533	6111cbf1e5dffb55a8f70153	4	1	main_z	7	advance_on_keypress_ZEE	28	stimuli_distractor_diamondtriangles.svg	stimuli_target_diamondsquares.svg	32	yes	57	0	528	0	0			0	0			1				0	
6.6.1	win	2023-06-15	11:12:22	11:17:36	308836	6111cbf1e5dffb55a8f70153	4	1	main_z	7	main_z	29	stimuli_distractor_diamondtriangles.svg	stimuli_target_diamondrectangles.svg	31	yes	44	1	1128	0	0			0	0			1				0	
6.6.1	win	2023-06-15	11:12:22	11:17:36	308836	6111cbf1e5dffb55a8f70153	4	1	main_z	7	advance_on_keypress_ZEE	30	stimuli_distractor_diamondtriangles.svg	stimuli_target_diamondrectangles.svg	31	yes	57	0	324	0	0			0	0			1				0	
6.6.1	win	2023-06-15	11:12:22	11:17:39	311122	6111cbf1e5dffb55a8f70153	4	1	main_z	7	main_z	31	stimuli_target_squarediamonds.svg	stimuli_distractor_trianglediamonds.svg	4	yes	44	1	1299	0	0			0	0			1				0	
6.6.1	win	2023-06-15	11:12:22	11:17:39	311122	6111cbf1e5dffb55a8f70153	4	1	main_z	7	advance_on_keypress_ZEE	32	stimuli_target_squarediamonds.svg	stimuli_distractor_trianglediamonds.svg	4	yes	57	0	296	0	0			0	0			1				0	
6.6.1	win	2023-06-15	11:12:22	11:17:41	313110	6111cbf1e5dffb55a8f70153	4	1	main_z	7	main_z	33	stimuli_distractor_trianglediamonds.svg	stimuli_distractor_trianglediamonds.svg	34	no	44	0	1042	0	0			0	0			1				0	
6.6.1	win	2023-06-15	11:12:22	11:17:41	313110	6111cbf1e5dffb55a8f70153	4	1	main_z	7	advance_on_keypress_ZEE	34	stimuli_distractor_trianglediamonds.svg	stimuli_distractor_trianglediamonds.svg	34	no	57	0	255	0	0			0	0			1				0	
6.6.1	win	2023-06-15	11:12:22	11:17:44	316002	6111cbf1e5dffb55a8f70153	4	1	main_z	7	main_z	35	stimuli_target_rectangletriangles.svg	stimuli_distractor_trianglediamonds.svg	1	yes	0	0	2000	0	0			0	0			1				0	
6.6.1	win	2023-06-15	11:12:22	11:17:44	316002	6111cbf1e5dffb55a8f70153	4	1	main_z	7	advance_on_keypress_ZEE	36	stimuli_target_rectangletriangles.svg	stimuli_distractor_trianglediamonds.svg	1	yes	57	0	349	0	0			0	0			1				0	
6.6.1	win	2023-06-15	11:12:22	11:17:46	318022	6111cbf1e5dffb55a8f70153	4	1	main_z	7	main_z	37	stimuli_target_rectangletriangles.svg	stimuli_distractor_diamondtriangles.svg	5	yes	44	1	1017	0	0			0	0			1				0	
6.6.1	win	2023-06-15	11:12:22	11:17:46	318022	6111cbf1e5dffb55a8f70153	4	1	main_z	7	advance_on_keypress_ZEE	38	stimuli_target_rectangletriangles.svg	stimuli_distractor_diamondtriangles.svg	5	yes	57	0	353	0	0			0	0			1				0	
6.6.1	win	2023-06-15	11:12:22	11:17:48	320740	6111cbf1e5dffb55a8f70153	4	1	main_z	7	main_z	39	stimuli_distractor_trianglediamonds.svg	stimuli_distractor_diamondtriangles.svg	36	no	44	0	1727	0	0			0	0			1				0	
6.6.1	win	2023-06-15	11:12:22	11:17:48	320740	6111cbf1e5dffb55a8f70153	4	1	main_z	7	advance_on_keypress_ZEE	40	stimuli_distractor_trianglediamonds.svg	stimuli_distractor_diamondtriangles.svg	36	no	57	0	233	0	0			0	0			1				0	
6.6.1	win	2023-06-15	11:12:22	11:17:50	322754	6111cbf1e5dffb55a8f70153	4	1	main_z	7	main_z	41	stimuli_distractor_trianglediamonds.svg	stimuli_target_rectanglediamonds.svg	10	yes	44	1	1137	0	0			0	0			1				0	
6.6.1	win	2023-06-15	11:12:22	11:17:50	322754	6111cbf1e5dffb55a8f70153	4	1	main_z	7	advance_on_keypress_ZEE	42	stimuli_distractor_trianglediamonds.svg	stimuli_target_rectanglediamonds.svg	10	yes	57	0	197	0	0			0	0			1				0	
6.6.1	win	2023-06-15	11:12:22	11:17:53	325595	6111cbf1e5dffb55a8f70153	4	1	main_z	7	main_z	43	stimuli_distractor_trianglediamonds.svg	stimuli_distractor_trianglediamonds.svg	33	no	0	1	2000	0	0			0	0			1				0	
6.6.1	win	2023-06-15	11:12:22	11:17:53	325595	6111cbf1e5dffb55a8f70153	4	1	main_z	7	advance_on_keypress_ZEE	44	stimuli_distractor_trianglediamonds.svg	stimuli_distractor_trianglediamonds.svg	33	no	57	0	524	0	0			0	0			1				0	
6.6.1	win	2023-06-15	11:12:22	11:17:56	328684	6111cbf1e5dffb55a8f70153	4	1	main_z	7	main_z	45	stimuli_distractor_diamondtriangles.svg	stimuli_target_squaretriangles.svg	15	yes	44	1	1918	0	0			0	0			1				0	
6.6.1	win	2023-06-15	11:12:22	11:17:56	328684	6111cbf1e5dffb55a8f70153	4	1	main_z	7	advance_on_keypress_ZEE	46	stimuli_distractor_diamondtriangles.svg	stimuli_target_squaretriangles.svg	15	yes	57	0	137	0	0			0	0			1				0	
6.6.1	win	2023-06-15	11:12:22	11:17:58	330391	6111cbf1e5dffb55a8f70153	4	1	main_z	7	main_z	47	stimuli_target_diamondrectangles.svg	stimuli_distractor_diamondtriangles.svg	23	yes	44	1	923	0	0			0	0			1				0	
6.6.1	win	2023-06-15	11:12:22	11:17:58	330391	6111cbf1e5dffb55a8f70153	4	1	main_z	7	advance_on_keypress_ZEE	48	stimuli_target_diamondrectangles.svg	stimuli_distractor_diamondtriangles.svg	23	yes	57	0	199	0	0			0	0			1				0	
6.6.1	win	2023-06-15	11:12:22	11:18:00	332346	6111cbf1e5dffb55a8f70153	4	1	main_z	7	main_z	49	stimuli_target_squaretriangles.svg	stimuli_distractor_trianglediamonds.svg	3	yes	44	1	1111	0	0			0	0			1				0	
6.6.1	win	2023-06-15	11:12:22	11:18:00	332346	6111cbf1e5dffb55a8f70153	4	1	main_z	7	advance_on_keypress_ZEE	50	stimuli_target_squaretriangles.svg	stimuli_distractor_trianglediamonds.svg	3	yes	57	0	221	0	0			0	0			1				0	
6.6.1	win	2023-06-15	11:12:22	11:18:02	334392	6111cbf1e5dffb55a8f70153	4	1	main_z	7	main_z	51	stimuli_target_squaretriangles.svg	stimuli_distractor_diamondtriangles.svg	7	yes	44	1	1182	0	0			0	0			1				0	
6.6.1	win	2023-06-15	11:12:22	11:18:02	334392	6111cbf1e5dffb55a8f70153	4	1	main_z	7	advance_on_keypress_ZEE	52	stimuli_target_squaretriangles.svg	stimuli_distractor_diamondtriangles.svg	7	yes	57	0	234	0	0			0	0			1				0	
6.6.1	win	2023-06-15	11:12:22	11:18:04	336010	6111cbf1e5dffb55a8f70153	4	1	main_z	7	main_z	53	stimuli_distractor_trianglediamonds.svg	stimuli_target_diamondrectangles.svg	27	yes	44	1	735	0	0			0	0			1				0	
6.6.1	win	2023-06-15	11:12:22	11:18:04	336010	6111cbf1e5dffb55a8f70153	4	1	main_z	7	advance_on_keypress_ZEE	54	stimuli_distractor_trianglediamonds.svg	stimuli_target_diamondrectangles.svg	27	yes	57	0	270	0	0			0	0			1				0	
6.6.1	win	2023-06-15	11:12:22	11:18:05	337551	6111cbf1e5dffb55a8f70153	4	1	main_z	7	main_z	55	stimuli_target_rectanglediamonds.svg	stimuli_distractor_diamondtriangles.svg	6	yes	44	1	630	0	0			0	0			1				0	
6.6.1	win	2023-06-15	11:12:22	11:18:05	337551	6111cbf1e5dffb55a8f70153	4	1	main_z	7	advance_on_keypress_ZEE	56	stimuli_target_rectanglediamonds.svg	stimuli_distractor_diamondtriangles.svg	6	yes	57	0	268	0	0			0	0			1				0	
6.6.1	win	2023-06-15	11:12:22	11:18:07	339031	6111cbf1e5dffb55a8f70153	4	1	main_z	7	main_z	57	stimuli_distractor_trianglediamonds.svg	stimuli_target_trianglesquares.svg	26	yes	44	1	553	0	0			0	0			1				0	
6.6.1	win	2023-06-15	11:12:22	11:18:07	339031	6111cbf1e5dffb55a8f70153	4	1	main_z	7	advance_on_keypress_ZEE	58	stimuli_distractor_trianglediamonds.svg	stimuli_target_trianglesquares.svg	26	yes	57	0	272	0	0			0	0			1				0	
6.6.1	win	2023-06-15	11:12:22	11:18:09	341957	6111cbf1e5dffb55a8f70153	4	1	main_z	7	main_z	59	stimuli_distractor_diamondtriangles.svg	stimuli_distractor_diamondtriangles.svg	39	no	0	1	2000	0	0			0	0			1				0	
6.6.1	win	2023-06-15	11:12:22	11:18:09	341957	6111cbf1e5dffb55a8f70153	4	1	main_z	7	advance_on_keypress_ZEE	60	stimuli_distractor_diamondtriangles.svg	stimuli_distractor_diamondtriangles.svg	39	no	57	0	542	0	0			0	0			1				0	
6.6.1	win	2023-06-15	11:12:22	11:18:12	344045	6111cbf1e5dffb55a8f70153	4	1	main_z	7	main_z	61	stimuli_distractor_diamondtriangles.svg	stimuli_target_rectanglediamonds.svg	14	yes	44	1	893	0	0			0	0			1				0	
6.6.1	win	2023-06-15	11:12:22	11:18:12	344045	6111cbf1e5dffb55a8f70153	4	1	main_z	7	advance_on_keypress_ZEE	62	stimuli_distractor_diamondtriangles.svg	stimuli_target_rectanglediamonds.svg	14	yes	57	0	221	0	0			0	0			1				0	
6.6.1	win	2023-06-15	11:12:22	11:18:14	346203	6111cbf1e5dffb55a8f70153	4	1	main_z	7	main_z	63	stimuli_distractor_diamondtriangles.svg	stimuli_distractor_trianglediamonds.svg	37	no	44	0	1288	0	0			0	0			1				0	
6.6.1	win	2023-06-15	11:12:22	11:18:14	346203	6111cbf1e5dffb55a8f70153	4	1	main_z	7	advance_on_keypress_ZEE	64	stimuli_distractor_diamondtriangles.svg	stimuli_distractor_trianglediamonds.svg	37	no	57	0	163	0	0			0	0			1				0	
6.6.1	win	2023-06-15	11:12:22	11:18:15	347940	6111cbf1e5dffb55a8f70153	4	1	main_z	7	main_z	65	stimuli_distractor_trianglediamonds.svg	stimuli_target_diamondsquares.svg	28	yes	44	1	930	0	0			0	0			1				0	
6.6.1	win	2023-06-15	11:12:22	11:18:15	347940	6111cbf1e5dffb55a8f70153	4	1	main_z	7	advance_on_keypress_ZEE	66	stimuli_distractor_trianglediamonds.svg	stimuli_target_diamondsquares.svg	28	yes	57	0	185	0	0			0	0			1				0	
6.6.1	win	2023-06-15	11:12:22	11:18:17	349811	6111cbf1e5dffb55a8f70153	4	1	main_z	7	main_z	67	stimuli_target_diamondsquares.svg	stimuli_distractor_diamondtriangles.svg	24	yes	44	1	1031	0	0			0	0			1				0	
6.6.1	win	2023-06-15	11:12:22	11:18:17	349811	6111cbf1e5dffb55a8f70153	4	1	main_z	7	advance_on_keypress_ZEE	68	stimuli_target_diamondsquares.svg	stimuli_distractor_diamondtriangles.svg	24	yes	57	0	171	0	0			0	0			1				0	
6.6.1	win	2023-06-15	11:12:22	11:18:19	351650	6111cbf1e5dffb55a8f70153	4	1	main_z	7	main_z	69	stimuli_target_trianglerectangles.svg	stimuli_distractor_trianglediamonds.svg	17	yes	44	1	1017	0	0			0	0			1				0	
6.6.1	win	2023-06-15	11:12:22	11:18:19	351650	6111cbf1e5dffb55a8f70153	4	1	main_z	7	advance_on_keypress_ZEE	70	stimuli_target_trianglerectangles.svg	stimuli_distractor_trianglediamonds.svg	17	yes	57	0	175	0	0			0	0			1				0	
6.6.1	win	2023-06-15	11:12:22	11:18:21	353352	6111cbf1e5dffb55a8f70153	4	1	main_z	7	main_z	71	stimuli_target_trianglesquares.svg	stimuli_distractor_trianglediamonds.svg	18	yes	44	1	876	0	0			0	0			1				0	
6.6.1	win	2023-06-15	11:12:22	11:18:21	353352	6111cbf1e5dffb55a8f70153	4	1	main_z	7	advance_on_keypress_ZEE	72	stimuli_target_trianglesquares.svg	stimuli_distractor_trianglediamonds.svg	18	yes	57	0	197	0	0			0	0			1				0	
6.6.1	win	2023-06-15	11:12:22	11:18:24	356200	6111cbf1e5dffb55a8f70153	4	1	main_z	7	main_z	73	stimuli_distractor_trianglediamonds.svg	stimuli_distractor_diamondtriangles.svg	35	no	0	1	2000	0	0			0	0			1				0	
6.6.1	win	2023-06-15	11:12:22	11:18:24	356200	6111cbf1e5dffb55a8f70153	4	1	main_z	7	advance_on_keypress_ZEE	74	stimuli_distractor_trianglediamonds.svg	stimuli_distractor_diamondtriangles.svg	35	no	57	0	663	0	0			0	0			1				0	
6.6.1	win	2023-06-15	11:12:22	11:18:26	358598	6111cbf1e5dffb55a8f70153	4	1	main_z	7	main_z	75	stimuli_distractor_diamondtriangles.svg	stimuli_target_rectangletriangles.svg	13	yes	44	1	1079	0	0			0	0			1				0	
6.6.1	win	2023-06-15	11:12:22	11:18:26	358598	6111cbf1e5dffb55a8f70153	4	1	main_z	7	advance_on_keypress_ZEE	76	stimuli_distractor_diamondtriangles.svg	stimuli_target_rectangletriangles.svg	13	yes	57	0	199	0	0			0	0			1				0	
6.6.1	win	2023-06-15	11:12:22	11:18:28	360186	6111cbf1e5dffb55a8f70153	4	1	main_z	7	main_z	77	stimuli_distractor_trianglediamonds.svg	stimuli_target_squarediamonds.svg	12	yes	44	1	733	0	0			0	0			1				0	
6.6.1	win	2023-06-15	11:12:22	11:18:28	360186	6111cbf1e5dffb55a8f70153	4	1	main_z	7	advance_on_keypress_ZEE	78	stimuli_distractor_trianglediamonds.svg	stimuli_target_squarediamonds.svg	12	yes	57	0	203	0	0			0	0			1				0	
6.6.1	win	2023-06-15	11:12:22	11:18:29	361756	6111cbf1e5dffb55a8f70153	4	1	main_z	7	main_z	79	stimuli_distractor_diamondtriangles.svg	stimuli_target_trianglesquares.svg	30	yes	44	1	704	0	0			0	0			1				0	
6.6.1	win	2023-06-15	11:12:22	11:18:29	361756	6111cbf1e5dffb55a8f70153	4	1	main_z	7	advance_on_keypress_ZEE	80	stimuli_distractor_diamondtriangles.svg	stimuli_target_trianglesquares.svg	30	yes	57	0	270	0	0			0	0			1				0	
6.6.1	win	2023-06-15	11:12:22	11:18:31	363710	6111cbf1e5dffb55a8f70153	4	1	main_z	7	main_z	81	stimuli_distractor_trianglediamonds.svg	stimuli_target_rectanglediamonds.svg	10	yes	44	1	1045	0	0			0	0			1				0	
6.6.1	win	2023-06-15	11:12:22	11:18:31	363710	6111cbf1e5dffb55a8f70153	4	1	main_z	7	advance_on_keypress_ZEE	82	stimuli_distractor_trianglediamonds.svg	stimuli_target_rectanglediamonds.svg	10	yes	57	0	215	0	0			0	0			1				0	
6.6.1	win	2023-06-15	11:12:22	11:18:34	366576	6111cbf1e5dffb55a8f70153	4	1	main_z	7	main_z	83	stimuli_distractor_trianglediamonds.svg	stimuli_distractor_trianglediamonds.svg	34	no	0	1	2000	0	0			0	0			1				0	
6.6.1	win	2023-06-15	11:12:22	11:18:34	366576	6111cbf1e5dffb55a8f70153	4	1	main_z	7	advance_on_keypress_ZEE	84	stimuli_distractor_trianglediamonds.svg	stimuli_distractor_trianglediamonds.svg	34	no	57	0	662	0	0			0	0			1				0	
6.6.1	win	2023-06-15	11:12:22	11:18:36	368529	6111cbf1e5dffb55a8f70153	4	1	main_z	7	main_z	85	stimuli_target_diamondrectangles.svg	stimuli_distractor_trianglediamonds.svg	19	yes	44	1	632	0	0			0	0			1				0	
6.6.1	win	2023-06-15	11:12:22	11:18:36	368529	6111cbf1e5dffb55a8f70153	4	1	main_z	7	advance_on_keypress_ZEE	86	stimuli_target_diamondrectangles.svg	stimuli_distractor_trianglediamonds.svg	19	yes	57	0	276	0	0			0	0			1				0	
6.6.1	win	2023-06-15	11:12:22	11:18:38	370114	6111cbf1e5dffb55a8f70153	4	1	main_z	7	main_z	87	stimuli_distractor_trianglediamonds.svg	stimuli_target_trianglerectangles.svg	25	yes	44	1	659	0	0			0	0			1				0	
6.6.1	win	2023-06-15	11:12:22	11:18:38	370114	6111cbf1e5dffb55a8f70153	4	1	main_z	7	advance_on_keypress_ZEE	88	stimuli_distractor_trianglediamonds.svg	stimuli_target_trianglerectangles.svg	25	yes	57	0	225	0	0			0	0			1				0	
6.6.1	win	2023-06-15	11:12:22	11:18:39	371731	6111cbf1e5dffb55a8f70153	4	1	main_z	7	main_z	89	stimuli_target_rectangletriangles.svg	stimuli_distractor_trianglediamonds.svg	1	yes	44	1	748	0	0			0	0			1				0	
6.6.1	win	2023-06-15	11:12:22	11:18:39	371731	6111cbf1e5dffb55a8f70153	4	1	main_z	7	advance_on_keypress_ZEE	90	stimuli_target_rectangletriangles.svg	stimuli_distractor_trianglediamonds.svg	1	yes	57	0	262	0	0			0	0			1				0	
6.6.1	win	2023-06-15	11:12:22	11:18:41	373220	6111cbf1e5dffb55a8f70153	4	1	main_z	7	main_z	91	stimuli_target_rectanglediamonds.svg	stimuli_distractor_diamondtriangles.svg	6	yes	44	1	562	0	0			0	0			1				0	
6.6.1	win	2023-06-15	11:12:22	11:18:41	373220	6111cbf1e5dffb55a8f70153	4	1	main_z	7	advance_on_keypress_ZEE	92	stimuli_target_rectanglediamonds.svg	stimuli_distractor_diamondtriangles.svg	6	yes	57	0	233	0	0			0	0			1				0	
6.6.1	win	2023-06-15	11:12:22	11:18:42	374819	6111cbf1e5dffb55a8f70153	4	1	main_z	7	main_z	93	stimuli_distractor_diamondtriangles.svg	stimuli_target_diamondsquares.svg	32	yes	44	1	720	0	0			0	0			1				0	
6.6.1	win	2023-06-15	11:12:22	11:18:42	374819	6111cbf1e5dffb55a8f70153	4	1	main_z	7	advance_on_keypress_ZEE	94	stimuli_distractor_diamondtriangles.svg	stimuli_target_diamondsquares.svg	32	yes	57	0	268	0	0			0	0			1				0	
6.6.1	win	2023-06-15	11:12:22	11:18:44	376396	6111cbf1e5dffb55a8f70153	4	1	main_z	7	main_z	95	stimuli_distractor_trianglediamonds.svg	stimuli_target_squaretriangles.svg	11	yes	44	1	660	0	0			0	0			1				0	
6.6.1	win	2023-06-15	11:12:22	11:18:44	376396	6111cbf1e5dffb55a8f70153	4	1	main_z	7	advance_on_keypress_ZEE	96	stimuli_distractor_trianglediamonds.svg	stimuli_target_squaretriangles.svg	11	yes	57	0	255	0	0			0	0			1				0	
6.6.1	win	2023-06-15	11:12:22	11:18:45	377933	6111cbf1e5dffb55a8f70153	4	1	main_z	7	main_z	97	stimuli_target_trianglesquares.svg	stimuli_distractor_diamondtriangles.svg	22	yes	44	1	640	0	0			0	0			1				0	
6.6.1	win	2023-06-15	11:12:22	11:18:45	377933	6111cbf1e5dffb55a8f70153	4	1	main_z	7	advance_on_keypress_ZEE	98	stimuli_target_trianglesquares.svg	stimuli_distractor_diamondtriangles.svg	22	yes	57	0	235	0	0			0	0			1				0	
6.6.1	win	2023-06-15	11:12:22	11:18:48	380814	6111cbf1e5dffb55a8f70153	4	1	main_z	7	main_z	99	stimuli_distractor_trianglediamonds.svg	stimuli_distractor_diamondtriangles.svg	35	no	0	1	2000	0	0			0	0			1				0	
6.6.1	win	2023-06-15	11:12:22	11:18:48	380814	6111cbf1e5dffb55a8f70153	4	1	main_z	7	advance_on_keypress_ZEE	100	stimuli_distractor_trianglediamonds.svg	stimuli_distractor_diamondtriangles.svg	35	no	57	0	582	0	0			0	0			1				0	
6.6.1	win	2023-06-15	11:12:22	11:18:52	384032	6111cbf1e5dffb55a8f70153	4	1	main_z	7	main_z	101	stimuli_distractor_diamondtriangles.svg	stimuli_distractor_diamondtriangles.svg	39	no	44	0	1981	0	0			0	0			1				0	
6.6.1	win	2023-06-15	11:12:22	11:18:52	384032	6111cbf1e5dffb55a8f70153	4	1	main_z	7	advance_on_keypress_ZEE	102	stimuli_distractor_diamondtriangles.svg	stimuli_distractor_diamondtriangles.svg	39	no	57	0	192	0	0			0	0			1				0	
6.6.1	win	2023-06-15	11:12:22	11:18:53	385554	6111cbf1e5dffb55a8f70153	4	1	main_z	7	main_z	103	stimuli_distractor_diamondtriangles.svg	stimuli_target_trianglerectangles.svg	29	yes	44	1	683	0	0			0	0			1				0	
6.6.1	win	2023-06-15	11:12:22	11:18:53	385554	6111cbf1e5dffb55a8f70153	4	1	main_z	7	advance_on_keypress_ZEE	104	stimuli_distractor_diamondtriangles.svg	stimuli_target_trianglerectangles.svg	29	yes	57	0	248	0	0			0	0			1				0	
6.6.1	win	2023-06-15	11:12:22	11:18:55	387226	6111cbf1e5dffb55a8f70153	4	1	main_z	7	main_z	105	stimuli_target_rectangletriangles.svg	stimuli_distractor_diamondtriangles.svg	5	yes	44	1	785	0	0			0	0			1				0	
6.6.1	win	2023-06-15	11:12:22	11:18:55	387226	6111cbf1e5dffb55a8f70153	4	1	main_z	7	advance_on_keypress_ZEE	106	stimuli_target_rectangletriangles.svg	stimuli_distractor_diamondtriangles.svg	5	yes	57	0	192	0	0			0	0			1				0	
6.6.1	win	2023-06-15	11:12:22	11:18:56	388635	6111cbf1e5dffb55a8f70153	4	1	main_z	7	main_z	107	stimuli_distractor_diamondtriangles.svg	stimuli_target_rectangletriangles.svg	13	yes	44	1	573	0	0			0	0			1				0	
6.6.1	win	2023-06-15	11:12:22	11:18:56	388635	6111cbf1e5dffb55a8f70153	4	1	main_z	7	advance_on_keypress_ZEE	108	stimuli_distractor_diamondtriangles.svg	stimuli_target_rectangletriangles.svg	13	yes	57	0	182	0	0			0	0			1				0	
6.6.1	win	2023-06-15	11:12:22	11:18:58	390064	6111cbf1e5dffb55a8f70153	4	1	main_z	7	main_z	109	stimuli_target_squarediamonds.svg	stimuli_distractor_trianglediamonds.svg	4	yes	44	1	590	0	0			0	0			1				0	
6.6.1	win	2023-06-15	11:12:22	11:18:58	390064	6111cbf1e5dffb55a8f70153	4	1	main_z	7	advance_on_keypress_ZEE	110	stimuli_target_squarediamonds.svg	stimuli_distractor_trianglediamonds.svg	4	yes	57	0	192	0	0			0	0			1				0	
6.6.1	win	2023-06-15	11:12:22	11:19:00	392907	6111cbf1e5dffb55a8f70153	4	1	main_z	7	main_z	111	stimuli_distractor_diamondtriangles.svg	stimuli_distractor_diamondtriangles.svg	40	no	0	1	2000	0	0			0	0			1				0	
6.6.1	win	2023-06-15	11:12:22	11:19:00	392907	6111cbf1e5dffb55a8f70153	4	1	main_z	7	advance_on_keypress_ZEE	112	stimuli_distractor_diamondtriangles.svg	stimuli_distractor_diamondtriangles.svg	40	no	57	0	834	0	0			0	0			1				0	
6.6.1	win	2023-06-15	11:12:22	11:19:03	395032	6111cbf1e5dffb55a8f70153	4	1	main_z	7	main_z	113	stimuli_distractor_diamondtriangles.svg	stimuli_target_squaretriangles.svg	15	yes	44	1	642	0	0			0	0			1				0	
6.6.1	win	2023-06-15	11:12:22	11:19:03	395032	6111cbf1e5dffb55a8f70153	4	1	main_z	7	advance_on_keypress_ZEE	114	stimuli_distractor_diamondtriangles.svg	stimuli_target_squaretriangles.svg	15	yes	57	0	244	0	0			0	0			1				0	
6.6.1	win	2023-06-15	11:12:22	11:19:04	396818	6111cbf1e5dffb55a8f70153	4	1	main_z	7	main_z	115	stimuli_target_squarediamonds.svg	stimuli_distractor_diamondtriangles.svg	8	yes	44	1	896	0	0			0	0			1				0	
6.6.1	win	2023-06-15	11:12:22	11:19:04	396818	6111cbf1e5dffb55a8f70153	4	1	main_z	7	advance_on_keypress_ZEE	116	stimuli_target_squarediamonds.svg	stimuli_distractor_diamondtriangles.svg	8	yes	57	0	185	0	0			0	0			1				0	
6.6.1	win	2023-06-15	11:12:22	11:19:06	398340	6111cbf1e5dffb55a8f70153	4	1	main_z	7	main_z	117	stimuli_distractor_trianglediamonds.svg	stimuli_target_diamondsquares.svg	28	yes	44	1	684	0	0			0	0			1				0	
6.6.1	win	2023-06-15	11:12:22	11:19:06	398340	6111cbf1e5dffb55a8f70153	4	1	main_z	7	advance_on_keypress_ZEE	118	stimuli_distractor_trianglediamonds.svg	stimuli_target_diamondsquares.svg	28	yes	57	0	264	0	0			0	0			1				0	
6.6.1	win	2023-06-15	11:12:22	11:19:08	400141	6111cbf1e5dffb55a8f70153	4	1	main_z	7	main_z	119	stimuli_distractor_trianglediamonds.svg	stimuli_target_diamondrectangles.svg	27	yes	44	1	886	0	0			0	0			1				0	
6.6.1	win	2023-06-15	11:12:22	11:19:08	400141	6111cbf1e5dffb55a8f70153	4	1	main_z	7	advance_on_keypress_ZEE	120	stimuli_distractor_trianglediamonds.svg	stimuli_target_diamondrectangles.svg	27	yes	57	0	180	0	0			0	0			1				0	
6.6.1	win	2023-06-15	11:12:22	11:19:10	402983	6111cbf1e5dffb55a8f70153	4	1	main_z	7	main_z	121	stimuli_distractor_trianglediamonds.svg	stimuli_distractor_diamondtriangles.svg	36	no	0	1	2000	0	0			0	0			1				0	
6.6.1	win	2023-06-15	11:12:22	11:19:10	402983	6111cbf1e5dffb55a8f70153	4	1	main_z	7	advance_on_keypress_ZEE	122	stimuli_distractor_trianglediamonds.svg	stimuli_distractor_diamondtriangles.svg	36	no	57	0	917	0	0			0	0			1				0	
6.6.1	win	2023-06-15	11:12:22	11:19:13	405178	6111cbf1e5dffb55a8f70153	4	1	main_z	7	main_z	123	stimuli_target_rectanglediamonds.svg	stimuli_distractor_trianglediamonds.svg	2	yes	44	1	624	0	0			0	0			1				0	
6.6.1	win	2023-06-15	11:12:22	11:19:13	405178	6111cbf1e5dffb55a8f70153	4	1	main_z	7	advance_on_keypress_ZEE	124	stimuli_target_rectanglediamonds.svg	stimuli_distractor_trianglediamonds.svg	2	yes	57	0	256	0	0			0	0			1				0	
6.6.1	win	2023-06-15	11:12:22	11:19:14	406610	6111cbf1e5dffb55a8f70153	4	1	main_z	7	main_z	125	stimuli_distractor_diamondtriangles.svg	stimuli_target_diamondrectangles.svg	31	yes	44	1	537	0	0			0	0			1				0	
6.6.1	win	2023-06-15	11:12:22	11:19:14	406610	6111cbf1e5dffb55a8f70153	4	1	main_z	7	advance_on_keypress_ZEE	126	stimuli_distractor_diamondtriangles.svg	stimuli_target_diamondrectangles.svg	31	yes	57	0	159	0	0			0	0			1				0	
6.6.1	win	2023-06-15	11:12:22	11:19:16	408798	6111cbf1e5dffb55a8f70153	4	1	main_z	7	main_z	127	stimuli_distractor_diamondtriangles.svg	stimuli_distractor_trianglediamonds.svg	38	no	44	0	1383	0	0			0	0			1				0	
6.6.1	win	2023-06-15	11:12:22	11:19:16	408798	6111cbf1e5dffb55a8f70153	4	1	main_z	7	advance_on_keypress_ZEE	128	stimuli_distractor_diamondtriangles.svg	stimuli_distractor_trianglediamonds.svg	38	no	57	0	185	0	0			0	0			1				0	
6.6.1	win	2023-06-15	11:12:22	11:19:18	410729	6111cbf1e5dffb55a8f70153	4	1	main_z	7	main_z	129	stimuli_distractor_diamondtriangles.svg	stimuli_target_squarediamonds.svg	16	yes	44	1	1086	0	0			0	0			1				0	
6.6.1	win	2023-06-15	11:12:22	11:19:18	410729	6111cbf1e5dffb55a8f70153	4	1	main_z	7	advance_on_keypress_ZEE	130	stimuli_distractor_diamondtriangles.svg	stimuli_target_squarediamonds.svg	16	yes	57	0	208	0	0			0	0			1				0	
6.6.1	win	2023-06-15	11:12:22	11:19:20	412520	6111cbf1e5dffb55a8f70153	4	1	main_z	7	main_z	131	stimuli_target_trianglerectangles.svg	stimuli_distractor_trianglediamonds.svg	17	yes	44	1	927	0	0			0	0			1				0	
6.6.1	win	2023-06-15	11:12:22	11:19:20	412520	6111cbf1e5dffb55a8f70153	4	1	main_z	7	advance_on_keypress_ZEE	132	stimuli_target_trianglerectangles.svg	stimuli_distractor_trianglediamonds.svg	17	yes	57	0	174	0	0			0	0			1				0	
6.6.1	win	2023-06-15	11:12:22	11:19:22	414190	6111cbf1e5dffb55a8f70153	4	1	main_z	7	main_z	133	stimuli_target_squaretriangles.svg	stimuli_distractor_diamondtriangles.svg	7	yes	44	1	856	0	0			0	0			1				0	
6.6.1	win	2023-06-15	11:12:22	11:19:22	414190	6111cbf1e5dffb55a8f70153	4	1	main_z	7	advance_on_keypress_ZEE	134	stimuli_target_squaretriangles.svg	stimuli_distractor_diamondtriangles.svg	7	yes	57	0	175	0	0			0	0			1				0	
6.6.1	win	2023-06-15	11:12:22	11:19:23	415910	6111cbf1e5dffb55a8f70153	4	1	main_z	7	main_z	135	stimuli_distractor_trianglediamonds.svg	stimuli_target_trianglesquares.svg	26	yes	44	1	897	0	0			0	0			1				0	
6.6.1	win	2023-06-15	11:12:22	11:19:23	415910	6111cbf1e5dffb55a8f70153	4	1	main_z	7	advance_on_keypress_ZEE	136	stimuli_distractor_trianglediamonds.svg	stimuli_target_trianglesquares.svg	26	yes	57	0	210	0	0			0	0			1				0	
6.6.1	win	2023-06-15	11:12:22	11:19:25	417390	6111cbf1e5dffb55a8f70153	4	1	main_z	7	main_z	137	stimuli_distractor_trianglediamonds.svg	stimuli_target_squarediamonds.svg	12	yes	44	1	611	0	0			0	0			1				0	
6.6.1	win	2023-06-15	11:12:22	11:19:25	417390	6111cbf1e5dffb55a8f70153	4	1	main_z	7	advance_on_keypress_ZEE	138	stimuli_distractor_trianglediamonds.svg	stimuli_target_squarediamonds.svg	12	yes	57	0	209	0	0			0	0			1				0	
6.6.1	win	2023-06-15	11:12:22	11:19:26	418899	6111cbf1e5dffb55a8f70153	4	1	main_z	7	main_z	139	stimuli_target_trianglerectangles.svg	stimuli_distractor_diamondtriangles.svg	21	yes	44	1	645	0	0			0	0			1				0	
6.6.1	win	2023-06-15	11:12:22	11:19:26	418899	6111cbf1e5dffb55a8f70153	4	1	main_z	7	advance_on_keypress_ZEE	140	stimuli_target_trianglerectangles.svg	stimuli_distractor_diamondtriangles.svg	21	yes	57	0	193	0	0			0	0			1				0	
6.6.1	win	2023-06-15	11:12:22	11:19:28	420557	6111cbf1e5dffb55a8f70153	4	1	main_z	7	main_z	141	stimuli_target_squaretriangles.svg	stimuli_distractor_trianglediamonds.svg	3	yes	44	1	832	0	0			0	0			1				0	
6.6.1	win	2023-06-15	11:12:22	11:19:28	420557	6111cbf1e5dffb55a8f70153	4	1	main_z	7	advance_on_keypress_ZEE	142	stimuli_target_squaretriangles.svg	stimuli_distractor_trianglediamonds.svg	3	yes	57	0	224	0	0			0	0			1				0	
6.6.1	win	2023-06-15	11:12:22	11:19:30	422144	6111cbf1e5dffb55a8f70153	4	1	main_z	7	main_z	143	stimuli_target_diamondrectangles.svg	stimuli_distractor_diamondtriangles.svg	23	yes	44	1	704	0	0			0	0			1				0	
6.6.1	win	2023-06-15	11:12:22	11:19:30	422144	6111cbf1e5dffb55a8f70153	4	1	main_z	7	advance_on_keypress_ZEE	144	stimuli_target_diamondrectangles.svg	stimuli_distractor_diamondtriangles.svg	23	yes	57	0	187	0	0			0	0			1				0	
6.6.1	win	2023-06-15	11:12:22	11:19:31	423582	6111cbf1e5dffb55a8f70153	4	1	main_z	7	main_z	145	stimuli_distractor_trianglediamonds.svg	stimuli_target_rectangletriangles.svg	9	yes	44	1	600	0	0			0	0			1				0	
6.6.1	win	2023-06-15	11:12:22	11:19:31	423582	6111cbf1e5dffb55a8f70153	4	1	main_z	7	advance_on_keypress_ZEE	146	stimuli_distractor_trianglediamonds.svg	stimuli_target_rectangletriangles.svg	9	yes	57	0	206	0	0			0	0			1				0	
6.6.1	win	2023-06-15	11:12:22	11:19:34	426440	6111cbf1e5dffb55a8f70153	4	1	main_z	7	main_z	147	stimuli_distractor_diamondtriangles.svg	stimuli_distractor_trianglediamonds.svg	37	no	0	1	2000	0	0			0	0			1				0	
6.6.1	win	2023-06-15	11:12:22	11:19:34	426440	6111cbf1e5dffb55a8f70153	4	1	main_z	7	advance_on_keypress_ZEE	148	stimuli_distractor_diamondtriangles.svg	stimuli_distractor_trianglediamonds.svg	37	no	57	0	1017	0	0			0	0			1				0	
6.6.1	win	2023-06-15	11:12:22	11:19:36	428572	6111cbf1e5dffb55a8f70153	4	1	main_z	7	main_z	149	stimuli_target_diamondsquares.svg	stimuli_distractor_trianglediamonds.svg	20	yes	44	1	462	0	0			0	0			1				0	
6.6.1	win	2023-06-15	11:12:22	11:19:36	428572	6111cbf1e5dffb55a8f70153	4	1	main_z	7	advance_on_keypress_ZEE	150	stimuli_target_diamondsquares.svg	stimuli_distractor_trianglediamonds.svg	20	yes	57	0	183	0	0			0	0			1				0	
6.6.1	win	2023-06-15	11:12:22	11:19:38	430196	6111cbf1e5dffb55a8f70153	4	1	main_z	7	main_z	151	stimuli_distractor_trianglediamonds.svg	stimuli_distractor_trianglediamonds.svg	33	no	44	0	799	0	0			0	0			1				0	
6.6.1	win	2023-06-15	11:12:22	11:19:38	430196	6111cbf1e5dffb55a8f70153	4	1	main_z	7	advance_on_keypress_ZEE	152	stimuli_distractor_trianglediamonds.svg	stimuli_distractor_trianglediamonds.svg	33	no	57	0	175	0	0			0	0			1				0	
6.6.1	win	2023-06-15	11:12:22	11:19:40	432420	6111cbf1e5dffb55a8f70153	4	1	main_z	7	main_z	153	stimuli_distractor_diamondtriangles.svg	stimuli_target_rectanglediamonds.svg	14	yes	44	1	1402	0	0			0	0			1				0	
6.6.1	win	2023-06-15	11:12:22	11:19:40	432420	6111cbf1e5dffb55a8f70153	4	1	main_z	7	advance_on_keypress_ZEE	154	stimuli_distractor_diamondtriangles.svg	stimuli_target_rectanglediamonds.svg	14	yes	57	0	263	0	0			0	0			1				0	
6.6.1	win	2023-06-15	11:12:22	11:19:42	433984	6111cbf1e5dffb55a8f70153	4	1	main_z	7	main_z	155	stimuli_target_trianglesquares.svg	stimuli_distractor_trianglediamonds.svg	18	yes	44	1	642	0	0			0	0			1				0	
6.6.1	win	2023-06-15	11:12:22	11:19:42	433984	6111cbf1e5dffb55a8f70153	4	1	main_z	7	advance_on_keypress_ZEE	156	stimuli_target_trianglesquares.svg	stimuli_distractor_trianglediamonds.svg	18	yes	57	0	194	0	0			0	0			1				0	
6.6.1	win	2023-06-15	11:12:22	11:19:43	435394	6111cbf1e5dffb55a8f70153	4	1	main_z	7	main_z	157	stimuli_distractor_diamondtriangles.svg	stimuli_target_trianglesquares.svg	30	yes	44	1	577	0	0			0	0			1				0	
6.6.1	win	2023-06-15	11:12:22	11:19:43	435394	6111cbf1e5dffb55a8f70153	4	1	main_z	7	advance_on_keypress_ZEE	158	stimuli_distractor_diamondtriangles.svg	stimuli_target_trianglesquares.svg	30	yes	57	0	200	0	0			0	0			1				0	
6.6.1	win	2023-06-15	11:12:22	11:19:44	436879	6111cbf1e5dffb55a8f70153	4	1	main_z	7	main_z	159	stimuli_target_diamondsquares.svg	stimuli_distractor_diamondtriangles.svg	24	yes	44	1	629	0	0			0	0			1				0	
6.6.1	win	2023-06-15	11:12:22	11:19:44	436879	6111cbf1e5dffb55a8f70153	4	1	main_z	7	advance_on_keypress_ZEE	160	stimuli_target_diamondsquares.svg	stimuli_distractor_diamondtriangles.svg	24	yes	57	0	189	0	0			0	0			1				0	
6.6.1	win	2023-06-15	11:12:22	11:20:11	463602	6111cbf1e5dffb55a8f70153	4	1	practice_slash	9	practice_slash	1	stimuli_distractor_diamondtriangles.svg	stimuli_target_rectangletriangles.svg	7	yes	0	0	2000	0	0			0	0			1				0	
6.6.1	win	2023-06-15	11:12:22	11:20:11	463602	6111cbf1e5dffb55a8f70153	4	1	practice_slash	9	advance_on_keypress_SLASH	2	stimuli_distractor_diamondtriangles.svg	stimuli_target_rectangletriangles.svg	7	yes	57	0	960	0	0			0	0			1				0	
6.6.1	win	2023-06-15	11:12:22	11:20:16	468222	6111cbf1e5dffb55a8f70153	4	1	practice_slash	9	practice_slash	3	stimuli_target_squarediamonds.svg	stimuli_distractor_trianglediamonds.svg	5	yes	0	0	2000	0	0			0	0			1				0	
6.6.1	win	2023-06-15	11:12:22	11:20:16	468222	6111cbf1e5dffb55a8f70153	4	1	practice_slash	9	advance_on_keypress_SLASH	4	stimuli_target_squarediamonds.svg	stimuli_distractor_trianglediamonds.svg	5	yes	57	0	485	0	0			0	0			1				0	
6.6.1	win	2023-06-15	11:12:22	11:20:20	472355	6111cbf1e5dffb55a8f70153	4	1	practice_slash	9	practice_slash	5	stimuli_distractor_diamondtriangles.svg	stimuli_distractor_trianglediamonds.svg	14	no	0	1	2000	0	0			0	0			1				0	
6.6.1	win	2023-06-15	11:12:22	11:20:20	472355	6111cbf1e5dffb55a8f70153	4	1	practice_slash	9	advance_on_keypress_SLASH	6	stimuli_distractor_diamondtriangles.svg	stimuli_distractor_trianglediamonds.svg	14	no	57	0	1821	0	0			0	0			1				0	
6.6.1	win	2023-06-15	11:12:22	11:20:25	477837	6111cbf1e5dffb55a8f70153	4	1	practice_slash	9	practice_slash	7	stimuli_target_rectanglediamonds.svg	stimuli_distractor_diamondtriangles.svg	1	yes	0	0	2000	0	0			0	0			1				0	
6.6.1	win	2023-06-15	11:12:22	11:20:25	477837	6111cbf1e5dffb55a8f70153	4	1	practice_slash	9	advance_on_keypress_SLASH	8	stimuli_target_rectanglediamonds.svg	stimuli_distractor_diamondtriangles.svg	1	yes	57	0	970	0	0			0	0			1				0	
6.6.1	win	2023-06-15	11:12:22	11:20:30	482465	6111cbf1e5dffb55a8f70153	4	1	practice_slash	9	practice_slash	9	stimuli_target_squarediamonds.svg	stimuli_distractor_diamondtriangles.svg	2	yes	0	0	2000	0	0			0	0			1				0	
6.6.1	win	2023-06-15	11:12:22	11:20:30	482465	6111cbf1e5dffb55a8f70153	4	1	practice_slash	9	advance_on_keypress_SLASH	10	stimuli_target_squarediamonds.svg	stimuli_distractor_diamondtriangles.svg	2	yes	57	0	1115	0	0			0	0			1				0	
6.6.1	win	2023-06-15	11:12:22	11:20:35	487239	6111cbf1e5dffb55a8f70153	4	1	practice_slash	9	practice_slash	11	stimuli_distractor_trianglediamonds.svg	stimuli_target_rectanglediamonds.svg	10	yes	0	0	2000	0	0			0	0			1				0	
6.6.1	win	2023-06-15	11:12:22	11:20:35	487239	6111cbf1e5dffb55a8f70153	4	1	practice_slash	9	advance_on_keypress_SLASH	12	stimuli_distractor_trianglediamonds.svg	stimuli_target_rectanglediamonds.svg	10	yes	57	0	623	0	0			0	0			1				0	
6.6.1	win	2023-06-15	11:12:22	11:20:39	491522	6111cbf1e5dffb55a8f70153	4	1	practice_slash	9	practice_slash	13	stimuli_distractor_trianglediamonds.svg	stimuli_target_diamondrectangles.svg	12	yes	0	0	2000	0	0			0	0			1				0	
6.6.1	win	2023-06-15	11:12:22	11:20:39	491522	6111cbf1e5dffb55a8f70153	4	1	practice_slash	9	advance_on_keypress_SLASH	14	stimuli_distractor_trianglediamonds.svg	stimuli_target_diamondrectangles.svg	12	yes	57	0	4545	0	0			0	0			1				0	
6.6.1	win	2023-06-15	11:12:22	11:20:47	499724	6111cbf1e5dffb55a8f70153	4	1	practice_slash	9	practice_slash	15	stimuli_target_rectanglediamonds.svg	stimuli_distractor_trianglediamonds.svg	4	yes	0	0	2000	0	0			0	0			1				0	
6.6.1	win	2023-06-15	11:12:22	11:20:47	499724	6111cbf1e5dffb55a8f70153	4	1	practice_slash	9	advance_on_keypress_SLASH	16	stimuli_target_rectanglediamonds.svg	stimuli_distractor_trianglediamonds.svg	4	yes	57	0	1873	0	0			0	0			1				0	
6.6.1	win	2023-06-15	11:12:22	11:20:53	505247	6111cbf1e5dffb55a8f70153	4	1	practice_slash	9	practice_slash	17	stimuli_target_diamondsquares.svg	stimuli_distractor_trianglediamonds.svg	6	yes	0	0	2000	0	0			0	0			1				0	
6.6.1	win	2023-06-15	11:12:22	11:20:53	505247	6111cbf1e5dffb55a8f70153	4	1	practice_slash	9	advance_on_keypress_SLASH	18	stimuli_target_diamondsquares.svg	stimuli_distractor_trianglediamonds.svg	6	yes	57	0	6419	0	0			0	0			1				0	
6.6.1	win	2023-06-15	11:12:22	11:21:03	515325	6111cbf1e5dffb55a8f70153	4	1	practice_slash	9	practice_slash	19	stimuli_distractor_trianglediamonds.svg	stimuli_target_squarediamonds.svg	11	yes	0	0	2000	0	0			0	0			1				0	
6.6.1	win	2023-06-15	11:12:22	11:21:03	515325	6111cbf1e5dffb55a8f70153	4	1	practice_slash	9	advance_on_keypress_SLASH	20	stimuli_distractor_trianglediamonds.svg	stimuli_target_squarediamonds.svg	11	yes	57	0	4543	0	0			0	0			1				0	
6.6.1	win	2023-06-15	11:12:22	11:21:09	521865	6111cbf1e5dffb55a8f70153	4	1	practice_slash	9	practice_slash	21	stimuli_distractor_trianglediamonds.svg	stimuli_distractor_diamondtriangles.svg	16	no	53	0	341	0	0			0	0			1				0	
6.6.1	win	2023-06-15	11:12:22	11:21:09	521865	6111cbf1e5dffb55a8f70153	4	1	practice_slash	9	advance_on_keypress_SLASH	22	stimuli_distractor_trianglediamonds.svg	stimuli_distractor_diamondtriangles.svg	16	no	57	0	724	0	0			0	0			1				0	
6.6.1	win	2023-06-15	11:12:22	11:21:12	524738	6111cbf1e5dffb55a8f70153	4	1	practice_slash	9	practice_slash	23	stimuli_distractor_diamondtriangles.svg	stimuli_target_trianglerectangles.svg	9	yes	53	1	489	0	0			0	0			1				0	
6.6.1	win	2023-06-15	11:12:22	11:21:12	524738	6111cbf1e5dffb55a8f70153	4	1	practice_slash	9	advance_on_keypress_SLASH	24	stimuli_distractor_diamondtriangles.svg	stimuli_target_trianglerectangles.svg	9	yes	57	0	361	0	0			0	0			1				0	
6.6.1	win	2023-06-15	11:12:22	11:21:15	527283	6111cbf1e5dffb55a8f70153	4	1	practice_slash	9	practice_slash	25	stimuli_target_diamondsquares.svg	stimuli_distractor_diamondtriangles.svg	3	yes	53	1	539	0	0			0	0			1				0	
6.6.1	win	2023-06-15	11:12:22	11:21:15	527283	6111cbf1e5dffb55a8f70153	4	1	practice_slash	9	advance_on_keypress_SLASH	26	stimuli_target_diamondsquares.svg	stimuli_distractor_diamondtriangles.svg	3	yes	57	0	561	0	0			0	0			1				0	
6.6.1	win	2023-06-15	11:12:22	11:21:17	529845	6111cbf1e5dffb55a8f70153	4	1	practice_slash	9	practice_slash	27	stimuli_distractor_diamondtriangles.svg	stimuli_distractor_diamondtriangles.svg	13	no	53	0	344	0	0			0	0			1				0	
6.6.1	win	2023-06-15	11:12:22	11:21:17	529845	6111cbf1e5dffb55a8f70153	4	1	practice_slash	9	advance_on_keypress_SLASH	28	stimuli_distractor_diamondtriangles.svg	stimuli_distractor_diamondtriangles.svg	13	no	57	0	540	0	0			0	0			1				0	
6.6.1	win	2023-06-15	11:12:22	11:21:22	534044	6111cbf1e5dffb55a8f70153	4	1	practice_slash	9	practice_slash	29	stimuli_distractor_trianglediamonds.svg	stimuli_distractor_trianglediamonds.svg	15	no	0	1	2000	0	0			0	0			1				0	
6.6.1	win	2023-06-15	11:12:22	11:21:22	534044	6111cbf1e5dffb55a8f70153	4	1	practice_slash	9	advance_on_keypress_SLASH	30	stimuli_distractor_trianglediamonds.svg	stimuli_distractor_trianglediamonds.svg	15	no	57	0	541	0	0			0	0			1				0	
6.6.1	win	2023-06-15	11:12:22	11:21:24	536577	6111cbf1e5dffb55a8f70153	4	1	practice_slash	9	practice_slash	31	stimuli_distractor_diamondtriangles.svg	stimuli_target_diamondrectangles.svg	8	yes	53	1	339	0	0			0	0			1				0	
6.6.1	win	2023-06-15	11:12:22	11:21:24	536577	6111cbf1e5dffb55a8f70153	4	1	practice_slash	9	advance_on_keypress_SLASH	32	stimuli_distractor_diamondtriangles.svg	stimuli_target_diamondrectangles.svg	8	yes	57	0	196	0	0			0	0			1				0	
6.6.1	win	2023-06-15	11:12:22	11:21:33	545454	6111cbf1e5dffb55a8f70153	4	1	main_slash	11	main_slash	1	stimuli_distractor_diamondtriangles.svg	stimuli_distractor_diamondtriangles.svg	40	no	0	1	2000	0	0			0	0			1				0	
6.6.1	win	2023-06-15	11:12:22	11:21:33	545454	6111cbf1e5dffb55a8f70153	4	1	main_slash	11	advance_on_keypress_SLASH	2	stimuli_distractor_diamondtriangles.svg	stimuli_distractor_diamondtriangles.svg	40	no	57	0	722	0	0			0	0			1				0	
6.6.1	win	2023-06-15	11:12:22	11:21:35	547311	6111cbf1e5dffb55a8f70153	4	1	main_slash	11	main_slash	3	stimuli_distractor_diamondtriangles.svg	stimuli_target_diamondsquares.svg	32	yes	53	1	479	0	0			0	0			1				0	
6.6.1	win	2023-06-15	11:12:22	11:21:35	547311	6111cbf1e5dffb55a8f70153	4	1	main_slash	11	advance_on_keypress_SLASH	4	stimuli_distractor_diamondtriangles.svg	stimuli_target_diamondsquares.svg	32	yes	57	0	150	0	0			0	0			1				0	
6.6.1	win	2023-06-15	11:12:22	11:21:37	549305	6111cbf1e5dffb55a8f70153	4	1	main_slash	11	main_slash	5	stimuli_distractor_trianglediamonds.svg	stimuli_distractor_diamondtriangles.svg	36	no	53	0	1203	0	0			0	0			1				0	
6.6.1	win	2023-06-15	11:12:22	11:21:37	549305	6111cbf1e5dffb55a8f70153	4	1	main_slash	11	advance_on_keypress_SLASH	6	stimuli_distractor_trianglediamonds.svg	stimuli_distractor_diamondtriangles.svg	36	no	57	0	162	0	0			0	0			1				0	
6.6.1	win	2023-06-15	11:12:22	11:21:38	550692	6111cbf1e5dffb55a8f70153	4	1	main_slash	11	main_slash	7	stimuli_distractor_trianglediamonds.svg	stimuli_target_trianglesquares.svg	26	yes	53	1	569	0	0			0	0			1				0	
6.6.1	win	2023-06-15	11:12:22	11:21:38	550692	6111cbf1e5dffb55a8f70153	4	1	main_slash	11	advance_on_keypress_SLASH	8	stimuli_distractor_trianglediamonds.svg	stimuli_target_trianglesquares.svg	26	yes	57	0	210	0	0			0	0			1				0	
6.6.1	win	2023-06-15	11:12:22	11:21:40	552215	6111cbf1e5dffb55a8f70153	4	1	main_slash	11	main_slash	9	stimuli_target_diamondrectangles.svg	stimuli_distractor_trianglediamonds.svg	19	yes	53	1	675	0	0			0	0			1				0	
6.6.1	win	2023-06-15	11:12:22	11:21:40	552215	6111cbf1e5dffb55a8f70153	4	1	main_slash	11	advance_on_keypress_SLASH	10	stimuli_target_diamondrectangles.svg	stimuli_distractor_trianglediamonds.svg	19	yes	57	0	787	0	0			0	0			1				0	
6.6.1	win	2023-06-15	11:12:22	11:21:42	554397	6111cbf1e5dffb55a8f70153	4	1	main_slash	11	main_slash	11	stimuli_distractor_diamondtriangles.svg	stimuli_distractor_trianglediamonds.svg	37	no	53	0	737	0	0			0	0			1				0	
6.6.1	win	2023-06-15	11:12:22	11:21:42	554397	6111cbf1e5dffb55a8f70153	4	1	main_slash	11	advance_on_keypress_SLASH	12	stimuli_distractor_diamondtriangles.svg	stimuli_distractor_trianglediamonds.svg	37	no	57	0	126	0	0			0	0			1				0	
6.6.1	win	2023-06-15	11:12:22	11:21:44	556209	6111cbf1e5dffb55a8f70153	4	1	main_slash	11	main_slash	13	stimuli_distractor_diamondtriangles.svg	stimuli_target_rectangletriangles.svg	13	yes	53	1	1033	0	0			0	0			1				0	
6.6.1	win	2023-06-15	11:12:22	11:21:44	556209	6111cbf1e5dffb55a8f70153	4	1	main_slash	11	advance_on_keypress_SLASH	14	stimuli_distractor_diamondtriangles.svg	stimuli_target_rectangletriangles.svg	13	yes	57	0	154	0	0			0	0			1				0	
6.6.1	win	2023-06-15	11:12:22	11:21:45	557690	6111cbf1e5dffb55a8f70153	4	1	main_slash	11	main_slash	15	stimuli_target_trianglesquares.svg	stimuli_distractor_trianglediamonds.svg	18	yes	53	1	668	0	0			0	0			1				0	
6.6.1	win	2023-06-15	11:12:22	11:21:45	557690	6111cbf1e5dffb55a8f70153	4	1	main_slash	11	advance_on_keypress_SLASH	16	stimuli_target_trianglesquares.svg	stimuli_distractor_trianglediamonds.svg	18	yes	57	0	187	0	0			0	0			1				0	
6.6.1	win	2023-06-15	11:12:22	11:21:47	559510	6111cbf1e5dffb55a8f70153	4	1	main_slash	11	main_slash	17	stimuli_distractor_diamondtriangles.svg	stimuli_distractor_trianglediamonds.svg	38	no	53	0	986	0	0			0	0			1				0	
6.6.1	win	2023-06-15	11:12:22	11:21:47	559510	6111cbf1e5dffb55a8f70153	4	1	main_slash	11	advance_on_keypress_SLASH	18	stimuli_distractor_diamondtriangles.svg	stimuli_distractor_trianglediamonds.svg	38	no	57	0	130	0	0			0	0			1				0	
6.6.1	win	2023-06-15	11:12:22	11:21:48	560943	6111cbf1e5dffb55a8f70153	4	1	main_slash	11	main_slash	19	stimuli_distractor_trianglediamonds.svg	stimuli_target_rectanglediamonds.svg	10	yes	53	1	656	0	0			0	0			1				0	
6.6.1	win	2023-06-15	11:12:22	11:21:48	560943	6111cbf1e5dffb55a8f70153	4	1	main_slash	11	advance_on_keypress_SLASH	20	stimuli_distractor_trianglediamonds.svg	stimuli_target_rectanglediamonds.svg	10	yes	57	0	186	0	0			0	0			1				0	
6.6.1	win	2023-06-15	11:12:22	11:21:50	562302	6111cbf1e5dffb55a8f70153	4	1	main_slash	11	main_slash	21	stimuli_target_squarediamonds.svg	stimuli_distractor_trianglediamonds.svg	4	yes	53	1	520	0	0			0	0			1				0	
6.6.1	win	2023-06-15	11:12:22	11:21:50	562302	6111cbf1e5dffb55a8f70153	4	1	main_slash	11	advance_on_keypress_SLASH	22	stimuli_target_squarediamonds.svg	stimuli_distractor_trianglediamonds.svg	4	yes	57	0	145	0	0			0	0			1				0	
6.6.1	win	2023-06-15	11:12:22	11:21:51	563537	6111cbf1e5dffb55a8f70153	4	1	main_slash	11	main_slash	23	stimuli_target_rectanglediamonds.svg	stimuli_distractor_trianglediamonds.svg	2	yes	53	1	430	0	0			0	0			1				0	
6.6.1	win	2023-06-15	11:12:22	11:21:51	563537	6111cbf1e5dffb55a8f70153	4	1	main_slash	11	advance_on_keypress_SLASH	24	stimuli_target_rectanglediamonds.svg	stimuli_distractor_trianglediamonds.svg	2	yes	57	0	143	0	0			0	0			1				0	
6.6.1	win	2023-06-15	11:12:22	11:21:52	564827	6111cbf1e5dffb55a8f70153	4	1	main_slash	11	main_slash	25	stimuli_distractor_trianglediamonds.svg	stimuli_target_rectangletriangles.svg	9	yes	53	1	487	0	0			0	0			1				0	
6.6.1	win	2023-06-15	11:12:22	11:21:52	564827	6111cbf1e5dffb55a8f70153	4	1	main_slash	11	advance_on_keypress_SLASH	26	stimuli_distractor_trianglediamonds.svg	stimuli_target_rectangletriangles.svg	9	yes	57	0	225	0	0			0	0			1				0	
6.6.1	win	2023-06-15	11:12:22	11:21:54	566460	6111cbf1e5dffb55a8f70153	4	1	main_slash	11	main_slash	27	stimuli_distractor_trianglediamonds.svg	stimuli_distractor_trianglediamonds.svg	33	no	53	0	750	0	0			0	0			1				0	
6.6.1	win	2023-06-15	11:12:22	11:21:54	566460	6111cbf1e5dffb55a8f70153	4	1	main_slash	11	advance_on_keypress_SLASH	28	stimuli_distractor_trianglediamonds.svg	stimuli_distractor_trianglediamonds.svg	33	no	57	0	226	0	0			0	0			1				0	
6.6.1	win	2023-06-15	11:12:22	11:21:56	568918	6111cbf1e5dffb55a8f70153	4	1	main_slash	11	main_slash	29	stimuli_target_rectanglediamonds.svg	stimuli_distractor_diamondtriangles.svg	6	yes	53	1	1588	0	0			0	0			1				0	
6.6.1	win	2023-06-15	11:12:22	11:21:56	568918	6111cbf1e5dffb55a8f70153	4	1	main_slash	11	advance_on_keypress_SLASH	30	stimuli_target_rectanglediamonds.svg	stimuli_distractor_diamondtriangles.svg	6	yes	57	0	136	0	0			0	0			1				0	
6.6.1	win	2023-06-15	11:12:22	11:21:58	570175	6111cbf1e5dffb55a8f70153	4	1	main_slash	11	main_slash	31	stimuli_target_rectangletriangles.svg	stimuli_distractor_diamondtriangles.svg	5	yes	53	1	458	0	0			0	0			1				0	
6.6.1	win	2023-06-15	11:12:22	11:21:58	570175	6111cbf1e5dffb55a8f70153	4	1	main_slash	11	advance_on_keypress_SLASH	32	stimuli_target_rectangletriangles.svg	stimuli_distractor_diamondtriangles.svg	5	yes	57	0	114	0	0			0	0			1				0	
6.6.1	win	2023-06-15	11:12:22	11:21:59	571471	6111cbf1e5dffb55a8f70153	4	1	main_slash	11	main_slash	33	stimuli_target_diamondsquares.svg	stimuli_distractor_diamondtriangles.svg	24	yes	53	1	542	0	0			0	0			1				0	
6.6.1	win	2023-06-15	11:12:22	11:21:59	571471	6111cbf1e5dffb55a8f70153	4	1	main_slash	11	advance_on_keypress_SLASH	34	stimuli_target_diamondsquares.svg	stimuli_distractor_diamondtriangles.svg	24	yes	57	0	191	0	0			0	0			1				0	
6.6.1	win	2023-06-15	11:12:22	11:22:00	572791	6111cbf1e5dffb55a8f70153	4	1	main_slash	11	main_slash	35	stimuli_distractor_diamondtriangles.svg	stimuli_target_trianglesquares.svg	30	yes	53	1	483	0	0			0	0			1				0	
6.6.1	win	2023-06-15	11:12:22	11:22:00	572791	6111cbf1e5dffb55a8f70153	4	1	main_slash	11	advance_on_keypress_SLASH	36	stimuli_distractor_diamondtriangles.svg	stimuli_target_trianglesquares.svg	30	yes	57	0	213	0	0			0	0			1				0	
6.6.1	win	2023-06-15	11:12:22	11:22:02	574196	6111cbf1e5dffb55a8f70153	4	1	main_slash	11	main_slash	37	stimuli_target_diamondsquares.svg	stimuli_distractor_trianglediamonds.svg	20	yes	53	1	534	0	0			0	0			1				0	
6.6.1	win	2023-06-15	11:12:22	11:22:02	574196	6111cbf1e5dffb55a8f70153	4	1	main_slash	11	advance_on_keypress_SLASH	38	stimuli_target_diamondsquares.svg	stimuli_distractor_trianglediamonds.svg	20	yes	57	0	218	0	0			0	0			1				0	
6.6.1	win	2023-06-15	11:12:22	11:22:03	575555	6111cbf1e5dffb55a8f70153	4	1	main_slash	11	main_slash	39	stimuli_target_diamondrectangles.svg	stimuli_distractor_diamondtriangles.svg	23	yes	53	1	493	0	0			0	0			1				0	
6.6.1	win	2023-06-15	11:12:22	11:22:03	575555	6111cbf1e5dffb55a8f70153	4	1	main_slash	11	advance_on_keypress_SLASH	40	stimuli_target_diamondrectangles.svg	stimuli_distractor_diamondtriangles.svg	23	yes	57	0	176	0	0			0	0			1				0	
6.6.1	win	2023-06-15	11:12:22	11:22:04	576764	6111cbf1e5dffb55a8f70153	4	1	main_slash	11	main_slash	41	stimuli_distractor_diamondtriangles.svg	stimuli_target_trianglerectangles.svg	29	yes	53	1	371	0	0			0	0			1				0	
6.6.1	win	2023-06-15	11:12:22	11:22:04	576764	6111cbf1e5dffb55a8f70153	4	1	main_slash	11	advance_on_keypress_SLASH	42	stimuli_distractor_diamondtriangles.svg	stimuli_target_trianglerectangles.svg	29	yes	57	0	226	0	0			0	0			1				0	
6.6.1	win	2023-06-15	11:12:22	11:22:06	578251	6111cbf1e5dffb55a8f70153	4	1	main_slash	11	main_slash	43	stimuli_target_trianglerectangles.svg	stimuli_distractor_diamondtriangles.svg	21	yes	53	1	610	0	0			0	0			1				0	
6.6.1	win	2023-06-15	11:12:22	11:22:06	578251	6111cbf1e5dffb55a8f70153	4	1	main_slash	11	advance_on_keypress_SLASH	44	stimuli_target_trianglerectangles.svg	stimuli_distractor_diamondtriangles.svg	21	yes	57	0	200	0	0			0	0			1				0	
6.6.1	win	2023-06-15	11:12:22	11:22:07	579503	6111cbf1e5dffb55a8f70153	4	1	main_slash	11	main_slash	45	stimuli_target_squaretriangles.svg	stimuli_distractor_trianglediamonds.svg	3	yes	53	1	388	0	0			0	0			1				0	
6.6.1	win	2023-06-15	11:12:22	11:22:07	579503	6111cbf1e5dffb55a8f70153	4	1	main_slash	11	advance_on_keypress_SLASH	46	stimuli_target_squaretriangles.svg	stimuli_distractor_trianglediamonds.svg	3	yes	57	0	273	0	0			0	0			1				0	
6.6.1	win	2023-06-15	11:12:22	11:22:09	581014	6111cbf1e5dffb55a8f70153	4	1	main_slash	11	main_slash	47	stimuli_distractor_diamondtriangles.svg	stimuli_target_squarediamonds.svg	16	yes	53	1	592	0	0			0	0			1				0	
6.6.1	win	2023-06-15	11:12:22	11:22:09	581014	6111cbf1e5dffb55a8f70153	4	1	main_slash	11	advance_on_keypress_SLASH	48	stimuli_distractor_diamondtriangles.svg	stimuli_target_squarediamonds.svg	16	yes	57	0	254	0	0			0	0			1				0	
6.6.1	win	2023-06-15	11:12:22	11:22:10	582230	6111cbf1e5dffb55a8f70153	4	1	main_slash	11	main_slash	49	stimuli_distractor_trianglediamonds.svg	stimuli_target_trianglerectangles.svg	25	yes	53	1	312	0	0			0	0			1				0	
6.6.1	win	2023-06-15	11:12:22	11:22:10	582230	6111cbf1e5dffb55a8f70153	4	1	main_slash	11	advance_on_keypress_SLASH	50	stimuli_distractor_trianglediamonds.svg	stimuli_target_trianglerectangles.svg	25	yes	57	0	201	0	0			0	0			1				0	
6.6.1	win	2023-06-15	11:12:22	11:22:11	583466	6111cbf1e5dffb55a8f70153	4	1	main_slash	11	main_slash	51	stimuli_target_trianglerectangles.svg	stimuli_distractor_trianglediamonds.svg	17	yes	53	1	372	0	0			0	0			1				0	
6.6.1	win	2023-06-15	11:12:22	11:22:11	583466	6111cbf1e5dffb55a8f70153	4	1	main_slash	11	advance_on_keypress_SLASH	52	stimuli_target_trianglerectangles.svg	stimuli_distractor_trianglediamonds.svg	17	yes	57	0	213	0	0			0	0			1				0	
6.6.1	win	2023-06-15	11:12:22	11:22:12	584628	6111cbf1e5dffb55a8f70153	4	1	main_slash	11	main_slash	53	stimuli_target_squaretriangles.svg	stimuli_distractor_diamondtriangles.svg	7	yes	53	1	307	0	0			0	0			1				0	
6.6.1	win	2023-06-15	11:12:22	11:22:12	584628	6111cbf1e5dffb55a8f70153	4	1	main_slash	11	advance_on_keypress_SLASH	54	stimuli_target_squaretriangles.svg	stimuli_distractor_diamondtriangles.svg	7	yes	57	0	240	0	0			0	0			1				0	
6.6.1	win	2023-06-15	11:12:22	11:22:15	587522	6111cbf1e5dffb55a8f70153	4	1	main_slash	11	main_slash	55	stimuli_distractor_diamondtriangles.svg	stimuli_distractor_diamondtriangles.svg	39	no	0	1	2000	0	0			0	0			1				0	
6.6.1	win	2023-06-15	11:12:22	11:22:15	587522	6111cbf1e5dffb55a8f70153	4	1	main_slash	11	advance_on_keypress_SLASH	56	stimuli_distractor_diamondtriangles.svg	stimuli_distractor_diamondtriangles.svg	39	no	57	0	959	0	0			0	0			1				0	
6.6.1	win	2023-06-15	11:12:22	11:22:17	589427	6111cbf1e5dffb55a8f70153	4	1	main_slash	11	main_slash	57	stimuli_distractor_trianglediamonds.svg	stimuli_target_squarediamonds.svg	12	yes	53	1	301	0	0			0	0			1				0	
6.6.1	win	2023-06-15	11:12:22	11:22:17	589427	6111cbf1e5dffb55a8f70153	4	1	main_slash	11	advance_on_keypress_SLASH	58	stimuli_distractor_trianglediamonds.svg	stimuli_target_squarediamonds.svg	12	yes	57	0	204	0	0			0	0			1				0	
6.6.1	win	2023-06-15	11:12:22	11:22:18	590815	6111cbf1e5dffb55a8f70153	4	1	main_slash	11	main_slash	59	stimuli_distractor_trianglediamonds.svg	stimuli_target_diamondsquares.svg	28	yes	53	1	524	0	0			0	0			1				0	
6.6.1	win	2023-06-15	11:12:22	11:22:18	590815	6111cbf1e5dffb55a8f70153	4	1	main_slash	11	advance_on_keypress_SLASH	60	stimuli_distractor_trianglediamonds.svg	stimuli_target_diamondsquares.svg	28	yes	57	0	204	0	0			0	0			1				0	
6.6.1	win	2023-06-15	11:12:22	11:22:21	593678	6111cbf1e5dffb55a8f70153	4	1	main_slash	11	main_slash	61	stimuli_distractor_trianglediamonds.svg	stimuli_distractor_trianglediamonds.svg	34	no	0	1	2000	0	0			0	0			1				0	
6.6.1	win	2023-06-15	11:12:22	11:22:21	593678	6111cbf1e5dffb55a8f70153	4	1	main_slash	11	advance_on_keypress_SLASH	62	stimuli_distractor_trianglediamonds.svg	stimuli_distractor_trianglediamonds.svg	34	no	57	0	613	0	0			0	0			1				0	
6.6.1	win	2023-06-15	11:12:22	11:22:23	595723	6111cbf1e5dffb55a8f70153	4	1	main_slash	11	main_slash	63	stimuli_target_trianglesquares.svg	stimuli_distractor_diamondtriangles.svg	22	yes	53	1	771	0	0			0	0			1				0	
6.6.1	win	2023-06-15	11:12:22	11:22:23	595723	6111cbf1e5dffb55a8f70153	4	1	main_slash	11	advance_on_keypress_SLASH	64	stimuli_target_trianglesquares.svg	stimuli_distractor_diamondtriangles.svg	22	yes	57	0	177	0	0			0	0			1				0	
6.6.1	win	2023-06-15	11:12:22	11:22:25	597153	6111cbf1e5dffb55a8f70153	4	1	main_slash	11	main_slash	65	stimuli_distractor_diamondtriangles.svg	stimuli_target_rectanglediamonds.svg	14	yes	53	1	605	0	0			0	0			1				0	
6.6.1	win	2023-06-15	11:12:22	11:22:25	597153	6111cbf1e5dffb55a8f70153	4	1	main_slash	11	advance_on_keypress_SLASH	66	stimuli_distractor_diamondtriangles.svg	stimuli_target_rectanglediamonds.svg	14	yes	57	0	191	0	0			0	0			1				0	
6.6.1	win	2023-06-15	11:12:22	11:22:27	599049	6111cbf1e5dffb55a8f70153	4	1	main_slash	11	main_slash	67	stimuli_distractor_trianglediamonds.svg	stimuli_target_diamondrectangles.svg	27	yes	53	1	1072	0	0			0	0			1				0	
6.6.1	win	2023-06-15	11:12:22	11:22:27	599049	6111cbf1e5dffb55a8f70153	4	1	main_slash	11	advance_on_keypress_SLASH	68	stimuli_distractor_trianglediamonds.svg	stimuli_target_diamondrectangles.svg	27	yes	57	0	154	0	0			0	0			1				0	
6.6.1	win	2023-06-15	11:12:22	11:22:28	600398	6111cbf1e5dffb55a8f70153	4	1	main_slash	11	main_slash	69	stimuli_distractor_diamondtriangles.svg	stimuli_target_diamondrectangles.svg	31	yes	53	1	539	0	0			0	0			1				0	
6.6.1	win	2023-06-15	11:12:22	11:22:28	600398	6111cbf1e5dffb55a8f70153	4	1	main_slash	11	advance_on_keypress_SLASH	70	stimuli_distractor_diamondtriangles.svg	stimuli_target_diamondrectangles.svg	31	yes	57	0	162	0	0			0	0			1				0	
6.6.1	win	2023-06-15	11:12:22	11:22:30	602200	6111cbf1e5dffb55a8f70153	4	1	main_slash	11	main_slash	71	stimuli_distractor_diamondtriangles.svg	stimuli_target_squaretriangles.svg	15	yes	53	1	994	0	0			0	0			1				0	
6.6.1	win	2023-06-15	11:12:22	11:22:30	602200	6111cbf1e5dffb55a8f70153	4	1	main_slash	11	advance_on_keypress_SLASH	72	stimuli_distractor_diamondtriangles.svg	stimuli_target_squaretriangles.svg	15	yes	57	0	137	0	0			0	0			1				0	
6.6.1	win	2023-06-15	11:12:22	11:22:31	603472	6111cbf1e5dffb55a8f70153	4	1	main_slash	11	main_slash	73	stimuli_target_squarediamonds.svg	stimuli_distractor_diamondtriangles.svg	8	yes	53	1	476	0	0			0	0			1				0	
6.6.1	win	2023-06-15	11:12:22	11:22:31	603472	6111cbf1e5dffb55a8f70153	4	1	main_slash	11	advance_on_keypress_SLASH	74	stimuli_target_squarediamonds.svg	stimuli_distractor_diamondtriangles.svg	8	yes	57	0	154	0	0			0	0			1				0	
6.6.1	win	2023-06-15	11:12:22	11:22:32	604698	6111cbf1e5dffb55a8f70153	4	1	main_slash	11	main_slash	75	stimuli_target_rectangletriangles.svg	stimuli_distractor_trianglediamonds.svg	1	yes	53	1	428	0	0			0	0			1				0	
6.6.1	win	2023-06-15	11:12:22	11:22:32	604698	6111cbf1e5dffb55a8f70153	4	1	main_slash	11	advance_on_keypress_SLASH	76	stimuli_target_rectangletriangles.svg	stimuli_distractor_trianglediamonds.svg	1	yes	57	0	176	0	0			0	0			1				0	
6.6.1	win	2023-06-15	11:12:22	11:22:34	606158	6111cbf1e5dffb55a8f70153	4	1	main_slash	11	main_slash	77	stimuli_distractor_trianglediamonds.svg	stimuli_target_squaretriangles.svg	11	yes	53	1	642	0	0			0	0			1				0	
6.6.1	win	2023-06-15	11:12:22	11:22:34	606158	6111cbf1e5dffb55a8f70153	4	1	main_slash	11	advance_on_keypress_SLASH	78	stimuli_distractor_trianglediamonds.svg	stimuli_target_squaretriangles.svg	11	yes	57	0	179	0	0			0	0			1				0	
6.6.1	win	2023-06-15	11:12:22	11:22:37	608991	6111cbf1e5dffb55a8f70153	4	1	main_slash	11	main_slash	79	stimuli_distractor_trianglediamonds.svg	stimuli_distractor_diamondtriangles.svg	35	no	0	1	2000	0	0			0	0			1				0	
6.6.1	win	2023-06-15	11:12:22	11:22:37	608991	6111cbf1e5dffb55a8f70153	4	1	main_slash	11	advance_on_keypress_SLASH	80	stimuli_distractor_trianglediamonds.svg	stimuli_distractor_diamondtriangles.svg	35	no	57	0	839	0	0			0	0			1				0	
6.6.1	win	2023-06-15	11:12:22	11:22:39	611049	6111cbf1e5dffb55a8f70153	4	1	main_slash	11	main_slash	81	stimuli_target_trianglerectangles.svg	stimuli_distractor_trianglediamonds.svg	17	yes	53	1	571	0	0			0	0			1				0	
6.6.1	win	2023-06-15	11:12:22	11:22:39	611049	6111cbf1e5dffb55a8f70153	4	1	main_slash	11	advance_on_keypress_SLASH	82	stimuli_target_trianglerectangles.svg	stimuli_distractor_trianglediamonds.svg	17	yes	57	0	150	0	0			0	0			1				0	
6.6.1	win	2023-06-15	11:12:22	11:22:40	612418	6111cbf1e5dffb55a8f70153	4	1	main_slash	11	main_slash	83	stimuli_target_squaretriangles.svg	stimuli_distractor_trianglediamonds.svg	3	yes	53	1	578	0	0			0	0			1				0	
6.6.1	win	2023-06-15	11:12:22	11:22:40	612418	6111cbf1e5dffb55a8f70153	4	1	main_slash	11	advance_on_keypress_SLASH	84	stimuli_target_squaretriangles.svg	stimuli_distractor_trianglediamonds.svg	3	yes	57	0	160	0	0			0	0			1				0	
6.6.1	win	2023-06-15	11:12:22	11:22:41	613664	6111cbf1e5dffb55a8f70153	4	1	main_slash	11	main_slash	85	stimuli_target_rectangletriangles.svg	stimuli_distractor_trianglediamonds.svg	1	yes	53	1	425	0	0			0	0			1				0	
6.6.1	win	2023-06-15	11:12:22	11:22:41	613664	6111cbf1e5dffb55a8f70153	4	1	main_slash	11	advance_on_keypress_SLASH	86	stimuli_target_rectangletriangles.svg	stimuli_distractor_trianglediamonds.svg	1	yes	57	0	167	0	0			0	0			1				0	
6.6.1	win	2023-06-15	11:12:22	11:22:44	616485	6111cbf1e5dffb55a8f70153	4	1	main_slash	11	main_slash	87	stimuli_distractor_trianglediamonds.svg	stimuli_distractor_diamondtriangles.svg	36	no	0	1	2000	0	0			0	0			1				0	
6.6.1	win	2023-06-15	11:12:22	11:22:44	616485	6111cbf1e5dffb55a8f70153	4	1	main_slash	11	advance_on_keypress_SLASH	88	stimuli_distractor_trianglediamonds.svg	stimuli_distractor_diamondtriangles.svg	36	no	57	0	693	0	0			0	0			1				0	
6.6.1	win	2023-06-15	11:12:22	11:22:46	618286	6111cbf1e5dffb55a8f70153	4	1	main_slash	11	main_slash	89	stimuli_target_diamondrectangles.svg	stimuli_distractor_trianglediamonds.svg	19	yes	53	1	456	0	0			0	0			1				0	
6.6.1	win	2023-06-15	11:12:22	11:22:46	618286	6111cbf1e5dffb55a8f70153	4	1	main_slash	11	advance_on_keypress_SLASH	90	stimuli_target_diamondrectangles.svg	stimuli_distractor_trianglediamonds.svg	19	yes	57	0	156	0	0			0	0			1				0	
6.6.1	win	2023-06-15	11:12:22	11:22:47	619601	6111cbf1e5dffb55a8f70153	4	1	main_slash	11	main_slash	91	stimuli_target_diamondsquares.svg	stimuli_distractor_diamondtriangles.svg	24	yes	53	1	496	0	0			0	0			1				0	
6.6.1	win	2023-06-15	11:12:22	11:22:47	619601	6111cbf1e5dffb55a8f70153	4	1	main_slash	11	advance_on_keypress_SLASH	92	stimuli_target_diamondsquares.svg	stimuli_distractor_diamondtriangles.svg	24	yes	57	0	178	0	0			0	0			1				0	
6.6.1	win	2023-06-15	11:12:22	11:22:48	620841	6111cbf1e5dffb55a8f70153	4	1	main_slash	11	main_slash	93	stimuli_distractor_diamondtriangles.svg	stimuli_target_rectanglediamonds.svg	14	yes	53	1	400	0	0			0	0			1				0	
6.6.1	win	2023-06-15	11:12:22	11:22:48	620841	6111cbf1e5dffb55a8f70153	4	1	main_slash	11	advance_on_keypress_SLASH	94	stimuli_distractor_diamondtriangles.svg	stimuli_target_rectanglediamonds.svg	14	yes	57	0	175	0	0			0	0			1				0	
6.6.1	win	2023-06-15	11:12:22	11:22:50	622370	6111cbf1e5dffb55a8f70153	4	1	main_slash	11	main_slash	95	stimuli_distractor_trianglediamonds.svg	stimuli_target_squaretriangles.svg	11	yes	53	1	704	0	0			0	0			1				0	
6.6.1	win	2023-06-15	11:12:22	11:22:50	622370	6111cbf1e5dffb55a8f70153	4	1	main_slash	11	advance_on_keypress_SLASH	96	stimuli_distractor_trianglediamonds.svg	stimuli_target_squaretriangles.svg	11	yes	57	0	191	0	0			0	0			1				0	
6.6.1	win	2023-06-15	11:12:22	11:22:52	624461	6111cbf1e5dffb55a8f70153	4	1	main_slash	11	main_slash	97	stimuli_distractor_trianglediamonds.svg	stimuli_distractor_trianglediamonds.svg	33	no	53	0	1253	0	0			0	0			1				0	
6.6.1	win	2023-06-15	11:12:22	11:22:52	624461	6111cbf1e5dffb55a8f70153	4	1	main_slash	11	advance_on_keypress_SLASH	98	stimuli_distractor_trianglediamonds.svg	stimuli_distractor_trianglediamonds.svg	33	no	57	0	148	0	0			0	0			1				0	
6.6.1	win	2023-06-15	11:12:22	11:22:55	627262	6111cbf1e5dffb55a8f70153	4	1	main_slash	11	main_slash	99	stimuli_distractor_diamondtriangles.svg	stimuli_distractor_trianglediamonds.svg	37	no	0	1	2000	0	0			0	0			1				0	
6.6.1	win	2023-06-15	11:12:22	11:22:55	627262	6111cbf1e5dffb55a8f70153	4	1	main_slash	11	advance_on_keypress_SLASH	100	stimuli_distractor_diamondtriangles.svg	stimuli_distractor_trianglediamonds.svg	37	no	57	0	531	0	0			0	0			1				0	
6.6.1	win	2023-06-15	11:12:22	11:22:58	630440	6111cbf1e5dffb55a8f70153	4	1	main_slash	11	main_slash	101	stimuli_distractor_trianglediamonds.svg	stimuli_distractor_diamondtriangles.svg	35	no	0	1	2000	0	0			0	0			1				0	
6.6.1	win	2023-06-15	11:12:22	11:22:58	630440	6111cbf1e5dffb55a8f70153	4	1	main_slash	11	advance_on_keypress_SLASH	102	stimuli_distractor_trianglediamonds.svg	stimuli_distractor_diamondtriangles.svg	35	no	57	0	449	0	0			0	0			1				0	
6.6.1	win	2023-06-15	11:12:22	11:23:00	632864	6111cbf1e5dffb55a8f70153	4	1	main_slash	11	main_slash	103	stimuli_distractor_diamondtriangles.svg	stimuli_distractor_trianglediamonds.svg	38	no	53	0	1333	0	0			0	0			1				0	
6.6.1	win	2023-06-15	11:12:22	11:23:00	632864	6111cbf1e5dffb55a8f70153	4	1	main_slash	11	advance_on_keypress_SLASH	104	stimuli_distractor_diamondtriangles.svg	stimuli_distractor_trianglediamonds.svg	38	no	57	0	141	0	0			0	0			1				0	
6.6.1	win	2023-06-15	11:12:22	11:23:02	634516	6111cbf1e5dffb55a8f70153	4	1	main_slash	11	main_slash	105	stimuli_distractor_trianglediamonds.svg	stimuli_target_diamondsquares.svg	28	yes	53	1	848	0	0			0	0			1				0	
6.6.1	win	2023-06-15	11:12:22	11:23:02	634516	6111cbf1e5dffb55a8f70153	4	1	main_slash	11	advance_on_keypress_SLASH	106	stimuli_distractor_trianglediamonds.svg	stimuli_target_diamondsquares.svg	28	yes	57	0	1287	0	0			0	0			1				0	
6.6.1	win	2023-06-15	11:12:22	11:23:04	636757	6111cbf1e5dffb55a8f70153	4	1	main_slash	11	main_slash	107	stimuli_target_trianglerectangles.svg	stimuli_distractor_diamondtriangles.svg	21	yes	53	1	302	0	0			0	0			1				0	
6.6.1	win	2023-06-15	11:12:22	11:23:04	636757	6111cbf1e5dffb55a8f70153	4	1	main_slash	11	advance_on_keypress_SLASH	108	stimuli_target_trianglerectangles.svg	stimuli_distractor_diamondtriangles.svg	21	yes	57	0	212	0	0			0	0			1				0	
6.6.1	win	2023-06-15	11:12:22	11:23:06	638103	6111cbf1e5dffb55a8f70153	4	1	main_slash	11	main_slash	109	stimuli_distractor_trianglediamonds.svg	stimuli_target_trianglerectangles.svg	25	yes	53	1	498	0	0			0	0			1				0	
6.6.1	win	2023-06-15	11:12:22	11:23:06	638103	6111cbf1e5dffb55a8f70153	4	1	main_slash	11	advance_on_keypress_SLASH	110	stimuli_distractor_trianglediamonds.svg	stimuli_target_trianglerectangles.svg	25	yes	57	0	168	0	0			0	0			1				0	
6.6.1	win	2023-06-15	11:12:22	11:23:07	639387	6111cbf1e5dffb55a8f70153	4	1	main_slash	11	main_slash	111	stimuli_target_trianglesquares.svg	stimuli_distractor_trianglediamonds.svg	18	yes	53	1	466	0	0			0	0			1				0	
6.6.1	win	2023-06-15	11:12:22	11:23:07	639387	6111cbf1e5dffb55a8f70153	4	1	main_slash	11	advance_on_keypress_SLASH	112	stimuli_target_trianglesquares.svg	stimuli_distractor_trianglediamonds.svg	18	yes	57	0	172	0	0			0	0			1				0	
6.6.1	win	2023-06-15	11:12:22	11:23:08	640797	6111cbf1e5dffb55a8f70153	4	1	main_slash	11	main_slash	113	stimuli_target_squaretriangles.svg	stimuli_distractor_diamondtriangles.svg	7	yes	53	1	602	0	0			0	0			1				0	
6.6.1	win	2023-06-15	11:12:22	11:23:08	640797	6111cbf1e5dffb55a8f70153	4	1	main_slash	11	advance_on_keypress_SLASH	114	stimuli_target_squaretriangles.svg	stimuli_distractor_diamondtriangles.svg	7	yes	57	0	165	0	0			0	0			1				0	
6.6.1	win	2023-06-15	11:12:22	11:23:10	642106	6111cbf1e5dffb55a8f70153	4	1	main_slash	11	main_slash	115	stimuli_distractor_diamondtriangles.svg	stimuli_target_diamondsquares.svg	32	yes	53	1	487	0	0			0	0			1				0	
6.6.1	win	2023-06-15	11:12:22	11:23:10	642106	6111cbf1e5dffb55a8f70153	4	1	main_slash	11	advance_on_keypress_SLASH	116	stimuli_distractor_diamondtriangles.svg	stimuli_target_diamondsquares.svg	32	yes	57	0	178	0	0			0	0			1				0	
6.6.1	win	2023-06-15	11:12:22	11:23:11	643482	6111cbf1e5dffb55a8f70153	4	1	main_slash	11	main_slash	117	stimuli_distractor_diamondtriangles.svg	stimuli_target_diamondrectangles.svg	31	yes	53	1	546	0	0			0	0			1				0	
6.6.1	win	2023-06-15	11:12:22	11:23:11	643482	6111cbf1e5dffb55a8f70153	4	1	main_slash	11	advance_on_keypress_SLASH	118	stimuli_distractor_diamondtriangles.svg	stimuli_target_diamondrectangles.svg	31	yes	57	0	143	0	0			0	0			1				0	
6.6.1	win	2023-06-15	11:12:22	11:23:13	645353	6111cbf1e5dffb55a8f70153	4	1	main_slash	11	main_slash	119	stimuli_distractor_trianglediamonds.svg	stimuli_target_rectangletriangles.svg	9	yes	53	1	1076	0	0			0	0			1				0	
6.6.1	win	2023-06-15	11:12:22	11:23:13	645353	6111cbf1e5dffb55a8f70153	4	1	main_slash	11	advance_on_keypress_SLASH	120	stimuli_distractor_trianglediamonds.svg	stimuli_target_rectangletriangles.svg	9	yes	57	0	739	0	0			0	0			1				0	
6.6.1	win	2023-06-15	11:12:22	11:23:15	647351	6111cbf1e5dffb55a8f70153	4	1	main_slash	11	main_slash	121	stimuli_distractor_trianglediamonds.svg	stimuli_target_rectanglediamonds.svg	10	yes	53	1	604	0	0			0	0			1				0	
6.6.1	win	2023-06-15	11:12:22	11:23:15	647351	6111cbf1e5dffb55a8f70153	4	1	main_slash	11	advance_on_keypress_SLASH	122	stimuli_distractor_trianglediamonds.svg	stimuli_target_rectanglediamonds.svg	10	yes	57	0	197	0	0			0	0			1				0	
6.6.1	win	2023-06-15	11:12:22	11:23:16	648816	6111cbf1e5dffb55a8f70153	4	1	main_slash	11	main_slash	123	stimuli_target_diamondsquares.svg	stimuli_distractor_trianglediamonds.svg	20	yes	53	1	631	0	0			0	0			1				0	
6.6.1	win	2023-06-15	11:12:22	11:23:16	648816	6111cbf1e5dffb55a8f70153	4	1	main_slash	11	advance_on_keypress_SLASH	124	stimuli_target_diamondsquares.svg	stimuli_distractor_trianglediamonds.svg	20	yes	57	0	184	0	0			0	0			1				0	
6.6.1	win	2023-06-15	11:12:22	11:23:18	650147	6111cbf1e5dffb55a8f70153	4	1	main_slash	11	main_slash	125	stimuli_distractor_diamondtriangles.svg	stimuli_target_trianglerectangles.svg	29	yes	53	1	492	0	0			0	0			1				0	
6.6.1	win	2023-06-15	11:12:22	11:23:18	650147	6111cbf1e5dffb55a8f70153	4	1	main_slash	11	advance_on_keypress_SLASH	126	stimuli_distractor_diamondtriangles.svg	stimuli_target_trianglerectangles.svg	29	yes	57	0	151	0	0			0	0			1				0	
6.6.1	win	2023-06-15	11:12:22	11:23:20	652946	6111cbf1e5dffb55a8f70153	4	1	main_slash	11	main_slash	127	stimuli_distractor_diamondtriangles.svg	stimuli_distractor_diamondtriangles.svg	40	no	0	1	2000	0	0			0	0			1				0	
6.6.1	win	2023-06-15	11:12:22	11:23:20	652946	6111cbf1e5dffb55a8f70153	4	1	main_slash	11	advance_on_keypress_SLASH	128	stimuli_distractor_diamondtriangles.svg	stimuli_distractor_diamondtriangles.svg	40	no	57	0	678	0	0			0	0			1				0	
6.6.1	win	2023-06-15	11:12:22	11:23:22	654609	6111cbf1e5dffb55a8f70153	4	1	main_slash	11	main_slash	129	stimuli_distractor_diamondtriangles.svg	stimuli_target_trianglesquares.svg	30	yes	53	1	326	0	0			0	0			1				0	
6.6.1	win	2023-06-15	11:12:22	11:23:22	654609	6111cbf1e5dffb55a8f70153	4	1	main_slash	11	advance_on_keypress_SLASH	130	stimuli_distractor_diamondtriangles.svg	stimuli_target_trianglesquares.svg	30	yes	57	0	204	0	0			0	0			1				0	
6.6.1	win	2023-06-15	11:12:22	11:23:25	657454	6111cbf1e5dffb55a8f70153	4	1	main_slash	11	main_slash	131	stimuli_distractor_diamondtriangles.svg	stimuli_distractor_diamondtriangles.svg	39	no	0	1	2000	0	0			0	0			1				0	
6.6.1	win	2023-06-15	11:12:22	11:23:25	657454	6111cbf1e5dffb55a8f70153	4	1	main_slash	11	advance_on_keypress_SLASH	132	stimuli_distractor_diamondtriangles.svg	stimuli_distractor_diamondtriangles.svg	39	no	57	0	670	0	0			0	0			1				0	
6.6.1	win	2023-06-15	11:12:22	11:23:27	659108	6111cbf1e5dffb55a8f70153	4	1	main_slash	11	main_slash	133	stimuli_distractor_diamondtriangles.svg	stimuli_target_rectangletriangles.svg	13	yes	53	1	334	0	0			0	0			1				0	
6.6.1	win	2023-06-15	11:12:22	11:23:27	659108	6111cbf1e5dffb55a8f70153	4	1	main_slash	11	advance_on_keypress_SLASH	134	stimuli_distractor_diamondtriangles.svg	stimuli_target_rectangletriangles.svg	13	yes	57	0	243	0	0			0	0			1				0	
6.6.1	win	2023-06-15	11:12:22	11:23:28	660628	6111cbf1e5dffb55a8f70153	4	1	main_slash	11	main_slash	135	stimuli_target_diamondrectangles.svg	stimuli_distractor_diamondtriangles.svg	23	yes	53	1	621	0	0			0	0			1				0	
6.6.1	win	2023-06-15	11:12:22	11:23:28	660628	6111cbf1e5dffb55a8f70153	4	1	main_slash	11	advance_on_keypress_SLASH	136	stimuli_target_diamondrectangles.svg	stimuli_distractor_diamondtriangles.svg	23	yes	57	0	197	0	0			0	0			1				0	
6.6.1	win	2023-06-15	11:12:22	11:23:29	661946	6111cbf1e5dffb55a8f70153	4	1	main_slash	11	main_slash	137	stimuli_target_trianglesquares.svg	stimuli_distractor_diamondtriangles.svg	22	yes	53	1	482	0	0			0	0			1				0	
6.6.1	win	2023-06-15	11:12:22	11:23:29	661946	6111cbf1e5dffb55a8f70153	4	1	main_slash	11	advance_on_keypress_SLASH	138	stimuli_target_trianglesquares.svg	stimuli_distractor_diamondtriangles.svg	22	yes	57	0	241	0	0			0	0			1				0	
6.6.1	win	2023-06-15	11:12:22	11:23:31	663233	6111cbf1e5dffb55a8f70153	4	1	main_slash	11	main_slash	139	stimuli_target_squarediamonds.svg	stimuli_distractor_diamondtriangles.svg	8	yes	53	1	386	0	0			0	0			1				0	
6.6.1	win	2023-06-15	11:12:22	11:23:31	663233	6111cbf1e5dffb55a8f70153	4	1	main_slash	11	advance_on_keypress_SLASH	140	stimuli_target_squarediamonds.svg	stimuli_distractor_diamondtriangles.svg	8	yes	57	0	295	0	0			0	0			1				0	
6.6.1	win	2023-06-15	11:12:22	11:23:32	664555	6111cbf1e5dffb55a8f70153	4	1	main_slash	11	main_slash	141	stimuli_target_rectanglediamonds.svg	stimuli_distractor_diamondtriangles.svg	6	yes	53	1	373	0	0			0	0			1				0	
6.6.1	win	2023-06-15	11:12:22	11:23:32	664555	6111cbf1e5dffb55a8f70153	4	1	main_slash	11	advance_on_keypress_SLASH	142	stimuli_target_rectanglediamonds.svg	stimuli_distractor_diamondtriangles.svg	6	yes	57	0	194	0	0			0	0			1				0	
6.6.1	win	2023-06-15	11:12:22	11:23:34	666150	6111cbf1e5dffb55a8f70153	4	1	main_slash	11	main_slash	143	stimuli_distractor_trianglediamonds.svg	stimuli_distractor_trianglediamonds.svg	34	no	53	0	748	0	0			0	0			1				0	
6.6.1	win	2023-06-15	11:12:22	11:23:34	666150	6111cbf1e5dffb55a8f70153	4	1	main_slash	11	advance_on_keypress_SLASH	144	stimuli_distractor_trianglediamonds.svg	stimuli_distractor_trianglediamonds.svg	34	no	57	0	220	0	0			0	0			1				0	
6.6.1	win	2023-06-15	11:12:22	11:23:35	667722	6111cbf1e5dffb55a8f70153	4	1	main_slash	11	main_slash	145	stimuli_distractor_diamondtriangles.svg	stimuli_target_squarediamonds.svg	16	yes	53	1	705	0	0			0	0			1				0	
6.6.1	win	2023-06-15	11:12:22	11:23:35	667722	6111cbf1e5dffb55a8f70153	4	1	main_slash	11	advance_on_keypress_SLASH	146	stimuli_distractor_diamondtriangles.svg	stimuli_target_squarediamonds.svg	16	yes	57	0	221	0	0			0	0			1				0	
6.6.1	win	2023-06-15	11:12:22	11:23:37	669127	6111cbf1e5dffb55a8f70153	4	1	main_slash	11	main_slash	147	stimuli_target_rectanglediamonds.svg	stimuli_distractor_trianglediamonds.svg	2	yes	53	1	538	0	0			0	0			1				0	
6.6.1	win	2023-06-15	11:12:22	11:23:37	669127	6111cbf1e5dffb55a8f70153	4	1	main_slash	11	advance_on_keypress_SLASH	148	stimuli_target_rectanglediamonds.svg	stimuli_distractor_trianglediamonds.svg	2	yes	57	0	145	0	0			0	0			1				0	
6.6.1	win	2023-06-15	11:12:22	11:23:38	670437	6111cbf1e5dffb55a8f70153	4	1	main_slash	11	main_slash	149	stimuli_distractor_trianglediamonds.svg	stimuli_target_squarediamonds.svg	12	yes	53	1	509	0	0			0	0			1				0	
6.6.1	win	2023-06-15	11:12:22	11:23:38	670437	6111cbf1e5dffb55a8f70153	4	1	main_slash	11	advance_on_keypress_SLASH	150	stimuli_distractor_trianglediamonds.svg	stimuli_target_squarediamonds.svg	12	yes	57	0	168	0	0			0	0			1				0	
6.6.1	win	2023-06-15	11:12:22	11:23:39	671741	6111cbf1e5dffb55a8f70153	4	1	main_slash	11	main_slash	151	stimuli_target_squarediamonds.svg	stimuli_distractor_trianglediamonds.svg	4	yes	53	1	488	0	0			0	0			1				0	
6.6.1	win	2023-06-15	11:12:22	11:23:39	671741	6111cbf1e5dffb55a8f70153	4	1	main_slash	11	advance_on_keypress_SLASH	152	stimuli_target_squarediamonds.svg	stimuli_distractor_trianglediamonds.svg	4	yes	57	0	251	0	0			0	0			1				0	
6.6.1	win	2023-06-15	11:12:22	11:23:41	673041	6111cbf1e5dffb55a8f70153	4	1	main_slash	11	main_slash	153	stimuli_distractor_diamondtriangles.svg	stimuli_target_squaretriangles.svg	15	yes	53	1	391	0	0			0	0			1				0	
6.6.1	win	2023-06-15	11:12:22	11:23:41	673041	6111cbf1e5dffb55a8f70153	4	1	main_slash	11	advance_on_keypress_SLASH	154	stimuli_distractor_diamondtriangles.svg	stimuli_target_squaretriangles.svg	15	yes	57	0	221	0	0			0	0			1				0	
6.6.1	win	2023-06-15	11:12:22	11:23:42	674358	6111cbf1e5dffb55a8f70153	4	1	main_slash	11	main_slash	155	stimuli_target_rectangletriangles.svg	stimuli_distractor_diamondtriangles.svg	5	yes	53	1	439	0	0			0	0			1				0	
6.6.1	win	2023-06-15	11:12:22	11:23:42	674358	6111cbf1e5dffb55a8f70153	4	1	main_slash	11	advance_on_keypress_SLASH	156	stimuli_target_rectangletriangles.svg	stimuli_distractor_diamondtriangles.svg	5	yes	57	0	199	0	0			0	0			1				0	
6.6.1	win	2023-06-15	11:12:22	11:23:43	675962	6111cbf1e5dffb55a8f70153	4	1	main_slash	11	main_slash	157	stimuli_distractor_trianglediamonds.svg	stimuli_target_trianglesquares.svg	26	yes	53	1	763	0	0			0	0			1				0	
6.6.1	win	2023-06-15	11:12:22	11:23:43	675962	6111cbf1e5dffb55a8f70153	4	1	main_slash	11	advance_on_keypress_SLASH	158	stimuli_distractor_trianglediamonds.svg	stimuli_target_trianglesquares.svg	26	yes	57	0	224	0	0			0	0			1				0	
6.6.1	win	2023-06-15	11:12:22	11:23:45	677479	6111cbf1e5dffb55a8f70153	4	1	main_slash	11	main_slash	159	stimuli_distractor_trianglediamonds.svg	stimuli_target_diamondrectangles.svg	27	yes	53	1	639	0	0			0	0			1				0	
6.6.1	win	2023-06-15	11:12:22	11:23:45	677479	6111cbf1e5dffb55a8f70153	4	1	main_slash	11	advance_on_keypress_SLASH	160	stimuli_distractor_trianglediamonds.svg	stimuli_target_diamondrectangles.svg	27	yes	57	0	321	0	0			0	0			1				0	
6.6.1	win	2023-06-15	11:12:22	11:23:45	677479	6111cbf1e5dffb55a8f70153	4	1	headphonecheck_calibration	14	headphonecheck_calibrationIntro	1	stimuli_distractor_trianglediamonds.svg	stimuli_target_diamondrectangles.svg	27	yes	calibrationButton	0	3913	0	0			0	0			1				0	
6.6.1	win	2023-06-15	11:12:22	11:23:45	677479	6111cbf1e5dffb55a8f70153	4	1	headphonecheck_testphase	15	test_collectResponse	3	stimuli_distractor_trianglediamonds.svg	stimuli_target_diamondrectangles.svg	27	yes	first	1	8772	1	3	antiphase_hc_soi.wav	1	0	0			1				0	
6.6.1	win	2023-06-15	11:12:22	11:23:45	677479	6111cbf1e5dffb55a8f70153	4	1	headphonecheck_testphase	15	test_collectResponse	6	stimuli_distractor_trianglediamonds.svg	stimuli_target_diamondrectangles.svg	27	yes	second	0	3670	2	6	antiphase_hc_ois.wav	3	0	0			1				0	
6.6.1	win	2023-06-15	11:12:22	11:23:45	677479	6111cbf1e5dffb55a8f70153	4	1	headphonecheck_testphase	15	test_collectResponse	9	stimuli_distractor_trianglediamonds.svg	stimuli_target_diamondrectangles.svg	27	yes	second	1	3460	3	1	antiphase_hc_iso.wav	2	0	0			1				0	
6.6.1	win	2023-06-15	11:12:22	11:23:45	677479	6111cbf1e5dffb55a8f70153	4	1	headphonecheck_testphase	15	test_collectResponse	12	stimuli_distractor_trianglediamonds.svg	stimuli_target_diamondrectangles.svg	27	yes	first	0	286	4	5	antiphase_hc_osi.wav	2	0	0			1				0	
6.6.1	win	2023-06-15	11:12:22	11:23:45	677479	6111cbf1e5dffb55a8f70153	4	1	headphonecheck_testphase	15	test_collectResponse	15	stimuli_distractor_trianglediamonds.svg	stimuli_target_diamondrectangles.svg	27	yes	third	0	536	5	4	antiphase_hc_sio.wav	1	0	0			1				0	
6.6.1	win	2023-06-15	11:12:22	11:23:45	677479	6111cbf1e5dffb55a8f70153	4	1	headphonecheck_testphase	15	test_collectResponse	18	stimuli_distractor_trianglediamonds.svg	stimuli_target_diamondrectangles.svg	27	yes	second	0	173	6	2	antiphase_hc_ios.wav	3	0	0			1				0	
6.6.1	win	2023-06-15	11:12:22	11:23:45	677479	6111cbf1e5dffb55a8f70153	4	1	stereocheck_calibration	17	stereocheck_calibrationIntro	1	stimuli_distractor_trianglediamonds.svg	stimuli_target_diamondrectangles.svg	27	yes	stereocheck_calibrationButton	0	4310	6	2	antiphase_hc_ios.wav	3	0	0			1				0	
6.6.1	win	2023-06-15	11:12:22	11:23:45	677479	6111cbf1e5dffb55a8f70153	4	1	stereocheck_testphase	18	stereocheck_test_collectResponse	3	stimuli_distractor_trianglediamonds.svg	stimuli_target_diamondrectangles.svg	27	yes	stereocheck_right	1	103	6	2	antiphase_hc_ios.wav	3	1	4	noise_calib_stim_RIGHT.wav	2	1				0	
6.6.1	win	2023-06-15	11:12:22	11:23:45	677479	6111cbf1e5dffb55a8f70153	4	1	stereocheck_testphase	18	stereocheck_test_collectResponse	6	stimuli_distractor_trianglediamonds.svg	stimuli_target_diamondrectangles.svg	27	yes	stereocheck_right	1	1094	6	2	antiphase_hc_ios.wav	3	2	6	noise_calib_stim_RIGHT.wav	2	1				0	
6.6.1	win	2023-06-15	11:12:22	11:23:45	677479	6111cbf1e5dffb55a8f70153	4	1	stereocheck_testphase	18	stereocheck_test_collectResponse	9	stimuli_distractor_trianglediamonds.svg	stimuli_target_diamondrectangles.svg	27	yes	stereocheck_right	1	3214	6	2	antiphase_hc_ios.wav	3	3	5	noise_calib_stim_RIGHT.wav	2	1				0	
6.6.1	win	2023-06-15	11:12:22	11:23:45	677479	6111cbf1e5dffb55a8f70153	4	1	stereocheck_testphase	18	stereocheck_test_collectResponse	12	stimuli_distractor_trianglediamonds.svg	stimuli_target_diamondrectangles.svg	27	yes	stereocheck_left	1	716	6	2	antiphase_hc_ios.wav	3	4	3	noise_calib_stim_LEFT.wav	1	1				0	
6.6.1	win	2023-06-15	11:12:22	11:23:45	677479	6111cbf1e5dffb55a8f70153	4	1	stereocheck_testphase	18	stereocheck_test_collectResponse	15	stimuli_distractor_trianglediamonds.svg	stimuli_target_diamondrectangles.svg	27	yes	stereocheck_left	1	617	6	2	antiphase_hc_ios.wav	3	5	2	noise_calib_stim_LEFT.wav	1	1				0	
6.6.1	win	2023-06-15	11:12:22	11:23:45	677479	6111cbf1e5dffb55a8f70153	4	1	stereocheck_testphase	18	stereocheck_test_collectResponse	18	stimuli_distractor_trianglediamonds.svg	stimuli_target_diamondrectangles.svg	27	yes	stereocheck_left	1	607	6	2	antiphase_hc_ios.wav	3	6	1	noise_calib_stim_LEFT.wav	1	1				0	
6.6.1	win	2023-06-15	11:12:22	11:23:45	677479	6111cbf1e5dffb55a8f70153	4	1	DL_practice	21	DL_practice	2	stimuli_distractor_trianglediamonds.svg	stimuli_target_diamondrectangles.svg	27	yes	da	1	1720	6	2	antiphase_hc_ios.wav	3	6	1	noise_calib_stim_LEFT.wav	1	8	blb_dichoticlistening_da-da.mp3	da	da	0	left
6.6.1	win	2023-06-15	11:12:22	11:23:45	677479	6111cbf1e5dffb55a8f70153	4	1	DL_practice	21	DL_practice	3	stimuli_distractor_trianglediamonds.svg	stimuli_target_diamondrectangles.svg	27	yes	ka	1	1129	6	2	antiphase_hc_ios.wav	3	6	1	noise_calib_stim_LEFT.wav	1	22	blb_dichoticlistening_ka-ka.mp3	ka	ka	0	left
6.6.1	win	2023-06-15	11:12:22	11:23:45	677479	6111cbf1e5dffb55a8f70153	4	1	DL_practice	21	DL_practice	4	stimuli_distractor_trianglediamonds.svg	stimuli_target_diamondrectangles.svg	27	yes	ga	1	1163	6	2	antiphase_hc_ios.wav	3	6	1	noise_calib_stim_LEFT.wav	1	18	blb_dichoticlistening_ga-ta.mp3	ga	ta	1	left
6.6.1	win	2023-06-15	11:12:22	11:23:45	677479	6111cbf1e5dffb55a8f70153	4	1	DL_practice	21	DL_practice	5	stimuli_distractor_trianglediamonds.svg	stimuli_target_diamondrectangles.svg	27	yes	ba	1	1438	6	2	antiphase_hc_ios.wav	3	6	1	noise_calib_stim_LEFT.wav	1	7	blb_dichoticlistening_da-ba.mp3	da	ba	1	right
6.6.1	win	2023-06-15	11:12:22	11:23:45	677479	6111cbf1e5dffb55a8f70153	4	1	DL_practice	21	DL_practice	6	stimuli_distractor_trianglediamonds.svg	stimuli_target_diamondrectangles.svg	27	yes	ba	1	1383	6	2	antiphase_hc_ios.wav	3	6	1	noise_calib_stim_LEFT.wav	1	1	blb_dichoticlistening_ba-ba.mp3	ba	ba	0	left
6.6.1	win	2023-06-15	11:12:22	11:23:45	677479	6111cbf1e5dffb55a8f70153	4	1	DL_practice	21	DL_practice	7	stimuli_distractor_trianglediamonds.svg	stimuli_target_diamondrectangles.svg	27	yes	ga	1	1150	6	2	antiphase_hc_ios.wav	3	6	1	noise_calib_stim_LEFT.wav	1	15	blb_dichoticlistening_ga-ga.mp3	ga	ga	0	left
6.6.1	win	2023-06-15	11:12:22	11:23:45	677479	6111cbf1e5dffb55a8f70153	4	1	DL_practice	21	DL_practice	8	stimuli_distractor_trianglediamonds.svg	stimuli_target_diamondrectangles.svg	27	yes	ka	1	1089	6	2	antiphase_hc_ios.wav	3	6	1	noise_calib_stim_LEFT.wav	1	23	blb_dichoticlistening_ka-pa.mp3	ka	pa	1	left
6.6.1	win	2023-06-15	11:12:22	11:23:45	677479	6111cbf1e5dffb55a8f70153	4	1	DL_practice	21	DL_practice	9	stimuli_distractor_trianglediamonds.svg	stimuli_target_diamondrectangles.svg	27	yes	ba	0	2189	6	2	antiphase_hc_ios.wav	3	6	1	noise_calib_stim_LEFT.wav	1	29	blb_dichoticlistening_pa-pa.mp3	pa	pa	0	other
6.6.1	win	2023-06-15	11:12:22	11:23:45	677479	6111cbf1e5dffb55a8f70153	4	1	DL_practice	21	DL_practice	10	stimuli_distractor_trianglediamonds.svg	stimuli_target_diamondrectangles.svg	27	yes	ka	0	1671	6	2	antiphase_hc_ios.wav	3	6	1	noise_calib_stim_LEFT.wav	1	36	blb_dichoticlistening_ta-ta.mp3	ta	ta	0	other
6.6.1	win	2023-06-15	11:12:22	11:23:45	677479	6111cbf1e5dffb55a8f70153	4	1	DL_test	23	DL_test	1	stimuli_distractor_trianglediamonds.svg	stimuli_target_diamondrectangles.svg	27	yes	ga	1	1215	6	2	antiphase_hc_ios.wav	3	6	1	noise_calib_stim_LEFT.wav	1	33	blb_dichoticlistening_ta-ga.mp3	ta	ga	1	right
6.6.1	win	2023-06-15	11:12:22	11:23:45	677479	6111cbf1e5dffb55a8f70153	4	1	DL_test	23	DL_test	2	stimuli_distractor_trianglediamonds.svg	stimuli_target_diamondrectangles.svg	27	yes	da	1	1197	6	2	antiphase_hc_ios.wav	3	6	1	noise_calib_stim_LEFT.wav	1	10	blb_dichoticlistening_da-ka.mp3	da	ka	1	left
6.6.1	win	2023-06-15	11:12:22	11:23:45	677479	6111cbf1e5dffb55a8f70153	4	1	DL_test	23	DL_test	3	stimuli_distractor_trianglediamonds.svg	stimuli_target_diamondrectangles.svg	27	yes	ba	1	2019	6	2	antiphase_hc_ios.wav	3	6	1	noise_calib_stim_LEFT.wav	1	5	blb_dichoticlistening_ba-pa.mp3	ba	pa	1	left
6.6.1	win	2023-06-15	11:12:22	11:23:45	677479	6111cbf1e5dffb55a8f70153	4	1	DL_test	23	DL_test	4	stimuli_distractor_trianglediamonds.svg	stimuli_target_diamondrectangles.svg	27	yes	ba	1	1566	6	2	antiphase_hc_ios.wav	3	6	1	noise_calib_stim_LEFT.wav	1	2	blb_dichoticlistening_ba-da.mp3	ba	da	1	left
6.6.1	win	2023-06-15	11:12:22	11:23:45	677479	6111cbf1e5dffb55a8f70153	4	1	DL_test	23	DL_test	5	stimuli_distractor_trianglediamonds.svg	stimuli_target_diamondrectangles.svg	27	yes	ka	1	1133	6	2	antiphase_hc_ios.wav	3	6	1	noise_calib_stim_LEFT.wav	1	34	blb_dichoticlistening_ta-ka.mp3	ta	ka	1	right
6.6.1	win	2023-06-15	11:12:22	11:23:45	677479	6111cbf1e5dffb55a8f70153	4	1	DL_test	23	DL_test	6	stimuli_distractor_trianglediamonds.svg	stimuli_target_diamondrectangles.svg	27	yes	da	1	1086	6	2	antiphase_hc_ios.wav	3	6	1	noise_calib_stim_LEFT.wav	1	26	blb_dichoticlistening_pa-da.mp3	pa	da	1	right
6.6.1	win	2023-06-15	11:12:22	11:23:45	677479	6111cbf1e5dffb55a8f70153	4	1	DL_test	23	DL_test	7	stimuli_distractor_trianglediamonds.svg	stimuli_target_diamondrectangles.svg	27	yes	ba	1	4112	6	2	antiphase_hc_ios.wav	3	6	1	noise_calib_stim_LEFT.wav	1	3	blb_dichoticlistening_ba-ga.mp3	ba	ga	1	left
6.6.1	win	2023-06-15	11:12:22	11:23:45	677479	6111cbf1e5dffb55a8f70153	4	1	DL_test	23	DL_test	8	stimuli_distractor_trianglediamonds.svg	stimuli_target_diamondrectangles.svg	27	yes	pa	1	3711	6	2	antiphase_hc_ios.wav	3	6	1	noise_calib_stim_LEFT.wav	1	30	blb_dichoticlistening_pa-ta.mp3	pa	ta	1	left
6.6.1	win	2023-06-15	11:12:22	11:23:45	677479	6111cbf1e5dffb55a8f70153	4	1	DL_test	23	DL_test	9	stimuli_distractor_trianglediamonds.svg	stimuli_target_diamondrectangles.svg	27	yes	ka	1	1201	6	2	antiphase_hc_ios.wav	3	6	1	noise_calib_stim_LEFT.wav	1	24	blb_dichoticlistening_ka-ta.mp3	ka	ta	1	left
6.6.1	win	2023-06-15	11:12:22	11:23:45	677479	6111cbf1e5dffb55a8f70153	4	1	DL_test	23	DL_test	10	stimuli_distractor_trianglediamonds.svg	stimuli_target_diamondrectangles.svg	27	yes	ba	1	1229	6	2	antiphase_hc_ios.wav	3	6	1	noise_calib_stim_LEFT.wav	1	4	blb_dichoticlistening_ba-ka.mp3	ba	ka	1	left
6.6.1	win	2023-06-15	11:12:22	11:23:45	677479	6111cbf1e5dffb55a8f70153	4	1	DL_test	23	DL_test	11	stimuli_distractor_trianglediamonds.svg	stimuli_target_diamondrectangles.svg	27	yes	da	0	1296	6	2	antiphase_hc_ios.wav	3	6	1	noise_calib_stim_LEFT.wav	1	27	blb_dichoticlistening_pa-ga.mp3	pa	ga	1	other
6.6.1	win	2023-06-15	11:12:22	11:23:45	677479	6111cbf1e5dffb55a8f70153	4	1	DL_test	23	DL_test	12	stimuli_distractor_trianglediamonds.svg	stimuli_target_diamondrectangles.svg	27	yes	da	1	3281	6	2	antiphase_hc_ios.wav	3	6	1	noise_calib_stim_LEFT.wav	1	32	blb_dichoticlistening_ta-da.mp3	ta	da	1	right
6.6.1	win	2023-06-15	11:12:22	11:23:45	677479	6111cbf1e5dffb55a8f70153	4	1	DL_test	23	DL_test	13	stimuli_distractor_trianglediamonds.svg	stimuli_target_diamondrectangles.svg	27	yes	ka	1	1193	6	2	antiphase_hc_ios.wav	3	6	1	noise_calib_stim_LEFT.wav	1	22	blb_dichoticlistening_ka-ka.mp3	ka	ka	0	left
6.6.1	win	2023-06-15	11:12:22	11:23:45	677479	6111cbf1e5dffb55a8f70153	4	1	DL_test	23	DL_test	14	stimuli_distractor_trianglediamonds.svg	stimuli_target_diamondrectangles.svg	27	yes	ga	0	904	6	2	antiphase_hc_ios.wav	3	6	1	noise_calib_stim_LEFT.wav	1	20	blb_dichoticlistening_ka-da.mp3	ka	da	1	other
6.6.1	win	2023-06-15	11:12:22	11:23:45	677479	6111cbf1e5dffb55a8f70153	4	1	DL_test	23	DL_test	15	stimuli_distractor_trianglediamonds.svg	stimuli_target_diamondrectangles.svg	27	yes	ga	1	1192	6	2	antiphase_hc_ios.wav	3	6	1	noise_calib_stim_LEFT.wav	1	18	blb_dichoticlistening_ga-ta.mp3	ga	ta	1	left
6.6.1	win	2023-06-15	11:12:22	11:23:45	677479	6111cbf1e5dffb55a8f70153	4	1	DL_test	23	DL_test	16	stimuli_distractor_trianglediamonds.svg	stimuli_target_diamondrectangles.svg	27	yes	ga	1	922	6	2	antiphase_hc_ios.wav	3	6	1	noise_calib_stim_LEFT.wav	1	21	blb_dichoticlistening_ka-ga.mp3	ka	ga	1	right
6.6.1	win	2023-06-15	11:12:22	11:23:45	677479	6111cbf1e5dffb55a8f70153	4	1	DL_test	23	DL_test	17	stimuli_distractor_trianglediamonds.svg	stimuli_target_diamondrectangles.svg	27	yes	da	1	1205	6	2	antiphase_hc_ios.wav	3	6	1	noise_calib_stim_LEFT.wav	1	12	blb_dichoticlistening_da-ta.mp3	da	ta	1	left
6.6.1	win	2023-06-15	11:12:22	11:23:45	677479	6111cbf1e5dffb55a8f70153	4	1	DL_test	23	DL_test	18	stimuli_distractor_trianglediamonds.svg	stimuli_target_diamondrectangles.svg	27	yes	ba	1	1840	6	2	antiphase_hc_ios.wav	3	6	1	noise_calib_stim_LEFT.wav	1	31	blb_dichoticlistening_ta-ba.mp3	ta	ba	1	right
6.6.1	win	2023-06-15	11:12:22	11:23:45	677479	6111cbf1e5dffb55a8f70153	4	1	DL_test	23	DL_test	19	stimuli_distractor_trianglediamonds.svg	stimuli_target_diamondrectangles.svg	27	yes	da	0	1587	6	2	antiphase_hc_ios.wav	3	6	1	noise_calib_stim_LEFT.wav	1	17	blb_dichoticlistening_ga-pa.mp3	ga	pa	1	other
6.6.1	win	2023-06-15	11:12:22	11:23:45	677479	6111cbf1e5dffb55a8f70153	4	1	DL_test	23	DL_test	20	stimuli_distractor_trianglediamonds.svg	stimuli_target_diamondrectangles.svg	27	yes	ba	1	1051	6	2	antiphase_hc_ios.wav	3	6	1	noise_calib_stim_LEFT.wav	1	13	blb_dichoticlistening_ga-ba.mp3	ga	ba	1	right
6.6.1	win	2023-06-15	11:12:22	11:23:45	677479	6111cbf1e5dffb55a8f70153	4	1	DL_test	23	DL_test	21	stimuli_distractor_trianglediamonds.svg	stimuli_target_diamondrectangles.svg	27	yes	ka	1	1120	6	2	antiphase_hc_ios.wav	3	6	1	noise_calib_stim_LEFT.wav	1	23	blb_dichoticlistening_ka-pa.mp3	ka	pa	1	left
6.6.1	win	2023-06-15	11:12:22	11:23:45	677479	6111cbf1e5dffb55a8f70153	4	1	DL_test	23	DL_test	22	stimuli_distractor_trianglediamonds.svg	stimuli_target_diamondrectangles.svg	27	yes	ta	1	1550	6	2	antiphase_hc_ios.wav	3	6	1	noise_calib_stim_LEFT.wav	1	35	blb_dichoticlistening_ta-pa.mp3	ta	pa	1	left
6.6.1	win	2023-06-15	11:12:22	11:23:45	677479	6111cbf1e5dffb55a8f70153	4	1	DL_test	23	DL_test	23	stimuli_distractor_trianglediamonds.svg	stimuli_target_diamondrectangles.svg	27	yes	pa	1	1237	6	2	antiphase_hc_ios.wav	3	6	1	noise_calib_stim_LEFT.wav	1	25	blb_dichoticlistening_pa-ba.mp3	pa	ba	1	left
6.6.1	win	2023-06-15	11:12:22	11:23:45	677479	6111cbf1e5dffb55a8f70153	4	1	DL_test	23	DL_test	24	stimuli_distractor_trianglediamonds.svg	stimuli_target_diamondrectangles.svg	27	yes	ga	1	1328	6	2	antiphase_hc_ios.wav	3	6	1	noise_calib_stim_LEFT.wav	1	14	blb_dichoticlistening_ga-da.mp3	ga	da	1	left
6.6.1	win	2023-06-15	11:12:22	11:23:45	677479	6111cbf1e5dffb55a8f70153	4	1	DL_test	23	DL_test	25	stimuli_distractor_trianglediamonds.svg	stimuli_target_diamondrectangles.svg	27	yes	pa	1	1617	6	2	antiphase_hc_ios.wav	3	6	1	noise_calib_stim_LEFT.wav	1	29	blb_dichoticlistening_pa-pa.mp3	pa	pa	0	left
6.6.1	win	2023-06-15	11:12:22	11:23:45	677479	6111cbf1e5dffb55a8f70153	4	1	DL_test	23	DL_test	26	stimuli_distractor_trianglediamonds.svg	stimuli_target_diamondrectangles.svg	27	yes	ga	1	1744	6	2	antiphase_hc_ios.wav	3	6	1	noise_calib_stim_LEFT.wav	1	16	blb_dichoticlistening_ga-ka.mp3	ga	ka	1	left
