build	computer.platform	date	time	timestamp	time_elapsed_ms	subject	group	session	blockcode	blocknum	trialcode	trialnum	stimulus_left	stimulus_right	stim_index	target_present	response	correct	latency	headphonecheck_countTestTrials	headphonecheck_index	headphonecheck_testSound	headphonecheck_correctResponse	stereocheck_countTestTrials	stereocheck_index	stereocheck_testSound	stereocheck_correctResponse	DL_index	DL_soundfile	DL_leftSound	DL_rightSound	DL_dualSound	DL_choice
6.6.1	win	2023-06-23	15:12:38	15:16:39	236976	5d4c394a090b51001a1775fe	4	1	practice_z	5	practice_z	1	stimuli_target_squarediamonds.svg	stimuli_distractor_trianglediamonds.svg	5	yes	44	1	1417	0	0			0	0			1				0	
6.6.1	win	2023-06-23	15:12:38	15:16:39	236976	5d4c394a090b51001a1775fe	4	1	practice_z	5	advance_on_keypress_ZEE	2	stimuli_target_squarediamonds.svg	stimuli_distractor_trianglediamonds.svg	5	yes	57	0	2135	0	0			0	0			1				0	
6.6.1	win	2023-06-23	15:12:38	15:16:45	242794	5d4c394a090b51001a1775fe	4	1	practice_z	5	practice_z	3	stimuli_distractor_diamondtriangles.svg	stimuli_distractor_trianglediamonds.svg	14	no	0	1	2014	0	0			0	0			1				0	
6.6.1	win	2023-06-23	15:12:38	15:16:45	242794	5d4c394a090b51001a1775fe	4	1	practice_z	5	advance_on_keypress_ZEE	4	stimuli_distractor_diamondtriangles.svg	stimuli_distractor_trianglediamonds.svg	14	no	57	0	1873	0	0			0	0			1				0	
6.6.1	win	2023-06-23	15:12:38	15:16:50	248350	5d4c394a090b51001a1775fe	4	1	practice_z	5	practice_z	5	stimuli_target_diamondsquares.svg	stimuli_distractor_diamondtriangles.svg	3	yes	0	0	2014	0	0			0	0			1				0	
6.6.1	win	2023-06-23	15:12:38	15:16:50	248350	5d4c394a090b51001a1775fe	4	1	practice_z	5	advance_on_keypress_ZEE	6	stimuli_target_diamondsquares.svg	stimuli_distractor_diamondtriangles.svg	3	yes	57	0	759	0	0			0	0			1				0	
6.6.1	win	2023-06-23	15:12:38	15:16:55	252788	5d4c394a090b51001a1775fe	4	1	practice_z	5	practice_z	7	stimuli_distractor_trianglediamonds.svg	stimuli_distractor_trianglediamonds.svg	15	no	0	1	2014	0	0			0	0			1				0	
6.6.1	win	2023-06-23	15:12:38	15:16:55	252788	5d4c394a090b51001a1775fe	4	1	practice_z	5	advance_on_keypress_ZEE	8	stimuli_distractor_trianglediamonds.svg	stimuli_distractor_trianglediamonds.svg	15	no	57	0	592	0	0			0	0			1				0	
6.6.1	win	2023-06-23	15:12:38	15:16:58	255831	5d4c394a090b51001a1775fe	4	1	practice_z	5	practice_z	9	stimuli_distractor_trianglediamonds.svg	stimuli_target_squarediamonds.svg	11	yes	44	1	803	0	0			0	0			1				0	
6.6.1	win	2023-06-23	15:12:38	15:16:58	255831	5d4c394a090b51001a1775fe	4	1	practice_z	5	advance_on_keypress_ZEE	10	stimuli_distractor_trianglediamonds.svg	stimuli_target_squarediamonds.svg	11	yes	57	0	908	0	0			0	0			1				0	
6.6.1	win	2023-06-23	15:12:38	15:17:02	260396	5d4c394a090b51001a1775fe	4	1	practice_z	5	practice_z	11	stimuli_distractor_diamondtriangles.svg	stimuli_distractor_diamondtriangles.svg	13	no	0	1	2014	0	0			0	0			1				0	
6.6.1	win	2023-06-23	15:12:38	15:17:02	260396	5d4c394a090b51001a1775fe	4	1	practice_z	5	advance_on_keypress_ZEE	12	stimuli_distractor_diamondtriangles.svg	stimuli_distractor_diamondtriangles.svg	13	no	57	0	808	0	0			0	0			1				0	
6.6.1	win	2023-06-23	15:12:38	15:17:06	263976	5d4c394a090b51001a1775fe	4	1	practice_z	5	practice_z	13	stimuli_distractor_trianglediamonds.svg	stimuli_target_diamondrectangles.svg	12	yes	44	1	1106	0	0			0	0			1				0	
6.6.1	win	2023-06-23	15:12:38	15:17:06	263976	5d4c394a090b51001a1775fe	4	1	practice_z	5	advance_on_keypress_ZEE	14	stimuli_distractor_trianglediamonds.svg	stimuli_target_diamondrectangles.svg	12	yes	57	0	1765	0	0			0	0			1				0	
6.6.1	win	2023-06-23	15:12:38	15:17:10	268296	5d4c394a090b51001a1775fe	4	1	practice_z	5	practice_z	15	stimuli_target_squarediamonds.svg	stimuli_distractor_diamondtriangles.svg	2	yes	44	1	888	0	0			0	0			1				0	
6.6.1	win	2023-06-23	15:12:38	15:17:10	268296	5d4c394a090b51001a1775fe	4	1	practice_z	5	advance_on_keypress_ZEE	16	stimuli_target_squarediamonds.svg	stimuli_distractor_diamondtriangles.svg	2	yes	57	0	637	0	0			0	0			1				0	
6.6.1	win	2023-06-23	15:12:38	15:17:14	272590	5d4c394a090b51001a1775fe	4	1	practice_z	5	practice_z	17	stimuli_distractor_trianglediamonds.svg	stimuli_distractor_diamondtriangles.svg	16	no	0	1	2014	0	0			0	0			1				0	
6.6.1	win	2023-06-23	15:12:38	15:17:14	272590	5d4c394a090b51001a1775fe	4	1	practice_z	5	advance_on_keypress_ZEE	18	stimuli_distractor_trianglediamonds.svg	stimuli_distractor_diamondtriangles.svg	16	no	57	0	701	0	0			0	0			1				0	
6.6.1	win	2023-06-23	15:12:38	15:17:18	275687	5d4c394a090b51001a1775fe	4	1	practice_z	5	practice_z	19	stimuli_distractor_trianglediamonds.svg	stimuli_target_rectanglediamonds.svg	10	yes	44	1	739	0	0			0	0			1				0	
6.6.1	win	2023-06-23	15:12:38	15:17:18	275687	5d4c394a090b51001a1775fe	4	1	practice_z	5	advance_on_keypress_ZEE	20	stimuli_distractor_trianglediamonds.svg	stimuli_target_rectanglediamonds.svg	10	yes	57	0	654	0	0			0	0			1				0	
6.6.1	win	2023-06-23	15:12:38	15:17:21	279032	5d4c394a090b51001a1775fe	4	1	practice_z	5	practice_z	21	stimuli_distractor_diamondtriangles.svg	stimuli_target_trianglerectangles.svg	9	yes	44	1	1047	0	0			0	0			1				0	
6.6.1	win	2023-06-23	15:12:38	15:17:21	279032	5d4c394a090b51001a1775fe	4	1	practice_z	5	advance_on_keypress_ZEE	22	stimuli_distractor_diamondtriangles.svg	stimuli_target_trianglerectangles.svg	9	yes	57	0	477	0	0			0	0			1				0	
6.6.1	win	2023-06-23	15:12:38	15:17:24	282056	5d4c394a090b51001a1775fe	4	1	practice_z	5	practice_z	23	stimuli_target_rectanglediamonds.svg	stimuli_distractor_trianglediamonds.svg	4	yes	44	1	884	0	0			0	0			1				0	
6.6.1	win	2023-06-23	15:12:38	15:17:24	282056	5d4c394a090b51001a1775fe	4	1	practice_z	5	advance_on_keypress_ZEE	24	stimuli_target_rectanglediamonds.svg	stimuli_distractor_trianglediamonds.svg	4	yes	57	0	545	0	0			0	0			1				0	
6.6.1	win	2023-06-23	15:12:38	15:17:27	285448	5d4c394a090b51001a1775fe	4	1	practice_z	5	practice_z	25	stimuli_distractor_diamondtriangles.svg	stimuli_target_rectangletriangles.svg	7	yes	44	1	1190	0	0			0	0			1				0	
6.6.1	win	2023-06-23	15:12:38	15:17:27	285448	5d4c394a090b51001a1775fe	4	1	practice_z	5	advance_on_keypress_ZEE	26	stimuli_distractor_diamondtriangles.svg	stimuli_target_rectangletriangles.svg	7	yes	57	0	695	0	0			0	0			1				0	
6.6.1	win	2023-06-23	15:12:38	15:17:31	288871	5d4c394a090b51001a1775fe	4	1	practice_z	5	practice_z	27	stimuli_target_rectanglediamonds.svg	stimuli_distractor_diamondtriangles.svg	1	yes	44	1	1077	0	0			0	0			1				0	
6.6.1	win	2023-06-23	15:12:38	15:17:31	288871	5d4c394a090b51001a1775fe	4	1	practice_z	5	advance_on_keypress_ZEE	28	stimuli_target_rectanglediamonds.svg	stimuli_distractor_diamondtriangles.svg	1	yes	57	0	410	0	0			0	0			1				0	
6.6.1	win	2023-06-23	15:12:38	15:17:35	292799	5d4c394a090b51001a1775fe	4	1	practice_z	5	practice_z	29	stimuli_target_diamondsquares.svg	stimuli_distractor_trianglediamonds.svg	6	yes	44	1	1852	0	0			0	0			1				0	
6.6.1	win	2023-06-23	15:12:38	15:17:35	292799	5d4c394a090b51001a1775fe	4	1	practice_z	5	advance_on_keypress_ZEE	30	stimuli_target_diamondsquares.svg	stimuli_distractor_trianglediamonds.svg	6	yes	57	0	569	0	0			0	0			1				0	
6.6.1	win	2023-06-23	15:12:38	15:17:38	296463	5d4c394a090b51001a1775fe	4	1	practice_z	5	practice_z	31	stimuli_distractor_diamondtriangles.svg	stimuli_target_diamondrectangles.svg	8	yes	44	1	1445	0	0			0	0			1				0	
6.6.1	win	2023-06-23	15:12:38	15:17:38	296463	5d4c394a090b51001a1775fe	4	1	practice_z	5	advance_on_keypress_ZEE	32	stimuli_distractor_diamondtriangles.svg	stimuli_target_diamondrectangles.svg	8	yes	57	0	515	0	0			0	0			1				0	
6.6.1	win	2023-06-23	15:12:38	15:17:48	305965	5d4c394a090b51001a1775fe	4	1	main_z	7	main_z	1	stimuli_target_rectanglediamonds.svg	stimuli_distractor_diamondtriangles.svg	6	yes	44	1	671	0	0			0	0			1				0	
6.6.1	win	2023-06-23	15:12:38	15:17:48	305965	5d4c394a090b51001a1775fe	4	1	main_z	7	advance_on_keypress_ZEE	2	stimuli_target_rectanglediamonds.svg	stimuli_distractor_diamondtriangles.svg	6	yes	57	0	631	0	0			0	0			1				0	
6.6.1	win	2023-06-23	15:12:38	15:17:51	309276	5d4c394a090b51001a1775fe	4	1	main_z	7	main_z	3	stimuli_distractor_diamondtriangles.svg	stimuli_distractor_trianglediamonds.svg	38	no	0	1	2014	0	0			0	0			1				0	
6.6.1	win	2023-06-23	15:12:38	15:17:51	309276	5d4c394a090b51001a1775fe	4	1	main_z	7	advance_on_keypress_ZEE	4	stimuli_distractor_diamondtriangles.svg	stimuli_distractor_trianglediamonds.svg	38	no	57	0	862	0	0			0	0			1				0	
6.6.1	win	2023-06-23	15:12:38	15:17:54	312085	5d4c394a090b51001a1775fe	4	1	main_z	7	main_z	5	stimuli_target_diamondrectangles.svg	stimuli_distractor_trianglediamonds.svg	19	yes	44	1	1303	0	0			0	0			1				0	
6.6.1	win	2023-06-23	15:12:38	15:17:54	312085	5d4c394a090b51001a1775fe	4	1	main_z	7	advance_on_keypress_ZEE	6	stimuli_target_diamondrectangles.svg	stimuli_distractor_trianglediamonds.svg	19	yes	57	0	612	0	0			0	0			1				0	
6.6.1	win	2023-06-23	15:12:38	15:17:56	314389	5d4c394a090b51001a1775fe	4	1	main_z	7	main_z	7	stimuli_distractor_diamondtriangles.svg	stimuli_target_rectanglediamonds.svg	14	yes	44	1	1037	0	0			0	0			1				0	
6.6.1	win	2023-06-23	15:12:38	15:17:56	314389	5d4c394a090b51001a1775fe	4	1	main_z	7	advance_on_keypress_ZEE	8	stimuli_distractor_diamondtriangles.svg	stimuli_target_rectanglediamonds.svg	14	yes	57	0	397	0	0			0	0			1				0	
6.6.1	win	2023-06-23	15:12:38	15:17:58	316276	5d4c394a090b51001a1775fe	4	1	main_z	7	main_z	9	stimuli_target_rectanglediamonds.svg	stimuli_distractor_trianglediamonds.svg	2	yes	44	1	840	0	0			0	0			1				0	
6.6.1	win	2023-06-23	15:12:38	15:17:58	316276	5d4c394a090b51001a1775fe	4	1	main_z	7	advance_on_keypress_ZEE	10	stimuli_target_rectanglediamonds.svg	stimuli_distractor_trianglediamonds.svg	2	yes	57	0	448	0	0			0	0			1				0	
6.6.1	win	2023-06-23	15:12:38	15:18:01	319386	5d4c394a090b51001a1775fe	4	1	main_z	7	main_z	11	stimuli_distractor_diamondtriangles.svg	stimuli_distractor_diamondtriangles.svg	40	no	0	1	2014	0	0			0	0			1				0	
6.6.1	win	2023-06-23	15:12:38	15:18:01	319386	5d4c394a090b51001a1775fe	4	1	main_z	7	advance_on_keypress_ZEE	12	stimuli_distractor_diamondtriangles.svg	stimuli_distractor_diamondtriangles.svg	40	no	57	0	384	0	0			0	0			1				0	
6.6.1	win	2023-06-23	15:12:38	15:18:03	320909	5d4c394a090b51001a1775fe	4	1	main_z	7	main_z	13	stimuli_target_squarediamonds.svg	stimuli_distractor_diamondtriangles.svg	8	yes	44	1	483	0	0			0	0			1				0	
6.6.1	win	2023-06-23	15:12:38	15:18:03	320909	5d4c394a090b51001a1775fe	4	1	main_z	7	advance_on_keypress_ZEE	14	stimuli_target_squarediamonds.svg	stimuli_distractor_diamondtriangles.svg	8	yes	57	0	434	0	0			0	0			1				0	
6.6.1	win	2023-06-23	15:12:38	15:18:05	323117	5d4c394a090b51001a1775fe	4	1	main_z	7	main_z	15	stimuli_target_diamondsquares.svg	stimuli_distractor_trianglediamonds.svg	20	yes	44	1	1123	0	0			0	0			1				0	
6.6.1	win	2023-06-23	15:12:38	15:18:05	323117	5d4c394a090b51001a1775fe	4	1	main_z	7	advance_on_keypress_ZEE	16	stimuli_target_diamondsquares.svg	stimuli_distractor_trianglediamonds.svg	20	yes	57	0	408	0	0			0	0			1				0	
6.6.1	win	2023-06-23	15:12:38	15:18:07	325116	5d4c394a090b51001a1775fe	4	1	main_z	7	main_z	17	stimuli_distractor_diamondtriangles.svg	stimuli_target_squaretriangles.svg	15	yes	44	1	954	0	0			0	0			1				0	
6.6.1	win	2023-06-23	15:12:38	15:18:07	325116	5d4c394a090b51001a1775fe	4	1	main_z	7	advance_on_keypress_ZEE	18	stimuli_distractor_diamondtriangles.svg	stimuli_target_squaretriangles.svg	15	yes	57	0	422	0	0			0	0			1				0	
6.6.1	win	2023-06-23	15:12:38	15:18:09	327292	5d4c394a090b51001a1775fe	4	1	main_z	7	main_z	19	stimuli_distractor_trianglediamonds.svg	stimuli_target_diamondsquares.svg	28	yes	44	1	1112	0	0			0	0			1				0	
6.6.1	win	2023-06-23	15:12:38	15:18:09	327292	5d4c394a090b51001a1775fe	4	1	main_z	7	advance_on_keypress_ZEE	20	stimuli_distractor_trianglediamonds.svg	stimuli_target_diamondsquares.svg	28	yes	57	0	364	0	0			0	0			1				0	
6.6.1	win	2023-06-23	15:12:38	15:18:11	329420	5d4c394a090b51001a1775fe	4	1	main_z	7	main_z	21	stimuli_distractor_diamondtriangles.svg	stimuli_target_trianglesquares.svg	30	yes	44	1	1104	0	0			0	0			1				0	
6.6.1	win	2023-06-23	15:12:38	15:18:11	329420	5d4c394a090b51001a1775fe	4	1	main_z	7	advance_on_keypress_ZEE	22	stimuli_distractor_diamondtriangles.svg	stimuli_target_trianglesquares.svg	30	yes	57	0	382	0	0			0	0			1				0	
6.6.1	win	2023-06-23	15:12:38	15:18:13	331525	5d4c394a090b51001a1775fe	4	1	main_z	7	main_z	23	stimuli_distractor_diamondtriangles.svg	stimuli_target_diamondsquares.svg	32	yes	44	1	1073	0	0			0	0			1				0	
6.6.1	win	2023-06-23	15:12:38	15:18:13	331525	5d4c394a090b51001a1775fe	4	1	main_z	7	advance_on_keypress_ZEE	24	stimuli_distractor_diamondtriangles.svg	stimuli_target_diamondsquares.svg	32	yes	57	0	368	0	0			0	0			1				0	
6.6.1	win	2023-06-23	15:12:38	15:18:16	334551	5d4c394a090b51001a1775fe	4	1	main_z	7	main_z	25	stimuli_distractor_trianglediamonds.svg	stimuli_distractor_diamondtriangles.svg	35	no	0	1	2014	0	0			0	0			1				0	
6.6.1	win	2023-06-23	15:12:38	15:18:16	334551	5d4c394a090b51001a1775fe	4	1	main_z	7	advance_on_keypress_ZEE	26	stimuli_distractor_trianglediamonds.svg	stimuli_distractor_diamondtriangles.svg	35	no	57	0	427	0	0			0	0			1				0	
6.6.1	win	2023-06-23	15:12:38	15:18:19	336685	5d4c394a090b51001a1775fe	4	1	main_z	7	main_z	27	stimuli_target_rectangletriangles.svg	stimuli_distractor_trianglediamonds.svg	1	yes	44	1	1061	0	0			0	0			1				0	
6.6.1	win	2023-06-23	15:12:38	15:18:19	336685	5d4c394a090b51001a1775fe	4	1	main_z	7	advance_on_keypress_ZEE	28	stimuli_target_rectangletriangles.svg	stimuli_distractor_trianglediamonds.svg	1	yes	57	0	348	0	0			0	0			1				0	
6.6.1	win	2023-06-23	15:12:38	15:18:21	338885	5d4c394a090b51001a1775fe	4	1	main_z	7	main_z	29	stimuli_target_trianglesquares.svg	stimuli_distractor_trianglediamonds.svg	18	yes	44	1	1192	0	0			0	0			1				0	
6.6.1	win	2023-06-23	15:12:38	15:18:21	338885	5d4c394a090b51001a1775fe	4	1	main_z	7	advance_on_keypress_ZEE	30	stimuli_target_trianglesquares.svg	stimuli_distractor_trianglediamonds.svg	18	yes	57	0	354	0	0			0	0			1				0	
6.6.1	win	2023-06-23	15:12:38	15:18:23	341036	5d4c394a090b51001a1775fe	4	1	main_z	7	main_z	31	stimuli_distractor_trianglediamonds.svg	stimuli_target_squaretriangles.svg	11	yes	44	1	1142	0	0			0	0			1				0	
6.6.1	win	2023-06-23	15:12:38	15:18:23	341036	5d4c394a090b51001a1775fe	4	1	main_z	7	advance_on_keypress_ZEE	32	stimuli_distractor_trianglediamonds.svg	stimuli_target_squaretriangles.svg	11	yes	57	0	346	0	0			0	0			1				0	
6.6.1	win	2023-06-23	15:12:38	15:18:26	344044	5d4c394a090b51001a1775fe	4	1	main_z	7	main_z	33	stimuli_distractor_trianglediamonds.svg	stimuli_target_rectanglediamonds.svg	10	yes	0	0	2014	0	0			0	0			1				0	
6.6.1	win	2023-06-23	15:12:38	15:18:26	344044	5d4c394a090b51001a1775fe	4	1	main_z	7	advance_on_keypress_ZEE	34	stimuli_distractor_trianglediamonds.svg	stimuli_target_rectanglediamonds.svg	10	yes	57	0	342	0	0			0	0			1				0	
6.6.1	win	2023-06-23	15:12:38	15:18:29	346876	5d4c394a090b51001a1775fe	4	1	main_z	7	main_z	35	stimuli_distractor_trianglediamonds.svg	stimuli_target_trianglerectangles.svg	25	yes	44	1	1843	0	0			0	0			1				0	
6.6.1	win	2023-06-23	15:12:38	15:18:29	346876	5d4c394a090b51001a1775fe	4	1	main_z	7	advance_on_keypress_ZEE	36	stimuli_distractor_trianglediamonds.svg	stimuli_target_trianglerectangles.svg	25	yes	57	0	282	0	0			0	0			1				0	
6.6.1	win	2023-06-23	15:12:38	15:18:31	349237	5d4c394a090b51001a1775fe	4	1	main_z	7	main_z	37	stimuli_target_trianglerectangles.svg	stimuli_distractor_trianglediamonds.svg	17	yes	44	1	1417	0	0			0	0			1				0	
6.6.1	win	2023-06-23	15:12:38	15:18:31	349237	5d4c394a090b51001a1775fe	4	1	main_z	7	advance_on_keypress_ZEE	38	stimuli_target_trianglerectangles.svg	stimuli_distractor_trianglediamonds.svg	17	yes	57	0	338	0	0			0	0			1				0	
6.6.1	win	2023-06-23	15:12:38	15:18:34	352235	5d4c394a090b51001a1775fe	4	1	main_z	7	main_z	39	stimuli_distractor_trianglediamonds.svg	stimuli_target_trianglesquares.svg	26	yes	0	0	2014	0	0			0	0			1				0	
6.6.1	win	2023-06-23	15:12:38	15:18:34	352235	5d4c394a090b51001a1775fe	4	1	main_z	7	advance_on_keypress_ZEE	40	stimuli_distractor_trianglediamonds.svg	stimuli_target_trianglesquares.svg	26	yes	57	0	743	0	0			0	0			1				0	
6.6.1	win	2023-06-23	15:12:38	15:18:36	354596	5d4c394a090b51001a1775fe	4	1	main_z	7	main_z	41	stimuli_distractor_diamondtriangles.svg	stimuli_target_squarediamonds.svg	16	yes	44	1	971	0	0			0	0			1				0	
6.6.1	win	2023-06-23	15:12:38	15:18:36	354596	5d4c394a090b51001a1775fe	4	1	main_z	7	advance_on_keypress_ZEE	42	stimuli_distractor_diamondtriangles.svg	stimuli_target_squarediamonds.svg	16	yes	57	0	358	0	0			0	0			1				0	
6.6.1	win	2023-06-23	15:12:38	15:18:39	357607	5d4c394a090b51001a1775fe	4	1	main_z	7	main_z	43	stimuli_distractor_diamondtriangles.svg	stimuli_distractor_trianglediamonds.svg	37	no	0	1	2014	0	0			0	0			1				0	
6.6.1	win	2023-06-23	15:12:38	15:18:39	357607	5d4c394a090b51001a1775fe	4	1	main_z	7	advance_on_keypress_ZEE	44	stimuli_distractor_diamondtriangles.svg	stimuli_distractor_trianglediamonds.svg	37	no	57	0	868	0	0			0	0			1				0	
6.6.1	win	2023-06-23	15:12:38	15:18:42	360140	5d4c394a090b51001a1775fe	4	1	main_z	7	main_z	45	stimuli_target_rectangletriangles.svg	stimuli_distractor_diamondtriangles.svg	5	yes	44	1	1010	0	0			0	0			1				0	
6.6.1	win	2023-06-23	15:12:38	15:18:42	360140	5d4c394a090b51001a1775fe	4	1	main_z	7	advance_on_keypress_ZEE	46	stimuli_target_rectangletriangles.svg	stimuli_distractor_diamondtriangles.svg	5	yes	57	0	315	0	0			0	0			1				0	
6.6.1	win	2023-06-23	15:12:38	15:18:45	363130	5d4c394a090b51001a1775fe	4	1	main_z	7	main_z	47	stimuli_distractor_trianglediamonds.svg	stimuli_distractor_diamondtriangles.svg	36	no	0	1	2014	0	0			0	0			1				0	
6.6.1	win	2023-06-23	15:12:38	15:18:45	363130	5d4c394a090b51001a1775fe	4	1	main_z	7	advance_on_keypress_ZEE	48	stimuli_distractor_trianglediamonds.svg	stimuli_distractor_diamondtriangles.svg	36	no	57	0	561	0	0			0	0			1				0	
6.6.1	win	2023-06-23	15:12:38	15:18:48	366366	5d4c394a090b51001a1775fe	4	1	main_z	7	main_z	49	stimuli_distractor_trianglediamonds.svg	stimuli_distractor_trianglediamonds.svg	34	no	0	1	2014	0	0			0	0			1				0	
6.6.1	win	2023-06-23	15:12:38	15:18:48	366366	5d4c394a090b51001a1775fe	4	1	main_z	7	advance_on_keypress_ZEE	50	stimuli_distractor_trianglediamonds.svg	stimuli_distractor_trianglediamonds.svg	34	no	57	0	421	0	0			0	0			1				0	
6.6.1	win	2023-06-23	15:12:38	15:18:50	368629	5d4c394a090b51001a1775fe	4	1	main_z	7	main_z	51	stimuli_target_diamondsquares.svg	stimuli_distractor_diamondtriangles.svg	24	yes	44	1	1190	0	0			0	0			1				0	
6.6.1	win	2023-06-23	15:12:38	15:18:50	368629	5d4c394a090b51001a1775fe	4	1	main_z	7	advance_on_keypress_ZEE	52	stimuli_target_diamondsquares.svg	stimuli_distractor_diamondtriangles.svg	24	yes	57	0	304	0	0			0	0			1				0	
6.6.1	win	2023-06-23	15:12:38	15:18:53	371588	5d4c394a090b51001a1775fe	4	1	main_z	7	main_z	53	stimuli_distractor_diamondtriangles.svg	stimuli_distractor_diamondtriangles.svg	39	no	0	1	2014	0	0			0	0			1				0	
6.6.1	win	2023-06-23	15:12:38	15:18:53	371588	5d4c394a090b51001a1775fe	4	1	main_z	7	advance_on_keypress_ZEE	54	stimuli_distractor_diamondtriangles.svg	stimuli_distractor_diamondtriangles.svg	39	no	57	0	494	0	0			0	0			1				0	
6.6.1	win	2023-06-23	15:12:38	15:18:57	374741	5d4c394a090b51001a1775fe	4	1	main_z	7	main_z	55	stimuli_distractor_trianglediamonds.svg	stimuli_target_diamondrectangles.svg	27	yes	0	0	2014	0	0			0	0			1				0	
6.6.1	win	2023-06-23	15:12:38	15:18:57	374741	5d4c394a090b51001a1775fe	4	1	main_z	7	advance_on_keypress_ZEE	56	stimuli_distractor_trianglediamonds.svg	stimuli_target_diamondrectangles.svg	27	yes	57	0	549	0	0			0	0			1				0	
6.6.1	win	2023-06-23	15:12:38	15:18:59	376965	5d4c394a090b51001a1775fe	4	1	main_z	7	main_z	57	stimuli_target_squarediamonds.svg	stimuli_distractor_trianglediamonds.svg	4	yes	44	1	1017	0	0			0	0			1				0	
6.6.1	win	2023-06-23	15:12:38	15:18:59	376965	5d4c394a090b51001a1775fe	4	1	main_z	7	advance_on_keypress_ZEE	58	stimuli_target_squarediamonds.svg	stimuli_distractor_trianglediamonds.svg	4	yes	57	0	338	0	0			0	0			1				0	
6.6.1	win	2023-06-23	15:12:38	15:19:01	378988	5d4c394a090b51001a1775fe	4	1	main_z	7	main_z	59	stimuli_target_squaretriangles.svg	stimuli_distractor_diamondtriangles.svg	7	yes	44	1	1039	0	0			0	0			1				0	
6.6.1	win	2023-06-23	15:12:38	15:19:01	378988	5d4c394a090b51001a1775fe	4	1	main_z	7	advance_on_keypress_ZEE	60	stimuli_target_squaretriangles.svg	stimuli_distractor_diamondtriangles.svg	7	yes	57	0	304	0	0			0	0			1				0	
6.6.1	win	2023-06-23	15:12:38	15:19:03	380933	5d4c394a090b51001a1775fe	4	1	main_z	7	main_z	61	stimuli_target_trianglesquares.svg	stimuli_distractor_diamondtriangles.svg	22	yes	44	1	998	0	0			0	0			1				0	
6.6.1	win	2023-06-23	15:12:38	15:19:03	380933	5d4c394a090b51001a1775fe	4	1	main_z	7	advance_on_keypress_ZEE	62	stimuli_target_trianglesquares.svg	stimuli_distractor_diamondtriangles.svg	22	yes	57	0	337	0	0			0	0			1				0	
6.6.1	win	2023-06-23	15:12:38	15:19:06	383934	5d4c394a090b51001a1775fe	4	1	main_z	7	main_z	63	stimuli_target_diamondrectangles.svg	stimuli_distractor_diamondtriangles.svg	23	yes	0	0	2014	0	0			0	0			1				0	
6.6.1	win	2023-06-23	15:12:38	15:19:06	383934	5d4c394a090b51001a1775fe	4	1	main_z	7	advance_on_keypress_ZEE	64	stimuli_target_diamondrectangles.svg	stimuli_distractor_diamondtriangles.svg	23	yes	57	0	509	0	0			0	0			1				0	
6.6.1	win	2023-06-23	15:12:38	15:19:08	386261	5d4c394a090b51001a1775fe	4	1	main_z	7	main_z	65	stimuli_distractor_diamondtriangles.svg	stimuli_target_diamondrectangles.svg	31	yes	44	1	1171	0	0			0	0			1				0	
6.6.1	win	2023-06-23	15:12:38	15:19:08	386261	5d4c394a090b51001a1775fe	4	1	main_z	7	advance_on_keypress_ZEE	66	stimuli_distractor_diamondtriangles.svg	stimuli_target_diamondrectangles.svg	31	yes	57	0	254	0	0			0	0			1				0	
6.6.1	win	2023-06-23	15:12:38	15:19:10	388237	5d4c394a090b51001a1775fe	4	1	main_z	7	main_z	67	stimuli_distractor_diamondtriangles.svg	stimuli_target_rectangletriangles.svg	13	yes	44	1	1079	0	0			0	0			1				0	
6.6.1	win	2023-06-23	15:12:38	15:19:10	388237	5d4c394a090b51001a1775fe	4	1	main_z	7	advance_on_keypress_ZEE	68	stimuli_distractor_diamondtriangles.svg	stimuli_target_rectangletriangles.svg	13	yes	57	0	292	0	0			0	0			1				0	
6.6.1	win	2023-06-23	15:12:38	15:19:12	390228	5d4c394a090b51001a1775fe	4	1	main_z	7	main_z	69	stimuli_distractor_trianglediamonds.svg	stimuli_target_rectangletriangles.svg	9	yes	44	1	1051	0	0			0	0			1				0	
6.6.1	win	2023-06-23	15:12:38	15:19:12	390228	5d4c394a090b51001a1775fe	4	1	main_z	7	advance_on_keypress_ZEE	70	stimuli_distractor_trianglediamonds.svg	stimuli_target_rectangletriangles.svg	9	yes	57	0	299	0	0			0	0			1				0	
6.6.1	win	2023-06-23	15:12:38	15:19:15	393193	5d4c394a090b51001a1775fe	4	1	main_z	7	main_z	71	stimuli_distractor_trianglediamonds.svg	stimuli_distractor_trianglediamonds.svg	33	no	0	1	2014	0	0			0	0			1				0	
6.6.1	win	2023-06-23	15:12:38	15:19:15	393193	5d4c394a090b51001a1775fe	4	1	main_z	7	advance_on_keypress_ZEE	72	stimuli_distractor_trianglediamonds.svg	stimuli_distractor_trianglediamonds.svg	33	no	57	0	594	0	0			0	0			1				0	
6.6.1	win	2023-06-23	15:12:38	15:19:17	395420	5d4c394a090b51001a1775fe	4	1	main_z	7	main_z	73	stimuli_target_trianglerectangles.svg	stimuli_distractor_diamondtriangles.svg	21	yes	44	1	972	0	0			0	0			1				0	
6.6.1	win	2023-06-23	15:12:38	15:19:17	395420	5d4c394a090b51001a1775fe	4	1	main_z	7	advance_on_keypress_ZEE	74	stimuli_target_trianglerectangles.svg	stimuli_distractor_diamondtriangles.svg	21	yes	57	0	343	0	0			0	0			1				0	
6.6.1	win	2023-06-23	15:12:38	15:19:20	397756	5d4c394a090b51001a1775fe	4	1	main_z	7	main_z	75	stimuli_distractor_diamondtriangles.svg	stimuli_target_trianglerectangles.svg	29	yes	44	1	1355	0	0			0	0			1				0	
6.6.1	win	2023-06-23	15:12:38	15:19:20	397756	5d4c394a090b51001a1775fe	4	1	main_z	7	advance_on_keypress_ZEE	76	stimuli_distractor_diamondtriangles.svg	stimuli_target_trianglerectangles.svg	29	yes	57	0	295	0	0			0	0			1				0	
6.6.1	win	2023-06-23	15:12:38	15:19:22	399725	5d4c394a090b51001a1775fe	4	1	main_z	7	main_z	77	stimuli_distractor_trianglediamonds.svg	stimuli_target_squarediamonds.svg	12	yes	44	1	1038	0	0			0	0			1				0	
6.6.1	win	2023-06-23	15:12:38	15:19:22	399725	5d4c394a090b51001a1775fe	4	1	main_z	7	advance_on_keypress_ZEE	78	stimuli_distractor_trianglediamonds.svg	stimuli_target_squarediamonds.svg	12	yes	57	0	318	0	0			0	0			1				0	
6.6.1	win	2023-06-23	15:12:38	15:19:23	401620	5d4c394a090b51001a1775fe	4	1	main_z	7	main_z	79	stimuli_target_squaretriangles.svg	stimuli_distractor_trianglediamonds.svg	3	yes	44	1	932	0	0			0	0			1				0	
6.6.1	win	2023-06-23	15:12:38	15:19:23	401620	5d4c394a090b51001a1775fe	4	1	main_z	7	advance_on_keypress_ZEE	80	stimuli_target_squaretriangles.svg	stimuli_distractor_trianglediamonds.svg	3	yes	57	0	360	0	0			0	0			1				0	
6.6.1	win	2023-06-23	15:12:38	15:19:25	403605	5d4c394a090b51001a1775fe	4	1	main_z	7	main_z	81	stimuli_distractor_diamondtriangles.svg	stimuli_target_squarediamonds.svg	16	yes	44	1	981	0	0			0	0			1				0	
6.6.1	win	2023-06-23	15:12:38	15:19:25	403605	5d4c394a090b51001a1775fe	4	1	main_z	7	advance_on_keypress_ZEE	82	stimuli_distractor_diamondtriangles.svg	stimuli_target_squarediamonds.svg	16	yes	57	0	343	0	0			0	0			1				0	
6.6.1	win	2023-06-23	15:12:38	15:19:28	405685	5d4c394a090b51001a1775fe	4	1	main_z	7	main_z	83	stimuli_distractor_diamondtriangles.svg	stimuli_target_rectanglediamonds.svg	14	yes	44	1	1092	0	0			0	0			1				0	
6.6.1	win	2023-06-23	15:12:38	15:19:28	405685	5d4c394a090b51001a1775fe	4	1	main_z	7	advance_on_keypress_ZEE	84	stimuli_distractor_diamondtriangles.svg	stimuli_target_rectanglediamonds.svg	14	yes	57	0	338	0	0			0	0			1				0	
6.6.1	win	2023-06-23	15:12:38	15:19:29	407660	5d4c394a090b51001a1775fe	4	1	main_z	7	main_z	85	stimuli_target_rectangletriangles.svg	stimuli_distractor_diamondtriangles.svg	5	yes	44	1	983	0	0			0	0			1				0	
6.6.1	win	2023-06-23	15:12:38	15:19:29	407660	5d4c394a090b51001a1775fe	4	1	main_z	7	advance_on_keypress_ZEE	86	stimuli_target_rectangletriangles.svg	stimuli_distractor_diamondtriangles.svg	5	yes	57	0	353	0	0			0	0			1				0	
6.6.1	win	2023-06-23	15:12:38	15:19:33	410677	5d4c394a090b51001a1775fe	4	1	main_z	7	main_z	87	stimuli_distractor_diamondtriangles.svg	stimuli_distractor_trianglediamonds.svg	37	no	0	1	2014	0	0			0	0			1				0	
6.6.1	win	2023-06-23	15:12:38	15:19:33	410677	5d4c394a090b51001a1775fe	4	1	main_z	7	advance_on_keypress_ZEE	88	stimuli_distractor_diamondtriangles.svg	stimuli_distractor_trianglediamonds.svg	37	no	57	0	613	0	0			0	0			1				0	
6.6.1	win	2023-06-23	15:12:38	15:19:36	413964	5d4c394a090b51001a1775fe	4	1	main_z	7	main_z	89	stimuli_distractor_diamondtriangles.svg	stimuli_target_diamondsquares.svg	32	yes	0	0	2014	0	0			0	0			1				0	
6.6.1	win	2023-06-23	15:12:38	15:19:36	413964	5d4c394a090b51001a1775fe	4	1	main_z	7	advance_on_keypress_ZEE	90	stimuli_distractor_diamondtriangles.svg	stimuli_target_diamondsquares.svg	32	yes	57	0	23	0	0			0	0			1				0	
6.6.1	win	2023-06-23	15:12:38	15:19:38	416650	5d4c394a090b51001a1775fe	4	1	main_z	7	main_z	91	stimuli_distractor_trianglediamonds.svg	stimuli_target_trianglerectangles.svg	25	yes	0	0	2014	0	0			0	0			1				0	
6.6.1	win	2023-06-23	15:12:38	15:19:38	416650	5d4c394a090b51001a1775fe	4	1	main_z	7	advance_on_keypress_ZEE	92	stimuli_distractor_trianglediamonds.svg	stimuli_target_trianglerectangles.svg	25	yes	57	0	465	0	0			0	0			1				0	
6.6.1	win	2023-06-23	15:12:38	15:19:41	418845	5d4c394a090b51001a1775fe	4	1	main_z	7	main_z	93	stimuli_target_diamondsquares.svg	stimuli_distractor_trianglediamonds.svg	20	yes	44	1	1072	0	0			0	0			1				0	
6.6.1	win	2023-06-23	15:12:38	15:19:41	418845	5d4c394a090b51001a1775fe	4	1	main_z	7	advance_on_keypress_ZEE	94	stimuli_target_diamondsquares.svg	stimuli_distractor_trianglediamonds.svg	20	yes	57	0	303	0	0			0	0			1				0	
6.6.1	win	2023-06-23	15:12:38	15:19:43	420805	5d4c394a090b51001a1775fe	4	1	main_z	7	main_z	95	stimuli_target_trianglerectangles.svg	stimuli_distractor_trianglediamonds.svg	17	yes	44	1	997	0	0			0	0			1				0	
6.6.1	win	2023-06-23	15:12:38	15:19:43	420805	5d4c394a090b51001a1775fe	4	1	main_z	7	advance_on_keypress_ZEE	96	stimuli_target_trianglerectangles.svg	stimuli_distractor_trianglediamonds.svg	17	yes	57	0	319	0	0			0	0			1				0	
6.6.1	win	2023-06-23	15:12:38	15:19:45	422685	5d4c394a090b51001a1775fe	4	1	main_z	7	main_z	97	stimuli_distractor_diamondtriangles.svg	stimuli_target_squaretriangles.svg	15	yes	44	1	908	0	0			0	0			1				0	
6.6.1	win	2023-06-23	15:12:38	15:19:45	422685	5d4c394a090b51001a1775fe	4	1	main_z	7	advance_on_keypress_ZEE	98	stimuli_distractor_diamondtriangles.svg	stimuli_target_squaretriangles.svg	15	yes	57	0	401	0	0			0	0			1				0	
6.6.1	win	2023-06-23	15:12:38	15:19:47	424796	5d4c394a090b51001a1775fe	4	1	main_z	7	main_z	99	stimuli_distractor_trianglediamonds.svg	stimuli_target_rectanglediamonds.svg	10	yes	44	1	1052	0	0			0	0			1				0	
6.6.1	win	2023-06-23	15:12:38	15:19:47	424796	5d4c394a090b51001a1775fe	4	1	main_z	7	advance_on_keypress_ZEE	100	stimuli_distractor_trianglediamonds.svg	stimuli_target_rectanglediamonds.svg	10	yes	57	0	347	0	0			0	0			1				0	
6.6.1	win	2023-06-23	15:12:38	15:19:49	426980	5d4c394a090b51001a1775fe	4	1	main_z	7	main_z	101	stimuli_distractor_trianglediamonds.svg	stimuli_target_rectangletriangles.svg	9	yes	44	1	1184	0	0			0	0			1				0	
6.6.1	win	2023-06-23	15:12:38	15:19:49	426980	5d4c394a090b51001a1775fe	4	1	main_z	7	advance_on_keypress_ZEE	102	stimuli_distractor_trianglediamonds.svg	stimuli_target_rectangletriangles.svg	9	yes	57	0	354	0	0			0	0			1				0	
6.6.1	win	2023-06-23	15:12:38	15:19:52	429996	5d4c394a090b51001a1775fe	4	1	main_z	7	main_z	103	stimuli_distractor_trianglediamonds.svg	stimuli_distractor_diamondtriangles.svg	35	no	0	1	2014	0	0			0	0			1				0	
6.6.1	win	2023-06-23	15:12:38	15:19:52	429996	5d4c394a090b51001a1775fe	4	1	main_z	7	advance_on_keypress_ZEE	104	stimuli_distractor_trianglediamonds.svg	stimuli_distractor_diamondtriangles.svg	35	no	57	0	766	0	0			0	0			1				0	
6.6.1	win	2023-06-23	15:12:38	15:19:55	433433	5d4c394a090b51001a1775fe	4	1	main_z	7	main_z	105	stimuli_distractor_diamondtriangles.svg	stimuli_distractor_diamondtriangles.svg	39	no	0	1	2014	0	0			0	0			1				0	
6.6.1	win	2023-06-23	15:12:38	15:19:55	433433	5d4c394a090b51001a1775fe	4	1	main_z	7	advance_on_keypress_ZEE	106	stimuli_distractor_diamondtriangles.svg	stimuli_distractor_diamondtriangles.svg	39	no	57	0	353	0	0			0	0			1				0	
6.6.1	win	2023-06-23	15:12:38	15:19:57	435316	5d4c394a090b51001a1775fe	4	1	main_z	7	main_z	107	stimuli_distractor_trianglediamonds.svg	stimuli_target_squaretriangles.svg	11	yes	44	1	878	0	0			0	0			1				0	
6.6.1	win	2023-06-23	15:12:38	15:19:57	435316	5d4c394a090b51001a1775fe	4	1	main_z	7	advance_on_keypress_ZEE	108	stimuli_distractor_trianglediamonds.svg	stimuli_target_squaretriangles.svg	11	yes	57	0	356	0	0			0	0			1				0	
6.6.1	win	2023-06-23	15:12:38	15:19:59	437308	5d4c394a090b51001a1775fe	4	1	main_z	7	main_z	109	stimuli_distractor_trianglediamonds.svg	stimuli_target_squarediamonds.svg	12	yes	44	1	985	0	0			0	0			1				0	
6.6.1	win	2023-06-23	15:12:38	15:19:59	437308	5d4c394a090b51001a1775fe	4	1	main_z	7	advance_on_keypress_ZEE	110	stimuli_distractor_trianglediamonds.svg	stimuli_target_squarediamonds.svg	12	yes	57	0	299	0	0			0	0			1				0	
6.6.1	win	2023-06-23	15:12:38	15:20:01	439356	5d4c394a090b51001a1775fe	4	1	main_z	7	main_z	111	stimuli_target_diamondrectangles.svg	stimuli_distractor_trianglediamonds.svg	19	yes	44	1	1097	0	0			0	0			1				0	
6.6.1	win	2023-06-23	15:12:38	15:20:01	439356	5d4c394a090b51001a1775fe	4	1	main_z	7	advance_on_keypress_ZEE	112	stimuli_target_diamondrectangles.svg	stimuli_distractor_trianglediamonds.svg	19	yes	57	0	263	0	0			0	0			1				0	
6.6.1	win	2023-06-23	15:12:38	15:20:03	441236	5d4c394a090b51001a1775fe	4	1	main_z	7	main_z	113	stimuli_target_squarediamonds.svg	stimuli_distractor_trianglediamonds.svg	4	yes	44	1	959	0	0			0	0			1				0	
6.6.1	win	2023-06-23	15:12:38	15:20:03	441236	5d4c394a090b51001a1775fe	4	1	main_z	7	advance_on_keypress_ZEE	114	stimuli_target_squarediamonds.svg	stimuli_distractor_trianglediamonds.svg	4	yes	57	0	306	0	0			0	0			1				0	
6.6.1	win	2023-06-23	15:12:38	15:20:06	444194	5d4c394a090b51001a1775fe	4	1	main_z	7	main_z	115	stimuli_distractor_trianglediamonds.svg	stimuli_target_trianglesquares.svg	26	yes	0	0	2014	0	0			0	0			1				0	
6.6.1	win	2023-06-23	15:12:38	15:20:06	444194	5d4c394a090b51001a1775fe	4	1	main_z	7	advance_on_keypress_ZEE	116	stimuli_distractor_trianglediamonds.svg	stimuli_target_trianglesquares.svg	26	yes	57	0	425	0	0			0	0			1				0	
6.6.1	win	2023-06-23	15:12:38	15:20:08	446460	5d4c394a090b51001a1775fe	4	1	main_z	7	main_z	117	stimuli_distractor_diamondtriangles.svg	stimuli_target_diamondrectangles.svg	31	yes	44	1	1194	0	0			0	0			1				0	
6.6.1	win	2023-06-23	15:12:38	15:20:08	446460	5d4c394a090b51001a1775fe	4	1	main_z	7	advance_on_keypress_ZEE	118	stimuli_distractor_diamondtriangles.svg	stimuli_target_diamondrectangles.svg	31	yes	57	0	220	0	0			0	0			1				0	
6.6.1	win	2023-06-23	15:12:38	15:20:10	448255	5d4c394a090b51001a1775fe	4	1	main_z	7	main_z	119	stimuli_target_diamondrectangles.svg	stimuli_distractor_diamondtriangles.svg	23	yes	44	1	920	0	0			0	0			1				0	
6.6.1	win	2023-06-23	15:12:38	15:20:10	448255	5d4c394a090b51001a1775fe	4	1	main_z	7	advance_on_keypress_ZEE	120	stimuli_target_diamondrectangles.svg	stimuli_distractor_diamondtriangles.svg	23	yes	57	0	219	0	0			0	0			1				0	
6.6.1	win	2023-06-23	15:12:38	15:20:13	451134	5d4c394a090b51001a1775fe	4	1	main_z	7	main_z	121	stimuli_distractor_trianglediamonds.svg	stimuli_distractor_diamondtriangles.svg	36	no	0	1	2014	0	0			0	0			1				0	
6.6.1	win	2023-06-23	15:12:38	15:20:13	451134	5d4c394a090b51001a1775fe	4	1	main_z	7	advance_on_keypress_ZEE	122	stimuli_distractor_trianglediamonds.svg	stimuli_distractor_diamondtriangles.svg	36	no	57	0	373	0	0			0	0			1				0	
6.6.1	win	2023-06-23	15:12:38	15:20:16	454036	5d4c394a090b51001a1775fe	4	1	main_z	7	main_z	123	stimuli_distractor_trianglediamonds.svg	stimuli_target_diamondrectangles.svg	27	yes	44	1	1880	0	0			0	0			1				0	
6.6.1	win	2023-06-23	15:12:38	15:20:16	454036	5d4c394a090b51001a1775fe	4	1	main_z	7	advance_on_keypress_ZEE	124	stimuli_distractor_trianglediamonds.svg	stimuli_target_diamondrectangles.svg	27	yes	57	0	846	0	0			0	0			1				0	
6.6.1	win	2023-06-23	15:12:38	15:20:18	456396	5d4c394a090b51001a1775fe	4	1	main_z	7	main_z	125	stimuli_target_trianglesquares.svg	stimuli_distractor_diamondtriangles.svg	22	yes	44	1	870	0	0			0	0			1				0	
6.6.1	win	2023-06-23	15:12:38	15:20:18	456396	5d4c394a090b51001a1775fe	4	1	main_z	7	advance_on_keypress_ZEE	126	stimuli_target_trianglesquares.svg	stimuli_distractor_diamondtriangles.svg	22	yes	57	0	285	0	0			0	0			1				0	
6.6.1	win	2023-06-23	15:12:38	15:20:20	458276	5d4c394a090b51001a1775fe	4	1	main_z	7	main_z	127	stimuli_target_trianglesquares.svg	stimuli_distractor_trianglediamonds.svg	18	yes	44	1	948	0	0			0	0			1				0	
6.6.1	win	2023-06-23	15:12:38	15:20:20	458276	5d4c394a090b51001a1775fe	4	1	main_z	7	advance_on_keypress_ZEE	128	stimuli_target_trianglesquares.svg	stimuli_distractor_trianglediamonds.svg	18	yes	57	0	240	0	0			0	0			1				0	
6.6.1	win	2023-06-23	15:12:38	15:20:22	460196	5d4c394a090b51001a1775fe	4	1	main_z	7	main_z	129	stimuli_target_diamondsquares.svg	stimuli_distractor_diamondtriangles.svg	24	yes	44	1	1033	0	0			0	0			1				0	
6.6.1	win	2023-06-23	15:12:38	15:20:22	460196	5d4c394a090b51001a1775fe	4	1	main_z	7	advance_on_keypress_ZEE	130	stimuli_target_diamondsquares.svg	stimuli_distractor_diamondtriangles.svg	24	yes	57	0	282	0	0			0	0			1				0	
6.6.1	win	2023-06-23	15:12:38	15:20:24	462276	5d4c394a090b51001a1775fe	4	1	main_z	7	main_z	131	stimuli_target_rectanglediamonds.svg	stimuli_distractor_trianglediamonds.svg	2	yes	44	1	1145	0	0			0	0			1				0	
6.6.1	win	2023-06-23	15:12:38	15:20:24	462276	5d4c394a090b51001a1775fe	4	1	main_z	7	advance_on_keypress_ZEE	132	stimuli_target_rectanglediamonds.svg	stimuli_distractor_trianglediamonds.svg	2	yes	57	0	268	0	0			0	0			1				0	
6.6.1	win	2023-06-23	15:12:38	15:20:27	465215	5d4c394a090b51001a1775fe	4	1	main_z	7	main_z	133	stimuli_distractor_trianglediamonds.svg	stimuli_distractor_trianglediamonds.svg	33	no	0	1	2014	0	0			0	0			1				0	
6.6.1	win	2023-06-23	15:12:38	15:20:27	465215	5d4c394a090b51001a1775fe	4	1	main_z	7	advance_on_keypress_ZEE	134	stimuli_distractor_trianglediamonds.svg	stimuli_distractor_trianglediamonds.svg	33	no	57	0	324	0	0			0	0			1				0	
6.6.1	win	2023-06-23	15:12:38	15:20:30	468201	5d4c394a090b51001a1775fe	4	1	main_z	7	main_z	135	stimuli_distractor_diamondtriangles.svg	stimuli_distractor_trianglediamonds.svg	38	no	0	1	2014	0	0			0	0			1				0	
6.6.1	win	2023-06-23	15:12:38	15:20:30	468201	5d4c394a090b51001a1775fe	4	1	main_z	7	advance_on_keypress_ZEE	136	stimuli_distractor_diamondtriangles.svg	stimuli_distractor_trianglediamonds.svg	38	no	57	0	442	0	0			0	0			1				0	
6.6.1	win	2023-06-23	15:12:38	15:20:32	470301	5d4c394a090b51001a1775fe	4	1	main_z	7	main_z	137	stimuli_target_trianglerectangles.svg	stimuli_distractor_diamondtriangles.svg	21	yes	44	1	1010	0	0			0	0			1				0	
6.6.1	win	2023-06-23	15:12:38	15:20:32	470301	5d4c394a090b51001a1775fe	4	1	main_z	7	advance_on_keypress_ZEE	138	stimuli_target_trianglerectangles.svg	stimuli_distractor_diamondtriangles.svg	21	yes	57	0	236	0	0			0	0			1				0	
6.6.1	win	2023-06-23	15:12:38	15:20:34	471980	5d4c394a090b51001a1775fe	4	1	main_z	7	main_z	139	stimuli_target_rectanglediamonds.svg	stimuli_distractor_diamondtriangles.svg	6	yes	44	1	788	0	0			0	0			1				0	
6.6.1	win	2023-06-23	15:12:38	15:20:34	471980	5d4c394a090b51001a1775fe	4	1	main_z	7	advance_on_keypress_ZEE	140	stimuli_target_rectanglediamonds.svg	stimuli_distractor_diamondtriangles.svg	6	yes	57	0	327	0	0			0	0			1				0	
6.6.1	win	2023-06-23	15:12:38	15:20:36	473788	5d4c394a090b51001a1775fe	4	1	main_z	7	main_z	141	stimuli_target_squaretriangles.svg	stimuli_distractor_trianglediamonds.svg	3	yes	44	1	845	0	0			0	0			1				0	
6.6.1	win	2023-06-23	15:12:38	15:20:36	473788	5d4c394a090b51001a1775fe	4	1	main_z	7	advance_on_keypress_ZEE	142	stimuli_target_squaretriangles.svg	stimuli_distractor_trianglediamonds.svg	3	yes	57	0	317	0	0			0	0			1				0	
6.6.1	win	2023-06-23	15:12:38	15:20:37	475660	5d4c394a090b51001a1775fe	4	1	main_z	7	main_z	143	stimuli_distractor_diamondtriangles.svg	stimuli_target_trianglesquares.svg	30	yes	44	1	898	0	0			0	0			1				0	
6.6.1	win	2023-06-23	15:12:38	15:20:37	475660	5d4c394a090b51001a1775fe	4	1	main_z	7	advance_on_keypress_ZEE	144	stimuli_distractor_diamondtriangles.svg	stimuli_target_trianglesquares.svg	30	yes	57	0	288	0	0			0	0			1				0	
6.6.1	win	2023-06-23	15:12:38	15:20:40	477700	5d4c394a090b51001a1775fe	4	1	main_z	7	main_z	145	stimuli_distractor_diamondtriangles.svg	stimuli_target_trianglerectangles.svg	29	yes	44	1	1103	0	0			0	0			1				0	
6.6.1	win	2023-06-23	15:12:38	15:20:40	477700	5d4c394a090b51001a1775fe	4	1	main_z	7	advance_on_keypress_ZEE	146	stimuli_distractor_diamondtriangles.svg	stimuli_target_trianglerectangles.svg	29	yes	57	0	269	0	0			0	0			1				0	
6.6.1	win	2023-06-23	15:12:38	15:20:42	480630	5d4c394a090b51001a1775fe	4	1	main_z	7	main_z	147	stimuli_distractor_trianglediamonds.svg	stimuli_target_diamondsquares.svg	28	yes	0	0	2014	0	0			0	0			1				0	
6.6.1	win	2023-06-23	15:12:38	15:20:42	480630	5d4c394a090b51001a1775fe	4	1	main_z	7	advance_on_keypress_ZEE	148	stimuli_distractor_trianglediamonds.svg	stimuli_target_diamondsquares.svg	28	yes	57	0	333	0	0			0	0			1				0	
6.6.1	win	2023-06-23	15:12:38	15:20:44	482405	5d4c394a090b51001a1775fe	4	1	main_z	7	main_z	149	stimuli_target_squarediamonds.svg	stimuli_distractor_diamondtriangles.svg	8	yes	44	1	785	0	0			0	0			1				0	
6.6.1	win	2023-06-23	15:12:38	15:20:44	482405	5d4c394a090b51001a1775fe	4	1	main_z	7	advance_on_keypress_ZEE	150	stimuli_target_squarediamonds.svg	stimuli_distractor_diamondtriangles.svg	8	yes	57	0	340	0	0			0	0			1				0	
6.6.1	win	2023-06-23	15:12:38	15:20:47	485402	5d4c394a090b51001a1775fe	4	1	main_z	7	main_z	151	stimuli_distractor_trianglediamonds.svg	stimuli_distractor_trianglediamonds.svg	34	no	0	1	2014	0	0			0	0			1				0	
6.6.1	win	2023-06-23	15:12:38	15:20:47	485402	5d4c394a090b51001a1775fe	4	1	main_z	7	advance_on_keypress_ZEE	152	stimuli_distractor_trianglediamonds.svg	stimuli_distractor_trianglediamonds.svg	34	no	57	0	337	0	0			0	0			1				0	
6.6.1	win	2023-06-23	15:12:38	15:20:50	488405	5d4c394a090b51001a1775fe	4	1	main_z	7	main_z	153	stimuli_distractor_diamondtriangles.svg	stimuli_distractor_diamondtriangles.svg	40	no	0	1	2014	0	0			0	0			1				0	
6.6.1	win	2023-06-23	15:12:38	15:20:50	488405	5d4c394a090b51001a1775fe	4	1	main_z	7	advance_on_keypress_ZEE	154	stimuli_distractor_diamondtriangles.svg	stimuli_distractor_diamondtriangles.svg	40	no	57	0	478	0	0			0	0			1				0	
6.6.1	win	2023-06-23	15:12:38	15:20:52	490116	5d4c394a090b51001a1775fe	4	1	main_z	7	main_z	155	stimuli_distractor_diamondtriangles.svg	stimuli_target_rectangletriangles.svg	13	yes	44	1	590	0	0			0	0			1				0	
6.6.1	win	2023-06-23	15:12:38	15:20:52	490116	5d4c394a090b51001a1775fe	4	1	main_z	7	advance_on_keypress_ZEE	156	stimuli_distractor_diamondtriangles.svg	stimuli_target_rectangletriangles.svg	13	yes	57	0	383	0	0			0	0			1				0	
6.6.1	win	2023-06-23	15:12:38	15:20:54	491844	5d4c394a090b51001a1775fe	4	1	main_z	7	main_z	157	stimuli_target_squaretriangles.svg	stimuli_distractor_diamondtriangles.svg	7	yes	44	1	699	0	0			0	0			1				0	
6.6.1	win	2023-06-23	15:12:38	15:20:54	491844	5d4c394a090b51001a1775fe	4	1	main_z	7	advance_on_keypress_ZEE	158	stimuli_target_squaretriangles.svg	stimuli_distractor_diamondtriangles.svg	7	yes	57	0	329	0	0			0	0			1				0	
6.6.1	win	2023-06-23	15:12:38	15:20:55	493404	5d4c394a090b51001a1775fe	4	1	main_z	7	main_z	159	stimuli_target_rectangletriangles.svg	stimuli_distractor_trianglediamonds.svg	1	yes	44	1	574	0	0			0	0			1				0	
6.6.1	win	2023-06-23	15:12:38	15:20:55	493404	5d4c394a090b51001a1775fe	4	1	main_z	7	advance_on_keypress_ZEE	160	stimuli_target_rectangletriangles.svg	stimuli_distractor_trianglediamonds.svg	1	yes	57	0	337	0	0			0	0			1				0	
6.6.1	win	2023-06-23	15:12:38	15:21:49	546767	5d4c394a090b51001a1775fe	4	1	practice_slash	9	practice_slash	1	stimuli_distractor_trianglediamonds.svg	stimuli_target_diamondrectangles.svg	12	yes	53	1	1549	0	0			0	0			1				0	
6.6.1	win	2023-06-23	15:12:38	15:21:49	546767	5d4c394a090b51001a1775fe	4	1	practice_slash	9	advance_on_keypress_SLASH	2	stimuli_distractor_trianglediamonds.svg	stimuli_target_diamondrectangles.svg	12	yes	57	0	727	0	0			0	0			1				0	
6.6.1	win	2023-06-23	15:12:38	15:21:52	550231	5d4c394a090b51001a1775fe	4	1	practice_slash	9	practice_slash	3	stimuli_target_diamondsquares.svg	stimuli_distractor_trianglediamonds.svg	6	yes	53	1	1092	0	0			0	0			1				0	
6.6.1	win	2023-06-23	15:12:38	15:21:52	550231	5d4c394a090b51001a1775fe	4	1	practice_slash	9	advance_on_keypress_SLASH	4	stimuli_target_diamondsquares.svg	stimuli_distractor_trianglediamonds.svg	6	yes	57	0	497	0	0			0	0			1				0	
6.6.1	win	2023-06-23	15:12:38	15:21:56	554405	5d4c394a090b51001a1775fe	4	1	practice_slash	9	practice_slash	5	stimuli_distractor_trianglediamonds.svg	stimuli_distractor_diamondtriangles.svg	16	no	0	1	2014	0	0			0	0			1				0	
6.6.1	win	2023-06-23	15:12:38	15:21:56	554405	5d4c394a090b51001a1775fe	4	1	practice_slash	9	advance_on_keypress_SLASH	6	stimuli_distractor_trianglediamonds.svg	stimuli_distractor_diamondtriangles.svg	16	no	57	0	390	0	0			0	0			1				0	
6.6.1	win	2023-06-23	15:12:38	15:21:59	557382	5d4c394a090b51001a1775fe	4	1	practice_slash	9	practice_slash	7	stimuli_distractor_diamondtriangles.svg	stimuli_target_diamondrectangles.svg	8	yes	53	1	938	0	0			0	0			1				0	
6.6.1	win	2023-06-23	15:12:38	15:21:59	557382	5d4c394a090b51001a1775fe	4	1	practice_slash	9	advance_on_keypress_SLASH	8	stimuli_distractor_diamondtriangles.svg	stimuli_target_diamondrectangles.svg	8	yes	57	0	540	0	0			0	0			1				0	
6.6.1	win	2023-06-23	15:12:38	15:22:02	560494	5d4c394a090b51001a1775fe	4	1	practice_slash	9	practice_slash	9	stimuli_target_squarediamonds.svg	stimuli_distractor_diamondtriangles.svg	2	yes	53	1	929	0	0			0	0			1				0	
6.6.1	win	2023-06-23	15:12:38	15:22:02	560494	5d4c394a090b51001a1775fe	4	1	practice_slash	9	advance_on_keypress_SLASH	10	stimuli_target_squarediamonds.svg	stimuli_distractor_diamondtriangles.svg	2	yes	57	0	573	0	0			0	0			1				0	
6.6.1	win	2023-06-23	15:12:38	15:22:05	563599	5d4c394a090b51001a1775fe	4	1	practice_slash	9	practice_slash	11	stimuli_target_squarediamonds.svg	stimuli_distractor_trianglediamonds.svg	5	yes	53	1	880	0	0			0	0			1				0	
6.6.1	win	2023-06-23	15:12:38	15:22:05	563599	5d4c394a090b51001a1775fe	4	1	practice_slash	9	advance_on_keypress_SLASH	12	stimuli_target_squarediamonds.svg	stimuli_distractor_trianglediamonds.svg	5	yes	57	0	575	0	0			0	0			1				0	
6.6.1	win	2023-06-23	15:12:38	15:22:10	567851	5d4c394a090b51001a1775fe	4	1	practice_slash	9	practice_slash	13	stimuli_distractor_diamondtriangles.svg	stimuli_distractor_diamondtriangles.svg	13	no	0	1	2014	0	0			0	0			1				0	
6.6.1	win	2023-06-23	15:12:38	15:22:10	567851	5d4c394a090b51001a1775fe	4	1	practice_slash	9	advance_on_keypress_SLASH	14	stimuli_distractor_diamondtriangles.svg	stimuli_distractor_diamondtriangles.svg	13	no	57	0	375	0	0			0	0			1				0	
6.6.1	win	2023-06-23	15:12:38	15:22:13	570870	5d4c394a090b51001a1775fe	4	1	practice_slash	9	practice_slash	15	stimuli_target_diamondsquares.svg	stimuli_distractor_diamondtriangles.svg	3	yes	53	1	978	0	0			0	0			1				0	
6.6.1	win	2023-06-23	15:12:38	15:22:13	570870	5d4c394a090b51001a1775fe	4	1	practice_slash	9	advance_on_keypress_SLASH	16	stimuli_target_diamondsquares.svg	stimuli_distractor_diamondtriangles.svg	3	yes	57	0	572	0	0			0	0			1				0	
6.6.1	win	2023-06-23	15:12:38	15:22:17	575110	5d4c394a090b51001a1775fe	4	1	practice_slash	9	practice_slash	17	stimuli_distractor_diamondtriangles.svg	stimuli_distractor_trianglediamonds.svg	14	no	0	1	2014	0	0			0	0			1				0	
6.6.1	win	2023-06-23	15:12:38	15:22:17	575110	5d4c394a090b51001a1775fe	4	1	practice_slash	9	advance_on_keypress_SLASH	18	stimuli_distractor_diamondtriangles.svg	stimuli_distractor_trianglediamonds.svg	14	no	57	0	886	0	0			0	0			1				0	
6.6.1	win	2023-06-23	15:12:38	15:22:21	578719	5d4c394a090b51001a1775fe	4	1	practice_slash	9	practice_slash	19	stimuli_distractor_diamondtriangles.svg	stimuli_target_trianglerectangles.svg	9	yes	53	1	1069	0	0			0	0			1				0	
6.6.1	win	2023-06-23	15:12:38	15:22:21	578719	5d4c394a090b51001a1775fe	4	1	practice_slash	9	advance_on_keypress_SLASH	20	stimuli_distractor_diamondtriangles.svg	stimuli_target_trianglerectangles.svg	9	yes	57	0	507	0	0			0	0			1				0	
6.6.1	win	2023-06-23	15:12:38	15:22:23	581582	5d4c394a090b51001a1775fe	4	1	practice_slash	9	practice_slash	21	stimuli_distractor_diamondtriangles.svg	stimuli_target_rectangletriangles.svg	7	yes	53	1	713	0	0			0	0			1				0	
6.6.1	win	2023-06-23	15:12:38	15:22:23	581582	5d4c394a090b51001a1775fe	4	1	practice_slash	9	advance_on_keypress_SLASH	22	stimuli_distractor_diamondtriangles.svg	stimuli_target_rectangletriangles.svg	7	yes	57	0	573	0	0			0	0			1				0	
6.6.1	win	2023-06-23	15:12:38	15:22:26	584638	5d4c394a090b51001a1775fe	4	1	practice_slash	9	practice_slash	23	stimuli_distractor_trianglediamonds.svg	stimuli_target_squarediamonds.svg	11	yes	53	1	832	0	0			0	0			1				0	
6.6.1	win	2023-06-23	15:12:38	15:22:26	584638	5d4c394a090b51001a1775fe	4	1	practice_slash	9	advance_on_keypress_SLASH	24	stimuli_distractor_trianglediamonds.svg	stimuli_target_squarediamonds.svg	11	yes	57	0	616	0	0			0	0			1				0	
6.6.1	win	2023-06-23	15:12:38	15:22:30	588238	5d4c394a090b51001a1775fe	4	1	practice_slash	9	practice_slash	25	stimuli_distractor_trianglediamonds.svg	stimuli_distractor_trianglediamonds.svg	15	no	53	0	1329	0	0			0	0			1				0	
6.6.1	win	2023-06-23	15:12:38	15:22:30	588238	5d4c394a090b51001a1775fe	4	1	practice_slash	9	advance_on_keypress_SLASH	26	stimuli_distractor_trianglediamonds.svg	stimuli_distractor_trianglediamonds.svg	15	no	57	0	500	0	0			0	0			1				0	
6.6.1	win	2023-06-23	15:12:38	15:22:33	591199	5d4c394a090b51001a1775fe	4	1	practice_slash	9	practice_slash	27	stimuli_target_rectanglediamonds.svg	stimuli_distractor_trianglediamonds.svg	4	yes	53	1	804	0	0			0	0			1				0	
6.6.1	win	2023-06-23	15:12:38	15:22:33	591199	5d4c394a090b51001a1775fe	4	1	practice_slash	9	advance_on_keypress_SLASH	28	stimuli_target_rectanglediamonds.svg	stimuli_distractor_trianglediamonds.svg	4	yes	57	0	603	0	0			0	0			1				0	
6.6.1	win	2023-06-23	15:12:38	15:22:36	594230	5d4c394a090b51001a1775fe	4	1	practice_slash	9	practice_slash	29	stimuli_distractor_trianglediamonds.svg	stimuli_target_rectanglediamonds.svg	10	yes	53	1	782	0	0			0	0			1				0	
6.6.1	win	2023-06-23	15:12:38	15:22:36	594230	5d4c394a090b51001a1775fe	4	1	practice_slash	9	advance_on_keypress_SLASH	30	stimuli_distractor_trianglediamonds.svg	stimuli_target_rectanglediamonds.svg	10	yes	57	0	536	0	0			0	0			1				0	
6.6.1	win	2023-06-23	15:12:38	15:22:39	597077	5d4c394a090b51001a1775fe	4	1	practice_slash	9	practice_slash	31	stimuli_target_rectanglediamonds.svg	stimuli_distractor_diamondtriangles.svg	1	yes	53	1	660	0	0			0	0			1				0	
6.6.1	win	2023-06-23	15:12:38	15:22:39	597077	5d4c394a090b51001a1775fe	4	1	practice_slash	9	advance_on_keypress_SLASH	32	stimuli_target_rectanglediamonds.svg	stimuli_distractor_diamondtriangles.svg	1	yes	57	0	834	0	0			0	0			1				0	
6.6.1	win	2023-06-23	15:12:38	15:22:59	616860	5d4c394a090b51001a1775fe	4	1	main_slash	11	main_slash	1	stimuli_target_trianglesquares.svg	stimuli_distractor_diamondtriangles.svg	22	yes	53	1	1007	0	0			0	0			1				0	
6.6.1	win	2023-06-23	15:12:38	15:22:59	616860	5d4c394a090b51001a1775fe	4	1	main_slash	11	advance_on_keypress_SLASH	2	stimuli_target_trianglesquares.svg	stimuli_distractor_diamondtriangles.svg	22	yes	57	0	601	0	0			0	0			1				0	
6.6.1	win	2023-06-23	15:12:38	15:23:01	618699	5d4c394a090b51001a1775fe	4	1	main_slash	11	main_slash	3	stimuli_distractor_diamondtriangles.svg	stimuli_target_squarediamonds.svg	16	yes	53	1	578	0	0			0	0			1				0	
6.6.1	win	2023-06-23	15:12:38	15:23:01	618699	5d4c394a090b51001a1775fe	4	1	main_slash	11	advance_on_keypress_SLASH	4	stimuli_distractor_diamondtriangles.svg	stimuli_target_squarediamonds.svg	16	yes	57	0	341	0	0			0	0			1				0	
6.6.1	win	2023-06-23	15:12:38	15:23:02	620323	5d4c394a090b51001a1775fe	4	1	main_slash	11	main_slash	5	stimuli_target_squaretriangles.svg	stimuli_distractor_diamondtriangles.svg	7	yes	53	1	634	0	0			0	0			1				0	
6.6.1	win	2023-06-23	15:12:38	15:23:02	620323	5d4c394a090b51001a1775fe	4	1	main_slash	11	advance_on_keypress_SLASH	6	stimuli_target_squaretriangles.svg	stimuli_distractor_diamondtriangles.svg	7	yes	57	0	346	0	0			0	0			1				0	
6.6.1	win	2023-06-23	15:12:38	15:23:04	621827	5d4c394a090b51001a1775fe	4	1	main_slash	11	main_slash	7	stimuli_target_rectangletriangles.svg	stimuli_distractor_diamondtriangles.svg	5	yes	53	1	503	0	0			0	0			1				0	
6.6.1	win	2023-06-23	15:12:38	15:23:04	621827	5d4c394a090b51001a1775fe	4	1	main_slash	11	advance_on_keypress_SLASH	8	stimuli_target_rectangletriangles.svg	stimuli_distractor_diamondtriangles.svg	5	yes	57	0	278	0	0			0	0			1				0	
6.6.1	win	2023-06-23	15:12:38	15:23:07	624773	5d4c394a090b51001a1775fe	4	1	main_slash	11	main_slash	9	stimuli_distractor_diamondtriangles.svg	stimuli_distractor_trianglediamonds.svg	38	no	0	1	2014	0	0			0	0			1				0	
6.6.1	win	2023-06-23	15:12:38	15:23:07	624773	5d4c394a090b51001a1775fe	4	1	main_slash	11	advance_on_keypress_SLASH	10	stimuli_distractor_diamondtriangles.svg	stimuli_distractor_trianglediamonds.svg	38	no	57	0	332	0	0			0	0			1				0	
6.6.1	win	2023-06-23	15:12:38	15:23:09	626707	5d4c394a090b51001a1775fe	4	1	main_slash	11	main_slash	11	stimuli_target_diamondsquares.svg	stimuli_distractor_trianglediamonds.svg	20	yes	53	1	945	0	0			0	0			1				0	
6.6.1	win	2023-06-23	15:12:38	15:23:09	626707	5d4c394a090b51001a1775fe	4	1	main_slash	11	advance_on_keypress_SLASH	12	stimuli_target_diamondsquares.svg	stimuli_distractor_trianglediamonds.svg	20	yes	57	0	421	0	0			0	0			1				0	
6.6.1	win	2023-06-23	15:12:38	15:23:10	628579	5d4c394a090b51001a1775fe	4	1	main_slash	11	main_slash	13	stimuli_distractor_trianglediamonds.svg	stimuli_target_diamondsquares.svg	28	yes	53	1	798	0	0			0	0			1				0	
6.6.1	win	2023-06-23	15:12:38	15:23:10	628579	5d4c394a090b51001a1775fe	4	1	main_slash	11	advance_on_keypress_SLASH	14	stimuli_distractor_trianglediamonds.svg	stimuli_target_diamondsquares.svg	28	yes	57	0	384	0	0			0	0			1				0	
6.6.1	win	2023-06-23	15:12:38	15:23:12	630331	5d4c394a090b51001a1775fe	4	1	main_slash	11	main_slash	15	stimuli_target_diamondrectangles.svg	stimuli_distractor_diamondtriangles.svg	23	yes	53	1	715	0	0			0	0			1				0	
6.6.1	win	2023-06-23	15:12:38	15:23:12	630331	5d4c394a090b51001a1775fe	4	1	main_slash	11	advance_on_keypress_SLASH	16	stimuli_target_diamondrectangles.svg	stimuli_distractor_diamondtriangles.svg	23	yes	57	0	377	0	0			0	0			1				0	
6.6.1	win	2023-06-23	15:12:38	15:23:14	631988	5d4c394a090b51001a1775fe	4	1	main_slash	11	main_slash	17	stimuli_distractor_diamondtriangles.svg	stimuli_target_rectanglediamonds.svg	14	yes	53	1	619	0	0			0	0			1				0	
6.6.1	win	2023-06-23	15:12:38	15:23:14	631988	5d4c394a090b51001a1775fe	4	1	main_slash	11	advance_on_keypress_SLASH	18	stimuli_distractor_diamondtriangles.svg	stimuli_target_rectanglediamonds.svg	14	yes	57	0	357	0	0			0	0			1				0	
6.6.1	win	2023-06-23	15:12:38	15:23:16	633939	5d4c394a090b51001a1775fe	4	1	main_slash	11	main_slash	19	stimuli_target_trianglerectangles.svg	stimuli_distractor_diamondtriangles.svg	21	yes	53	1	953	0	0			0	0			1				0	
6.6.1	win	2023-06-23	15:12:38	15:23:16	633939	5d4c394a090b51001a1775fe	4	1	main_slash	11	advance_on_keypress_SLASH	20	stimuli_target_trianglerectangles.svg	stimuli_distractor_diamondtriangles.svg	21	yes	57	0	389	0	0			0	0			1				0	
6.6.1	win	2023-06-23	15:12:38	15:23:19	636985	5d4c394a090b51001a1775fe	4	1	main_slash	11	main_slash	21	stimuli_distractor_diamondtriangles.svg	stimuli_distractor_trianglediamonds.svg	37	no	0	1	2014	0	0			0	0			1				0	
6.6.1	win	2023-06-23	15:12:38	15:23:19	636985	5d4c394a090b51001a1775fe	4	1	main_slash	11	advance_on_keypress_SLASH	22	stimuli_distractor_diamondtriangles.svg	stimuli_distractor_trianglediamonds.svg	37	no	57	0	352	0	0			0	0			1				0	
6.6.1	win	2023-06-23	15:12:38	15:23:20	638524	5d4c394a090b51001a1775fe	4	1	main_slash	11	main_slash	23	stimuli_distractor_trianglediamonds.svg	stimuli_target_squaretriangles.svg	11	yes	53	1	532	0	0			0	0			1				0	
6.6.1	win	2023-06-23	15:12:38	15:23:20	638524	5d4c394a090b51001a1775fe	4	1	main_slash	11	advance_on_keypress_SLASH	24	stimuli_distractor_trianglediamonds.svg	stimuli_target_squaretriangles.svg	11	yes	57	0	337	0	0			0	0			1				0	
6.6.1	win	2023-06-23	15:12:38	15:23:22	640155	5d4c394a090b51001a1775fe	4	1	main_slash	11	main_slash	25	stimuli_distractor_trianglediamonds.svg	stimuli_target_trianglerectangles.svg	25	yes	53	1	646	0	0			0	0			1				0	
6.6.1	win	2023-06-23	15:12:38	15:23:22	640155	5d4c394a090b51001a1775fe	4	1	main_slash	11	advance_on_keypress_SLASH	26	stimuli_distractor_trianglediamonds.svg	stimuli_target_trianglerectangles.svg	25	yes	57	0	302	0	0			0	0			1				0	
6.6.1	win	2023-06-23	15:12:38	15:23:24	641723	5d4c394a090b51001a1775fe	4	1	main_slash	11	main_slash	27	stimuli_distractor_diamondtriangles.svg	stimuli_target_diamondsquares.svg	32	yes	53	1	612	0	0			0	0			1				0	
6.6.1	win	2023-06-23	15:12:38	15:23:24	641723	5d4c394a090b51001a1775fe	4	1	main_slash	11	advance_on_keypress_SLASH	28	stimuli_distractor_diamondtriangles.svg	stimuli_target_diamondsquares.svg	32	yes	57	0	270	0	0			0	0			1				0	
6.6.1	win	2023-06-23	15:12:38	15:23:26	644660	5d4c394a090b51001a1775fe	4	1	main_slash	11	main_slash	29	stimuli_distractor_trianglediamonds.svg	stimuli_distractor_trianglediamonds.svg	33	no	0	1	2014	0	0			0	0			1				0	
6.6.1	win	2023-06-23	15:12:38	15:23:26	644660	5d4c394a090b51001a1775fe	4	1	main_slash	11	advance_on_keypress_SLASH	30	stimuli_distractor_trianglediamonds.svg	stimuli_distractor_trianglediamonds.svg	33	no	57	0	390	0	0			0	0			1				0	
6.6.1	win	2023-06-23	15:12:38	15:23:28	646604	5d4c394a090b51001a1775fe	4	1	main_slash	11	main_slash	31	stimuli_target_squarediamonds.svg	stimuli_distractor_diamondtriangles.svg	8	yes	53	1	904	0	0			0	0			1				0	
6.6.1	win	2023-06-23	15:12:38	15:23:28	646604	5d4c394a090b51001a1775fe	4	1	main_slash	11	advance_on_keypress_SLASH	32	stimuli_target_squarediamonds.svg	stimuli_distractor_diamondtriangles.svg	8	yes	57	0	350	0	0			0	0			1				0	
6.6.1	win	2023-06-23	15:12:38	15:23:30	648188	5d4c394a090b51001a1775fe	4	1	main_slash	11	main_slash	33	stimuli_distractor_trianglediamonds.svg	stimuli_target_trianglesquares.svg	26	yes	53	1	587	0	0			0	0			1				0	
6.6.1	win	2023-06-23	15:12:38	15:23:30	648188	5d4c394a090b51001a1775fe	4	1	main_slash	11	advance_on_keypress_SLASH	34	stimuli_distractor_trianglediamonds.svg	stimuli_target_trianglesquares.svg	26	yes	57	0	317	0	0			0	0			1				0	
6.6.1	win	2023-06-23	15:12:38	15:23:32	649819	5d4c394a090b51001a1775fe	4	1	main_slash	11	main_slash	35	stimuli_distractor_diamondtriangles.svg	stimuli_target_trianglesquares.svg	30	yes	53	1	667	0	0			0	0			1				0	
6.6.1	win	2023-06-23	15:12:38	15:23:32	649819	5d4c394a090b51001a1775fe	4	1	main_slash	11	advance_on_keypress_SLASH	36	stimuli_distractor_diamondtriangles.svg	stimuli_target_trianglesquares.svg	30	yes	57	0	266	0	0			0	0			1				0	
6.6.1	win	2023-06-23	15:12:38	15:23:33	651524	5d4c394a090b51001a1775fe	4	1	main_slash	11	main_slash	37	stimuli_distractor_diamondtriangles.svg	stimuli_target_diamondrectangles.svg	31	yes	53	1	786	0	0			0	0			1				0	
6.6.1	win	2023-06-23	15:12:38	15:23:33	651524	5d4c394a090b51001a1775fe	4	1	main_slash	11	advance_on_keypress_SLASH	38	stimuli_distractor_diamondtriangles.svg	stimuli_target_diamondrectangles.svg	31	yes	57	0	284	0	0			0	0			1				0	
6.6.1	win	2023-06-23	15:12:38	15:23:35	653091	5d4c394a090b51001a1775fe	4	1	main_slash	11	main_slash	39	stimuli_target_diamondsquares.svg	stimuli_distractor_diamondtriangles.svg	24	yes	53	1	636	0	0			0	0			1				0	
6.6.1	win	2023-06-23	15:12:38	15:23:35	653091	5d4c394a090b51001a1775fe	4	1	main_slash	11	advance_on_keypress_SLASH	40	stimuli_target_diamondsquares.svg	stimuli_distractor_diamondtriangles.svg	24	yes	57	0	317	0	0			0	0			1				0	
6.6.1	win	2023-06-23	15:12:38	15:23:38	656071	5d4c394a090b51001a1775fe	4	1	main_slash	11	main_slash	41	stimuli_distractor_trianglediamonds.svg	stimuli_distractor_diamondtriangles.svg	36	no	0	1	2014	0	0			0	0			1				0	
6.6.1	win	2023-06-23	15:12:38	15:23:38	656071	5d4c394a090b51001a1775fe	4	1	main_slash	11	advance_on_keypress_SLASH	42	stimuli_distractor_trianglediamonds.svg	stimuli_distractor_diamondtriangles.svg	36	no	57	0	338	0	0			0	0			1				0	
6.6.1	win	2023-06-23	15:12:38	15:23:39	657604	5d4c394a090b51001a1775fe	4	1	main_slash	11	main_slash	43	stimuli_target_squaretriangles.svg	stimuli_distractor_trianglediamonds.svg	3	yes	53	1	543	0	0			0	0			1				0	
6.6.1	win	2023-06-23	15:12:38	15:23:39	657604	5d4c394a090b51001a1775fe	4	1	main_slash	11	advance_on_keypress_SLASH	44	stimuli_target_squaretriangles.svg	stimuli_distractor_trianglediamonds.svg	3	yes	57	0	251	0	0			0	0			1				0	
6.6.1	win	2023-06-23	15:12:38	15:23:41	659011	5d4c394a090b51001a1775fe	4	1	main_slash	11	main_slash	45	stimuli_distractor_diamondtriangles.svg	stimuli_target_rectangletriangles.svg	13	yes	53	1	500	0	0			0	0			1				0	
6.6.1	win	2023-06-23	15:12:38	15:23:41	659011	5d4c394a090b51001a1775fe	4	1	main_slash	11	advance_on_keypress_SLASH	46	stimuli_distractor_diamondtriangles.svg	stimuli_target_rectangletriangles.svg	13	yes	57	0	242	0	0			0	0			1				0	
6.6.1	win	2023-06-23	15:12:38	15:23:42	660460	5d4c394a090b51001a1775fe	4	1	main_slash	11	main_slash	47	stimuli_target_rectanglediamonds.svg	stimuli_distractor_trianglediamonds.svg	2	yes	53	1	563	0	0			0	0			1				0	
6.6.1	win	2023-06-23	15:12:38	15:23:42	660460	5d4c394a090b51001a1775fe	4	1	main_slash	11	advance_on_keypress_SLASH	48	stimuli_target_rectanglediamonds.svg	stimuli_distractor_trianglediamonds.svg	2	yes	57	0	238	0	0			0	0			1				0	
6.6.1	win	2023-06-23	15:12:38	15:23:44	661955	5d4c394a090b51001a1775fe	4	1	main_slash	11	main_slash	49	stimuli_target_trianglerectangles.svg	stimuli_distractor_trianglediamonds.svg	17	yes	53	1	608	0	0			0	0			1				0	
6.6.1	win	2023-06-23	15:12:38	15:23:44	661955	5d4c394a090b51001a1775fe	4	1	main_slash	11	advance_on_keypress_SLASH	50	stimuli_target_trianglerectangles.svg	stimuli_distractor_trianglediamonds.svg	17	yes	57	0	226	0	0			0	0			1				0	
6.6.1	win	2023-06-23	15:12:38	15:23:45	663299	5d4c394a090b51001a1775fe	4	1	main_slash	11	main_slash	51	stimuli_target_trianglesquares.svg	stimuli_distractor_trianglediamonds.svg	18	yes	53	1	483	0	0			0	0			1				0	
6.6.1	win	2023-06-23	15:12:38	15:23:45	663299	5d4c394a090b51001a1775fe	4	1	main_slash	11	advance_on_keypress_SLASH	52	stimuli_target_trianglesquares.svg	stimuli_distractor_trianglediamonds.svg	18	yes	57	0	226	0	0			0	0			1				0	
6.6.1	win	2023-06-23	15:12:38	15:23:47	664699	5d4c394a090b51001a1775fe	4	1	main_slash	11	main_slash	53	stimuli_distractor_trianglediamonds.svg	stimuli_target_diamondrectangles.svg	27	yes	53	1	532	0	0			0	0			1				0	
6.6.1	win	2023-06-23	15:12:38	15:23:47	664699	5d4c394a090b51001a1775fe	4	1	main_slash	11	advance_on_keypress_SLASH	54	stimuli_distractor_trianglediamonds.svg	stimuli_target_diamondrectangles.svg	27	yes	57	0	201	0	0			0	0			1				0	
6.6.1	win	2023-06-23	15:12:38	15:23:49	667566	5d4c394a090b51001a1775fe	4	1	main_slash	11	main_slash	55	stimuli_distractor_trianglediamonds.svg	stimuli_distractor_diamondtriangles.svg	35	no	0	1	2014	0	0			0	0			1				0	
6.6.1	win	2023-06-23	15:12:38	15:23:49	667566	5d4c394a090b51001a1775fe	4	1	main_slash	11	advance_on_keypress_SLASH	56	stimuli_distractor_trianglediamonds.svg	stimuli_distractor_diamondtriangles.svg	35	no	57	0	347	0	0			0	0			1				0	
6.6.1	win	2023-06-23	15:12:38	15:23:51	668996	5d4c394a090b51001a1775fe	4	1	main_slash	11	main_slash	57	stimuli_target_squarediamonds.svg	stimuli_distractor_trianglediamonds.svg	4	yes	53	1	424	0	0			0	0			1				0	
6.6.1	win	2023-06-23	15:12:38	15:23:51	668996	5d4c394a090b51001a1775fe	4	1	main_slash	11	advance_on_keypress_SLASH	58	stimuli_target_squarediamonds.svg	stimuli_distractor_trianglediamonds.svg	4	yes	57	0	193	0	0			0	0			1				0	
6.6.1	win	2023-06-23	15:12:38	15:23:52	670227	5d4c394a090b51001a1775fe	4	1	main_slash	11	main_slash	59	stimuli_distractor_trianglediamonds.svg	stimuli_target_rectangletriangles.svg	9	yes	53	1	404	0	0			0	0			1				0	
6.6.1	win	2023-06-23	15:12:38	15:23:52	670227	5d4c394a090b51001a1775fe	4	1	main_slash	11	advance_on_keypress_SLASH	60	stimuli_distractor_trianglediamonds.svg	stimuli_target_rectangletriangles.svg	9	yes	57	0	175	0	0			0	0			1				0	
6.6.1	win	2023-06-23	15:12:38	15:23:53	671475	5d4c394a090b51001a1775fe	4	1	main_slash	11	main_slash	61	stimuli_distractor_trianglediamonds.svg	stimuli_target_rectanglediamonds.svg	10	yes	53	1	435	0	0			0	0			1				0	
6.6.1	win	2023-06-23	15:12:38	15:23:53	671475	5d4c394a090b51001a1775fe	4	1	main_slash	11	advance_on_keypress_SLASH	62	stimuli_distractor_trianglediamonds.svg	stimuli_target_rectanglediamonds.svg	10	yes	57	0	180	0	0			0	0			1				0	
6.6.1	win	2023-06-23	15:12:38	15:23:56	674323	5d4c394a090b51001a1775fe	4	1	main_slash	11	main_slash	63	stimuli_distractor_trianglediamonds.svg	stimuli_distractor_trianglediamonds.svg	34	no	0	1	2014	0	0			0	0			1				0	
6.6.1	win	2023-06-23	15:12:38	15:23:56	674323	5d4c394a090b51001a1775fe	4	1	main_slash	11	advance_on_keypress_SLASH	64	stimuli_distractor_trianglediamonds.svg	stimuli_distractor_trianglediamonds.svg	34	no	57	0	359	0	0			0	0			1				0	
6.6.1	win	2023-06-23	15:12:38	15:23:58	676091	5d4c394a090b51001a1775fe	4	1	main_slash	11	main_slash	65	stimuli_distractor_diamondtriangles.svg	stimuli_target_trianglerectangles.svg	29	yes	53	1	746	0	0			0	0			1				0	
6.6.1	win	2023-06-23	15:12:38	15:23:58	676091	5d4c394a090b51001a1775fe	4	1	main_slash	11	advance_on_keypress_SLASH	66	stimuli_distractor_diamondtriangles.svg	stimuli_target_trianglerectangles.svg	29	yes	57	0	294	0	0			0	0			1				0	
6.6.1	win	2023-06-23	15:12:38	15:24:00	677684	5d4c394a090b51001a1775fe	4	1	main_slash	11	main_slash	67	stimuli_target_diamondrectangles.svg	stimuli_distractor_trianglediamonds.svg	19	yes	53	1	637	0	0			0	0			1				0	
6.6.1	win	2023-06-23	15:12:38	15:24:00	677684	5d4c394a090b51001a1775fe	4	1	main_slash	11	advance_on_keypress_SLASH	68	stimuli_target_diamondrectangles.svg	stimuli_distractor_trianglediamonds.svg	19	yes	57	0	637	0	0			0	0			1				0	
6.6.1	win	2023-06-23	15:12:38	15:24:01	679555	5d4c394a090b51001a1775fe	4	1	main_slash	11	main_slash	69	stimuli_distractor_trianglediamonds.svg	stimuli_target_squarediamonds.svg	12	yes	53	1	590	0	0			0	0			1				0	
6.6.1	win	2023-06-23	15:12:38	15:24:01	679555	5d4c394a090b51001a1775fe	4	1	main_slash	11	advance_on_keypress_SLASH	70	stimuli_distractor_trianglediamonds.svg	stimuli_target_squarediamonds.svg	12	yes	57	0	225	0	0			0	0			1				0	
6.6.1	win	2023-06-23	15:12:38	15:24:03	680971	5d4c394a090b51001a1775fe	4	1	main_slash	11	main_slash	71	stimuli_target_rectanglediamonds.svg	stimuli_distractor_diamondtriangles.svg	6	yes	53	1	555	0	0			0	0			1				0	
6.6.1	win	2023-06-23	15:12:38	15:24:03	680971	5d4c394a090b51001a1775fe	4	1	main_slash	11	advance_on_keypress_SLASH	72	stimuli_target_rectanglediamonds.svg	stimuli_distractor_diamondtriangles.svg	6	yes	57	0	223	0	0			0	0			1				0	
6.6.1	win	2023-06-23	15:12:38	15:24:04	682339	5d4c394a090b51001a1775fe	4	1	main_slash	11	main_slash	73	stimuli_distractor_diamondtriangles.svg	stimuli_target_squaretriangles.svg	15	yes	53	1	504	0	0			0	0			1				0	
6.6.1	win	2023-06-23	15:12:38	15:24:04	682339	5d4c394a090b51001a1775fe	4	1	main_slash	11	advance_on_keypress_SLASH	74	stimuli_distractor_diamondtriangles.svg	stimuli_target_squaretriangles.svg	15	yes	57	0	199	0	0			0	0			1				0	
6.6.1	win	2023-06-23	15:12:38	15:24:07	685200	5d4c394a090b51001a1775fe	4	1	main_slash	11	main_slash	75	stimuli_distractor_diamondtriangles.svg	stimuli_distractor_diamondtriangles.svg	39	no	0	1	2014	0	0			0	0			1				0	
6.6.1	win	2023-06-23	15:12:38	15:24:07	685200	5d4c394a090b51001a1775fe	4	1	main_slash	11	advance_on_keypress_SLASH	76	stimuli_distractor_diamondtriangles.svg	stimuli_distractor_diamondtriangles.svg	39	no	57	0	353	0	0			0	0			1				0	
6.6.1	win	2023-06-23	15:12:38	15:24:10	688220	5d4c394a090b51001a1775fe	4	1	main_slash	11	main_slash	77	stimuli_distractor_diamondtriangles.svg	stimuli_distractor_diamondtriangles.svg	40	no	0	1	2014	0	0			0	0			1				0	
6.6.1	win	2023-06-23	15:12:38	15:24:10	688220	5d4c394a090b51001a1775fe	4	1	main_slash	11	advance_on_keypress_SLASH	78	stimuli_distractor_diamondtriangles.svg	stimuli_distractor_diamondtriangles.svg	40	no	57	0	366	0	0			0	0			1				0	
6.6.1	win	2023-06-23	15:12:38	15:24:11	689619	5d4c394a090b51001a1775fe	4	1	main_slash	11	main_slash	79	stimuli_target_rectangletriangles.svg	stimuli_distractor_trianglediamonds.svg	1	yes	53	1	377	0	0			0	0			1				0	
6.6.1	win	2023-06-23	15:12:38	15:24:11	689619	5d4c394a090b51001a1775fe	4	1	main_slash	11	advance_on_keypress_SLASH	80	stimuli_target_rectangletriangles.svg	stimuli_distractor_trianglediamonds.svg	1	yes	57	0	292	0	0			0	0			1				0	
6.6.1	win	2023-06-23	15:12:38	15:24:13	690971	5d4c394a090b51001a1775fe	4	1	main_slash	11	main_slash	81	stimuli_distractor_diamondtriangles.svg	stimuli_target_squaretriangles.svg	15	yes	53	1	411	0	0			0	0			1				0	
6.6.1	win	2023-06-23	15:12:38	15:24:13	690971	5d4c394a090b51001a1775fe	4	1	main_slash	11	advance_on_keypress_SLASH	82	stimuli_distractor_diamondtriangles.svg	stimuli_target_squaretriangles.svg	15	yes	57	0	221	0	0			0	0			1				0	
6.6.1	win	2023-06-23	15:12:38	15:24:14	692411	5d4c394a090b51001a1775fe	4	1	main_slash	11	main_slash	83	stimuli_distractor_trianglediamonds.svg	stimuli_target_diamondsquares.svg	28	yes	53	1	567	0	0			0	0			1				0	
6.6.1	win	2023-06-23	15:12:38	15:24:14	692411	5d4c394a090b51001a1775fe	4	1	main_slash	11	advance_on_keypress_SLASH	84	stimuli_distractor_trianglediamonds.svg	stimuli_target_diamondsquares.svg	28	yes	57	0	234	0	0			0	0			1				0	
6.6.1	win	2023-06-23	15:12:38	15:24:16	693739	5d4c394a090b51001a1775fe	4	1	main_slash	11	main_slash	85	stimuli_target_squarediamonds.svg	stimuli_distractor_diamondtriangles.svg	8	yes	53	1	443	0	0			0	0			1				0	
6.6.1	win	2023-06-23	15:12:38	15:24:16	693739	5d4c394a090b51001a1775fe	4	1	main_slash	11	advance_on_keypress_SLASH	86	stimuli_target_squarediamonds.svg	stimuli_distractor_diamondtriangles.svg	8	yes	57	0	203	0	0			0	0			1				0	
6.6.1	win	2023-06-23	15:12:38	15:24:18	696611	5d4c394a090b51001a1775fe	4	1	main_slash	11	main_slash	87	stimuli_distractor_trianglediamonds.svg	stimuli_distractor_trianglediamonds.svg	34	no	0	1	2014	0	0			0	0			1				0	
6.6.1	win	2023-06-23	15:12:38	15:24:18	696611	5d4c394a090b51001a1775fe	4	1	main_slash	11	advance_on_keypress_SLASH	88	stimuli_distractor_trianglediamonds.svg	stimuli_distractor_trianglediamonds.svg	34	no	57	0	358	0	0			0	0			1				0	
6.6.1	win	2023-06-23	15:12:38	15:24:20	698084	5d4c394a090b51001a1775fe	4	1	main_slash	11	main_slash	89	stimuli_target_rectanglediamonds.svg	stimuli_distractor_trianglediamonds.svg	2	yes	53	1	466	0	0			0	0			1				0	
6.6.1	win	2023-06-23	15:12:38	15:24:20	698084	5d4c394a090b51001a1775fe	4	1	main_slash	11	advance_on_keypress_SLASH	90	stimuli_target_rectanglediamonds.svg	stimuli_distractor_trianglediamonds.svg	2	yes	57	0	226	0	0			0	0			1				0	
6.6.1	win	2023-06-23	15:12:38	15:24:21	699515	5d4c394a090b51001a1775fe	4	1	main_slash	11	main_slash	91	stimuli_target_diamondrectangles.svg	stimuli_distractor_trianglediamonds.svg	19	yes	53	1	563	0	0			0	0			1				0	
6.6.1	win	2023-06-23	15:12:38	15:24:21	699515	5d4c394a090b51001a1775fe	4	1	main_slash	11	advance_on_keypress_SLASH	92	stimuli_target_diamondrectangles.svg	stimuli_distractor_trianglediamonds.svg	19	yes	57	0	199	0	0			0	0			1				0	
6.6.1	win	2023-06-23	15:12:38	15:24:24	702384	5d4c394a090b51001a1775fe	4	1	main_slash	11	main_slash	93	stimuli_distractor_trianglediamonds.svg	stimuli_distractor_diamondtriangles.svg	35	no	0	1	2014	0	0			0	0			1				0	
6.6.1	win	2023-06-23	15:12:38	15:24:24	702384	5d4c394a090b51001a1775fe	4	1	main_slash	11	advance_on_keypress_SLASH	94	stimuli_distractor_trianglediamonds.svg	stimuli_distractor_diamondtriangles.svg	35	no	57	0	329	0	0			0	0			1				0	
6.6.1	win	2023-06-23	15:12:38	15:24:26	703859	5d4c394a090b51001a1775fe	4	1	main_slash	11	main_slash	95	stimuli_distractor_diamondtriangles.svg	stimuli_target_trianglesquares.svg	30	yes	53	1	486	0	0			0	0			1				0	
6.6.1	win	2023-06-23	15:12:38	15:24:26	703859	5d4c394a090b51001a1775fe	4	1	main_slash	11	advance_on_keypress_SLASH	96	stimuli_distractor_diamondtriangles.svg	stimuli_target_trianglesquares.svg	30	yes	57	0	229	0	0			0	0			1				0	
6.6.1	win	2023-06-23	15:12:38	15:24:27	705219	5d4c394a090b51001a1775fe	4	1	main_slash	11	main_slash	97	stimuli_target_squaretriangles.svg	stimuli_distractor_diamondtriangles.svg	7	yes	53	1	478	0	0			0	0			1				0	
6.6.1	win	2023-06-23	15:12:38	15:24:27	705219	5d4c394a090b51001a1775fe	4	1	main_slash	11	advance_on_keypress_SLASH	98	stimuli_target_squaretriangles.svg	stimuli_distractor_diamondtriangles.svg	7	yes	57	0	197	0	0			0	0			1				0	
6.6.1	win	2023-06-23	15:12:38	15:24:30	708089	5d4c394a090b51001a1775fe	4	1	main_slash	11	main_slash	99	stimuli_distractor_diamondtriangles.svg	stimuli_distractor_trianglediamonds.svg	37	no	0	1	2014	0	0			0	0			1				0	
6.6.1	win	2023-06-23	15:12:38	15:24:30	708089	5d4c394a090b51001a1775fe	4	1	main_slash	11	advance_on_keypress_SLASH	100	stimuli_distractor_diamondtriangles.svg	stimuli_distractor_trianglediamonds.svg	37	no	57	0	392	0	0			0	0			1				0	
6.6.1	win	2023-06-23	15:12:38	15:24:32	709691	5d4c394a090b51001a1775fe	4	1	main_slash	11	main_slash	101	stimuli_target_trianglerectangles.svg	stimuli_distractor_diamondtriangles.svg	21	yes	53	1	563	0	0			0	0			1				0	
6.6.1	win	2023-06-23	15:12:38	15:24:32	709691	5d4c394a090b51001a1775fe	4	1	main_slash	11	advance_on_keypress_SLASH	102	stimuli_target_trianglerectangles.svg	stimuli_distractor_diamondtriangles.svg	21	yes	57	0	214	0	0			0	0			1				0	
6.6.1	win	2023-06-23	15:12:38	15:24:33	710988	5d4c394a090b51001a1775fe	4	1	main_slash	11	main_slash	103	stimuli_distractor_diamondtriangles.svg	stimuli_target_rectangletriangles.svg	13	yes	53	1	424	0	0			0	0			1				0	
6.6.1	win	2023-06-23	15:12:38	15:24:33	710988	5d4c394a090b51001a1775fe	4	1	main_slash	11	advance_on_keypress_SLASH	104	stimuli_distractor_diamondtriangles.svg	stimuli_target_rectangletriangles.svg	13	yes	57	0	169	0	0			0	0			1				0	
6.6.1	win	2023-06-23	15:12:38	15:24:36	713829	5d4c394a090b51001a1775fe	4	1	main_slash	11	main_slash	105	stimuli_distractor_diamondtriangles.svg	stimuli_distractor_trianglediamonds.svg	38	no	0	1	2014	0	0			0	0			1				0	
6.6.1	win	2023-06-23	15:12:38	15:24:36	713829	5d4c394a090b51001a1775fe	4	1	main_slash	11	advance_on_keypress_SLASH	106	stimuli_distractor_diamondtriangles.svg	stimuli_distractor_trianglediamonds.svg	38	no	57	0	501	0	0			0	0			1				0	
6.6.1	win	2023-06-23	15:12:38	15:24:38	715715	5d4c394a090b51001a1775fe	4	1	main_slash	11	main_slash	107	stimuli_distractor_trianglediamonds.svg	stimuli_target_rectangletriangles.svg	9	yes	53	1	731	0	0			0	0			1				0	
6.6.1	win	2023-06-23	15:12:38	15:24:38	715715	5d4c394a090b51001a1775fe	4	1	main_slash	11	advance_on_keypress_SLASH	108	stimuli_distractor_trianglediamonds.svg	stimuli_target_rectangletriangles.svg	9	yes	57	0	207	0	0			0	0			1				0	
6.6.1	win	2023-06-23	15:12:38	15:24:40	718583	5d4c394a090b51001a1775fe	4	1	main_slash	11	main_slash	109	stimuli_distractor_diamondtriangles.svg	stimuli_distractor_diamondtriangles.svg	40	no	0	1	2014	0	0			0	0			1				0	
6.6.1	win	2023-06-23	15:12:38	15:24:40	718583	5d4c394a090b51001a1775fe	4	1	main_slash	11	advance_on_keypress_SLASH	110	stimuli_distractor_diamondtriangles.svg	stimuli_distractor_diamondtriangles.svg	40	no	57	0	346	0	0			0	0			1				0	
6.6.1	win	2023-06-23	15:12:38	15:24:42	720148	5d4c394a090b51001a1775fe	4	1	main_slash	11	main_slash	111	stimuli_target_trianglerectangles.svg	stimuli_distractor_trianglediamonds.svg	17	yes	53	1	558	0	0			0	0			1				0	
6.6.1	win	2023-06-23	15:12:38	15:24:42	720148	5d4c394a090b51001a1775fe	4	1	main_slash	11	advance_on_keypress_SLASH	112	stimuli_target_trianglerectangles.svg	stimuli_distractor_trianglediamonds.svg	17	yes	57	0	186	0	0			0	0			1				0	
6.6.1	win	2023-06-23	15:12:38	15:24:44	721883	5d4c394a090b51001a1775fe	4	1	main_slash	11	main_slash	113	stimuli_distractor_trianglediamonds.svg	stimuli_target_diamondrectangles.svg	27	yes	53	1	893	0	0			0	0			1				0	
6.6.1	win	2023-06-23	15:12:38	15:24:44	721883	5d4c394a090b51001a1775fe	4	1	main_slash	11	advance_on_keypress_SLASH	114	stimuli_distractor_trianglediamonds.svg	stimuli_target_diamondrectangles.svg	27	yes	57	0	155	0	0			0	0			1				0	
6.6.1	win	2023-06-23	15:12:38	15:24:45	723379	5d4c394a090b51001a1775fe	4	1	main_slash	11	main_slash	115	stimuli_target_squarediamonds.svg	stimuli_distractor_trianglediamonds.svg	4	yes	53	1	687	0	0			0	0			1				0	
6.6.1	win	2023-06-23	15:12:38	15:24:45	723379	5d4c394a090b51001a1775fe	4	1	main_slash	11	advance_on_keypress_SLASH	116	stimuli_target_squarediamonds.svg	stimuli_distractor_trianglediamonds.svg	4	yes	57	0	182	0	0			0	0			1				0	
6.6.1	win	2023-06-23	15:12:38	15:24:47	724707	5d4c394a090b51001a1775fe	4	1	main_slash	11	main_slash	117	stimuli_distractor_trianglediamonds.svg	stimuli_target_rectanglediamonds.svg	10	yes	53	1	497	0	0			0	0			1				0	
6.6.1	win	2023-06-23	15:12:38	15:24:47	724707	5d4c394a090b51001a1775fe	4	1	main_slash	11	advance_on_keypress_SLASH	118	stimuli_distractor_trianglediamonds.svg	stimuli_target_rectanglediamonds.svg	10	yes	57	0	159	0	0			0	0			1				0	
6.6.1	win	2023-06-23	15:12:38	15:24:48	726067	5d4c394a090b51001a1775fe	4	1	main_slash	11	main_slash	119	stimuli_distractor_trianglediamonds.svg	stimuli_target_squarediamonds.svg	12	yes	53	1	555	0	0			0	0			1				0	
6.6.1	win	2023-06-23	15:12:38	15:24:48	726067	5d4c394a090b51001a1775fe	4	1	main_slash	11	advance_on_keypress_SLASH	120	stimuli_distractor_trianglediamonds.svg	stimuli_target_squarediamonds.svg	12	yes	57	0	176	0	0			0	0			1				0	
6.6.1	win	2023-06-23	15:12:38	15:24:49	727491	5d4c394a090b51001a1775fe	4	1	main_slash	11	main_slash	121	stimuli_distractor_trianglediamonds.svg	stimuli_target_trianglesquares.svg	26	yes	53	1	612	0	0			0	0			1				0	
6.6.1	win	2023-06-23	15:12:38	15:24:49	727491	5d4c394a090b51001a1775fe	4	1	main_slash	11	advance_on_keypress_SLASH	122	stimuli_distractor_trianglediamonds.svg	stimuli_target_trianglesquares.svg	26	yes	57	0	149	0	0			0	0			1				0	
6.6.1	win	2023-06-23	15:12:38	15:24:51	729171	5d4c394a090b51001a1775fe	4	1	main_slash	11	main_slash	123	stimuli_target_diamondsquares.svg	stimuli_distractor_trianglediamonds.svg	20	yes	53	1	874	0	0			0	0			1				0	
6.6.1	win	2023-06-23	15:12:38	15:24:51	729171	5d4c394a090b51001a1775fe	4	1	main_slash	11	advance_on_keypress_SLASH	124	stimuli_target_diamondsquares.svg	stimuli_distractor_trianglediamonds.svg	20	yes	57	0	193	0	0			0	0			1				0	
6.6.1	win	2023-06-23	15:12:38	15:24:52	730507	5d4c394a090b51001a1775fe	4	1	main_slash	11	main_slash	125	stimuli_target_diamondrectangles.svg	stimuli_distractor_diamondtriangles.svg	23	yes	53	1	508	0	0			0	0			1				0	
6.6.1	win	2023-06-23	15:12:38	15:24:52	730507	5d4c394a090b51001a1775fe	4	1	main_slash	11	advance_on_keypress_SLASH	126	stimuli_target_diamondrectangles.svg	stimuli_distractor_diamondtriangles.svg	23	yes	57	0	194	0	0			0	0			1				0	
6.6.1	win	2023-06-23	15:12:38	15:24:55	733348	5d4c394a090b51001a1775fe	4	1	main_slash	11	main_slash	127	stimuli_distractor_trianglediamonds.svg	stimuli_distractor_diamondtriangles.svg	36	no	0	1	2014	0	0			0	0			1				0	
6.6.1	win	2023-06-23	15:12:38	15:24:55	733348	5d4c394a090b51001a1775fe	4	1	main_slash	11	advance_on_keypress_SLASH	128	stimuli_distractor_trianglediamonds.svg	stimuli_distractor_diamondtriangles.svg	36	no	57	0	445	0	0			0	0			1				0	
6.6.1	win	2023-06-23	15:12:38	15:24:57	735084	5d4c394a090b51001a1775fe	4	1	main_slash	11	main_slash	129	stimuli_target_diamondsquares.svg	stimuli_distractor_diamondtriangles.svg	24	yes	53	1	646	0	0			0	0			1				0	
6.6.1	win	2023-06-23	15:12:38	15:24:57	735084	5d4c394a090b51001a1775fe	4	1	main_slash	11	advance_on_keypress_SLASH	130	stimuli_target_diamondsquares.svg	stimuli_distractor_diamondtriangles.svg	24	yes	57	0	182	0	0			0	0			1				0	
6.6.1	win	2023-06-23	15:12:38	15:24:58	736311	5d4c394a090b51001a1775fe	4	1	main_slash	11	main_slash	131	stimuli_distractor_trianglediamonds.svg	stimuli_target_squaretriangles.svg	11	yes	53	1	386	0	0			0	0			1				0	
6.6.1	win	2023-06-23	15:12:38	15:24:58	736311	5d4c394a090b51001a1775fe	4	1	main_slash	11	advance_on_keypress_SLASH	132	stimuli_distractor_trianglediamonds.svg	stimuli_target_squaretriangles.svg	11	yes	57	0	148	0	0			0	0			1				0	
6.6.1	win	2023-06-23	15:12:38	15:25:00	737955	5d4c394a090b51001a1775fe	4	1	main_slash	11	main_slash	133	stimuli_distractor_diamondtriangles.svg	stimuli_target_trianglerectangles.svg	29	yes	53	1	849	0	0			0	0			1				0	
6.6.1	win	2023-06-23	15:12:38	15:25:00	737955	5d4c394a090b51001a1775fe	4	1	main_slash	11	advance_on_keypress_SLASH	134	stimuli_distractor_diamondtriangles.svg	stimuli_target_trianglerectangles.svg	29	yes	57	0	161	0	0			0	0			1				0	
6.6.1	win	2023-06-23	15:12:38	15:25:01	739315	5d4c394a090b51001a1775fe	4	1	main_slash	11	main_slash	135	stimuli_target_squaretriangles.svg	stimuli_distractor_trianglediamonds.svg	3	yes	53	1	557	0	0			0	0			1				0	
6.6.1	win	2023-06-23	15:12:38	15:25:01	739315	5d4c394a090b51001a1775fe	4	1	main_slash	11	advance_on_keypress_SLASH	136	stimuli_target_squaretriangles.svg	stimuli_distractor_trianglediamonds.svg	3	yes	57	0	161	0	0			0	0			1				0	
6.6.1	win	2023-06-23	15:12:38	15:25:02	740611	5d4c394a090b51001a1775fe	4	1	main_slash	11	main_slash	137	stimuli_distractor_diamondtriangles.svg	stimuli_target_diamondsquares.svg	32	yes	53	1	485	0	0			0	0			1				0	
6.6.1	win	2023-06-23	15:12:38	15:25:02	740611	5d4c394a090b51001a1775fe	4	1	main_slash	11	advance_on_keypress_SLASH	138	stimuli_distractor_diamondtriangles.svg	stimuli_target_diamondsquares.svg	32	yes	57	0	188	0	0			0	0			1				0	
6.6.1	win	2023-06-23	15:12:38	15:25:04	741891	5d4c394a090b51001a1775fe	4	1	main_slash	11	main_slash	139	stimuli_target_rectanglediamonds.svg	stimuli_distractor_diamondtriangles.svg	6	yes	53	1	447	0	0			0	0			1				0	
6.6.1	win	2023-06-23	15:12:38	15:25:04	741891	5d4c394a090b51001a1775fe	4	1	main_slash	11	advance_on_keypress_SLASH	140	stimuli_target_rectanglediamonds.svg	stimuli_distractor_diamondtriangles.svg	6	yes	57	0	151	0	0			0	0			1				0	
6.6.1	win	2023-06-23	15:12:38	15:25:05	743291	5d4c394a090b51001a1775fe	4	1	main_slash	11	main_slash	141	stimuli_target_trianglesquares.svg	stimuli_distractor_trianglediamonds.svg	18	yes	53	1	596	0	0			0	0			1				0	
6.6.1	win	2023-06-23	15:12:38	15:25:05	743291	5d4c394a090b51001a1775fe	4	1	main_slash	11	advance_on_keypress_SLASH	142	stimuli_target_trianglesquares.svg	stimuli_distractor_trianglediamonds.svg	18	yes	57	0	182	0	0			0	0			1				0	
6.6.1	win	2023-06-23	15:12:38	15:25:08	746144	5d4c394a090b51001a1775fe	4	1	main_slash	11	main_slash	143	stimuli_distractor_trianglediamonds.svg	stimuli_distractor_trianglediamonds.svg	33	no	0	1	2014	0	0			0	0			1				0	
6.6.1	win	2023-06-23	15:12:38	15:25:08	746144	5d4c394a090b51001a1775fe	4	1	main_slash	11	advance_on_keypress_SLASH	144	stimuli_distractor_trianglediamonds.svg	stimuli_distractor_trianglediamonds.svg	33	no	57	0	409	0	0			0	0			1				0	
6.6.1	win	2023-06-23	15:12:38	15:25:09	747515	5d4c394a090b51001a1775fe	4	1	main_slash	11	main_slash	145	stimuli_distractor_diamondtriangles.svg	stimuli_target_diamondrectangles.svg	31	yes	53	1	316	0	0			0	0			1				0	
6.6.1	win	2023-06-23	15:12:38	15:25:09	747515	5d4c394a090b51001a1775fe	4	1	main_slash	11	advance_on_keypress_SLASH	146	stimuli_distractor_diamondtriangles.svg	stimuli_target_diamondrectangles.svg	31	yes	57	0	241	0	0			0	0			1				0	
6.6.1	win	2023-06-23	15:12:38	15:25:11	748835	5d4c394a090b51001a1775fe	4	1	main_slash	11	main_slash	147	stimuli_distractor_diamondtriangles.svg	stimuli_target_squarediamonds.svg	16	yes	53	1	434	0	0			0	0			1				0	
6.6.1	win	2023-06-23	15:12:38	15:25:11	748835	5d4c394a090b51001a1775fe	4	1	main_slash	11	advance_on_keypress_SLASH	148	stimuli_distractor_diamondtriangles.svg	stimuli_target_squarediamonds.svg	16	yes	57	0	131	0	0			0	0			1				0	
6.6.1	win	2023-06-23	15:12:38	15:25:12	750019	5d4c394a090b51001a1775fe	4	1	main_slash	11	main_slash	149	stimuli_target_rectangletriangles.svg	stimuli_distractor_trianglediamonds.svg	1	yes	53	1	400	0	0			0	0			1				0	
6.6.1	win	2023-06-23	15:12:38	15:25:12	750019	5d4c394a090b51001a1775fe	4	1	main_slash	11	advance_on_keypress_SLASH	150	stimuli_target_rectangletriangles.svg	stimuli_distractor_trianglediamonds.svg	1	yes	57	0	147	0	0			0	0			1				0	
6.6.1	win	2023-06-23	15:12:38	15:25:13	751235	5d4c394a090b51001a1775fe	4	1	main_slash	11	main_slash	151	stimuli_target_trianglesquares.svg	stimuli_distractor_diamondtriangles.svg	22	yes	53	1	415	0	0			0	0			1				0	
6.6.1	win	2023-06-23	15:12:38	15:25:13	751235	5d4c394a090b51001a1775fe	4	1	main_slash	11	advance_on_keypress_SLASH	152	stimuli_target_trianglesquares.svg	stimuli_distractor_diamondtriangles.svg	22	yes	57	0	169	0	0			0	0			1				0	
6.6.1	win	2023-06-23	15:12:38	15:25:14	752499	5d4c394a090b51001a1775fe	4	1	main_slash	11	main_slash	153	stimuli_target_rectangletriangles.svg	stimuli_distractor_diamondtriangles.svg	5	yes	53	1	445	0	0			0	0			1				0	
6.6.1	win	2023-06-23	15:12:38	15:25:14	752499	5d4c394a090b51001a1775fe	4	1	main_slash	11	advance_on_keypress_SLASH	154	stimuli_target_rectangletriangles.svg	stimuli_distractor_diamondtriangles.svg	5	yes	57	0	165	0	0			0	0			1				0	
6.6.1	win	2023-06-23	15:12:38	15:25:16	753827	5d4c394a090b51001a1775fe	4	1	main_slash	11	main_slash	155	stimuli_distractor_trianglediamonds.svg	stimuli_target_trianglerectangles.svg	25	yes	53	1	505	0	0			0	0			1				0	
6.6.1	win	2023-06-23	15:12:38	15:25:16	753827	5d4c394a090b51001a1775fe	4	1	main_slash	11	advance_on_keypress_SLASH	156	stimuli_distractor_trianglediamonds.svg	stimuli_target_trianglerectangles.svg	25	yes	57	0	135	0	0			0	0			1				0	
6.6.1	win	2023-06-23	15:12:38	15:25:18	756621	5d4c394a090b51001a1775fe	4	1	main_slash	11	main_slash	157	stimuli_distractor_diamondtriangles.svg	stimuli_distractor_diamondtriangles.svg	39	no	0	1	2014	0	0			0	0			1				0	
6.6.1	win	2023-06-23	15:12:38	15:25:18	756621	5d4c394a090b51001a1775fe	4	1	main_slash	11	advance_on_keypress_SLASH	158	stimuli_distractor_diamondtriangles.svg	stimuli_distractor_diamondtriangles.svg	39	no	57	0	356	0	0			0	0			1				0	
6.6.1	win	2023-06-23	15:12:38	15:25:20	758059	5d4c394a090b51001a1775fe	4	1	main_slash	11	main_slash	159	stimuli_distractor_diamondtriangles.svg	stimuli_target_rectanglediamonds.svg	14	yes	53	1	432	0	0			0	0			1				0	
6.6.1	win	2023-06-23	15:12:38	15:25:20	758059	5d4c394a090b51001a1775fe	4	1	main_slash	11	advance_on_keypress_SLASH	160	stimuli_distractor_diamondtriangles.svg	stimuli_target_rectanglediamonds.svg	14	yes	57	0	369	0	0			0	0			1				0	
6.6.1	win	2023-06-23	15:12:38	15:25:20	758059	5d4c394a090b51001a1775fe	4	1	headphonecheck_calibration	14	headphonecheck_calibrationIntro	1	stimuli_distractor_diamondtriangles.svg	stimuli_target_rectanglediamonds.svg	14	yes	calibrationButton	0	4282	0	0			0	0			1				0	
6.6.1	win	2023-06-23	15:12:38	15:25:20	758059	5d4c394a090b51001a1775fe	4	1	headphonecheck_testphase	15	test_collectResponse	3	stimuli_distractor_diamondtriangles.svg	stimuli_target_rectanglediamonds.svg	14	yes	first	1	19151	1	3	antiphase_hc_soi.wav	1	0	0			1				0	
6.6.1	win	2023-06-23	15:12:38	15:25:20	758059	5d4c394a090b51001a1775fe	4	1	headphonecheck_testphase	15	test_collectResponse	6	stimuli_distractor_diamondtriangles.svg	stimuli_target_rectanglediamonds.svg	14	yes	second	1	922	2	1	antiphase_hc_iso.wav	2	0	0			1				0	
6.6.1	win	2023-06-23	15:12:38	15:25:20	758059	5d4c394a090b51001a1775fe	4	1	headphonecheck_testphase	15	test_collectResponse	9	stimuli_distractor_diamondtriangles.svg	stimuli_target_rectanglediamonds.svg	14	yes	third	1	805	3	2	antiphase_hc_ios.wav	3	0	0			1				0	
6.6.1	win	2023-06-23	15:12:38	15:25:20	758059	5d4c394a090b51001a1775fe	4	1	headphonecheck_testphase	15	test_collectResponse	12	stimuli_distractor_diamondtriangles.svg	stimuli_target_rectanglediamonds.svg	14	yes	second	1	604	4	5	antiphase_hc_osi.wav	2	0	0			1				0	
6.6.1	win	2023-06-23	15:12:38	15:25:20	758059	5d4c394a090b51001a1775fe	4	1	headphonecheck_testphase	15	test_collectResponse	15	stimuli_distractor_diamondtriangles.svg	stimuli_target_rectanglediamonds.svg	14	yes	third	1	522	5	6	antiphase_hc_ois.wav	3	0	0			1				0	
6.6.1	win	2023-06-23	15:12:38	15:25:20	758059	5d4c394a090b51001a1775fe	4	1	headphonecheck_testphase	15	test_collectResponse	18	stimuli_distractor_diamondtriangles.svg	stimuli_target_rectanglediamonds.svg	14	yes	first	1	455	6	4	antiphase_hc_sio.wav	1	0	0			1				0	
6.6.1	win	2023-06-23	15:12:38	15:25:20	758059	5d4c394a090b51001a1775fe	4	1	stereocheck_calibration	17	stereocheck_calibrationIntro	1	stimuli_distractor_diamondtriangles.svg	stimuli_target_rectanglediamonds.svg	14	yes	stereocheck_calibrationButton	0	7365	6	4	antiphase_hc_sio.wav	1	0	0			1				0	
6.6.1	win	2023-06-23	15:12:38	15:25:20	758059	5d4c394a090b51001a1775fe	4	1	stereocheck_testphase	18	stereocheck_test_collectResponse	3	stimuli_distractor_diamondtriangles.svg	stimuli_target_rectanglediamonds.svg	14	yes	stereocheck_right	1	777	6	4	antiphase_hc_sio.wav	1	1	6	noise_calib_stim_RIGHT.wav	2	1				0	
6.6.1	win	2023-06-23	15:12:38	15:25:20	758059	5d4c394a090b51001a1775fe	4	1	stereocheck_testphase	18	stereocheck_test_collectResponse	6	stimuli_distractor_diamondtriangles.svg	stimuli_target_rectanglediamonds.svg	14	yes	stereocheck_left	1	513	6	4	antiphase_hc_sio.wav	1	2	3	noise_calib_stim_LEFT.wav	1	1				0	
6.6.1	win	2023-06-23	15:12:38	15:25:20	758059	5d4c394a090b51001a1775fe	4	1	stereocheck_testphase	18	stereocheck_test_collectResponse	9	stimuli_distractor_diamondtriangles.svg	stimuli_target_rectanglediamonds.svg	14	yes	stereocheck_right	1	476	6	4	antiphase_hc_sio.wav	1	3	5	noise_calib_stim_RIGHT.wav	2	1				0	
6.6.1	win	2023-06-23	15:12:38	15:25:20	758059	5d4c394a090b51001a1775fe	4	1	stereocheck_testphase	18	stereocheck_test_collectResponse	12	stimuli_distractor_diamondtriangles.svg	stimuli_target_rectanglediamonds.svg	14	yes	stereocheck_left	1	424	6	4	antiphase_hc_sio.wav	1	4	2	noise_calib_stim_LEFT.wav	1	1				0	
6.6.1	win	2023-06-23	15:12:38	15:25:20	758059	5d4c394a090b51001a1775fe	4	1	stereocheck_testphase	18	stereocheck_test_collectResponse	15	stimuli_distractor_diamondtriangles.svg	stimuli_target_rectanglediamonds.svg	14	yes	stereocheck_right	1	469	6	4	antiphase_hc_sio.wav	1	5	4	noise_calib_stim_RIGHT.wav	2	1				0	
6.6.1	win	2023-06-23	15:12:38	15:25:20	758059	5d4c394a090b51001a1775fe	4	1	stereocheck_testphase	18	stereocheck_test_collectResponse	18	stimuli_distractor_diamondtriangles.svg	stimuli_target_rectanglediamonds.svg	14	yes	stereocheck_left	1	469	6	4	antiphase_hc_sio.wav	1	6	1	noise_calib_stim_LEFT.wav	1	1				0	
6.6.1	win	2023-06-23	15:12:38	15:25:20	758059	5d4c394a090b51001a1775fe	4	1	DL_practice	21	DL_practice	2	stimuli_distractor_diamondtriangles.svg	stimuli_target_rectanglediamonds.svg	14	yes	ka	1	1479	6	4	antiphase_hc_sio.wav	1	6	1	noise_calib_stim_LEFT.wav	1	22	blb_dichoticlistening_ka-ka.mp3	ka	ka	0	left
6.6.1	win	2023-06-23	15:12:38	15:25:20	758059	5d4c394a090b51001a1775fe	4	1	DL_practice	21	DL_practice	3	stimuli_distractor_diamondtriangles.svg	stimuli_target_rectanglediamonds.svg	14	yes	ba	1	1506	6	4	antiphase_hc_sio.wav	1	6	1	noise_calib_stim_LEFT.wav	1	7	blb_dichoticlistening_da-ba.mp3	da	ba	1	right
6.6.1	win	2023-06-23	15:12:38	15:25:20	758059	5d4c394a090b51001a1775fe	4	1	DL_practice	21	DL_practice	4	stimuli_distractor_diamondtriangles.svg	stimuli_target_rectanglediamonds.svg	14	yes	ka	0	1689	6	4	antiphase_hc_sio.wav	1	6	1	noise_calib_stim_LEFT.wav	1	18	blb_dichoticlistening_ga-ta.mp3	ga	ta	1	other
6.6.1	win	2023-06-23	15:12:38	15:25:20	758059	5d4c394a090b51001a1775fe	4	1	DL_practice	21	DL_practice	5	stimuli_distractor_diamondtriangles.svg	stimuli_target_rectanglediamonds.svg	14	yes	pa	1	1673	6	4	antiphase_hc_sio.wav	1	6	1	noise_calib_stim_LEFT.wav	1	23	blb_dichoticlistening_ka-pa.mp3	ka	pa	1	right
6.6.1	win	2023-06-23	15:12:38	15:25:20	758059	5d4c394a090b51001a1775fe	4	1	DL_practice	21	DL_practice	6	stimuli_distractor_diamondtriangles.svg	stimuli_target_rectanglediamonds.svg	14	yes	ga	1	1172	6	4	antiphase_hc_sio.wav	1	6	1	noise_calib_stim_LEFT.wav	1	15	blb_dichoticlistening_ga-ga.mp3	ga	ga	0	left
6.6.1	win	2023-06-23	15:12:38	15:25:20	758059	5d4c394a090b51001a1775fe	4	1	DL_practice	21	DL_practice	7	stimuli_distractor_diamondtriangles.svg	stimuli_target_rectanglediamonds.svg	14	yes	ta	1	1311	6	4	antiphase_hc_sio.wav	1	6	1	noise_calib_stim_LEFT.wav	1	36	blb_dichoticlistening_ta-ta.mp3	ta	ta	0	left
6.6.1	win	2023-06-23	15:12:38	15:25:20	758059	5d4c394a090b51001a1775fe	4	1	DL_practice	21	DL_practice	8	stimuli_distractor_diamondtriangles.svg	stimuli_target_rectanglediamonds.svg	14	yes	da	1	965	6	4	antiphase_hc_sio.wav	1	6	1	noise_calib_stim_LEFT.wav	1	8	blb_dichoticlistening_da-da.mp3	da	da	0	left
6.6.1	win	2023-06-23	15:12:38	15:25:20	758059	5d4c394a090b51001a1775fe	4	1	DL_practice	21	DL_practice	9	stimuli_distractor_diamondtriangles.svg	stimuli_target_rectanglediamonds.svg	14	yes	pa	1	1243	6	4	antiphase_hc_sio.wav	1	6	1	noise_calib_stim_LEFT.wav	1	29	blb_dichoticlistening_pa-pa.mp3	pa	pa	0	left
6.6.1	win	2023-06-23	15:12:38	15:25:20	758059	5d4c394a090b51001a1775fe	4	1	DL_practice	21	DL_practice	10	stimuli_distractor_diamondtriangles.svg	stimuli_target_rectanglediamonds.svg	14	yes	ba	1	1544	6	4	antiphase_hc_sio.wav	1	6	1	noise_calib_stim_LEFT.wav	1	1	blb_dichoticlistening_ba-ba.mp3	ba	ba	0	left
6.6.1	win	2023-06-23	15:12:38	15:25:20	758059	5d4c394a090b51001a1775fe	4	1	DL_test	23	DL_test	1	stimuli_distractor_diamondtriangles.svg	stimuli_target_rectanglediamonds.svg	14	yes	da	1	2094	6	4	antiphase_hc_sio.wav	1	6	1	noise_calib_stim_LEFT.wav	1	12	blb_dichoticlistening_da-ta.mp3	da	ta	1	left
6.6.1	win	2023-06-23	15:12:38	15:25:20	758059	5d4c394a090b51001a1775fe	4	1	DL_test	23	DL_test	2	stimuli_distractor_diamondtriangles.svg	stimuli_target_rectanglediamonds.svg	14	yes	ba	1	1544	6	4	antiphase_hc_sio.wav	1	6	1	noise_calib_stim_LEFT.wav	1	13	blb_dichoticlistening_ga-ba.mp3	ga	ba	1	right
6.6.1	win	2023-06-23	15:12:38	15:25:20	758059	5d4c394a090b51001a1775fe	4	1	DL_test	23	DL_test	3	stimuli_distractor_diamondtriangles.svg	stimuli_target_rectanglediamonds.svg	14	yes	ka	0	1229	6	4	antiphase_hc_sio.wav	1	6	1	noise_calib_stim_LEFT.wav	1	6	blb_dichoticlistening_ba-ta.mp3	ba	ta	1	other
6.6.1	win	2023-06-23	15:12:38	15:25:20	758059	5d4c394a090b51001a1775fe	4	1	DL_test	23	DL_test	4	stimuli_distractor_diamondtriangles.svg	stimuli_target_rectanglediamonds.svg	14	yes	ba	1	1507	6	4	antiphase_hc_sio.wav	1	6	1	noise_calib_stim_LEFT.wav	1	7	blb_dichoticlistening_da-ba.mp3	da	ba	1	right
6.6.1	win	2023-06-23	15:12:38	15:25:20	758059	5d4c394a090b51001a1775fe	4	1	DL_test	23	DL_test	5	stimuli_distractor_diamondtriangles.svg	stimuli_target_rectanglediamonds.svg	14	yes	pa	1	1669	6	4	antiphase_hc_sio.wav	1	6	1	noise_calib_stim_LEFT.wav	1	17	blb_dichoticlistening_ga-pa.mp3	ga	pa	1	right
6.6.1	win	2023-06-23	15:12:38	15:25:20	758059	5d4c394a090b51001a1775fe	4	1	DL_test	23	DL_test	6	stimuli_distractor_diamondtriangles.svg	stimuli_target_rectanglediamonds.svg	14	yes	ga	1	1300	6	4	antiphase_hc_sio.wav	1	6	1	noise_calib_stim_LEFT.wav	1	21	blb_dichoticlistening_ka-ga.mp3	ka	ga	1	right
6.6.1	win	2023-06-23	15:12:38	15:25:20	758059	5d4c394a090b51001a1775fe	4	1	DL_test	23	DL_test	7	stimuli_distractor_diamondtriangles.svg	stimuli_target_rectanglediamonds.svg	14	yes	ba	1	2335	6	4	antiphase_hc_sio.wav	1	6	1	noise_calib_stim_LEFT.wav	1	19	blb_dichoticlistening_ka-ba.mp3	ka	ba	1	right
6.6.1	win	2023-06-23	15:12:38	15:25:20	758059	5d4c394a090b51001a1775fe	4	1	DL_test	23	DL_test	8	stimuli_distractor_diamondtriangles.svg	stimuli_target_rectanglediamonds.svg	14	yes	ka	0	2069	6	4	antiphase_hc_sio.wav	1	6	1	noise_calib_stim_LEFT.wav	1	26	blb_dichoticlistening_pa-da.mp3	pa	da	1	other
6.6.1	win	2023-06-23	15:12:38	15:25:20	758059	5d4c394a090b51001a1775fe	4	1	DL_test	23	DL_test	9	stimuli_distractor_diamondtriangles.svg	stimuli_target_rectanglediamonds.svg	14	yes	pa	0	1387	6	4	antiphase_hc_sio.wav	1	6	1	noise_calib_stim_LEFT.wav	1	10	blb_dichoticlistening_da-ka.mp3	da	ka	1	other
6.6.1	win	2023-06-23	15:12:38	15:25:20	758059	5d4c394a090b51001a1775fe	4	1	DL_test	23	DL_test	10	stimuli_distractor_diamondtriangles.svg	stimuli_target_rectanglediamonds.svg	14	yes	ga	1	1364	6	4	antiphase_hc_sio.wav	1	6	1	noise_calib_stim_LEFT.wav	1	9	blb_dichoticlistening_da-ga.mp3	da	ga	1	right
6.6.1	win	2023-06-23	15:12:38	15:25:20	758059	5d4c394a090b51001a1775fe	4	1	DL_test	23	DL_test	11	stimuli_distractor_diamondtriangles.svg	stimuli_target_rectanglediamonds.svg	14	yes	pa	1	1674	6	4	antiphase_hc_sio.wav	1	6	1	noise_calib_stim_LEFT.wav	1	23	blb_dichoticlistening_ka-pa.mp3	ka	pa	1	right
6.6.1	win	2023-06-23	15:12:38	15:25:20	758059	5d4c394a090b51001a1775fe	4	1	DL_test	23	DL_test	12	stimuli_distractor_diamondtriangles.svg	stimuli_target_rectanglediamonds.svg	14	yes	pa	1	2538	6	4	antiphase_hc_sio.wav	1	6	1	noise_calib_stim_LEFT.wav	1	25	blb_dichoticlistening_pa-ba.mp3	pa	ba	1	left
6.6.1	win	2023-06-23	15:12:38	15:25:20	758059	5d4c394a090b51001a1775fe	4	1	DL_test	23	DL_test	13	stimuli_distractor_diamondtriangles.svg	stimuli_target_rectanglediamonds.svg	14	yes	ga	0	1586	6	4	antiphase_hc_sio.wav	1	6	1	noise_calib_stim_LEFT.wav	1	2	blb_dichoticlistening_ba-da.mp3	ba	da	1	other
6.6.1	win	2023-06-23	15:12:38	15:25:20	758059	5d4c394a090b51001a1775fe	4	1	DL_test	23	DL_test	14	stimuli_distractor_diamondtriangles.svg	stimuli_target_rectanglediamonds.svg	14	yes	pa	0	1919	6	4	antiphase_hc_sio.wav	1	6	1	noise_calib_stim_LEFT.wav	1	4	blb_dichoticlistening_ba-ka.mp3	ba	ka	1	other
6.6.1	win	2023-06-23	15:12:38	15:25:20	758059	5d4c394a090b51001a1775fe	4	1	DL_test	23	DL_test	15	stimuli_distractor_diamondtriangles.svg	stimuli_target_rectanglediamonds.svg	14	yes	pa	1	2424	6	4	antiphase_hc_sio.wav	1	6	1	noise_calib_stim_LEFT.wav	1	35	blb_dichoticlistening_ta-pa.mp3	ta	pa	1	right
6.6.1	win	2023-06-23	15:12:38	15:25:20	758059	5d4c394a090b51001a1775fe	4	1	DL_test	23	DL_test	16	stimuli_distractor_diamondtriangles.svg	stimuli_target_rectanglediamonds.svg	14	yes	ba	1	2073	6	4	antiphase_hc_sio.wav	1	6	1	noise_calib_stim_LEFT.wav	1	1	blb_dichoticlistening_ba-ba.mp3	ba	ba	0	left
6.6.1	win	2023-06-23	15:12:38	15:25:20	758059	5d4c394a090b51001a1775fe	4	1	DL_test	23	DL_test	17	stimuli_distractor_diamondtriangles.svg	stimuli_target_rectanglediamonds.svg	14	yes	pa	1	1531	6	4	antiphase_hc_sio.wav	1	6	1	noise_calib_stim_LEFT.wav	1	11	blb_dichoticlistening_da-pa.mp3	da	pa	1	right
6.6.1	win	2023-06-23	15:12:38	15:25:20	758059	5d4c394a090b51001a1775fe	4	1	DL_test	23	DL_test	18	stimuli_distractor_diamondtriangles.svg	stimuli_target_rectanglediamonds.svg	14	yes	pa	1	1659	6	4	antiphase_hc_sio.wav	1	6	1	noise_calib_stim_LEFT.wav	1	29	blb_dichoticlistening_pa-pa.mp3	pa	pa	0	left
6.6.1	win	2023-06-23	15:12:38	15:25:20	758059	5d4c394a090b51001a1775fe	4	1	DL_test	23	DL_test	19	stimuli_distractor_diamondtriangles.svg	stimuli_target_rectanglediamonds.svg	14	yes	ga	1	1495	6	4	antiphase_hc_sio.wav	1	6	1	noise_calib_stim_LEFT.wav	1	27	blb_dichoticlistening_pa-ga.mp3	pa	ga	1	right
6.6.1	win	2023-06-23	15:12:38	15:25:20	758059	5d4c394a090b51001a1775fe	4	1	DL_test	23	DL_test	20	stimuli_distractor_diamondtriangles.svg	stimuli_target_rectanglediamonds.svg	14	yes	ka	1	2008	6	4	antiphase_hc_sio.wav	1	6	1	noise_calib_stim_LEFT.wav	1	20	blb_dichoticlistening_ka-da.mp3	ka	da	1	left
6.6.1	win	2023-06-23	15:12:38	15:25:20	758059	5d4c394a090b51001a1775fe	4	1	DL_test	23	DL_test	21	stimuli_distractor_diamondtriangles.svg	stimuli_target_rectanglediamonds.svg	14	yes	ka	1	1463	6	4	antiphase_hc_sio.wav	1	6	1	noise_calib_stim_LEFT.wav	1	28	blb_dichoticlistening_pa-ka.mp3	pa	ka	1	right
6.6.1	win	2023-06-23	15:12:38	15:25:20	758059	5d4c394a090b51001a1775fe	4	1	DL_test	23	DL_test	22	stimuli_distractor_diamondtriangles.svg	stimuli_target_rectanglediamonds.svg	14	yes	ga	1	1373	6	4	antiphase_hc_sio.wav	1	6	1	noise_calib_stim_LEFT.wav	1	33	blb_dichoticlistening_ta-ga.mp3	ta	ga	1	right
6.6.1	win	2023-06-23	15:12:38	15:25:20	758059	5d4c394a090b51001a1775fe	4	1	DL_test	23	DL_test	23	stimuli_distractor_diamondtriangles.svg	stimuli_target_rectanglediamonds.svg	14	yes	ka	0	1407	6	4	antiphase_hc_sio.wav	1	6	1	noise_calib_stim_LEFT.wav	1	18	blb_dichoticlistening_ga-ta.mp3	ga	ta	1	other
6.6.1	win	2023-06-23	15:12:38	15:25:20	758059	5d4c394a090b51001a1775fe	4	1	DL_test	23	DL_test	24	stimuli_distractor_diamondtriangles.svg	stimuli_target_rectanglediamonds.svg	14	yes	ka	1	1847	6	4	antiphase_hc_sio.wav	1	6	1	noise_calib_stim_LEFT.wav	1	16	blb_dichoticlistening_ga-ka.mp3	ga	ka	1	right
6.6.1	win	2023-06-23	15:12:38	15:25:20	758059	5d4c394a090b51001a1775fe	4	1	DL_test	23	DL_test	25	stimuli_distractor_diamondtriangles.svg	stimuli_target_rectanglediamonds.svg	14	yes	ga	1	1547	6	4	antiphase_hc_sio.wav	1	6	1	noise_calib_stim_LEFT.wav	1	14	blb_dichoticlistening_ga-da.mp3	ga	da	1	left
6.6.1	win	2023-06-23	15:12:38	15:25:20	758059	5d4c394a090b51001a1775fe	4	1	DL_test	23	DL_test	26	stimuli_distractor_diamondtriangles.svg	stimuli_target_rectanglediamonds.svg	14	yes	ka	1	1123	6	4	antiphase_hc_sio.wav	1	6	1	noise_calib_stim_LEFT.wav	1	34	blb_dichoticlistening_ta-ka.mp3	ta	ka	1	right
