build	computer.platform	date	time	timestamp	time_elapsed_ms	subject	group	session	blockcode	blocknum	trialcode	trialnum	stimulus_left	stimulus_right	stim_index	target_present	response	correct	latency	headphonecheck_countTestTrials	headphonecheck_index	headphonecheck_testSound	headphonecheck_correctResponse	stereocheck_countTestTrials	stereocheck_index	stereocheck_testSound	stereocheck_correctResponse	DL_index	DL_soundfile	DL_leftSound	DL_rightSound	DL_dualSound	DL_choice
6.6.1	win	2023-06-28	08:16:31	08:20:25	230062	63e530e893c44a3aefe9b29c	3	1	practice_slash	5	practice_slash	1	stimuli_target_squarediamonds.svg	stimuli_distractor_trianglediamonds.svg	5	yes	53	1	1172	0	0			0	0			1				0	
6.6.1	win	2023-06-28	08:16:31	08:20:25	230062	63e530e893c44a3aefe9b29c	3	1	practice_slash	5	advance_on_keypress_SLASH	2	stimuli_target_squarediamonds.svg	stimuli_distractor_trianglediamonds.svg	5	yes	57	0	604	0	0			0	0			1				0	
6.6.1	win	2023-06-28	08:16:31	08:20:28	232902	63e530e893c44a3aefe9b29c	3	1	practice_slash	5	practice_slash	3	stimuli_distractor_trianglediamonds.svg	stimuli_target_rectanglediamonds.svg	10	yes	53	1	579	0	0			0	0			1				0	
6.6.1	win	2023-06-28	08:16:31	08:20:28	232902	63e530e893c44a3aefe9b29c	3	1	practice_slash	5	advance_on_keypress_SLASH	4	stimuli_distractor_trianglediamonds.svg	stimuli_target_rectanglediamonds.svg	10	yes	57	0	667	0	0			0	0			1				0	
6.6.1	win	2023-06-28	08:16:31	08:20:31	235678	63e530e893c44a3aefe9b29c	3	1	practice_slash	5	practice_slash	5	stimuli_distractor_diamondtriangles.svg	stimuli_target_rectangletriangles.svg	7	yes	53	1	455	0	0			0	0			1				0	
6.6.1	win	2023-06-28	08:16:31	08:20:31	235678	63e530e893c44a3aefe9b29c	3	1	practice_slash	5	advance_on_keypress_SLASH	6	stimuli_distractor_diamondtriangles.svg	stimuli_target_rectangletriangles.svg	7	yes	57	0	491	0	0			0	0			1				0	
6.6.1	win	2023-06-28	08:16:31	08:20:35	239824	63e530e893c44a3aefe9b29c	3	1	practice_slash	5	practice_slash	7	stimuli_distractor_trianglediamonds.svg	stimuli_target_diamondrectangles.svg	12	yes	0	0	2000	0	0			0	0			1				0	
6.6.1	win	2023-06-28	08:16:31	08:20:35	239824	63e530e893c44a3aefe9b29c	3	1	practice_slash	5	advance_on_keypress_SLASH	8	stimuli_distractor_trianglediamonds.svg	stimuli_target_diamondrectangles.svg	12	yes	57	0	598	0	0			0	0			1				0	
6.6.1	win	2023-06-28	08:16:31	08:20:38	242502	63e530e893c44a3aefe9b29c	3	1	practice_slash	5	practice_slash	9	stimuli_distractor_trianglediamonds.svg	stimuli_distractor_diamondtriangles.svg	16	no	53	0	429	0	0			0	0			1				0	
6.6.1	win	2023-06-28	08:16:31	08:20:38	242502	63e530e893c44a3aefe9b29c	3	1	practice_slash	5	advance_on_keypress_SLASH	10	stimuli_distractor_trianglediamonds.svg	stimuli_distractor_diamondtriangles.svg	16	no	57	0	827	0	0			0	0			1				0	
6.6.1	win	2023-06-28	08:16:31	08:20:41	245351	63e530e893c44a3aefe9b29c	3	1	practice_slash	5	practice_slash	11	stimuli_target_squarediamonds.svg	stimuli_distractor_diamondtriangles.svg	2	yes	53	1	376	0	0			0	0			1				0	
6.6.1	win	2023-06-28	08:16:31	08:20:41	245351	63e530e893c44a3aefe9b29c	3	1	practice_slash	5	advance_on_keypress_SLASH	12	stimuli_target_squarediamonds.svg	stimuli_distractor_diamondtriangles.svg	2	yes	57	0	680	0	0			0	0			1				0	
6.6.1	win	2023-06-28	08:16:31	08:20:44	248374	63e530e893c44a3aefe9b29c	3	1	practice_slash	5	practice_slash	13	stimuli_target_diamondsquares.svg	stimuli_distractor_trianglediamonds.svg	6	yes	53	1	684	0	0			0	0			1				0	
6.6.1	win	2023-06-28	08:16:31	08:20:44	248374	63e530e893c44a3aefe9b29c	3	1	practice_slash	5	advance_on_keypress_SLASH	14	stimuli_target_diamondsquares.svg	stimuli_distractor_trianglediamonds.svg	6	yes	57	0	616	0	0			0	0			1				0	
6.6.1	win	2023-06-28	08:16:31	08:20:47	251238	63e530e893c44a3aefe9b29c	3	1	practice_slash	5	practice_slash	15	stimuli_target_diamondsquares.svg	stimuli_distractor_diamondtriangles.svg	3	yes	53	1	598	0	0			0	0			1				0	
6.6.1	win	2023-06-28	08:16:31	08:20:47	251238	63e530e893c44a3aefe9b29c	3	1	practice_slash	5	advance_on_keypress_SLASH	16	stimuli_target_diamondsquares.svg	stimuli_distractor_diamondtriangles.svg	3	yes	57	0	797	0	0			0	0			1				0	
6.6.1	win	2023-06-28	08:16:31	08:20:51	255691	63e530e893c44a3aefe9b29c	3	1	practice_slash	5	practice_slash	17	stimuli_distractor_diamondtriangles.svg	stimuli_distractor_diamondtriangles.svg	13	no	0	1	2000	0	0			0	0			1				0	
6.6.1	win	2023-06-28	08:16:31	08:20:51	255691	63e530e893c44a3aefe9b29c	3	1	practice_slash	5	advance_on_keypress_SLASH	18	stimuli_distractor_diamondtriangles.svg	stimuli_distractor_diamondtriangles.svg	13	no	57	0	611	0	0			0	0			1				0	
6.6.1	win	2023-06-28	08:16:31	08:20:54	258326	63e530e893c44a3aefe9b29c	3	1	practice_slash	5	practice_slash	19	stimuli_distractor_trianglediamonds.svg	stimuli_target_squarediamonds.svg	11	yes	53	1	385	0	0			0	0			1				0	
6.6.1	win	2023-06-28	08:16:31	08:20:54	258326	63e530e893c44a3aefe9b29c	3	1	practice_slash	5	advance_on_keypress_SLASH	20	stimuli_distractor_trianglediamonds.svg	stimuli_target_squarediamonds.svg	11	yes	57	0	689	0	0			0	0			1				0	
6.6.1	win	2023-06-28	08:16:31	08:20:57	261118	63e530e893c44a3aefe9b29c	3	1	practice_slash	5	practice_slash	21	stimuli_distractor_trianglediamonds.svg	stimuli_distractor_trianglediamonds.svg	15	no	53	0	461	0	0			0	0			1				0	
6.6.1	win	2023-06-28	08:16:31	08:20:57	261118	63e530e893c44a3aefe9b29c	3	1	practice_slash	5	advance_on_keypress_SLASH	22	stimuli_distractor_trianglediamonds.svg	stimuli_distractor_trianglediamonds.svg	15	no	57	0	1265	0	0			0	0			1				0	
6.6.1	win	2023-06-28	08:16:31	08:21:00	264358	63e530e893c44a3aefe9b29c	3	1	practice_slash	5	practice_slash	23	stimuli_target_rectanglediamonds.svg	stimuli_distractor_trianglediamonds.svg	4	yes	53	1	317	0	0			0	0			1				0	
6.6.1	win	2023-06-28	08:16:31	08:21:00	264358	63e530e893c44a3aefe9b29c	3	1	practice_slash	5	advance_on_keypress_SLASH	24	stimuli_target_rectanglediamonds.svg	stimuli_distractor_trianglediamonds.svg	4	yes	57	0	712	0	0			0	0			1				0	
6.6.1	win	2023-06-28	08:16:31	08:21:04	268750	63e530e893c44a3aefe9b29c	3	1	practice_slash	5	practice_slash	25	stimuli_distractor_diamondtriangles.svg	stimuli_distractor_trianglediamonds.svg	14	no	0	1	2000	0	0			0	0			1				0	
6.6.1	win	2023-06-28	08:16:31	08:21:04	268750	63e530e893c44a3aefe9b29c	3	1	practice_slash	5	advance_on_keypress_SLASH	26	stimuli_distractor_diamondtriangles.svg	stimuli_distractor_trianglediamonds.svg	14	no	57	0	424	0	0			0	0			1				0	
6.6.1	win	2023-06-28	08:16:31	08:21:07	271350	63e530e893c44a3aefe9b29c	3	1	practice_slash	5	practice_slash	27	stimuli_distractor_diamondtriangles.svg	stimuli_target_diamondrectangles.svg	8	yes	53	1	525	0	0			0	0			1				0	
6.6.1	win	2023-06-28	08:16:31	08:21:07	271350	63e530e893c44a3aefe9b29c	3	1	practice_slash	5	advance_on_keypress_SLASH	28	stimuli_distractor_diamondtriangles.svg	stimuli_target_diamondrectangles.svg	8	yes	57	0	599	0	0			0	0			1				0	
6.6.1	win	2023-06-28	08:16:31	08:21:11	275606	63e530e893c44a3aefe9b29c	3	1	practice_slash	5	practice_slash	29	stimuli_distractor_diamondtriangles.svg	stimuli_target_trianglerectangles.svg	9	yes	0	0	2000	0	0			0	0			1				0	
6.6.1	win	2023-06-28	08:16:31	08:21:11	275606	63e530e893c44a3aefe9b29c	3	1	practice_slash	5	advance_on_keypress_SLASH	30	stimuli_distractor_diamondtriangles.svg	stimuli_target_trianglerectangles.svg	9	yes	57	0	461	0	0			0	0			1				0	
6.6.1	win	2023-06-28	08:16:31	08:21:13	278083	63e530e893c44a3aefe9b29c	3	1	practice_slash	5	practice_slash	31	stimuli_target_rectanglediamonds.svg	stimuli_distractor_diamondtriangles.svg	1	yes	53	1	378	0	0			0	0			1				0	
6.6.1	win	2023-06-28	08:16:31	08:21:13	278083	63e530e893c44a3aefe9b29c	3	1	practice_slash	5	advance_on_keypress_SLASH	32	stimuli_target_rectanglediamonds.svg	stimuli_distractor_diamondtriangles.svg	1	yes	57	0	642	0	0			0	0			1				0	
6.6.1	win	2023-06-28	08:16:31	08:21:22	286222	63e530e893c44a3aefe9b29c	3	1	main_slash	7	main_slash	1	stimuli_distractor_trianglediamonds.svg	stimuli_distractor_diamondtriangles.svg	36	no	0	1	2000	0	0			0	0			1				0	
6.6.1	win	2023-06-28	08:16:31	08:21:22	286222	63e530e893c44a3aefe9b29c	3	1	main_slash	7	advance_on_keypress_SLASH	2	stimuli_distractor_trianglediamonds.svg	stimuli_distractor_diamondtriangles.svg	36	no	57	0	644	0	0			0	0			1				0	
6.6.1	win	2023-06-28	08:16:31	08:21:23	287818	63e530e893c44a3aefe9b29c	3	1	main_slash	7	main_slash	3	stimuli_distractor_diamondtriangles.svg	stimuli_target_squarediamonds.svg	16	yes	53	1	313	0	0			0	0			1				0	
6.6.1	win	2023-06-28	08:16:31	08:21:23	287818	63e530e893c44a3aefe9b29c	3	1	main_slash	7	advance_on_keypress_SLASH	4	stimuli_distractor_diamondtriangles.svg	stimuli_target_squarediamonds.svg	16	yes	57	0	956	0	0			0	0			1				0	
6.6.1	win	2023-06-28	08:16:31	08:21:25	289995	63e530e893c44a3aefe9b29c	3	1	main_slash	7	main_slash	5	stimuli_target_diamondsquares.svg	stimuli_distractor_trianglediamonds.svg	20	yes	53	1	573	0	0			0	0			1				0	
6.6.1	win	2023-06-28	08:16:31	08:21:25	289995	63e530e893c44a3aefe9b29c	3	1	main_slash	7	advance_on_keypress_SLASH	6	stimuli_target_diamondsquares.svg	stimuli_distractor_trianglediamonds.svg	20	yes	57	0	893	0	0			0	0			1				0	
6.6.1	win	2023-06-28	08:16:31	08:21:28	292098	63e530e893c44a3aefe9b29c	3	1	main_slash	7	main_slash	7	stimuli_target_diamondrectangles.svg	stimuli_distractor_trianglediamonds.svg	19	yes	53	1	560	0	0			0	0			1				0	
6.6.1	win	2023-06-28	08:16:31	08:21:28	292098	63e530e893c44a3aefe9b29c	3	1	main_slash	7	advance_on_keypress_SLASH	8	stimuli_target_diamondrectangles.svg	stimuli_distractor_trianglediamonds.svg	19	yes	57	0	1137	0	0			0	0			1				0	
6.6.1	win	2023-06-28	08:16:31	08:21:30	294579	63e530e893c44a3aefe9b29c	3	1	main_slash	7	main_slash	9	stimuli_target_trianglesquares.svg	stimuli_distractor_diamondtriangles.svg	22	yes	53	1	690	0	0			0	0			1				0	
6.6.1	win	2023-06-28	08:16:31	08:21:30	294579	63e530e893c44a3aefe9b29c	3	1	main_slash	7	advance_on_keypress_SLASH	10	stimuli_target_trianglesquares.svg	stimuli_distractor_diamondtriangles.svg	22	yes	57	0	758	0	0			0	0			1				0	
6.6.1	win	2023-06-28	08:16:31	08:21:33	297974	63e530e893c44a3aefe9b29c	3	1	main_slash	7	main_slash	11	stimuli_distractor_trianglediamonds.svg	stimuli_distractor_trianglediamonds.svg	34	no	0	1	2000	0	0			0	0			1				0	
6.6.1	win	2023-06-28	08:16:31	08:21:33	297974	63e530e893c44a3aefe9b29c	3	1	main_slash	7	advance_on_keypress_SLASH	12	stimuli_distractor_trianglediamonds.svg	stimuli_distractor_trianglediamonds.svg	34	no	57	0	486	0	0			0	0			1				0	
6.6.1	win	2023-06-28	08:16:31	08:21:37	301107	63e530e893c44a3aefe9b29c	3	1	main_slash	7	main_slash	13	stimuli_distractor_diamondtriangles.svg	stimuli_distractor_trianglediamonds.svg	38	no	0	1	2000	0	0			0	0			1				0	
6.6.1	win	2023-06-28	08:16:31	08:21:37	301107	63e530e893c44a3aefe9b29c	3	1	main_slash	7	advance_on_keypress_SLASH	14	stimuli_distractor_diamondtriangles.svg	stimuli_distractor_trianglediamonds.svg	38	no	57	0	496	0	0			0	0			1				0	
6.6.1	win	2023-06-28	08:16:31	08:21:40	304241	63e530e893c44a3aefe9b29c	3	1	main_slash	7	main_slash	15	stimuli_distractor_diamondtriangles.svg	stimuli_distractor_diamondtriangles.svg	39	no	0	1	2000	0	0			0	0			1				0	
6.6.1	win	2023-06-28	08:16:31	08:21:40	304241	63e530e893c44a3aefe9b29c	3	1	main_slash	7	advance_on_keypress_SLASH	16	stimuli_distractor_diamondtriangles.svg	stimuli_distractor_diamondtriangles.svg	39	no	57	0	547	0	0			0	0			1				0	
6.6.1	win	2023-06-28	08:16:31	08:21:41	305892	63e530e893c44a3aefe9b29c	3	1	main_slash	7	main_slash	17	stimuli_target_trianglerectangles.svg	stimuli_distractor_diamondtriangles.svg	21	yes	53	1	468	0	0			0	0			1				0	
6.6.1	win	2023-06-28	08:16:31	08:21:41	305892	63e530e893c44a3aefe9b29c	3	1	main_slash	7	advance_on_keypress_SLASH	18	stimuli_target_trianglerectangles.svg	stimuli_distractor_diamondtriangles.svg	21	yes	57	0	777	0	0			0	0			1				0	
6.6.1	win	2023-06-28	08:16:31	08:21:43	307804	63e530e893c44a3aefe9b29c	3	1	main_slash	7	main_slash	19	stimuli_target_trianglesquares.svg	stimuli_distractor_trianglediamonds.svg	18	yes	53	1	497	0	0			0	0			1				0	
6.6.1	win	2023-06-28	08:16:31	08:21:43	307804	63e530e893c44a3aefe9b29c	3	1	main_slash	7	advance_on_keypress_SLASH	20	stimuli_target_trianglesquares.svg	stimuli_distractor_trianglediamonds.svg	18	yes	57	0	1420	0	0			0	0			1				0	
6.6.1	win	2023-06-28	08:16:31	08:21:46	310276	63e530e893c44a3aefe9b29c	3	1	main_slash	7	main_slash	21	stimuli_distractor_trianglediamonds.svg	stimuli_target_rectanglediamonds.svg	10	yes	53	1	402	0	0			0	0			1				0	
6.6.1	win	2023-06-28	08:16:31	08:21:46	310276	63e530e893c44a3aefe9b29c	3	1	main_slash	7	advance_on_keypress_SLASH	22	stimuli_distractor_trianglediamonds.svg	stimuli_target_rectanglediamonds.svg	10	yes	57	0	1497	0	0			0	0			1				0	
6.6.1	win	2023-06-28	08:16:31	08:21:50	314425	63e530e893c44a3aefe9b29c	3	1	main_slash	7	main_slash	23	stimuli_distractor_diamondtriangles.svg	stimuli_distractor_trianglediamonds.svg	37	no	0	1	2000	0	0			0	0			1				0	
6.6.1	win	2023-06-28	08:16:31	08:21:50	314425	63e530e893c44a3aefe9b29c	3	1	main_slash	7	advance_on_keypress_SLASH	24	stimuli_distractor_diamondtriangles.svg	stimuli_distractor_trianglediamonds.svg	37	no	57	0	643	0	0			0	0			1				0	
6.6.1	win	2023-06-28	08:16:31	08:21:51	316028	63e530e893c44a3aefe9b29c	3	1	main_slash	7	main_slash	25	stimuli_distractor_diamondtriangles.svg	stimuli_target_rectangletriangles.svg	13	yes	53	1	320	0	0			0	0			1				0	
6.6.1	win	2023-06-28	08:16:31	08:21:51	316028	63e530e893c44a3aefe9b29c	3	1	main_slash	7	advance_on_keypress_SLASH	26	stimuli_distractor_diamondtriangles.svg	stimuli_target_rectangletriangles.svg	13	yes	57	0	899	0	0			0	0			1				0	
6.6.1	win	2023-06-28	08:16:31	08:21:53	317964	63e530e893c44a3aefe9b29c	3	1	main_slash	7	main_slash	27	stimuli_target_squarediamonds.svg	stimuli_distractor_trianglediamonds.svg	4	yes	53	1	390	0	0			0	0			1				0	
6.6.1	win	2023-06-28	08:16:31	08:21:53	317964	63e530e893c44a3aefe9b29c	3	1	main_slash	7	advance_on_keypress_SLASH	28	stimuli_target_squarediamonds.svg	stimuli_distractor_trianglediamonds.svg	4	yes	57	0	861	0	0			0	0			1				0	
6.6.1	win	2023-06-28	08:16:31	08:21:55	319901	63e530e893c44a3aefe9b29c	3	1	main_slash	7	main_slash	29	stimuli_distractor_trianglediamonds.svg	stimuli_target_squaretriangles.svg	11	yes	53	1	409	0	0			0	0			1				0	
6.6.1	win	2023-06-28	08:16:31	08:21:55	319901	63e530e893c44a3aefe9b29c	3	1	main_slash	7	advance_on_keypress_SLASH	30	stimuli_distractor_trianglediamonds.svg	stimuli_target_squaretriangles.svg	11	yes	57	0	1408	0	0			0	0			1				0	
6.6.1	win	2023-06-28	08:16:31	08:21:58	322428	63e530e893c44a3aefe9b29c	3	1	main_slash	7	main_slash	31	stimuli_target_diamondsquares.svg	stimuli_distractor_diamondtriangles.svg	24	yes	53	1	470	0	0			0	0			1				0	
6.6.1	win	2023-06-28	08:16:31	08:21:58	322428	63e530e893c44a3aefe9b29c	3	1	main_slash	7	advance_on_keypress_SLASH	32	stimuli_target_diamondsquares.svg	stimuli_distractor_diamondtriangles.svg	24	yes	57	0	1339	0	0			0	0			1				0	
6.6.1	win	2023-06-28	08:16:31	08:22:00	324844	63e530e893c44a3aefe9b29c	3	1	main_slash	7	main_slash	33	stimuli_distractor_diamondtriangles.svg	stimuli_target_trianglerectangles.svg	29	yes	53	1	436	0	0			0	0			1				0	
6.6.1	win	2023-06-28	08:16:31	08:22:00	324844	63e530e893c44a3aefe9b29c	3	1	main_slash	7	advance_on_keypress_SLASH	34	stimuli_distractor_diamondtriangles.svg	stimuli_target_trianglerectangles.svg	29	yes	57	0	1106	0	0			0	0			1				0	
6.6.1	win	2023-06-28	08:16:31	08:22:03	327220	63e530e893c44a3aefe9b29c	3	1	main_slash	7	main_slash	35	stimuli_distractor_trianglediamonds.svg	stimuli_target_rectangletriangles.svg	9	yes	53	1	629	0	0			0	0			1				0	
6.6.1	win	2023-06-28	08:16:31	08:22:03	327220	63e530e893c44a3aefe9b29c	3	1	main_slash	7	advance_on_keypress_SLASH	36	stimuli_distractor_trianglediamonds.svg	stimuli_target_rectangletriangles.svg	9	yes	57	0	1035	0	0			0	0			1				0	
6.6.1	win	2023-06-28	08:16:31	08:22:05	329452	63e530e893c44a3aefe9b29c	3	1	main_slash	7	main_slash	37	stimuli_target_rectanglediamonds.svg	stimuli_distractor_trianglediamonds.svg	2	yes	53	1	544	0	0			0	0			1				0	
6.6.1	win	2023-06-28	08:16:31	08:22:05	329452	63e530e893c44a3aefe9b29c	3	1	main_slash	7	advance_on_keypress_SLASH	38	stimuli_target_rectanglediamonds.svg	stimuli_distractor_trianglediamonds.svg	2	yes	57	0	777	0	0			0	0			1				0	
6.6.1	win	2023-06-28	08:16:31	08:22:08	332875	63e530e893c44a3aefe9b29c	3	1	main_slash	7	main_slash	39	stimuli_distractor_trianglediamonds.svg	stimuli_target_diamondrectangles.svg	27	yes	0	0	2000	0	0			0	0			1				0	
6.6.1	win	2023-06-28	08:16:31	08:22:08	332875	63e530e893c44a3aefe9b29c	3	1	main_slash	7	advance_on_keypress_SLASH	40	stimuli_distractor_trianglediamonds.svg	stimuli_target_diamondrectangles.svg	27	yes	57	0	712	0	0			0	0			1				0	
6.6.1	win	2023-06-28	08:16:31	08:22:12	336225	63e530e893c44a3aefe9b29c	3	1	main_slash	7	main_slash	41	stimuli_distractor_diamondtriangles.svg	stimuli_target_diamondsquares.svg	32	yes	0	0	2000	0	0			0	0			1				0	
6.6.1	win	2023-06-28	08:16:31	08:22:12	336225	63e530e893c44a3aefe9b29c	3	1	main_slash	7	advance_on_keypress_SLASH	42	stimuli_distractor_diamondtriangles.svg	stimuli_target_diamondsquares.svg	32	yes	57	0	458	0	0			0	0			1				0	
6.6.1	win	2023-06-28	08:16:31	08:22:13	337716	63e530e893c44a3aefe9b29c	3	1	main_slash	7	main_slash	43	stimuli_distractor_diamondtriangles.svg	stimuli_target_squaretriangles.svg	15	yes	53	1	391	0	0			0	0			1				0	
6.6.1	win	2023-06-28	08:16:31	08:22:13	337716	63e530e893c44a3aefe9b29c	3	1	main_slash	7	advance_on_keypress_SLASH	44	stimuli_distractor_diamondtriangles.svg	stimuli_target_squaretriangles.svg	15	yes	57	0	790	0	0			0	0			1				0	
6.6.1	win	2023-06-28	08:16:31	08:22:15	339564	63e530e893c44a3aefe9b29c	3	1	main_slash	7	main_slash	45	stimuli_distractor_diamondtriangles.svg	stimuli_target_rectanglediamonds.svg	14	yes	53	1	405	0	0			0	0			1				0	
6.6.1	win	2023-06-28	08:16:31	08:22:15	339564	63e530e893c44a3aefe9b29c	3	1	main_slash	7	advance_on_keypress_SLASH	46	stimuli_distractor_diamondtriangles.svg	stimuli_target_rectanglediamonds.svg	14	yes	57	0	636	0	0			0	0			1				0	
6.6.1	win	2023-06-28	08:16:31	08:22:17	341420	63e530e893c44a3aefe9b29c	3	1	main_slash	7	main_slash	47	stimuli_target_squarediamonds.svg	stimuli_distractor_diamondtriangles.svg	8	yes	53	1	561	0	0			0	0			1				0	
6.6.1	win	2023-06-28	08:16:31	08:22:17	341420	63e530e893c44a3aefe9b29c	3	1	main_slash	7	advance_on_keypress_SLASH	48	stimuli_target_squarediamonds.svg	stimuli_distractor_diamondtriangles.svg	8	yes	57	0	658	0	0			0	0			1				0	
6.6.1	win	2023-06-28	08:16:31	08:22:20	344725	63e530e893c44a3aefe9b29c	3	1	main_slash	7	main_slash	49	stimuli_distractor_trianglediamonds.svg	stimuli_target_diamondsquares.svg	28	yes	0	0	2000	0	0			0	0			1				0	
6.6.1	win	2023-06-28	08:16:31	08:22:20	344725	63e530e893c44a3aefe9b29c	3	1	main_slash	7	advance_on_keypress_SLASH	50	stimuli_distractor_trianglediamonds.svg	stimuli_target_diamondsquares.svg	28	yes	57	0	438	0	0			0	0			1				0	
6.6.1	win	2023-06-28	08:16:31	08:22:23	347809	63e530e893c44a3aefe9b29c	3	1	main_slash	7	main_slash	51	stimuli_distractor_trianglediamonds.svg	stimuli_distractor_trianglediamonds.svg	33	no	0	1	2000	0	0			0	0			1				0	
6.6.1	win	2023-06-28	08:16:31	08:22:23	347809	63e530e893c44a3aefe9b29c	3	1	main_slash	7	advance_on_keypress_SLASH	52	stimuli_distractor_trianglediamonds.svg	stimuli_distractor_trianglediamonds.svg	33	no	57	0	442	0	0			0	0			1				0	
6.6.1	win	2023-06-28	08:16:31	08:22:26	350892	63e530e893c44a3aefe9b29c	3	1	main_slash	7	main_slash	53	stimuli_distractor_diamondtriangles.svg	stimuli_distractor_diamondtriangles.svg	40	no	0	1	2000	0	0			0	0			1				0	
6.6.1	win	2023-06-28	08:16:31	08:22:26	350892	63e530e893c44a3aefe9b29c	3	1	main_slash	7	advance_on_keypress_SLASH	54	stimuli_distractor_diamondtriangles.svg	stimuli_distractor_diamondtriangles.svg	40	no	57	0	511	0	0			0	0			1				0	
6.6.1	win	2023-06-28	08:16:31	08:22:28	352524	63e530e893c44a3aefe9b29c	3	1	main_slash	7	main_slash	55	stimuli_target_trianglerectangles.svg	stimuli_distractor_trianglediamonds.svg	17	yes	53	1	482	0	0			0	0			1				0	
6.6.1	win	2023-06-28	08:16:31	08:22:28	352524	63e530e893c44a3aefe9b29c	3	1	main_slash	7	advance_on_keypress_SLASH	56	stimuli_target_trianglerectangles.svg	stimuli_distractor_trianglediamonds.svg	17	yes	57	0	830	0	0			0	0			1				0	
6.6.1	win	2023-06-28	08:16:31	08:22:31	355993	63e530e893c44a3aefe9b29c	3	1	main_slash	7	main_slash	57	stimuli_distractor_trianglediamonds.svg	stimuli_distractor_diamondtriangles.svg	35	no	0	1	2000	0	0			0	0			1				0	
6.6.1	win	2023-06-28	08:16:31	08:22:31	355993	63e530e893c44a3aefe9b29c	3	1	main_slash	7	advance_on_keypress_SLASH	58	stimuli_distractor_trianglediamonds.svg	stimuli_distractor_diamondtriangles.svg	35	no	57	0	403	0	0			0	0			1				0	
6.6.1	win	2023-06-28	08:16:31	08:22:33	357468	63e530e893c44a3aefe9b29c	3	1	main_slash	7	main_slash	59	stimuli_target_rectangletriangles.svg	stimuli_distractor_diamondtriangles.svg	5	yes	53	1	425	0	0			0	0			1				0	
6.6.1	win	2023-06-28	08:16:31	08:22:33	357468	63e530e893c44a3aefe9b29c	3	1	main_slash	7	advance_on_keypress_SLASH	60	stimuli_target_rectangletriangles.svg	stimuli_distractor_diamondtriangles.svg	5	yes	57	0	607	0	0			0	0			1				0	
6.6.1	win	2023-06-28	08:16:31	08:22:35	359428	63e530e893c44a3aefe9b29c	3	1	main_slash	7	main_slash	61	stimuli_target_diamondrectangles.svg	stimuli_distractor_diamondtriangles.svg	23	yes	53	1	702	0	0			0	0			1				0	
6.6.1	win	2023-06-28	08:16:31	08:22:35	359428	63e530e893c44a3aefe9b29c	3	1	main_slash	7	advance_on_keypress_SLASH	62	stimuli_target_diamondrectangles.svg	stimuli_distractor_diamondtriangles.svg	23	yes	57	0	633	0	0			0	0			1				0	
6.6.1	win	2023-06-28	08:16:31	08:22:38	362710	63e530e893c44a3aefe9b29c	3	1	main_slash	7	main_slash	63	stimuli_distractor_trianglediamonds.svg	stimuli_target_trianglesquares.svg	26	yes	0	0	2000	0	0			0	0			1				0	
6.6.1	win	2023-06-28	08:16:31	08:22:38	362710	63e530e893c44a3aefe9b29c	3	1	main_slash	7	advance_on_keypress_SLASH	64	stimuli_distractor_trianglediamonds.svg	stimuli_target_trianglesquares.svg	26	yes	57	0	230	0	0			0	0			1				0	
6.6.1	win	2023-06-28	08:16:31	08:22:40	364140	63e530e893c44a3aefe9b29c	3	1	main_slash	7	main_slash	65	stimuli_distractor_diamondtriangles.svg	stimuli_target_trianglesquares.svg	30	yes	53	1	564	0	0			0	0			1				0	
6.6.1	win	2023-06-28	08:16:31	08:22:40	364140	63e530e893c44a3aefe9b29c	3	1	main_slash	7	advance_on_keypress_SLASH	66	stimuli_distractor_diamondtriangles.svg	stimuli_target_trianglesquares.svg	30	yes	57	0	821	0	0			0	0			1				0	
6.6.1	win	2023-06-28	08:16:31	08:22:42	366120	63e530e893c44a3aefe9b29c	3	1	main_slash	7	main_slash	67	stimuli_distractor_trianglediamonds.svg	stimuli_target_trianglerectangles.svg	25	yes	53	1	506	0	0			0	0			1				0	
6.6.1	win	2023-06-28	08:16:31	08:22:42	366120	63e530e893c44a3aefe9b29c	3	1	main_slash	7	advance_on_keypress_SLASH	68	stimuli_distractor_trianglediamonds.svg	stimuli_target_trianglerectangles.svg	25	yes	57	0	701	0	0			0	0			1				0	
6.6.1	win	2023-06-28	08:16:31	08:22:43	367964	63e530e893c44a3aefe9b29c	3	1	main_slash	7	main_slash	69	stimuli_distractor_trianglediamonds.svg	stimuli_target_squarediamonds.svg	12	yes	53	1	488	0	0			0	0			1				0	
6.6.1	win	2023-06-28	08:16:31	08:22:43	367964	63e530e893c44a3aefe9b29c	3	1	main_slash	7	advance_on_keypress_SLASH	70	stimuli_distractor_trianglediamonds.svg	stimuli_target_squarediamonds.svg	12	yes	57	0	612	0	0			0	0			1				0	
6.6.1	win	2023-06-28	08:16:31	08:22:45	369724	63e530e893c44a3aefe9b29c	3	1	main_slash	7	main_slash	71	stimuli_target_squaretriangles.svg	stimuli_distractor_diamondtriangles.svg	7	yes	53	1	514	0	0			0	0			1				0	
6.6.1	win	2023-06-28	08:16:31	08:22:45	369724	63e530e893c44a3aefe9b29c	3	1	main_slash	7	advance_on_keypress_SLASH	72	stimuli_target_squaretriangles.svg	stimuli_distractor_diamondtriangles.svg	7	yes	57	0	525	0	0			0	0			1				0	
6.6.1	win	2023-06-28	08:16:31	08:22:47	371316	63e530e893c44a3aefe9b29c	3	1	main_slash	7	main_slash	73	stimuli_target_rectangletriangles.svg	stimuli_distractor_trianglediamonds.svg	1	yes	53	1	423	0	0			0	0			1				0	
6.6.1	win	2023-06-28	08:16:31	08:22:47	371316	63e530e893c44a3aefe9b29c	3	1	main_slash	7	advance_on_keypress_SLASH	74	stimuli_target_rectangletriangles.svg	stimuli_distractor_trianglediamonds.svg	1	yes	57	0	614	0	0			0	0			1				0	
6.6.1	win	2023-06-28	08:16:31	08:22:48	372964	63e530e893c44a3aefe9b29c	3	1	main_slash	7	main_slash	75	stimuli_target_squaretriangles.svg	stimuli_distractor_trianglediamonds.svg	3	yes	53	1	404	0	0			0	0			1				0	
6.6.1	win	2023-06-28	08:16:31	08:22:48	372964	63e530e893c44a3aefe9b29c	3	1	main_slash	7	advance_on_keypress_SLASH	76	stimuli_target_squaretriangles.svg	stimuli_distractor_trianglediamonds.svg	3	yes	57	0	563	0	0			0	0			1				0	
6.6.1	win	2023-06-28	08:16:31	08:22:50	374537	63e530e893c44a3aefe9b29c	3	1	main_slash	7	main_slash	77	stimuli_target_rectanglediamonds.svg	stimuli_distractor_diamondtriangles.svg	6	yes	53	1	372	0	0			0	0			1				0	
6.6.1	win	2023-06-28	08:16:31	08:22:50	374537	63e530e893c44a3aefe9b29c	3	1	main_slash	7	advance_on_keypress_SLASH	78	stimuli_target_rectanglediamonds.svg	stimuli_distractor_diamondtriangles.svg	6	yes	57	0	540	0	0			0	0			1				0	
6.6.1	win	2023-06-28	08:16:31	08:22:53	377727	63e530e893c44a3aefe9b29c	3	1	main_slash	7	main_slash	79	stimuli_distractor_diamondtriangles.svg	stimuli_target_diamondrectangles.svg	31	yes	0	0	2000	0	0			0	0			1				0	
6.6.1	win	2023-06-28	08:16:31	08:22:53	377727	63e530e893c44a3aefe9b29c	3	1	main_slash	7	advance_on_keypress_SLASH	80	stimuli_distractor_diamondtriangles.svg	stimuli_target_diamondrectangles.svg	31	yes	57	0	541	0	0			0	0			1				0	
6.6.1	win	2023-06-28	08:16:31	08:22:55	379276	63e530e893c44a3aefe9b29c	3	1	main_slash	7	main_slash	81	stimuli_target_squaretriangles.svg	stimuli_distractor_diamondtriangles.svg	7	yes	53	1	366	0	0			0	0			1				0	
6.6.1	win	2023-06-28	08:16:31	08:22:55	379276	63e530e893c44a3aefe9b29c	3	1	main_slash	7	advance_on_keypress_SLASH	82	stimuli_target_squaretriangles.svg	stimuli_distractor_diamondtriangles.svg	7	yes	57	0	519	0	0			0	0			1				0	
6.6.1	win	2023-06-28	08:16:31	08:22:56	380844	63e530e893c44a3aefe9b29c	3	1	main_slash	7	main_slash	83	stimuli_target_rectangletriangles.svg	stimuli_distractor_diamondtriangles.svg	5	yes	53	1	401	0	0			0	0			1				0	
6.6.1	win	2023-06-28	08:16:31	08:22:56	380844	63e530e893c44a3aefe9b29c	3	1	main_slash	7	advance_on_keypress_SLASH	84	stimuli_target_rectangletriangles.svg	stimuli_distractor_diamondtriangles.svg	5	yes	57	0	544	0	0			0	0			1				0	
6.6.1	win	2023-06-28	08:16:31	08:22:58	382324	63e530e893c44a3aefe9b29c	3	1	main_slash	7	main_slash	85	stimuli_target_rectangletriangles.svg	stimuli_distractor_trianglediamonds.svg	1	yes	53	1	297	0	0			0	0			1				0	
6.6.1	win	2023-06-28	08:16:31	08:22:58	382324	63e530e893c44a3aefe9b29c	3	1	main_slash	7	advance_on_keypress_SLASH	86	stimuli_target_rectangletriangles.svg	stimuli_distractor_trianglediamonds.svg	1	yes	57	0	572	0	0			0	0			1				0	
6.6.1	win	2023-06-28	08:16:31	08:23:00	384140	63e530e893c44a3aefe9b29c	3	1	main_slash	7	main_slash	87	stimuli_target_trianglerectangles.svg	stimuli_distractor_diamondtriangles.svg	21	yes	53	1	596	0	0			0	0			1				0	
6.6.1	win	2023-06-28	08:16:31	08:23:00	384140	63e530e893c44a3aefe9b29c	3	1	main_slash	7	advance_on_keypress_SLASH	88	stimuli_target_trianglerectangles.svg	stimuli_distractor_diamondtriangles.svg	21	yes	57	0	748	0	0			0	0			1				0	
6.6.1	win	2023-06-28	08:16:31	08:23:01	386092	63e530e893c44a3aefe9b29c	3	1	main_slash	7	main_slash	89	stimuli_target_diamondsquares.svg	stimuli_distractor_diamondtriangles.svg	24	yes	53	1	548	0	0			0	0			1				0	
6.6.1	win	2023-06-28	08:16:31	08:23:01	386092	63e530e893c44a3aefe9b29c	3	1	main_slash	7	advance_on_keypress_SLASH	90	stimuli_target_diamondsquares.svg	stimuli_distractor_diamondtriangles.svg	24	yes	57	0	462	0	0			0	0			1				0	
6.6.1	win	2023-06-28	08:16:31	08:23:03	387612	63e530e893c44a3aefe9b29c	3	1	main_slash	7	main_slash	91	stimuli_distractor_diamondtriangles.svg	stimuli_target_trianglerectangles.svg	29	yes	53	1	418	0	0			0	0			1				0	
6.6.1	win	2023-06-28	08:16:31	08:23:03	387612	63e530e893c44a3aefe9b29c	3	1	main_slash	7	advance_on_keypress_SLASH	92	stimuli_distractor_diamondtriangles.svg	stimuli_target_trianglerectangles.svg	29	yes	57	0	817	0	0			0	0			1				0	
6.6.1	win	2023-06-28	08:16:31	08:23:06	391077	63e530e893c44a3aefe9b29c	3	1	main_slash	7	main_slash	93	stimuli_target_diamondrectangles.svg	stimuli_distractor_diamondtriangles.svg	23	yes	0	0	2000	0	0			0	0			1				0	
6.6.1	win	2023-06-28	08:16:31	08:23:06	391077	63e530e893c44a3aefe9b29c	3	1	main_slash	7	advance_on_keypress_SLASH	94	stimuli_target_diamondrectangles.svg	stimuli_distractor_diamondtriangles.svg	23	yes	57	0	862	0	0			0	0			1				0	
6.6.1	win	2023-06-28	08:16:31	08:23:10	394577	63e530e893c44a3aefe9b29c	3	1	main_slash	7	main_slash	95	stimuli_distractor_trianglediamonds.svg	stimuli_distractor_diamondtriangles.svg	36	no	0	1	2000	0	0			0	0			1				0	
6.6.1	win	2023-06-28	08:16:31	08:23:10	394577	63e530e893c44a3aefe9b29c	3	1	main_slash	7	advance_on_keypress_SLASH	96	stimuli_distractor_trianglediamonds.svg	stimuli_distractor_diamondtriangles.svg	36	no	57	0	418	0	0			0	0			1				0	
6.6.1	win	2023-06-28	08:16:31	08:23:11	396068	63e530e893c44a3aefe9b29c	3	1	main_slash	7	main_slash	97	stimuli_distractor_trianglediamonds.svg	stimuli_distractor_trianglediamonds.svg	33	no	53	0	424	0	0			0	0			1				0	
6.6.1	win	2023-06-28	08:16:31	08:23:11	396068	63e530e893c44a3aefe9b29c	3	1	main_slash	7	advance_on_keypress_SLASH	98	stimuli_distractor_trianglediamonds.svg	stimuli_distractor_trianglediamonds.svg	33	no	57	0	574	0	0			0	0			1				0	
6.6.1	win	2023-06-28	08:16:31	08:23:15	399294	63e530e893c44a3aefe9b29c	3	1	main_slash	7	main_slash	99	stimuli_distractor_trianglediamonds.svg	stimuli_target_trianglesquares.svg	26	yes	0	0	2000	0	0			0	0			1				0	
6.6.1	win	2023-06-28	08:16:31	08:23:15	399294	63e530e893c44a3aefe9b29c	3	1	main_slash	7	advance_on_keypress_SLASH	100	stimuli_distractor_trianglediamonds.svg	stimuli_target_trianglesquares.svg	26	yes	57	0	405	0	0			0	0			1				0	
6.6.1	win	2023-06-28	08:16:31	08:23:18	402344	63e530e893c44a3aefe9b29c	3	1	main_slash	7	main_slash	101	stimuli_distractor_trianglediamonds.svg	stimuli_distractor_trianglediamonds.svg	34	no	0	1	2000	0	0			0	0			1				0	
6.6.1	win	2023-06-28	08:16:31	08:23:18	402344	63e530e893c44a3aefe9b29c	3	1	main_slash	7	advance_on_keypress_SLASH	102	stimuli_distractor_trianglediamonds.svg	stimuli_distractor_trianglediamonds.svg	34	no	57	0	459	0	0			0	0			1				0	
6.6.1	win	2023-06-28	08:16:31	08:23:19	403788	63e530e893c44a3aefe9b29c	3	1	main_slash	7	main_slash	103	stimuli_target_trianglerectangles.svg	stimuli_distractor_trianglediamonds.svg	17	yes	53	1	344	0	0			0	0			1				0	
6.6.1	win	2023-06-28	08:16:31	08:23:19	403788	63e530e893c44a3aefe9b29c	3	1	main_slash	7	advance_on_keypress_SLASH	104	stimuli_target_trianglerectangles.svg	stimuli_distractor_trianglediamonds.svg	17	yes	57	0	489	0	0			0	0			1				0	
6.6.1	win	2023-06-28	08:16:31	08:23:21	405388	63e530e893c44a3aefe9b29c	3	1	main_slash	7	main_slash	105	stimuli_target_trianglesquares.svg	stimuli_distractor_diamondtriangles.svg	22	yes	53	1	460	0	0			0	0			1				0	
6.6.1	win	2023-06-28	08:16:31	08:23:21	405388	63e530e893c44a3aefe9b29c	3	1	main_slash	7	advance_on_keypress_SLASH	106	stimuli_target_trianglesquares.svg	stimuli_distractor_diamondtriangles.svg	22	yes	57	0	529	0	0			0	0			1				0	
6.6.1	win	2023-06-28	08:16:31	08:23:23	407156	63e530e893c44a3aefe9b29c	3	1	main_slash	7	main_slash	107	stimuli_distractor_diamondtriangles.svg	stimuli_target_squarediamonds.svg	16	yes	53	1	595	0	0			0	0			1				0	
6.6.1	win	2023-06-28	08:16:31	08:23:23	407156	63e530e893c44a3aefe9b29c	3	1	main_slash	7	advance_on_keypress_SLASH	108	stimuli_distractor_diamondtriangles.svg	stimuli_target_squarediamonds.svg	16	yes	57	0	522	0	0			0	0			1				0	
6.6.1	win	2023-06-28	08:16:31	08:23:25	409308	63e530e893c44a3aefe9b29c	3	1	main_slash	7	main_slash	109	stimuli_distractor_trianglediamonds.svg	stimuli_target_diamondrectangles.svg	27	yes	53	1	980	0	0			0	0			1				0	
6.6.1	win	2023-06-28	08:16:31	08:23:25	409308	63e530e893c44a3aefe9b29c	3	1	main_slash	7	advance_on_keypress_SLASH	110	stimuli_distractor_trianglediamonds.svg	stimuli_target_diamondrectangles.svg	27	yes	57	0	516	0	0			0	0			1				0	
6.6.1	win	2023-06-28	08:16:31	08:23:26	410892	63e530e893c44a3aefe9b29c	3	1	main_slash	7	main_slash	111	stimuli_distractor_trianglediamonds.svg	stimuli_target_rectanglediamonds.svg	10	yes	53	1	414	0	0			0	0			1				0	
6.6.1	win	2023-06-28	08:16:31	08:23:26	410892	63e530e893c44a3aefe9b29c	3	1	main_slash	7	advance_on_keypress_SLASH	112	stimuli_distractor_trianglediamonds.svg	stimuli_target_rectanglediamonds.svg	10	yes	57	0	541	0	0			0	0			1				0	
6.6.1	win	2023-06-28	08:16:31	08:23:28	412468	63e530e893c44a3aefe9b29c	3	1	main_slash	7	main_slash	113	stimuli_distractor_trianglediamonds.svg	stimuli_target_rectangletriangles.svg	9	yes	53	1	390	0	0			0	0			1				0	
6.6.1	win	2023-06-28	08:16:31	08:23:28	412468	63e530e893c44a3aefe9b29c	3	1	main_slash	7	advance_on_keypress_SLASH	114	stimuli_distractor_trianglediamonds.svg	stimuli_target_rectangletriangles.svg	9	yes	57	0	533	0	0			0	0			1				0	
6.6.1	win	2023-06-28	08:16:31	08:23:29	414060	63e530e893c44a3aefe9b29c	3	1	main_slash	7	main_slash	115	stimuli_target_rectanglediamonds.svg	stimuli_distractor_diamondtriangles.svg	6	yes	53	1	399	0	0			0	0			1				0	
6.6.1	win	2023-06-28	08:16:31	08:23:29	414060	63e530e893c44a3aefe9b29c	3	1	main_slash	7	advance_on_keypress_SLASH	116	stimuli_target_rectanglediamonds.svg	stimuli_distractor_diamondtriangles.svg	6	yes	57	0	510	0	0			0	0			1				0	
6.6.1	win	2023-06-28	08:16:31	08:23:31	415612	63e530e893c44a3aefe9b29c	3	1	main_slash	7	main_slash	117	stimuli_distractor_trianglediamonds.svg	stimuli_target_diamondsquares.svg	28	yes	53	1	401	0	0			0	0			1				0	
6.6.1	win	2023-06-28	08:16:31	08:23:31	415612	63e530e893c44a3aefe9b29c	3	1	main_slash	7	advance_on_keypress_SLASH	118	stimuli_distractor_trianglediamonds.svg	stimuli_target_diamondsquares.svg	28	yes	57	0	584	0	0			0	0			1				0	
6.6.1	win	2023-06-28	08:16:31	08:23:33	417180	63e530e893c44a3aefe9b29c	3	1	main_slash	7	main_slash	119	stimuli_distractor_diamondtriangles.svg	stimuli_target_diamondsquares.svg	32	yes	53	1	335	0	0			0	0			1				0	
6.6.1	win	2023-06-28	08:16:31	08:23:33	417180	63e530e893c44a3aefe9b29c	3	1	main_slash	7	advance_on_keypress_SLASH	120	stimuli_distractor_diamondtriangles.svg	stimuli_target_diamondsquares.svg	32	yes	57	0	473	0	0			0	0			1				0	
6.6.1	win	2023-06-28	08:16:31	08:23:34	418812	63e530e893c44a3aefe9b29c	3	1	main_slash	7	main_slash	121	stimuli_target_squaretriangles.svg	stimuli_distractor_trianglediamonds.svg	3	yes	53	1	517	0	0			0	0			1				0	
6.6.1	win	2023-06-28	08:16:31	08:23:34	418812	63e530e893c44a3aefe9b29c	3	1	main_slash	7	advance_on_keypress_SLASH	122	stimuli_target_squaretriangles.svg	stimuli_distractor_trianglediamonds.svg	3	yes	57	0	424	0	0			0	0			1				0	
6.6.1	win	2023-06-28	08:16:31	08:23:36	420308	63e530e893c44a3aefe9b29c	3	1	main_slash	7	main_slash	123	stimuli_distractor_diamondtriangles.svg	stimuli_target_rectangletriangles.svg	13	yes	53	1	430	0	0			0	0			1				0	
6.6.1	win	2023-06-28	08:16:31	08:23:36	420308	63e530e893c44a3aefe9b29c	3	1	main_slash	7	advance_on_keypress_SLASH	124	stimuli_distractor_diamondtriangles.svg	stimuli_target_rectangletriangles.svg	13	yes	57	0	484	0	0			0	0			1				0	
6.6.1	win	2023-06-28	08:16:31	08:23:39	423445	63e530e893c44a3aefe9b29c	3	1	main_slash	7	main_slash	125	stimuli_distractor_diamondtriangles.svg	stimuli_distractor_trianglediamonds.svg	38	no	0	1	2000	0	0			0	0			1				0	
6.6.1	win	2023-06-28	08:16:31	08:23:39	423445	63e530e893c44a3aefe9b29c	3	1	main_slash	7	advance_on_keypress_SLASH	126	stimuli_distractor_diamondtriangles.svg	stimuli_distractor_trianglediamonds.svg	38	no	57	0	510	0	0			0	0			1				0	
6.6.1	win	2023-06-28	08:16:31	08:23:42	426595	63e530e893c44a3aefe9b29c	3	1	main_slash	7	main_slash	127	stimuli_distractor_diamondtriangles.svg	stimuli_distractor_diamondtriangles.svg	40	no	0	1	2000	0	0			0	0			1				0	
6.6.1	win	2023-06-28	08:16:31	08:23:42	426595	63e530e893c44a3aefe9b29c	3	1	main_slash	7	advance_on_keypress_SLASH	128	stimuli_distractor_diamondtriangles.svg	stimuli_distractor_diamondtriangles.svg	40	no	57	0	384	0	0			0	0			1				0	
6.6.1	win	2023-06-28	08:16:31	08:23:43	428028	63e530e893c44a3aefe9b29c	3	1	main_slash	7	main_slash	129	stimuli_distractor_diamondtriangles.svg	stimuli_target_trianglesquares.svg	30	yes	53	1	399	0	0			0	0			1				0	
6.6.1	win	2023-06-28	08:16:31	08:23:43	428028	63e530e893c44a3aefe9b29c	3	1	main_slash	7	advance_on_keypress_SLASH	130	stimuli_distractor_diamondtriangles.svg	stimuli_target_trianglesquares.svg	30	yes	57	0	495	0	0			0	0			1				0	
6.6.1	win	2023-06-28	08:16:31	08:23:45	429660	63e530e893c44a3aefe9b29c	3	1	main_slash	7	main_slash	131	stimuli_target_diamondsquares.svg	stimuli_distractor_trianglediamonds.svg	20	yes	53	1	498	0	0			0	0			1				0	
6.6.1	win	2023-06-28	08:16:31	08:23:45	429660	63e530e893c44a3aefe9b29c	3	1	main_slash	7	advance_on_keypress_SLASH	132	stimuli_target_diamondsquares.svg	stimuli_distractor_trianglediamonds.svg	20	yes	57	0	589	0	0			0	0			1				0	
6.6.1	win	2023-06-28	08:16:31	08:23:47	431252	63e530e893c44a3aefe9b29c	3	1	main_slash	7	main_slash	133	stimuli_target_squarediamonds.svg	stimuli_distractor_diamondtriangles.svg	8	yes	53	1	357	0	0			0	0			1				0	
6.6.1	win	2023-06-28	08:16:31	08:23:47	431252	63e530e893c44a3aefe9b29c	3	1	main_slash	7	advance_on_keypress_SLASH	134	stimuli_target_squarediamonds.svg	stimuli_distractor_diamondtriangles.svg	8	yes	57	0	413	0	0			0	0			1				0	
6.6.1	win	2023-06-28	08:16:31	08:23:48	432868	63e530e893c44a3aefe9b29c	3	1	main_slash	7	main_slash	135	stimuli_distractor_diamondtriangles.svg	stimuli_distractor_trianglediamonds.svg	37	no	53	0	556	0	0			0	0			1				0	
6.6.1	win	2023-06-28	08:16:31	08:23:48	432868	63e530e893c44a3aefe9b29c	3	1	main_slash	7	advance_on_keypress_SLASH	136	stimuli_distractor_diamondtriangles.svg	stimuli_distractor_trianglediamonds.svg	37	no	57	0	573	0	0			0	0			1				0	
6.6.1	win	2023-06-28	08:16:31	08:23:50	434484	63e530e893c44a3aefe9b29c	3	1	main_slash	7	main_slash	137	stimuli_distractor_diamondtriangles.svg	stimuli_target_rectanglediamonds.svg	14	yes	53	1	405	0	0			0	0			1				0	
6.6.1	win	2023-06-28	08:16:31	08:23:50	434484	63e530e893c44a3aefe9b29c	3	1	main_slash	7	advance_on_keypress_SLASH	138	stimuli_distractor_diamondtriangles.svg	stimuli_target_rectanglediamonds.svg	14	yes	57	0	468	0	0			0	0			1				0	
6.6.1	win	2023-06-28	08:16:31	08:23:51	435980	63e530e893c44a3aefe9b29c	3	1	main_slash	7	main_slash	139	stimuli_target_squarediamonds.svg	stimuli_distractor_trianglediamonds.svg	4	yes	53	1	384	0	0			0	0			1				0	
6.6.1	win	2023-06-28	08:16:31	08:23:51	435980	63e530e893c44a3aefe9b29c	3	1	main_slash	7	advance_on_keypress_SLASH	140	stimuli_target_squarediamonds.svg	stimuli_distractor_trianglediamonds.svg	4	yes	57	0	416	0	0			0	0			1				0	
6.6.1	win	2023-06-28	08:16:31	08:23:53	437388	63e530e893c44a3aefe9b29c	3	1	main_slash	7	main_slash	141	stimuli_target_rectanglediamonds.svg	stimuli_distractor_trianglediamonds.svg	2	yes	53	1	342	0	0			0	0			1				0	
6.6.1	win	2023-06-28	08:16:31	08:23:53	437388	63e530e893c44a3aefe9b29c	3	1	main_slash	7	advance_on_keypress_SLASH	142	stimuli_target_rectanglediamonds.svg	stimuli_distractor_trianglediamonds.svg	2	yes	57	0	424	0	0			0	0			1				0	
6.6.1	win	2023-06-28	08:16:31	08:23:54	438860	63e530e893c44a3aefe9b29c	3	1	main_slash	7	main_slash	143	stimuli_target_trianglesquares.svg	stimuli_distractor_trianglediamonds.svg	18	yes	53	1	398	0	0			0	0			1				0	
6.6.1	win	2023-06-28	08:16:31	08:23:54	438860	63e530e893c44a3aefe9b29c	3	1	main_slash	7	advance_on_keypress_SLASH	144	stimuli_target_trianglesquares.svg	stimuli_distractor_trianglediamonds.svg	18	yes	57	0	381	0	0			0	0			1				0	
6.6.1	win	2023-06-28	08:16:31	08:23:56	440532	63e530e893c44a3aefe9b29c	3	1	main_slash	7	main_slash	145	stimuli_distractor_trianglediamonds.svg	stimuli_target_trianglerectangles.svg	25	yes	53	1	636	0	0			0	0			1				0	
6.6.1	win	2023-06-28	08:16:31	08:23:56	440532	63e530e893c44a3aefe9b29c	3	1	main_slash	7	advance_on_keypress_SLASH	146	stimuli_distractor_trianglediamonds.svg	stimuli_target_trianglerectangles.svg	25	yes	57	0	466	0	0			0	0			1				0	
6.6.1	win	2023-06-28	08:16:31	08:23:59	443646	63e530e893c44a3aefe9b29c	3	1	main_slash	7	main_slash	147	stimuli_distractor_diamondtriangles.svg	stimuli_distractor_diamondtriangles.svg	39	no	0	1	2000	0	0			0	0			1				0	
6.6.1	win	2023-06-28	08:16:31	08:23:59	443646	63e530e893c44a3aefe9b29c	3	1	main_slash	7	advance_on_keypress_SLASH	148	stimuli_distractor_diamondtriangles.svg	stimuli_distractor_diamondtriangles.svg	39	no	57	0	437	0	0			0	0			1				0	
6.6.1	win	2023-06-28	08:16:31	08:24:01	445148	63e530e893c44a3aefe9b29c	3	1	main_slash	7	main_slash	149	stimuli_distractor_diamondtriangles.svg	stimuli_target_squaretriangles.svg	15	yes	53	1	419	0	0			0	0			1				0	
6.6.1	win	2023-06-28	08:16:31	08:24:01	445148	63e530e893c44a3aefe9b29c	3	1	main_slash	7	advance_on_keypress_SLASH	150	stimuli_distractor_diamondtriangles.svg	stimuli_target_squaretriangles.svg	15	yes	57	0	401	0	0			0	0			1				0	
6.6.1	win	2023-06-28	08:16:31	08:24:02	446573	63e530e893c44a3aefe9b29c	3	1	main_slash	7	main_slash	151	stimuli_distractor_trianglediamonds.svg	stimuli_target_squarediamonds.svg	12	yes	53	1	376	0	0			0	0			1				0	
6.6.1	win	2023-06-28	08:16:31	08:24:02	446573	63e530e893c44a3aefe9b29c	3	1	main_slash	7	advance_on_keypress_SLASH	152	stimuli_distractor_trianglediamonds.svg	stimuli_target_squarediamonds.svg	12	yes	57	0	376	0	0			0	0			1				0	
6.6.1	win	2023-06-28	08:16:31	08:24:03	447956	63e530e893c44a3aefe9b29c	3	1	main_slash	7	main_slash	153	stimuli_distractor_trianglediamonds.svg	stimuli_target_squaretriangles.svg	11	yes	53	1	360	0	0			0	0			1				0	
6.6.1	win	2023-06-28	08:16:31	08:24:03	447956	63e530e893c44a3aefe9b29c	3	1	main_slash	7	advance_on_keypress_SLASH	154	stimuli_distractor_trianglediamonds.svg	stimuli_target_squaretriangles.svg	11	yes	57	0	401	0	0			0	0			1				0	
6.6.1	win	2023-06-28	08:16:31	08:24:06	451013	63e530e893c44a3aefe9b29c	3	1	main_slash	7	main_slash	155	stimuli_distractor_trianglediamonds.svg	stimuli_distractor_diamondtriangles.svg	35	no	0	1	2000	0	0			0	0			1				0	
6.6.1	win	2023-06-28	08:16:31	08:24:06	451013	63e530e893c44a3aefe9b29c	3	1	main_slash	7	advance_on_keypress_SLASH	156	stimuli_distractor_trianglediamonds.svg	stimuli_distractor_diamondtriangles.svg	35	no	57	0	615	0	0			0	0			1				0	
6.6.1	win	2023-06-28	08:16:31	08:24:08	452724	63e530e893c44a3aefe9b29c	3	1	main_slash	7	main_slash	157	stimuli_distractor_diamondtriangles.svg	stimuli_target_diamondrectangles.svg	31	yes	53	1	444	0	0			0	0			1				0	
6.6.1	win	2023-06-28	08:16:31	08:24:08	452724	63e530e893c44a3aefe9b29c	3	1	main_slash	7	advance_on_keypress_SLASH	158	stimuli_distractor_diamondtriangles.svg	stimuli_target_diamondrectangles.svg	31	yes	57	0	530	0	0			0	0			1				0	
6.6.1	win	2023-06-28	08:16:31	08:24:10	454316	63e530e893c44a3aefe9b29c	3	1	main_slash	7	main_slash	159	stimuli_target_diamondrectangles.svg	stimuli_distractor_trianglediamonds.svg	19	yes	53	1	420	0	0			0	0			1				0	
6.6.1	win	2023-06-28	08:16:31	08:24:10	454316	63e530e893c44a3aefe9b29c	3	1	main_slash	7	advance_on_keypress_SLASH	160	stimuli_target_diamondrectangles.svg	stimuli_distractor_trianglediamonds.svg	19	yes	57	0	466	0	0			0	0			1				0	
6.6.1	win	2023-06-28	08:16:31	08:24:36	480430	63e530e893c44a3aefe9b29c	3	1	practice_z	9	practice_z	1	stimuli_target_diamondsquares.svg	stimuli_distractor_diamondtriangles.svg	3	yes	44	1	514	0	0			0	0			1				0	
6.6.1	win	2023-06-28	08:16:31	08:24:36	480430	63e530e893c44a3aefe9b29c	3	1	practice_z	9	advance_on_keypress_ZEE	2	stimuli_target_diamondsquares.svg	stimuli_distractor_diamondtriangles.svg	3	yes	57	0	1117	0	0			0	0			1				0	
6.6.1	win	2023-06-28	08:16:31	08:24:39	483582	63e530e893c44a3aefe9b29c	3	1	practice_z	9	practice_z	3	stimuli_distractor_diamondtriangles.svg	stimuli_target_rectangletriangles.svg	7	yes	44	1	383	0	0			0	0			1				0	
6.6.1	win	2023-06-28	08:16:31	08:24:39	483582	63e530e893c44a3aefe9b29c	3	1	practice_z	9	advance_on_keypress_ZEE	4	stimuli_distractor_diamondtriangles.svg	stimuli_target_rectangletriangles.svg	7	yes	57	0	431	0	0			0	0			1				0	
6.6.1	win	2023-06-28	08:16:31	08:24:42	486141	63e530e893c44a3aefe9b29c	3	1	practice_z	9	practice_z	5	stimuli_distractor_trianglediamonds.svg	stimuli_distractor_diamondtriangles.svg	16	no	44	0	476	0	0			0	0			1				0	
6.6.1	win	2023-06-28	08:16:31	08:24:42	486141	63e530e893c44a3aefe9b29c	3	1	practice_z	9	advance_on_keypress_ZEE	6	stimuli_distractor_trianglediamonds.svg	stimuli_distractor_diamondtriangles.svg	16	no	57	0	472	0	0			0	0			1				0	
6.6.1	win	2023-06-28	08:16:31	08:24:44	488590	63e530e893c44a3aefe9b29c	3	1	practice_z	9	practice_z	7	stimuli_target_squarediamonds.svg	stimuli_distractor_trianglediamonds.svg	5	yes	44	1	324	0	0			0	0			1				0	
6.6.1	win	2023-06-28	08:16:31	08:24:44	488590	63e530e893c44a3aefe9b29c	3	1	practice_z	9	advance_on_keypress_ZEE	8	stimuli_target_squarediamonds.svg	stimuli_distractor_trianglediamonds.svg	5	yes	57	0	430	0	0			0	0			1				0	
6.6.1	win	2023-06-28	08:16:31	08:24:46	491069	63e530e893c44a3aefe9b29c	3	1	practice_z	9	practice_z	9	stimuli_distractor_trianglediamonds.svg	stimuli_target_squarediamonds.svg	11	yes	44	1	387	0	0			0	0			1				0	
6.6.1	win	2023-06-28	08:16:31	08:24:46	491069	63e530e893c44a3aefe9b29c	3	1	practice_z	9	advance_on_keypress_ZEE	10	stimuli_distractor_trianglediamonds.svg	stimuli_target_squarediamonds.svg	11	yes	57	0	387	0	0			0	0			1				0	
6.6.1	win	2023-06-28	08:16:31	08:24:49	493518	63e530e893c44a3aefe9b29c	3	1	practice_z	9	practice_z	11	stimuli_target_diamondsquares.svg	stimuli_distractor_trianglediamonds.svg	6	yes	44	1	418	0	0			0	0			1				0	
6.6.1	win	2023-06-28	08:16:31	08:24:49	493518	63e530e893c44a3aefe9b29c	3	1	practice_z	9	advance_on_keypress_ZEE	12	stimuli_target_diamondsquares.svg	stimuli_distractor_trianglediamonds.svg	6	yes	57	0	329	0	0			0	0			1				0	
6.6.1	win	2023-06-28	08:16:31	08:24:51	495854	63e530e893c44a3aefe9b29c	3	1	practice_z	9	practice_z	13	stimuli_distractor_trianglediamonds.svg	stimuli_target_rectanglediamonds.svg	10	yes	44	1	354	0	0			0	0			1				0	
6.6.1	win	2023-06-28	08:16:31	08:24:51	495854	63e530e893c44a3aefe9b29c	3	1	practice_z	9	advance_on_keypress_ZEE	14	stimuli_distractor_trianglediamonds.svg	stimuli_target_rectanglediamonds.svg	10	yes	57	0	467	0	0			0	0			1				0	
6.6.1	win	2023-06-28	08:16:31	08:24:54	498414	63e530e893c44a3aefe9b29c	3	1	practice_z	9	practice_z	15	stimuli_distractor_trianglediamonds.svg	stimuli_target_diamondrectangles.svg	12	yes	44	1	447	0	0			0	0			1				0	
6.6.1	win	2023-06-28	08:16:31	08:24:54	498414	63e530e893c44a3aefe9b29c	3	1	practice_z	9	advance_on_keypress_ZEE	16	stimuli_distractor_trianglediamonds.svg	stimuli_target_diamondrectangles.svg	12	yes	57	0	349	0	0			0	0			1				0	
6.6.1	win	2023-06-28	08:16:31	08:24:56	500798	63e530e893c44a3aefe9b29c	3	1	practice_z	9	practice_z	17	stimuli_distractor_diamondtriangles.svg	stimuli_distractor_trianglediamonds.svg	14	no	44	0	381	0	0			0	0			1				0	
6.6.1	win	2023-06-28	08:16:31	08:24:56	500798	63e530e893c44a3aefe9b29c	3	1	practice_z	9	advance_on_keypress_ZEE	18	stimuli_distractor_diamondtriangles.svg	stimuli_distractor_trianglediamonds.svg	14	no	57	0	389	0	0			0	0			1				0	
6.6.1	win	2023-06-28	08:16:31	08:24:59	503222	63e530e893c44a3aefe9b29c	3	1	practice_z	9	practice_z	19	stimuli_distractor_diamondtriangles.svg	stimuli_target_trianglerectangles.svg	9	yes	44	1	389	0	0			0	0			1				0	
6.6.1	win	2023-06-28	08:16:31	08:24:59	503222	63e530e893c44a3aefe9b29c	3	1	practice_z	9	advance_on_keypress_ZEE	20	stimuli_distractor_diamondtriangles.svg	stimuli_target_trianglerectangles.svg	9	yes	57	0	380	0	0			0	0			1				0	
6.6.1	win	2023-06-28	08:16:31	08:25:03	507250	63e530e893c44a3aefe9b29c	3	1	practice_z	9	practice_z	21	stimuli_distractor_diamondtriangles.svg	stimuli_distractor_diamondtriangles.svg	13	no	0	1	2000	0	0			0	0			1				0	
6.6.1	win	2023-06-28	08:16:31	08:25:03	507250	63e530e893c44a3aefe9b29c	3	1	practice_z	9	advance_on_keypress_ZEE	22	stimuli_distractor_diamondtriangles.svg	stimuli_distractor_diamondtriangles.svg	13	no	57	0	571	0	0			0	0			1				0	
6.6.1	win	2023-06-28	08:16:31	08:25:05	509933	63e530e893c44a3aefe9b29c	3	1	practice_z	9	practice_z	23	stimuli_target_rectanglediamonds.svg	stimuli_distractor_diamondtriangles.svg	1	yes	44	1	467	0	0			0	0			1				0	
6.6.1	win	2023-06-28	08:16:31	08:25:05	509933	63e530e893c44a3aefe9b29c	3	1	practice_z	9	advance_on_keypress_ZEE	24	stimuli_target_rectanglediamonds.svg	stimuli_distractor_diamondtriangles.svg	1	yes	57	0	584	0	0			0	0			1				0	
6.6.1	win	2023-06-28	08:16:31	08:25:08	512540	63e530e893c44a3aefe9b29c	3	1	practice_z	9	practice_z	25	stimuli_target_squarediamonds.svg	stimuli_distractor_diamondtriangles.svg	2	yes	44	1	367	0	0			0	0			1				0	
6.6.1	win	2023-06-28	08:16:31	08:25:08	512540	63e530e893c44a3aefe9b29c	3	1	practice_z	9	advance_on_keypress_ZEE	26	stimuli_target_squarediamonds.svg	stimuli_distractor_diamondtriangles.svg	2	yes	57	0	391	0	0			0	0			1				0	
6.6.1	win	2023-06-28	08:16:31	08:25:12	516584	63e530e893c44a3aefe9b29c	3	1	practice_z	9	practice_z	27	stimuli_distractor_trianglediamonds.svg	stimuli_distractor_trianglediamonds.svg	15	no	0	1	2000	0	0			0	0			1				0	
6.6.1	win	2023-06-28	08:16:31	08:25:12	516584	63e530e893c44a3aefe9b29c	3	1	practice_z	9	advance_on_keypress_ZEE	28	stimuli_distractor_trianglediamonds.svg	stimuli_distractor_trianglediamonds.svg	15	no	57	0	1461	0	0			0	0			1				0	
6.6.1	win	2023-06-28	08:16:31	08:25:16	520094	63e530e893c44a3aefe9b29c	3	1	practice_z	9	practice_z	29	stimuli_distractor_diamondtriangles.svg	stimuli_target_diamondrectangles.svg	8	yes	44	1	393	0	0			0	0			1				0	
6.6.1	win	2023-06-28	08:16:31	08:25:16	520094	63e530e893c44a3aefe9b29c	3	1	practice_z	9	advance_on_keypress_ZEE	30	stimuli_distractor_diamondtriangles.svg	stimuli_target_diamondrectangles.svg	8	yes	57	0	481	0	0			0	0			1				0	
6.6.1	win	2023-06-28	08:16:31	08:25:18	522582	63e530e893c44a3aefe9b29c	3	1	practice_z	9	practice_z	31	stimuli_target_rectanglediamonds.svg	stimuli_distractor_trianglediamonds.svg	4	yes	44	1	348	0	0			0	0			1				0	
6.6.1	win	2023-06-28	08:16:31	08:25:18	522582	63e530e893c44a3aefe9b29c	3	1	practice_z	9	advance_on_keypress_ZEE	32	stimuli_target_rectanglediamonds.svg	stimuli_distractor_trianglediamonds.svg	4	yes	57	0	389	0	0			0	0			1				0	
6.6.1	win	2023-06-28	08:16:31	08:25:22	527018	63e530e893c44a3aefe9b29c	3	1	main_z	11	main_z	1	stimuli_target_diamondsquares.svg	stimuli_distractor_diamondtriangles.svg	24	yes	44	1	471	0	0			0	0			1				0	
6.6.1	win	2023-06-28	08:16:31	08:25:22	527018	63e530e893c44a3aefe9b29c	3	1	main_z	11	advance_on_keypress_ZEE	2	stimuli_target_diamondsquares.svg	stimuli_distractor_diamondtriangles.svg	24	yes	57	0	1164	0	0			0	0			1				0	
6.6.1	win	2023-06-28	08:16:31	08:25:25	529275	63e530e893c44a3aefe9b29c	3	1	main_z	11	main_z	3	stimuli_distractor_diamondtriangles.svg	stimuli_target_diamondsquares.svg	32	yes	44	1	460	0	0			0	0			1				0	
6.6.1	win	2023-06-28	08:16:31	08:25:25	529275	63e530e893c44a3aefe9b29c	3	1	main_z	11	advance_on_keypress_ZEE	4	stimuli_distractor_diamondtriangles.svg	stimuli_target_diamondsquares.svg	32	yes	57	0	641	0	0			0	0			1				0	
6.6.1	win	2023-06-28	08:16:31	08:25:26	530883	63e530e893c44a3aefe9b29c	3	1	main_z	11	main_z	5	stimuli_distractor_trianglediamonds.svg	stimuli_target_diamondrectangles.svg	27	yes	44	1	318	0	0			0	0			1				0	
6.6.1	win	2023-06-28	08:16:31	08:25:26	530883	63e530e893c44a3aefe9b29c	3	1	main_z	11	advance_on_keypress_ZEE	6	stimuli_distractor_trianglediamonds.svg	stimuli_target_diamondrectangles.svg	27	yes	57	0	481	0	0			0	0			1				0	
6.6.1	win	2023-06-28	08:16:31	08:25:28	532403	63e530e893c44a3aefe9b29c	3	1	main_z	11	main_z	7	stimuli_distractor_trianglediamonds.svg	stimuli_target_trianglerectangles.svg	25	yes	44	1	405	0	0			0	0			1				0	
6.6.1	win	2023-06-28	08:16:31	08:25:28	532403	63e530e893c44a3aefe9b29c	3	1	main_z	11	advance_on_keypress_ZEE	8	stimuli_distractor_trianglediamonds.svg	stimuli_target_trianglerectangles.svg	25	yes	57	0	852	0	0			0	0			1				0	
6.6.1	win	2023-06-28	08:16:31	08:25:30	534492	63e530e893c44a3aefe9b29c	3	1	main_z	11	main_z	9	stimuli_distractor_trianglediamonds.svg	stimuli_target_squaretriangles.svg	11	yes	44	1	593	0	0			0	0			1				0	
6.6.1	win	2023-06-28	08:16:31	08:25:30	534492	63e530e893c44a3aefe9b29c	3	1	main_z	11	advance_on_keypress_ZEE	10	stimuli_distractor_trianglediamonds.svg	stimuli_target_squaretriangles.svg	11	yes	57	0	400	0	0			0	0			1				0	
6.6.1	win	2023-06-28	08:16:31	08:25:31	535916	63e530e893c44a3aefe9b29c	3	1	main_z	11	main_z	11	stimuli_distractor_trianglediamonds.svg	stimuli_target_squarediamonds.svg	12	yes	44	1	367	0	0			0	0			1				0	
6.6.1	win	2023-06-28	08:16:31	08:25:31	535916	63e530e893c44a3aefe9b29c	3	1	main_z	11	advance_on_keypress_ZEE	12	stimuli_distractor_trianglediamonds.svg	stimuli_target_squarediamonds.svg	12	yes	57	0	407	0	0			0	0			1				0	
6.6.1	win	2023-06-28	08:16:31	08:25:34	538966	63e530e893c44a3aefe9b29c	3	1	main_z	11	main_z	13	stimuli_distractor_diamondtriangles.svg	stimuli_distractor_trianglediamonds.svg	38	no	0	1	2000	0	0			0	0			1				0	
6.6.1	win	2023-06-28	08:16:31	08:25:34	538966	63e530e893c44a3aefe9b29c	3	1	main_z	11	advance_on_keypress_ZEE	14	stimuli_distractor_diamondtriangles.svg	stimuli_distractor_trianglediamonds.svg	38	no	57	0	373	0	0			0	0			1				0	
6.6.1	win	2023-06-28	08:16:31	08:25:36	540388	63e530e893c44a3aefe9b29c	3	1	main_z	11	main_z	15	stimuli_target_rectangletriangles.svg	stimuli_distractor_diamondtriangles.svg	5	yes	44	1	405	0	0			0	0			1				0	
6.6.1	win	2023-06-28	08:16:31	08:25:36	540388	63e530e893c44a3aefe9b29c	3	1	main_z	11	advance_on_keypress_ZEE	16	stimuli_target_rectangletriangles.svg	stimuli_distractor_diamondtriangles.svg	5	yes	57	0	460	0	0			0	0			1				0	
6.6.1	win	2023-06-28	08:16:31	08:25:39	543483	63e530e893c44a3aefe9b29c	3	1	main_z	11	main_z	17	stimuli_distractor_trianglediamonds.svg	stimuli_distractor_trianglediamonds.svg	33	no	0	1	2000	0	0			0	0			1				0	
6.6.1	win	2023-06-28	08:16:31	08:25:39	543483	63e530e893c44a3aefe9b29c	3	1	main_z	11	advance_on_keypress_ZEE	18	stimuli_distractor_trianglediamonds.svg	stimuli_distractor_trianglediamonds.svg	33	no	57	0	368	0	0			0	0			1				0	
6.6.1	win	2023-06-28	08:16:31	08:25:40	544812	63e530e893c44a3aefe9b29c	3	1	main_z	11	main_z	19	stimuli_distractor_diamondtriangles.svg	stimuli_target_rectangletriangles.svg	13	yes	44	1	312	0	0			0	0			1				0	
6.6.1	win	2023-06-28	08:16:31	08:25:40	544812	63e530e893c44a3aefe9b29c	3	1	main_z	11	advance_on_keypress_ZEE	20	stimuli_distractor_diamondtriangles.svg	stimuli_target_rectangletriangles.svg	13	yes	57	0	443	0	0			0	0			1				0	
6.6.1	win	2023-06-28	08:16:31	08:25:42	546260	63e530e893c44a3aefe9b29c	3	1	main_z	11	main_z	21	stimuli_distractor_diamondtriangles.svg	stimuli_target_squarediamonds.svg	16	yes	44	1	360	0	0			0	0			1				0	
6.6.1	win	2023-06-28	08:16:31	08:25:42	546260	63e530e893c44a3aefe9b29c	3	1	main_z	11	advance_on_keypress_ZEE	22	stimuli_distractor_diamondtriangles.svg	stimuli_target_squarediamonds.svg	16	yes	57	0	489	0	0			0	0			1				0	
6.6.1	win	2023-06-28	08:16:31	08:25:43	547732	63e530e893c44a3aefe9b29c	3	1	main_z	11	main_z	23	stimuli_distractor_trianglediamonds.svg	stimuli_target_trianglesquares.svg	26	yes	44	1	332	0	0			0	0			1				0	
6.6.1	win	2023-06-28	08:16:31	08:25:43	547732	63e530e893c44a3aefe9b29c	3	1	main_z	11	advance_on_keypress_ZEE	24	stimuli_distractor_trianglediamonds.svg	stimuli_target_trianglesquares.svg	26	yes	57	0	486	0	0			0	0			1				0	
6.6.1	win	2023-06-28	08:16:31	08:25:45	549324	63e530e893c44a3aefe9b29c	3	1	main_z	11	main_z	25	stimuli_target_trianglerectangles.svg	stimuli_distractor_diamondtriangles.svg	21	yes	44	1	457	0	0			0	0			1				0	
6.6.1	win	2023-06-28	08:16:31	08:25:45	549324	63e530e893c44a3aefe9b29c	3	1	main_z	11	advance_on_keypress_ZEE	26	stimuli_target_trianglerectangles.svg	stimuli_distractor_diamondtriangles.svg	21	yes	57	0	599	0	0			0	0			1				0	
6.6.1	win	2023-06-28	08:16:31	08:25:48	552567	63e530e893c44a3aefe9b29c	3	1	main_z	11	main_z	27	stimuli_distractor_diamondtriangles.svg	stimuli_distractor_trianglediamonds.svg	37	no	0	1	2000	0	0			0	0			1				0	
6.6.1	win	2023-06-28	08:16:31	08:25:48	552567	63e530e893c44a3aefe9b29c	3	1	main_z	11	advance_on_keypress_ZEE	28	stimuli_distractor_diamondtriangles.svg	stimuli_distractor_trianglediamonds.svg	37	no	57	0	373	0	0			0	0			1				0	
6.6.1	win	2023-06-28	08:16:31	08:25:51	555584	63e530e893c44a3aefe9b29c	3	1	main_z	11	main_z	29	stimuli_distractor_trianglediamonds.svg	stimuli_distractor_trianglediamonds.svg	34	no	0	1	2000	0	0			0	0			1				0	
6.6.1	win	2023-06-28	08:16:31	08:25:51	555584	63e530e893c44a3aefe9b29c	3	1	main_z	11	advance_on_keypress_ZEE	30	stimuli_distractor_trianglediamonds.svg	stimuli_distractor_trianglediamonds.svg	34	no	57	0	332	0	0			0	0			1				0	
6.6.1	win	2023-06-28	08:16:31	08:25:52	556876	63e530e893c44a3aefe9b29c	3	1	main_z	11	main_z	31	stimuli_distractor_diamondtriangles.svg	stimuli_target_rectanglediamonds.svg	14	yes	44	1	309	0	0			0	0			1				0	
6.6.1	win	2023-06-28	08:16:31	08:25:52	556876	63e530e893c44a3aefe9b29c	3	1	main_z	11	advance_on_keypress_ZEE	32	stimuli_distractor_diamondtriangles.svg	stimuli_target_rectanglediamonds.svg	14	yes	57	0	376	0	0			0	0			1				0	
6.6.1	win	2023-06-28	08:16:31	08:25:54	558220	63e530e893c44a3aefe9b29c	3	1	main_z	11	main_z	33	stimuli_target_rectanglediamonds.svg	stimuli_distractor_trianglediamonds.svg	2	yes	44	1	320	0	0			0	0			1				0	
6.6.1	win	2023-06-28	08:16:31	08:25:54	558220	63e530e893c44a3aefe9b29c	3	1	main_z	11	advance_on_keypress_ZEE	34	stimuli_target_rectanglediamonds.svg	stimuli_distractor_trianglediamonds.svg	2	yes	57	0	442	0	0			0	0			1				0	
6.6.1	win	2023-06-28	08:16:31	08:25:55	559756	63e530e893c44a3aefe9b29c	3	1	main_z	11	main_z	35	stimuli_target_diamondrectangles.svg	stimuli_distractor_diamondtriangles.svg	23	yes	44	1	456	0	0			0	0			1				0	
6.6.1	win	2023-06-28	08:16:31	08:25:55	559756	63e530e893c44a3aefe9b29c	3	1	main_z	11	advance_on_keypress_ZEE	36	stimuli_target_diamondrectangles.svg	stimuli_distractor_diamondtriangles.svg	23	yes	57	0	453	0	0			0	0			1				0	
6.6.1	win	2023-06-28	08:16:31	08:25:57	561172	63e530e893c44a3aefe9b29c	3	1	main_z	11	main_z	37	stimuli_target_squarediamonds.svg	stimuli_distractor_trianglediamonds.svg	4	yes	44	1	322	0	0			0	0			1				0	
6.6.1	win	2023-06-28	08:16:31	08:25:57	561172	63e530e893c44a3aefe9b29c	3	1	main_z	11	advance_on_keypress_ZEE	38	stimuli_target_squarediamonds.svg	stimuli_distractor_trianglediamonds.svg	4	yes	57	0	388	0	0			0	0			1				0	
6.6.1	win	2023-06-28	08:16:31	08:26:00	564201	63e530e893c44a3aefe9b29c	3	1	main_z	11	main_z	39	stimuli_distractor_diamondtriangles.svg	stimuli_target_diamondrectangles.svg	31	yes	0	0	2000	0	0			0	0			1				0	
6.6.1	win	2023-06-28	08:16:31	08:26:00	564201	63e530e893c44a3aefe9b29c	3	1	main_z	11	advance_on_keypress_ZEE	40	stimuli_distractor_diamondtriangles.svg	stimuli_target_diamondrectangles.svg	31	yes	57	0	355	0	0			0	0			1				0	
6.6.1	win	2023-06-28	08:16:31	08:26:03	567201	63e530e893c44a3aefe9b29c	3	1	main_z	11	main_z	41	stimuli_distractor_trianglediamonds.svg	stimuli_distractor_diamondtriangles.svg	36	no	0	1	2000	0	0			0	0			1				0	
6.6.1	win	2023-06-28	08:16:31	08:26:03	567201	63e530e893c44a3aefe9b29c	3	1	main_z	11	advance_on_keypress_ZEE	42	stimuli_distractor_trianglediamonds.svg	stimuli_distractor_diamondtriangles.svg	36	no	57	0	395	0	0			0	0			1				0	
6.6.1	win	2023-06-28	08:16:31	08:26:06	570234	63e530e893c44a3aefe9b29c	3	1	main_z	11	main_z	43	stimuli_distractor_trianglediamonds.svg	stimuli_distractor_diamondtriangles.svg	35	no	0	1	2000	0	0			0	0			1				0	
6.6.1	win	2023-06-28	08:16:31	08:26:06	570234	63e530e893c44a3aefe9b29c	3	1	main_z	11	advance_on_keypress_ZEE	44	stimuli_distractor_trianglediamonds.svg	stimuli_distractor_diamondtriangles.svg	35	no	57	0	337	0	0			0	0			1				0	
6.6.1	win	2023-06-28	08:16:31	08:26:07	571556	63e530e893c44a3aefe9b29c	3	1	main_z	11	main_z	45	stimuli_target_trianglesquares.svg	stimuli_distractor_diamondtriangles.svg	22	yes	44	1	339	0	0			0	0			1				0	
6.6.1	win	2023-06-28	08:16:31	08:26:07	571556	63e530e893c44a3aefe9b29c	3	1	main_z	11	advance_on_keypress_ZEE	46	stimuli_target_trianglesquares.svg	stimuli_distractor_diamondtriangles.svg	22	yes	57	0	405	0	0			0	0			1				0	
6.6.1	win	2023-06-28	08:16:31	08:26:08	573012	63e530e893c44a3aefe9b29c	3	1	main_z	11	main_z	47	stimuli_distractor_diamondtriangles.svg	stimuli_target_squaretriangles.svg	15	yes	44	1	411	0	0			0	0			1				0	
6.6.1	win	2023-06-28	08:16:31	08:26:08	573012	63e530e893c44a3aefe9b29c	3	1	main_z	11	advance_on_keypress_ZEE	48	stimuli_distractor_diamondtriangles.svg	stimuli_target_squaretriangles.svg	15	yes	57	0	410	0	0			0	0			1				0	
6.6.1	win	2023-06-28	08:16:31	08:26:10	574452	63e530e893c44a3aefe9b29c	3	1	main_z	11	main_z	49	stimuli_target_rectangletriangles.svg	stimuli_distractor_trianglediamonds.svg	1	yes	44	1	384	0	0			0	0			1				0	
6.6.1	win	2023-06-28	08:16:31	08:26:10	574452	63e530e893c44a3aefe9b29c	3	1	main_z	11	advance_on_keypress_ZEE	50	stimuli_target_rectangletriangles.svg	stimuli_distractor_trianglediamonds.svg	1	yes	57	0	416	0	0			0	0			1				0	
6.6.1	win	2023-06-28	08:16:31	08:26:11	575812	63e530e893c44a3aefe9b29c	3	1	main_z	11	main_z	51	stimuli_target_squarediamonds.svg	stimuli_distractor_diamondtriangles.svg	8	yes	44	1	294	0	0			0	0			1				0	
6.6.1	win	2023-06-28	08:16:31	08:26:11	575812	63e530e893c44a3aefe9b29c	3	1	main_z	11	advance_on_keypress_ZEE	52	stimuli_target_squarediamonds.svg	stimuli_distractor_diamondtriangles.svg	8	yes	57	0	450	0	0			0	0			1				0	
6.6.1	win	2023-06-28	08:16:31	08:26:13	577220	63e530e893c44a3aefe9b29c	3	1	main_z	11	main_z	53	stimuli_target_rectanglediamonds.svg	stimuli_distractor_diamondtriangles.svg	6	yes	44	1	302	0	0			0	0			1				0	
6.6.1	win	2023-06-28	08:16:31	08:26:13	577220	63e530e893c44a3aefe9b29c	3	1	main_z	11	advance_on_keypress_ZEE	54	stimuli_target_rectanglediamonds.svg	stimuli_distractor_diamondtriangles.svg	6	yes	57	0	442	0	0			0	0			1				0	
6.6.1	win	2023-06-28	08:16:31	08:26:14	578644	63e530e893c44a3aefe9b29c	3	1	main_z	11	main_z	55	stimuli_distractor_trianglediamonds.svg	stimuli_target_rectangletriangles.svg	9	yes	44	1	343	0	0			0	0			1				0	
6.6.1	win	2023-06-28	08:16:31	08:26:14	578644	63e530e893c44a3aefe9b29c	3	1	main_z	11	advance_on_keypress_ZEE	56	stimuli_distractor_trianglediamonds.svg	stimuli_target_rectangletriangles.svg	9	yes	57	0	416	0	0			0	0			1				0	
6.6.1	win	2023-06-28	08:16:31	08:26:16	580356	63e530e893c44a3aefe9b29c	3	1	main_z	11	main_z	57	stimuli_distractor_diamondtriangles.svg	stimuli_target_trianglerectangles.svg	29	yes	44	1	638	0	0			0	0			1				0	
6.6.1	win	2023-06-28	08:16:31	08:26:16	580356	63e530e893c44a3aefe9b29c	3	1	main_z	11	advance_on_keypress_ZEE	58	stimuli_distractor_diamondtriangles.svg	stimuli_target_trianglerectangles.svg	29	yes	57	0	404	0	0			0	0			1				0	
6.6.1	win	2023-06-28	08:16:31	08:26:19	583401	63e530e893c44a3aefe9b29c	3	1	main_z	11	main_z	59	stimuli_distractor_diamondtriangles.svg	stimuli_distractor_diamondtriangles.svg	40	no	0	1	2000	0	0			0	0			1				0	
6.6.1	win	2023-06-28	08:16:31	08:26:19	583401	63e530e893c44a3aefe9b29c	3	1	main_z	11	advance_on_keypress_ZEE	60	stimuli_distractor_diamondtriangles.svg	stimuli_distractor_diamondtriangles.svg	40	no	57	0	410	0	0			0	0			1				0	
6.6.1	win	2023-06-28	08:16:31	08:26:20	584788	63e530e893c44a3aefe9b29c	3	1	main_z	11	main_z	61	stimuli_target_diamondsquares.svg	stimuli_distractor_trianglediamonds.svg	20	yes	44	1	337	0	0			0	0			1				0	
6.6.1	win	2023-06-28	08:16:31	08:26:20	584788	63e530e893c44a3aefe9b29c	3	1	main_z	11	advance_on_keypress_ZEE	62	stimuli_target_diamondsquares.svg	stimuli_distractor_trianglediamonds.svg	20	yes	57	0	435	0	0			0	0			1				0	
6.6.1	win	2023-06-28	08:16:31	08:26:22	586246	63e530e893c44a3aefe9b29c	3	1	main_z	11	main_z	63	stimuli_distractor_trianglediamonds.svg	stimuli_target_diamondsquares.svg	28	yes	44	1	376	0	0			0	0			1				0	
6.6.1	win	2023-06-28	08:16:31	08:26:22	586246	63e530e893c44a3aefe9b29c	3	1	main_z	11	advance_on_keypress_ZEE	64	stimuli_distractor_trianglediamonds.svg	stimuli_target_diamondsquares.svg	28	yes	57	0	504	0	0			0	0			1				0	
6.6.1	win	2023-06-28	08:16:31	08:26:23	587804	63e530e893c44a3aefe9b29c	3	1	main_z	11	main_z	65	stimuli_target_trianglesquares.svg	stimuli_distractor_trianglediamonds.svg	18	yes	44	1	403	0	0			0	0			1				0	
6.6.1	win	2023-06-28	08:16:31	08:26:23	587804	63e530e893c44a3aefe9b29c	3	1	main_z	11	advance_on_keypress_ZEE	66	stimuli_target_trianglesquares.svg	stimuli_distractor_trianglediamonds.svg	18	yes	57	0	418	0	0			0	0			1				0	
6.6.1	win	2023-06-28	08:16:31	08:26:25	589196	63e530e893c44a3aefe9b29c	3	1	main_z	11	main_z	67	stimuli_distractor_trianglediamonds.svg	stimuli_target_rectanglediamonds.svg	10	yes	44	1	328	0	0			0	0			1				0	
6.6.1	win	2023-06-28	08:16:31	08:26:25	589196	63e530e893c44a3aefe9b29c	3	1	main_z	11	advance_on_keypress_ZEE	68	stimuli_distractor_trianglediamonds.svg	stimuli_target_rectanglediamonds.svg	10	yes	57	0	482	0	0			0	0			1				0	
6.6.1	win	2023-06-28	08:16:31	08:26:26	590612	63e530e893c44a3aefe9b29c	3	1	main_z	11	main_z	69	stimuli_target_diamondrectangles.svg	stimuli_distractor_trianglediamonds.svg	19	yes	44	1	277	0	0			0	0			1				0	
6.6.1	win	2023-06-28	08:16:31	08:26:26	590612	63e530e893c44a3aefe9b29c	3	1	main_z	11	advance_on_keypress_ZEE	70	stimuli_target_diamondrectangles.svg	stimuli_distractor_trianglediamonds.svg	19	yes	57	0	497	0	0			0	0			1				0	
6.6.1	win	2023-06-28	08:16:31	08:26:28	592164	63e530e893c44a3aefe9b29c	3	1	main_z	11	main_z	71	stimuli_target_squaretriangles.svg	stimuli_distractor_diamondtriangles.svg	7	yes	44	1	396	0	0			0	0			1				0	
6.6.1	win	2023-06-28	08:16:31	08:26:28	592164	63e530e893c44a3aefe9b29c	3	1	main_z	11	advance_on_keypress_ZEE	72	stimuli_target_squaretriangles.svg	stimuli_distractor_diamondtriangles.svg	7	yes	57	0	563	0	0			0	0			1				0	
6.6.1	win	2023-06-28	08:16:31	08:26:29	593860	63e530e893c44a3aefe9b29c	3	1	main_z	11	main_z	73	stimuli_distractor_diamondtriangles.svg	stimuli_target_trianglesquares.svg	30	yes	44	1	492	0	0			0	0			1				0	
6.6.1	win	2023-06-28	08:16:31	08:26:29	593860	63e530e893c44a3aefe9b29c	3	1	main_z	11	advance_on_keypress_ZEE	74	stimuli_distractor_diamondtriangles.svg	stimuli_target_trianglesquares.svg	30	yes	57	0	439	0	0			0	0			1				0	
6.6.1	win	2023-06-28	08:16:31	08:26:32	596952	63e530e893c44a3aefe9b29c	3	1	main_z	11	main_z	75	stimuli_distractor_diamondtriangles.svg	stimuli_distractor_diamondtriangles.svg	39	no	0	1	2000	0	0			0	0			1				0	
6.6.1	win	2023-06-28	08:16:31	08:26:32	596952	63e530e893c44a3aefe9b29c	3	1	main_z	11	advance_on_keypress_ZEE	76	stimuli_distractor_diamondtriangles.svg	stimuli_distractor_diamondtriangles.svg	39	no	57	0	612	0	0			0	0			1				0	
6.6.1	win	2023-06-28	08:16:31	08:26:34	598668	63e530e893c44a3aefe9b29c	3	1	main_z	11	main_z	77	stimuli_target_trianglerectangles.svg	stimuli_distractor_trianglediamonds.svg	17	yes	44	1	466	0	0			0	0			1				0	
6.6.1	win	2023-06-28	08:16:31	08:26:34	598668	63e530e893c44a3aefe9b29c	3	1	main_z	11	advance_on_keypress_ZEE	78	stimuli_target_trianglerectangles.svg	stimuli_distractor_trianglediamonds.svg	17	yes	57	0	479	0	0			0	0			1				0	
6.6.1	win	2023-06-28	08:16:31	08:26:35	600084	63e530e893c44a3aefe9b29c	3	1	main_z	11	main_z	79	stimuli_target_squaretriangles.svg	stimuli_distractor_trianglediamonds.svg	3	yes	44	1	299	0	0			0	0			1				0	
6.6.1	win	2023-06-28	08:16:31	08:26:35	600084	63e530e893c44a3aefe9b29c	3	1	main_z	11	advance_on_keypress_ZEE	80	stimuli_target_squaretriangles.svg	stimuli_distractor_trianglediamonds.svg	3	yes	57	0	470	0	0			0	0			1				0	
6.6.1	win	2023-06-28	08:16:31	08:26:39	603202	63e530e893c44a3aefe9b29c	3	1	main_z	11	main_z	81	stimuli_distractor_diamondtriangles.svg	stimuli_distractor_trianglediamonds.svg	38	no	0	1	2000	0	0			0	0			1				0	
6.6.1	win	2023-06-28	08:16:31	08:26:39	603202	63e530e893c44a3aefe9b29c	3	1	main_z	11	advance_on_keypress_ZEE	82	stimuli_distractor_diamondtriangles.svg	stimuli_distractor_trianglediamonds.svg	38	no	57	0	417	0	0			0	0			1				0	
6.6.1	win	2023-06-28	08:16:31	08:26:40	604564	63e530e893c44a3aefe9b29c	3	1	main_z	11	main_z	83	stimuli_target_rectangletriangles.svg	stimuli_distractor_diamondtriangles.svg	5	yes	44	1	295	0	0			0	0			1				0	
6.6.1	win	2023-06-28	08:16:31	08:26:40	604564	63e530e893c44a3aefe9b29c	3	1	main_z	11	advance_on_keypress_ZEE	84	stimuli_target_rectangletriangles.svg	stimuli_distractor_diamondtriangles.svg	5	yes	57	0	363	0	0			0	0			1				0	
6.6.1	win	2023-06-28	08:16:31	08:26:41	606028	63e530e893c44a3aefe9b29c	3	1	main_z	11	main_z	85	stimuli_distractor_diamondtriangles.svg	stimuli_target_diamondsquares.svg	32	yes	44	1	459	0	0			0	0			1				0	
6.6.1	win	2023-06-28	08:16:31	08:26:41	606028	63e530e893c44a3aefe9b29c	3	1	main_z	11	advance_on_keypress_ZEE	86	stimuli_distractor_diamondtriangles.svg	stimuli_target_diamondsquares.svg	32	yes	57	0	432	0	0			0	0			1				0	
6.6.1	win	2023-06-28	08:16:31	08:26:43	607484	63e530e893c44a3aefe9b29c	3	1	main_z	11	main_z	87	stimuli_distractor_trianglediamonds.svg	stimuli_target_squaretriangles.svg	11	yes	44	1	365	0	0			0	0			1				0	
6.6.1	win	2023-06-28	08:16:31	08:26:43	607484	63e530e893c44a3aefe9b29c	3	1	main_z	11	advance_on_keypress_ZEE	88	stimuli_distractor_trianglediamonds.svg	stimuli_target_squaretriangles.svg	11	yes	57	0	438	0	0			0	0			1				0	
6.6.1	win	2023-06-28	08:16:31	08:26:44	608956	63e530e893c44a3aefe9b29c	3	1	main_z	11	main_z	89	stimuli_target_squarediamonds.svg	stimuli_distractor_diamondtriangles.svg	8	yes	44	1	387	0	0			0	0			1				0	
6.6.1	win	2023-06-28	08:16:31	08:26:44	608956	63e530e893c44a3aefe9b29c	3	1	main_z	11	advance_on_keypress_ZEE	90	stimuli_target_squarediamonds.svg	stimuli_distractor_diamondtriangles.svg	8	yes	57	0	451	0	0			0	0			1				0	
6.6.1	win	2023-06-28	08:16:31	08:26:46	610444	63e530e893c44a3aefe9b29c	3	1	main_z	11	main_z	91	stimuli_distractor_diamondtriangles.svg	stimuli_target_trianglerectangles.svg	29	yes	44	1	392	0	0			0	0			1				0	
6.6.1	win	2023-06-28	08:16:31	08:26:46	610444	63e530e893c44a3aefe9b29c	3	1	main_z	11	advance_on_keypress_ZEE	92	stimuli_distractor_diamondtriangles.svg	stimuli_target_trianglerectangles.svg	29	yes	57	0	399	0	0			0	0			1				0	
6.6.1	win	2023-06-28	08:16:31	08:26:47	611860	63e530e893c44a3aefe9b29c	3	1	main_z	11	main_z	93	stimuli_distractor_diamondtriangles.svg	stimuli_target_rectanglediamonds.svg	14	yes	44	1	358	0	0			0	0			1				0	
6.6.1	win	2023-06-28	08:16:31	08:26:47	611860	63e530e893c44a3aefe9b29c	3	1	main_z	11	advance_on_keypress_ZEE	94	stimuli_distractor_diamondtriangles.svg	stimuli_target_rectanglediamonds.svg	14	yes	57	0	398	0	0			0	0			1				0	
6.6.1	win	2023-06-28	08:16:31	08:26:50	614919	63e530e893c44a3aefe9b29c	3	1	main_z	11	main_z	95	stimuli_distractor_trianglediamonds.svg	stimuli_distractor_diamondtriangles.svg	36	no	0	1	2000	0	0			0	0			1				0	
6.6.1	win	2023-06-28	08:16:31	08:26:50	614919	63e530e893c44a3aefe9b29c	3	1	main_z	11	advance_on_keypress_ZEE	96	stimuli_distractor_trianglediamonds.svg	stimuli_distractor_diamondtriangles.svg	36	no	57	0	420	0	0			0	0			1				0	
6.6.1	win	2023-06-28	08:16:31	08:26:52	616540	63e530e893c44a3aefe9b29c	3	1	main_z	11	main_z	97	stimuli_distractor_diamondtriangles.svg	stimuli_target_trianglesquares.svg	30	yes	44	1	554	0	0			0	0			1				0	
6.6.1	win	2023-06-28	08:16:31	08:26:52	616540	63e530e893c44a3aefe9b29c	3	1	main_z	11	advance_on_keypress_ZEE	98	stimuli_distractor_diamondtriangles.svg	stimuli_target_trianglesquares.svg	30	yes	57	0	468	0	0			0	0			1				0	
6.6.1	win	2023-06-28	08:16:31	08:26:53	618026	63e530e893c44a3aefe9b29c	3	1	main_z	11	main_z	99	stimuli_distractor_trianglediamonds.svg	stimuli_target_squarediamonds.svg	12	yes	44	1	369	0	0			0	0			1				0	
6.6.1	win	2023-06-28	08:16:31	08:26:53	618026	63e530e893c44a3aefe9b29c	3	1	main_z	11	advance_on_keypress_ZEE	100	stimuli_distractor_trianglediamonds.svg	stimuli_target_squarediamonds.svg	12	yes	57	0	408	0	0			0	0			1				0	
6.6.1	win	2023-06-28	08:16:31	08:26:56	621069	63e530e893c44a3aefe9b29c	3	1	main_z	11	main_z	101	stimuli_distractor_diamondtriangles.svg	stimuli_distractor_diamondtriangles.svg	40	no	0	1	2000	0	0			0	0			1				0	
6.6.1	win	2023-06-28	08:16:31	08:26:56	621069	63e530e893c44a3aefe9b29c	3	1	main_z	11	advance_on_keypress_ZEE	102	stimuli_distractor_diamondtriangles.svg	stimuli_distractor_diamondtriangles.svg	40	no	57	0	390	0	0			0	0			1				0	
6.6.1	win	2023-06-28	08:16:31	08:26:58	622516	63e530e893c44a3aefe9b29c	3	1	main_z	11	main_z	103	stimuli_target_trianglerectangles.svg	stimuli_distractor_diamondtriangles.svg	21	yes	44	1	413	0	0			0	0			1				0	
6.6.1	win	2023-06-28	08:16:31	08:26:58	622516	63e530e893c44a3aefe9b29c	3	1	main_z	11	advance_on_keypress_ZEE	104	stimuli_target_trianglerectangles.svg	stimuli_distractor_diamondtriangles.svg	21	yes	57	0	452	0	0			0	0			1				0	
6.6.1	win	2023-06-28	08:16:31	08:27:01	625620	63e530e893c44a3aefe9b29c	3	1	main_z	11	main_z	105	stimuli_distractor_diamondtriangles.svg	stimuli_distractor_diamondtriangles.svg	39	no	0	1	2000	0	0			0	0			1				0	
6.6.1	win	2023-06-28	08:16:31	08:27:01	625620	63e530e893c44a3aefe9b29c	3	1	main_z	11	advance_on_keypress_ZEE	106	stimuli_distractor_diamondtriangles.svg	stimuli_distractor_diamondtriangles.svg	39	no	57	0	392	0	0			0	0			1				0	
6.6.1	win	2023-06-28	08:16:31	08:27:04	628653	63e530e893c44a3aefe9b29c	3	1	main_z	11	main_z	107	stimuli_distractor_trianglediamonds.svg	stimuli_distractor_trianglediamonds.svg	33	no	0	1	2000	0	0			0	0			1				0	
6.6.1	win	2023-06-28	08:16:31	08:27:04	628653	63e530e893c44a3aefe9b29c	3	1	main_z	11	advance_on_keypress_ZEE	108	stimuli_distractor_trianglediamonds.svg	stimuli_distractor_trianglediamonds.svg	33	no	57	0	342	0	0			0	0			1				0	
6.6.1	win	2023-06-28	08:16:31	08:27:05	630020	63e530e893c44a3aefe9b29c	3	1	main_z	11	main_z	109	stimuli_target_trianglesquares.svg	stimuli_distractor_trianglediamonds.svg	18	yes	44	1	384	0	0			0	0			1				0	
6.6.1	win	2023-06-28	08:16:31	08:27:05	630020	63e530e893c44a3aefe9b29c	3	1	main_z	11	advance_on_keypress_ZEE	110	stimuli_target_trianglesquares.svg	stimuli_distractor_trianglediamonds.svg	18	yes	57	0	368	0	0			0	0			1				0	
6.6.1	win	2023-06-28	08:16:31	08:27:07	631414	63e530e893c44a3aefe9b29c	3	1	main_z	11	main_z	111	stimuli_distractor_diamondtriangles.svg	stimuli_target_rectangletriangles.svg	13	yes	44	1	376	0	0			0	0			1				0	
6.6.1	win	2023-06-28	08:16:31	08:27:07	631414	63e530e893c44a3aefe9b29c	3	1	main_z	11	advance_on_keypress_ZEE	112	stimuli_distractor_diamondtriangles.svg	stimuli_target_rectangletriangles.svg	13	yes	57	0	368	0	0			0	0			1				0	
6.6.1	win	2023-06-28	08:16:31	08:27:08	632796	63e530e893c44a3aefe9b29c	3	1	main_z	11	main_z	113	stimuli_target_rectanglediamonds.svg	stimuli_distractor_trianglediamonds.svg	2	yes	44	1	360	0	0			0	0			1				0	
6.6.1	win	2023-06-28	08:16:31	08:27:08	632796	63e530e893c44a3aefe9b29c	3	1	main_z	11	advance_on_keypress_ZEE	114	stimuli_target_rectanglediamonds.svg	stimuli_distractor_trianglediamonds.svg	2	yes	57	0	392	0	0			0	0			1				0	
6.6.1	win	2023-06-28	08:16:31	08:27:10	634172	63e530e893c44a3aefe9b29c	3	1	main_z	11	main_z	115	stimuli_target_diamondsquares.svg	stimuli_distractor_trianglediamonds.svg	20	yes	44	1	336	0	0			0	0			1				0	
6.6.1	win	2023-06-28	08:16:31	08:27:10	634172	63e530e893c44a3aefe9b29c	3	1	main_z	11	advance_on_keypress_ZEE	116	stimuli_target_diamondsquares.svg	stimuli_distractor_trianglediamonds.svg	20	yes	57	0	490	0	0			0	0			1				0	
6.6.1	win	2023-06-28	08:16:31	08:27:11	635732	63e530e893c44a3aefe9b29c	3	1	main_z	11	main_z	117	stimuli_target_diamondsquares.svg	stimuli_distractor_diamondtriangles.svg	24	yes	44	1	429	0	0			0	0			1				0	
6.6.1	win	2023-06-28	08:16:31	08:27:11	635732	63e530e893c44a3aefe9b29c	3	1	main_z	11	advance_on_keypress_ZEE	118	stimuli_target_diamondsquares.svg	stimuli_distractor_diamondtriangles.svg	24	yes	57	0	371	0	0			0	0			1				0	
6.6.1	win	2023-06-28	08:16:31	08:27:13	637156	63e530e893c44a3aefe9b29c	3	1	main_z	11	main_z	119	stimuli_distractor_trianglediamonds.svg	stimuli_target_diamondrectangles.svg	27	yes	44	1	403	0	0			0	0			1				0	
6.6.1	win	2023-06-28	08:16:31	08:27:13	637156	63e530e893c44a3aefe9b29c	3	1	main_z	11	advance_on_keypress_ZEE	120	stimuli_distractor_trianglediamonds.svg	stimuli_target_diamondrectangles.svg	27	yes	57	0	362	0	0			0	0			1				0	
6.6.1	win	2023-06-28	08:16:31	08:27:14	638548	63e530e893c44a3aefe9b29c	3	1	main_z	11	main_z	121	stimuli_target_rectanglediamonds.svg	stimuli_distractor_diamondtriangles.svg	6	yes	44	1	395	0	0			0	0			1				0	
6.6.1	win	2023-06-28	08:16:31	08:27:14	638548	63e530e893c44a3aefe9b29c	3	1	main_z	11	advance_on_keypress_ZEE	122	stimuli_target_rectanglediamonds.svg	stimuli_distractor_diamondtriangles.svg	6	yes	57	0	362	0	0			0	0			1				0	
6.6.1	win	2023-06-28	08:16:31	08:27:17	641553	63e530e893c44a3aefe9b29c	3	1	main_z	11	main_z	123	stimuli_distractor_diamondtriangles.svg	stimuli_distractor_trianglediamonds.svg	37	no	0	1	2000	0	0			0	0			1				0	
6.6.1	win	2023-06-28	08:16:31	08:27:17	641553	63e530e893c44a3aefe9b29c	3	1	main_z	11	advance_on_keypress_ZEE	124	stimuli_distractor_diamondtriangles.svg	stimuli_distractor_trianglediamonds.svg	37	no	57	0	482	0	0			0	0			1				0	
6.6.1	win	2023-06-28	08:16:31	08:27:18	643076	63e530e893c44a3aefe9b29c	3	1	main_z	11	main_z	125	stimuli_distractor_trianglediamonds.svg	stimuli_target_rectanglediamonds.svg	10	yes	44	1	389	0	0			0	0			1				0	
6.6.1	win	2023-06-28	08:16:31	08:27:18	643076	63e530e893c44a3aefe9b29c	3	1	main_z	11	advance_on_keypress_ZEE	126	stimuli_distractor_trianglediamonds.svg	stimuli_target_rectanglediamonds.svg	10	yes	57	0	341	0	0			0	0			1				0	
6.6.1	win	2023-06-28	08:16:31	08:27:20	644452	63e530e893c44a3aefe9b29c	3	1	main_z	11	main_z	127	stimuli_distractor_trianglediamonds.svg	stimuli_target_rectangletriangles.svg	9	yes	44	1	398	0	0			0	0			1				0	
6.6.1	win	2023-06-28	08:16:31	08:27:20	644452	63e530e893c44a3aefe9b29c	3	1	main_z	11	advance_on_keypress_ZEE	128	stimuli_distractor_trianglediamonds.svg	stimuli_target_rectangletriangles.svg	9	yes	57	0	454	0	0			0	0			1				0	
6.6.1	win	2023-06-28	08:16:31	08:27:21	645948	63e530e893c44a3aefe9b29c	3	1	main_z	11	main_z	129	stimuli_distractor_diamondtriangles.svg	stimuli_target_diamondrectangles.svg	31	yes	44	1	394	0	0			0	0			1				0	
6.6.1	win	2023-06-28	08:16:31	08:27:21	645948	63e530e893c44a3aefe9b29c	3	1	main_z	11	advance_on_keypress_ZEE	130	stimuli_distractor_diamondtriangles.svg	stimuli_target_diamondrectangles.svg	31	yes	57	0	338	0	0			0	0			1				0	
6.6.1	win	2023-06-28	08:16:31	08:27:23	647452	63e530e893c44a3aefe9b29c	3	1	main_z	11	main_z	131	stimuli_target_diamondrectangles.svg	stimuli_distractor_diamondtriangles.svg	23	yes	44	1	515	0	0			0	0			1				0	
6.6.1	win	2023-06-28	08:16:31	08:27:23	647452	63e530e893c44a3aefe9b29c	3	1	main_z	11	advance_on_keypress_ZEE	132	stimuli_target_diamondrectangles.svg	stimuli_distractor_diamondtriangles.svg	23	yes	57	0	366	0	0			0	0			1				0	
6.6.1	win	2023-06-28	08:16:31	08:27:24	648788	63e530e893c44a3aefe9b29c	3	1	main_z	11	main_z	133	stimuli_target_squarediamonds.svg	stimuli_distractor_trianglediamonds.svg	4	yes	44	1	318	0	0			0	0			1				0	
6.6.1	win	2023-06-28	08:16:31	08:27:24	648788	63e530e893c44a3aefe9b29c	3	1	main_z	11	advance_on_keypress_ZEE	134	stimuli_target_squarediamonds.svg	stimuli_distractor_trianglediamonds.svg	4	yes	57	0	352	0	0			0	0			1				0	
6.6.1	win	2023-06-28	08:16:31	08:27:26	650212	63e530e893c44a3aefe9b29c	3	1	main_z	11	main_z	135	stimuli_distractor_diamondtriangles.svg	stimuli_target_squaretriangles.svg	15	yes	44	1	425	0	0			0	0			1				0	
6.6.1	win	2023-06-28	08:16:31	08:27:26	650212	63e530e893c44a3aefe9b29c	3	1	main_z	11	advance_on_keypress_ZEE	136	stimuli_distractor_diamondtriangles.svg	stimuli_target_squaretriangles.svg	15	yes	57	0	319	0	0			0	0			1				0	
6.6.1	win	2023-06-28	08:16:31	08:27:27	651684	63e530e893c44a3aefe9b29c	3	1	main_z	11	main_z	137	stimuli_distractor_trianglediamonds.svg	stimuli_target_trianglerectangles.svg	25	yes	44	1	497	0	0			0	0			1				0	
6.6.1	win	2023-06-28	08:16:31	08:27:27	651684	63e530e893c44a3aefe9b29c	3	1	main_z	11	advance_on_keypress_ZEE	138	stimuli_distractor_trianglediamonds.svg	stimuli_target_trianglerectangles.svg	25	yes	57	0	372	0	0			0	0			1				0	
6.6.1	win	2023-06-28	08:16:31	08:27:28	653084	63e530e893c44a3aefe9b29c	3	1	main_z	11	main_z	139	stimuli_target_squaretriangles.svg	stimuli_distractor_diamondtriangles.svg	7	yes	44	1	380	0	0			0	0			1				0	
6.6.1	win	2023-06-28	08:16:31	08:27:28	653084	63e530e893c44a3aefe9b29c	3	1	main_z	11	advance_on_keypress_ZEE	140	stimuli_target_squaretriangles.svg	stimuli_distractor_diamondtriangles.svg	7	yes	57	0	340	0	0			0	0			1				0	
6.6.1	win	2023-06-28	08:16:31	08:27:30	654452	63e530e893c44a3aefe9b29c	3	1	main_z	11	main_z	141	stimuli_distractor_diamondtriangles.svg	stimuli_target_squarediamonds.svg	16	yes	44	1	381	0	0			0	0			1				0	
6.6.1	win	2023-06-28	08:16:31	08:27:30	654452	63e530e893c44a3aefe9b29c	3	1	main_z	11	advance_on_keypress_ZEE	142	stimuli_distractor_diamondtriangles.svg	stimuli_target_squarediamonds.svg	16	yes	57	0	341	0	0			0	0			1				0	
6.6.1	win	2023-06-28	08:16:31	08:27:31	655788	63e530e893c44a3aefe9b29c	3	1	main_z	11	main_z	143	stimuli_target_squaretriangles.svg	stimuli_distractor_trianglediamonds.svg	3	yes	44	1	351	0	0			0	0			1				0	
6.6.1	win	2023-06-28	08:16:31	08:27:31	655788	63e530e893c44a3aefe9b29c	3	1	main_z	11	advance_on_keypress_ZEE	144	stimuli_target_squaretriangles.svg	stimuli_distractor_trianglediamonds.svg	3	yes	57	0	328	0	0			0	0			1				0	
6.6.1	win	2023-06-28	08:16:31	08:27:33	657108	63e530e893c44a3aefe9b29c	3	1	main_z	11	main_z	145	stimuli_target_trianglesquares.svg	stimuli_distractor_diamondtriangles.svg	22	yes	44	1	354	0	0			0	0			1				0	
6.6.1	win	2023-06-28	08:16:31	08:27:33	657108	63e530e893c44a3aefe9b29c	3	1	main_z	11	advance_on_keypress_ZEE	146	stimuli_target_trianglesquares.svg	stimuli_distractor_diamondtriangles.svg	22	yes	57	0	371	0	0			0	0			1				0	
6.6.1	win	2023-06-28	08:16:31	08:27:34	658412	63e530e893c44a3aefe9b29c	3	1	main_z	11	main_z	147	stimuli_target_diamondrectangles.svg	stimuli_distractor_trianglediamonds.svg	19	yes	44	1	291	0	0			0	0			1				0	
6.6.1	win	2023-06-28	08:16:31	08:27:34	658412	63e530e893c44a3aefe9b29c	3	1	main_z	11	advance_on_keypress_ZEE	148	stimuli_target_diamondrectangles.svg	stimuli_distractor_trianglediamonds.svg	19	yes	57	0	375	0	0			0	0			1				0	
6.6.1	win	2023-06-28	08:16:31	08:27:35	659828	63e530e893c44a3aefe9b29c	3	1	main_z	11	main_z	149	stimuli_distractor_trianglediamonds.svg	stimuli_target_diamondsquares.svg	28	yes	44	1	391	0	0			0	0			1				0	
6.6.1	win	2023-06-28	08:16:31	08:27:35	659828	63e530e893c44a3aefe9b29c	3	1	main_z	11	advance_on_keypress_ZEE	150	stimuli_distractor_trianglediamonds.svg	stimuli_target_diamondsquares.svg	28	yes	57	0	367	0	0			0	0			1				0	
6.6.1	win	2023-06-28	08:16:31	08:27:38	662838	63e530e893c44a3aefe9b29c	3	1	main_z	11	main_z	151	stimuli_distractor_trianglediamonds.svg	stimuli_distractor_diamondtriangles.svg	35	no	0	1	2000	0	0			0	0			1				0	
6.6.1	win	2023-06-28	08:16:31	08:27:38	662838	63e530e893c44a3aefe9b29c	3	1	main_z	11	advance_on_keypress_ZEE	152	stimuli_distractor_trianglediamonds.svg	stimuli_distractor_diamondtriangles.svg	35	no	57	0	366	0	0			0	0			1				0	
6.6.1	win	2023-06-28	08:16:31	08:27:40	664188	63e530e893c44a3aefe9b29c	3	1	main_z	11	main_z	153	stimuli_target_rectangletriangles.svg	stimuli_distractor_trianglediamonds.svg	1	yes	44	1	334	0	0			0	0			1				0	
6.6.1	win	2023-06-28	08:16:31	08:27:40	664188	63e530e893c44a3aefe9b29c	3	1	main_z	11	advance_on_keypress_ZEE	154	stimuli_target_rectangletriangles.svg	stimuli_distractor_trianglediamonds.svg	1	yes	57	0	400	0	0			0	0			1				0	
6.6.1	win	2023-06-28	08:16:31	08:27:43	667238	63e530e893c44a3aefe9b29c	3	1	main_z	11	main_z	155	stimuli_distractor_trianglediamonds.svg	stimuli_distractor_trianglediamonds.svg	34	no	0	1	2000	0	0			0	0			1				0	
6.6.1	win	2023-06-28	08:16:31	08:27:43	667238	63e530e893c44a3aefe9b29c	3	1	main_z	11	advance_on_keypress_ZEE	156	stimuli_distractor_trianglediamonds.svg	stimuli_distractor_trianglediamonds.svg	34	no	57	0	334	0	0			0	0			1				0	
6.6.1	win	2023-06-28	08:16:31	08:27:44	668603	63e530e893c44a3aefe9b29c	3	1	main_z	11	main_z	157	stimuli_distractor_trianglediamonds.svg	stimuli_target_trianglesquares.svg	26	yes	44	1	367	0	0			0	0			1				0	
6.6.1	win	2023-06-28	08:16:31	08:27:44	668603	63e530e893c44a3aefe9b29c	3	1	main_z	11	advance_on_keypress_ZEE	158	stimuli_distractor_trianglediamonds.svg	stimuli_target_trianglesquares.svg	26	yes	57	0	423	0	0			0	0			1				0	
6.6.1	win	2023-06-28	08:16:31	08:27:46	670116	63e530e893c44a3aefe9b29c	3	1	main_z	11	main_z	159	stimuli_target_trianglerectangles.svg	stimuli_distractor_trianglediamonds.svg	17	yes	44	1	445	0	0			0	0			1				0	
6.6.1	win	2023-06-28	08:16:31	08:27:46	670116	63e530e893c44a3aefe9b29c	3	1	main_z	11	advance_on_keypress_ZEE	160	stimuli_target_trianglerectangles.svg	stimuli_distractor_trianglediamonds.svg	17	yes	57	0	394	0	0			0	0			1				0	
6.6.1	win	2023-06-28	08:16:31	08:27:46	670116	63e530e893c44a3aefe9b29c	3	1	headphonecheck_calibration	14	headphonecheck_calibrationIntro	1	stimuli_target_trianglerectangles.svg	stimuli_distractor_trianglediamonds.svg	17	yes	calibrationButton	0	2691	0	0			0	0			1				0	
6.6.1	win	2023-06-28	08:16:31	08:27:46	670116	63e530e893c44a3aefe9b29c	3	1	headphonecheck_testphase	15	test_collectResponse	3	stimuli_target_trianglerectangles.svg	stimuli_distractor_trianglediamonds.svg	17	yes	first	1	4863	1	3	antiphase_hc_soi.wav	1	0	0			1				0	
6.6.1	win	2023-06-28	08:16:31	08:27:46	670116	63e530e893c44a3aefe9b29c	3	1	headphonecheck_testphase	15	test_collectResponse	6	stimuli_target_trianglerectangles.svg	stimuli_distractor_trianglediamonds.svg	17	yes	second	1	825	2	1	antiphase_hc_iso.wav	2	0	0			1				0	
6.6.1	win	2023-06-28	08:16:31	08:27:46	670116	63e530e893c44a3aefe9b29c	3	1	headphonecheck_testphase	15	test_collectResponse	9	stimuli_target_trianglerectangles.svg	stimuli_distractor_trianglediamonds.svg	17	yes	second	1	645	3	5	antiphase_hc_osi.wav	2	0	0			1				0	
6.6.1	win	2023-06-28	08:16:31	08:27:46	670116	63e530e893c44a3aefe9b29c	3	1	headphonecheck_testphase	15	test_collectResponse	12	stimuli_target_trianglerectangles.svg	stimuli_distractor_trianglediamonds.svg	17	yes	third	1	534	4	2	antiphase_hc_ios.wav	3	0	0			1				0	
6.6.1	win	2023-06-28	08:16:31	08:27:46	670116	63e530e893c44a3aefe9b29c	3	1	headphonecheck_testphase	15	test_collectResponse	15	stimuli_target_trianglerectangles.svg	stimuli_distractor_trianglediamonds.svg	17	yes	first	1	1596	5	4	antiphase_hc_sio.wav	1	0	0			1				0	
6.6.1	win	2023-06-28	08:16:31	08:27:46	670116	63e530e893c44a3aefe9b29c	3	1	headphonecheck_testphase	15	test_collectResponse	18	stimuli_target_trianglerectangles.svg	stimuli_distractor_trianglediamonds.svg	17	yes	third	1	466	6	6	antiphase_hc_ois.wav	3	0	0			1				0	
6.6.1	win	2023-06-28	08:16:31	08:27:46	670116	63e530e893c44a3aefe9b29c	3	1	stereocheck_calibration	17	stereocheck_calibrationIntro	1	stimuli_target_trianglerectangles.svg	stimuli_distractor_trianglediamonds.svg	17	yes	stereocheck_calibrationButton	0	2645	6	6	antiphase_hc_ois.wav	3	0	0			1				0	
6.6.1	win	2023-06-28	08:16:31	08:27:46	670116	63e530e893c44a3aefe9b29c	3	1	stereocheck_testphase	18	stereocheck_test_collectResponse	3	stimuli_target_trianglerectangles.svg	stimuli_distractor_trianglediamonds.svg	17	yes	stereocheck_left	0	5286	6	6	antiphase_hc_ois.wav	3	1	5	noise_calib_stim_RIGHT.wav	2	1				0	
6.6.1	win	2023-06-28	08:16:31	08:27:46	670116	63e530e893c44a3aefe9b29c	3	1	stereocheck_testphase	18	stereocheck_test_collectResponse	6	stimuli_target_trianglerectangles.svg	stimuli_distractor_trianglediamonds.svg	17	yes	stereocheck_left	1	964	6	6	antiphase_hc_ois.wav	3	2	3	noise_calib_stim_LEFT.wav	1	1				0	
6.6.1	win	2023-06-28	08:16:31	08:27:46	670116	63e530e893c44a3aefe9b29c	3	1	stereocheck_testphase	18	stereocheck_test_collectResponse	9	stimuli_target_trianglerectangles.svg	stimuli_distractor_trianglediamonds.svg	17	yes	stereocheck_left	1	949	6	6	antiphase_hc_ois.wav	3	3	2	noise_calib_stim_LEFT.wav	1	1				0	
6.6.1	win	2023-06-28	08:16:31	08:27:46	670116	63e530e893c44a3aefe9b29c	3	1	stereocheck_testphase	18	stereocheck_test_collectResponse	12	stimuli_target_trianglerectangles.svg	stimuli_distractor_trianglediamonds.svg	17	yes	stereocheck_right	1	621	6	6	antiphase_hc_ois.wav	3	4	4	noise_calib_stim_RIGHT.wav	2	1				0	
6.6.1	win	2023-06-28	08:16:31	08:27:46	670116	63e530e893c44a3aefe9b29c	3	1	stereocheck_testphase	18	stereocheck_test_collectResponse	15	stimuli_target_trianglerectangles.svg	stimuli_distractor_trianglediamonds.svg	17	yes	stereocheck_left	1	393	6	6	antiphase_hc_ois.wav	3	5	1	noise_calib_stim_LEFT.wav	1	1				0	
6.6.1	win	2023-06-28	08:16:31	08:27:46	670116	63e530e893c44a3aefe9b29c	3	1	stereocheck_testphase	18	stereocheck_test_collectResponse	18	stimuli_target_trianglerectangles.svg	stimuli_distractor_trianglediamonds.svg	17	yes	stereocheck_right	1	299	6	6	antiphase_hc_ois.wav	3	6	6	noise_calib_stim_RIGHT.wav	2	1				0	
6.6.1	win	2023-06-28	08:16:31	08:27:46	670116	63e530e893c44a3aefe9b29c	3	1	DL_practice	21	DL_practice	2	stimuli_target_trianglerectangles.svg	stimuli_distractor_trianglediamonds.svg	17	yes	pa	1	1287	6	6	antiphase_hc_ois.wav	3	6	6	noise_calib_stim_RIGHT.wav	2	29	blb_dichoticlistening_pa-pa.mp3	pa	pa	0	left
6.6.1	win	2023-06-28	08:16:31	08:27:46	670116	63e530e893c44a3aefe9b29c	3	1	DL_practice	21	DL_practice	3	stimuli_target_trianglerectangles.svg	stimuli_distractor_trianglediamonds.svg	17	yes	ba	1	1543	6	6	antiphase_hc_ois.wav	3	6	6	noise_calib_stim_RIGHT.wav	2	7	blb_dichoticlistening_da-ba.mp3	da	ba	1	right
6.6.1	win	2023-06-28	08:16:31	08:27:46	670116	63e530e893c44a3aefe9b29c	3	1	DL_practice	21	DL_practice	4	stimuli_target_trianglerectangles.svg	stimuli_distractor_trianglediamonds.svg	17	yes	ta	1	1446	6	6	antiphase_hc_ois.wav	3	6	6	noise_calib_stim_RIGHT.wav	2	36	blb_dichoticlistening_ta-ta.mp3	ta	ta	0	left
6.6.1	win	2023-06-28	08:16:31	08:27:46	670116	63e530e893c44a3aefe9b29c	3	1	DL_practice	21	DL_practice	5	stimuli_target_trianglerectangles.svg	stimuli_distractor_trianglediamonds.svg	17	yes	ga	0	1065	6	6	antiphase_hc_ois.wav	3	6	6	noise_calib_stim_RIGHT.wav	2	8	blb_dichoticlistening_da-da.mp3	da	da	0	other
6.6.1	win	2023-06-28	08:16:31	08:27:46	670116	63e530e893c44a3aefe9b29c	3	1	DL_practice	21	DL_practice	6	stimuli_target_trianglerectangles.svg	stimuli_distractor_trianglediamonds.svg	17	yes	ka	1	993	6	6	antiphase_hc_ois.wav	3	6	6	noise_calib_stim_RIGHT.wav	2	22	blb_dichoticlistening_ka-ka.mp3	ka	ka	0	left
6.6.1	win	2023-06-28	08:16:31	08:27:46	670116	63e530e893c44a3aefe9b29c	3	1	DL_practice	21	DL_practice	7	stimuli_target_trianglerectangles.svg	stimuli_distractor_trianglediamonds.svg	17	yes	ga	1	1669	6	6	antiphase_hc_ois.wav	3	6	6	noise_calib_stim_RIGHT.wav	2	18	blb_dichoticlistening_ga-ta.mp3	ga	ta	1	left
6.6.1	win	2023-06-28	08:16:31	08:27:46	670116	63e530e893c44a3aefe9b29c	3	1	DL_practice	21	DL_practice	8	stimuli_target_trianglerectangles.svg	stimuli_distractor_trianglediamonds.svg	17	yes	ba	1	1037	6	6	antiphase_hc_ois.wav	3	6	6	noise_calib_stim_RIGHT.wav	2	1	blb_dichoticlistening_ba-ba.mp3	ba	ba	0	left
6.6.1	win	2023-06-28	08:16:31	08:27:46	670116	63e530e893c44a3aefe9b29c	3	1	DL_practice	21	DL_practice	9	stimuli_target_trianglerectangles.svg	stimuli_distractor_trianglediamonds.svg	17	yes	ka	1	1111	6	6	antiphase_hc_ois.wav	3	6	6	noise_calib_stim_RIGHT.wav	2	23	blb_dichoticlistening_ka-pa.mp3	ka	pa	1	left
6.6.1	win	2023-06-28	08:16:31	08:27:46	670116	63e530e893c44a3aefe9b29c	3	1	DL_practice	21	DL_practice	10	stimuli_target_trianglerectangles.svg	stimuli_distractor_trianglediamonds.svg	17	yes	ga	1	898	6	6	antiphase_hc_ois.wav	3	6	6	noise_calib_stim_RIGHT.wav	2	15	blb_dichoticlistening_ga-ga.mp3	ga	ga	0	left
6.6.1	win	2023-06-28	08:16:31	08:27:46	670116	63e530e893c44a3aefe9b29c	3	1	DL_test	23	DL_test	1	stimuli_target_trianglerectangles.svg	stimuli_distractor_trianglediamonds.svg	17	yes	da	0	813	6	6	antiphase_hc_ois.wav	3	6	6	noise_calib_stim_RIGHT.wav	2	3	blb_dichoticlistening_ba-ga.mp3	ba	ga	1	other
6.6.1	win	2023-06-28	08:16:31	08:27:46	670116	63e530e893c44a3aefe9b29c	3	1	DL_test	23	DL_test	2	stimuli_target_trianglerectangles.svg	stimuli_distractor_trianglediamonds.svg	17	yes	ba	0	19	6	6	antiphase_hc_ois.wav	3	6	6	noise_calib_stim_RIGHT.wav	2	22	blb_dichoticlistening_ka-ka.mp3	ka	ka	0	other
6.6.1	win	2023-06-28	08:16:31	08:27:46	670116	63e530e893c44a3aefe9b29c	3	1	DL_test	23	DL_test	3	stimuli_target_trianglerectangles.svg	stimuli_distractor_trianglediamonds.svg	17	yes	ba	0	1284	6	6	antiphase_hc_ois.wav	3	6	6	noise_calib_stim_RIGHT.wav	2	10	blb_dichoticlistening_da-ka.mp3	da	ka	1	other
6.6.1	win	2023-06-28	08:16:31	08:27:46	670116	63e530e893c44a3aefe9b29c	3	1	DL_test	23	DL_test	4	stimuli_target_trianglerectangles.svg	stimuli_distractor_trianglediamonds.svg	17	yes	ba	1	973	6	6	antiphase_hc_ois.wav	3	6	6	noise_calib_stim_RIGHT.wav	2	13	blb_dichoticlistening_ga-ba.mp3	ga	ba	1	right
6.6.1	win	2023-06-28	08:16:31	08:27:46	670116	63e530e893c44a3aefe9b29c	3	1	DL_test	23	DL_test	5	stimuli_target_trianglerectangles.svg	stimuli_distractor_trianglediamonds.svg	17	yes	ga	0	914	6	6	antiphase_hc_ois.wav	3	6	6	noise_calib_stim_RIGHT.wav	2	8	blb_dichoticlistening_da-da.mp3	da	da	0	other
6.6.1	win	2023-06-28	08:16:31	08:27:46	670116	63e530e893c44a3aefe9b29c	3	1	DL_test	23	DL_test	6	stimuli_target_trianglerectangles.svg	stimuli_distractor_trianglediamonds.svg	17	yes	ga	1	758	6	6	antiphase_hc_ois.wav	3	6	6	noise_calib_stim_RIGHT.wav	2	18	blb_dichoticlistening_ga-ta.mp3	ga	ta	1	left
6.6.1	win	2023-06-28	08:16:31	08:27:46	670116	63e530e893c44a3aefe9b29c	3	1	DL_test	23	DL_test	7	stimuli_target_trianglerectangles.svg	stimuli_distractor_trianglediamonds.svg	17	yes	ga	1	554	6	6	antiphase_hc_ois.wav	3	6	6	noise_calib_stim_RIGHT.wav	2	21	blb_dichoticlistening_ka-ga.mp3	ka	ga	1	right
6.6.1	win	2023-06-28	08:16:31	08:27:46	670116	63e530e893c44a3aefe9b29c	3	1	DL_test	23	DL_test	8	stimuli_target_trianglerectangles.svg	stimuli_distractor_trianglediamonds.svg	17	yes	ga	1	639	6	6	antiphase_hc_ois.wav	3	6	6	noise_calib_stim_RIGHT.wav	2	27	blb_dichoticlistening_pa-ga.mp3	pa	ga	1	right
6.6.1	win	2023-06-28	08:16:31	08:27:46	670116	63e530e893c44a3aefe9b29c	3	1	DL_test	23	DL_test	9	stimuli_target_trianglerectangles.svg	stimuli_distractor_trianglediamonds.svg	17	yes	ga	0	607	6	6	antiphase_hc_ois.wav	3	6	6	noise_calib_stim_RIGHT.wav	2	11	blb_dichoticlistening_da-pa.mp3	da	pa	1	other
6.6.1	win	2023-06-28	08:16:31	08:27:46	670116	63e530e893c44a3aefe9b29c	3	1	DL_test	23	DL_test	10	stimuli_target_trianglerectangles.svg	stimuli_distractor_trianglediamonds.svg	17	yes	ta	1	1902	6	6	antiphase_hc_ois.wav	3	6	6	noise_calib_stim_RIGHT.wav	2	36	blb_dichoticlistening_ta-ta.mp3	ta	ta	0	left
6.6.1	win	2023-06-28	08:16:31	08:27:46	670116	63e530e893c44a3aefe9b29c	3	1	DL_test	23	DL_test	11	stimuli_target_trianglerectangles.svg	stimuli_distractor_trianglediamonds.svg	17	yes	da	1	1102	6	6	antiphase_hc_ois.wav	3	6	6	noise_calib_stim_RIGHT.wav	2	12	blb_dichoticlistening_da-ta.mp3	da	ta	1	left
6.6.1	win	2023-06-28	08:16:31	08:27:46	670116	63e530e893c44a3aefe9b29c	3	1	DL_test	23	DL_test	12	stimuli_target_trianglerectangles.svg	stimuli_distractor_trianglediamonds.svg	17	yes	ga	1	888	6	6	antiphase_hc_ois.wav	3	6	6	noise_calib_stim_RIGHT.wav	2	9	blb_dichoticlistening_da-ga.mp3	da	ga	1	right
6.6.1	win	2023-06-28	08:16:31	08:27:46	670116	63e530e893c44a3aefe9b29c	3	1	DL_test	23	DL_test	13	stimuli_target_trianglerectangles.svg	stimuli_distractor_trianglediamonds.svg	17	yes	ga	0	652	6	6	antiphase_hc_ois.wav	3	6	6	noise_calib_stim_RIGHT.wav	2	26	blb_dichoticlistening_pa-da.mp3	pa	da	1	other
6.6.1	win	2023-06-28	08:16:31	08:27:46	670116	63e530e893c44a3aefe9b29c	3	1	DL_test	23	DL_test	14	stimuli_target_trianglerectangles.svg	stimuli_distractor_trianglediamonds.svg	17	yes	ka	1	900	6	6	antiphase_hc_ois.wav	3	6	6	noise_calib_stim_RIGHT.wav	2	28	blb_dichoticlistening_pa-ka.mp3	pa	ka	1	right
6.6.1	win	2023-06-28	08:16:31	08:27:46	670116	63e530e893c44a3aefe9b29c	3	1	DL_test	23	DL_test	15	stimuli_target_trianglerectangles.svg	stimuli_distractor_trianglediamonds.svg	17	yes	pa	1	958	6	6	antiphase_hc_ois.wav	3	6	6	noise_calib_stim_RIGHT.wav	2	29	blb_dichoticlistening_pa-pa.mp3	pa	pa	0	left
6.6.1	win	2023-06-28	08:16:31	08:27:46	670116	63e530e893c44a3aefe9b29c	3	1	DL_test	23	DL_test	16	stimuli_target_trianglerectangles.svg	stimuli_distractor_trianglediamonds.svg	17	yes	ka	1	815	6	6	antiphase_hc_ois.wav	3	6	6	noise_calib_stim_RIGHT.wav	2	24	blb_dichoticlistening_ka-ta.mp3	ka	ta	1	left
6.6.1	win	2023-06-28	08:16:31	08:27:46	670116	63e530e893c44a3aefe9b29c	3	1	DL_test	23	DL_test	17	stimuli_target_trianglerectangles.svg	stimuli_distractor_trianglediamonds.svg	17	yes	ga	1	913	6	6	antiphase_hc_ois.wav	3	6	6	noise_calib_stim_RIGHT.wav	2	17	blb_dichoticlistening_ga-pa.mp3	ga	pa	1	left
6.6.1	win	2023-06-28	08:16:31	08:27:46	670116	63e530e893c44a3aefe9b29c	3	1	DL_test	23	DL_test	18	stimuli_target_trianglerectangles.svg	stimuli_distractor_trianglediamonds.svg	17	yes	ba	1	1209	6	6	antiphase_hc_ois.wav	3	6	6	noise_calib_stim_RIGHT.wav	2	4	blb_dichoticlistening_ba-ka.mp3	ba	ka	1	left
6.6.1	win	2023-06-28	08:16:31	08:27:46	670116	63e530e893c44a3aefe9b29c	3	1	DL_test	23	DL_test	19	stimuli_target_trianglerectangles.svg	stimuli_distractor_trianglediamonds.svg	17	yes	ga	1	1035	6	6	antiphase_hc_ois.wav	3	6	6	noise_calib_stim_RIGHT.wav	2	15	blb_dichoticlistening_ga-ga.mp3	ga	ga	0	left
6.6.1	win	2023-06-28	08:16:31	08:27:46	670116	63e530e893c44a3aefe9b29c	3	1	DL_test	23	DL_test	20	stimuli_target_trianglerectangles.svg	stimuli_distractor_trianglediamonds.svg	17	yes	ba	1	1098	6	6	antiphase_hc_ois.wav	3	6	6	noise_calib_stim_RIGHT.wav	2	19	blb_dichoticlistening_ka-ba.mp3	ka	ba	1	right
6.6.1	win	2023-06-28	08:16:31	08:27:46	670116	63e530e893c44a3aefe9b29c	3	1	DL_test	23	DL_test	21	stimuli_target_trianglerectangles.svg	stimuli_distractor_trianglediamonds.svg	17	yes	ga	0	1454	6	6	antiphase_hc_ois.wav	3	6	6	noise_calib_stim_RIGHT.wav	2	6	blb_dichoticlistening_ba-ta.mp3	ba	ta	1	other
6.6.1	win	2023-06-28	08:16:31	08:27:46	670116	63e530e893c44a3aefe9b29c	3	1	DL_test	23	DL_test	22	stimuli_target_trianglerectangles.svg	stimuli_distractor_trianglediamonds.svg	17	yes	ba	1	886	6	6	antiphase_hc_ois.wav	3	6	6	noise_calib_stim_RIGHT.wav	2	5	blb_dichoticlistening_ba-pa.mp3	ba	pa	1	left
6.6.1	win	2023-06-28	08:16:31	08:27:46	670116	63e530e893c44a3aefe9b29c	3	1	DL_test	23	DL_test	23	stimuli_target_trianglerectangles.svg	stimuli_distractor_trianglediamonds.svg	17	yes	ta	1	1160	6	6	antiphase_hc_ois.wav	3	6	6	noise_calib_stim_RIGHT.wav	2	35	blb_dichoticlistening_ta-pa.mp3	ta	pa	1	left
6.6.1	win	2023-06-28	08:16:31	08:27:46	670116	63e530e893c44a3aefe9b29c	3	1	DL_test	23	DL_test	24	stimuli_target_trianglerectangles.svg	stimuli_distractor_trianglediamonds.svg	17	yes	ga	0	952	6	6	antiphase_hc_ois.wav	3	6	6	noise_calib_stim_RIGHT.wav	2	20	blb_dichoticlistening_ka-da.mp3	ka	da	1	other
6.6.1	win	2023-06-28	08:16:31	08:27:46	670116	63e530e893c44a3aefe9b29c	3	1	DL_test	23	DL_test	25	stimuli_target_trianglerectangles.svg	stimuli_distractor_trianglediamonds.svg	17	yes	ka	1	880	6	6	antiphase_hc_ois.wav	3	6	6	noise_calib_stim_RIGHT.wav	2	34	blb_dichoticlistening_ta-ka.mp3	ta	ka	1	right
6.6.1	win	2023-06-28	08:16:31	08:27:46	670116	63e530e893c44a3aefe9b29c	3	1	DL_test	23	DL_test	26	stimuli_target_trianglerectangles.svg	stimuli_distractor_trianglediamonds.svg	17	yes	ga	1	724	6	6	antiphase_hc_ois.wav	3	6	6	noise_calib_stim_RIGHT.wav	2	14	blb_dichoticlistening_ga-da.mp3	ga	da	1	left
