build	computer.platform	date	time	timestamp	time_elapsed_ms	subject	group	session	blockcode	blocknum	trialcode	trialnum	stimulus_left	stimulus_right	stim_index	target_present	response	correct	latency	headphonecheck_countTestTrials	headphonecheck_index	headphonecheck_testSound	headphonecheck_correctResponse	stereocheck_countTestTrials	stereocheck_index	stereocheck_testSound	stereocheck_correctResponse	DL_index	DL_soundfile	DL_leftSound	DL_rightSound	DL_dualSound	DL_choice
6.6.1	win	2023-06-26	23:45:58	23:48:49	164157	5db061b0f876e1001620e2ee	4	1	practice_z	5	practice_z	1	stimuli_target_squarediamonds.svg	stimuli_distractor_diamondtriangles.svg	2	yes	0	0	2000	0	0			0	0			1				0	
6.6.1	win	2023-06-26	23:45:58	23:48:49	164157	5db061b0f876e1001620e2ee	4	1	practice_z	5	advance_on_keypress_ZEE	2	stimuli_target_squarediamonds.svg	stimuli_distractor_diamondtriangles.svg	2	yes	57	0	2322	0	0			0	0			1				0	
6.6.1	win	2023-06-26	23:45:58	23:48:55	170124	5db061b0f876e1001620e2ee	4	1	practice_z	5	practice_z	3	stimuli_distractor_trianglediamonds.svg	stimuli_distractor_trianglediamonds.svg	15	no	0	1	2000	0	0			0	0			1				0	
6.6.1	win	2023-06-26	23:45:58	23:48:55	170124	5db061b0f876e1001620e2ee	4	1	practice_z	5	advance_on_keypress_ZEE	4	stimuli_distractor_trianglediamonds.svg	stimuli_distractor_trianglediamonds.svg	15	no	57	0	3510	0	0			0	0			1				0	
6.6.1	win	2023-06-26	23:45:58	23:49:01	176268	5db061b0f876e1001620e2ee	4	1	practice_z	5	practice_z	5	stimuli_target_squarediamonds.svg	stimuli_distractor_trianglediamonds.svg	5	yes	44	1	981	0	0			0	0			1				0	
6.6.1	win	2023-06-26	23:45:58	23:49:01	176268	5db061b0f876e1001620e2ee	4	1	practice_z	5	advance_on_keypress_ZEE	6	stimuli_target_squarediamonds.svg	stimuli_distractor_trianglediamonds.svg	5	yes	57	0	1115	0	0			0	0			1				0	
6.6.1	win	2023-06-26	23:45:58	23:49:05	179743	5db061b0f876e1001620e2ee	4	1	practice_z	5	practice_z	7	stimuli_target_rectanglediamonds.svg	stimuli_distractor_diamondtriangles.svg	1	yes	44	1	705	0	0			0	0			1				0	
6.6.1	win	2023-06-26	23:45:58	23:49:05	179743	5db061b0f876e1001620e2ee	4	1	practice_z	5	advance_on_keypress_ZEE	8	stimuli_target_rectanglediamonds.svg	stimuli_distractor_diamondtriangles.svg	1	yes	57	0	1049	0	0			0	0			1				0	
6.6.1	win	2023-06-26	23:45:58	23:49:08	183240	5db061b0f876e1001620e2ee	4	1	practice_z	5	practice_z	9	stimuli_target_diamondsquares.svg	stimuli_distractor_diamondtriangles.svg	3	yes	44	1	804	0	0			0	0			1				0	
6.6.1	win	2023-06-26	23:45:58	23:49:08	183240	5db061b0f876e1001620e2ee	4	1	practice_z	5	advance_on_keypress_ZEE	10	stimuli_target_diamondsquares.svg	stimuli_distractor_diamondtriangles.svg	3	yes	57	0	1137	0	0			0	0			1				0	
6.6.1	win	2023-06-26	23:45:58	23:49:12	186895	5db061b0f876e1001620e2ee	4	1	practice_z	5	practice_z	11	stimuli_distractor_diamondtriangles.svg	stimuli_target_trianglerectangles.svg	9	yes	44	1	878	0	0			0	0			1				0	
6.6.1	win	2023-06-26	23:45:58	23:49:12	186895	5db061b0f876e1001620e2ee	4	1	practice_z	5	advance_on_keypress_ZEE	12	stimuli_distractor_diamondtriangles.svg	stimuli_target_trianglerectangles.svg	9	yes	57	0	902	0	0			0	0			1				0	
6.6.1	win	2023-06-26	23:45:58	23:49:15	190193	5db061b0f876e1001620e2ee	4	1	practice_z	5	practice_z	13	stimuli_distractor_diamondtriangles.svg	stimuli_target_rectangletriangles.svg	7	yes	44	1	751	0	0			0	0			1				0	
6.6.1	win	2023-06-26	23:45:58	23:49:15	190193	5db061b0f876e1001620e2ee	4	1	practice_z	5	advance_on_keypress_ZEE	14	stimuli_distractor_diamondtriangles.svg	stimuli_target_rectangletriangles.svg	7	yes	57	0	3157	0	0			0	0			1				0	
6.6.1	win	2023-06-26	23:45:58	23:49:21	196107	5db061b0f876e1001620e2ee	4	1	practice_z	5	practice_z	15	stimuli_distractor_diamondtriangles.svg	stimuli_distractor_trianglediamonds.svg	14	no	44	0	1125	0	0			0	0			1				0	
6.6.1	win	2023-06-26	23:45:58	23:49:21	196107	5db061b0f876e1001620e2ee	4	1	practice_z	5	advance_on_keypress_ZEE	16	stimuli_distractor_diamondtriangles.svg	stimuli_distractor_trianglediamonds.svg	14	no	57	0	2241	0	0			0	0			1				0	
6.6.1	win	2023-06-26	23:45:58	23:49:26	201357	5db061b0f876e1001620e2ee	4	1	practice_z	5	practice_z	17	stimuli_target_rectanglediamonds.svg	stimuli_distractor_trianglediamonds.svg	4	yes	44	1	1355	0	0			0	0			1				0	
6.6.1	win	2023-06-26	23:45:58	23:49:26	201357	5db061b0f876e1001620e2ee	4	1	practice_z	5	advance_on_keypress_ZEE	18	stimuli_target_rectanglediamonds.svg	stimuli_distractor_trianglediamonds.svg	4	yes	57	0	594	0	0			0	0			1				0	
6.6.1	win	2023-06-26	23:45:58	23:49:29	204431	5db061b0f876e1001620e2ee	4	1	practice_z	5	practice_z	19	stimuli_distractor_trianglediamonds.svg	stimuli_target_rectanglediamonds.svg	10	yes	44	1	824	0	0			0	0			1				0	
6.6.1	win	2023-06-26	23:45:58	23:49:29	204431	5db061b0f876e1001620e2ee	4	1	practice_z	5	advance_on_keypress_ZEE	20	stimuli_distractor_trianglediamonds.svg	stimuli_target_rectanglediamonds.svg	10	yes	57	0	522	0	0			0	0			1				0	
6.6.1	win	2023-06-26	23:45:58	23:49:34	208596	5db061b0f876e1001620e2ee	4	1	practice_z	5	practice_z	21	stimuli_target_diamondsquares.svg	stimuli_distractor_trianglediamonds.svg	6	yes	0	0	2000	0	0			0	0			1				0	
6.6.1	win	2023-06-26	23:45:58	23:49:34	208596	5db061b0f876e1001620e2ee	4	1	practice_z	5	advance_on_keypress_ZEE	22	stimuli_target_diamondsquares.svg	stimuli_distractor_trianglediamonds.svg	6	yes	57	0	502	0	0			0	0			1				0	
6.6.1	win	2023-06-26	23:45:58	23:49:37	211723	5db061b0f876e1001620e2ee	4	1	practice_z	5	practice_z	23	stimuli_distractor_trianglediamonds.svg	stimuli_target_squarediamonds.svg	11	yes	44	1	986	0	0			0	0			1				0	
6.6.1	win	2023-06-26	23:45:58	23:49:37	211723	5db061b0f876e1001620e2ee	4	1	practice_z	5	advance_on_keypress_ZEE	24	stimuli_distractor_trianglediamonds.svg	stimuli_target_squarediamonds.svg	11	yes	57	0	3507	0	0			0	0			1				0	
6.6.1	win	2023-06-26	23:45:58	23:49:43	218145	5db061b0f876e1001620e2ee	4	1	practice_z	5	practice_z	25	stimuli_distractor_trianglediamonds.svg	stimuli_target_diamondrectangles.svg	12	yes	44	1	1269	0	0			0	0			1				0	
6.6.1	win	2023-06-26	23:45:58	23:49:43	218145	5db061b0f876e1001620e2ee	4	1	practice_z	5	advance_on_keypress_ZEE	26	stimuli_distractor_trianglediamonds.svg	stimuli_target_diamondrectangles.svg	12	yes	57	0	816	0	0			0	0			1				0	
6.6.1	win	2023-06-26	23:45:58	23:49:47	221665	5db061b0f876e1001620e2ee	4	1	practice_z	5	practice_z	27	stimuli_distractor_diamondtriangles.svg	stimuli_target_diamondrectangles.svg	8	yes	44	1	1065	0	0			0	0			1				0	
6.6.1	win	2023-06-26	23:45:58	23:49:47	221665	5db061b0f876e1001620e2ee	4	1	practice_z	5	advance_on_keypress_ZEE	28	stimuli_distractor_diamondtriangles.svg	stimuli_target_diamondrectangles.svg	8	yes	57	0	3568	0	0			0	0			1				0	
6.6.1	win	2023-06-26	23:45:58	23:49:54	228869	5db061b0f876e1001620e2ee	4	1	practice_z	5	practice_z	29	stimuli_distractor_diamondtriangles.svg	stimuli_distractor_diamondtriangles.svg	13	no	0	1	2000	0	0			0	0			1				0	
6.6.1	win	2023-06-26	23:45:58	23:49:54	228869	5db061b0f876e1001620e2ee	4	1	practice_z	5	advance_on_keypress_ZEE	30	stimuli_distractor_diamondtriangles.svg	stimuli_distractor_diamondtriangles.svg	13	no	57	0	569	0	0			0	0			1				0	
6.6.1	win	2023-06-26	23:45:58	23:49:58	233089	5db061b0f876e1001620e2ee	4	1	practice_z	5	practice_z	31	stimuli_distractor_trianglediamonds.svg	stimuli_distractor_diamondtriangles.svg	16	no	0	1	2000	0	0			0	0			1				0	
6.6.1	win	2023-06-26	23:45:58	23:49:58	233089	5db061b0f876e1001620e2ee	4	1	practice_z	5	advance_on_keypress_ZEE	32	stimuli_distractor_trianglediamonds.svg	stimuli_distractor_diamondtriangles.svg	16	no	57	0	547	0	0			0	0			1				0	
6.6.1	win	2023-06-26	23:45:58	23:50:04	239093	5db061b0f876e1001620e2ee	4	1	main_z	7	main_z	1	stimuli_target_trianglesquares.svg	stimuli_distractor_trianglediamonds.svg	18	yes	44	1	567	0	0			0	0			1				0	
6.6.1	win	2023-06-26	23:45:58	23:50:04	239093	5db061b0f876e1001620e2ee	4	1	main_z	7	advance_on_keypress_ZEE	2	stimuli_target_trianglesquares.svg	stimuli_distractor_trianglediamonds.svg	18	yes	57	0	1076	0	0			0	0			1				0	
6.6.1	win	2023-06-26	23:45:58	23:50:07	241938	5db061b0f876e1001620e2ee	4	1	main_z	7	main_z	3	stimuli_target_trianglerectangles.svg	stimuli_distractor_diamondtriangles.svg	21	yes	44	1	1132	0	0			0	0			1				0	
6.6.1	win	2023-06-26	23:45:58	23:50:07	241938	5db061b0f876e1001620e2ee	4	1	main_z	7	advance_on_keypress_ZEE	4	stimuli_target_trianglerectangles.svg	stimuli_distractor_diamondtriangles.svg	21	yes	57	0	837	0	0			0	0			1				0	
6.6.1	win	2023-06-26	23:45:58	23:50:10	245416	5db061b0f876e1001620e2ee	4	1	main_z	7	main_z	5	stimuli_distractor_diamondtriangles.svg	stimuli_distractor_trianglediamonds.svg	37	no	0	1	2000	0	0			0	0			1				0	
6.6.1	win	2023-06-26	23:45:58	23:50:10	245416	5db061b0f876e1001620e2ee	4	1	main_z	7	advance_on_keypress_ZEE	6	stimuli_distractor_diamondtriangles.svg	stimuli_distractor_trianglediamonds.svg	37	no	57	0	562	0	0			0	0			1				0	
6.6.1	win	2023-06-26	23:45:58	23:50:14	248615	5db061b0f876e1001620e2ee	4	1	main_z	7	main_z	7	stimuli_distractor_diamondtriangles.svg	stimuli_target_diamondrectangles.svg	31	yes	0	0	2000	0	0			0	0			1				0	
6.6.1	win	2023-06-26	23:45:58	23:50:14	248615	5db061b0f876e1001620e2ee	4	1	main_z	7	advance_on_keypress_ZEE	8	stimuli_distractor_diamondtriangles.svg	stimuli_target_diamondrectangles.svg	31	yes	57	0	686	0	0			0	0			1				0	
6.6.1	win	2023-06-26	23:45:58	23:50:16	251196	5db061b0f876e1001620e2ee	4	1	main_z	7	main_z	9	stimuli_distractor_trianglediamonds.svg	stimuli_target_trianglerectangles.svg	25	yes	44	1	1264	0	0			0	0			1				0	
6.6.1	win	2023-06-26	23:45:58	23:50:16	251196	5db061b0f876e1001620e2ee	4	1	main_z	7	advance_on_keypress_ZEE	10	stimuli_distractor_trianglediamonds.svg	stimuli_target_trianglerectangles.svg	25	yes	57	0	1032	0	0			0	0			1				0	
6.6.1	win	2023-06-26	23:45:58	23:50:20	254855	5db061b0f876e1001620e2ee	4	1	main_z	7	main_z	11	stimuli_distractor_trianglediamonds.svg	stimuli_distractor_diamondtriangles.svg	35	no	0	1	2000	0	0			0	0			1				0	
6.6.1	win	2023-06-26	23:45:58	23:50:20	254855	5db061b0f876e1001620e2ee	4	1	main_z	7	advance_on_keypress_ZEE	12	stimuli_distractor_trianglediamonds.svg	stimuli_distractor_diamondtriangles.svg	35	no	57	0	2103	0	0			0	0			1				0	
6.6.1	win	2023-06-26	23:45:58	23:50:24	258625	5db061b0f876e1001620e2ee	4	1	main_z	7	main_z	13	stimuli_distractor_diamondtriangles.svg	stimuli_target_rectanglediamonds.svg	14	yes	44	1	1012	0	0			0	0			1				0	
6.6.1	win	2023-06-26	23:45:58	23:50:24	258625	5db061b0f876e1001620e2ee	4	1	main_z	7	advance_on_keypress_ZEE	14	stimuli_distractor_diamondtriangles.svg	stimuli_target_rectanglediamonds.svg	14	yes	57	0	893	0	0			0	0			1				0	
6.6.1	win	2023-06-26	23:45:58	23:50:27	261756	5db061b0f876e1001620e2ee	4	1	main_z	7	main_z	15	stimuli_target_rectanglediamonds.svg	stimuli_distractor_trianglediamonds.svg	2	yes	44	1	1602	0	0			0	0			1				0	
6.6.1	win	2023-06-26	23:45:58	23:50:27	261756	5db061b0f876e1001620e2ee	4	1	main_z	7	advance_on_keypress_ZEE	16	stimuli_target_rectanglediamonds.svg	stimuli_distractor_trianglediamonds.svg	2	yes	57	0	734	0	0			0	0			1				0	
6.6.1	win	2023-06-26	23:45:58	23:50:30	264708	5db061b0f876e1001620e2ee	4	1	main_z	7	main_z	17	stimuli_distractor_trianglediamonds.svg	stimuli_target_rectanglediamonds.svg	10	yes	44	1	1580	0	0			0	0			1				0	
6.6.1	win	2023-06-26	23:45:58	23:50:30	264708	5db061b0f876e1001620e2ee	4	1	main_z	7	advance_on_keypress_ZEE	18	stimuli_distractor_trianglediamonds.svg	stimuli_target_rectanglediamonds.svg	10	yes	57	0	715	0	0			0	0			1				0	
6.6.1	win	2023-06-26	23:45:58	23:50:33	268061	5db061b0f876e1001620e2ee	4	1	main_z	7	main_z	19	stimuli_distractor_diamondtriangles.svg	stimuli_distractor_diamondtriangles.svg	39	no	0	1	2000	0	0			0	0			1				0	
6.6.1	win	2023-06-26	23:45:58	23:50:33	268061	5db061b0f876e1001620e2ee	4	1	main_z	7	advance_on_keypress_ZEE	20	stimuli_distractor_diamondtriangles.svg	stimuli_distractor_diamondtriangles.svg	39	no	57	0	848	0	0			0	0			1				0	
6.6.1	win	2023-06-26	23:45:58	23:50:36	270770	5db061b0f876e1001620e2ee	4	1	main_z	7	main_z	21	stimuli_target_trianglerectangles.svg	stimuli_distractor_trianglediamonds.svg	17	yes	44	1	1219	0	0			0	0			1				0	
6.6.1	win	2023-06-26	23:45:58	23:50:36	270770	5db061b0f876e1001620e2ee	4	1	main_z	7	advance_on_keypress_ZEE	22	stimuli_target_trianglerectangles.svg	stimuli_distractor_trianglediamonds.svg	17	yes	57	0	979	0	0			0	0			1				0	
6.6.1	win	2023-06-26	23:45:58	23:50:39	274376	5db061b0f876e1001620e2ee	4	1	main_z	7	main_z	23	stimuli_target_squaretriangles.svg	stimuli_distractor_diamondtriangles.svg	7	yes	0	0	2000	0	0			0	0			1				0	
6.6.1	win	2023-06-26	23:45:58	23:50:39	274376	5db061b0f876e1001620e2ee	4	1	main_z	7	advance_on_keypress_ZEE	24	stimuli_target_squaretriangles.svg	stimuli_distractor_diamondtriangles.svg	7	yes	57	0	788	0	0			0	0			1				0	
6.6.1	win	2023-06-26	23:45:58	23:50:42	276812	5db061b0f876e1001620e2ee	4	1	main_z	7	main_z	25	stimuli_distractor_trianglediamonds.svg	stimuli_target_rectangletriangles.svg	9	yes	44	1	982	0	0			0	0			1				0	
6.6.1	win	2023-06-26	23:45:58	23:50:42	276812	5db061b0f876e1001620e2ee	4	1	main_z	7	advance_on_keypress_ZEE	26	stimuli_distractor_trianglediamonds.svg	stimuli_target_rectangletriangles.svg	9	yes	57	0	842	0	0			0	0			1				0	
6.6.1	win	2023-06-26	23:45:58	23:50:45	279562	5db061b0f876e1001620e2ee	4	1	main_z	7	main_z	27	stimuli_distractor_trianglediamonds.svg	stimuli_target_squarediamonds.svg	12	yes	44	1	1280	0	0			0	0			1				0	
6.6.1	win	2023-06-26	23:45:58	23:50:45	279562	5db061b0f876e1001620e2ee	4	1	main_z	7	advance_on_keypress_ZEE	28	stimuli_distractor_trianglediamonds.svg	stimuli_target_squarediamonds.svg	12	yes	57	0	937	0	0			0	0			1				0	
6.6.1	win	2023-06-26	23:45:58	23:50:48	283132	5db061b0f876e1001620e2ee	4	1	main_z	7	main_z	29	stimuli_target_diamondsquares.svg	stimuli_distractor_trianglediamonds.svg	20	yes	0	0	2000	0	0			0	0			1				0	
6.6.1	win	2023-06-26	23:45:58	23:50:48	283132	5db061b0f876e1001620e2ee	4	1	main_z	7	advance_on_keypress_ZEE	30	stimuli_target_diamondsquares.svg	stimuli_distractor_trianglediamonds.svg	20	yes	57	0	986	0	0			0	0			1				0	
6.6.1	win	2023-06-26	23:45:58	23:50:51	285755	5db061b0f876e1001620e2ee	4	1	main_z	7	main_z	31	stimuli_distractor_diamondtriangles.svg	stimuli_target_squaretriangles.svg	15	yes	44	1	1008	0	0			0	0			1				0	
6.6.1	win	2023-06-26	23:45:58	23:50:51	285755	5db061b0f876e1001620e2ee	4	1	main_z	7	advance_on_keypress_ZEE	32	stimuli_distractor_diamondtriangles.svg	stimuli_target_squaretriangles.svg	15	yes	57	0	823	0	0			0	0			1				0	
6.6.1	win	2023-06-26	23:45:58	23:50:54	289222	5db061b0f876e1001620e2ee	4	1	main_z	7	main_z	33	stimuli_distractor_trianglediamonds.svg	stimuli_target_diamondrectangles.svg	27	yes	0	0	2000	0	0			0	0			1				0	
6.6.1	win	2023-06-26	23:45:58	23:50:54	289222	5db061b0f876e1001620e2ee	4	1	main_z	7	advance_on_keypress_ZEE	34	stimuli_distractor_trianglediamonds.svg	stimuli_target_diamondrectangles.svg	27	yes	57	0	671	0	0			0	0			1				0	
6.6.1	win	2023-06-26	23:45:58	23:50:57	291619	5db061b0f876e1001620e2ee	4	1	main_z	7	main_z	35	stimuli_target_rectanglediamonds.svg	stimuli_distractor_diamondtriangles.svg	6	yes	44	1	1082	0	0			0	0			1				0	
6.6.1	win	2023-06-26	23:45:58	23:50:57	291619	5db061b0f876e1001620e2ee	4	1	main_z	7	advance_on_keypress_ZEE	36	stimuli_target_rectanglediamonds.svg	stimuli_distractor_diamondtriangles.svg	6	yes	57	0	1040	0	0			0	0			1				0	
6.6.1	win	2023-06-26	23:45:58	23:51:00	295303	5db061b0f876e1001620e2ee	4	1	main_z	7	main_z	37	stimuli_distractor_diamondtriangles.svg	stimuli_distractor_trianglediamonds.svg	38	no	0	1	2000	0	0			0	0			1				0	
6.6.1	win	2023-06-26	23:45:58	23:51:00	295303	5db061b0f876e1001620e2ee	4	1	main_z	7	advance_on_keypress_ZEE	38	stimuli_distractor_diamondtriangles.svg	stimuli_distractor_trianglediamonds.svg	38	no	57	0	725	0	0			0	0			1				0	
6.6.1	win	2023-06-26	23:45:58	23:51:03	298266	5db061b0f876e1001620e2ee	4	1	main_z	7	main_z	39	stimuli_distractor_trianglediamonds.svg	stimuli_target_diamondsquares.svg	28	yes	44	1	1604	0	0			0	0			1				0	
6.6.1	win	2023-06-26	23:45:58	23:51:03	298266	5db061b0f876e1001620e2ee	4	1	main_z	7	advance_on_keypress_ZEE	40	stimuli_distractor_trianglediamonds.svg	stimuli_target_diamondsquares.svg	28	yes	57	0	1107	0	0			0	0			1				0	
6.6.1	win	2023-06-26	23:45:58	23:51:07	302022	5db061b0f876e1001620e2ee	4	1	main_z	7	main_z	41	stimuli_target_diamondrectangles.svg	stimuli_distractor_trianglediamonds.svg	19	yes	0	0	2000	0	0			0	0			1				0	
6.6.1	win	2023-06-26	23:45:58	23:51:07	302022	5db061b0f876e1001620e2ee	4	1	main_z	7	advance_on_keypress_ZEE	42	stimuli_target_diamondrectangles.svg	stimuli_distractor_trianglediamonds.svg	19	yes	57	0	706	0	0			0	0			1				0	
6.6.1	win	2023-06-26	23:45:58	23:51:10	305368	5db061b0f876e1001620e2ee	4	1	main_z	7	main_z	43	stimuli_distractor_diamondtriangles.svg	stimuli_distractor_diamondtriangles.svg	40	no	0	1	2000	0	0			0	0			1				0	
6.6.1	win	2023-06-26	23:45:58	23:51:10	305368	5db061b0f876e1001620e2ee	4	1	main_z	7	advance_on_keypress_ZEE	44	stimuli_distractor_diamondtriangles.svg	stimuli_distractor_diamondtriangles.svg	40	no	57	0	982	0	0			0	0			1				0	
6.6.1	win	2023-06-26	23:45:58	23:51:13	308033	5db061b0f876e1001620e2ee	4	1	main_z	7	main_z	45	stimuli_target_squarediamonds.svg	stimuli_distractor_diamondtriangles.svg	8	yes	44	1	1042	0	0			0	0			1				0	
6.6.1	win	2023-06-26	23:45:58	23:51:13	308033	5db061b0f876e1001620e2ee	4	1	main_z	7	advance_on_keypress_ZEE	46	stimuli_target_squarediamonds.svg	stimuli_distractor_diamondtriangles.svg	8	yes	57	0	1037	0	0			0	0			1				0	
6.6.1	win	2023-06-26	23:45:58	23:51:17	311717	5db061b0f876e1001620e2ee	4	1	main_z	7	main_z	47	stimuli_target_diamondsquares.svg	stimuli_distractor_diamondtriangles.svg	24	yes	0	0	2000	0	0			0	0			1				0	
6.6.1	win	2023-06-26	23:45:58	23:51:17	311717	5db061b0f876e1001620e2ee	4	1	main_z	7	advance_on_keypress_ZEE	48	stimuli_target_diamondsquares.svg	stimuli_distractor_diamondtriangles.svg	24	yes	57	0	873	0	0			0	0			1				0	
6.6.1	win	2023-06-26	23:45:58	23:51:20	314711	5db061b0f876e1001620e2ee	4	1	main_z	7	main_z	49	stimuli_distractor_diamondtriangles.svg	stimuli_target_diamondsquares.svg	32	yes	44	1	1496	0	0			0	0			1				0	
6.6.1	win	2023-06-26	23:45:58	23:51:20	314711	5db061b0f876e1001620e2ee	4	1	main_z	7	advance_on_keypress_ZEE	50	stimuli_distractor_diamondtriangles.svg	stimuli_target_diamondsquares.svg	32	yes	57	0	898	0	0			0	0			1				0	
6.6.1	win	2023-06-26	23:45:58	23:51:23	317899	5db061b0f876e1001620e2ee	4	1	main_z	7	main_z	51	stimuli_target_squaretriangles.svg	stimuli_distractor_trianglediamonds.svg	3	yes	44	1	1645	0	0			0	0			1				0	
6.6.1	win	2023-06-26	23:45:58	23:51:23	317899	5db061b0f876e1001620e2ee	4	1	main_z	7	advance_on_keypress_ZEE	52	stimuli_target_squaretriangles.svg	stimuli_distractor_trianglediamonds.svg	3	yes	57	0	733	0	0			0	0			1				0	
6.6.1	win	2023-06-26	23:45:58	23:51:26	321297	5db061b0f876e1001620e2ee	4	1	main_z	7	main_z	53	stimuli_target_diamondrectangles.svg	stimuli_distractor_diamondtriangles.svg	23	yes	0	0	2000	0	0			0	0			1				0	
6.6.1	win	2023-06-26	23:45:58	23:51:26	321297	5db061b0f876e1001620e2ee	4	1	main_z	7	advance_on_keypress_ZEE	54	stimuli_target_diamondrectangles.svg	stimuli_distractor_diamondtriangles.svg	23	yes	57	0	580	0	0			0	0			1				0	
6.6.1	win	2023-06-26	23:45:58	23:51:29	323647	5db061b0f876e1001620e2ee	4	1	main_z	7	main_z	55	stimuli_target_rectangletriangles.svg	stimuli_distractor_diamondtriangles.svg	5	yes	44	1	1135	0	0			0	0			1				0	
6.6.1	win	2023-06-26	23:45:58	23:51:29	323647	5db061b0f876e1001620e2ee	4	1	main_z	7	advance_on_keypress_ZEE	56	stimuli_target_rectangletriangles.svg	stimuli_distractor_diamondtriangles.svg	5	yes	57	0	896	0	0			0	0			1				0	
6.6.1	win	2023-06-26	23:45:58	23:51:31	326181	5db061b0f876e1001620e2ee	4	1	main_z	7	main_z	57	stimuli_distractor_diamondtriangles.svg	stimuli_target_trianglesquares.svg	30	yes	44	1	1003	0	0			0	0			1				0	
6.6.1	win	2023-06-26	23:45:58	23:51:31	326181	5db061b0f876e1001620e2ee	4	1	main_z	7	advance_on_keypress_ZEE	58	stimuli_distractor_diamondtriangles.svg	stimuli_target_trianglesquares.svg	30	yes	57	0	622	0	0			0	0			1				0	
6.6.1	win	2023-06-26	23:45:58	23:51:34	329445	5db061b0f876e1001620e2ee	4	1	main_z	7	main_z	59	stimuli_distractor_trianglediamonds.svg	stimuli_distractor_trianglediamonds.svg	33	no	0	1	2000	0	0			0	0			1				0	
6.6.1	win	2023-06-26	23:45:58	23:51:34	329445	5db061b0f876e1001620e2ee	4	1	main_z	7	advance_on_keypress_ZEE	60	stimuli_distractor_trianglediamonds.svg	stimuli_distractor_trianglediamonds.svg	33	no	57	0	737	0	0			0	0			1				0	
6.6.1	win	2023-06-26	23:45:58	23:51:37	332474	5db061b0f876e1001620e2ee	4	1	main_z	7	main_z	61	stimuli_distractor_trianglediamonds.svg	stimuli_distractor_diamondtriangles.svg	36	no	44	0	1656	0	0			0	0			1				0	
6.6.1	win	2023-06-26	23:45:58	23:51:37	332474	5db061b0f876e1001620e2ee	4	1	main_z	7	advance_on_keypress_ZEE	62	stimuli_distractor_trianglediamonds.svg	stimuli_distractor_diamondtriangles.svg	36	no	57	0	843	0	0			0	0			1				0	
6.6.1	win	2023-06-26	23:45:58	23:51:41	335737	5db061b0f876e1001620e2ee	4	1	main_z	7	main_z	63	stimuli_distractor_diamondtriangles.svg	stimuli_target_rectangletriangles.svg	13	yes	44	1	1778	0	0			0	0			1				0	
6.6.1	win	2023-06-26	23:45:58	23:51:41	335737	5db061b0f876e1001620e2ee	4	1	main_z	7	advance_on_keypress_ZEE	64	stimuli_distractor_diamondtriangles.svg	stimuli_target_rectangletriangles.svg	13	yes	57	0	822	0	0			0	0			1				0	
6.6.1	win	2023-06-26	23:45:58	23:51:43	338152	5db061b0f876e1001620e2ee	4	1	main_z	7	main_z	65	stimuli_distractor_diamondtriangles.svg	stimuli_target_squarediamonds.svg	16	yes	44	1	953	0	0			0	0			1				0	
6.6.1	win	2023-06-26	23:45:58	23:51:43	338152	5db061b0f876e1001620e2ee	4	1	main_z	7	advance_on_keypress_ZEE	66	stimuli_distractor_diamondtriangles.svg	stimuli_target_squarediamonds.svg	16	yes	57	0	775	0	0			0	0			1				0	
6.6.1	win	2023-06-26	23:45:58	23:51:47	341587	5db061b0f876e1001620e2ee	4	1	main_z	7	main_z	67	stimuli_target_trianglesquares.svg	stimuli_distractor_diamondtriangles.svg	22	yes	0	0	2000	0	0			0	0			1				0	
6.6.1	win	2023-06-26	23:45:58	23:51:47	341587	5db061b0f876e1001620e2ee	4	1	main_z	7	advance_on_keypress_ZEE	68	stimuli_target_trianglesquares.svg	stimuli_distractor_diamondtriangles.svg	22	yes	57	0	873	0	0			0	0			1				0	
6.6.1	win	2023-06-26	23:45:58	23:51:49	344091	5db061b0f876e1001620e2ee	4	1	main_z	7	main_z	69	stimuli_target_squarediamonds.svg	stimuli_distractor_trianglediamonds.svg	4	yes	44	1	1001	0	0			0	0			1				0	
6.6.1	win	2023-06-26	23:45:58	23:51:49	344091	5db061b0f876e1001620e2ee	4	1	main_z	7	advance_on_keypress_ZEE	70	stimuli_target_squarediamonds.svg	stimuli_distractor_trianglediamonds.svg	4	yes	57	0	1453	0	0			0	0			1				0	
6.6.1	win	2023-06-26	23:45:58	23:51:52	347202	5db061b0f876e1001620e2ee	4	1	main_z	7	main_z	71	stimuli_distractor_trianglediamonds.svg	stimuli_target_trianglesquares.svg	26	yes	44	1	1028	0	0			0	0			1				0	
6.6.1	win	2023-06-26	23:45:58	23:51:52	347202	5db061b0f876e1001620e2ee	4	1	main_z	7	advance_on_keypress_ZEE	72	stimuli_distractor_trianglediamonds.svg	stimuli_target_trianglesquares.svg	26	yes	57	0	2178	0	0			0	0			1				0	
6.6.1	win	2023-06-26	23:45:58	23:51:56	350706	5db061b0f876e1001620e2ee	4	1	main_z	7	main_z	73	stimuli_distractor_trianglediamonds.svg	stimuli_target_squaretriangles.svg	11	yes	44	1	684	0	0			0	0			1				0	
6.6.1	win	2023-06-26	23:45:58	23:51:56	350706	5db061b0f876e1001620e2ee	4	1	main_z	7	advance_on_keypress_ZEE	74	stimuli_distractor_trianglediamonds.svg	stimuli_target_squaretriangles.svg	11	yes	57	0	900	0	0			0	0			1				0	
6.6.1	win	2023-06-26	23:45:58	23:51:59	354238	5db061b0f876e1001620e2ee	4	1	main_z	7	main_z	75	stimuli_distractor_diamondtriangles.svg	stimuli_target_trianglerectangles.svg	29	yes	0	0	2000	0	0			0	0			1				0	
6.6.1	win	2023-06-26	23:45:58	23:51:59	354238	5db061b0f876e1001620e2ee	4	1	main_z	7	advance_on_keypress_ZEE	76	stimuli_distractor_diamondtriangles.svg	stimuli_target_trianglerectangles.svg	29	yes	57	0	731	0	0			0	0			1				0	
6.6.1	win	2023-06-26	23:45:58	23:52:03	357608	5db061b0f876e1001620e2ee	4	1	main_z	7	main_z	77	stimuli_distractor_trianglediamonds.svg	stimuli_distractor_trianglediamonds.svg	34	no	0	1	2000	0	0			0	0			1				0	
6.6.1	win	2023-06-26	23:45:58	23:52:03	357608	5db061b0f876e1001620e2ee	4	1	main_z	7	advance_on_keypress_ZEE	78	stimuli_distractor_trianglediamonds.svg	stimuli_distractor_trianglediamonds.svg	34	no	57	0	891	0	0			0	0			1				0	
6.6.1	win	2023-06-26	23:45:58	23:52:05	360062	5db061b0f876e1001620e2ee	4	1	main_z	7	main_z	79	stimuli_target_rectangletriangles.svg	stimuli_distractor_trianglediamonds.svg	1	yes	44	1	926	0	0			0	0			1				0	
6.6.1	win	2023-06-26	23:45:58	23:52:05	360062	5db061b0f876e1001620e2ee	4	1	main_z	7	advance_on_keypress_ZEE	80	stimuli_target_rectangletriangles.svg	stimuli_distractor_trianglediamonds.svg	1	yes	57	0	712	0	0			0	0			1				0	
6.6.1	win	2023-06-26	23:45:58	23:52:07	362105	5db061b0f876e1001620e2ee	4	1	main_z	7	main_z	81	stimuli_distractor_trianglediamonds.svg	stimuli_target_rectangletriangles.svg	9	yes	44	1	695	0	0			0	0			1				0	
6.6.1	win	2023-06-26	23:45:58	23:52:07	362105	5db061b0f876e1001620e2ee	4	1	main_z	7	advance_on_keypress_ZEE	82	stimuli_distractor_trianglediamonds.svg	stimuli_target_rectangletriangles.svg	9	yes	57	0	710	0	0			0	0			1				0	
6.6.1	win	2023-06-26	23:45:58	23:52:09	364016	5db061b0f876e1001620e2ee	4	1	main_z	7	main_z	83	stimuli_distractor_trianglediamonds.svg	stimuli_target_diamondsquares.svg	28	yes	44	1	556	0	0			0	0			1				0	
6.6.1	win	2023-06-26	23:45:58	23:52:09	364016	5db061b0f876e1001620e2ee	4	1	main_z	7	advance_on_keypress_ZEE	84	stimuli_distractor_trianglediamonds.svg	stimuli_target_diamondsquares.svg	28	yes	57	0	938	0	0			0	0			1				0	
6.6.1	win	2023-06-26	23:45:58	23:52:13	367585	5db061b0f876e1001620e2ee	4	1	main_z	7	main_z	85	stimuli_target_trianglerectangles.svg	stimuli_distractor_diamondtriangles.svg	21	yes	0	0	2000	0	0			0	0			1				0	
6.6.1	win	2023-06-26	23:45:58	23:52:13	367585	5db061b0f876e1001620e2ee	4	1	main_z	7	advance_on_keypress_ZEE	86	stimuli_target_trianglerectangles.svg	stimuli_distractor_diamondtriangles.svg	21	yes	57	0	1881	0	0			0	0			1				0	
6.6.1	win	2023-06-26	23:45:58	23:52:16	370700	5db061b0f876e1001620e2ee	4	1	main_z	7	main_z	87	stimuli_target_rectangletriangles.svg	stimuli_distractor_diamondtriangles.svg	5	yes	44	1	592	0	0			0	0			1				0	
6.6.1	win	2023-06-26	23:45:58	23:52:16	370700	5db061b0f876e1001620e2ee	4	1	main_z	7	advance_on_keypress_ZEE	88	stimuli_target_rectangletriangles.svg	stimuli_distractor_diamondtriangles.svg	5	yes	57	0	844	0	0			0	0			1				0	
6.6.1	win	2023-06-26	23:45:58	23:52:18	372616	5db061b0f876e1001620e2ee	4	1	main_z	7	main_z	89	stimuli_distractor_diamondtriangles.svg	stimuli_distractor_trianglediamonds.svg	37	no	44	0	433	0	0			0	0			1				0	
6.6.1	win	2023-06-26	23:45:58	23:52:18	372616	5db061b0f876e1001620e2ee	4	1	main_z	7	advance_on_keypress_ZEE	90	stimuli_distractor_diamondtriangles.svg	stimuli_distractor_trianglediamonds.svg	37	no	57	0	869	0	0			0	0			1				0	
6.6.1	win	2023-06-26	23:45:58	23:52:21	376107	5db061b0f876e1001620e2ee	4	1	main_z	7	main_z	91	stimuli_target_trianglerectangles.svg	stimuli_distractor_trianglediamonds.svg	17	yes	0	0	2000	0	0			0	0			1				0	
6.6.1	win	2023-06-26	23:45:58	23:52:21	376107	5db061b0f876e1001620e2ee	4	1	main_z	7	advance_on_keypress_ZEE	92	stimuli_target_trianglerectangles.svg	stimuli_distractor_trianglediamonds.svg	17	yes	57	0	1065	0	0			0	0			1				0	
6.6.1	win	2023-06-26	23:45:58	23:52:23	378332	5db061b0f876e1001620e2ee	4	1	main_z	7	main_z	93	stimuli_target_diamondsquares.svg	stimuli_distractor_trianglediamonds.svg	20	yes	44	1	524	0	0			0	0			1				0	
6.6.1	win	2023-06-26	23:45:58	23:52:23	378332	5db061b0f876e1001620e2ee	4	1	main_z	7	advance_on_keypress_ZEE	94	stimuli_target_diamondsquares.svg	stimuli_distractor_trianglediamonds.svg	20	yes	57	0	932	0	0			0	0			1				0	
6.6.1	win	2023-06-26	23:45:58	23:52:27	381889	5db061b0f876e1001620e2ee	4	1	main_z	7	main_z	95	stimuli_distractor_trianglediamonds.svg	stimuli_target_rectanglediamonds.svg	10	yes	0	0	2000	0	0			0	0			1				0	
6.6.1	win	2023-06-26	23:45:58	23:52:27	381889	5db061b0f876e1001620e2ee	4	1	main_z	7	advance_on_keypress_ZEE	96	stimuli_distractor_trianglediamonds.svg	stimuli_target_rectanglediamonds.svg	10	yes	57	0	1651	0	0			0	0			1				0	
6.6.1	win	2023-06-26	23:45:58	23:52:30	385242	5db061b0f876e1001620e2ee	4	1	main_z	7	main_z	97	stimuli_distractor_diamondtriangles.svg	stimuli_target_diamondrectangles.svg	31	yes	44	1	1054	0	0			0	0			1				0	
6.6.1	win	2023-06-26	23:45:58	23:52:30	385242	5db061b0f876e1001620e2ee	4	1	main_z	7	advance_on_keypress_ZEE	98	stimuli_distractor_diamondtriangles.svg	stimuli_target_diamondrectangles.svg	31	yes	57	0	813	0	0			0	0			1				0	
6.6.1	win	2023-06-26	23:45:58	23:52:32	387267	5db061b0f876e1001620e2ee	4	1	main_z	7	main_z	99	stimuli_distractor_diamondtriangles.svg	stimuli_target_rectangletriangles.svg	13	yes	44	1	563	0	0			0	0			1				0	
6.6.1	win	2023-06-26	23:45:58	23:52:32	387267	5db061b0f876e1001620e2ee	4	1	main_z	7	advance_on_keypress_ZEE	100	stimuli_distractor_diamondtriangles.svg	stimuli_target_rectangletriangles.svg	13	yes	57	0	802	0	0			0	0			1				0	
6.6.1	win	2023-06-26	23:45:58	23:52:36	390711	5db061b0f876e1001620e2ee	4	1	main_z	7	main_z	101	stimuli_distractor_trianglediamonds.svg	stimuli_distractor_trianglediamonds.svg	33	no	0	1	2000	0	0			0	0			1				0	
6.6.1	win	2023-06-26	23:45:58	23:52:36	390711	5db061b0f876e1001620e2ee	4	1	main_z	7	advance_on_keypress_ZEE	102	stimuli_distractor_trianglediamonds.svg	stimuli_distractor_trianglediamonds.svg	33	no	57	0	1957	0	0			0	0			1				0	
6.6.1	win	2023-06-26	23:45:58	23:52:39	394149	5db061b0f876e1001620e2ee	4	1	main_z	7	main_z	103	stimuli_target_diamondrectangles.svg	stimuli_distractor_diamondtriangles.svg	23	yes	44	1	846	0	0			0	0			1				0	
6.6.1	win	2023-06-26	23:45:58	23:52:39	394149	5db061b0f876e1001620e2ee	4	1	main_z	7	advance_on_keypress_ZEE	104	stimuli_target_diamondrectangles.svg	stimuli_distractor_diamondtriangles.svg	23	yes	57	0	648	0	0			0	0			1				0	
6.6.1	win	2023-06-26	23:45:58	23:52:41	396276	5db061b0f876e1001620e2ee	4	1	main_z	7	main_z	105	stimuli_target_squarediamonds.svg	stimuli_distractor_diamondtriangles.svg	8	yes	44	1	841	0	0			0	0			1				0	
6.6.1	win	2023-06-26	23:45:58	23:52:41	396276	5db061b0f876e1001620e2ee	4	1	main_z	7	advance_on_keypress_ZEE	106	stimuli_target_squarediamonds.svg	stimuli_distractor_diamondtriangles.svg	8	yes	57	0	585	0	0			0	0			1				0	
6.6.1	win	2023-06-26	23:45:58	23:52:43	398191	5db061b0f876e1001620e2ee	4	1	main_z	7	main_z	107	stimuli_distractor_diamondtriangles.svg	stimuli_target_squaretriangles.svg	15	yes	44	1	690	0	0			0	0			1				0	
6.6.1	win	2023-06-26	23:45:58	23:52:43	398191	5db061b0f876e1001620e2ee	4	1	main_z	7	advance_on_keypress_ZEE	108	stimuli_distractor_diamondtriangles.svg	stimuli_target_squaretriangles.svg	15	yes	57	0	607	0	0			0	0			1				0	
6.6.1	win	2023-06-26	23:45:58	23:52:45	399834	5db061b0f876e1001620e2ee	4	1	main_z	7	main_z	109	stimuli_target_rectanglediamonds.svg	stimuli_distractor_trianglediamonds.svg	2	yes	44	1	410	0	0			0	0			1				0	
6.6.1	win	2023-06-26	23:45:58	23:52:45	399834	5db061b0f876e1001620e2ee	4	1	main_z	7	advance_on_keypress_ZEE	110	stimuli_target_rectanglediamonds.svg	stimuli_distractor_trianglediamonds.svg	2	yes	57	0	719	0	0			0	0			1				0	
6.6.1	win	2023-06-26	23:45:58	23:52:47	401523	5db061b0f876e1001620e2ee	4	1	main_z	7	main_z	111	stimuli_distractor_trianglediamonds.svg	stimuli_target_trianglerectangles.svg	25	yes	44	1	339	0	0			0	0			1				0	
6.6.1	win	2023-06-26	23:45:58	23:52:47	401523	5db061b0f876e1001620e2ee	4	1	main_z	7	advance_on_keypress_ZEE	112	stimuli_distractor_trianglediamonds.svg	stimuli_target_trianglerectangles.svg	25	yes	57	0	1063	0	0			0	0			1				0	
6.6.1	win	2023-06-26	23:45:58	23:52:48	403484	5db061b0f876e1001620e2ee	4	1	main_z	7	main_z	113	stimuli_distractor_diamondtriangles.svg	stimuli_target_diamondsquares.svg	32	yes	44	1	260	0	0			0	0			1				0	
6.6.1	win	2023-06-26	23:45:58	23:52:48	403484	5db061b0f876e1001620e2ee	4	1	main_z	7	advance_on_keypress_ZEE	114	stimuli_distractor_diamondtriangles.svg	stimuli_target_diamondsquares.svg	32	yes	57	0	824	0	0			0	0			1				0	
6.6.1	win	2023-06-26	23:45:58	23:52:51	406126	5db061b0f876e1001620e2ee	4	1	main_z	7	main_z	115	stimuli_target_trianglesquares.svg	stimuli_distractor_trianglediamonds.svg	18	yes	44	1	1176	0	0			0	0			1				0	
6.6.1	win	2023-06-26	23:45:58	23:52:51	406126	5db061b0f876e1001620e2ee	4	1	main_z	7	advance_on_keypress_ZEE	116	stimuli_target_trianglesquares.svg	stimuli_distractor_trianglediamonds.svg	18	yes	57	0	2516	0	0			0	0			1				0	
6.6.1	win	2023-06-26	23:45:58	23:52:56	411294	5db061b0f876e1001620e2ee	4	1	main_z	7	main_z	117	stimuli_distractor_diamondtriangles.svg	stimuli_distractor_diamondtriangles.svg	39	no	0	1	2000	0	0			0	0			1				0	
6.6.1	win	2023-06-26	23:45:58	23:52:56	411294	5db061b0f876e1001620e2ee	4	1	main_z	7	advance_on_keypress_ZEE	118	stimuli_distractor_diamondtriangles.svg	stimuli_distractor_diamondtriangles.svg	39	no	57	0	3373	0	0			0	0			1				0	
6.6.1	win	2023-06-26	23:45:58	23:53:01	415905	5db061b0f876e1001620e2ee	4	1	main_z	7	main_z	119	stimuli_distractor_diamondtriangles.svg	stimuli_target_trianglesquares.svg	30	yes	44	1	600	0	0			0	0			1				0	
6.6.1	win	2023-06-26	23:45:58	23:53:01	415905	5db061b0f876e1001620e2ee	4	1	main_z	7	advance_on_keypress_ZEE	120	stimuli_distractor_diamondtriangles.svg	stimuli_target_trianglesquares.svg	30	yes	57	0	864	0	0			0	0			1				0	
6.6.1	win	2023-06-26	23:45:58	23:53:04	418530	5db061b0f876e1001620e2ee	4	1	main_z	7	main_z	121	stimuli_target_diamondrectangles.svg	stimuli_distractor_trianglediamonds.svg	19	yes	44	1	1126	0	0			0	0			1				0	
6.6.1	win	2023-06-26	23:45:58	23:53:04	418530	5db061b0f876e1001620e2ee	4	1	main_z	7	advance_on_keypress_ZEE	122	stimuli_target_diamondrectangles.svg	stimuli_distractor_trianglediamonds.svg	19	yes	57	0	3924	0	0			0	0			1				0	
6.6.1	win	2023-06-26	23:45:58	23:53:09	423542	5db061b0f876e1001620e2ee	4	1	main_z	7	main_z	123	stimuli_target_trianglesquares.svg	stimuli_distractor_diamondtriangles.svg	22	yes	44	1	447	0	0			0	0			1				0	
6.6.1	win	2023-06-26	23:45:58	23:53:09	423542	5db061b0f876e1001620e2ee	4	1	main_z	7	advance_on_keypress_ZEE	124	stimuli_target_trianglesquares.svg	stimuli_distractor_diamondtriangles.svg	22	yes	57	0	722	0	0			0	0			1				0	
6.6.1	win	2023-06-26	23:45:58	23:53:11	425732	5db061b0f876e1001620e2ee	4	1	main_z	7	main_z	125	stimuli_distractor_trianglediamonds.svg	stimuli_target_squarediamonds.svg	12	yes	44	1	830	0	0			0	0			1				0	
6.6.1	win	2023-06-26	23:45:58	23:53:11	425732	5db061b0f876e1001620e2ee	4	1	main_z	7	advance_on_keypress_ZEE	126	stimuli_distractor_trianglediamonds.svg	stimuli_target_squarediamonds.svg	12	yes	57	0	593	0	0			0	0			1				0	
6.6.1	win	2023-06-26	23:45:58	23:53:13	427570	5db061b0f876e1001620e2ee	4	1	main_z	7	main_z	127	stimuli_distractor_trianglediamonds.svg	stimuli_distractor_diamondtriangles.svg	36	no	44	0	601	0	0			0	0			1				0	
6.6.1	win	2023-06-26	23:45:58	23:53:13	427570	5db061b0f876e1001620e2ee	4	1	main_z	7	advance_on_keypress_ZEE	128	stimuli_distractor_trianglediamonds.svg	stimuli_distractor_diamondtriangles.svg	36	no	57	0	944	0	0			0	0			1				0	
6.6.1	win	2023-06-26	23:45:58	23:53:16	431168	5db061b0f876e1001620e2ee	4	1	main_z	7	main_z	129	stimuli_distractor_diamondtriangles.svg	stimuli_distractor_trianglediamonds.svg	38	no	0	1	2000	0	0			0	0			1				0	
6.6.1	win	2023-06-26	23:45:58	23:53:16	431168	5db061b0f876e1001620e2ee	4	1	main_z	7	advance_on_keypress_ZEE	130	stimuli_distractor_diamondtriangles.svg	stimuli_distractor_trianglediamonds.svg	38	no	57	0	22	0	0			0	0			1				0	
6.6.1	win	2023-06-26	23:45:58	23:53:17	432247	5db061b0f876e1001620e2ee	4	1	main_z	7	main_z	131	stimuli_distractor_trianglediamonds.svg	stimuli_target_trianglesquares.svg	26	yes	44	1	429	0	0			0	0			1				0	
6.6.1	win	2023-06-26	23:45:58	23:53:17	432247	5db061b0f876e1001620e2ee	4	1	main_z	7	advance_on_keypress_ZEE	132	stimuli_distractor_trianglediamonds.svg	stimuli_target_trianglesquares.svg	26	yes	57	0	719	0	0			0	0			1				0	
6.6.1	win	2023-06-26	23:45:58	23:53:19	433948	5db061b0f876e1001620e2ee	4	1	main_z	7	main_z	133	stimuli_target_diamondsquares.svg	stimuli_distractor_diamondtriangles.svg	24	yes	44	1	348	0	0			0	0			1				0	
6.6.1	win	2023-06-26	23:45:58	23:53:19	433948	5db061b0f876e1001620e2ee	4	1	main_z	7	advance_on_keypress_ZEE	134	stimuli_target_diamondsquares.svg	stimuli_distractor_diamondtriangles.svg	24	yes	57	0	753	0	0			0	0			1				0	
6.6.1	win	2023-06-26	23:45:58	23:53:21	435698	5db061b0f876e1001620e2ee	4	1	main_z	7	main_z	135	stimuli_distractor_trianglediamonds.svg	stimuli_target_squaretriangles.svg	11	yes	44	1	365	0	0			0	0			1				0	
6.6.1	win	2023-06-26	23:45:58	23:53:21	435698	5db061b0f876e1001620e2ee	4	1	main_z	7	advance_on_keypress_ZEE	136	stimuli_distractor_trianglediamonds.svg	stimuli_target_squaretriangles.svg	11	yes	57	0	781	0	0			0	0			1				0	
6.6.1	win	2023-06-26	23:45:58	23:53:22	437457	5db061b0f876e1001620e2ee	4	1	main_z	7	main_z	137	stimuli_target_rectanglediamonds.svg	stimuli_distractor_diamondtriangles.svg	6	yes	44	1	334	0	0			0	0			1				0	
6.6.1	win	2023-06-26	23:45:58	23:53:22	437457	5db061b0f876e1001620e2ee	4	1	main_z	7	advance_on_keypress_ZEE	138	stimuli_target_rectanglediamonds.svg	stimuli_distractor_diamondtriangles.svg	6	yes	57	0	917	0	0			0	0			1				0	
6.6.1	win	2023-06-26	23:45:58	23:53:24	439372	5db061b0f876e1001620e2ee	4	1	main_z	7	main_z	139	stimuli_distractor_diamondtriangles.svg	stimuli_target_rectanglediamonds.svg	14	yes	44	1	358	0	0			0	0			1				0	
6.6.1	win	2023-06-26	23:45:58	23:53:24	439372	5db061b0f876e1001620e2ee	4	1	main_z	7	advance_on_keypress_ZEE	140	stimuli_distractor_diamondtriangles.svg	stimuli_target_rectanglediamonds.svg	14	yes	57	0	864	0	0			0	0			1				0	
6.6.1	win	2023-06-26	23:45:58	23:53:26	441282	5db061b0f876e1001620e2ee	4	1	main_z	7	main_z	141	stimuli_distractor_diamondtriangles.svg	stimuli_target_squarediamonds.svg	16	yes	44	1	392	0	0			0	0			1				0	
6.6.1	win	2023-06-26	23:45:58	23:53:26	441282	5db061b0f876e1001620e2ee	4	1	main_z	7	advance_on_keypress_ZEE	142	stimuli_distractor_diamondtriangles.svg	stimuli_target_squarediamonds.svg	16	yes	57	0	686	0	0			0	0			1				0	
6.6.1	win	2023-06-26	23:45:58	23:53:30	444606	5db061b0f876e1001620e2ee	4	1	main_z	7	main_z	143	stimuli_target_squaretriangles.svg	stimuli_distractor_trianglediamonds.svg	3	yes	0	0	2000	0	0			0	0			1				0	
6.6.1	win	2023-06-26	23:45:58	23:53:30	444606	5db061b0f876e1001620e2ee	4	1	main_z	7	advance_on_keypress_ZEE	144	stimuli_target_squaretriangles.svg	stimuli_distractor_trianglediamonds.svg	3	yes	57	0	628	0	0			0	0			1				0	
6.6.1	win	2023-06-26	23:45:58	23:53:31	446240	5db061b0f876e1001620e2ee	4	1	main_z	7	main_z	145	stimuli_distractor_trianglediamonds.svg	stimuli_target_diamondrectangles.svg	27	yes	44	1	360	0	0			0	0			1				0	
6.6.1	win	2023-06-26	23:45:58	23:53:31	446240	5db061b0f876e1001620e2ee	4	1	main_z	7	advance_on_keypress_ZEE	146	stimuli_distractor_trianglediamonds.svg	stimuli_target_diamondrectangles.svg	27	yes	57	0	1072	0	0			0	0			1				0	
6.6.1	win	2023-06-26	23:45:58	23:53:33	448304	5db061b0f876e1001620e2ee	4	1	main_z	7	main_z	147	stimuli_target_rectangletriangles.svg	stimuli_distractor_trianglediamonds.svg	1	yes	44	1	358	0	0			0	0			1				0	
6.6.1	win	2023-06-26	23:45:58	23:53:33	448304	5db061b0f876e1001620e2ee	4	1	main_z	7	advance_on_keypress_ZEE	148	stimuli_target_rectangletriangles.svg	stimuli_distractor_trianglediamonds.svg	1	yes	57	0	857	0	0			0	0			1				0	
6.6.1	win	2023-06-26	23:45:58	23:53:35	450205	5db061b0f876e1001620e2ee	4	1	main_z	7	main_z	149	stimuli_target_squarediamonds.svg	stimuli_distractor_trianglediamonds.svg	4	yes	44	1	399	0	0			0	0			1				0	
6.6.1	win	2023-06-26	23:45:58	23:53:35	450205	5db061b0f876e1001620e2ee	4	1	main_z	7	advance_on_keypress_ZEE	150	stimuli_target_squarediamonds.svg	stimuli_distractor_trianglediamonds.svg	4	yes	57	0	632	0	0			0	0			1				0	
6.6.1	win	2023-06-26	23:45:58	23:53:37	451819	5db061b0f876e1001620e2ee	4	1	main_z	7	main_z	151	stimuli_distractor_trianglediamonds.svg	stimuli_distractor_trianglediamonds.svg	34	no	44	0	342	0	0			0	0			1				0	
6.6.1	win	2023-06-26	23:45:58	23:53:37	451819	5db061b0f876e1001620e2ee	4	1	main_z	7	advance_on_keypress_ZEE	152	stimuli_distractor_trianglediamonds.svg	stimuli_distractor_trianglediamonds.svg	34	no	57	0	945	0	0			0	0			1				0	
6.6.1	win	2023-06-26	23:45:58	23:53:40	455395	5db061b0f876e1001620e2ee	4	1	main_z	7	main_z	153	stimuli_distractor_diamondtriangles.svg	stimuli_target_trianglerectangles.svg	29	yes	0	0	2000	0	0			0	0			1				0	
6.6.1	win	2023-06-26	23:45:58	23:53:40	455395	5db061b0f876e1001620e2ee	4	1	main_z	7	advance_on_keypress_ZEE	154	stimuli_distractor_diamondtriangles.svg	stimuli_target_trianglerectangles.svg	29	yes	57	0	502	0	0			0	0			1				0	
6.6.1	win	2023-06-26	23:45:58	23:53:42	456858	5db061b0f876e1001620e2ee	4	1	main_z	7	main_z	155	stimuli_target_squaretriangles.svg	stimuli_distractor_diamondtriangles.svg	7	yes	44	1	330	0	0			0	0			1				0	
6.6.1	win	2023-06-26	23:45:58	23:53:42	456858	5db061b0f876e1001620e2ee	4	1	main_z	7	advance_on_keypress_ZEE	156	stimuli_target_squaretriangles.svg	stimuli_distractor_diamondtriangles.svg	7	yes	57	0	721	0	0			0	0			1				0	
6.6.1	win	2023-06-26	23:45:58	23:53:44	458688	5db061b0f876e1001620e2ee	4	1	main_z	7	main_z	157	stimuli_distractor_trianglediamonds.svg	stimuli_distractor_diamondtriangles.svg	35	no	44	0	479	0	0			0	0			1				0	
6.6.1	win	2023-06-26	23:45:58	23:53:44	458688	5db061b0f876e1001620e2ee	4	1	main_z	7	advance_on_keypress_ZEE	158	stimuli_distractor_trianglediamonds.svg	stimuli_distractor_diamondtriangles.svg	35	no	57	0	1648	0	0			0	0			1				0	
6.6.1	win	2023-06-26	23:45:58	23:53:46	461279	5db061b0f876e1001620e2ee	4	1	main_z	7	main_z	159	stimuli_distractor_diamondtriangles.svg	stimuli_distractor_diamondtriangles.svg	40	no	44	0	303	0	0			0	0			1				0	
6.6.1	win	2023-06-26	23:45:58	23:53:46	461279	5db061b0f876e1001620e2ee	4	1	main_z	7	advance_on_keypress_ZEE	160	stimuli_distractor_diamondtriangles.svg	stimuli_distractor_diamondtriangles.svg	40	no	57	0	732	0	0			0	0			1				0	
6.6.1	win	2023-06-26	23:45:58	23:54:06	480513	5db061b0f876e1001620e2ee	4	1	practice_slash	9	practice_slash	1	stimuli_distractor_diamondtriangles.svg	stimuli_target_diamondrectangles.svg	8	yes	53	1	714	0	0			0	0			1				0	
6.6.1	win	2023-06-26	23:45:58	23:54:06	480513	5db061b0f876e1001620e2ee	4	1	practice_slash	9	advance_on_keypress_SLASH	2	stimuli_distractor_diamondtriangles.svg	stimuli_target_diamondrectangles.svg	8	yes	57	0	780	0	0			0	0			1				0	
6.6.1	win	2023-06-26	23:45:58	23:54:08	483408	5db061b0f876e1001620e2ee	4	1	practice_slash	9	practice_slash	3	stimuli_target_diamondsquares.svg	stimuli_distractor_trianglediamonds.svg	6	yes	53	1	468	0	0			0	0			1				0	
6.6.1	win	2023-06-26	23:45:58	23:54:08	483408	5db061b0f876e1001620e2ee	4	1	practice_slash	9	advance_on_keypress_SLASH	4	stimuli_target_diamondsquares.svg	stimuli_distractor_trianglediamonds.svg	6	yes	57	0	542	0	0			0	0			1				0	
6.6.1	win	2023-06-26	23:45:58	23:54:11	485883	5db061b0f876e1001620e2ee	4	1	practice_slash	9	practice_slash	5	stimuli_distractor_diamondtriangles.svg	stimuli_target_trianglerectangles.svg	9	yes	53	1	286	0	0			0	0			1				0	
6.6.1	win	2023-06-26	23:45:58	23:54:11	485883	5db061b0f876e1001620e2ee	4	1	practice_slash	9	advance_on_keypress_SLASH	6	stimuli_distractor_diamondtriangles.svg	stimuli_target_trianglerectangles.svg	9	yes	57	0	885	0	0			0	0			1				0	
6.6.1	win	2023-06-26	23:45:58	23:54:14	488759	5db061b0f876e1001620e2ee	4	1	practice_slash	9	practice_slash	7	stimuli_distractor_trianglediamonds.svg	stimuli_distractor_trianglediamonds.svg	15	no	53	0	337	0	0			0	0			1				0	
6.6.1	win	2023-06-26	23:45:58	23:54:14	488759	5db061b0f876e1001620e2ee	4	1	practice_slash	9	advance_on_keypress_SLASH	8	stimuli_distractor_trianglediamonds.svg	stimuli_distractor_trianglediamonds.svg	15	no	57	0	489	0	0			0	0			1				0	
6.6.1	win	2023-06-26	23:45:58	23:54:16	491169	5db061b0f876e1001620e2ee	4	1	practice_slash	9	practice_slash	9	stimuli_target_rectanglediamonds.svg	stimuli_distractor_diamondtriangles.svg	1	yes	53	1	282	0	0			0	0			1				0	
6.6.1	win	2023-06-26	23:45:58	23:54:16	491169	5db061b0f876e1001620e2ee	4	1	practice_slash	9	advance_on_keypress_SLASH	10	stimuli_target_rectanglediamonds.svg	stimuli_distractor_diamondtriangles.svg	1	yes	57	0	324	0	0			0	0			1				0	
6.6.1	win	2023-06-26	23:45:58	23:54:18	493405	5db061b0f876e1001620e2ee	4	1	practice_slash	9	practice_slash	11	stimuli_target_diamondsquares.svg	stimuli_distractor_diamondtriangles.svg	3	yes	53	1	267	0	0			0	0			1				0	
6.6.1	win	2023-06-26	23:45:58	23:54:18	493405	5db061b0f876e1001620e2ee	4	1	practice_slash	9	advance_on_keypress_SLASH	12	stimuli_target_diamondsquares.svg	stimuli_distractor_diamondtriangles.svg	3	yes	57	0	340	0	0			0	0			1				0	
6.6.1	win	2023-06-26	23:45:58	23:54:21	495701	5db061b0f876e1001620e2ee	4	1	practice_slash	9	practice_slash	13	stimuli_distractor_trianglediamonds.svg	stimuli_target_squarediamonds.svg	11	yes	53	1	324	0	0			0	0			1				0	
6.6.1	win	2023-06-26	23:45:58	23:54:21	495701	5db061b0f876e1001620e2ee	4	1	practice_slash	9	advance_on_keypress_SLASH	14	stimuli_distractor_trianglediamonds.svg	stimuli_target_squarediamonds.svg	11	yes	57	0	500	0	0			0	0			1				0	
6.6.1	win	2023-06-26	23:45:58	23:54:23	498077	5db061b0f876e1001620e2ee	4	1	practice_slash	9	practice_slash	15	stimuli_target_squarediamonds.svg	stimuli_distractor_trianglediamonds.svg	5	yes	53	1	234	0	0			0	0			1				0	
6.6.1	win	2023-06-26	23:45:58	23:54:23	498077	5db061b0f876e1001620e2ee	4	1	practice_slash	9	advance_on_keypress_SLASH	16	stimuli_target_squarediamonds.svg	stimuli_distractor_trianglediamonds.svg	5	yes	57	0	493	0	0			0	0			1				0	
6.6.1	win	2023-06-26	23:45:58	23:54:25	500485	5db061b0f876e1001620e2ee	4	1	practice_slash	9	practice_slash	17	stimuli_target_rectanglediamonds.svg	stimuli_distractor_trianglediamonds.svg	4	yes	53	1	284	0	0			0	0			1				0	
6.6.1	win	2023-06-26	23:45:58	23:54:25	500485	5db061b0f876e1001620e2ee	4	1	practice_slash	9	advance_on_keypress_SLASH	18	stimuli_target_rectanglediamonds.svg	stimuli_distractor_trianglediamonds.svg	4	yes	57	0	522	0	0			0	0			1				0	
6.6.1	win	2023-06-26	23:45:58	23:54:28	503019	5db061b0f876e1001620e2ee	4	1	practice_slash	9	practice_slash	19	stimuli_distractor_diamondtriangles.svg	stimuli_distractor_diamondtriangles.svg	13	no	53	0	372	0	0			0	0			1				0	
6.6.1	win	2023-06-26	23:45:58	23:54:28	503019	5db061b0f876e1001620e2ee	4	1	practice_slash	9	advance_on_keypress_SLASH	20	stimuli_distractor_diamondtriangles.svg	stimuli_distractor_diamondtriangles.svg	13	no	57	0	460	0	0			0	0			1				0	
6.6.1	win	2023-06-26	23:45:58	23:54:30	505400	5db061b0f876e1001620e2ee	4	1	practice_slash	9	practice_slash	21	stimuli_distractor_diamondtriangles.svg	stimuli_target_rectangletriangles.svg	7	yes	53	1	275	0	0			0	0			1				0	
6.6.1	win	2023-06-26	23:45:58	23:54:30	505400	5db061b0f876e1001620e2ee	4	1	practice_slash	9	advance_on_keypress_SLASH	22	stimuli_distractor_diamondtriangles.svg	stimuli_target_rectangletriangles.svg	7	yes	57	0	490	0	0			0	0			1				0	
6.6.1	win	2023-06-26	23:45:58	23:54:33	508024	5db061b0f876e1001620e2ee	4	1	practice_slash	9	practice_slash	23	stimuli_target_squarediamonds.svg	stimuli_distractor_diamondtriangles.svg	2	yes	53	1	483	0	0			0	0			1				0	
6.6.1	win	2023-06-26	23:45:58	23:54:33	508024	5db061b0f876e1001620e2ee	4	1	practice_slash	9	advance_on_keypress_SLASH	24	stimuli_target_squarediamonds.svg	stimuli_distractor_diamondtriangles.svg	2	yes	57	0	481	0	0			0	0			1				0	
6.6.1	win	2023-06-26	23:45:58	23:54:35	510465	5db061b0f876e1001620e2ee	4	1	practice_slash	9	practice_slash	25	stimuli_distractor_trianglediamonds.svg	stimuli_target_diamondrectangles.svg	12	yes	53	1	316	0	0			0	0			1				0	
6.6.1	win	2023-06-26	23:45:58	23:54:35	510465	5db061b0f876e1001620e2ee	4	1	practice_slash	9	advance_on_keypress_SLASH	26	stimuli_distractor_trianglediamonds.svg	stimuli_target_diamondrectangles.svg	12	yes	57	0	505	0	0			0	0			1				0	
6.6.1	win	2023-06-26	23:45:58	23:54:38	512663	5db061b0f876e1001620e2ee	4	1	practice_slash	9	practice_slash	27	stimuli_distractor_diamondtriangles.svg	stimuli_distractor_trianglediamonds.svg	14	no	53	0	47	0	0			0	0			1				0	
6.6.1	win	2023-06-26	23:45:58	23:54:38	512663	5db061b0f876e1001620e2ee	4	1	practice_slash	9	advance_on_keypress_SLASH	28	stimuli_distractor_diamondtriangles.svg	stimuli_distractor_trianglediamonds.svg	14	no	57	0	2354	0	0			0	0			1				0	
6.6.1	win	2023-06-26	23:45:58	23:54:44	518648	5db061b0f876e1001620e2ee	4	1	practice_slash	9	practice_slash	29	stimuli_distractor_trianglediamonds.svg	stimuli_target_rectanglediamonds.svg	10	yes	0	0	2000	0	0			0	0			1				0	
6.6.1	win	2023-06-26	23:45:58	23:54:44	518648	5db061b0f876e1001620e2ee	4	1	practice_slash	9	advance_on_keypress_SLASH	30	stimuli_distractor_trianglediamonds.svg	stimuli_target_rectanglediamonds.svg	10	yes	57	0	595	0	0			0	0			1				0	
6.6.1	win	2023-06-26	23:45:58	23:54:46	521383	5db061b0f876e1001620e2ee	4	1	practice_slash	9	practice_slash	31	stimuli_distractor_trianglediamonds.svg	stimuli_distractor_diamondtriangles.svg	16	no	53	0	480	0	0			0	0			1				0	
6.6.1	win	2023-06-26	23:45:58	23:54:46	521383	5db061b0f876e1001620e2ee	4	1	practice_slash	9	advance_on_keypress_SLASH	32	stimuli_distractor_trianglediamonds.svg	stimuli_distractor_diamondtriangles.svg	16	no	57	0	606	0	0			0	0			1				0	
6.6.1	win	2023-06-26	23:45:58	23:54:51	526047	5db061b0f876e1001620e2ee	4	1	main_slash	11	main_slash	1	stimuli_distractor_diamondtriangles.svg	stimuli_target_rectangletriangles.svg	13	yes	53	1	680	0	0			0	0			1				0	
6.6.1	win	2023-06-26	23:45:58	23:54:51	526047	5db061b0f876e1001620e2ee	4	1	main_slash	11	advance_on_keypress_SLASH	2	stimuli_distractor_diamondtriangles.svg	stimuli_target_rectangletriangles.svg	13	yes	57	0	2047	0	0			0	0			1				0	
6.6.1	win	2023-06-26	23:45:58	23:54:54	529381	5db061b0f876e1001620e2ee	4	1	main_slash	11	main_slash	3	stimuli_distractor_diamondtriangles.svg	stimuli_target_diamondsquares.svg	32	yes	53	1	648	0	0			0	0			1				0	
6.6.1	win	2023-06-26	23:45:58	23:54:54	529381	5db061b0f876e1001620e2ee	4	1	main_slash	11	advance_on_keypress_SLASH	4	stimuli_distractor_diamondtriangles.svg	stimuli_target_diamondsquares.svg	32	yes	57	0	1085	0	0			0	0			1				0	
6.6.1	win	2023-06-26	23:45:58	23:54:57	531732	5db061b0f876e1001620e2ee	4	1	main_slash	11	main_slash	5	stimuli_distractor_trianglediamonds.svg	stimuli_target_rectanglediamonds.svg	10	yes	53	1	634	0	0			0	0			1				0	
6.6.1	win	2023-06-26	23:45:58	23:54:57	531732	5db061b0f876e1001620e2ee	4	1	main_slash	11	advance_on_keypress_SLASH	6	stimuli_distractor_trianglediamonds.svg	stimuli_target_rectanglediamonds.svg	10	yes	57	0	1753	0	0			0	0			1				0	
6.6.1	win	2023-06-26	23:45:58	23:55:00	534828	5db061b0f876e1001620e2ee	4	1	main_slash	11	main_slash	7	stimuli_target_trianglesquares.svg	stimuli_distractor_trianglediamonds.svg	18	yes	53	1	705	0	0			0	0			1				0	
6.6.1	win	2023-06-26	23:45:58	23:55:00	534828	5db061b0f876e1001620e2ee	4	1	main_slash	11	advance_on_keypress_SLASH	8	stimuli_target_trianglesquares.svg	stimuli_distractor_trianglediamonds.svg	18	yes	57	0	2309	0	0			0	0			1				0	
6.6.1	win	2023-06-26	23:45:58	23:55:03	538243	5db061b0f876e1001620e2ee	4	1	main_slash	11	main_slash	9	stimuli_distractor_trianglediamonds.svg	stimuli_target_diamondrectangles.svg	27	yes	53	1	470	0	0			0	0			1				0	
6.6.1	win	2023-06-26	23:45:58	23:55:03	538243	5db061b0f876e1001620e2ee	4	1	main_slash	11	advance_on_keypress_SLASH	10	stimuli_distractor_trianglediamonds.svg	stimuli_target_diamondrectangles.svg	27	yes	57	0	939	0	0			0	0			1				0	
6.6.1	win	2023-06-26	23:45:58	23:55:05	540416	5db061b0f876e1001620e2ee	4	1	main_slash	11	main_slash	11	stimuli_target_rectanglediamonds.svg	stimuli_distractor_diamondtriangles.svg	6	yes	53	1	594	0	0			0	0			1				0	
6.6.1	win	2023-06-26	23:45:58	23:55:05	540416	5db061b0f876e1001620e2ee	4	1	main_slash	11	advance_on_keypress_SLASH	12	stimuli_target_rectanglediamonds.svg	stimuli_distractor_diamondtriangles.svg	6	yes	57	0	1098	0	0			0	0			1				0	
6.6.1	win	2023-06-26	23:45:58	23:55:08	542615	5db061b0f876e1001620e2ee	4	1	main_slash	11	main_slash	13	stimuli_target_squarediamonds.svg	stimuli_distractor_diamondtriangles.svg	8	yes	53	1	477	0	0			0	0			1				0	
6.6.1	win	2023-06-26	23:45:58	23:55:08	542615	5db061b0f876e1001620e2ee	4	1	main_slash	11	advance_on_keypress_SLASH	14	stimuli_target_squarediamonds.svg	stimuli_distractor_diamondtriangles.svg	8	yes	57	0	891	0	0			0	0			1				0	
6.6.1	win	2023-06-26	23:45:58	23:55:10	544591	5db061b0f876e1001620e2ee	4	1	main_slash	11	main_slash	15	stimuli_distractor_trianglediamonds.svg	stimuli_distractor_diamondtriangles.svg	35	no	53	0	452	0	0			0	0			1				0	
6.6.1	win	2023-06-26	23:45:58	23:55:10	544591	5db061b0f876e1001620e2ee	4	1	main_slash	11	advance_on_keypress_SLASH	16	stimuli_distractor_trianglediamonds.svg	stimuli_distractor_diamondtriangles.svg	35	no	57	0	1063	0	0			0	0			1				0	
6.6.1	win	2023-06-26	23:45:58	23:55:13	547616	5db061b0f876e1001620e2ee	4	1	main_slash	11	main_slash	17	stimuli_distractor_diamondtriangles.svg	stimuli_target_trianglesquares.svg	30	yes	53	1	1321	0	0			0	0			1				0	
6.6.1	win	2023-06-26	23:45:58	23:55:13	547616	5db061b0f876e1001620e2ee	4	1	main_slash	11	advance_on_keypress_SLASH	18	stimuli_distractor_diamondtriangles.svg	stimuli_target_trianglesquares.svg	30	yes	57	0	1347	0	0			0	0			1				0	
6.6.1	win	2023-06-26	23:45:58	23:55:17	551594	5db061b0f876e1001620e2ee	4	1	main_slash	11	main_slash	19	stimuli_target_trianglesquares.svg	stimuli_distractor_diamondtriangles.svg	22	yes	0	0	2000	0	0			0	0			1				0	
6.6.1	win	2023-06-26	23:45:58	23:55:17	551594	5db061b0f876e1001620e2ee	4	1	main_slash	11	advance_on_keypress_SLASH	20	stimuli_target_trianglesquares.svg	stimuli_distractor_diamondtriangles.svg	22	yes	57	0	913	0	0			0	0			1				0	
6.6.1	win	2023-06-26	23:45:58	23:55:20	555144	5db061b0f876e1001620e2ee	4	1	main_slash	11	main_slash	21	stimuli_distractor_trianglediamonds.svg	stimuli_distractor_trianglediamonds.svg	33	no	0	1	2000	0	0			0	0			1				0	
6.6.1	win	2023-06-26	23:45:58	23:55:20	555144	5db061b0f876e1001620e2ee	4	1	main_slash	11	advance_on_keypress_SLASH	22	stimuli_distractor_trianglediamonds.svg	stimuli_distractor_trianglediamonds.svg	33	no	57	0	756	0	0			0	0			1				0	
6.6.1	win	2023-06-26	23:45:58	23:55:22	557288	5db061b0f876e1001620e2ee	4	1	main_slash	11	main_slash	23	stimuli_distractor_trianglediamonds.svg	stimuli_target_trianglesquares.svg	26	yes	53	1	737	0	0			0	0			1				0	
6.6.1	win	2023-06-26	23:45:58	23:55:22	557288	5db061b0f876e1001620e2ee	4	1	main_slash	11	advance_on_keypress_SLASH	24	stimuli_distractor_trianglediamonds.svg	stimuli_target_trianglesquares.svg	26	yes	57	0	813	0	0			0	0			1				0	
6.6.1	win	2023-06-26	23:45:58	23:55:26	560750	5db061b0f876e1001620e2ee	4	1	main_slash	11	main_slash	25	stimuli_distractor_diamondtriangles.svg	stimuli_distractor_diamondtriangles.svg	40	no	0	1	2000	0	0			0	0			1				0	
6.6.1	win	2023-06-26	23:45:58	23:55:26	560750	5db061b0f876e1001620e2ee	4	1	main_slash	11	advance_on_keypress_SLASH	26	stimuli_distractor_diamondtriangles.svg	stimuli_distractor_diamondtriangles.svg	40	no	57	0	727	0	0			0	0			1				0	
6.6.1	win	2023-06-26	23:45:58	23:55:28	562946	5db061b0f876e1001620e2ee	4	1	main_slash	11	main_slash	27	stimuli_distractor_diamondtriangles.svg	stimuli_distractor_trianglediamonds.svg	37	no	53	0	839	0	0			0	0			1				0	
6.6.1	win	2023-06-26	23:45:58	23:55:28	562946	5db061b0f876e1001620e2ee	4	1	main_slash	11	advance_on_keypress_SLASH	28	stimuli_distractor_diamondtriangles.svg	stimuli_distractor_trianglediamonds.svg	37	no	57	0	1237	0	0			0	0			1				0	
6.6.1	win	2023-06-26	23:45:58	23:55:32	566824	5db061b0f876e1001620e2ee	4	1	main_slash	11	main_slash	29	stimuli_distractor_trianglediamonds.svg	stimuli_distractor_trianglediamonds.svg	34	no	0	1	2000	0	0			0	0			1				0	
6.6.1	win	2023-06-26	23:45:58	23:55:32	566824	5db061b0f876e1001620e2ee	4	1	main_slash	11	advance_on_keypress_SLASH	30	stimuli_distractor_trianglediamonds.svg	stimuli_distractor_trianglediamonds.svg	34	no	57	0	599	0	0			0	0			1				0	
6.6.1	win	2023-06-26	23:45:58	23:55:34	569153	5db061b0f876e1001620e2ee	4	1	main_slash	11	main_slash	31	stimuli_distractor_trianglediamonds.svg	stimuli_target_rectangletriangles.svg	9	yes	53	1	1097	0	0			0	0			1				0	
6.6.1	win	2023-06-26	23:45:58	23:55:34	569153	5db061b0f876e1001620e2ee	4	1	main_slash	11	advance_on_keypress_SLASH	32	stimuli_distractor_trianglediamonds.svg	stimuli_target_rectangletriangles.svg	9	yes	57	0	787	0	0			0	0			1				0	
6.6.1	win	2023-06-26	23:45:58	23:55:38	572580	5db061b0f876e1001620e2ee	4	1	main_slash	11	main_slash	33	stimuli_distractor_diamondtriangles.svg	stimuli_distractor_trianglediamonds.svg	38	no	0	1	2000	0	0			0	0			1				0	
6.6.1	win	2023-06-26	23:45:58	23:55:38	572580	5db061b0f876e1001620e2ee	4	1	main_slash	11	advance_on_keypress_SLASH	34	stimuli_distractor_diamondtriangles.svg	stimuli_distractor_trianglediamonds.svg	38	no	57	0	657	0	0			0	0			1				0	
6.6.1	win	2023-06-26	23:45:58	23:55:40	574682	5db061b0f876e1001620e2ee	4	1	main_slash	11	main_slash	35	stimuli_target_rectangletriangles.svg	stimuli_distractor_diamondtriangles.svg	5	yes	53	1	804	0	0			0	0			1				0	
6.6.1	win	2023-06-26	23:45:58	23:55:40	574682	5db061b0f876e1001620e2ee	4	1	main_slash	11	advance_on_keypress_SLASH	36	stimuli_target_rectangletriangles.svg	stimuli_distractor_diamondtriangles.svg	5	yes	57	0	992	0	0			0	0			1				0	
6.6.1	win	2023-06-26	23:45:58	23:55:42	576982	5db061b0f876e1001620e2ee	4	1	main_slash	11	main_slash	37	stimuli_distractor_diamondtriangles.svg	stimuli_target_trianglerectangles.svg	29	yes	53	1	661	0	0			0	0			1				0	
6.6.1	win	2023-06-26	23:45:58	23:55:42	576982	5db061b0f876e1001620e2ee	4	1	main_slash	11	advance_on_keypress_SLASH	38	stimuli_distractor_diamondtriangles.svg	stimuli_target_trianglerectangles.svg	29	yes	57	0	1025	0	0			0	0			1				0	
6.6.1	win	2023-06-26	23:45:58	23:55:44	579173	5db061b0f876e1001620e2ee	4	1	main_slash	11	main_slash	39	stimuli_target_diamondrectangles.svg	stimuli_distractor_trianglediamonds.svg	19	yes	53	1	529	0	0			0	0			1				0	
6.6.1	win	2023-06-26	23:45:58	23:55:44	579173	5db061b0f876e1001620e2ee	4	1	main_slash	11	advance_on_keypress_SLASH	40	stimuli_target_diamondrectangles.svg	stimuli_distractor_trianglediamonds.svg	19	yes	57	0	1388	0	0			0	0			1				0	
6.6.1	win	2023-06-26	23:45:58	23:55:47	581832	5db061b0f876e1001620e2ee	4	1	main_slash	11	main_slash	41	stimuli_distractor_trianglediamonds.svg	stimuli_target_squarediamonds.svg	12	yes	53	1	638	0	0			0	0			1				0	
6.6.1	win	2023-06-26	23:45:58	23:55:47	581832	5db061b0f876e1001620e2ee	4	1	main_slash	11	advance_on_keypress_SLASH	42	stimuli_distractor_trianglediamonds.svg	stimuli_target_squarediamonds.svg	12	yes	57	0	642	0	0			0	0			1				0	
6.6.1	win	2023-06-26	23:45:58	23:55:49	583698	5db061b0f876e1001620e2ee	4	1	main_slash	11	main_slash	43	stimuli_distractor_trianglediamonds.svg	stimuli_target_trianglerectangles.svg	25	yes	53	1	588	0	0			0	0			1				0	
6.6.1	win	2023-06-26	23:45:58	23:55:49	583698	5db061b0f876e1001620e2ee	4	1	main_slash	11	advance_on_keypress_SLASH	44	stimuli_distractor_trianglediamonds.svg	stimuli_target_trianglerectangles.svg	25	yes	57	0	661	0	0			0	0			1				0	
6.6.1	win	2023-06-26	23:45:58	23:55:51	585586	5db061b0f876e1001620e2ee	4	1	main_slash	11	main_slash	45	stimuli_distractor_diamondtriangles.svg	stimuli_target_squarediamonds.svg	16	yes	53	1	593	0	0			0	0			1				0	
6.6.1	win	2023-06-26	23:45:58	23:55:51	585586	5db061b0f876e1001620e2ee	4	1	main_slash	11	advance_on_keypress_SLASH	46	stimuli_distractor_diamondtriangles.svg	stimuli_target_squarediamonds.svg	16	yes	57	0	503	0	0			0	0			1				0	
6.6.1	win	2023-06-26	23:45:58	23:55:52	587362	5db061b0f876e1001620e2ee	4	1	main_slash	11	main_slash	47	stimuli_target_squaretriangles.svg	stimuli_distractor_diamondtriangles.svg	7	yes	53	1	636	0	0			0	0			1				0	
6.6.1	win	2023-06-26	23:45:58	23:55:52	587362	5db061b0f876e1001620e2ee	4	1	main_slash	11	advance_on_keypress_SLASH	48	stimuli_target_squaretriangles.svg	stimuli_distractor_diamondtriangles.svg	7	yes	57	0	519	0	0			0	0			1				0	
6.6.1	win	2023-06-26	23:45:58	23:55:54	588963	5db061b0f876e1001620e2ee	4	1	main_slash	11	main_slash	49	stimuli_target_rectanglediamonds.svg	stimuli_distractor_trianglediamonds.svg	2	yes	53	1	445	0	0			0	0			1				0	
6.6.1	win	2023-06-26	23:45:58	23:55:54	588963	5db061b0f876e1001620e2ee	4	1	main_slash	11	advance_on_keypress_SLASH	50	stimuli_target_rectanglediamonds.svg	stimuli_distractor_trianglediamonds.svg	2	yes	57	0	487	0	0			0	0			1				0	
6.6.1	win	2023-06-26	23:45:58	23:55:57	592092	5db061b0f876e1001620e2ee	4	1	main_slash	11	main_slash	51	stimuli_distractor_diamondtriangles.svg	stimuli_distractor_diamondtriangles.svg	39	no	0	1	2000	0	0			0	0			1				0	
6.6.1	win	2023-06-26	23:45:58	23:55:57	592092	5db061b0f876e1001620e2ee	4	1	main_slash	11	advance_on_keypress_SLASH	52	stimuli_distractor_diamondtriangles.svg	stimuli_distractor_diamondtriangles.svg	39	no	57	0	587	0	0			0	0			1				0	
6.6.1	win	2023-06-26	23:45:58	23:55:59	593902	5db061b0f876e1001620e2ee	4	1	main_slash	11	main_slash	53	stimuli_distractor_trianglediamonds.svg	stimuli_target_squaretriangles.svg	11	yes	53	1	586	0	0			0	0			1				0	
6.6.1	win	2023-06-26	23:45:58	23:55:59	593902	5db061b0f876e1001620e2ee	4	1	main_slash	11	advance_on_keypress_SLASH	54	stimuli_distractor_trianglediamonds.svg	stimuli_target_squaretriangles.svg	11	yes	57	0	670	0	0			0	0			1				0	
6.6.1	win	2023-06-26	23:45:58	23:56:01	596184	5db061b0f876e1001620e2ee	4	1	main_slash	11	main_slash	55	stimuli_target_trianglerectangles.svg	stimuli_distractor_trianglediamonds.svg	17	yes	53	1	978	0	0			0	0			1				0	
6.6.1	win	2023-06-26	23:45:58	23:56:01	596184	5db061b0f876e1001620e2ee	4	1	main_slash	11	advance_on_keypress_SLASH	56	stimuli_target_trianglerectangles.svg	stimuli_distractor_trianglediamonds.svg	17	yes	57	0	593	0	0			0	0			1				0	
6.6.1	win	2023-06-26	23:45:58	23:56:03	598109	5db061b0f876e1001620e2ee	4	1	main_slash	11	main_slash	57	stimuli_target_diamondsquares.svg	stimuli_distractor_diamondtriangles.svg	24	yes	53	1	712	0	0			0	0			1				0	
6.6.1	win	2023-06-26	23:45:58	23:56:03	598109	5db061b0f876e1001620e2ee	4	1	main_slash	11	advance_on_keypress_SLASH	58	stimuli_target_diamondsquares.svg	stimuli_distractor_diamondtriangles.svg	24	yes	57	0	667	0	0			0	0			1				0	
6.6.1	win	2023-06-26	23:45:58	23:56:05	600255	5db061b0f876e1001620e2ee	4	1	main_slash	11	main_slash	59	stimuli_target_trianglerectangles.svg	stimuli_distractor_diamondtriangles.svg	21	yes	53	1	832	0	0			0	0			1				0	
6.6.1	win	2023-06-26	23:45:58	23:56:05	600255	5db061b0f876e1001620e2ee	4	1	main_slash	11	advance_on_keypress_SLASH	60	stimuli_target_trianglerectangles.svg	stimuli_distractor_diamondtriangles.svg	21	yes	57	0	771	0	0			0	0			1				0	
6.6.1	win	2023-06-26	23:45:58	23:56:07	602447	5db061b0f876e1001620e2ee	4	1	main_slash	11	main_slash	61	stimuli_target_squaretriangles.svg	stimuli_distractor_trianglediamonds.svg	3	yes	53	1	784	0	0			0	0			1				0	
6.6.1	win	2023-06-26	23:45:58	23:56:07	602447	5db061b0f876e1001620e2ee	4	1	main_slash	11	advance_on_keypress_SLASH	62	stimuli_target_squaretriangles.svg	stimuli_distractor_trianglediamonds.svg	3	yes	57	0	855	0	0			0	0			1				0	
6.6.1	win	2023-06-26	23:45:58	23:56:10	604648	5db061b0f876e1001620e2ee	4	1	main_slash	11	main_slash	63	stimuli_distractor_diamondtriangles.svg	stimuli_target_rectanglediamonds.svg	14	yes	53	1	710	0	0			0	0			1				0	
6.6.1	win	2023-06-26	23:45:58	23:56:10	604648	5db061b0f876e1001620e2ee	4	1	main_slash	11	advance_on_keypress_SLASH	64	stimuli_distractor_diamondtriangles.svg	stimuli_target_rectanglediamonds.svg	14	yes	57	0	734	0	0			0	0			1				0	
6.6.1	win	2023-06-26	23:45:58	23:56:12	606713	5db061b0f876e1001620e2ee	4	1	main_slash	11	main_slash	65	stimuli_target_diamondsquares.svg	stimuli_distractor_trianglediamonds.svg	20	yes	53	1	692	0	0			0	0			1				0	
6.6.1	win	2023-06-26	23:45:58	23:56:12	606713	5db061b0f876e1001620e2ee	4	1	main_slash	11	advance_on_keypress_SLASH	66	stimuli_target_diamondsquares.svg	stimuli_distractor_trianglediamonds.svg	20	yes	57	0	746	0	0			0	0			1				0	
6.6.1	win	2023-06-26	23:45:58	23:56:14	608678	5db061b0f876e1001620e2ee	4	1	main_slash	11	main_slash	67	stimuli_target_squarediamonds.svg	stimuli_distractor_trianglediamonds.svg	4	yes	53	1	582	0	0			0	0			1				0	
6.6.1	win	2023-06-26	23:45:58	23:56:14	608678	5db061b0f876e1001620e2ee	4	1	main_slash	11	advance_on_keypress_SLASH	68	stimuli_target_squarediamonds.svg	stimuli_distractor_trianglediamonds.svg	4	yes	57	0	1109	0	0			0	0			1				0	
6.6.1	win	2023-06-26	23:45:58	23:56:16	611250	5db061b0f876e1001620e2ee	4	1	main_slash	11	main_slash	69	stimuli_target_diamondrectangles.svg	stimuli_distractor_diamondtriangles.svg	23	yes	53	1	839	0	0			0	0			1				0	
6.6.1	win	2023-06-26	23:45:58	23:56:16	611250	5db061b0f876e1001620e2ee	4	1	main_slash	11	advance_on_keypress_SLASH	70	stimuli_target_diamondrectangles.svg	stimuli_distractor_diamondtriangles.svg	23	yes	57	0	697	0	0			0	0			1				0	
6.6.1	win	2023-06-26	23:45:58	23:56:18	613474	5db061b0f876e1001620e2ee	4	1	main_slash	11	main_slash	71	stimuli_distractor_diamondtriangles.svg	stimuli_target_diamondrectangles.svg	31	yes	53	1	896	0	0			0	0			1				0	
6.6.1	win	2023-06-26	23:45:58	23:56:18	613474	5db061b0f876e1001620e2ee	4	1	main_slash	11	advance_on_keypress_SLASH	72	stimuli_distractor_diamondtriangles.svg	stimuli_target_diamondrectangles.svg	31	yes	57	0	844	0	0			0	0			1				0	
6.6.1	win	2023-06-26	23:45:58	23:56:22	616590	5db061b0f876e1001620e2ee	4	1	main_slash	11	main_slash	73	stimuli_distractor_diamondtriangles.svg	stimuli_target_squaretriangles.svg	15	yes	53	1	1630	0	0			0	0			1				0	
6.6.1	win	2023-06-26	23:45:58	23:56:22	616590	5db061b0f876e1001620e2ee	4	1	main_slash	11	advance_on_keypress_SLASH	74	stimuli_distractor_diamondtriangles.svg	stimuli_target_squaretriangles.svg	15	yes	57	0	578	0	0			0	0			1				0	
6.6.1	win	2023-06-26	23:45:58	23:56:23	618189	5db061b0f876e1001620e2ee	4	1	main_slash	11	main_slash	75	stimuli_distractor_trianglediamonds.svg	stimuli_distractor_diamondtriangles.svg	36	no	53	0	363	0	0			0	0			1				0	
6.6.1	win	2023-06-26	23:45:58	23:56:23	618189	5db061b0f876e1001620e2ee	4	1	main_slash	11	advance_on_keypress_SLASH	76	stimuli_distractor_trianglediamonds.svg	stimuli_distractor_diamondtriangles.svg	36	no	57	0	1211	0	0			0	0			1				0	
6.6.1	win	2023-06-26	23:45:58	23:56:26	620608	5db061b0f876e1001620e2ee	4	1	main_slash	11	main_slash	77	stimuli_distractor_trianglediamonds.svg	stimuli_target_diamondsquares.svg	28	yes	53	1	566	0	0			0	0			1				0	
6.6.1	win	2023-06-26	23:45:58	23:56:26	620608	5db061b0f876e1001620e2ee	4	1	main_slash	11	advance_on_keypress_SLASH	78	stimuli_distractor_trianglediamonds.svg	stimuli_target_diamondsquares.svg	28	yes	57	0	654	0	0			0	0			1				0	
6.6.1	win	2023-06-26	23:45:58	23:56:28	622615	5db061b0f876e1001620e2ee	4	1	main_slash	11	main_slash	79	stimuli_target_rectangletriangles.svg	stimuli_distractor_trianglediamonds.svg	1	yes	53	1	723	0	0			0	0			1				0	
6.6.1	win	2023-06-26	23:45:58	23:56:28	622615	5db061b0f876e1001620e2ee	4	1	main_slash	11	advance_on_keypress_SLASH	80	stimuli_target_rectangletriangles.svg	stimuli_distractor_trianglediamonds.svg	1	yes	57	0	915	0	0			0	0			1				0	
6.6.1	win	2023-06-26	23:45:58	23:56:30	625055	5db061b0f876e1001620e2ee	4	1	main_slash	11	main_slash	81	stimuli_target_trianglesquares.svg	stimuli_distractor_diamondtriangles.svg	22	yes	53	1	889	0	0			0	0			1				0	
6.6.1	win	2023-06-26	23:45:58	23:56:30	625055	5db061b0f876e1001620e2ee	4	1	main_slash	11	advance_on_keypress_SLASH	82	stimuli_target_trianglesquares.svg	stimuli_distractor_diamondtriangles.svg	22	yes	57	0	652	0	0			0	0			1				0	
6.6.1	win	2023-06-26	23:45:58	23:56:33	628349	5db061b0f876e1001620e2ee	4	1	main_slash	11	main_slash	83	stimuli_distractor_trianglediamonds.svg	stimuli_distractor_diamondtriangles.svg	36	no	0	1	2000	0	0			0	0			1				0	
6.6.1	win	2023-06-26	23:45:58	23:56:33	628349	5db061b0f876e1001620e2ee	4	1	main_slash	11	advance_on_keypress_SLASH	84	stimuli_distractor_trianglediamonds.svg	stimuli_distractor_diamondtriangles.svg	36	no	57	0	696	0	0			0	0			1				0	
6.6.1	win	2023-06-26	23:45:58	23:56:35	630393	5db061b0f876e1001620e2ee	4	1	main_slash	11	main_slash	85	stimuli_target_trianglesquares.svg	stimuli_distractor_trianglediamonds.svg	18	yes	53	1	713	0	0			0	0			1				0	
6.6.1	win	2023-06-26	23:45:58	23:56:35	630393	5db061b0f876e1001620e2ee	4	1	main_slash	11	advance_on_keypress_SLASH	86	stimuli_target_trianglesquares.svg	stimuli_distractor_trianglediamonds.svg	18	yes	57	0	972	0	0			0	0			1				0	
6.6.1	win	2023-06-26	23:45:58	23:56:39	633601	5db061b0f876e1001620e2ee	4	1	main_slash	11	main_slash	87	stimuli_target_rectanglediamonds.svg	stimuli_distractor_diamondtriangles.svg	6	yes	53	1	1589	0	0			0	0			1				0	
6.6.1	win	2023-06-26	23:45:58	23:56:39	633601	5db061b0f876e1001620e2ee	4	1	main_slash	11	advance_on_keypress_SLASH	88	stimuli_target_rectanglediamonds.svg	stimuli_distractor_diamondtriangles.svg	6	yes	57	0	786	0	0			0	0			1				0	
6.6.1	win	2023-06-26	23:45:58	23:56:41	636049	5db061b0f876e1001620e2ee	4	1	main_slash	11	main_slash	89	stimuli_distractor_diamondtriangles.svg	stimuli_target_rectanglediamonds.svg	14	yes	53	1	1018	0	0			0	0			1				0	
6.6.1	win	2023-06-26	23:45:58	23:56:41	636049	5db061b0f876e1001620e2ee	4	1	main_slash	11	advance_on_keypress_SLASH	90	stimuli_distractor_diamondtriangles.svg	stimuli_target_rectanglediamonds.svg	14	yes	57	0	569	0	0			0	0			1				0	
6.6.1	win	2023-06-26	23:45:58	23:56:43	638388	5db061b0f876e1001620e2ee	4	1	main_slash	11	main_slash	91	stimuli_target_rectangletriangles.svg	stimuli_distractor_trianglediamonds.svg	1	yes	53	1	1133	0	0			0	0			1				0	
6.6.1	win	2023-06-26	23:45:58	23:56:43	638388	5db061b0f876e1001620e2ee	4	1	main_slash	11	advance_on_keypress_SLASH	92	stimuli_target_rectangletriangles.svg	stimuli_distractor_trianglediamonds.svg	1	yes	57	0	788	0	0			0	0			1				0	
6.6.1	win	2023-06-26	23:45:58	23:56:46	640875	5db061b0f876e1001620e2ee	4	1	main_slash	11	main_slash	93	stimuli_distractor_trianglediamonds.svg	stimuli_target_trianglesquares.svg	26	yes	53	1	1062	0	0			0	0			1				0	
6.6.1	win	2023-06-26	23:45:58	23:56:46	640875	5db061b0f876e1001620e2ee	4	1	main_slash	11	advance_on_keypress_SLASH	94	stimuli_distractor_trianglediamonds.svg	stimuli_target_trianglesquares.svg	26	yes	57	0	727	0	0			0	0			1				0	
6.6.1	win	2023-06-26	23:45:58	23:56:48	643265	5db061b0f876e1001620e2ee	4	1	main_slash	11	main_slash	95	stimuli_distractor_diamondtriangles.svg	stimuli_target_diamondrectangles.svg	31	yes	53	1	1021	0	0			0	0			1				0	
6.6.1	win	2023-06-26	23:45:58	23:56:48	643265	5db061b0f876e1001620e2ee	4	1	main_slash	11	advance_on_keypress_SLASH	96	stimuli_distractor_diamondtriangles.svg	stimuli_target_diamondrectangles.svg	31	yes	57	0	1251	0	0			0	0			1				0	
6.6.1	win	2023-06-26	23:45:58	23:56:51	646273	5db061b0f876e1001620e2ee	4	1	main_slash	11	main_slash	97	stimuli_distractor_trianglediamonds.svg	stimuli_target_rectangletriangles.svg	9	yes	53	1	1120	0	0			0	0			1				0	
6.6.1	win	2023-06-26	23:45:58	23:56:51	646273	5db061b0f876e1001620e2ee	4	1	main_slash	11	advance_on_keypress_SLASH	98	stimuli_distractor_trianglediamonds.svg	stimuli_target_rectangletriangles.svg	9	yes	57	0	607	0	0			0	0			1				0	
6.6.1	win	2023-06-26	23:45:58	23:56:54	648609	5db061b0f876e1001620e2ee	4	1	main_slash	11	main_slash	99	stimuli_distractor_trianglediamonds.svg	stimuli_target_rectanglediamonds.svg	10	yes	53	1	1089	0	0			0	0			1				0	
6.6.1	win	2023-06-26	23:45:58	23:56:54	648609	5db061b0f876e1001620e2ee	4	1	main_slash	11	advance_on_keypress_SLASH	100	stimuli_distractor_trianglediamonds.svg	stimuli_target_rectanglediamonds.svg	10	yes	57	0	1086	0	0			0	0			1				0	
6.6.1	win	2023-06-26	23:45:58	23:56:57	652326	5db061b0f876e1001620e2ee	4	1	main_slash	11	main_slash	101	stimuli_distractor_trianglediamonds.svg	stimuli_distractor_trianglediamonds.svg	34	no	0	1	2000	0	0			0	0			1				0	
6.6.1	win	2023-06-26	23:45:58	23:56:57	652326	5db061b0f876e1001620e2ee	4	1	main_slash	11	advance_on_keypress_SLASH	102	stimuli_distractor_trianglediamonds.svg	stimuli_distractor_trianglediamonds.svg	34	no	57	0	694	0	0			0	0			1				0	
6.6.1	win	2023-06-26	23:45:58	23:57:01	655659	5db061b0f876e1001620e2ee	4	1	main_slash	11	main_slash	103	stimuli_target_diamondrectangles.svg	stimuli_distractor_trianglediamonds.svg	19	yes	0	0	2000	0	0			0	0			1				0	
6.6.1	win	2023-06-26	23:45:58	23:57:01	655659	5db061b0f876e1001620e2ee	4	1	main_slash	11	advance_on_keypress_SLASH	104	stimuli_target_diamondrectangles.svg	stimuli_distractor_trianglediamonds.svg	19	yes	57	0	734	0	0			0	0			1				0	
6.6.1	win	2023-06-26	23:45:58	23:57:04	659025	5db061b0f876e1001620e2ee	4	1	main_slash	11	main_slash	105	stimuli_distractor_diamondtriangles.svg	stimuli_distractor_trianglediamonds.svg	37	no	0	1	2000	0	0			0	0			1				0	
6.6.1	win	2023-06-26	23:45:58	23:57:04	659025	5db061b0f876e1001620e2ee	4	1	main_slash	11	advance_on_keypress_SLASH	106	stimuli_distractor_diamondtriangles.svg	stimuli_distractor_trianglediamonds.svg	37	no	57	0	815	0	0			0	0			1				0	
6.6.1	win	2023-06-26	23:45:58	23:57:07	662465	5db061b0f876e1001620e2ee	4	1	main_slash	11	main_slash	107	stimuli_distractor_diamondtriangles.svg	stimuli_target_rectangletriangles.svg	13	yes	0	0	2000	0	0			0	0			1				0	
6.6.1	win	2023-06-26	23:45:58	23:57:07	662465	5db061b0f876e1001620e2ee	4	1	main_slash	11	advance_on_keypress_SLASH	108	stimuli_distractor_diamondtriangles.svg	stimuli_target_rectangletriangles.svg	13	yes	57	0	746	0	0			0	0			1				0	
6.6.1	win	2023-06-26	23:45:58	23:57:10	665269	5db061b0f876e1001620e2ee	4	1	main_slash	11	main_slash	109	stimuli_distractor_diamondtriangles.svg	stimuli_target_trianglerectangles.svg	29	yes	53	1	1422	0	0			0	0			1				0	
6.6.1	win	2023-06-26	23:45:58	23:57:10	665269	5db061b0f876e1001620e2ee	4	1	main_slash	11	advance_on_keypress_SLASH	110	stimuli_distractor_diamondtriangles.svg	stimuli_target_trianglerectangles.svg	29	yes	57	0	736	0	0			0	0			1				0	
6.6.1	win	2023-06-26	23:45:58	23:57:13	668285	5db061b0f876e1001620e2ee	4	1	main_slash	11	main_slash	111	stimuli_distractor_trianglediamonds.svg	stimuli_target_trianglerectangles.svg	25	yes	53	1	1638	0	0			0	0			1				0	
6.6.1	win	2023-06-26	23:45:58	23:57:13	668285	5db061b0f876e1001620e2ee	4	1	main_slash	11	advance_on_keypress_SLASH	112	stimuli_distractor_trianglediamonds.svg	stimuli_target_trianglerectangles.svg	25	yes	57	0	750	0	0			0	0			1				0	
6.6.1	win	2023-06-26	23:45:58	23:57:17	671663	5db061b0f876e1001620e2ee	4	1	main_slash	11	main_slash	113	stimuli_distractor_diamondtriangles.svg	stimuli_distractor_diamondtriangles.svg	39	no	0	1	2000	0	0			0	0			1				0	
6.6.1	win	2023-06-26	23:45:58	23:57:17	671663	5db061b0f876e1001620e2ee	4	1	main_slash	11	advance_on_keypress_SLASH	114	stimuli_distractor_diamondtriangles.svg	stimuli_distractor_diamondtriangles.svg	39	no	57	0	942	0	0			0	0			1				0	
6.6.1	win	2023-06-26	23:45:58	23:57:20	675229	5db061b0f876e1001620e2ee	4	1	main_slash	11	main_slash	115	stimuli_target_trianglerectangles.svg	stimuli_distractor_trianglediamonds.svg	17	yes	0	0	2000	0	0			0	0			1				0	
6.6.1	win	2023-06-26	23:45:58	23:57:20	675229	5db061b0f876e1001620e2ee	4	1	main_slash	11	advance_on_keypress_SLASH	116	stimuli_target_trianglerectangles.svg	stimuli_distractor_trianglediamonds.svg	17	yes	57	0	971	0	0			0	0			1				0	
6.6.1	win	2023-06-26	23:45:58	23:57:23	678003	5db061b0f876e1001620e2ee	4	1	main_slash	11	main_slash	117	stimuli_target_rectangletriangles.svg	stimuli_distractor_diamondtriangles.svg	5	yes	53	1	1176	0	0			0	0			1				0	
6.6.1	win	2023-06-26	23:45:58	23:57:23	678003	5db061b0f876e1001620e2ee	4	1	main_slash	11	advance_on_keypress_SLASH	118	stimuli_target_rectangletriangles.svg	stimuli_distractor_diamondtriangles.svg	5	yes	57	0	896	0	0			0	0			1				0	
6.6.1	win	2023-06-26	23:45:58	23:57:26	680801	5db061b0f876e1001620e2ee	4	1	main_slash	11	main_slash	119	stimuli_distractor_trianglediamonds.svg	stimuli_target_diamondsquares.svg	28	yes	53	1	1266	0	0			0	0			1				0	
6.6.1	win	2023-06-26	23:45:58	23:57:26	680801	5db061b0f876e1001620e2ee	4	1	main_slash	11	advance_on_keypress_SLASH	120	stimuli_distractor_trianglediamonds.svg	stimuli_target_diamondsquares.svg	28	yes	57	0	917	0	0			0	0			1				0	
6.6.1	win	2023-06-26	23:45:58	23:57:29	683847	5db061b0f876e1001620e2ee	4	1	main_slash	11	main_slash	121	stimuli_distractor_diamondtriangles.svg	stimuli_target_diamondsquares.svg	32	yes	53	1	1481	0	0			0	0			1				0	
6.6.1	win	2023-06-26	23:45:58	23:57:29	683847	5db061b0f876e1001620e2ee	4	1	main_slash	11	advance_on_keypress_SLASH	122	stimuli_distractor_diamondtriangles.svg	stimuli_target_diamondsquares.svg	32	yes	57	0	745	0	0			0	0			1				0	
6.6.1	win	2023-06-26	23:45:58	23:57:32	686584	5db061b0f876e1001620e2ee	4	1	main_slash	11	main_slash	123	stimuli_target_trianglerectangles.svg	stimuli_distractor_diamondtriangles.svg	21	yes	53	1	1350	0	0			0	0			1				0	
6.6.1	win	2023-06-26	23:45:58	23:57:32	686584	5db061b0f876e1001620e2ee	4	1	main_slash	11	advance_on_keypress_SLASH	124	stimuli_target_trianglerectangles.svg	stimuli_distractor_diamondtriangles.svg	21	yes	57	0	625	0	0			0	0			1				0	
6.6.1	win	2023-06-26	23:45:58	23:57:35	689851	5db061b0f876e1001620e2ee	4	1	main_slash	11	main_slash	125	stimuli_distractor_diamondtriangles.svg	stimuli_distractor_trianglediamonds.svg	38	no	0	1	2000	0	0			0	0			1				0	
6.6.1	win	2023-06-26	23:45:58	23:57:35	689851	5db061b0f876e1001620e2ee	4	1	main_slash	11	advance_on_keypress_SLASH	126	stimuli_distractor_diamondtriangles.svg	stimuli_distractor_trianglediamonds.svg	38	no	57	0	840	0	0			0	0			1				0	
6.6.1	win	2023-06-26	23:45:58	23:57:38	693032	5db061b0f876e1001620e2ee	4	1	main_slash	11	main_slash	127	stimuli_distractor_diamondtriangles.svg	stimuli_target_trianglesquares.svg	30	yes	53	1	1692	0	0			0	0			1				0	
6.6.1	win	2023-06-26	23:45:58	23:57:38	693032	5db061b0f876e1001620e2ee	4	1	main_slash	11	advance_on_keypress_SLASH	128	stimuli_distractor_diamondtriangles.svg	stimuli_target_trianglesquares.svg	30	yes	57	0	1432	0	0			0	0			1				0	
6.6.1	win	2023-06-26	23:45:58	23:57:41	696498	5db061b0f876e1001620e2ee	4	1	main_slash	11	main_slash	129	stimuli_target_diamondsquares.svg	stimuli_distractor_trianglediamonds.svg	20	yes	53	1	1392	0	0			0	0			1				0	
6.6.1	win	2023-06-26	23:45:58	23:57:41	696498	5db061b0f876e1001620e2ee	4	1	main_slash	11	advance_on_keypress_SLASH	130	stimuli_target_diamondsquares.svg	stimuli_distractor_trianglediamonds.svg	20	yes	57	0	859	0	0			0	0			1				0	
6.6.1	win	2023-06-26	23:45:58	23:57:44	699342	5db061b0f876e1001620e2ee	4	1	main_slash	11	main_slash	131	stimuli_distractor_diamondtriangles.svg	stimuli_target_squarediamonds.svg	16	yes	53	1	1354	0	0			0	0			1				0	
6.6.1	win	2023-06-26	23:45:58	23:57:44	699342	5db061b0f876e1001620e2ee	4	1	main_slash	11	advance_on_keypress_SLASH	132	stimuli_distractor_diamondtriangles.svg	stimuli_target_squarediamonds.svg	16	yes	57	0	1624	0	0			0	0			1				0	
6.6.1	win	2023-06-26	23:45:58	23:57:48	702849	5db061b0f876e1001620e2ee	4	1	main_slash	11	main_slash	133	stimuli_target_squarediamonds.svg	stimuli_distractor_diamondtriangles.svg	8	yes	53	1	1244	0	0			0	0			1				0	
6.6.1	win	2023-06-26	23:45:58	23:57:48	702849	5db061b0f876e1001620e2ee	4	1	main_slash	11	advance_on_keypress_SLASH	134	stimuli_target_squarediamonds.svg	stimuli_distractor_diamondtriangles.svg	8	yes	57	0	3032	0	0			0	0			1				0	
6.6.1	win	2023-06-26	23:45:58	23:57:53	707727	5db061b0f876e1001620e2ee	4	1	main_slash	11	main_slash	135	stimuli_target_squaretriangles.svg	stimuli_distractor_trianglediamonds.svg	3	yes	53	1	1207	0	0			0	0			1				0	
6.6.1	win	2023-06-26	23:45:58	23:57:53	707727	5db061b0f876e1001620e2ee	4	1	main_slash	11	advance_on_keypress_SLASH	136	stimuli_target_squaretriangles.svg	stimuli_distractor_trianglediamonds.svg	3	yes	57	0	433	0	0			0	0			1				0	
6.6.1	win	2023-06-26	23:45:58	23:57:55	710059	5db061b0f876e1001620e2ee	4	1	main_slash	11	main_slash	137	stimuli_distractor_diamondtriangles.svg	stimuli_target_squaretriangles.svg	15	yes	53	1	1257	0	0			0	0			1				0	
6.6.1	win	2023-06-26	23:45:58	23:57:55	710059	5db061b0f876e1001620e2ee	4	1	main_slash	11	advance_on_keypress_SLASH	138	stimuli_distractor_diamondtriangles.svg	stimuli_target_squaretriangles.svg	15	yes	57	0	462	0	0			0	0			1				0	
6.6.1	win	2023-06-26	23:45:58	23:57:57	712353	5db061b0f876e1001620e2ee	4	1	main_slash	11	main_slash	139	stimuli_distractor_trianglediamonds.svg	stimuli_target_squarediamonds.svg	12	yes	53	1	1201	0	0			0	0			1				0	
6.6.1	win	2023-06-26	23:45:58	23:57:57	712353	5db061b0f876e1001620e2ee	4	1	main_slash	11	advance_on_keypress_SLASH	140	stimuli_distractor_trianglediamonds.svg	stimuli_target_squarediamonds.svg	12	yes	57	0	712	0	0			0	0			1				0	
6.6.1	win	2023-06-26	23:45:58	23:58:01	715693	5db061b0f876e1001620e2ee	4	1	main_slash	11	main_slash	141	stimuli_distractor_trianglediamonds.svg	stimuli_distractor_diamondtriangles.svg	35	no	0	1	2000	0	0			0	0			1				0	
6.6.1	win	2023-06-26	23:45:58	23:58:01	715693	5db061b0f876e1001620e2ee	4	1	main_slash	11	advance_on_keypress_SLASH	142	stimuli_distractor_trianglediamonds.svg	stimuli_distractor_diamondtriangles.svg	35	no	57	0	1305	0	0			0	0			1				0	
6.6.1	win	2023-06-26	23:45:58	23:58:04	718673	5db061b0f876e1001620e2ee	4	1	main_slash	11	main_slash	143	stimuli_target_squarediamonds.svg	stimuli_distractor_trianglediamonds.svg	4	yes	53	1	1047	0	0			0	0			1				0	
6.6.1	win	2023-06-26	23:45:58	23:58:04	718673	5db061b0f876e1001620e2ee	4	1	main_slash	11	advance_on_keypress_SLASH	144	stimuli_target_squarediamonds.svg	stimuli_distractor_trianglediamonds.svg	4	yes	57	0	752	0	0			0	0			1				0	
6.6.1	win	2023-06-26	23:45:58	23:58:06	721330	5db061b0f876e1001620e2ee	4	1	main_slash	11	main_slash	145	stimuli_distractor_trianglediamonds.svg	stimuli_target_diamondrectangles.svg	27	yes	53	1	1281	0	0			0	0			1				0	
6.6.1	win	2023-06-26	23:45:58	23:58:06	721330	5db061b0f876e1001620e2ee	4	1	main_slash	11	advance_on_keypress_SLASH	146	stimuli_distractor_trianglediamonds.svg	stimuli_target_diamondrectangles.svg	27	yes	57	0	804	0	0			0	0			1				0	
6.6.1	win	2023-06-26	23:45:58	23:58:09	723821	5db061b0f876e1001620e2ee	4	1	main_slash	11	main_slash	147	stimuli_target_diamondrectangles.svg	stimuli_distractor_diamondtriangles.svg	23	yes	53	1	1056	0	0			0	0			1				0	
6.6.1	win	2023-06-26	23:45:58	23:58:09	723821	5db061b0f876e1001620e2ee	4	1	main_slash	11	advance_on_keypress_SLASH	148	stimuli_target_diamondrectangles.svg	stimuli_distractor_diamondtriangles.svg	23	yes	57	0	623	0	0			0	0			1				0	
6.6.1	win	2023-06-26	23:45:58	23:58:12	726545	5db061b0f876e1001620e2ee	4	1	main_slash	11	main_slash	149	stimuli_distractor_trianglediamonds.svg	stimuli_distractor_trianglediamonds.svg	33	no	53	0	1473	0	0			0	0			1				0	
6.6.1	win	2023-06-26	23:45:58	23:58:12	726545	5db061b0f876e1001620e2ee	4	1	main_slash	11	advance_on_keypress_SLASH	150	stimuli_distractor_trianglediamonds.svg	stimuli_distractor_trianglediamonds.svg	33	no	57	0	633	0	0			0	0			1				0	
6.6.1	win	2023-06-26	23:45:58	23:58:14	729037	5db061b0f876e1001620e2ee	4	1	main_slash	11	main_slash	151	stimuli_distractor_trianglediamonds.svg	stimuli_target_squaretriangles.svg	11	yes	53	1	1223	0	0			0	0			1				0	
6.6.1	win	2023-06-26	23:45:58	23:58:14	729037	5db061b0f876e1001620e2ee	4	1	main_slash	11	advance_on_keypress_SLASH	152	stimuli_distractor_trianglediamonds.svg	stimuli_target_squaretriangles.svg	11	yes	57	0	640	0	0			0	0			1				0	
6.6.1	win	2023-06-26	23:45:58	23:58:17	732321	5db061b0f876e1001620e2ee	4	1	main_slash	11	main_slash	153	stimuli_distractor_diamondtriangles.svg	stimuli_distractor_diamondtriangles.svg	40	no	0	1	2000	0	0			0	0			1				0	
6.6.1	win	2023-06-26	23:45:58	23:58:17	732321	5db061b0f876e1001620e2ee	4	1	main_slash	11	advance_on_keypress_SLASH	154	stimuli_distractor_diamondtriangles.svg	stimuli_distractor_diamondtriangles.svg	40	no	57	0	1342	0	0			0	0			1				0	
6.6.1	win	2023-06-26	23:45:58	23:58:20	735394	5db061b0f876e1001620e2ee	4	1	main_slash	11	main_slash	155	stimuli_target_squaretriangles.svg	stimuli_distractor_diamondtriangles.svg	7	yes	53	1	1090	0	0			0	0			1				0	
6.6.1	win	2023-06-26	23:45:58	23:58:20	735394	5db061b0f876e1001620e2ee	4	1	main_slash	11	advance_on_keypress_SLASH	156	stimuli_target_squaretriangles.svg	stimuli_distractor_diamondtriangles.svg	7	yes	57	0	503	0	0			0	0			1				0	
6.6.1	win	2023-06-26	23:45:58	23:58:23	737751	5db061b0f876e1001620e2ee	4	1	main_slash	11	main_slash	157	stimuli_target_rectanglediamonds.svg	stimuli_distractor_trianglediamonds.svg	2	yes	53	1	1223	0	0			0	0			1				0	
6.6.1	win	2023-06-26	23:45:58	23:58:23	737751	5db061b0f876e1001620e2ee	4	1	main_slash	11	advance_on_keypress_SLASH	158	stimuli_target_rectanglediamonds.svg	stimuli_distractor_trianglediamonds.svg	2	yes	57	0	549	0	0			0	0			1				0	
6.6.1	win	2023-06-26	23:45:58	23:58:25	740247	5db061b0f876e1001620e2ee	4	1	main_slash	11	main_slash	159	stimuli_target_diamondsquares.svg	stimuli_distractor_diamondtriangles.svg	24	yes	53	1	1311	0	0			0	0			1				0	
6.6.1	win	2023-06-26	23:45:58	23:58:25	740247	5db061b0f876e1001620e2ee	4	1	main_slash	11	advance_on_keypress_SLASH	160	stimuli_target_diamondsquares.svg	stimuli_distractor_diamondtriangles.svg	24	yes	57	0	625	0	0			0	0			1				0	
6.6.1	win	2023-06-26	23:45:58	23:58:25	740247	5db061b0f876e1001620e2ee	4	1	headphonecheck_calibration	14	headphonecheck_calibrationIntro	1	stimuli_target_diamondsquares.svg	stimuli_distractor_diamondtriangles.svg	24	yes	calibrationButton	0	1866	0	0			0	0			1				0	
6.6.1	win	2023-06-26	23:45:58	23:58:25	740247	5db061b0f876e1001620e2ee	4	1	headphonecheck_testphase	15	test_collectResponse	3	stimuli_target_diamondsquares.svg	stimuli_distractor_diamondtriangles.svg	24	yes	first	0	9796	1	2	antiphase_hc_ios.wav	3	0	0			1				0	
6.6.1	win	2023-06-26	23:45:58	23:58:25	740247	5db061b0f876e1001620e2ee	4	1	headphonecheck_testphase	15	test_collectResponse	6	stimuli_target_diamondsquares.svg	stimuli_distractor_diamondtriangles.svg	24	yes	third	0	1022	2	1	antiphase_hc_iso.wav	2	0	0			1				0	
6.6.1	win	2023-06-26	23:45:58	23:58:25	740247	5db061b0f876e1001620e2ee	4	1	headphonecheck_testphase	15	test_collectResponse	9	stimuli_target_diamondsquares.svg	stimuli_distractor_diamondtriangles.svg	24	yes	first	0	1945	3	5	antiphase_hc_osi.wav	2	0	0			1				0	
6.6.1	win	2023-06-26	23:45:58	23:58:25	740247	5db061b0f876e1001620e2ee	4	1	headphonecheck_testphase	15	test_collectResponse	12	stimuli_target_diamondsquares.svg	stimuli_distractor_diamondtriangles.svg	24	yes	first	0	2348	4	6	antiphase_hc_ois.wav	3	0	0			1				0	
6.6.1	win	2023-06-26	23:45:58	23:58:25	740247	5db061b0f876e1001620e2ee	4	1	headphonecheck_testphase	15	test_collectResponse	15	stimuli_target_diamondsquares.svg	stimuli_distractor_diamondtriangles.svg	24	yes	third	0	722	5	4	antiphase_hc_sio.wav	1	0	0			1				0	
6.6.1	win	2023-06-26	23:45:58	23:58:25	740247	5db061b0f876e1001620e2ee	4	1	headphonecheck_testphase	15	test_collectResponse	18	stimuli_target_diamondsquares.svg	stimuli_distractor_diamondtriangles.svg	24	yes	second	0	440	6	3	antiphase_hc_soi.wav	1	0	0			1				0	
6.6.1	win	2023-06-26	23:45:58	23:58:25	740247	5db061b0f876e1001620e2ee	4	1	stereocheck_calibration	17	stereocheck_calibrationIntro	1	stimuli_target_diamondsquares.svg	stimuli_distractor_diamondtriangles.svg	24	yes	stereocheck_calibrationButton	0	3994	6	3	antiphase_hc_soi.wav	1	0	0			1				0	
6.6.1	win	2023-06-26	23:45:58	23:58:25	740247	5db061b0f876e1001620e2ee	4	1	stereocheck_testphase	18	stereocheck_test_collectResponse	3	stimuli_target_diamondsquares.svg	stimuli_distractor_diamondtriangles.svg	24	yes	stereocheck_left	0	553	6	3	antiphase_hc_soi.wav	1	1	4	noise_calib_stim_RIGHT.wav	2	1				0	
6.6.1	win	2023-06-26	23:45:58	23:58:25	740247	5db061b0f876e1001620e2ee	4	1	stereocheck_testphase	18	stereocheck_test_collectResponse	6	stimuli_target_diamondsquares.svg	stimuli_distractor_diamondtriangles.svg	24	yes	stereocheck_right	1	397	6	3	antiphase_hc_soi.wav	1	2	6	noise_calib_stim_RIGHT.wav	2	1				0	
6.6.1	win	2023-06-26	23:45:58	23:58:25	740247	5db061b0f876e1001620e2ee	4	1	stereocheck_testphase	18	stereocheck_test_collectResponse	9	stimuli_target_diamondsquares.svg	stimuli_distractor_diamondtriangles.svg	24	yes	stereocheck_right	0	1125	6	3	antiphase_hc_soi.wav	1	3	2	noise_calib_stim_LEFT.wav	1	1				0	
6.6.1	win	2023-06-26	23:45:58	23:58:25	740247	5db061b0f876e1001620e2ee	4	1	stereocheck_testphase	18	stereocheck_test_collectResponse	12	stimuli_target_diamondsquares.svg	stimuli_distractor_diamondtriangles.svg	24	yes	stereocheck_right	0	338	6	3	antiphase_hc_soi.wav	1	4	1	noise_calib_stim_LEFT.wav	1	1				0	
6.6.1	win	2023-06-26	23:45:58	23:58:25	740247	5db061b0f876e1001620e2ee	4	1	stereocheck_testphase	18	stereocheck_test_collectResponse	15	stimuli_target_diamondsquares.svg	stimuli_distractor_diamondtriangles.svg	24	yes	stereocheck_left	0	881	6	3	antiphase_hc_soi.wav	1	5	5	noise_calib_stim_RIGHT.wav	2	1				0	
6.6.1	win	2023-06-26	23:45:58	23:58:25	740247	5db061b0f876e1001620e2ee	4	1	stereocheck_testphase	18	stereocheck_test_collectResponse	18	stimuli_target_diamondsquares.svg	stimuli_distractor_diamondtriangles.svg	24	yes	stereocheck_left	1	323	6	3	antiphase_hc_soi.wav	1	6	3	noise_calib_stim_LEFT.wav	1	1				0	
6.6.1	win	2023-06-26	23:45:58	23:58:25	740247	5db061b0f876e1001620e2ee	4	1	DL_practice	21	DL_practice	2	stimuli_target_diamondsquares.svg	stimuli_distractor_diamondtriangles.svg	24	yes	ka	1	2160	6	3	antiphase_hc_soi.wav	1	6	3	noise_calib_stim_LEFT.wav	1	23	blb_dichoticlistening_ka-pa.mp3	ka	pa	1	left
6.6.1	win	2023-06-26	23:45:58	23:58:25	740247	5db061b0f876e1001620e2ee	4	1	DL_practice	21	DL_practice	3	stimuli_target_diamondsquares.svg	stimuli_distractor_diamondtriangles.svg	24	yes	ta	1	1825	6	3	antiphase_hc_soi.wav	1	6	3	noise_calib_stim_LEFT.wav	1	36	blb_dichoticlistening_ta-ta.mp3	ta	ta	0	left
6.6.1	win	2023-06-26	23:45:58	23:58:25	740247	5db061b0f876e1001620e2ee	4	1	DL_practice	21	DL_practice	4	stimuli_target_diamondsquares.svg	stimuli_distractor_diamondtriangles.svg	24	yes	ka	1	1306	6	3	antiphase_hc_soi.wav	1	6	3	noise_calib_stim_LEFT.wav	1	22	blb_dichoticlistening_ka-ka.mp3	ka	ka	0	left
6.6.1	win	2023-06-26	23:45:58	23:58:25	740247	5db061b0f876e1001620e2ee	4	1	DL_practice	21	DL_practice	5	stimuli_target_diamondsquares.svg	stimuli_distractor_diamondtriangles.svg	24	yes	ba	1	1255	6	3	antiphase_hc_soi.wav	1	6	3	noise_calib_stim_LEFT.wav	1	1	blb_dichoticlistening_ba-ba.mp3	ba	ba	0	left
6.6.1	win	2023-06-26	23:45:58	23:58:25	740247	5db061b0f876e1001620e2ee	4	1	DL_practice	21	DL_practice	6	stimuli_target_diamondsquares.svg	stimuli_distractor_diamondtriangles.svg	24	yes	da	1	970	6	3	antiphase_hc_soi.wav	1	6	3	noise_calib_stim_LEFT.wav	1	8	blb_dichoticlistening_da-da.mp3	da	da	0	left
6.6.1	win	2023-06-26	23:45:58	23:58:25	740247	5db061b0f876e1001620e2ee	4	1	DL_practice	21	DL_practice	7	stimuli_target_diamondsquares.svg	stimuli_distractor_diamondtriangles.svg	24	yes	pa	1	1275	6	3	antiphase_hc_soi.wav	1	6	3	noise_calib_stim_LEFT.wav	1	29	blb_dichoticlistening_pa-pa.mp3	pa	pa	0	left
6.6.1	win	2023-06-26	23:45:58	23:58:25	740247	5db061b0f876e1001620e2ee	4	1	DL_practice	21	DL_practice	8	stimuli_target_diamondsquares.svg	stimuli_distractor_diamondtriangles.svg	24	yes	ga	1	989	6	3	antiphase_hc_soi.wav	1	6	3	noise_calib_stim_LEFT.wav	1	18	blb_dichoticlistening_ga-ta.mp3	ga	ta	1	left
6.6.1	win	2023-06-26	23:45:58	23:58:25	740247	5db061b0f876e1001620e2ee	4	1	DL_practice	21	DL_practice	9	stimuli_target_diamondsquares.svg	stimuli_distractor_diamondtriangles.svg	24	yes	ba	1	2346	6	3	antiphase_hc_soi.wav	1	6	3	noise_calib_stim_LEFT.wav	1	7	blb_dichoticlistening_da-ba.mp3	da	ba	1	right
6.6.1	win	2023-06-26	23:45:58	23:58:25	740247	5db061b0f876e1001620e2ee	4	1	DL_practice	21	DL_practice	10	stimuli_target_diamondsquares.svg	stimuli_distractor_diamondtriangles.svg	24	yes	ga	1	1344	6	3	antiphase_hc_soi.wav	1	6	3	noise_calib_stim_LEFT.wav	1	15	blb_dichoticlistening_ga-ga.mp3	ga	ga	0	left
6.6.1	win	2023-06-26	23:45:58	23:58:25	740247	5db061b0f876e1001620e2ee	4	1	DL_test	23	DL_test	1	stimuli_target_diamondsquares.svg	stimuli_distractor_diamondtriangles.svg	24	yes	ga	1	1043	6	3	antiphase_hc_soi.wav	1	6	3	noise_calib_stim_LEFT.wav	1	14	blb_dichoticlistening_ga-da.mp3	ga	da	1	left
6.6.1	win	2023-06-26	23:45:58	23:58:25	740247	5db061b0f876e1001620e2ee	4	1	DL_test	23	DL_test	2	stimuli_target_diamondsquares.svg	stimuli_distractor_diamondtriangles.svg	24	yes	da	1	1464	6	3	antiphase_hc_soi.wav	1	6	3	noise_calib_stim_LEFT.wav	1	10	blb_dichoticlistening_da-ka.mp3	da	ka	1	left
6.6.1	win	2023-06-26	23:45:58	23:58:25	740247	5db061b0f876e1001620e2ee	4	1	DL_test	23	DL_test	3	stimuli_target_diamondsquares.svg	stimuli_distractor_diamondtriangles.svg	24	yes	ga	1	962	6	3	antiphase_hc_soi.wav	1	6	3	noise_calib_stim_LEFT.wav	1	18	blb_dichoticlistening_ga-ta.mp3	ga	ta	1	left
6.6.1	win	2023-06-26	23:45:58	23:58:25	740247	5db061b0f876e1001620e2ee	4	1	DL_test	23	DL_test	4	stimuli_target_diamondsquares.svg	stimuli_distractor_diamondtriangles.svg	24	yes	ba	1	2861	6	3	antiphase_hc_soi.wav	1	6	3	noise_calib_stim_LEFT.wav	1	4	blb_dichoticlistening_ba-ka.mp3	ba	ka	1	left
6.6.1	win	2023-06-26	23:45:58	23:58:25	740247	5db061b0f876e1001620e2ee	4	1	DL_test	23	DL_test	5	stimuli_target_diamondsquares.svg	stimuli_distractor_diamondtriangles.svg	24	yes	ta	1	1979	6	3	antiphase_hc_soi.wav	1	6	3	noise_calib_stim_LEFT.wav	1	35	blb_dichoticlistening_ta-pa.mp3	ta	pa	1	left
6.6.1	win	2023-06-26	23:45:58	23:58:25	740247	5db061b0f876e1001620e2ee	4	1	DL_test	23	DL_test	6	stimuli_target_diamondsquares.svg	stimuli_distractor_diamondtriangles.svg	24	yes	ka	1	1297	6	3	antiphase_hc_soi.wav	1	6	3	noise_calib_stim_LEFT.wav	1	23	blb_dichoticlistening_ka-pa.mp3	ka	pa	1	left
6.6.1	win	2023-06-26	23:45:58	23:58:25	740247	5db061b0f876e1001620e2ee	4	1	DL_test	23	DL_test	7	stimuli_target_diamondsquares.svg	stimuli_distractor_diamondtriangles.svg	24	yes	da	1	1333	6	3	antiphase_hc_soi.wav	1	6	3	noise_calib_stim_LEFT.wav	1	32	blb_dichoticlistening_ta-da.mp3	ta	da	1	right
6.6.1	win	2023-06-26	23:45:58	23:58:25	740247	5db061b0f876e1001620e2ee	4	1	DL_test	23	DL_test	8	stimuli_target_diamondsquares.svg	stimuli_distractor_diamondtriangles.svg	24	yes	ka	1	1132	6	3	antiphase_hc_soi.wav	1	6	3	noise_calib_stim_LEFT.wav	1	34	blb_dichoticlistening_ta-ka.mp3	ta	ka	1	right
6.6.1	win	2023-06-26	23:45:58	23:58:25	740247	5db061b0f876e1001620e2ee	4	1	DL_test	23	DL_test	9	stimuli_target_diamondsquares.svg	stimuli_distractor_diamondtriangles.svg	24	yes	ba	1	1884	6	3	antiphase_hc_soi.wav	1	6	3	noise_calib_stim_LEFT.wav	1	13	blb_dichoticlistening_ga-ba.mp3	ga	ba	1	right
6.6.1	win	2023-06-26	23:45:58	23:58:25	740247	5db061b0f876e1001620e2ee	4	1	DL_test	23	DL_test	10	stimuli_target_diamondsquares.svg	stimuli_distractor_diamondtriangles.svg	24	yes	ba	1	1380	6	3	antiphase_hc_soi.wav	1	6	3	noise_calib_stim_LEFT.wav	1	2	blb_dichoticlistening_ba-da.mp3	ba	da	1	left
6.6.1	win	2023-06-26	23:45:58	23:58:25	740247	5db061b0f876e1001620e2ee	4	1	DL_test	23	DL_test	11	stimuli_target_diamondsquares.svg	stimuli_distractor_diamondtriangles.svg	24	yes	pa	1	1364	6	3	antiphase_hc_soi.wav	1	6	3	noise_calib_stim_LEFT.wav	1	29	blb_dichoticlistening_pa-pa.mp3	pa	pa	0	left
6.6.1	win	2023-06-26	23:45:58	23:58:25	740247	5db061b0f876e1001620e2ee	4	1	DL_test	23	DL_test	12	stimuli_target_diamondsquares.svg	stimuli_distractor_diamondtriangles.svg	24	yes	ga	1	1185	6	3	antiphase_hc_soi.wav	1	6	3	noise_calib_stim_LEFT.wav	1	27	blb_dichoticlistening_pa-ga.mp3	pa	ga	1	right
6.6.1	win	2023-06-26	23:45:58	23:58:25	740247	5db061b0f876e1001620e2ee	4	1	DL_test	23	DL_test	13	stimuli_target_diamondsquares.svg	stimuli_distractor_diamondtriangles.svg	24	yes	ba	1	2224	6	3	antiphase_hc_soi.wav	1	6	3	noise_calib_stim_LEFT.wav	1	7	blb_dichoticlistening_da-ba.mp3	da	ba	1	right
6.6.1	win	2023-06-26	23:45:58	23:58:25	740247	5db061b0f876e1001620e2ee	4	1	DL_test	23	DL_test	14	stimuli_target_diamondsquares.svg	stimuli_distractor_diamondtriangles.svg	24	yes	ga	1	1561	6	3	antiphase_hc_soi.wav	1	6	3	noise_calib_stim_LEFT.wav	1	21	blb_dichoticlistening_ka-ga.mp3	ka	ga	1	right
6.6.1	win	2023-06-26	23:45:58	23:58:25	740247	5db061b0f876e1001620e2ee	4	1	DL_test	23	DL_test	15	stimuli_target_diamondsquares.svg	stimuli_distractor_diamondtriangles.svg	24	yes	da	1	989	6	3	antiphase_hc_soi.wav	1	6	3	noise_calib_stim_LEFT.wav	1	26	blb_dichoticlistening_pa-da.mp3	pa	da	1	right
6.6.1	win	2023-06-26	23:45:58	23:58:25	740247	5db061b0f876e1001620e2ee	4	1	DL_test	23	DL_test	16	stimuli_target_diamondsquares.svg	stimuli_distractor_diamondtriangles.svg	24	yes	ga	0	1107	6	3	antiphase_hc_soi.wav	1	6	3	noise_calib_stim_LEFT.wav	1	20	blb_dichoticlistening_ka-da.mp3	ka	da	1	other
6.6.1	win	2023-06-26	23:45:58	23:58:25	740247	5db061b0f876e1001620e2ee	4	1	DL_test	23	DL_test	17	stimuli_target_diamondsquares.svg	stimuli_distractor_diamondtriangles.svg	24	yes	ga	1	1022	6	3	antiphase_hc_soi.wav	1	6	3	noise_calib_stim_LEFT.wav	1	17	blb_dichoticlistening_ga-pa.mp3	ga	pa	1	left
6.6.1	win	2023-06-26	23:45:58	23:58:25	740247	5db061b0f876e1001620e2ee	4	1	DL_test	23	DL_test	18	stimuli_target_diamondsquares.svg	stimuli_distractor_diamondtriangles.svg	24	yes	ga	1	1422	6	3	antiphase_hc_soi.wav	1	6	3	noise_calib_stim_LEFT.wav	1	9	blb_dichoticlistening_da-ga.mp3	da	ga	1	right
6.6.1	win	2023-06-26	23:45:58	23:58:25	740247	5db061b0f876e1001620e2ee	4	1	DL_test	23	DL_test	19	stimuli_target_diamondsquares.svg	stimuli_distractor_diamondtriangles.svg	24	yes	ta	1	1654	6	3	antiphase_hc_soi.wav	1	6	3	noise_calib_stim_LEFT.wav	1	36	blb_dichoticlistening_ta-ta.mp3	ta	ta	0	left
6.6.1	win	2023-06-26	23:45:58	23:58:25	740247	5db061b0f876e1001620e2ee	4	1	DL_test	23	DL_test	20	stimuli_target_diamondsquares.svg	stimuli_distractor_diamondtriangles.svg	24	yes	ba	1	1774	6	3	antiphase_hc_soi.wav	1	6	3	noise_calib_stim_LEFT.wav	1	3	blb_dichoticlistening_ba-ga.mp3	ba	ga	1	left
6.6.1	win	2023-06-26	23:45:58	23:58:25	740247	5db061b0f876e1001620e2ee	4	1	DL_test	23	DL_test	21	stimuli_target_diamondsquares.svg	stimuli_distractor_diamondtriangles.svg	24	yes	da	1	1577	6	3	antiphase_hc_soi.wav	1	6	3	noise_calib_stim_LEFT.wav	1	12	blb_dichoticlistening_da-ta.mp3	da	ta	1	left
6.6.1	win	2023-06-26	23:45:58	23:58:25	740247	5db061b0f876e1001620e2ee	4	1	DL_test	23	DL_test	22	stimuli_target_diamondsquares.svg	stimuli_distractor_diamondtriangles.svg	24	yes	ba	1	1704	6	3	antiphase_hc_soi.wav	1	6	3	noise_calib_stim_LEFT.wav	1	1	blb_dichoticlistening_ba-ba.mp3	ba	ba	0	left
6.6.1	win	2023-06-26	23:45:58	23:58:25	740247	5db061b0f876e1001620e2ee	4	1	DL_test	23	DL_test	23	stimuli_target_diamondsquares.svg	stimuli_distractor_diamondtriangles.svg	24	yes	ta	1	2003	6	3	antiphase_hc_soi.wav	1	6	3	noise_calib_stim_LEFT.wav	1	30	blb_dichoticlistening_pa-ta.mp3	pa	ta	1	right
6.6.1	win	2023-06-26	23:45:58	23:58:25	740247	5db061b0f876e1001620e2ee	4	1	DL_test	23	DL_test	24	stimuli_target_diamondsquares.svg	stimuli_distractor_diamondtriangles.svg	24	yes	ba	1	1382	6	3	antiphase_hc_soi.wav	1	6	3	noise_calib_stim_LEFT.wav	1	19	blb_dichoticlistening_ka-ba.mp3	ka	ba	1	right
6.6.1	win	2023-06-26	23:45:58	23:58:25	740247	5db061b0f876e1001620e2ee	4	1	DL_test	23	DL_test	25	stimuli_target_diamondsquares.svg	stimuli_distractor_diamondtriangles.svg	24	yes	da	1	1010	6	3	antiphase_hc_soi.wav	1	6	3	noise_calib_stim_LEFT.wav	1	8	blb_dichoticlistening_da-da.mp3	da	da	0	left
6.6.1	win	2023-06-26	23:45:58	23:58:25	740247	5db061b0f876e1001620e2ee	4	1	DL_test	23	DL_test	26	stimuli_target_diamondsquares.svg	stimuli_distractor_diamondtriangles.svg	24	yes	ka	1	1634	6	3	antiphase_hc_soi.wav	1	6	3	noise_calib_stim_LEFT.wav	1	24	blb_dichoticlistening_ka-ta.mp3	ka	ta	1	left
