build	computer.platform	date	time	timestamp	time_elapsed_ms	subject	group	session	blockcode	blocknum	trialcode	trialnum	stimulus_left	stimulus_right	stim_index	target_present	response	correct	latency	headphonecheck_countTestTrials	headphonecheck_index	headphonecheck_testSound	headphonecheck_correctResponse	stereocheck_countTestTrials	stereocheck_index	stereocheck_testSound	stereocheck_correctResponse	DL_index	DL_soundfile	DL_leftSound	DL_rightSound	DL_dualSound	DL_choice
6.6.1	mac	2023-06-02	07:26:16	0	0	5d55d562e04e1c0001f5e682	2	1	headphonecheck_calibration	4	headphonecheck_calibrationIntro	1			0		calibrationButton	0	2353	0	0			0	0			1				0	
6.6.1	mac	2023-06-02	07:26:16	0	0	5d55d562e04e1c0001f5e682	2	1	headphonecheck_testphase	5	test_collectResponse	3			0		second	1	542	1	1	antiphase_hc_iso.wav	2	0	0			1				0	
6.6.1	mac	2023-06-02	07:26:16	0	0	5d55d562e04e1c0001f5e682	2	1	headphonecheck_testphase	5	test_collectResponse	6			0		third	1	475	2	6	antiphase_hc_ois.wav	3	0	0			1				0	
6.6.1	mac	2023-06-02	07:26:16	0	0	5d55d562e04e1c0001f5e682	2	1	headphonecheck_testphase	5	test_collectResponse	9			0		third	1	516	3	2	antiphase_hc_ios.wav	3	0	0			1				0	
6.6.1	mac	2023-06-02	07:26:16	0	0	5d55d562e04e1c0001f5e682	2	1	headphonecheck_testphase	5	test_collectResponse	12			0		first	1	430	4	4	antiphase_hc_sio.wav	1	0	0			1				0	
6.6.1	mac	2023-06-02	07:26:16	0	0	5d55d562e04e1c0001f5e682	2	1	headphonecheck_testphase	5	test_collectResponse	15			0		first	1	395	5	3	antiphase_hc_soi.wav	1	0	0			1				0	
6.6.1	mac	2023-06-02	07:26:16	0	0	5d55d562e04e1c0001f5e682	2	1	headphonecheck_testphase	5	test_collectResponse	18			0		second	1	490	6	5	antiphase_hc_osi.wav	2	0	0			1				0	
6.6.1	mac	2023-06-02	07:26:16	0	0	5d55d562e04e1c0001f5e682	2	1	stereocheck_calibration	7	stereocheck_calibrationIntro	1			0		stereocheck_calibrationButton	0	4037	6	5	antiphase_hc_osi.wav	2	0	0			1				0	
6.6.1	mac	2023-06-02	07:26:16	0	0	5d55d562e04e1c0001f5e682	2	1	stereocheck_testphase	8	stereocheck_test_collectResponse	3			0		stereocheck_left	1	429	6	5	antiphase_hc_osi.wav	2	1	1	noise_calib_stim_LEFT.wav	1	1				0	
6.6.1	mac	2023-06-02	07:26:16	0	0	5d55d562e04e1c0001f5e682	2	1	stereocheck_testphase	8	stereocheck_test_collectResponse	6			0		stereocheck_left	1	539	6	5	antiphase_hc_osi.wav	2	2	2	noise_calib_stim_LEFT.wav	1	1				0	
6.6.1	mac	2023-06-02	07:26:16	0	0	5d55d562e04e1c0001f5e682	2	1	stereocheck_testphase	8	stereocheck_test_collectResponse	9			0		stereocheck_left	1	442	6	5	antiphase_hc_osi.wav	2	3	3	noise_calib_stim_LEFT.wav	1	1				0	
6.6.1	mac	2023-06-02	07:26:16	0	0	5d55d562e04e1c0001f5e682	2	1	stereocheck_testphase	8	stereocheck_test_collectResponse	12			0		stereocheck_right	1	595	6	5	antiphase_hc_osi.wav	2	4	6	noise_calib_stim_RIGHT.wav	2	1				0	
6.6.1	mac	2023-06-02	07:26:16	0	0	5d55d562e04e1c0001f5e682	2	1	stereocheck_testphase	8	stereocheck_test_collectResponse	15			0		stereocheck_right	1	361	6	5	antiphase_hc_osi.wav	2	5	4	noise_calib_stim_RIGHT.wav	2	1				0	
6.6.1	mac	2023-06-02	07:26:16	0	0	5d55d562e04e1c0001f5e682	2	1	stereocheck_testphase	8	stereocheck_test_collectResponse	18			0		stereocheck_right	1	375	6	5	antiphase_hc_osi.wav	2	6	5	noise_calib_stim_RIGHT.wav	2	1				0	
6.6.1	mac	2023-06-02	07:26:16	0	0	5d55d562e04e1c0001f5e682	2	1	DL_practice	11	DL_practice	2			0		ka	1	1401	6	5	antiphase_hc_osi.wav	2	6	5	noise_calib_stim_RIGHT.wav	2	22	blb_dichoticlistening_ka-ka.mp3	ka	ka	0	left
6.6.1	mac	2023-06-02	07:26:16	0	0	5d55d562e04e1c0001f5e682	2	1	DL_practice	11	DL_practice	3			0		da	1	1328	6	5	antiphase_hc_osi.wav	2	6	5	noise_calib_stim_RIGHT.wav	2	8	blb_dichoticlistening_da-da.mp3	da	da	0	left
6.6.1	mac	2023-06-02	07:26:16	0	0	5d55d562e04e1c0001f5e682	2	1	DL_practice	11	DL_practice	4			0		ta	1	1410	6	5	antiphase_hc_osi.wav	2	6	5	noise_calib_stim_RIGHT.wav	2	36	blb_dichoticlistening_ta-ta.mp3	ta	ta	0	left
6.6.1	mac	2023-06-02	07:26:16	0	0	5d55d562e04e1c0001f5e682	2	1	DL_practice	11	DL_practice	5			0		da	1	3578	6	5	antiphase_hc_osi.wav	2	6	5	noise_calib_stim_RIGHT.wav	2	7	blb_dichoticlistening_da-ba.mp3	da	ba	1	left
6.6.1	mac	2023-06-02	07:26:16	0	0	5d55d562e04e1c0001f5e682	2	1	DL_practice	11	DL_practice	6			0		ka	0	1467	6	5	antiphase_hc_osi.wav	2	6	5	noise_calib_stim_RIGHT.wav	2	18	blb_dichoticlistening_ga-ta.mp3	ga	ta	1	other
6.6.1	mac	2023-06-02	07:26:16	0	0	5d55d562e04e1c0001f5e682	2	1	DL_practice	11	DL_practice	7			0		ba	1	1811	6	5	antiphase_hc_osi.wav	2	6	5	noise_calib_stim_RIGHT.wav	2	1	blb_dichoticlistening_ba-ba.mp3	ba	ba	0	left
6.6.1	mac	2023-06-02	07:26:16	0	0	5d55d562e04e1c0001f5e682	2	1	DL_practice	11	DL_practice	8			0		pa	1	1532	6	5	antiphase_hc_osi.wav	2	6	5	noise_calib_stim_RIGHT.wav	2	23	blb_dichoticlistening_ka-pa.mp3	ka	pa	1	right
6.6.1	mac	2023-06-02	07:26:16	0	0	5d55d562e04e1c0001f5e682	2	1	DL_practice	11	DL_practice	9			0		pa	1	1519	6	5	antiphase_hc_osi.wav	2	6	5	noise_calib_stim_RIGHT.wav	2	29	blb_dichoticlistening_pa-pa.mp3	pa	pa	0	left
6.6.1	mac	2023-06-02	07:26:16	0	0	5d55d562e04e1c0001f5e682	2	1	DL_practice	11	DL_practice	10			0		ga	1	1479	6	5	antiphase_hc_osi.wav	2	6	5	noise_calib_stim_RIGHT.wav	2	15	blb_dichoticlistening_ga-ga.mp3	ga	ga	0	left
6.6.1	mac	2023-06-02	07:26:16	0	0	5d55d562e04e1c0001f5e682	2	1	DL_test	13	DL_test	1			0		ga	0	2295	6	5	antiphase_hc_osi.wav	2	6	5	noise_calib_stim_RIGHT.wav	2	11	blb_dichoticlistening_da-pa.mp3	da	pa	1	other
6.6.1	mac	2023-06-02	07:26:16	0	0	5d55d562e04e1c0001f5e682	2	1	DL_test	13	DL_test	2			0		pa	1	1353	6	5	antiphase_hc_osi.wav	2	6	5	noise_calib_stim_RIGHT.wav	2	17	blb_dichoticlistening_ga-pa.mp3	ga	pa	1	right
6.6.1	mac	2023-06-02	07:26:16	0	0	5d55d562e04e1c0001f5e682	2	1	DL_test	13	DL_test	3			0		da	1	1331	6	5	antiphase_hc_osi.wav	2	6	5	noise_calib_stim_RIGHT.wav	2	2	blb_dichoticlistening_ba-da.mp3	ba	da	1	right
6.6.1	mac	2023-06-02	07:26:16	0	0	5d55d562e04e1c0001f5e682	2	1	DL_test	13	DL_test	4			0		ta	1	1387	6	5	antiphase_hc_osi.wav	2	6	5	noise_calib_stim_RIGHT.wav	2	36	blb_dichoticlistening_ta-ta.mp3	ta	ta	0	left
6.6.1	mac	2023-06-02	07:26:16	0	0	5d55d562e04e1c0001f5e682	2	1	DL_test	13	DL_test	5			0		ta	1	1500	6	5	antiphase_hc_osi.wav	2	6	5	noise_calib_stim_RIGHT.wav	2	12	blb_dichoticlistening_da-ta.mp3	da	ta	1	right
6.6.1	mac	2023-06-02	07:26:16	0	0	5d55d562e04e1c0001f5e682	2	1	DL_test	13	DL_test	6			0		pa	1	1087	6	5	antiphase_hc_osi.wav	2	6	5	noise_calib_stim_RIGHT.wav	2	25	blb_dichoticlistening_pa-ba.mp3	pa	ba	1	left
6.6.1	mac	2023-06-02	07:26:16	0	0	5d55d562e04e1c0001f5e682	2	1	DL_test	13	DL_test	7			0		ka	0	1760	6	5	antiphase_hc_osi.wav	2	6	5	noise_calib_stim_RIGHT.wav	2	32	blb_dichoticlistening_ta-da.mp3	ta	da	1	other
6.6.1	mac	2023-06-02	07:26:16	0	0	5d55d562e04e1c0001f5e682	2	1	DL_test	13	DL_test	8			0		ta	1	1296	6	5	antiphase_hc_osi.wav	2	6	5	noise_calib_stim_RIGHT.wav	2	35	blb_dichoticlistening_ta-pa.mp3	ta	pa	1	left
6.6.1	mac	2023-06-02	07:26:16	0	0	5d55d562e04e1c0001f5e682	2	1	DL_test	13	DL_test	9			0		ba	1	2662	6	5	antiphase_hc_osi.wav	2	6	5	noise_calib_stim_RIGHT.wav	2	1	blb_dichoticlistening_ba-ba.mp3	ba	ba	0	left
6.6.1	mac	2023-06-02	07:26:16	0	0	5d55d562e04e1c0001f5e682	2	1	DL_test	13	DL_test	10			0		ta	1	1325	6	5	antiphase_hc_osi.wav	2	6	5	noise_calib_stim_RIGHT.wav	2	24	blb_dichoticlistening_ka-ta.mp3	ka	ta	1	right
6.6.1	mac	2023-06-02	07:26:16	0	0	5d55d562e04e1c0001f5e682	2	1	DL_test	13	DL_test	11			0		ka	0	2824	6	5	antiphase_hc_osi.wav	2	6	5	noise_calib_stim_RIGHT.wav	2	27	blb_dichoticlistening_pa-ga.mp3	pa	ga	1	other
6.6.1	mac	2023-06-02	07:26:16	0	0	5d55d562e04e1c0001f5e682	2	1	DL_test	13	DL_test	12			0		da	0	3011	6	5	antiphase_hc_osi.wav	2	6	5	noise_calib_stim_RIGHT.wav	2	19	blb_dichoticlistening_ka-ba.mp3	ka	ba	1	other
6.6.1	mac	2023-06-02	07:26:16	0	0	5d55d562e04e1c0001f5e682	2	1	DL_test	13	DL_test	13			0		ta	1	1317	6	5	antiphase_hc_osi.wav	2	6	5	noise_calib_stim_RIGHT.wav	2	6	blb_dichoticlistening_ba-ta.mp3	ba	ta	1	right
6.6.1	mac	2023-06-02	07:26:16	0	0	5d55d562e04e1c0001f5e682	2	1	DL_test	13	DL_test	14			0		ta	1	1441	6	5	antiphase_hc_osi.wav	2	6	5	noise_calib_stim_RIGHT.wav	2	18	blb_dichoticlistening_ga-ta.mp3	ga	ta	1	right
6.6.1	mac	2023-06-02	07:26:16	0	0	5d55d562e04e1c0001f5e682	2	1	DL_test	13	DL_test	15			0		pa	1	1144	6	5	antiphase_hc_osi.wav	2	6	5	noise_calib_stim_RIGHT.wav	2	26	blb_dichoticlistening_pa-da.mp3	pa	da	1	left
6.6.1	mac	2023-06-02	07:26:16	0	0	5d55d562e04e1c0001f5e682	2	1	DL_test	13	DL_test	16			0		pa	1	1177	6	5	antiphase_hc_osi.wav	2	6	5	noise_calib_stim_RIGHT.wav	2	5	blb_dichoticlistening_ba-pa.mp3	ba	pa	1	right
6.6.1	mac	2023-06-02	07:26:16	0	0	5d55d562e04e1c0001f5e682	2	1	DL_test	13	DL_test	17			0		ka	1	1054	6	5	antiphase_hc_osi.wav	2	6	5	noise_calib_stim_RIGHT.wav	2	22	blb_dichoticlistening_ka-ka.mp3	ka	ka	0	left
6.6.1	mac	2023-06-02	07:26:16	0	0	5d55d562e04e1c0001f5e682	2	1	DL_test	13	DL_test	18			0		ka	0	1666	6	5	antiphase_hc_osi.wav	2	6	5	noise_calib_stim_RIGHT.wav	2	31	blb_dichoticlistening_ta-ba.mp3	ta	ba	1	other
6.6.1	mac	2023-06-02	07:26:16	0	0	5d55d562e04e1c0001f5e682	2	1	DL_test	13	DL_test	19			0		pa	1	1064	6	5	antiphase_hc_osi.wav	2	6	5	noise_calib_stim_RIGHT.wav	2	23	blb_dichoticlistening_ka-pa.mp3	ka	pa	1	right
6.6.1	mac	2023-06-02	07:26:16	0	0	5d55d562e04e1c0001f5e682	2	1	DL_test	13	DL_test	20			0		ba	1	1657	6	5	antiphase_hc_osi.wav	2	6	5	noise_calib_stim_RIGHT.wav	2	13	blb_dichoticlistening_ga-ba.mp3	ga	ba	1	right
6.6.1	mac	2023-06-02	07:26:16	0	0	5d55d562e04e1c0001f5e682	2	1	DL_test	13	DL_test	21			0		pa	0	1437	6	5	antiphase_hc_osi.wav	2	6	5	noise_calib_stim_RIGHT.wav	2	10	blb_dichoticlistening_da-ka.mp3	da	ka	1	other
6.6.1	mac	2023-06-02	07:26:16	0	0	5d55d562e04e1c0001f5e682	2	1	DL_test	13	DL_test	22			0		ka	1	1250	6	5	antiphase_hc_osi.wav	2	6	5	noise_calib_stim_RIGHT.wav	2	16	blb_dichoticlistening_ga-ka.mp3	ga	ka	1	right
6.6.1	mac	2023-06-02	07:26:16	0	0	5d55d562e04e1c0001f5e682	2	1	DL_test	13	DL_test	23			0		da	1	1903	6	5	antiphase_hc_osi.wav	2	6	5	noise_calib_stim_RIGHT.wav	2	8	blb_dichoticlistening_da-da.mp3	da	da	0	left
6.6.1	mac	2023-06-02	07:26:16	0	0	5d55d562e04e1c0001f5e682	2	1	DL_test	13	DL_test	24			0		pa	1	1283	6	5	antiphase_hc_osi.wav	2	6	5	noise_calib_stim_RIGHT.wav	2	29	blb_dichoticlistening_pa-pa.mp3	pa	pa	0	left
6.6.1	mac	2023-06-02	07:26:16	0	0	5d55d562e04e1c0001f5e682	2	1	DL_test	13	DL_test	25			0		ga	1	2558	6	5	antiphase_hc_osi.wav	2	6	5	noise_calib_stim_RIGHT.wav	2	33	blb_dichoticlistening_ta-ga.mp3	ta	ga	1	right
6.6.1	mac	2023-06-02	07:26:16	0	0	5d55d562e04e1c0001f5e682	2	1	DL_test	13	DL_test	26			0		ta	1	1136	6	5	antiphase_hc_osi.wav	2	6	5	noise_calib_stim_RIGHT.wav	2	30	blb_dichoticlistening_pa-ta.mp3	pa	ta	1	right
6.6.1	mac	2023-06-02	07:26:16	0	0	5d55d562e04e1c0001f5e682	2	1	DL_test	13	DL_test	27			0		ka	1	1799	6	5	antiphase_hc_osi.wav	2	6	5	noise_calib_stim_RIGHT.wav	2	20	blb_dichoticlistening_ka-da.mp3	ka	da	1	left
6.6.1	mac	2023-06-02	07:26:16	0	0	5d55d562e04e1c0001f5e682	2	1	DL_test	13	DL_test	28			0		ka	1	1054	6	5	antiphase_hc_osi.wav	2	6	5	noise_calib_stim_RIGHT.wav	2	34	blb_dichoticlistening_ta-ka.mp3	ta	ka	1	right
6.6.1	mac	2023-06-02	07:26:16	0	0	5d55d562e04e1c0001f5e682	2	1	DL_test	13	DL_test	29			0		da	1	1680	6	5	antiphase_hc_osi.wav	2	6	5	noise_calib_stim_RIGHT.wav	2	14	blb_dichoticlistening_ga-da.mp3	ga	da	1	right
6.6.1	mac	2023-06-02	07:26:16	0	0	5d55d562e04e1c0001f5e682	2	1	DL_test	13	DL_test	30			0		da	1	1180	6	5	antiphase_hc_osi.wav	2	6	5	noise_calib_stim_RIGHT.wav	2	9	blb_dichoticlistening_da-ga.mp3	da	ga	1	left
6.6.1	mac	2023-06-02	07:26:16	0	0	5d55d562e04e1c0001f5e682	2	1	DL_test	13	DL_test	31			0		ka	1	1355	6	5	antiphase_hc_osi.wav	2	6	5	noise_calib_stim_RIGHT.wav	2	4	blb_dichoticlistening_ba-ka.mp3	ba	ka	1	right
6.6.1	mac	2023-06-02	07:26:16	0	0	5d55d562e04e1c0001f5e682	2	1	DL_test	13	DL_test	32			0		ka	1	1142	6	5	antiphase_hc_osi.wav	2	6	5	noise_calib_stim_RIGHT.wav	2	21	blb_dichoticlistening_ka-ga.mp3	ka	ga	1	left
6.6.1	mac	2023-06-02	07:26:16	0	0	5d55d562e04e1c0001f5e682	2	1	DL_test	13	DL_test	33			0		ga	1	1232	6	5	antiphase_hc_osi.wav	2	6	5	noise_calib_stim_RIGHT.wav	2	15	blb_dichoticlistening_ga-ga.mp3	ga	ga	0	left
6.6.1	mac	2023-06-02	07:26:16	0	0	5d55d562e04e1c0001f5e682	2	1	DL_test	13	DL_test	34			0		da	0	2590	6	5	antiphase_hc_osi.wav	2	6	5	noise_calib_stim_RIGHT.wav	2	3	blb_dichoticlistening_ba-ga.mp3	ba	ga	1	other
6.6.1	mac	2023-06-02	07:26:16	0	0	5d55d562e04e1c0001f5e682	2	1	DL_test	13	DL_test	35			0		ka	1	1374	6	5	antiphase_hc_osi.wav	2	6	5	noise_calib_stim_RIGHT.wav	2	28	blb_dichoticlistening_pa-ka.mp3	pa	ka	1	right
6.6.1	mac	2023-06-02	07:26:16	0	0	5d55d562e04e1c0001f5e682	2	1	DL_test	13	DL_test	36			0		da	1	1419	6	5	antiphase_hc_osi.wav	2	6	5	noise_calib_stim_RIGHT.wav	2	7	blb_dichoticlistening_da-ba.mp3	da	ba	1	left
6.6.1	mac	2023-06-02	07:26:16	0	0	5d55d562e04e1c0001f5e682	2	1	DL_test	14	DL_test	1			0		da	1	989	6	5	antiphase_hc_osi.wav	2	6	5	noise_calib_stim_RIGHT.wav	2	8	blb_dichoticlistening_da-da.mp3	da	da	0	left
6.6.1	mac	2023-06-02	07:26:16	0	0	5d55d562e04e1c0001f5e682	2	1	DL_test	14	DL_test	2			0		ba	1	1596	6	5	antiphase_hc_osi.wav	2	6	5	noise_calib_stim_RIGHT.wav	2	7	blb_dichoticlistening_da-ba.mp3	da	ba	1	right
6.6.1	mac	2023-06-02	07:26:16	0	0	5d55d562e04e1c0001f5e682	2	1	DL_test	14	DL_test	3			0		da	1	1059	6	5	antiphase_hc_osi.wav	2	6	5	noise_calib_stim_RIGHT.wav	2	9	blb_dichoticlistening_da-ga.mp3	da	ga	1	left
6.6.1	mac	2023-06-02	07:26:16	0	0	5d55d562e04e1c0001f5e682	2	1	DL_test	14	DL_test	4			0		pa	1	1256	6	5	antiphase_hc_osi.wav	2	6	5	noise_calib_stim_RIGHT.wav	2	29	blb_dichoticlistening_pa-pa.mp3	pa	pa	0	left
6.6.1	mac	2023-06-02	07:26:16	0	0	5d55d562e04e1c0001f5e682	2	1	DL_test	14	DL_test	5			0		ka	1	1557	6	5	antiphase_hc_osi.wav	2	6	5	noise_calib_stim_RIGHT.wav	2	28	blb_dichoticlistening_pa-ka.mp3	pa	ka	1	right
6.6.1	mac	2023-06-02	07:26:16	0	0	5d55d562e04e1c0001f5e682	2	1	DL_test	14	DL_test	6			0		ka	1	1908	6	5	antiphase_hc_osi.wav	2	6	5	noise_calib_stim_RIGHT.wav	2	21	blb_dichoticlistening_ka-ga.mp3	ka	ga	1	left
6.6.1	mac	2023-06-02	07:26:16	0	0	5d55d562e04e1c0001f5e682	2	1	DL_test	14	DL_test	7			0		ka	1	1045	6	5	antiphase_hc_osi.wav	2	6	5	noise_calib_stim_RIGHT.wav	2	16	blb_dichoticlistening_ga-ka.mp3	ga	ka	1	right
6.6.1	mac	2023-06-02	07:26:16	0	0	5d55d562e04e1c0001f5e682	2	1	DL_test	14	DL_test	8			0		pa	1	1158	6	5	antiphase_hc_osi.wav	2	6	5	noise_calib_stim_RIGHT.wav	2	35	blb_dichoticlistening_ta-pa.mp3	ta	pa	1	right
6.6.1	mac	2023-06-02	07:26:16	0	0	5d55d562e04e1c0001f5e682	2	1	DL_test	14	DL_test	9			0		pa	1	1320	6	5	antiphase_hc_osi.wav	2	6	5	noise_calib_stim_RIGHT.wav	2	11	blb_dichoticlistening_da-pa.mp3	da	pa	1	right
6.6.1	mac	2023-06-02	07:26:16	0	0	5d55d562e04e1c0001f5e682	2	1	DL_test	14	DL_test	10			0		pa	0	1065	6	5	antiphase_hc_osi.wav	2	6	5	noise_calib_stim_RIGHT.wav	2	10	blb_dichoticlistening_da-ka.mp3	da	ka	1	other
6.6.1	mac	2023-06-02	07:26:16	0	0	5d55d562e04e1c0001f5e682	2	1	DL_test	14	DL_test	11			0		da	0	1500	6	5	antiphase_hc_osi.wav	2	6	5	noise_calib_stim_RIGHT.wav	2	13	blb_dichoticlistening_ga-ba.mp3	ga	ba	1	other
6.6.1	mac	2023-06-02	07:26:16	0	0	5d55d562e04e1c0001f5e682	2	1	DL_test	14	DL_test	12			0		da	0	1536	6	5	antiphase_hc_osi.wav	2	6	5	noise_calib_stim_RIGHT.wav	2	31	blb_dichoticlistening_ta-ba.mp3	ta	ba	1	other
6.6.1	mac	2023-06-02	07:26:16	0	0	5d55d562e04e1c0001f5e682	2	1	DL_test	14	DL_test	13			0		pa	1	1438	6	5	antiphase_hc_osi.wav	2	6	5	noise_calib_stim_RIGHT.wav	2	25	blb_dichoticlistening_pa-ba.mp3	pa	ba	1	left
6.6.1	mac	2023-06-02	07:26:16	0	0	5d55d562e04e1c0001f5e682	2	1	DL_test	14	DL_test	14			0		ta	0	3266	6	5	antiphase_hc_osi.wav	2	6	5	noise_calib_stim_RIGHT.wav	2	23	blb_dichoticlistening_ka-pa.mp3	ka	pa	1	other
6.6.1	mac	2023-06-02	07:26:16	0	0	5d55d562e04e1c0001f5e682	2	1	DL_test	14	DL_test	15			0		ta	1	999	6	5	antiphase_hc_osi.wav	2	6	5	noise_calib_stim_RIGHT.wav	2	12	blb_dichoticlistening_da-ta.mp3	da	ta	1	right
6.6.1	mac	2023-06-02	07:26:16	0	0	5d55d562e04e1c0001f5e682	2	1	DL_test	14	DL_test	16			0		ga	1	1189	6	5	antiphase_hc_osi.wav	2	6	5	noise_calib_stim_RIGHT.wav	2	3	blb_dichoticlistening_ba-ga.mp3	ba	ga	1	right
6.6.1	mac	2023-06-02	07:26:16	0	0	5d55d562e04e1c0001f5e682	2	1	DL_test	14	DL_test	17			0		ta	1	1509	6	5	antiphase_hc_osi.wav	2	6	5	noise_calib_stim_RIGHT.wav	2	32	blb_dichoticlistening_ta-da.mp3	ta	da	1	left
6.6.1	mac	2023-06-02	07:26:16	0	0	5d55d562e04e1c0001f5e682	2	1	DL_test	14	DL_test	18			0		ka	1	1076	6	5	antiphase_hc_osi.wav	2	6	5	noise_calib_stim_RIGHT.wav	2	20	blb_dichoticlistening_ka-da.mp3	ka	da	1	left
6.6.1	mac	2023-06-02	07:26:16	0	0	5d55d562e04e1c0001f5e682	2	1	DL_test	14	DL_test	19			0		ka	0	1161	6	5	antiphase_hc_osi.wav	2	6	5	noise_calib_stim_RIGHT.wav	2	18	blb_dichoticlistening_ga-ta.mp3	ga	ta	1	other
6.6.1	mac	2023-06-02	07:26:16	0	0	5d55d562e04e1c0001f5e682	2	1	DL_test	14	DL_test	20			0		ga	1	1096	6	5	antiphase_hc_osi.wav	2	6	5	noise_calib_stim_RIGHT.wav	2	27	blb_dichoticlistening_pa-ga.mp3	pa	ga	1	right
6.6.1	mac	2023-06-02	07:26:16	0	0	5d55d562e04e1c0001f5e682	2	1	DL_test	14	DL_test	21			0		ka	1	1072	6	5	antiphase_hc_osi.wav	2	6	5	noise_calib_stim_RIGHT.wav	2	22	blb_dichoticlistening_ka-ka.mp3	ka	ka	0	left
6.6.1	mac	2023-06-02	07:26:16	0	0	5d55d562e04e1c0001f5e682	2	1	DL_test	14	DL_test	22			0		ka	1	1196	6	5	antiphase_hc_osi.wav	2	6	5	noise_calib_stim_RIGHT.wav	2	4	blb_dichoticlistening_ba-ka.mp3	ba	ka	1	right
6.6.1	mac	2023-06-02	07:26:16	0	0	5d55d562e04e1c0001f5e682	2	1	DL_test	14	DL_test	23			0		ka	1	1685	6	5	antiphase_hc_osi.wav	2	6	5	noise_calib_stim_RIGHT.wav	2	19	blb_dichoticlistening_ka-ba.mp3	ka	ba	1	left
6.6.1	mac	2023-06-02	07:26:16	0	0	5d55d562e04e1c0001f5e682	2	1	DL_test	14	DL_test	24			0		ka	1	989	6	5	antiphase_hc_osi.wav	2	6	5	noise_calib_stim_RIGHT.wav	2	34	blb_dichoticlistening_ta-ka.mp3	ta	ka	1	right
6.6.1	mac	2023-06-02	07:26:16	0	0	5d55d562e04e1c0001f5e682	2	1	DL_test	14	DL_test	25			0		da	1	1388	6	5	antiphase_hc_osi.wav	2	6	5	noise_calib_stim_RIGHT.wav	2	2	blb_dichoticlistening_ba-da.mp3	ba	da	1	right
6.6.1	mac	2023-06-02	07:26:16	0	0	5d55d562e04e1c0001f5e682	2	1	DL_test	14	DL_test	26			0		ta	0	2702	6	5	antiphase_hc_osi.wav	2	6	5	noise_calib_stim_RIGHT.wav	2	17	blb_dichoticlistening_ga-pa.mp3	ga	pa	1	other
6.6.1	mac	2023-06-02	07:26:16	0	0	5d55d562e04e1c0001f5e682	2	1	DL_test	14	DL_test	27			0		ka	1	1226	6	5	antiphase_hc_osi.wav	2	6	5	noise_calib_stim_RIGHT.wav	2	24	blb_dichoticlistening_ka-ta.mp3	ka	ta	1	left
6.6.1	mac	2023-06-02	07:26:16	0	0	5d55d562e04e1c0001f5e682	2	1	DL_test	14	DL_test	28			0		ga	1	1633	6	5	antiphase_hc_osi.wav	2	6	5	noise_calib_stim_RIGHT.wav	2	33	blb_dichoticlistening_ta-ga.mp3	ta	ga	1	right
6.6.1	mac	2023-06-02	07:26:16	0	0	5d55d562e04e1c0001f5e682	2	1	DL_test	14	DL_test	29			0		ta	1	2390	6	5	antiphase_hc_osi.wav	2	6	5	noise_calib_stim_RIGHT.wav	2	6	blb_dichoticlistening_ba-ta.mp3	ba	ta	1	right
6.6.1	mac	2023-06-02	07:26:16	0	0	5d55d562e04e1c0001f5e682	2	1	DL_test	14	DL_test	30			0		ga	0	2150	6	5	antiphase_hc_osi.wav	2	6	5	noise_calib_stim_RIGHT.wav	2	26	blb_dichoticlistening_pa-da.mp3	pa	da	1	other
6.6.1	mac	2023-06-02	07:26:16	0	0	5d55d562e04e1c0001f5e682	2	1	DL_test	14	DL_test	31			0		pa	1	6330	6	5	antiphase_hc_osi.wav	2	6	5	noise_calib_stim_RIGHT.wav	2	5	blb_dichoticlistening_ba-pa.mp3	ba	pa	1	right
6.6.1	mac	2023-06-02	07:26:16	0	0	5d55d562e04e1c0001f5e682	2	1	DL_test	14	DL_test	32			0		ga	1	1324	6	5	antiphase_hc_osi.wav	2	6	5	noise_calib_stim_RIGHT.wav	2	15	blb_dichoticlistening_ga-ga.mp3	ga	ga	0	left
6.6.1	mac	2023-06-02	07:26:16	0	0	5d55d562e04e1c0001f5e682	2	1	DL_test	14	DL_test	33			0		ba	1	1339	6	5	antiphase_hc_osi.wav	2	6	5	noise_calib_stim_RIGHT.wav	2	1	blb_dichoticlistening_ba-ba.mp3	ba	ba	0	left
6.6.1	mac	2023-06-02	07:26:16	0	0	5d55d562e04e1c0001f5e682	2	1	DL_test	14	DL_test	34			0		ta	1	1467	6	5	antiphase_hc_osi.wav	2	6	5	noise_calib_stim_RIGHT.wav	2	36	blb_dichoticlistening_ta-ta.mp3	ta	ta	0	left
6.6.1	mac	2023-06-02	07:26:16	0	0	5d55d562e04e1c0001f5e682	2	1	DL_test	14	DL_test	35			0		ta	1	1774	6	5	antiphase_hc_osi.wav	2	6	5	noise_calib_stim_RIGHT.wav	2	30	blb_dichoticlistening_pa-ta.mp3	pa	ta	1	right
6.6.1	mac	2023-06-02	07:26:16	0	0	5d55d562e04e1c0001f5e682	2	1	DL_test	14	DL_test	36			0		da	1	2596	6	5	antiphase_hc_osi.wav	2	6	5	noise_calib_stim_RIGHT.wav	2	14	blb_dichoticlistening_ga-da.mp3	ga	da	1	right
6.6.1	mac	2023-06-02	07:26:16	0	0	5d55d562e04e1c0001f5e682	2	1	DL_test	15	DL_test	1			0		ka	0	1506	6	5	antiphase_hc_osi.wav	2	6	5	noise_calib_stim_RIGHT.wav	2	33	blb_dichoticlistening_ta-ga.mp3	ta	ga	1	other
6.6.1	mac	2023-06-02	07:26:16	0	0	5d55d562e04e1c0001f5e682	2	1	DL_test	15	DL_test	2			0		ta	1	1224	6	5	antiphase_hc_osi.wav	2	6	5	noise_calib_stim_RIGHT.wav	2	6	blb_dichoticlistening_ba-ta.mp3	ba	ta	1	right
6.6.1	mac	2023-06-02	07:26:16	0	0	5d55d562e04e1c0001f5e682	2	1	DL_test	15	DL_test	3			0		ka	1	1279	6	5	antiphase_hc_osi.wav	2	6	5	noise_calib_stim_RIGHT.wav	2	20	blb_dichoticlistening_ka-da.mp3	ka	da	1	left
6.6.1	mac	2023-06-02	07:26:16	0	0	5d55d562e04e1c0001f5e682	2	1	DL_test	15	DL_test	4			0		ka	1	1043	6	5	antiphase_hc_osi.wav	2	6	5	noise_calib_stim_RIGHT.wav	2	34	blb_dichoticlistening_ta-ka.mp3	ta	ka	1	right
6.6.1	mac	2023-06-02	07:26:16	0	0	5d55d562e04e1c0001f5e682	2	1	DL_test	15	DL_test	5			0		ba	1	1790	6	5	antiphase_hc_osi.wav	2	6	5	noise_calib_stim_RIGHT.wav	2	7	blb_dichoticlistening_da-ba.mp3	da	ba	1	right
6.6.1	mac	2023-06-02	07:26:16	0	0	5d55d562e04e1c0001f5e682	2	1	DL_test	15	DL_test	6			0		ta	1	1260	6	5	antiphase_hc_osi.wav	2	6	5	noise_calib_stim_RIGHT.wav	2	12	blb_dichoticlistening_da-ta.mp3	da	ta	1	right
6.6.1	mac	2023-06-02	07:26:16	0	0	5d55d562e04e1c0001f5e682	2	1	DL_test	15	DL_test	7			0		da	1	2834	6	5	antiphase_hc_osi.wav	2	6	5	noise_calib_stim_RIGHT.wav	2	8	blb_dichoticlistening_da-da.mp3	da	da	0	left
6.6.1	mac	2023-06-02	07:26:16	0	0	5d55d562e04e1c0001f5e682	2	1	DL_test	15	DL_test	8			0		ka	1	1594	6	5	antiphase_hc_osi.wav	2	6	5	noise_calib_stim_RIGHT.wav	2	22	blb_dichoticlistening_ka-ka.mp3	ka	ka	0	left
6.6.1	mac	2023-06-02	07:26:16	0	0	5d55d562e04e1c0001f5e682	2	1	DL_test	15	DL_test	9			0		pa	1	1316	6	5	antiphase_hc_osi.wav	2	6	5	noise_calib_stim_RIGHT.wav	2	17	blb_dichoticlistening_ga-pa.mp3	ga	pa	1	right
6.6.1	mac	2023-06-02	07:26:16	0	0	5d55d562e04e1c0001f5e682	2	1	DL_test	15	DL_test	10			0		da	1	2515	6	5	antiphase_hc_osi.wav	2	6	5	noise_calib_stim_RIGHT.wav	2	14	blb_dichoticlistening_ga-da.mp3	ga	da	1	right
6.6.1	mac	2023-06-02	07:26:16	0	0	5d55d562e04e1c0001f5e682	2	1	DL_test	15	DL_test	11			0		ta	1	5361	6	5	antiphase_hc_osi.wav	2	6	5	noise_calib_stim_RIGHT.wav	2	18	blb_dichoticlistening_ga-ta.mp3	ga	ta	1	right
6.6.1	mac	2023-06-02	07:26:16	0	0	5d55d562e04e1c0001f5e682	2	1	DL_test	15	DL_test	12			0		ka	1	2090	6	5	antiphase_hc_osi.wav	2	6	5	noise_calib_stim_RIGHT.wav	2	24	blb_dichoticlistening_ka-ta.mp3	ka	ta	1	left
6.6.1	mac	2023-06-02	07:26:16	0	0	5d55d562e04e1c0001f5e682	2	1	DL_test	15	DL_test	13			0		ka	1	1688	6	5	antiphase_hc_osi.wav	2	6	5	noise_calib_stim_RIGHT.wav	2	16	blb_dichoticlistening_ga-ka.mp3	ga	ka	1	right
6.6.1	mac	2023-06-02	07:26:16	0	0	5d55d562e04e1c0001f5e682	2	1	DL_test	15	DL_test	14			0		ga	1	1345	6	5	antiphase_hc_osi.wav	2	6	5	noise_calib_stim_RIGHT.wav	2	15	blb_dichoticlistening_ga-ga.mp3	ga	ga	0	left
6.6.1	mac	2023-06-02	07:26:16	0	0	5d55d562e04e1c0001f5e682	2	1	DL_test	15	DL_test	15			0		pa	1	3401	6	5	antiphase_hc_osi.wav	2	6	5	noise_calib_stim_RIGHT.wav	2	29	blb_dichoticlistening_pa-pa.mp3	pa	pa	0	left
6.6.1	mac	2023-06-02	07:26:16	0	0	5d55d562e04e1c0001f5e682	2	1	DL_test	15	DL_test	16			0		ka	1	1337	6	5	antiphase_hc_osi.wav	2	6	5	noise_calib_stim_RIGHT.wav	2	19	blb_dichoticlistening_ka-ba.mp3	ka	ba	1	left
6.6.1	mac	2023-06-02	07:26:16	0	0	5d55d562e04e1c0001f5e682	2	1	DL_test	15	DL_test	17			0		ka	1	1336	6	5	antiphase_hc_osi.wav	2	6	5	noise_calib_stim_RIGHT.wav	2	28	blb_dichoticlistening_pa-ka.mp3	pa	ka	1	right
6.6.1	mac	2023-06-02	07:26:16	0	0	5d55d562e04e1c0001f5e682	2	1	DL_test	15	DL_test	18			0		ka	1	3207	6	5	antiphase_hc_osi.wav	2	6	5	noise_calib_stim_RIGHT.wav	2	4	blb_dichoticlistening_ba-ka.mp3	ba	ka	1	right
6.6.1	mac	2023-06-02	07:26:16	0	0	5d55d562e04e1c0001f5e682	2	1	DL_test	15	DL_test	19			0		ta	1	1283	6	5	antiphase_hc_osi.wav	2	6	5	noise_calib_stim_RIGHT.wav	2	30	blb_dichoticlistening_pa-ta.mp3	pa	ta	1	right
6.6.1	mac	2023-06-02	07:26:16	0	0	5d55d562e04e1c0001f5e682	2	1	DL_test	15	DL_test	20			0		ba	1	1231	6	5	antiphase_hc_osi.wav	2	6	5	noise_calib_stim_RIGHT.wav	2	5	blb_dichoticlistening_ba-pa.mp3	ba	pa	1	left
6.6.1	mac	2023-06-02	07:26:16	0	0	5d55d562e04e1c0001f5e682	2	1	DL_test	15	DL_test	21			0		ga	1	1626	6	5	antiphase_hc_osi.wav	2	6	5	noise_calib_stim_RIGHT.wav	2	13	blb_dichoticlistening_ga-ba.mp3	ga	ba	1	left
6.6.1	mac	2023-06-02	07:26:16	0	0	5d55d562e04e1c0001f5e682	2	1	DL_test	15	DL_test	22			0		pa	1	2770	6	5	antiphase_hc_osi.wav	2	6	5	noise_calib_stim_RIGHT.wav	2	23	blb_dichoticlistening_ka-pa.mp3	ka	pa	1	right
6.6.1	mac	2023-06-02	07:26:16	0	0	5d55d562e04e1c0001f5e682	2	1	DL_test	15	DL_test	23			0		da	1	2271	6	5	antiphase_hc_osi.wav	2	6	5	noise_calib_stim_RIGHT.wav	2	9	blb_dichoticlistening_da-ga.mp3	da	ga	1	left
6.6.1	mac	2023-06-02	07:26:16	0	0	5d55d562e04e1c0001f5e682	2	1	DL_test	15	DL_test	24			0		ta	1	1232	6	5	antiphase_hc_osi.wav	2	6	5	noise_calib_stim_RIGHT.wav	2	36	blb_dichoticlistening_ta-ta.mp3	ta	ta	0	left
6.6.1	mac	2023-06-02	07:26:16	0	0	5d55d562e04e1c0001f5e682	2	1	DL_test	15	DL_test	25			0		pa	0	1374	6	5	antiphase_hc_osi.wav	2	6	5	noise_calib_stim_RIGHT.wav	2	10	blb_dichoticlistening_da-ka.mp3	da	ka	1	other
6.6.1	mac	2023-06-02	07:26:16	0	0	5d55d562e04e1c0001f5e682	2	1	DL_test	15	DL_test	26			0		pa	0	2527	6	5	antiphase_hc_osi.wav	2	6	5	noise_calib_stim_RIGHT.wav	2	32	blb_dichoticlistening_ta-da.mp3	ta	da	1	other
6.6.1	mac	2023-06-02	07:26:16	0	0	5d55d562e04e1c0001f5e682	2	1	DL_test	15	DL_test	27			0		pa	1	1032	6	5	antiphase_hc_osi.wav	2	6	5	noise_calib_stim_RIGHT.wav	2	11	blb_dichoticlistening_da-pa.mp3	da	pa	1	right
6.6.1	mac	2023-06-02	07:26:16	0	0	5d55d562e04e1c0001f5e682	2	1	DL_test	15	DL_test	28			0		ba	1	1821	6	5	antiphase_hc_osi.wav	2	6	5	noise_calib_stim_RIGHT.wav	2	1	blb_dichoticlistening_ba-ba.mp3	ba	ba	0	left
6.6.1	mac	2023-06-02	07:26:16	0	0	5d55d562e04e1c0001f5e682	2	1	DL_test	15	DL_test	29			0		ga	1	1387	6	5	antiphase_hc_osi.wav	2	6	5	noise_calib_stim_RIGHT.wav	2	27	blb_dichoticlistening_pa-ga.mp3	pa	ga	1	right
6.6.1	mac	2023-06-02	07:26:16	0	0	5d55d562e04e1c0001f5e682	2	1	DL_test	15	DL_test	30			0		ka	1	1369	6	5	antiphase_hc_osi.wav	2	6	5	noise_calib_stim_RIGHT.wav	2	21	blb_dichoticlistening_ka-ga.mp3	ka	ga	1	left
6.6.1	mac	2023-06-02	07:26:16	0	0	5d55d562e04e1c0001f5e682	2	1	DL_test	15	DL_test	31			0		da	1	1379	6	5	antiphase_hc_osi.wav	2	6	5	noise_calib_stim_RIGHT.wav	2	2	blb_dichoticlistening_ba-da.mp3	ba	da	1	right
6.6.1	mac	2023-06-02	07:26:16	0	0	5d55d562e04e1c0001f5e682	2	1	DL_test	15	DL_test	32			0		pa	1	1597	6	5	antiphase_hc_osi.wav	2	6	5	noise_calib_stim_RIGHT.wav	2	26	blb_dichoticlistening_pa-da.mp3	pa	da	1	left
6.6.1	mac	2023-06-02	07:26:16	0	0	5d55d562e04e1c0001f5e682	2	1	DL_test	15	DL_test	33			0		ta	0	3014	6	5	antiphase_hc_osi.wav	2	6	5	noise_calib_stim_RIGHT.wav	2	25	blb_dichoticlistening_pa-ba.mp3	pa	ba	1	other
6.6.1	mac	2023-06-02	07:26:16	0	0	5d55d562e04e1c0001f5e682	2	1	DL_test	15	DL_test	34			0		ta	1	1788	6	5	antiphase_hc_osi.wav	2	6	5	noise_calib_stim_RIGHT.wav	2	31	blb_dichoticlistening_ta-ba.mp3	ta	ba	1	left
6.6.1	mac	2023-06-02	07:26:16	0	0	5d55d562e04e1c0001f5e682	2	1	DL_test	15	DL_test	35			0		da	0	2412	6	5	antiphase_hc_osi.wav	2	6	5	noise_calib_stim_RIGHT.wav	2	3	blb_dichoticlistening_ba-ga.mp3	ba	ga	1	other
6.6.1	mac	2023-06-02	07:26:16	0	0	5d55d562e04e1c0001f5e682	2	1	DL_test	15	DL_test	36			0		pa	1	1572	6	5	antiphase_hc_osi.wav	2	6	5	noise_calib_stim_RIGHT.wav	2	35	blb_dichoticlistening_ta-pa.mp3	ta	pa	1	right
6.6.1	mac	2023-06-02	07:26:16	0	0	5d55d562e04e1c0001f5e682	2	1	DL_test	16	DL_test	1			0		pa	1	1509	6	5	antiphase_hc_osi.wav	2	6	5	noise_calib_stim_RIGHT.wav	2	11	blb_dichoticlistening_da-pa.mp3	da	pa	1	right
6.6.1	mac	2023-06-02	07:26:16	0	0	5d55d562e04e1c0001f5e682	2	1	DL_test	16	DL_test	2			0		ka	1	1267	6	5	antiphase_hc_osi.wav	2	6	5	noise_calib_stim_RIGHT.wav	2	19	blb_dichoticlistening_ka-ba.mp3	ka	ba	1	left
6.6.1	mac	2023-06-02	07:26:16	0	0	5d55d562e04e1c0001f5e682	2	1	DL_test	16	DL_test	3			0		ga	1	896	6	5	antiphase_hc_osi.wav	2	6	5	noise_calib_stim_RIGHT.wav	2	3	blb_dichoticlistening_ba-ga.mp3	ba	ga	1	right
6.6.1	mac	2023-06-02	07:26:16	0	0	5d55d562e04e1c0001f5e682	2	1	DL_test	16	DL_test	4			0		da	1	886	6	5	antiphase_hc_osi.wav	2	6	5	noise_calib_stim_RIGHT.wav	2	2	blb_dichoticlistening_ba-da.mp3	ba	da	1	right
6.6.1	mac	2023-06-02	07:26:16	0	0	5d55d562e04e1c0001f5e682	2	1	DL_test	16	DL_test	5			0		ta	1	1050	6	5	antiphase_hc_osi.wav	2	6	5	noise_calib_stim_RIGHT.wav	2	36	blb_dichoticlistening_ta-ta.mp3	ta	ta	0	left
6.6.1	mac	2023-06-02	07:26:16	0	0	5d55d562e04e1c0001f5e682	2	1	DL_test	16	DL_test	6			0		ga	1	1104	6	5	antiphase_hc_osi.wav	2	6	5	noise_calib_stim_RIGHT.wav	2	15	blb_dichoticlistening_ga-ga.mp3	ga	ga	0	left
6.6.1	mac	2023-06-02	07:26:16	0	0	5d55d562e04e1c0001f5e682	2	1	DL_test	16	DL_test	7			0		ga	1	1319	6	5	antiphase_hc_osi.wav	2	6	5	noise_calib_stim_RIGHT.wav	2	16	blb_dichoticlistening_ga-ka.mp3	ga	ka	1	left
6.6.1	mac	2023-06-02	07:26:16	0	0	5d55d562e04e1c0001f5e682	2	1	DL_test	16	DL_test	8			0		ga	1	1107	6	5	antiphase_hc_osi.wav	2	6	5	noise_calib_stim_RIGHT.wav	2	27	blb_dichoticlistening_pa-ga.mp3	pa	ga	1	right
6.6.1	mac	2023-06-02	07:26:16	0	0	5d55d562e04e1c0001f5e682	2	1	DL_test	16	DL_test	9			0		da	1	1386	6	5	antiphase_hc_osi.wav	2	6	5	noise_calib_stim_RIGHT.wav	2	8	blb_dichoticlistening_da-da.mp3	da	da	0	left
6.6.1	mac	2023-06-02	07:26:16	0	0	5d55d562e04e1c0001f5e682	2	1	DL_test	16	DL_test	10			0		ga	1	978	6	5	antiphase_hc_osi.wav	2	6	5	noise_calib_stim_RIGHT.wav	2	9	blb_dichoticlistening_da-ga.mp3	da	ga	1	right
6.6.1	mac	2023-06-02	07:26:16	0	0	5d55d562e04e1c0001f5e682	2	1	DL_test	16	DL_test	11			0		ka	1	962	6	5	antiphase_hc_osi.wav	2	6	5	noise_calib_stim_RIGHT.wav	2	21	blb_dichoticlistening_ka-ga.mp3	ka	ga	1	left
6.6.1	mac	2023-06-02	07:26:16	0	0	5d55d562e04e1c0001f5e682	2	1	DL_test	16	DL_test	12			0		pa	1	846	6	5	antiphase_hc_osi.wav	2	6	5	noise_calib_stim_RIGHT.wav	2	25	blb_dichoticlistening_pa-ba.mp3	pa	ba	1	left
6.6.1	mac	2023-06-02	07:26:16	0	0	5d55d562e04e1c0001f5e682	2	1	DL_test	16	DL_test	13			0		ba	1	1596	6	5	antiphase_hc_osi.wav	2	6	5	noise_calib_stim_RIGHT.wav	2	13	blb_dichoticlistening_ga-ba.mp3	ga	ba	1	right
6.6.1	mac	2023-06-02	07:26:16	0	0	5d55d562e04e1c0001f5e682	2	1	DL_test	16	DL_test	14			0		pa	1	1240	6	5	antiphase_hc_osi.wav	2	6	5	noise_calib_stim_RIGHT.wav	2	5	blb_dichoticlistening_ba-pa.mp3	ba	pa	1	right
6.6.1	mac	2023-06-02	07:26:16	0	0	5d55d562e04e1c0001f5e682	2	1	DL_test	16	DL_test	15			0		ba	1	1431	6	5	antiphase_hc_osi.wav	2	6	5	noise_calib_stim_RIGHT.wav	2	1	blb_dichoticlistening_ba-ba.mp3	ba	ba	0	left
6.6.1	mac	2023-06-02	07:26:16	0	0	5d55d562e04e1c0001f5e682	2	1	DL_test	16	DL_test	16			0		ka	1	1074	6	5	antiphase_hc_osi.wav	2	6	5	noise_calib_stim_RIGHT.wav	2	34	blb_dichoticlistening_ta-ka.mp3	ta	ka	1	right
6.6.1	mac	2023-06-02	07:26:16	0	0	5d55d562e04e1c0001f5e682	2	1	DL_test	16	DL_test	17			0		ka	1	2995	6	5	antiphase_hc_osi.wav	2	6	5	noise_calib_stim_RIGHT.wav	2	22	blb_dichoticlistening_ka-ka.mp3	ka	ka	0	left
6.6.1	mac	2023-06-02	07:26:16	0	0	5d55d562e04e1c0001f5e682	2	1	DL_test	16	DL_test	18			0		ta	1	1391	6	5	antiphase_hc_osi.wav	2	6	5	noise_calib_stim_RIGHT.wav	2	6	blb_dichoticlistening_ba-ta.mp3	ba	ta	1	right
6.6.1	mac	2023-06-02	07:26:16	0	0	5d55d562e04e1c0001f5e682	2	1	DL_test	16	DL_test	19			0		ta	1	1191	6	5	antiphase_hc_osi.wav	2	6	5	noise_calib_stim_RIGHT.wav	2	31	blb_dichoticlistening_ta-ba.mp3	ta	ba	1	left
6.6.1	mac	2023-06-02	07:26:16	0	0	5d55d562e04e1c0001f5e682	2	1	DL_test	16	DL_test	20			0		ta	1	1445	6	5	antiphase_hc_osi.wav	2	6	5	noise_calib_stim_RIGHT.wav	2	30	blb_dichoticlistening_pa-ta.mp3	pa	ta	1	right
6.6.1	mac	2023-06-02	07:26:16	0	0	5d55d562e04e1c0001f5e682	2	1	DL_test	16	DL_test	21			0		da	1	1555	6	5	antiphase_hc_osi.wav	2	6	5	noise_calib_stim_RIGHT.wav	2	14	blb_dichoticlistening_ga-da.mp3	ga	da	1	right
6.6.1	mac	2023-06-02	07:26:16	0	0	5d55d562e04e1c0001f5e682	2	1	DL_test	16	DL_test	22			0		pa	0	1734	6	5	antiphase_hc_osi.wav	2	6	5	noise_calib_stim_RIGHT.wav	2	10	blb_dichoticlistening_da-ka.mp3	da	ka	1	other
6.6.1	mac	2023-06-02	07:26:16	0	0	5d55d562e04e1c0001f5e682	2	1	DL_test	16	DL_test	23			0		ka	0	1234	6	5	antiphase_hc_osi.wav	2	6	5	noise_calib_stim_RIGHT.wav	2	17	blb_dichoticlistening_ga-pa.mp3	ga	pa	1	other
6.6.1	mac	2023-06-02	07:26:16	0	0	5d55d562e04e1c0001f5e682	2	1	DL_test	16	DL_test	24			0		pa	1	1309	6	5	antiphase_hc_osi.wav	2	6	5	noise_calib_stim_RIGHT.wav	2	29	blb_dichoticlistening_pa-pa.mp3	pa	pa	0	left
6.6.1	mac	2023-06-02	07:26:16	0	0	5d55d562e04e1c0001f5e682	2	1	DL_test	16	DL_test	25			0		ga	1	1128	6	5	antiphase_hc_osi.wav	2	6	5	noise_calib_stim_RIGHT.wav	2	33	blb_dichoticlistening_ta-ga.mp3	ta	ga	1	right
6.6.1	mac	2023-06-02	07:26:16	0	0	5d55d562e04e1c0001f5e682	2	1	DL_test	16	DL_test	26			0		ka	1	1341	6	5	antiphase_hc_osi.wav	2	6	5	noise_calib_stim_RIGHT.wav	2	20	blb_dichoticlistening_ka-da.mp3	ka	da	1	left
6.6.1	mac	2023-06-02	07:26:16	0	0	5d55d562e04e1c0001f5e682	2	1	DL_test	16	DL_test	27			0		ka	1	1248	6	5	antiphase_hc_osi.wav	2	6	5	noise_calib_stim_RIGHT.wav	2	24	blb_dichoticlistening_ka-ta.mp3	ka	ta	1	left
6.6.1	mac	2023-06-02	07:26:16	0	0	5d55d562e04e1c0001f5e682	2	1	DL_test	16	DL_test	28			0		ka	1	897	6	5	antiphase_hc_osi.wav	2	6	5	noise_calib_stim_RIGHT.wav	2	28	blb_dichoticlistening_pa-ka.mp3	pa	ka	1	right
6.6.1	mac	2023-06-02	07:26:16	0	0	5d55d562e04e1c0001f5e682	2	1	DL_test	16	DL_test	29			0		ka	1	1005	6	5	antiphase_hc_osi.wav	2	6	5	noise_calib_stim_RIGHT.wav	2	4	blb_dichoticlistening_ba-ka.mp3	ba	ka	1	right
6.6.1	mac	2023-06-02	07:26:16	0	0	5d55d562e04e1c0001f5e682	2	1	DL_test	16	DL_test	30			0		ta	1	1131	6	5	antiphase_hc_osi.wav	2	6	5	noise_calib_stim_RIGHT.wav	2	35	blb_dichoticlistening_ta-pa.mp3	ta	pa	1	left
6.6.1	mac	2023-06-02	07:26:16	0	0	5d55d562e04e1c0001f5e682	2	1	DL_test	16	DL_test	31			0		da	1	1484	6	5	antiphase_hc_osi.wav	2	6	5	noise_calib_stim_RIGHT.wav	2	7	blb_dichoticlistening_da-ba.mp3	da	ba	1	left
6.6.1	mac	2023-06-02	07:26:16	0	0	5d55d562e04e1c0001f5e682	2	1	DL_test	16	DL_test	32			0		ta	1	1136	6	5	antiphase_hc_osi.wav	2	6	5	noise_calib_stim_RIGHT.wav	2	12	blb_dichoticlistening_da-ta.mp3	da	ta	1	right
6.6.1	mac	2023-06-02	07:26:16	0	0	5d55d562e04e1c0001f5e682	2	1	DL_test	16	DL_test	33			0		ta	1	1436	6	5	antiphase_hc_osi.wav	2	6	5	noise_calib_stim_RIGHT.wav	2	32	blb_dichoticlistening_ta-da.mp3	ta	da	1	left
6.6.1	mac	2023-06-02	07:26:16	0	0	5d55d562e04e1c0001f5e682	2	1	DL_test	16	DL_test	34			0		da	1	2455	6	5	antiphase_hc_osi.wav	2	6	5	noise_calib_stim_RIGHT.wav	2	26	blb_dichoticlistening_pa-da.mp3	pa	da	1	right
6.6.1	mac	2023-06-02	07:26:16	0	0	5d55d562e04e1c0001f5e682	2	1	DL_test	16	DL_test	35			0		da	0	1584	6	5	antiphase_hc_osi.wav	2	6	5	noise_calib_stim_RIGHT.wav	2	18	blb_dichoticlistening_ga-ta.mp3	ga	ta	1	other
6.6.1	mac	2023-06-02	07:26:16	0	0	5d55d562e04e1c0001f5e682	2	1	DL_test	16	DL_test	36			0		ka	1	1347	6	5	antiphase_hc_osi.wav	2	6	5	noise_calib_stim_RIGHT.wav	2	23	blb_dichoticlistening_ka-pa.mp3	ka	pa	1	left
6.6.1	mac	2023-06-02	07:26:16	07:43:09	1010305	5d55d562e04e1c0001f5e682	2	1	practice_z	22	practice_z	1	stimuli_target_squarediamonds.svg	stimuli_distractor_trianglediamonds.svg	5	yes	0	0	2000	6	5	antiphase_hc_osi.wav	2	6	5	noise_calib_stim_RIGHT.wav	2	23	blb_dichoticlistening_ka-pa.mp3	ka	pa	1	left
6.6.1	mac	2023-06-02	07:26:16	07:43:09	1010305	5d55d562e04e1c0001f5e682	2	1	practice_z	22	advance_on_keypress_ZEE	2	stimuli_target_squarediamonds.svg	stimuli_distractor_trianglediamonds.svg	5	yes	57	0	1519	6	5	antiphase_hc_osi.wav	2	6	5	noise_calib_stim_RIGHT.wav	2	23	blb_dichoticlistening_ka-pa.mp3	ka	pa	1	left
6.6.1	mac	2023-06-02	07:26:16	07:43:14	1015454	5d55d562e04e1c0001f5e682	2	1	practice_z	22	practice_z	3	stimuli_distractor_diamondtriangles.svg	stimuli_distractor_diamondtriangles.svg	13	no	0	1	2000	6	5	antiphase_hc_osi.wav	2	6	5	noise_calib_stim_RIGHT.wav	2	23	blb_dichoticlistening_ka-pa.mp3	ka	pa	1	left
6.6.1	mac	2023-06-02	07:26:16	07:43:14	1015454	5d55d562e04e1c0001f5e682	2	1	practice_z	22	advance_on_keypress_ZEE	4	stimuli_distractor_diamondtriangles.svg	stimuli_distractor_diamondtriangles.svg	13	no	57	0	1147	6	5	antiphase_hc_osi.wav	2	6	5	noise_calib_stim_RIGHT.wav	2	23	blb_dichoticlistening_ka-pa.mp3	ka	pa	1	left
6.6.1	mac	2023-06-02	07:26:16	07:43:19	1020240	5d55d562e04e1c0001f5e682	2	1	practice_z	22	practice_z	5	stimuli_distractor_trianglediamonds.svg	stimuli_distractor_diamondtriangles.svg	16	no	0	1	2000	6	5	antiphase_hc_osi.wav	2	6	5	noise_calib_stim_RIGHT.wav	2	23	blb_dichoticlistening_ka-pa.mp3	ka	pa	1	left
6.6.1	mac	2023-06-02	07:26:16	07:43:19	1020240	5d55d562e04e1c0001f5e682	2	1	practice_z	22	advance_on_keypress_ZEE	6	stimuli_distractor_trianglediamonds.svg	stimuli_distractor_diamondtriangles.svg	16	no	57	0	1033	6	5	antiphase_hc_osi.wav	2	6	5	noise_calib_stim_RIGHT.wav	2	23	blb_dichoticlistening_ka-pa.mp3	ka	pa	1	left
6.6.1	mac	2023-06-02	07:26:16	07:43:24	1024907	5d55d562e04e1c0001f5e682	2	1	practice_z	22	practice_z	7	stimuli_distractor_trianglediamonds.svg	stimuli_target_diamondrectangles.svg	12	yes	0	0	2000	6	5	antiphase_hc_osi.wav	2	6	5	noise_calib_stim_RIGHT.wav	2	23	blb_dichoticlistening_ka-pa.mp3	ka	pa	1	left
6.6.1	mac	2023-06-02	07:26:16	07:43:24	1024907	5d55d562e04e1c0001f5e682	2	1	practice_z	22	advance_on_keypress_ZEE	8	stimuli_distractor_trianglediamonds.svg	stimuli_target_diamondrectangles.svg	12	yes	57	0	1252	6	5	antiphase_hc_osi.wav	2	6	5	noise_calib_stim_RIGHT.wav	2	23	blb_dichoticlistening_ka-pa.mp3	ka	pa	1	left
6.6.1	mac	2023-06-02	07:26:16	07:43:27	1028671	5d55d562e04e1c0001f5e682	2	1	practice_z	22	practice_z	9	stimuli_distractor_trianglediamonds.svg	stimuli_distractor_trianglediamonds.svg	15	no	44	0	869	6	5	antiphase_hc_osi.wav	2	6	5	noise_calib_stim_RIGHT.wav	2	23	blb_dichoticlistening_ka-pa.mp3	ka	pa	1	left
6.6.1	mac	2023-06-02	07:26:16	07:43:27	1028671	5d55d562e04e1c0001f5e682	2	1	practice_z	22	advance_on_keypress_ZEE	10	stimuli_distractor_trianglediamonds.svg	stimuli_distractor_trianglediamonds.svg	15	no	57	0	3086	6	5	antiphase_hc_osi.wav	2	6	5	noise_calib_stim_RIGHT.wav	2	23	blb_dichoticlistening_ka-pa.mp3	ka	pa	1	left
6.6.1	mac	2023-06-02	07:26:16	07:43:33	1033861	5d55d562e04e1c0001f5e682	2	1	practice_z	22	practice_z	11	stimuli_target_rectanglediamonds.svg	stimuli_distractor_diamondtriangles.svg	1	yes	44	1	452	6	5	antiphase_hc_osi.wav	2	6	5	noise_calib_stim_RIGHT.wav	2	23	blb_dichoticlistening_ka-pa.mp3	ka	pa	1	left
6.6.1	mac	2023-06-02	07:26:16	07:43:33	1033861	5d55d562e04e1c0001f5e682	2	1	practice_z	22	advance_on_keypress_ZEE	12	stimuli_target_rectanglediamonds.svg	stimuli_distractor_diamondtriangles.svg	1	yes	57	0	911	6	5	antiphase_hc_osi.wav	2	6	5	noise_calib_stim_RIGHT.wav	2	23	blb_dichoticlistening_ka-pa.mp3	ka	pa	1	left
6.6.1	mac	2023-06-02	07:26:16	07:43:36	1036992	5d55d562e04e1c0001f5e682	2	1	practice_z	22	practice_z	13	stimuli_distractor_diamondtriangles.svg	stimuli_target_rectangletriangles.svg	7	yes	44	1	551	6	5	antiphase_hc_osi.wav	2	6	5	noise_calib_stim_RIGHT.wav	2	23	blb_dichoticlistening_ka-pa.mp3	ka	pa	1	left
6.6.1	mac	2023-06-02	07:26:16	07:43:36	1036992	5d55d562e04e1c0001f5e682	2	1	practice_z	22	advance_on_keypress_ZEE	14	stimuli_distractor_diamondtriangles.svg	stimuli_target_rectangletriangles.svg	7	yes	57	0	477	6	5	antiphase_hc_osi.wav	2	6	5	noise_calib_stim_RIGHT.wav	2	23	blb_dichoticlistening_ka-pa.mp3	ka	pa	1	left
6.6.1	mac	2023-06-02	07:26:16	07:43:38	1039562	5d55d562e04e1c0001f5e682	2	1	practice_z	22	practice_z	15	stimuli_target_squarediamonds.svg	stimuli_distractor_diamondtriangles.svg	2	yes	44	1	452	6	5	antiphase_hc_osi.wav	2	6	5	noise_calib_stim_RIGHT.wav	2	23	blb_dichoticlistening_ka-pa.mp3	ka	pa	1	left
6.6.1	mac	2023-06-02	07:26:16	07:43:38	1039562	5d55d562e04e1c0001f5e682	2	1	practice_z	22	advance_on_keypress_ZEE	16	stimuli_target_squarediamonds.svg	stimuli_distractor_diamondtriangles.svg	2	yes	57	0	999	6	5	antiphase_hc_osi.wav	2	6	5	noise_calib_stim_RIGHT.wav	2	23	blb_dichoticlistening_ka-pa.mp3	ka	pa	1	left
6.6.1	mac	2023-06-02	07:26:16	07:43:42	1043008	5d55d562e04e1c0001f5e682	2	1	practice_z	22	practice_z	17	stimuli_distractor_diamondtriangles.svg	stimuli_target_diamondrectangles.svg	8	yes	44	1	813	6	5	antiphase_hc_osi.wav	2	6	5	noise_calib_stim_RIGHT.wav	2	23	blb_dichoticlistening_ka-pa.mp3	ka	pa	1	left
6.6.1	mac	2023-06-02	07:26:16	07:43:42	1043008	5d55d562e04e1c0001f5e682	2	1	practice_z	22	advance_on_keypress_ZEE	18	stimuli_distractor_diamondtriangles.svg	stimuli_target_diamondrectangles.svg	8	yes	57	0	534	6	5	antiphase_hc_osi.wav	2	6	5	noise_calib_stim_RIGHT.wav	2	23	blb_dichoticlistening_ka-pa.mp3	ka	pa	1	left
6.6.1	mac	2023-06-02	07:26:16	07:43:45	1045899	5d55d562e04e1c0001f5e682	2	1	practice_z	22	practice_z	19	stimuli_distractor_diamondtriangles.svg	stimuli_target_trianglerectangles.svg	9	yes	44	1	707	6	5	antiphase_hc_osi.wav	2	6	5	noise_calib_stim_RIGHT.wav	2	23	blb_dichoticlistening_ka-pa.mp3	ka	pa	1	left
6.6.1	mac	2023-06-02	07:26:16	07:43:45	1045899	5d55d562e04e1c0001f5e682	2	1	practice_z	22	advance_on_keypress_ZEE	20	stimuli_distractor_diamondtriangles.svg	stimuli_target_trianglerectangles.svg	9	yes	57	0	380	6	5	antiphase_hc_osi.wav	2	6	5	noise_calib_stim_RIGHT.wav	2	23	blb_dichoticlistening_ka-pa.mp3	ka	pa	1	left
6.6.1	mac	2023-06-02	07:26:16	07:43:47	1048563	5d55d562e04e1c0001f5e682	2	1	practice_z	22	practice_z	21	stimuli_target_diamondsquares.svg	stimuli_distractor_diamondtriangles.svg	3	yes	44	1	620	6	5	antiphase_hc_osi.wav	2	6	5	noise_calib_stim_RIGHT.wav	2	23	blb_dichoticlistening_ka-pa.mp3	ka	pa	1	left
6.6.1	mac	2023-06-02	07:26:16	07:43:47	1048563	5d55d562e04e1c0001f5e682	2	1	practice_z	22	advance_on_keypress_ZEE	22	stimuli_target_diamondsquares.svg	stimuli_distractor_diamondtriangles.svg	3	yes	57	0	576	6	5	antiphase_hc_osi.wav	2	6	5	noise_calib_stim_RIGHT.wav	2	23	blb_dichoticlistening_ka-pa.mp3	ka	pa	1	left
6.6.1	mac	2023-06-02	07:26:16	07:43:50	1051427	5d55d562e04e1c0001f5e682	2	1	practice_z	22	practice_z	23	stimuli_distractor_trianglediamonds.svg	stimuli_target_squarediamonds.svg	11	yes	44	1	650	6	5	antiphase_hc_osi.wav	2	6	5	noise_calib_stim_RIGHT.wav	2	23	blb_dichoticlistening_ka-pa.mp3	ka	pa	1	left
6.6.1	mac	2023-06-02	07:26:16	07:43:50	1051427	5d55d562e04e1c0001f5e682	2	1	practice_z	22	advance_on_keypress_ZEE	24	stimuli_distractor_trianglediamonds.svg	stimuli_target_squarediamonds.svg	11	yes	57	0	426	6	5	antiphase_hc_osi.wav	2	6	5	noise_calib_stim_RIGHT.wav	2	23	blb_dichoticlistening_ka-pa.mp3	ka	pa	1	left
6.6.1	mac	2023-06-02	07:26:16	07:43:53	1054257	5d55d562e04e1c0001f5e682	2	1	practice_z	22	practice_z	25	stimuli_distractor_diamondtriangles.svg	stimuli_distractor_trianglediamonds.svg	14	no	44	0	759	6	5	antiphase_hc_osi.wav	2	6	5	noise_calib_stim_RIGHT.wav	2	23	blb_dichoticlistening_ka-pa.mp3	ka	pa	1	left
6.6.1	mac	2023-06-02	07:26:16	07:43:53	1054257	5d55d562e04e1c0001f5e682	2	1	practice_z	22	advance_on_keypress_ZEE	26	stimuli_distractor_diamondtriangles.svg	stimuli_distractor_trianglediamonds.svg	14	no	57	0	485	6	5	antiphase_hc_osi.wav	2	6	5	noise_calib_stim_RIGHT.wav	2	23	blb_dichoticlistening_ka-pa.mp3	ka	pa	1	left
6.6.1	mac	2023-06-02	07:26:16	07:43:56	1056904	5d55d562e04e1c0001f5e682	2	1	practice_z	22	practice_z	27	stimuli_distractor_trianglediamonds.svg	stimuli_target_rectanglediamonds.svg	10	yes	44	1	529	6	5	antiphase_hc_osi.wav	2	6	5	noise_calib_stim_RIGHT.wav	2	23	blb_dichoticlistening_ka-pa.mp3	ka	pa	1	left
6.6.1	mac	2023-06-02	07:26:16	07:43:56	1056904	5d55d562e04e1c0001f5e682	2	1	practice_z	22	advance_on_keypress_ZEE	28	stimuli_distractor_trianglediamonds.svg	stimuli_target_rectanglediamonds.svg	10	yes	57	0	499	6	5	antiphase_hc_osi.wav	2	6	5	noise_calib_stim_RIGHT.wav	2	23	blb_dichoticlistening_ka-pa.mp3	ka	pa	1	left
6.6.1	mac	2023-06-02	07:26:16	07:44:00	1061042	5d55d562e04e1c0001f5e682	2	1	practice_z	22	practice_z	29	stimuli_target_diamondsquares.svg	stimuli_distractor_trianglediamonds.svg	6	yes	0	0	2000	6	5	antiphase_hc_osi.wav	2	6	5	noise_calib_stim_RIGHT.wav	2	23	blb_dichoticlistening_ka-pa.mp3	ka	pa	1	left
6.6.1	mac	2023-06-02	07:26:16	07:44:00	1061042	5d55d562e04e1c0001f5e682	2	1	practice_z	22	advance_on_keypress_ZEE	30	stimuli_target_diamondsquares.svg	stimuli_distractor_trianglediamonds.svg	6	yes	57	0	595	6	5	antiphase_hc_osi.wav	2	6	5	noise_calib_stim_RIGHT.wav	2	23	blb_dichoticlistening_ka-pa.mp3	ka	pa	1	left
6.6.1	mac	2023-06-02	07:26:16	07:44:03	1063782	5d55d562e04e1c0001f5e682	2	1	practice_z	22	practice_z	31	stimuli_target_rectanglediamonds.svg	stimuli_distractor_trianglediamonds.svg	4	yes	44	1	504	6	5	antiphase_hc_osi.wav	2	6	5	noise_calib_stim_RIGHT.wav	2	23	blb_dichoticlistening_ka-pa.mp3	ka	pa	1	left
6.6.1	mac	2023-06-02	07:26:16	07:44:03	1063782	5d55d562e04e1c0001f5e682	2	1	practice_z	22	advance_on_keypress_ZEE	32	stimuli_target_rectanglediamonds.svg	stimuli_distractor_trianglediamonds.svg	4	yes	57	0	90556	6	5	antiphase_hc_osi.wav	2	6	5	noise_calib_stim_RIGHT.wav	2	23	blb_dichoticlistening_ka-pa.mp3	ka	pa	1	left
6.6.1	mac	2023-06-02	07:26:16	07:45:43	1164331	5d55d562e04e1c0001f5e682	2	1	main_z	24	main_z	1	stimuli_distractor_diamondtriangles.svg	stimuli_target_squarediamonds.svg	16	yes	44	1	698	6	5	antiphase_hc_osi.wav	2	6	5	noise_calib_stim_RIGHT.wav	2	23	blb_dichoticlistening_ka-pa.mp3	ka	pa	1	left
6.6.1	mac	2023-06-02	07:26:16	07:45:43	1164331	5d55d562e04e1c0001f5e682	2	1	main_z	24	advance_on_keypress_ZEE	2	stimuli_distractor_diamondtriangles.svg	stimuli_target_squarediamonds.svg	16	yes	57	0	1161	6	5	antiphase_hc_osi.wav	2	6	5	noise_calib_stim_RIGHT.wav	2	23	blb_dichoticlistening_ka-pa.mp3	ka	pa	1	left
6.6.1	mac	2023-06-02	07:26:16	07:45:46	1166883	5d55d562e04e1c0001f5e682	2	1	main_z	24	main_z	3	stimuli_target_diamondsquares.svg	stimuli_distractor_trianglediamonds.svg	20	yes	44	1	751	6	5	antiphase_hc_osi.wav	2	6	5	noise_calib_stim_RIGHT.wav	2	23	blb_dichoticlistening_ka-pa.mp3	ka	pa	1	left
6.6.1	mac	2023-06-02	07:26:16	07:45:46	1166883	5d55d562e04e1c0001f5e682	2	1	main_z	24	advance_on_keypress_ZEE	4	stimuli_target_diamondsquares.svg	stimuli_distractor_trianglediamonds.svg	20	yes	57	0	1269	6	5	antiphase_hc_osi.wav	2	6	5	noise_calib_stim_RIGHT.wav	2	23	blb_dichoticlistening_ka-pa.mp3	ka	pa	1	left
6.6.1	mac	2023-06-02	07:26:16	07:45:48	1169356	5d55d562e04e1c0001f5e682	2	1	main_z	24	main_z	5	stimuli_target_squarediamonds.svg	stimuli_distractor_diamondtriangles.svg	8	yes	44	1	571	6	5	antiphase_hc_osi.wav	2	6	5	noise_calib_stim_RIGHT.wav	2	23	blb_dichoticlistening_ka-pa.mp3	ka	pa	1	left
6.6.1	mac	2023-06-02	07:26:16	07:45:48	1169356	5d55d562e04e1c0001f5e682	2	1	main_z	24	advance_on_keypress_ZEE	6	stimuli_target_squarediamonds.svg	stimuli_distractor_diamondtriangles.svg	8	yes	57	0	5392	6	5	antiphase_hc_osi.wav	2	6	5	noise_calib_stim_RIGHT.wav	2	23	blb_dichoticlistening_ka-pa.mp3	ka	pa	1	left
6.6.1	mac	2023-06-02	07:26:16	07:45:55	1176063	5d55d562e04e1c0001f5e682	2	1	main_z	24	main_z	7	stimuli_distractor_diamondtriangles.svg	stimuli_target_trianglesquares.svg	30	yes	44	1	673	6	5	antiphase_hc_osi.wav	2	6	5	noise_calib_stim_RIGHT.wav	2	23	blb_dichoticlistening_ka-pa.mp3	ka	pa	1	left
6.6.1	mac	2023-06-02	07:26:16	07:45:55	1176063	5d55d562e04e1c0001f5e682	2	1	main_z	24	advance_on_keypress_ZEE	8	stimuli_distractor_diamondtriangles.svg	stimuli_target_trianglesquares.svg	30	yes	57	0	675	6	5	antiphase_hc_osi.wav	2	6	5	noise_calib_stim_RIGHT.wav	2	23	blb_dichoticlistening_ka-pa.mp3	ka	pa	1	left
6.6.1	mac	2023-06-02	07:26:16	07:45:58	1179383	5d55d562e04e1c0001f5e682	2	1	main_z	24	main_z	9	stimuli_distractor_diamondtriangles.svg	stimuli_target_squaretriangles.svg	15	yes	0	0	2000	6	5	antiphase_hc_osi.wav	2	6	5	noise_calib_stim_RIGHT.wav	2	23	blb_dichoticlistening_ka-pa.mp3	ka	pa	1	left
6.6.1	mac	2023-06-02	07:26:16	07:45:58	1179383	5d55d562e04e1c0001f5e682	2	1	main_z	24	advance_on_keypress_ZEE	10	stimuli_distractor_diamondtriangles.svg	stimuli_target_squaretriangles.svg	15	yes	57	0	359	6	5	antiphase_hc_osi.wav	2	6	5	noise_calib_stim_RIGHT.wav	2	23	blb_dichoticlistening_ka-pa.mp3	ka	pa	1	left
6.6.1	mac	2023-06-02	07:26:16	07:46:01	1182400	5d55d562e04e1c0001f5e682	2	1	main_z	24	main_z	11	stimuli_target_trianglesquares.svg	stimuli_distractor_trianglediamonds.svg	18	yes	0	0	2000	6	5	antiphase_hc_osi.wav	2	6	5	noise_calib_stim_RIGHT.wav	2	23	blb_dichoticlistening_ka-pa.mp3	ka	pa	1	left
6.6.1	mac	2023-06-02	07:26:16	07:46:01	1182400	5d55d562e04e1c0001f5e682	2	1	main_z	24	advance_on_keypress_ZEE	12	stimuli_target_trianglesquares.svg	stimuli_distractor_trianglediamonds.svg	18	yes	57	0	320	6	5	antiphase_hc_osi.wav	2	6	5	noise_calib_stim_RIGHT.wav	2	23	blb_dichoticlistening_ka-pa.mp3	ka	pa	1	left
6.6.1	mac	2023-06-02	07:26:16	07:46:03	1183803	5d55d562e04e1c0001f5e682	2	1	main_z	24	main_z	13	stimuli_target_squarediamonds.svg	stimuli_distractor_trianglediamonds.svg	4	yes	44	1	451	6	5	antiphase_hc_osi.wav	2	6	5	noise_calib_stim_RIGHT.wav	2	23	blb_dichoticlistening_ka-pa.mp3	ka	pa	1	left
6.6.1	mac	2023-06-02	07:26:16	07:46:03	1183803	5d55d562e04e1c0001f5e682	2	1	main_z	24	advance_on_keypress_ZEE	14	stimuli_target_squarediamonds.svg	stimuli_distractor_trianglediamonds.svg	4	yes	57	0	1005	6	5	antiphase_hc_osi.wav	2	6	5	noise_calib_stim_RIGHT.wav	2	23	blb_dichoticlistening_ka-pa.mp3	ka	pa	1	left
6.6.1	mac	2023-06-02	07:26:16	07:46:06	1187432	5d55d562e04e1c0001f5e682	2	1	main_z	24	main_z	15	stimuli_target_diamondrectangles.svg	stimuli_distractor_diamondtriangles.svg	23	yes	0	0	2000	6	5	antiphase_hc_osi.wav	2	6	5	noise_calib_stim_RIGHT.wav	2	23	blb_dichoticlistening_ka-pa.mp3	ka	pa	1	left
6.6.1	mac	2023-06-02	07:26:16	07:46:06	1187432	5d55d562e04e1c0001f5e682	2	1	main_z	24	advance_on_keypress_ZEE	16	stimuli_target_diamondrectangles.svg	stimuli_distractor_diamondtriangles.svg	23	yes	57	0	351	6	5	antiphase_hc_osi.wav	2	6	5	noise_calib_stim_RIGHT.wav	2	23	blb_dichoticlistening_ka-pa.mp3	ka	pa	1	left
6.6.1	mac	2023-06-02	07:26:16	07:46:08	1189547	5d55d562e04e1c0001f5e682	2	1	main_z	24	main_z	17	stimuli_distractor_diamondtriangles.svg	stimuli_target_diamondrectangles.svg	31	yes	44	1	1126	6	5	antiphase_hc_osi.wav	2	6	5	noise_calib_stim_RIGHT.wav	2	23	blb_dichoticlistening_ka-pa.mp3	ka	pa	1	left
6.6.1	mac	2023-06-02	07:26:16	07:46:08	1189547	5d55d562e04e1c0001f5e682	2	1	main_z	24	advance_on_keypress_ZEE	18	stimuli_distractor_diamondtriangles.svg	stimuli_target_diamondrectangles.svg	31	yes	57	0	605	6	5	antiphase_hc_osi.wav	2	6	5	noise_calib_stim_RIGHT.wav	2	23	blb_dichoticlistening_ka-pa.mp3	ka	pa	1	left
6.6.1	mac	2023-06-02	07:26:16	07:46:11	1191970	5d55d562e04e1c0001f5e682	2	1	main_z	24	main_z	19	stimuli_distractor_diamondtriangles.svg	stimuli_target_trianglerectangles.svg	29	yes	44	1	1185	6	5	antiphase_hc_osi.wav	2	6	5	noise_calib_stim_RIGHT.wav	2	23	blb_dichoticlistening_ka-pa.mp3	ka	pa	1	left
6.6.1	mac	2023-06-02	07:26:16	07:46:11	1191970	5d55d562e04e1c0001f5e682	2	1	main_z	24	advance_on_keypress_ZEE	20	stimuli_distractor_diamondtriangles.svg	stimuli_target_trianglerectangles.svg	29	yes	57	0	963	6	5	antiphase_hc_osi.wav	2	6	5	noise_calib_stim_RIGHT.wav	2	23	blb_dichoticlistening_ka-pa.mp3	ka	pa	1	left
6.6.1	mac	2023-06-02	07:26:16	07:46:14	1195568	5d55d562e04e1c0001f5e682	2	1	main_z	24	main_z	21	stimuli_distractor_trianglediamonds.svg	stimuli_distractor_diamondtriangles.svg	35	no	0	1	2000	6	5	antiphase_hc_osi.wav	2	6	5	noise_calib_stim_RIGHT.wav	2	23	blb_dichoticlistening_ka-pa.mp3	ka	pa	1	left
6.6.1	mac	2023-06-02	07:26:16	07:46:14	1195568	5d55d562e04e1c0001f5e682	2	1	main_z	24	advance_on_keypress_ZEE	22	stimuli_distractor_trianglediamonds.svg	stimuli_distractor_diamondtriangles.svg	35	no	57	0	1502	6	5	antiphase_hc_osi.wav	2	6	5	noise_calib_stim_RIGHT.wav	2	23	blb_dichoticlistening_ka-pa.mp3	ka	pa	1	left
6.6.1	mac	2023-06-02	07:26:16	07:46:17	1198176	5d55d562e04e1c0001f5e682	2	1	main_z	24	main_z	23	stimuli_target_rectangletriangles.svg	stimuli_distractor_diamondtriangles.svg	5	yes	44	1	475	6	5	antiphase_hc_osi.wav	2	6	5	noise_calib_stim_RIGHT.wav	2	23	blb_dichoticlistening_ka-pa.mp3	ka	pa	1	left
6.6.1	mac	2023-06-02	07:26:16	07:46:17	1198176	5d55d562e04e1c0001f5e682	2	1	main_z	24	advance_on_keypress_ZEE	24	stimuli_target_rectangletriangles.svg	stimuli_distractor_diamondtriangles.svg	5	yes	57	0	707	6	5	antiphase_hc_osi.wav	2	6	5	noise_calib_stim_RIGHT.wav	2	23	blb_dichoticlistening_ka-pa.mp3	ka	pa	1	left
6.6.1	mac	2023-06-02	07:26:16	07:46:19	1200235	5d55d562e04e1c0001f5e682	2	1	main_z	24	main_z	25	stimuli_distractor_diamondtriangles.svg	stimuli_target_rectangletriangles.svg	13	yes	44	1	733	6	5	antiphase_hc_osi.wav	2	6	5	noise_calib_stim_RIGHT.wav	2	23	blb_dichoticlistening_ka-pa.mp3	ka	pa	1	left
6.6.1	mac	2023-06-02	07:26:16	07:46:19	1200235	5d55d562e04e1c0001f5e682	2	1	main_z	24	advance_on_keypress_ZEE	26	stimuli_distractor_diamondtriangles.svg	stimuli_target_rectangletriangles.svg	13	yes	57	0	650	6	5	antiphase_hc_osi.wav	2	6	5	noise_calib_stim_RIGHT.wav	2	23	blb_dichoticlistening_ka-pa.mp3	ka	pa	1	left
6.6.1	mac	2023-06-02	07:26:16	07:46:21	1202719	5d55d562e04e1c0001f5e682	2	1	main_z	24	main_z	27	stimuli_distractor_diamondtriangles.svg	stimuli_target_diamondsquares.svg	32	yes	44	1	1199	6	5	antiphase_hc_osi.wav	2	6	5	noise_calib_stim_RIGHT.wav	2	23	blb_dichoticlistening_ka-pa.mp3	ka	pa	1	left
6.6.1	mac	2023-06-02	07:26:16	07:46:21	1202719	5d55d562e04e1c0001f5e682	2	1	main_z	24	advance_on_keypress_ZEE	28	stimuli_distractor_diamondtriangles.svg	stimuli_target_diamondsquares.svg	32	yes	57	0	6265	6	5	antiphase_hc_osi.wav	2	6	5	noise_calib_stim_RIGHT.wav	2	23	blb_dichoticlistening_ka-pa.mp3	ka	pa	1	left
6.6.1	mac	2023-06-02	07:26:16	07:46:30	1211619	5d55d562e04e1c0001f5e682	2	1	main_z	24	main_z	29	stimuli_distractor_diamondtriangles.svg	stimuli_distractor_trianglediamonds.svg	38	no	0	1	2000	6	5	antiphase_hc_osi.wav	2	6	5	noise_calib_stim_RIGHT.wav	2	23	blb_dichoticlistening_ka-pa.mp3	ka	pa	1	left
6.6.1	mac	2023-06-02	07:26:16	07:46:30	1211619	5d55d562e04e1c0001f5e682	2	1	main_z	24	advance_on_keypress_ZEE	30	stimuli_distractor_diamondtriangles.svg	stimuli_distractor_trianglediamonds.svg	38	no	57	0	408	6	5	antiphase_hc_osi.wav	2	6	5	noise_calib_stim_RIGHT.wav	2	23	blb_dichoticlistening_ka-pa.mp3	ka	pa	1	left
6.6.1	mac	2023-06-02	07:26:16	07:46:32	1213317	5d55d562e04e1c0001f5e682	2	1	main_z	24	main_z	31	stimuli_distractor_trianglediamonds.svg	stimuli_target_diamondsquares.svg	28	yes	44	1	644	6	5	antiphase_hc_osi.wav	2	6	5	noise_calib_stim_RIGHT.wav	2	23	blb_dichoticlistening_ka-pa.mp3	ka	pa	1	left
6.6.1	mac	2023-06-02	07:26:16	07:46:32	1213317	5d55d562e04e1c0001f5e682	2	1	main_z	24	advance_on_keypress_ZEE	32	stimuli_distractor_trianglediamonds.svg	stimuli_target_diamondsquares.svg	28	yes	57	0	637	6	5	antiphase_hc_osi.wav	2	6	5	noise_calib_stim_RIGHT.wav	2	23	blb_dichoticlistening_ka-pa.mp3	ka	pa	1	left
6.6.1	mac	2023-06-02	07:26:16	07:46:34	1215263	5d55d562e04e1c0001f5e682	2	1	main_z	24	main_z	33	stimuli_target_rectanglediamonds.svg	stimuli_distractor_trianglediamonds.svg	2	yes	44	1	678	6	5	antiphase_hc_osi.wav	2	6	5	noise_calib_stim_RIGHT.wav	2	23	blb_dichoticlistening_ka-pa.mp3	ka	pa	1	left
6.6.1	mac	2023-06-02	07:26:16	07:46:34	1215263	5d55d562e04e1c0001f5e682	2	1	main_z	24	advance_on_keypress_ZEE	34	stimuli_target_rectanglediamonds.svg	stimuli_distractor_trianglediamonds.svg	2	yes	57	0	691	6	5	antiphase_hc_osi.wav	2	6	5	noise_calib_stim_RIGHT.wav	2	23	blb_dichoticlistening_ka-pa.mp3	ka	pa	1	left
6.6.1	mac	2023-06-02	07:26:16	07:46:37	1218602	5d55d562e04e1c0001f5e682	2	1	main_z	24	main_z	35	stimuli_target_trianglesquares.svg	stimuli_distractor_diamondtriangles.svg	22	yes	0	0	2000	6	5	antiphase_hc_osi.wav	2	6	5	noise_calib_stim_RIGHT.wav	2	23	blb_dichoticlistening_ka-pa.mp3	ka	pa	1	left
6.6.1	mac	2023-06-02	07:26:16	07:46:37	1218602	5d55d562e04e1c0001f5e682	2	1	main_z	24	advance_on_keypress_ZEE	36	stimuli_target_trianglesquares.svg	stimuli_distractor_diamondtriangles.svg	22	yes	57	0	516	6	5	antiphase_hc_osi.wav	2	6	5	noise_calib_stim_RIGHT.wav	2	23	blb_dichoticlistening_ka-pa.mp3	ka	pa	1	left
6.6.1	mac	2023-06-02	07:26:16	07:46:39	1220427	5d55d562e04e1c0001f5e682	2	1	main_z	24	main_z	37	stimuli_target_squaretriangles.svg	stimuli_distractor_trianglediamonds.svg	3	yes	44	1	674	6	5	antiphase_hc_osi.wav	2	6	5	noise_calib_stim_RIGHT.wav	2	23	blb_dichoticlistening_ka-pa.mp3	ka	pa	1	left
6.6.1	mac	2023-06-02	07:26:16	07:46:39	1220427	5d55d562e04e1c0001f5e682	2	1	main_z	24	advance_on_keypress_ZEE	38	stimuli_target_squaretriangles.svg	stimuli_distractor_trianglediamonds.svg	3	yes	57	0	709	6	5	antiphase_hc_osi.wav	2	6	5	noise_calib_stim_RIGHT.wav	2	23	blb_dichoticlistening_ka-pa.mp3	ka	pa	1	left
6.6.1	mac	2023-06-02	07:26:16	07:46:43	1223769	5d55d562e04e1c0001f5e682	2	1	main_z	24	main_z	39	stimuli_distractor_diamondtriangles.svg	stimuli_distractor_trianglediamonds.svg	37	no	0	1	2000	6	5	antiphase_hc_osi.wav	2	6	5	noise_calib_stim_RIGHT.wav	2	23	blb_dichoticlistening_ka-pa.mp3	ka	pa	1	left
6.6.1	mac	2023-06-02	07:26:16	07:46:43	1223769	5d55d562e04e1c0001f5e682	2	1	main_z	24	advance_on_keypress_ZEE	40	stimuli_distractor_diamondtriangles.svg	stimuli_distractor_trianglediamonds.svg	37	no	57	0	321	6	5	antiphase_hc_osi.wav	2	6	5	noise_calib_stim_RIGHT.wav	2	23	blb_dichoticlistening_ka-pa.mp3	ka	pa	1	left
6.6.1	mac	2023-06-02	07:26:16	07:46:45	1226719	5d55d562e04e1c0001f5e682	2	1	main_z	24	main_z	41	stimuli_distractor_trianglediamonds.svg	stimuli_distractor_diamondtriangles.svg	36	no	0	1	2000	6	5	antiphase_hc_osi.wav	2	6	5	noise_calib_stim_RIGHT.wav	2	23	blb_dichoticlistening_ka-pa.mp3	ka	pa	1	left
6.6.1	mac	2023-06-02	07:26:16	07:46:45	1226719	5d55d562e04e1c0001f5e682	2	1	main_z	24	advance_on_keypress_ZEE	42	stimuli_distractor_trianglediamonds.svg	stimuli_distractor_diamondtriangles.svg	36	no	57	0	361	6	5	antiphase_hc_osi.wav	2	6	5	noise_calib_stim_RIGHT.wav	2	23	blb_dichoticlistening_ka-pa.mp3	ka	pa	1	left
6.6.1	mac	2023-06-02	07:26:16	07:46:47	1228389	5d55d562e04e1c0001f5e682	2	1	main_z	24	main_z	43	stimuli_target_rectanglediamonds.svg	stimuli_distractor_diamondtriangles.svg	6	yes	44	1	669	6	5	antiphase_hc_osi.wav	2	6	5	noise_calib_stim_RIGHT.wav	2	23	blb_dichoticlistening_ka-pa.mp3	ka	pa	1	left
6.6.1	mac	2023-06-02	07:26:16	07:46:47	1228389	5d55d562e04e1c0001f5e682	2	1	main_z	24	advance_on_keypress_ZEE	44	stimuli_target_rectanglediamonds.svg	stimuli_distractor_diamondtriangles.svg	6	yes	57	0	4382	6	5	antiphase_hc_osi.wav	2	6	5	noise_calib_stim_RIGHT.wav	2	23	blb_dichoticlistening_ka-pa.mp3	ka	pa	1	left
6.6.1	mac	2023-06-02	07:26:16	07:46:54	1235404	5d55d562e04e1c0001f5e682	2	1	main_z	24	main_z	45	stimuli_distractor_trianglediamonds.svg	stimuli_distractor_trianglediamonds.svg	34	no	0	1	2000	6	5	antiphase_hc_osi.wav	2	6	5	noise_calib_stim_RIGHT.wav	2	23	blb_dichoticlistening_ka-pa.mp3	ka	pa	1	left
6.6.1	mac	2023-06-02	07:26:16	07:46:54	1235404	5d55d562e04e1c0001f5e682	2	1	main_z	24	advance_on_keypress_ZEE	46	stimuli_distractor_trianglediamonds.svg	stimuli_distractor_trianglediamonds.svg	34	no	57	0	341	6	5	antiphase_hc_osi.wav	2	6	5	noise_calib_stim_RIGHT.wav	2	23	blb_dichoticlistening_ka-pa.mp3	ka	pa	1	left
6.6.1	mac	2023-06-02	07:26:16	07:46:56	1237388	5d55d562e04e1c0001f5e682	2	1	main_z	24	main_z	47	stimuli_distractor_trianglediamonds.svg	stimuli_target_trianglerectangles.svg	25	yes	44	1	987	6	5	antiphase_hc_osi.wav	2	6	5	noise_calib_stim_RIGHT.wav	2	23	blb_dichoticlistening_ka-pa.mp3	ka	pa	1	left
6.6.1	mac	2023-06-02	07:26:16	07:46:56	1237388	5d55d562e04e1c0001f5e682	2	1	main_z	24	advance_on_keypress_ZEE	48	stimuli_distractor_trianglediamonds.svg	stimuli_target_trianglerectangles.svg	25	yes	57	0	592	6	5	antiphase_hc_osi.wav	2	6	5	noise_calib_stim_RIGHT.wav	2	23	blb_dichoticlistening_ka-pa.mp3	ka	pa	1	left
6.6.1	mac	2023-06-02	07:26:16	07:46:58	1239340	5d55d562e04e1c0001f5e682	2	1	main_z	24	main_z	49	stimuli_distractor_trianglediamonds.svg	stimuli_target_rectangletriangles.svg	9	yes	44	1	719	6	5	antiphase_hc_osi.wav	2	6	5	noise_calib_stim_RIGHT.wav	2	23	blb_dichoticlistening_ka-pa.mp3	ka	pa	1	left
6.6.1	mac	2023-06-02	07:26:16	07:46:58	1239340	5d55d562e04e1c0001f5e682	2	1	main_z	24	advance_on_keypress_ZEE	50	stimuli_distractor_trianglediamonds.svg	stimuli_target_rectangletriangles.svg	9	yes	57	0	588	6	5	antiphase_hc_osi.wav	2	6	5	noise_calib_stim_RIGHT.wav	2	23	blb_dichoticlistening_ka-pa.mp3	ka	pa	1	left
6.6.1	mac	2023-06-02	07:26:16	07:47:00	1241399	5d55d562e04e1c0001f5e682	2	1	main_z	24	main_z	51	stimuli_distractor_trianglediamonds.svg	stimuli_target_trianglesquares.svg	26	yes	44	1	841	6	5	antiphase_hc_osi.wav	2	6	5	noise_calib_stim_RIGHT.wav	2	23	blb_dichoticlistening_ka-pa.mp3	ka	pa	1	left
6.6.1	mac	2023-06-02	07:26:16	07:47:00	1241399	5d55d562e04e1c0001f5e682	2	1	main_z	24	advance_on_keypress_ZEE	52	stimuli_distractor_trianglediamonds.svg	stimuli_target_trianglesquares.svg	26	yes	57	0	706	6	5	antiphase_hc_osi.wav	2	6	5	noise_calib_stim_RIGHT.wav	2	23	blb_dichoticlistening_ka-pa.mp3	ka	pa	1	left
6.6.1	mac	2023-06-02	07:26:16	07:47:02	1243469	5d55d562e04e1c0001f5e682	2	1	main_z	24	main_z	53	stimuli_target_squaretriangles.svg	stimuli_distractor_diamondtriangles.svg	7	yes	44	1	730	6	5	antiphase_hc_osi.wav	2	6	5	noise_calib_stim_RIGHT.wav	2	23	blb_dichoticlistening_ka-pa.mp3	ka	pa	1	left
6.6.1	mac	2023-06-02	07:26:16	07:47:02	1243469	5d55d562e04e1c0001f5e682	2	1	main_z	24	advance_on_keypress_ZEE	54	stimuli_target_squaretriangles.svg	stimuli_distractor_diamondtriangles.svg	7	yes	57	0	618	6	5	antiphase_hc_osi.wav	2	6	5	noise_calib_stim_RIGHT.wav	2	23	blb_dichoticlistening_ka-pa.mp3	ka	pa	1	left
6.6.1	mac	2023-06-02	07:26:16	07:47:05	1246720	5d55d562e04e1c0001f5e682	2	1	main_z	24	main_z	55	stimuli_distractor_diamondtriangles.svg	stimuli_distractor_diamondtriangles.svg	39	no	0	1	2000	6	5	antiphase_hc_osi.wav	2	6	5	noise_calib_stim_RIGHT.wav	2	23	blb_dichoticlistening_ka-pa.mp3	ka	pa	1	left
6.6.1	mac	2023-06-02	07:26:16	07:47:05	1246720	5d55d562e04e1c0001f5e682	2	1	main_z	24	advance_on_keypress_ZEE	56	stimuli_distractor_diamondtriangles.svg	stimuli_distractor_diamondtriangles.svg	39	no	57	0	426	6	5	antiphase_hc_osi.wav	2	6	5	noise_calib_stim_RIGHT.wav	2	23	blb_dichoticlistening_ka-pa.mp3	ka	pa	1	left
6.6.1	mac	2023-06-02	07:26:16	07:47:09	1249787	5d55d562e04e1c0001f5e682	2	1	main_z	24	main_z	57	stimuli_target_diamondsquares.svg	stimuli_distractor_diamondtriangles.svg	24	yes	0	0	2000	6	5	antiphase_hc_osi.wav	2	6	5	noise_calib_stim_RIGHT.wav	2	23	blb_dichoticlistening_ka-pa.mp3	ka	pa	1	left
6.6.1	mac	2023-06-02	07:26:16	07:47:09	1249787	5d55d562e04e1c0001f5e682	2	1	main_z	24	advance_on_keypress_ZEE	58	stimuli_target_diamondsquares.svg	stimuli_distractor_diamondtriangles.svg	24	yes	57	0	304	6	5	antiphase_hc_osi.wav	2	6	5	noise_calib_stim_RIGHT.wav	2	23	blb_dichoticlistening_ka-pa.mp3	ka	pa	1	left
6.6.1	mac	2023-06-02	07:26:16	07:47:11	1252720	5d55d562e04e1c0001f5e682	2	1	main_z	24	main_z	59	stimuli_distractor_diamondtriangles.svg	stimuli_distractor_diamondtriangles.svg	40	no	0	1	2000	6	5	antiphase_hc_osi.wav	2	6	5	noise_calib_stim_RIGHT.wav	2	23	blb_dichoticlistening_ka-pa.mp3	ka	pa	1	left
6.6.1	mac	2023-06-02	07:26:16	07:47:11	1252720	5d55d562e04e1c0001f5e682	2	1	main_z	24	advance_on_keypress_ZEE	60	stimuli_distractor_diamondtriangles.svg	stimuli_distractor_diamondtriangles.svg	40	no	57	0	302	6	5	antiphase_hc_osi.wav	2	6	5	noise_calib_stim_RIGHT.wav	2	23	blb_dichoticlistening_ka-pa.mp3	ka	pa	1	left
6.6.1	mac	2023-06-02	07:26:16	07:47:14	1255653	5d55d562e04e1c0001f5e682	2	1	main_z	24	main_z	61	stimuli_distractor_trianglediamonds.svg	stimuli_distractor_trianglediamonds.svg	33	no	0	1	2000	6	5	antiphase_hc_osi.wav	2	6	5	noise_calib_stim_RIGHT.wav	2	23	blb_dichoticlistening_ka-pa.mp3	ka	pa	1	left
6.6.1	mac	2023-06-02	07:26:16	07:47:14	1255653	5d55d562e04e1c0001f5e682	2	1	main_z	24	advance_on_keypress_ZEE	62	stimuli_distractor_trianglediamonds.svg	stimuli_distractor_trianglediamonds.svg	33	no	57	0	347	6	5	antiphase_hc_osi.wav	2	6	5	noise_calib_stim_RIGHT.wav	2	23	blb_dichoticlistening_ka-pa.mp3	ka	pa	1	left
6.6.1	mac	2023-06-02	07:26:16	07:47:16	1257234	5d55d562e04e1c0001f5e682	2	1	main_z	24	main_z	63	stimuli_distractor_trianglediamonds.svg	stimuli_target_rectanglediamonds.svg	10	yes	44	1	594	6	5	antiphase_hc_osi.wav	2	6	5	noise_calib_stim_RIGHT.wav	2	23	blb_dichoticlistening_ka-pa.mp3	ka	pa	1	left
6.6.1	mac	2023-06-02	07:26:16	07:47:16	1257234	5d55d562e04e1c0001f5e682	2	1	main_z	24	advance_on_keypress_ZEE	64	stimuli_distractor_trianglediamonds.svg	stimuli_target_rectanglediamonds.svg	10	yes	57	0	599	6	5	antiphase_hc_osi.wav	2	6	5	noise_calib_stim_RIGHT.wav	2	23	blb_dichoticlistening_ka-pa.mp3	ka	pa	1	left
6.6.1	mac	2023-06-02	07:26:16	07:47:18	1259182	5d55d562e04e1c0001f5e682	2	1	main_z	24	main_z	65	stimuli_distractor_trianglediamonds.svg	stimuli_target_squarediamonds.svg	12	yes	44	1	709	6	5	antiphase_hc_osi.wav	2	6	5	noise_calib_stim_RIGHT.wav	2	23	blb_dichoticlistening_ka-pa.mp3	ka	pa	1	left
6.6.1	mac	2023-06-02	07:26:16	07:47:18	1259182	5d55d562e04e1c0001f5e682	2	1	main_z	24	advance_on_keypress_ZEE	66	stimuli_distractor_trianglediamonds.svg	stimuli_target_squarediamonds.svg	12	yes	57	0	632	6	5	antiphase_hc_osi.wav	2	6	5	noise_calib_stim_RIGHT.wav	2	23	blb_dichoticlistening_ka-pa.mp3	ka	pa	1	left
6.6.1	mac	2023-06-02	07:26:16	07:47:20	1261694	5d55d562e04e1c0001f5e682	2	1	main_z	24	main_z	67	stimuli_target_trianglerectangles.svg	stimuli_distractor_trianglediamonds.svg	17	yes	44	1	1238	6	5	antiphase_hc_osi.wav	2	6	5	noise_calib_stim_RIGHT.wav	2	23	blb_dichoticlistening_ka-pa.mp3	ka	pa	1	left
6.6.1	mac	2023-06-02	07:26:16	07:47:20	1261694	5d55d562e04e1c0001f5e682	2	1	main_z	24	advance_on_keypress_ZEE	68	stimuli_target_trianglerectangles.svg	stimuli_distractor_trianglediamonds.svg	17	yes	57	0	529	6	5	antiphase_hc_osi.wav	2	6	5	noise_calib_stim_RIGHT.wav	2	23	blb_dichoticlistening_ka-pa.mp3	ka	pa	1	left
6.6.1	mac	2023-06-02	07:26:16	07:47:22	1263605	5d55d562e04e1c0001f5e682	2	1	main_z	24	main_z	69	stimuli_target_diamondrectangles.svg	stimuli_distractor_trianglediamonds.svg	19	yes	44	1	749	6	5	antiphase_hc_osi.wav	2	6	5	noise_calib_stim_RIGHT.wav	2	23	blb_dichoticlistening_ka-pa.mp3	ka	pa	1	left
6.6.1	mac	2023-06-02	07:26:16	07:47:22	1263605	5d55d562e04e1c0001f5e682	2	1	main_z	24	advance_on_keypress_ZEE	70	stimuli_target_diamondrectangles.svg	stimuli_distractor_trianglediamonds.svg	19	yes	57	0	34900	6	5	antiphase_hc_osi.wav	2	6	5	noise_calib_stim_RIGHT.wav	2	23	blb_dichoticlistening_ka-pa.mp3	ka	pa	1	left
6.6.1	mac	2023-06-02	07:26:16	07:47:58	1299654	5d55d562e04e1c0001f5e682	2	1	main_z	24	main_z	71	stimuli_distractor_diamondtriangles.svg	stimuli_target_rectanglediamonds.svg	14	yes	44	1	510	6	5	antiphase_hc_osi.wav	2	6	5	noise_calib_stim_RIGHT.wav	2	23	blb_dichoticlistening_ka-pa.mp3	ka	pa	1	left
6.6.1	mac	2023-06-02	07:26:16	07:47:58	1299654	5d55d562e04e1c0001f5e682	2	1	main_z	24	advance_on_keypress_ZEE	72	stimuli_distractor_diamondtriangles.svg	stimuli_target_rectanglediamonds.svg	14	yes	57	0	536	6	5	antiphase_hc_osi.wav	2	6	5	noise_calib_stim_RIGHT.wav	2	23	blb_dichoticlistening_ka-pa.mp3	ka	pa	1	left
6.6.1	mac	2023-06-02	07:26:16	07:48:02	1302824	5d55d562e04e1c0001f5e682	2	1	main_z	24	main_z	73	stimuli_target_trianglerectangles.svg	stimuli_distractor_diamondtriangles.svg	21	yes	0	0	2000	6	5	antiphase_hc_osi.wav	2	6	5	noise_calib_stim_RIGHT.wav	2	23	blb_dichoticlistening_ka-pa.mp3	ka	pa	1	left
6.6.1	mac	2023-06-02	07:26:16	07:48:02	1302824	5d55d562e04e1c0001f5e682	2	1	main_z	24	advance_on_keypress_ZEE	74	stimuli_target_trianglerectangles.svg	stimuli_distractor_diamondtriangles.svg	21	yes	57	0	481	6	5	antiphase_hc_osi.wav	2	6	5	noise_calib_stim_RIGHT.wav	2	23	blb_dichoticlistening_ka-pa.mp3	ka	pa	1	left
6.6.1	mac	2023-06-02	07:26:16	07:48:03	1304639	5d55d562e04e1c0001f5e682	2	1	main_z	24	main_z	75	stimuli_distractor_trianglediamonds.svg	stimuli_target_diamondrectangles.svg	27	yes	44	1	696	6	5	antiphase_hc_osi.wav	2	6	5	noise_calib_stim_RIGHT.wav	2	23	blb_dichoticlistening_ka-pa.mp3	ka	pa	1	left
6.6.1	mac	2023-06-02	07:26:16	07:48:03	1304639	5d55d562e04e1c0001f5e682	2	1	main_z	24	advance_on_keypress_ZEE	76	stimuli_distractor_trianglediamonds.svg	stimuli_target_diamondrectangles.svg	27	yes	57	0	463	6	5	antiphase_hc_osi.wav	2	6	5	noise_calib_stim_RIGHT.wav	2	23	blb_dichoticlistening_ka-pa.mp3	ka	pa	1	left
6.6.1	mac	2023-06-02	07:26:16	07:48:05	1306490	5d55d562e04e1c0001f5e682	2	1	main_z	24	main_z	77	stimuli_distractor_trianglediamonds.svg	stimuli_target_squaretriangles.svg	11	yes	44	1	747	6	5	antiphase_hc_osi.wav	2	6	5	noise_calib_stim_RIGHT.wav	2	23	blb_dichoticlistening_ka-pa.mp3	ka	pa	1	left
6.6.1	mac	2023-06-02	07:26:16	07:48:05	1306490	5d55d562e04e1c0001f5e682	2	1	main_z	24	advance_on_keypress_ZEE	78	stimuli_distractor_trianglediamonds.svg	stimuli_target_squaretriangles.svg	11	yes	57	0	645	6	5	antiphase_hc_osi.wav	2	6	5	noise_calib_stim_RIGHT.wav	2	23	blb_dichoticlistening_ka-pa.mp3	ka	pa	1	left
6.6.1	mac	2023-06-02	07:26:16	07:48:07	1308380	5d55d562e04e1c0001f5e682	2	1	main_z	24	main_z	79	stimuli_target_rectangletriangles.svg	stimuli_distractor_trianglediamonds.svg	1	yes	44	1	604	6	5	antiphase_hc_osi.wav	2	6	5	noise_calib_stim_RIGHT.wav	2	23	blb_dichoticlistening_ka-pa.mp3	ka	pa	1	left
6.6.1	mac	2023-06-02	07:26:16	07:48:07	1308380	5d55d562e04e1c0001f5e682	2	1	main_z	24	advance_on_keypress_ZEE	80	stimuli_target_rectangletriangles.svg	stimuli_distractor_trianglediamonds.svg	1	yes	57	0	615	6	5	antiphase_hc_osi.wav	2	6	5	noise_calib_stim_RIGHT.wav	2	23	blb_dichoticlistening_ka-pa.mp3	ka	pa	1	left
6.6.1	mac	2023-06-02	07:26:16	07:48:09	1310223	5d55d562e04e1c0001f5e682	2	1	main_z	24	main_z	81	stimuli_distractor_trianglediamonds.svg	stimuli_target_rectanglediamonds.svg	10	yes	44	1	577	6	5	antiphase_hc_osi.wav	2	6	5	noise_calib_stim_RIGHT.wav	2	23	blb_dichoticlistening_ka-pa.mp3	ka	pa	1	left
6.6.1	mac	2023-06-02	07:26:16	07:48:09	1310223	5d55d562e04e1c0001f5e682	2	1	main_z	24	advance_on_keypress_ZEE	82	stimuli_distractor_trianglediamonds.svg	stimuli_target_rectanglediamonds.svg	10	yes	57	0	526	6	5	antiphase_hc_osi.wav	2	6	5	noise_calib_stim_RIGHT.wav	2	23	blb_dichoticlistening_ka-pa.mp3	ka	pa	1	left
6.6.1	mac	2023-06-02	07:26:16	07:48:12	1313392	5d55d562e04e1c0001f5e682	2	1	main_z	24	main_z	83	stimuli_distractor_diamondtriangles.svg	stimuli_distractor_trianglediamonds.svg	37	no	0	1	2000	6	5	antiphase_hc_osi.wav	2	6	5	noise_calib_stim_RIGHT.wav	2	23	blb_dichoticlistening_ka-pa.mp3	ka	pa	1	left
6.6.1	mac	2023-06-02	07:26:16	07:48:12	1313392	5d55d562e04e1c0001f5e682	2	1	main_z	24	advance_on_keypress_ZEE	84	stimuli_distractor_diamondtriangles.svg	stimuli_distractor_trianglediamonds.svg	37	no	57	0	23481	6	5	antiphase_hc_osi.wav	2	6	5	noise_calib_stim_RIGHT.wav	2	23	blb_dichoticlistening_ka-pa.mp3	ka	pa	1	left
6.6.1	mac	2023-06-02	07:26:16	07:48:38	1339513	5d55d562e04e1c0001f5e682	2	1	main_z	24	main_z	85	stimuli_distractor_diamondtriangles.svg	stimuli_target_trianglesquares.svg	30	yes	0	0	2000	6	5	antiphase_hc_osi.wav	2	6	5	noise_calib_stim_RIGHT.wav	2	23	blb_dichoticlistening_ka-pa.mp3	ka	pa	1	left
6.6.1	mac	2023-06-02	07:26:16	07:48:38	1339513	5d55d562e04e1c0001f5e682	2	1	main_z	24	advance_on_keypress_ZEE	86	stimuli_distractor_diamondtriangles.svg	stimuli_target_trianglesquares.svg	30	yes	57	0	446	6	5	antiphase_hc_osi.wav	2	6	5	noise_calib_stim_RIGHT.wav	2	23	blb_dichoticlistening_ka-pa.mp3	ka	pa	1	left
6.6.1	mac	2023-06-02	07:26:16	07:48:41	1342594	5d55d562e04e1c0001f5e682	2	1	main_z	24	main_z	87	stimuli_distractor_diamondtriangles.svg	stimuli_distractor_diamondtriangles.svg	39	no	0	1	2000	6	5	antiphase_hc_osi.wav	2	6	5	noise_calib_stim_RIGHT.wav	2	23	blb_dichoticlistening_ka-pa.mp3	ka	pa	1	left
6.6.1	mac	2023-06-02	07:26:16	07:48:41	1342594	5d55d562e04e1c0001f5e682	2	1	main_z	24	advance_on_keypress_ZEE	88	stimuli_distractor_diamondtriangles.svg	stimuli_distractor_diamondtriangles.svg	39	no	57	0	2631	6	5	antiphase_hc_osi.wav	2	6	5	noise_calib_stim_RIGHT.wav	2	23	blb_dichoticlistening_ka-pa.mp3	ka	pa	1	left
6.6.1	mac	2023-06-02	07:26:16	07:48:45	1346535	5d55d562e04e1c0001f5e682	2	1	main_z	24	main_z	89	stimuli_target_squaretriangles.svg	stimuli_distractor_diamondtriangles.svg	7	yes	44	1	673	6	5	antiphase_hc_osi.wav	2	6	5	noise_calib_stim_RIGHT.wav	2	23	blb_dichoticlistening_ka-pa.mp3	ka	pa	1	left
6.6.1	mac	2023-06-02	07:26:16	07:48:45	1346535	5d55d562e04e1c0001f5e682	2	1	main_z	24	advance_on_keypress_ZEE	90	stimuli_target_squaretriangles.svg	stimuli_distractor_diamondtriangles.svg	7	yes	57	0	764	6	5	antiphase_hc_osi.wav	2	6	5	noise_calib_stim_RIGHT.wav	2	23	blb_dichoticlistening_ka-pa.mp3	ka	pa	1	left
6.6.1	mac	2023-06-02	07:26:16	07:48:49	1349927	5d55d562e04e1c0001f5e682	2	1	main_z	24	main_z	91	stimuli_target_trianglerectangles.svg	stimuli_distractor_diamondtriangles.svg	21	yes	0	0	2000	6	5	antiphase_hc_osi.wav	2	6	5	noise_calib_stim_RIGHT.wav	2	23	blb_dichoticlistening_ka-pa.mp3	ka	pa	1	left
6.6.1	mac	2023-06-02	07:26:16	07:48:49	1349927	5d55d562e04e1c0001f5e682	2	1	main_z	24	advance_on_keypress_ZEE	92	stimuli_target_trianglerectangles.svg	stimuli_distractor_diamondtriangles.svg	21	yes	57	0	416	6	5	antiphase_hc_osi.wav	2	6	5	noise_calib_stim_RIGHT.wav	2	23	blb_dichoticlistening_ka-pa.mp3	ka	pa	1	left
6.6.1	mac	2023-06-02	07:26:16	07:48:51	1352297	5d55d562e04e1c0001f5e682	2	1	main_z	24	main_z	93	stimuli_distractor_diamondtriangles.svg	stimuli_target_diamondsquares.svg	32	yes	44	1	1318	6	5	antiphase_hc_osi.wav	2	6	5	noise_calib_stim_RIGHT.wav	2	23	blb_dichoticlistening_ka-pa.mp3	ka	pa	1	left
6.6.1	mac	2023-06-02	07:26:16	07:48:51	1352297	5d55d562e04e1c0001f5e682	2	1	main_z	24	advance_on_keypress_ZEE	94	stimuli_distractor_diamondtriangles.svg	stimuli_target_diamondsquares.svg	32	yes	57	0	440	6	5	antiphase_hc_osi.wav	2	6	5	noise_calib_stim_RIGHT.wav	2	23	blb_dichoticlistening_ka-pa.mp3	ka	pa	1	left
6.6.1	mac	2023-06-02	07:26:16	07:48:53	1354019	5d55d562e04e1c0001f5e682	2	1	main_z	24	main_z	95	stimuli_distractor_trianglediamonds.svg	stimuli_target_squarediamonds.svg	12	yes	44	1	639	6	5	antiphase_hc_osi.wav	2	6	5	noise_calib_stim_RIGHT.wav	2	23	blb_dichoticlistening_ka-pa.mp3	ka	pa	1	left
6.6.1	mac	2023-06-02	07:26:16	07:48:53	1354019	5d55d562e04e1c0001f5e682	2	1	main_z	24	advance_on_keypress_ZEE	96	stimuli_distractor_trianglediamonds.svg	stimuli_target_squarediamonds.svg	12	yes	57	0	28356	6	5	antiphase_hc_osi.wav	2	6	5	noise_calib_stim_RIGHT.wav	2	23	blb_dichoticlistening_ka-pa.mp3	ka	pa	1	left
6.6.1	mac	2023-06-02	07:26:16	07:49:22	1383570	5d55d562e04e1c0001f5e682	2	1	main_z	24	main_z	97	stimuli_distractor_diamondtriangles.svg	stimuli_target_rectanglediamonds.svg	14	yes	44	1	554	6	5	antiphase_hc_osi.wav	2	6	5	noise_calib_stim_RIGHT.wav	2	23	blb_dichoticlistening_ka-pa.mp3	ka	pa	1	left
6.6.1	mac	2023-06-02	07:26:16	07:49:22	1383570	5d55d562e04e1c0001f5e682	2	1	main_z	24	advance_on_keypress_ZEE	98	stimuli_distractor_diamondtriangles.svg	stimuli_target_rectanglediamonds.svg	14	yes	57	0	685	6	5	antiphase_hc_osi.wav	2	6	5	noise_calib_stim_RIGHT.wav	2	23	blb_dichoticlistening_ka-pa.mp3	ka	pa	1	left
6.6.1	mac	2023-06-02	07:26:16	07:49:24	1385544	5d55d562e04e1c0001f5e682	2	1	main_z	24	main_z	99	stimuli_distractor_trianglediamonds.svg	stimuli_target_trianglesquares.svg	26	yes	44	1	645	6	5	antiphase_hc_osi.wav	2	6	5	noise_calib_stim_RIGHT.wav	2	23	blb_dichoticlistening_ka-pa.mp3	ka	pa	1	left
6.6.1	mac	2023-06-02	07:26:16	07:49:24	1385544	5d55d562e04e1c0001f5e682	2	1	main_z	24	advance_on_keypress_ZEE	100	stimuli_distractor_trianglediamonds.svg	stimuli_target_trianglesquares.svg	26	yes	57	0	584	6	5	antiphase_hc_osi.wav	2	6	5	noise_calib_stim_RIGHT.wav	2	23	blb_dichoticlistening_ka-pa.mp3	ka	pa	1	left
6.6.1	mac	2023-06-02	07:26:16	07:49:26	1387349	5d55d562e04e1c0001f5e682	2	1	main_z	24	main_z	101	stimuli_distractor_trianglediamonds.svg	stimuli_target_diamondsquares.svg	28	yes	44	1	583	6	5	antiphase_hc_osi.wav	2	6	5	noise_calib_stim_RIGHT.wav	2	23	blb_dichoticlistening_ka-pa.mp3	ka	pa	1	left
6.6.1	mac	2023-06-02	07:26:16	07:49:26	1387349	5d55d562e04e1c0001f5e682	2	1	main_z	24	advance_on_keypress_ZEE	102	stimuli_distractor_trianglediamonds.svg	stimuli_target_diamondsquares.svg	28	yes	57	0	472	6	5	antiphase_hc_osi.wav	2	6	5	noise_calib_stim_RIGHT.wav	2	23	blb_dichoticlistening_ka-pa.mp3	ka	pa	1	left
6.6.1	mac	2023-06-02	07:26:16	07:49:28	1389072	5d55d562e04e1c0001f5e682	2	1	main_z	24	main_z	103	stimuli_target_rectanglediamonds.svg	stimuli_distractor_trianglediamonds.svg	2	yes	44	1	624	6	5	antiphase_hc_osi.wav	2	6	5	noise_calib_stim_RIGHT.wav	2	23	blb_dichoticlistening_ka-pa.mp3	ka	pa	1	left
6.6.1	mac	2023-06-02	07:26:16	07:49:28	1389072	5d55d562e04e1c0001f5e682	2	1	main_z	24	advance_on_keypress_ZEE	104	stimuli_target_rectanglediamonds.svg	stimuli_distractor_trianglediamonds.svg	2	yes	57	0	459	6	5	antiphase_hc_osi.wav	2	6	5	noise_calib_stim_RIGHT.wav	2	23	blb_dichoticlistening_ka-pa.mp3	ka	pa	1	left
6.6.1	mac	2023-06-02	07:26:16	07:49:30	1390845	5d55d562e04e1c0001f5e682	2	1	main_z	24	main_z	105	stimuli_target_squaretriangles.svg	stimuli_distractor_trianglediamonds.svg	3	yes	44	1	664	6	5	antiphase_hc_osi.wav	2	6	5	noise_calib_stim_RIGHT.wav	2	23	blb_dichoticlistening_ka-pa.mp3	ka	pa	1	left
6.6.1	mac	2023-06-02	07:26:16	07:49:30	1390845	5d55d562e04e1c0001f5e682	2	1	main_z	24	advance_on_keypress_ZEE	106	stimuli_target_squaretriangles.svg	stimuli_distractor_trianglediamonds.svg	3	yes	57	0	486	6	5	antiphase_hc_osi.wav	2	6	5	noise_calib_stim_RIGHT.wav	2	23	blb_dichoticlistening_ka-pa.mp3	ka	pa	1	left
6.6.1	mac	2023-06-02	07:26:16	07:49:32	1392916	5d55d562e04e1c0001f5e682	2	1	main_z	24	main_z	107	stimuli_target_diamondrectangles.svg	stimuli_distractor_diamondtriangles.svg	23	yes	44	1	951	6	5	antiphase_hc_osi.wav	2	6	5	noise_calib_stim_RIGHT.wav	2	23	blb_dichoticlistening_ka-pa.mp3	ka	pa	1	left
6.6.1	mac	2023-06-02	07:26:16	07:49:32	1392916	5d55d562e04e1c0001f5e682	2	1	main_z	24	advance_on_keypress_ZEE	108	stimuli_target_diamondrectangles.svg	stimuli_distractor_diamondtriangles.svg	23	yes	57	0	446	6	5	antiphase_hc_osi.wav	2	6	5	noise_calib_stim_RIGHT.wav	2	23	blb_dichoticlistening_ka-pa.mp3	ka	pa	1	left
6.6.1	mac	2023-06-02	07:26:16	07:49:34	1395076	5d55d562e04e1c0001f5e682	2	1	main_z	24	main_z	109	stimuli_distractor_diamondtriangles.svg	stimuli_target_squaretriangles.svg	15	yes	44	1	1077	6	5	antiphase_hc_osi.wav	2	6	5	noise_calib_stim_RIGHT.wav	2	23	blb_dichoticlistening_ka-pa.mp3	ka	pa	1	left
6.6.1	mac	2023-06-02	07:26:16	07:49:34	1395076	5d55d562e04e1c0001f5e682	2	1	main_z	24	advance_on_keypress_ZEE	110	stimuli_distractor_diamondtriangles.svg	stimuli_target_squaretriangles.svg	15	yes	57	0	423	6	5	antiphase_hc_osi.wav	2	6	5	noise_calib_stim_RIGHT.wav	2	23	blb_dichoticlistening_ka-pa.mp3	ka	pa	1	left
6.6.1	mac	2023-06-02	07:26:16	07:49:35	1396643	5d55d562e04e1c0001f5e682	2	1	main_z	24	main_z	111	stimuli_target_rectanglediamonds.svg	stimuli_distractor_diamondtriangles.svg	6	yes	44	1	495	6	5	antiphase_hc_osi.wav	2	6	5	noise_calib_stim_RIGHT.wav	2	23	blb_dichoticlistening_ka-pa.mp3	ka	pa	1	left
6.6.1	mac	2023-06-02	07:26:16	07:49:35	1396643	5d55d562e04e1c0001f5e682	2	1	main_z	24	advance_on_keypress_ZEE	112	stimuli_target_rectanglediamonds.svg	stimuli_distractor_diamondtriangles.svg	6	yes	57	0	523	6	5	antiphase_hc_osi.wav	2	6	5	noise_calib_stim_RIGHT.wav	2	23	blb_dichoticlistening_ka-pa.mp3	ka	pa	1	left
6.6.1	mac	2023-06-02	07:26:16	07:49:37	1398409	5d55d562e04e1c0001f5e682	2	1	main_z	24	main_z	113	stimuli_distractor_trianglediamonds.svg	stimuli_target_trianglerectangles.svg	25	yes	44	1	592	6	5	antiphase_hc_osi.wav	2	6	5	noise_calib_stim_RIGHT.wav	2	23	blb_dichoticlistening_ka-pa.mp3	ka	pa	1	left
6.6.1	mac	2023-06-02	07:26:16	07:49:37	1398409	5d55d562e04e1c0001f5e682	2	1	main_z	24	advance_on_keypress_ZEE	114	stimuli_distractor_trianglediamonds.svg	stimuli_target_trianglerectangles.svg	25	yes	57	0	583	6	5	antiphase_hc_osi.wav	2	6	5	noise_calib_stim_RIGHT.wav	2	23	blb_dichoticlistening_ka-pa.mp3	ka	pa	1	left
6.6.1	mac	2023-06-02	07:26:16	07:49:39	1400499	5d55d562e04e1c0001f5e682	2	1	main_z	24	main_z	115	stimuli_distractor_diamondtriangles.svg	stimuli_distractor_trianglediamonds.svg	38	no	44	0	866	6	5	antiphase_hc_osi.wav	2	6	5	noise_calib_stim_RIGHT.wav	2	23	blb_dichoticlistening_ka-pa.mp3	ka	pa	1	left
6.6.1	mac	2023-06-02	07:26:16	07:49:39	1400499	5d55d562e04e1c0001f5e682	2	1	main_z	24	advance_on_keypress_ZEE	116	stimuli_distractor_diamondtriangles.svg	stimuli_distractor_trianglediamonds.svg	38	no	57	0	459	6	5	antiphase_hc_osi.wav	2	6	5	noise_calib_stim_RIGHT.wav	2	23	blb_dichoticlistening_ka-pa.mp3	ka	pa	1	left
6.6.1	mac	2023-06-02	07:26:16	07:49:42	1403598	5d55d562e04e1c0001f5e682	2	1	main_z	24	main_z	117	stimuli_distractor_trianglediamonds.svg	stimuli_distractor_diamondtriangles.svg	35	no	0	1	2000	6	5	antiphase_hc_osi.wav	2	6	5	noise_calib_stim_RIGHT.wav	2	23	blb_dichoticlistening_ka-pa.mp3	ka	pa	1	left
6.6.1	mac	2023-06-02	07:26:16	07:49:42	1403598	5d55d562e04e1c0001f5e682	2	1	main_z	24	advance_on_keypress_ZEE	118	stimuli_distractor_trianglediamonds.svg	stimuli_distractor_diamondtriangles.svg	35	no	57	0	319	6	5	antiphase_hc_osi.wav	2	6	5	noise_calib_stim_RIGHT.wav	2	23	blb_dichoticlistening_ka-pa.mp3	ka	pa	1	left
6.6.1	mac	2023-06-02	07:26:16	07:49:44	1405263	5d55d562e04e1c0001f5e682	2	1	main_z	24	main_z	119	stimuli_distractor_trianglediamonds.svg	stimuli_target_squaretriangles.svg	11	yes	44	1	712	6	5	antiphase_hc_osi.wav	2	6	5	noise_calib_stim_RIGHT.wav	2	23	blb_dichoticlistening_ka-pa.mp3	ka	pa	1	left
6.6.1	mac	2023-06-02	07:26:16	07:49:44	1405263	5d55d562e04e1c0001f5e682	2	1	main_z	24	advance_on_keypress_ZEE	120	stimuli_distractor_trianglediamonds.svg	stimuli_target_squaretriangles.svg	11	yes	57	0	484	6	5	antiphase_hc_osi.wav	2	6	5	noise_calib_stim_RIGHT.wav	2	23	blb_dichoticlistening_ka-pa.mp3	ka	pa	1	left
6.6.1	mac	2023-06-02	07:26:16	07:49:46	1407057	5d55d562e04e1c0001f5e682	2	1	main_z	24	main_z	121	stimuli_target_squarediamonds.svg	stimuli_distractor_trianglediamonds.svg	4	yes	44	1	675	6	5	antiphase_hc_osi.wav	2	6	5	noise_calib_stim_RIGHT.wav	2	23	blb_dichoticlistening_ka-pa.mp3	ka	pa	1	left
6.6.1	mac	2023-06-02	07:26:16	07:49:46	1407057	5d55d562e04e1c0001f5e682	2	1	main_z	24	advance_on_keypress_ZEE	122	stimuli_target_squarediamonds.svg	stimuli_distractor_trianglediamonds.svg	4	yes	57	0	469	6	5	antiphase_hc_osi.wav	2	6	5	noise_calib_stim_RIGHT.wav	2	23	blb_dichoticlistening_ka-pa.mp3	ka	pa	1	left
6.6.1	mac	2023-06-02	07:26:16	07:49:48	1408967	5d55d562e04e1c0001f5e682	2	1	main_z	24	main_z	123	stimuli_target_squarediamonds.svg	stimuli_distractor_diamondtriangles.svg	8	yes	44	1	800	6	5	antiphase_hc_osi.wav	2	6	5	noise_calib_stim_RIGHT.wav	2	23	blb_dichoticlistening_ka-pa.mp3	ka	pa	1	left
6.6.1	mac	2023-06-02	07:26:16	07:49:48	1408967	5d55d562e04e1c0001f5e682	2	1	main_z	24	advance_on_keypress_ZEE	124	stimuli_target_squarediamonds.svg	stimuli_distractor_diamondtriangles.svg	8	yes	57	0	488	6	5	antiphase_hc_osi.wav	2	6	5	noise_calib_stim_RIGHT.wav	2	23	blb_dichoticlistening_ka-pa.mp3	ka	pa	1	left
6.6.1	mac	2023-06-02	07:26:16	07:49:50	1410883	5d55d562e04e1c0001f5e682	2	1	main_z	24	main_z	125	stimuli_target_trianglerectangles.svg	stimuli_distractor_trianglediamonds.svg	17	yes	44	1	799	6	5	antiphase_hc_osi.wav	2	6	5	noise_calib_stim_RIGHT.wav	2	23	blb_dichoticlistening_ka-pa.mp3	ka	pa	1	left
6.6.1	mac	2023-06-02	07:26:16	07:49:50	1410883	5d55d562e04e1c0001f5e682	2	1	main_z	24	advance_on_keypress_ZEE	126	stimuli_target_trianglerectangles.svg	stimuli_distractor_trianglediamonds.svg	17	yes	57	0	423	6	5	antiphase_hc_osi.wav	2	6	5	noise_calib_stim_RIGHT.wav	2	23	blb_dichoticlistening_ka-pa.mp3	ka	pa	1	left
6.6.1	mac	2023-06-02	07:26:16	07:49:51	1412739	5d55d562e04e1c0001f5e682	2	1	main_z	24	main_z	127	stimuli_target_rectangletriangles.svg	stimuli_distractor_trianglediamonds.svg	1	yes	44	1	756	6	5	antiphase_hc_osi.wav	2	6	5	noise_calib_stim_RIGHT.wav	2	23	blb_dichoticlistening_ka-pa.mp3	ka	pa	1	left
6.6.1	mac	2023-06-02	07:26:16	07:49:51	1412739	5d55d562e04e1c0001f5e682	2	1	main_z	24	advance_on_keypress_ZEE	128	stimuli_target_rectangletriangles.svg	stimuli_distractor_trianglediamonds.svg	1	yes	57	0	466	6	5	antiphase_hc_osi.wav	2	6	5	noise_calib_stim_RIGHT.wav	2	23	blb_dichoticlistening_ka-pa.mp3	ka	pa	1	left
6.6.1	mac	2023-06-02	07:26:16	07:49:55	1415831	5d55d562e04e1c0001f5e682	2	1	main_z	24	main_z	129	stimuli_distractor_trianglediamonds.svg	stimuli_distractor_diamondtriangles.svg	36	no	0	1	2000	6	5	antiphase_hc_osi.wav	2	6	5	noise_calib_stim_RIGHT.wav	2	23	blb_dichoticlistening_ka-pa.mp3	ka	pa	1	left
6.6.1	mac	2023-06-02	07:26:16	07:49:55	1415831	5d55d562e04e1c0001f5e682	2	1	main_z	24	advance_on_keypress_ZEE	130	stimuli_distractor_trianglediamonds.svg	stimuli_distractor_diamondtriangles.svg	36	no	57	0	419	6	5	antiphase_hc_osi.wav	2	6	5	noise_calib_stim_RIGHT.wav	2	23	blb_dichoticlistening_ka-pa.mp3	ka	pa	1	left
6.6.1	mac	2023-06-02	07:26:16	07:49:56	1417613	5d55d562e04e1c0001f5e682	2	1	main_z	24	main_z	131	stimuli_target_diamondsquares.svg	stimuli_distractor_diamondtriangles.svg	24	yes	44	1	727	6	5	antiphase_hc_osi.wav	2	6	5	noise_calib_stim_RIGHT.wav	2	23	blb_dichoticlistening_ka-pa.mp3	ka	pa	1	left
6.6.1	mac	2023-06-02	07:26:16	07:49:56	1417613	5d55d562e04e1c0001f5e682	2	1	main_z	24	advance_on_keypress_ZEE	132	stimuli_target_diamondsquares.svg	stimuli_distractor_diamondtriangles.svg	24	yes	57	0	445	6	5	antiphase_hc_osi.wav	2	6	5	noise_calib_stim_RIGHT.wav	2	23	blb_dichoticlistening_ka-pa.mp3	ka	pa	1	left
6.6.1	mac	2023-06-02	07:26:16	07:49:58	1419493	5d55d562e04e1c0001f5e682	2	1	main_z	24	main_z	133	stimuli_distractor_diamondtriangles.svg	stimuli_target_squarediamonds.svg	16	yes	44	1	792	6	5	antiphase_hc_osi.wav	2	6	5	noise_calib_stim_RIGHT.wav	2	23	blb_dichoticlistening_ka-pa.mp3	ka	pa	1	left
6.6.1	mac	2023-06-02	07:26:16	07:49:58	1419493	5d55d562e04e1c0001f5e682	2	1	main_z	24	advance_on_keypress_ZEE	134	stimuli_distractor_diamondtriangles.svg	stimuli_target_squarediamonds.svg	16	yes	57	0	758	6	5	antiphase_hc_osi.wav	2	6	5	noise_calib_stim_RIGHT.wav	2	23	blb_dichoticlistening_ka-pa.mp3	ka	pa	1	left
6.6.1	mac	2023-06-02	07:26:16	07:50:01	1421846	5d55d562e04e1c0001f5e682	2	1	main_z	24	main_z	135	stimuli_distractor_diamondtriangles.svg	stimuli_target_rectangletriangles.svg	13	yes	44	1	946	6	5	antiphase_hc_osi.wav	2	6	5	noise_calib_stim_RIGHT.wav	2	23	blb_dichoticlistening_ka-pa.mp3	ka	pa	1	left
6.6.1	mac	2023-06-02	07:26:16	07:50:01	1421846	5d55d562e04e1c0001f5e682	2	1	main_z	24	advance_on_keypress_ZEE	136	stimuli_distractor_diamondtriangles.svg	stimuli_target_rectangletriangles.svg	13	yes	57	0	768	6	5	antiphase_hc_osi.wav	2	6	5	noise_calib_stim_RIGHT.wav	2	23	blb_dichoticlistening_ka-pa.mp3	ka	pa	1	left
6.6.1	mac	2023-06-02	07:26:16	07:50:04	1425250	5d55d562e04e1c0001f5e682	2	1	main_z	24	main_z	137	stimuli_target_trianglesquares.svg	stimuli_distractor_trianglediamonds.svg	18	yes	0	0	2000	6	5	antiphase_hc_osi.wav	2	6	5	noise_calib_stim_RIGHT.wav	2	23	blb_dichoticlistening_ka-pa.mp3	ka	pa	1	left
6.6.1	mac	2023-06-02	07:26:16	07:50:04	1425250	5d55d562e04e1c0001f5e682	2	1	main_z	24	advance_on_keypress_ZEE	138	stimuli_target_trianglesquares.svg	stimuli_distractor_trianglediamonds.svg	18	yes	57	0	286	6	5	antiphase_hc_osi.wav	2	6	5	noise_calib_stim_RIGHT.wav	2	23	blb_dichoticlistening_ka-pa.mp3	ka	pa	1	left
6.6.1	mac	2023-06-02	07:26:16	07:50:06	1427131	5d55d562e04e1c0001f5e682	2	1	main_z	24	main_z	139	stimuli_distractor_trianglediamonds.svg	stimuli_distractor_trianglediamonds.svg	33	no	44	0	946	6	5	antiphase_hc_osi.wav	2	6	5	noise_calib_stim_RIGHT.wav	2	23	blb_dichoticlistening_ka-pa.mp3	ka	pa	1	left
6.6.1	mac	2023-06-02	07:26:16	07:50:06	1427131	5d55d562e04e1c0001f5e682	2	1	main_z	24	advance_on_keypress_ZEE	140	stimuli_distractor_trianglediamonds.svg	stimuli_distractor_trianglediamonds.svg	33	no	57	0	490	6	5	antiphase_hc_osi.wav	2	6	5	noise_calib_stim_RIGHT.wav	2	23	blb_dichoticlistening_ka-pa.mp3	ka	pa	1	left
6.6.1	mac	2023-06-02	07:26:16	07:50:08	1429007	5d55d562e04e1c0001f5e682	2	1	main_z	24	main_z	141	stimuli_distractor_diamondtriangles.svg	stimuli_target_diamondrectangles.svg	31	yes	44	1	756	6	5	antiphase_hc_osi.wav	2	6	5	noise_calib_stim_RIGHT.wav	2	23	blb_dichoticlistening_ka-pa.mp3	ka	pa	1	left
6.6.1	mac	2023-06-02	07:26:16	07:50:08	1429007	5d55d562e04e1c0001f5e682	2	1	main_z	24	advance_on_keypress_ZEE	142	stimuli_distractor_diamondtriangles.svg	stimuli_target_diamondrectangles.svg	31	yes	57	0	459	6	5	antiphase_hc_osi.wav	2	6	5	noise_calib_stim_RIGHT.wav	2	23	blb_dichoticlistening_ka-pa.mp3	ka	pa	1	left
6.6.1	mac	2023-06-02	07:26:16	07:50:11	1432100	5d55d562e04e1c0001f5e682	2	1	main_z	24	main_z	143	stimuli_distractor_diamondtriangles.svg	stimuli_distractor_diamondtriangles.svg	40	no	0	1	2000	6	5	antiphase_hc_osi.wav	2	6	5	noise_calib_stim_RIGHT.wav	2	23	blb_dichoticlistening_ka-pa.mp3	ka	pa	1	left
6.6.1	mac	2023-06-02	07:26:16	07:50:11	1432100	5d55d562e04e1c0001f5e682	2	1	main_z	24	advance_on_keypress_ZEE	144	stimuli_distractor_diamondtriangles.svg	stimuli_distractor_diamondtriangles.svg	40	no	57	0	308	6	5	antiphase_hc_osi.wav	2	6	5	noise_calib_stim_RIGHT.wav	2	23	blb_dichoticlistening_ka-pa.mp3	ka	pa	1	left
6.6.1	mac	2023-06-02	07:26:16	07:50:12	1433739	5d55d562e04e1c0001f5e682	2	1	main_z	24	main_z	145	stimuli_distractor_trianglediamonds.svg	stimuli_distractor_trianglediamonds.svg	34	no	44	0	686	6	5	antiphase_hc_osi.wav	2	6	5	noise_calib_stim_RIGHT.wav	2	23	blb_dichoticlistening_ka-pa.mp3	ka	pa	1	left
6.6.1	mac	2023-06-02	07:26:16	07:50:12	1433739	5d55d562e04e1c0001f5e682	2	1	main_z	24	advance_on_keypress_ZEE	146	stimuli_distractor_trianglediamonds.svg	stimuli_distractor_trianglediamonds.svg	34	no	57	0	421	6	5	antiphase_hc_osi.wav	2	6	5	noise_calib_stim_RIGHT.wav	2	23	blb_dichoticlistening_ka-pa.mp3	ka	pa	1	left
6.6.1	mac	2023-06-02	07:26:16	07:50:15	1435995	5d55d562e04e1c0001f5e682	2	1	main_z	24	main_z	147	stimuli_target_trianglesquares.svg	stimuli_distractor_diamondtriangles.svg	22	yes	44	1	1210	6	5	antiphase_hc_osi.wav	2	6	5	noise_calib_stim_RIGHT.wav	2	23	blb_dichoticlistening_ka-pa.mp3	ka	pa	1	left
6.6.1	mac	2023-06-02	07:26:16	07:50:15	1435995	5d55d562e04e1c0001f5e682	2	1	main_z	24	advance_on_keypress_ZEE	148	stimuli_target_trianglesquares.svg	stimuli_distractor_diamondtriangles.svg	22	yes	57	0	474	6	5	antiphase_hc_osi.wav	2	6	5	noise_calib_stim_RIGHT.wav	2	23	blb_dichoticlistening_ka-pa.mp3	ka	pa	1	left
6.6.1	mac	2023-06-02	07:26:16	07:50:17	1437791	5d55d562e04e1c0001f5e682	2	1	main_z	24	main_z	149	stimuli_distractor_trianglediamonds.svg	stimuli_target_diamondrectangles.svg	27	yes	44	1	671	6	5	antiphase_hc_osi.wav	2	6	5	noise_calib_stim_RIGHT.wav	2	23	blb_dichoticlistening_ka-pa.mp3	ka	pa	1	left
6.6.1	mac	2023-06-02	07:26:16	07:50:17	1437791	5d55d562e04e1c0001f5e682	2	1	main_z	24	advance_on_keypress_ZEE	150	stimuli_distractor_trianglediamonds.svg	stimuli_target_diamondrectangles.svg	27	yes	57	0	510	6	5	antiphase_hc_osi.wav	2	6	5	noise_calib_stim_RIGHT.wav	2	23	blb_dichoticlistening_ka-pa.mp3	ka	pa	1	left
6.6.1	mac	2023-06-02	07:26:16	07:50:18	1439736	5d55d562e04e1c0001f5e682	2	1	main_z	24	main_z	151	stimuli_target_diamondrectangles.svg	stimuli_distractor_trianglediamonds.svg	19	yes	44	1	799	6	5	antiphase_hc_osi.wav	2	6	5	noise_calib_stim_RIGHT.wav	2	23	blb_dichoticlistening_ka-pa.mp3	ka	pa	1	left
6.6.1	mac	2023-06-02	07:26:16	07:50:18	1439736	5d55d562e04e1c0001f5e682	2	1	main_z	24	advance_on_keypress_ZEE	152	stimuli_target_diamondrectangles.svg	stimuli_distractor_trianglediamonds.svg	19	yes	57	0	445	6	5	antiphase_hc_osi.wav	2	6	5	noise_calib_stim_RIGHT.wav	2	23	blb_dichoticlistening_ka-pa.mp3	ka	pa	1	left
6.6.1	mac	2023-06-02	07:26:16	07:50:20	1441701	5d55d562e04e1c0001f5e682	2	1	main_z	24	main_z	153	stimuli_target_rectangletriangles.svg	stimuli_distractor_diamondtriangles.svg	5	yes	44	1	881	6	5	antiphase_hc_osi.wav	2	6	5	noise_calib_stim_RIGHT.wav	2	23	blb_dichoticlistening_ka-pa.mp3	ka	pa	1	left
6.6.1	mac	2023-06-02	07:26:16	07:50:20	1441701	5d55d562e04e1c0001f5e682	2	1	main_z	24	advance_on_keypress_ZEE	154	stimuli_target_rectangletriangles.svg	stimuli_distractor_diamondtriangles.svg	5	yes	57	0	621	6	5	antiphase_hc_osi.wav	2	6	5	noise_calib_stim_RIGHT.wav	2	23	blb_dichoticlistening_ka-pa.mp3	ka	pa	1	left
6.6.1	mac	2023-06-02	07:26:16	07:50:22	1443445	5d55d562e04e1c0001f5e682	2	1	main_z	24	main_z	155	stimuli_distractor_trianglediamonds.svg	stimuli_target_rectangletriangles.svg	9	yes	44	1	493	6	5	antiphase_hc_osi.wav	2	6	5	noise_calib_stim_RIGHT.wav	2	23	blb_dichoticlistening_ka-pa.mp3	ka	pa	1	left
6.6.1	mac	2023-06-02	07:26:16	07:50:22	1443445	5d55d562e04e1c0001f5e682	2	1	main_z	24	advance_on_keypress_ZEE	156	stimuli_distractor_trianglediamonds.svg	stimuli_target_rectangletriangles.svg	9	yes	57	0	550	6	5	antiphase_hc_osi.wav	2	6	5	noise_calib_stim_RIGHT.wav	2	23	blb_dichoticlistening_ka-pa.mp3	ka	pa	1	left
6.6.1	mac	2023-06-02	07:26:16	07:50:24	1445308	5d55d562e04e1c0001f5e682	2	1	main_z	24	main_z	157	stimuli_distractor_diamondtriangles.svg	stimuli_target_trianglerectangles.svg	29	yes	44	1	673	6	5	antiphase_hc_osi.wav	2	6	5	noise_calib_stim_RIGHT.wav	2	23	blb_dichoticlistening_ka-pa.mp3	ka	pa	1	left
6.6.1	mac	2023-06-02	07:26:16	07:50:24	1445308	5d55d562e04e1c0001f5e682	2	1	main_z	24	advance_on_keypress_ZEE	158	stimuli_distractor_diamondtriangles.svg	stimuli_target_trianglerectangles.svg	29	yes	57	0	21143	6	5	antiphase_hc_osi.wav	2	6	5	noise_calib_stim_RIGHT.wav	2	23	blb_dichoticlistening_ka-pa.mp3	ka	pa	1	left
6.6.1	mac	2023-06-02	07:26:16	07:50:46	1467701	5d55d562e04e1c0001f5e682	2	1	main_z	24	main_z	159	stimuli_target_diamondsquares.svg	stimuli_distractor_trianglediamonds.svg	20	yes	44	1	613	6	5	antiphase_hc_osi.wav	2	6	5	noise_calib_stim_RIGHT.wav	2	23	blb_dichoticlistening_ka-pa.mp3	ka	pa	1	left
6.6.1	mac	2023-06-02	07:26:16	07:50:46	1467701	5d55d562e04e1c0001f5e682	2	1	main_z	24	advance_on_keypress_ZEE	160	stimuli_target_diamondsquares.svg	stimuli_distractor_trianglediamonds.svg	20	yes	57	0	450	6	5	antiphase_hc_osi.wav	2	6	5	noise_calib_stim_RIGHT.wav	2	23	blb_dichoticlistening_ka-pa.mp3	ka	pa	1	left
6.6.1	mac	2023-06-02	07:26:16	07:51:07	1488311	5d55d562e04e1c0001f5e682	2	1	practice_slash	26	practice_slash	1	stimuli_target_rectanglediamonds.svg	stimuli_distractor_trianglediamonds.svg	4	yes	53	1	738	6	5	antiphase_hc_osi.wav	2	6	5	noise_calib_stim_RIGHT.wav	2	23	blb_dichoticlistening_ka-pa.mp3	ka	pa	1	left
6.6.1	mac	2023-06-02	07:26:16	07:51:07	1488311	5d55d562e04e1c0001f5e682	2	1	practice_slash	26	advance_on_keypress_SLASH	2	stimuli_target_rectanglediamonds.svg	stimuli_distractor_trianglediamonds.svg	4	yes	57	0	460	6	5	antiphase_hc_osi.wav	2	6	5	noise_calib_stim_RIGHT.wav	2	23	blb_dichoticlistening_ka-pa.mp3	ka	pa	1	left
6.6.1	mac	2023-06-02	07:26:16	07:51:10	1490938	5d55d562e04e1c0001f5e682	2	1	practice_slash	26	practice_slash	3	stimuli_distractor_trianglediamonds.svg	stimuli_target_rectanglediamonds.svg	10	yes	53	1	530	6	5	antiphase_hc_osi.wav	2	6	5	noise_calib_stim_RIGHT.wav	2	23	blb_dichoticlistening_ka-pa.mp3	ka	pa	1	left
6.6.1	mac	2023-06-02	07:26:16	07:51:10	1490938	5d55d562e04e1c0001f5e682	2	1	practice_slash	26	advance_on_keypress_SLASH	4	stimuli_distractor_trianglediamonds.svg	stimuli_target_rectanglediamonds.svg	10	yes	57	0	433	6	5	antiphase_hc_osi.wav	2	6	5	noise_calib_stim_RIGHT.wav	2	23	blb_dichoticlistening_ka-pa.mp3	ka	pa	1	left
6.6.1	mac	2023-06-02	07:26:16	07:51:12	1493634	5d55d562e04e1c0001f5e682	2	1	practice_slash	26	practice_slash	5	stimuli_target_rectanglediamonds.svg	stimuli_distractor_diamondtriangles.svg	1	yes	53	1	629	6	5	antiphase_hc_osi.wav	2	6	5	noise_calib_stim_RIGHT.wav	2	23	blb_dichoticlistening_ka-pa.mp3	ka	pa	1	left
6.6.1	mac	2023-06-02	07:26:16	07:51:12	1493634	5d55d562e04e1c0001f5e682	2	1	practice_slash	26	advance_on_keypress_SLASH	6	stimuli_target_rectanglediamonds.svg	stimuli_distractor_diamondtriangles.svg	1	yes	57	0	366	6	5	antiphase_hc_osi.wav	2	6	5	noise_calib_stim_RIGHT.wav	2	23	blb_dichoticlistening_ka-pa.mp3	ka	pa	1	left
6.6.1	mac	2023-06-02	07:26:16	07:51:16	1497639	5d55d562e04e1c0001f5e682	2	1	practice_slash	26	practice_slash	7	stimuli_distractor_diamondtriangles.svg	stimuli_distractor_diamondtriangles.svg	13	no	0	1	2000	6	5	antiphase_hc_osi.wav	2	6	5	noise_calib_stim_RIGHT.wav	2	23	blb_dichoticlistening_ka-pa.mp3	ka	pa	1	left
6.6.1	mac	2023-06-02	07:26:16	07:51:16	1497639	5d55d562e04e1c0001f5e682	2	1	practice_slash	26	advance_on_keypress_SLASH	8	stimuli_distractor_diamondtriangles.svg	stimuli_distractor_diamondtriangles.svg	13	no	57	0	448	6	5	antiphase_hc_osi.wav	2	6	5	noise_calib_stim_RIGHT.wav	2	23	blb_dichoticlistening_ka-pa.mp3	ka	pa	1	left
6.6.1	mac	2023-06-02	07:26:16	07:51:19	1500188	5d55d562e04e1c0001f5e682	2	1	practice_slash	26	practice_slash	9	stimuli_distractor_diamondtriangles.svg	stimuli_target_rectangletriangles.svg	7	yes	53	1	464	6	5	antiphase_hc_osi.wav	2	6	5	noise_calib_stim_RIGHT.wav	2	23	blb_dichoticlistening_ka-pa.mp3	ka	pa	1	left
6.6.1	mac	2023-06-02	07:26:16	07:51:19	1500188	5d55d562e04e1c0001f5e682	2	1	practice_slash	26	advance_on_keypress_SLASH	10	stimuli_distractor_diamondtriangles.svg	stimuli_target_rectangletriangles.svg	7	yes	57	0	386	6	5	antiphase_hc_osi.wav	2	6	5	noise_calib_stim_RIGHT.wav	2	23	blb_dichoticlistening_ka-pa.mp3	ka	pa	1	left
6.6.1	mac	2023-06-02	07:26:16	07:51:23	1504206	5d55d562e04e1c0001f5e682	2	1	practice_slash	26	practice_slash	11	stimuli_distractor_trianglediamonds.svg	stimuli_distractor_trianglediamonds.svg	15	no	0	1	2000	6	5	antiphase_hc_osi.wav	2	6	5	noise_calib_stim_RIGHT.wav	2	23	blb_dichoticlistening_ka-pa.mp3	ka	pa	1	left
6.6.1	mac	2023-06-02	07:26:16	07:51:23	1504206	5d55d562e04e1c0001f5e682	2	1	practice_slash	26	advance_on_keypress_SLASH	12	stimuli_distractor_trianglediamonds.svg	stimuli_distractor_trianglediamonds.svg	15	no	57	0	545	6	5	antiphase_hc_osi.wav	2	6	5	noise_calib_stim_RIGHT.wav	2	23	blb_dichoticlistening_ka-pa.mp3	ka	pa	1	left
6.6.1	mac	2023-06-02	07:26:16	07:51:26	1506962	5d55d562e04e1c0001f5e682	2	1	practice_slash	26	practice_slash	13	stimuli_target_squarediamonds.svg	stimuli_distractor_trianglediamonds.svg	5	yes	53	1	568	6	5	antiphase_hc_osi.wav	2	6	5	noise_calib_stim_RIGHT.wav	2	23	blb_dichoticlistening_ka-pa.mp3	ka	pa	1	left
6.6.1	mac	2023-06-02	07:26:16	07:51:26	1506962	5d55d562e04e1c0001f5e682	2	1	practice_slash	26	advance_on_keypress_SLASH	14	stimuli_target_squarediamonds.svg	stimuli_distractor_trianglediamonds.svg	5	yes	57	0	479	6	5	antiphase_hc_osi.wav	2	6	5	noise_calib_stim_RIGHT.wav	2	23	blb_dichoticlistening_ka-pa.mp3	ka	pa	1	left
6.6.1	mac	2023-06-02	07:26:16	07:51:29	1509751	5d55d562e04e1c0001f5e682	2	1	practice_slash	26	practice_slash	15	stimuli_distractor_diamondtriangles.svg	stimuli_target_diamondrectangles.svg	8	yes	53	1	677	6	5	antiphase_hc_osi.wav	2	6	5	noise_calib_stim_RIGHT.wav	2	23	blb_dichoticlistening_ka-pa.mp3	ka	pa	1	left
6.6.1	mac	2023-06-02	07:26:16	07:51:29	1509751	5d55d562e04e1c0001f5e682	2	1	practice_slash	26	advance_on_keypress_SLASH	16	stimuli_distractor_diamondtriangles.svg	stimuli_target_diamondrectangles.svg	8	yes	57	0	319	6	5	antiphase_hc_osi.wav	2	6	5	noise_calib_stim_RIGHT.wav	2	23	blb_dichoticlistening_ka-pa.mp3	ka	pa	1	left
6.6.1	mac	2023-06-02	07:26:16	07:51:31	1512414	5d55d562e04e1c0001f5e682	2	1	practice_slash	26	practice_slash	17	stimuli_target_squarediamonds.svg	stimuli_distractor_diamondtriangles.svg	2	yes	53	1	706	6	5	antiphase_hc_osi.wav	2	6	5	noise_calib_stim_RIGHT.wav	2	23	blb_dichoticlistening_ka-pa.mp3	ka	pa	1	left
6.6.1	mac	2023-06-02	07:26:16	07:51:31	1512414	5d55d562e04e1c0001f5e682	2	1	practice_slash	26	advance_on_keypress_SLASH	18	stimuli_target_squarediamonds.svg	stimuli_distractor_diamondtriangles.svg	2	yes	57	0	480	6	5	antiphase_hc_osi.wav	2	6	5	noise_calib_stim_RIGHT.wav	2	23	blb_dichoticlistening_ka-pa.mp3	ka	pa	1	left
