build	computer.platform	date	time	timestamp	time_elapsed_ms	subject	group	session	blockcode	blocknum	trialcode	trialnum	stimulus_left	stimulus_right	stim_index	target_present	response	correct	latency	headphonecheck_countTestTrials	headphonecheck_index	headphonecheck_testSound	headphonecheck_correctResponse	stereocheck_countTestTrials	stereocheck_index	stereocheck_testSound	stereocheck_correctResponse	DL_index	DL_soundfile	DL_leftSound	DL_rightSound	DL_dualSound	DL_choice
6.6.1	win	2023-06-02	02:32:58	0	0	6175e05636b79082f8d345c5	1	1	headphonecheck_calibration	4	headphonecheck_calibrationIntro	1			0		calibrationButton	0	10242	0	0			0	0			1				0	
6.6.1	win	2023-06-02	02:32:58	0	0	6175e05636b79082f8d345c5	1	1	headphonecheck_testphase	5	test_collectResponse	3			0		third	1	1077	1	6	antiphase_hc_ois.wav	3	0	0			1				0	
6.6.1	win	2023-06-02	02:32:58	0	0	6175e05636b79082f8d345c5	1	1	headphonecheck_testphase	5	test_collectResponse	6			0		second	1	621	2	1	antiphase_hc_iso.wav	2	0	0			1				0	
6.6.1	win	2023-06-02	02:32:58	0	0	6175e05636b79082f8d345c5	1	1	headphonecheck_testphase	5	test_collectResponse	9			0		first	1	541	3	3	antiphase_hc_soi.wav	1	0	0			1				0	
6.6.1	win	2023-06-02	02:32:58	0	0	6175e05636b79082f8d345c5	1	1	headphonecheck_testphase	5	test_collectResponse	12			0		first	1	462	4	4	antiphase_hc_sio.wav	1	0	0			1				0	
6.6.1	win	2023-06-02	02:32:58	0	0	6175e05636b79082f8d345c5	1	1	headphonecheck_testphase	5	test_collectResponse	15			0		third	1	5516	5	2	antiphase_hc_ios.wav	3	0	0			1				0	
6.6.1	win	2023-06-02	02:32:58	0	0	6175e05636b79082f8d345c5	1	1	headphonecheck_testphase	5	test_collectResponse	18			0		second	1	464	6	5	antiphase_hc_osi.wav	2	0	0			1				0	
6.6.1	win	2023-06-02	02:32:58	0	0	6175e05636b79082f8d345c5	1	1	stereocheck_calibration	7	stereocheck_calibrationIntro	1			0		stereocheck_calibrationButton	0	6469	6	5	antiphase_hc_osi.wav	2	0	0			1				0	
6.6.1	win	2023-06-02	02:32:58	0	0	6175e05636b79082f8d345c5	1	1	stereocheck_testphase	8	stereocheck_test_collectResponse	3			0		stereocheck_right	1	2768	6	5	antiphase_hc_osi.wav	2	1	4	noise_calib_stim_RIGHT.wav	2	1				0	
6.6.1	win	2023-06-02	02:32:58	0	0	6175e05636b79082f8d345c5	1	1	stereocheck_testphase	8	stereocheck_test_collectResponse	6			0		stereocheck_left	1	739	6	5	antiphase_hc_osi.wav	2	2	1	noise_calib_stim_LEFT.wav	1	1				0	
6.6.1	win	2023-06-02	02:32:58	0	0	6175e05636b79082f8d345c5	1	1	stereocheck_testphase	8	stereocheck_test_collectResponse	9			0		stereocheck_right	1	574	6	5	antiphase_hc_osi.wav	2	3	6	noise_calib_stim_RIGHT.wav	2	1				0	
6.6.1	win	2023-06-02	02:32:58	0	0	6175e05636b79082f8d345c5	1	1	stereocheck_testphase	8	stereocheck_test_collectResponse	12			0		stereocheck_left	1	741	6	5	antiphase_hc_osi.wav	2	4	2	noise_calib_stim_LEFT.wav	1	1				0	
6.6.1	win	2023-06-02	02:32:58	0	0	6175e05636b79082f8d345c5	1	1	stereocheck_testphase	8	stereocheck_test_collectResponse	15			0		stereocheck_left	1	514	6	5	antiphase_hc_osi.wav	2	5	3	noise_calib_stim_LEFT.wav	1	1				0	
6.6.1	win	2023-06-02	02:32:58	0	0	6175e05636b79082f8d345c5	1	1	stereocheck_testphase	8	stereocheck_test_collectResponse	18			0		stereocheck_right	1	398	6	5	antiphase_hc_osi.wav	2	6	5	noise_calib_stim_RIGHT.wav	2	1				0	
6.6.1	win	2023-06-02	02:32:58	0	0	6175e05636b79082f8d345c5	1	1	DL_practice	11	DL_practice	2			0		da	1	2152	6	5	antiphase_hc_osi.wav	2	6	5	noise_calib_stim_RIGHT.wav	2	8	blb_dichoticlistening_da-da.mp3	da	da	0	left
6.6.1	win	2023-06-02	02:32:58	0	0	6175e05636b79082f8d345c5	1	1	DL_practice	11	DL_practice	3			0		ga	1	1861	6	5	antiphase_hc_osi.wav	2	6	5	noise_calib_stim_RIGHT.wav	2	15	blb_dichoticlistening_ga-ga.mp3	ga	ga	0	left
6.6.1	win	2023-06-02	02:32:58	0	0	6175e05636b79082f8d345c5	1	1	DL_practice	11	DL_practice	4			0		ka	1	1566	6	5	antiphase_hc_osi.wav	2	6	5	noise_calib_stim_RIGHT.wav	2	22	blb_dichoticlistening_ka-ka.mp3	ka	ka	0	left
6.6.1	win	2023-06-02	02:32:58	0	0	6175e05636b79082f8d345c5	1	1	DL_practice	11	DL_practice	5			0		ga	1	1848	6	5	antiphase_hc_osi.wav	2	6	5	noise_calib_stim_RIGHT.wav	2	18	blb_dichoticlistening_ga-ta.mp3	ga	ta	1	left
6.6.1	win	2023-06-02	02:32:58	0	0	6175e05636b79082f8d345c5	1	1	DL_practice	11	DL_practice	6			0		ka	1	1803	6	5	antiphase_hc_osi.wav	2	6	5	noise_calib_stim_RIGHT.wav	2	23	blb_dichoticlistening_ka-pa.mp3	ka	pa	1	left
6.6.1	win	2023-06-02	02:32:58	0	0	6175e05636b79082f8d345c5	1	1	DL_practice	11	DL_practice	7			0		ta	1	1768	6	5	antiphase_hc_osi.wav	2	6	5	noise_calib_stim_RIGHT.wav	2	36	blb_dichoticlistening_ta-ta.mp3	ta	ta	0	left
6.6.1	win	2023-06-02	02:32:58	0	0	6175e05636b79082f8d345c5	1	1	DL_practice	11	DL_practice	8			0		da	1	1920	6	5	antiphase_hc_osi.wav	2	6	5	noise_calib_stim_RIGHT.wav	2	7	blb_dichoticlistening_da-ba.mp3	da	ba	1	left
6.6.1	win	2023-06-02	02:32:58	0	0	6175e05636b79082f8d345c5	1	1	DL_practice	11	DL_practice	9			0		ba	1	1883	6	5	antiphase_hc_osi.wav	2	6	5	noise_calib_stim_RIGHT.wav	2	1	blb_dichoticlistening_ba-ba.mp3	ba	ba	0	left
6.6.1	win	2023-06-02	02:32:58	0	0	6175e05636b79082f8d345c5	1	1	DL_practice	11	DL_practice	10			0		pa	1	1628	6	5	antiphase_hc_osi.wav	2	6	5	noise_calib_stim_RIGHT.wav	2	29	blb_dichoticlistening_pa-pa.mp3	pa	pa	0	left
6.6.1	win	2023-06-02	02:32:58	0	0	6175e05636b79082f8d345c5	1	1	DL_test	13	DL_test	1			0		pa	1	1909	6	5	antiphase_hc_osi.wav	2	6	5	noise_calib_stim_RIGHT.wav	2	26	blb_dichoticlistening_pa-da.mp3	pa	da	1	left
6.6.1	win	2023-06-02	02:32:58	0	0	6175e05636b79082f8d345c5	1	1	DL_test	13	DL_test	2			0		pa	0	1275	6	5	antiphase_hc_osi.wav	2	6	5	noise_calib_stim_RIGHT.wav	2	10	blb_dichoticlistening_da-ka.mp3	da	ka	1	other
6.6.1	win	2023-06-02	02:32:58	0	0	6175e05636b79082f8d345c5	1	1	DL_test	13	DL_test	3			0		ka	1	1412	6	5	antiphase_hc_osi.wav	2	6	5	noise_calib_stim_RIGHT.wav	2	28	blb_dichoticlistening_pa-ka.mp3	pa	ka	1	right
6.6.1	win	2023-06-02	02:32:58	0	0	6175e05636b79082f8d345c5	1	1	DL_test	13	DL_test	4			0		da	0	2282	6	5	antiphase_hc_osi.wav	2	6	5	noise_calib_stim_RIGHT.wav	2	13	blb_dichoticlistening_ga-ba.mp3	ga	ba	1	other
6.6.1	win	2023-06-02	02:32:58	0	0	6175e05636b79082f8d345c5	1	1	DL_test	13	DL_test	5			0		pa	1	2217	6	5	antiphase_hc_osi.wav	2	6	5	noise_calib_stim_RIGHT.wav	2	25	blb_dichoticlistening_pa-ba.mp3	pa	ba	1	left
6.6.1	win	2023-06-02	02:32:58	0	0	6175e05636b79082f8d345c5	1	1	DL_test	13	DL_test	6			0		ka	1	1657	6	5	antiphase_hc_osi.wav	2	6	5	noise_calib_stim_RIGHT.wav	2	4	blb_dichoticlistening_ba-ka.mp3	ba	ka	1	right
6.6.1	win	2023-06-02	02:32:58	0	0	6175e05636b79082f8d345c5	1	1	DL_test	13	DL_test	7			0		ta	1	1768	6	5	antiphase_hc_osi.wav	2	6	5	noise_calib_stim_RIGHT.wav	2	31	blb_dichoticlistening_ta-ba.mp3	ta	ba	1	left
6.6.1	win	2023-06-02	02:32:58	0	0	6175e05636b79082f8d345c5	1	1	DL_test	13	DL_test	8			0		ba	1	1666	6	5	antiphase_hc_osi.wav	2	6	5	noise_calib_stim_RIGHT.wav	2	1	blb_dichoticlistening_ba-ba.mp3	ba	ba	0	left
6.6.1	win	2023-06-02	02:32:58	0	0	6175e05636b79082f8d345c5	1	1	DL_test	13	DL_test	9			0		da	0	1598	6	5	antiphase_hc_osi.wav	2	6	5	noise_calib_stim_RIGHT.wav	2	3	blb_dichoticlistening_ba-ga.mp3	ba	ga	1	other
6.6.1	win	2023-06-02	02:32:58	0	0	6175e05636b79082f8d345c5	1	1	DL_test	13	DL_test	10			0		pa	1	2072	6	5	antiphase_hc_osi.wav	2	6	5	noise_calib_stim_RIGHT.wav	2	27	blb_dichoticlistening_pa-ga.mp3	pa	ga	1	left
6.6.1	win	2023-06-02	02:32:58	0	0	6175e05636b79082f8d345c5	1	1	DL_test	13	DL_test	11			0		ka	0	1521	6	5	antiphase_hc_osi.wav	2	6	5	noise_calib_stim_RIGHT.wav	2	33	blb_dichoticlistening_ta-ga.mp3	ta	ga	1	other
6.6.1	win	2023-06-02	02:32:58	0	0	6175e05636b79082f8d345c5	1	1	DL_test	13	DL_test	12			0		ta	1	1683	6	5	antiphase_hc_osi.wav	2	6	5	noise_calib_stim_RIGHT.wav	2	32	blb_dichoticlistening_ta-da.mp3	ta	da	1	left
6.6.1	win	2023-06-02	02:32:58	0	0	6175e05636b79082f8d345c5	1	1	DL_test	13	DL_test	13			0		pa	1	1387	6	5	antiphase_hc_osi.wav	2	6	5	noise_calib_stim_RIGHT.wav	2	11	blb_dichoticlistening_da-pa.mp3	da	pa	1	right
6.6.1	win	2023-06-02	02:32:58	0	0	6175e05636b79082f8d345c5	1	1	DL_test	13	DL_test	14			0		ta	1	1447	6	5	antiphase_hc_osi.wav	2	6	5	noise_calib_stim_RIGHT.wav	2	35	blb_dichoticlistening_ta-pa.mp3	ta	pa	1	left
6.6.1	win	2023-06-02	02:32:58	0	0	6175e05636b79082f8d345c5	1	1	DL_test	13	DL_test	15			0		ka	1	2053	6	5	antiphase_hc_osi.wav	2	6	5	noise_calib_stim_RIGHT.wav	2	20	blb_dichoticlistening_ka-da.mp3	ka	da	1	left
6.6.1	win	2023-06-02	02:32:58	0	0	6175e05636b79082f8d345c5	1	1	DL_test	13	DL_test	16			0		ka	1	1171	6	5	antiphase_hc_osi.wav	2	6	5	noise_calib_stim_RIGHT.wav	2	22	blb_dichoticlistening_ka-ka.mp3	ka	ka	0	left
6.6.1	win	2023-06-02	02:32:58	0	0	6175e05636b79082f8d345c5	1	1	DL_test	13	DL_test	17			0		ka	1	1090	6	5	antiphase_hc_osi.wav	2	6	5	noise_calib_stim_RIGHT.wav	2	34	blb_dichoticlistening_ta-ka.mp3	ta	ka	1	right
6.6.1	win	2023-06-02	02:32:58	0	0	6175e05636b79082f8d345c5	1	1	DL_test	13	DL_test	18			0		ka	1	1060	6	5	antiphase_hc_osi.wav	2	6	5	noise_calib_stim_RIGHT.wav	2	24	blb_dichoticlistening_ka-ta.mp3	ka	ta	1	left
6.6.1	win	2023-06-02	02:32:58	0	0	6175e05636b79082f8d345c5	1	1	DL_test	13	DL_test	19			0		pa	1	1352	6	5	antiphase_hc_osi.wav	2	6	5	noise_calib_stim_RIGHT.wav	2	23	blb_dichoticlistening_ka-pa.mp3	ka	pa	1	right
6.6.1	win	2023-06-02	02:32:58	0	0	6175e05636b79082f8d345c5	1	1	DL_test	13	DL_test	20			0		da	1	1684	6	5	antiphase_hc_osi.wav	2	6	5	noise_calib_stim_RIGHT.wav	2	9	blb_dichoticlistening_da-ga.mp3	da	ga	1	left
6.6.1	win	2023-06-02	02:32:58	0	0	6175e05636b79082f8d345c5	1	1	DL_test	13	DL_test	21			0		pa	1	1546	6	5	antiphase_hc_osi.wav	2	6	5	noise_calib_stim_RIGHT.wav	2	5	blb_dichoticlistening_ba-pa.mp3	ba	pa	1	right
6.6.1	win	2023-06-02	02:32:58	0	0	6175e05636b79082f8d345c5	1	1	DL_test	13	DL_test	22			0		ta	1	1521	6	5	antiphase_hc_osi.wav	2	6	5	noise_calib_stim_RIGHT.wav	2	36	blb_dichoticlistening_ta-ta.mp3	ta	ta	0	left
6.6.1	win	2023-06-02	02:32:58	0	0	6175e05636b79082f8d345c5	1	1	DL_test	13	DL_test	23			0		pa	0	3450	6	5	antiphase_hc_osi.wav	2	6	5	noise_calib_stim_RIGHT.wav	2	6	blb_dichoticlistening_ba-ta.mp3	ba	ta	1	other
6.6.1	win	2023-06-02	02:32:58	0	0	6175e05636b79082f8d345c5	1	1	DL_test	13	DL_test	24			0		ka	1	1638	6	5	antiphase_hc_osi.wav	2	6	5	noise_calib_stim_RIGHT.wav	2	21	blb_dichoticlistening_ka-ga.mp3	ka	ga	1	left
6.6.1	win	2023-06-02	02:32:58	0	0	6175e05636b79082f8d345c5	1	1	DL_test	13	DL_test	25			0		da	1	1276	6	5	antiphase_hc_osi.wav	2	6	5	noise_calib_stim_RIGHT.wav	2	14	blb_dichoticlistening_ga-da.mp3	ga	da	1	right
6.6.1	win	2023-06-02	02:32:58	0	0	6175e05636b79082f8d345c5	1	1	DL_test	13	DL_test	26			0		pa	1	2002	6	5	antiphase_hc_osi.wav	2	6	5	noise_calib_stim_RIGHT.wav	2	29	blb_dichoticlistening_pa-pa.mp3	pa	pa	0	left
6.6.1	win	2023-06-02	02:32:58	0	0	6175e05636b79082f8d345c5	1	1	DL_test	13	DL_test	27			0		ka	1	1417	6	5	antiphase_hc_osi.wav	2	6	5	noise_calib_stim_RIGHT.wav	2	19	blb_dichoticlistening_ka-ba.mp3	ka	ba	1	left
6.6.1	win	2023-06-02	02:32:58	0	0	6175e05636b79082f8d345c5	1	1	DL_test	13	DL_test	28			0		ka	1	1574	6	5	antiphase_hc_osi.wav	2	6	5	noise_calib_stim_RIGHT.wav	2	16	blb_dichoticlistening_ga-ka.mp3	ga	ka	1	right
6.6.1	win	2023-06-02	02:32:58	0	0	6175e05636b79082f8d345c5	1	1	DL_test	13	DL_test	29			0		pa	1	1741	6	5	antiphase_hc_osi.wav	2	6	5	noise_calib_stim_RIGHT.wav	2	30	blb_dichoticlistening_pa-ta.mp3	pa	ta	1	left
6.6.1	win	2023-06-02	02:32:58	0	0	6175e05636b79082f8d345c5	1	1	DL_test	13	DL_test	30			0		da	1	1814	6	5	antiphase_hc_osi.wav	2	6	5	noise_calib_stim_RIGHT.wav	2	7	blb_dichoticlistening_da-ba.mp3	da	ba	1	left
6.6.1	win	2023-06-02	02:32:58	0	0	6175e05636b79082f8d345c5	1	1	DL_test	13	DL_test	31			0		pa	1	1861	6	5	antiphase_hc_osi.wav	2	6	5	noise_calib_stim_RIGHT.wav	2	17	blb_dichoticlistening_ga-pa.mp3	ga	pa	1	right
6.6.1	win	2023-06-02	02:32:58	0	0	6175e05636b79082f8d345c5	1	1	DL_test	13	DL_test	32			0		ka	0	1453	6	5	antiphase_hc_osi.wav	2	6	5	noise_calib_stim_RIGHT.wav	2	18	blb_dichoticlistening_ga-ta.mp3	ga	ta	1	other
6.6.1	win	2023-06-02	02:32:58	0	0	6175e05636b79082f8d345c5	1	1	DL_test	13	DL_test	33			0		ga	1	1300	6	5	antiphase_hc_osi.wav	2	6	5	noise_calib_stim_RIGHT.wav	2	15	blb_dichoticlistening_ga-ga.mp3	ga	ga	0	left
6.6.1	win	2023-06-02	02:32:58	0	0	6175e05636b79082f8d345c5	1	1	DL_test	13	DL_test	34			0		da	1	1449	6	5	antiphase_hc_osi.wav	2	6	5	noise_calib_stim_RIGHT.wav	2	2	blb_dichoticlistening_ba-da.mp3	ba	da	1	right
6.6.1	win	2023-06-02	02:32:58	0	0	6175e05636b79082f8d345c5	1	1	DL_test	13	DL_test	35			0		da	1	972	6	5	antiphase_hc_osi.wav	2	6	5	noise_calib_stim_RIGHT.wav	2	8	blb_dichoticlistening_da-da.mp3	da	da	0	left
6.6.1	win	2023-06-02	02:32:58	0	0	6175e05636b79082f8d345c5	1	1	DL_test	13	DL_test	36			0		ta	1	1731	6	5	antiphase_hc_osi.wav	2	6	5	noise_calib_stim_RIGHT.wav	2	12	blb_dichoticlistening_da-ta.mp3	da	ta	1	right
6.6.1	win	2023-06-02	02:32:58	0	0	6175e05636b79082f8d345c5	1	1	DL_test	14	DL_test	1			0		pa	1	1561	6	5	antiphase_hc_osi.wav	2	6	5	noise_calib_stim_RIGHT.wav	2	5	blb_dichoticlistening_ba-pa.mp3	ba	pa	1	right
6.6.1	win	2023-06-02	02:32:58	0	0	6175e05636b79082f8d345c5	1	1	DL_test	14	DL_test	2			0		pa	1	900	6	5	antiphase_hc_osi.wav	2	6	5	noise_calib_stim_RIGHT.wav	2	11	blb_dichoticlistening_da-pa.mp3	da	pa	1	right
6.6.1	win	2023-06-02	02:32:58	0	0	6175e05636b79082f8d345c5	1	1	DL_test	14	DL_test	3			0		da	1	1786	6	5	antiphase_hc_osi.wav	2	6	5	noise_calib_stim_RIGHT.wav	2	7	blb_dichoticlistening_da-ba.mp3	da	ba	1	left
6.6.1	win	2023-06-02	02:32:58	0	0	6175e05636b79082f8d345c5	1	1	DL_test	14	DL_test	4			0		pa	1	1507	6	5	antiphase_hc_osi.wav	2	6	5	noise_calib_stim_RIGHT.wav	2	26	blb_dichoticlistening_pa-da.mp3	pa	da	1	left
6.6.1	win	2023-06-02	02:32:58	0	0	6175e05636b79082f8d345c5	1	1	DL_test	14	DL_test	5			0		pa	0	921	6	5	antiphase_hc_osi.wav	2	6	5	noise_calib_stim_RIGHT.wav	2	10	blb_dichoticlistening_da-ka.mp3	da	ka	1	other
6.6.1	win	2023-06-02	02:32:58	0	0	6175e05636b79082f8d345c5	1	1	DL_test	14	DL_test	6			0		ka	1	1276	6	5	antiphase_hc_osi.wav	2	6	5	noise_calib_stim_RIGHT.wav	2	21	blb_dichoticlistening_ka-ga.mp3	ka	ga	1	left
6.6.1	win	2023-06-02	02:32:58	0	0	6175e05636b79082f8d345c5	1	1	DL_test	14	DL_test	7			0		ka	1	914	6	5	antiphase_hc_osi.wav	2	6	5	noise_calib_stim_RIGHT.wav	2	22	blb_dichoticlistening_ka-ka.mp3	ka	ka	0	left
6.6.1	win	2023-06-02	02:32:58	0	0	6175e05636b79082f8d345c5	1	1	DL_test	14	DL_test	8			0		ta	1	1605	6	5	antiphase_hc_osi.wav	2	6	5	noise_calib_stim_RIGHT.wav	2	31	blb_dichoticlistening_ta-ba.mp3	ta	ba	1	left
6.6.1	win	2023-06-02	02:32:58	0	0	6175e05636b79082f8d345c5	1	1	DL_test	14	DL_test	9			0		da	1	1680	6	5	antiphase_hc_osi.wav	2	6	5	noise_calib_stim_RIGHT.wav	2	14	blb_dichoticlistening_ga-da.mp3	ga	da	1	right
6.6.1	win	2023-06-02	02:32:58	0	0	6175e05636b79082f8d345c5	1	1	DL_test	14	DL_test	10			0		pa	1	1691	6	5	antiphase_hc_osi.wav	2	6	5	noise_calib_stim_RIGHT.wav	2	27	blb_dichoticlistening_pa-ga.mp3	pa	ga	1	left
6.6.1	win	2023-06-02	02:32:58	0	0	6175e05636b79082f8d345c5	1	1	DL_test	14	DL_test	11			0		pa	1	2112	6	5	antiphase_hc_osi.wav	2	6	5	noise_calib_stim_RIGHT.wav	2	25	blb_dichoticlistening_pa-ba.mp3	pa	ba	1	left
6.6.1	win	2023-06-02	02:32:58	0	0	6175e05636b79082f8d345c5	1	1	DL_test	14	DL_test	12			0		ka	1	1473	6	5	antiphase_hc_osi.wav	2	6	5	noise_calib_stim_RIGHT.wav	2	19	blb_dichoticlistening_ka-ba.mp3	ka	ba	1	left
6.6.1	win	2023-06-02	02:32:58	0	0	6175e05636b79082f8d345c5	1	1	DL_test	14	DL_test	13			0		ka	1	860	6	5	antiphase_hc_osi.wav	2	6	5	noise_calib_stim_RIGHT.wav	2	24	blb_dichoticlistening_ka-ta.mp3	ka	ta	1	left
6.6.1	win	2023-06-02	02:32:58	0	0	6175e05636b79082f8d345c5	1	1	DL_test	14	DL_test	14			0		ta	1	1561	6	5	antiphase_hc_osi.wav	2	6	5	noise_calib_stim_RIGHT.wav	2	12	blb_dichoticlistening_da-ta.mp3	da	ta	1	right
6.6.1	win	2023-06-02	02:32:58	0	0	6175e05636b79082f8d345c5	1	1	DL_test	14	DL_test	15			0		pa	1	1454	6	5	antiphase_hc_osi.wav	2	6	5	noise_calib_stim_RIGHT.wav	2	29	blb_dichoticlistening_pa-pa.mp3	pa	pa	0	left
6.6.1	win	2023-06-02	02:32:58	0	0	6175e05636b79082f8d345c5	1	1	DL_test	14	DL_test	16			0		pa	1	1316	6	5	antiphase_hc_osi.wav	2	6	5	noise_calib_stim_RIGHT.wav	2	23	blb_dichoticlistening_ka-pa.mp3	ka	pa	1	right
6.6.1	win	2023-06-02	02:32:58	0	0	6175e05636b79082f8d345c5	1	1	DL_test	14	DL_test	17			0		ta	1	1755	6	5	antiphase_hc_osi.wav	2	6	5	noise_calib_stim_RIGHT.wav	2	6	blb_dichoticlistening_ba-ta.mp3	ba	ta	1	right
6.6.1	win	2023-06-02	02:32:58	0	0	6175e05636b79082f8d345c5	1	1	DL_test	14	DL_test	18			0		ga	1	1423	6	5	antiphase_hc_osi.wav	2	6	5	noise_calib_stim_RIGHT.wav	2	15	blb_dichoticlistening_ga-ga.mp3	ga	ga	0	left
6.6.1	win	2023-06-02	02:32:58	0	0	6175e05636b79082f8d345c5	1	1	DL_test	14	DL_test	19			0		da	1	2026	6	5	antiphase_hc_osi.wav	2	6	5	noise_calib_stim_RIGHT.wav	2	9	blb_dichoticlistening_da-ga.mp3	da	ga	1	left
6.6.1	win	2023-06-02	02:32:58	0	0	6175e05636b79082f8d345c5	1	1	DL_test	14	DL_test	20			0		ta	1	1841	6	5	antiphase_hc_osi.wav	2	6	5	noise_calib_stim_RIGHT.wav	2	32	blb_dichoticlistening_ta-da.mp3	ta	da	1	left
6.6.1	win	2023-06-02	02:32:58	0	0	6175e05636b79082f8d345c5	1	1	DL_test	14	DL_test	21			0		ba	1	1881	6	5	antiphase_hc_osi.wav	2	6	5	noise_calib_stim_RIGHT.wav	2	1	blb_dichoticlistening_ba-ba.mp3	ba	ba	0	left
6.6.1	win	2023-06-02	02:32:58	0	0	6175e05636b79082f8d345c5	1	1	DL_test	14	DL_test	22			0		ka	1	1618	6	5	antiphase_hc_osi.wav	2	6	5	noise_calib_stim_RIGHT.wav	2	20	blb_dichoticlistening_ka-da.mp3	ka	da	1	left
6.6.1	win	2023-06-02	02:32:58	0	0	6175e05636b79082f8d345c5	1	1	DL_test	14	DL_test	23			0		ka	1	1635	6	5	antiphase_hc_osi.wav	2	6	5	noise_calib_stim_RIGHT.wav	2	16	blb_dichoticlistening_ga-ka.mp3	ga	ka	1	right
6.6.1	win	2023-06-02	02:32:58	0	0	6175e05636b79082f8d345c5	1	1	DL_test	14	DL_test	24			0		ta	1	1311	6	5	antiphase_hc_osi.wav	2	6	5	noise_calib_stim_RIGHT.wav	2	36	blb_dichoticlistening_ta-ta.mp3	ta	ta	0	left
6.6.1	win	2023-06-02	02:32:58	0	0	6175e05636b79082f8d345c5	1	1	DL_test	14	DL_test	25			0		ka	1	1845	6	5	antiphase_hc_osi.wav	2	6	5	noise_calib_stim_RIGHT.wav	2	4	blb_dichoticlistening_ba-ka.mp3	ba	ka	1	right
6.6.1	win	2023-06-02	02:32:58	0	0	6175e05636b79082f8d345c5	1	1	DL_test	14	DL_test	26			0		ka	1	1190	6	5	antiphase_hc_osi.wav	2	6	5	noise_calib_stim_RIGHT.wav	2	28	blb_dichoticlistening_pa-ka.mp3	pa	ka	1	right
6.6.1	win	2023-06-02	02:32:58	0	0	6175e05636b79082f8d345c5	1	1	DL_test	14	DL_test	27			0		da	1	2221	6	5	antiphase_hc_osi.wav	2	6	5	noise_calib_stim_RIGHT.wav	2	2	blb_dichoticlistening_ba-da.mp3	ba	da	1	right
6.6.1	win	2023-06-02	02:32:58	0	0	6175e05636b79082f8d345c5	1	1	DL_test	14	DL_test	28			0		ga	1	1746	6	5	antiphase_hc_osi.wav	2	6	5	noise_calib_stim_RIGHT.wav	2	33	blb_dichoticlistening_ta-ga.mp3	ta	ga	1	right
6.6.1	win	2023-06-02	02:32:58	0	0	6175e05636b79082f8d345c5	1	1	DL_test	14	DL_test	29			0		pa	1	1670	6	5	antiphase_hc_osi.wav	2	6	5	noise_calib_stim_RIGHT.wav	2	17	blb_dichoticlistening_ga-pa.mp3	ga	pa	1	right
6.6.1	win	2023-06-02	02:32:58	0	0	6175e05636b79082f8d345c5	1	1	DL_test	14	DL_test	30			0		da	0	1765	6	5	antiphase_hc_osi.wav	2	6	5	noise_calib_stim_RIGHT.wav	2	13	blb_dichoticlistening_ga-ba.mp3	ga	ba	1	other
6.6.1	win	2023-06-02	02:32:58	0	0	6175e05636b79082f8d345c5	1	1	DL_test	14	DL_test	31			0		ta	1	1668	6	5	antiphase_hc_osi.wav	2	6	5	noise_calib_stim_RIGHT.wav	2	30	blb_dichoticlistening_pa-ta.mp3	pa	ta	1	right
6.6.1	win	2023-06-02	02:32:58	0	0	6175e05636b79082f8d345c5	1	1	DL_test	14	DL_test	32			0		ka	1	1540	6	5	antiphase_hc_osi.wav	2	6	5	noise_calib_stim_RIGHT.wav	2	34	blb_dichoticlistening_ta-ka.mp3	ta	ka	1	right
6.6.1	win	2023-06-02	02:32:58	0	0	6175e05636b79082f8d345c5	1	1	DL_test	14	DL_test	33			0		da	1	1658	6	5	antiphase_hc_osi.wav	2	6	5	noise_calib_stim_RIGHT.wav	2	8	blb_dichoticlistening_da-da.mp3	da	da	0	left
6.6.1	win	2023-06-02	02:32:58	0	0	6175e05636b79082f8d345c5	1	1	DL_test	14	DL_test	34			0		ta	1	1762	6	5	antiphase_hc_osi.wav	2	6	5	noise_calib_stim_RIGHT.wav	2	18	blb_dichoticlistening_ga-ta.mp3	ga	ta	1	right
6.6.1	win	2023-06-02	02:32:58	0	0	6175e05636b79082f8d345c5	1	1	DL_test	14	DL_test	35			0		da	0	2104	6	5	antiphase_hc_osi.wav	2	6	5	noise_calib_stim_RIGHT.wav	2	3	blb_dichoticlistening_ba-ga.mp3	ba	ga	1	other
6.6.1	win	2023-06-02	02:32:58	0	0	6175e05636b79082f8d345c5	1	1	DL_test	14	DL_test	36			0		ta	1	1873	6	5	antiphase_hc_osi.wav	2	6	5	noise_calib_stim_RIGHT.wav	2	35	blb_dichoticlistening_ta-pa.mp3	ta	pa	1	left
6.6.1	win	2023-06-02	02:32:58	0	0	6175e05636b79082f8d345c5	1	1	DL_test	15	DL_test	1			0		pa	0	1441	6	5	antiphase_hc_osi.wav	2	6	5	noise_calib_stim_RIGHT.wav	2	10	blb_dichoticlistening_da-ka.mp3	da	ka	1	other
6.6.1	win	2023-06-02	02:32:58	0	0	6175e05636b79082f8d345c5	1	1	DL_test	15	DL_test	2			0		da	0	1377	6	5	antiphase_hc_osi.wav	2	6	5	noise_calib_stim_RIGHT.wav	2	15	blb_dichoticlistening_ga-ga.mp3	ga	ga	0	other
6.6.1	win	2023-06-02	02:32:58	0	0	6175e05636b79082f8d345c5	1	1	DL_test	15	DL_test	3			0		ka	1	1190	6	5	antiphase_hc_osi.wav	2	6	5	noise_calib_stim_RIGHT.wav	2	34	blb_dichoticlistening_ta-ka.mp3	ta	ka	1	right
6.6.1	win	2023-06-02	02:32:58	0	0	6175e05636b79082f8d345c5	1	1	DL_test	15	DL_test	4			0		da	0	1537	6	5	antiphase_hc_osi.wav	2	6	5	noise_calib_stim_RIGHT.wav	2	3	blb_dichoticlistening_ba-ga.mp3	ba	ga	1	other
6.6.1	win	2023-06-02	02:32:58	0	0	6175e05636b79082f8d345c5	1	1	DL_test	15	DL_test	5			0		da	1	5845	6	5	antiphase_hc_osi.wav	2	6	5	noise_calib_stim_RIGHT.wav	2	9	blb_dichoticlistening_da-ga.mp3	da	ga	1	left
6.6.1	win	2023-06-02	02:32:58	0	0	6175e05636b79082f8d345c5	1	1	DL_test	15	DL_test	6			0		ka	0	1441	6	5	antiphase_hc_osi.wav	2	6	5	noise_calib_stim_RIGHT.wav	2	18	blb_dichoticlistening_ga-ta.mp3	ga	ta	1	other
6.6.1	win	2023-06-02	02:32:58	0	0	6175e05636b79082f8d345c5	1	1	DL_test	15	DL_test	7			0		da	1	1344	6	5	antiphase_hc_osi.wav	2	6	5	noise_calib_stim_RIGHT.wav	2	7	blb_dichoticlistening_da-ba.mp3	da	ba	1	left
6.6.1	win	2023-06-02	02:32:58	0	0	6175e05636b79082f8d345c5	1	1	DL_test	15	DL_test	8			0		ka	1	1271	6	5	antiphase_hc_osi.wav	2	6	5	noise_calib_stim_RIGHT.wav	2	23	blb_dichoticlistening_ka-pa.mp3	ka	pa	1	left
6.6.1	win	2023-06-02	02:32:58	0	0	6175e05636b79082f8d345c5	1	1	DL_test	15	DL_test	9			0		da	1	1542	6	5	antiphase_hc_osi.wav	2	6	5	noise_calib_stim_RIGHT.wav	2	8	blb_dichoticlistening_da-da.mp3	da	da	0	left
6.6.1	win	2023-06-02	02:32:58	0	0	6175e05636b79082f8d345c5	1	1	DL_test	15	DL_test	10			0		pa	1	1791	6	5	antiphase_hc_osi.wav	2	6	5	noise_calib_stim_RIGHT.wav	2	29	blb_dichoticlistening_pa-pa.mp3	pa	pa	0	left
6.6.1	win	2023-06-02	02:32:58	0	0	6175e05636b79082f8d345c5	1	1	DL_test	15	DL_test	11			0		ta	1	2387	6	5	antiphase_hc_osi.wav	2	6	5	noise_calib_stim_RIGHT.wav	2	36	blb_dichoticlistening_ta-ta.mp3	ta	ta	0	left
6.6.1	win	2023-06-02	02:32:58	0	0	6175e05636b79082f8d345c5	1	1	DL_test	15	DL_test	12			0		ta	1	1392	6	5	antiphase_hc_osi.wav	2	6	5	noise_calib_stim_RIGHT.wav	2	31	blb_dichoticlistening_ta-ba.mp3	ta	ba	1	left
6.6.1	win	2023-06-02	02:32:58	0	0	6175e05636b79082f8d345c5	1	1	DL_test	15	DL_test	13			0		ka	1	1273	6	5	antiphase_hc_osi.wav	2	6	5	noise_calib_stim_RIGHT.wav	2	19	blb_dichoticlistening_ka-ba.mp3	ka	ba	1	left
6.6.1	win	2023-06-02	02:32:58	0	0	6175e05636b79082f8d345c5	1	1	DL_test	15	DL_test	14			0		pa	1	1363	6	5	antiphase_hc_osi.wav	2	6	5	noise_calib_stim_RIGHT.wav	2	26	blb_dichoticlistening_pa-da.mp3	pa	da	1	left
6.6.1	win	2023-06-02	02:32:58	0	0	6175e05636b79082f8d345c5	1	1	DL_test	15	DL_test	15			0		pa	1	1253	6	5	antiphase_hc_osi.wav	2	6	5	noise_calib_stim_RIGHT.wav	2	27	blb_dichoticlistening_pa-ga.mp3	pa	ga	1	left
6.6.1	win	2023-06-02	02:32:58	0	0	6175e05636b79082f8d345c5	1	1	DL_test	15	DL_test	16			0		ta	1	1129	6	5	antiphase_hc_osi.wav	2	6	5	noise_calib_stim_RIGHT.wav	2	35	blb_dichoticlistening_ta-pa.mp3	ta	pa	1	left
6.6.1	win	2023-06-02	02:32:58	0	0	6175e05636b79082f8d345c5	1	1	DL_test	15	DL_test	17			0		pa	1	1337	6	5	antiphase_hc_osi.wav	2	6	5	noise_calib_stim_RIGHT.wav	2	11	blb_dichoticlistening_da-pa.mp3	da	pa	1	right
6.6.1	win	2023-06-02	02:32:58	0	0	6175e05636b79082f8d345c5	1	1	DL_test	15	DL_test	18			0		ta	1	1557	6	5	antiphase_hc_osi.wav	2	6	5	noise_calib_stim_RIGHT.wav	2	32	blb_dichoticlistening_ta-da.mp3	ta	da	1	left
6.6.1	win	2023-06-02	02:32:58	0	0	6175e05636b79082f8d345c5	1	1	DL_test	15	DL_test	19			0		ba	1	2064	6	5	antiphase_hc_osi.wav	2	6	5	noise_calib_stim_RIGHT.wav	2	1	blb_dichoticlistening_ba-ba.mp3	ba	ba	0	left
6.6.1	win	2023-06-02	02:32:58	0	0	6175e05636b79082f8d345c5	1	1	DL_test	15	DL_test	20			0		pa	1	1861	6	5	antiphase_hc_osi.wav	2	6	5	noise_calib_stim_RIGHT.wav	2	25	blb_dichoticlistening_pa-ba.mp3	pa	ba	1	left
6.6.1	win	2023-06-02	02:32:58	0	0	6175e05636b79082f8d345c5	1	1	DL_test	15	DL_test	21			0		ka	1	1193	6	5	antiphase_hc_osi.wav	2	6	5	noise_calib_stim_RIGHT.wav	2	28	blb_dichoticlistening_pa-ka.mp3	pa	ka	1	right
6.6.1	win	2023-06-02	02:32:58	0	0	6175e05636b79082f8d345c5	1	1	DL_test	15	DL_test	22			0		ta	1	1396	6	5	antiphase_hc_osi.wav	2	6	5	noise_calib_stim_RIGHT.wav	2	6	blb_dichoticlistening_ba-ta.mp3	ba	ta	1	right
6.6.1	win	2023-06-02	02:32:58	0	0	6175e05636b79082f8d345c5	1	1	DL_test	15	DL_test	23			0		ka	1	1642	6	5	antiphase_hc_osi.wav	2	6	5	noise_calib_stim_RIGHT.wav	2	16	blb_dichoticlistening_ga-ka.mp3	ga	ka	1	right
6.6.1	win	2023-06-02	02:32:58	0	0	6175e05636b79082f8d345c5	1	1	DL_test	15	DL_test	24			0		da	1	1603	6	5	antiphase_hc_osi.wav	2	6	5	noise_calib_stim_RIGHT.wav	2	14	blb_dichoticlistening_ga-da.mp3	ga	da	1	right
6.6.1	win	2023-06-02	02:32:58	0	0	6175e05636b79082f8d345c5	1	1	DL_test	15	DL_test	25			0		ka	1	1294	6	5	antiphase_hc_osi.wav	2	6	5	noise_calib_stim_RIGHT.wav	2	24	blb_dichoticlistening_ka-ta.mp3	ka	ta	1	left
6.6.1	win	2023-06-02	02:32:58	0	0	6175e05636b79082f8d345c5	1	1	DL_test	15	DL_test	26			0		ka	1	1009	6	5	antiphase_hc_osi.wav	2	6	5	noise_calib_stim_RIGHT.wav	2	20	blb_dichoticlistening_ka-da.mp3	ka	da	1	left
6.6.1	win	2023-06-02	02:32:58	0	0	6175e05636b79082f8d345c5	1	1	DL_test	15	DL_test	27			0		pa	1	1285	6	5	antiphase_hc_osi.wav	2	6	5	noise_calib_stim_RIGHT.wav	2	5	blb_dichoticlistening_ba-pa.mp3	ba	pa	1	right
6.6.1	win	2023-06-02	02:32:58	0	0	6175e05636b79082f8d345c5	1	1	DL_test	15	DL_test	28			0		ka	1	1349	6	5	antiphase_hc_osi.wav	2	6	5	noise_calib_stim_RIGHT.wav	2	22	blb_dichoticlistening_ka-ka.mp3	ka	ka	0	left
6.6.1	win	2023-06-02	02:32:58	0	0	6175e05636b79082f8d345c5	1	1	DL_test	15	DL_test	29			0		ka	1	1407	6	5	antiphase_hc_osi.wav	2	6	5	noise_calib_stim_RIGHT.wav	2	4	blb_dichoticlistening_ba-ka.mp3	ba	ka	1	right
6.6.1	win	2023-06-02	02:32:58	0	0	6175e05636b79082f8d345c5	1	1	DL_test	15	DL_test	30			0		da	1	1681	6	5	antiphase_hc_osi.wav	2	6	5	noise_calib_stim_RIGHT.wav	2	2	blb_dichoticlistening_ba-da.mp3	ba	da	1	right
6.6.1	win	2023-06-02	02:32:58	0	0	6175e05636b79082f8d345c5	1	1	DL_test	15	DL_test	31			0		ta	1	1489	6	5	antiphase_hc_osi.wav	2	6	5	noise_calib_stim_RIGHT.wav	2	30	blb_dichoticlistening_pa-ta.mp3	pa	ta	1	right
6.6.1	win	2023-06-02	02:32:58	0	0	6175e05636b79082f8d345c5	1	1	DL_test	15	DL_test	32			0		da	0	1671	6	5	antiphase_hc_osi.wav	2	6	5	noise_calib_stim_RIGHT.wav	2	13	blb_dichoticlistening_ga-ba.mp3	ga	ba	1	other
6.6.1	win	2023-06-02	02:32:58	0	0	6175e05636b79082f8d345c5	1	1	DL_test	15	DL_test	33			0		ka	0	1667	6	5	antiphase_hc_osi.wav	2	6	5	noise_calib_stim_RIGHT.wav	2	33	blb_dichoticlistening_ta-ga.mp3	ta	ga	1	other
6.6.1	win	2023-06-02	02:32:58	0	0	6175e05636b79082f8d345c5	1	1	DL_test	15	DL_test	34			0		ka	1	1048	6	5	antiphase_hc_osi.wav	2	6	5	noise_calib_stim_RIGHT.wav	2	21	blb_dichoticlistening_ka-ga.mp3	ka	ga	1	left
6.6.1	win	2023-06-02	02:32:58	0	0	6175e05636b79082f8d345c5	1	1	DL_test	15	DL_test	35			0		ta	1	1339	6	5	antiphase_hc_osi.wav	2	6	5	noise_calib_stim_RIGHT.wav	2	12	blb_dichoticlistening_da-ta.mp3	da	ta	1	right
6.6.1	win	2023-06-02	02:32:58	0	0	6175e05636b79082f8d345c5	1	1	DL_test	15	DL_test	36			0		pa	1	1139	6	5	antiphase_hc_osi.wav	2	6	5	noise_calib_stim_RIGHT.wav	2	17	blb_dichoticlistening_ga-pa.mp3	ga	pa	1	right
6.6.1	win	2023-06-02	02:32:58	0	0	6175e05636b79082f8d345c5	1	1	DL_test	16	DL_test	1			0		ka	1	1191	6	5	antiphase_hc_osi.wav	2	6	5	noise_calib_stim_RIGHT.wav	2	19	blb_dichoticlistening_ka-ba.mp3	ka	ba	1	left
6.6.1	win	2023-06-02	02:32:58	0	0	6175e05636b79082f8d345c5	1	1	DL_test	16	DL_test	2			0		ta	1	1764	6	5	antiphase_hc_osi.wav	2	6	5	noise_calib_stim_RIGHT.wav	2	12	blb_dichoticlistening_da-ta.mp3	da	ta	1	right
6.6.1	win	2023-06-02	02:32:58	0	0	6175e05636b79082f8d345c5	1	1	DL_test	16	DL_test	3			0		da	1	1430	6	5	antiphase_hc_osi.wav	2	6	5	noise_calib_stim_RIGHT.wav	2	9	blb_dichoticlistening_da-ga.mp3	da	ga	1	left
6.6.1	win	2023-06-02	02:32:58	0	0	6175e05636b79082f8d345c5	1	1	DL_test	16	DL_test	4			0		da	1	1051	6	5	antiphase_hc_osi.wav	2	6	5	noise_calib_stim_RIGHT.wav	2	8	blb_dichoticlistening_da-da.mp3	da	da	0	left
6.6.1	win	2023-06-02	02:32:58	0	0	6175e05636b79082f8d345c5	1	1	DL_test	16	DL_test	5			0		ka	1	1814	6	5	antiphase_hc_osi.wav	2	6	5	noise_calib_stim_RIGHT.wav	2	22	blb_dichoticlistening_ka-ka.mp3	ka	ka	0	left
6.6.1	win	2023-06-02	02:32:58	0	0	6175e05636b79082f8d345c5	1	1	DL_test	16	DL_test	6			0		ta	1	1711	6	5	antiphase_hc_osi.wav	2	6	5	noise_calib_stim_RIGHT.wav	2	36	blb_dichoticlistening_ta-ta.mp3	ta	ta	0	left
6.6.1	win	2023-06-02	02:32:58	0	0	6175e05636b79082f8d345c5	1	1	DL_test	16	DL_test	7			0		pa	1	1000	6	5	antiphase_hc_osi.wav	2	6	5	noise_calib_stim_RIGHT.wav	2	25	blb_dichoticlistening_pa-ba.mp3	pa	ba	1	left
6.6.1	win	2023-06-02	02:32:58	0	0	6175e05636b79082f8d345c5	1	1	DL_test	16	DL_test	8			0		pa	1	760	6	5	antiphase_hc_osi.wav	2	6	5	noise_calib_stim_RIGHT.wav	2	29	blb_dichoticlistening_pa-pa.mp3	pa	pa	0	left
6.6.1	win	2023-06-02	02:32:58	0	0	6175e05636b79082f8d345c5	1	1	DL_test	16	DL_test	9			0		ka	1	1404	6	5	antiphase_hc_osi.wav	2	6	5	noise_calib_stim_RIGHT.wav	2	34	blb_dichoticlistening_ta-ka.mp3	ta	ka	1	right
6.6.1	win	2023-06-02	02:32:58	0	0	6175e05636b79082f8d345c5	1	1	DL_test	16	DL_test	10			0		ka	1	857	6	5	antiphase_hc_osi.wav	2	6	5	noise_calib_stim_RIGHT.wav	2	23	blb_dichoticlistening_ka-pa.mp3	ka	pa	1	left
6.6.1	win	2023-06-02	02:32:58	0	0	6175e05636b79082f8d345c5	1	1	DL_test	16	DL_test	11			0		ta	1	1529	6	5	antiphase_hc_osi.wav	2	6	5	noise_calib_stim_RIGHT.wav	2	35	blb_dichoticlistening_ta-pa.mp3	ta	pa	1	left
6.6.1	win	2023-06-02	02:32:58	0	0	6175e05636b79082f8d345c5	1	1	DL_test	16	DL_test	12			0		ka	0	1672	6	5	antiphase_hc_osi.wav	2	6	5	noise_calib_stim_RIGHT.wav	2	33	blb_dichoticlistening_ta-ga.mp3	ta	ga	1	other
6.6.1	win	2023-06-02	02:32:58	0	0	6175e05636b79082f8d345c5	1	1	DL_test	16	DL_test	13			0		ka	1	923	6	5	antiphase_hc_osi.wav	2	6	5	noise_calib_stim_RIGHT.wav	2	28	blb_dichoticlistening_pa-ka.mp3	pa	ka	1	right
6.6.1	win	2023-06-02	02:32:58	0	0	6175e05636b79082f8d345c5	1	1	DL_test	16	DL_test	14			0		ba	1	2183	6	5	antiphase_hc_osi.wav	2	6	5	noise_calib_stim_RIGHT.wav	2	3	blb_dichoticlistening_ba-ga.mp3	ba	ga	1	left
6.6.1	win	2023-06-02	02:32:58	0	0	6175e05636b79082f8d345c5	1	1	DL_test	16	DL_test	15			0		pa	0	1505	6	5	antiphase_hc_osi.wav	2	6	5	noise_calib_stim_RIGHT.wav	2	10	blb_dichoticlistening_da-ka.mp3	da	ka	1	other
6.6.1	win	2023-06-02	02:32:58	0	0	6175e05636b79082f8d345c5	1	1	DL_test	16	DL_test	16			0		ka	1	1331	6	5	antiphase_hc_osi.wav	2	6	5	noise_calib_stim_RIGHT.wav	2	4	blb_dichoticlistening_ba-ka.mp3	ba	ka	1	right
6.6.1	win	2023-06-02	02:32:58	0	0	6175e05636b79082f8d345c5	1	1	DL_test	16	DL_test	17			0		pa	1	1561	6	5	antiphase_hc_osi.wav	2	6	5	noise_calib_stim_RIGHT.wav	2	27	blb_dichoticlistening_pa-ga.mp3	pa	ga	1	left
6.6.1	win	2023-06-02	02:32:58	0	0	6175e05636b79082f8d345c5	1	1	DL_test	16	DL_test	18			0		ta	1	1348	6	5	antiphase_hc_osi.wav	2	6	5	noise_calib_stim_RIGHT.wav	2	32	blb_dichoticlistening_ta-da.mp3	ta	da	1	left
6.6.1	win	2023-06-02	02:32:58	0	0	6175e05636b79082f8d345c5	1	1	DL_test	16	DL_test	19			0		ta	1	2273	6	5	antiphase_hc_osi.wav	2	6	5	noise_calib_stim_RIGHT.wav	2	6	blb_dichoticlistening_ba-ta.mp3	ba	ta	1	right
6.6.1	win	2023-06-02	02:32:58	0	0	6175e05636b79082f8d345c5	1	1	DL_test	16	DL_test	20			0		ta	1	929	6	5	antiphase_hc_osi.wav	2	6	5	noise_calib_stim_RIGHT.wav	2	31	blb_dichoticlistening_ta-ba.mp3	ta	ba	1	left
6.6.1	win	2023-06-02	02:32:58	0	0	6175e05636b79082f8d345c5	1	1	DL_test	16	DL_test	21			0		da	1	1773	6	5	antiphase_hc_osi.wav	2	6	5	noise_calib_stim_RIGHT.wav	2	7	blb_dichoticlistening_da-ba.mp3	da	ba	1	left
6.6.1	win	2023-06-02	02:32:58	0	0	6175e05636b79082f8d345c5	1	1	DL_test	16	DL_test	22			0		ka	1	1706	6	5	antiphase_hc_osi.wav	2	6	5	noise_calib_stim_RIGHT.wav	2	20	blb_dichoticlistening_ka-da.mp3	ka	da	1	left
6.6.1	win	2023-06-02	02:32:58	0	0	6175e05636b79082f8d345c5	1	1	DL_test	16	DL_test	23			0		ka	1	961	6	5	antiphase_hc_osi.wav	2	6	5	noise_calib_stim_RIGHT.wav	2	21	blb_dichoticlistening_ka-ga.mp3	ka	ga	1	left
6.6.1	win	2023-06-02	02:32:58	0	0	6175e05636b79082f8d345c5	1	1	DL_test	16	DL_test	24			0		ga	1	1242	6	5	antiphase_hc_osi.wav	2	6	5	noise_calib_stim_RIGHT.wav	2	18	blb_dichoticlistening_ga-ta.mp3	ga	ta	1	left
6.6.1	win	2023-06-02	02:32:58	0	0	6175e05636b79082f8d345c5	1	1	DL_test	16	DL_test	25			0		da	1	1125	6	5	antiphase_hc_osi.wav	2	6	5	noise_calib_stim_RIGHT.wav	2	2	blb_dichoticlistening_ba-da.mp3	ba	da	1	right
6.6.1	win	2023-06-02	02:32:58	0	0	6175e05636b79082f8d345c5	1	1	DL_test	16	DL_test	26			0		pa	1	1653	6	5	antiphase_hc_osi.wav	2	6	5	noise_calib_stim_RIGHT.wav	2	17	blb_dichoticlistening_ga-pa.mp3	ga	pa	1	right
6.6.1	win	2023-06-02	02:32:58	0	0	6175e05636b79082f8d345c5	1	1	DL_test	16	DL_test	27			0		da	1	1759	6	5	antiphase_hc_osi.wav	2	6	5	noise_calib_stim_RIGHT.wav	2	14	blb_dichoticlistening_ga-da.mp3	ga	da	1	right
6.6.1	win	2023-06-02	02:32:58	0	0	6175e05636b79082f8d345c5	1	1	DL_test	16	DL_test	28			0		pa	1	1857	6	5	antiphase_hc_osi.wav	2	6	5	noise_calib_stim_RIGHT.wav	2	5	blb_dichoticlistening_ba-pa.mp3	ba	pa	1	right
6.6.1	win	2023-06-02	02:32:58	0	0	6175e05636b79082f8d345c5	1	1	DL_test	16	DL_test	29			0		da	0	1782	6	5	antiphase_hc_osi.wav	2	6	5	noise_calib_stim_RIGHT.wav	2	13	blb_dichoticlistening_ga-ba.mp3	ga	ba	1	other
6.6.1	win	2023-06-02	02:32:58	0	0	6175e05636b79082f8d345c5	1	1	DL_test	16	DL_test	30			0		pa	1	1722	6	5	antiphase_hc_osi.wav	2	6	5	noise_calib_stim_RIGHT.wav	2	26	blb_dichoticlistening_pa-da.mp3	pa	da	1	left
6.6.1	win	2023-06-02	02:32:58	0	0	6175e05636b79082f8d345c5	1	1	DL_test	16	DL_test	31			0		ka	1	2823	6	5	antiphase_hc_osi.wav	2	6	5	noise_calib_stim_RIGHT.wav	2	24	blb_dichoticlistening_ka-ta.mp3	ka	ta	1	left
6.6.1	win	2023-06-02	02:32:58	0	0	6175e05636b79082f8d345c5	1	1	DL_test	16	DL_test	32			0		ta	1	1408	6	5	antiphase_hc_osi.wav	2	6	5	noise_calib_stim_RIGHT.wav	2	30	blb_dichoticlistening_pa-ta.mp3	pa	ta	1	right
6.6.1	win	2023-06-02	02:32:58	0	0	6175e05636b79082f8d345c5	1	1	DL_test	16	DL_test	33			0		ba	1	1702	6	5	antiphase_hc_osi.wav	2	6	5	noise_calib_stim_RIGHT.wav	2	1	blb_dichoticlistening_ba-ba.mp3	ba	ba	0	left
6.6.1	win	2023-06-02	02:32:58	0	0	6175e05636b79082f8d345c5	1	1	DL_test	16	DL_test	34			0		ka	1	1357	6	5	antiphase_hc_osi.wav	2	6	5	noise_calib_stim_RIGHT.wav	2	16	blb_dichoticlistening_ga-ka.mp3	ga	ka	1	right
6.6.1	win	2023-06-02	02:32:58	0	0	6175e05636b79082f8d345c5	1	1	DL_test	16	DL_test	35			0		ga	1	1111	6	5	antiphase_hc_osi.wav	2	6	5	noise_calib_stim_RIGHT.wav	2	15	blb_dichoticlistening_ga-ga.mp3	ga	ga	0	left
6.6.1	win	2023-06-02	02:32:58	0	0	6175e05636b79082f8d345c5	1	1	DL_test	16	DL_test	36			0		pa	1	1480	6	5	antiphase_hc_osi.wav	2	6	5	noise_calib_stim_RIGHT.wav	2	11	blb_dichoticlistening_da-pa.mp3	da	pa	1	right
6.6.1	win	2023-06-02	02:32:58	02:45:59	774177	6175e05636b79082f8d345c5	1	1	practice_slash	22	practice_slash	1	stimuli_distractor_diamondtriangles.svg	stimuli_target_diamondrectangles.svg	8	yes	53	1	593	6	5	antiphase_hc_osi.wav	2	6	5	noise_calib_stim_RIGHT.wav	2	11	blb_dichoticlistening_da-pa.mp3	da	pa	1	right
6.6.1	win	2023-06-02	02:32:58	02:45:59	774177	6175e05636b79082f8d345c5	1	1	practice_slash	22	advance_on_keypress_SLASH	2	stimuli_distractor_diamondtriangles.svg	stimuli_target_diamondrectangles.svg	8	yes	57	0	1025	6	5	antiphase_hc_osi.wav	2	6	5	noise_calib_stim_RIGHT.wav	2	11	blb_dichoticlistening_da-pa.mp3	da	pa	1	right
6.6.1	win	2023-06-02	02:32:58	02:46:03	778867	6175e05636b79082f8d345c5	1	1	practice_slash	22	practice_slash	3	stimuli_distractor_trianglediamonds.svg	stimuli_distractor_trianglediamonds.svg	15	no	0	1	2000	6	5	antiphase_hc_osi.wav	2	6	5	noise_calib_stim_RIGHT.wav	2	11	blb_dichoticlistening_da-pa.mp3	da	pa	1	right
6.6.1	win	2023-06-02	02:32:58	02:46:03	778867	6175e05636b79082f8d345c5	1	1	practice_slash	22	advance_on_keypress_SLASH	4	stimuli_distractor_trianglediamonds.svg	stimuli_distractor_trianglediamonds.svg	15	no	57	0	957	6	5	antiphase_hc_osi.wav	2	6	5	noise_calib_stim_RIGHT.wav	2	11	blb_dichoticlistening_da-pa.mp3	da	pa	1	right
6.6.1	win	2023-06-02	02:32:58	02:46:07	782281	6175e05636b79082f8d345c5	1	1	practice_slash	22	practice_slash	5	stimuli_target_diamondsquares.svg	stimuli_distractor_diamondtriangles.svg	3	yes	53	1	781	6	5	antiphase_hc_osi.wav	2	6	5	noise_calib_stim_RIGHT.wav	2	11	blb_dichoticlistening_da-pa.mp3	da	pa	1	right
6.6.1	win	2023-06-02	02:32:58	02:46:07	782281	6175e05636b79082f8d345c5	1	1	practice_slash	22	advance_on_keypress_SLASH	6	stimuli_target_diamondsquares.svg	stimuli_distractor_diamondtriangles.svg	3	yes	57	0	1701	6	5	antiphase_hc_osi.wav	2	6	5	noise_calib_stim_RIGHT.wav	2	11	blb_dichoticlistening_da-pa.mp3	da	pa	1	right
6.6.1	win	2023-06-02	02:32:58	02:46:11	786529	6175e05636b79082f8d345c5	1	1	practice_slash	22	practice_slash	7	stimuli_target_squarediamonds.svg	stimuli_distractor_trianglediamonds.svg	5	yes	53	1	896	6	5	antiphase_hc_osi.wav	2	6	5	noise_calib_stim_RIGHT.wav	2	11	blb_dichoticlistening_da-pa.mp3	da	pa	1	right
6.6.1	win	2023-06-02	02:32:58	02:46:11	786529	6175e05636b79082f8d345c5	1	1	practice_slash	22	advance_on_keypress_SLASH	8	stimuli_target_squarediamonds.svg	stimuli_distractor_trianglediamonds.svg	5	yes	57	0	771	6	5	antiphase_hc_osi.wav	2	6	5	noise_calib_stim_RIGHT.wav	2	11	blb_dichoticlistening_da-pa.mp3	da	pa	1	right
6.6.1	win	2023-06-02	02:32:58	02:46:14	789705	6175e05636b79082f8d345c5	1	1	practice_slash	22	practice_slash	9	stimuli_distractor_diamondtriangles.svg	stimuli_target_trianglerectangles.svg	9	yes	53	1	738	6	5	antiphase_hc_osi.wav	2	6	5	noise_calib_stim_RIGHT.wav	2	11	blb_dichoticlistening_da-pa.mp3	da	pa	1	right
6.6.1	win	2023-06-02	02:32:58	02:46:14	789705	6175e05636b79082f8d345c5	1	1	practice_slash	22	advance_on_keypress_SLASH	10	stimuli_distractor_diamondtriangles.svg	stimuli_target_trianglerectangles.svg	9	yes	57	0	844	6	5	antiphase_hc_osi.wav	2	6	5	noise_calib_stim_RIGHT.wav	2	11	blb_dichoticlistening_da-pa.mp3	da	pa	1	right
6.6.1	win	2023-06-02	02:32:58	02:46:18	793169	6175e05636b79082f8d345c5	1	1	practice_slash	22	practice_slash	11	stimuli_distractor_diamondtriangles.svg	stimuli_target_rectangletriangles.svg	7	yes	53	1	953	6	5	antiphase_hc_osi.wav	2	6	5	noise_calib_stim_RIGHT.wav	2	11	blb_dichoticlistening_da-pa.mp3	da	pa	1	right
6.6.1	win	2023-06-02	02:32:58	02:46:18	793169	6175e05636b79082f8d345c5	1	1	practice_slash	22	advance_on_keypress_SLASH	12	stimuli_distractor_diamondtriangles.svg	stimuli_target_rectangletriangles.svg	7	yes	57	0	849	6	5	antiphase_hc_osi.wav	2	6	5	noise_calib_stim_RIGHT.wav	2	11	blb_dichoticlistening_da-pa.mp3	da	pa	1	right
6.6.1	win	2023-06-02	02:32:58	02:46:21	796545	6175e05636b79082f8d345c5	1	1	practice_slash	22	practice_slash	13	stimuli_target_squarediamonds.svg	stimuli_distractor_diamondtriangles.svg	2	yes	53	1	862	6	5	antiphase_hc_osi.wav	2	6	5	noise_calib_stim_RIGHT.wav	2	11	blb_dichoticlistening_da-pa.mp3	da	pa	1	right
6.6.1	win	2023-06-02	02:32:58	02:46:21	796545	6175e05636b79082f8d345c5	1	1	practice_slash	22	advance_on_keypress_SLASH	14	stimuli_target_squarediamonds.svg	stimuli_distractor_diamondtriangles.svg	2	yes	57	0	747	6	5	antiphase_hc_osi.wav	2	6	5	noise_calib_stim_RIGHT.wav	2	11	blb_dichoticlistening_da-pa.mp3	da	pa	1	right
6.6.1	win	2023-06-02	02:32:58	02:46:25	800950	6175e05636b79082f8d345c5	1	1	practice_slash	22	practice_slash	15	stimuli_distractor_diamondtriangles.svg	stimuli_distractor_diamondtriangles.svg	13	no	0	1	2000	6	5	antiphase_hc_osi.wav	2	6	5	noise_calib_stim_RIGHT.wav	2	11	blb_dichoticlistening_da-pa.mp3	da	pa	1	right
6.6.1	win	2023-06-02	02:32:58	02:46:25	800950	6175e05636b79082f8d345c5	1	1	practice_slash	22	advance_on_keypress_SLASH	16	stimuli_distractor_diamondtriangles.svg	stimuli_distractor_diamondtriangles.svg	13	no	57	0	962	6	5	antiphase_hc_osi.wav	2	6	5	noise_calib_stim_RIGHT.wav	2	11	blb_dichoticlistening_da-pa.mp3	da	pa	1	right
6.6.1	win	2023-06-02	02:32:58	02:46:29	804473	6175e05636b79082f8d345c5	1	1	practice_slash	22	practice_slash	17	stimuli_target_rectanglediamonds.svg	stimuli_distractor_trianglediamonds.svg	4	yes	53	1	890	6	5	antiphase_hc_osi.wav	2	6	5	noise_calib_stim_RIGHT.wav	2	11	blb_dichoticlistening_da-pa.mp3	da	pa	1	right
6.6.1	win	2023-06-02	02:32:58	02:46:29	804473	6175e05636b79082f8d345c5	1	1	practice_slash	22	advance_on_keypress_SLASH	18	stimuli_target_rectanglediamonds.svg	stimuli_distractor_trianglediamonds.svg	4	yes	57	0	942	6	5	antiphase_hc_osi.wav	2	6	5	noise_calib_stim_RIGHT.wav	2	11	blb_dichoticlistening_da-pa.mp3	da	pa	1	right
6.6.1	win	2023-06-02	02:32:58	02:46:34	809083	6175e05636b79082f8d345c5	1	1	practice_slash	22	practice_slash	19	stimuli_distractor_diamondtriangles.svg	stimuli_distractor_trianglediamonds.svg	14	no	0	1	2000	6	5	antiphase_hc_osi.wav	2	6	5	noise_calib_stim_RIGHT.wav	2	11	blb_dichoticlistening_da-pa.mp3	da	pa	1	right
6.6.1	win	2023-06-02	02:32:58	02:46:34	809083	6175e05636b79082f8d345c5	1	1	practice_slash	22	advance_on_keypress_SLASH	20	stimuli_distractor_diamondtriangles.svg	stimuli_distractor_trianglediamonds.svg	14	no	57	0	845	6	5	antiphase_hc_osi.wav	2	6	5	noise_calib_stim_RIGHT.wav	2	11	blb_dichoticlistening_da-pa.mp3	da	pa	1	right
6.6.1	win	2023-06-02	02:32:58	02:46:37	812497	6175e05636b79082f8d345c5	1	1	practice_slash	22	practice_slash	21	stimuli_target_rectanglediamonds.svg	stimuli_distractor_diamondtriangles.svg	1	yes	53	1	898	6	5	antiphase_hc_osi.wav	2	6	5	noise_calib_stim_RIGHT.wav	2	11	blb_dichoticlistening_da-pa.mp3	da	pa	1	right
6.6.1	win	2023-06-02	02:32:58	02:46:37	812497	6175e05636b79082f8d345c5	1	1	practice_slash	22	advance_on_keypress_SLASH	22	stimuli_target_rectanglediamonds.svg	stimuli_distractor_diamondtriangles.svg	1	yes	57	0	733	6	5	antiphase_hc_osi.wav	2	6	5	noise_calib_stim_RIGHT.wav	2	11	blb_dichoticlistening_da-pa.mp3	da	pa	1	right
6.6.1	win	2023-06-02	02:32:58	02:46:40	815793	6175e05636b79082f8d345c5	1	1	practice_slash	22	practice_slash	23	stimuli_distractor_trianglediamonds.svg	stimuli_target_squarediamonds.svg	11	yes	53	1	894	6	5	antiphase_hc_osi.wav	2	6	5	noise_calib_stim_RIGHT.wav	2	11	blb_dichoticlistening_da-pa.mp3	da	pa	1	right
6.6.1	win	2023-06-02	02:32:58	02:46:40	815793	6175e05636b79082f8d345c5	1	1	practice_slash	22	advance_on_keypress_SLASH	24	stimuli_distractor_trianglediamonds.svg	stimuli_target_squarediamonds.svg	11	yes	57	0	841	6	5	antiphase_hc_osi.wav	2	6	5	noise_calib_stim_RIGHT.wav	2	11	blb_dichoticlistening_da-pa.mp3	da	pa	1	right
6.6.1	win	2023-06-02	02:32:58	02:46:45	820299	6175e05636b79082f8d345c5	1	1	practice_slash	22	practice_slash	25	stimuli_distractor_trianglediamonds.svg	stimuli_distractor_diamondtriangles.svg	16	no	0	1	2000	6	5	antiphase_hc_osi.wav	2	6	5	noise_calib_stim_RIGHT.wav	2	11	blb_dichoticlistening_da-pa.mp3	da	pa	1	right
6.6.1	win	2023-06-02	02:32:58	02:46:45	820299	6175e05636b79082f8d345c5	1	1	practice_slash	22	advance_on_keypress_SLASH	26	stimuli_distractor_trianglediamonds.svg	stimuli_distractor_diamondtriangles.svg	16	no	57	0	517	6	5	antiphase_hc_osi.wav	2	6	5	noise_calib_stim_RIGHT.wav	2	11	blb_dichoticlistening_da-pa.mp3	da	pa	1	right
6.6.1	win	2023-06-02	02:32:58	02:46:48	823313	6175e05636b79082f8d345c5	1	1	practice_slash	22	practice_slash	27	stimuli_target_diamondsquares.svg	stimuli_distractor_trianglediamonds.svg	6	yes	53	1	831	6	5	antiphase_hc_osi.wav	2	6	5	noise_calib_stim_RIGHT.wav	2	11	blb_dichoticlistening_da-pa.mp3	da	pa	1	right
6.6.1	win	2023-06-02	02:32:58	02:46:48	823313	6175e05636b79082f8d345c5	1	1	practice_slash	22	advance_on_keypress_SLASH	28	stimuli_target_diamondsquares.svg	stimuli_distractor_trianglediamonds.svg	6	yes	57	0	893	6	5	antiphase_hc_osi.wav	2	6	5	noise_calib_stim_RIGHT.wav	2	11	blb_dichoticlistening_da-pa.mp3	da	pa	1	right
6.6.1	win	2023-06-02	02:32:58	02:46:51	826721	6175e05636b79082f8d345c5	1	1	practice_slash	22	practice_slash	29	stimuli_distractor_trianglediamonds.svg	stimuli_target_diamondrectangles.svg	12	yes	53	1	856	6	5	antiphase_hc_osi.wav	2	6	5	noise_calib_stim_RIGHT.wav	2	11	blb_dichoticlistening_da-pa.mp3	da	pa	1	right
6.6.1	win	2023-06-02	02:32:58	02:46:51	826721	6175e05636b79082f8d345c5	1	1	practice_slash	22	advance_on_keypress_SLASH	30	stimuli_distractor_trianglediamonds.svg	stimuli_target_diamondrectangles.svg	12	yes	57	0	708	6	5	antiphase_hc_osi.wav	2	6	5	noise_calib_stim_RIGHT.wav	2	11	blb_dichoticlistening_da-pa.mp3	da	pa	1	right
6.6.1	win	2023-06-02	02:32:58	02:46:54	829729	6175e05636b79082f8d345c5	1	1	practice_slash	22	practice_slash	31	stimuli_distractor_trianglediamonds.svg	stimuli_target_rectanglediamonds.svg	10	yes	53	1	630	6	5	antiphase_hc_osi.wav	2	6	5	noise_calib_stim_RIGHT.wav	2	11	blb_dichoticlistening_da-pa.mp3	da	pa	1	right
6.6.1	win	2023-06-02	02:32:58	02:46:54	829729	6175e05636b79082f8d345c5	1	1	practice_slash	22	advance_on_keypress_SLASH	32	stimuli_distractor_trianglediamonds.svg	stimuli_target_rectanglediamonds.svg	10	yes	57	0	604	6	5	antiphase_hc_osi.wav	2	6	5	noise_calib_stim_RIGHT.wav	2	11	blb_dichoticlistening_da-pa.mp3	da	pa	1	right
6.6.1	win	2023-06-02	02:32:58	02:47:07	842407	6175e05636b79082f8d345c5	1	1	main_slash	24	main_slash	1	stimuli_distractor_diamondtriangles.svg	stimuli_distractor_diamondtriangles.svg	40	no	0	1	2000	6	5	antiphase_hc_osi.wav	2	6	5	noise_calib_stim_RIGHT.wav	2	11	blb_dichoticlistening_da-pa.mp3	da	pa	1	right
6.6.1	win	2023-06-02	02:32:58	02:47:07	842407	6175e05636b79082f8d345c5	1	1	main_slash	24	advance_on_keypress_SLASH	2	stimuli_distractor_diamondtriangles.svg	stimuli_distractor_diamondtriangles.svg	40	no	57	0	977	6	5	antiphase_hc_osi.wav	2	6	5	noise_calib_stim_RIGHT.wav	2	11	blb_dichoticlistening_da-pa.mp3	da	pa	1	right
6.6.1	win	2023-06-02	02:32:58	02:47:11	846040	6175e05636b79082f8d345c5	1	1	main_slash	24	main_slash	3	stimuli_distractor_diamondtriangles.svg	stimuli_distractor_diamondtriangles.svg	39	no	0	1	2000	6	5	antiphase_hc_osi.wav	2	6	5	noise_calib_stim_RIGHT.wav	2	11	blb_dichoticlistening_da-pa.mp3	da	pa	1	right
6.6.1	win	2023-06-02	02:32:58	02:47:11	846040	6175e05636b79082f8d345c5	1	1	main_slash	24	advance_on_keypress_SLASH	4	stimuli_distractor_diamondtriangles.svg	stimuli_distractor_diamondtriangles.svg	39	no	57	0	928	6	5	antiphase_hc_osi.wav	2	6	5	noise_calib_stim_RIGHT.wav	2	11	blb_dichoticlistening_da-pa.mp3	da	pa	1	right
6.6.1	win	2023-06-02	02:32:58	02:47:13	848385	6175e05636b79082f8d345c5	1	1	main_slash	24	main_slash	5	stimuli_target_squaretriangles.svg	stimuli_distractor_trianglediamonds.svg	3	yes	53	1	761	6	5	antiphase_hc_osi.wav	2	6	5	noise_calib_stim_RIGHT.wav	2	11	blb_dichoticlistening_da-pa.mp3	da	pa	1	right
6.6.1	win	2023-06-02	02:32:58	02:47:13	848385	6175e05636b79082f8d345c5	1	1	main_slash	24	advance_on_keypress_SLASH	6	stimuli_target_squaretriangles.svg	stimuli_distractor_trianglediamonds.svg	3	yes	57	0	1122	6	5	antiphase_hc_osi.wav	2	6	5	noise_calib_stim_RIGHT.wav	2	11	blb_dichoticlistening_da-pa.mp3	da	pa	1	right
6.6.1	win	2023-06-02	02:32:58	02:47:16	850977	6175e05636b79082f8d345c5	1	1	main_slash	24	main_slash	7	stimuli_distractor_trianglediamonds.svg	stimuli_target_trianglesquares.svg	26	yes	53	1	803	6	5	antiphase_hc_osi.wav	2	6	5	noise_calib_stim_RIGHT.wav	2	11	blb_dichoticlistening_da-pa.mp3	da	pa	1	right
6.6.1	win	2023-06-02	02:32:58	02:47:16	850977	6175e05636b79082f8d345c5	1	1	main_slash	24	advance_on_keypress_SLASH	8	stimuli_distractor_trianglediamonds.svg	stimuli_target_trianglesquares.svg	26	yes	57	0	674	6	5	antiphase_hc_osi.wav	2	6	5	noise_calib_stim_RIGHT.wav	2	11	blb_dichoticlistening_da-pa.mp3	da	pa	1	right
6.6.1	win	2023-06-02	02:32:58	02:47:19	854307	6175e05636b79082f8d345c5	1	1	main_slash	24	main_slash	9	stimuli_distractor_trianglediamonds.svg	stimuli_distractor_trianglediamonds.svg	33	no	0	1	2000	6	5	antiphase_hc_osi.wav	2	6	5	noise_calib_stim_RIGHT.wav	2	11	blb_dichoticlistening_da-pa.mp3	da	pa	1	right
6.6.1	win	2023-06-02	02:32:58	02:47:19	854307	6175e05636b79082f8d345c5	1	1	main_slash	24	advance_on_keypress_SLASH	10	stimuli_distractor_trianglediamonds.svg	stimuli_distractor_trianglediamonds.svg	33	no	57	0	550	6	5	antiphase_hc_osi.wav	2	6	5	noise_calib_stim_RIGHT.wav	2	11	blb_dichoticlistening_da-pa.mp3	da	pa	1	right
6.6.1	win	2023-06-02	02:32:58	02:47:21	856241	6175e05636b79082f8d345c5	1	1	main_slash	24	main_slash	11	stimuli_target_rectanglediamonds.svg	stimuli_distractor_trianglediamonds.svg	2	yes	53	1	734	6	5	antiphase_hc_osi.wav	2	6	5	noise_calib_stim_RIGHT.wav	2	11	blb_dichoticlistening_da-pa.mp3	da	pa	1	right
6.6.1	win	2023-06-02	02:32:58	02:47:21	856241	6175e05636b79082f8d345c5	1	1	main_slash	24	advance_on_keypress_SLASH	12	stimuli_target_rectanglediamonds.svg	stimuli_distractor_trianglediamonds.svg	2	yes	57	0	848	6	5	antiphase_hc_osi.wav	2	6	5	noise_calib_stim_RIGHT.wav	2	11	blb_dichoticlistening_da-pa.mp3	da	pa	1	right
6.6.1	win	2023-06-02	02:32:58	02:47:23	858593	6175e05636b79082f8d345c5	1	1	main_slash	24	main_slash	13	stimuli_distractor_trianglediamonds.svg	stimuli_target_diamondrectangles.svg	27	yes	53	1	853	6	5	antiphase_hc_osi.wav	2	6	5	noise_calib_stim_RIGHT.wav	2	11	blb_dichoticlistening_da-pa.mp3	da	pa	1	right
6.6.1	win	2023-06-02	02:32:58	02:47:23	858593	6175e05636b79082f8d345c5	1	1	main_slash	24	advance_on_keypress_SLASH	14	stimuli_distractor_trianglediamonds.svg	stimuli_target_diamondrectangles.svg	27	yes	57	0	851	6	5	antiphase_hc_osi.wav	2	6	5	noise_calib_stim_RIGHT.wav	2	11	blb_dichoticlistening_da-pa.mp3	da	pa	1	right
6.6.1	win	2023-06-02	02:32:58	02:47:25	860841	6175e05636b79082f8d345c5	1	1	main_slash	24	main_slash	15	stimuli_distractor_diamondtriangles.svg	stimuli_target_diamondrectangles.svg	31	yes	53	1	751	6	5	antiphase_hc_osi.wav	2	6	5	noise_calib_stim_RIGHT.wav	2	11	blb_dichoticlistening_da-pa.mp3	da	pa	1	right
6.6.1	win	2023-06-02	02:32:58	02:47:25	860841	6175e05636b79082f8d345c5	1	1	main_slash	24	advance_on_keypress_SLASH	16	stimuli_distractor_diamondtriangles.svg	stimuli_target_diamondrectangles.svg	31	yes	57	0	817	6	5	antiphase_hc_osi.wav	2	6	5	noise_calib_stim_RIGHT.wav	2	11	blb_dichoticlistening_da-pa.mp3	da	pa	1	right
6.6.1	win	2023-06-02	02:32:58	02:47:29	864307	6175e05636b79082f8d345c5	1	1	main_slash	24	main_slash	17	stimuli_distractor_trianglediamonds.svg	stimuli_distractor_trianglediamonds.svg	34	no	0	1	2000	6	5	antiphase_hc_osi.wav	2	6	5	noise_calib_stim_RIGHT.wav	2	11	blb_dichoticlistening_da-pa.mp3	da	pa	1	right
6.6.1	win	2023-06-02	02:32:58	02:47:29	864307	6175e05636b79082f8d345c5	1	1	main_slash	24	advance_on_keypress_SLASH	18	stimuli_distractor_trianglediamonds.svg	stimuli_distractor_trianglediamonds.svg	34	no	57	0	462	6	5	antiphase_hc_osi.wav	2	6	5	noise_calib_stim_RIGHT.wav	2	11	blb_dichoticlistening_da-pa.mp3	da	pa	1	right
6.6.1	win	2023-06-02	02:32:58	02:47:31	866337	6175e05636b79082f8d345c5	1	1	main_slash	24	main_slash	19	stimuli_distractor_trianglediamonds.svg	stimuli_target_squaretriangles.svg	11	yes	53	1	914	6	5	antiphase_hc_osi.wav	2	6	5	noise_calib_stim_RIGHT.wav	2	11	blb_dichoticlistening_da-pa.mp3	da	pa	1	right
6.6.1	win	2023-06-02	02:32:58	02:47:31	866337	6175e05636b79082f8d345c5	1	1	main_slash	24	advance_on_keypress_SLASH	20	stimuli_distractor_trianglediamonds.svg	stimuli_target_squaretriangles.svg	11	yes	57	0	989	6	5	antiphase_hc_osi.wav	2	6	5	noise_calib_stim_RIGHT.wav	2	11	blb_dichoticlistening_da-pa.mp3	da	pa	1	right
6.6.1	win	2023-06-02	02:32:58	02:47:33	868889	6175e05636b79082f8d345c5	1	1	main_slash	24	main_slash	21	stimuli_target_trianglerectangles.svg	stimuli_distractor_trianglediamonds.svg	17	yes	53	1	899	6	5	antiphase_hc_osi.wav	2	6	5	noise_calib_stim_RIGHT.wav	2	11	blb_dichoticlistening_da-pa.mp3	da	pa	1	right
6.6.1	win	2023-06-02	02:32:58	02:47:33	868889	6175e05636b79082f8d345c5	1	1	main_slash	24	advance_on_keypress_SLASH	22	stimuli_target_trianglerectangles.svg	stimuli_distractor_trianglediamonds.svg	17	yes	57	0	735	6	5	antiphase_hc_osi.wav	2	6	5	noise_calib_stim_RIGHT.wav	2	11	blb_dichoticlistening_da-pa.mp3	da	pa	1	right
6.6.1	win	2023-06-02	02:32:58	02:47:36	871201	6175e05636b79082f8d345c5	1	1	main_slash	24	main_slash	23	stimuli_distractor_diamondtriangles.svg	stimuli_target_rectanglediamonds.svg	14	yes	53	1	928	6	5	antiphase_hc_osi.wav	2	6	5	noise_calib_stim_RIGHT.wav	2	11	blb_dichoticlistening_da-pa.mp3	da	pa	1	right
6.6.1	win	2023-06-02	02:32:58	02:47:36	871201	6175e05636b79082f8d345c5	1	1	main_slash	24	advance_on_keypress_SLASH	24	stimuli_distractor_diamondtriangles.svg	stimuli_target_rectanglediamonds.svg	14	yes	57	0	1306	6	5	antiphase_hc_osi.wav	2	6	5	noise_calib_stim_RIGHT.wav	2	11	blb_dichoticlistening_da-pa.mp3	da	pa	1	right
6.6.1	win	2023-06-02	02:32:58	02:47:39	874121	6175e05636b79082f8d345c5	1	1	main_slash	24	main_slash	25	stimuli_distractor_trianglediamonds.svg	stimuli_distractor_diamondtriangles.svg	36	no	53	0	948	6	5	antiphase_hc_osi.wav	2	6	5	noise_calib_stim_RIGHT.wav	2	11	blb_dichoticlistening_da-pa.mp3	da	pa	1	right
6.6.1	win	2023-06-02	02:32:58	02:47:39	874121	6175e05636b79082f8d345c5	1	1	main_slash	24	advance_on_keypress_SLASH	26	stimuli_distractor_trianglediamonds.svg	stimuli_distractor_diamondtriangles.svg	36	no	57	0	846	6	5	antiphase_hc_osi.wav	2	6	5	noise_calib_stim_RIGHT.wav	2	11	blb_dichoticlistening_da-pa.mp3	da	pa	1	right
6.6.1	win	2023-06-02	02:32:58	02:47:41	876449	6175e05636b79082f8d345c5	1	1	main_slash	24	main_slash	27	stimuli_target_rectanglediamonds.svg	stimuli_distractor_diamondtriangles.svg	6	yes	53	1	826	6	5	antiphase_hc_osi.wav	2	6	5	noise_calib_stim_RIGHT.wav	2	11	blb_dichoticlistening_da-pa.mp3	da	pa	1	right
6.6.1	win	2023-06-02	02:32:58	02:47:41	876449	6175e05636b79082f8d345c5	1	1	main_slash	24	advance_on_keypress_SLASH	28	stimuli_target_rectanglediamonds.svg	stimuli_distractor_diamondtriangles.svg	6	yes	57	0	696	6	5	antiphase_hc_osi.wav	2	6	5	noise_calib_stim_RIGHT.wav	2	11	blb_dichoticlistening_da-pa.mp3	da	pa	1	right
6.6.1	win	2023-06-02	02:32:58	02:47:43	878849	6175e05636b79082f8d345c5	1	1	main_slash	24	main_slash	29	stimuli_distractor_trianglediamonds.svg	stimuli_target_squarediamonds.svg	12	yes	53	1	1043	6	5	antiphase_hc_osi.wav	2	6	5	noise_calib_stim_RIGHT.wav	2	11	blb_dichoticlistening_da-pa.mp3	da	pa	1	right
6.6.1	win	2023-06-02	02:32:58	02:47:43	878849	6175e05636b79082f8d345c5	1	1	main_slash	24	advance_on_keypress_SLASH	30	stimuli_distractor_trianglediamonds.svg	stimuli_target_squarediamonds.svg	12	yes	57	0	800	6	5	antiphase_hc_osi.wav	2	6	5	noise_calib_stim_RIGHT.wav	2	11	blb_dichoticlistening_da-pa.mp3	da	pa	1	right
6.6.1	win	2023-06-02	02:32:58	02:47:46	880985	6175e05636b79082f8d345c5	1	1	main_slash	24	main_slash	31	stimuli_target_diamondsquares.svg	stimuli_distractor_diamondtriangles.svg	24	yes	53	1	679	6	5	antiphase_hc_osi.wav	2	6	5	noise_calib_stim_RIGHT.wav	2	11	blb_dichoticlistening_da-pa.mp3	da	pa	1	right
6.6.1	win	2023-06-02	02:32:58	02:47:46	880985	6175e05636b79082f8d345c5	1	1	main_slash	24	advance_on_keypress_SLASH	32	stimuli_target_diamondsquares.svg	stimuli_distractor_diamondtriangles.svg	24	yes	57	0	667	6	5	antiphase_hc_osi.wav	2	6	5	noise_calib_stim_RIGHT.wav	2	11	blb_dichoticlistening_da-pa.mp3	da	pa	1	right
6.6.1	win	2023-06-02	02:32:58	02:47:48	883042	6175e05636b79082f8d345c5	1	1	main_slash	24	main_slash	33	stimuli_distractor_trianglediamonds.svg	stimuli_target_rectanglediamonds.svg	10	yes	53	1	735	6	5	antiphase_hc_osi.wav	2	6	5	noise_calib_stim_RIGHT.wav	2	11	blb_dichoticlistening_da-pa.mp3	da	pa	1	right
6.6.1	win	2023-06-02	02:32:58	02:47:48	883042	6175e05636b79082f8d345c5	1	1	main_slash	24	advance_on_keypress_SLASH	34	stimuli_distractor_trianglediamonds.svg	stimuli_target_rectanglediamonds.svg	10	yes	57	0	817	6	5	antiphase_hc_osi.wav	2	6	5	noise_calib_stim_RIGHT.wav	2	11	blb_dichoticlistening_da-pa.mp3	da	pa	1	right
6.6.1	win	2023-06-02	02:32:58	02:47:50	885489	6175e05636b79082f8d345c5	1	1	main_slash	24	main_slash	35	stimuli_distractor_diamondtriangles.svg	stimuli_distractor_trianglediamonds.svg	37	no	53	0	983	6	5	antiphase_hc_osi.wav	2	6	5	noise_calib_stim_RIGHT.wav	2	11	blb_dichoticlistening_da-pa.mp3	da	pa	1	right
6.6.1	win	2023-06-02	02:32:58	02:47:50	885489	6175e05636b79082f8d345c5	1	1	main_slash	24	advance_on_keypress_SLASH	36	stimuli_distractor_diamondtriangles.svg	stimuli_distractor_trianglediamonds.svg	37	no	57	0	831	6	5	antiphase_hc_osi.wav	2	6	5	noise_calib_stim_RIGHT.wav	2	11	blb_dichoticlistening_da-pa.mp3	da	pa	1	right
6.6.1	win	2023-06-02	02:32:58	02:47:52	887833	6175e05636b79082f8d345c5	1	1	main_slash	24	main_slash	37	stimuli_distractor_diamondtriangles.svg	stimuli_target_rectangletriangles.svg	13	yes	53	1	861	6	5	antiphase_hc_osi.wav	2	6	5	noise_calib_stim_RIGHT.wav	2	11	blb_dichoticlistening_da-pa.mp3	da	pa	1	right
6.6.1	win	2023-06-02	02:32:58	02:47:52	887833	6175e05636b79082f8d345c5	1	1	main_slash	24	advance_on_keypress_SLASH	38	stimuli_distractor_diamondtriangles.svg	stimuli_target_rectangletriangles.svg	13	yes	57	0	857	6	5	antiphase_hc_osi.wav	2	6	5	noise_calib_stim_RIGHT.wav	2	11	blb_dichoticlistening_da-pa.mp3	da	pa	1	right
6.6.1	win	2023-06-02	02:32:58	02:47:55	890185	6175e05636b79082f8d345c5	1	1	main_slash	24	main_slash	39	stimuli_target_trianglesquares.svg	stimuli_distractor_diamondtriangles.svg	22	yes	53	1	829	6	5	antiphase_hc_osi.wav	2	6	5	noise_calib_stim_RIGHT.wav	2	11	blb_dichoticlistening_da-pa.mp3	da	pa	1	right
6.6.1	win	2023-06-02	02:32:58	02:47:55	890185	6175e05636b79082f8d345c5	1	1	main_slash	24	advance_on_keypress_SLASH	40	stimuli_target_trianglesquares.svg	stimuli_distractor_diamondtriangles.svg	22	yes	57	0	1011	6	5	antiphase_hc_osi.wav	2	6	5	noise_calib_stim_RIGHT.wav	2	11	blb_dichoticlistening_da-pa.mp3	da	pa	1	right
6.6.1	win	2023-06-02	02:32:58	02:47:57	892625	6175e05636b79082f8d345c5	1	1	main_slash	24	main_slash	41	stimuli_distractor_trianglediamonds.svg	stimuli_target_trianglerectangles.svg	25	yes	53	1	769	6	5	antiphase_hc_osi.wav	2	6	5	noise_calib_stim_RIGHT.wav	2	11	blb_dichoticlistening_da-pa.mp3	da	pa	1	right
6.6.1	win	2023-06-02	02:32:58	02:47:57	892625	6175e05636b79082f8d345c5	1	1	main_slash	24	advance_on_keypress_SLASH	42	stimuli_distractor_trianglediamonds.svg	stimuli_target_trianglerectangles.svg	25	yes	57	0	810	6	5	antiphase_hc_osi.wav	2	6	5	noise_calib_stim_RIGHT.wav	2	11	blb_dichoticlistening_da-pa.mp3	da	pa	1	right
6.6.1	win	2023-06-02	02:32:58	02:47:59	894849	6175e05636b79082f8d345c5	1	1	main_slash	24	main_slash	43	stimuli_distractor_trianglediamonds.svg	stimuli_target_diamondsquares.svg	28	yes	53	1	760	6	5	antiphase_hc_osi.wav	2	6	5	noise_calib_stim_RIGHT.wav	2	11	blb_dichoticlistening_da-pa.mp3	da	pa	1	right
6.6.1	win	2023-06-02	02:32:58	02:47:59	894849	6175e05636b79082f8d345c5	1	1	main_slash	24	advance_on_keypress_SLASH	44	stimuli_distractor_trianglediamonds.svg	stimuli_target_diamondsquares.svg	28	yes	57	0	777	6	5	antiphase_hc_osi.wav	2	6	5	noise_calib_stim_RIGHT.wav	2	11	blb_dichoticlistening_da-pa.mp3	da	pa	1	right
6.6.1	win	2023-06-02	02:32:58	02:48:02	897073	6175e05636b79082f8d345c5	1	1	main_slash	24	main_slash	45	stimuli_target_rectangletriangles.svg	stimuli_distractor_diamondtriangles.svg	5	yes	53	1	784	6	5	antiphase_hc_osi.wav	2	6	5	noise_calib_stim_RIGHT.wav	2	11	blb_dichoticlistening_da-pa.mp3	da	pa	1	right
6.6.1	win	2023-06-02	02:32:58	02:48:02	897073	6175e05636b79082f8d345c5	1	1	main_slash	24	advance_on_keypress_SLASH	46	stimuli_target_rectangletriangles.svg	stimuli_distractor_diamondtriangles.svg	5	yes	57	0	704	6	5	antiphase_hc_osi.wav	2	6	5	noise_calib_stim_RIGHT.wav	2	11	blb_dichoticlistening_da-pa.mp3	da	pa	1	right
6.6.1	win	2023-06-02	02:32:58	02:48:04	899225	6175e05636b79082f8d345c5	1	1	main_slash	24	main_slash	47	stimuli_target_diamondrectangles.svg	stimuli_distractor_diamondtriangles.svg	23	yes	53	1	786	6	5	antiphase_hc_osi.wav	2	6	5	noise_calib_stim_RIGHT.wav	2	11	blb_dichoticlistening_da-pa.mp3	da	pa	1	right
6.6.1	win	2023-06-02	02:32:58	02:48:04	899225	6175e05636b79082f8d345c5	1	1	main_slash	24	advance_on_keypress_SLASH	48	stimuli_target_diamondrectangles.svg	stimuli_distractor_diamondtriangles.svg	23	yes	57	0	778	6	5	antiphase_hc_osi.wav	2	6	5	noise_calib_stim_RIGHT.wav	2	11	blb_dichoticlistening_da-pa.mp3	da	pa	1	right
6.6.1	win	2023-06-02	02:32:58	02:48:06	901417	6175e05636b79082f8d345c5	1	1	main_slash	24	main_slash	49	stimuli_target_squaretriangles.svg	stimuli_distractor_diamondtriangles.svg	7	yes	53	1	762	6	5	antiphase_hc_osi.wav	2	6	5	noise_calib_stim_RIGHT.wav	2	11	blb_dichoticlistening_da-pa.mp3	da	pa	1	right
6.6.1	win	2023-06-02	02:32:58	02:48:06	901417	6175e05636b79082f8d345c5	1	1	main_slash	24	advance_on_keypress_SLASH	50	stimuli_target_squaretriangles.svg	stimuli_distractor_diamondtriangles.svg	7	yes	57	0	866	6	5	antiphase_hc_osi.wav	2	6	5	noise_calib_stim_RIGHT.wav	2	11	blb_dichoticlistening_da-pa.mp3	da	pa	1	right
6.6.1	win	2023-06-02	02:32:58	02:48:09	904939	6175e05636b79082f8d345c5	1	1	main_slash	24	main_slash	51	stimuli_distractor_trianglediamonds.svg	stimuli_distractor_diamondtriangles.svg	35	no	0	1	2000	6	5	antiphase_hc_osi.wav	2	6	5	noise_calib_stim_RIGHT.wav	2	11	blb_dichoticlistening_da-pa.mp3	da	pa	1	right
6.6.1	win	2023-06-02	02:32:58	02:48:09	904939	6175e05636b79082f8d345c5	1	1	main_slash	24	advance_on_keypress_SLASH	52	stimuli_distractor_trianglediamonds.svg	stimuli_distractor_diamondtriangles.svg	35	no	57	0	462	6	5	antiphase_hc_osi.wav	2	6	5	noise_calib_stim_RIGHT.wav	2	11	blb_dichoticlistening_da-pa.mp3	da	pa	1	right
6.6.1	win	2023-06-02	02:32:58	02:48:12	907074	6175e05636b79082f8d345c5	1	1	main_slash	24	main_slash	53	stimuli_target_diamondrectangles.svg	stimuli_distractor_trianglediamonds.svg	19	yes	53	1	1018	6	5	antiphase_hc_osi.wav	2	6	5	noise_calib_stim_RIGHT.wav	2	11	blb_dichoticlistening_da-pa.mp3	da	pa	1	right
6.6.1	win	2023-06-02	02:32:58	02:48:12	907074	6175e05636b79082f8d345c5	1	1	main_slash	24	advance_on_keypress_SLASH	54	stimuli_target_diamondrectangles.svg	stimuli_distractor_trianglediamonds.svg	19	yes	57	0	705	6	5	antiphase_hc_osi.wav	2	6	5	noise_calib_stim_RIGHT.wav	2	11	blb_dichoticlistening_da-pa.mp3	da	pa	1	right
6.6.1	win	2023-06-02	02:32:58	02:48:14	909145	6175e05636b79082f8d345c5	1	1	main_slash	24	main_slash	55	stimuli_distractor_diamondtriangles.svg	stimuli_target_squarediamonds.svg	16	yes	53	1	723	6	5	antiphase_hc_osi.wav	2	6	5	noise_calib_stim_RIGHT.wav	2	11	blb_dichoticlistening_da-pa.mp3	da	pa	1	right
6.6.1	win	2023-06-02	02:32:58	02:48:14	909145	6175e05636b79082f8d345c5	1	1	main_slash	24	advance_on_keypress_SLASH	56	stimuli_distractor_diamondtriangles.svg	stimuli_target_squarediamonds.svg	16	yes	57	0	837	6	5	antiphase_hc_osi.wav	2	6	5	noise_calib_stim_RIGHT.wav	2	11	blb_dichoticlistening_da-pa.mp3	da	pa	1	right
6.6.1	win	2023-06-02	02:32:58	02:48:16	911529	6175e05636b79082f8d345c5	1	1	main_slash	24	main_slash	57	stimuli_target_diamondsquares.svg	stimuli_distractor_trianglediamonds.svg	20	yes	53	1	891	6	5	antiphase_hc_osi.wav	2	6	5	noise_calib_stim_RIGHT.wav	2	11	blb_dichoticlistening_da-pa.mp3	da	pa	1	right
6.6.1	win	2023-06-02	02:32:58	02:48:16	911529	6175e05636b79082f8d345c5	1	1	main_slash	24	advance_on_keypress_SLASH	58	stimuli_target_diamondsquares.svg	stimuli_distractor_trianglediamonds.svg	20	yes	57	0	990	6	5	antiphase_hc_osi.wav	2	6	5	noise_calib_stim_RIGHT.wav	2	11	blb_dichoticlistening_da-pa.mp3	da	pa	1	right
6.6.1	win	2023-06-02	02:32:58	02:48:20	915188	6175e05636b79082f8d345c5	1	1	main_slash	24	main_slash	59	stimuli_distractor_diamondtriangles.svg	stimuli_distractor_trianglediamonds.svg	38	no	0	1	2000	6	5	antiphase_hc_osi.wav	2	6	5	noise_calib_stim_RIGHT.wav	2	11	blb_dichoticlistening_da-pa.mp3	da	pa	1	right
6.6.1	win	2023-06-02	02:32:58	02:48:20	915188	6175e05636b79082f8d345c5	1	1	main_slash	24	advance_on_keypress_SLASH	60	stimuli_distractor_diamondtriangles.svg	stimuli_distractor_trianglediamonds.svg	38	no	57	0	444	6	5	antiphase_hc_osi.wav	2	6	5	noise_calib_stim_RIGHT.wav	2	11	blb_dichoticlistening_da-pa.mp3	da	pa	1	right
6.6.1	win	2023-06-02	02:32:58	02:48:22	917793	6175e05636b79082f8d345c5	1	1	main_slash	24	main_slash	61	stimuli_target_trianglerectangles.svg	stimuli_distractor_diamondtriangles.svg	21	yes	53	1	1505	6	5	antiphase_hc_osi.wav	2	6	5	noise_calib_stim_RIGHT.wav	2	11	blb_dichoticlistening_da-pa.mp3	da	pa	1	right
6.6.1	win	2023-06-02	02:32:58	02:48:22	917793	6175e05636b79082f8d345c5	1	1	main_slash	24	advance_on_keypress_SLASH	62	stimuli_target_trianglerectangles.svg	stimuli_distractor_diamondtriangles.svg	21	yes	57	0	772	6	5	antiphase_hc_osi.wav	2	6	5	noise_calib_stim_RIGHT.wav	2	11	blb_dichoticlistening_da-pa.mp3	da	pa	1	right
6.6.1	win	2023-06-02	02:32:58	02:48:25	920065	6175e05636b79082f8d345c5	1	1	main_slash	24	main_slash	63	stimuli_target_squarediamonds.svg	stimuli_distractor_trianglediamonds.svg	4	yes	53	1	843	6	5	antiphase_hc_osi.wav	2	6	5	noise_calib_stim_RIGHT.wav	2	11	blb_dichoticlistening_da-pa.mp3	da	pa	1	right
6.6.1	win	2023-06-02	02:32:58	02:48:25	920065	6175e05636b79082f8d345c5	1	1	main_slash	24	advance_on_keypress_SLASH	64	stimuli_target_squarediamonds.svg	stimuli_distractor_trianglediamonds.svg	4	yes	57	0	689	6	5	antiphase_hc_osi.wav	2	6	5	noise_calib_stim_RIGHT.wav	2	11	blb_dichoticlistening_da-pa.mp3	da	pa	1	right
6.6.1	win	2023-06-02	02:32:58	02:48:27	922185	6175e05636b79082f8d345c5	1	1	main_slash	24	main_slash	65	stimuli_distractor_diamondtriangles.svg	stimuli_target_diamondsquares.svg	32	yes	53	1	780	6	5	antiphase_hc_osi.wav	2	6	5	noise_calib_stim_RIGHT.wav	2	11	blb_dichoticlistening_da-pa.mp3	da	pa	1	right
6.6.1	win	2023-06-02	02:32:58	02:48:27	922185	6175e05636b79082f8d345c5	1	1	main_slash	24	advance_on_keypress_SLASH	66	stimuli_distractor_diamondtriangles.svg	stimuli_target_diamondsquares.svg	32	yes	57	0	788	6	5	antiphase_hc_osi.wav	2	6	5	noise_calib_stim_RIGHT.wav	2	11	blb_dichoticlistening_da-pa.mp3	da	pa	1	right
6.6.1	win	2023-06-02	02:32:58	02:48:29	924529	6175e05636b79082f8d345c5	1	1	main_slash	24	main_slash	67	stimuli_target_rectangletriangles.svg	stimuli_distractor_trianglediamonds.svg	1	yes	53	1	908	6	5	antiphase_hc_osi.wav	2	6	5	noise_calib_stim_RIGHT.wav	2	11	blb_dichoticlistening_da-pa.mp3	da	pa	1	right
6.6.1	win	2023-06-02	02:32:58	02:48:29	924529	6175e05636b79082f8d345c5	1	1	main_slash	24	advance_on_keypress_SLASH	68	stimuli_target_rectangletriangles.svg	stimuli_distractor_trianglediamonds.svg	1	yes	57	0	814	6	5	antiphase_hc_osi.wav	2	6	5	noise_calib_stim_RIGHT.wav	2	11	blb_dichoticlistening_da-pa.mp3	da	pa	1	right
6.6.1	win	2023-06-02	02:32:58	02:48:31	926777	6175e05636b79082f8d345c5	1	1	main_slash	24	main_slash	69	stimuli_target_trianglesquares.svg	stimuli_distractor_trianglediamonds.svg	18	yes	53	1	772	6	5	antiphase_hc_osi.wav	2	6	5	noise_calib_stim_RIGHT.wav	2	11	blb_dichoticlistening_da-pa.mp3	da	pa	1	right
6.6.1	win	2023-06-02	02:32:58	02:48:31	926777	6175e05636b79082f8d345c5	1	1	main_slash	24	advance_on_keypress_SLASH	70	stimuli_target_trianglesquares.svg	stimuli_distractor_trianglediamonds.svg	18	yes	57	0	733	6	5	antiphase_hc_osi.wav	2	6	5	noise_calib_stim_RIGHT.wav	2	11	blb_dichoticlistening_da-pa.mp3	da	pa	1	right
6.6.1	win	2023-06-02	02:32:58	02:48:33	928921	6175e05636b79082f8d345c5	1	1	main_slash	24	main_slash	71	stimuli_target_squarediamonds.svg	stimuli_distractor_diamondtriangles.svg	8	yes	53	1	766	6	5	antiphase_hc_osi.wav	2	6	5	noise_calib_stim_RIGHT.wav	2	11	blb_dichoticlistening_da-pa.mp3	da	pa	1	right
6.6.1	win	2023-06-02	02:32:58	02:48:33	928921	6175e05636b79082f8d345c5	1	1	main_slash	24	advance_on_keypress_SLASH	72	stimuli_target_squarediamonds.svg	stimuli_distractor_diamondtriangles.svg	8	yes	57	0	767	6	5	antiphase_hc_osi.wav	2	6	5	noise_calib_stim_RIGHT.wav	2	11	blb_dichoticlistening_da-pa.mp3	da	pa	1	right
6.6.1	win	2023-06-02	02:32:58	02:48:35	930921	6175e05636b79082f8d345c5	1	1	main_slash	24	main_slash	73	stimuli_distractor_diamondtriangles.svg	stimuli_target_squaretriangles.svg	15	yes	53	1	583	6	5	antiphase_hc_osi.wav	2	6	5	noise_calib_stim_RIGHT.wav	2	11	blb_dichoticlistening_da-pa.mp3	da	pa	1	right
6.6.1	win	2023-06-02	02:32:58	02:48:35	930921	6175e05636b79082f8d345c5	1	1	main_slash	24	advance_on_keypress_SLASH	74	stimuli_distractor_diamondtriangles.svg	stimuli_target_squaretriangles.svg	15	yes	57	0	687	6	5	antiphase_hc_osi.wav	2	6	5	noise_calib_stim_RIGHT.wav	2	11	blb_dichoticlistening_da-pa.mp3	da	pa	1	right
6.6.1	win	2023-06-02	02:32:58	02:48:37	932897	6175e05636b79082f8d345c5	1	1	main_slash	24	main_slash	75	stimuli_distractor_diamondtriangles.svg	stimuli_target_trianglerectangles.svg	29	yes	53	1	643	6	5	antiphase_hc_osi.wav	2	6	5	noise_calib_stim_RIGHT.wav	2	11	blb_dichoticlistening_da-pa.mp3	da	pa	1	right
6.6.1	win	2023-06-02	02:32:58	02:48:37	932897	6175e05636b79082f8d345c5	1	1	main_slash	24	advance_on_keypress_SLASH	76	stimuli_distractor_diamondtriangles.svg	stimuli_target_trianglerectangles.svg	29	yes	57	0	864	6	5	antiphase_hc_osi.wav	2	6	5	noise_calib_stim_RIGHT.wav	2	11	blb_dichoticlistening_da-pa.mp3	da	pa	1	right
6.6.1	win	2023-06-02	02:32:58	02:48:40	935105	6175e05636b79082f8d345c5	1	1	main_slash	24	main_slash	77	stimuli_distractor_diamondtriangles.svg	stimuli_target_trianglesquares.svg	30	yes	53	1	684	6	5	antiphase_hc_osi.wav	2	6	5	noise_calib_stim_RIGHT.wav	2	11	blb_dichoticlistening_da-pa.mp3	da	pa	1	right
6.6.1	win	2023-06-02	02:32:58	02:48:40	935105	6175e05636b79082f8d345c5	1	1	main_slash	24	advance_on_keypress_SLASH	78	stimuli_distractor_diamondtriangles.svg	stimuli_target_trianglesquares.svg	30	yes	57	0	656	6	5	antiphase_hc_osi.wav	2	6	5	noise_calib_stim_RIGHT.wav	2	11	blb_dichoticlistening_da-pa.mp3	da	pa	1	right
6.6.1	win	2023-06-02	02:32:58	02:48:42	936985	6175e05636b79082f8d345c5	1	1	main_slash	24	main_slash	79	stimuli_distractor_trianglediamonds.svg	stimuli_target_rectangletriangles.svg	9	yes	53	1	564	6	5	antiphase_hc_osi.wav	2	6	5	noise_calib_stim_RIGHT.wav	2	11	blb_dichoticlistening_da-pa.mp3	da	pa	1	right
6.6.1	win	2023-06-02	02:32:58	02:48:42	936985	6175e05636b79082f8d345c5	1	1	main_slash	24	advance_on_keypress_SLASH	80	stimuli_distractor_trianglediamonds.svg	stimuli_target_rectangletriangles.svg	9	yes	57	0	637	6	5	antiphase_hc_osi.wav	2	6	5	noise_calib_stim_RIGHT.wav	2	11	blb_dichoticlistening_da-pa.mp3	da	pa	1	right
6.6.1	win	2023-06-02	02:32:58	02:48:43	938961	6175e05636b79082f8d345c5	1	1	main_slash	24	main_slash	81	stimuli_distractor_trianglediamonds.svg	stimuli_target_rectangletriangles.svg	9	yes	53	1	690	6	5	antiphase_hc_osi.wav	2	6	5	noise_calib_stim_RIGHT.wav	2	11	blb_dichoticlistening_da-pa.mp3	da	pa	1	right
6.6.1	win	2023-06-02	02:32:58	02:48:43	938961	6175e05636b79082f8d345c5	1	1	main_slash	24	advance_on_keypress_SLASH	82	stimuli_distractor_trianglediamonds.svg	stimuli_target_rectangletriangles.svg	9	yes	57	0	629	6	5	antiphase_hc_osi.wav	2	6	5	noise_calib_stim_RIGHT.wav	2	11	blb_dichoticlistening_da-pa.mp3	da	pa	1	right
6.6.1	win	2023-06-02	02:32:58	02:48:45	940873	6175e05636b79082f8d345c5	1	1	main_slash	24	main_slash	83	stimuli_target_trianglerectangles.svg	stimuli_distractor_diamondtriangles.svg	21	yes	53	1	619	6	5	antiphase_hc_osi.wav	2	6	5	noise_calib_stim_RIGHT.wav	2	11	blb_dichoticlistening_da-pa.mp3	da	pa	1	right
6.6.1	win	2023-06-02	02:32:58	02:48:45	940873	6175e05636b79082f8d345c5	1	1	main_slash	24	advance_on_keypress_SLASH	84	stimuli_target_trianglerectangles.svg	stimuli_distractor_diamondtriangles.svg	21	yes	57	0	569	6	5	antiphase_hc_osi.wav	2	6	5	noise_calib_stim_RIGHT.wav	2	11	blb_dichoticlistening_da-pa.mp3	da	pa	1	right
6.6.1	win	2023-06-02	02:32:58	02:48:49	944088	6175e05636b79082f8d345c5	1	1	main_slash	24	main_slash	85	stimuli_distractor_trianglediamonds.svg	stimuli_distractor_diamondtriangles.svg	36	no	0	1	2000	6	5	antiphase_hc_osi.wav	2	6	5	noise_calib_stim_RIGHT.wav	2	11	blb_dichoticlistening_da-pa.mp3	da	pa	1	right
6.6.1	win	2023-06-02	02:32:58	02:48:49	944088	6175e05636b79082f8d345c5	1	1	main_slash	24	advance_on_keypress_SLASH	86	stimuli_distractor_trianglediamonds.svg	stimuli_distractor_diamondtriangles.svg	36	no	57	0	481	6	5	antiphase_hc_osi.wav	2	6	5	noise_calib_stim_RIGHT.wav	2	11	blb_dichoticlistening_da-pa.mp3	da	pa	1	right
6.6.1	win	2023-06-02	02:32:58	02:48:50	945937	6175e05636b79082f8d345c5	1	1	main_slash	24	main_slash	87	stimuli_target_diamondrectangles.svg	stimuli_distractor_diamondtriangles.svg	23	yes	53	1	716	6	5	antiphase_hc_osi.wav	2	6	5	noise_calib_stim_RIGHT.wav	2	11	blb_dichoticlistening_da-pa.mp3	da	pa	1	right
6.6.1	win	2023-06-02	02:32:58	02:48:50	945937	6175e05636b79082f8d345c5	1	1	main_slash	24	advance_on_keypress_SLASH	88	stimuli_target_diamondrectangles.svg	stimuli_distractor_diamondtriangles.svg	23	yes	57	0	575	6	5	antiphase_hc_osi.wav	2	6	5	noise_calib_stim_RIGHT.wav	2	11	blb_dichoticlistening_da-pa.mp3	da	pa	1	right
6.6.1	win	2023-06-02	02:32:58	02:48:52	947913	6175e05636b79082f8d345c5	1	1	main_slash	24	main_slash	89	stimuli_target_squarediamonds.svg	stimuli_distractor_diamondtriangles.svg	8	yes	53	1	742	6	5	antiphase_hc_osi.wav	2	6	5	noise_calib_stim_RIGHT.wav	2	11	blb_dichoticlistening_da-pa.mp3	da	pa	1	right
6.6.1	win	2023-06-02	02:32:58	02:48:52	947913	6175e05636b79082f8d345c5	1	1	main_slash	24	advance_on_keypress_SLASH	90	stimuli_target_squarediamonds.svg	stimuli_distractor_diamondtriangles.svg	8	yes	57	0	568	6	5	antiphase_hc_osi.wav	2	6	5	noise_calib_stim_RIGHT.wav	2	11	blb_dichoticlistening_da-pa.mp3	da	pa	1	right
6.6.1	win	2023-06-02	02:32:58	02:48:54	949857	6175e05636b79082f8d345c5	1	1	main_slash	24	main_slash	91	stimuli_target_trianglesquares.svg	stimuli_distractor_diamondtriangles.svg	22	yes	53	1	720	6	5	antiphase_hc_osi.wav	2	6	5	noise_calib_stim_RIGHT.wav	2	11	blb_dichoticlistening_da-pa.mp3	da	pa	1	right
6.6.1	win	2023-06-02	02:32:58	02:48:54	949857	6175e05636b79082f8d345c5	1	1	main_slash	24	advance_on_keypress_SLASH	92	stimuli_target_trianglesquares.svg	stimuli_distractor_diamondtriangles.svg	22	yes	57	0	498	6	5	antiphase_hc_osi.wav	2	6	5	noise_calib_stim_RIGHT.wav	2	11	blb_dichoticlistening_da-pa.mp3	da	pa	1	right
6.6.1	win	2023-06-02	02:32:58	02:48:57	952009	6175e05636b79082f8d345c5	1	1	main_slash	24	main_slash	93	stimuli_distractor_trianglediamonds.svg	stimuli_distractor_diamondtriangles.svg	35	no	53	0	1005	6	5	antiphase_hc_osi.wav	2	6	5	noise_calib_stim_RIGHT.wav	2	11	blb_dichoticlistening_da-pa.mp3	da	pa	1	right
6.6.1	win	2023-06-02	02:32:58	02:48:57	952009	6175e05636b79082f8d345c5	1	1	main_slash	24	advance_on_keypress_SLASH	94	stimuli_distractor_trianglediamonds.svg	stimuli_distractor_diamondtriangles.svg	35	no	57	0	660	6	5	antiphase_hc_osi.wav	2	6	5	noise_calib_stim_RIGHT.wav	2	11	blb_dichoticlistening_da-pa.mp3	da	pa	1	right
6.6.1	win	2023-06-02	02:32:58	02:48:59	954225	6175e05636b79082f8d345c5	1	1	main_slash	24	main_slash	95	stimuli_distractor_diamondtriangles.svg	stimuli_target_rectangletriangles.svg	13	yes	53	1	904	6	5	antiphase_hc_osi.wav	2	6	5	noise_calib_stim_RIGHT.wav	2	11	blb_dichoticlistening_da-pa.mp3	da	pa	1	right
6.6.1	win	2023-06-02	02:32:58	02:48:59	954225	6175e05636b79082f8d345c5	1	1	main_slash	24	advance_on_keypress_SLASH	96	stimuli_distractor_diamondtriangles.svg	stimuli_target_rectangletriangles.svg	13	yes	57	0	636	6	5	antiphase_hc_osi.wav	2	6	5	noise_calib_stim_RIGHT.wav	2	11	blb_dichoticlistening_da-pa.mp3	da	pa	1	right
6.6.1	win	2023-06-02	02:32:58	02:49:01	956281	6175e05636b79082f8d345c5	1	1	main_slash	24	main_slash	97	stimuli_distractor_trianglediamonds.svg	stimuli_target_trianglesquares.svg	26	yes	53	1	777	6	5	antiphase_hc_osi.wav	2	6	5	noise_calib_stim_RIGHT.wav	2	11	blb_dichoticlistening_da-pa.mp3	da	pa	1	right
6.6.1	win	2023-06-02	02:32:58	02:49:01	956281	6175e05636b79082f8d345c5	1	1	main_slash	24	advance_on_keypress_SLASH	98	stimuli_distractor_trianglediamonds.svg	stimuli_target_trianglesquares.svg	26	yes	57	0	569	6	5	antiphase_hc_osi.wav	2	6	5	noise_calib_stim_RIGHT.wav	2	11	blb_dichoticlistening_da-pa.mp3	da	pa	1	right
6.6.1	win	2023-06-02	02:32:58	02:49:03	958362	6175e05636b79082f8d345c5	1	1	main_slash	24	main_slash	99	stimuli_target_trianglerectangles.svg	stimuli_distractor_trianglediamonds.svg	17	yes	53	1	857	6	5	antiphase_hc_osi.wav	2	6	5	noise_calib_stim_RIGHT.wav	2	11	blb_dichoticlistening_da-pa.mp3	da	pa	1	right
6.6.1	win	2023-06-02	02:32:58	02:49:03	958362	6175e05636b79082f8d345c5	1	1	main_slash	24	advance_on_keypress_SLASH	100	stimuli_target_trianglerectangles.svg	stimuli_distractor_trianglediamonds.svg	17	yes	57	0	598	6	5	antiphase_hc_osi.wav	2	6	5	noise_calib_stim_RIGHT.wav	2	11	blb_dichoticlistening_da-pa.mp3	da	pa	1	right
6.6.1	win	2023-06-02	02:32:58	02:49:06	961620	6175e05636b79082f8d345c5	1	1	main_slash	24	main_slash	101	stimuli_distractor_diamondtriangles.svg	stimuli_distractor_diamondtriangles.svg	40	no	0	1	2000	6	5	antiphase_hc_osi.wav	2	6	5	noise_calib_stim_RIGHT.wav	2	11	blb_dichoticlistening_da-pa.mp3	da	pa	1	right
6.6.1	win	2023-06-02	02:32:58	02:49:06	961620	6175e05636b79082f8d345c5	1	1	main_slash	24	advance_on_keypress_SLASH	102	stimuli_distractor_diamondtriangles.svg	stimuli_distractor_diamondtriangles.svg	40	no	57	0	476	6	5	antiphase_hc_osi.wav	2	6	5	noise_calib_stim_RIGHT.wav	2	11	blb_dichoticlistening_da-pa.mp3	da	pa	1	right
6.6.1	win	2023-06-02	02:32:58	02:49:08	963529	6175e05636b79082f8d345c5	1	1	main_slash	24	main_slash	103	stimuli_target_squaretriangles.svg	stimuli_distractor_diamondtriangles.svg	7	yes	53	1	775	6	5	antiphase_hc_osi.wav	2	6	5	noise_calib_stim_RIGHT.wav	2	11	blb_dichoticlistening_da-pa.mp3	da	pa	1	right
6.6.1	win	2023-06-02	02:32:58	02:49:08	963529	6175e05636b79082f8d345c5	1	1	main_slash	24	advance_on_keypress_SLASH	104	stimuli_target_squaretriangles.svg	stimuli_distractor_diamondtriangles.svg	7	yes	57	0	495	6	5	antiphase_hc_osi.wav	2	6	5	noise_calib_stim_RIGHT.wav	2	11	blb_dichoticlistening_da-pa.mp3	da	pa	1	right
6.6.1	win	2023-06-02	02:32:58	02:49:10	965473	6175e05636b79082f8d345c5	1	1	main_slash	24	main_slash	105	stimuli_target_diamondsquares.svg	stimuli_distractor_trianglediamonds.svg	20	yes	53	1	786	6	5	antiphase_hc_osi.wav	2	6	5	noise_calib_stim_RIGHT.wav	2	11	blb_dichoticlistening_da-pa.mp3	da	pa	1	right
6.6.1	win	2023-06-02	02:32:58	02:49:10	965473	6175e05636b79082f8d345c5	1	1	main_slash	24	advance_on_keypress_SLASH	106	stimuli_target_diamondsquares.svg	stimuli_distractor_trianglediamonds.svg	20	yes	57	0	514	6	5	antiphase_hc_osi.wav	2	6	5	noise_calib_stim_RIGHT.wav	2	11	blb_dichoticlistening_da-pa.mp3	da	pa	1	right
6.6.1	win	2023-06-02	02:32:58	02:49:12	967369	6175e05636b79082f8d345c5	1	1	main_slash	24	main_slash	107	stimuli_distractor_diamondtriangles.svg	stimuli_target_diamondrectangles.svg	31	yes	53	1	732	6	5	antiphase_hc_osi.wav	2	6	5	noise_calib_stim_RIGHT.wav	2	11	blb_dichoticlistening_da-pa.mp3	da	pa	1	right
6.6.1	win	2023-06-02	02:32:58	02:49:12	967369	6175e05636b79082f8d345c5	1	1	main_slash	24	advance_on_keypress_SLASH	108	stimuli_distractor_diamondtriangles.svg	stimuli_target_diamondrectangles.svg	31	yes	57	0	518	6	5	antiphase_hc_osi.wav	2	6	5	noise_calib_stim_RIGHT.wav	2	11	blb_dichoticlistening_da-pa.mp3	da	pa	1	right
6.6.1	win	2023-06-02	02:32:58	02:49:14	969354	6175e05636b79082f8d345c5	1	1	main_slash	24	main_slash	109	stimuli_distractor_trianglediamonds.svg	stimuli_target_rectanglediamonds.svg	10	yes	53	1	816	6	5	antiphase_hc_osi.wav	2	6	5	noise_calib_stim_RIGHT.wav	2	11	blb_dichoticlistening_da-pa.mp3	da	pa	1	right
6.6.1	win	2023-06-02	02:32:58	02:49:14	969354	6175e05636b79082f8d345c5	1	1	main_slash	24	advance_on_keypress_SLASH	110	stimuli_distractor_trianglediamonds.svg	stimuli_target_rectanglediamonds.svg	10	yes	57	0	615	6	5	antiphase_hc_osi.wav	2	6	5	noise_calib_stim_RIGHT.wav	2	11	blb_dichoticlistening_da-pa.mp3	da	pa	1	right
6.6.1	win	2023-06-02	02:32:58	02:49:17	972620	6175e05636b79082f8d345c5	1	1	main_slash	24	main_slash	111	stimuli_distractor_trianglediamonds.svg	stimuli_target_squaretriangles.svg	11	yes	0	0	2000	6	5	antiphase_hc_osi.wav	2	6	5	noise_calib_stim_RIGHT.wav	2	11	blb_dichoticlistening_da-pa.mp3	da	pa	1	right
6.6.1	win	2023-06-02	02:32:58	02:49:17	972620	6175e05636b79082f8d345c5	1	1	main_slash	24	advance_on_keypress_SLASH	112	stimuli_distractor_trianglediamonds.svg	stimuli_target_squaretriangles.svg	11	yes	57	0	444	6	5	antiphase_hc_osi.wav	2	6	5	noise_calib_stim_RIGHT.wav	2	11	blb_dichoticlistening_da-pa.mp3	da	pa	1	right
6.6.1	win	2023-06-02	02:32:58	02:49:19	974633	6175e05636b79082f8d345c5	1	1	main_slash	24	main_slash	113	stimuli_distractor_diamondtriangles.svg	stimuli_target_squaretriangles.svg	15	yes	53	1	913	6	5	antiphase_hc_osi.wav	2	6	5	noise_calib_stim_RIGHT.wav	2	11	blb_dichoticlistening_da-pa.mp3	da	pa	1	right
6.6.1	win	2023-06-02	02:32:58	02:49:19	974633	6175e05636b79082f8d345c5	1	1	main_slash	24	advance_on_keypress_SLASH	114	stimuli_distractor_diamondtriangles.svg	stimuli_target_squaretriangles.svg	15	yes	57	0	596	6	5	antiphase_hc_osi.wav	2	6	5	noise_calib_stim_RIGHT.wav	2	11	blb_dichoticlistening_da-pa.mp3	da	pa	1	right
6.6.1	win	2023-06-02	02:32:58	02:49:21	976657	6175e05636b79082f8d345c5	1	1	main_slash	24	main_slash	115	stimuli_distractor_trianglediamonds.svg	stimuli_target_trianglerectangles.svg	25	yes	53	1	770	6	5	antiphase_hc_osi.wav	2	6	5	noise_calib_stim_RIGHT.wav	2	11	blb_dichoticlistening_da-pa.mp3	da	pa	1	right
6.6.1	win	2023-06-02	02:32:58	02:49:21	976657	6175e05636b79082f8d345c5	1	1	main_slash	24	advance_on_keypress_SLASH	116	stimuli_distractor_trianglediamonds.svg	stimuli_target_trianglerectangles.svg	25	yes	57	0	483	6	5	antiphase_hc_osi.wav	2	6	5	noise_calib_stim_RIGHT.wav	2	11	blb_dichoticlistening_da-pa.mp3	da	pa	1	right
6.6.1	win	2023-06-02	02:32:58	02:49:23	978561	6175e05636b79082f8d345c5	1	1	main_slash	24	main_slash	117	stimuli_distractor_diamondtriangles.svg	stimuli_distractor_trianglediamonds.svg	37	no	53	0	774	6	5	antiphase_hc_osi.wav	2	6	5	noise_calib_stim_RIGHT.wav	2	11	blb_dichoticlistening_da-pa.mp3	da	pa	1	right
6.6.1	win	2023-06-02	02:32:58	02:49:23	978561	6175e05636b79082f8d345c5	1	1	main_slash	24	advance_on_keypress_SLASH	118	stimuli_distractor_diamondtriangles.svg	stimuli_distractor_trianglediamonds.svg	37	no	57	0	607	6	5	antiphase_hc_osi.wav	2	6	5	noise_calib_stim_RIGHT.wav	2	11	blb_dichoticlistening_da-pa.mp3	da	pa	1	right
6.6.1	win	2023-06-02	02:32:58	02:49:25	980593	6175e05636b79082f8d345c5	1	1	main_slash	24	main_slash	119	stimuli_distractor_trianglediamonds.svg	stimuli_target_squarediamonds.svg	12	yes	53	1	757	6	5	antiphase_hc_osi.wav	2	6	5	noise_calib_stim_RIGHT.wav	2	11	blb_dichoticlistening_da-pa.mp3	da	pa	1	right
6.6.1	win	2023-06-02	02:32:58	02:49:25	980593	6175e05636b79082f8d345c5	1	1	main_slash	24	advance_on_keypress_SLASH	120	stimuli_distractor_trianglediamonds.svg	stimuli_target_squarediamonds.svg	12	yes	57	0	589	6	5	antiphase_hc_osi.wav	2	6	5	noise_calib_stim_RIGHT.wav	2	11	blb_dichoticlistening_da-pa.mp3	da	pa	1	right
6.6.1	win	2023-06-02	02:32:58	02:49:27	982689	6175e05636b79082f8d345c5	1	1	main_slash	24	main_slash	121	stimuli_target_rectanglediamonds.svg	stimuli_distractor_trianglediamonds.svg	2	yes	53	1	836	6	5	antiphase_hc_osi.wav	2	6	5	noise_calib_stim_RIGHT.wav	2	11	blb_dichoticlistening_da-pa.mp3	da	pa	1	right
6.6.1	win	2023-06-02	02:32:58	02:49:27	982689	6175e05636b79082f8d345c5	1	1	main_slash	24	advance_on_keypress_SLASH	122	stimuli_target_rectanglediamonds.svg	stimuli_distractor_trianglediamonds.svg	2	yes	57	0	490	6	5	antiphase_hc_osi.wav	2	6	5	noise_calib_stim_RIGHT.wav	2	11	blb_dichoticlistening_da-pa.mp3	da	pa	1	right
6.6.1	win	2023-06-02	02:32:58	02:49:29	984545	6175e05636b79082f8d345c5	1	1	main_slash	24	main_slash	123	stimuli_distractor_diamondtriangles.svg	stimuli_target_rectanglediamonds.svg	14	yes	53	1	709	6	5	antiphase_hc_osi.wav	2	6	5	noise_calib_stim_RIGHT.wav	2	11	blb_dichoticlistening_da-pa.mp3	da	pa	1	right
6.6.1	win	2023-06-02	02:32:58	02:49:29	984545	6175e05636b79082f8d345c5	1	1	main_slash	24	advance_on_keypress_SLASH	124	stimuli_distractor_diamondtriangles.svg	stimuli_target_rectanglediamonds.svg	14	yes	57	0	735	6	5	antiphase_hc_osi.wav	2	6	5	noise_calib_stim_RIGHT.wav	2	11	blb_dichoticlistening_da-pa.mp3	da	pa	1	right
6.6.1	win	2023-06-02	02:32:58	02:49:31	986657	6175e05636b79082f8d345c5	1	1	main_slash	24	main_slash	125	stimuli_target_diamondrectangles.svg	stimuli_distractor_trianglediamonds.svg	19	yes	53	1	721	6	5	antiphase_hc_osi.wav	2	6	5	noise_calib_stim_RIGHT.wav	2	11	blb_dichoticlistening_da-pa.mp3	da	pa	1	right
6.6.1	win	2023-06-02	02:32:58	02:49:31	986657	6175e05636b79082f8d345c5	1	1	main_slash	24	advance_on_keypress_SLASH	126	stimuli_target_diamondrectangles.svg	stimuli_distractor_trianglediamonds.svg	19	yes	57	0	555	6	5	antiphase_hc_osi.wav	2	6	5	noise_calib_stim_RIGHT.wav	2	11	blb_dichoticlistening_da-pa.mp3	da	pa	1	right
6.6.1	win	2023-06-02	02:32:58	02:49:33	988506	6175e05636b79082f8d345c5	1	1	main_slash	24	main_slash	127	stimuli_target_rectangletriangles.svg	stimuli_distractor_diamondtriangles.svg	5	yes	53	1	652	6	5	antiphase_hc_osi.wav	2	6	5	noise_calib_stim_RIGHT.wav	2	11	blb_dichoticlistening_da-pa.mp3	da	pa	1	right
6.6.1	win	2023-06-02	02:32:58	02:49:33	988506	6175e05636b79082f8d345c5	1	1	main_slash	24	advance_on_keypress_SLASH	128	stimuli_target_rectangletriangles.svg	stimuli_distractor_diamondtriangles.svg	5	yes	57	0	609	6	5	antiphase_hc_osi.wav	2	6	5	noise_calib_stim_RIGHT.wav	2	11	blb_dichoticlistening_da-pa.mp3	da	pa	1	right
6.6.1	win	2023-06-02	02:32:58	02:49:35	990441	6175e05636b79082f8d345c5	1	1	main_slash	24	main_slash	129	stimuli_distractor_diamondtriangles.svg	stimuli_target_trianglesquares.svg	30	yes	53	1	671	6	5	antiphase_hc_osi.wav	2	6	5	noise_calib_stim_RIGHT.wav	2	11	blb_dichoticlistening_da-pa.mp3	da	pa	1	right
6.6.1	win	2023-06-02	02:32:58	02:49:35	990441	6175e05636b79082f8d345c5	1	1	main_slash	24	advance_on_keypress_SLASH	130	stimuli_distractor_diamondtriangles.svg	stimuli_target_trianglesquares.svg	30	yes	57	0	588	6	5	antiphase_hc_osi.wav	2	6	5	noise_calib_stim_RIGHT.wav	2	11	blb_dichoticlistening_da-pa.mp3	da	pa	1	right
6.6.1	win	2023-06-02	02:32:58	02:49:37	992313	6175e05636b79082f8d345c5	1	1	main_slash	24	main_slash	131	stimuli_distractor_trianglediamonds.svg	stimuli_target_diamondrectangles.svg	27	yes	53	1	644	6	5	antiphase_hc_osi.wav	2	6	5	noise_calib_stim_RIGHT.wav	2	11	blb_dichoticlistening_da-pa.mp3	da	pa	1	right
6.6.1	win	2023-06-02	02:32:58	02:49:37	992313	6175e05636b79082f8d345c5	1	1	main_slash	24	advance_on_keypress_SLASH	132	stimuli_distractor_trianglediamonds.svg	stimuli_target_diamondrectangles.svg	27	yes	57	0	569	6	5	antiphase_hc_osi.wav	2	6	5	noise_calib_stim_RIGHT.wav	2	11	blb_dichoticlistening_da-pa.mp3	da	pa	1	right
6.6.1	win	2023-06-02	02:32:58	02:49:39	994233	6175e05636b79082f8d345c5	1	1	main_slash	24	main_slash	133	stimuli_target_rectanglediamonds.svg	stimuli_distractor_diamondtriangles.svg	6	yes	53	1	697	6	5	antiphase_hc_osi.wav	2	6	5	noise_calib_stim_RIGHT.wav	2	11	blb_dichoticlistening_da-pa.mp3	da	pa	1	right
6.6.1	win	2023-06-02	02:32:58	02:49:39	994233	6175e05636b79082f8d345c5	1	1	main_slash	24	advance_on_keypress_SLASH	134	stimuli_target_rectanglediamonds.svg	stimuli_distractor_diamondtriangles.svg	6	yes	57	0	540	6	5	antiphase_hc_osi.wav	2	6	5	noise_calib_stim_RIGHT.wav	2	11	blb_dichoticlistening_da-pa.mp3	da	pa	1	right
6.6.1	win	2023-06-02	02:32:58	02:49:42	997445	6175e05636b79082f8d345c5	1	1	main_slash	24	main_slash	135	stimuli_distractor_trianglediamonds.svg	stimuli_distractor_trianglediamonds.svg	33	no	0	1	2000	6	5	antiphase_hc_osi.wav	2	6	5	noise_calib_stim_RIGHT.wav	2	11	blb_dichoticlistening_da-pa.mp3	da	pa	1	right
6.6.1	win	2023-06-02	02:32:58	02:49:42	997445	6175e05636b79082f8d345c5	1	1	main_slash	24	advance_on_keypress_SLASH	136	stimuli_distractor_trianglediamonds.svg	stimuli_distractor_trianglediamonds.svg	33	no	57	0	804	6	5	antiphase_hc_osi.wav	2	6	5	noise_calib_stim_RIGHT.wav	2	11	blb_dichoticlistening_da-pa.mp3	da	pa	1	right
6.6.1	win	2023-06-02	02:32:58	02:49:44	999537	6175e05636b79082f8d345c5	1	1	main_slash	24	main_slash	137	stimuli_distractor_trianglediamonds.svg	stimuli_target_diamondsquares.svg	28	yes	53	1	634	6	5	antiphase_hc_osi.wav	2	6	5	noise_calib_stim_RIGHT.wav	2	11	blb_dichoticlistening_da-pa.mp3	da	pa	1	right
6.6.1	win	2023-06-02	02:32:58	02:49:44	999537	6175e05636b79082f8d345c5	1	1	main_slash	24	advance_on_keypress_SLASH	138	stimuli_distractor_trianglediamonds.svg	stimuli_target_diamondsquares.svg	28	yes	57	0	440	6	5	antiphase_hc_osi.wav	2	6	5	noise_calib_stim_RIGHT.wav	2	11	blb_dichoticlistening_da-pa.mp3	da	pa	1	right
6.6.1	win	2023-06-02	02:32:58	02:49:46	1001233	6175e05636b79082f8d345c5	1	1	main_slash	24	main_slash	139	stimuli_distractor_diamondtriangles.svg	stimuli_target_trianglerectangles.svg	29	yes	53	1	597	6	5	antiphase_hc_osi.wav	2	6	5	noise_calib_stim_RIGHT.wav	2	11	blb_dichoticlistening_da-pa.mp3	da	pa	1	right
6.6.1	win	2023-06-02	02:32:58	02:49:46	1001233	6175e05636b79082f8d345c5	1	1	main_slash	24	advance_on_keypress_SLASH	140	stimuli_distractor_diamondtriangles.svg	stimuli_target_trianglerectangles.svg	29	yes	57	0	516	6	5	antiphase_hc_osi.wav	2	6	5	noise_calib_stim_RIGHT.wav	2	11	blb_dichoticlistening_da-pa.mp3	da	pa	1	right
6.6.1	win	2023-06-02	02:32:58	02:49:48	1003049	6175e05636b79082f8d345c5	1	1	main_slash	24	main_slash	141	stimuli_distractor_diamondtriangles.svg	stimuli_distractor_trianglediamonds.svg	38	no	53	0	646	6	5	antiphase_hc_osi.wav	2	6	5	noise_calib_stim_RIGHT.wav	2	11	blb_dichoticlistening_da-pa.mp3	da	pa	1	right
6.6.1	win	2023-06-02	02:32:58	02:49:48	1003049	6175e05636b79082f8d345c5	1	1	main_slash	24	advance_on_keypress_SLASH	142	stimuli_distractor_diamondtriangles.svg	stimuli_distractor_trianglediamonds.svg	38	no	57	0	532	6	5	antiphase_hc_osi.wav	2	6	5	noise_calib_stim_RIGHT.wav	2	11	blb_dichoticlistening_da-pa.mp3	da	pa	1	right
6.6.1	win	2023-06-02	02:32:58	02:49:51	1006238	6175e05636b79082f8d345c5	1	1	main_slash	24	main_slash	143	stimuli_distractor_diamondtriangles.svg	stimuli_distractor_diamondtriangles.svg	39	no	0	1	2000	6	5	antiphase_hc_osi.wav	2	6	5	noise_calib_stim_RIGHT.wav	2	11	blb_dichoticlistening_da-pa.mp3	da	pa	1	right
6.6.1	win	2023-06-02	02:32:58	02:49:51	1006238	6175e05636b79082f8d345c5	1	1	main_slash	24	advance_on_keypress_SLASH	144	stimuli_distractor_diamondtriangles.svg	stimuli_distractor_diamondtriangles.svg	39	no	57	0	581	6	5	antiphase_hc_osi.wav	2	6	5	noise_calib_stim_RIGHT.wav	2	11	blb_dichoticlistening_da-pa.mp3	da	pa	1	right
6.6.1	win	2023-06-02	02:32:58	02:49:53	1008113	6175e05636b79082f8d345c5	1	1	main_slash	24	main_slash	145	stimuli_distractor_diamondtriangles.svg	stimuli_target_diamondsquares.svg	32	yes	53	1	644	6	5	antiphase_hc_osi.wav	2	6	5	noise_calib_stim_RIGHT.wav	2	11	blb_dichoticlistening_da-pa.mp3	da	pa	1	right
6.6.1	win	2023-06-02	02:32:58	02:49:53	1008113	6175e05636b79082f8d345c5	1	1	main_slash	24	advance_on_keypress_SLASH	146	stimuli_distractor_diamondtriangles.svg	stimuli_target_diamondsquares.svg	32	yes	57	0	505	6	5	antiphase_hc_osi.wav	2	6	5	noise_calib_stim_RIGHT.wav	2	11	blb_dichoticlistening_da-pa.mp3	da	pa	1	right
6.6.1	win	2023-06-02	02:32:58	02:49:54	1009906	6175e05636b79082f8d345c5	1	1	main_slash	24	main_slash	147	stimuli_target_trianglesquares.svg	stimuli_distractor_trianglediamonds.svg	18	yes	53	1	619	6	5	antiphase_hc_osi.wav	2	6	5	noise_calib_stim_RIGHT.wav	2	11	blb_dichoticlistening_da-pa.mp3	da	pa	1	right
6.6.1	win	2023-06-02	02:32:58	02:49:54	1009906	6175e05636b79082f8d345c5	1	1	main_slash	24	advance_on_keypress_SLASH	148	stimuli_target_trianglesquares.svg	stimuli_distractor_trianglediamonds.svg	18	yes	57	0	482	6	5	antiphase_hc_osi.wav	2	6	5	noise_calib_stim_RIGHT.wav	2	11	blb_dichoticlistening_da-pa.mp3	da	pa	1	right
6.6.1	win	2023-06-02	02:32:58	02:49:56	1011657	6175e05636b79082f8d345c5	1	1	main_slash	24	main_slash	149	stimuli_target_squaretriangles.svg	stimuli_distractor_trianglediamonds.svg	3	yes	53	1	621	6	5	antiphase_hc_osi.wav	2	6	5	noise_calib_stim_RIGHT.wav	2	11	blb_dichoticlistening_da-pa.mp3	da	pa	1	right
6.6.1	win	2023-06-02	02:32:58	02:49:56	1011657	6175e05636b79082f8d345c5	1	1	main_slash	24	advance_on_keypress_SLASH	150	stimuli_target_squaretriangles.svg	stimuli_distractor_trianglediamonds.svg	3	yes	57	0	476	6	5	antiphase_hc_osi.wav	2	6	5	noise_calib_stim_RIGHT.wav	2	11	blb_dichoticlistening_da-pa.mp3	da	pa	1	right
6.6.1	win	2023-06-02	02:32:58	02:49:59	1014786	6175e05636b79082f8d345c5	1	1	main_slash	24	main_slash	151	stimuli_distractor_trianglediamonds.svg	stimuli_distractor_trianglediamonds.svg	34	no	0	1	2000	6	5	antiphase_hc_osi.wav	2	6	5	noise_calib_stim_RIGHT.wav	2	11	blb_dichoticlistening_da-pa.mp3	da	pa	1	right
6.6.1	win	2023-06-02	02:32:58	02:49:59	1014786	6175e05636b79082f8d345c5	1	1	main_slash	24	advance_on_keypress_SLASH	152	stimuli_distractor_trianglediamonds.svg	stimuli_distractor_trianglediamonds.svg	34	no	57	0	407	6	5	antiphase_hc_osi.wav	2	6	5	noise_calib_stim_RIGHT.wav	2	11	blb_dichoticlistening_da-pa.mp3	da	pa	1	right
6.6.1	win	2023-06-02	02:32:58	02:50:01	1016521	6175e05636b79082f8d345c5	1	1	main_slash	24	main_slash	153	stimuli_distractor_diamondtriangles.svg	stimuli_target_squarediamonds.svg	16	yes	53	1	669	6	5	antiphase_hc_osi.wav	2	6	5	noise_calib_stim_RIGHT.wav	2	11	blb_dichoticlistening_da-pa.mp3	da	pa	1	right
6.6.1	win	2023-06-02	02:32:58	02:50:01	1016521	6175e05636b79082f8d345c5	1	1	main_slash	24	advance_on_keypress_SLASH	154	stimuli_distractor_diamondtriangles.svg	stimuli_target_squarediamonds.svg	16	yes	57	0	482	6	5	antiphase_hc_osi.wav	2	6	5	noise_calib_stim_RIGHT.wav	2	11	blb_dichoticlistening_da-pa.mp3	da	pa	1	right
6.6.1	win	2023-06-02	02:32:58	02:50:03	1018289	6175e05636b79082f8d345c5	1	1	main_slash	24	main_slash	155	stimuli_target_squarediamonds.svg	stimuli_distractor_trianglediamonds.svg	4	yes	53	1	637	6	5	antiphase_hc_osi.wav	2	6	5	noise_calib_stim_RIGHT.wav	2	11	blb_dichoticlistening_da-pa.mp3	da	pa	1	right
6.6.1	win	2023-06-02	02:32:58	02:50:03	1018289	6175e05636b79082f8d345c5	1	1	main_slash	24	advance_on_keypress_SLASH	156	stimuli_target_squarediamonds.svg	stimuli_distractor_trianglediamonds.svg	4	yes	57	0	427	6	5	antiphase_hc_osi.wav	2	6	5	noise_calib_stim_RIGHT.wav	2	11	blb_dichoticlistening_da-pa.mp3	da	pa	1	right
6.6.1	win	2023-06-02	02:32:58	02:50:05	1019977	6175e05636b79082f8d345c5	1	1	main_slash	24	main_slash	157	stimuli_target_rectangletriangles.svg	stimuli_distractor_trianglediamonds.svg	1	yes	53	1	608	6	5	antiphase_hc_osi.wav	2	6	5	noise_calib_stim_RIGHT.wav	2	11	blb_dichoticlistening_da-pa.mp3	da	pa	1	right
6.6.1	win	2023-06-02	02:32:58	02:50:05	1019977	6175e05636b79082f8d345c5	1	1	main_slash	24	advance_on_keypress_SLASH	158	stimuli_target_rectangletriangles.svg	stimuli_distractor_trianglediamonds.svg	1	yes	57	0	447	6	5	antiphase_hc_osi.wav	2	6	5	noise_calib_stim_RIGHT.wav	2	11	blb_dichoticlistening_da-pa.mp3	da	pa	1	right
6.6.1	win	2023-06-02	02:32:58	02:50:06	1021721	6175e05636b79082f8d345c5	1	1	main_slash	24	main_slash	159	stimuli_target_diamondsquares.svg	stimuli_distractor_diamondtriangles.svg	24	yes	53	1	636	6	5	antiphase_hc_osi.wav	2	6	5	noise_calib_stim_RIGHT.wav	2	11	blb_dichoticlistening_da-pa.mp3	da	pa	1	right
6.6.1	win	2023-06-02	02:32:58	02:50:06	1021721	6175e05636b79082f8d345c5	1	1	main_slash	24	advance_on_keypress_SLASH	160	stimuli_target_diamondsquares.svg	stimuli_distractor_diamondtriangles.svg	24	yes	57	0	410	6	5	antiphase_hc_osi.wav	2	6	5	noise_calib_stim_RIGHT.wav	2	11	blb_dichoticlistening_da-pa.mp3	da	pa	1	right
6.6.1	win	2023-06-02	02:32:58	02:50:37	1052841	6175e05636b79082f8d345c5	1	1	practice_z	26	practice_z	1	stimuli_target_squarediamonds.svg	stimuli_distractor_trianglediamonds.svg	5	yes	44	1	715	6	5	antiphase_hc_osi.wav	2	6	5	noise_calib_stim_RIGHT.wav	2	11	blb_dichoticlistening_da-pa.mp3	da	pa	1	right
6.6.1	win	2023-06-02	02:32:58	02:50:37	1052841	6175e05636b79082f8d345c5	1	1	practice_z	26	advance_on_keypress_ZEE	2	stimuli_target_squarediamonds.svg	stimuli_distractor_trianglediamonds.svg	5	yes	57	0	573	6	5	antiphase_hc_osi.wav	2	6	5	noise_calib_stim_RIGHT.wav	2	11	blb_dichoticlistening_da-pa.mp3	da	pa	1	right
6.6.1	win	2023-06-02	02:32:58	02:50:40	1055585	6175e05636b79082f8d345c5	1	1	practice_z	26	practice_z	3	stimuli_distractor_trianglediamonds.svg	stimuli_target_squarediamonds.svg	11	yes	44	1	493	6	5	antiphase_hc_osi.wav	2	6	5	noise_calib_stim_RIGHT.wav	2	11	blb_dichoticlistening_da-pa.mp3	da	pa	1	right
6.6.1	win	2023-06-02	02:32:58	02:50:40	1055585	6175e05636b79082f8d345c5	1	1	practice_z	26	advance_on_keypress_ZEE	4	stimuli_distractor_trianglediamonds.svg	stimuli_target_squarediamonds.svg	11	yes	57	0	432	6	5	antiphase_hc_osi.wav	2	6	5	noise_calib_stim_RIGHT.wav	2	11	blb_dichoticlistening_da-pa.mp3	da	pa	1	right
6.6.1	win	2023-06-02	02:32:58	02:50:44	1059676	6175e05636b79082f8d345c5	1	1	practice_z	26	practice_z	5	stimuli_distractor_diamondtriangles.svg	stimuli_distractor_diamondtriangles.svg	13	no	0	1	2000	6	5	antiphase_hc_osi.wav	2	6	5	noise_calib_stim_RIGHT.wav	2	11	blb_dichoticlistening_da-pa.mp3	da	pa	1	right
6.6.1	win	2023-06-02	02:32:58	02:50:44	1059676	6175e05636b79082f8d345c5	1	1	practice_z	26	advance_on_keypress_ZEE	6	stimuli_distractor_diamondtriangles.svg	stimuli_distractor_diamondtriangles.svg	13	no	57	0	660	6	5	antiphase_hc_osi.wav	2	6	5	noise_calib_stim_RIGHT.wav	2	11	blb_dichoticlistening_da-pa.mp3	da	pa	1	right
6.6.1	win	2023-06-02	02:32:58	02:50:49	1064009	6175e05636b79082f8d345c5	1	1	practice_z	26	practice_z	7	stimuli_distractor_trianglediamonds.svg	stimuli_distractor_diamondtriangles.svg	16	no	0	1	2000	6	5	antiphase_hc_osi.wav	2	6	5	noise_calib_stim_RIGHT.wav	2	11	blb_dichoticlistening_da-pa.mp3	da	pa	1	right
6.6.1	win	2023-06-02	02:32:58	02:50:49	1064009	6175e05636b79082f8d345c5	1	1	practice_z	26	advance_on_keypress_ZEE	8	stimuli_distractor_trianglediamonds.svg	stimuli_distractor_diamondtriangles.svg	16	no	57	0	623	6	5	antiphase_hc_osi.wav	2	6	5	noise_calib_stim_RIGHT.wav	2	11	blb_dichoticlistening_da-pa.mp3	da	pa	1	right
6.6.1	win	2023-06-02	02:32:58	02:50:51	1066753	6175e05636b79082f8d345c5	1	1	practice_z	26	practice_z	9	stimuli_distractor_trianglediamonds.svg	stimuli_target_rectanglediamonds.svg	10	yes	44	1	444	6	5	antiphase_hc_osi.wav	2	6	5	noise_calib_stim_RIGHT.wav	2	11	blb_dichoticlistening_da-pa.mp3	da	pa	1	right
6.6.1	win	2023-06-02	02:32:58	02:50:51	1066753	6175e05636b79082f8d345c5	1	1	practice_z	26	advance_on_keypress_ZEE	10	stimuli_distractor_trianglediamonds.svg	stimuli_target_rectanglediamonds.svg	10	yes	57	0	474	6	5	antiphase_hc_osi.wav	2	6	5	noise_calib_stim_RIGHT.wav	2	11	blb_dichoticlistening_da-pa.mp3	da	pa	1	right
6.6.1	win	2023-06-02	02:32:58	02:50:54	1069617	6175e05636b79082f8d345c5	1	1	practice_z	26	practice_z	11	stimuli_distractor_trianglediamonds.svg	stimuli_target_diamondrectangles.svg	12	yes	44	1	725	6	5	antiphase_hc_osi.wav	2	6	5	noise_calib_stim_RIGHT.wav	2	11	blb_dichoticlistening_da-pa.mp3	da	pa	1	right
6.6.1	win	2023-06-02	02:32:58	02:50:54	1069617	6175e05636b79082f8d345c5	1	1	practice_z	26	advance_on_keypress_ZEE	12	stimuli_distractor_trianglediamonds.svg	stimuli_target_diamondrectangles.svg	12	yes	57	0	19	6	5	antiphase_hc_osi.wav	2	6	5	noise_calib_stim_RIGHT.wav	2	11	blb_dichoticlistening_da-pa.mp3	da	pa	1	right
6.6.1	win	2023-06-02	02:32:58	02:50:57	1071977	6175e05636b79082f8d345c5	1	1	practice_z	26	practice_z	13	stimuli_target_diamondsquares.svg	stimuli_distractor_trianglediamonds.svg	6	yes	44	1	652	6	5	antiphase_hc_osi.wav	2	6	5	noise_calib_stim_RIGHT.wav	2	11	blb_dichoticlistening_da-pa.mp3	da	pa	1	right
6.6.1	win	2023-06-02	02:32:58	02:50:57	1071977	6175e05636b79082f8d345c5	1	1	practice_z	26	advance_on_keypress_ZEE	14	stimuli_target_diamondsquares.svg	stimuli_distractor_trianglediamonds.svg	6	yes	57	0	392	6	5	antiphase_hc_osi.wav	2	6	5	noise_calib_stim_RIGHT.wav	2	11	blb_dichoticlistening_da-pa.mp3	da	pa	1	right
