build	computer.platform	date	time	timestamp	time_elapsed_ms	subject	group	session	blockcode	blocknum	trialcode	trialnum	stimulus_left	stimulus_right	stim_index	target_present	response	correct	latency	headphonecheck_countTestTrials	headphonecheck_index	headphonecheck_testSound	headphonecheck_correctResponse	stereocheck_countTestTrials	stereocheck_index	stereocheck_testSound	stereocheck_correctResponse	DL_index	DL_soundfile	DL_leftSound	DL_rightSound	DL_dualSound	DL_choice
6.6.1	win	2023-06-12	14:11:42	14:19:45	432573	5b5cff1c9351420001b78419	4	1	practice_z	5	practice_z	1	stimuli_distractor_trianglediamonds.svg	stimuli_target_diamondrectangles.svg	12	yes	0	0	2003	0	0			0	0			1				0	
6.6.1	win	2023-06-12	14:11:42	14:19:45	432573	5b5cff1c9351420001b78419	4	1	practice_z	5	advance_on_keypress_ZEE	2	stimuli_distractor_trianglediamonds.svg	stimuli_target_diamondrectangles.svg	12	yes	57	0	1399	0	0			0	0			1				0	
6.6.1	win	2023-06-12	14:11:42	14:19:49	436127	5b5cff1c9351420001b78419	4	1	practice_z	5	practice_z	3	stimuli_target_diamondsquares.svg	stimuli_distractor_diamondtriangles.svg	3	yes	44	1	530	0	0			0	0			1				0	
6.6.1	win	2023-06-12	14:11:42	14:19:49	436127	5b5cff1c9351420001b78419	4	1	practice_z	5	advance_on_keypress_ZEE	4	stimuli_target_diamondsquares.svg	stimuli_distractor_diamondtriangles.svg	3	yes	57	0	875	0	0			0	0			1				0	
6.6.1	win	2023-06-12	14:11:42	14:19:54	440621	5b5cff1c9351420001b78419	4	1	practice_z	5	practice_z	5	stimuli_distractor_diamondtriangles.svg	stimuli_distractor_trianglediamonds.svg	14	no	0	1	2003	0	0			0	0			1				0	
6.6.1	win	2023-06-12	14:11:42	14:19:54	440621	5b5cff1c9351420001b78419	4	1	practice_z	5	advance_on_keypress_ZEE	6	stimuli_distractor_diamondtriangles.svg	stimuli_distractor_trianglediamonds.svg	14	no	57	0	478	0	0			0	0			1				0	
6.6.1	win	2023-06-12	14:11:42	14:19:56	443495	5b5cff1c9351420001b78419	4	1	practice_z	5	practice_z	7	stimuli_target_squarediamonds.svg	stimuli_distractor_trianglediamonds.svg	5	yes	44	1	780	0	0			0	0			1				0	
6.6.1	win	2023-06-12	14:11:42	14:19:56	443495	5b5cff1c9351420001b78419	4	1	practice_z	5	advance_on_keypress_ZEE	8	stimuli_target_squarediamonds.svg	stimuli_distractor_trianglediamonds.svg	5	yes	57	0	1348	0	0			0	0			1				0	
6.6.1	win	2023-06-12	14:11:42	14:20:00	447431	5b5cff1c9351420001b78419	4	1	practice_z	5	practice_z	9	stimuli_target_squarediamonds.svg	stimuli_distractor_diamondtriangles.svg	2	yes	44	1	973	0	0			0	0			1				0	
6.6.1	win	2023-06-12	14:11:42	14:20:00	447431	5b5cff1c9351420001b78419	4	1	practice_z	5	advance_on_keypress_ZEE	10	stimuli_target_squarediamonds.svg	stimuli_distractor_diamondtriangles.svg	2	yes	57	0	610	0	0			0	0			1				0	
6.6.1	win	2023-06-12	14:11:42	14:20:04	450608	5b5cff1c9351420001b78419	4	1	practice_z	5	practice_z	11	stimuli_distractor_trianglediamonds.svg	stimuli_target_rectanglediamonds.svg	10	yes	44	1	948	0	0			0	0			1				0	
6.6.1	win	2023-06-12	14:11:42	14:20:04	450608	5b5cff1c9351420001b78419	4	1	practice_z	5	advance_on_keypress_ZEE	12	stimuli_distractor_trianglediamonds.svg	stimuli_target_rectanglediamonds.svg	10	yes	57	0	853	0	0			0	0			1				0	
6.6.1	win	2023-06-12	14:11:42	14:20:07	453944	5b5cff1c9351420001b78419	4	1	practice_z	5	practice_z	13	stimuli_target_rectanglediamonds.svg	stimuli_distractor_diamondtriangles.svg	1	yes	44	1	867	0	0			0	0			1				0	
6.6.1	win	2023-06-12	14:11:42	14:20:07	453944	5b5cff1c9351420001b78419	4	1	practice_z	5	advance_on_keypress_ZEE	14	stimuli_target_rectanglediamonds.svg	stimuli_distractor_diamondtriangles.svg	1	yes	57	0	536	0	0			0	0			1				0	
6.6.1	win	2023-06-12	14:11:42	14:20:11	458101	5b5cff1c9351420001b78419	4	1	practice_z	5	practice_z	15	stimuli_distractor_diamondtriangles.svg	stimuli_target_diamondrectangles.svg	8	yes	0	0	2003	0	0			0	0			1				0	
6.6.1	win	2023-06-12	14:11:42	14:20:11	458101	5b5cff1c9351420001b78419	4	1	practice_z	5	advance_on_keypress_ZEE	16	stimuli_distractor_diamondtriangles.svg	stimuli_target_diamondrectangles.svg	8	yes	57	0	712	0	0			0	0			1				0	
6.6.1	win	2023-06-12	14:11:42	14:20:14	461330	5b5cff1c9351420001b78419	4	1	practice_z	5	practice_z	17	stimuli_distractor_trianglediamonds.svg	stimuli_distractor_diamondtriangles.svg	16	no	44	0	905	0	0			0	0			1				0	
6.6.1	win	2023-06-12	14:11:42	14:20:14	461330	5b5cff1c9351420001b78419	4	1	practice_z	5	advance_on_keypress_ZEE	18	stimuli_distractor_trianglediamonds.svg	stimuli_distractor_diamondtriangles.svg	16	no	57	0	699	0	0			0	0			1				0	
6.6.1	win	2023-06-12	14:11:42	14:20:17	464394	5b5cff1c9351420001b78419	4	1	practice_z	5	practice_z	19	stimuli_distractor_trianglediamonds.svg	stimuli_target_squarediamonds.svg	11	yes	44	1	755	0	0			0	0			1				0	
6.6.1	win	2023-06-12	14:11:42	14:20:17	464394	5b5cff1c9351420001b78419	4	1	practice_z	5	advance_on_keypress_ZEE	20	stimuli_distractor_trianglediamonds.svg	stimuli_target_squarediamonds.svg	11	yes	57	0	534	0	0			0	0			1				0	
6.6.1	win	2023-06-12	14:11:42	14:20:20	467586	5b5cff1c9351420001b78419	4	1	practice_z	5	practice_z	21	stimuli_distractor_diamondtriangles.svg	stimuli_target_trianglerectangles.svg	9	yes	44	1	1044	0	0			0	0			1				0	
6.6.1	win	2023-06-12	14:11:42	14:20:20	467586	5b5cff1c9351420001b78419	4	1	practice_z	5	advance_on_keypress_ZEE	22	stimuli_distractor_diamondtriangles.svg	stimuli_target_trianglerectangles.svg	9	yes	57	0	699	0	0			0	0			1				0	
6.6.1	win	2023-06-12	14:11:42	14:20:25	471802	5b5cff1c9351420001b78419	4	1	practice_z	5	practice_z	23	stimuli_distractor_trianglediamonds.svg	stimuli_distractor_trianglediamonds.svg	15	no	44	0	1899	0	0			0	0			1				0	
6.6.1	win	2023-06-12	14:11:42	14:20:25	471802	5b5cff1c9351420001b78419	4	1	practice_z	5	advance_on_keypress_ZEE	24	stimuli_distractor_trianglediamonds.svg	stimuli_distractor_trianglediamonds.svg	15	no	57	0	556	0	0			0	0			1				0	
6.6.1	win	2023-06-12	14:11:42	14:20:29	475976	5b5cff1c9351420001b78419	4	1	practice_z	5	practice_z	25	stimuli_target_diamondsquares.svg	stimuli_distractor_trianglediamonds.svg	6	yes	0	0	2003	0	0			0	0			1				0	
6.6.1	win	2023-06-12	14:11:42	14:20:29	475976	5b5cff1c9351420001b78419	4	1	practice_z	5	advance_on_keypress_ZEE	26	stimuli_target_diamondsquares.svg	stimuli_distractor_trianglediamonds.svg	6	yes	57	0	415	0	0			0	0			1				0	
6.6.1	win	2023-06-12	14:11:42	14:20:32	478907	5b5cff1c9351420001b78419	4	1	practice_z	5	practice_z	27	stimuli_distractor_diamondtriangles.svg	stimuli_distractor_diamondtriangles.svg	13	no	44	0	899	0	0			0	0			1				0	
6.6.1	win	2023-06-12	14:11:42	14:20:32	478907	5b5cff1c9351420001b78419	4	1	practice_z	5	advance_on_keypress_ZEE	28	stimuli_distractor_diamondtriangles.svg	stimuli_distractor_diamondtriangles.svg	13	no	57	0	413	0	0			0	0			1				0	
6.6.1	win	2023-06-12	14:11:42	14:20:35	481668	5b5cff1c9351420001b78419	4	1	practice_z	5	practice_z	29	stimuli_distractor_diamondtriangles.svg	stimuli_target_rectangletriangles.svg	7	yes	44	1	736	0	0			0	0			1				0	
6.6.1	win	2023-06-12	14:11:42	14:20:35	481668	5b5cff1c9351420001b78419	4	1	practice_z	5	advance_on_keypress_ZEE	30	stimuli_distractor_diamondtriangles.svg	stimuli_target_rectangletriangles.svg	7	yes	57	0	425	0	0			0	0			1				0	
6.6.1	win	2023-06-12	14:11:42	14:20:37	484420	5b5cff1c9351420001b78419	4	1	practice_z	5	practice_z	31	stimuli_target_rectanglediamonds.svg	stimuli_distractor_trianglediamonds.svg	4	yes	44	1	710	0	0			0	0			1				0	
6.6.1	win	2023-06-12	14:11:42	14:20:37	484420	5b5cff1c9351420001b78419	4	1	practice_z	5	advance_on_keypress_ZEE	32	stimuli_target_rectanglediamonds.svg	stimuli_distractor_trianglediamonds.svg	4	yes	57	0	300	0	0			0	0			1				0	
6.6.1	win	2023-06-12	14:11:42	14:20:46	493337	5b5cff1c9351420001b78419	4	1	main_z	7	main_z	1	stimuli_target_diamondsquares.svg	stimuli_distractor_diamondtriangles.svg	24	yes	0	0	2003	0	0			0	0			1				0	
6.6.1	win	2023-06-12	14:11:42	14:20:46	493337	5b5cff1c9351420001b78419	4	1	main_z	7	advance_on_keypress_ZEE	2	stimuli_target_diamondsquares.svg	stimuli_distractor_diamondtriangles.svg	24	yes	57	0	1360	0	0			0	0			1				0	
6.6.1	win	2023-06-12	14:11:42	14:20:50	497316	5b5cff1c9351420001b78419	4	1	main_z	7	main_z	3	stimuli_distractor_diamondtriangles.svg	stimuli_target_trianglerectangles.svg	29	yes	0	0	2003	0	0			0	0			1				0	
6.6.1	win	2023-06-12	14:11:42	14:20:50	497316	5b5cff1c9351420001b78419	4	1	main_z	7	advance_on_keypress_ZEE	4	stimuli_distractor_diamondtriangles.svg	stimuli_target_trianglerectangles.svg	29	yes	57	0	501	0	0			0	0			1				0	
6.6.1	win	2023-06-12	14:11:42	14:20:53	499773	5b5cff1c9351420001b78419	4	1	main_z	7	main_z	5	stimuli_distractor_trianglediamonds.svg	stimuli_target_trianglerectangles.svg	25	yes	44	1	1342	0	0			0	0			1				0	
6.6.1	win	2023-06-12	14:11:42	14:20:53	499773	5b5cff1c9351420001b78419	4	1	main_z	7	advance_on_keypress_ZEE	6	stimuli_distractor_trianglediamonds.svg	stimuli_target_trianglerectangles.svg	25	yes	57	0	986	0	0			0	0			1				0	
6.6.1	win	2023-06-12	14:11:42	14:20:56	503379	5b5cff1c9351420001b78419	4	1	main_z	7	main_z	7	stimuli_distractor_trianglediamonds.svg	stimuli_distractor_diamondtriangles.svg	35	no	0	1	2003	0	0			0	0			1				0	
6.6.1	win	2023-06-12	14:11:42	14:20:56	503379	5b5cff1c9351420001b78419	4	1	main_z	7	advance_on_keypress_ZEE	8	stimuli_distractor_trianglediamonds.svg	stimuli_distractor_diamondtriangles.svg	35	no	57	0	623	0	0			0	0			1				0	
6.6.1	win	2023-06-12	14:11:42	14:20:59	505598	5b5cff1c9351420001b78419	4	1	main_z	7	main_z	9	stimuli_distractor_diamondtriangles.svg	stimuli_target_diamondsquares.svg	32	yes	44	1	986	0	0			0	0			1				0	
6.6.1	win	2023-06-12	14:11:42	14:20:59	505598	5b5cff1c9351420001b78419	4	1	main_z	7	advance_on_keypress_ZEE	10	stimuli_distractor_diamondtriangles.svg	stimuli_target_diamondsquares.svg	32	yes	57	0	1081	0	0			0	0			1				0	
6.6.1	win	2023-06-12	14:11:42	14:21:02	509295	5b5cff1c9351420001b78419	4	1	main_z	7	main_z	11	stimuli_distractor_diamondtriangles.svg	stimuli_distractor_diamondtriangles.svg	40	no	0	1	2003	0	0			0	0			1				0	
6.6.1	win	2023-06-12	14:11:42	14:21:02	509295	5b5cff1c9351420001b78419	4	1	main_z	7	advance_on_keypress_ZEE	12	stimuli_distractor_diamondtriangles.svg	stimuli_distractor_diamondtriangles.svg	40	no	57	0	546	0	0			0	0			1				0	
6.6.1	win	2023-06-12	14:11:42	14:21:04	511190	5b5cff1c9351420001b78419	4	1	main_z	7	main_z	13	stimuli_target_trianglerectangles.svg	stimuli_distractor_trianglediamonds.svg	17	yes	44	1	738	0	0			0	0			1				0	
6.6.1	win	2023-06-12	14:11:42	14:21:04	511190	5b5cff1c9351420001b78419	4	1	main_z	7	advance_on_keypress_ZEE	14	stimuli_target_trianglerectangles.svg	stimuli_distractor_trianglediamonds.svg	17	yes	57	0	891	0	0			0	0			1				0	
6.6.1	win	2023-06-12	14:11:42	14:21:06	513582	5b5cff1c9351420001b78419	4	1	main_z	7	main_z	15	stimuli_distractor_trianglediamonds.svg	stimuli_target_diamondrectangles.svg	27	yes	44	1	888	0	0			0	0			1				0	
6.6.1	win	2023-06-12	14:11:42	14:21:06	513582	5b5cff1c9351420001b78419	4	1	main_z	7	advance_on_keypress_ZEE	16	stimuli_distractor_trianglediamonds.svg	stimuli_target_diamondrectangles.svg	27	yes	57	0	735	0	0			0	0			1				0	
6.6.1	win	2023-06-12	14:11:42	14:21:09	515871	5b5cff1c9351420001b78419	4	1	main_z	7	main_z	17	stimuli_target_diamondrectangles.svg	stimuli_distractor_diamondtriangles.svg	23	yes	44	1	946	0	0			0	0			1				0	
6.6.1	win	2023-06-12	14:11:42	14:21:09	515871	5b5cff1c9351420001b78419	4	1	main_z	7	advance_on_keypress_ZEE	18	stimuli_target_diamondrectangles.svg	stimuli_distractor_diamondtriangles.svg	23	yes	57	0	819	0	0			0	0			1				0	
6.6.1	win	2023-06-12	14:11:42	14:21:12	519310	5b5cff1c9351420001b78419	4	1	main_z	7	main_z	19	stimuli_distractor_trianglediamonds.svg	stimuli_target_diamondsquares.svg	28	yes	0	0	2003	0	0			0	0			1				0	
6.6.1	win	2023-06-12	14:11:42	14:21:12	519310	5b5cff1c9351420001b78419	4	1	main_z	7	advance_on_keypress_ZEE	20	stimuli_distractor_trianglediamonds.svg	stimuli_target_diamondsquares.svg	28	yes	57	0	605	0	0			0	0			1				0	
6.6.1	win	2023-06-12	14:11:42	14:21:15	522532	5b5cff1c9351420001b78419	4	1	main_z	7	main_z	21	stimuli_distractor_diamondtriangles.svg	stimuli_distractor_diamondtriangles.svg	39	no	0	1	2003	0	0			0	0			1				0	
6.6.1	win	2023-06-12	14:11:42	14:21:15	522532	5b5cff1c9351420001b78419	4	1	main_z	7	advance_on_keypress_ZEE	22	stimuli_distractor_diamondtriangles.svg	stimuli_distractor_diamondtriangles.svg	39	no	57	0	648	0	0			0	0			1				0	
6.6.1	win	2023-06-12	14:11:42	14:21:17	524188	5b5cff1c9351420001b78419	4	1	main_z	7	main_z	23	stimuli_target_squaretriangles.svg	stimuli_distractor_diamondtriangles.svg	7	yes	44	1	391	0	0			0	0			1				0	
6.6.1	win	2023-06-12	14:11:42	14:21:17	524188	5b5cff1c9351420001b78419	4	1	main_z	7	advance_on_keypress_ZEE	24	stimuli_target_squaretriangles.svg	stimuli_distractor_diamondtriangles.svg	7	yes	57	0	1012	0	0			0	0			1				0	
6.6.1	win	2023-06-12	14:11:42	14:21:19	526504	5b5cff1c9351420001b78419	4	1	main_z	7	main_z	25	stimuli_target_trianglerectangles.svg	stimuli_distractor_diamondtriangles.svg	21	yes	44	1	683	0	0			0	0			1				0	
6.6.1	win	2023-06-12	14:11:42	14:21:19	526504	5b5cff1c9351420001b78419	4	1	main_z	7	advance_on_keypress_ZEE	26	stimuli_target_trianglerectangles.svg	stimuli_distractor_diamondtriangles.svg	21	yes	57	0	692	0	0			0	0			1				0	
6.6.1	win	2023-06-12	14:11:42	14:21:21	528560	5b5cff1c9351420001b78419	4	1	main_z	7	main_z	27	stimuli_target_rectangletriangles.svg	stimuli_distractor_diamondtriangles.svg	5	yes	44	1	753	0	0			0	0			1				0	
6.6.1	win	2023-06-12	14:11:42	14:21:21	528560	5b5cff1c9351420001b78419	4	1	main_z	7	advance_on_keypress_ZEE	28	stimuli_target_rectangletriangles.svg	stimuli_distractor_diamondtriangles.svg	5	yes	57	0	636	0	0			0	0			1				0	
6.6.1	win	2023-06-12	14:11:42	14:21:24	530632	5b5cff1c9351420001b78419	4	1	main_z	7	main_z	29	stimuli_target_diamondsquares.svg	stimuli_distractor_trianglediamonds.svg	20	yes	44	1	825	0	0			0	0			1				0	
6.6.1	win	2023-06-12	14:11:42	14:21:24	530632	5b5cff1c9351420001b78419	4	1	main_z	7	advance_on_keypress_ZEE	30	stimuli_target_diamondsquares.svg	stimuli_distractor_trianglediamonds.svg	20	yes	57	0	520	0	0			0	0			1				0	
6.6.1	win	2023-06-12	14:11:42	14:21:26	532664	5b5cff1c9351420001b78419	4	1	main_z	7	main_z	31	stimuli_distractor_diamondtriangles.svg	stimuli_target_trianglesquares.svg	30	yes	44	1	892	0	0			0	0			1				0	
6.6.1	win	2023-06-12	14:11:42	14:21:26	532664	5b5cff1c9351420001b78419	4	1	main_z	7	advance_on_keypress_ZEE	32	stimuli_distractor_diamondtriangles.svg	stimuli_target_trianglesquares.svg	30	yes	57	0	773	0	0			0	0			1				0	
6.6.1	win	2023-06-12	14:11:42	14:21:28	534697	5b5cff1c9351420001b78419	4	1	main_z	7	main_z	33	stimuli_distractor_diamondtriangles.svg	stimuli_target_squaretriangles.svg	15	yes	44	1	647	0	0			0	0			1				0	
6.6.1	win	2023-06-12	14:11:42	14:21:28	534697	5b5cff1c9351420001b78419	4	1	main_z	7	advance_on_keypress_ZEE	34	stimuli_distractor_diamondtriangles.svg	stimuli_target_squaretriangles.svg	15	yes	57	0	522	0	0			0	0			1				0	
6.6.1	win	2023-06-12	14:11:42	14:21:30	536625	5b5cff1c9351420001b78419	4	1	main_z	7	main_z	35	stimuli_distractor_diamondtriangles.svg	stimuli_target_rectangletriangles.svg	13	yes	44	1	790	0	0			0	0			1				0	
6.6.1	win	2023-06-12	14:11:42	14:21:30	536625	5b5cff1c9351420001b78419	4	1	main_z	7	advance_on_keypress_ZEE	36	stimuli_distractor_diamondtriangles.svg	stimuli_target_rectangletriangles.svg	13	yes	57	0	520	0	0			0	0			1				0	
6.6.1	win	2023-06-12	14:11:42	14:21:31	538505	5b5cff1c9351420001b78419	4	1	main_z	7	main_z	37	stimuli_distractor_diamondtriangles.svg	stimuli_target_rectanglediamonds.svg	14	yes	44	1	740	0	0			0	0			1				0	
6.6.1	win	2023-06-12	14:11:42	14:21:31	538505	5b5cff1c9351420001b78419	4	1	main_z	7	advance_on_keypress_ZEE	38	stimuli_distractor_diamondtriangles.svg	stimuli_target_rectanglediamonds.svg	14	yes	57	0	494	0	0			0	0			1				0	
6.6.1	win	2023-06-12	14:11:42	14:21:35	541615	5b5cff1c9351420001b78419	4	1	main_z	7	main_z	39	stimuli_distractor_diamondtriangles.svg	stimuli_distractor_trianglediamonds.svg	38	no	0	1	2003	0	0			0	0			1				0	
6.6.1	win	2023-06-12	14:11:42	14:21:35	541615	5b5cff1c9351420001b78419	4	1	main_z	7	advance_on_keypress_ZEE	40	stimuli_distractor_diamondtriangles.svg	stimuli_distractor_trianglediamonds.svg	38	no	57	0	550	0	0			0	0			1				0	
6.6.1	win	2023-06-12	14:11:42	14:21:36	543562	5b5cff1c9351420001b78419	4	1	main_z	7	main_z	41	stimuli_target_squarediamonds.svg	stimuli_distractor_diamondtriangles.svg	8	yes	44	1	783	0	0			0	0			1				0	
6.6.1	win	2023-06-12	14:11:42	14:21:36	543562	5b5cff1c9351420001b78419	4	1	main_z	7	advance_on_keypress_ZEE	42	stimuli_target_squarediamonds.svg	stimuli_distractor_diamondtriangles.svg	8	yes	57	0	590	0	0			0	0			1				0	
6.6.1	win	2023-06-12	14:11:42	14:21:38	545586	5b5cff1c9351420001b78419	4	1	main_z	7	main_z	43	stimuli_distractor_trianglediamonds.svg	stimuli_target_squarediamonds.svg	12	yes	44	1	821	0	0			0	0			1				0	
6.6.1	win	2023-06-12	14:11:42	14:21:38	545586	5b5cff1c9351420001b78419	4	1	main_z	7	advance_on_keypress_ZEE	44	stimuli_distractor_trianglediamonds.svg	stimuli_target_squarediamonds.svg	12	yes	57	0	634	0	0			0	0			1				0	
6.6.1	win	2023-06-12	14:11:42	14:21:42	548838	5b5cff1c9351420001b78419	4	1	main_z	7	main_z	45	stimuli_distractor_diamondtriangles.svg	stimuli_distractor_trianglediamonds.svg	37	no	0	1	2003	0	0			0	0			1				0	
6.6.1	win	2023-06-12	14:11:42	14:21:42	548838	5b5cff1c9351420001b78419	4	1	main_z	7	advance_on_keypress_ZEE	46	stimuli_distractor_diamondtriangles.svg	stimuli_distractor_trianglediamonds.svg	37	no	57	0	448	0	0			0	0			1				0	
6.6.1	win	2023-06-12	14:11:42	14:21:44	550898	5b5cff1c9351420001b78419	4	1	main_z	7	main_z	47	stimuli_distractor_diamondtriangles.svg	stimuli_target_diamondrectangles.svg	31	yes	44	1	1001	0	0			0	0			1				0	
6.6.1	win	2023-06-12	14:11:42	14:21:44	550898	5b5cff1c9351420001b78419	4	1	main_z	7	advance_on_keypress_ZEE	48	stimuli_distractor_diamondtriangles.svg	stimuli_target_diamondrectangles.svg	31	yes	57	0	546	0	0			0	0			1				0	
6.6.1	win	2023-06-12	14:11:42	14:21:46	552795	5b5cff1c9351420001b78419	4	1	main_z	7	main_z	49	stimuli_target_rectanglediamonds.svg	stimuli_distractor_diamondtriangles.svg	6	yes	44	1	738	0	0			0	0			1				0	
6.6.1	win	2023-06-12	14:11:42	14:21:46	552795	5b5cff1c9351420001b78419	4	1	main_z	7	advance_on_keypress_ZEE	50	stimuli_target_rectanglediamonds.svg	stimuli_distractor_diamondtriangles.svg	6	yes	57	0	491	0	0			0	0			1				0	
6.6.1	win	2023-06-12	14:11:42	14:21:48	554619	5b5cff1c9351420001b78419	4	1	main_z	7	main_z	51	stimuli_target_squarediamonds.svg	stimuli_distractor_trianglediamonds.svg	4	yes	44	1	722	0	0			0	0			1				0	
6.6.1	win	2023-06-12	14:11:42	14:21:48	554619	5b5cff1c9351420001b78419	4	1	main_z	7	advance_on_keypress_ZEE	52	stimuli_target_squarediamonds.svg	stimuli_distractor_trianglediamonds.svg	4	yes	57	0	521	0	0			0	0			1				0	
6.6.1	win	2023-06-12	14:11:42	14:21:49	556547	5b5cff1c9351420001b78419	4	1	main_z	7	main_z	53	stimuli_distractor_trianglediamonds.svg	stimuli_target_rectangletriangles.svg	9	yes	44	1	789	0	0			0	0			1				0	
6.6.1	win	2023-06-12	14:11:42	14:21:49	556547	5b5cff1c9351420001b78419	4	1	main_z	7	advance_on_keypress_ZEE	54	stimuli_distractor_trianglediamonds.svg	stimuli_target_rectangletriangles.svg	9	yes	57	0	477	0	0			0	0			1				0	
6.6.1	win	2023-06-12	14:11:42	14:21:53	559636	5b5cff1c9351420001b78419	4	1	main_z	7	main_z	55	stimuli_distractor_trianglediamonds.svg	stimuli_distractor_trianglediamonds.svg	34	no	0	1	2003	0	0			0	0			1				0	
6.6.1	win	2023-06-12	14:11:42	14:21:53	559636	5b5cff1c9351420001b78419	4	1	main_z	7	advance_on_keypress_ZEE	56	stimuli_distractor_trianglediamonds.svg	stimuli_distractor_trianglediamonds.svg	34	no	57	0	363	0	0			0	0			1				0	
6.6.1	win	2023-06-12	14:11:42	14:21:54	561379	5b5cff1c9351420001b78419	4	1	main_z	7	main_z	57	stimuli_target_rectangletriangles.svg	stimuli_distractor_trianglediamonds.svg	1	yes	44	1	766	0	0			0	0			1				0	
6.6.1	win	2023-06-12	14:11:42	14:21:54	561379	5b5cff1c9351420001b78419	4	1	main_z	7	advance_on_keypress_ZEE	58	stimuli_target_rectangletriangles.svg	stimuli_distractor_trianglediamonds.svg	1	yes	57	0	668	0	0			0	0			1				0	
6.6.1	win	2023-06-12	14:11:42	14:21:56	563340	5b5cff1c9351420001b78419	4	1	main_z	7	main_z	59	stimuli_target_rectanglediamonds.svg	stimuli_distractor_trianglediamonds.svg	2	yes	44	1	679	0	0			0	0			1				0	
6.6.1	win	2023-06-12	14:11:42	14:21:56	563340	5b5cff1c9351420001b78419	4	1	main_z	7	advance_on_keypress_ZEE	60	stimuli_target_rectanglediamonds.svg	stimuli_distractor_trianglediamonds.svg	2	yes	57	0	502	0	0			0	0			1				0	
6.6.1	win	2023-06-12	14:11:42	14:21:58	565484	5b5cff1c9351420001b78419	4	1	main_z	7	main_z	61	stimuli_distractor_trianglediamonds.svg	stimuli_target_trianglesquares.svg	26	yes	44	1	1031	0	0			0	0			1				0	
6.6.1	win	2023-06-12	14:11:42	14:21:58	565484	5b5cff1c9351420001b78419	4	1	main_z	7	advance_on_keypress_ZEE	62	stimuli_distractor_trianglediamonds.svg	stimuli_target_trianglesquares.svg	26	yes	57	0	596	0	0			0	0			1				0	
6.6.1	win	2023-06-12	14:11:42	14:22:00	567476	5b5cff1c9351420001b78419	4	1	main_z	7	main_z	63	stimuli_distractor_diamondtriangles.svg	stimuli_target_squarediamonds.svg	16	yes	44	1	780	0	0			0	0			1				0	
6.6.1	win	2023-06-12	14:11:42	14:22:00	567476	5b5cff1c9351420001b78419	4	1	main_z	7	advance_on_keypress_ZEE	64	stimuli_distractor_diamondtriangles.svg	stimuli_target_squarediamonds.svg	16	yes	57	0	451	0	0			0	0			1				0	
6.6.1	win	2023-06-12	14:11:42	14:22:02	569556	5b5cff1c9351420001b78419	4	1	main_z	7	main_z	65	stimuli_target_trianglesquares.svg	stimuli_distractor_trianglediamonds.svg	18	yes	44	1	1013	0	0			0	0			1				0	
6.6.1	win	2023-06-12	14:11:42	14:22:02	569556	5b5cff1c9351420001b78419	4	1	main_z	7	advance_on_keypress_ZEE	66	stimuli_target_trianglesquares.svg	stimuli_distractor_trianglediamonds.svg	18	yes	57	0	520	0	0			0	0			1				0	
6.6.1	win	2023-06-12	14:11:42	14:22:06	572699	5b5cff1c9351420001b78419	4	1	main_z	7	main_z	67	stimuli_distractor_trianglediamonds.svg	stimuli_distractor_diamondtriangles.svg	36	no	0	1	2003	0	0			0	0			1				0	
6.6.1	win	2023-06-12	14:11:42	14:22:06	572699	5b5cff1c9351420001b78419	4	1	main_z	7	advance_on_keypress_ZEE	68	stimuli_distractor_trianglediamonds.svg	stimuli_distractor_diamondtriangles.svg	36	no	57	0	318	0	0			0	0			1				0	
6.6.1	win	2023-06-12	14:11:42	14:22:07	574581	5b5cff1c9351420001b78419	4	1	main_z	7	main_z	69	stimuli_target_trianglesquares.svg	stimuli_distractor_diamondtriangles.svg	22	yes	44	1	954	0	0			0	0			1				0	
6.6.1	win	2023-06-12	14:11:42	14:22:07	574581	5b5cff1c9351420001b78419	4	1	main_z	7	advance_on_keypress_ZEE	70	stimuli_target_trianglesquares.svg	stimuli_distractor_diamondtriangles.svg	22	yes	57	0	500	0	0			0	0			1				0	
6.6.1	win	2023-06-12	14:11:42	14:22:09	576469	5b5cff1c9351420001b78419	4	1	main_z	7	main_z	71	stimuli_target_squaretriangles.svg	stimuli_distractor_trianglediamonds.svg	3	yes	44	1	773	0	0			0	0			1				0	
6.6.1	win	2023-06-12	14:11:42	14:22:09	576469	5b5cff1c9351420001b78419	4	1	main_z	7	advance_on_keypress_ZEE	72	stimuli_target_squaretriangles.svg	stimuli_distractor_trianglediamonds.svg	3	yes	57	0	563	0	0			0	0			1				0	
6.6.1	win	2023-06-12	14:11:42	14:22:11	578477	5b5cff1c9351420001b78419	4	1	main_z	7	main_z	73	stimuli_target_diamondrectangles.svg	stimuli_distractor_trianglediamonds.svg	19	yes	44	1	829	0	0			0	0			1				0	
6.6.1	win	2023-06-12	14:11:42	14:22:11	578477	5b5cff1c9351420001b78419	4	1	main_z	7	advance_on_keypress_ZEE	74	stimuli_target_diamondrectangles.svg	stimuli_distractor_trianglediamonds.svg	19	yes	57	0	572	0	0			0	0			1				0	
6.6.1	win	2023-06-12	14:11:42	14:22:15	581664	5b5cff1c9351420001b78419	4	1	main_z	7	main_z	75	stimuli_distractor_trianglediamonds.svg	stimuli_distractor_trianglediamonds.svg	33	no	0	1	2003	0	0			0	0			1				0	
6.6.1	win	2023-06-12	14:11:42	14:22:15	581664	5b5cff1c9351420001b78419	4	1	main_z	7	advance_on_keypress_ZEE	76	stimuli_distractor_trianglediamonds.svg	stimuli_distractor_trianglediamonds.svg	33	no	57	0	314	0	0			0	0			1				0	
6.6.1	win	2023-06-12	14:11:42	14:22:16	583230	5b5cff1c9351420001b78419	4	1	main_z	7	main_z	77	stimuli_distractor_trianglediamonds.svg	stimuli_target_squaretriangles.svg	11	yes	44	1	638	0	0			0	0			1				0	
6.6.1	win	2023-06-12	14:11:42	14:22:16	583230	5b5cff1c9351420001b78419	4	1	main_z	7	advance_on_keypress_ZEE	78	stimuli_distractor_trianglediamonds.svg	stimuli_target_squaretriangles.svg	11	yes	57	0	816	0	0			0	0			1				0	
6.6.1	win	2023-06-12	14:11:42	14:22:18	585294	5b5cff1c9351420001b78419	4	1	main_z	7	main_z	79	stimuli_distractor_trianglediamonds.svg	stimuli_target_rectanglediamonds.svg	10	yes	44	1	632	0	0			0	0			1				0	
6.6.1	win	2023-06-12	14:11:42	14:22:18	585294	5b5cff1c9351420001b78419	4	1	main_z	7	advance_on_keypress_ZEE	80	stimuli_distractor_trianglediamonds.svg	stimuli_target_rectanglediamonds.svg	10	yes	57	0	1066	0	0			0	0			1				0	
6.6.1	win	2023-06-12	14:11:42	14:22:21	587710	5b5cff1c9351420001b78419	4	1	main_z	7	main_z	81	stimuli_distractor_diamondtriangles.svg	stimuli_target_squarediamonds.svg	16	yes	44	1	736	0	0			0	0			1				0	
6.6.1	win	2023-06-12	14:11:42	14:22:21	587710	5b5cff1c9351420001b78419	4	1	main_z	7	advance_on_keypress_ZEE	82	stimuli_distractor_diamondtriangles.svg	stimuli_target_squarediamonds.svg	16	yes	57	0	801	0	0			0	0			1				0	
6.6.1	win	2023-06-12	14:11:42	14:22:23	589958	5b5cff1c9351420001b78419	4	1	main_z	7	main_z	83	stimuli_distractor_trianglediamonds.svg	stimuli_target_diamondrectangles.svg	27	yes	44	1	831	0	0			0	0			1				0	
6.6.1	win	2023-06-12	14:11:42	14:22:23	589958	5b5cff1c9351420001b78419	4	1	main_z	7	advance_on_keypress_ZEE	84	stimuli_distractor_trianglediamonds.svg	stimuli_target_diamondrectangles.svg	27	yes	57	0	566	0	0			0	0			1				0	
6.6.1	win	2023-06-12	14:11:42	14:22:26	593137	5b5cff1c9351420001b78419	4	1	main_z	7	main_z	85	stimuli_distractor_diamondtriangles.svg	stimuli_target_diamondsquares.svg	32	yes	0	0	2003	0	0			0	0			1				0	
6.6.1	win	2023-06-12	14:11:42	14:22:26	593137	5b5cff1c9351420001b78419	4	1	main_z	7	advance_on_keypress_ZEE	86	stimuli_distractor_diamondtriangles.svg	stimuli_target_diamondsquares.svg	32	yes	57	0	554	0	0			0	0			1				0	
6.6.1	win	2023-06-12	14:11:42	14:22:29	596310	5b5cff1c9351420001b78419	4	1	main_z	7	main_z	87	stimuli_distractor_diamondtriangles.svg	stimuli_distractor_diamondtriangles.svg	39	no	0	1	2003	0	0			0	0			1				0	
6.6.1	win	2023-06-12	14:11:42	14:22:29	596310	5b5cff1c9351420001b78419	4	1	main_z	7	advance_on_keypress_ZEE	88	stimuli_distractor_diamondtriangles.svg	stimuli_distractor_diamondtriangles.svg	39	no	57	0	309	0	0			0	0			1				0	
6.6.1	win	2023-06-12	14:11:42	14:22:31	598031	5b5cff1c9351420001b78419	4	1	main_z	7	main_z	89	stimuli_target_trianglesquares.svg	stimuli_distractor_diamondtriangles.svg	22	yes	44	1	800	0	0			0	0			1				0	
6.6.1	win	2023-06-12	14:11:42	14:22:31	598031	5b5cff1c9351420001b78419	4	1	main_z	7	advance_on_keypress_ZEE	90	stimuli_target_trianglesquares.svg	stimuli_distractor_diamondtriangles.svg	22	yes	57	0	834	0	0			0	0			1				0	
6.6.1	win	2023-06-12	14:11:42	14:22:34	601484	5b5cff1c9351420001b78419	4	1	main_z	7	main_z	91	stimuli_distractor_diamondtriangles.svg	stimuli_target_diamondrectangles.svg	31	yes	0	0	2003	0	0			0	0			1				0	
6.6.1	win	2023-06-12	14:11:42	14:22:34	601484	5b5cff1c9351420001b78419	4	1	main_z	7	advance_on_keypress_ZEE	92	stimuli_distractor_diamondtriangles.svg	stimuli_target_diamondrectangles.svg	31	yes	57	0	440	0	0			0	0			1				0	
6.6.1	win	2023-06-12	14:11:42	14:22:36	603160	5b5cff1c9351420001b78419	4	1	main_z	7	main_z	93	stimuli_distractor_trianglediamonds.svg	stimuli_target_squarediamonds.svg	12	yes	44	1	623	0	0			0	0			1				0	
6.6.1	win	2023-06-12	14:11:42	14:22:36	603160	5b5cff1c9351420001b78419	4	1	main_z	7	advance_on_keypress_ZEE	94	stimuli_distractor_trianglediamonds.svg	stimuli_target_squarediamonds.svg	12	yes	57	0	630	0	0			0	0			1				0	
6.6.1	win	2023-06-12	14:11:42	14:22:39	606401	5b5cff1c9351420001b78419	4	1	main_z	7	main_z	95	stimuli_distractor_trianglediamonds.svg	stimuli_distractor_trianglediamonds.svg	34	no	0	1	2003	0	0			0	0			1				0	
6.6.1	win	2023-06-12	14:11:42	14:22:39	606401	5b5cff1c9351420001b78419	4	1	main_z	7	advance_on_keypress_ZEE	96	stimuli_distractor_trianglediamonds.svg	stimuli_distractor_trianglediamonds.svg	34	no	57	0	435	0	0			0	0			1				0	
6.6.1	win	2023-06-12	14:11:42	14:22:41	608336	5b5cff1c9351420001b78419	4	1	main_z	7	main_z	97	stimuli_target_diamondsquares.svg	stimuli_distractor_trianglediamonds.svg	20	yes	44	1	889	0	0			0	0			1				0	
6.6.1	win	2023-06-12	14:11:42	14:22:41	608336	5b5cff1c9351420001b78419	4	1	main_z	7	advance_on_keypress_ZEE	98	stimuli_target_diamondsquares.svg	stimuli_distractor_trianglediamonds.svg	20	yes	57	0	498	0	0			0	0			1				0	
6.6.1	win	2023-06-12	14:11:42	14:22:44	611450	5b5cff1c9351420001b78419	4	1	main_z	7	main_z	99	stimuli_distractor_trianglediamonds.svg	stimuli_distractor_diamondtriangles.svg	36	no	0	1	2003	0	0			0	0			1				0	
6.6.1	win	2023-06-12	14:11:42	14:22:44	611450	5b5cff1c9351420001b78419	4	1	main_z	7	advance_on_keypress_ZEE	100	stimuli_distractor_trianglediamonds.svg	stimuli_distractor_diamondtriangles.svg	36	no	57	0	443	0	0			0	0			1				0	
6.6.1	win	2023-06-12	14:11:42	14:22:46	613177	5b5cff1c9351420001b78419	4	1	main_z	7	main_z	101	stimuli_target_squarediamonds.svg	stimuli_distractor_diamondtriangles.svg	8	yes	44	1	668	0	0			0	0			1				0	
6.6.1	win	2023-06-12	14:11:42	14:22:46	613177	5b5cff1c9351420001b78419	4	1	main_z	7	advance_on_keypress_ZEE	102	stimuli_target_squarediamonds.svg	stimuli_distractor_diamondtriangles.svg	8	yes	57	0	554	0	0			0	0			1				0	
6.6.1	win	2023-06-12	14:11:42	14:22:49	616352	5b5cff1c9351420001b78419	4	1	main_z	7	main_z	103	stimuli_distractor_diamondtriangles.svg	stimuli_distractor_diamondtriangles.svg	40	no	0	1	2003	0	0			0	0			1				0	
6.6.1	win	2023-06-12	14:11:42	14:22:49	616352	5b5cff1c9351420001b78419	4	1	main_z	7	advance_on_keypress_ZEE	104	stimuli_distractor_diamondtriangles.svg	stimuli_distractor_diamondtriangles.svg	40	no	57	0	493	0	0			0	0			1				0	
6.6.1	win	2023-06-12	14:11:42	14:22:51	618289	5b5cff1c9351420001b78419	4	1	main_z	7	main_z	105	stimuli_distractor_diamondtriangles.svg	stimuli_target_rectangletriangles.svg	13	yes	44	1	828	0	0			0	0			1				0	
6.6.1	win	2023-06-12	14:11:42	14:22:51	618289	5b5cff1c9351420001b78419	4	1	main_z	7	advance_on_keypress_ZEE	106	stimuli_distractor_diamondtriangles.svg	stimuli_target_rectangletriangles.svg	13	yes	57	0	668	0	0			0	0			1				0	
6.6.1	win	2023-06-12	14:11:42	14:22:53	620273	5b5cff1c9351420001b78419	4	1	main_z	7	main_z	107	stimuli_target_trianglerectangles.svg	stimuli_distractor_diamondtriangles.svg	21	yes	44	1	702	0	0			0	0			1				0	
6.6.1	win	2023-06-12	14:11:42	14:22:53	620273	5b5cff1c9351420001b78419	4	1	main_z	7	advance_on_keypress_ZEE	108	stimuli_target_trianglerectangles.svg	stimuli_distractor_diamondtriangles.svg	21	yes	57	0	626	0	0			0	0			1				0	
6.6.1	win	2023-06-12	14:11:42	14:22:55	622170	5b5cff1c9351420001b78419	4	1	main_z	7	main_z	109	stimuli_target_diamondsquares.svg	stimuli_distractor_diamondtriangles.svg	24	yes	44	1	654	0	0			0	0			1				0	
6.6.1	win	2023-06-12	14:11:42	14:22:55	622170	5b5cff1c9351420001b78419	4	1	main_z	7	advance_on_keypress_ZEE	110	stimuli_target_diamondsquares.svg	stimuli_distractor_diamondtriangles.svg	24	yes	57	0	546	0	0			0	0			1				0	
6.6.1	win	2023-06-12	14:11:42	14:22:57	623938	5b5cff1c9351420001b78419	4	1	main_z	7	main_z	111	stimuli_target_rectanglediamonds.svg	stimuli_distractor_diamondtriangles.svg	6	yes	44	1	609	0	0			0	0			1				0	
6.6.1	win	2023-06-12	14:11:42	14:22:57	623938	5b5cff1c9351420001b78419	4	1	main_z	7	advance_on_keypress_ZEE	112	stimuli_target_rectanglediamonds.svg	stimuli_distractor_diamondtriangles.svg	6	yes	57	0	518	0	0			0	0			1				0	
6.6.1	win	2023-06-12	14:11:42	14:23:00	627068	5b5cff1c9351420001b78419	4	1	main_z	7	main_z	113	stimuli_distractor_diamondtriangles.svg	stimuli_distractor_trianglediamonds.svg	38	no	0	1	2003	0	0			0	0			1				0	
6.6.1	win	2023-06-12	14:11:42	14:23:00	627068	5b5cff1c9351420001b78419	4	1	main_z	7	advance_on_keypress_ZEE	114	stimuli_distractor_diamondtriangles.svg	stimuli_distractor_trianglediamonds.svg	38	no	57	0	602	0	0			0	0			1				0	
6.6.1	win	2023-06-12	14:11:42	14:23:03	630290	5b5cff1c9351420001b78419	4	1	main_z	7	main_z	115	stimuli_distractor_trianglediamonds.svg	stimuli_distractor_diamondtriangles.svg	35	no	0	1	2003	0	0			0	0			1				0	
6.6.1	win	2023-06-12	14:11:42	14:23:03	630290	5b5cff1c9351420001b78419	4	1	main_z	7	advance_on_keypress_ZEE	116	stimuli_distractor_trianglediamonds.svg	stimuli_distractor_diamondtriangles.svg	35	no	57	0	5069	0	0			0	0			1				0	
6.6.1	win	2023-06-12	14:11:42	14:23:10	636731	5b5cff1c9351420001b78419	4	1	main_z	7	main_z	117	stimuli_target_trianglesquares.svg	stimuli_distractor_trianglediamonds.svg	18	yes	44	1	756	0	0			0	0			1				0	
6.6.1	win	2023-06-12	14:11:42	14:23:10	636731	5b5cff1c9351420001b78419	4	1	main_z	7	advance_on_keypress_ZEE	118	stimuli_target_trianglesquares.svg	stimuli_distractor_trianglediamonds.svg	18	yes	57	0	456	0	0			0	0			1				0	
6.6.1	win	2023-06-12	14:11:42	14:23:11	638483	5b5cff1c9351420001b78419	4	1	main_z	7	main_z	119	stimuli_distractor_trianglediamonds.svg	stimuli_target_squaretriangles.svg	11	yes	44	1	675	0	0			0	0			1				0	
6.6.1	win	2023-06-12	14:11:42	14:23:11	638483	5b5cff1c9351420001b78419	4	1	main_z	7	advance_on_keypress_ZEE	120	stimuli_distractor_trianglediamonds.svg	stimuli_target_squaretriangles.svg	11	yes	57	0	442	0	0			0	0			1				0	
6.6.1	win	2023-06-12	14:11:42	14:23:13	640348	5b5cff1c9351420001b78419	4	1	main_z	7	main_z	121	stimuli_distractor_trianglediamonds.svg	stimuli_target_diamondsquares.svg	28	yes	44	1	811	0	0			0	0			1				0	
6.6.1	win	2023-06-12	14:11:42	14:23:13	640348	5b5cff1c9351420001b78419	4	1	main_z	7	advance_on_keypress_ZEE	122	stimuli_distractor_trianglediamonds.svg	stimuli_target_diamondsquares.svg	28	yes	57	0	470	0	0			0	0			1				0	
6.6.1	win	2023-06-12	14:11:42	14:23:15	642196	5b5cff1c9351420001b78419	4	1	main_z	7	main_z	123	stimuli_distractor_trianglediamonds.svg	stimuli_target_trianglerectangles.svg	25	yes	44	1	770	0	0			0	0			1				0	
6.6.1	win	2023-06-12	14:11:42	14:23:15	642196	5b5cff1c9351420001b78419	4	1	main_z	7	advance_on_keypress_ZEE	124	stimuli_distractor_trianglediamonds.svg	stimuli_target_trianglerectangles.svg	25	yes	57	0	440	0	0			0	0			1				0	
6.6.1	win	2023-06-12	14:11:42	14:23:18	645256	5b5cff1c9351420001b78419	4	1	main_z	7	main_z	125	stimuli_distractor_trianglediamonds.svg	stimuli_distractor_trianglediamonds.svg	33	no	0	1	2003	0	0			0	0			1				0	
6.6.1	win	2023-06-12	14:11:42	14:23:18	645256	5b5cff1c9351420001b78419	4	1	main_z	7	advance_on_keypress_ZEE	126	stimuli_distractor_trianglediamonds.svg	stimuli_distractor_trianglediamonds.svg	33	no	57	0	416	0	0			0	0			1				0	
6.6.1	win	2023-06-12	14:11:42	14:23:20	647020	5b5cff1c9351420001b78419	4	1	main_z	7	main_z	127	stimuli_target_rectanglediamonds.svg	stimuli_distractor_trianglediamonds.svg	2	yes	44	1	733	0	0			0	0			1				0	
6.6.1	win	2023-06-12	14:11:42	14:23:20	647020	5b5cff1c9351420001b78419	4	1	main_z	7	advance_on_keypress_ZEE	128	stimuli_target_rectanglediamonds.svg	stimuli_distractor_trianglediamonds.svg	2	yes	57	0	389	0	0			0	0			1				0	
6.6.1	win	2023-06-12	14:11:42	14:23:22	648756	5b5cff1c9351420001b78419	4	1	main_z	7	main_z	129	stimuli_distractor_trianglediamonds.svg	stimuli_target_rectanglediamonds.svg	10	yes	44	1	733	0	0			0	0			1				0	
6.6.1	win	2023-06-12	14:11:42	14:23:22	648756	5b5cff1c9351420001b78419	4	1	main_z	7	advance_on_keypress_ZEE	130	stimuli_distractor_trianglediamonds.svg	stimuli_target_rectanglediamonds.svg	10	yes	57	0	397	0	0			0	0			1				0	
6.6.1	win	2023-06-12	14:11:42	14:23:23	650501	5b5cff1c9351420001b78419	4	1	main_z	7	main_z	131	stimuli_distractor_diamondtriangles.svg	stimuli_target_squaretriangles.svg	15	yes	44	1	734	0	0			0	0			1				0	
6.6.1	win	2023-06-12	14:11:42	14:23:23	650501	5b5cff1c9351420001b78419	4	1	main_z	7	advance_on_keypress_ZEE	132	stimuli_distractor_diamondtriangles.svg	stimuli_target_squaretriangles.svg	15	yes	57	0	574	0	0			0	0			1				0	
6.6.1	win	2023-06-12	14:11:42	14:23:25	652397	5b5cff1c9351420001b78419	4	1	main_z	7	main_z	133	stimuli_distractor_trianglediamonds.svg	stimuli_target_rectangletriangles.svg	9	yes	44	1	714	0	0			0	0			1				0	
6.6.1	win	2023-06-12	14:11:42	14:23:25	652397	5b5cff1c9351420001b78419	4	1	main_z	7	advance_on_keypress_ZEE	134	stimuli_distractor_trianglediamonds.svg	stimuli_target_rectangletriangles.svg	9	yes	57	0	543	0	0			0	0			1				0	
6.6.1	win	2023-06-12	14:11:42	14:23:27	654261	5b5cff1c9351420001b78419	4	1	main_z	7	main_z	135	stimuli_target_rectangletriangles.svg	stimuli_distractor_diamondtriangles.svg	5	yes	44	1	710	0	0			0	0			1				0	
6.6.1	win	2023-06-12	14:11:42	14:23:27	654261	5b5cff1c9351420001b78419	4	1	main_z	7	advance_on_keypress_ZEE	136	stimuli_target_rectangletriangles.svg	stimuli_distractor_diamondtriangles.svg	5	yes	57	0	458	0	0			0	0			1				0	
6.6.1	win	2023-06-12	14:11:42	14:23:29	655989	5b5cff1c9351420001b78419	4	1	main_z	7	main_z	137	stimuli_target_squarediamonds.svg	stimuli_distractor_trianglediamonds.svg	4	yes	44	1	653	0	0			0	0			1				0	
6.6.1	win	2023-06-12	14:11:42	14:23:29	655989	5b5cff1c9351420001b78419	4	1	main_z	7	advance_on_keypress_ZEE	138	stimuli_target_squarediamonds.svg	stimuli_distractor_trianglediamonds.svg	4	yes	57	0	393	0	0			0	0			1				0	
6.6.1	win	2023-06-12	14:11:42	14:23:32	658999	5b5cff1c9351420001b78419	4	1	main_z	7	main_z	139	stimuli_distractor_diamondtriangles.svg	stimuli_distractor_trianglediamonds.svg	37	no	0	1	2003	0	0			0	0			1				0	
6.6.1	win	2023-06-12	14:11:42	14:23:32	658999	5b5cff1c9351420001b78419	4	1	main_z	7	advance_on_keypress_ZEE	140	stimuli_distractor_diamondtriangles.svg	stimuli_distractor_trianglediamonds.svg	37	no	57	0	667	0	0			0	0			1				0	
6.6.1	win	2023-06-12	14:11:42	14:23:34	660910	5b5cff1c9351420001b78419	4	1	main_z	7	main_z	141	stimuli_target_squaretriangles.svg	stimuli_distractor_trianglediamonds.svg	3	yes	44	1	629	0	0			0	0			1				0	
6.6.1	win	2023-06-12	14:11:42	14:23:34	660910	5b5cff1c9351420001b78419	4	1	main_z	7	advance_on_keypress_ZEE	142	stimuli_target_squaretriangles.svg	stimuli_distractor_trianglediamonds.svg	3	yes	57	0	614	0	0			0	0			1				0	
6.6.1	win	2023-06-12	14:11:42	14:23:36	663446	5b5cff1c9351420001b78419	4	1	main_z	7	main_z	143	stimuli_distractor_diamondtriangles.svg	stimuli_target_trianglesquares.svg	30	yes	44	1	1311	0	0			0	0			1				0	
6.6.1	win	2023-06-12	14:11:42	14:23:36	663446	5b5cff1c9351420001b78419	4	1	main_z	7	advance_on_keypress_ZEE	144	stimuli_distractor_diamondtriangles.svg	stimuli_target_trianglesquares.svg	30	yes	57	0	608	0	0			0	0			1				0	
6.6.1	win	2023-06-12	14:11:42	14:23:38	665502	5b5cff1c9351420001b78419	4	1	main_z	7	main_z	145	stimuli_target_diamondrectangles.svg	stimuli_distractor_diamondtriangles.svg	23	yes	44	1	833	0	0			0	0			1				0	
6.6.1	win	2023-06-12	14:11:42	14:23:38	665502	5b5cff1c9351420001b78419	4	1	main_z	7	advance_on_keypress_ZEE	146	stimuli_target_diamondrectangles.svg	stimuli_distractor_diamondtriangles.svg	23	yes	57	0	488	0	0			0	0			1				0	
6.6.1	win	2023-06-12	14:11:42	14:23:40	667310	5b5cff1c9351420001b78419	4	1	main_z	7	main_z	147	stimuli_distractor_trianglediamonds.svg	stimuli_target_trianglesquares.svg	26	yes	44	1	703	0	0			0	0			1				0	
6.6.1	win	2023-06-12	14:11:42	14:23:40	667310	5b5cff1c9351420001b78419	4	1	main_z	7	advance_on_keypress_ZEE	148	stimuli_distractor_trianglediamonds.svg	stimuli_target_trianglesquares.svg	26	yes	57	0	436	0	0			0	0			1				0	
6.6.1	win	2023-06-12	14:11:42	14:23:42	668999	5b5cff1c9351420001b78419	4	1	main_z	7	main_z	149	stimuli_target_diamondrectangles.svg	stimuli_distractor_trianglediamonds.svg	19	yes	44	1	642	0	0			0	0			1				0	
6.6.1	win	2023-06-12	14:11:42	14:23:42	668999	5b5cff1c9351420001b78419	4	1	main_z	7	advance_on_keypress_ZEE	150	stimuli_target_diamondrectangles.svg	stimuli_distractor_trianglediamonds.svg	19	yes	57	0	428	0	0			0	0			1				0	
6.6.1	win	2023-06-12	14:11:42	14:23:44	670727	5b5cff1c9351420001b78419	4	1	main_z	7	main_z	151	stimuli_target_trianglerectangles.svg	stimuli_distractor_trianglediamonds.svg	17	yes	44	1	689	0	0			0	0			1				0	
6.6.1	win	2023-06-12	14:11:42	14:23:44	670727	5b5cff1c9351420001b78419	4	1	main_z	7	advance_on_keypress_ZEE	152	stimuli_target_trianglerectangles.svg	stimuli_distractor_trianglediamonds.svg	17	yes	57	0	379	0	0			0	0			1				0	
6.6.1	win	2023-06-12	14:11:42	14:23:45	672455	5b5cff1c9351420001b78419	4	1	main_z	7	main_z	153	stimuli_target_squaretriangles.svg	stimuli_distractor_diamondtriangles.svg	7	yes	44	1	737	0	0			0	0			1				0	
6.6.1	win	2023-06-12	14:11:42	14:23:45	672455	5b5cff1c9351420001b78419	4	1	main_z	7	advance_on_keypress_ZEE	154	stimuli_target_squaretriangles.svg	stimuli_distractor_diamondtriangles.svg	7	yes	57	0	410	0	0			0	0			1				0	
6.6.1	win	2023-06-12	14:11:42	14:23:47	674135	5b5cff1c9351420001b78419	4	1	main_z	7	main_z	155	stimuli_target_rectangletriangles.svg	stimuli_distractor_trianglediamonds.svg	1	yes	44	1	653	0	0			0	0			1				0	
6.6.1	win	2023-06-12	14:11:42	14:23:47	674135	5b5cff1c9351420001b78419	4	1	main_z	7	advance_on_keypress_ZEE	156	stimuli_target_rectangletriangles.svg	stimuli_distractor_trianglediamonds.svg	1	yes	57	0	449	0	0			0	0			1				0	
6.6.1	win	2023-06-12	14:11:42	14:23:49	675951	5b5cff1c9351420001b78419	4	1	main_z	7	main_z	157	stimuli_distractor_diamondtriangles.svg	stimuli_target_rectanglediamonds.svg	14	yes	44	1	754	0	0			0	0			1				0	
6.6.1	win	2023-06-12	14:11:42	14:23:49	675951	5b5cff1c9351420001b78419	4	1	main_z	7	advance_on_keypress_ZEE	158	stimuli_distractor_diamondtriangles.svg	stimuli_target_rectanglediamonds.svg	14	yes	57	0	413	0	0			0	0			1				0	
6.6.1	win	2023-06-12	14:11:42	14:23:51	677759	5b5cff1c9351420001b78419	4	1	main_z	7	main_z	159	stimuli_distractor_diamondtriangles.svg	stimuli_target_trianglerectangles.svg	29	yes	44	1	784	0	0			0	0			1				0	
6.6.1	win	2023-06-12	14:11:42	14:23:51	677759	5b5cff1c9351420001b78419	4	1	main_z	7	advance_on_keypress_ZEE	160	stimuli_distractor_diamondtriangles.svg	stimuli_target_trianglerectangles.svg	29	yes	57	0	392	0	0			0	0			1				0	
6.6.1	win	2023-06-12	14:11:42	14:24:21	707898	5b5cff1c9351420001b78419	4	1	practice_slash	9	practice_slash	1	stimuli_distractor_diamondtriangles.svg	stimuli_distractor_trianglediamonds.svg	14	no	53	0	1069	0	0			0	0			1				0	
6.6.1	win	2023-06-12	14:11:42	14:24:21	707898	5b5cff1c9351420001b78419	4	1	practice_slash	9	advance_on_keypress_SLASH	2	stimuli_distractor_diamondtriangles.svg	stimuli_distractor_trianglediamonds.svg	14	no	57	0	537	0	0			0	0			1				0	
6.6.1	win	2023-06-12	14:11:42	14:24:23	710427	5b5cff1c9351420001b78419	4	1	practice_slash	9	practice_slash	3	stimuli_target_rectanglediamonds.svg	stimuli_distractor_trianglediamonds.svg	4	yes	53	1	375	0	0			0	0			1				0	
6.6.1	win	2023-06-12	14:11:42	14:24:23	710427	5b5cff1c9351420001b78419	4	1	practice_slash	9	advance_on_keypress_SLASH	4	stimuli_target_rectanglediamonds.svg	stimuli_distractor_trianglediamonds.svg	4	yes	57	0	545	0	0			0	0			1				0	
6.6.1	win	2023-06-12	14:11:42	14:24:26	713083	5b5cff1c9351420001b78419	4	1	practice_slash	9	practice_slash	5	stimuli_target_squarediamonds.svg	stimuli_distractor_trianglediamonds.svg	5	yes	53	1	496	0	0			0	0			1				0	
6.6.1	win	2023-06-12	14:11:42	14:24:26	713083	5b5cff1c9351420001b78419	4	1	practice_slash	9	advance_on_keypress_SLASH	6	stimuli_target_squarediamonds.svg	stimuli_distractor_trianglediamonds.svg	5	yes	57	0	436	0	0			0	0			1				0	
6.6.1	win	2023-06-12	14:11:42	14:24:29	715772	5b5cff1c9351420001b78419	4	1	practice_slash	9	practice_slash	7	stimuli_target_diamondsquares.svg	stimuli_distractor_trianglediamonds.svg	6	yes	53	1	636	0	0			0	0			1				0	
6.6.1	win	2023-06-12	14:11:42	14:24:29	715772	5b5cff1c9351420001b78419	4	1	practice_slash	9	advance_on_keypress_SLASH	8	stimuli_target_diamondsquares.svg	stimuli_distractor_trianglediamonds.svg	6	yes	57	0	253	0	0			0	0			1				0	
6.6.1	win	2023-06-12	14:11:42	14:24:31	718268	5b5cff1c9351420001b78419	4	1	practice_slash	9	practice_slash	9	stimuli_target_rectanglediamonds.svg	stimuli_distractor_diamondtriangles.svg	1	yes	53	1	633	0	0			0	0			1				0	
6.6.1	win	2023-06-12	14:11:42	14:24:31	718268	5b5cff1c9351420001b78419	4	1	practice_slash	9	advance_on_keypress_SLASH	10	stimuli_target_rectanglediamonds.svg	stimuli_distractor_diamondtriangles.svg	1	yes	57	0	322	0	0			0	0			1				0	
6.6.1	win	2023-06-12	14:11:42	14:24:34	720797	5b5cff1c9351420001b78419	4	1	practice_slash	9	practice_slash	11	stimuli_target_squarediamonds.svg	stimuli_distractor_diamondtriangles.svg	2	yes	53	1	591	0	0			0	0			1				0	
6.6.1	win	2023-06-12	14:11:42	14:24:34	720797	5b5cff1c9351420001b78419	4	1	practice_slash	9	advance_on_keypress_SLASH	12	stimuli_target_squarediamonds.svg	stimuli_distractor_diamondtriangles.svg	2	yes	57	0	338	0	0			0	0			1				0	
6.6.1	win	2023-06-12	14:11:42	14:24:38	724750	5b5cff1c9351420001b78419	4	1	practice_slash	9	practice_slash	13	stimuli_distractor_trianglediamonds.svg	stimuli_distractor_trianglediamonds.svg	15	no	0	1	2003	0	0			0	0			1				0	
6.6.1	win	2023-06-12	14:11:42	14:24:38	724750	5b5cff1c9351420001b78419	4	1	practice_slash	9	advance_on_keypress_SLASH	14	stimuli_distractor_trianglediamonds.svg	stimuli_distractor_trianglediamonds.svg	15	no	57	0	314	0	0			0	0			1				0	
6.6.1	win	2023-06-12	14:11:42	14:24:40	727485	5b5cff1c9351420001b78419	4	1	practice_slash	9	practice_slash	15	stimuli_distractor_trianglediamonds.svg	stimuli_target_rectanglediamonds.svg	10	yes	53	1	808	0	0			0	0			1				0	
6.6.1	win	2023-06-12	14:11:42	14:24:40	727485	5b5cff1c9351420001b78419	4	1	practice_slash	9	advance_on_keypress_SLASH	16	stimuli_distractor_trianglediamonds.svg	stimuli_target_rectanglediamonds.svg	10	yes	57	0	315	0	0			0	0			1				0	
6.6.1	win	2023-06-12	14:11:42	14:24:44	731417	5b5cff1c9351420001b78419	4	1	practice_slash	9	practice_slash	17	stimuli_distractor_diamondtriangles.svg	stimuli_distractor_diamondtriangles.svg	13	no	0	1	2003	0	0			0	0			1				0	
6.6.1	win	2023-06-12	14:11:42	14:24:44	731417	5b5cff1c9351420001b78419	4	1	practice_slash	9	advance_on_keypress_SLASH	18	stimuli_distractor_diamondtriangles.svg	stimuli_distractor_diamondtriangles.svg	13	no	57	0	329	0	0			0	0			1				0	
6.6.1	win	2023-06-12	14:11:42	14:24:48	735362	5b5cff1c9351420001b78419	4	1	practice_slash	9	practice_slash	19	stimuli_distractor_trianglediamonds.svg	stimuli_distractor_diamondtriangles.svg	16	no	0	1	2003	0	0			0	0			1				0	
6.6.1	win	2023-06-12	14:11:42	14:24:48	735362	5b5cff1c9351420001b78419	4	1	practice_slash	9	advance_on_keypress_SLASH	20	stimuli_distractor_trianglediamonds.svg	stimuli_distractor_diamondtriangles.svg	16	no	57	0	313	0	0			0	0			1				0	
6.6.1	win	2023-06-12	14:11:42	14:24:51	738158	5b5cff1c9351420001b78419	4	1	practice_slash	9	practice_slash	21	stimuli_distractor_diamondtriangles.svg	stimuli_target_trianglerectangles.svg	9	yes	53	1	870	0	0			0	0			1				0	
6.6.1	win	2023-06-12	14:11:42	14:24:51	738158	5b5cff1c9351420001b78419	4	1	practice_slash	9	advance_on_keypress_SLASH	22	stimuli_distractor_diamondtriangles.svg	stimuli_target_trianglerectangles.svg	9	yes	57	0	427	0	0			0	0			1				0	
6.6.1	win	2023-06-12	14:11:42	14:24:54	741022	5b5cff1c9351420001b78419	4	1	practice_slash	9	practice_slash	23	stimuli_distractor_diamondtriangles.svg	stimuli_target_diamondrectangles.svg	8	yes	53	1	824	0	0			0	0			1				0	
6.6.1	win	2023-06-12	14:11:42	14:24:54	741022	5b5cff1c9351420001b78419	4	1	practice_slash	9	advance_on_keypress_SLASH	24	stimuli_distractor_diamondtriangles.svg	stimuli_target_diamondrectangles.svg	8	yes	57	0	381	0	0			0	0			1				0	
6.6.1	win	2023-06-12	14:11:42	14:24:57	743846	5b5cff1c9351420001b78419	4	1	practice_slash	9	practice_slash	25	stimuli_distractor_diamondtriangles.svg	stimuli_target_rectangletriangles.svg	7	yes	53	1	828	0	0			0	0			1				0	
6.6.1	win	2023-06-12	14:11:42	14:24:57	743846	5b5cff1c9351420001b78419	4	1	practice_slash	9	advance_on_keypress_SLASH	26	stimuli_distractor_diamondtriangles.svg	stimuli_target_rectangletriangles.svg	7	yes	57	0	483	0	0			0	0			1				0	
6.6.1	win	2023-06-12	14:11:42	14:25:00	746671	5b5cff1c9351420001b78419	4	1	practice_slash	9	practice_slash	27	stimuli_target_diamondsquares.svg	stimuli_distractor_diamondtriangles.svg	3	yes	53	1	729	0	0			0	0			1				0	
6.6.1	win	2023-06-12	14:11:42	14:25:00	746671	5b5cff1c9351420001b78419	4	1	practice_slash	9	advance_on_keypress_SLASH	28	stimuli_target_diamondsquares.svg	stimuli_distractor_diamondtriangles.svg	3	yes	57	0	234	0	0			0	0			1				0	
6.6.1	win	2023-06-12	14:11:42	14:25:02	749295	5b5cff1c9351420001b78419	4	1	practice_slash	9	practice_slash	29	stimuli_distractor_trianglediamonds.svg	stimuli_target_diamondrectangles.svg	12	yes	53	1	777	0	0			0	0			1				0	
6.6.1	win	2023-06-12	14:11:42	14:25:02	749295	5b5cff1c9351420001b78419	4	1	practice_slash	9	advance_on_keypress_SLASH	30	stimuli_distractor_trianglediamonds.svg	stimuli_target_diamondrectangles.svg	12	yes	57	0	4961	0	0			0	0			1				0	
6.6.1	win	2023-06-12	14:11:42	14:25:09	756392	5b5cff1c9351420001b78419	4	1	practice_slash	9	practice_slash	31	stimuli_distractor_trianglediamonds.svg	stimuli_target_squarediamonds.svg	11	yes	53	1	519	0	0			0	0			1				0	
6.6.1	win	2023-06-12	14:11:42	14:25:09	756392	5b5cff1c9351420001b78419	4	1	practice_slash	9	advance_on_keypress_SLASH	32	stimuli_distractor_trianglediamonds.svg	stimuli_target_squarediamonds.svg	11	yes	57	0	288	0	0			0	0			1				0	
6.6.1	win	2023-06-12	14:11:42	14:25:14	760808	5b5cff1c9351420001b78419	4	1	main_slash	11	main_slash	1	stimuli_distractor_diamondtriangles.svg	stimuli_target_trianglesquares.svg	30	yes	53	1	610	0	0			0	0			1				0	
6.6.1	win	2023-06-12	14:11:42	14:25:14	760808	5b5cff1c9351420001b78419	4	1	main_slash	11	advance_on_keypress_SLASH	2	stimuli_distractor_diamondtriangles.svg	stimuli_target_trianglesquares.svg	30	yes	57	0	640	0	0			0	0			1				0	
6.6.1	win	2023-06-12	14:11:42	14:25:16	762688	5b5cff1c9351420001b78419	4	1	main_slash	11	main_slash	3	stimuli_distractor_diamondtriangles.svg	stimuli_target_squaretriangles.svg	15	yes	53	1	622	0	0			0	0			1				0	
6.6.1	win	2023-06-12	14:11:42	14:25:16	762688	5b5cff1c9351420001b78419	4	1	main_slash	11	advance_on_keypress_SLASH	4	stimuli_distractor_diamondtriangles.svg	stimuli_target_squaretriangles.svg	15	yes	57	0	453	0	0			0	0			1				0	
6.6.1	win	2023-06-12	14:11:42	14:25:17	764361	5b5cff1c9351420001b78419	4	1	main_slash	11	main_slash	5	stimuli_target_squarediamonds.svg	stimuli_distractor_diamondtriangles.svg	8	yes	53	1	607	0	0			0	0			1				0	
6.6.1	win	2023-06-12	14:11:42	14:25:17	764361	5b5cff1c9351420001b78419	4	1	main_slash	11	advance_on_keypress_SLASH	6	stimuli_target_squarediamonds.svg	stimuli_distractor_diamondtriangles.svg	8	yes	57	0	475	0	0			0	0			1				0	
6.6.1	win	2023-06-12	14:11:42	14:25:19	766089	5b5cff1c9351420001b78419	4	1	main_slash	11	main_slash	7	stimuli_distractor_trianglediamonds.svg	stimuli_target_diamondsquares.svg	28	yes	53	1	641	0	0			0	0			1				0	
6.6.1	win	2023-06-12	14:11:42	14:25:19	766089	5b5cff1c9351420001b78419	4	1	main_slash	11	advance_on_keypress_SLASH	8	stimuli_distractor_trianglediamonds.svg	stimuli_target_diamondsquares.svg	28	yes	57	0	403	0	0			0	0			1				0	
6.6.1	win	2023-06-12	14:11:42	14:25:21	767793	5b5cff1c9351420001b78419	4	1	main_slash	11	main_slash	9	stimuli_target_trianglesquares.svg	stimuli_distractor_diamondtriangles.svg	22	yes	53	1	685	0	0			0	0			1				0	
6.6.1	win	2023-06-12	14:11:42	14:25:21	767793	5b5cff1c9351420001b78419	4	1	main_slash	11	advance_on_keypress_SLASH	10	stimuli_target_trianglesquares.svg	stimuli_distractor_diamondtriangles.svg	22	yes	57	0	341	0	0			0	0			1				0	
6.6.1	win	2023-06-12	14:11:42	14:25:24	770750	5b5cff1c9351420001b78419	4	1	main_slash	11	main_slash	11	stimuli_distractor_diamondtriangles.svg	stimuli_distractor_diamondtriangles.svg	39	no	0	1	2003	0	0			0	0			1				0	
6.6.1	win	2023-06-12	14:11:42	14:25:24	770750	5b5cff1c9351420001b78419	4	1	main_slash	11	advance_on_keypress_SLASH	12	stimuli_distractor_diamondtriangles.svg	stimuli_distractor_diamondtriangles.svg	39	no	57	0	287	0	0			0	0			1				0	
6.6.1	win	2023-06-12	14:11:42	14:25:25	772298	5b5cff1c9351420001b78419	4	1	main_slash	11	main_slash	13	stimuli_target_rectanglediamonds.svg	stimuli_distractor_trianglediamonds.svg	2	yes	53	1	648	0	0			0	0			1				0	
6.6.1	win	2023-06-12	14:11:42	14:25:25	772298	5b5cff1c9351420001b78419	4	1	main_slash	11	advance_on_keypress_SLASH	14	stimuli_target_rectanglediamonds.svg	stimuli_distractor_trianglediamonds.svg	2	yes	57	0	402	0	0			0	0			1				0	
6.6.1	win	2023-06-12	14:11:42	14:25:27	774041	5b5cff1c9351420001b78419	4	1	main_slash	11	main_slash	15	stimuli_distractor_trianglediamonds.svg	stimuli_target_rectanglediamonds.svg	10	yes	53	1	724	0	0			0	0			1				0	
6.6.1	win	2023-06-12	14:11:42	14:25:27	774041	5b5cff1c9351420001b78419	4	1	main_slash	11	advance_on_keypress_SLASH	16	stimuli_distractor_trianglediamonds.svg	stimuli_target_rectanglediamonds.svg	10	yes	57	0	348	0	0			0	0			1				0	
6.6.1	win	2023-06-12	14:11:42	14:25:29	775690	5b5cff1c9351420001b78419	4	1	main_slash	11	main_slash	17	stimuli_distractor_trianglediamonds.svg	stimuli_target_trianglesquares.svg	26	yes	53	1	686	0	0			0	0			1				0	
6.6.1	win	2023-06-12	14:11:42	14:25:29	775690	5b5cff1c9351420001b78419	4	1	main_slash	11	advance_on_keypress_SLASH	18	stimuli_distractor_trianglediamonds.svg	stimuli_target_trianglesquares.svg	26	yes	57	0	310	0	0			0	0			1				0	
6.6.1	win	2023-06-12	14:11:42	14:25:30	777282	5b5cff1c9351420001b78419	4	1	main_slash	11	main_slash	19	stimuli_target_rectangletriangles.svg	stimuli_distractor_diamondtriangles.svg	5	yes	53	1	674	0	0			0	0			1				0	
6.6.1	win	2023-06-12	14:11:42	14:25:30	777282	5b5cff1c9351420001b78419	4	1	main_slash	11	advance_on_keypress_SLASH	20	stimuli_target_rectangletriangles.svg	stimuli_distractor_diamondtriangles.svg	5	yes	57	0	329	0	0			0	0			1				0	
6.6.1	win	2023-06-12	14:11:42	14:25:32	778946	5b5cff1c9351420001b78419	4	1	main_slash	11	main_slash	21	stimuli_distractor_trianglediamonds.svg	stimuli_target_diamondrectangles.svg	27	yes	53	1	720	0	0			0	0			1				0	
6.6.1	win	2023-06-12	14:11:42	14:25:32	778946	5b5cff1c9351420001b78419	4	1	main_slash	11	advance_on_keypress_SLASH	22	stimuli_distractor_trianglediamonds.svg	stimuli_target_diamondrectangles.svg	27	yes	57	0	357	0	0			0	0			1				0	
6.6.1	win	2023-06-12	14:11:42	14:25:34	780690	5b5cff1c9351420001b78419	4	1	main_slash	11	main_slash	23	stimuli_distractor_diamondtriangles.svg	stimuli_target_diamondrectangles.svg	31	yes	53	1	776	0	0			0	0			1				0	
6.6.1	win	2023-06-12	14:11:42	14:25:34	780690	5b5cff1c9351420001b78419	4	1	main_slash	11	advance_on_keypress_SLASH	24	stimuli_distractor_diamondtriangles.svg	stimuli_target_diamondrectangles.svg	31	yes	57	0	319	0	0			0	0			1				0	
6.6.1	win	2023-06-12	14:11:42	14:25:35	782386	5b5cff1c9351420001b78419	4	1	main_slash	11	main_slash	25	stimuli_distractor_trianglediamonds.svg	stimuli_target_trianglerectangles.svg	25	yes	53	1	757	0	0			0	0			1				0	
6.6.1	win	2023-06-12	14:11:42	14:25:35	782386	5b5cff1c9351420001b78419	4	1	main_slash	11	advance_on_keypress_SLASH	26	stimuli_distractor_trianglediamonds.svg	stimuli_target_trianglerectangles.svg	25	yes	57	0	329	0	0			0	0			1				0	
6.6.1	win	2023-06-12	14:11:42	14:25:37	784579	5b5cff1c9351420001b78419	4	1	main_slash	11	main_slash	27	stimuli_distractor_trianglediamonds.svg	stimuli_target_squarediamonds.svg	12	yes	53	1	1248	0	0			0	0			1				0	
6.6.1	win	2023-06-12	14:11:42	14:25:37	784579	5b5cff1c9351420001b78419	4	1	main_slash	11	advance_on_keypress_SLASH	28	stimuli_distractor_trianglediamonds.svg	stimuli_target_squarediamonds.svg	12	yes	57	0	502	0	0			0	0			1				0	
6.6.1	win	2023-06-12	14:11:42	14:25:39	786283	5b5cff1c9351420001b78419	4	1	main_slash	11	main_slash	29	stimuli_target_diamondrectangles.svg	stimuli_distractor_diamondtriangles.svg	23	yes	53	1	591	0	0			0	0			1				0	
6.6.1	win	2023-06-12	14:11:42	14:25:39	786283	5b5cff1c9351420001b78419	4	1	main_slash	11	advance_on_keypress_SLASH	30	stimuli_target_diamondrectangles.svg	stimuli_distractor_diamondtriangles.svg	23	yes	57	0	514	0	0			0	0			1				0	
6.6.1	win	2023-06-12	14:11:42	14:25:42	789417	5b5cff1c9351420001b78419	4	1	main_slash	11	main_slash	31	stimuli_distractor_trianglediamonds.svg	stimuli_distractor_trianglediamonds.svg	33	no	0	1	2003	0	0			0	0			1				0	
6.6.1	win	2023-06-12	14:11:42	14:25:42	789417	5b5cff1c9351420001b78419	4	1	main_slash	11	advance_on_keypress_SLASH	32	stimuli_distractor_trianglediamonds.svg	stimuli_distractor_trianglediamonds.svg	33	no	57	0	286	0	0			0	0			1				0	
6.6.1	win	2023-06-12	14:11:42	14:25:44	790955	5b5cff1c9351420001b78419	4	1	main_slash	11	main_slash	33	stimuli_target_rectanglediamonds.svg	stimuli_distractor_diamondtriangles.svg	6	yes	53	1	638	0	0			0	0			1				0	
6.6.1	win	2023-06-12	14:11:42	14:25:44	790955	5b5cff1c9351420001b78419	4	1	main_slash	11	advance_on_keypress_SLASH	34	stimuli_target_rectanglediamonds.svg	stimuli_distractor_diamondtriangles.svg	6	yes	57	0	296	0	0			0	0			1				0	
6.6.1	win	2023-06-12	14:11:42	14:25:47	793868	5b5cff1c9351420001b78419	4	1	main_slash	11	main_slash	35	stimuli_distractor_diamondtriangles.svg	stimuli_distractor_diamondtriangles.svg	40	no	0	1	2003	0	0			0	0			1				0	
6.6.1	win	2023-06-12	14:11:42	14:25:47	793868	5b5cff1c9351420001b78419	4	1	main_slash	11	advance_on_keypress_SLASH	36	stimuli_distractor_diamondtriangles.svg	stimuli_distractor_diamondtriangles.svg	40	no	57	0	363	0	0			0	0			1				0	
6.6.1	win	2023-06-12	14:11:42	14:25:48	795500	5b5cff1c9351420001b78419	4	1	main_slash	11	main_slash	37	stimuli_target_rectangletriangles.svg	stimuli_distractor_trianglediamonds.svg	1	yes	53	1	655	0	0			0	0			1				0	
6.6.1	win	2023-06-12	14:11:42	14:25:48	795500	5b5cff1c9351420001b78419	4	1	main_slash	11	advance_on_keypress_SLASH	38	stimuli_target_rectangletriangles.svg	stimuli_distractor_trianglediamonds.svg	1	yes	57	0	332	0	0			0	0			1				0	
6.6.1	win	2023-06-12	14:11:42	14:25:50	797164	5b5cff1c9351420001b78419	4	1	main_slash	11	main_slash	39	stimuli_distractor_trianglediamonds.svg	stimuli_target_squaretriangles.svg	11	yes	53	1	722	0	0			0	0			1				0	
6.6.1	win	2023-06-12	14:11:42	14:25:50	797164	5b5cff1c9351420001b78419	4	1	main_slash	11	advance_on_keypress_SLASH	40	stimuli_distractor_trianglediamonds.svg	stimuli_target_squaretriangles.svg	11	yes	57	0	305	0	0			0	0			1				0	
6.6.1	win	2023-06-12	14:11:42	14:25:53	800091	5b5cff1c9351420001b78419	4	1	main_slash	11	main_slash	41	stimuli_distractor_diamondtriangles.svg	stimuli_distractor_trianglediamonds.svg	38	no	0	1	2003	0	0			0	0			1				0	
6.6.1	win	2023-06-12	14:11:42	14:25:53	800091	5b5cff1c9351420001b78419	4	1	main_slash	11	advance_on_keypress_SLASH	42	stimuli_distractor_diamondtriangles.svg	stimuli_distractor_trianglediamonds.svg	38	no	57	0	477	0	0			0	0			1				0	
6.6.1	win	2023-06-12	14:11:42	14:25:56	803181	5b5cff1c9351420001b78419	4	1	main_slash	11	main_slash	43	stimuli_distractor_trianglediamonds.svg	stimuli_distractor_diamondtriangles.svg	35	no	0	1	2003	0	0			0	0			1				0	
6.6.1	win	2023-06-12	14:11:42	14:25:56	803181	5b5cff1c9351420001b78419	4	1	main_slash	11	advance_on_keypress_SLASH	44	stimuli_distractor_trianglediamonds.svg	stimuli_distractor_diamondtriangles.svg	35	no	57	0	267	0	0			0	0			1				0	
6.6.1	win	2023-06-12	14:11:42	14:25:58	804773	5b5cff1c9351420001b78419	4	1	main_slash	11	main_slash	45	stimuli_target_diamondsquares.svg	stimuli_distractor_diamondtriangles.svg	24	yes	53	1	713	0	0			0	0			1				0	
6.6.1	win	2023-06-12	14:11:42	14:25:58	804773	5b5cff1c9351420001b78419	4	1	main_slash	11	advance_on_keypress_SLASH	46	stimuli_target_diamondsquares.svg	stimuli_distractor_diamondtriangles.svg	24	yes	57	0	310	0	0			0	0			1				0	
6.6.1	win	2023-06-12	14:11:42	14:26:01	807695	5b5cff1c9351420001b78419	4	1	main_slash	11	main_slash	47	stimuli_distractor_trianglediamonds.svg	stimuli_distractor_diamondtriangles.svg	36	no	0	1	2003	0	0			0	0			1				0	
6.6.1	win	2023-06-12	14:11:42	14:26:01	807695	5b5cff1c9351420001b78419	4	1	main_slash	11	advance_on_keypress_SLASH	48	stimuli_distractor_trianglediamonds.svg	stimuli_distractor_diamondtriangles.svg	36	no	57	0	330	0	0			0	0			1				0	
6.6.1	win	2023-06-12	14:11:42	14:26:02	809373	5b5cff1c9351420001b78419	4	1	main_slash	11	main_slash	49	stimuli_target_trianglesquares.svg	stimuli_distractor_trianglediamonds.svg	18	yes	53	1	737	0	0			0	0			1				0	
6.6.1	win	2023-06-12	14:11:42	14:26:02	809373	5b5cff1c9351420001b78419	4	1	main_slash	11	advance_on_keypress_SLASH	50	stimuli_target_trianglesquares.svg	stimuli_distractor_trianglediamonds.svg	18	yes	57	0	377	0	0			0	0			1				0	
6.6.1	win	2023-06-12	14:11:42	14:26:04	811317	5b5cff1c9351420001b78419	4	1	main_slash	11	main_slash	51	stimuli_distractor_diamondtriangles.svg	stimuli_target_trianglerectangles.svg	29	yes	53	1	951	0	0			0	0			1				0	
6.6.1	win	2023-06-12	14:11:42	14:26:04	811317	5b5cff1c9351420001b78419	4	1	main_slash	11	advance_on_keypress_SLASH	52	stimuli_distractor_diamondtriangles.svg	stimuli_target_trianglerectangles.svg	29	yes	57	0	505	0	0			0	0			1				0	
6.6.1	win	2023-06-12	14:11:42	14:26:07	814445	5b5cff1c9351420001b78419	4	1	main_slash	11	main_slash	53	stimuli_target_trianglerectangles.svg	stimuli_distractor_trianglediamonds.svg	17	yes	0	0	2003	0	0			0	0			1				0	
6.6.1	win	2023-06-12	14:11:42	14:26:07	814445	5b5cff1c9351420001b78419	4	1	main_slash	11	advance_on_keypress_SLASH	54	stimuli_target_trianglerectangles.svg	stimuli_distractor_trianglediamonds.svg	17	yes	57	0	301	0	0			0	0			1				0	
6.6.1	win	2023-06-12	14:11:42	14:26:09	816182	5b5cff1c9351420001b78419	4	1	main_slash	11	main_slash	55	stimuli_distractor_diamondtriangles.svg	stimuli_target_squarediamonds.svg	16	yes	53	1	823	0	0			0	0			1				0	
6.6.1	win	2023-06-12	14:11:42	14:26:09	816182	5b5cff1c9351420001b78419	4	1	main_slash	11	advance_on_keypress_SLASH	56	stimuli_distractor_diamondtriangles.svg	stimuli_target_squarediamonds.svg	16	yes	57	0	325	0	0			0	0			1				0	
6.6.1	win	2023-06-12	14:11:42	14:26:12	819119	5b5cff1c9351420001b78419	4	1	main_slash	11	main_slash	57	stimuli_distractor_trianglediamonds.svg	stimuli_distractor_trianglediamonds.svg	34	no	0	1	2003	0	0			0	0			1				0	
6.6.1	win	2023-06-12	14:11:42	14:26:12	819119	5b5cff1c9351420001b78419	4	1	main_slash	11	advance_on_keypress_SLASH	58	stimuli_distractor_trianglediamonds.svg	stimuli_distractor_trianglediamonds.svg	34	no	57	0	291	0	0			0	0			1				0	
6.6.1	win	2023-06-12	14:11:42	14:26:14	820750	5b5cff1c9351420001b78419	4	1	main_slash	11	main_slash	59	stimuli_target_squarediamonds.svg	stimuli_distractor_trianglediamonds.svg	4	yes	53	1	724	0	0			0	0			1				0	
6.6.1	win	2023-06-12	14:11:42	14:26:14	820750	5b5cff1c9351420001b78419	4	1	main_slash	11	advance_on_keypress_SLASH	60	stimuli_target_squarediamonds.svg	stimuli_distractor_trianglediamonds.svg	4	yes	57	0	323	0	0			0	0			1				0	
6.6.1	win	2023-06-12	14:11:42	14:26:15	822455	5b5cff1c9351420001b78419	4	1	main_slash	11	main_slash	61	stimuli_distractor_diamondtriangles.svg	stimuli_target_diamondsquares.svg	32	yes	53	1	770	0	0			0	0			1				0	
6.6.1	win	2023-06-12	14:11:42	14:26:15	822455	5b5cff1c9351420001b78419	4	1	main_slash	11	advance_on_keypress_SLASH	62	stimuli_distractor_diamondtriangles.svg	stimuli_target_diamondsquares.svg	32	yes	57	0	328	0	0			0	0			1				0	
6.6.1	win	2023-06-12	14:11:42	14:26:17	824215	5b5cff1c9351420001b78419	4	1	main_slash	11	main_slash	63	stimuli_target_diamondrectangles.svg	stimuli_distractor_trianglediamonds.svg	19	yes	53	1	814	0	0			0	0			1				0	
6.6.1	win	2023-06-12	14:11:42	14:26:17	824215	5b5cff1c9351420001b78419	4	1	main_slash	11	advance_on_keypress_SLASH	64	stimuli_target_diamondrectangles.svg	stimuli_distractor_trianglediamonds.svg	19	yes	57	0	395	0	0			0	0			1				0	
6.6.1	win	2023-06-12	14:11:42	14:26:19	826095	5b5cff1c9351420001b78419	4	1	main_slash	11	main_slash	65	stimuli_distractor_diamondtriangles.svg	stimuli_target_rectanglediamonds.svg	14	yes	53	1	868	0	0			0	0			1				0	
6.6.1	win	2023-06-12	14:11:42	14:26:19	826095	5b5cff1c9351420001b78419	4	1	main_slash	11	advance_on_keypress_SLASH	66	stimuli_distractor_diamondtriangles.svg	stimuli_target_rectanglediamonds.svg	14	yes	57	0	321	0	0			0	0			1				0	
6.6.1	win	2023-06-12	14:11:42	14:26:22	829036	5b5cff1c9351420001b78419	4	1	main_slash	11	main_slash	67	stimuli_distractor_diamondtriangles.svg	stimuli_distractor_trianglediamonds.svg	37	no	0	1	2003	0	0			0	0			1				0	
6.6.1	win	2023-06-12	14:11:42	14:26:22	829036	5b5cff1c9351420001b78419	4	1	main_slash	11	advance_on_keypress_SLASH	68	stimuli_distractor_diamondtriangles.svg	stimuli_distractor_trianglediamonds.svg	37	no	57	0	312	0	0			0	0			1				0	
6.6.1	win	2023-06-12	14:11:42	14:26:24	830679	5b5cff1c9351420001b78419	4	1	main_slash	11	main_slash	69	stimuli_target_squaretriangles.svg	stimuli_distractor_diamondtriangles.svg	7	yes	53	1	716	0	0			0	0			1				0	
6.6.1	win	2023-06-12	14:11:42	14:26:24	830679	5b5cff1c9351420001b78419	4	1	main_slash	11	advance_on_keypress_SLASH	70	stimuli_target_squaretriangles.svg	stimuli_distractor_diamondtriangles.svg	7	yes	57	0	338	0	0			0	0			1				0	
6.6.1	win	2023-06-12	14:11:42	14:26:25	832367	5b5cff1c9351420001b78419	4	1	main_slash	11	main_slash	71	stimuli_distractor_trianglediamonds.svg	stimuli_target_rectangletriangles.svg	9	yes	53	1	737	0	0			0	0			1				0	
6.6.1	win	2023-06-12	14:11:42	14:26:25	832367	5b5cff1c9351420001b78419	4	1	main_slash	11	advance_on_keypress_SLASH	72	stimuli_distractor_trianglediamonds.svg	stimuli_target_rectangletriangles.svg	9	yes	57	0	395	0	0			0	0			1				0	
6.6.1	win	2023-06-12	14:11:42	14:26:27	834080	5b5cff1c9351420001b78419	4	1	main_slash	11	main_slash	73	stimuli_target_trianglerectangles.svg	stimuli_distractor_diamondtriangles.svg	21	yes	53	1	700	0	0			0	0			1				0	
6.6.1	win	2023-06-12	14:11:42	14:26:27	834080	5b5cff1c9351420001b78419	4	1	main_slash	11	advance_on_keypress_SLASH	74	stimuli_target_trianglerectangles.svg	stimuli_distractor_diamondtriangles.svg	21	yes	57	0	344	0	0			0	0			1				0	
6.6.1	win	2023-06-12	14:11:42	14:26:29	835744	5b5cff1c9351420001b78419	4	1	main_slash	11	main_slash	75	stimuli_distractor_diamondtriangles.svg	stimuli_target_rectangletriangles.svg	13	yes	53	1	704	0	0			0	0			1				0	
6.6.1	win	2023-06-12	14:11:42	14:26:29	835744	5b5cff1c9351420001b78419	4	1	main_slash	11	advance_on_keypress_SLASH	76	stimuli_distractor_diamondtriangles.svg	stimuli_target_rectangletriangles.svg	13	yes	57	0	388	0	0			0	0			1				0	
6.6.1	win	2023-06-12	14:11:42	14:26:30	837408	5b5cff1c9351420001b78419	4	1	main_slash	11	main_slash	77	stimuli_target_diamondsquares.svg	stimuli_distractor_trianglediamonds.svg	20	yes	53	1	660	0	0			0	0			1				0	
6.6.1	win	2023-06-12	14:11:42	14:26:30	837408	5b5cff1c9351420001b78419	4	1	main_slash	11	advance_on_keypress_SLASH	78	stimuli_target_diamondsquares.svg	stimuli_distractor_trianglediamonds.svg	20	yes	57	0	457	0	0			0	0			1				0	
6.6.1	win	2023-06-12	14:11:42	14:26:32	839264	5b5cff1c9351420001b78419	4	1	main_slash	11	main_slash	79	stimuli_target_squaretriangles.svg	stimuli_distractor_trianglediamonds.svg	3	yes	53	1	780	0	0			0	0			1				0	
6.6.1	win	2023-06-12	14:11:42	14:26:32	839264	5b5cff1c9351420001b78419	4	1	main_slash	11	advance_on_keypress_SLASH	80	stimuli_target_squaretriangles.svg	stimuli_distractor_trianglediamonds.svg	3	yes	57	0	523	0	0			0	0			1				0	
6.6.1	win	2023-06-12	14:11:42	14:26:34	841104	5b5cff1c9351420001b78419	4	1	main_slash	11	main_slash	81	stimuli_distractor_diamondtriangles.svg	stimuli_target_squaretriangles.svg	15	yes	53	1	703	0	0			0	0			1				0	
6.6.1	win	2023-06-12	14:11:42	14:26:34	841104	5b5cff1c9351420001b78419	4	1	main_slash	11	advance_on_keypress_SLASH	82	stimuli_distractor_diamondtriangles.svg	stimuli_target_squaretriangles.svg	15	yes	57	0	339	0	0			0	0			1				0	
6.6.1	win	2023-06-12	14:11:42	14:26:36	843009	5b5cff1c9351420001b78419	4	1	main_slash	11	main_slash	83	stimuli_target_trianglesquares.svg	stimuli_distractor_diamondtriangles.svg	22	yes	53	1	949	0	0			0	0			1				0	
6.6.1	win	2023-06-12	14:11:42	14:26:36	843009	5b5cff1c9351420001b78419	4	1	main_slash	11	advance_on_keypress_SLASH	84	stimuli_target_trianglesquares.svg	stimuli_distractor_diamondtriangles.svg	22	yes	57	0	517	0	0			0	0			1				0	
6.6.1	win	2023-06-12	14:11:42	14:26:38	844873	5b5cff1c9351420001b78419	4	1	main_slash	11	main_slash	85	stimuli_target_squarediamonds.svg	stimuli_distractor_trianglediamonds.svg	4	yes	53	1	736	0	0			0	0			1				0	
6.6.1	win	2023-06-12	14:11:42	14:26:38	844873	5b5cff1c9351420001b78419	4	1	main_slash	11	advance_on_keypress_SLASH	86	stimuli_target_squarediamonds.svg	stimuli_distractor_trianglediamonds.svg	4	yes	57	0	361	0	0			0	0			1				0	
6.6.1	win	2023-06-12	14:11:42	14:26:40	846665	5b5cff1c9351420001b78419	4	1	main_slash	11	main_slash	87	stimuli_target_diamondsquares.svg	stimuli_distractor_trianglediamonds.svg	20	yes	53	1	813	0	0			0	0			1				0	
6.6.1	win	2023-06-12	14:11:42	14:26:40	846665	5b5cff1c9351420001b78419	4	1	main_slash	11	advance_on_keypress_SLASH	88	stimuli_target_diamondsquares.svg	stimuli_distractor_trianglediamonds.svg	20	yes	57	0	345	0	0			0	0			1				0	
6.6.1	win	2023-06-12	14:11:42	14:26:41	848513	5b5cff1c9351420001b78419	4	1	main_slash	11	main_slash	89	stimuli_distractor_trianglediamonds.svg	stimuli_target_squaretriangles.svg	11	yes	53	1	890	0	0			0	0			1				0	
6.6.1	win	2023-06-12	14:11:42	14:26:41	848513	5b5cff1c9351420001b78419	4	1	main_slash	11	advance_on_keypress_SLASH	90	stimuli_distractor_trianglediamonds.svg	stimuli_target_squaretriangles.svg	11	yes	57	0	346	0	0			0	0			1				0	
6.6.1	win	2023-06-12	14:11:42	14:26:43	850257	5b5cff1c9351420001b78419	4	1	main_slash	11	main_slash	91	stimuli_target_diamondsquares.svg	stimuli_distractor_diamondtriangles.svg	24	yes	53	1	780	0	0			0	0			1				0	
6.6.1	win	2023-06-12	14:11:42	14:26:43	850257	5b5cff1c9351420001b78419	4	1	main_slash	11	advance_on_keypress_SLASH	92	stimuli_target_diamondsquares.svg	stimuli_distractor_diamondtriangles.svg	24	yes	57	0	355	0	0			0	0			1				0	
6.6.1	win	2023-06-12	14:11:42	14:26:45	852034	5b5cff1c9351420001b78419	4	1	main_slash	11	main_slash	93	stimuli_distractor_diamondtriangles.svg	stimuli_target_rectangletriangles.svg	13	yes	53	1	807	0	0			0	0			1				0	
6.6.1	win	2023-06-12	14:11:42	14:26:45	852034	5b5cff1c9351420001b78419	4	1	main_slash	11	advance_on_keypress_SLASH	94	stimuli_distractor_diamondtriangles.svg	stimuli_target_rectangletriangles.svg	13	yes	57	0	394	0	0			0	0			1				0	
6.6.1	win	2023-06-12	14:11:42	14:26:47	853810	5b5cff1c9351420001b78419	4	1	main_slash	11	main_slash	95	stimuli_target_squaretriangles.svg	stimuli_distractor_diamondtriangles.svg	7	yes	53	1	770	0	0			0	0			1				0	
6.6.1	win	2023-06-12	14:11:42	14:26:47	853810	5b5cff1c9351420001b78419	4	1	main_slash	11	advance_on_keypress_SLASH	96	stimuli_target_squaretriangles.svg	stimuli_distractor_diamondtriangles.svg	7	yes	57	0	328	0	0			0	0			1				0	
6.6.1	win	2023-06-12	14:11:42	14:26:49	855666	5b5cff1c9351420001b78419	4	1	main_slash	11	main_slash	97	stimuli_distractor_diamondtriangles.svg	stimuli_distractor_trianglediamonds.svg	37	no	53	0	911	0	0			0	0			1				0	
6.6.1	win	2023-06-12	14:11:42	14:26:49	855666	5b5cff1c9351420001b78419	4	1	main_slash	11	advance_on_keypress_SLASH	98	stimuli_distractor_diamondtriangles.svg	stimuli_distractor_trianglediamonds.svg	37	no	57	0	482	0	0			0	0			1				0	
6.6.1	win	2023-06-12	14:11:42	14:26:51	857618	5b5cff1c9351420001b78419	4	1	main_slash	11	main_slash	99	stimuli_distractor_trianglediamonds.svg	stimuli_target_trianglesquares.svg	26	yes	53	1	856	0	0			0	0			1				0	
6.6.1	win	2023-06-12	14:11:42	14:26:51	857618	5b5cff1c9351420001b78419	4	1	main_slash	11	advance_on_keypress_SLASH	100	stimuli_distractor_trianglediamonds.svg	stimuli_target_trianglesquares.svg	26	yes	57	0	443	0	0			0	0			1				0	
6.6.1	win	2023-06-12	14:11:42	14:26:52	859482	5b5cff1c9351420001b78419	4	1	main_slash	11	main_slash	101	stimuli_target_trianglerectangles.svg	stimuli_distractor_diamondtriangles.svg	21	yes	53	1	803	0	0			0	0			1				0	
6.6.1	win	2023-06-12	14:11:42	14:26:52	859482	5b5cff1c9351420001b78419	4	1	main_slash	11	advance_on_keypress_SLASH	102	stimuli_target_trianglerectangles.svg	stimuli_distractor_diamondtriangles.svg	21	yes	57	0	446	0	0			0	0			1				0	
6.6.1	win	2023-06-12	14:11:42	14:26:54	861019	5b5cff1c9351420001b78419	4	1	main_slash	11	main_slash	103	stimuli_target_trianglesquares.svg	stimuli_distractor_trianglediamonds.svg	18	yes	53	1	478	0	0			0	0			1				0	
6.6.1	win	2023-06-12	14:11:42	14:26:54	861019	5b5cff1c9351420001b78419	4	1	main_slash	11	advance_on_keypress_SLASH	104	stimuli_target_trianglesquares.svg	stimuli_distractor_trianglediamonds.svg	18	yes	57	0	761	0	0			0	0			1				0	
6.6.1	win	2023-06-12	14:11:42	14:26:56	862947	5b5cff1c9351420001b78419	4	1	main_slash	11	main_slash	105	stimuli_target_diamondrectangles.svg	stimuli_distractor_trianglediamonds.svg	19	yes	53	1	553	0	0			0	0			1				0	
6.6.1	win	2023-06-12	14:11:42	14:26:56	862947	5b5cff1c9351420001b78419	4	1	main_slash	11	advance_on_keypress_SLASH	106	stimuli_target_diamondrectangles.svg	stimuli_distractor_trianglediamonds.svg	19	yes	57	0	581	0	0			0	0			1				0	
6.6.1	win	2023-06-12	14:11:42	14:26:57	864555	5b5cff1c9351420001b78419	4	1	main_slash	11	main_slash	107	stimuli_distractor_trianglediamonds.svg	stimuli_target_diamondsquares.svg	28	yes	53	1	418	0	0			0	0			1				0	
6.6.1	win	2023-06-12	14:11:42	14:26:57	864555	5b5cff1c9351420001b78419	4	1	main_slash	11	advance_on_keypress_SLASH	108	stimuli_distractor_trianglediamonds.svg	stimuli_target_diamondsquares.svg	28	yes	57	0	714	0	0			0	0			1				0	
6.6.1	win	2023-06-12	14:11:42	14:27:01	867890	5b5cff1c9351420001b78419	4	1	main_slash	11	main_slash	109	stimuli_distractor_diamondtriangles.svg	stimuli_distractor_diamondtriangles.svg	40	no	0	1	2003	0	0			0	0			1				0	
6.6.1	win	2023-06-12	14:11:42	14:27:01	867890	5b5cff1c9351420001b78419	4	1	main_slash	11	advance_on_keypress_SLASH	110	stimuli_distractor_diamondtriangles.svg	stimuli_distractor_diamondtriangles.svg	40	no	57	0	437	0	0			0	0			1				0	
6.6.1	win	2023-06-12	14:11:42	14:27:03	869667	5b5cff1c9351420001b78419	4	1	main_slash	11	main_slash	111	stimuli_target_diamondrectangles.svg	stimuli_distractor_diamondtriangles.svg	23	yes	53	1	724	0	0			0	0			1				0	
6.6.1	win	2023-06-12	14:11:42	14:27:03	869667	5b5cff1c9351420001b78419	4	1	main_slash	11	advance_on_keypress_SLASH	112	stimuli_target_diamondrectangles.svg	stimuli_distractor_diamondtriangles.svg	23	yes	57	0	539	0	0			0	0			1				0	
6.6.1	win	2023-06-12	14:11:42	14:27:04	871299	5b5cff1c9351420001b78419	4	1	main_slash	11	main_slash	113	stimuli_distractor_diamondtriangles.svg	stimuli_target_trianglerectangles.svg	29	yes	53	1	481	0	0			0	0			1				0	
6.6.1	win	2023-06-12	14:11:42	14:27:04	871299	5b5cff1c9351420001b78419	4	1	main_slash	11	advance_on_keypress_SLASH	114	stimuli_distractor_diamondtriangles.svg	stimuli_target_trianglerectangles.svg	29	yes	57	0	572	0	0			0	0			1				0	
6.6.1	win	2023-06-12	14:11:42	14:27:06	873020	5b5cff1c9351420001b78419	4	1	main_slash	11	main_slash	115	stimuli_distractor_trianglediamonds.svg	stimuli_distractor_diamondtriangles.svg	36	no	53	0	536	0	0			0	0			1				0	
6.6.1	win	2023-06-12	14:11:42	14:27:06	873020	5b5cff1c9351420001b78419	4	1	main_slash	11	advance_on_keypress_SLASH	116	stimuli_distractor_trianglediamonds.svg	stimuli_distractor_diamondtriangles.svg	36	no	57	0	802	0	0			0	0			1				0	
6.6.1	win	2023-06-12	14:11:42	14:27:08	875084	5b5cff1c9351420001b78419	4	1	main_slash	11	main_slash	117	stimuli_distractor_trianglediamonds.svg	stimuli_target_trianglerectangles.svg	25	yes	53	1	648	0	0			0	0			1				0	
6.6.1	win	2023-06-12	14:11:42	14:27:08	875084	5b5cff1c9351420001b78419	4	1	main_slash	11	advance_on_keypress_SLASH	118	stimuli_distractor_trianglediamonds.svg	stimuli_target_trianglerectangles.svg	25	yes	57	0	563	0	0			0	0			1				0	
6.6.1	win	2023-06-12	14:11:42	14:27:10	876790	5b5cff1c9351420001b78419	4	1	main_slash	11	main_slash	119	stimuli_distractor_trianglediamonds.svg	stimuli_distractor_trianglediamonds.svg	33	no	53	0	526	0	0			0	0			1				0	
6.6.1	win	2023-06-12	14:11:42	14:27:10	876790	5b5cff1c9351420001b78419	4	1	main_slash	11	advance_on_keypress_SLASH	120	stimuli_distractor_trianglediamonds.svg	stimuli_distractor_trianglediamonds.svg	33	no	57	0	423	0	0			0	0			1				0	
6.6.1	win	2023-06-12	14:11:42	14:27:11	878364	5b5cff1c9351420001b78419	4	1	main_slash	11	main_slash	121	stimuli_distractor_trianglediamonds.svg	stimuli_target_rectangletriangles.svg	9	yes	53	1	532	0	0			0	0			1				0	
6.6.1	win	2023-06-12	14:11:42	14:27:11	878364	5b5cff1c9351420001b78419	4	1	main_slash	11	advance_on_keypress_SLASH	122	stimuli_distractor_trianglediamonds.svg	stimuli_target_rectangletriangles.svg	9	yes	57	0	502	0	0			0	0			1				0	
6.6.1	win	2023-06-12	14:11:42	14:27:14	881480	5b5cff1c9351420001b78419	4	1	main_slash	11	main_slash	123	stimuli_distractor_diamondtriangles.svg	stimuli_distractor_diamondtriangles.svg	39	no	0	1	2003	0	0			0	0			1				0	
6.6.1	win	2023-06-12	14:11:42	14:27:14	881480	5b5cff1c9351420001b78419	4	1	main_slash	11	advance_on_keypress_SLASH	124	stimuli_distractor_diamondtriangles.svg	stimuli_distractor_diamondtriangles.svg	39	no	57	0	440	0	0			0	0			1				0	
6.6.1	win	2023-06-12	14:11:42	14:27:16	883253	5b5cff1c9351420001b78419	4	1	main_slash	11	main_slash	125	stimuli_target_trianglerectangles.svg	stimuli_distractor_trianglediamonds.svg	17	yes	53	1	720	0	0			0	0			1				0	
6.6.1	win	2023-06-12	14:11:42	14:27:16	883253	5b5cff1c9351420001b78419	4	1	main_slash	11	advance_on_keypress_SLASH	126	stimuli_target_trianglerectangles.svg	stimuli_distractor_trianglediamonds.svg	17	yes	57	0	518	0	0			0	0			1				0	
6.6.1	win	2023-06-12	14:11:42	14:27:18	885117	5b5cff1c9351420001b78419	4	1	main_slash	11	main_slash	127	stimuli_target_rectangletriangles.svg	stimuli_distractor_diamondtriangles.svg	5	yes	53	1	737	0	0			0	0			1				0	
6.6.1	win	2023-06-12	14:11:42	14:27:18	885117	5b5cff1c9351420001b78419	4	1	main_slash	11	advance_on_keypress_SLASH	128	stimuli_target_rectangletriangles.svg	stimuli_distractor_diamondtriangles.svg	5	yes	57	0	426	0	0			0	0			1				0	
6.6.1	win	2023-06-12	14:11:42	14:27:20	886853	5b5cff1c9351420001b78419	4	1	main_slash	11	main_slash	129	stimuli_distractor_diamondtriangles.svg	stimuli_target_rectanglediamonds.svg	14	yes	53	1	695	0	0			0	0			1				0	
6.6.1	win	2023-06-12	14:11:42	14:27:20	886853	5b5cff1c9351420001b78419	4	1	main_slash	11	advance_on_keypress_SLASH	130	stimuli_distractor_diamondtriangles.svg	stimuli_target_rectanglediamonds.svg	14	yes	57	0	425	0	0			0	0			1				0	
6.6.1	win	2023-06-12	14:11:42	14:27:21	888469	5b5cff1c9351420001b78419	4	1	main_slash	11	main_slash	131	stimuli_distractor_diamondtriangles.svg	stimuli_target_squarediamonds.svg	16	yes	53	1	575	0	0			0	0			1				0	
6.6.1	win	2023-06-12	14:11:42	14:27:21	888469	5b5cff1c9351420001b78419	4	1	main_slash	11	advance_on_keypress_SLASH	132	stimuli_distractor_diamondtriangles.svg	stimuli_target_squarediamonds.svg	16	yes	57	0	431	0	0			0	0			1				0	
6.6.1	win	2023-06-12	14:11:42	14:27:24	890629	5b5cff1c9351420001b78419	4	1	main_slash	11	main_slash	133	stimuli_distractor_trianglediamonds.svg	stimuli_distractor_trianglediamonds.svg	34	no	53	0	1110	0	0			0	0			1				0	
6.6.1	win	2023-06-12	14:11:42	14:27:24	890629	5b5cff1c9351420001b78419	4	1	main_slash	11	advance_on_keypress_SLASH	134	stimuli_distractor_trianglediamonds.svg	stimuli_distractor_trianglediamonds.svg	34	no	57	0	505	0	0			0	0			1				0	
6.6.1	win	2023-06-12	14:11:42	14:27:25	892438	5b5cff1c9351420001b78419	4	1	main_slash	11	main_slash	135	stimuli_distractor_trianglediamonds.svg	stimuli_target_rectanglediamonds.svg	10	yes	53	1	689	0	0			0	0			1				0	
6.6.1	win	2023-06-12	14:11:42	14:27:25	892438	5b5cff1c9351420001b78419	4	1	main_slash	11	advance_on_keypress_SLASH	136	stimuli_distractor_trianglediamonds.svg	stimuli_target_rectanglediamonds.svg	10	yes	57	0	563	0	0			0	0			1				0	
6.6.1	win	2023-06-12	14:11:42	14:27:27	894230	5b5cff1c9351420001b78419	4	1	main_slash	11	main_slash	137	stimuli_target_rectanglediamonds.svg	stimuli_distractor_trianglediamonds.svg	2	yes	53	1	613	0	0			0	0			1				0	
6.6.1	win	2023-06-12	14:11:42	14:27:27	894230	5b5cff1c9351420001b78419	4	1	main_slash	11	advance_on_keypress_SLASH	138	stimuli_target_rectanglediamonds.svg	stimuli_distractor_trianglediamonds.svg	2	yes	57	0	427	0	0			0	0			1				0	
6.6.1	win	2023-06-12	14:11:42	14:27:29	896118	5b5cff1c9351420001b78419	4	1	main_slash	11	main_slash	139	stimuli_distractor_diamondtriangles.svg	stimuli_target_diamondsquares.svg	32	yes	53	1	849	0	0			0	0			1				0	
6.6.1	win	2023-06-12	14:11:42	14:27:29	896118	5b5cff1c9351420001b78419	4	1	main_slash	11	advance_on_keypress_SLASH	140	stimuli_distractor_diamondtriangles.svg	stimuli_target_diamondsquares.svg	32	yes	57	0	402	0	0			0	0			1				0	
6.6.1	win	2023-06-12	14:11:42	14:27:31	897846	5b5cff1c9351420001b78419	4	1	main_slash	11	main_slash	141	stimuli_distractor_trianglediamonds.svg	stimuli_target_diamondrectangles.svg	27	yes	53	1	708	0	0			0	0			1				0	
6.6.1	win	2023-06-12	14:11:42	14:27:31	897846	5b5cff1c9351420001b78419	4	1	main_slash	11	advance_on_keypress_SLASH	142	stimuli_distractor_trianglediamonds.svg	stimuli_target_diamondrectangles.svg	27	yes	57	0	465	0	0			0	0			1				0	
6.6.1	win	2023-06-12	14:11:42	14:27:34	900932	5b5cff1c9351420001b78419	4	1	main_slash	11	main_slash	143	stimuli_distractor_trianglediamonds.svg	stimuli_distractor_diamondtriangles.svg	35	no	0	1	2003	0	0			0	0			1				0	
6.6.1	win	2023-06-12	14:11:42	14:27:34	900932	5b5cff1c9351420001b78419	4	1	main_slash	11	advance_on_keypress_SLASH	144	stimuli_distractor_trianglediamonds.svg	stimuli_distractor_diamondtriangles.svg	35	no	57	0	295	0	0			0	0			1				0	
6.6.1	win	2023-06-12	14:11:42	14:27:35	902303	5b5cff1c9351420001b78419	4	1	main_slash	11	main_slash	145	stimuli_target_squaretriangles.svg	stimuli_distractor_trianglediamonds.svg	3	yes	53	1	464	0	0			0	0			1				0	
6.6.1	win	2023-06-12	14:11:42	14:27:35	902303	5b5cff1c9351420001b78419	4	1	main_slash	11	advance_on_keypress_SLASH	146	stimuli_target_squaretriangles.svg	stimuli_distractor_trianglediamonds.svg	3	yes	57	0	455	0	0			0	0			1				0	
6.6.1	win	2023-06-12	14:11:42	14:27:37	903823	5b5cff1c9351420001b78419	4	1	main_slash	11	main_slash	147	stimuli_distractor_trianglediamonds.svg	stimuli_target_squarediamonds.svg	12	yes	53	1	456	0	0			0	0			1				0	
6.6.1	win	2023-06-12	14:11:42	14:27:37	903823	5b5cff1c9351420001b78419	4	1	main_slash	11	advance_on_keypress_SLASH	148	stimuli_distractor_trianglediamonds.svg	stimuli_target_squarediamonds.svg	12	yes	57	0	438	0	0			0	0			1				0	
6.6.1	win	2023-06-12	14:11:42	14:27:38	905367	5b5cff1c9351420001b78419	4	1	main_slash	11	main_slash	149	stimuli_target_rectangletriangles.svg	stimuli_distractor_trianglediamonds.svg	1	yes	53	1	493	0	0			0	0			1				0	
6.6.1	win	2023-06-12	14:11:42	14:27:38	905367	5b5cff1c9351420001b78419	4	1	main_slash	11	advance_on_keypress_SLASH	150	stimuli_target_rectangletriangles.svg	stimuli_distractor_trianglediamonds.svg	1	yes	57	0	385	0	0			0	0			1				0	
6.6.1	win	2023-06-12	14:11:42	14:27:40	906895	5b5cff1c9351420001b78419	4	1	main_slash	11	main_slash	151	stimuli_distractor_diamondtriangles.svg	stimuli_distractor_trianglediamonds.svg	38	no	53	0	529	0	0			0	0			1				0	
6.6.1	win	2023-06-12	14:11:42	14:27:40	906895	5b5cff1c9351420001b78419	4	1	main_slash	11	advance_on_keypress_SLASH	152	stimuli_distractor_diamondtriangles.svg	stimuli_distractor_trianglediamonds.svg	38	no	57	0	673	0	0			0	0			1				0	
6.6.1	win	2023-06-12	14:11:42	14:27:42	908679	5b5cff1c9351420001b78419	4	1	main_slash	11	main_slash	153	stimuli_target_rectanglediamonds.svg	stimuli_distractor_diamondtriangles.svg	6	yes	53	1	493	0	0			0	0			1				0	
6.6.1	win	2023-06-12	14:11:42	14:27:42	908679	5b5cff1c9351420001b78419	4	1	main_slash	11	advance_on_keypress_SLASH	154	stimuli_target_rectanglediamonds.svg	stimuli_distractor_diamondtriangles.svg	6	yes	57	0	385	0	0			0	0			1				0	
6.6.1	win	2023-06-12	14:11:42	14:27:43	910184	5b5cff1c9351420001b78419	4	1	main_slash	11	main_slash	155	stimuli_distractor_diamondtriangles.svg	stimuli_target_trianglesquares.svg	30	yes	53	1	505	0	0			0	0			1				0	
6.6.1	win	2023-06-12	14:11:42	14:27:43	910184	5b5cff1c9351420001b78419	4	1	main_slash	11	advance_on_keypress_SLASH	156	stimuli_distractor_diamondtriangles.svg	stimuli_target_trianglesquares.svg	30	yes	57	0	422	0	0			0	0			1				0	
6.6.1	win	2023-06-12	14:11:42	14:27:45	911824	5b5cff1c9351420001b78419	4	1	main_slash	11	main_slash	157	stimuli_distractor_diamondtriangles.svg	stimuli_target_diamondrectangles.svg	31	yes	53	1	610	0	0			0	0			1				0	
6.6.1	win	2023-06-12	14:11:42	14:27:45	911824	5b5cff1c9351420001b78419	4	1	main_slash	11	advance_on_keypress_SLASH	158	stimuli_distractor_diamondtriangles.svg	stimuli_target_diamondrectangles.svg	31	yes	57	0	351	0	0			0	0			1				0	
6.6.1	win	2023-06-12	14:11:42	14:27:46	913368	5b5cff1c9351420001b78419	4	1	main_slash	11	main_slash	159	stimuli_target_squarediamonds.svg	stimuli_distractor_diamondtriangles.svg	8	yes	53	1	584	0	0			0	0			1				0	
6.6.1	win	2023-06-12	14:11:42	14:27:46	913368	5b5cff1c9351420001b78419	4	1	main_slash	11	advance_on_keypress_SLASH	160	stimuli_target_squarediamonds.svg	stimuli_distractor_diamondtriangles.svg	8	yes	57	0	386	0	0			0	0			1				0	
6.6.1	win	2023-06-12	14:11:42	14:27:46	913368	5b5cff1c9351420001b78419	4	1	headphonecheck_calibration	14	headphonecheck_calibrationIntro	1	stimuli_target_squarediamonds.svg	stimuli_distractor_diamondtriangles.svg	8	yes	calibrationButton	0	2237	0	0			0	0			1				0	
6.6.1	win	2023-06-12	14:11:42	14:27:46	913368	5b5cff1c9351420001b78419	4	1	headphonecheck_testphase	15	test_collectResponse	3	stimuli_target_squarediamonds.svg	stimuli_distractor_diamondtriangles.svg	8	yes	third	1	3096	1	2	antiphase_hc_ios.wav	3	0	0			1				0	
6.6.1	win	2023-06-12	14:11:42	14:27:46	913368	5b5cff1c9351420001b78419	4	1	headphonecheck_testphase	15	test_collectResponse	6	stimuli_target_squarediamonds.svg	stimuli_distractor_diamondtriangles.svg	8	yes	first	1	717	2	4	antiphase_hc_sio.wav	1	0	0			1				0	
6.6.1	win	2023-06-12	14:11:42	14:27:46	913368	5b5cff1c9351420001b78419	4	1	headphonecheck_testphase	15	test_collectResponse	9	stimuli_target_squarediamonds.svg	stimuli_distractor_diamondtriangles.svg	8	yes	second	1	621	3	1	antiphase_hc_iso.wav	2	0	0			1				0	
6.6.1	win	2023-06-12	14:11:42	14:27:46	913368	5b5cff1c9351420001b78419	4	1	headphonecheck_testphase	15	test_collectResponse	12	stimuli_target_squarediamonds.svg	stimuli_distractor_diamondtriangles.svg	8	yes	second	1	378	4	5	antiphase_hc_osi.wav	2	0	0			1				0	
6.6.1	win	2023-06-12	14:11:42	14:27:46	913368	5b5cff1c9351420001b78419	4	1	headphonecheck_testphase	15	test_collectResponse	15	stimuli_target_squarediamonds.svg	stimuli_distractor_diamondtriangles.svg	8	yes	third	1	432	5	6	antiphase_hc_ois.wav	3	0	0			1				0	
6.6.1	win	2023-06-12	14:11:42	14:27:46	913368	5b5cff1c9351420001b78419	4	1	headphonecheck_testphase	15	test_collectResponse	18	stimuli_target_squarediamonds.svg	stimuli_distractor_diamondtriangles.svg	8	yes	first	1	381	6	3	antiphase_hc_soi.wav	1	0	0			1				0	
6.6.1	win	2023-06-12	14:11:42	14:27:46	913368	5b5cff1c9351420001b78419	4	1	stereocheck_calibration	17	stereocheck_calibrationIntro	1	stimuli_target_squarediamonds.svg	stimuli_distractor_diamondtriangles.svg	8	yes	stereocheck_calibrationButton	0	2407	6	3	antiphase_hc_soi.wav	1	0	0			1				0	
6.6.1	win	2023-06-12	14:11:42	14:27:46	913368	5b5cff1c9351420001b78419	4	1	stereocheck_testphase	18	stereocheck_test_collectResponse	3	stimuli_target_squarediamonds.svg	stimuli_distractor_diamondtriangles.svg	8	yes	stereocheck_left	1	374	6	3	antiphase_hc_soi.wav	1	1	2	noise_calib_stim_LEFT.wav	1	1				0	
6.6.1	win	2023-06-12	14:11:42	14:27:46	913368	5b5cff1c9351420001b78419	4	1	stereocheck_testphase	18	stereocheck_test_collectResponse	6	stimuli_target_squarediamonds.svg	stimuli_distractor_diamondtriangles.svg	8	yes	stereocheck_right	1	356	6	3	antiphase_hc_soi.wav	1	2	6	noise_calib_stim_RIGHT.wav	2	1				0	
6.6.1	win	2023-06-12	14:11:42	14:27:46	913368	5b5cff1c9351420001b78419	4	1	stereocheck_testphase	18	stereocheck_test_collectResponse	9	stimuli_target_squarediamonds.svg	stimuli_distractor_diamondtriangles.svg	8	yes	stereocheck_left	1	315	6	3	antiphase_hc_soi.wav	1	3	1	noise_calib_stim_LEFT.wav	1	1				0	
6.6.1	win	2023-06-12	14:11:42	14:27:46	913368	5b5cff1c9351420001b78419	4	1	stereocheck_testphase	18	stereocheck_test_collectResponse	12	stimuli_target_squarediamonds.svg	stimuli_distractor_diamondtriangles.svg	8	yes	stereocheck_right	1	235	6	3	antiphase_hc_soi.wav	1	4	4	noise_calib_stim_RIGHT.wav	2	1				0	
6.6.1	win	2023-06-12	14:11:42	14:27:46	913368	5b5cff1c9351420001b78419	4	1	stereocheck_testphase	18	stereocheck_test_collectResponse	15	stimuli_target_squarediamonds.svg	stimuli_distractor_diamondtriangles.svg	8	yes	stereocheck_right	1	246	6	3	antiphase_hc_soi.wav	1	5	5	noise_calib_stim_RIGHT.wav	2	1				0	
6.6.1	win	2023-06-12	14:11:42	14:27:46	913368	5b5cff1c9351420001b78419	4	1	stereocheck_testphase	18	stereocheck_test_collectResponse	18	stimuli_target_squarediamonds.svg	stimuli_distractor_diamondtriangles.svg	8	yes	stereocheck_left	1	244	6	3	antiphase_hc_soi.wav	1	6	3	noise_calib_stim_LEFT.wav	1	1				0	
6.6.1	win	2023-06-12	14:11:42	14:27:46	913368	5b5cff1c9351420001b78419	4	1	DL_practice	21	DL_practice	2	stimuli_target_squarediamonds.svg	stimuli_distractor_diamondtriangles.svg	8	yes	ga	1	1064	6	3	antiphase_hc_soi.wav	1	6	3	noise_calib_stim_LEFT.wav	1	15	blb_dichoticlistening_ga-ga.mp3	ga	ga	0	left
6.6.1	win	2023-06-12	14:11:42	14:27:46	913368	5b5cff1c9351420001b78419	4	1	DL_practice	21	DL_practice	3	stimuli_target_squarediamonds.svg	stimuli_distractor_diamondtriangles.svg	8	yes	da	1	1260	6	3	antiphase_hc_soi.wav	1	6	3	noise_calib_stim_LEFT.wav	1	8	blb_dichoticlistening_da-da.mp3	da	da	0	left
6.6.1	win	2023-06-12	14:11:42	14:27:46	913368	5b5cff1c9351420001b78419	4	1	DL_practice	21	DL_practice	4	stimuli_target_squarediamonds.svg	stimuli_distractor_diamondtriangles.svg	8	yes	da	1	1007	6	3	antiphase_hc_soi.wav	1	6	3	noise_calib_stim_LEFT.wav	1	7	blb_dichoticlistening_da-ba.mp3	da	ba	1	left
6.6.1	win	2023-06-12	14:11:42	14:27:46	913368	5b5cff1c9351420001b78419	4	1	DL_practice	21	DL_practice	5	stimuli_target_squarediamonds.svg	stimuli_distractor_diamondtriangles.svg	8	yes	ba	1	1311	6	3	antiphase_hc_soi.wav	1	6	3	noise_calib_stim_LEFT.wav	1	1	blb_dichoticlistening_ba-ba.mp3	ba	ba	0	left
6.6.1	win	2023-06-12	14:11:42	14:27:46	913368	5b5cff1c9351420001b78419	4	1	DL_practice	21	DL_practice	6	stimuli_target_squarediamonds.svg	stimuli_distractor_diamondtriangles.svg	8	yes	pa	1	1246	6	3	antiphase_hc_soi.wav	1	6	3	noise_calib_stim_LEFT.wav	1	29	blb_dichoticlistening_pa-pa.mp3	pa	pa	0	left
6.6.1	win	2023-06-12	14:11:42	14:27:46	913368	5b5cff1c9351420001b78419	4	1	DL_practice	21	DL_practice	7	stimuli_target_squarediamonds.svg	stimuli_distractor_diamondtriangles.svg	8	yes	ta	1	925	6	3	antiphase_hc_soi.wav	1	6	3	noise_calib_stim_LEFT.wav	1	18	blb_dichoticlistening_ga-ta.mp3	ga	ta	1	right
6.6.1	win	2023-06-12	14:11:42	14:27:46	913368	5b5cff1c9351420001b78419	4	1	DL_practice	21	DL_practice	8	stimuli_target_squarediamonds.svg	stimuli_distractor_diamondtriangles.svg	8	yes	ta	1	714	6	3	antiphase_hc_soi.wav	1	6	3	noise_calib_stim_LEFT.wav	1	36	blb_dichoticlistening_ta-ta.mp3	ta	ta	0	left
6.6.1	win	2023-06-12	14:11:42	14:27:46	913368	5b5cff1c9351420001b78419	4	1	DL_practice	21	DL_practice	9	stimuli_target_squarediamonds.svg	stimuli_distractor_diamondtriangles.svg	8	yes	pa	1	992	6	3	antiphase_hc_soi.wav	1	6	3	noise_calib_stim_LEFT.wav	1	23	blb_dichoticlistening_ka-pa.mp3	ka	pa	1	right
6.6.1	win	2023-06-12	14:11:42	14:27:46	913368	5b5cff1c9351420001b78419	4	1	DL_practice	21	DL_practice	10	stimuli_target_squarediamonds.svg	stimuli_distractor_diamondtriangles.svg	8	yes	ka	1	915	6	3	antiphase_hc_soi.wav	1	6	3	noise_calib_stim_LEFT.wav	1	22	blb_dichoticlistening_ka-ka.mp3	ka	ka	0	left
6.6.1	win	2023-06-12	14:11:42	14:27:46	913368	5b5cff1c9351420001b78419	4	1	DL_test	23	DL_test	1	stimuli_target_squarediamonds.svg	stimuli_distractor_diamondtriangles.svg	8	yes	ka	0	1162	6	3	antiphase_hc_soi.wav	1	6	3	noise_calib_stim_LEFT.wav	1	33	blb_dichoticlistening_ta-ga.mp3	ta	ga	1	other
6.6.1	win	2023-06-12	14:11:42	14:27:46	913368	5b5cff1c9351420001b78419	4	1	DL_test	23	DL_test	2	stimuli_target_squarediamonds.svg	stimuli_distractor_diamondtriangles.svg	8	yes	ga	1	893	6	3	antiphase_hc_soi.wav	1	6	3	noise_calib_stim_LEFT.wav	1	15	blb_dichoticlistening_ga-ga.mp3	ga	ga	0	left
6.6.1	win	2023-06-12	14:11:42	14:27:46	913368	5b5cff1c9351420001b78419	4	1	DL_test	23	DL_test	3	stimuli_target_squarediamonds.svg	stimuli_distractor_diamondtriangles.svg	8	yes	ka	1	895	6	3	antiphase_hc_soi.wav	1	6	3	noise_calib_stim_LEFT.wav	1	16	blb_dichoticlistening_ga-ka.mp3	ga	ka	1	right
6.6.1	win	2023-06-12	14:11:42	14:27:46	913368	5b5cff1c9351420001b78419	4	1	DL_test	23	DL_test	4	stimuli_target_squarediamonds.svg	stimuli_distractor_diamondtriangles.svg	8	yes	pa	1	762	6	3	antiphase_hc_soi.wav	1	6	3	noise_calib_stim_LEFT.wav	1	11	blb_dichoticlistening_da-pa.mp3	da	pa	1	right
6.6.1	win	2023-06-12	14:11:42	14:27:46	913368	5b5cff1c9351420001b78419	4	1	DL_test	23	DL_test	5	stimuli_target_squarediamonds.svg	stimuli_distractor_diamondtriangles.svg	8	yes	da	0	1262	6	3	antiphase_hc_soi.wav	1	6	3	noise_calib_stim_LEFT.wav	1	13	blb_dichoticlistening_ga-ba.mp3	ga	ba	1	other
6.6.1	win	2023-06-12	14:11:42	14:27:46	913368	5b5cff1c9351420001b78419	4	1	DL_test	23	DL_test	6	stimuli_target_squarediamonds.svg	stimuli_distractor_diamondtriangles.svg	8	yes	ka	0	1074	6	3	antiphase_hc_soi.wav	1	6	3	noise_calib_stim_LEFT.wav	1	32	blb_dichoticlistening_ta-da.mp3	ta	da	1	other
6.6.1	win	2023-06-12	14:11:42	14:27:46	913368	5b5cff1c9351420001b78419	4	1	DL_test	23	DL_test	7	stimuli_target_squarediamonds.svg	stimuli_distractor_diamondtriangles.svg	8	yes	pa	1	811	6	3	antiphase_hc_soi.wav	1	6	3	noise_calib_stim_LEFT.wav	1	17	blb_dichoticlistening_ga-pa.mp3	ga	pa	1	right
6.6.1	win	2023-06-12	14:11:42	14:27:46	913368	5b5cff1c9351420001b78419	4	1	DL_test	23	DL_test	8	stimuli_target_squarediamonds.svg	stimuli_distractor_diamondtriangles.svg	8	yes	pa	1	852	6	3	antiphase_hc_soi.wav	1	6	3	noise_calib_stim_LEFT.wav	1	23	blb_dichoticlistening_ka-pa.mp3	ka	pa	1	right
6.6.1	win	2023-06-12	14:11:42	14:27:46	913368	5b5cff1c9351420001b78419	4	1	DL_test	23	DL_test	9	stimuli_target_squarediamonds.svg	stimuli_distractor_diamondtriangles.svg	8	yes	da	1	1158	6	3	antiphase_hc_soi.wav	1	6	3	noise_calib_stim_LEFT.wav	1	14	blb_dichoticlistening_ga-da.mp3	ga	da	1	right
6.6.1	win	2023-06-12	14:11:42	14:27:46	913368	5b5cff1c9351420001b78419	4	1	DL_test	23	DL_test	10	stimuli_target_squarediamonds.svg	stimuli_distractor_diamondtriangles.svg	8	yes	ka	0	950	6	3	antiphase_hc_soi.wav	1	6	3	noise_calib_stim_LEFT.wav	1	18	blb_dichoticlistening_ga-ta.mp3	ga	ta	1	other
6.6.1	win	2023-06-12	14:11:42	14:27:46	913368	5b5cff1c9351420001b78419	4	1	DL_test	23	DL_test	11	stimuli_target_squarediamonds.svg	stimuli_distractor_diamondtriangles.svg	8	yes	ka	1	1057	6	3	antiphase_hc_soi.wav	1	6	3	noise_calib_stim_LEFT.wav	1	19	blb_dichoticlistening_ka-ba.mp3	ka	ba	1	left
6.6.1	win	2023-06-12	14:11:42	14:27:46	913368	5b5cff1c9351420001b78419	4	1	DL_test	23	DL_test	12	stimuli_target_squarediamonds.svg	stimuli_distractor_diamondtriangles.svg	8	yes	da	1	966	6	3	antiphase_hc_soi.wav	1	6	3	noise_calib_stim_LEFT.wav	1	2	blb_dichoticlistening_ba-da.mp3	ba	da	1	right
6.6.1	win	2023-06-12	14:11:42	14:27:46	913368	5b5cff1c9351420001b78419	4	1	DL_test	23	DL_test	13	stimuli_target_squarediamonds.svg	stimuli_distractor_diamondtriangles.svg	8	yes	pa	0	1026	6	3	antiphase_hc_soi.wav	1	6	3	noise_calib_stim_LEFT.wav	1	10	blb_dichoticlistening_da-ka.mp3	da	ka	1	other
6.6.1	win	2023-06-12	14:11:42	14:27:46	913368	5b5cff1c9351420001b78419	4	1	DL_test	23	DL_test	14	stimuli_target_squarediamonds.svg	stimuli_distractor_diamondtriangles.svg	8	yes	ka	1	825	6	3	antiphase_hc_soi.wav	1	6	3	noise_calib_stim_LEFT.wav	1	24	blb_dichoticlistening_ka-ta.mp3	ka	ta	1	left
6.6.1	win	2023-06-12	14:11:42	14:27:46	913368	5b5cff1c9351420001b78419	4	1	DL_test	23	DL_test	15	stimuli_target_squarediamonds.svg	stimuli_distractor_diamondtriangles.svg	8	yes	ga	1	1067	6	3	antiphase_hc_soi.wav	1	6	3	noise_calib_stim_LEFT.wav	1	21	blb_dichoticlistening_ka-ga.mp3	ka	ga	1	right
6.6.1	win	2023-06-12	14:11:42	14:27:46	913368	5b5cff1c9351420001b78419	4	1	DL_test	23	DL_test	16	stimuli_target_squarediamonds.svg	stimuli_distractor_diamondtriangles.svg	8	yes	pa	1	1027	6	3	antiphase_hc_soi.wav	1	6	3	noise_calib_stim_LEFT.wav	1	5	blb_dichoticlistening_ba-pa.mp3	ba	pa	1	right
6.6.1	win	2023-06-12	14:11:42	14:27:46	913368	5b5cff1c9351420001b78419	4	1	DL_test	23	DL_test	17	stimuli_target_squarediamonds.svg	stimuli_distractor_diamondtriangles.svg	8	yes	ka	1	873	6	3	antiphase_hc_soi.wav	1	6	3	noise_calib_stim_LEFT.wav	1	28	blb_dichoticlistening_pa-ka.mp3	pa	ka	1	right
6.6.1	win	2023-06-12	14:11:42	14:27:46	913368	5b5cff1c9351420001b78419	4	1	DL_test	23	DL_test	18	stimuli_target_squarediamonds.svg	stimuli_distractor_diamondtriangles.svg	8	yes	da	1	969	6	3	antiphase_hc_soi.wav	1	6	3	noise_calib_stim_LEFT.wav	1	8	blb_dichoticlistening_da-da.mp3	da	da	0	left
6.6.1	win	2023-06-12	14:11:42	14:27:46	913368	5b5cff1c9351420001b78419	4	1	DL_test	23	DL_test	19	stimuli_target_squarediamonds.svg	stimuli_distractor_diamondtriangles.svg	8	yes	pa	1	968	6	3	antiphase_hc_soi.wav	1	6	3	noise_calib_stim_LEFT.wav	1	30	blb_dichoticlistening_pa-ta.mp3	pa	ta	1	left
6.6.1	win	2023-06-12	14:11:42	14:27:46	913368	5b5cff1c9351420001b78419	4	1	DL_test	23	DL_test	20	stimuli_target_squarediamonds.svg	stimuli_distractor_diamondtriangles.svg	8	yes	da	1	987	6	3	antiphase_hc_soi.wav	1	6	3	noise_calib_stim_LEFT.wav	1	9	blb_dichoticlistening_da-ga.mp3	da	ga	1	left
6.6.1	win	2023-06-12	14:11:42	14:27:46	913368	5b5cff1c9351420001b78419	4	1	DL_test	23	DL_test	21	stimuli_target_squarediamonds.svg	stimuli_distractor_diamondtriangles.svg	8	yes	ka	0	768	6	3	antiphase_hc_soi.wav	1	6	3	noise_calib_stim_LEFT.wav	1	12	blb_dichoticlistening_da-ta.mp3	da	ta	1	other
6.6.1	win	2023-06-12	14:11:42	14:27:46	913368	5b5cff1c9351420001b78419	4	1	DL_test	23	DL_test	22	stimuli_target_squarediamonds.svg	stimuli_distractor_diamondtriangles.svg	8	yes	pa	1	766	6	3	antiphase_hc_soi.wav	1	6	3	noise_calib_stim_LEFT.wav	1	35	blb_dichoticlistening_ta-pa.mp3	ta	pa	1	right
6.6.1	win	2023-06-12	14:11:42	14:27:46	913368	5b5cff1c9351420001b78419	4	1	DL_test	23	DL_test	23	stimuli_target_squarediamonds.svg	stimuli_distractor_diamondtriangles.svg	8	yes	pa	1	749	6	3	antiphase_hc_soi.wav	1	6	3	noise_calib_stim_LEFT.wav	1	26	blb_dichoticlistening_pa-da.mp3	pa	da	1	left
6.6.1	win	2023-06-12	14:11:42	14:27:46	913368	5b5cff1c9351420001b78419	4	1	DL_test	23	DL_test	24	stimuli_target_squarediamonds.svg	stimuli_distractor_diamondtriangles.svg	8	yes	ba	1	1336	6	3	antiphase_hc_soi.wav	1	6	3	noise_calib_stim_LEFT.wav	1	1	blb_dichoticlistening_ba-ba.mp3	ba	ba	0	left
6.6.1	win	2023-06-12	14:11:42	14:27:46	913368	5b5cff1c9351420001b78419	4	1	DL_test	23	DL_test	25	stimuli_target_squarediamonds.svg	stimuli_distractor_diamondtriangles.svg	8	yes	ka	1	982	6	3	antiphase_hc_soi.wav	1	6	3	noise_calib_stim_LEFT.wav	1	22	blb_dichoticlistening_ka-ka.mp3	ka	ka	0	left
6.6.1	win	2023-06-12	14:11:42	14:27:46	913368	5b5cff1c9351420001b78419	4	1	DL_test	23	DL_test	26	stimuli_target_squarediamonds.svg	stimuli_distractor_diamondtriangles.svg	8	yes	ba	1	1602	6	3	antiphase_hc_soi.wav	1	6	3	noise_calib_stim_LEFT.wav	1	7	blb_dichoticlistening_da-ba.mp3	da	ba	1	right
6.6.1	win	2023-06-12	14:11:42	14:27:46	913368	5b5cff1c9351420001b78419	4	1	DL_test	23	DL_test	27	stimuli_target_squarediamonds.svg	stimuli_distractor_diamondtriangles.svg	8	yes	ta	1	996	6	3	antiphase_hc_soi.wav	1	6	3	noise_calib_stim_LEFT.wav	1	36	blb_dichoticlistening_ta-ta.mp3	ta	ta	0	left
