build	computer.platform	date	time	timestamp	time_elapsed_ms	subject	group	session	blockcode	blocknum	trialcode	trialnum	stimulus_left	stimulus_right	stim_index	target_present	response	correct	latency	headphonecheck_countTestTrials	headphonecheck_index	headphonecheck_testSound	headphonecheck_correctResponse	stereocheck_countTestTrials	stereocheck_index	stereocheck_testSound	stereocheck_correctResponse	DL_index	DL_soundfile	DL_leftSound	DL_rightSound	DL_dualSound	DL_choice
6.6.1	win	2023-06-17	16:32:25	16:37:04	272367	63d4061bc9ec9cf926d6c9f7	3	1	practice_slash	5	practice_slash	1	stimuli_target_squarediamonds.svg	stimuli_distractor_diamondtriangles.svg	2	yes	0	0	2000	0	0			0	0			1				0	
6.6.1	win	2023-06-17	16:32:25	16:37:04	272367	63d4061bc9ec9cf926d6c9f7	3	1	practice_slash	5	advance_on_keypress_SLASH	2	stimuli_target_squarediamonds.svg	stimuli_distractor_diamondtriangles.svg	2	yes	57	0	1376	0	0			0	0			1				0	
6.6.1	win	2023-06-17	16:32:25	16:37:07	275806	63d4061bc9ec9cf926d6c9f7	3	1	practice_slash	5	practice_slash	3	stimuli_distractor_diamondtriangles.svg	stimuli_target_diamondrectangles.svg	8	yes	53	1	378	0	0			0	0			1				0	
6.6.1	win	2023-06-17	16:32:25	16:37:07	275806	63d4061bc9ec9cf926d6c9f7	3	1	practice_slash	5	advance_on_keypress_SLASH	4	stimuli_distractor_diamondtriangles.svg	stimuli_target_diamondrectangles.svg	8	yes	57	0	762	0	0			0	0			1				0	
6.6.1	win	2023-06-17	16:32:25	16:37:10	278660	63d4061bc9ec9cf926d6c9f7	3	1	practice_slash	5	practice_slash	5	stimuli_distractor_diamondtriangles.svg	stimuli_target_rectangletriangles.svg	7	yes	53	1	433	0	0			0	0			1				0	
6.6.1	win	2023-06-17	16:32:25	16:37:10	278660	63d4061bc9ec9cf926d6c9f7	3	1	practice_slash	5	advance_on_keypress_SLASH	6	stimuli_distractor_diamondtriangles.svg	stimuli_target_rectangletriangles.svg	7	yes	57	0	569	0	0			0	0			1				0	
6.6.1	win	2023-06-17	16:32:25	16:37:12	281213	63d4061bc9ec9cf926d6c9f7	3	1	practice_slash	5	practice_slash	7	stimuli_target_squarediamonds.svg	stimuli_distractor_trianglediamonds.svg	5	yes	53	1	323	0	0			0	0			1				0	
6.6.1	win	2023-06-17	16:32:25	16:37:12	281213	63d4061bc9ec9cf926d6c9f7	3	1	practice_slash	5	advance_on_keypress_SLASH	8	stimuli_target_squarediamonds.svg	stimuli_distractor_trianglediamonds.svg	5	yes	57	0	719	0	0			0	0			1				0	
6.6.1	win	2023-06-17	16:32:25	16:37:17	285589	63d4061bc9ec9cf926d6c9f7	3	1	practice_slash	5	practice_slash	9	stimuli_distractor_diamondtriangles.svg	stimuli_distractor_trianglediamonds.svg	14	no	0	1	2000	0	0			0	0			1				0	
6.6.1	win	2023-06-17	16:32:25	16:37:17	285589	63d4061bc9ec9cf926d6c9f7	3	1	practice_slash	5	advance_on_keypress_SLASH	10	stimuli_distractor_diamondtriangles.svg	stimuli_distractor_trianglediamonds.svg	14	no	57	0	679	0	0			0	0			1				0	
6.6.1	win	2023-06-17	16:32:25	16:37:19	288256	63d4061bc9ec9cf926d6c9f7	3	1	practice_slash	5	practice_slash	11	stimuli_target_rectanglediamonds.svg	stimuli_distractor_diamondtriangles.svg	1	yes	53	1	338	0	0			0	0			1				0	
6.6.1	win	2023-06-17	16:32:25	16:37:19	288256	63d4061bc9ec9cf926d6c9f7	3	1	practice_slash	5	advance_on_keypress_SLASH	12	stimuli_target_rectanglediamonds.svg	stimuli_distractor_diamondtriangles.svg	1	yes	57	0	932	0	0			0	0			1				0	
6.6.1	win	2023-06-17	16:32:25	16:37:22	291255	63d4061bc9ec9cf926d6c9f7	3	1	practice_slash	5	practice_slash	13	stimuli_distractor_trianglediamonds.svg	stimuli_target_diamondrectangles.svg	12	yes	53	1	423	0	0			0	0			1				0	
6.6.1	win	2023-06-17	16:32:25	16:37:22	291255	63d4061bc9ec9cf926d6c9f7	3	1	practice_slash	5	advance_on_keypress_SLASH	14	stimuli_distractor_trianglediamonds.svg	stimuli_target_diamondrectangles.svg	12	yes	57	0	575	0	0			0	0			1				0	
6.6.1	win	2023-06-17	16:32:25	16:37:25	293811	63d4061bc9ec9cf926d6c9f7	3	1	practice_slash	5	practice_slash	15	stimuli_target_rectanglediamonds.svg	stimuli_distractor_trianglediamonds.svg	4	yes	53	1	316	0	0			0	0			1				0	
6.6.1	win	2023-06-17	16:32:25	16:37:25	293811	63d4061bc9ec9cf926d6c9f7	3	1	practice_slash	5	advance_on_keypress_SLASH	16	stimuli_target_rectanglediamonds.svg	stimuli_distractor_trianglediamonds.svg	4	yes	57	0	662	0	0			0	0			1				0	
6.6.1	win	2023-06-17	16:32:25	16:37:29	298126	63d4061bc9ec9cf926d6c9f7	3	1	practice_slash	5	practice_slash	17	stimuli_distractor_trianglediamonds.svg	stimuli_distractor_trianglediamonds.svg	15	no	0	1	2000	0	0			0	0			1				0	
6.6.1	win	2023-06-17	16:32:25	16:37:29	298126	63d4061bc9ec9cf926d6c9f7	3	1	practice_slash	5	advance_on_keypress_SLASH	18	stimuli_distractor_trianglediamonds.svg	stimuli_distractor_trianglediamonds.svg	15	no	57	0	444	0	0			0	0			1				0	
6.6.1	win	2023-06-17	16:32:25	16:37:32	301001	63d4061bc9ec9cf926d6c9f7	3	1	practice_slash	5	practice_slash	19	stimuli_distractor_diamondtriangles.svg	stimuli_distractor_diamondtriangles.svg	13	no	53	0	779	0	0			0	0			1				0	
6.6.1	win	2023-06-17	16:32:25	16:37:32	301001	63d4061bc9ec9cf926d6c9f7	3	1	practice_slash	5	advance_on_keypress_SLASH	20	stimuli_distractor_diamondtriangles.svg	stimuli_distractor_diamondtriangles.svg	13	no	57	0	617	0	0			0	0			1				0	
6.6.1	win	2023-06-17	16:32:25	16:37:36	305269	63d4061bc9ec9cf926d6c9f7	3	1	practice_slash	5	practice_slash	21	stimuli_distractor_trianglediamonds.svg	stimuli_distractor_diamondtriangles.svg	16	no	0	1	2000	0	0			0	0			1				0	
6.6.1	win	2023-06-17	16:32:25	16:37:36	305269	63d4061bc9ec9cf926d6c9f7	3	1	practice_slash	5	advance_on_keypress_SLASH	22	stimuli_distractor_trianglediamonds.svg	stimuli_distractor_diamondtriangles.svg	16	no	57	0	565	0	0			0	0			1				0	
6.6.1	win	2023-06-17	16:32:25	16:37:39	307921	63d4061bc9ec9cf926d6c9f7	3	1	practice_slash	5	practice_slash	23	stimuli_distractor_trianglediamonds.svg	stimuli_target_squarediamonds.svg	11	yes	53	1	440	0	0			0	0			1				0	
6.6.1	win	2023-06-17	16:32:25	16:37:39	307921	63d4061bc9ec9cf926d6c9f7	3	1	practice_slash	5	advance_on_keypress_SLASH	24	stimuli_distractor_trianglediamonds.svg	stimuli_target_squarediamonds.svg	11	yes	57	0	899	0	0			0	0			1				0	
6.6.1	win	2023-06-17	16:32:25	16:37:42	311219	63d4061bc9ec9cf926d6c9f7	3	1	practice_slash	5	practice_slash	25	stimuli_distractor_diamondtriangles.svg	stimuli_target_trianglerectangles.svg	9	yes	53	1	739	0	0			0	0			1				0	
6.6.1	win	2023-06-17	16:32:25	16:37:42	311219	63d4061bc9ec9cf926d6c9f7	3	1	practice_slash	5	advance_on_keypress_SLASH	26	stimuli_distractor_diamondtriangles.svg	stimuli_target_trianglerectangles.svg	9	yes	57	0	644	0	0			0	0			1				0	
6.6.1	win	2023-06-17	16:32:25	16:37:45	314124	63d4061bc9ec9cf926d6c9f7	3	1	practice_slash	5	practice_slash	27	stimuli_target_diamondsquares.svg	stimuli_distractor_diamondtriangles.svg	3	yes	53	1	598	0	0			0	0			1				0	
6.6.1	win	2023-06-17	16:32:25	16:37:45	314124	63d4061bc9ec9cf926d6c9f7	3	1	practice_slash	5	advance_on_keypress_SLASH	28	stimuli_target_diamondsquares.svg	stimuli_distractor_diamondtriangles.svg	3	yes	57	0	575	0	0			0	0			1				0	
6.6.1	win	2023-06-17	16:32:25	16:37:48	316871	63d4061bc9ec9cf926d6c9f7	3	1	practice_slash	5	practice_slash	29	stimuli_target_diamondsquares.svg	stimuli_distractor_trianglediamonds.svg	6	yes	53	1	514	0	0			0	0			1				0	
6.6.1	win	2023-06-17	16:32:25	16:37:48	316871	63d4061bc9ec9cf926d6c9f7	3	1	practice_slash	5	advance_on_keypress_SLASH	30	stimuli_target_diamondsquares.svg	stimuli_distractor_trianglediamonds.svg	6	yes	57	0	347	0	0			0	0			1				0	
6.6.1	win	2023-06-17	16:32:25	16:37:50	319283	63d4061bc9ec9cf926d6c9f7	3	1	practice_slash	5	practice_slash	31	stimuli_distractor_trianglediamonds.svg	stimuli_target_rectanglediamonds.svg	10	yes	53	1	411	0	0			0	0			1				0	
6.6.1	win	2023-06-17	16:32:25	16:37:50	319283	63d4061bc9ec9cf926d6c9f7	3	1	practice_slash	5	advance_on_keypress_SLASH	32	stimuli_distractor_trianglediamonds.svg	stimuli_target_rectanglediamonds.svg	10	yes	57	0	408	0	0			0	0			1				0	
6.6.1	win	2023-06-17	16:32:25	16:39:05	393646	63d4061bc9ec9cf926d6c9f7	3	1	main_slash	7	main_slash	1	stimuli_target_squaretriangles.svg	stimuli_distractor_diamondtriangles.svg	7	yes	0	0	2000	0	0			0	0			1				0	
6.6.1	win	2023-06-17	16:32:25	16:39:05	393646	63d4061bc9ec9cf926d6c9f7	3	1	main_slash	7	advance_on_keypress_SLASH	2	stimuli_target_squaretriangles.svg	stimuli_distractor_diamondtriangles.svg	7	yes	57	0	696	0	0			0	0			1				0	
6.6.1	win	2023-06-17	16:32:25	16:39:06	395324	63d4061bc9ec9cf926d6c9f7	3	1	main_slash	7	main_slash	3	stimuli_distractor_trianglediamonds.svg	stimuli_target_squaretriangles.svg	11	yes	53	1	332	0	0			0	0			1				0	
6.6.1	win	2023-06-17	16:32:25	16:39:06	395324	63d4061bc9ec9cf926d6c9f7	3	1	main_slash	7	advance_on_keypress_SLASH	4	stimuli_distractor_trianglediamonds.svg	stimuli_target_squaretriangles.svg	11	yes	57	0	994	0	0			0	0			1				0	
6.6.1	win	2023-06-17	16:32:25	16:39:10	398974	63d4061bc9ec9cf926d6c9f7	3	1	main_slash	7	main_slash	5	stimuli_distractor_diamondtriangles.svg	stimuli_distractor_trianglediamonds.svg	37	no	0	1	2000	0	0			0	0			1				0	
6.6.1	win	2023-06-17	16:32:25	16:39:10	398974	63d4061bc9ec9cf926d6c9f7	3	1	main_slash	7	advance_on_keypress_SLASH	6	stimuli_distractor_diamondtriangles.svg	stimuli_distractor_trianglediamonds.svg	37	no	57	0	603	0	0			0	0			1				0	
6.6.1	win	2023-06-17	16:32:25	16:39:13	402221	63d4061bc9ec9cf926d6c9f7	3	1	main_slash	7	main_slash	7	stimuli_distractor_diamondtriangles.svg	stimuli_distractor_diamondtriangles.svg	40	no	0	1	2000	0	0			0	0			1				0	
6.6.1	win	2023-06-17	16:32:25	16:39:13	402221	63d4061bc9ec9cf926d6c9f7	3	1	main_slash	7	advance_on_keypress_SLASH	8	stimuli_distractor_diamondtriangles.svg	stimuli_distractor_diamondtriangles.svg	40	no	57	0	269	0	0			0	0			1				0	
6.6.1	win	2023-06-17	16:32:25	16:39:16	405135	63d4061bc9ec9cf926d6c9f7	3	1	main_slash	7	main_slash	9	stimuli_distractor_trianglediamonds.svg	stimuli_distractor_trianglediamonds.svg	33	no	0	1	2000	0	0			0	0			1				0	
6.6.1	win	2023-06-17	16:32:25	16:39:16	405135	63d4061bc9ec9cf926d6c9f7	3	1	main_slash	7	advance_on_keypress_SLASH	10	stimuli_distractor_trianglediamonds.svg	stimuli_distractor_trianglediamonds.svg	33	no	57	0	650	0	0			0	0			1				0	
6.6.1	win	2023-06-17	16:32:25	16:39:18	406965	63d4061bc9ec9cf926d6c9f7	3	1	main_slash	7	main_slash	11	stimuli_target_trianglerectangles.svg	stimuli_distractor_trianglediamonds.svg	17	yes	53	1	533	0	0			0	0			1				0	
6.6.1	win	2023-06-17	16:32:25	16:39:18	406965	63d4061bc9ec9cf926d6c9f7	3	1	main_slash	7	advance_on_keypress_SLASH	12	stimuli_target_trianglerectangles.svg	stimuli_distractor_trianglediamonds.svg	17	yes	57	0	1188	0	0			0	0			1				0	
6.6.1	win	2023-06-17	16:32:25	16:39:22	410795	63d4061bc9ec9cf926d6c9f7	3	1	main_slash	7	main_slash	13	stimuli_distractor_diamondtriangles.svg	stimuli_target_rectanglediamonds.svg	14	yes	0	0	2000	0	0			0	0			1				0	
6.6.1	win	2023-06-17	16:32:25	16:39:22	410795	63d4061bc9ec9cf926d6c9f7	3	1	main_slash	7	advance_on_keypress_SLASH	14	stimuli_distractor_diamondtriangles.svg	stimuli_target_rectanglediamonds.svg	14	yes	57	0	567	0	0			0	0			1				0	
6.6.1	win	2023-06-17	16:32:25	16:39:24	412408	63d4061bc9ec9cf926d6c9f7	3	1	main_slash	7	main_slash	15	stimuli_target_squaretriangles.svg	stimuli_distractor_trianglediamonds.svg	3	yes	53	1	399	0	0			0	0			1				0	
6.6.1	win	2023-06-17	16:32:25	16:39:24	412408	63d4061bc9ec9cf926d6c9f7	3	1	main_slash	7	advance_on_keypress_SLASH	16	stimuli_target_squaretriangles.svg	stimuli_distractor_trianglediamonds.svg	3	yes	57	0	943	0	0			0	0			1				0	
6.6.1	win	2023-06-17	16:32:25	16:39:25	414301	63d4061bc9ec9cf926d6c9f7	3	1	main_slash	7	main_slash	17	stimuli_target_squarediamonds.svg	stimuli_distractor_diamondtriangles.svg	8	yes	53	1	294	0	0			0	0			1				0	
6.6.1	win	2023-06-17	16:32:25	16:39:25	414301	63d4061bc9ec9cf926d6c9f7	3	1	main_slash	7	advance_on_keypress_SLASH	18	stimuli_target_squarediamonds.svg	stimuli_distractor_diamondtriangles.svg	8	yes	57	0	1100	0	0			0	0			1				0	
6.6.1	win	2023-06-17	16:32:25	16:39:28	416519	63d4061bc9ec9cf926d6c9f7	3	1	main_slash	7	main_slash	19	stimuli_target_trianglesquares.svg	stimuli_distractor_diamondtriangles.svg	22	yes	53	1	464	0	0			0	0			1				0	
6.6.1	win	2023-06-17	16:32:25	16:39:28	416519	63d4061bc9ec9cf926d6c9f7	3	1	main_slash	7	advance_on_keypress_SLASH	20	stimuli_target_trianglesquares.svg	stimuli_distractor_diamondtriangles.svg	22	yes	57	0	887	0	0			0	0			1				0	
6.6.1	win	2023-06-17	16:32:25	16:39:30	418484	63d4061bc9ec9cf926d6c9f7	3	1	main_slash	7	main_slash	21	stimuli_distractor_diamondtriangles.svg	stimuli_target_squaretriangles.svg	15	yes	53	1	430	0	0			0	0			1				0	
6.6.1	win	2023-06-17	16:32:25	16:39:30	418484	63d4061bc9ec9cf926d6c9f7	3	1	main_slash	7	advance_on_keypress_SLASH	22	stimuli_distractor_diamondtriangles.svg	stimuli_target_squaretriangles.svg	15	yes	57	0	665	0	0			0	0			1				0	
6.6.1	win	2023-06-17	16:32:25	16:39:33	421802	63d4061bc9ec9cf926d6c9f7	3	1	main_slash	7	main_slash	23	stimuli_distractor_trianglediamonds.svg	stimuli_distractor_trianglediamonds.svg	34	no	0	1	2000	0	0			0	0			1				0	
6.6.1	win	2023-06-17	16:32:25	16:39:33	421802	63d4061bc9ec9cf926d6c9f7	3	1	main_slash	7	advance_on_keypress_SLASH	24	stimuli_distractor_trianglediamonds.svg	stimuli_distractor_trianglediamonds.svg	34	no	57	0	487	0	0			0	0			1				0	
6.6.1	win	2023-06-17	16:32:25	16:39:35	423361	63d4061bc9ec9cf926d6c9f7	3	1	main_slash	7	main_slash	25	stimuli_target_rectanglediamonds.svg	stimuli_distractor_trianglediamonds.svg	2	yes	53	1	429	0	0			0	0			1				0	
6.6.1	win	2023-06-17	16:32:25	16:39:35	423361	63d4061bc9ec9cf926d6c9f7	3	1	main_slash	7	advance_on_keypress_SLASH	26	stimuli_target_rectanglediamonds.svg	stimuli_distractor_trianglediamonds.svg	2	yes	57	0	711	0	0			0	0			1				0	
6.6.1	win	2023-06-17	16:32:25	16:39:38	426730	63d4061bc9ec9cf926d6c9f7	3	1	main_slash	7	main_slash	27	stimuli_distractor_trianglediamonds.svg	stimuli_distractor_diamondtriangles.svg	36	no	0	1	2000	0	0			0	0			1				0	
6.6.1	win	2023-06-17	16:32:25	16:39:38	426730	63d4061bc9ec9cf926d6c9f7	3	1	main_slash	7	advance_on_keypress_SLASH	28	stimuli_distractor_trianglediamonds.svg	stimuli_distractor_diamondtriangles.svg	36	no	57	0	479	0	0			0	0			1				0	
6.6.1	win	2023-06-17	16:32:25	16:39:39	428299	63d4061bc9ec9cf926d6c9f7	3	1	main_slash	7	main_slash	29	stimuli_distractor_diamondtriangles.svg	stimuli_target_diamondrectangles.svg	31	yes	53	1	439	0	0			0	0			1				0	
6.6.1	win	2023-06-17	16:32:25	16:39:39	428299	63d4061bc9ec9cf926d6c9f7	3	1	main_slash	7	advance_on_keypress_SLASH	30	stimuli_distractor_diamondtriangles.svg	stimuli_target_diamondrectangles.svg	31	yes	57	0	930	0	0			0	0			1				0	
6.6.1	win	2023-06-17	16:32:25	16:39:43	431875	63d4061bc9ec9cf926d6c9f7	3	1	main_slash	7	main_slash	31	stimuli_distractor_trianglediamonds.svg	stimuli_target_rectanglediamonds.svg	10	yes	0	0	2000	0	0			0	0			1				0	
6.6.1	win	2023-06-17	16:32:25	16:39:43	431875	63d4061bc9ec9cf926d6c9f7	3	1	main_slash	7	advance_on_keypress_SLASH	32	stimuli_distractor_trianglediamonds.svg	stimuli_target_rectanglediamonds.svg	10	yes	57	0	338	0	0			0	0			1				0	
6.6.1	win	2023-06-17	16:32:25	16:39:46	434855	63d4061bc9ec9cf926d6c9f7	3	1	main_slash	7	main_slash	33	stimuli_distractor_diamondtriangles.svg	stimuli_target_trianglesquares.svg	30	yes	0	0	2000	0	0			0	0			1				0	
6.6.1	win	2023-06-17	16:32:25	16:39:46	434855	63d4061bc9ec9cf926d6c9f7	3	1	main_slash	7	advance_on_keypress_SLASH	34	stimuli_distractor_diamondtriangles.svg	stimuli_target_trianglesquares.svg	30	yes	57	0	182	0	0			0	0			1				0	
6.6.1	win	2023-06-17	16:32:25	16:39:48	436494	63d4061bc9ec9cf926d6c9f7	3	1	main_slash	7	main_slash	35	stimuli_distractor_diamondtriangles.svg	stimuli_target_trianglerectangles.svg	29	yes	53	1	808	0	0			0	0			1				0	
6.6.1	win	2023-06-17	16:32:25	16:39:48	436494	63d4061bc9ec9cf926d6c9f7	3	1	main_slash	7	advance_on_keypress_SLASH	36	stimuli_distractor_diamondtriangles.svg	stimuli_target_trianglerectangles.svg	29	yes	57	0	1497	0	0			0	0			1				0	
6.6.1	win	2023-06-17	16:32:25	16:39:52	440633	63d4061bc9ec9cf926d6c9f7	3	1	main_slash	7	main_slash	37	stimuli_distractor_diamondtriangles.svg	stimuli_distractor_trianglediamonds.svg	38	no	0	1	2000	0	0			0	0			1				0	
6.6.1	win	2023-06-17	16:32:25	16:39:52	440633	63d4061bc9ec9cf926d6c9f7	3	1	main_slash	7	advance_on_keypress_SLASH	38	stimuli_distractor_diamondtriangles.svg	stimuli_distractor_trianglediamonds.svg	38	no	57	0	337	0	0			0	0			1				0	
6.6.1	win	2023-06-17	16:32:25	16:39:53	442215	63d4061bc9ec9cf926d6c9f7	3	1	main_slash	7	main_slash	39	stimuli_target_diamondsquares.svg	stimuli_distractor_diamondtriangles.svg	24	yes	53	1	602	0	0			0	0			1				0	
6.6.1	win	2023-06-17	16:32:25	16:39:53	442215	63d4061bc9ec9cf926d6c9f7	3	1	main_slash	7	advance_on_keypress_SLASH	40	stimuli_target_diamondsquares.svg	stimuli_distractor_diamondtriangles.svg	24	yes	57	0	4115	0	0			0	0			1				0	
6.6.1	win	2023-06-17	16:32:25	16:39:59	447410	63d4061bc9ec9cf926d6c9f7	3	1	main_slash	7	main_slash	41	stimuli_distractor_trianglediamonds.svg	stimuli_target_squarediamonds.svg	12	yes	53	1	435	0	0			0	0			1				0	
6.6.1	win	2023-06-17	16:32:25	16:39:59	447410	63d4061bc9ec9cf926d6c9f7	3	1	main_slash	7	advance_on_keypress_SLASH	42	stimuli_distractor_trianglediamonds.svg	stimuli_target_squarediamonds.svg	12	yes	57	0	899	0	0			0	0			1				0	
6.6.1	win	2023-06-17	16:32:25	16:40:01	449464	63d4061bc9ec9cf926d6c9f7	3	1	main_slash	7	main_slash	43	stimuli_distractor_trianglediamonds.svg	stimuli_target_diamondsquares.svg	28	yes	53	1	505	0	0			0	0			1				0	
6.6.1	win	2023-06-17	16:32:25	16:40:01	449464	63d4061bc9ec9cf926d6c9f7	3	1	main_slash	7	advance_on_keypress_SLASH	44	stimuli_distractor_trianglediamonds.svg	stimuli_target_diamondsquares.svg	28	yes	57	0	721	0	0			0	0			1				0	
6.6.1	win	2023-06-17	16:32:25	16:40:04	452821	63d4061bc9ec9cf926d6c9f7	3	1	main_slash	7	main_slash	45	stimuli_distractor_trianglediamonds.svg	stimuli_distractor_diamondtriangles.svg	35	no	0	1	2000	0	0			0	0			1				0	
6.6.1	win	2023-06-17	16:32:25	16:40:04	452821	63d4061bc9ec9cf926d6c9f7	3	1	main_slash	7	advance_on_keypress_SLASH	46	stimuli_distractor_trianglediamonds.svg	stimuli_distractor_diamondtriangles.svg	35	no	57	0	664	0	0			0	0			1				0	
6.6.1	win	2023-06-17	16:32:25	16:40:06	454469	63d4061bc9ec9cf926d6c9f7	3	1	main_slash	7	main_slash	47	stimuli_distractor_trianglediamonds.svg	stimuli_target_rectangletriangles.svg	9	yes	53	1	335	0	0			0	0			1				0	
6.6.1	win	2023-06-17	16:32:25	16:40:06	454469	63d4061bc9ec9cf926d6c9f7	3	1	main_slash	7	advance_on_keypress_SLASH	48	stimuli_distractor_trianglediamonds.svg	stimuli_target_rectangletriangles.svg	9	yes	57	0	718	0	0			0	0			1				0	
6.6.1	win	2023-06-17	16:32:25	16:40:07	456292	63d4061bc9ec9cf926d6c9f7	3	1	main_slash	7	main_slash	49	stimuli_target_trianglerectangles.svg	stimuli_distractor_diamondtriangles.svg	21	yes	53	1	459	0	0			0	0			1				0	
6.6.1	win	2023-06-17	16:32:25	16:40:07	456292	63d4061bc9ec9cf926d6c9f7	3	1	main_slash	7	advance_on_keypress_SLASH	50	stimuli_target_trianglerectangles.svg	stimuli_distractor_diamondtriangles.svg	21	yes	57	0	800	0	0			0	0			1				0	
6.6.1	win	2023-06-17	16:32:25	16:40:09	458096	63d4061bc9ec9cf926d6c9f7	3	1	main_slash	7	main_slash	51	stimuli_target_squarediamonds.svg	stimuli_distractor_trianglediamonds.svg	4	yes	53	1	365	0	0			0	0			1				0	
6.6.1	win	2023-06-17	16:32:25	16:40:09	458096	63d4061bc9ec9cf926d6c9f7	3	1	main_slash	7	advance_on_keypress_SLASH	52	stimuli_target_squarediamonds.svg	stimuli_distractor_trianglediamonds.svg	4	yes	57	0	624	0	0			0	0			1				0	
6.6.1	win	2023-06-17	16:32:25	16:40:12	460429	63d4061bc9ec9cf926d6c9f7	3	1	main_slash	7	main_slash	53	stimuli_target_rectanglediamonds.svg	stimuli_distractor_diamondtriangles.svg	6	yes	53	1	1066	0	0			0	0			1				0	
6.6.1	win	2023-06-17	16:32:25	16:40:12	460429	63d4061bc9ec9cf926d6c9f7	3	1	main_slash	7	advance_on_keypress_SLASH	54	stimuli_target_rectanglediamonds.svg	stimuli_distractor_diamondtriangles.svg	6	yes	57	0	643	0	0			0	0			1				0	
6.6.1	win	2023-06-17	16:32:25	16:40:15	463727	63d4061bc9ec9cf926d6c9f7	3	1	main_slash	7	main_slash	55	stimuli_distractor_diamondtriangles.svg	stimuli_target_diamondsquares.svg	32	yes	0	0	2000	0	0			0	0			1				0	
6.6.1	win	2023-06-17	16:32:25	16:40:15	463727	63d4061bc9ec9cf926d6c9f7	3	1	main_slash	7	advance_on_keypress_SLASH	56	stimuli_distractor_diamondtriangles.svg	stimuli_target_diamondsquares.svg	32	yes	57	0	264	0	0			0	0			1				0	
6.6.1	win	2023-06-17	16:32:25	16:40:16	465077	63d4061bc9ec9cf926d6c9f7	3	1	main_slash	7	main_slash	57	stimuli_target_diamondrectangles.svg	stimuli_distractor_trianglediamonds.svg	19	yes	53	1	437	0	0			0	0			1				0	
6.6.1	win	2023-06-17	16:32:25	16:40:16	465077	63d4061bc9ec9cf926d6c9f7	3	1	main_slash	7	advance_on_keypress_SLASH	58	stimuli_target_diamondrectangles.svg	stimuli_distractor_trianglediamonds.svg	19	yes	57	0	778	0	0			0	0			1				0	
6.6.1	win	2023-06-17	16:32:25	16:40:18	466924	63d4061bc9ec9cf926d6c9f7	3	1	main_slash	7	main_slash	59	stimuli_target_diamondrectangles.svg	stimuli_distractor_diamondtriangles.svg	23	yes	53	1	418	0	0			0	0			1				0	
6.6.1	win	2023-06-17	16:32:25	16:40:18	466924	63d4061bc9ec9cf926d6c9f7	3	1	main_slash	7	advance_on_keypress_SLASH	60	stimuli_target_diamondrectangles.svg	stimuli_distractor_diamondtriangles.svg	23	yes	57	0	681	0	0			0	0			1				0	
6.6.1	win	2023-06-17	16:32:25	16:40:21	470254	63d4061bc9ec9cf926d6c9f7	3	1	main_slash	7	main_slash	61	stimuli_distractor_trianglediamonds.svg	stimuli_target_trianglesquares.svg	26	yes	0	0	2000	0	0			0	0			1				0	
6.6.1	win	2023-06-17	16:32:25	16:40:21	470254	63d4061bc9ec9cf926d6c9f7	3	1	main_slash	7	advance_on_keypress_SLASH	62	stimuli_distractor_trianglediamonds.svg	stimuli_target_trianglesquares.svg	26	yes	57	0	530	0	0			0	0			1				0	
6.6.1	win	2023-06-17	16:32:25	16:40:23	472056	63d4061bc9ec9cf926d6c9f7	3	1	main_slash	7	main_slash	63	stimuli_target_diamondsquares.svg	stimuli_distractor_trianglediamonds.svg	20	yes	53	1	623	0	0			0	0			1				0	
6.6.1	win	2023-06-17	16:32:25	16:40:23	472056	63d4061bc9ec9cf926d6c9f7	3	1	main_slash	7	advance_on_keypress_SLASH	64	stimuli_target_diamondsquares.svg	stimuli_distractor_trianglediamonds.svg	20	yes	57	0	612	0	0			0	0			1				0	
6.6.1	win	2023-06-17	16:32:25	16:40:26	475316	63d4061bc9ec9cf926d6c9f7	3	1	main_slash	7	main_slash	65	stimuli_target_rectangletriangles.svg	stimuli_distractor_diamondtriangles.svg	5	yes	0	0	2000	0	0			0	0			1				0	
6.6.1	win	2023-06-17	16:32:25	16:40:26	475316	63d4061bc9ec9cf926d6c9f7	3	1	main_slash	7	advance_on_keypress_SLASH	66	stimuli_target_rectangletriangles.svg	stimuli_distractor_diamondtriangles.svg	5	yes	57	0	344	0	0			0	0			1				0	
6.6.1	win	2023-06-17	16:32:25	16:40:29	478296	63d4061bc9ec9cf926d6c9f7	3	1	main_slash	7	main_slash	67	stimuli_distractor_diamondtriangles.svg	stimuli_distractor_diamondtriangles.svg	39	no	0	1	2000	0	0			0	0			1				0	
6.6.1	win	2023-06-17	16:32:25	16:40:29	478296	63d4061bc9ec9cf926d6c9f7	3	1	main_slash	7	advance_on_keypress_SLASH	68	stimuli_distractor_diamondtriangles.svg	stimuli_distractor_diamondtriangles.svg	39	no	57	0	47	0	0			0	0			1				0	
6.6.1	win	2023-06-17	16:32:25	16:40:31	479405	63d4061bc9ec9cf926d6c9f7	3	1	main_slash	7	main_slash	69	stimuli_target_rectangletriangles.svg	stimuli_distractor_trianglediamonds.svg	1	yes	53	1	412	0	0			0	0			1				0	
6.6.1	win	2023-06-17	16:32:25	16:40:31	479405	63d4061bc9ec9cf926d6c9f7	3	1	main_slash	7	advance_on_keypress_SLASH	70	stimuli_target_rectangletriangles.svg	stimuli_distractor_trianglediamonds.svg	1	yes	57	0	1112	0	0			0	0			1				0	
6.6.1	win	2023-06-17	16:32:25	16:40:33	481667	63d4061bc9ec9cf926d6c9f7	3	1	main_slash	7	main_slash	71	stimuli_distractor_diamondtriangles.svg	stimuli_target_rectangletriangles.svg	13	yes	53	1	492	0	0			0	0			1				0	
6.6.1	win	2023-06-17	16:32:25	16:40:33	481667	63d4061bc9ec9cf926d6c9f7	3	1	main_slash	7	advance_on_keypress_SLASH	72	stimuli_distractor_diamondtriangles.svg	stimuli_target_rectangletriangles.svg	13	yes	57	0	739	0	0			0	0			1				0	
6.6.1	win	2023-06-17	16:32:25	16:40:36	485056	63d4061bc9ec9cf926d6c9f7	3	1	main_slash	7	main_slash	73	stimuli_distractor_trianglediamonds.svg	stimuli_target_trianglerectangles.svg	25	yes	0	0	2000	0	0			0	0			1				0	
6.6.1	win	2023-06-17	16:32:25	16:40:36	485056	63d4061bc9ec9cf926d6c9f7	3	1	main_slash	7	advance_on_keypress_SLASH	74	stimuli_distractor_trianglediamonds.svg	stimuli_target_trianglerectangles.svg	25	yes	57	0	449	0	0			0	0			1				0	
6.6.1	win	2023-06-17	16:32:25	16:40:38	486613	63d4061bc9ec9cf926d6c9f7	3	1	main_slash	7	main_slash	75	stimuli_target_trianglesquares.svg	stimuli_distractor_trianglediamonds.svg	18	yes	53	1	460	0	0			0	0			1				0	
6.6.1	win	2023-06-17	16:32:25	16:40:38	486613	63d4061bc9ec9cf926d6c9f7	3	1	main_slash	7	advance_on_keypress_SLASH	76	stimuli_target_trianglesquares.svg	stimuli_distractor_trianglediamonds.svg	18	yes	57	0	619	0	0			0	0			1				0	
6.6.1	win	2023-06-17	16:32:25	16:40:41	489885	63d4061bc9ec9cf926d6c9f7	3	1	main_slash	7	main_slash	77	stimuli_distractor_trianglediamonds.svg	stimuli_target_diamondrectangles.svg	27	yes	0	0	2000	0	0			0	0			1				0	
6.6.1	win	2023-06-17	16:32:25	16:40:41	489885	63d4061bc9ec9cf926d6c9f7	3	1	main_slash	7	advance_on_keypress_SLASH	78	stimuli_distractor_trianglediamonds.svg	stimuli_target_diamondrectangles.svg	27	yes	57	0	336	0	0			0	0			1				0	
6.6.1	win	2023-06-17	16:32:25	16:40:42	491171	63d4061bc9ec9cf926d6c9f7	3	1	main_slash	7	main_slash	79	stimuli_distractor_diamondtriangles.svg	stimuli_target_squarediamonds.svg	16	yes	53	1	306	0	0			0	0			1				0	
6.6.1	win	2023-06-17	16:32:25	16:40:42	491171	63d4061bc9ec9cf926d6c9f7	3	1	main_slash	7	advance_on_keypress_SLASH	80	stimuli_distractor_diamondtriangles.svg	stimuli_target_squarediamonds.svg	16	yes	57	0	959	0	0			0	0			1				0	
6.6.1	win	2023-06-17	16:32:25	16:40:46	494780	63d4061bc9ec9cf926d6c9f7	3	1	main_slash	7	main_slash	81	stimuli_distractor_trianglediamonds.svg	stimuli_distractor_trianglediamonds.svg	33	no	0	1	2000	0	0			0	0			1				0	
6.6.1	win	2023-06-17	16:32:25	16:40:46	494780	63d4061bc9ec9cf926d6c9f7	3	1	main_slash	7	advance_on_keypress_SLASH	82	stimuli_distractor_trianglediamonds.svg	stimuli_distractor_trianglediamonds.svg	33	no	57	0	524	0	0			0	0			1				0	
6.6.1	win	2023-06-17	16:32:25	16:40:48	496533	63d4061bc9ec9cf926d6c9f7	3	1	main_slash	7	main_slash	83	stimuli_target_diamondrectangles.svg	stimuli_distractor_trianglediamonds.svg	19	yes	53	1	590	0	0			0	0			1				0	
6.6.1	win	2023-06-17	16:32:25	16:40:48	496533	63d4061bc9ec9cf926d6c9f7	3	1	main_slash	7	advance_on_keypress_SLASH	84	stimuli_target_diamondrectangles.svg	stimuli_distractor_trianglediamonds.svg	19	yes	57	0	633	0	0			0	0			1				0	
6.6.1	win	2023-06-17	16:32:25	16:40:51	499808	63d4061bc9ec9cf926d6c9f7	3	1	main_slash	7	main_slash	85	stimuli_target_rectangletriangles.svg	stimuli_distractor_trianglediamonds.svg	1	yes	0	0	2000	0	0			0	0			1				0	
6.6.1	win	2023-06-17	16:32:25	16:40:51	499808	63d4061bc9ec9cf926d6c9f7	3	1	main_slash	7	advance_on_keypress_SLASH	86	stimuli_target_rectangletriangles.svg	stimuli_distractor_trianglediamonds.svg	1	yes	57	0	454	0	0			0	0			1				0	
6.6.1	win	2023-06-17	16:32:25	16:40:53	501584	63d4061bc9ec9cf926d6c9f7	3	1	main_slash	7	main_slash	87	stimuli_distractor_diamondtriangles.svg	stimuli_target_rectanglediamonds.svg	14	yes	53	1	678	0	0			0	0			1				0	
6.6.1	win	2023-06-17	16:32:25	16:40:53	501584	63d4061bc9ec9cf926d6c9f7	3	1	main_slash	7	advance_on_keypress_SLASH	88	stimuli_distractor_diamondtriangles.svg	stimuli_target_rectanglediamonds.svg	14	yes	57	0	663	0	0			0	0			1				0	
6.6.1	win	2023-06-17	16:32:25	16:40:55	503429	63d4061bc9ec9cf926d6c9f7	3	1	main_slash	7	main_slash	89	stimuli_distractor_trianglediamonds.svg	stimuli_target_trianglerectangles.svg	25	yes	53	1	526	0	0			0	0			1				0	
6.6.1	win	2023-06-17	16:32:25	16:40:55	503429	63d4061bc9ec9cf926d6c9f7	3	1	main_slash	7	advance_on_keypress_SLASH	90	stimuli_distractor_trianglediamonds.svg	stimuli_target_trianglerectangles.svg	25	yes	57	0	630	0	0			0	0			1				0	
6.6.1	win	2023-06-17	16:32:25	16:40:56	505110	63d4061bc9ec9cf926d6c9f7	3	1	main_slash	7	main_slash	91	stimuli_distractor_trianglediamonds.svg	stimuli_target_squaretriangles.svg	11	yes	53	1	392	0	0			0	0			1				0	
6.6.1	win	2023-06-17	16:32:25	16:40:56	505110	63d4061bc9ec9cf926d6c9f7	3	1	main_slash	7	advance_on_keypress_SLASH	92	stimuli_distractor_trianglediamonds.svg	stimuli_target_squaretriangles.svg	11	yes	57	0	564	0	0			0	0			1				0	
6.6.1	win	2023-06-17	16:32:25	16:40:58	506748	63d4061bc9ec9cf926d6c9f7	3	1	main_slash	7	main_slash	93	stimuli_distractor_diamondtriangles.svg	stimuli_target_diamondrectangles.svg	31	yes	53	1	431	0	0			0	0			1				0	
6.6.1	win	2023-06-17	16:32:25	16:40:58	506748	63d4061bc9ec9cf926d6c9f7	3	1	main_slash	7	advance_on_keypress_SLASH	94	stimuli_distractor_diamondtriangles.svg	stimuli_target_diamondrectangles.svg	31	yes	57	0	518	0	0			0	0			1				0	
6.6.1	win	2023-06-17	16:32:25	16:41:00	508373	63d4061bc9ec9cf926d6c9f7	3	1	main_slash	7	main_slash	95	stimuli_target_squarediamonds.svg	stimuli_distractor_trianglediamonds.svg	4	yes	53	1	457	0	0			0	0			1				0	
6.6.1	win	2023-06-17	16:32:25	16:41:00	508373	63d4061bc9ec9cf926d6c9f7	3	1	main_slash	7	advance_on_keypress_SLASH	96	stimuli_target_squarediamonds.svg	stimuli_distractor_trianglediamonds.svg	4	yes	57	0	542	0	0			0	0			1				0	
6.6.1	win	2023-06-17	16:32:25	16:41:03	511547	63d4061bc9ec9cf926d6c9f7	3	1	main_slash	7	main_slash	97	stimuli_distractor_diamondtriangles.svg	stimuli_distractor_diamondtriangles.svg	40	no	0	1	2000	0	0			0	0			1				0	
6.6.1	win	2023-06-17	16:32:25	16:41:03	511547	63d4061bc9ec9cf926d6c9f7	3	1	main_slash	7	advance_on_keypress_SLASH	98	stimuli_distractor_diamondtriangles.svg	stimuli_distractor_diamondtriangles.svg	40	no	57	0	175	0	0			0	0			1				0	
6.6.1	win	2023-06-17	16:32:25	16:41:04	512772	63d4061bc9ec9cf926d6c9f7	3	1	main_slash	7	main_slash	99	stimuli_distractor_diamondtriangles.svg	stimuli_target_trianglerectangles.svg	29	yes	53	1	411	0	0			0	0			1				0	
6.6.1	win	2023-06-17	16:32:25	16:41:04	512772	63d4061bc9ec9cf926d6c9f7	3	1	main_slash	7	advance_on_keypress_SLASH	100	stimuli_distractor_diamondtriangles.svg	stimuli_target_trianglerectangles.svg	29	yes	57	0	717	0	0			0	0			1				0	
6.6.1	win	2023-06-17	16:32:25	16:41:07	516143	63d4061bc9ec9cf926d6c9f7	3	1	main_slash	7	main_slash	101	stimuli_distractor_diamondtriangles.svg	stimuli_target_rectangletriangles.svg	13	yes	0	0	2000	0	0			0	0			1				0	
6.6.1	win	2023-06-17	16:32:25	16:41:07	516143	63d4061bc9ec9cf926d6c9f7	3	1	main_slash	7	advance_on_keypress_SLASH	102	stimuli_distractor_diamondtriangles.svg	stimuli_target_rectangletriangles.svg	13	yes	57	0	64	0	0			0	0			1				0	
6.6.1	win	2023-06-17	16:32:25	16:41:08	517286	63d4061bc9ec9cf926d6c9f7	3	1	main_slash	7	main_slash	103	stimuli_target_diamondsquares.svg	stimuli_distractor_trianglediamonds.svg	20	yes	53	1	430	0	0			0	0			1				0	
6.6.1	win	2023-06-17	16:32:25	16:41:08	517286	63d4061bc9ec9cf926d6c9f7	3	1	main_slash	7	advance_on_keypress_SLASH	104	stimuli_target_diamondsquares.svg	stimuli_distractor_trianglediamonds.svg	20	yes	57	0	568	0	0			0	0			1				0	
6.6.1	win	2023-06-17	16:32:25	16:41:10	518954	63d4061bc9ec9cf926d6c9f7	3	1	main_slash	7	main_slash	105	stimuli_target_trianglerectangles.svg	stimuli_distractor_diamondtriangles.svg	21	yes	53	1	448	0	0			0	0			1				0	
6.6.1	win	2023-06-17	16:32:25	16:41:10	518954	63d4061bc9ec9cf926d6c9f7	3	1	main_slash	7	advance_on_keypress_SLASH	106	stimuli_target_trianglerectangles.svg	stimuli_distractor_diamondtriangles.svg	21	yes	57	0	774	0	0			0	0			1				0	
6.6.1	win	2023-06-17	16:32:25	16:41:14	522370	63d4061bc9ec9cf926d6c9f7	3	1	main_slash	7	main_slash	107	stimuli_distractor_trianglediamonds.svg	stimuli_distractor_diamondtriangles.svg	35	no	0	1	2000	0	0			0	0			1				0	
6.6.1	win	2023-06-17	16:32:25	16:41:14	522370	63d4061bc9ec9cf926d6c9f7	3	1	main_slash	7	advance_on_keypress_SLASH	108	stimuli_distractor_trianglediamonds.svg	stimuli_distractor_diamondtriangles.svg	35	no	57	0	481	0	0			0	0			1				0	
6.6.1	win	2023-06-17	16:32:25	16:41:15	524047	63d4061bc9ec9cf926d6c9f7	3	1	main_slash	7	main_slash	109	stimuli_target_trianglerectangles.svg	stimuli_distractor_trianglediamonds.svg	17	yes	53	1	547	0	0			0	0			1				0	
6.6.1	win	2023-06-17	16:32:25	16:41:15	524047	63d4061bc9ec9cf926d6c9f7	3	1	main_slash	7	advance_on_keypress_SLASH	110	stimuli_target_trianglerectangles.svg	stimuli_distractor_trianglediamonds.svg	17	yes	57	0	537	0	0			0	0			1				0	
6.6.1	win	2023-06-17	16:32:25	16:41:17	525684	63d4061bc9ec9cf926d6c9f7	3	1	main_slash	7	main_slash	111	stimuli_target_rectanglediamonds.svg	stimuli_distractor_trianglediamonds.svg	2	yes	53	1	451	0	0			0	0			1				0	
6.6.1	win	2023-06-17	16:32:25	16:41:17	525684	63d4061bc9ec9cf926d6c9f7	3	1	main_slash	7	advance_on_keypress_SLASH	112	stimuli_target_rectanglediamonds.svg	stimuli_distractor_trianglediamonds.svg	2	yes	57	0	688	0	0			0	0			1				0	
6.6.1	win	2023-06-17	16:32:25	16:41:19	527483	63d4061bc9ec9cf926d6c9f7	3	1	main_slash	7	main_slash	113	stimuli_distractor_trianglediamonds.svg	stimuli_target_diamondrectangles.svg	27	yes	53	1	470	0	0			0	0			1				0	
6.6.1	win	2023-06-17	16:32:25	16:41:19	527483	63d4061bc9ec9cf926d6c9f7	3	1	main_slash	7	advance_on_keypress_SLASH	114	stimuli_distractor_trianglediamonds.svg	stimuli_target_diamondrectangles.svg	27	yes	57	0	578	0	0			0	0			1				0	
6.6.1	win	2023-06-17	16:32:25	16:41:22	530711	63d4061bc9ec9cf926d6c9f7	3	1	main_slash	7	main_slash	115	stimuli_distractor_trianglediamonds.svg	stimuli_target_rectanglediamonds.svg	10	yes	0	0	2000	0	0			0	0			1				0	
6.6.1	win	2023-06-17	16:32:25	16:41:22	530711	63d4061bc9ec9cf926d6c9f7	3	1	main_slash	7	advance_on_keypress_SLASH	116	stimuli_distractor_trianglediamonds.svg	stimuli_target_rectanglediamonds.svg	10	yes	57	0	524	0	0			0	0			1				0	
6.6.1	win	2023-06-17	16:32:25	16:41:24	532642	63d4061bc9ec9cf926d6c9f7	3	1	main_slash	7	main_slash	117	stimuli_distractor_trianglediamonds.svg	stimuli_target_rectangletriangles.svg	9	yes	53	1	767	0	0			0	0			1				0	
6.6.1	win	2023-06-17	16:32:25	16:41:24	532642	63d4061bc9ec9cf926d6c9f7	3	1	main_slash	7	advance_on_keypress_SLASH	118	stimuli_distractor_trianglediamonds.svg	stimuli_target_rectangletriangles.svg	9	yes	57	0	457	0	0			0	0			1				0	
6.6.1	win	2023-06-17	16:32:25	16:41:27	535740	63d4061bc9ec9cf926d6c9f7	3	1	main_slash	7	main_slash	119	stimuli_distractor_trianglediamonds.svg	stimuli_target_trianglesquares.svg	26	yes	0	0	2000	0	0			0	0			1				0	
6.6.1	win	2023-06-17	16:32:25	16:41:27	535740	63d4061bc9ec9cf926d6c9f7	3	1	main_slash	7	advance_on_keypress_SLASH	120	stimuli_distractor_trianglediamonds.svg	stimuli_target_trianglesquares.svg	26	yes	57	0	587	0	0			0	0			1				0	
6.6.1	win	2023-06-17	16:32:25	16:41:29	537691	63d4061bc9ec9cf926d6c9f7	3	1	main_slash	7	main_slash	121	stimuli_distractor_trianglediamonds.svg	stimuli_distractor_diamondtriangles.svg	36	no	53	0	721	0	0			0	0			1				0	
6.6.1	win	2023-06-17	16:32:25	16:41:29	537691	63d4061bc9ec9cf926d6c9f7	3	1	main_slash	7	advance_on_keypress_SLASH	122	stimuli_distractor_trianglediamonds.svg	stimuli_distractor_diamondtriangles.svg	36	no	57	0	503	0	0			0	0			1				0	
6.6.1	win	2023-06-17	16:32:25	16:41:31	539432	63d4061bc9ec9cf926d6c9f7	3	1	main_slash	7	main_slash	123	stimuli_distractor_diamondtriangles.svg	stimuli_target_trianglesquares.svg	30	yes	53	1	597	0	0			0	0			1				0	
6.6.1	win	2023-06-17	16:32:25	16:41:31	539432	63d4061bc9ec9cf926d6c9f7	3	1	main_slash	7	advance_on_keypress_SLASH	124	stimuli_distractor_diamondtriangles.svg	stimuli_target_trianglesquares.svg	30	yes	57	0	478	0	0			0	0			1				0	
6.6.1	win	2023-06-17	16:32:25	16:41:32	541010	63d4061bc9ec9cf926d6c9f7	3	1	main_slash	7	main_slash	125	stimuli_target_trianglesquares.svg	stimuli_distractor_diamondtriangles.svg	22	yes	53	1	442	0	0			0	0			1				0	
6.6.1	win	2023-06-17	16:32:25	16:41:32	541010	63d4061bc9ec9cf926d6c9f7	3	1	main_slash	7	advance_on_keypress_SLASH	126	stimuli_target_trianglesquares.svg	stimuli_distractor_diamondtriangles.svg	22	yes	57	0	461	0	0			0	0			1				0	
6.6.1	win	2023-06-17	16:32:25	16:41:34	543134	63d4061bc9ec9cf926d6c9f7	3	1	main_slash	7	main_slash	127	stimuli_distractor_trianglediamonds.svg	stimuli_target_diamondsquares.svg	28	yes	53	1	1002	0	0			0	0			1				0	
6.6.1	win	2023-06-17	16:32:25	16:41:34	543134	63d4061bc9ec9cf926d6c9f7	3	1	main_slash	7	advance_on_keypress_SLASH	128	stimuli_distractor_trianglediamonds.svg	stimuli_target_diamondsquares.svg	28	yes	57	0	432	0	0			0	0			1				0	
6.6.1	win	2023-06-17	16:32:25	16:41:37	546213	63d4061bc9ec9cf926d6c9f7	3	1	main_slash	7	main_slash	129	stimuli_distractor_diamondtriangles.svg	stimuli_distractor_trianglediamonds.svg	38	no	0	1	2000	0	0			0	0			1				0	
6.6.1	win	2023-06-17	16:32:25	16:41:37	546213	63d4061bc9ec9cf926d6c9f7	3	1	main_slash	7	advance_on_keypress_SLASH	130	stimuli_distractor_diamondtriangles.svg	stimuli_distractor_trianglediamonds.svg	38	no	57	0	367	0	0			0	0			1				0	
6.6.1	win	2023-06-17	16:32:25	16:41:39	547628	63d4061bc9ec9cf926d6c9f7	3	1	main_slash	7	main_slash	131	stimuli_target_trianglesquares.svg	stimuli_distractor_trianglediamonds.svg	18	yes	53	1	401	0	0			0	0			1				0	
6.6.1	win	2023-06-17	16:32:25	16:41:39	547628	63d4061bc9ec9cf926d6c9f7	3	1	main_slash	7	advance_on_keypress_SLASH	132	stimuli_target_trianglesquares.svg	stimuli_distractor_trianglediamonds.svg	18	yes	57	0	526	0	0			0	0			1				0	
6.6.1	win	2023-06-17	16:32:25	16:41:40	549235	63d4061bc9ec9cf926d6c9f7	3	1	main_slash	7	main_slash	133	stimuli_target_diamondrectangles.svg	stimuli_distractor_diamondtriangles.svg	23	yes	53	1	443	0	0			0	0			1				0	
6.6.1	win	2023-06-17	16:32:25	16:41:40	549235	63d4061bc9ec9cf926d6c9f7	3	1	main_slash	7	advance_on_keypress_SLASH	134	stimuli_target_diamondrectangles.svg	stimuli_distractor_diamondtriangles.svg	23	yes	57	0	511	0	0			0	0			1				0	
6.6.1	win	2023-06-17	16:32:25	16:41:42	550825	63d4061bc9ec9cf926d6c9f7	3	1	main_slash	7	main_slash	135	stimuli_target_squaretriangles.svg	stimuli_distractor_diamondtriangles.svg	7	yes	53	1	417	0	0			0	0			1				0	
6.6.1	win	2023-06-17	16:32:25	16:41:42	550825	63d4061bc9ec9cf926d6c9f7	3	1	main_slash	7	advance_on_keypress_SLASH	136	stimuli_target_squaretriangles.svg	stimuli_distractor_diamondtriangles.svg	7	yes	57	0	469	0	0			0	0			1				0	
6.6.1	win	2023-06-17	16:32:25	16:41:43	552253	63d4061bc9ec9cf926d6c9f7	3	1	main_slash	7	main_slash	137	stimuli_target_squaretriangles.svg	stimuli_distractor_trianglediamonds.svg	3	yes	53	1	314	0	0			0	0			1				0	
6.6.1	win	2023-06-17	16:32:25	16:41:43	552253	63d4061bc9ec9cf926d6c9f7	3	1	main_slash	7	advance_on_keypress_SLASH	138	stimuli_target_squaretriangles.svg	stimuli_distractor_trianglediamonds.svg	3	yes	57	0	503	0	0			0	0			1				0	
6.6.1	win	2023-06-17	16:32:25	16:41:45	553813	63d4061bc9ec9cf926d6c9f7	3	1	main_slash	7	main_slash	139	stimuli_distractor_diamondtriangles.svg	stimuli_target_squarediamonds.svg	16	yes	53	1	410	0	0			0	0			1				0	
6.6.1	win	2023-06-17	16:32:25	16:41:45	553813	63d4061bc9ec9cf926d6c9f7	3	1	main_slash	7	advance_on_keypress_SLASH	140	stimuli_distractor_diamondtriangles.svg	stimuli_target_squarediamonds.svg	16	yes	57	0	461	0	0			0	0			1				0	
6.6.1	win	2023-06-17	16:32:25	16:41:46	555258	63d4061bc9ec9cf926d6c9f7	3	1	main_slash	7	main_slash	141	stimuli_target_rectanglediamonds.svg	stimuli_distractor_diamondtriangles.svg	6	yes	53	1	340	0	0			0	0			1				0	
6.6.1	win	2023-06-17	16:32:25	16:41:46	555258	63d4061bc9ec9cf926d6c9f7	3	1	main_slash	7	advance_on_keypress_SLASH	142	stimuli_target_rectanglediamonds.svg	stimuli_distractor_diamondtriangles.svg	6	yes	57	0	427	0	0			0	0			1				0	
6.6.1	win	2023-06-17	16:32:25	16:41:50	558335	63d4061bc9ec9cf926d6c9f7	3	1	main_slash	7	main_slash	143	stimuli_distractor_trianglediamonds.svg	stimuli_distractor_trianglediamonds.svg	34	no	0	1	2000	0	0			0	0			1				0	
6.6.1	win	2023-06-17	16:32:25	16:41:50	558335	63d4061bc9ec9cf926d6c9f7	3	1	main_slash	7	advance_on_keypress_SLASH	144	stimuli_distractor_trianglediamonds.svg	stimuli_distractor_trianglediamonds.svg	34	no	57	0	350	0	0			0	0			1				0	
6.6.1	win	2023-06-17	16:32:25	16:41:52	561332	63d4061bc9ec9cf926d6c9f7	3	1	main_slash	7	main_slash	145	stimuli_distractor_diamondtriangles.svg	stimuli_target_diamondsquares.svg	32	yes	0	0	2000	0	0			0	0			1				0	
6.6.1	win	2023-06-17	16:32:25	16:41:52	561332	63d4061bc9ec9cf926d6c9f7	3	1	main_slash	7	advance_on_keypress_SLASH	146	stimuli_distractor_diamondtriangles.svg	stimuli_target_diamondsquares.svg	32	yes	57	0	428	0	0			0	0			1				0	
6.6.1	win	2023-06-17	16:32:25	16:41:56	564412	63d4061bc9ec9cf926d6c9f7	3	1	main_slash	7	main_slash	147	stimuli_distractor_diamondtriangles.svg	stimuli_distractor_diamondtriangles.svg	39	no	0	1	2000	0	0			0	0			1				0	
6.6.1	win	2023-06-17	16:32:25	16:41:56	564412	63d4061bc9ec9cf926d6c9f7	3	1	main_slash	7	advance_on_keypress_SLASH	148	stimuli_distractor_diamondtriangles.svg	stimuli_distractor_diamondtriangles.svg	39	no	57	0	369	0	0			0	0			1				0	
6.6.1	win	2023-06-17	16:32:25	16:41:59	567426	63d4061bc9ec9cf926d6c9f7	3	1	main_slash	7	main_slash	149	stimuli_distractor_diamondtriangles.svg	stimuli_distractor_trianglediamonds.svg	37	no	0	1	2000	0	0			0	0			1				0	
6.6.1	win	2023-06-17	16:32:25	16:41:59	567426	63d4061bc9ec9cf926d6c9f7	3	1	main_slash	7	advance_on_keypress_SLASH	150	stimuli_distractor_diamondtriangles.svg	stimuli_distractor_trianglediamonds.svg	37	no	57	0	363	0	0			0	0			1				0	
6.6.1	win	2023-06-17	16:32:25	16:42:00	568825	63d4061bc9ec9cf926d6c9f7	3	1	main_slash	7	main_slash	151	stimuli_target_diamondsquares.svg	stimuli_distractor_diamondtriangles.svg	24	yes	53	1	385	0	0			0	0			1				0	
6.6.1	win	2023-06-17	16:32:25	16:42:00	568825	63d4061bc9ec9cf926d6c9f7	3	1	main_slash	7	advance_on_keypress_SLASH	152	stimuli_target_diamondsquares.svg	stimuli_distractor_diamondtriangles.svg	24	yes	57	0	610	0	0			0	0			1				0	
6.6.1	win	2023-06-17	16:32:25	16:42:02	570431	63d4061bc9ec9cf926d6c9f7	3	1	main_slash	7	main_slash	153	stimuli_target_rectangletriangles.svg	stimuli_distractor_diamondtriangles.svg	5	yes	53	1	343	0	0			0	0			1				0	
6.6.1	win	2023-06-17	16:32:25	16:42:02	570431	63d4061bc9ec9cf926d6c9f7	3	1	main_slash	7	advance_on_keypress_SLASH	154	stimuli_target_rectangletriangles.svg	stimuli_distractor_diamondtriangles.svg	5	yes	57	0	976	0	0			0	0			1				0	
6.6.1	win	2023-06-17	16:32:25	16:42:04	572458	63d4061bc9ec9cf926d6c9f7	3	1	main_slash	7	main_slash	155	stimuli_distractor_diamondtriangles.svg	stimuli_target_squaretriangles.svg	15	yes	53	1	389	0	0			0	0			1				0	
6.6.1	win	2023-06-17	16:32:25	16:42:04	572458	63d4061bc9ec9cf926d6c9f7	3	1	main_slash	7	advance_on_keypress_SLASH	156	stimuli_distractor_diamondtriangles.svg	stimuli_target_squaretriangles.svg	15	yes	57	0	630	0	0			0	0			1				0	
6.6.1	win	2023-06-17	16:32:25	16:42:05	574243	63d4061bc9ec9cf926d6c9f7	3	1	main_slash	7	main_slash	157	stimuli_distractor_trianglediamonds.svg	stimuli_target_squarediamonds.svg	12	yes	53	1	508	0	0			0	0			1				0	
6.6.1	win	2023-06-17	16:32:25	16:42:05	574243	63d4061bc9ec9cf926d6c9f7	3	1	main_slash	7	advance_on_keypress_SLASH	158	stimuli_distractor_trianglediamonds.svg	stimuli_target_squarediamonds.svg	12	yes	57	0	598	0	0			0	0			1				0	
6.6.1	win	2023-06-17	16:32:25	16:42:07	575818	63d4061bc9ec9cf926d6c9f7	3	1	main_slash	7	main_slash	159	stimuli_target_squarediamonds.svg	stimuli_distractor_diamondtriangles.svg	8	yes	53	1	336	0	0			0	0			1				0	
6.6.1	win	2023-06-17	16:32:25	16:42:07	575818	63d4061bc9ec9cf926d6c9f7	3	1	main_slash	7	advance_on_keypress_SLASH	160	stimuli_target_squarediamonds.svg	stimuli_distractor_diamondtriangles.svg	8	yes	57	0	656	0	0			0	0			1				0	
6.6.1	win	2023-06-17	16:32:25	16:42:42	610934	63d4061bc9ec9cf926d6c9f7	3	1	practice_z	9	practice_z	1	stimuli_target_diamondsquares.svg	stimuli_distractor_diamondtriangles.svg	3	yes	44	1	565	0	0			0	0			1				0	
6.6.1	win	2023-06-17	16:32:25	16:42:42	610934	63d4061bc9ec9cf926d6c9f7	3	1	practice_z	9	advance_on_keypress_ZEE	2	stimuli_target_diamondsquares.svg	stimuli_distractor_diamondtriangles.svg	3	yes	57	0	687	0	0			0	0			1				0	
6.6.1	win	2023-06-17	16:32:25	16:42:45	613590	63d4061bc9ec9cf926d6c9f7	3	1	practice_z	9	practice_z	3	stimuli_distractor_trianglediamonds.svg	stimuli_target_rectanglediamonds.svg	10	yes	44	1	325	0	0			0	0			1				0	
6.6.1	win	2023-06-17	16:32:25	16:42:45	613590	63d4061bc9ec9cf926d6c9f7	3	1	practice_z	9	advance_on_keypress_ZEE	4	stimuli_distractor_trianglediamonds.svg	stimuli_target_rectanglediamonds.svg	10	yes	57	0	213	0	0			0	0			1				0	
6.6.1	win	2023-06-17	16:32:25	16:42:47	615751	63d4061bc9ec9cf926d6c9f7	3	1	practice_z	9	practice_z	5	stimuli_target_rectanglediamonds.svg	stimuli_distractor_trianglediamonds.svg	4	yes	44	1	287	0	0			0	0			1				0	
6.6.1	win	2023-06-17	16:32:25	16:42:47	615751	63d4061bc9ec9cf926d6c9f7	3	1	practice_z	9	advance_on_keypress_ZEE	6	stimuli_target_rectanglediamonds.svg	stimuli_distractor_trianglediamonds.svg	4	yes	57	0	142	0	0			0	0			1				0	
6.6.1	win	2023-06-17	16:32:25	16:42:49	617859	63d4061bc9ec9cf926d6c9f7	3	1	practice_z	9	practice_z	7	stimuli_distractor_trianglediamonds.svg	stimuli_distractor_diamondtriangles.svg	16	no	44	0	314	0	0			0	0			1				0	
6.6.1	win	2023-06-17	16:32:25	16:42:49	617859	63d4061bc9ec9cf926d6c9f7	3	1	practice_z	9	advance_on_keypress_ZEE	8	stimuli_distractor_trianglediamonds.svg	stimuli_distractor_diamondtriangles.svg	16	no	57	0	651	0	0			0	0			1				0	
6.6.1	win	2023-06-17	16:32:25	16:42:52	620460	63d4061bc9ec9cf926d6c9f7	3	1	practice_z	9	practice_z	9	stimuli_target_rectanglediamonds.svg	stimuli_distractor_diamondtriangles.svg	1	yes	44	1	302	0	0			0	0			1				0	
6.6.1	win	2023-06-17	16:32:25	16:42:52	620460	63d4061bc9ec9cf926d6c9f7	3	1	practice_z	9	advance_on_keypress_ZEE	10	stimuli_target_rectanglediamonds.svg	stimuli_distractor_diamondtriangles.svg	1	yes	57	0	364	0	0			0	0			1				0	
6.6.1	win	2023-06-17	16:32:25	16:42:56	624473	63d4061bc9ec9cf926d6c9f7	3	1	practice_z	9	practice_z	11	stimuli_distractor_diamondtriangles.svg	stimuli_distractor_diamondtriangles.svg	13	no	0	1	2000	0	0			0	0			1				0	
6.6.1	win	2023-06-17	16:32:25	16:42:56	624473	63d4061bc9ec9cf926d6c9f7	3	1	practice_z	9	advance_on_keypress_ZEE	12	stimuli_distractor_diamondtriangles.svg	stimuli_distractor_diamondtriangles.svg	13	no	57	0	437	0	0			0	0			1				0	
6.6.1	win	2023-06-17	16:32:25	16:42:59	627632	63d4061bc9ec9cf926d6c9f7	3	1	practice_z	9	practice_z	13	stimuli_target_diamondsquares.svg	stimuli_distractor_trianglediamonds.svg	6	yes	44	1	1079	0	0			0	0			1				0	
6.6.1	win	2023-06-17	16:32:25	16:42:59	627632	63d4061bc9ec9cf926d6c9f7	3	1	practice_z	9	advance_on_keypress_ZEE	14	stimuli_target_diamondsquares.svg	stimuli_distractor_trianglediamonds.svg	6	yes	57	0	609	0	0			0	0			1				0	
6.6.1	win	2023-06-17	16:32:25	16:43:03	631883	63d4061bc9ec9cf926d6c9f7	3	1	practice_z	9	practice_z	15	stimuli_distractor_trianglediamonds.svg	stimuli_distractor_trianglediamonds.svg	15	no	0	1	2000	0	0			0	0			1				0	
6.6.1	win	2023-06-17	16:32:25	16:43:03	631883	63d4061bc9ec9cf926d6c9f7	3	1	practice_z	9	advance_on_keypress_ZEE	16	stimuli_distractor_trianglediamonds.svg	stimuli_distractor_trianglediamonds.svg	15	no	57	0	491	0	0			0	0			1				0	
6.6.1	win	2023-06-17	16:32:25	16:43:06	634801	63d4061bc9ec9cf926d6c9f7	3	1	practice_z	9	practice_z	17	stimuli_distractor_diamondtriangles.svg	stimuli_distractor_trianglediamonds.svg	14	no	44	0	790	0	0			0	0			1				0	
6.6.1	win	2023-06-17	16:32:25	16:43:06	634801	63d4061bc9ec9cf926d6c9f7	3	1	practice_z	9	advance_on_keypress_ZEE	18	stimuli_distractor_diamondtriangles.svg	stimuli_distractor_trianglediamonds.svg	14	no	57	0	796	0	0			0	0			1				0	
6.6.1	win	2023-06-17	16:32:25	16:43:09	637980	63d4061bc9ec9cf926d6c9f7	3	1	practice_z	9	practice_z	19	stimuli_distractor_diamondtriangles.svg	stimuli_target_rectangletriangles.svg	7	yes	44	1	739	0	0			0	0			1				0	
6.6.1	win	2023-06-17	16:32:25	16:43:09	637980	63d4061bc9ec9cf926d6c9f7	3	1	practice_z	9	advance_on_keypress_ZEE	20	stimuli_distractor_diamondtriangles.svg	stimuli_target_rectangletriangles.svg	7	yes	57	0	481	0	0			0	0			1				0	
6.6.1	win	2023-06-17	16:32:25	16:43:12	640526	63d4061bc9ec9cf926d6c9f7	3	1	practice_z	9	practice_z	21	stimuli_target_squarediamonds.svg	stimuli_distractor_trianglediamonds.svg	5	yes	44	1	421	0	0			0	0			1				0	
6.6.1	win	2023-06-17	16:32:25	16:43:12	640526	63d4061bc9ec9cf926d6c9f7	3	1	practice_z	9	advance_on_keypress_ZEE	22	stimuli_target_squarediamonds.svg	stimuli_distractor_trianglediamonds.svg	5	yes	57	0	474	0	0			0	0			1				0	
6.6.1	win	2023-06-17	16:32:25	16:43:15	643590	63d4061bc9ec9cf926d6c9f7	3	1	practice_z	9	practice_z	23	stimuli_target_squarediamonds.svg	stimuli_distractor_diamondtriangles.svg	2	yes	44	1	954	0	0			0	0			1				0	
6.6.1	win	2023-06-17	16:32:25	16:43:15	643590	63d4061bc9ec9cf926d6c9f7	3	1	practice_z	9	advance_on_keypress_ZEE	24	stimuli_target_squarediamonds.svg	stimuli_distractor_diamondtriangles.svg	2	yes	57	0	332	0	0			0	0			1				0	
6.6.1	win	2023-06-17	16:32:25	16:43:19	647568	63d4061bc9ec9cf926d6c9f7	3	1	practice_z	9	practice_z	25	stimuli_distractor_diamondtriangles.svg	stimuli_target_trianglerectangles.svg	9	yes	0	0	2000	0	0			0	0			1				0	
6.6.1	win	2023-06-17	16:32:25	16:43:19	647568	63d4061bc9ec9cf926d6c9f7	3	1	practice_z	9	advance_on_keypress_ZEE	26	stimuli_distractor_diamondtriangles.svg	stimuli_target_trianglerectangles.svg	9	yes	57	0	527	0	0			0	0			1				0	
6.6.1	win	2023-06-17	16:32:25	16:43:21	650262	63d4061bc9ec9cf926d6c9f7	3	1	practice_z	9	practice_z	27	stimuli_distractor_diamondtriangles.svg	stimuli_target_diamondrectangles.svg	8	yes	44	1	531	0	0			0	0			1				0	
6.6.1	win	2023-06-17	16:32:25	16:43:21	650262	63d4061bc9ec9cf926d6c9f7	3	1	practice_z	9	advance_on_keypress_ZEE	28	stimuli_distractor_diamondtriangles.svg	stimuli_target_diamondrectangles.svg	8	yes	57	0	590	0	0			0	0			1				0	
6.6.1	win	2023-06-17	16:32:25	16:43:24	653009	63d4061bc9ec9cf926d6c9f7	3	1	practice_z	9	practice_z	29	stimuli_distractor_trianglediamonds.svg	stimuli_target_squarediamonds.svg	11	yes	44	1	516	0	0			0	0			1				0	
6.6.1	win	2023-06-17	16:32:25	16:43:24	653009	63d4061bc9ec9cf926d6c9f7	3	1	practice_z	9	advance_on_keypress_ZEE	30	stimuli_distractor_trianglediamonds.svg	stimuli_target_squarediamonds.svg	11	yes	57	0	349	0	0			0	0			1				0	
6.6.1	win	2023-06-17	16:32:25	16:43:28	657008	63d4061bc9ec9cf926d6c9f7	3	1	practice_z	9	practice_z	31	stimuli_distractor_trianglediamonds.svg	stimuli_target_diamondrectangles.svg	12	yes	0	0	2000	0	0			0	0			1				0	
6.6.1	win	2023-06-17	16:32:25	16:43:28	657008	63d4061bc9ec9cf926d6c9f7	3	1	practice_z	9	advance_on_keypress_ZEE	32	stimuli_distractor_trianglediamonds.svg	stimuli_target_diamondrectangles.svg	12	yes	57	0	477	0	0			0	0			1				0	
6.6.1	win	2023-06-17	16:32:25	16:43:38	667112	63d4061bc9ec9cf926d6c9f7	3	1	main_z	11	main_z	1	stimuli_target_trianglerectangles.svg	stimuli_distractor_diamondtriangles.svg	21	yes	0	0	2000	0	0			0	0			1				0	
6.6.1	win	2023-06-17	16:32:25	16:43:38	667112	63d4061bc9ec9cf926d6c9f7	3	1	main_z	11	advance_on_keypress_ZEE	2	stimuli_target_trianglerectangles.svg	stimuli_distractor_diamondtriangles.svg	21	yes	57	0	611	0	0			0	0			1				0	
6.6.1	win	2023-06-17	16:32:25	16:43:40	668623	63d4061bc9ec9cf926d6c9f7	3	1	main_z	11	main_z	3	stimuli_distractor_diamondtriangles.svg	stimuli_target_diamondsquares.svg	32	yes	44	1	265	0	0			0	0			1				0	
6.6.1	win	2023-06-17	16:32:25	16:43:40	668623	63d4061bc9ec9cf926d6c9f7	3	1	main_z	11	advance_on_keypress_ZEE	4	stimuli_distractor_diamondtriangles.svg	stimuli_target_diamondsquares.svg	32	yes	57	0	909	0	0			0	0			1				0	
6.6.1	win	2023-06-17	16:32:25	16:43:42	670563	63d4061bc9ec9cf926d6c9f7	3	1	main_z	11	main_z	5	stimuli_target_trianglerectangles.svg	stimuli_distractor_trianglediamonds.svg	17	yes	44	1	388	0	0			0	0			1				0	
6.6.1	win	2023-06-17	16:32:25	16:43:42	670563	63d4061bc9ec9cf926d6c9f7	3	1	main_z	11	advance_on_keypress_ZEE	6	stimuli_target_trianglerectangles.svg	stimuli_distractor_trianglediamonds.svg	17	yes	57	0	777	0	0			0	0			1				0	
6.6.1	win	2023-06-17	16:32:25	16:43:45	673988	63d4061bc9ec9cf926d6c9f7	3	1	main_z	11	main_z	7	stimuli_distractor_diamondtriangles.svg	stimuli_distractor_diamondtriangles.svg	39	no	0	1	2000	0	0			0	0			1				0	
6.6.1	win	2023-06-17	16:32:25	16:43:45	673988	63d4061bc9ec9cf926d6c9f7	3	1	main_z	11	advance_on_keypress_ZEE	8	stimuli_distractor_diamondtriangles.svg	stimuli_distractor_diamondtriangles.svg	39	no	57	0	515	0	0			0	0			1				0	
6.6.1	win	2023-06-17	16:32:25	16:43:48	677152	63d4061bc9ec9cf926d6c9f7	3	1	main_z	11	main_z	9	stimuli_distractor_diamondtriangles.svg	stimuli_distractor_diamondtriangles.svg	40	no	0	1	2000	0	0			0	0			1				0	
6.6.1	win	2023-06-17	16:32:25	16:43:48	677152	63d4061bc9ec9cf926d6c9f7	3	1	main_z	11	advance_on_keypress_ZEE	10	stimuli_distractor_diamondtriangles.svg	stimuli_distractor_diamondtriangles.svg	40	no	57	0	392	0	0			0	0			1				0	
6.6.1	win	2023-06-17	16:32:25	16:43:50	678499	63d4061bc9ec9cf926d6c9f7	3	1	main_z	11	main_z	11	stimuli_target_squarediamonds.svg	stimuli_distractor_diamondtriangles.svg	8	yes	44	1	318	0	0			0	0			1				0	
6.6.1	win	2023-06-17	16:32:25	16:43:50	678499	63d4061bc9ec9cf926d6c9f7	3	1	main_z	11	advance_on_keypress_ZEE	12	stimuli_target_squarediamonds.svg	stimuli_distractor_diamondtriangles.svg	8	yes	57	0	1263	0	0			0	0			1				0	
6.6.1	win	2023-06-17	16:32:25	16:43:54	682413	63d4061bc9ec9cf926d6c9f7	3	1	main_z	11	main_z	13	stimuli_distractor_diamondtriangles.svg	stimuli_distractor_trianglediamonds.svg	37	no	0	1	2000	0	0			0	0			1				0	
6.6.1	win	2023-06-17	16:32:25	16:43:54	682413	63d4061bc9ec9cf926d6c9f7	3	1	main_z	11	advance_on_keypress_ZEE	14	stimuli_distractor_diamondtriangles.svg	stimuli_distractor_trianglediamonds.svg	37	no	57	0	315	0	0			0	0			1				0	
6.6.1	win	2023-06-17	16:32:25	16:43:55	683782	63d4061bc9ec9cf926d6c9f7	3	1	main_z	11	main_z	15	stimuli_distractor_diamondtriangles.svg	stimuli_target_squarediamonds.svg	16	yes	44	1	405	0	0			0	0			1				0	
6.6.1	win	2023-06-17	16:32:25	16:43:55	683782	63d4061bc9ec9cf926d6c9f7	3	1	main_z	11	advance_on_keypress_ZEE	16	stimuli_distractor_diamondtriangles.svg	stimuli_target_squarediamonds.svg	16	yes	57	0	1096	0	0			0	0			1				0	
6.6.1	win	2023-06-17	16:32:25	16:43:59	687524	63d4061bc9ec9cf926d6c9f7	3	1	main_z	11	main_z	17	stimuli_distractor_trianglediamonds.svg	stimuli_target_diamondrectangles.svg	27	yes	0	0	2000	0	0			0	0			1				0	
6.6.1	win	2023-06-17	16:32:25	16:43:59	687524	63d4061bc9ec9cf926d6c9f7	3	1	main_z	11	advance_on_keypress_ZEE	18	stimuli_distractor_trianglediamonds.svg	stimuli_target_diamondrectangles.svg	27	yes	57	0	332	0	0			0	0			1				0	
6.6.1	win	2023-06-17	16:32:25	16:44:02	690506	63d4061bc9ec9cf926d6c9f7	3	1	main_z	11	main_z	19	stimuli_distractor_trianglediamonds.svg	stimuli_distractor_diamondtriangles.svg	36	no	0	1	2000	0	0			0	0			1				0	
6.6.1	win	2023-06-17	16:32:25	16:44:02	690506	63d4061bc9ec9cf926d6c9f7	3	1	main_z	11	advance_on_keypress_ZEE	20	stimuli_distractor_trianglediamonds.svg	stimuli_distractor_diamondtriangles.svg	36	no	57	0	249	0	0			0	0			1				0	
6.6.1	win	2023-06-17	16:32:25	16:44:03	691648	63d4061bc9ec9cf926d6c9f7	3	1	main_z	11	main_z	21	stimuli_distractor_diamondtriangles.svg	stimuli_target_rectanglediamonds.svg	14	yes	44	1	246	0	0			0	0			1				0	
6.6.1	win	2023-06-17	16:32:25	16:44:03	691648	63d4061bc9ec9cf926d6c9f7	3	1	main_z	11	advance_on_keypress_ZEE	22	stimuli_distractor_diamondtriangles.svg	stimuli_target_rectanglediamonds.svg	14	yes	57	0	874	0	0			0	0			1				0	
6.6.1	win	2023-06-17	16:32:25	16:44:05	693452	63d4061bc9ec9cf926d6c9f7	3	1	main_z	11	main_z	23	stimuli_target_rectanglediamonds.svg	stimuli_distractor_trianglediamonds.svg	2	yes	44	1	284	0	0			0	0			1				0	
6.6.1	win	2023-06-17	16:32:25	16:44:05	693452	63d4061bc9ec9cf926d6c9f7	3	1	main_z	11	advance_on_keypress_ZEE	24	stimuli_target_rectanglediamonds.svg	stimuli_distractor_trianglediamonds.svg	2	yes	57	0	872	0	0			0	0			1				0	
6.6.1	win	2023-06-17	16:32:25	16:44:08	696966	63d4061bc9ec9cf926d6c9f7	3	1	main_z	11	main_z	25	stimuli_distractor_trianglediamonds.svg	stimuli_target_trianglesquares.svg	26	yes	0	0	2000	0	0			0	0			1				0	
6.6.1	win	2023-06-17	16:32:25	16:44:08	696966	63d4061bc9ec9cf926d6c9f7	3	1	main_z	11	advance_on_keypress_ZEE	26	stimuli_distractor_trianglediamonds.svg	stimuli_target_trianglesquares.svg	26	yes	57	0	487	0	0			0	0			1				0	
6.6.1	win	2023-06-17	16:32:25	16:44:10	698568	63d4061bc9ec9cf926d6c9f7	3	1	main_z	11	main_z	27	stimuli_target_squaretriangles.svg	stimuli_distractor_trianglediamonds.svg	3	yes	44	1	472	0	0			0	0			1				0	
6.6.1	win	2023-06-17	16:32:25	16:44:10	698568	63d4061bc9ec9cf926d6c9f7	3	1	main_z	11	advance_on_keypress_ZEE	28	stimuli_target_squaretriangles.svg	stimuli_distractor_trianglediamonds.svg	3	yes	57	0	798	0	0			0	0			1				0	
6.6.1	win	2023-06-17	16:32:25	16:44:11	700326	63d4061bc9ec9cf926d6c9f7	3	1	main_z	11	main_z	29	stimuli_target_rectangletriangles.svg	stimuli_distractor_trianglediamonds.svg	1	yes	44	1	315	0	0			0	0			1				0	
6.6.1	win	2023-06-17	16:32:25	16:44:11	700326	63d4061bc9ec9cf926d6c9f7	3	1	main_z	11	advance_on_keypress_ZEE	30	stimuli_target_rectangletriangles.svg	stimuli_distractor_trianglediamonds.svg	1	yes	57	0	750	0	0			0	0			1				0	
6.6.1	win	2023-06-17	16:32:25	16:44:15	703725	63d4061bc9ec9cf926d6c9f7	3	1	main_z	11	main_z	31	stimuli_distractor_trianglediamonds.svg	stimuli_distractor_trianglediamonds.svg	34	no	0	1	2000	0	0			0	0			1				0	
6.6.1	win	2023-06-17	16:32:25	16:44:15	703725	63d4061bc9ec9cf926d6c9f7	3	1	main_z	11	advance_on_keypress_ZEE	32	stimuli_distractor_trianglediamonds.svg	stimuli_distractor_trianglediamonds.svg	34	no	57	0	417	0	0			0	0			1				0	
6.6.1	win	2023-06-17	16:32:25	16:44:16	705259	63d4061bc9ec9cf926d6c9f7	3	1	main_z	11	main_z	33	stimuli_distractor_trianglediamonds.svg	stimuli_target_squaretriangles.svg	11	yes	44	1	471	0	0			0	0			1				0	
6.6.1	win	2023-06-17	16:32:25	16:44:16	705259	63d4061bc9ec9cf926d6c9f7	3	1	main_z	11	advance_on_keypress_ZEE	34	stimuli_distractor_trianglediamonds.svg	stimuli_target_squaretriangles.svg	11	yes	57	0	544	0	0			0	0			1				0	
6.6.1	win	2023-06-17	16:32:25	16:44:18	706955	63d4061bc9ec9cf926d6c9f7	3	1	main_z	11	main_z	35	stimuli_target_trianglesquares.svg	stimuli_distractor_diamondtriangles.svg	22	yes	44	1	517	0	0			0	0			1				0	
6.6.1	win	2023-06-17	16:32:25	16:44:18	706955	63d4061bc9ec9cf926d6c9f7	3	1	main_z	11	advance_on_keypress_ZEE	36	stimuli_target_trianglesquares.svg	stimuli_distractor_diamondtriangles.svg	22	yes	57	0	724	0	0			0	0			1				0	
6.6.1	win	2023-06-17	16:32:25	16:44:20	708841	63d4061bc9ec9cf926d6c9f7	3	1	main_z	11	main_z	37	stimuli_distractor_trianglediamonds.svg	stimuli_target_squarediamonds.svg	12	yes	44	1	522	0	0			0	0			1				0	
6.6.1	win	2023-06-17	16:32:25	16:44:20	708841	63d4061bc9ec9cf926d6c9f7	3	1	main_z	11	advance_on_keypress_ZEE	38	stimuli_distractor_trianglediamonds.svg	stimuli_target_squarediamonds.svg	12	yes	57	0	644	0	0			0	0			1				0	
6.6.1	win	2023-06-17	16:32:25	16:44:22	710649	63d4061bc9ec9cf926d6c9f7	3	1	main_z	11	main_z	39	stimuli_distractor_diamondtriangles.svg	stimuli_target_rectangletriangles.svg	13	yes	44	1	501	0	0			0	0			1				0	
6.6.1	win	2023-06-17	16:32:25	16:44:22	710649	63d4061bc9ec9cf926d6c9f7	3	1	main_z	11	advance_on_keypress_ZEE	40	stimuli_distractor_diamondtriangles.svg	stimuli_target_rectangletriangles.svg	13	yes	57	0	503	0	0			0	0			1				0	
6.6.1	win	2023-06-17	16:32:25	16:44:25	713799	63d4061bc9ec9cf926d6c9f7	3	1	main_z	11	main_z	41	stimuli_distractor_diamondtriangles.svg	stimuli_target_diamondrectangles.svg	31	yes	0	0	2000	0	0			0	0			1				0	
6.6.1	win	2023-06-17	16:32:25	16:44:25	713799	63d4061bc9ec9cf926d6c9f7	3	1	main_z	11	advance_on_keypress_ZEE	42	stimuli_distractor_diamondtriangles.svg	stimuli_target_diamondrectangles.svg	31	yes	57	0	477	0	0			0	0			1				0	
6.6.1	win	2023-06-17	16:32:25	16:44:28	716912	63d4061bc9ec9cf926d6c9f7	3	1	main_z	11	main_z	43	stimuli_distractor_diamondtriangles.svg	stimuli_distractor_trianglediamonds.svg	38	no	0	1	2000	0	0			0	0			1				0	
6.6.1	win	2023-06-17	16:32:25	16:44:28	716912	63d4061bc9ec9cf926d6c9f7	3	1	main_z	11	advance_on_keypress_ZEE	44	stimuli_distractor_diamondtriangles.svg	stimuli_distractor_trianglediamonds.svg	38	no	57	0	311	0	0			0	0			1				0	
6.6.1	win	2023-06-17	16:32:25	16:44:29	718312	63d4061bc9ec9cf926d6c9f7	3	1	main_z	11	main_z	45	stimuli_distractor_diamondtriangles.svg	stimuli_target_trianglesquares.svg	30	yes	44	1	452	0	0			0	0			1				0	
6.6.1	win	2023-06-17	16:32:25	16:44:29	718312	63d4061bc9ec9cf926d6c9f7	3	1	main_z	11	advance_on_keypress_ZEE	46	stimuli_distractor_diamondtriangles.svg	stimuli_target_trianglesquares.svg	30	yes	57	0	1061	0	0			0	0			1				0	
6.6.1	win	2023-06-17	16:32:25	16:44:32	720366	63d4061bc9ec9cf926d6c9f7	3	1	main_z	11	main_z	47	stimuli_target_squarediamonds.svg	stimuli_distractor_trianglediamonds.svg	4	yes	44	1	343	0	0			0	0			1				0	
6.6.1	win	2023-06-17	16:32:25	16:44:32	720366	63d4061bc9ec9cf926d6c9f7	3	1	main_z	11	advance_on_keypress_ZEE	48	stimuli_target_squarediamonds.svg	stimuli_distractor_trianglediamonds.svg	4	yes	57	0	615	0	0			0	0			1				0	
6.6.1	win	2023-06-17	16:32:25	16:44:33	722085	63d4061bc9ec9cf926d6c9f7	3	1	main_z	11	main_z	49	stimuli_target_diamondsquares.svg	stimuli_distractor_trianglediamonds.svg	20	yes	44	1	463	0	0			0	0			1				0	
6.6.1	win	2023-06-17	16:32:25	16:44:33	722085	63d4061bc9ec9cf926d6c9f7	3	1	main_z	11	advance_on_keypress_ZEE	50	stimuli_target_diamondsquares.svg	stimuli_distractor_trianglediamonds.svg	20	yes	57	0	487	0	0			0	0			1				0	
6.6.1	win	2023-06-17	16:32:25	16:44:36	725221	63d4061bc9ec9cf926d6c9f7	3	1	main_z	11	main_z	51	stimuli_distractor_trianglediamonds.svg	stimuli_distractor_trianglediamonds.svg	33	no	0	1	2000	0	0			0	0			1				0	
6.6.1	win	2023-06-17	16:32:25	16:44:36	725221	63d4061bc9ec9cf926d6c9f7	3	1	main_z	11	advance_on_keypress_ZEE	52	stimuli_distractor_trianglediamonds.svg	stimuli_distractor_trianglediamonds.svg	33	no	57	0	517	0	0			0	0			1				0	
6.6.1	win	2023-06-17	16:32:25	16:44:40	728384	63d4061bc9ec9cf926d6c9f7	3	1	main_z	11	main_z	53	stimuli_distractor_trianglediamonds.svg	stimuli_target_trianglerectangles.svg	25	yes	0	0	2000	0	0			0	0			1				0	
6.6.1	win	2023-06-17	16:32:25	16:44:40	728384	63d4061bc9ec9cf926d6c9f7	3	1	main_z	11	advance_on_keypress_ZEE	54	stimuli_distractor_trianglediamonds.svg	stimuli_target_trianglerectangles.svg	25	yes	57	0	483	0	0			0	0			1				0	
6.6.1	win	2023-06-17	16:32:25	16:44:41	729899	63d4061bc9ec9cf926d6c9f7	3	1	main_z	11	main_z	55	stimuli_target_squaretriangles.svg	stimuli_distractor_diamondtriangles.svg	7	yes	44	1	385	0	0			0	0			1				0	
6.6.1	win	2023-06-17	16:32:25	16:44:41	729899	63d4061bc9ec9cf926d6c9f7	3	1	main_z	11	advance_on_keypress_ZEE	56	stimuli_target_squaretriangles.svg	stimuli_distractor_diamondtriangles.svg	7	yes	57	0	1083	0	0			0	0			1				0	
6.6.1	win	2023-06-17	16:32:25	16:44:45	733630	63d4061bc9ec9cf926d6c9f7	3	1	main_z	11	main_z	57	stimuli_target_diamondrectangles.svg	stimuli_distractor_diamondtriangles.svg	23	yes	0	0	2000	0	0			0	0			1				0	
6.6.1	win	2023-06-17	16:32:25	16:44:45	733630	63d4061bc9ec9cf926d6c9f7	3	1	main_z	11	advance_on_keypress_ZEE	58	stimuli_target_diamondrectangles.svg	stimuli_distractor_diamondtriangles.svg	23	yes	57	0	370	0	0			0	0			1				0	
6.6.1	win	2023-06-17	16:32:25	16:44:46	735000	63d4061bc9ec9cf926d6c9f7	3	1	main_z	11	main_z	59	stimuli_distractor_trianglediamonds.svg	stimuli_target_rectangletriangles.svg	9	yes	44	1	357	0	0			0	0			1				0	
6.6.1	win	2023-06-17	16:32:25	16:44:46	735000	63d4061bc9ec9cf926d6c9f7	3	1	main_z	11	advance_on_keypress_ZEE	60	stimuli_distractor_trianglediamonds.svg	stimuli_target_rectangletriangles.svg	9	yes	57	0	749	0	0			0	0			1				0	
6.6.1	win	2023-06-17	16:32:25	16:44:50	738391	63d4061bc9ec9cf926d6c9f7	3	1	main_z	11	main_z	61	stimuli_distractor_trianglediamonds.svg	stimuli_target_diamondsquares.svg	28	yes	0	0	2000	0	0			0	0			1				0	
6.6.1	win	2023-06-17	16:32:25	16:44:50	738391	63d4061bc9ec9cf926d6c9f7	3	1	main_z	11	advance_on_keypress_ZEE	62	stimuli_distractor_trianglediamonds.svg	stimuli_target_diamondsquares.svg	28	yes	57	0	470	0	0			0	0			1				0	
6.6.1	win	2023-06-17	16:32:25	16:44:51	740023	63d4061bc9ec9cf926d6c9f7	3	1	main_z	11	main_z	63	stimuli_distractor_diamondtriangles.svg	stimuli_target_trianglerectangles.svg	29	yes	44	1	519	0	0			0	0			1				0	
6.6.1	win	2023-06-17	16:32:25	16:44:51	740023	63d4061bc9ec9cf926d6c9f7	3	1	main_z	11	advance_on_keypress_ZEE	64	stimuli_distractor_diamondtriangles.svg	stimuli_target_trianglerectangles.svg	29	yes	57	0	502	0	0			0	0			1				0	
6.6.1	win	2023-06-17	16:32:25	16:44:53	741739	63d4061bc9ec9cf926d6c9f7	3	1	main_z	11	main_z	65	stimuli_distractor_trianglediamonds.svg	stimuli_target_rectanglediamonds.svg	10	yes	44	1	569	0	0			0	0			1				0	
6.6.1	win	2023-06-17	16:32:25	16:44:53	741739	63d4061bc9ec9cf926d6c9f7	3	1	main_z	11	advance_on_keypress_ZEE	66	stimuli_distractor_trianglediamonds.svg	stimuli_target_rectanglediamonds.svg	10	yes	57	0	596	0	0			0	0			1				0	
6.6.1	win	2023-06-17	16:32:25	16:44:56	744985	63d4061bc9ec9cf926d6c9f7	3	1	main_z	11	main_z	67	stimuli_target_diamondsquares.svg	stimuli_distractor_diamondtriangles.svg	24	yes	0	0	2000	0	0			0	0			1				0	
6.6.1	win	2023-06-17	16:32:25	16:44:56	744985	63d4061bc9ec9cf926d6c9f7	3	1	main_z	11	advance_on_keypress_ZEE	68	stimuli_target_diamondsquares.svg	stimuli_distractor_diamondtriangles.svg	24	yes	57	0	387	0	0			0	0			1				0	
6.6.1	win	2023-06-17	16:32:25	16:44:59	748015	63d4061bc9ec9cf926d6c9f7	3	1	main_z	11	main_z	69	stimuli_target_rectangletriangles.svg	stimuli_distractor_diamondtriangles.svg	5	yes	0	0	2000	0	0			0	0			1				0	
6.6.1	win	2023-06-17	16:32:25	16:44:59	748015	63d4061bc9ec9cf926d6c9f7	3	1	main_z	11	advance_on_keypress_ZEE	70	stimuli_target_rectangletriangles.svg	stimuli_distractor_diamondtriangles.svg	5	yes	57	0	571	0	0			0	0			1				0	
6.6.1	win	2023-06-17	16:32:25	16:45:01	749492	63d4061bc9ec9cf926d6c9f7	3	1	main_z	11	main_z	71	stimuli_target_diamondrectangles.svg	stimuli_distractor_trianglediamonds.svg	19	yes	44	1	263	0	0			0	0			1				0	
6.6.1	win	2023-06-17	16:32:25	16:45:01	749492	63d4061bc9ec9cf926d6c9f7	3	1	main_z	11	advance_on_keypress_ZEE	72	stimuli_target_diamondrectangles.svg	stimuli_distractor_trianglediamonds.svg	19	yes	57	0	833	0	0			0	0			1				0	
6.6.1	win	2023-06-17	16:32:25	16:45:02	751263	63d4061bc9ec9cf926d6c9f7	3	1	main_z	11	main_z	73	stimuli_target_rectanglediamonds.svg	stimuli_distractor_diamondtriangles.svg	6	yes	44	1	286	0	0			0	0			1				0	
6.6.1	win	2023-06-17	16:32:25	16:45:02	751263	63d4061bc9ec9cf926d6c9f7	3	1	main_z	11	advance_on_keypress_ZEE	74	stimuli_target_rectanglediamonds.svg	stimuli_distractor_diamondtriangles.svg	6	yes	57	0	706	0	0			0	0			1				0	
6.6.1	win	2023-06-17	16:32:25	16:45:04	753098	63d4061bc9ec9cf926d6c9f7	3	1	main_z	11	main_z	75	stimuli_target_trianglesquares.svg	stimuli_distractor_trianglediamonds.svg	18	yes	44	1	489	0	0			0	0			1				0	
6.6.1	win	2023-06-17	16:32:25	16:45:04	753098	63d4061bc9ec9cf926d6c9f7	3	1	main_z	11	advance_on_keypress_ZEE	76	stimuli_target_trianglesquares.svg	stimuli_distractor_trianglediamonds.svg	18	yes	57	0	535	0	0			0	0			1				0	
6.6.1	win	2023-06-17	16:32:25	16:45:07	756275	63d4061bc9ec9cf926d6c9f7	3	1	main_z	11	main_z	77	stimuli_distractor_trianglediamonds.svg	stimuli_distractor_diamondtriangles.svg	35	no	0	1	2000	0	0			0	0			1				0	
6.6.1	win	2023-06-17	16:32:25	16:45:07	756275	63d4061bc9ec9cf926d6c9f7	3	1	main_z	11	advance_on_keypress_ZEE	78	stimuli_distractor_trianglediamonds.svg	stimuli_distractor_diamondtriangles.svg	35	no	57	0	535	0	0			0	0			1				0	
6.6.1	win	2023-06-17	16:32:25	16:45:09	757866	63d4061bc9ec9cf926d6c9f7	3	1	main_z	11	main_z	79	stimuli_distractor_diamondtriangles.svg	stimuli_target_squaretriangles.svg	15	yes	44	1	413	0	0			0	0			1				0	
6.6.1	win	2023-06-17	16:32:25	16:45:09	757866	63d4061bc9ec9cf926d6c9f7	3	1	main_z	11	advance_on_keypress_ZEE	80	stimuli_distractor_diamondtriangles.svg	stimuli_target_squaretriangles.svg	15	yes	57	0	554	0	0			0	0			1				0	
6.6.1	win	2023-06-17	16:32:25	16:45:11	759385	63d4061bc9ec9cf926d6c9f7	3	1	main_z	11	main_z	81	stimuli_distractor_diamondtriangles.svg	stimuli_distractor_diamondtriangles.svg	40	no	44	0	316	0	0			0	0			1				0	
6.6.1	win	2023-06-17	16:32:25	16:45:11	759385	63d4061bc9ec9cf926d6c9f7	3	1	main_z	11	advance_on_keypress_ZEE	82	stimuli_distractor_diamondtriangles.svg	stimuli_distractor_diamondtriangles.svg	40	no	57	0	553	0	0			0	0			1				0	
6.6.1	win	2023-06-17	16:32:25	16:45:14	762585	63d4061bc9ec9cf926d6c9f7	3	1	main_z	11	main_z	83	stimuli_distractor_trianglediamonds.svg	stimuli_distractor_diamondtriangles.svg	35	no	0	1	2000	0	0			0	0			1				0	
6.6.1	win	2023-06-17	16:32:25	16:45:14	762585	63d4061bc9ec9cf926d6c9f7	3	1	main_z	11	advance_on_keypress_ZEE	84	stimuli_distractor_trianglediamonds.svg	stimuli_distractor_diamondtriangles.svg	35	no	57	0	404	0	0			0	0			1				0	
6.6.1	win	2023-06-17	16:32:25	16:45:15	764147	63d4061bc9ec9cf926d6c9f7	3	1	main_z	11	main_z	85	stimuli_distractor_trianglediamonds.svg	stimuli_target_squarediamonds.svg	12	yes	44	1	515	0	0			0	0			1				0	
6.6.1	win	2023-06-17	16:32:25	16:45:15	764147	63d4061bc9ec9cf926d6c9f7	3	1	main_z	11	advance_on_keypress_ZEE	86	stimuli_distractor_trianglediamonds.svg	stimuli_target_squarediamonds.svg	12	yes	57	0	1088	0	0			0	0			1				0	
6.6.1	win	2023-06-17	16:32:25	16:45:18	766430	63d4061bc9ec9cf926d6c9f7	3	1	main_z	11	main_z	87	stimuli_target_diamondrectangles.svg	stimuli_distractor_trianglediamonds.svg	19	yes	44	1	550	0	0			0	0			1				0	
6.6.1	win	2023-06-17	16:32:25	16:45:18	766430	63d4061bc9ec9cf926d6c9f7	3	1	main_z	11	advance_on_keypress_ZEE	88	stimuli_target_diamondrectangles.svg	stimuli_distractor_trianglediamonds.svg	19	yes	57	0	145	0	0			0	0			1				0	
6.6.1	win	2023-06-17	16:32:25	16:45:19	767701	63d4061bc9ec9cf926d6c9f7	3	1	main_z	11	main_z	89	stimuli_target_rectanglediamonds.svg	stimuli_distractor_trianglediamonds.svg	2	yes	44	1	472	0	0			0	0			1				0	
6.6.1	win	2023-06-17	16:32:25	16:45:19	767701	63d4061bc9ec9cf926d6c9f7	3	1	main_z	11	advance_on_keypress_ZEE	90	stimuli_target_rectanglediamonds.svg	stimuli_distractor_trianglediamonds.svg	2	yes	57	0	1103	0	0			0	0			1				0	
6.6.1	win	2023-06-17	16:32:25	16:45:21	769763	63d4061bc9ec9cf926d6c9f7	3	1	main_z	11	main_z	91	stimuli_distractor_diamondtriangles.svg	stimuli_target_squaretriangles.svg	15	yes	44	1	320	0	0			0	0			1				0	
6.6.1	win	2023-06-17	16:32:25	16:45:21	769763	63d4061bc9ec9cf926d6c9f7	3	1	main_z	11	advance_on_keypress_ZEE	92	stimuli_distractor_diamondtriangles.svg	stimuli_target_squaretriangles.svg	15	yes	57	0	552	0	0			0	0			1				0	
6.6.1	win	2023-06-17	16:32:25	16:45:23	771469	63d4061bc9ec9cf926d6c9f7	3	1	main_z	11	main_z	93	stimuli_target_diamondrectangles.svg	stimuli_distractor_diamondtriangles.svg	23	yes	44	1	512	0	0			0	0			1				0	
6.6.1	win	2023-06-17	16:32:25	16:45:23	771469	63d4061bc9ec9cf926d6c9f7	3	1	main_z	11	advance_on_keypress_ZEE	94	stimuli_target_diamondrectangles.svg	stimuli_distractor_diamondtriangles.svg	23	yes	57	0	593	0	0			0	0			1				0	
6.6.1	win	2023-06-17	16:32:25	16:45:24	773187	63d4061bc9ec9cf926d6c9f7	3	1	main_z	11	main_z	95	stimuli_distractor_trianglediamonds.svg	stimuli_target_diamondrectangles.svg	27	yes	44	1	481	0	0			0	0			1				0	
6.6.1	win	2023-06-17	16:32:25	16:45:24	773187	63d4061bc9ec9cf926d6c9f7	3	1	main_z	11	advance_on_keypress_ZEE	96	stimuli_distractor_trianglediamonds.svg	stimuli_target_diamondrectangles.svg	27	yes	57	0	878	0	0			0	0			1				0	
6.6.1	win	2023-06-17	16:32:25	16:45:26	775112	63d4061bc9ec9cf926d6c9f7	3	1	main_z	11	main_z	97	stimuli_target_squarediamonds.svg	stimuli_distractor_diamondtriangles.svg	8	yes	44	1	391	0	0			0	0			1				0	
6.6.1	win	2023-06-17	16:32:25	16:45:26	775112	63d4061bc9ec9cf926d6c9f7	3	1	main_z	11	advance_on_keypress_ZEE	98	stimuli_target_squarediamonds.svg	stimuli_distractor_diamondtriangles.svg	8	yes	57	0	550	0	0			0	0			1				0	
6.6.1	win	2023-06-17	16:32:25	16:45:29	778302	63d4061bc9ec9cf926d6c9f7	3	1	main_z	11	main_z	99	stimuli_distractor_diamondtriangles.svg	stimuli_target_trianglesquares.svg	30	yes	0	0	2000	0	0			0	0			1				0	
6.6.1	win	2023-06-17	16:32:25	16:45:29	778302	63d4061bc9ec9cf926d6c9f7	3	1	main_z	11	advance_on_keypress_ZEE	100	stimuli_distractor_diamondtriangles.svg	stimuli_target_trianglesquares.svg	30	yes	57	0	448	0	0			0	0			1				0	
6.6.1	win	2023-06-17	16:32:25	16:45:33	781400	63d4061bc9ec9cf926d6c9f7	3	1	main_z	11	main_z	101	stimuli_distractor_diamondtriangles.svg	stimuli_distractor_trianglediamonds.svg	38	no	0	1	2000	0	0			0	0			1				0	
6.6.1	win	2023-06-17	16:32:25	16:45:33	781400	63d4061bc9ec9cf926d6c9f7	3	1	main_z	11	advance_on_keypress_ZEE	102	stimuli_distractor_diamondtriangles.svg	stimuli_distractor_trianglediamonds.svg	38	no	57	0	289	0	0			0	0			1				0	
6.6.1	win	2023-06-17	16:32:25	16:45:34	782577	63d4061bc9ec9cf926d6c9f7	3	1	main_z	11	main_z	103	stimuli_target_diamondsquares.svg	stimuli_distractor_diamondtriangles.svg	24	yes	44	1	247	0	0			0	0			1				0	
6.6.1	win	2023-06-17	16:32:25	16:45:34	782577	63d4061bc9ec9cf926d6c9f7	3	1	main_z	11	advance_on_keypress_ZEE	104	stimuli_target_diamondsquares.svg	stimuli_distractor_diamondtriangles.svg	24	yes	57	0	1233	0	0			0	0			1				0	
6.6.1	win	2023-06-17	16:32:25	16:45:36	784815	63d4061bc9ec9cf926d6c9f7	3	1	main_z	11	main_z	105	stimuli_target_trianglesquares.svg	stimuli_distractor_trianglediamonds.svg	18	yes	44	1	355	0	0			0	0			1				0	
6.6.1	win	2023-06-17	16:32:25	16:45:36	784815	63d4061bc9ec9cf926d6c9f7	3	1	main_z	11	advance_on_keypress_ZEE	106	stimuli_target_trianglesquares.svg	stimuli_distractor_trianglediamonds.svg	18	yes	57	0	860	0	0			0	0			1				0	
6.6.1	win	2023-06-17	16:32:25	16:45:38	786658	63d4061bc9ec9cf926d6c9f7	3	1	main_z	11	main_z	107	stimuli_target_squaretriangles.svg	stimuli_distractor_diamondtriangles.svg	7	yes	44	1	333	0	0			0	0			1				0	
6.6.1	win	2023-06-17	16:32:25	16:45:38	786658	63d4061bc9ec9cf926d6c9f7	3	1	main_z	11	advance_on_keypress_ZEE	108	stimuli_target_squaretriangles.svg	stimuli_distractor_diamondtriangles.svg	7	yes	57	0	588	0	0			0	0			1				0	
6.6.1	win	2023-06-17	16:32:25	16:45:39	788319	63d4061bc9ec9cf926d6c9f7	3	1	main_z	11	main_z	109	stimuli_distractor_trianglediamonds.svg	stimuli_target_squaretriangles.svg	11	yes	44	1	428	0	0			0	0			1				0	
6.6.1	win	2023-06-17	16:32:25	16:45:39	788319	63d4061bc9ec9cf926d6c9f7	3	1	main_z	11	advance_on_keypress_ZEE	110	stimuli_distractor_trianglediamonds.svg	stimuli_target_squaretriangles.svg	11	yes	57	0	527	0	0			0	0			1				0	
6.6.1	win	2023-06-17	16:32:25	16:45:41	790108	63d4061bc9ec9cf926d6c9f7	3	1	main_z	11	main_z	111	stimuli_distractor_trianglediamonds.svg	stimuli_target_diamondsquares.svg	28	yes	44	1	618	0	0			0	0			1				0	
6.6.1	win	2023-06-17	16:32:25	16:45:41	790108	63d4061bc9ec9cf926d6c9f7	3	1	main_z	11	advance_on_keypress_ZEE	112	stimuli_distractor_trianglediamonds.svg	stimuli_target_diamondsquares.svg	28	yes	57	0	483	0	0			0	0			1				0	
6.6.1	win	2023-06-17	16:32:25	16:45:44	793238	63d4061bc9ec9cf926d6c9f7	3	1	main_z	11	main_z	113	stimuli_distractor_trianglediamonds.svg	stimuli_distractor_trianglediamonds.svg	33	no	0	1	2000	0	0			0	0			1				0	
6.6.1	win	2023-06-17	16:32:25	16:45:44	793238	63d4061bc9ec9cf926d6c9f7	3	1	main_z	11	advance_on_keypress_ZEE	114	stimuli_distractor_trianglediamonds.svg	stimuli_distractor_trianglediamonds.svg	33	no	57	0	427	0	0			0	0			1				0	
6.6.1	win	2023-06-17	16:32:25	16:45:47	796318	63d4061bc9ec9cf926d6c9f7	3	1	main_z	11	main_z	115	stimuli_distractor_diamondtriangles.svg	stimuli_target_diamondrectangles.svg	31	yes	0	0	2000	0	0			0	0			1				0	
6.6.1	win	2023-06-17	16:32:25	16:45:47	796318	63d4061bc9ec9cf926d6c9f7	3	1	main_z	11	advance_on_keypress_ZEE	116	stimuli_distractor_diamondtriangles.svg	stimuli_target_diamondrectangles.svg	31	yes	57	0	416	0	0			0	0			1				0	
6.6.1	win	2023-06-17	16:32:25	16:45:49	797823	63d4061bc9ec9cf926d6c9f7	3	1	main_z	11	main_z	117	stimuli_distractor_diamondtriangles.svg	stimuli_target_rectangletriangles.svg	13	yes	44	1	442	0	0			0	0			1				0	
6.6.1	win	2023-06-17	16:32:25	16:45:49	797823	63d4061bc9ec9cf926d6c9f7	3	1	main_z	11	advance_on_keypress_ZEE	118	stimuli_distractor_diamondtriangles.svg	stimuli_target_rectangletriangles.svg	13	yes	57	0	672	0	0			0	0			1				0	
6.6.1	win	2023-06-17	16:32:25	16:45:51	799458	63d4061bc9ec9cf926d6c9f7	3	1	main_z	11	main_z	119	stimuli_target_rectangletriangles.svg	stimuli_distractor_trianglediamonds.svg	1	yes	44	1	328	0	0			0	0			1				0	
6.6.1	win	2023-06-17	16:32:25	16:45:51	799458	63d4061bc9ec9cf926d6c9f7	3	1	main_z	11	advance_on_keypress_ZEE	120	stimuli_target_rectangletriangles.svg	stimuli_distractor_trianglediamonds.svg	1	yes	57	0	676	0	0			0	0			1				0	
6.6.1	win	2023-06-17	16:32:25	16:45:54	802778	63d4061bc9ec9cf926d6c9f7	3	1	main_z	11	main_z	121	stimuli_distractor_trianglediamonds.svg	stimuli_distractor_diamondtriangles.svg	36	no	0	1	2000	0	0			0	0			1				0	
6.6.1	win	2023-06-17	16:32:25	16:45:54	802778	63d4061bc9ec9cf926d6c9f7	3	1	main_z	11	advance_on_keypress_ZEE	122	stimuli_distractor_trianglediamonds.svg	stimuli_distractor_diamondtriangles.svg	36	no	57	0	438	0	0			0	0			1				0	
6.6.1	win	2023-06-17	16:32:25	16:45:57	805859	63d4061bc9ec9cf926d6c9f7	3	1	main_z	11	main_z	123	stimuli_distractor_diamondtriangles.svg	stimuli_target_diamondsquares.svg	32	yes	0	0	2000	0	0			0	0			1				0	
6.6.1	win	2023-06-17	16:32:25	16:45:57	805859	63d4061bc9ec9cf926d6c9f7	3	1	main_z	11	advance_on_keypress_ZEE	124	stimuli_distractor_diamondtriangles.svg	stimuli_target_diamondsquares.svg	32	yes	57	0	10	0	0			0	0			1				0	
6.6.1	win	2023-06-17	16:32:25	16:46:00	808523	63d4061bc9ec9cf926d6c9f7	3	1	main_z	11	main_z	125	stimuli_distractor_diamondtriangles.svg	stimuli_distractor_diamondtriangles.svg	39	no	0	1	2000	0	0			0	0			1				0	
6.6.1	win	2023-06-17	16:32:25	16:46:00	808523	63d4061bc9ec9cf926d6c9f7	3	1	main_z	11	advance_on_keypress_ZEE	126	stimuli_distractor_diamondtriangles.svg	stimuli_distractor_diamondtriangles.svg	39	no	57	0	419	0	0			0	0			1				0	
6.6.1	win	2023-06-17	16:32:25	16:46:01	810000	63d4061bc9ec9cf926d6c9f7	3	1	main_z	11	main_z	127	stimuli_target_trianglerectangles.svg	stimuli_distractor_diamondtriangles.svg	21	yes	44	1	413	0	0			0	0			1				0	
6.6.1	win	2023-06-17	16:32:25	16:46:01	810000	63d4061bc9ec9cf926d6c9f7	3	1	main_z	11	advance_on_keypress_ZEE	128	stimuli_target_trianglerectangles.svg	stimuli_distractor_diamondtriangles.svg	21	yes	57	0	509	0	0			0	0			1				0	
6.6.1	win	2023-06-17	16:32:25	16:46:03	811448	63d4061bc9ec9cf926d6c9f7	3	1	main_z	11	main_z	129	stimuli_target_trianglesquares.svg	stimuli_distractor_diamondtriangles.svg	22	yes	44	1	279	0	0			0	0			1				0	
6.6.1	win	2023-06-17	16:32:25	16:46:03	811448	63d4061bc9ec9cf926d6c9f7	3	1	main_z	11	advance_on_keypress_ZEE	130	stimuli_target_trianglesquares.svg	stimuli_distractor_diamondtriangles.svg	22	yes	57	0	776	0	0			0	0			1				0	
6.6.1	win	2023-06-17	16:32:25	16:46:05	813396	63d4061bc9ec9cf926d6c9f7	3	1	main_z	11	main_z	131	stimuli_distractor_trianglediamonds.svg	stimuli_target_rectanglediamonds.svg	10	yes	44	1	530	0	0			0	0			1				0	
6.6.1	win	2023-06-17	16:32:25	16:46:05	813396	63d4061bc9ec9cf926d6c9f7	3	1	main_z	11	advance_on_keypress_ZEE	132	stimuli_distractor_trianglediamonds.svg	stimuli_target_rectanglediamonds.svg	10	yes	57	0	508	0	0			0	0			1				0	
6.6.1	win	2023-06-17	16:32:25	16:46:06	814834	63d4061bc9ec9cf926d6c9f7	3	1	main_z	11	main_z	133	stimuli_distractor_trianglediamonds.svg	stimuli_target_trianglesquares.svg	26	yes	44	1	285	0	0			0	0			1				0	
6.6.1	win	2023-06-17	16:32:25	16:46:06	814834	63d4061bc9ec9cf926d6c9f7	3	1	main_z	11	advance_on_keypress_ZEE	134	stimuli_distractor_trianglediamonds.svg	stimuli_target_trianglesquares.svg	26	yes	57	0	861	0	0			0	0			1				0	
6.6.1	win	2023-06-17	16:32:25	16:46:10	818346	63d4061bc9ec9cf926d6c9f7	3	1	main_z	11	main_z	135	stimuli_target_squaretriangles.svg	stimuli_distractor_trianglediamonds.svg	3	yes	0	0	2000	0	0			0	0			1				0	
6.6.1	win	2023-06-17	16:32:25	16:46:10	818346	63d4061bc9ec9cf926d6c9f7	3	1	main_z	11	advance_on_keypress_ZEE	136	stimuli_target_squaretriangles.svg	stimuli_distractor_trianglediamonds.svg	3	yes	57	0	479	0	0			0	0			1				0	
6.6.1	win	2023-06-17	16:32:25	16:46:11	819776	63d4061bc9ec9cf926d6c9f7	3	1	main_z	11	main_z	137	stimuli_target_rectanglediamonds.svg	stimuli_distractor_diamondtriangles.svg	6	yes	44	1	299	0	0			0	0			1				0	
6.6.1	win	2023-06-17	16:32:25	16:46:11	819776	63d4061bc9ec9cf926d6c9f7	3	1	main_z	11	advance_on_keypress_ZEE	138	stimuli_target_rectanglediamonds.svg	stimuli_distractor_diamondtriangles.svg	6	yes	57	0	705	0	0			0	0			1				0	
6.6.1	win	2023-06-17	16:32:25	16:46:13	821426	63d4061bc9ec9cf926d6c9f7	3	1	main_z	11	main_z	139	stimuli_distractor_diamondtriangles.svg	stimuli_target_squarediamonds.svg	16	yes	44	1	300	0	0			0	0			1				0	
6.6.1	win	2023-06-17	16:32:25	16:46:13	821426	63d4061bc9ec9cf926d6c9f7	3	1	main_z	11	advance_on_keypress_ZEE	140	stimuli_distractor_diamondtriangles.svg	stimuli_target_squarediamonds.svg	16	yes	57	0	812	0	0			0	0			1				0	
6.6.1	win	2023-06-17	16:32:25	16:46:16	824890	63d4061bc9ec9cf926d6c9f7	3	1	main_z	11	main_z	141	stimuli_distractor_trianglediamonds.svg	stimuli_distractor_trianglediamonds.svg	34	no	0	1	2000	0	0			0	0			1				0	
6.6.1	win	2023-06-17	16:32:25	16:46:16	824890	63d4061bc9ec9cf926d6c9f7	3	1	main_z	11	advance_on_keypress_ZEE	142	stimuli_distractor_trianglediamonds.svg	stimuli_distractor_trianglediamonds.svg	34	no	57	0	376	0	0			0	0			1				0	
6.6.1	win	2023-06-17	16:32:25	16:46:18	826338	63d4061bc9ec9cf926d6c9f7	3	1	main_z	11	main_z	143	stimuli_distractor_diamondtriangles.svg	stimuli_target_trianglerectangles.svg	29	yes	44	1	434	0	0			0	0			1				0	
6.6.1	win	2023-06-17	16:32:25	16:46:18	826338	63d4061bc9ec9cf926d6c9f7	3	1	main_z	11	advance_on_keypress_ZEE	144	stimuli_distractor_diamondtriangles.svg	stimuli_target_trianglerectangles.svg	29	yes	57	0	478	0	0			0	0			1				0	
6.6.1	win	2023-06-17	16:32:25	16:46:21	829452	63d4061bc9ec9cf926d6c9f7	3	1	main_z	11	main_z	145	stimuli_distractor_trianglediamonds.svg	stimuli_target_trianglerectangles.svg	25	yes	0	0	2000	0	0			0	0			1				0	
6.6.1	win	2023-06-17	16:32:25	16:46:21	829452	63d4061bc9ec9cf926d6c9f7	3	1	main_z	11	advance_on_keypress_ZEE	146	stimuli_distractor_trianglediamonds.svg	stimuli_target_trianglerectangles.svg	25	yes	57	0	433	0	0			0	0			1				0	
6.6.1	win	2023-06-17	16:32:25	16:46:24	832533	63d4061bc9ec9cf926d6c9f7	3	1	main_z	11	main_z	147	stimuli_distractor_diamondtriangles.svg	stimuli_distractor_trianglediamonds.svg	37	no	0	1	2000	0	0			0	0			1				0	
6.6.1	win	2023-06-17	16:32:25	16:46:24	832533	63d4061bc9ec9cf926d6c9f7	3	1	main_z	11	advance_on_keypress_ZEE	148	stimuli_distractor_diamondtriangles.svg	stimuli_distractor_trianglediamonds.svg	37	no	57	0	69	0	0			0	0			1				0	
6.6.1	win	2023-06-17	16:32:25	16:46:25	833610	63d4061bc9ec9cf926d6c9f7	3	1	main_z	11	main_z	149	stimuli_target_squarediamonds.svg	stimuli_distractor_trianglediamonds.svg	4	yes	44	1	363	0	0			0	0			1				0	
6.6.1	win	2023-06-17	16:32:25	16:46:25	833610	63d4061bc9ec9cf926d6c9f7	3	1	main_z	11	advance_on_keypress_ZEE	150	stimuli_target_squarediamonds.svg	stimuli_distractor_trianglediamonds.svg	4	yes	57	0	593	0	0			0	0			1				0	
6.6.1	win	2023-06-17	16:32:25	16:46:27	835353	63d4061bc9ec9cf926d6c9f7	3	1	main_z	11	main_z	151	stimuli_target_diamondsquares.svg	stimuli_distractor_trianglediamonds.svg	20	yes	44	1	508	0	0			0	0			1				0	
6.6.1	win	2023-06-17	16:32:25	16:46:27	835353	63d4061bc9ec9cf926d6c9f7	3	1	main_z	11	advance_on_keypress_ZEE	152	stimuli_target_diamondsquares.svg	stimuli_distractor_trianglediamonds.svg	20	yes	57	0	525	0	0			0	0			1				0	
6.6.1	win	2023-06-17	16:32:25	16:46:28	837053	63d4061bc9ec9cf926d6c9f7	3	1	main_z	11	main_z	153	stimuli_target_trianglerectangles.svg	stimuli_distractor_trianglediamonds.svg	17	yes	44	1	541	0	0			0	0			1				0	
6.6.1	win	2023-06-17	16:32:25	16:46:28	837053	63d4061bc9ec9cf926d6c9f7	3	1	main_z	11	advance_on_keypress_ZEE	154	stimuli_target_trianglerectangles.svg	stimuli_distractor_trianglediamonds.svg	17	yes	57	0	525	0	0			0	0			1				0	
6.6.1	win	2023-06-17	16:32:25	16:46:30	838962	63d4061bc9ec9cf926d6c9f7	3	1	main_z	11	main_z	155	stimuli_distractor_diamondtriangles.svg	stimuli_target_rectanglediamonds.svg	14	yes	44	1	753	0	0			0	0			1				0	
6.6.1	win	2023-06-17	16:32:25	16:46:30	838962	63d4061bc9ec9cf926d6c9f7	3	1	main_z	11	advance_on_keypress_ZEE	156	stimuli_distractor_diamondtriangles.svg	stimuli_target_rectanglediamonds.svg	14	yes	57	0	433	0	0			0	0			1				0	
6.6.1	win	2023-06-17	16:32:25	16:46:32	840390	63d4061bc9ec9cf926d6c9f7	3	1	main_z	11	main_z	157	stimuli_target_rectangletriangles.svg	stimuli_distractor_diamondtriangles.svg	5	yes	44	1	350	0	0			0	0			1				0	
6.6.1	win	2023-06-17	16:32:25	16:46:32	840390	63d4061bc9ec9cf926d6c9f7	3	1	main_z	11	advance_on_keypress_ZEE	158	stimuli_target_rectangletriangles.svg	stimuli_distractor_diamondtriangles.svg	5	yes	57	0	667	0	0			0	0			1				0	
6.6.1	win	2023-06-17	16:32:25	16:46:33	842029	63d4061bc9ec9cf926d6c9f7	3	1	main_z	11	main_z	159	stimuli_distractor_trianglediamonds.svg	stimuli_target_rectangletriangles.svg	9	yes	44	1	325	0	0			0	0			1				0	
6.6.1	win	2023-06-17	16:32:25	16:46:33	842029	63d4061bc9ec9cf926d6c9f7	3	1	main_z	11	advance_on_keypress_ZEE	160	stimuli_distractor_trianglediamonds.svg	stimuli_target_rectangletriangles.svg	9	yes	57	0	474	0	0			0	0			1				0	
6.6.1	win	2023-06-17	16:32:25	16:46:33	842029	63d4061bc9ec9cf926d6c9f7	3	1	headphonecheck_calibration	14	headphonecheck_calibrationIntro	1	stimuli_distractor_trianglediamonds.svg	stimuli_target_rectangletriangles.svg	9	yes	calibrationButton	0	6742	0	0			0	0			1				0	
6.6.1	win	2023-06-17	16:32:25	16:46:33	842029	63d4061bc9ec9cf926d6c9f7	3	1	headphonecheck_testphase	15	test_collectResponse	3	stimuli_distractor_trianglediamonds.svg	stimuli_target_rectangletriangles.svg	9	yes	third	1	741	1	2	antiphase_hc_ios.wav	3	0	0			1				0	
6.6.1	win	2023-06-17	16:32:25	16:46:33	842029	63d4061bc9ec9cf926d6c9f7	3	1	headphonecheck_testphase	15	test_collectResponse	6	stimuli_distractor_trianglediamonds.svg	stimuli_target_rectangletriangles.svg	9	yes	second	1	759	2	1	antiphase_hc_iso.wav	2	0	0			1				0	
6.6.1	win	2023-06-17	16:32:25	16:46:33	842029	63d4061bc9ec9cf926d6c9f7	3	1	headphonecheck_testphase	15	test_collectResponse	9	stimuli_distractor_trianglediamonds.svg	stimuli_target_rectangletriangles.svg	9	yes	second	1	514	3	5	antiphase_hc_osi.wav	2	0	0			1				0	
6.6.1	win	2023-06-17	16:32:25	16:46:33	842029	63d4061bc9ec9cf926d6c9f7	3	1	headphonecheck_testphase	15	test_collectResponse	12	stimuli_distractor_trianglediamonds.svg	stimuli_target_rectangletriangles.svg	9	yes	first	1	476	4	4	antiphase_hc_sio.wav	1	0	0			1				0	
6.6.1	win	2023-06-17	16:32:25	16:46:33	842029	63d4061bc9ec9cf926d6c9f7	3	1	headphonecheck_testphase	15	test_collectResponse	15	stimuli_distractor_trianglediamonds.svg	stimuli_target_rectangletriangles.svg	9	yes	first	1	342	5	3	antiphase_hc_soi.wav	1	0	0			1				0	
6.6.1	win	2023-06-17	16:32:25	16:46:33	842029	63d4061bc9ec9cf926d6c9f7	3	1	headphonecheck_testphase	15	test_collectResponse	18	stimuli_distractor_trianglediamonds.svg	stimuli_target_rectangletriangles.svg	9	yes	third	1	504	6	6	antiphase_hc_ois.wav	3	0	0			1				0	
6.6.1	win	2023-06-17	16:32:25	16:46:33	842029	63d4061bc9ec9cf926d6c9f7	3	1	stereocheck_calibration	17	stereocheck_calibrationIntro	1	stimuli_distractor_trianglediamonds.svg	stimuli_target_rectangletriangles.svg	9	yes	stereocheck_calibrationButton	0	3773	6	6	antiphase_hc_ois.wav	3	0	0			1				0	
6.6.1	win	2023-06-17	16:32:25	16:46:33	842029	63d4061bc9ec9cf926d6c9f7	3	1	stereocheck_testphase	18	stereocheck_test_collectResponse	3	stimuli_distractor_trianglediamonds.svg	stimuli_target_rectangletriangles.svg	9	yes	stereocheck_right	1	500	6	6	antiphase_hc_ois.wav	3	1	6	noise_calib_stim_RIGHT.wav	2	1				0	
6.6.1	win	2023-06-17	16:32:25	16:46:33	842029	63d4061bc9ec9cf926d6c9f7	3	1	stereocheck_testphase	18	stereocheck_test_collectResponse	6	stimuli_distractor_trianglediamonds.svg	stimuli_target_rectangletriangles.svg	9	yes	stereocheck_right	1	519	6	6	antiphase_hc_ois.wav	3	2	4	noise_calib_stim_RIGHT.wav	2	1				0	
6.6.1	win	2023-06-17	16:32:25	16:46:33	842029	63d4061bc9ec9cf926d6c9f7	3	1	stereocheck_testphase	18	stereocheck_test_collectResponse	9	stimuli_distractor_trianglediamonds.svg	stimuli_target_rectangletriangles.svg	9	yes	stereocheck_left	1	391	6	6	antiphase_hc_ois.wav	3	3	3	noise_calib_stim_LEFT.wav	1	1				0	
6.6.1	win	2023-06-17	16:32:25	16:46:33	842029	63d4061bc9ec9cf926d6c9f7	3	1	stereocheck_testphase	18	stereocheck_test_collectResponse	12	stimuli_distractor_trianglediamonds.svg	stimuli_target_rectangletriangles.svg	9	yes	stereocheck_right	1	1551	6	6	antiphase_hc_ois.wav	3	4	5	noise_calib_stim_RIGHT.wav	2	1				0	
6.6.1	win	2023-06-17	16:32:25	16:46:33	842029	63d4061bc9ec9cf926d6c9f7	3	1	stereocheck_testphase	18	stereocheck_test_collectResponse	15	stimuli_distractor_trianglediamonds.svg	stimuli_target_rectangletriangles.svg	9	yes	stereocheck_left	1	318	6	6	antiphase_hc_ois.wav	3	5	2	noise_calib_stim_LEFT.wav	1	1				0	
6.6.1	win	2023-06-17	16:32:25	16:46:33	842029	63d4061bc9ec9cf926d6c9f7	3	1	stereocheck_testphase	18	stereocheck_test_collectResponse	18	stimuli_distractor_trianglediamonds.svg	stimuli_target_rectangletriangles.svg	9	yes	stereocheck_left	1	334	6	6	antiphase_hc_ois.wav	3	6	1	noise_calib_stim_LEFT.wav	1	1				0	
6.6.1	win	2023-06-17	16:32:25	16:46:33	842029	63d4061bc9ec9cf926d6c9f7	3	1	DL_practice	21	DL_practice	2	stimuli_distractor_trianglediamonds.svg	stimuli_target_rectangletriangles.svg	9	yes	ka	1	1533	6	6	antiphase_hc_ois.wav	3	6	1	noise_calib_stim_LEFT.wav	1	22	blb_dichoticlistening_ka-ka.mp3	ka	ka	0	left
6.6.1	win	2023-06-17	16:32:25	16:46:33	842029	63d4061bc9ec9cf926d6c9f7	3	1	DL_practice	21	DL_practice	3	stimuli_distractor_trianglediamonds.svg	stimuli_target_rectangletriangles.svg	9	yes	da	1	1187	6	6	antiphase_hc_ois.wav	3	6	1	noise_calib_stim_LEFT.wav	1	8	blb_dichoticlistening_da-da.mp3	da	da	0	left
6.6.1	win	2023-06-17	16:32:25	16:46:33	842029	63d4061bc9ec9cf926d6c9f7	3	1	DL_practice	21	DL_practice	4	stimuli_distractor_trianglediamonds.svg	stimuli_target_rectangletriangles.svg	9	yes	ta	1	1703	6	6	antiphase_hc_ois.wav	3	6	1	noise_calib_stim_LEFT.wav	1	36	blb_dichoticlistening_ta-ta.mp3	ta	ta	0	left
6.6.1	win	2023-06-17	16:32:25	16:46:33	842029	63d4061bc9ec9cf926d6c9f7	3	1	DL_practice	21	DL_practice	5	stimuli_distractor_trianglediamonds.svg	stimuli_target_rectangletriangles.svg	9	yes	pa	1	1591	6	6	antiphase_hc_ois.wav	3	6	1	noise_calib_stim_LEFT.wav	1	23	blb_dichoticlistening_ka-pa.mp3	ka	pa	1	right
6.6.1	win	2023-06-17	16:32:25	16:46:33	842029	63d4061bc9ec9cf926d6c9f7	3	1	DL_practice	21	DL_practice	6	stimuli_distractor_trianglediamonds.svg	stimuli_target_rectangletriangles.svg	9	yes	ba	1	1489	6	6	antiphase_hc_ois.wav	3	6	1	noise_calib_stim_LEFT.wav	1	1	blb_dichoticlistening_ba-ba.mp3	ba	ba	0	left
6.6.1	win	2023-06-17	16:32:25	16:46:33	842029	63d4061bc9ec9cf926d6c9f7	3	1	DL_practice	21	DL_practice	7	stimuli_distractor_trianglediamonds.svg	stimuli_target_rectangletriangles.svg	9	yes	da	1	1700	6	6	antiphase_hc_ois.wav	3	6	1	noise_calib_stim_LEFT.wav	1	7	blb_dichoticlistening_da-ba.mp3	da	ba	1	left
6.6.1	win	2023-06-17	16:32:25	16:46:33	842029	63d4061bc9ec9cf926d6c9f7	3	1	DL_practice	21	DL_practice	8	stimuli_distractor_trianglediamonds.svg	stimuli_target_rectangletriangles.svg	9	yes	ta	1	1967	6	6	antiphase_hc_ois.wav	3	6	1	noise_calib_stim_LEFT.wav	1	18	blb_dichoticlistening_ga-ta.mp3	ga	ta	1	right
6.6.1	win	2023-06-17	16:32:25	16:46:33	842029	63d4061bc9ec9cf926d6c9f7	3	1	DL_practice	21	DL_practice	9	stimuli_distractor_trianglediamonds.svg	stimuli_target_rectangletriangles.svg	9	yes	pa	1	2231	6	6	antiphase_hc_ois.wav	3	6	1	noise_calib_stim_LEFT.wav	1	29	blb_dichoticlistening_pa-pa.mp3	pa	pa	0	left
6.6.1	win	2023-06-17	16:32:25	16:46:33	842029	63d4061bc9ec9cf926d6c9f7	3	1	DL_practice	21	DL_practice	10	stimuli_distractor_trianglediamonds.svg	stimuli_target_rectangletriangles.svg	9	yes	ga	1	1349	6	6	antiphase_hc_ois.wav	3	6	1	noise_calib_stim_LEFT.wav	1	15	blb_dichoticlistening_ga-ga.mp3	ga	ga	0	left
6.6.1	win	2023-06-17	16:32:25	16:46:33	842029	63d4061bc9ec9cf926d6c9f7	3	1	DL_test	23	DL_test	1	stimuli_distractor_trianglediamonds.svg	stimuli_target_rectangletriangles.svg	9	yes	ga	1	1092	6	6	antiphase_hc_ois.wav	3	6	1	noise_calib_stim_LEFT.wav	1	3	blb_dichoticlistening_ba-ga.mp3	ba	ga	1	right
6.6.1	win	2023-06-17	16:32:25	16:46:33	842029	63d4061bc9ec9cf926d6c9f7	3	1	DL_test	23	DL_test	2	stimuli_distractor_trianglediamonds.svg	stimuli_target_rectangletriangles.svg	9	yes	ba	1	1357	6	6	antiphase_hc_ois.wav	3	6	1	noise_calib_stim_LEFT.wav	1	7	blb_dichoticlistening_da-ba.mp3	da	ba	1	right
6.6.1	win	2023-06-17	16:32:25	16:46:33	842029	63d4061bc9ec9cf926d6c9f7	3	1	DL_test	23	DL_test	3	stimuli_distractor_trianglediamonds.svg	stimuli_target_rectangletriangles.svg	9	yes	ta	1	1634	6	6	antiphase_hc_ois.wav	3	6	1	noise_calib_stim_LEFT.wav	1	36	blb_dichoticlistening_ta-ta.mp3	ta	ta	0	left
6.6.1	win	2023-06-17	16:32:25	16:46:33	842029	63d4061bc9ec9cf926d6c9f7	3	1	DL_test	23	DL_test	4	stimuli_distractor_trianglediamonds.svg	stimuli_target_rectangletriangles.svg	9	yes	ta	1	1855	6	6	antiphase_hc_ois.wav	3	6	1	noise_calib_stim_LEFT.wav	1	6	blb_dichoticlistening_ba-ta.mp3	ba	ta	1	right
6.6.1	win	2023-06-17	16:32:25	16:46:33	842029	63d4061bc9ec9cf926d6c9f7	3	1	DL_test	23	DL_test	5	stimuli_distractor_trianglediamonds.svg	stimuli_target_rectangletriangles.svg	9	yes	ba	1	1523	6	6	antiphase_hc_ois.wav	3	6	1	noise_calib_stim_LEFT.wav	1	1	blb_dichoticlistening_ba-ba.mp3	ba	ba	0	left
6.6.1	win	2023-06-17	16:32:25	16:46:33	842029	63d4061bc9ec9cf926d6c9f7	3	1	DL_test	23	DL_test	6	stimuli_distractor_trianglediamonds.svg	stimuli_target_rectangletriangles.svg	9	yes	ta	0	1726	6	6	antiphase_hc_ois.wav	3	6	1	noise_calib_stim_LEFT.wav	1	23	blb_dichoticlistening_ka-pa.mp3	ka	pa	1	other
6.6.1	win	2023-06-17	16:32:25	16:46:33	842029	63d4061bc9ec9cf926d6c9f7	3	1	DL_test	23	DL_test	7	stimuli_distractor_trianglediamonds.svg	stimuli_target_rectangletriangles.svg	9	yes	da	1	1445	6	6	antiphase_hc_ois.wav	3	6	1	noise_calib_stim_LEFT.wav	1	2	blb_dichoticlistening_ba-da.mp3	ba	da	1	right
6.6.1	win	2023-06-17	16:32:25	16:46:33	842029	63d4061bc9ec9cf926d6c9f7	3	1	DL_test	23	DL_test	8	stimuli_distractor_trianglediamonds.svg	stimuli_target_rectangletriangles.svg	9	yes	ka	1	1703	6	6	antiphase_hc_ois.wav	3	6	1	noise_calib_stim_LEFT.wav	1	4	blb_dichoticlistening_ba-ka.mp3	ba	ka	1	right
6.6.1	win	2023-06-17	16:32:25	16:46:33	842029	63d4061bc9ec9cf926d6c9f7	3	1	DL_test	23	DL_test	9	stimuli_distractor_trianglediamonds.svg	stimuli_target_rectangletriangles.svg	9	yes	ga	1	2646	6	6	antiphase_hc_ois.wav	3	6	1	noise_calib_stim_LEFT.wav	1	15	blb_dichoticlistening_ga-ga.mp3	ga	ga	0	left
6.6.1	win	2023-06-17	16:32:25	16:46:33	842029	63d4061bc9ec9cf926d6c9f7	3	1	DL_test	23	DL_test	10	stimuli_distractor_trianglediamonds.svg	stimuli_target_rectangletriangles.svg	9	yes	ta	1	2132	6	6	antiphase_hc_ois.wav	3	6	1	noise_calib_stim_LEFT.wav	1	12	blb_dichoticlistening_da-ta.mp3	da	ta	1	right
6.6.1	win	2023-06-17	16:32:25	16:46:33	842029	63d4061bc9ec9cf926d6c9f7	3	1	DL_test	23	DL_test	11	stimuli_distractor_trianglediamonds.svg	stimuli_target_rectangletriangles.svg	9	yes	pa	1	2035	6	6	antiphase_hc_ois.wav	3	6	1	noise_calib_stim_LEFT.wav	1	17	blb_dichoticlistening_ga-pa.mp3	ga	pa	1	right
6.6.1	win	2023-06-17	16:32:25	16:46:33	842029	63d4061bc9ec9cf926d6c9f7	3	1	DL_test	23	DL_test	12	stimuli_distractor_trianglediamonds.svg	stimuli_target_rectangletriangles.svg	9	yes	pa	1	1020	6	6	antiphase_hc_ois.wav	3	6	1	noise_calib_stim_LEFT.wav	1	29	blb_dichoticlistening_pa-pa.mp3	pa	pa	0	left
6.6.1	win	2023-06-17	16:32:25	16:46:33	842029	63d4061bc9ec9cf926d6c9f7	3	1	DL_test	23	DL_test	13	stimuli_distractor_trianglediamonds.svg	stimuli_target_rectangletriangles.svg	9	yes	pa	1	1438	6	6	antiphase_hc_ois.wav	3	6	1	noise_calib_stim_LEFT.wav	1	11	blb_dichoticlistening_da-pa.mp3	da	pa	1	right
6.6.1	win	2023-06-17	16:32:25	16:46:33	842029	63d4061bc9ec9cf926d6c9f7	3	1	DL_test	23	DL_test	14	stimuli_distractor_trianglediamonds.svg	stimuli_target_rectangletriangles.svg	9	yes	ka	0	1612	6	6	antiphase_hc_ois.wav	3	6	1	noise_calib_stim_LEFT.wav	1	18	blb_dichoticlistening_ga-ta.mp3	ga	ta	1	other
6.6.1	win	2023-06-17	16:32:25	16:46:33	842029	63d4061bc9ec9cf926d6c9f7	3	1	DL_test	23	DL_test	15	stimuli_distractor_trianglediamonds.svg	stimuli_target_rectangletriangles.svg	9	yes	da	1	1278	6	6	antiphase_hc_ois.wav	3	6	1	noise_calib_stim_LEFT.wav	1	14	blb_dichoticlistening_ga-da.mp3	ga	da	1	right
6.6.1	win	2023-06-17	16:32:25	16:46:33	842029	63d4061bc9ec9cf926d6c9f7	3	1	DL_test	23	DL_test	16	stimuli_distractor_trianglediamonds.svg	stimuli_target_rectangletriangles.svg	9	yes	ka	1	1483	6	6	antiphase_hc_ois.wav	3	6	1	noise_calib_stim_LEFT.wav	1	34	blb_dichoticlistening_ta-ka.mp3	ta	ka	1	right
6.6.1	win	2023-06-17	16:32:25	16:46:33	842029	63d4061bc9ec9cf926d6c9f7	3	1	DL_test	23	DL_test	17	stimuli_distractor_trianglediamonds.svg	stimuli_target_rectangletriangles.svg	9	yes	ka	1	2117	6	6	antiphase_hc_ois.wav	3	6	1	noise_calib_stim_LEFT.wav	1	21	blb_dichoticlistening_ka-ga.mp3	ka	ga	1	left
6.6.1	win	2023-06-17	16:32:25	16:46:33	842029	63d4061bc9ec9cf926d6c9f7	3	1	DL_test	23	DL_test	18	stimuli_distractor_trianglediamonds.svg	stimuli_target_rectangletriangles.svg	9	yes	ka	0	2801	6	6	antiphase_hc_ois.wav	3	6	1	noise_calib_stim_LEFT.wav	1	33	blb_dichoticlistening_ta-ga.mp3	ta	ga	1	other
6.6.1	win	2023-06-17	16:32:25	16:46:33	842029	63d4061bc9ec9cf926d6c9f7	3	1	DL_test	23	DL_test	19	stimuli_distractor_trianglediamonds.svg	stimuli_target_rectangletriangles.svg	9	yes	da	1	1352	6	6	antiphase_hc_ois.wav	3	6	1	noise_calib_stim_LEFT.wav	1	8	blb_dichoticlistening_da-da.mp3	da	da	0	left
6.6.1	win	2023-06-17	16:32:25	16:46:33	842029	63d4061bc9ec9cf926d6c9f7	3	1	DL_test	23	DL_test	20	stimuli_distractor_trianglediamonds.svg	stimuli_target_rectangletriangles.svg	9	yes	ta	0	2191	6	6	antiphase_hc_ois.wav	3	6	1	noise_calib_stim_LEFT.wav	1	26	blb_dichoticlistening_pa-da.mp3	pa	da	1	other
6.6.1	win	2023-06-17	16:32:25	16:46:33	842029	63d4061bc9ec9cf926d6c9f7	3	1	DL_test	23	DL_test	21	stimuli_distractor_trianglediamonds.svg	stimuli_target_rectangletriangles.svg	9	yes	ta	1	1731	6	6	antiphase_hc_ois.wav	3	6	1	noise_calib_stim_LEFT.wav	1	32	blb_dichoticlistening_ta-da.mp3	ta	da	1	left
6.6.1	win	2023-06-17	16:32:25	16:46:33	842029	63d4061bc9ec9cf926d6c9f7	3	1	DL_test	23	DL_test	22	stimuli_distractor_trianglediamonds.svg	stimuli_target_rectangletriangles.svg	9	yes	ka	1	1501	6	6	antiphase_hc_ois.wav	3	6	1	noise_calib_stim_LEFT.wav	1	16	blb_dichoticlistening_ga-ka.mp3	ga	ka	1	right
6.6.1	win	2023-06-17	16:32:25	16:46:33	842029	63d4061bc9ec9cf926d6c9f7	3	1	DL_test	23	DL_test	23	stimuli_distractor_trianglediamonds.svg	stimuli_target_rectangletriangles.svg	9	yes	ka	1	1154	6	6	antiphase_hc_ois.wav	3	6	1	noise_calib_stim_LEFT.wav	1	20	blb_dichoticlistening_ka-da.mp3	ka	da	1	left
6.6.1	win	2023-06-17	16:32:25	16:46:33	842029	63d4061bc9ec9cf926d6c9f7	3	1	DL_test	23	DL_test	24	stimuli_distractor_trianglediamonds.svg	stimuli_target_rectangletriangles.svg	9	yes	pa	0	2459	6	6	antiphase_hc_ois.wav	3	6	1	noise_calib_stim_LEFT.wav	1	10	blb_dichoticlistening_da-ka.mp3	da	ka	1	other
6.6.1	win	2023-06-17	16:32:25	16:46:33	842029	63d4061bc9ec9cf926d6c9f7	3	1	DL_test	23	DL_test	25	stimuli_distractor_trianglediamonds.svg	stimuli_target_rectangletriangles.svg	9	yes	pa	1	1136	6	6	antiphase_hc_ois.wav	3	6	1	noise_calib_stim_LEFT.wav	1	30	blb_dichoticlistening_pa-ta.mp3	pa	ta	1	left
6.6.1	win	2023-06-17	16:32:25	16:46:33	842029	63d4061bc9ec9cf926d6c9f7	3	1	DL_test	23	DL_test	26	stimuli_distractor_trianglediamonds.svg	stimuli_target_rectangletriangles.svg	9	yes	ka	1	1560	6	6	antiphase_hc_ois.wav	3	6	1	noise_calib_stim_LEFT.wav	1	19	blb_dichoticlistening_ka-ba.mp3	ka	ba	1	left
