build	computer.platform	date	time	timestamp	time_elapsed_ms	subject	group	session	blockcode	blocknum	trialcode	trialnum	stimulus_left	stimulus_right	stim_index	target_present	response	correct	latency	headphonecheck_countTestTrials	headphonecheck_index	headphonecheck_testSound	headphonecheck_correctResponse	stereocheck_countTestTrials	stereocheck_index	stereocheck_testSound	stereocheck_correctResponse	DL_index	DL_soundfile	DL_leftSound	DL_rightSound	DL_dualSound	DL_choice
6.6.1	mac	2023-07-07	10:04:54	10:07:09	131705	5f846dd4e962ce0bf61b95fb	4	1	practice_z	5	practice_z	1	stimuli_distractor_diamondtriangles.svg	stimuli_distractor_diamondtriangles.svg	13	no	0	1	2000	0	0			0	0			1				0	
6.6.1	mac	2023-07-07	10:04:54	10:07:09	131705	5f846dd4e962ce0bf61b95fb	4	1	practice_z	5	advance_on_keypress_ZEE	2	stimuli_distractor_diamondtriangles.svg	stimuli_distractor_diamondtriangles.svg	13	no	57	0	1960	0	0			0	0			1				0	
6.6.1	mac	2023-07-07	10:04:54	10:07:12	135655	5f846dd4e962ce0bf61b95fb	4	1	practice_z	5	practice_z	3	stimuli_target_rectanglediamonds.svg	stimuli_distractor_trianglediamonds.svg	4	yes	44	1	348	0	0			0	0			1				0	
6.6.1	mac	2023-07-07	10:04:54	10:07:12	135655	5f846dd4e962ce0bf61b95fb	4	1	practice_z	5	advance_on_keypress_ZEE	4	stimuli_target_rectanglediamonds.svg	stimuli_distractor_trianglediamonds.svg	4	yes	57	0	544	0	0			0	0			1				0	
6.6.1	mac	2023-07-07	10:04:54	10:07:15	138090	5f846dd4e962ce0bf61b95fb	4	1	practice_z	5	practice_z	5	stimuli_distractor_diamondtriangles.svg	stimuli_target_rectangletriangles.svg	7	yes	44	1	249	0	0			0	0			1				0	
6.6.1	mac	2023-07-07	10:04:54	10:07:15	138090	5f846dd4e962ce0bf61b95fb	4	1	practice_z	5	advance_on_keypress_ZEE	6	stimuli_distractor_diamondtriangles.svg	stimuli_target_rectangletriangles.svg	7	yes	57	0	445	0	0			0	0			1				0	
6.6.1	mac	2023-07-07	10:04:54	10:07:19	142174	5f846dd4e962ce0bf61b95fb	4	1	practice_z	5	practice_z	7	stimuli_distractor_diamondtriangles.svg	stimuli_target_diamondrectangles.svg	8	yes	0	0	2000	0	0			0	0			1				0	
6.6.1	mac	2023-07-07	10:04:54	10:07:19	142174	5f846dd4e962ce0bf61b95fb	4	1	practice_z	5	advance_on_keypress_ZEE	8	stimuli_distractor_diamondtriangles.svg	stimuli_target_diamondrectangles.svg	8	yes	57	0	484	0	0			0	0			1				0	
6.6.1	mac	2023-07-07	10:04:54	10:07:23	146290	5f846dd4e962ce0bf61b95fb	4	1	practice_z	5	practice_z	9	stimuli_distractor_diamondtriangles.svg	stimuli_distractor_trianglediamonds.svg	14	no	0	1	2000	0	0			0	0			1				0	
6.6.1	mac	2023-07-07	10:04:54	10:07:23	146290	5f846dd4e962ce0bf61b95fb	4	1	practice_z	5	advance_on_keypress_ZEE	10	stimuli_distractor_diamondtriangles.svg	stimuli_distractor_trianglediamonds.svg	14	no	57	0	285	0	0			0	0			1				0	
6.6.1	mac	2023-07-07	10:04:54	10:07:27	150206	5f846dd4e962ce0bf61b95fb	4	1	practice_z	5	practice_z	11	stimuli_distractor_trianglediamonds.svg	stimuli_target_diamondrectangles.svg	12	yes	0	0	2000	0	0			0	0			1				0	
6.6.1	mac	2023-07-07	10:04:54	10:07:27	150206	5f846dd4e962ce0bf61b95fb	4	1	practice_z	5	advance_on_keypress_ZEE	12	stimuli_distractor_trianglediamonds.svg	stimuli_target_diamondrectangles.svg	12	yes	57	0	266	0	0			0	0			1				0	
6.6.1	mac	2023-07-07	10:04:54	10:07:29	152451	5f846dd4e962ce0bf61b95fb	4	1	practice_z	5	practice_z	13	stimuli_target_squarediamonds.svg	stimuli_distractor_trianglediamonds.svg	5	yes	44	1	344	0	0			0	0			1				0	
6.6.1	mac	2023-07-07	10:04:54	10:07:29	152451	5f846dd4e962ce0bf61b95fb	4	1	practice_z	5	advance_on_keypress_ZEE	14	stimuli_target_squarediamonds.svg	stimuli_distractor_trianglediamonds.svg	5	yes	57	0	366	0	0			0	0			1				0	
6.6.1	mac	2023-07-07	10:04:54	10:07:32	154691	5f846dd4e962ce0bf61b95fb	4	1	practice_z	5	practice_z	15	stimuli_target_rectanglediamonds.svg	stimuli_distractor_diamondtriangles.svg	1	yes	44	1	249	0	0			0	0			1				0	
6.6.1	mac	2023-07-07	10:04:54	10:07:32	154691	5f846dd4e962ce0bf61b95fb	4	1	practice_z	5	advance_on_keypress_ZEE	16	stimuli_target_rectanglediamonds.svg	stimuli_distractor_diamondtriangles.svg	1	yes	57	0	423	0	0			0	0			1				0	
6.6.1	mac	2023-07-07	10:04:54	10:07:35	157700	5f846dd4e962ce0bf61b95fb	4	1	practice_z	5	practice_z	17	stimuli_target_diamondsquares.svg	stimuli_distractor_trianglediamonds.svg	6	yes	44	1	959	0	0			0	0			1				0	
6.6.1	mac	2023-07-07	10:04:54	10:07:35	157700	5f846dd4e962ce0bf61b95fb	4	1	practice_z	5	advance_on_keypress_ZEE	18	stimuli_target_diamondsquares.svg	stimuli_distractor_trianglediamonds.svg	6	yes	57	0	358	0	0			0	0			1				0	
6.6.1	mac	2023-07-07	10:04:54	10:07:37	160172	5f846dd4e962ce0bf61b95fb	4	1	practice_z	5	practice_z	19	stimuli_target_squarediamonds.svg	stimuli_distractor_diamondtriangles.svg	2	yes	44	1	482	0	0			0	0			1				0	
6.6.1	mac	2023-07-07	10:04:54	10:07:37	160172	5f846dd4e962ce0bf61b95fb	4	1	practice_z	5	advance_on_keypress_ZEE	20	stimuli_target_squarediamonds.svg	stimuli_distractor_diamondtriangles.svg	2	yes	57	0	291	0	0			0	0			1				0	
6.6.1	mac	2023-07-07	10:04:54	10:07:41	164090	5f846dd4e962ce0bf61b95fb	4	1	practice_z	5	practice_z	21	stimuli_distractor_trianglediamonds.svg	stimuli_distractor_trianglediamonds.svg	15	no	0	1	2000	0	0			0	0			1				0	
6.6.1	mac	2023-07-07	10:04:54	10:07:41	164090	5f846dd4e962ce0bf61b95fb	4	1	practice_z	5	advance_on_keypress_ZEE	22	stimuli_distractor_trianglediamonds.svg	stimuli_distractor_trianglediamonds.svg	15	no	57	0	258	0	0			0	0			1				0	
6.6.1	mac	2023-07-07	10:04:54	10:07:44	166873	5f846dd4e962ce0bf61b95fb	4	1	practice_z	5	practice_z	23	stimuli_distractor_trianglediamonds.svg	stimuli_distractor_diamondtriangles.svg	16	no	44	0	898	0	0			0	0			1				0	
6.6.1	mac	2023-07-07	10:04:54	10:07:44	166873	5f846dd4e962ce0bf61b95fb	4	1	practice_z	5	advance_on_keypress_ZEE	24	stimuli_distractor_trianglediamonds.svg	stimuli_distractor_diamondtriangles.svg	16	no	57	0	249	0	0			0	0			1				0	
6.6.1	mac	2023-07-07	10:04:54	10:07:46	169574	5f846dd4e962ce0bf61b95fb	4	1	practice_z	5	practice_z	25	stimuli_distractor_trianglediamonds.svg	stimuli_target_rectanglediamonds.svg	10	yes	44	1	817	0	0			0	0			1				0	
6.6.1	mac	2023-07-07	10:04:54	10:07:46	169574	5f846dd4e962ce0bf61b95fb	4	1	practice_z	5	advance_on_keypress_ZEE	26	stimuli_distractor_trianglediamonds.svg	stimuli_target_rectanglediamonds.svg	10	yes	57	0	89	0	0			0	0			1				0	
6.6.1	mac	2023-07-07	10:04:54	10:07:49	171865	5f846dd4e962ce0bf61b95fb	4	1	practice_z	5	practice_z	27	stimuli_distractor_trianglediamonds.svg	stimuli_target_squarediamonds.svg	11	yes	44	1	575	0	0			0	0			1				0	
6.6.1	mac	2023-07-07	10:04:54	10:07:49	171865	5f846dd4e962ce0bf61b95fb	4	1	practice_z	5	advance_on_keypress_ZEE	28	stimuli_distractor_trianglediamonds.svg	stimuli_target_squarediamonds.svg	11	yes	57	0	297	0	0			0	0			1				0	
6.6.1	mac	2023-07-07	10:04:54	10:07:51	174581	5f846dd4e962ce0bf61b95fb	4	1	practice_z	5	practice_z	29	stimuli_target_diamondsquares.svg	stimuli_distractor_diamondtriangles.svg	3	yes	44	1	790	0	0			0	0			1				0	
6.6.1	mac	2023-07-07	10:04:54	10:07:51	174581	5f846dd4e962ce0bf61b95fb	4	1	practice_z	5	advance_on_keypress_ZEE	30	stimuli_target_diamondsquares.svg	stimuli_distractor_diamondtriangles.svg	3	yes	57	0	279	0	0			0	0			1				0	
6.6.1	mac	2023-07-07	10:04:54	10:07:55	178489	5f846dd4e962ce0bf61b95fb	4	1	practice_z	5	practice_z	31	stimuli_distractor_diamondtriangles.svg	stimuli_target_trianglerectangles.svg	9	yes	0	0	2000	0	0			0	0			1				0	
6.6.1	mac	2023-07-07	10:04:54	10:07:55	178489	5f846dd4e962ce0bf61b95fb	4	1	practice_z	5	advance_on_keypress_ZEE	32	stimuli_distractor_diamondtriangles.svg	stimuli_target_trianglerectangles.svg	9	yes	57	0	346	0	0			0	0			1				0	
6.6.1	mac	2023-07-07	10:04:54	10:08:06	189399	5f846dd4e962ce0bf61b95fb	4	1	main_z	7	main_z	1	stimuli_distractor_trianglediamonds.svg	stimuli_target_rectanglediamonds.svg	10	yes	44	1	342	0	0			0	0			1				0	
6.6.1	mac	2023-07-07	10:04:54	10:08:06	189399	5f846dd4e962ce0bf61b95fb	4	1	main_z	7	advance_on_keypress_ZEE	2	stimuli_distractor_trianglediamonds.svg	stimuli_target_rectanglediamonds.svg	10	yes	57	0	870	0	0			0	0			1				0	
6.6.1	mac	2023-07-07	10:04:54	10:08:10	192888	5f846dd4e962ce0bf61b95fb	4	1	main_z	7	main_z	3	stimuli_distractor_trianglediamonds.svg	stimuli_target_trianglesquares.svg	26	yes	0	0	2000	0	0			0	0			1				0	
6.6.1	mac	2023-07-07	10:04:54	10:08:10	192888	5f846dd4e962ce0bf61b95fb	4	1	main_z	7	advance_on_keypress_ZEE	4	stimuli_distractor_trianglediamonds.svg	stimuli_target_trianglesquares.svg	26	yes	57	0	222	0	0			0	0			1				0	
6.6.1	mac	2023-07-07	10:04:54	10:08:11	194254	5f846dd4e962ce0bf61b95fb	4	1	main_z	7	main_z	5	stimuli_target_diamondrectangles.svg	stimuli_distractor_trianglediamonds.svg	19	yes	44	1	514	0	0			0	0			1				0	
6.6.1	mac	2023-07-07	10:04:54	10:08:11	194254	5f846dd4e962ce0bf61b95fb	4	1	main_z	7	advance_on_keypress_ZEE	6	stimuli_target_diamondrectangles.svg	stimuli_distractor_trianglediamonds.svg	19	yes	57	0	526	0	0			0	0			1				0	
6.6.1	mac	2023-07-07	10:04:54	10:08:13	196438	5f846dd4e962ce0bf61b95fb	4	1	main_z	7	main_z	7	stimuli_distractor_diamondtriangles.svg	stimuli_target_rectangletriangles.svg	13	yes	44	1	1030	0	0			0	0			1				0	
6.6.1	mac	2023-07-07	10:04:54	10:08:13	196438	5f846dd4e962ce0bf61b95fb	4	1	main_z	7	advance_on_keypress_ZEE	8	stimuli_distractor_diamondtriangles.svg	stimuli_target_rectangletriangles.svg	13	yes	57	0	356	0	0			0	0			1				0	
6.6.1	mac	2023-07-07	10:04:54	10:08:15	198431	5f846dd4e962ce0bf61b95fb	4	1	main_z	7	main_z	9	stimuli_distractor_diamondtriangles.svg	stimuli_target_diamondrectangles.svg	31	yes	44	1	1007	0	0			0	0			1				0	
6.6.1	mac	2023-07-07	10:04:54	10:08:15	198431	5f846dd4e962ce0bf61b95fb	4	1	main_z	7	advance_on_keypress_ZEE	10	stimuli_distractor_diamondtriangles.svg	stimuli_target_diamondrectangles.svg	31	yes	57	0	371	0	0			0	0			1				0	
6.6.1	mac	2023-07-07	10:04:54	10:08:17	200256	5f846dd4e962ce0bf61b95fb	4	1	main_z	7	main_z	11	stimuli_distractor_trianglediamonds.svg	stimuli_target_diamondrectangles.svg	27	yes	44	1	833	0	0			0	0			1				0	
6.6.1	mac	2023-07-07	10:04:54	10:08:17	200256	5f846dd4e962ce0bf61b95fb	4	1	main_z	7	advance_on_keypress_ZEE	12	stimuli_distractor_trianglediamonds.svg	stimuli_target_diamondrectangles.svg	27	yes	57	0	431	0	0			0	0			1				0	
6.6.1	mac	2023-07-07	10:04:54	10:08:19	202062	5f846dd4e962ce0bf61b95fb	4	1	main_z	7	main_z	13	stimuli_target_trianglesquares.svg	stimuli_distractor_diamondtriangles.svg	22	yes	44	1	738	0	0			0	0			1				0	
6.6.1	mac	2023-07-07	10:04:54	10:08:19	202062	5f846dd4e962ce0bf61b95fb	4	1	main_z	7	advance_on_keypress_ZEE	14	stimuli_target_trianglesquares.svg	stimuli_distractor_diamondtriangles.svg	22	yes	57	0	390	0	0			0	0			1				0	
6.6.1	mac	2023-07-07	10:04:54	10:08:22	205072	5f846dd4e962ce0bf61b95fb	4	1	main_z	7	main_z	15	stimuli_distractor_diamondtriangles.svg	stimuli_target_squaretriangles.svg	15	yes	0	0	2000	0	0			0	0			1				0	
6.6.1	mac	2023-07-07	10:04:54	10:08:22	205072	5f846dd4e962ce0bf61b95fb	4	1	main_z	7	advance_on_keypress_ZEE	16	stimuli_distractor_diamondtriangles.svg	stimuli_target_squaretriangles.svg	15	yes	57	0	391	0	0			0	0			1				0	
6.6.1	mac	2023-07-07	10:04:54	10:08:23	206483	5f846dd4e962ce0bf61b95fb	4	1	main_z	7	main_z	17	stimuli_distractor_diamondtriangles.svg	stimuli_target_squarediamonds.svg	16	yes	44	1	390	0	0			0	0			1				0	
6.6.1	mac	2023-07-07	10:04:54	10:08:23	206483	5f846dd4e962ce0bf61b95fb	4	1	main_z	7	advance_on_keypress_ZEE	18	stimuli_distractor_diamondtriangles.svg	stimuli_target_squarediamonds.svg	16	yes	57	0	341	0	0			0	0			1				0	
6.6.1	mac	2023-07-07	10:04:54	10:08:25	208079	5f846dd4e962ce0bf61b95fb	4	1	main_z	7	main_z	19	stimuli_distractor_trianglediamonds.svg	stimuli_target_squarediamonds.svg	12	yes	44	1	623	0	0			0	0			1				0	
6.6.1	mac	2023-07-07	10:04:54	10:08:25	208079	5f846dd4e962ce0bf61b95fb	4	1	main_z	7	advance_on_keypress_ZEE	20	stimuli_distractor_trianglediamonds.svg	stimuli_target_squarediamonds.svg	12	yes	57	0	285	0	0			0	0			1				0	
6.6.1	mac	2023-07-07	10:04:54	10:08:28	210989	5f846dd4e962ce0bf61b95fb	4	1	main_z	7	main_z	21	stimuli_target_rectanglediamonds.svg	stimuli_distractor_trianglediamonds.svg	2	yes	0	0	2000	0	0			0	0			1				0	
6.6.1	mac	2023-07-07	10:04:54	10:08:28	210989	5f846dd4e962ce0bf61b95fb	4	1	main_z	7	advance_on_keypress_ZEE	22	stimuli_target_rectanglediamonds.svg	stimuli_distractor_trianglediamonds.svg	2	yes	57	0	313	0	0			0	0			1				0	
6.6.1	mac	2023-07-07	10:04:54	10:08:31	213938	5f846dd4e962ce0bf61b95fb	4	1	main_z	7	main_z	23	stimuli_distractor_diamondtriangles.svg	stimuli_target_diamondsquares.svg	32	yes	0	0	2000	0	0			0	0			1				0	
6.6.1	mac	2023-07-07	10:04:54	10:08:31	213938	5f846dd4e962ce0bf61b95fb	4	1	main_z	7	advance_on_keypress_ZEE	24	stimuli_distractor_diamondtriangles.svg	stimuli_target_diamondsquares.svg	32	yes	57	0	80	0	0			0	0			1				0	
6.6.1	mac	2023-07-07	10:04:54	10:08:32	215197	5f846dd4e962ce0bf61b95fb	4	1	main_z	7	main_z	25	stimuli_target_rectangletriangles.svg	stimuli_distractor_trianglediamonds.svg	1	yes	44	1	540	0	0			0	0			1				0	
6.6.1	mac	2023-07-07	10:04:54	10:08:32	215197	5f846dd4e962ce0bf61b95fb	4	1	main_z	7	advance_on_keypress_ZEE	26	stimuli_target_rectangletriangles.svg	stimuli_distractor_trianglediamonds.svg	1	yes	57	0	488	0	0			0	0			1				0	
6.6.1	mac	2023-07-07	10:04:54	10:08:34	217159	5f846dd4e962ce0bf61b95fb	4	1	main_z	7	main_z	27	stimuli_distractor_diamondtriangles.svg	stimuli_target_rectanglediamonds.svg	14	yes	44	1	835	0	0			0	0			1				0	
6.6.1	mac	2023-07-07	10:04:54	10:08:34	217159	5f846dd4e962ce0bf61b95fb	4	1	main_z	7	advance_on_keypress_ZEE	28	stimuli_distractor_diamondtriangles.svg	stimuli_target_rectanglediamonds.svg	14	yes	57	0	354	0	0			0	0			1				0	
6.6.1	mac	2023-07-07	10:04:54	10:08:35	218589	5f846dd4e962ce0bf61b95fb	4	1	main_z	7	main_z	29	stimuli_distractor_trianglediamonds.svg	stimuli_target_rectangletriangles.svg	9	yes	44	1	448	0	0			0	0			1				0	
6.6.1	mac	2023-07-07	10:04:54	10:08:35	218589	5f846dd4e962ce0bf61b95fb	4	1	main_z	7	advance_on_keypress_ZEE	30	stimuli_distractor_trianglediamonds.svg	stimuli_target_rectangletriangles.svg	9	yes	57	0	318	0	0			0	0			1				0	
6.6.1	mac	2023-07-07	10:04:54	10:08:38	221280	5f846dd4e962ce0bf61b95fb	4	1	main_z	7	main_z	31	stimuli_distractor_diamondtriangles.svg	stimuli_distractor_diamondtriangles.svg	39	no	44	0	1739	0	0			0	0			1				0	
6.6.1	mac	2023-07-07	10:04:54	10:08:38	221280	5f846dd4e962ce0bf61b95fb	4	1	main_z	7	advance_on_keypress_ZEE	32	stimuli_distractor_diamondtriangles.svg	stimuli_distractor_diamondtriangles.svg	39	no	57	0	466	0	0			0	0			1				0	
6.6.1	mac	2023-07-07	10:04:54	10:08:40	222854	5f846dd4e962ce0bf61b95fb	4	1	main_z	7	main_z	33	stimuli_target_diamondrectangles.svg	stimuli_distractor_diamondtriangles.svg	23	yes	44	1	481	0	0			0	0			1				0	
6.6.1	mac	2023-07-07	10:04:54	10:08:40	222854	5f846dd4e962ce0bf61b95fb	4	1	main_z	7	advance_on_keypress_ZEE	34	stimuli_target_diamondrectangles.svg	stimuli_distractor_diamondtriangles.svg	23	yes	57	0	325	0	0			0	0			1				0	
6.6.1	mac	2023-07-07	10:04:54	10:08:42	224807	5f846dd4e962ce0bf61b95fb	4	1	main_z	7	main_z	35	stimuli_distractor_trianglediamonds.svg	stimuli_target_squaretriangles.svg	11	yes	44	1	1000	0	0			0	0			1				0	
6.6.1	mac	2023-07-07	10:04:54	10:08:42	224807	5f846dd4e962ce0bf61b95fb	4	1	main_z	7	advance_on_keypress_ZEE	36	stimuli_distractor_trianglediamonds.svg	stimuli_target_squaretriangles.svg	11	yes	57	0	262	0	0			0	0			1				0	
6.6.1	mac	2023-07-07	10:04:54	10:08:45	227705	5f846dd4e962ce0bf61b95fb	4	1	main_z	7	main_z	37	stimuli_distractor_diamondtriangles.svg	stimuli_target_trianglesquares.svg	30	yes	0	0	2000	0	0			0	0			1				0	
6.6.1	mac	2023-07-07	10:04:54	10:08:45	227705	5f846dd4e962ce0bf61b95fb	4	1	main_z	7	advance_on_keypress_ZEE	38	stimuli_distractor_diamondtriangles.svg	stimuli_target_trianglesquares.svg	30	yes	57	0	174	0	0			0	0			1				0	
6.6.1	mac	2023-07-07	10:04:54	10:08:46	229046	5f846dd4e962ce0bf61b95fb	4	1	main_z	7	main_z	39	stimuli_target_squaretriangles.svg	stimuli_distractor_diamondtriangles.svg	7	yes	44	1	540	0	0			0	0			1				0	
6.6.1	mac	2023-07-07	10:04:54	10:08:46	229046	5f846dd4e962ce0bf61b95fb	4	1	main_z	7	advance_on_keypress_ZEE	40	stimuli_target_squaretriangles.svg	stimuli_distractor_diamondtriangles.svg	7	yes	57	0	1089	0	0			0	0			1				0	
6.6.1	mac	2023-07-07	10:04:54	10:08:48	231208	5f846dd4e962ce0bf61b95fb	4	1	main_z	7	main_z	41	stimuli_target_squarediamonds.svg	stimuli_distractor_trianglediamonds.svg	4	yes	44	1	435	0	0			0	0			1				0	
6.6.1	mac	2023-07-07	10:04:54	10:08:48	231208	5f846dd4e962ce0bf61b95fb	4	1	main_z	7	advance_on_keypress_ZEE	42	stimuli_target_squarediamonds.svg	stimuli_distractor_trianglediamonds.svg	4	yes	57	0	345	0	0			0	0			1				0	
6.6.1	mac	2023-07-07	10:04:54	10:08:50	232850	5f846dd4e962ce0bf61b95fb	4	1	main_z	7	main_z	43	stimuli_target_diamondsquares.svg	stimuli_distractor_trianglediamonds.svg	20	yes	44	1	660	0	0			0	0			1				0	
6.6.1	mac	2023-07-07	10:04:54	10:08:50	232850	5f846dd4e962ce0bf61b95fb	4	1	main_z	7	advance_on_keypress_ZEE	44	stimuli_target_diamondsquares.svg	stimuli_distractor_trianglediamonds.svg	20	yes	57	0	450	0	0			0	0			1				0	
6.6.1	mac	2023-07-07	10:04:54	10:08:51	234377	5f846dd4e962ce0bf61b95fb	4	1	main_z	7	main_z	45	stimuli_target_trianglesquares.svg	stimuli_distractor_trianglediamonds.svg	18	yes	44	1	454	0	0			0	0			1				0	
6.6.1	mac	2023-07-07	10:04:54	10:08:51	234377	5f846dd4e962ce0bf61b95fb	4	1	main_z	7	advance_on_keypress_ZEE	46	stimuli_target_trianglesquares.svg	stimuli_distractor_trianglediamonds.svg	18	yes	57	0	331	0	0			0	0			1				0	
6.6.1	mac	2023-07-07	10:04:54	10:08:52	235649	5f846dd4e962ce0bf61b95fb	4	1	main_z	7	main_z	47	stimuli_distractor_diamondtriangles.svg	stimuli_distractor_diamondtriangles.svg	40	no	44	0	309	0	0			0	0			1				0	
6.6.1	mac	2023-07-07	10:04:54	10:08:52	235649	5f846dd4e962ce0bf61b95fb	4	1	main_z	7	advance_on_keypress_ZEE	48	stimuli_distractor_diamondtriangles.svg	stimuli_distractor_diamondtriangles.svg	40	no	57	0	327	0	0			0	0			1				0	
6.6.1	mac	2023-07-07	10:04:54	10:08:54	236886	5f846dd4e962ce0bf61b95fb	4	1	main_z	7	main_z	49	stimuli_distractor_diamondtriangles.svg	stimuli_distractor_trianglediamonds.svg	38	no	44	0	296	0	0			0	0			1				0	
6.6.1	mac	2023-07-07	10:04:54	10:08:54	236886	5f846dd4e962ce0bf61b95fb	4	1	main_z	7	advance_on_keypress_ZEE	50	stimuli_distractor_diamondtriangles.svg	stimuli_distractor_trianglediamonds.svg	38	no	57	0	277	0	0			0	0			1				0	
6.6.1	mac	2023-07-07	10:04:54	10:08:57	239788	5f846dd4e962ce0bf61b95fb	4	1	main_z	7	main_z	51	stimuli_distractor_trianglediamonds.svg	stimuli_distractor_diamondtriangles.svg	36	no	0	1	2000	0	0			0	0			1				0	
6.6.1	mac	2023-07-07	10:04:54	10:08:57	239788	5f846dd4e962ce0bf61b95fb	4	1	main_z	7	advance_on_keypress_ZEE	52	stimuli_distractor_trianglediamonds.svg	stimuli_distractor_diamondtriangles.svg	36	no	57	0	255	0	0			0	0			1				0	
6.6.1	mac	2023-07-07	10:04:54	10:09:00	242671	5f846dd4e962ce0bf61b95fb	4	1	main_z	7	main_z	53	stimuli_distractor_trianglediamonds.svg	stimuli_distractor_trianglediamonds.svg	34	no	0	1	2000	0	0			0	0			1				0	
6.6.1	mac	2023-07-07	10:04:54	10:09:00	242671	5f846dd4e962ce0bf61b95fb	4	1	main_z	7	advance_on_keypress_ZEE	54	stimuli_distractor_trianglediamonds.svg	stimuli_distractor_trianglediamonds.svg	34	no	57	0	437	0	0			0	0			1				0	
6.6.1	mac	2023-07-07	10:04:54	10:09:01	244364	5f846dd4e962ce0bf61b95fb	4	1	main_z	7	main_z	55	stimuli_distractor_diamondtriangles.svg	stimuli_distractor_trianglediamonds.svg	37	no	44	0	624	0	0			0	0			1				0	
6.6.1	mac	2023-07-07	10:04:54	10:09:01	244364	5f846dd4e962ce0bf61b95fb	4	1	main_z	7	advance_on_keypress_ZEE	56	stimuli_distractor_diamondtriangles.svg	stimuli_distractor_trianglediamonds.svg	37	no	57	0	446	0	0			0	0			1				0	
6.6.1	mac	2023-07-07	10:04:54	10:09:03	246169	5f846dd4e962ce0bf61b95fb	4	1	main_z	7	main_z	57	stimuli_distractor_trianglediamonds.svg	stimuli_target_trianglerectangles.svg	25	yes	44	1	729	0	0			0	0			1				0	
6.6.1	mac	2023-07-07	10:04:54	10:09:03	246169	5f846dd4e962ce0bf61b95fb	4	1	main_z	7	advance_on_keypress_ZEE	58	stimuli_distractor_trianglediamonds.svg	stimuli_target_trianglerectangles.svg	25	yes	57	0	312	0	0			0	0			1				0	
6.6.1	mac	2023-07-07	10:04:54	10:09:06	249123	5f846dd4e962ce0bf61b95fb	4	1	main_z	7	main_z	59	stimuli_target_diamondsquares.svg	stimuli_distractor_diamondtriangles.svg	24	yes	0	0	2000	0	0			0	0			1				0	
6.6.1	mac	2023-07-07	10:04:54	10:09:06	249123	5f846dd4e962ce0bf61b95fb	4	1	main_z	7	advance_on_keypress_ZEE	60	stimuli_target_diamondsquares.svg	stimuli_distractor_diamondtriangles.svg	24	yes	57	0	402	0	0			0	0			1				0	
6.6.1	mac	2023-07-07	10:04:54	10:09:07	250423	5f846dd4e962ce0bf61b95fb	4	1	main_z	7	main_z	61	stimuli_target_rectanglediamonds.svg	stimuli_distractor_diamondtriangles.svg	6	yes	44	1	267	0	0			0	0			1				0	
6.6.1	mac	2023-07-07	10:04:54	10:09:07	250423	5f846dd4e962ce0bf61b95fb	4	1	main_z	7	advance_on_keypress_ZEE	62	stimuli_target_rectanglediamonds.svg	stimuli_distractor_diamondtriangles.svg	6	yes	57	0	348	0	0			0	0			1				0	
6.6.1	mac	2023-07-07	10:04:54	10:09:09	251888	5f846dd4e962ce0bf61b95fb	4	1	main_z	7	main_z	63	stimuli_target_rectangletriangles.svg	stimuli_distractor_diamondtriangles.svg	5	yes	44	1	482	0	0			0	0			1				0	
6.6.1	mac	2023-07-07	10:04:54	10:09:09	251888	5f846dd4e962ce0bf61b95fb	4	1	main_z	7	advance_on_keypress_ZEE	64	stimuli_target_rectangletriangles.svg	stimuli_distractor_diamondtriangles.svg	5	yes	57	0	325	0	0			0	0			1				0	
6.6.1	mac	2023-07-07	10:04:54	10:09:10	253426	5f846dd4e962ce0bf61b95fb	4	1	main_z	7	main_z	65	stimuli_target_trianglerectangles.svg	stimuli_distractor_trianglediamonds.svg	17	yes	44	1	586	0	0			0	0			1				0	
6.6.1	mac	2023-07-07	10:04:54	10:09:10	253426	5f846dd4e962ce0bf61b95fb	4	1	main_z	7	advance_on_keypress_ZEE	66	stimuli_target_trianglerectangles.svg	stimuli_distractor_trianglediamonds.svg	17	yes	57	0	309	0	0			0	0			1				0	
6.6.1	mac	2023-07-07	10:04:54	10:09:12	254900	5f846dd4e962ce0bf61b95fb	4	1	main_z	7	main_z	67	stimuli_target_trianglerectangles.svg	stimuli_distractor_diamondtriangles.svg	21	yes	44	1	544	0	0			0	0			1				0	
6.6.1	mac	2023-07-07	10:04:54	10:09:12	254900	5f846dd4e962ce0bf61b95fb	4	1	main_z	7	advance_on_keypress_ZEE	68	stimuli_target_trianglerectangles.svg	stimuli_distractor_diamondtriangles.svg	21	yes	57	0	298	0	0			0	0			1				0	
6.6.1	mac	2023-07-07	10:04:54	10:09:15	257823	5f846dd4e962ce0bf61b95fb	4	1	main_z	7	main_z	69	stimuli_distractor_diamondtriangles.svg	stimuli_target_trianglerectangles.svg	29	yes	0	0	2000	0	0			0	0			1				0	
6.6.1	mac	2023-07-07	10:04:54	10:09:15	257823	5f846dd4e962ce0bf61b95fb	4	1	main_z	7	advance_on_keypress_ZEE	70	stimuli_distractor_diamondtriangles.svg	stimuli_target_trianglerectangles.svg	29	yes	57	0	0	0	0			0	0			1				0	
6.6.1	mac	2023-07-07	10:04:54	10:09:16	259004	5f846dd4e962ce0bf61b95fb	4	1	main_z	7	main_z	71	stimuli_distractor_trianglediamonds.svg	stimuli_distractor_diamondtriangles.svg	35	no	44	0	548	0	0			0	0			1				0	
6.6.1	mac	2023-07-07	10:04:54	10:09:16	259004	5f846dd4e962ce0bf61b95fb	4	1	main_z	7	advance_on_keypress_ZEE	72	stimuli_distractor_trianglediamonds.svg	stimuli_distractor_diamondtriangles.svg	35	no	57	0	401	0	0			0	0			1				0	
6.6.1	mac	2023-07-07	10:04:54	10:09:19	262039	5f846dd4e962ce0bf61b95fb	4	1	main_z	7	main_z	73	stimuli_distractor_trianglediamonds.svg	stimuli_distractor_trianglediamonds.svg	33	no	0	1	2000	0	0			0	0			1				0	
6.6.1	mac	2023-07-07	10:04:54	10:09:19	262039	5f846dd4e962ce0bf61b95fb	4	1	main_z	7	advance_on_keypress_ZEE	74	stimuli_distractor_trianglediamonds.svg	stimuli_distractor_trianglediamonds.svg	33	no	57	0	311	0	0			0	0			1				0	
6.6.1	mac	2023-07-07	10:04:54	10:09:20	263470	5f846dd4e962ce0bf61b95fb	4	1	main_z	7	main_z	75	stimuli_target_squarediamonds.svg	stimuli_distractor_diamondtriangles.svg	8	yes	44	1	480	0	0			0	0			1				0	
6.6.1	mac	2023-07-07	10:04:54	10:09:20	263470	5f846dd4e962ce0bf61b95fb	4	1	main_z	7	advance_on_keypress_ZEE	76	stimuli_target_squarediamonds.svg	stimuli_distractor_diamondtriangles.svg	8	yes	57	0	260	0	0			0	0			1				0	
6.6.1	mac	2023-07-07	10:04:54	10:09:22	264927	5f846dd4e962ce0bf61b95fb	4	1	main_z	7	main_z	77	stimuli_target_squaretriangles.svg	stimuli_distractor_trianglediamonds.svg	3	yes	44	1	571	0	0			0	0			1				0	
6.6.1	mac	2023-07-07	10:04:54	10:09:22	264927	5f846dd4e962ce0bf61b95fb	4	1	main_z	7	advance_on_keypress_ZEE	78	stimuli_target_squaretriangles.svg	stimuli_distractor_trianglediamonds.svg	3	yes	57	0	389	0	0			0	0			1				0	
6.6.1	mac	2023-07-07	10:04:54	10:09:25	267939	5f846dd4e962ce0bf61b95fb	4	1	main_z	7	main_z	79	stimuli_distractor_trianglediamonds.svg	stimuli_target_diamondsquares.svg	28	yes	0	0	2000	0	0			0	0			1				0	
6.6.1	mac	2023-07-07	10:04:54	10:09:25	267939	5f846dd4e962ce0bf61b95fb	4	1	main_z	7	advance_on_keypress_ZEE	80	stimuli_distractor_trianglediamonds.svg	stimuli_target_diamondsquares.svg	28	yes	57	0	17336	0	0			0	0			1				0	
6.6.1	mac	2023-07-07	10:04:54	10:09:43	286578	5f846dd4e962ce0bf61b95fb	4	1	main_z	7	main_z	81	stimuli_distractor_trianglediamonds.svg	stimuli_target_rectanglediamonds.svg	10	yes	44	1	672	0	0			0	0			1				0	
6.6.1	mac	2023-07-07	10:04:54	10:09:43	286578	5f846dd4e962ce0bf61b95fb	4	1	main_z	7	advance_on_keypress_ZEE	82	stimuli_distractor_trianglediamonds.svg	stimuli_target_rectanglediamonds.svg	10	yes	57	0	408	0	0			0	0			1				0	
6.6.1	mac	2023-07-07	10:04:54	10:09:45	288205	5f846dd4e962ce0bf61b95fb	4	1	main_z	7	main_z	83	stimuli_target_rectanglediamonds.svg	stimuli_distractor_diamondtriangles.svg	6	yes	44	1	582	0	0			0	0			1				0	
6.6.1	mac	2023-07-07	10:04:54	10:09:45	288205	5f846dd4e962ce0bf61b95fb	4	1	main_z	7	advance_on_keypress_ZEE	84	stimuli_target_rectanglediamonds.svg	stimuli_distractor_diamondtriangles.svg	6	yes	57	0	398	0	0			0	0			1				0	
6.6.1	mac	2023-07-07	10:04:54	10:09:46	289622	5f846dd4e962ce0bf61b95fb	4	1	main_z	7	main_z	85	stimuli_target_diamondrectangles.svg	stimuli_distractor_trianglediamonds.svg	19	yes	44	1	382	0	0			0	0			1				0	
6.6.1	mac	2023-07-07	10:04:54	10:09:46	289622	5f846dd4e962ce0bf61b95fb	4	1	main_z	7	advance_on_keypress_ZEE	86	stimuli_target_diamondrectangles.svg	stimuli_distractor_trianglediamonds.svg	19	yes	57	0	251	0	0			0	0			1				0	
6.6.1	mac	2023-07-07	10:04:54	10:09:48	290856	5f846dd4e962ce0bf61b95fb	4	1	main_z	7	main_z	87	stimuli_target_squaretriangles.svg	stimuli_distractor_diamondtriangles.svg	7	yes	44	1	349	0	0			0	0			1				0	
6.6.1	mac	2023-07-07	10:04:54	10:09:48	290856	5f846dd4e962ce0bf61b95fb	4	1	main_z	7	advance_on_keypress_ZEE	88	stimuli_target_squaretriangles.svg	stimuli_distractor_diamondtriangles.svg	7	yes	57	0	316	0	0			0	0			1				0	
6.6.1	mac	2023-07-07	10:04:54	10:09:49	292072	5f846dd4e962ce0bf61b95fb	4	1	main_z	7	main_z	89	stimuli_target_diamondsquares.svg	stimuli_distractor_diamondtriangles.svg	24	yes	44	1	266	0	0			0	0			1				0	
6.6.1	mac	2023-07-07	10:04:54	10:09:49	292072	5f846dd4e962ce0bf61b95fb	4	1	main_z	7	advance_on_keypress_ZEE	90	stimuli_target_diamondsquares.svg	stimuli_distractor_diamondtriangles.svg	24	yes	57	0	389	0	0			0	0			1				0	
6.6.1	mac	2023-07-07	10:04:54	10:09:50	293452	5f846dd4e962ce0bf61b95fb	4	1	main_z	7	main_z	91	stimuli_target_rectangletriangles.svg	stimuli_distractor_diamondtriangles.svg	5	yes	44	1	361	0	0			0	0			1				0	
6.6.1	mac	2023-07-07	10:04:54	10:09:50	293452	5f846dd4e962ce0bf61b95fb	4	1	main_z	7	advance_on_keypress_ZEE	92	stimuli_target_rectangletriangles.svg	stimuli_distractor_diamondtriangles.svg	5	yes	57	0	226	0	0			0	0			1				0	
6.6.1	mac	2023-07-07	10:04:54	10:09:52	295132	5f846dd4e962ce0bf61b95fb	4	1	main_z	7	main_z	93	stimuli_distractor_diamondtriangles.svg	stimuli_target_diamondsquares.svg	32	yes	44	1	825	0	0			0	0			1				0	
6.6.1	mac	2023-07-07	10:04:54	10:09:52	295132	5f846dd4e962ce0bf61b95fb	4	1	main_z	7	advance_on_keypress_ZEE	94	stimuli_distractor_diamondtriangles.svg	stimuli_target_diamondsquares.svg	32	yes	57	0	213	0	0			0	0			1				0	
6.6.1	mac	2023-07-07	10:04:54	10:09:53	296533	5f846dd4e962ce0bf61b95fb	4	1	main_z	7	main_z	95	stimuli_target_trianglerectangles.svg	stimuli_distractor_diamondtriangles.svg	21	yes	44	1	559	0	0			0	0			1				0	
6.6.1	mac	2023-07-07	10:04:54	10:09:53	296533	5f846dd4e962ce0bf61b95fb	4	1	main_z	7	advance_on_keypress_ZEE	96	stimuli_target_trianglerectangles.svg	stimuli_distractor_diamondtriangles.svg	21	yes	57	0	262	0	0			0	0			1				0	
6.6.1	mac	2023-07-07	10:04:54	10:09:55	297936	5f846dd4e962ce0bf61b95fb	4	1	main_z	7	main_z	97	stimuli_target_diamondrectangles.svg	stimuli_distractor_diamondtriangles.svg	23	yes	44	1	512	0	0			0	0			1				0	
6.6.1	mac	2023-07-07	10:04:54	10:09:55	297936	5f846dd4e962ce0bf61b95fb	4	1	main_z	7	advance_on_keypress_ZEE	98	stimuli_target_diamondrectangles.svg	stimuli_distractor_diamondtriangles.svg	23	yes	57	0	267	0	0			0	0			1				0	
6.6.1	mac	2023-07-07	10:04:54	10:09:58	300838	5f846dd4e962ce0bf61b95fb	4	1	main_z	7	main_z	99	stimuli_distractor_trianglediamonds.svg	stimuli_target_trianglerectangles.svg	25	yes	0	0	2000	0	0			0	0			1				0	
6.6.1	mac	2023-07-07	10:04:54	10:09:58	300838	5f846dd4e962ce0bf61b95fb	4	1	main_z	7	advance_on_keypress_ZEE	100	stimuli_distractor_trianglediamonds.svg	stimuli_target_trianglerectangles.svg	25	yes	57	0	13084	0	0			0	0			1				0	
6.6.1	mac	2023-07-07	10:04:54	10:10:12	314962	5f846dd4e962ce0bf61b95fb	4	1	main_z	7	main_z	101	stimuli_distractor_diamondtriangles.svg	stimuli_target_squaretriangles.svg	15	yes	44	1	406	0	0			0	0			1				0	
6.6.1	mac	2023-07-07	10:04:54	10:10:12	314962	5f846dd4e962ce0bf61b95fb	4	1	main_z	7	advance_on_keypress_ZEE	102	stimuli_distractor_diamondtriangles.svg	stimuli_target_squaretriangles.svg	15	yes	57	0	284	0	0			0	0			1				0	
6.6.1	mac	2023-07-07	10:04:54	10:10:13	316336	5f846dd4e962ce0bf61b95fb	4	1	main_z	7	main_z	103	stimuli_target_squarediamonds.svg	stimuli_distractor_diamondtriangles.svg	8	yes	44	1	463	0	0			0	0			1				0	
6.6.1	mac	2023-07-07	10:04:54	10:10:13	316336	5f846dd4e962ce0bf61b95fb	4	1	main_z	7	advance_on_keypress_ZEE	104	stimuli_target_squarediamonds.svg	stimuli_distractor_diamondtriangles.svg	8	yes	57	0	237	0	0			0	0			1				0	
6.6.1	mac	2023-07-07	10:04:54	10:10:14	317645	5f846dd4e962ce0bf61b95fb	4	1	main_z	7	main_z	105	stimuli_target_diamondsquares.svg	stimuli_distractor_trianglediamonds.svg	20	yes	44	1	439	0	0			0	0			1				0	
6.6.1	mac	2023-07-07	10:04:54	10:10:14	317645	5f846dd4e962ce0bf61b95fb	4	1	main_z	7	advance_on_keypress_ZEE	106	stimuli_target_diamondsquares.svg	stimuli_distractor_trianglediamonds.svg	20	yes	57	0	237	0	0			0	0			1				0	
6.6.1	mac	2023-07-07	10:04:54	10:10:17	320505	5f846dd4e962ce0bf61b95fb	4	1	main_z	7	main_z	107	stimuli_distractor_diamondtriangles.svg	stimuli_target_trianglerectangles.svg	29	yes	0	0	2000	0	0			0	0			1				0	
6.6.1	mac	2023-07-07	10:04:54	10:10:17	320505	5f846dd4e962ce0bf61b95fb	4	1	main_z	7	advance_on_keypress_ZEE	108	stimuli_distractor_diamondtriangles.svg	stimuli_target_trianglerectangles.svg	29	yes	57	0	20171	0	0			0	0			1				0	
6.6.1	mac	2023-07-07	10:04:54	10:10:39	341738	5f846dd4e962ce0bf61b95fb	4	1	main_z	7	main_z	109	stimuli_distractor_diamondtriangles.svg	stimuli_distractor_diamondtriangles.svg	39	no	44	0	432	0	0			0	0			1				0	
6.6.1	mac	2023-07-07	10:04:54	10:10:39	341738	5f846dd4e962ce0bf61b95fb	4	1	main_z	7	advance_on_keypress_ZEE	110	stimuli_distractor_diamondtriangles.svg	stimuli_distractor_diamondtriangles.svg	39	no	57	0	602	0	0			0	0			1				0	
6.6.1	mac	2023-07-07	10:04:54	10:10:40	343217	5f846dd4e962ce0bf61b95fb	4	1	main_z	7	main_z	111	stimuli_distractor_diamondtriangles.svg	stimuli_target_diamondrectangles.svg	31	yes	44	1	244	0	0			0	0			1				0	
6.6.1	mac	2023-07-07	10:04:54	10:10:40	343217	5f846dd4e962ce0bf61b95fb	4	1	main_z	7	advance_on_keypress_ZEE	112	stimuli_distractor_diamondtriangles.svg	stimuli_target_diamondrectangles.svg	31	yes	57	0	312	0	0			0	0			1				0	
6.6.1	mac	2023-07-07	10:04:54	10:10:41	344386	5f846dd4e962ce0bf61b95fb	4	1	main_z	7	main_z	113	stimuli_distractor_trianglediamonds.svg	stimuli_distractor_trianglediamonds.svg	34	no	44	0	229	0	0			0	0			1				0	
6.6.1	mac	2023-07-07	10:04:54	10:10:41	344386	5f846dd4e962ce0bf61b95fb	4	1	main_z	7	advance_on_keypress_ZEE	114	stimuli_distractor_trianglediamonds.svg	stimuli_distractor_trianglediamonds.svg	34	no	57	0	276	0	0			0	0			1				0	
6.6.1	mac	2023-07-07	10:04:54	10:10:42	345478	5f846dd4e962ce0bf61b95fb	4	1	main_z	7	main_z	115	stimuli_distractor_diamondtriangles.svg	stimuli_target_squarediamonds.svg	16	yes	44	1	188	0	0			0	0			1				0	
6.6.1	mac	2023-07-07	10:04:54	10:10:42	345478	5f846dd4e962ce0bf61b95fb	4	1	main_z	7	advance_on_keypress_ZEE	116	stimuli_distractor_diamondtriangles.svg	stimuli_target_squarediamonds.svg	16	yes	57	0	257	0	0			0	0			1				0	
6.6.1	mac	2023-07-07	10:04:54	10:10:43	346569	5f846dd4e962ce0bf61b95fb	4	1	main_z	7	main_z	117	stimuli_distractor_trianglediamonds.svg	stimuli_target_trianglesquares.svg	26	yes	44	1	213	0	0			0	0			1				0	
6.6.1	mac	2023-07-07	10:04:54	10:10:43	346569	5f846dd4e962ce0bf61b95fb	4	1	main_z	7	advance_on_keypress_ZEE	118	stimuli_distractor_trianglediamonds.svg	stimuli_target_trianglesquares.svg	26	yes	57	0	265	0	0			0	0			1				0	
6.6.1	mac	2023-07-07	10:04:54	10:10:45	347692	5f846dd4e962ce0bf61b95fb	4	1	main_z	7	main_z	119	stimuli_target_squarediamonds.svg	stimuli_distractor_trianglediamonds.svg	4	yes	44	1	219	0	0			0	0			1				0	
6.6.1	mac	2023-07-07	10:04:54	10:10:45	347692	5f846dd4e962ce0bf61b95fb	4	1	main_z	7	advance_on_keypress_ZEE	120	stimuli_target_squarediamonds.svg	stimuli_distractor_trianglediamonds.svg	4	yes	57	0	280	0	0			0	0			1				0	
6.6.1	mac	2023-07-07	10:04:54	10:10:46	348833	5f846dd4e962ce0bf61b95fb	4	1	main_z	7	main_z	121	stimuli_distractor_diamondtriangles.svg	stimuli_distractor_trianglediamonds.svg	37	no	44	0	227	0	0			0	0			1				0	
6.6.1	mac	2023-07-07	10:04:54	10:10:46	348833	5f846dd4e962ce0bf61b95fb	4	1	main_z	7	advance_on_keypress_ZEE	122	stimuli_distractor_diamondtriangles.svg	stimuli_distractor_trianglediamonds.svg	37	no	57	0	289	0	0			0	0			1				0	
6.6.1	mac	2023-07-07	10:04:54	10:10:49	351740	5f846dd4e962ce0bf61b95fb	4	1	main_z	7	main_z	123	stimuli_distractor_diamondtriangles.svg	stimuli_target_rectanglediamonds.svg	14	yes	0	0	2000	0	0			0	0			1				0	
6.6.1	mac	2023-07-07	10:04:54	10:10:49	351740	5f846dd4e962ce0bf61b95fb	4	1	main_z	7	advance_on_keypress_ZEE	124	stimuli_distractor_diamondtriangles.svg	stimuli_target_rectanglediamonds.svg	14	yes	57	0	17117	0	0			0	0			1				0	
6.6.1	mac	2023-07-07	10:04:54	10:11:07	369780	5f846dd4e962ce0bf61b95fb	4	1	main_z	7	main_z	125	stimuli_distractor_trianglediamonds.svg	stimuli_target_diamondsquares.svg	28	yes	44	1	290	0	0			0	0			1				0	
6.6.1	mac	2023-07-07	10:04:54	10:11:07	369780	5f846dd4e962ce0bf61b95fb	4	1	main_z	7	advance_on_keypress_ZEE	126	stimuli_distractor_trianglediamonds.svg	stimuli_target_diamondsquares.svg	28	yes	57	0	596	0	0			0	0			1				0	
6.6.1	mac	2023-07-07	10:04:54	10:11:08	371366	5f846dd4e962ce0bf61b95fb	4	1	main_z	7	main_z	127	stimuli_distractor_trianglediamonds.svg	stimuli_target_squaretriangles.svg	11	yes	44	1	360	0	0			0	0			1				0	
6.6.1	mac	2023-07-07	10:04:54	10:11:08	371366	5f846dd4e962ce0bf61b95fb	4	1	main_z	7	advance_on_keypress_ZEE	128	stimuli_distractor_trianglediamonds.svg	stimuli_target_squaretriangles.svg	11	yes	57	0	230	0	0			0	0			1				0	
6.6.1	mac	2023-07-07	10:04:54	10:11:09	372618	5f846dd4e962ce0bf61b95fb	4	1	main_z	7	main_z	129	stimuli_target_rectangletriangles.svg	stimuli_distractor_trianglediamonds.svg	1	yes	44	1	393	0	0			0	0			1				0	
6.6.1	mac	2023-07-07	10:04:54	10:11:09	372618	5f846dd4e962ce0bf61b95fb	4	1	main_z	7	advance_on_keypress_ZEE	130	stimuli_target_rectangletriangles.svg	stimuli_distractor_trianglediamonds.svg	1	yes	57	0	161	0	0			0	0			1				0	
6.6.1	mac	2023-07-07	10:04:54	10:11:11	373969	5f846dd4e962ce0bf61b95fb	4	1	main_z	7	main_z	131	stimuli_distractor_diamondtriangles.svg	stimuli_target_rectangletriangles.svg	13	yes	44	1	563	0	0			0	0			1				0	
6.6.1	mac	2023-07-07	10:04:54	10:11:11	373969	5f846dd4e962ce0bf61b95fb	4	1	main_z	7	advance_on_keypress_ZEE	132	stimuli_distractor_diamondtriangles.svg	stimuli_target_rectangletriangles.svg	13	yes	57	0	244	0	0			0	0			1				0	
6.6.1	mac	2023-07-07	10:04:54	10:11:12	375436	5f846dd4e962ce0bf61b95fb	4	1	main_z	7	main_z	133	stimuli_distractor_trianglediamonds.svg	stimuli_distractor_diamondtriangles.svg	36	no	44	0	596	0	0			0	0			1				0	
6.6.1	mac	2023-07-07	10:04:54	10:11:12	375436	5f846dd4e962ce0bf61b95fb	4	1	main_z	7	advance_on_keypress_ZEE	134	stimuli_distractor_trianglediamonds.svg	stimuli_distractor_diamondtriangles.svg	36	no	57	0	379	0	0			0	0			1				0	
6.6.1	mac	2023-07-07	10:04:54	10:11:15	378456	5f846dd4e962ce0bf61b95fb	4	1	main_z	7	main_z	135	stimuli_distractor_trianglediamonds.svg	stimuli_target_diamondrectangles.svg	27	yes	0	0	2000	0	0			0	0			1				0	
6.6.1	mac	2023-07-07	10:04:54	10:11:15	378456	5f846dd4e962ce0bf61b95fb	4	1	main_z	7	advance_on_keypress_ZEE	136	stimuli_distractor_trianglediamonds.svg	stimuli_target_diamondrectangles.svg	27	yes	57	0	788	0	0			0	0			1				0	
6.6.1	mac	2023-07-07	10:04:54	10:11:17	380157	5f846dd4e962ce0bf61b95fb	4	1	main_z	7	main_z	137	stimuli_distractor_diamondtriangles.svg	stimuli_distractor_trianglediamonds.svg	38	no	44	0	283	0	0			0	0			1				0	
6.6.1	mac	2023-07-07	10:04:54	10:11:17	380157	5f846dd4e962ce0bf61b95fb	4	1	main_z	7	advance_on_keypress_ZEE	138	stimuli_distractor_diamondtriangles.svg	stimuli_distractor_trianglediamonds.svg	38	no	57	0	256	0	0			0	0			1				0	
6.6.1	mac	2023-07-07	10:04:54	10:11:20	383039	5f846dd4e962ce0bf61b95fb	4	1	main_z	7	main_z	139	stimuli_distractor_diamondtriangles.svg	stimuli_distractor_diamondtriangles.svg	40	no	0	1	2000	0	0			0	0			1				0	
6.6.1	mac	2023-07-07	10:04:54	10:11:20	383039	5f846dd4e962ce0bf61b95fb	4	1	main_z	7	advance_on_keypress_ZEE	140	stimuli_distractor_diamondtriangles.svg	stimuli_distractor_diamondtriangles.svg	40	no	57	0	1065	0	0			0	0			1				0	
6.6.1	mac	2023-07-07	10:04:54	10:11:22	385142	5f846dd4e962ce0bf61b95fb	4	1	main_z	7	main_z	141	stimuli_distractor_trianglediamonds.svg	stimuli_target_rectangletriangles.svg	9	yes	44	1	402	0	0			0	0			1				0	
6.6.1	mac	2023-07-07	10:04:54	10:11:22	385142	5f846dd4e962ce0bf61b95fb	4	1	main_z	7	advance_on_keypress_ZEE	142	stimuli_distractor_trianglediamonds.svg	stimuli_target_rectangletriangles.svg	9	yes	57	0	234	0	0			0	0			1				0	
6.6.1	mac	2023-07-07	10:04:54	10:11:23	386412	5f846dd4e962ce0bf61b95fb	4	1	main_z	7	main_z	143	stimuli_distractor_trianglediamonds.svg	stimuli_target_squarediamonds.svg	12	yes	44	1	405	0	0			0	0			1				0	
6.6.1	mac	2023-07-07	10:04:54	10:11:23	386412	5f846dd4e962ce0bf61b95fb	4	1	main_z	7	advance_on_keypress_ZEE	144	stimuli_distractor_trianglediamonds.svg	stimuli_target_squarediamonds.svg	12	yes	57	0	189	0	0			0	0			1				0	
6.6.1	mac	2023-07-07	10:04:54	10:11:25	388469	5f846dd4e962ce0bf61b95fb	4	1	main_z	7	main_z	145	stimuli_target_trianglerectangles.svg	stimuli_distractor_trianglediamonds.svg	17	yes	44	1	1245	0	0			0	0			1				0	
6.6.1	mac	2023-07-07	10:04:54	10:11:25	388469	5f846dd4e962ce0bf61b95fb	4	1	main_z	7	advance_on_keypress_ZEE	146	stimuli_target_trianglerectangles.svg	stimuli_distractor_trianglediamonds.svg	17	yes	57	0	135	0	0			0	0			1				0	
6.6.1	mac	2023-07-07	10:04:54	10:11:27	389771	5f846dd4e962ce0bf61b95fb	4	1	main_z	7	main_z	147	stimuli_target_rectanglediamonds.svg	stimuli_distractor_trianglediamonds.svg	2	yes	44	1	531	0	0			0	0			1				0	
6.6.1	mac	2023-07-07	10:04:54	10:11:27	389771	5f846dd4e962ce0bf61b95fb	4	1	main_z	7	advance_on_keypress_ZEE	148	stimuli_target_rectanglediamonds.svg	stimuli_distractor_trianglediamonds.svg	2	yes	57	0	175	0	0			0	0			1				0	
6.6.1	mac	2023-07-07	10:04:54	10:11:29	392573	5f846dd4e962ce0bf61b95fb	4	1	main_z	7	main_z	149	stimuli_distractor_diamondtriangles.svg	stimuli_target_trianglesquares.svg	30	yes	0	0	2000	0	0			0	0			1				0	
6.6.1	mac	2023-07-07	10:04:54	10:11:29	392573	5f846dd4e962ce0bf61b95fb	4	1	main_z	7	advance_on_keypress_ZEE	150	stimuli_distractor_diamondtriangles.svg	stimuli_target_trianglesquares.svg	30	yes	57	0	267	0	0			0	0			1				0	
6.6.1	mac	2023-07-07	10:04:54	10:11:31	393968	5f846dd4e962ce0bf61b95fb	4	1	main_z	7	main_z	151	stimuli_target_trianglesquares.svg	stimuli_distractor_trianglediamonds.svg	18	yes	44	1	494	0	0			0	0			1				0	
6.6.1	mac	2023-07-07	10:04:54	10:11:31	393968	5f846dd4e962ce0bf61b95fb	4	1	main_z	7	advance_on_keypress_ZEE	152	stimuli_target_trianglesquares.svg	stimuli_distractor_trianglediamonds.svg	18	yes	57	0	282	0	0			0	0			1				0	
6.6.1	mac	2023-07-07	10:04:54	10:11:34	396871	5f846dd4e962ce0bf61b95fb	4	1	main_z	7	main_z	153	stimuli_distractor_trianglediamonds.svg	stimuli_distractor_diamondtriangles.svg	35	no	0	1	2000	0	0			0	0			1				0	
6.6.1	mac	2023-07-07	10:04:54	10:11:34	396871	5f846dd4e962ce0bf61b95fb	4	1	main_z	7	advance_on_keypress_ZEE	154	stimuli_distractor_trianglediamonds.svg	stimuli_distractor_diamondtriangles.svg	35	no	57	0	433	0	0			0	0			1				0	
6.6.1	mac	2023-07-07	10:04:54	10:11:35	398379	5f846dd4e962ce0bf61b95fb	4	1	main_z	7	main_z	155	stimuli_target_trianglesquares.svg	stimuli_distractor_diamondtriangles.svg	22	yes	44	1	438	0	0			0	0			1				0	
6.6.1	mac	2023-07-07	10:04:54	10:11:35	398379	5f846dd4e962ce0bf61b95fb	4	1	main_z	7	advance_on_keypress_ZEE	156	stimuli_target_trianglesquares.svg	stimuli_distractor_diamondtriangles.svg	22	yes	57	0	254	0	0			0	0			1				0	
6.6.1	mac	2023-07-07	10:04:54	10:11:38	401256	5f846dd4e962ce0bf61b95fb	4	1	main_z	7	main_z	157	stimuli_distractor_trianglediamonds.svg	stimuli_distractor_trianglediamonds.svg	33	no	0	1	2000	0	0			0	0			1				0	
6.6.1	mac	2023-07-07	10:04:54	10:11:38	401256	5f846dd4e962ce0bf61b95fb	4	1	main_z	7	advance_on_keypress_ZEE	158	stimuli_distractor_trianglediamonds.svg	stimuli_distractor_trianglediamonds.svg	33	no	57	0	396	0	0			0	0			1				0	
6.6.1	mac	2023-07-07	10:04:54	10:11:40	402667	5f846dd4e962ce0bf61b95fb	4	1	main_z	7	main_z	159	stimuli_target_squaretriangles.svg	stimuli_distractor_trianglediamonds.svg	3	yes	44	1	377	0	0			0	0			1				0	
6.6.1	mac	2023-07-07	10:04:54	10:11:40	402667	5f846dd4e962ce0bf61b95fb	4	1	main_z	7	advance_on_keypress_ZEE	160	stimuli_target_squaretriangles.svg	stimuli_distractor_trianglediamonds.svg	3	yes	57	0	232	0	0			0	0			1				0	
6.6.1	mac	2023-07-07	10:04:54	10:11:56	418663	5f846dd4e962ce0bf61b95fb	4	1	practice_slash	9	practice_slash	1	stimuli_target_rectanglediamonds.svg	stimuli_distractor_diamondtriangles.svg	1	yes	53	1	455	0	0			0	0			1				0	
6.6.1	mac	2023-07-07	10:04:54	10:11:56	418663	5f846dd4e962ce0bf61b95fb	4	1	practice_slash	9	advance_on_keypress_SLASH	2	stimuli_target_rectanglediamonds.svg	stimuli_distractor_diamondtriangles.svg	1	yes	57	0	347	0	0			0	0			1				0	
6.6.1	mac	2023-07-07	10:04:54	10:11:58	421029	5f846dd4e962ce0bf61b95fb	4	1	practice_slash	9	practice_slash	3	stimuli_distractor_diamondtriangles.svg	stimuli_distractor_diamondtriangles.svg	13	no	53	0	389	0	0			0	0			1				0	
6.6.1	mac	2023-07-07	10:04:54	10:11:58	421029	5f846dd4e962ce0bf61b95fb	4	1	practice_slash	9	advance_on_keypress_SLASH	4	stimuli_distractor_diamondtriangles.svg	stimuli_distractor_diamondtriangles.svg	13	no	57	0	281	0	0			0	0			1				0	
6.6.1	mac	2023-07-07	10:04:54	10:12:01	423672	5f846dd4e962ce0bf61b95fb	4	1	practice_slash	9	practice_slash	5	stimuli_distractor_trianglediamonds.svg	stimuli_distractor_diamondtriangles.svg	16	no	53	0	732	0	0			0	0			1				0	
6.6.1	mac	2023-07-07	10:04:54	10:12:01	423672	5f846dd4e962ce0bf61b95fb	4	1	practice_slash	9	advance_on_keypress_SLASH	6	stimuli_distractor_trianglediamonds.svg	stimuli_distractor_diamondtriangles.svg	16	no	57	0	82	0	0			0	0			1				0	
6.6.1	mac	2023-07-07	10:04:54	10:12:03	425834	5f846dd4e962ce0bf61b95fb	4	1	practice_slash	9	practice_slash	7	stimuli_distractor_trianglediamonds.svg	stimuli_target_rectanglediamonds.svg	10	yes	53	1	443	0	0			0	0			1				0	
6.6.1	mac	2023-07-07	10:04:54	10:12:03	425834	5f846dd4e962ce0bf61b95fb	4	1	practice_slash	9	advance_on_keypress_SLASH	8	stimuli_distractor_trianglediamonds.svg	stimuli_target_rectanglediamonds.svg	10	yes	57	0	292	0	0			0	0			1				0	
6.6.1	mac	2023-07-07	10:04:54	10:12:07	429756	5f846dd4e962ce0bf61b95fb	4	1	practice_slash	9	practice_slash	9	stimuli_distractor_diamondtriangles.svg	stimuli_distractor_trianglediamonds.svg	14	no	0	1	2000	0	0			0	0			1				0	
6.6.1	mac	2023-07-07	10:04:54	10:12:07	429756	5f846dd4e962ce0bf61b95fb	4	1	practice_slash	9	advance_on_keypress_SLASH	10	stimuli_distractor_diamondtriangles.svg	stimuli_distractor_trianglediamonds.svg	14	no	57	0	236	0	0			0	0			1				0	
6.6.1	mac	2023-07-07	10:04:54	10:12:09	432057	5f846dd4e962ce0bf61b95fb	4	1	practice_slash	9	practice_slash	11	stimuli_target_squarediamonds.svg	stimuli_distractor_diamondtriangles.svg	2	yes	53	1	433	0	0			0	0			1				0	
6.6.1	mac	2023-07-07	10:04:54	10:12:09	432057	5f846dd4e962ce0bf61b95fb	4	1	practice_slash	9	advance_on_keypress_SLASH	12	stimuli_target_squarediamonds.svg	stimuli_distractor_diamondtriangles.svg	2	yes	57	0	351	0	0			0	0			1				0	
6.6.1	mac	2023-07-07	10:04:54	10:12:11	434470	5f846dd4e962ce0bf61b95fb	4	1	practice_slash	9	practice_slash	13	stimuli_distractor_trianglediamonds.svg	stimuli_distractor_trianglediamonds.svg	15	no	53	0	429	0	0			0	0			1				0	
6.6.1	mac	2023-07-07	10:04:54	10:12:11	434470	5f846dd4e962ce0bf61b95fb	4	1	practice_slash	9	advance_on_keypress_SLASH	14	stimuli_distractor_trianglediamonds.svg	stimuli_distractor_trianglediamonds.svg	15	no	57	0	354	0	0			0	0			1				0	
6.6.1	mac	2023-07-07	10:04:54	10:12:14	436921	5f846dd4e962ce0bf61b95fb	4	1	practice_slash	9	practice_slash	15	stimuli_distractor_trianglediamonds.svg	stimuli_target_diamondrectangles.svg	12	yes	53	1	463	0	0			0	0			1				0	
6.6.1	mac	2023-07-07	10:04:54	10:12:14	436921	5f846dd4e962ce0bf61b95fb	4	1	practice_slash	9	advance_on_keypress_SLASH	16	stimuli_distractor_trianglediamonds.svg	stimuli_target_diamondrectangles.svg	12	yes	57	0	315	0	0			0	0			1				0	
6.6.1	mac	2023-07-07	10:04:54	10:12:16	439216	5f846dd4e962ce0bf61b95fb	4	1	practice_slash	9	practice_slash	17	stimuli_target_rectanglediamonds.svg	stimuli_distractor_trianglediamonds.svg	4	yes	53	1	342	0	0			0	0			1				0	
6.6.1	mac	2023-07-07	10:04:54	10:12:16	439216	5f846dd4e962ce0bf61b95fb	4	1	practice_slash	9	advance_on_keypress_SLASH	18	stimuli_target_rectanglediamonds.svg	stimuli_distractor_trianglediamonds.svg	4	yes	57	0	255	0	0			0	0			1				0	
6.6.1	mac	2023-07-07	10:04:54	10:12:18	441505	5f846dd4e962ce0bf61b95fb	4	1	practice_slash	9	practice_slash	19	stimuli_target_diamondsquares.svg	stimuli_distractor_diamondtriangles.svg	3	yes	53	1	415	0	0			0	0			1				0	
6.6.1	mac	2023-07-07	10:04:54	10:12:18	441505	5f846dd4e962ce0bf61b95fb	4	1	practice_slash	9	advance_on_keypress_SLASH	20	stimuli_target_diamondsquares.svg	stimuli_distractor_diamondtriangles.svg	3	yes	57	0	477	0	0			0	0			1				0	
6.6.1	mac	2023-07-07	10:04:54	10:12:21	444040	5f846dd4e962ce0bf61b95fb	4	1	practice_slash	9	practice_slash	21	stimuli_target_squarediamonds.svg	stimuli_distractor_trianglediamonds.svg	5	yes	53	1	417	0	0			0	0			1				0	
6.6.1	mac	2023-07-07	10:04:54	10:12:21	444040	5f846dd4e962ce0bf61b95fb	4	1	practice_slash	9	advance_on_keypress_SLASH	22	stimuli_target_squarediamonds.svg	stimuli_distractor_trianglediamonds.svg	5	yes	57	0	379	0	0			0	0			1				0	
6.6.1	mac	2023-07-07	10:04:54	10:12:23	446421	5f846dd4e962ce0bf61b95fb	4	1	practice_slash	9	practice_slash	23	stimuli_distractor_trianglediamonds.svg	stimuli_target_squarediamonds.svg	11	yes	53	1	364	0	0			0	0			1				0	
6.6.1	mac	2023-07-07	10:04:54	10:12:23	446421	5f846dd4e962ce0bf61b95fb	4	1	practice_slash	9	advance_on_keypress_SLASH	24	stimuli_distractor_trianglediamonds.svg	stimuli_target_squarediamonds.svg	11	yes	57	0	244	0	0			0	0			1				0	
6.6.1	mac	2023-07-07	10:04:54	10:12:27	450307	5f846dd4e962ce0bf61b95fb	4	1	practice_slash	9	practice_slash	25	stimuli_distractor_diamondtriangles.svg	stimuli_target_diamondrectangles.svg	8	yes	0	0	2000	0	0			0	0			1				0	
6.6.1	mac	2023-07-07	10:04:54	10:12:27	450307	5f846dd4e962ce0bf61b95fb	4	1	practice_slash	9	advance_on_keypress_SLASH	26	stimuli_distractor_diamondtriangles.svg	stimuli_target_diamondrectangles.svg	8	yes	57	0	59	0	0			0	0			1				0	
6.6.1	mac	2023-07-07	10:04:54	10:12:29	452413	5f846dd4e962ce0bf61b95fb	4	1	practice_slash	9	practice_slash	27	stimuli_distractor_diamondtriangles.svg	stimuli_target_trianglerectangles.svg	9	yes	53	1	423	0	0			0	0			1				0	
6.6.1	mac	2023-07-07	10:04:54	10:12:29	452413	5f846dd4e962ce0bf61b95fb	4	1	practice_slash	9	advance_on_keypress_SLASH	28	stimuli_distractor_diamondtriangles.svg	stimuli_target_trianglerectangles.svg	9	yes	57	0	109	0	0			0	0			1				0	
6.6.1	mac	2023-07-07	10:04:54	10:12:31	454391	5f846dd4e962ce0bf61b95fb	4	1	practice_slash	9	practice_slash	29	stimuli_target_diamondsquares.svg	stimuli_distractor_trianglediamonds.svg	6	yes	53	1	251	0	0			0	0			1				0	
6.6.1	mac	2023-07-07	10:04:54	10:12:31	454391	5f846dd4e962ce0bf61b95fb	4	1	practice_slash	9	advance_on_keypress_SLASH	30	stimuli_target_diamondsquares.svg	stimuli_distractor_trianglediamonds.svg	6	yes	57	0	214	0	0			0	0			1				0	
6.6.1	mac	2023-07-07	10:04:54	10:12:33	456433	5f846dd4e962ce0bf61b95fb	4	1	practice_slash	9	practice_slash	31	stimuli_distractor_diamondtriangles.svg	stimuli_target_rectangletriangles.svg	7	yes	53	1	192	0	0			0	0			1				0	
6.6.1	mac	2023-07-07	10:04:54	10:12:33	456433	5f846dd4e962ce0bf61b95fb	4	1	practice_slash	9	advance_on_keypress_SLASH	32	stimuli_distractor_diamondtriangles.svg	stimuli_target_rectangletriangles.svg	7	yes	57	0	164	0	0			0	0			1				0	
6.6.1	mac	2023-07-07	10:04:54	10:12:36	459149	5f846dd4e962ce0bf61b95fb	4	1	main_slash	11	main_slash	1	stimuli_distractor_diamondtriangles.svg	stimuli_target_diamondrectangles.svg	31	yes	53	1	276	0	0			0	0			1				0	
6.6.1	mac	2023-07-07	10:04:54	10:12:36	459149	5f846dd4e962ce0bf61b95fb	4	1	main_slash	11	advance_on_keypress_SLASH	2	stimuli_distractor_diamondtriangles.svg	stimuli_target_diamondrectangles.svg	31	yes	57	0	281	0	0			0	0			1				0	
6.6.1	mac	2023-07-07	10:04:54	10:12:37	460285	5f846dd4e962ce0bf61b95fb	4	1	main_slash	11	main_slash	3	stimuli_distractor_trianglediamonds.svg	stimuli_distractor_diamondtriangles.svg	36	no	53	0	229	0	0			0	0			1				0	
6.6.1	mac	2023-07-07	10:04:54	10:12:37	460285	5f846dd4e962ce0bf61b95fb	4	1	main_slash	11	advance_on_keypress_SLASH	4	stimuli_distractor_trianglediamonds.svg	stimuli_distractor_diamondtriangles.svg	36	no	57	0	328	0	0			0	0			1				0	
6.6.1	mac	2023-07-07	10:04:54	10:12:38	461436	5f846dd4e962ce0bf61b95fb	4	1	main_slash	11	main_slash	5	stimuli_distractor_trianglediamonds.svg	stimuli_target_rectanglediamonds.svg	10	yes	53	1	196	0	0			0	0			1				0	
6.6.1	mac	2023-07-07	10:04:54	10:12:38	461436	5f846dd4e962ce0bf61b95fb	4	1	main_slash	11	advance_on_keypress_SLASH	6	stimuli_distractor_trianglediamonds.svg	stimuli_target_rectanglediamonds.svg	10	yes	57	0	165	0	0			0	0			1				0	
6.6.1	mac	2023-07-07	10:04:54	10:12:39	462494	5f846dd4e962ce0bf61b95fb	4	1	main_slash	11	main_slash	7	stimuli_target_rectanglediamonds.svg	stimuli_distractor_diamondtriangles.svg	6	yes	53	1	253	0	0			0	0			1				0	
6.6.1	mac	2023-07-07	10:04:54	10:12:39	462494	5f846dd4e962ce0bf61b95fb	4	1	main_slash	11	advance_on_keypress_SLASH	8	stimuli_target_rectanglediamonds.svg	stimuli_distractor_diamondtriangles.svg	6	yes	57	0	136	0	0			0	0			1				0	
6.6.1	mac	2023-07-07	10:04:54	10:12:40	463483	5f846dd4e962ce0bf61b95fb	4	1	main_slash	11	main_slash	9	stimuli_target_squaretriangles.svg	stimuli_distractor_diamondtriangles.svg	7	yes	53	1	226	0	0			0	0			1				0	
6.6.1	mac	2023-07-07	10:04:54	10:12:40	463483	5f846dd4e962ce0bf61b95fb	4	1	main_slash	11	advance_on_keypress_SLASH	10	stimuli_target_squaretriangles.svg	stimuli_distractor_diamondtriangles.svg	7	yes	57	0	40	0	0			0	0			1				0	
6.6.1	mac	2023-07-07	10:04:54	10:12:41	464358	5f846dd4e962ce0bf61b95fb	4	1	main_slash	11	main_slash	11	stimuli_target_diamondsquares.svg	stimuli_distractor_diamondtriangles.svg	24	yes	53	1	217	0	0			0	0			1				0	
6.6.1	mac	2023-07-07	10:04:54	10:12:41	464358	5f846dd4e962ce0bf61b95fb	4	1	main_slash	11	advance_on_keypress_SLASH	12	stimuli_target_diamondsquares.svg	stimuli_distractor_diamondtriangles.svg	24	yes	57	0	19	0	0			0	0			1				0	
6.6.1	mac	2023-07-07	10:04:54	10:12:42	465235	5f846dd4e962ce0bf61b95fb	4	1	main_slash	11	main_slash	13	stimuli_target_squarediamonds.svg	stimuli_distractor_trianglediamonds.svg	4	yes	53	1	228	0	0			0	0			1				0	
6.6.1	mac	2023-07-07	10:04:54	10:12:42	465235	5f846dd4e962ce0bf61b95fb	4	1	main_slash	11	advance_on_keypress_SLASH	14	stimuli_target_squarediamonds.svg	stimuli_distractor_trianglediamonds.svg	4	yes	57	0	14	0	0			0	0			1				0	
6.6.1	mac	2023-07-07	10:04:54	10:12:43	466059	5f846dd4e962ce0bf61b95fb	4	1	main_slash	11	main_slash	15	stimuli_target_rectanglediamonds.svg	stimuli_distractor_trianglediamonds.svg	2	yes	53	1	169	0	0			0	0			1				0	
6.6.1	mac	2023-07-07	10:04:54	10:12:43	466059	5f846dd4e962ce0bf61b95fb	4	1	main_slash	11	advance_on_keypress_SLASH	16	stimuli_target_rectanglediamonds.svg	stimuli_distractor_trianglediamonds.svg	2	yes	57	0	25	0	0			0	0			1				0	
6.6.1	mac	2023-07-07	10:04:54	10:12:44	466907	5f846dd4e962ce0bf61b95fb	4	1	main_slash	11	main_slash	17	stimuli_distractor_trianglediamonds.svg	stimuli_target_trianglerectangles.svg	25	yes	53	1	201	0	0			0	0			1				0	
6.6.1	mac	2023-07-07	10:04:54	10:12:44	466907	5f846dd4e962ce0bf61b95fb	4	1	main_slash	11	advance_on_keypress_SLASH	18	stimuli_distractor_trianglediamonds.svg	stimuli_target_trianglerectangles.svg	25	yes	57	0	55	0	0			0	0			1				0	
6.6.1	mac	2023-07-07	10:04:54	10:12:45	468355	5f846dd4e962ce0bf61b95fb	4	1	main_slash	11	main_slash	19	stimuli_target_rectangletriangles.svg	stimuli_distractor_diamondtriangles.svg	5	yes	53	1	765	0	0			0	0			1				0	
6.6.1	mac	2023-07-07	10:04:54	10:12:45	468355	5f846dd4e962ce0bf61b95fb	4	1	main_slash	11	advance_on_keypress_SLASH	20	stimuli_target_rectangletriangles.svg	stimuli_distractor_diamondtriangles.svg	5	yes	57	0	81	0	0			0	0			1				0	
6.6.1	mac	2023-07-07	10:04:54	10:12:46	469515	5f846dd4e962ce0bf61b95fb	4	1	main_slash	11	main_slash	21	stimuli_distractor_diamondtriangles.svg	stimuli_target_squarediamonds.svg	16	yes	53	1	442	0	0			0	0			1				0	
6.6.1	mac	2023-07-07	10:04:54	10:12:46	469515	5f846dd4e962ce0bf61b95fb	4	1	main_slash	11	advance_on_keypress_SLASH	22	stimuli_distractor_diamondtriangles.svg	stimuli_target_squarediamonds.svg	16	yes	57	0	71	0	0			0	0			1				0	
6.6.1	mac	2023-07-07	10:04:54	10:12:49	472221	5f846dd4e962ce0bf61b95fb	4	1	main_slash	11	main_slash	23	stimuli_distractor_trianglediamonds.svg	stimuli_target_diamondrectangles.svg	27	yes	0	0	2000	0	0			0	0			1				0	
6.6.1	mac	2023-07-07	10:04:54	10:12:49	472221	5f846dd4e962ce0bf61b95fb	4	1	main_slash	11	advance_on_keypress_SLASH	24	stimuli_distractor_trianglediamonds.svg	stimuli_target_diamondrectangles.svg	27	yes	57	0	535	0	0			0	0			1				0	
6.6.1	mac	2023-07-07	10:04:54	10:12:50	473659	5f846dd4e962ce0bf61b95fb	4	1	main_slash	11	main_slash	25	stimuli_distractor_trianglediamonds.svg	stimuli_target_rectangletriangles.svg	9	yes	53	1	269	0	0			0	0			1				0	
6.6.1	mac	2023-07-07	10:04:54	10:12:50	473659	5f846dd4e962ce0bf61b95fb	4	1	main_slash	11	advance_on_keypress_SLASH	26	stimuli_distractor_trianglediamonds.svg	stimuli_target_rectangletriangles.svg	9	yes	57	0	17	0	0			0	0			1				0	
6.6.1	mac	2023-07-07	10:04:54	10:12:51	474637	5f846dd4e962ce0bf61b95fb	4	1	main_slash	11	main_slash	27	stimuli_target_trianglesquares.svg	stimuli_distractor_trianglediamonds.svg	18	yes	53	1	331	0	0			0	0			1				0	
6.6.1	mac	2023-07-07	10:04:54	10:12:51	474637	5f846dd4e962ce0bf61b95fb	4	1	main_slash	11	advance_on_keypress_SLASH	28	stimuli_target_trianglesquares.svg	stimuli_distractor_trianglediamonds.svg	18	yes	57	0	40	0	0			0	0			1				0	
6.6.1	mac	2023-07-07	10:04:54	10:12:52	475572	5f846dd4e962ce0bf61b95fb	4	1	main_slash	11	main_slash	29	stimuli_distractor_trianglediamonds.svg	stimuli_distractor_trianglediamonds.svg	33	no	53	0	266	0	0			0	0			1				0	
6.6.1	mac	2023-07-07	10:04:54	10:12:52	475572	5f846dd4e962ce0bf61b95fb	4	1	main_slash	11	advance_on_keypress_SLASH	30	stimuli_distractor_trianglediamonds.svg	stimuli_distractor_trianglediamonds.svg	33	no	57	0	9	0	0			0	0			1				0	
6.6.1	mac	2023-07-07	10:04:54	10:12:55	478205	5f846dd4e962ce0bf61b95fb	4	1	main_slash	11	main_slash	31	stimuli_distractor_trianglediamonds.svg	stimuli_target_diamondsquares.svg	28	yes	0	0	2000	0	0			0	0			1				0	
6.6.1	mac	2023-07-07	10:04:54	10:12:55	478205	5f846dd4e962ce0bf61b95fb	4	1	main_slash	11	advance_on_keypress_SLASH	32	stimuli_distractor_trianglediamonds.svg	stimuli_target_diamondsquares.svg	28	yes	57	0	593	0	0			0	0			1				0	
6.6.1	mac	2023-07-07	10:04:54	10:12:56	479502	5f846dd4e962ce0bf61b95fb	4	1	main_slash	11	main_slash	33	stimuli_distractor_diamondtriangles.svg	stimuli_distractor_trianglediamonds.svg	37	no	53	0	62	0	0			0	0			1				0	
6.6.1	mac	2023-07-07	10:04:54	10:12:56	479502	5f846dd4e962ce0bf61b95fb	4	1	main_slash	11	advance_on_keypress_SLASH	34	stimuli_distractor_diamondtriangles.svg	stimuli_distractor_trianglediamonds.svg	37	no	57	0	104	0	0			0	0			1				0	
6.6.1	mac	2023-07-07	10:04:54	10:12:57	480435	5f846dd4e962ce0bf61b95fb	4	1	main_slash	11	main_slash	35	stimuli_target_trianglesquares.svg	stimuli_distractor_diamondtriangles.svg	22	yes	53	1	195	0	0			0	0			1				0	
6.6.1	mac	2023-07-07	10:04:54	10:12:57	480435	5f846dd4e962ce0bf61b95fb	4	1	main_slash	11	advance_on_keypress_SLASH	36	stimuli_target_trianglesquares.svg	stimuli_distractor_diamondtriangles.svg	22	yes	57	0	49	0	0			0	0			1				0	
6.6.1	mac	2023-07-07	10:04:54	10:12:58	481228	5f846dd4e962ce0bf61b95fb	4	1	main_slash	11	main_slash	37	stimuli_distractor_trianglediamonds.svg	stimuli_distractor_trianglediamonds.svg	34	no	53	0	105	0	0			0	0			1				0	
6.6.1	mac	2023-07-07	10:04:54	10:12:58	481228	5f846dd4e962ce0bf61b95fb	4	1	main_slash	11	advance_on_keypress_SLASH	38	stimuli_distractor_trianglediamonds.svg	stimuli_distractor_trianglediamonds.svg	34	no	57	0	115	0	0			0	0			1				0	
6.6.1	mac	2023-07-07	10:04:54	10:12:59	482075	5f846dd4e962ce0bf61b95fb	4	1	main_slash	11	main_slash	39	stimuli_target_diamondrectangles.svg	stimuli_distractor_trianglediamonds.svg	19	yes	53	1	102	0	0			0	0			1				0	
6.6.1	mac	2023-07-07	10:04:54	10:12:59	482075	5f846dd4e962ce0bf61b95fb	4	1	main_slash	11	advance_on_keypress_SLASH	40	stimuli_target_diamondrectangles.svg	stimuli_distractor_trianglediamonds.svg	19	yes	57	0	50	0	0			0	0			1				0	
6.6.1	mac	2023-07-07	10:04:54	10:13:00	482822	5f846dd4e962ce0bf61b95fb	4	1	main_slash	11	main_slash	41	stimuli_distractor_trianglediamonds.svg	stimuli_target_trianglesquares.svg	26	yes	53	1	66	0	0			0	0			1				0	
6.6.1	mac	2023-07-07	10:04:54	10:13:00	482822	5f846dd4e962ce0bf61b95fb	4	1	main_slash	11	advance_on_keypress_SLASH	42	stimuli_distractor_trianglediamonds.svg	stimuli_target_trianglesquares.svg	26	yes	57	0	68	0	0			0	0			1				0	
6.6.1	mac	2023-07-07	10:04:54	10:13:02	485522	5f846dd4e962ce0bf61b95fb	4	1	main_slash	11	main_slash	43	stimuli_distractor_trianglediamonds.svg	stimuli_distractor_diamondtriangles.svg	35	no	0	1	2000	0	0			0	0			1				0	
6.6.1	mac	2023-07-07	10:04:54	10:13:02	485522	5f846dd4e962ce0bf61b95fb	4	1	main_slash	11	advance_on_keypress_SLASH	44	stimuli_distractor_trianglediamonds.svg	stimuli_distractor_diamondtriangles.svg	35	no	57	0	1495	0	0			0	0			1				0	
6.6.1	mac	2023-07-07	10:04:54	10:13:05	487899	5f846dd4e962ce0bf61b95fb	4	1	main_slash	11	main_slash	45	stimuli_target_squarediamonds.svg	stimuli_distractor_diamondtriangles.svg	8	yes	53	1	242	0	0			0	0			1				0	
6.6.1	mac	2023-07-07	10:04:54	10:13:05	487899	5f846dd4e962ce0bf61b95fb	4	1	main_slash	11	advance_on_keypress_SLASH	46	stimuli_target_squarediamonds.svg	stimuli_distractor_diamondtriangles.svg	8	yes	57	0	48	0	0			0	0			1				0	
6.6.1	mac	2023-07-07	10:04:54	10:13:06	488825	5f846dd4e962ce0bf61b95fb	4	1	main_slash	11	main_slash	47	stimuli_distractor_diamondtriangles.svg	stimuli_target_trianglerectangles.svg	29	yes	53	1	251	0	0			0	0			1				0	
6.6.1	mac	2023-07-07	10:04:54	10:13:06	488825	5f846dd4e962ce0bf61b95fb	4	1	main_slash	11	advance_on_keypress_SLASH	48	stimuli_distractor_diamondtriangles.svg	stimuli_target_trianglerectangles.svg	29	yes	57	0	40	0	0			0	0			1				0	
6.6.1	mac	2023-07-07	10:04:54	10:13:06	489636	5f846dd4e962ce0bf61b95fb	4	1	main_slash	11	main_slash	49	stimuli_target_diamondrectangles.svg	stimuli_distractor_diamondtriangles.svg	23	yes	53	1	144	0	0			0	0			1				0	
6.6.1	mac	2023-07-07	10:04:54	10:13:06	489636	5f846dd4e962ce0bf61b95fb	4	1	main_slash	11	advance_on_keypress_SLASH	50	stimuli_target_diamondrectangles.svg	stimuli_distractor_diamondtriangles.svg	23	yes	57	0	46	0	0			0	0			1				0	
6.6.1	mac	2023-07-07	10:04:54	10:13:07	490457	5f846dd4e962ce0bf61b95fb	4	1	main_slash	11	main_slash	51	stimuli_target_squaretriangles.svg	stimuli_distractor_trianglediamonds.svg	3	yes	53	1	135	0	0			0	0			1				0	
6.6.1	mac	2023-07-07	10:04:54	10:13:07	490457	5f846dd4e962ce0bf61b95fb	4	1	main_slash	11	advance_on_keypress_SLASH	52	stimuli_target_squaretriangles.svg	stimuli_distractor_trianglediamonds.svg	3	yes	57	0	93	0	0			0	0			1				0	
6.6.1	mac	2023-07-07	10:04:54	10:13:08	491412	5f846dd4e962ce0bf61b95fb	4	1	main_slash	11	main_slash	53	stimuli_distractor_diamondtriangles.svg	stimuli_target_squaretriangles.svg	15	yes	53	1	238	0	0			0	0			1				0	
6.6.1	mac	2023-07-07	10:04:54	10:13:08	491412	5f846dd4e962ce0bf61b95fb	4	1	main_slash	11	advance_on_keypress_SLASH	54	stimuli_distractor_diamondtriangles.svg	stimuli_target_squaretriangles.svg	15	yes	57	0	56	0	0			0	0			1				0	
6.6.1	mac	2023-07-07	10:04:54	10:13:09	492342	5f846dd4e962ce0bf61b95fb	4	1	main_slash	11	main_slash	55	stimuli_target_trianglerectangles.svg	stimuli_distractor_diamondtriangles.svg	21	yes	53	1	252	0	0			0	0			1				0	
6.6.1	mac	2023-07-07	10:04:54	10:13:09	492342	5f846dd4e962ce0bf61b95fb	4	1	main_slash	11	advance_on_keypress_SLASH	56	stimuli_target_trianglerectangles.svg	stimuli_distractor_diamondtriangles.svg	21	yes	57	0	66	0	0			0	0			1				0	
6.6.1	mac	2023-07-07	10:04:54	10:13:10	493160	5f846dd4e962ce0bf61b95fb	4	1	main_slash	11	main_slash	57	stimuli_target_diamondsquares.svg	stimuli_distractor_trianglediamonds.svg	20	yes	53	1	120	0	0			0	0			1				0	
6.6.1	mac	2023-07-07	10:04:54	10:13:10	493160	5f846dd4e962ce0bf61b95fb	4	1	main_slash	11	advance_on_keypress_SLASH	58	stimuli_target_diamondsquares.svg	stimuli_distractor_trianglediamonds.svg	20	yes	57	0	95	0	0			0	0			1				0	
6.6.1	mac	2023-07-07	10:04:54	10:13:11	493888	5f846dd4e962ce0bf61b95fb	4	1	main_slash	11	main_slash	59	stimuli_distractor_diamondtriangles.svg	stimuli_target_diamondsquares.svg	32	yes	53	1	16	0	0			0	0			1				0	
6.6.1	mac	2023-07-07	10:04:54	10:13:11	493888	5f846dd4e962ce0bf61b95fb	4	1	main_slash	11	advance_on_keypress_SLASH	60	stimuli_distractor_diamondtriangles.svg	stimuli_target_diamondsquares.svg	32	yes	57	0	103	0	0			0	0			1				0	
6.6.1	mac	2023-07-07	10:04:54	10:13:12	494869	5f846dd4e962ce0bf61b95fb	4	1	main_slash	11	main_slash	61	stimuli_distractor_diamondtriangles.svg	stimuli_target_trianglesquares.svg	30	yes	53	1	246	0	0			0	0			1				0	
6.6.1	mac	2023-07-07	10:04:54	10:13:12	494869	5f846dd4e962ce0bf61b95fb	4	1	main_slash	11	advance_on_keypress_SLASH	62	stimuli_distractor_diamondtriangles.svg	stimuli_target_trianglesquares.svg	30	yes	57	0	91	0	0			0	0			1				0	
6.6.1	mac	2023-07-07	10:04:54	10:13:13	495888	5f846dd4e962ce0bf61b95fb	4	1	main_slash	11	main_slash	63	stimuli_target_trianglerectangles.svg	stimuli_distractor_trianglediamonds.svg	17	yes	53	1	299	0	0			0	0			1				0	
6.6.1	mac	2023-07-07	10:04:54	10:13:13	495888	5f846dd4e962ce0bf61b95fb	4	1	main_slash	11	advance_on_keypress_SLASH	64	stimuli_target_trianglerectangles.svg	stimuli_distractor_trianglediamonds.svg	17	yes	57	0	251	0	0			0	0			1				0	
6.6.1	mac	2023-07-07	10:04:54	10:13:14	496934	5f846dd4e962ce0bf61b95fb	4	1	main_slash	11	main_slash	65	stimuli_distractor_trianglediamonds.svg	stimuli_target_squarediamonds.svg	12	yes	53	1	160	0	0			0	0			1				0	
6.6.1	mac	2023-07-07	10:04:54	10:13:14	496934	5f846dd4e962ce0bf61b95fb	4	1	main_slash	11	advance_on_keypress_SLASH	66	stimuli_distractor_trianglediamonds.svg	stimuli_target_squarediamonds.svg	12	yes	57	0	96	0	0			0	0			1				0	
6.6.1	mac	2023-07-07	10:04:54	10:13:15	497796	5f846dd4e962ce0bf61b95fb	4	1	main_slash	11	main_slash	67	stimuli_distractor_trianglediamonds.svg	stimuli_target_squaretriangles.svg	11	yes	53	1	140	0	0			0	0			1				0	
6.6.1	mac	2023-07-07	10:04:54	10:13:15	497796	5f846dd4e962ce0bf61b95fb	4	1	main_slash	11	advance_on_keypress_SLASH	68	stimuli_distractor_trianglediamonds.svg	stimuli_target_squaretriangles.svg	11	yes	57	0	110	0	0			0	0			1				0	
6.6.1	mac	2023-07-07	10:04:54	10:13:16	498672	5f846dd4e962ce0bf61b95fb	4	1	main_slash	11	main_slash	69	stimuli_distractor_diamondtriangles.svg	stimuli_distractor_diamondtriangles.svg	40	no	53	0	149	0	0			0	0			1				0	
6.6.1	mac	2023-07-07	10:04:54	10:13:16	498672	5f846dd4e962ce0bf61b95fb	4	1	main_slash	11	advance_on_keypress_SLASH	70	stimuli_distractor_diamondtriangles.svg	stimuli_distractor_diamondtriangles.svg	40	no	57	0	111	0	0			0	0			1				0	
6.6.1	mac	2023-07-07	10:04:54	10:13:16	499527	5f846dd4e962ce0bf61b95fb	4	1	main_slash	11	main_slash	71	stimuli_distractor_diamondtriangles.svg	stimuli_distractor_diamondtriangles.svg	39	no	53	0	121	0	0			0	0			1				0	
6.6.1	mac	2023-07-07	10:04:54	10:13:16	499527	5f846dd4e962ce0bf61b95fb	4	1	main_slash	11	advance_on_keypress_SLASH	72	stimuli_distractor_diamondtriangles.svg	stimuli_distractor_diamondtriangles.svg	39	no	57	0	98	0	0			0	0			1				0	
6.6.1	mac	2023-07-07	10:04:54	10:13:17	500609	5f846dd4e962ce0bf61b95fb	4	1	main_slash	11	main_slash	73	stimuli_target_rectangletriangles.svg	stimuli_distractor_trianglediamonds.svg	1	yes	53	1	352	0	0			0	0			1				0	
6.6.1	mac	2023-07-07	10:04:54	10:13:17	500609	5f846dd4e962ce0bf61b95fb	4	1	main_slash	11	advance_on_keypress_SLASH	74	stimuli_target_rectangletriangles.svg	stimuli_distractor_trianglediamonds.svg	1	yes	57	0	41	0	0			0	0			1				0	
6.6.1	mac	2023-07-07	10:04:54	10:13:20	503273	5f846dd4e962ce0bf61b95fb	4	1	main_slash	11	main_slash	75	stimuli_distractor_diamondtriangles.svg	stimuli_distractor_trianglediamonds.svg	38	no	0	1	2000	0	0			0	0			1				0	
6.6.1	mac	2023-07-07	10:04:54	10:13:20	503273	5f846dd4e962ce0bf61b95fb	4	1	main_slash	11	advance_on_keypress_SLASH	76	stimuli_distractor_diamondtriangles.svg	stimuli_distractor_trianglediamonds.svg	38	no	57	0	1064	0	0			0	0			1				0	
6.6.1	mac	2023-07-07	10:04:54	10:13:22	505363	5f846dd4e962ce0bf61b95fb	4	1	main_slash	11	main_slash	77	stimuli_distractor_diamondtriangles.svg	stimuli_target_rectanglediamonds.svg	14	yes	53	1	390	0	0			0	0			1				0	
6.6.1	mac	2023-07-07	10:04:54	10:13:22	505363	5f846dd4e962ce0bf61b95fb	4	1	main_slash	11	advance_on_keypress_SLASH	78	stimuli_distractor_diamondtriangles.svg	stimuli_target_rectanglediamonds.svg	14	yes	57	0	109	0	0			0	0			1				0	
6.6.1	mac	2023-07-07	10:04:54	10:13:23	506425	5f846dd4e962ce0bf61b95fb	4	1	main_slash	11	main_slash	79	stimuli_distractor_diamondtriangles.svg	stimuli_target_rectangletriangles.svg	13	yes	53	1	335	0	0			0	0			1				0	
6.6.1	mac	2023-07-07	10:04:54	10:13:23	506425	5f846dd4e962ce0bf61b95fb	4	1	main_slash	11	advance_on_keypress_SLASH	80	stimuli_distractor_diamondtriangles.svg	stimuli_target_rectangletriangles.svg	13	yes	57	0	85	0	0			0	0			1				0	
6.6.1	mac	2023-07-07	10:04:54	10:13:24	507562	5f846dd4e962ce0bf61b95fb	4	1	main_slash	11	main_slash	81	stimuli_target_squaretriangles.svg	stimuli_distractor_trianglediamonds.svg	3	yes	53	1	422	0	0			0	0			1				0	
6.6.1	mac	2023-07-07	10:04:54	10:13:24	507562	5f846dd4e962ce0bf61b95fb	4	1	main_slash	11	advance_on_keypress_SLASH	82	stimuli_target_squaretriangles.svg	stimuli_distractor_trianglediamonds.svg	3	yes	57	0	142	0	0			0	0			1				0	
6.6.1	mac	2023-07-07	10:04:54	10:13:26	508670	5f846dd4e962ce0bf61b95fb	4	1	main_slash	11	main_slash	83	stimuli_target_squaretriangles.svg	stimuli_distractor_diamondtriangles.svg	7	yes	53	1	346	0	0			0	0			1				0	
6.6.1	mac	2023-07-07	10:04:54	10:13:26	508670	5f846dd4e962ce0bf61b95fb	4	1	main_slash	11	advance_on_keypress_SLASH	84	stimuli_target_squaretriangles.svg	stimuli_distractor_diamondtriangles.svg	7	yes	57	0	86	0	0			0	0			1				0	
6.6.1	mac	2023-07-07	10:04:54	10:13:28	511389	5f846dd4e962ce0bf61b95fb	4	1	main_slash	11	main_slash	85	stimuli_distractor_diamondtriangles.svg	stimuli_distractor_trianglediamonds.svg	38	no	0	1	2000	0	0			0	0			1				0	
6.6.1	mac	2023-07-07	10:04:54	10:13:28	511389	5f846dd4e962ce0bf61b95fb	4	1	main_slash	11	advance_on_keypress_SLASH	86	stimuli_distractor_diamondtriangles.svg	stimuli_distractor_trianglediamonds.svg	38	no	57	0	218	0	0			0	0			1				0	
6.6.1	mac	2023-07-07	10:04:54	10:13:30	512844	5f846dd4e962ce0bf61b95fb	4	1	main_slash	11	main_slash	87	stimuli_target_diamondsquares.svg	stimuli_distractor_diamondtriangles.svg	24	yes	53	1	603	0	0			0	0			1				0	
6.6.1	mac	2023-07-07	10:04:54	10:13:30	512844	5f846dd4e962ce0bf61b95fb	4	1	main_slash	11	advance_on_keypress_SLASH	88	stimuli_target_diamondsquares.svg	stimuli_distractor_diamondtriangles.svg	24	yes	57	0	117	0	0			0	0			1				0	
6.6.1	mac	2023-07-07	10:04:54	10:13:31	514063	5f846dd4e962ce0bf61b95fb	4	1	main_slash	11	main_slash	89	stimuli_distractor_trianglediamonds.svg	stimuli_target_squaretriangles.svg	11	yes	53	1	473	0	0			0	0			1				0	
6.6.1	mac	2023-07-07	10:04:54	10:13:31	514063	5f846dd4e962ce0bf61b95fb	4	1	main_slash	11	advance_on_keypress_SLASH	90	stimuli_distractor_trianglediamonds.svg	stimuli_target_squaretriangles.svg	11	yes	57	0	117	0	0			0	0			1				0	
6.6.1	mac	2023-07-07	10:04:54	10:13:32	515168	5f846dd4e962ce0bf61b95fb	4	1	main_slash	11	main_slash	91	stimuli_distractor_diamondtriangles.svg	stimuli_target_rectangletriangles.svg	13	yes	53	1	361	0	0			0	0			1				0	
6.6.1	mac	2023-07-07	10:04:54	10:13:32	515168	5f846dd4e962ce0bf61b95fb	4	1	main_slash	11	advance_on_keypress_SLASH	92	stimuli_distractor_diamondtriangles.svg	stimuli_target_rectangletriangles.svg	13	yes	57	0	127	0	0			0	0			1				0	
6.6.1	mac	2023-07-07	10:04:54	10:13:33	516212	5f846dd4e962ce0bf61b95fb	4	1	main_slash	11	main_slash	93	stimuli_distractor_trianglediamonds.svg	stimuli_target_rectanglediamonds.svg	10	yes	53	1	305	0	0			0	0			1				0	
6.6.1	mac	2023-07-07	10:04:54	10:13:33	516212	5f846dd4e962ce0bf61b95fb	4	1	main_slash	11	advance_on_keypress_SLASH	94	stimuli_distractor_trianglediamonds.svg	stimuli_target_rectanglediamonds.svg	10	yes	57	0	99	0	0			0	0			1				0	
6.6.1	mac	2023-07-07	10:04:54	10:13:34	517251	5f846dd4e962ce0bf61b95fb	4	1	main_slash	11	main_slash	95	stimuli_distractor_diamondtriangles.svg	stimuli_target_squarediamonds.svg	16	yes	53	1	311	0	0			0	0			1				0	
6.6.1	mac	2023-07-07	10:04:54	10:13:34	517251	5f846dd4e962ce0bf61b95fb	4	1	main_slash	11	advance_on_keypress_SLASH	96	stimuli_distractor_diamondtriangles.svg	stimuli_target_squarediamonds.svg	16	yes	57	0	129	0	0			0	0			1				0	
6.6.1	mac	2023-07-07	10:04:54	10:13:35	518275	5f846dd4e962ce0bf61b95fb	4	1	main_slash	11	main_slash	97	stimuli_target_rectangletriangles.svg	stimuli_distractor_diamondtriangles.svg	5	yes	53	1	252	0	0			0	0			1				0	
6.6.1	mac	2023-07-07	10:04:54	10:13:35	518275	5f846dd4e962ce0bf61b95fb	4	1	main_slash	11	advance_on_keypress_SLASH	98	stimuli_target_rectangletriangles.svg	stimuli_distractor_diamondtriangles.svg	5	yes	57	0	112	0	0			0	0			1				0	
6.6.1	mac	2023-07-07	10:04:54	10:13:36	519649	5f846dd4e962ce0bf61b95fb	4	1	main_slash	11	main_slash	99	stimuli_target_squarediamonds.svg	stimuli_distractor_trianglediamonds.svg	4	yes	53	1	626	0	0			0	0			1				0	
6.6.1	mac	2023-07-07	10:04:54	10:13:36	519649	5f846dd4e962ce0bf61b95fb	4	1	main_slash	11	advance_on_keypress_SLASH	100	stimuli_target_squarediamonds.svg	stimuli_distractor_trianglediamonds.svg	4	yes	57	0	722	0	0			0	0			1				0	
6.6.1	mac	2023-07-07	10:04:54	10:13:40	522989	5f846dd4e962ce0bf61b95fb	4	1	main_slash	11	main_slash	101	stimuli_distractor_diamondtriangles.svg	stimuli_target_rectanglediamonds.svg	14	yes	0	0	2000	0	0			0	0			1				0	
6.6.1	mac	2023-07-07	10:04:54	10:13:40	522989	5f846dd4e962ce0bf61b95fb	4	1	main_slash	11	advance_on_keypress_SLASH	102	stimuli_distractor_diamondtriangles.svg	stimuli_target_rectanglediamonds.svg	14	yes	57	0	228	0	0			0	0			1				0	
6.6.1	mac	2023-07-07	10:04:54	10:13:41	524140	5f846dd4e962ce0bf61b95fb	4	1	main_slash	11	main_slash	103	stimuli_distractor_trianglediamonds.svg	stimuli_distractor_diamondtriangles.svg	36	no	53	0	284	0	0			0	0			1				0	
6.6.1	mac	2023-07-07	10:04:54	10:13:41	524140	5f846dd4e962ce0bf61b95fb	4	1	main_slash	11	advance_on_keypress_SLASH	104	stimuli_distractor_trianglediamonds.svg	stimuli_distractor_diamondtriangles.svg	36	no	57	0	124	0	0			0	0			1				0	
6.6.1	mac	2023-07-07	10:04:54	10:13:43	525893	5f846dd4e962ce0bf61b95fb	4	1	main_slash	11	main_slash	105	stimuli_target_trianglerectangles.svg	stimuli_distractor_diamondtriangles.svg	21	yes	53	1	1003	0	0			0	0			1				0	
6.6.1	mac	2023-07-07	10:04:54	10:13:43	525893	5f846dd4e962ce0bf61b95fb	4	1	main_slash	11	advance_on_keypress_SLASH	106	stimuli_target_trianglerectangles.svg	stimuli_distractor_diamondtriangles.svg	21	yes	57	0	87	0	0			0	0			1				0	
6.6.1	mac	2023-07-07	10:04:54	10:13:44	527063	5f846dd4e962ce0bf61b95fb	4	1	main_slash	11	main_slash	107	stimuli_target_diamondsquares.svg	stimuli_distractor_trianglediamonds.svg	20	yes	53	1	457	0	0			0	0			1				0	
6.6.1	mac	2023-07-07	10:04:54	10:13:44	527063	5f846dd4e962ce0bf61b95fb	4	1	main_slash	11	advance_on_keypress_SLASH	108	stimuli_target_diamondsquares.svg	stimuli_distractor_trianglediamonds.svg	20	yes	57	0	81	0	0			0	0			1				0	
6.6.1	mac	2023-07-07	10:04:54	10:13:46	528798	5f846dd4e962ce0bf61b95fb	4	1	main_slash	11	main_slash	109	stimuli_distractor_diamondtriangles.svg	stimuli_target_trianglesquares.svg	30	yes	53	1	1025	0	0			0	0			1				0	
6.6.1	mac	2023-07-07	10:04:54	10:13:46	528798	5f846dd4e962ce0bf61b95fb	4	1	main_slash	11	advance_on_keypress_SLASH	110	stimuli_distractor_diamondtriangles.svg	stimuli_target_trianglesquares.svg	30	yes	57	0	92	0	0			0	0			1				0	
6.6.1	mac	2023-07-07	10:04:54	10:13:47	529870	5f846dd4e962ce0bf61b95fb	4	1	main_slash	11	main_slash	111	stimuli_distractor_diamondtriangles.svg	stimuli_target_squaretriangles.svg	15	yes	53	1	364	0	0			0	0			1				0	
6.6.1	mac	2023-07-07	10:04:54	10:13:47	529870	5f846dd4e962ce0bf61b95fb	4	1	main_slash	11	advance_on_keypress_SLASH	112	stimuli_distractor_diamondtriangles.svg	stimuli_target_squaretriangles.svg	15	yes	57	0	83	0	0			0	0			1				0	
6.6.1	mac	2023-07-07	10:04:54	10:13:48	530867	5f846dd4e962ce0bf61b95fb	4	1	main_slash	11	main_slash	113	stimuli_distractor_diamondtriangles.svg	stimuli_distractor_diamondtriangles.svg	39	no	53	0	276	0	0			0	0			1				0	
6.6.1	mac	2023-07-07	10:04:54	10:13:48	530867	5f846dd4e962ce0bf61b95fb	4	1	main_slash	11	advance_on_keypress_SLASH	114	stimuli_distractor_diamondtriangles.svg	stimuli_distractor_diamondtriangles.svg	39	no	57	0	84	0	0			0	0			1				0	
6.6.1	mac	2023-07-07	10:04:54	10:13:50	533573	5f846dd4e962ce0bf61b95fb	4	1	main_slash	11	main_slash	115	stimuli_distractor_trianglediamonds.svg	stimuli_target_trianglerectangles.svg	25	yes	0	0	2000	0	0			0	0			1				0	
6.6.1	mac	2023-07-07	10:04:54	10:13:50	533573	5f846dd4e962ce0bf61b95fb	4	1	main_slash	11	advance_on_keypress_SLASH	116	stimuli_distractor_trianglediamonds.svg	stimuli_target_trianglerectangles.svg	25	yes	57	0	740	0	0			0	0			1				0	
6.6.1	mac	2023-07-07	10:04:54	10:13:54	536939	5f846dd4e962ce0bf61b95fb	4	1	main_slash	11	main_slash	117	stimuli_distractor_diamondtriangles.svg	stimuli_target_diamondsquares.svg	32	yes	0	0	2000	0	0			0	0			1				0	
6.6.1	mac	2023-07-07	10:04:54	10:13:54	536939	5f846dd4e962ce0bf61b95fb	4	1	main_slash	11	advance_on_keypress_SLASH	118	stimuli_distractor_diamondtriangles.svg	stimuli_target_diamondsquares.svg	32	yes	57	0	241	0	0			0	0			1				0	
6.6.1	mac	2023-07-07	10:04:54	10:13:55	538108	5f846dd4e962ce0bf61b95fb	4	1	main_slash	11	main_slash	119	stimuli_target_trianglesquares.svg	stimuli_distractor_diamondtriangles.svg	22	yes	53	1	302	0	0			0	0			1				0	
6.6.1	mac	2023-07-07	10:04:54	10:13:55	538108	5f846dd4e962ce0bf61b95fb	4	1	main_slash	11	advance_on_keypress_SLASH	120	stimuli_target_trianglesquares.svg	stimuli_distractor_diamondtriangles.svg	22	yes	57	0	118	0	0			0	0			1				0	
6.6.1	mac	2023-07-07	10:04:54	10:13:58	540854	5f846dd4e962ce0bf61b95fb	4	1	main_slash	11	main_slash	121	stimuli_distractor_trianglediamonds.svg	stimuli_distractor_trianglediamonds.svg	34	no	0	1	2000	0	0			0	0			1				0	
6.6.1	mac	2023-07-07	10:04:54	10:13:58	540854	5f846dd4e962ce0bf61b95fb	4	1	main_slash	11	advance_on_keypress_SLASH	122	stimuli_distractor_trianglediamonds.svg	stimuli_distractor_trianglediamonds.svg	34	no	57	0	380	0	0			0	0			1				0	
6.6.1	mac	2023-07-07	10:04:54	10:13:59	542237	5f846dd4e962ce0bf61b95fb	4	1	main_slash	11	main_slash	123	stimuli_target_trianglerectangles.svg	stimuli_distractor_trianglediamonds.svg	17	yes	53	1	364	0	0			0	0			1				0	
6.6.1	mac	2023-07-07	10:04:54	10:13:59	542237	5f846dd4e962ce0bf61b95fb	4	1	main_slash	11	advance_on_keypress_SLASH	124	stimuli_target_trianglerectangles.svg	stimuli_distractor_trianglediamonds.svg	17	yes	57	0	114	0	0			0	0			1				0	
6.6.1	mac	2023-07-07	10:04:54	10:14:00	543294	5f846dd4e962ce0bf61b95fb	4	1	main_slash	11	main_slash	125	stimuli_distractor_trianglediamonds.svg	stimuli_target_rectangletriangles.svg	9	yes	53	1	304	0	0			0	0			1				0	
6.6.1	mac	2023-07-07	10:04:54	10:14:00	543294	5f846dd4e962ce0bf61b95fb	4	1	main_slash	11	advance_on_keypress_SLASH	126	stimuli_distractor_trianglediamonds.svg	stimuli_target_rectangletriangles.svg	9	yes	57	0	88	0	0			0	0			1				0	
6.6.1	mac	2023-07-07	10:04:54	10:14:01	544310	5f846dd4e962ce0bf61b95fb	4	1	main_slash	11	main_slash	127	stimuli_distractor_trianglediamonds.svg	stimuli_target_squarediamonds.svg	12	yes	53	1	304	0	0			0	0			1				0	
6.6.1	mac	2023-07-07	10:04:54	10:14:01	544310	5f846dd4e962ce0bf61b95fb	4	1	main_slash	11	advance_on_keypress_SLASH	128	stimuli_distractor_trianglediamonds.svg	stimuli_target_squarediamonds.svg	12	yes	57	0	86	0	0			0	0			1				0	
6.6.1	mac	2023-07-07	10:04:54	10:14:02	545329	5f846dd4e962ce0bf61b95fb	4	1	main_slash	11	main_slash	129	stimuli_distractor_trianglediamonds.svg	stimuli_distractor_trianglediamonds.svg	33	no	53	0	306	0	0			0	0			1				0	
6.6.1	mac	2023-07-07	10:04:54	10:14:02	545329	5f846dd4e962ce0bf61b95fb	4	1	main_slash	11	advance_on_keypress_SLASH	130	stimuli_distractor_trianglediamonds.svg	stimuli_distractor_trianglediamonds.svg	33	no	57	0	137	0	0			0	0			1				0	
6.6.1	mac	2023-07-07	10:04:54	10:14:05	548088	5f846dd4e962ce0bf61b95fb	4	1	main_slash	11	main_slash	131	stimuli_distractor_trianglediamonds.svg	stimuli_target_diamondsquares.svg	28	yes	0	0	2000	0	0			0	0			1				0	
6.6.1	mac	2023-07-07	10:04:54	10:14:05	548088	5f846dd4e962ce0bf61b95fb	4	1	main_slash	11	advance_on_keypress_SLASH	132	stimuli_distractor_trianglediamonds.svg	stimuli_target_diamondsquares.svg	28	yes	57	0	453	0	0			0	0			1				0	
6.6.1	mac	2023-07-07	10:04:54	10:14:07	549946	5f846dd4e962ce0bf61b95fb	4	1	main_slash	11	main_slash	133	stimuli_distractor_diamondtriangles.svg	stimuli_target_trianglerectangles.svg	29	yes	53	1	773	0	0			0	0			1				0	
6.6.1	mac	2023-07-07	10:04:54	10:14:07	549946	5f846dd4e962ce0bf61b95fb	4	1	main_slash	11	advance_on_keypress_SLASH	134	stimuli_distractor_diamondtriangles.svg	stimuli_target_trianglerectangles.svg	29	yes	57	0	105	0	0			0	0			1				0	
6.6.1	mac	2023-07-07	10:04:54	10:14:08	551290	5f846dd4e962ce0bf61b95fb	4	1	main_slash	11	main_slash	135	stimuli_target_diamondrectangles.svg	stimuli_distractor_trianglediamonds.svg	19	yes	53	1	616	0	0			0	0			1				0	
6.6.1	mac	2023-07-07	10:04:54	10:14:08	551290	5f846dd4e962ce0bf61b95fb	4	1	main_slash	11	advance_on_keypress_SLASH	136	stimuli_target_diamondrectangles.svg	stimuli_distractor_trianglediamonds.svg	19	yes	57	0	17	0	0			0	0			1				0	
6.6.1	mac	2023-07-07	10:04:54	10:14:10	552927	5f846dd4e962ce0bf61b95fb	4	1	main_slash	11	main_slash	137	stimuli_distractor_trianglediamonds.svg	stimuli_distractor_diamondtriangles.svg	35	no	53	0	987	0	0			0	0			1				0	
6.6.1	mac	2023-07-07	10:04:54	10:14:10	552927	5f846dd4e962ce0bf61b95fb	4	1	main_slash	11	advance_on_keypress_SLASH	138	stimuli_distractor_trianglediamonds.svg	stimuli_distractor_diamondtriangles.svg	35	no	57	0	67	0	0			0	0			1				0	
6.6.1	mac	2023-07-07	10:04:54	10:14:11	554124	5f846dd4e962ce0bf61b95fb	4	1	main_slash	11	main_slash	139	stimuli_target_rectanglediamonds.svg	stimuli_distractor_diamondtriangles.svg	6	yes	53	1	502	0	0			0	0			1				0	
6.6.1	mac	2023-07-07	10:04:54	10:14:11	554124	5f846dd4e962ce0bf61b95fb	4	1	main_slash	11	advance_on_keypress_SLASH	140	stimuli_target_rectanglediamonds.svg	stimuli_distractor_diamondtriangles.svg	6	yes	57	0	113	0	0			0	0			1				0	
6.6.1	mac	2023-07-07	10:04:54	10:14:14	556872	5f846dd4e962ce0bf61b95fb	4	1	main_slash	11	main_slash	141	stimuli_distractor_diamondtriangles.svg	stimuli_target_diamondrectangles.svg	31	yes	0	0	2000	0	0			0	0			1				0	
6.6.1	mac	2023-07-07	10:04:54	10:14:14	556872	5f846dd4e962ce0bf61b95fb	4	1	main_slash	11	advance_on_keypress_SLASH	142	stimuli_distractor_diamondtriangles.svg	stimuli_target_diamondrectangles.svg	31	yes	57	0	394	0	0			0	0			1				0	
6.6.1	mac	2023-07-07	10:04:54	10:14:15	558319	5f846dd4e962ce0bf61b95fb	4	1	main_slash	11	main_slash	143	stimuli_target_rectanglediamonds.svg	stimuli_distractor_trianglediamonds.svg	2	yes	53	1	413	0	0			0	0			1				0	
6.6.1	mac	2023-07-07	10:04:54	10:14:15	558319	5f846dd4e962ce0bf61b95fb	4	1	main_slash	11	advance_on_keypress_SLASH	144	stimuli_target_rectanglediamonds.svg	stimuli_distractor_trianglediamonds.svg	2	yes	57	0	62	0	0			0	0			1				0	
6.6.1	mac	2023-07-07	10:04:54	10:14:18	561007	5f846dd4e962ce0bf61b95fb	4	1	main_slash	11	main_slash	145	stimuli_distractor_diamondtriangles.svg	stimuli_distractor_trianglediamonds.svg	37	no	0	1	2000	0	0			0	0			1				0	
6.6.1	mac	2023-07-07	10:04:54	10:14:18	561007	5f846dd4e962ce0bf61b95fb	4	1	main_slash	11	advance_on_keypress_SLASH	146	stimuli_distractor_diamondtriangles.svg	stimuli_distractor_trianglediamonds.svg	37	no	57	0	351	0	0			0	0			1				0	
6.6.1	mac	2023-07-07	10:04:54	10:14:19	562553	5f846dd4e962ce0bf61b95fb	4	1	main_slash	11	main_slash	147	stimuli_target_diamondrectangles.svg	stimuli_distractor_diamondtriangles.svg	23	yes	53	1	563	0	0			0	0			1				0	
6.6.1	mac	2023-07-07	10:04:54	10:14:19	562553	5f846dd4e962ce0bf61b95fb	4	1	main_slash	11	advance_on_keypress_SLASH	148	stimuli_target_diamondrectangles.svg	stimuli_distractor_diamondtriangles.svg	23	yes	57	0	90	0	0			0	0			1				0	
6.6.1	mac	2023-07-07	10:04:54	10:14:20	563652	5f846dd4e962ce0bf61b95fb	4	1	main_slash	11	main_slash	149	stimuli_distractor_trianglediamonds.svg	stimuli_target_diamondrectangles.svg	27	yes	53	1	379	0	0			0	0			1				0	
6.6.1	mac	2023-07-07	10:04:54	10:14:20	563652	5f846dd4e962ce0bf61b95fb	4	1	main_slash	11	advance_on_keypress_SLASH	150	stimuli_distractor_trianglediamonds.svg	stimuli_target_diamondrectangles.svg	27	yes	57	0	124	0	0			0	0			1				0	
6.6.1	mac	2023-07-07	10:04:54	10:14:22	564981	5f846dd4e962ce0bf61b95fb	4	1	main_slash	11	main_slash	151	stimuli_distractor_trianglediamonds.svg	stimuli_target_trianglesquares.svg	26	yes	53	1	574	0	0			0	0			1				0	
6.6.1	mac	2023-07-07	10:04:54	10:14:22	564981	5f846dd4e962ce0bf61b95fb	4	1	main_slash	11	advance_on_keypress_SLASH	152	stimuli_distractor_trianglediamonds.svg	stimuli_target_trianglesquares.svg	26	yes	57	0	74	0	0			0	0			1				0	
6.6.1	mac	2023-07-07	10:04:54	10:14:23	565984	5f846dd4e962ce0bf61b95fb	4	1	main_slash	11	main_slash	153	stimuli_target_trianglesquares.svg	stimuli_distractor_trianglediamonds.svg	18	yes	53	1	311	0	0			0	0			1				0	
6.6.1	mac	2023-07-07	10:04:54	10:14:23	565984	5f846dd4e962ce0bf61b95fb	4	1	main_slash	11	advance_on_keypress_SLASH	154	stimuli_target_trianglesquares.svg	stimuli_distractor_trianglediamonds.svg	18	yes	57	0	94	0	0			0	0			1				0	
6.6.1	mac	2023-07-07	10:04:54	10:14:24	567059	5f846dd4e962ce0bf61b95fb	4	1	main_slash	11	main_slash	155	stimuli_target_squarediamonds.svg	stimuli_distractor_diamondtriangles.svg	8	yes	53	1	369	0	0			0	0			1				0	
6.6.1	mac	2023-07-07	10:04:54	10:14:24	567059	5f846dd4e962ce0bf61b95fb	4	1	main_slash	11	advance_on_keypress_SLASH	156	stimuli_target_squarediamonds.svg	stimuli_distractor_diamondtriangles.svg	8	yes	57	0	78	0	0			0	0			1				0	
6.6.1	mac	2023-07-07	10:04:54	10:14:25	568076	5f846dd4e962ce0bf61b95fb	4	1	main_slash	11	main_slash	157	stimuli_target_rectangletriangles.svg	stimuli_distractor_trianglediamonds.svg	1	yes	53	1	303	0	0			0	0			1				0	
6.6.1	mac	2023-07-07	10:04:54	10:14:25	568076	5f846dd4e962ce0bf61b95fb	4	1	main_slash	11	advance_on_keypress_SLASH	158	stimuli_target_rectangletriangles.svg	stimuli_distractor_trianglediamonds.svg	1	yes	57	0	99	0	0			0	0			1				0	
6.6.1	mac	2023-07-07	10:04:54	10:14:26	569117	5f846dd4e962ce0bf61b95fb	4	1	main_slash	11	main_slash	159	stimuli_distractor_diamondtriangles.svg	stimuli_distractor_diamondtriangles.svg	40	no	53	0	311	0	0			0	0			1				0	
6.6.1	mac	2023-07-07	10:04:54	10:14:26	569117	5f846dd4e962ce0bf61b95fb	4	1	main_slash	11	advance_on_keypress_SLASH	160	stimuli_distractor_diamondtriangles.svg	stimuli_distractor_diamondtriangles.svg	40	no	57	0	126	0	0			0	0			1				0	
6.6.1	mac	2023-07-07	10:04:54	10:14:26	569117	5f846dd4e962ce0bf61b95fb	4	1	headphonecheck_calibration	14	headphonecheck_calibrationIntro	1	stimuli_distractor_diamondtriangles.svg	stimuli_distractor_diamondtriangles.svg	40	no	calibrationButton	0	3267	0	0			0	0			1				0	
6.6.1	mac	2023-07-07	10:04:54	10:14:26	569117	5f846dd4e962ce0bf61b95fb	4	1	headphonecheck_testphase	15	test_collectResponse	3	stimuli_distractor_diamondtriangles.svg	stimuli_distractor_diamondtriangles.svg	40	no	third	0	686	1	4	antiphase_hc_sio.wav	1	0	0			1				0	
6.6.1	mac	2023-07-07	10:04:54	10:14:26	569117	5f846dd4e962ce0bf61b95fb	4	1	headphonecheck_testphase	15	test_collectResponse	6	stimuli_distractor_diamondtriangles.svg	stimuli_distractor_diamondtriangles.svg	40	no	third	0	3083	2	5	antiphase_hc_osi.wav	2	0	0			1				0	
6.6.1	mac	2023-07-07	10:04:54	10:14:26	569117	5f846dd4e962ce0bf61b95fb	4	1	headphonecheck_testphase	15	test_collectResponse	9	stimuli_distractor_diamondtriangles.svg	stimuli_distractor_diamondtriangles.svg	40	no	second	0	66	3	3	antiphase_hc_soi.wav	1	0	0			1				0	
6.6.1	mac	2023-07-07	10:04:54	10:14:26	569117	5f846dd4e962ce0bf61b95fb	4	1	headphonecheck_testphase	15	test_collectResponse	12	stimuli_distractor_diamondtriangles.svg	stimuli_distractor_diamondtriangles.svg	40	no	third	0	233	4	1	antiphase_hc_iso.wav	2	0	0			1				0	
6.6.1	mac	2023-07-07	10:04:54	10:14:26	569117	5f846dd4e962ce0bf61b95fb	4	1	headphonecheck_testphase	15	test_collectResponse	15	stimuli_distractor_diamondtriangles.svg	stimuli_distractor_diamondtriangles.svg	40	no	second	0	2384	5	2	antiphase_hc_ios.wav	3	0	0			1				0	
6.6.1	mac	2023-07-07	10:04:54	10:14:26	569117	5f846dd4e962ce0bf61b95fb	4	1	headphonecheck_testphase	15	test_collectResponse	18	stimuli_distractor_diamondtriangles.svg	stimuli_distractor_diamondtriangles.svg	40	no	first	0	318	6	6	antiphase_hc_ois.wav	3	0	0			1				0	
6.6.1	mac	2023-07-07	10:04:54	10:14:26	569117	5f846dd4e962ce0bf61b95fb	4	1	stereocheck_calibration	17	stereocheck_calibrationIntro	1	stimuli_distractor_diamondtriangles.svg	stimuli_distractor_diamondtriangles.svg	40	no	stereocheck_calibrationButton	0	4467	6	6	antiphase_hc_ois.wav	3	0	0			1				0	
6.6.1	mac	2023-07-07	10:04:54	10:14:26	569117	5f846dd4e962ce0bf61b95fb	4	1	stereocheck_testphase	18	stereocheck_test_collectResponse	3	stimuli_distractor_diamondtriangles.svg	stimuli_distractor_diamondtriangles.svg	40	no	stereocheck_left	1	464	6	6	antiphase_hc_ois.wav	3	1	2	noise_calib_stim_LEFT.wav	1	1				0	
6.6.1	mac	2023-07-07	10:04:54	10:14:26	569117	5f846dd4e962ce0bf61b95fb	4	1	stereocheck_testphase	18	stereocheck_test_collectResponse	6	stimuli_distractor_diamondtriangles.svg	stimuli_distractor_diamondtriangles.svg	40	no	stereocheck_left	1	234	6	6	antiphase_hc_ois.wav	3	2	1	noise_calib_stim_LEFT.wav	1	1				0	
6.6.1	mac	2023-07-07	10:04:54	10:14:26	569117	5f846dd4e962ce0bf61b95fb	4	1	stereocheck_testphase	18	stereocheck_test_collectResponse	9	stimuli_distractor_diamondtriangles.svg	stimuli_distractor_diamondtriangles.svg	40	no	stereocheck_right	1	250	6	6	antiphase_hc_ois.wav	3	3	5	noise_calib_stim_RIGHT.wav	2	1				0	
6.6.1	mac	2023-07-07	10:04:54	10:14:26	569117	5f846dd4e962ce0bf61b95fb	4	1	stereocheck_testphase	18	stereocheck_test_collectResponse	12	stimuli_distractor_diamondtriangles.svg	stimuli_distractor_diamondtriangles.svg	40	no	stereocheck_right	1	234	6	6	antiphase_hc_ois.wav	3	4	6	noise_calib_stim_RIGHT.wav	2	1				0	
6.6.1	mac	2023-07-07	10:04:54	10:14:26	569117	5f846dd4e962ce0bf61b95fb	4	1	stereocheck_testphase	18	stereocheck_test_collectResponse	15	stimuli_distractor_diamondtriangles.svg	stimuli_distractor_diamondtriangles.svg	40	no	stereocheck_right	1	283	6	6	antiphase_hc_ois.wav	3	5	4	noise_calib_stim_RIGHT.wav	2	1				0	
6.6.1	mac	2023-07-07	10:04:54	10:14:26	569117	5f846dd4e962ce0bf61b95fb	4	1	stereocheck_testphase	18	stereocheck_test_collectResponse	18	stimuli_distractor_diamondtriangles.svg	stimuli_distractor_diamondtriangles.svg	40	no	stereocheck_left	1	268	6	6	antiphase_hc_ois.wav	3	6	3	noise_calib_stim_LEFT.wav	1	1				0	
6.6.1	mac	2023-07-07	10:04:54	10:14:26	569117	5f846dd4e962ce0bf61b95fb	4	1	DL_practice	21	DL_practice	2	stimuli_distractor_diamondtriangles.svg	stimuli_distractor_diamondtriangles.svg	40	no	ka	1	1101	6	6	antiphase_hc_ois.wav	3	6	3	noise_calib_stim_LEFT.wav	1	22	blb_dichoticlistening_ka-ka.mp3	ka	ka	0	left
6.6.1	mac	2023-07-07	10:04:54	10:14:26	569117	5f846dd4e962ce0bf61b95fb	4	1	DL_practice	21	DL_practice	3	stimuli_distractor_diamondtriangles.svg	stimuli_distractor_diamondtriangles.svg	40	no	da	0	1002	6	6	antiphase_hc_ois.wav	3	6	3	noise_calib_stim_LEFT.wav	1	1	blb_dichoticlistening_ba-ba.mp3	ba	ba	0	other
6.6.1	mac	2023-07-07	10:04:54	10:14:26	569117	5f846dd4e962ce0bf61b95fb	4	1	DL_practice	21	DL_practice	4	stimuli_distractor_diamondtriangles.svg	stimuli_distractor_diamondtriangles.svg	40	no	ka	1	1202	6	6	antiphase_hc_ois.wav	3	6	3	noise_calib_stim_LEFT.wav	1	23	blb_dichoticlistening_ka-pa.mp3	ka	pa	1	left
6.6.1	mac	2023-07-07	10:04:54	10:14:26	569117	5f846dd4e962ce0bf61b95fb	4	1	DL_practice	21	DL_practice	5	stimuli_distractor_diamondtriangles.svg	stimuli_distractor_diamondtriangles.svg	40	no	da	1	1136	6	6	antiphase_hc_ois.wav	3	6	3	noise_calib_stim_LEFT.wav	1	8	blb_dichoticlistening_da-da.mp3	da	da	0	left
6.6.1	mac	2023-07-07	10:04:54	10:14:26	569117	5f846dd4e962ce0bf61b95fb	4	1	DL_practice	21	DL_practice	6	stimuli_distractor_diamondtriangles.svg	stimuli_distractor_diamondtriangles.svg	40	no	ga	1	668	6	6	antiphase_hc_ois.wav	3	6	3	noise_calib_stim_LEFT.wav	1	15	blb_dichoticlistening_ga-ga.mp3	ga	ga	0	left
6.6.1	mac	2023-07-07	10:04:54	10:14:26	569117	5f846dd4e962ce0bf61b95fb	4	1	DL_practice	21	DL_practice	7	stimuli_distractor_diamondtriangles.svg	stimuli_distractor_diamondtriangles.svg	40	no	ga	1	653	6	6	antiphase_hc_ois.wav	3	6	3	noise_calib_stim_LEFT.wav	1	18	blb_dichoticlistening_ga-ta.mp3	ga	ta	1	left
6.6.1	mac	2023-07-07	10:04:54	10:14:26	569117	5f846dd4e962ce0bf61b95fb	4	1	DL_practice	21	DL_practice	8	stimuli_distractor_diamondtriangles.svg	stimuli_distractor_diamondtriangles.svg	40	no	pa	1	885	6	6	antiphase_hc_ois.wav	3	6	3	noise_calib_stim_LEFT.wav	1	29	blb_dichoticlistening_pa-pa.mp3	pa	pa	0	left
6.6.1	mac	2023-07-07	10:04:54	10:14:26	569117	5f846dd4e962ce0bf61b95fb	4	1	DL_practice	21	DL_practice	9	stimuli_distractor_diamondtriangles.svg	stimuli_distractor_diamondtriangles.svg	40	no	ba	1	1335	6	6	antiphase_hc_ois.wav	3	6	3	noise_calib_stim_LEFT.wav	1	7	blb_dichoticlistening_da-ba.mp3	da	ba	1	right
6.6.1	mac	2023-07-07	10:04:54	10:14:26	569117	5f846dd4e962ce0bf61b95fb	4	1	DL_practice	21	DL_practice	10	stimuli_distractor_diamondtriangles.svg	stimuli_distractor_diamondtriangles.svg	40	no	ta	1	952	6	6	antiphase_hc_ois.wav	3	6	3	noise_calib_stim_LEFT.wav	1	36	blb_dichoticlistening_ta-ta.mp3	ta	ta	0	left
6.6.1	mac	2023-07-07	10:04:54	10:14:26	569117	5f846dd4e962ce0bf61b95fb	4	1	DL_test	23	DL_test	1	stimuli_distractor_diamondtriangles.svg	stimuli_distractor_diamondtriangles.svg	40	no	da	1	852	6	6	antiphase_hc_ois.wav	3	6	3	noise_calib_stim_LEFT.wav	1	32	blb_dichoticlistening_ta-da.mp3	ta	da	1	right
6.6.1	mac	2023-07-07	10:04:54	10:14:26	569117	5f846dd4e962ce0bf61b95fb	4	1	DL_test	23	DL_test	2	stimuli_distractor_diamondtriangles.svg	stimuli_distractor_diamondtriangles.svg	40	no	da	1	718	6	6	antiphase_hc_ois.wav	3	6	3	noise_calib_stim_LEFT.wav	1	12	blb_dichoticlistening_da-ta.mp3	da	ta	1	left
6.6.1	mac	2023-07-07	10:04:54	10:14:26	569117	5f846dd4e962ce0bf61b95fb	4	1	DL_test	23	DL_test	3	stimuli_distractor_diamondtriangles.svg	stimuli_distractor_diamondtriangles.svg	40	no	da	0	618	6	6	antiphase_hc_ois.wav	3	6	3	noise_calib_stim_LEFT.wav	1	6	blb_dichoticlistening_ba-ta.mp3	ba	ta	1	other
6.6.1	mac	2023-07-07	10:04:54	10:14:26	569117	5f846dd4e962ce0bf61b95fb	4	1	DL_test	23	DL_test	4	stimuli_distractor_diamondtriangles.svg	stimuli_distractor_diamondtriangles.svg	40	no	ga	1	818	6	6	antiphase_hc_ois.wav	3	6	3	noise_calib_stim_LEFT.wav	1	17	blb_dichoticlistening_ga-pa.mp3	ga	pa	1	left
6.6.1	mac	2023-07-07	10:04:54	10:14:26	569117	5f846dd4e962ce0bf61b95fb	4	1	DL_test	23	DL_test	5	stimuli_distractor_diamondtriangles.svg	stimuli_distractor_diamondtriangles.svg	40	no	pa	0	951	6	6	antiphase_hc_ois.wav	3	6	3	noise_calib_stim_LEFT.wav	1	19	blb_dichoticlistening_ka-ba.mp3	ka	ba	1	other
6.6.1	mac	2023-07-07	10:04:54	10:14:26	569117	5f846dd4e962ce0bf61b95fb	4	1	DL_test	23	DL_test	6	stimuli_distractor_diamondtriangles.svg	stimuli_distractor_diamondtriangles.svg	40	no	pa	0	619	6	6	antiphase_hc_ois.wav	3	6	3	noise_calib_stim_LEFT.wav	1	3	blb_dichoticlistening_ba-ga.mp3	ba	ga	1	other
6.6.1	mac	2023-07-07	10:04:54	10:14:26	569117	5f846dd4e962ce0bf61b95fb	4	1	DL_test	23	DL_test	7	stimuli_distractor_diamondtriangles.svg	stimuli_distractor_diamondtriangles.svg	40	no	ba	1	1351	6	6	antiphase_hc_ois.wav	3	6	3	noise_calib_stim_LEFT.wav	1	25	blb_dichoticlistening_pa-ba.mp3	pa	ba	1	right
6.6.1	mac	2023-07-07	10:04:54	10:14:26	569117	5f846dd4e962ce0bf61b95fb	4	1	DL_test	23	DL_test	8	stimuli_distractor_diamondtriangles.svg	stimuli_distractor_diamondtriangles.svg	40	no	ga	1	785	6	6	antiphase_hc_ois.wav	3	6	3	noise_calib_stim_LEFT.wav	1	27	blb_dichoticlistening_pa-ga.mp3	pa	ga	1	right
6.6.1	mac	2023-07-07	10:04:54	10:14:26	569117	5f846dd4e962ce0bf61b95fb	4	1	DL_test	23	DL_test	9	stimuli_distractor_diamondtriangles.svg	stimuli_distractor_diamondtriangles.svg	40	no	ga	1	785	6	6	antiphase_hc_ois.wav	3	6	3	noise_calib_stim_LEFT.wav	1	15	blb_dichoticlistening_ga-ga.mp3	ga	ga	0	left
6.6.1	mac	2023-07-07	10:04:54	10:14:26	569117	5f846dd4e962ce0bf61b95fb	4	1	DL_test	23	DL_test	10	stimuli_distractor_diamondtriangles.svg	stimuli_distractor_diamondtriangles.svg	40	no	ta	1	785	6	6	antiphase_hc_ois.wav	3	6	3	noise_calib_stim_LEFT.wav	1	36	blb_dichoticlistening_ta-ta.mp3	ta	ta	0	left
6.6.1	mac	2023-07-07	10:04:54	10:14:26	569117	5f846dd4e962ce0bf61b95fb	4	1	DL_test	23	DL_test	11	stimuli_distractor_diamondtriangles.svg	stimuli_distractor_diamondtriangles.svg	40	no	ga	1	1018	6	6	antiphase_hc_ois.wav	3	6	3	noise_calib_stim_LEFT.wav	1	14	blb_dichoticlistening_ga-da.mp3	ga	da	1	left
6.6.1	mac	2023-07-07	10:04:54	10:14:26	569117	5f846dd4e962ce0bf61b95fb	4	1	DL_test	23	DL_test	12	stimuli_distractor_diamondtriangles.svg	stimuli_distractor_diamondtriangles.svg	40	no	ba	1	1218	6	6	antiphase_hc_ois.wav	3	6	3	noise_calib_stim_LEFT.wav	1	1	blb_dichoticlistening_ba-ba.mp3	ba	ba	0	left
6.6.1	mac	2023-07-07	10:04:54	10:14:26	569117	5f846dd4e962ce0bf61b95fb	4	1	DL_test	23	DL_test	13	stimuli_distractor_diamondtriangles.svg	stimuli_distractor_diamondtriangles.svg	40	no	ba	1	735	6	6	antiphase_hc_ois.wav	3	6	3	noise_calib_stim_LEFT.wav	1	5	blb_dichoticlistening_ba-pa.mp3	ba	pa	1	left
6.6.1	mac	2023-07-07	10:04:54	10:14:26	569117	5f846dd4e962ce0bf61b95fb	4	1	DL_test	23	DL_test	14	stimuli_distractor_diamondtriangles.svg	stimuli_distractor_diamondtriangles.svg	40	no	ba	1	518	6	6	antiphase_hc_ois.wav	3	6	3	noise_calib_stim_LEFT.wav	1	13	blb_dichoticlistening_ga-ba.mp3	ga	ba	1	right
6.6.1	mac	2023-07-07	10:04:54	10:14:26	569117	5f846dd4e962ce0bf61b95fb	4	1	DL_test	23	DL_test	15	stimuli_distractor_diamondtriangles.svg	stimuli_distractor_diamondtriangles.svg	40	no	ba	1	485	6	6	antiphase_hc_ois.wav	3	6	3	noise_calib_stim_LEFT.wav	1	4	blb_dichoticlistening_ba-ka.mp3	ba	ka	1	left
6.6.1	mac	2023-07-07	10:04:54	10:14:26	569117	5f846dd4e962ce0bf61b95fb	4	1	DL_test	23	DL_test	16	stimuli_distractor_diamondtriangles.svg	stimuli_distractor_diamondtriangles.svg	40	no	ga	1	819	6	6	antiphase_hc_ois.wav	3	6	3	noise_calib_stim_LEFT.wav	1	9	blb_dichoticlistening_da-ga.mp3	da	ga	1	right
6.6.1	mac	2023-07-07	10:04:54	10:14:26	569117	5f846dd4e962ce0bf61b95fb	4	1	DL_test	23	DL_test	17	stimuli_distractor_diamondtriangles.svg	stimuli_distractor_diamondtriangles.svg	40	no	da	1	885	6	6	antiphase_hc_ois.wav	3	6	3	noise_calib_stim_LEFT.wav	1	8	blb_dichoticlistening_da-da.mp3	da	da	0	left
6.6.1	mac	2023-07-07	10:04:54	10:14:26	569117	5f846dd4e962ce0bf61b95fb	4	1	DL_test	23	DL_test	18	stimuli_distractor_diamondtriangles.svg	stimuli_distractor_diamondtriangles.svg	40	no	ta	1	1135	6	6	antiphase_hc_ois.wav	3	6	3	noise_calib_stim_LEFT.wav	1	35	blb_dichoticlistening_ta-pa.mp3	ta	pa	1	left
6.6.1	mac	2023-07-07	10:04:54	10:14:26	569117	5f846dd4e962ce0bf61b95fb	4	1	DL_test	23	DL_test	19	stimuli_distractor_diamondtriangles.svg	stimuli_distractor_diamondtriangles.svg	40	no	ta	1	552	6	6	antiphase_hc_ois.wav	3	6	3	noise_calib_stim_LEFT.wav	1	30	blb_dichoticlistening_pa-ta.mp3	pa	ta	1	right
6.6.1	mac	2023-07-07	10:04:54	10:14:26	569117	5f846dd4e962ce0bf61b95fb	4	1	DL_test	23	DL_test	20	stimuli_distractor_diamondtriangles.svg	stimuli_distractor_diamondtriangles.svg	40	no	pa	1	738	6	6	antiphase_hc_ois.wav	3	6	3	noise_calib_stim_LEFT.wav	1	29	blb_dichoticlistening_pa-pa.mp3	pa	pa	0	left
6.6.1	mac	2023-07-07	10:04:54	10:14:26	569117	5f846dd4e962ce0bf61b95fb	4	1	DL_test	23	DL_test	21	stimuli_distractor_diamondtriangles.svg	stimuli_distractor_diamondtriangles.svg	40	no	ga	1	1051	6	6	antiphase_hc_ois.wav	3	6	3	noise_calib_stim_LEFT.wav	1	16	blb_dichoticlistening_ga-ka.mp3	ga	ka	1	left
6.6.1	mac	2023-07-07	10:04:54	10:14:26	569117	5f846dd4e962ce0bf61b95fb	4	1	DL_test	23	DL_test	22	stimuli_distractor_diamondtriangles.svg	stimuli_distractor_diamondtriangles.svg	40	no	ka	1	785	6	6	antiphase_hc_ois.wav	3	6	3	noise_calib_stim_LEFT.wav	1	34	blb_dichoticlistening_ta-ka.mp3	ta	ka	1	right
6.6.1	mac	2023-07-07	10:04:54	10:14:26	569117	5f846dd4e962ce0bf61b95fb	4	1	DL_test	23	DL_test	23	stimuli_distractor_diamondtriangles.svg	stimuli_distractor_diamondtriangles.svg	40	no	ka	1	519	6	6	antiphase_hc_ois.wav	3	6	3	noise_calib_stim_LEFT.wav	1	23	blb_dichoticlistening_ka-pa.mp3	ka	pa	1	left
6.6.1	mac	2023-07-07	10:04:54	10:14:26	569117	5f846dd4e962ce0bf61b95fb	4	1	DL_test	23	DL_test	24	stimuli_distractor_diamondtriangles.svg	stimuli_distractor_diamondtriangles.svg	40	no	ga	0	768	6	6	antiphase_hc_ois.wav	3	6	3	noise_calib_stim_LEFT.wav	1	20	blb_dichoticlistening_ka-da.mp3	ka	da	1	other
6.6.1	mac	2023-07-07	10:04:54	10:14:26	569117	5f846dd4e962ce0bf61b95fb	4	1	DL_test	23	DL_test	25	stimuli_distractor_diamondtriangles.svg	stimuli_distractor_diamondtriangles.svg	40	no	da	1	1102	6	6	antiphase_hc_ois.wav	3	6	3	noise_calib_stim_LEFT.wav	1	11	blb_dichoticlistening_da-pa.mp3	da	pa	1	left
6.6.1	mac	2023-07-07	10:04:54	10:14:26	569117	5f846dd4e962ce0bf61b95fb	4	1	DL_test	23	DL_test	26	stimuli_distractor_diamondtriangles.svg	stimuli_distractor_diamondtriangles.svg	40	no	ka	1	901	6	6	antiphase_hc_ois.wav	3	6	3	noise_calib_stim_LEFT.wav	1	24	blb_dichoticlistening_ka-ta.mp3	ka	ta	1	left
