build	computer.platform	date	time	timestamp	time_elapsed_ms	subject	group	session	blockcode	blocknum	trialcode	trialnum	stimulus_left	stimulus_right	stim_index	target_present	response	correct	latency	headphonecheck_countTestTrials	headphonecheck_index	headphonecheck_testSound	headphonecheck_correctResponse	stereocheck_countTestTrials	stereocheck_index	stereocheck_testSound	stereocheck_correctResponse	DL_index	DL_soundfile	DL_leftSound	DL_rightSound	DL_dualSound	DL_choice
6.6.1	win	2023-06-27	18:50:48	18:54:23	209806	6365491e5682032c1c2a6687	3	1	practice_slash	5	practice_slash	1	stimuli_target_squarediamonds.svg	stimuli_distractor_diamondtriangles.svg	2	yes	53	1	1710	0	0			0	0			1				0	
6.6.1	win	2023-06-27	18:50:48	18:54:23	209806	6365491e5682032c1c2a6687	3	1	practice_slash	5	advance_on_keypress_SLASH	2	stimuli_target_squarediamonds.svg	stimuli_distractor_diamondtriangles.svg	2	yes	57	0	1502	0	0			0	0			1				0	
6.6.1	win	2023-06-27	18:50:48	18:54:28	214963	6365491e5682032c1c2a6687	3	1	practice_slash	5	practice_slash	3	stimuli_distractor_trianglediamonds.svg	stimuli_distractor_diamondtriangles.svg	16	no	0	1	2000	0	0			0	0			1				0	
6.6.1	win	2023-06-27	18:50:48	18:54:28	214963	6365491e5682032c1c2a6687	3	1	practice_slash	5	advance_on_keypress_SLASH	4	stimuli_distractor_trianglediamonds.svg	stimuli_distractor_diamondtriangles.svg	16	no	57	0	1146	0	0			0	0			1				0	
6.6.1	win	2023-06-27	18:50:48	18:54:31	218703	6365491e5682032c1c2a6687	3	1	practice_slash	5	practice_slash	5	stimuli_distractor_diamondtriangles.svg	stimuli_target_rectangletriangles.svg	7	yes	53	1	918	0	0			0	0			1				0	
6.6.1	win	2023-06-27	18:50:48	18:54:31	218703	6365491e5682032c1c2a6687	3	1	practice_slash	5	advance_on_keypress_SLASH	6	stimuli_distractor_diamondtriangles.svg	stimuli_target_rectangletriangles.svg	7	yes	57	0	786	0	0			0	0			1				0	
6.6.1	win	2023-06-27	18:50:48	18:54:34	221750	6365491e5682032c1c2a6687	3	1	practice_slash	5	practice_slash	7	stimuli_target_rectanglediamonds.svg	stimuli_distractor_diamondtriangles.svg	1	yes	53	1	621	0	0			0	0			1				0	
6.6.1	win	2023-06-27	18:50:48	18:54:34	221750	6365491e5682032c1c2a6687	3	1	practice_slash	5	advance_on_keypress_SLASH	8	stimuli_target_rectanglediamonds.svg	stimuli_distractor_diamondtriangles.svg	1	yes	57	0	251	0	0			0	0			1				0	
6.6.1	win	2023-06-27	18:50:48	18:54:38	225645	6365491e5682032c1c2a6687	3	1	practice_slash	5	practice_slash	9	stimuli_distractor_trianglediamonds.svg	stimuli_target_diamondrectangles.svg	12	yes	0	0	2000	0	0			0	0			1				0	
6.6.1	win	2023-06-27	18:50:48	18:54:38	225645	6365491e5682032c1c2a6687	3	1	practice_slash	5	advance_on_keypress_SLASH	10	stimuli_distractor_trianglediamonds.svg	stimuli_target_diamondrectangles.svg	12	yes	57	0	532	0	0			0	0			1				0	
6.6.1	win	2023-06-27	18:50:48	18:54:41	228546	6365491e5682032c1c2a6687	3	1	practice_slash	5	practice_slash	11	stimuli_distractor_trianglediamonds.svg	stimuli_target_rectanglediamonds.svg	10	yes	53	1	718	0	0			0	0			1				0	
6.6.1	win	2023-06-27	18:50:48	18:54:41	228546	6365491e5682032c1c2a6687	3	1	practice_slash	5	advance_on_keypress_SLASH	12	stimuli_distractor_trianglediamonds.svg	stimuli_target_rectanglediamonds.svg	10	yes	57	0	318	0	0			0	0			1				0	
6.6.1	win	2023-06-27	18:50:48	18:54:44	231579	6365491e5682032c1c2a6687	3	1	practice_slash	5	practice_slash	13	stimuli_target_diamondsquares.svg	stimuli_distractor_trianglediamonds.svg	6	yes	53	1	1069	0	0			0	0			1				0	
6.6.1	win	2023-06-27	18:50:48	18:54:44	231579	6365491e5682032c1c2a6687	3	1	practice_slash	5	advance_on_keypress_SLASH	14	stimuli_target_diamondsquares.svg	stimuli_distractor_trianglediamonds.svg	6	yes	57	0	348	0	0			0	0			1				0	
6.6.1	win	2023-06-27	18:50:48	18:54:47	234356	6365491e5682032c1c2a6687	3	1	practice_slash	5	practice_slash	15	stimuli_target_rectanglediamonds.svg	stimuli_distractor_trianglediamonds.svg	4	yes	53	1	781	0	0			0	0			1				0	
6.6.1	win	2023-06-27	18:50:48	18:54:47	234356	6365491e5682032c1c2a6687	3	1	practice_slash	5	advance_on_keypress_SLASH	16	stimuli_target_rectanglediamonds.svg	stimuli_distractor_trianglediamonds.svg	4	yes	57	0	380	0	0			0	0			1				0	
6.6.1	win	2023-06-27	18:50:48	18:54:51	238392	6365491e5682032c1c2a6687	3	1	practice_slash	5	practice_slash	17	stimuli_distractor_diamondtriangles.svg	stimuli_distractor_trianglediamonds.svg	14	no	0	1	2000	0	0			0	0			1				0	
6.6.1	win	2023-06-27	18:50:48	18:54:51	238392	6365491e5682032c1c2a6687	3	1	practice_slash	5	advance_on_keypress_SLASH	18	stimuli_distractor_diamondtriangles.svg	stimuli_distractor_trianglediamonds.svg	14	no	57	0	649	0	0			0	0			1				0	
6.6.1	win	2023-06-27	18:50:48	18:54:54	241498	6365491e5682032c1c2a6687	3	1	practice_slash	5	practice_slash	19	stimuli_target_squarediamonds.svg	stimuli_distractor_trianglediamonds.svg	5	yes	53	1	806	0	0			0	0			1				0	
6.6.1	win	2023-06-27	18:50:48	18:54:54	241498	6365491e5682032c1c2a6687	3	1	practice_slash	5	advance_on_keypress_SLASH	20	stimuli_target_squarediamonds.svg	stimuli_distractor_trianglediamonds.svg	5	yes	57	0	4208	0	0			0	0			1				0	
6.6.1	win	2023-06-27	18:50:48	18:55:02	249281	6365491e5682032c1c2a6687	3	1	practice_slash	5	practice_slash	21	stimuli_distractor_diamondtriangles.svg	stimuli_target_trianglerectangles.svg	9	yes	53	1	1940	0	0			0	0			1				0	
6.6.1	win	2023-06-27	18:50:48	18:55:02	249281	6365491e5682032c1c2a6687	3	1	practice_slash	5	advance_on_keypress_SLASH	22	stimuli_distractor_diamondtriangles.svg	stimuli_target_trianglerectangles.svg	9	yes	57	0	667	0	0			0	0			1				0	
6.6.1	win	2023-06-27	18:50:48	18:55:06	253170	6365491e5682032c1c2a6687	3	1	practice_slash	5	practice_slash	23	stimuli_distractor_diamondtriangles.svg	stimuli_target_diamondrectangles.svg	8	yes	53	1	1580	0	0			0	0			1				0	
6.6.1	win	2023-06-27	18:50:48	18:55:06	253170	6365491e5682032c1c2a6687	3	1	practice_slash	5	advance_on_keypress_SLASH	24	stimuli_distractor_diamondtriangles.svg	stimuli_target_diamondrectangles.svg	8	yes	57	0	1568	0	0			0	0			1				0	
6.6.1	win	2023-06-27	18:50:48	18:55:10	257063	6365491e5682032c1c2a6687	3	1	practice_slash	5	practice_slash	25	stimuli_distractor_trianglediamonds.svg	stimuli_target_squarediamonds.svg	11	yes	53	1	674	0	0			0	0			1				0	
6.6.1	win	2023-06-27	18:50:48	18:55:10	257063	6365491e5682032c1c2a6687	3	1	practice_slash	5	advance_on_keypress_SLASH	26	stimuli_distractor_trianglediamonds.svg	stimuli_target_squarediamonds.svg	11	yes	57	0	33	0	0			0	0			1				0	
6.6.1	win	2023-06-27	18:50:48	18:55:12	259297	6365491e5682032c1c2a6687	3	1	practice_slash	5	practice_slash	27	stimuli_target_diamondsquares.svg	stimuli_distractor_diamondtriangles.svg	3	yes	53	1	558	0	0			0	0			1				0	
6.6.1	win	2023-06-27	18:50:48	18:55:12	259297	6365491e5682032c1c2a6687	3	1	practice_slash	5	advance_on_keypress_SLASH	28	stimuli_target_diamondsquares.svg	stimuli_distractor_diamondtriangles.svg	3	yes	57	0	129	0	0			0	0			1				0	
6.6.1	win	2023-06-27	18:50:48	18:55:16	263072	6365491e5682032c1c2a6687	3	1	practice_slash	5	practice_slash	29	stimuli_distractor_trianglediamonds.svg	stimuli_distractor_trianglediamonds.svg	15	no	0	1	2000	0	0			0	0			1				0	
6.6.1	win	2023-06-27	18:50:48	18:55:16	263072	6365491e5682032c1c2a6687	3	1	practice_slash	5	advance_on_keypress_SLASH	30	stimuli_distractor_trianglediamonds.svg	stimuli_distractor_trianglediamonds.svg	15	no	57	0	77	0	0			0	0			1				0	
6.6.1	win	2023-06-27	18:50:48	18:55:20	266805	6365491e5682032c1c2a6687	3	1	practice_slash	5	practice_slash	31	stimuli_distractor_diamondtriangles.svg	stimuli_distractor_diamondtriangles.svg	13	no	0	1	2000	0	0			0	0			1				0	
6.6.1	win	2023-06-27	18:50:48	18:55:20	266805	6365491e5682032c1c2a6687	3	1	practice_slash	5	advance_on_keypress_SLASH	32	stimuli_distractor_diamondtriangles.svg	stimuli_distractor_diamondtriangles.svg	13	no	57	0	545	0	0			0	0			1				0	
6.6.1	win	2023-06-27	18:50:48	18:55:27	274745	6365491e5682032c1c2a6687	3	1	main_slash	7	main_slash	1	stimuli_target_rectangletriangles.svg	stimuli_distractor_trianglediamonds.svg	1	yes	53	1	760	0	0			0	0			1				0	
6.6.1	win	2023-06-27	18:50:48	18:55:27	274745	6365491e5682032c1c2a6687	3	1	main_slash	7	advance_on_keypress_SLASH	2	stimuli_target_rectangletriangles.svg	stimuli_distractor_trianglediamonds.svg	1	yes	57	0	226	0	0			0	0			1				0	
6.6.1	win	2023-06-27	18:50:48	18:55:29	276573	6365491e5682032c1c2a6687	3	1	main_slash	7	main_slash	3	stimuli_distractor_diamondtriangles.svg	stimuli_target_rectanglediamonds.svg	14	yes	53	1	955	0	0			0	0			1				0	
6.6.1	win	2023-06-27	18:50:48	18:55:29	276573	6365491e5682032c1c2a6687	3	1	main_slash	7	advance_on_keypress_SLASH	4	stimuli_distractor_diamondtriangles.svg	stimuli_target_rectanglediamonds.svg	14	yes	57	0	134	0	0			0	0			1				0	
6.6.1	win	2023-06-27	18:50:48	18:55:31	278003	6365491e5682032c1c2a6687	3	1	main_slash	7	main_slash	5	stimuli_target_rectanglediamonds.svg	stimuli_distractor_diamondtriangles.svg	6	yes	53	1	652	0	0			0	0			1				0	
6.6.1	win	2023-06-27	18:50:48	18:55:31	278003	6365491e5682032c1c2a6687	3	1	main_slash	7	advance_on_keypress_SLASH	6	stimuli_target_rectanglediamonds.svg	stimuli_distractor_diamondtriangles.svg	6	yes	57	0	191	0	0			0	0			1				0	
6.6.1	win	2023-06-27	18:50:48	18:55:32	279429	6365491e5682032c1c2a6687	3	1	main_slash	7	main_slash	7	stimuli_distractor_trianglediamonds.svg	stimuli_target_rectangletriangles.svg	9	yes	53	1	595	0	0			0	0			1				0	
6.6.1	win	2023-06-27	18:50:48	18:55:32	279429	6365491e5682032c1c2a6687	3	1	main_slash	7	advance_on_keypress_SLASH	8	stimuli_distractor_trianglediamonds.svg	stimuli_target_rectangletriangles.svg	9	yes	57	0	164	0	0			0	0			1				0	
6.6.1	win	2023-06-27	18:50:48	18:55:35	282234	6365491e5682032c1c2a6687	3	1	main_slash	7	main_slash	9	stimuli_distractor_trianglediamonds.svg	stimuli_distractor_trianglediamonds.svg	33	no	0	1	2000	0	0			0	0			1				0	
6.6.1	win	2023-06-27	18:50:48	18:55:35	282234	6365491e5682032c1c2a6687	3	1	main_slash	7	advance_on_keypress_SLASH	10	stimuli_distractor_trianglediamonds.svg	stimuli_distractor_trianglediamonds.svg	33	no	57	0	474	0	0			0	0			1				0	
6.6.1	win	2023-06-27	18:50:48	18:55:37	283920	6365491e5682032c1c2a6687	3	1	main_slash	7	main_slash	11	stimuli_target_rectangletriangles.svg	stimuli_distractor_diamondtriangles.svg	5	yes	53	1	571	0	0			0	0			1				0	
6.6.1	win	2023-06-27	18:50:48	18:55:37	283920	6365491e5682032c1c2a6687	3	1	main_slash	7	advance_on_keypress_SLASH	12	stimuli_target_rectangletriangles.svg	stimuli_distractor_diamondtriangles.svg	5	yes	57	0	117	0	0			0	0			1				0	
6.6.1	win	2023-06-27	18:50:48	18:55:38	285168	6365491e5682032c1c2a6687	3	1	main_slash	7	main_slash	13	stimuli_target_rectanglediamonds.svg	stimuli_distractor_trianglediamonds.svg	2	yes	53	1	485	0	0			0	0			1				0	
6.6.1	win	2023-06-27	18:50:48	18:55:38	285168	6365491e5682032c1c2a6687	3	1	main_slash	7	advance_on_keypress_SLASH	14	stimuli_target_rectanglediamonds.svg	stimuli_distractor_trianglediamonds.svg	2	yes	57	0	111	0	0			0	0			1				0	
6.6.1	win	2023-06-27	18:50:48	18:55:41	287845	6365491e5682032c1c2a6687	3	1	main_slash	7	main_slash	15	stimuli_target_diamondsquares.svg	stimuli_distractor_diamondtriangles.svg	24	yes	53	1	1928	0	0			0	0			1				0	
6.6.1	win	2023-06-27	18:50:48	18:55:41	287845	6365491e5682032c1c2a6687	3	1	main_slash	7	advance_on_keypress_SLASH	16	stimuli_target_diamondsquares.svg	stimuli_distractor_diamondtriangles.svg	24	yes	57	0	399	0	0			0	0			1				0	
6.6.1	win	2023-06-27	18:50:48	18:55:43	290001	6365491e5682032c1c2a6687	3	1	main_slash	7	main_slash	17	stimuli_distractor_trianglediamonds.svg	stimuli_target_squarediamonds.svg	12	yes	53	1	1101	0	0			0	0			1				0	
6.6.1	win	2023-06-27	18:50:48	18:55:43	290001	6365491e5682032c1c2a6687	3	1	main_slash	7	advance_on_keypress_SLASH	18	stimuli_distractor_trianglediamonds.svg	stimuli_target_squarediamonds.svg	12	yes	57	0	227	0	0			0	0			1				0	
6.6.1	win	2023-06-27	18:50:48	18:55:45	291968	6365491e5682032c1c2a6687	3	1	main_slash	7	main_slash	19	stimuli_target_diamondrectangles.svg	stimuli_distractor_diamondtriangles.svg	23	yes	53	1	1102	0	0			0	0			1				0	
6.6.1	win	2023-06-27	18:50:48	18:55:45	291968	6365491e5682032c1c2a6687	3	1	main_slash	7	advance_on_keypress_SLASH	20	stimuli_target_diamondrectangles.svg	stimuli_distractor_diamondtriangles.svg	23	yes	57	0	444	0	0			0	0			1				0	
6.6.1	win	2023-06-27	18:50:48	18:55:46	293738	6365491e5682032c1c2a6687	3	1	main_slash	7	main_slash	21	stimuli_distractor_diamondtriangles.svg	stimuli_target_squarediamonds.svg	16	yes	53	1	690	0	0			0	0			1				0	
6.6.1	win	2023-06-27	18:50:48	18:55:46	293738	6365491e5682032c1c2a6687	3	1	main_slash	7	advance_on_keypress_SLASH	22	stimuli_distractor_diamondtriangles.svg	stimuli_target_squarediamonds.svg	16	yes	57	0	206	0	0			0	0			1				0	
6.6.1	win	2023-06-27	18:50:48	18:55:49	296581	6365491e5682032c1c2a6687	3	1	main_slash	7	main_slash	23	stimuli_distractor_trianglediamonds.svg	stimuli_target_diamondsquares.svg	28	yes	0	0	2000	0	0			0	0			1				0	
6.6.1	win	2023-06-27	18:50:48	18:55:49	296581	6365491e5682032c1c2a6687	3	1	main_slash	7	advance_on_keypress_SLASH	24	stimuli_distractor_trianglediamonds.svg	stimuli_target_diamondsquares.svg	28	yes	57	0	494	0	0			0	0			1				0	
6.6.1	win	2023-06-27	18:50:48	18:55:51	298309	6365491e5682032c1c2a6687	3	1	main_slash	7	main_slash	25	stimuli_distractor_trianglediamonds.svg	stimuli_target_squaretriangles.svg	11	yes	53	1	595	0	0			0	0			1				0	
6.6.1	win	2023-06-27	18:50:48	18:55:51	298309	6365491e5682032c1c2a6687	3	1	main_slash	7	advance_on_keypress_SLASH	26	stimuli_distractor_trianglediamonds.svg	stimuli_target_squaretriangles.svg	11	yes	57	0	148	0	0			0	0			1				0	
6.6.1	win	2023-06-27	18:50:48	18:55:52	299757	6365491e5682032c1c2a6687	3	1	main_slash	7	main_slash	27	stimuli_target_trianglesquares.svg	stimuli_distractor_trianglediamonds.svg	18	yes	53	1	660	0	0			0	0			1				0	
6.6.1	win	2023-06-27	18:50:48	18:55:52	299757	6365491e5682032c1c2a6687	3	1	main_slash	7	advance_on_keypress_SLASH	28	stimuli_target_trianglesquares.svg	stimuli_distractor_trianglediamonds.svg	18	yes	57	0	119	0	0			0	0			1				0	
6.6.1	win	2023-06-27	18:50:48	18:55:54	301121	6365491e5682032c1c2a6687	3	1	main_slash	7	main_slash	29	stimuli_target_diamondrectangles.svg	stimuli_distractor_trianglediamonds.svg	19	yes	53	1	607	0	0			0	0			1				0	
6.6.1	win	2023-06-27	18:50:48	18:55:54	301121	6365491e5682032c1c2a6687	3	1	main_slash	7	advance_on_keypress_SLASH	30	stimuli_target_diamondrectangles.svg	stimuli_distractor_trianglediamonds.svg	19	yes	57	0	108	0	0			0	0			1				0	
6.6.1	win	2023-06-27	18:50:48	18:55:56	302961	6365491e5682032c1c2a6687	3	1	main_slash	7	main_slash	31	stimuli_target_squaretriangles.svg	stimuli_distractor_diamondtriangles.svg	7	yes	53	1	1098	0	0			0	0			1				0	
6.6.1	win	2023-06-27	18:50:48	18:55:56	302961	6365491e5682032c1c2a6687	3	1	main_slash	7	advance_on_keypress_SLASH	32	stimuli_target_squaretriangles.svg	stimuli_distractor_diamondtriangles.svg	7	yes	57	0	29	0	0			0	0			1				0	
6.6.1	win	2023-06-27	18:50:48	18:55:57	304523	6365491e5682032c1c2a6687	3	1	main_slash	7	main_slash	33	stimuli_distractor_diamondtriangles.svg	stimuli_target_squaretriangles.svg	15	yes	53	1	876	0	0			0	0			1				0	
6.6.1	win	2023-06-27	18:50:48	18:55:57	304523	6365491e5682032c1c2a6687	3	1	main_slash	7	advance_on_keypress_SLASH	34	stimuli_distractor_diamondtriangles.svg	stimuli_target_squaretriangles.svg	15	yes	57	0	228	0	0			0	0			1				0	
6.6.1	win	2023-06-27	18:50:48	18:56:00	307380	6365491e5682032c1c2a6687	3	1	main_slash	7	main_slash	35	stimuli_distractor_trianglediamonds.svg	stimuli_distractor_diamondtriangles.svg	36	no	0	1	2000	0	0			0	0			1				0	
6.6.1	win	2023-06-27	18:50:48	18:56:00	307380	6365491e5682032c1c2a6687	3	1	main_slash	7	advance_on_keypress_SLASH	36	stimuli_distractor_trianglediamonds.svg	stimuli_distractor_diamondtriangles.svg	36	no	57	0	677	0	0			0	0			1				0	
6.6.1	win	2023-06-27	18:50:48	18:56:03	310697	6365491e5682032c1c2a6687	3	1	main_slash	7	main_slash	37	stimuli_distractor_diamondtriangles.svg	stimuli_distractor_trianglediamonds.svg	37	no	0	1	2000	0	0			0	0			1				0	
6.6.1	win	2023-06-27	18:50:48	18:56:03	310697	6365491e5682032c1c2a6687	3	1	main_slash	7	advance_on_keypress_SLASH	38	stimuli_distractor_diamondtriangles.svg	stimuli_distractor_trianglediamonds.svg	37	no	57	0	823	0	0			0	0			1				0	
6.6.1	win	2023-06-27	18:50:48	18:56:06	313220	6365491e5682032c1c2a6687	3	1	main_slash	7	main_slash	39	stimuli_target_diamondsquares.svg	stimuli_distractor_trianglediamonds.svg	20	yes	53	1	1057	0	0			0	0			1				0	
6.6.1	win	2023-06-27	18:50:48	18:56:06	313220	6365491e5682032c1c2a6687	3	1	main_slash	7	advance_on_keypress_SLASH	40	stimuli_target_diamondsquares.svg	stimuli_distractor_trianglediamonds.svg	20	yes	57	0	141	0	0			0	0			1				0	
6.6.1	win	2023-06-27	18:50:48	18:56:08	315214	6365491e5682032c1c2a6687	3	1	main_slash	7	main_slash	41	stimuli_distractor_diamondtriangles.svg	stimuli_target_trianglerectangles.svg	29	yes	53	1	1218	0	0			0	0			1				0	
6.6.1	win	2023-06-27	18:50:48	18:56:08	315214	6365491e5682032c1c2a6687	3	1	main_slash	7	advance_on_keypress_SLASH	42	stimuli_distractor_diamondtriangles.svg	stimuli_target_trianglerectangles.svg	29	yes	57	0	90	0	0			0	0			1				0	
6.6.1	win	2023-06-27	18:50:48	18:56:10	317549	6365491e5682032c1c2a6687	3	1	main_slash	7	main_slash	43	stimuli_distractor_trianglediamonds.svg	stimuli_target_diamondrectangles.svg	27	yes	53	1	1603	0	0			0	0			1				0	
6.6.1	win	2023-06-27	18:50:48	18:56:10	317549	6365491e5682032c1c2a6687	3	1	main_slash	7	advance_on_keypress_SLASH	44	stimuli_distractor_trianglediamonds.svg	stimuli_target_diamondrectangles.svg	27	yes	57	0	155	0	0			0	0			1				0	
6.6.1	win	2023-06-27	18:50:48	18:56:13	319894	6365491e5682032c1c2a6687	3	1	main_slash	7	main_slash	45	stimuli_target_squarediamonds.svg	stimuli_distractor_trianglediamonds.svg	4	yes	53	1	1550	0	0			0	0			1				0	
6.6.1	win	2023-06-27	18:50:48	18:56:13	319894	6365491e5682032c1c2a6687	3	1	main_slash	7	advance_on_keypress_SLASH	46	stimuli_target_squarediamonds.svg	stimuli_distractor_trianglediamonds.svg	4	yes	57	0	97	0	0			0	0			1				0	
6.6.1	win	2023-06-27	18:50:48	18:56:14	321715	6365491e5682032c1c2a6687	3	1	main_slash	7	main_slash	47	stimuli_target_trianglesquares.svg	stimuli_distractor_diamondtriangles.svg	22	yes	53	1	1070	0	0			0	0			1				0	
6.6.1	win	2023-06-27	18:50:48	18:56:14	321715	6365491e5682032c1c2a6687	3	1	main_slash	7	advance_on_keypress_SLASH	48	stimuli_target_trianglesquares.svg	stimuli_distractor_diamondtriangles.svg	22	yes	57	0	133	0	0			0	0			1				0	
6.6.1	win	2023-06-27	18:50:48	18:56:16	323459	6365491e5682032c1c2a6687	3	1	main_slash	7	main_slash	49	stimuli_target_squarediamonds.svg	stimuli_distractor_diamondtriangles.svg	8	yes	53	1	965	0	0			0	0			1				0	
6.6.1	win	2023-06-27	18:50:48	18:56:16	323459	6365491e5682032c1c2a6687	3	1	main_slash	7	advance_on_keypress_SLASH	50	stimuli_target_squarediamonds.svg	stimuli_distractor_diamondtriangles.svg	8	yes	57	0	185	0	0			0	0			1				0	
6.6.1	win	2023-06-27	18:50:48	18:56:18	325261	6365491e5682032c1c2a6687	3	1	main_slash	7	main_slash	51	stimuli_distractor_trianglediamonds.svg	stimuli_target_trianglerectangles.svg	25	yes	53	1	966	0	0			0	0			1				0	
6.6.1	win	2023-06-27	18:50:48	18:56:18	325261	6365491e5682032c1c2a6687	3	1	main_slash	7	advance_on_keypress_SLASH	52	stimuli_distractor_trianglediamonds.svg	stimuli_target_trianglerectangles.svg	25	yes	57	0	140	0	0			0	0			1				0	
6.6.1	win	2023-06-27	18:50:48	18:56:20	326853	6365491e5682032c1c2a6687	3	1	main_slash	7	main_slash	53	stimuli_distractor_trianglediamonds.svg	stimuli_target_trianglesquares.svg	26	yes	53	1	809	0	0			0	0			1				0	
6.6.1	win	2023-06-27	18:50:48	18:56:20	326853	6365491e5682032c1c2a6687	3	1	main_slash	7	advance_on_keypress_SLASH	54	stimuli_distractor_trianglediamonds.svg	stimuli_target_trianglesquares.svg	26	yes	57	0	194	0	0			0	0			1				0	
6.6.1	win	2023-06-27	18:50:48	18:56:22	329677	6365491e5682032c1c2a6687	3	1	main_slash	7	main_slash	55	stimuli_distractor_diamondtriangles.svg	stimuli_distractor_trianglediamonds.svg	38	no	0	1	2000	0	0			0	0			1				0	
6.6.1	win	2023-06-27	18:50:48	18:56:22	329677	6365491e5682032c1c2a6687	3	1	main_slash	7	advance_on_keypress_SLASH	56	stimuli_distractor_diamondtriangles.svg	stimuli_distractor_trianglediamonds.svg	38	no	57	0	710	0	0			0	0			1				0	
6.6.1	win	2023-06-27	18:50:48	18:56:26	333026	6365491e5682032c1c2a6687	3	1	main_slash	7	main_slash	57	stimuli_distractor_diamondtriangles.svg	stimuli_distractor_diamondtriangles.svg	40	no	0	1	2000	0	0			0	0			1				0	
6.6.1	win	2023-06-27	18:50:48	18:56:26	333026	6365491e5682032c1c2a6687	3	1	main_slash	7	advance_on_keypress_SLASH	58	stimuli_distractor_diamondtriangles.svg	stimuli_distractor_diamondtriangles.svg	40	no	57	0	408	0	0			0	0			1				0	
6.6.1	win	2023-06-27	18:50:48	18:56:28	334799	6365491e5682032c1c2a6687	3	1	main_slash	7	main_slash	59	stimuli_distractor_diamondtriangles.svg	stimuli_target_diamondsquares.svg	32	yes	53	1	722	0	0			0	0			1				0	
6.6.1	win	2023-06-27	18:50:48	18:56:28	334799	6365491e5682032c1c2a6687	3	1	main_slash	7	advance_on_keypress_SLASH	60	stimuli_distractor_diamondtriangles.svg	stimuli_target_diamondsquares.svg	32	yes	57	0	223	0	0			0	0			1				0	
6.6.1	win	2023-06-27	18:50:48	18:56:30	336957	6365491e5682032c1c2a6687	3	1	main_slash	7	main_slash	61	stimuli_distractor_diamondtriangles.svg	stimuli_target_rectangletriangles.svg	13	yes	53	1	1298	0	0			0	0			1				0	
6.6.1	win	2023-06-27	18:50:48	18:56:30	336957	6365491e5682032c1c2a6687	3	1	main_slash	7	advance_on_keypress_SLASH	62	stimuli_distractor_diamondtriangles.svg	stimuli_target_rectangletriangles.svg	13	yes	57	0	127	0	0			0	0			1				0	
6.6.1	win	2023-06-27	18:50:48	18:56:31	338628	6365491e5682032c1c2a6687	3	1	main_slash	7	main_slash	63	stimuli_target_trianglerectangles.svg	stimuli_distractor_diamondtriangles.svg	21	yes	53	1	903	0	0			0	0			1				0	
6.6.1	win	2023-06-27	18:50:48	18:56:31	338628	6365491e5682032c1c2a6687	3	1	main_slash	7	advance_on_keypress_SLASH	64	stimuli_target_trianglerectangles.svg	stimuli_distractor_diamondtriangles.svg	21	yes	57	0	184	0	0			0	0			1				0	
6.6.1	win	2023-06-27	18:50:48	18:56:34	341458	6365491e5682032c1c2a6687	3	1	main_slash	7	main_slash	65	stimuli_distractor_trianglediamonds.svg	stimuli_distractor_diamondtriangles.svg	35	no	0	1	2000	0	0			0	0			1				0	
6.6.1	win	2023-06-27	18:50:48	18:56:34	341458	6365491e5682032c1c2a6687	3	1	main_slash	7	advance_on_keypress_SLASH	66	stimuli_distractor_trianglediamonds.svg	stimuli_distractor_diamondtriangles.svg	35	no	57	0	583	0	0			0	0			1				0	
6.6.1	win	2023-06-27	18:50:48	18:56:36	343351	6365491e5682032c1c2a6687	3	1	main_slash	7	main_slash	67	stimuli_target_squaretriangles.svg	stimuli_distractor_trianglediamonds.svg	3	yes	53	1	660	0	0			0	0			1				0	
6.6.1	win	2023-06-27	18:50:48	18:56:36	343351	6365491e5682032c1c2a6687	3	1	main_slash	7	advance_on_keypress_SLASH	68	stimuli_target_squaretriangles.svg	stimuli_distractor_trianglediamonds.svg	3	yes	57	0	151	0	0			0	0			1				0	
6.6.1	win	2023-06-27	18:50:48	18:56:37	344660	6365491e5682032c1c2a6687	3	1	main_slash	7	main_slash	69	stimuli_distractor_trianglediamonds.svg	stimuli_target_rectanglediamonds.svg	10	yes	53	1	518	0	0			0	0			1				0	
6.6.1	win	2023-06-27	18:50:48	18:56:37	344660	6365491e5682032c1c2a6687	3	1	main_slash	7	advance_on_keypress_SLASH	70	stimuli_distractor_trianglediamonds.svg	stimuli_target_rectanglediamonds.svg	10	yes	57	0	139	0	0			0	0			1				0	
6.6.1	win	2023-06-27	18:50:48	18:56:39	346161	6365491e5682032c1c2a6687	3	1	main_slash	7	main_slash	71	stimuli_distractor_diamondtriangles.svg	stimuli_target_diamondrectangles.svg	31	yes	53	1	719	0	0			0	0			1				0	
6.6.1	win	2023-06-27	18:50:48	18:56:39	346161	6365491e5682032c1c2a6687	3	1	main_slash	7	advance_on_keypress_SLASH	72	stimuli_distractor_diamondtriangles.svg	stimuli_target_diamondrectangles.svg	31	yes	57	0	110	0	0			0	0			1				0	
6.6.1	win	2023-06-27	18:50:48	18:56:40	347640	6365491e5682032c1c2a6687	3	1	main_slash	7	main_slash	73	stimuli_distractor_diamondtriangles.svg	stimuli_distractor_diamondtriangles.svg	39	no	53	0	733	0	0			0	0			1				0	
6.6.1	win	2023-06-27	18:50:48	18:56:40	347640	6365491e5682032c1c2a6687	3	1	main_slash	7	advance_on_keypress_SLASH	74	stimuli_distractor_diamondtriangles.svg	stimuli_distractor_diamondtriangles.svg	39	no	57	0	141	0	0			0	0			1				0	
6.6.1	win	2023-06-27	18:50:48	18:56:42	349055	6365491e5682032c1c2a6687	3	1	main_slash	7	main_slash	75	stimuli_target_trianglerectangles.svg	stimuli_distractor_trianglediamonds.svg	17	yes	53	1	630	0	0			0	0			1				0	
6.6.1	win	2023-06-27	18:50:48	18:56:42	349055	6365491e5682032c1c2a6687	3	1	main_slash	7	advance_on_keypress_SLASH	76	stimuli_target_trianglerectangles.svg	stimuli_distractor_trianglediamonds.svg	17	yes	57	0	114	0	0			0	0			1				0	
6.6.1	win	2023-06-27	18:50:48	18:56:43	350547	6365491e5682032c1c2a6687	3	1	main_slash	7	main_slash	77	stimuli_distractor_trianglediamonds.svg	stimuli_distractor_trianglediamonds.svg	34	no	53	0	724	0	0			0	0			1				0	
6.6.1	win	2023-06-27	18:50:48	18:56:43	350547	6365491e5682032c1c2a6687	3	1	main_slash	7	advance_on_keypress_SLASH	78	stimuli_distractor_trianglediamonds.svg	stimuli_distractor_trianglediamonds.svg	34	no	57	0	230	0	0			0	0			1				0	
6.6.1	win	2023-06-27	18:50:48	18:56:46	352962	6365491e5682032c1c2a6687	3	1	main_slash	7	main_slash	79	stimuli_distractor_diamondtriangles.svg	stimuli_target_trianglesquares.svg	30	yes	53	1	1539	0	0			0	0			1				0	
6.6.1	win	2023-06-27	18:50:48	18:56:46	352962	6365491e5682032c1c2a6687	3	1	main_slash	7	advance_on_keypress_SLASH	80	stimuli_distractor_diamondtriangles.svg	stimuli_target_trianglesquares.svg	30	yes	57	0	160	0	0			0	0			1				0	
6.6.1	win	2023-06-27	18:50:48	18:56:48	354919	6365491e5682032c1c2a6687	3	1	main_slash	7	main_slash	81	stimuli_target_rectangletriangles.svg	stimuli_distractor_trianglediamonds.svg	1	yes	53	1	1162	0	0			0	0			1				0	
6.6.1	win	2023-06-27	18:50:48	18:56:48	354919	6365491e5682032c1c2a6687	3	1	main_slash	7	advance_on_keypress_SLASH	82	stimuli_target_rectangletriangles.svg	stimuli_distractor_trianglediamonds.svg	1	yes	57	0	174	0	0			0	0			1				0	
6.6.1	win	2023-06-27	18:50:48	18:56:49	356609	6365491e5682032c1c2a6687	3	1	main_slash	7	main_slash	83	stimuli_target_diamondsquares.svg	stimuli_distractor_trianglediamonds.svg	20	yes	53	1	869	0	0			0	0			1				0	
6.6.1	win	2023-06-27	18:50:48	18:56:49	356609	6365491e5682032c1c2a6687	3	1	main_slash	7	advance_on_keypress_SLASH	84	stimuli_target_diamondsquares.svg	stimuli_distractor_trianglediamonds.svg	20	yes	57	0	95	0	0			0	0			1				0	
6.6.1	win	2023-06-27	18:50:48	18:56:52	359339	6365491e5682032c1c2a6687	3	1	main_slash	7	main_slash	85	stimuli_distractor_diamondtriangles.svg	stimuli_distractor_trianglediamonds.svg	38	no	0	1	2000	0	0			0	0			1				0	
6.6.1	win	2023-06-27	18:50:48	18:56:52	359339	6365491e5682032c1c2a6687	3	1	main_slash	7	advance_on_keypress_SLASH	86	stimuli_distractor_diamondtriangles.svg	stimuli_distractor_trianglediamonds.svg	38	no	57	0	435	0	0			0	0			1				0	
6.6.1	win	2023-06-27	18:50:48	18:56:54	361044	6365491e5682032c1c2a6687	3	1	main_slash	7	main_slash	87	stimuli_distractor_diamondtriangles.svg	stimuli_target_rectangletriangles.svg	13	yes	53	1	621	0	0			0	0			1				0	
6.6.1	win	2023-06-27	18:50:48	18:56:54	361044	6365491e5682032c1c2a6687	3	1	main_slash	7	advance_on_keypress_SLASH	88	stimuli_distractor_diamondtriangles.svg	stimuli_target_rectangletriangles.svg	13	yes	57	0	115	0	0			0	0			1				0	
6.6.1	win	2023-06-27	18:50:48	18:56:55	362464	6365491e5682032c1c2a6687	3	1	main_slash	7	main_slash	89	stimuli_target_rectanglediamonds.svg	stimuli_distractor_trianglediamonds.svg	2	yes	53	1	659	0	0			0	0			1				0	
6.6.1	win	2023-06-27	18:50:48	18:56:55	362464	6365491e5682032c1c2a6687	3	1	main_slash	7	advance_on_keypress_SLASH	90	stimuli_target_rectanglediamonds.svg	stimuli_distractor_trianglediamonds.svg	2	yes	57	0	112	0	0			0	0			1				0	
6.6.1	win	2023-06-27	18:50:48	18:56:58	365205	6365491e5682032c1c2a6687	3	1	main_slash	7	main_slash	91	stimuli_distractor_diamondtriangles.svg	stimuli_distractor_diamondtriangles.svg	39	no	0	1	2000	0	0			0	0			1				0	
6.6.1	win	2023-06-27	18:50:48	18:56:58	365205	6365491e5682032c1c2a6687	3	1	main_slash	7	advance_on_keypress_SLASH	92	stimuli_distractor_diamondtriangles.svg	stimuli_distractor_diamondtriangles.svg	39	no	57	0	397	0	0			0	0			1				0	
6.6.1	win	2023-06-27	18:50:48	18:57:00	367201	6365491e5682032c1c2a6687	3	1	main_slash	7	main_slash	93	stimuli_distractor_diamondtriangles.svg	stimuli_target_trianglesquares.svg	30	yes	53	1	946	0	0			0	0			1				0	
6.6.1	win	2023-06-27	18:50:48	18:57:00	367201	6365491e5682032c1c2a6687	3	1	main_slash	7	advance_on_keypress_SLASH	94	stimuli_distractor_diamondtriangles.svg	stimuli_target_trianglesquares.svg	30	yes	57	0	71	0	0			0	0			1				0	
6.6.1	win	2023-06-27	18:50:48	18:57:01	368703	6365491e5682032c1c2a6687	3	1	main_slash	7	main_slash	95	stimuli_distractor_trianglediamonds.svg	stimuli_target_rectanglediamonds.svg	10	yes	53	1	781	0	0			0	0			1				0	
6.6.1	win	2023-06-27	18:50:48	18:57:01	368703	6365491e5682032c1c2a6687	3	1	main_slash	7	advance_on_keypress_SLASH	96	stimuli_distractor_trianglediamonds.svg	stimuli_target_rectanglediamonds.svg	10	yes	57	0	122	0	0			0	0			1				0	
6.6.1	win	2023-06-27	18:50:48	18:57:03	370191	6365491e5682032c1c2a6687	3	1	main_slash	7	main_slash	97	stimuli_distractor_trianglediamonds.svg	stimuli_target_diamondrectangles.svg	27	yes	53	1	719	0	0			0	0			1				0	
6.6.1	win	2023-06-27	18:50:48	18:57:03	370191	6365491e5682032c1c2a6687	3	1	main_slash	7	advance_on_keypress_SLASH	98	stimuli_distractor_trianglediamonds.svg	stimuli_target_diamondrectangles.svg	27	yes	57	0	89	0	0			0	0			1				0	
6.6.1	win	2023-06-27	18:50:48	18:57:04	371583	6365491e5682032c1c2a6687	3	1	main_slash	7	main_slash	99	stimuli_distractor_diamondtriangles.svg	stimuli_target_diamondsquares.svg	32	yes	53	1	662	0	0			0	0			1				0	
6.6.1	win	2023-06-27	18:50:48	18:57:04	371583	6365491e5682032c1c2a6687	3	1	main_slash	7	advance_on_keypress_SLASH	100	stimuli_distractor_diamondtriangles.svg	stimuli_target_diamondsquares.svg	32	yes	57	0	72	0	0			0	0			1				0	
6.6.1	win	2023-06-27	18:50:48	18:57:06	372872	6365491e5682032c1c2a6687	3	1	main_slash	7	main_slash	101	stimuli_distractor_trianglediamonds.svg	stimuli_target_trianglesquares.svg	26	yes	53	1	584	0	0			0	0			1				0	
6.6.1	win	2023-06-27	18:50:48	18:57:06	372872	6365491e5682032c1c2a6687	3	1	main_slash	7	advance_on_keypress_SLASH	102	stimuli_distractor_trianglediamonds.svg	stimuli_target_trianglesquares.svg	26	yes	57	0	65	0	0			0	0			1				0	
6.6.1	win	2023-06-27	18:50:48	18:57:07	374144	6365491e5682032c1c2a6687	3	1	main_slash	7	main_slash	103	stimuli_target_trianglesquares.svg	stimuli_distractor_trianglediamonds.svg	18	yes	53	1	557	0	0			0	0			1				0	
6.6.1	win	2023-06-27	18:50:48	18:57:07	374144	6365491e5682032c1c2a6687	3	1	main_slash	7	advance_on_keypress_SLASH	104	stimuli_target_trianglesquares.svg	stimuli_distractor_trianglediamonds.svg	18	yes	57	0	53	0	0			0	0			1				0	
6.6.1	win	2023-06-27	18:50:48	18:57:08	375395	6365491e5682032c1c2a6687	3	1	main_slash	7	main_slash	105	stimuli_distractor_trianglediamonds.svg	stimuli_target_diamondsquares.svg	28	yes	53	1	557	0	0			0	0			1				0	
6.6.1	win	2023-06-27	18:50:48	18:57:08	375395	6365491e5682032c1c2a6687	3	1	main_slash	7	advance_on_keypress_SLASH	106	stimuli_distractor_trianglediamonds.svg	stimuli_target_diamondsquares.svg	28	yes	57	0	53	0	0			0	0			1				0	
6.6.1	win	2023-06-27	18:50:48	18:57:11	378087	6365491e5682032c1c2a6687	3	1	main_slash	7	main_slash	107	stimuli_distractor_trianglediamonds.svg	stimuli_distractor_diamondtriangles.svg	36	no	0	1	2000	0	0			0	0			1				0	
6.6.1	win	2023-06-27	18:50:48	18:57:11	378087	6365491e5682032c1c2a6687	3	1	main_slash	7	advance_on_keypress_SLASH	108	stimuli_distractor_trianglediamonds.svg	stimuli_distractor_diamondtriangles.svg	36	no	57	0	120	0	0			0	0			1				0	
6.6.1	win	2023-06-27	18:50:48	18:57:12	379446	6365491e5682032c1c2a6687	3	1	main_slash	7	main_slash	109	stimuli_target_trianglesquares.svg	stimuli_distractor_diamondtriangles.svg	22	yes	53	1	593	0	0			0	0			1				0	
6.6.1	win	2023-06-27	18:50:48	18:57:12	379446	6365491e5682032c1c2a6687	3	1	main_slash	7	advance_on_keypress_SLASH	110	stimuli_target_trianglesquares.svg	stimuli_distractor_diamondtriangles.svg	22	yes	57	0	61	0	0			0	0			1				0	
6.6.1	win	2023-06-27	18:50:48	18:57:14	380934	6365491e5682032c1c2a6687	3	1	main_slash	7	main_slash	111	stimuli_target_rectanglediamonds.svg	stimuli_distractor_diamondtriangles.svg	6	yes	53	1	798	0	0			0	0			1				0	
6.6.1	win	2023-06-27	18:50:48	18:57:14	380934	6365491e5682032c1c2a6687	3	1	main_slash	7	advance_on_keypress_SLASH	112	stimuli_target_rectanglediamonds.svg	stimuli_distractor_diamondtriangles.svg	6	yes	57	0	61	0	0			0	0			1				0	
6.6.1	win	2023-06-27	18:50:48	18:57:16	383636	6365491e5682032c1c2a6687	3	1	main_slash	7	main_slash	113	stimuli_distractor_diamondtriangles.svg	stimuli_distractor_trianglediamonds.svg	37	no	0	1	2000	0	0			0	0			1				0	
6.6.1	win	2023-06-27	18:50:48	18:57:16	383636	6365491e5682032c1c2a6687	3	1	main_slash	7	advance_on_keypress_SLASH	114	stimuli_distractor_diamondtriangles.svg	stimuli_distractor_trianglediamonds.svg	37	no	57	0	220	0	0			0	0			1				0	
6.6.1	win	2023-06-27	18:50:48	18:57:18	385061	6365491e5682032c1c2a6687	3	1	main_slash	7	main_slash	115	stimuli_distractor_diamondtriangles.svg	stimuli_target_squaretriangles.svg	15	yes	53	1	560	0	0			0	0			1				0	
6.6.1	win	2023-06-27	18:50:48	18:57:18	385061	6365491e5682032c1c2a6687	3	1	main_slash	7	advance_on_keypress_SLASH	116	stimuli_distractor_diamondtriangles.svg	stimuli_target_squaretriangles.svg	15	yes	57	0	78	0	0			0	0			1				0	
6.6.1	win	2023-06-27	18:50:48	18:57:20	386982	6365491e5682032c1c2a6687	3	1	main_slash	7	main_slash	117	stimuli_target_diamondrectangles.svg	stimuli_distractor_trianglediamonds.svg	19	yes	53	1	1213	0	0			0	0			1				0	
6.6.1	win	2023-06-27	18:50:48	18:57:20	386982	6365491e5682032c1c2a6687	3	1	main_slash	7	advance_on_keypress_SLASH	118	stimuli_target_diamondrectangles.svg	stimuli_distractor_trianglediamonds.svg	19	yes	57	0	35	0	0			0	0			1				0	
6.6.1	win	2023-06-27	18:50:48	18:57:22	389668	6365491e5682032c1c2a6687	3	1	main_slash	7	main_slash	119	stimuli_distractor_diamondtriangles.svg	stimuli_distractor_diamondtriangles.svg	40	no	0	1	2000	0	0			0	0			1				0	
6.6.1	win	2023-06-27	18:50:48	18:57:22	389668	6365491e5682032c1c2a6687	3	1	main_slash	7	advance_on_keypress_SLASH	120	stimuli_distractor_diamondtriangles.svg	stimuli_distractor_diamondtriangles.svg	40	no	57	0	221	0	0			0	0			1				0	
6.6.1	win	2023-06-27	18:50:48	18:57:24	391739	6365491e5682032c1c2a6687	3	1	main_slash	7	main_slash	121	stimuli_target_trianglerectangles.svg	stimuli_distractor_trianglediamonds.svg	17	yes	53	1	1204	0	0			0	0			1				0	
6.6.1	win	2023-06-27	18:50:48	18:57:24	391739	6365491e5682032c1c2a6687	3	1	main_slash	7	advance_on_keypress_SLASH	122	stimuli_target_trianglerectangles.svg	stimuli_distractor_trianglediamonds.svg	17	yes	57	0	41	0	0			0	0			1				0	
6.6.1	win	2023-06-27	18:50:48	18:57:27	394418	6365491e5682032c1c2a6687	3	1	main_slash	7	main_slash	123	stimuli_distractor_trianglediamonds.svg	stimuli_target_trianglerectangles.svg	25	yes	0	0	2000	0	0			0	0			1				0	
6.6.1	win	2023-06-27	18:50:48	18:57:27	394418	6365491e5682032c1c2a6687	3	1	main_slash	7	advance_on_keypress_SLASH	124	stimuli_distractor_trianglediamonds.svg	stimuli_target_trianglerectangles.svg	25	yes	57	0	538	0	0			0	0			1				0	
6.6.1	win	2023-06-27	18:50:48	18:57:30	397601	6365491e5682032c1c2a6687	3	1	main_slash	7	main_slash	125	stimuli_distractor_trianglediamonds.svg	stimuli_distractor_trianglediamonds.svg	34	no	0	1	2000	0	0			0	0			1				0	
6.6.1	win	2023-06-27	18:50:48	18:57:30	397601	6365491e5682032c1c2a6687	3	1	main_slash	7	advance_on_keypress_SLASH	126	stimuli_distractor_trianglediamonds.svg	stimuli_distractor_trianglediamonds.svg	34	no	57	0	322	0	0			0	0			1				0	
6.6.1	win	2023-06-27	18:50:48	18:57:33	400567	6365491e5682032c1c2a6687	3	1	main_slash	7	main_slash	127	stimuli_distractor_trianglediamonds.svg	stimuli_distractor_diamondtriangles.svg	35	no	0	1	2000	0	0			0	0			1				0	
6.6.1	win	2023-06-27	18:50:48	18:57:33	400567	6365491e5682032c1c2a6687	3	1	main_slash	7	advance_on_keypress_SLASH	128	stimuli_distractor_trianglediamonds.svg	stimuli_distractor_diamondtriangles.svg	35	no	57	0	413	0	0			0	0			1				0	
6.6.1	win	2023-06-27	18:50:48	18:57:35	402485	6365491e5682032c1c2a6687	3	1	main_slash	7	main_slash	129	stimuli_distractor_diamondtriangles.svg	stimuli_target_rectanglediamonds.svg	14	yes	53	1	851	0	0			0	0			1				0	
6.6.1	win	2023-06-27	18:50:48	18:57:35	402485	6365491e5682032c1c2a6687	3	1	main_slash	7	advance_on_keypress_SLASH	130	stimuli_distractor_diamondtriangles.svg	stimuli_target_rectanglediamonds.svg	14	yes	57	0	56	0	0			0	0			1				0	
6.6.1	win	2023-06-27	18:50:48	18:57:37	403810	6365491e5682032c1c2a6687	3	1	main_slash	7	main_slash	131	stimuli_target_squarediamonds.svg	stimuli_distractor_diamondtriangles.svg	8	yes	53	1	626	0	0			0	0			1				0	
6.6.1	win	2023-06-27	18:50:48	18:57:37	403810	6365491e5682032c1c2a6687	3	1	main_slash	7	advance_on_keypress_SLASH	132	stimuli_target_squarediamonds.svg	stimuli_distractor_diamondtriangles.svg	8	yes	57	0	77	0	0			0	0			1				0	
6.6.1	win	2023-06-27	18:50:48	18:57:38	405556	6365491e5682032c1c2a6687	3	1	main_slash	7	main_slash	133	stimuli_target_trianglerectangles.svg	stimuli_distractor_diamondtriangles.svg	21	yes	53	1	1040	0	0			0	0			1				0	
6.6.1	win	2023-06-27	18:50:48	18:57:38	405556	6365491e5682032c1c2a6687	3	1	main_slash	7	advance_on_keypress_SLASH	134	stimuli_target_trianglerectangles.svg	stimuli_distractor_diamondtriangles.svg	21	yes	57	0	57	0	0			0	0			1				0	
6.6.1	win	2023-06-27	18:50:48	18:57:41	407825	6365491e5682032c1c2a6687	3	1	main_slash	7	main_slash	135	stimuli_target_squaretriangles.svg	stimuli_distractor_trianglediamonds.svg	3	yes	53	1	1576	0	0			0	0			1				0	
6.6.1	win	2023-06-27	18:50:48	18:57:41	407825	6365491e5682032c1c2a6687	3	1	main_slash	7	advance_on_keypress_SLASH	136	stimuli_target_squaretriangles.svg	stimuli_distractor_trianglediamonds.svg	3	yes	57	0	73	0	0			0	0			1				0	
6.6.1	win	2023-06-27	18:50:48	18:57:42	409196	6365491e5682032c1c2a6687	3	1	main_slash	7	main_slash	137	stimuli_distractor_diamondtriangles.svg	stimuli_target_squarediamonds.svg	16	yes	53	1	663	0	0			0	0			1				0	
6.6.1	win	2023-06-27	18:50:48	18:57:42	409196	6365491e5682032c1c2a6687	3	1	main_slash	7	advance_on_keypress_SLASH	138	stimuli_distractor_diamondtriangles.svg	stimuli_target_squarediamonds.svg	16	yes	57	0	142	0	0			0	0			1				0	
6.6.1	win	2023-06-27	18:50:48	18:57:43	410672	6365491e5682032c1c2a6687	3	1	main_slash	7	main_slash	139	stimuli_distractor_trianglediamonds.svg	stimuli_distractor_trianglediamonds.svg	33	no	53	0	690	0	0			0	0			1				0	
6.6.1	win	2023-06-27	18:50:48	18:57:43	410672	6365491e5682032c1c2a6687	3	1	main_slash	7	advance_on_keypress_SLASH	140	stimuli_distractor_trianglediamonds.svg	stimuli_distractor_trianglediamonds.svg	33	no	57	0	618	0	0			0	0			1				0	
6.6.1	win	2023-06-27	18:50:48	18:57:45	412669	6365491e5682032c1c2a6687	3	1	main_slash	7	main_slash	141	stimuli_distractor_trianglediamonds.svg	stimuli_target_squarediamonds.svg	12	yes	53	1	738	0	0			0	0			1				0	
6.6.1	win	2023-06-27	18:50:48	18:57:45	412669	6365491e5682032c1c2a6687	3	1	main_slash	7	advance_on_keypress_SLASH	142	stimuli_distractor_trianglediamonds.svg	stimuli_target_squarediamonds.svg	12	yes	57	0	56	0	0			0	0			1				0	
6.6.1	win	2023-06-27	18:50:48	18:57:47	414256	6365491e5682032c1c2a6687	3	1	main_slash	7	main_slash	143	stimuli_distractor_diamondtriangles.svg	stimuli_target_diamondrectangles.svg	31	yes	53	1	891	0	0			0	0			1				0	
6.6.1	win	2023-06-27	18:50:48	18:57:47	414256	6365491e5682032c1c2a6687	3	1	main_slash	7	advance_on_keypress_SLASH	144	stimuli_distractor_diamondtriangles.svg	stimuli_target_diamondrectangles.svg	31	yes	57	0	60	0	0			0	0			1				0	
6.6.1	win	2023-06-27	18:50:48	18:57:48	415570	6365491e5682032c1c2a6687	3	1	main_slash	7	main_slash	145	stimuli_target_rectangletriangles.svg	stimuli_distractor_diamondtriangles.svg	5	yes	53	1	622	0	0			0	0			1				0	
6.6.1	win	2023-06-27	18:50:48	18:57:48	415570	6365491e5682032c1c2a6687	3	1	main_slash	7	advance_on_keypress_SLASH	146	stimuli_target_rectangletriangles.svg	stimuli_distractor_diamondtriangles.svg	5	yes	57	0	69	0	0			0	0			1				0	
6.6.1	win	2023-06-27	18:50:48	18:57:50	416851	6365491e5682032c1c2a6687	3	1	main_slash	7	main_slash	147	stimuli_target_diamondsquares.svg	stimuli_distractor_diamondtriangles.svg	24	yes	53	1	570	0	0			0	0			1				0	
6.6.1	win	2023-06-27	18:50:48	18:57:50	416851	6365491e5682032c1c2a6687	3	1	main_slash	7	advance_on_keypress_SLASH	148	stimuli_target_diamondsquares.svg	stimuli_distractor_diamondtriangles.svg	24	yes	57	0	49	0	0			0	0			1				0	
6.6.1	win	2023-06-27	18:50:48	18:57:52	418847	6365491e5682032c1c2a6687	3	1	main_slash	7	main_slash	149	stimuli_distractor_trianglediamonds.svg	stimuli_target_squaretriangles.svg	11	yes	53	1	1299	0	0			0	0			1				0	
6.6.1	win	2023-06-27	18:50:48	18:57:52	418847	6365491e5682032c1c2a6687	3	1	main_slash	7	advance_on_keypress_SLASH	150	stimuli_distractor_trianglediamonds.svg	stimuli_target_squaretriangles.svg	11	yes	57	0	43	0	0			0	0			1				0	
6.6.1	win	2023-06-27	18:50:48	18:57:53	420106	6365491e5682032c1c2a6687	3	1	main_slash	7	main_slash	151	stimuli_target_squarediamonds.svg	stimuli_distractor_trianglediamonds.svg	4	yes	53	1	576	0	0			0	0			1				0	
6.6.1	win	2023-06-27	18:50:48	18:57:53	420106	6365491e5682032c1c2a6687	3	1	main_slash	7	advance_on_keypress_SLASH	152	stimuli_target_squarediamonds.svg	stimuli_distractor_trianglediamonds.svg	4	yes	57	0	39	0	0			0	0			1				0	
6.6.1	win	2023-06-27	18:50:48	18:57:54	421593	6365491e5682032c1c2a6687	3	1	main_slash	7	main_slash	153	stimuli_target_diamondrectangles.svg	stimuli_distractor_diamondtriangles.svg	23	yes	53	1	812	0	0			0	0			1				0	
6.6.1	win	2023-06-27	18:50:48	18:57:54	421593	6365491e5682032c1c2a6687	3	1	main_slash	7	advance_on_keypress_SLASH	154	stimuli_target_diamondrectangles.svg	stimuli_distractor_diamondtriangles.svg	23	yes	57	0	47	0	0			0	0			1				0	
6.6.1	win	2023-06-27	18:50:48	18:57:56	423399	6365491e5682032c1c2a6687	3	1	main_slash	7	main_slash	155	stimuli_distractor_trianglediamonds.svg	stimuli_target_rectangletriangles.svg	9	yes	53	1	1118	0	0			0	0			1				0	
6.6.1	win	2023-06-27	18:50:48	18:57:56	423399	6365491e5682032c1c2a6687	3	1	main_slash	7	advance_on_keypress_SLASH	156	stimuli_distractor_trianglediamonds.svg	stimuli_target_rectangletriangles.svg	9	yes	57	0	63	0	0			0	0			1				0	
6.6.1	win	2023-06-27	18:50:48	18:57:58	424797	6365491e5682032c1c2a6687	3	1	main_slash	7	main_slash	157	stimuli_target_squaretriangles.svg	stimuli_distractor_diamondtriangles.svg	7	yes	53	1	683	0	0			0	0			1				0	
6.6.1	win	2023-06-27	18:50:48	18:57:58	424797	6365491e5682032c1c2a6687	3	1	main_slash	7	advance_on_keypress_SLASH	158	stimuli_target_squaretriangles.svg	stimuli_distractor_diamondtriangles.svg	7	yes	57	0	62	0	0			0	0			1				0	
6.6.1	win	2023-06-27	18:50:48	18:58:00	427496	6365491e5682032c1c2a6687	3	1	main_slash	7	main_slash	159	stimuli_distractor_diamondtriangles.svg	stimuli_target_trianglerectangles.svg	29	yes	0	0	2000	0	0			0	0			1				0	
6.6.1	win	2023-06-27	18:50:48	18:58:00	427496	6365491e5682032c1c2a6687	3	1	main_slash	7	advance_on_keypress_SLASH	160	stimuli_distractor_diamondtriangles.svg	stimuli_target_trianglerectangles.svg	29	yes	57	0	414	0	0			0	0			1				0	
6.6.1	win	2023-06-27	18:50:48	18:58:40	467044	6365491e5682032c1c2a6687	3	1	practice_z	9	practice_z	1	stimuli_distractor_diamondtriangles.svg	stimuli_distractor_trianglediamonds.svg	14	no	0	1	2000	0	0			0	0			1				0	
6.6.1	win	2023-06-27	18:50:48	18:58:40	467044	6365491e5682032c1c2a6687	3	1	practice_z	9	advance_on_keypress_ZEE	2	stimuli_distractor_diamondtriangles.svg	stimuli_distractor_trianglediamonds.svg	14	no	57	0	845	0	0			0	0			1				0	
6.6.1	win	2023-06-27	18:50:48	18:58:43	470079	6365491e5682032c1c2a6687	3	1	practice_z	9	practice_z	3	stimuli_distractor_diamondtriangles.svg	stimuli_target_diamondrectangles.svg	8	yes	44	1	554	0	0			0	0			1				0	
6.6.1	win	2023-06-27	18:50:48	18:58:43	470079	6365491e5682032c1c2a6687	3	1	practice_z	9	advance_on_keypress_ZEE	4	stimuli_distractor_diamondtriangles.svg	stimuli_target_diamondrectangles.svg	8	yes	57	0	566	0	0			0	0			1				0	
6.6.1	win	2023-06-27	18:50:48	18:58:46	472813	6365491e5682032c1c2a6687	3	1	practice_z	9	practice_z	5	stimuli_distractor_diamondtriangles.svg	stimuli_target_trianglerectangles.svg	9	yes	44	1	521	0	0			0	0			1				0	
6.6.1	win	2023-06-27	18:50:48	18:58:46	472813	6365491e5682032c1c2a6687	3	1	practice_z	9	advance_on_keypress_ZEE	6	stimuli_distractor_diamondtriangles.svg	stimuli_target_trianglerectangles.svg	9	yes	57	0	274	0	0			0	0			1				0	
6.6.1	win	2023-06-27	18:50:48	18:58:48	475505	6365491e5682032c1c2a6687	3	1	practice_z	9	practice_z	7	stimuli_target_rectanglediamonds.svg	stimuli_distractor_trianglediamonds.svg	4	yes	44	1	780	0	0			0	0			1				0	
6.6.1	win	2023-06-27	18:50:48	18:58:48	475505	6365491e5682032c1c2a6687	3	1	practice_z	9	advance_on_keypress_ZEE	8	stimuli_target_rectanglediamonds.svg	stimuli_distractor_trianglediamonds.svg	4	yes	57	0	396	0	0			0	0			1				0	
6.6.1	win	2023-06-27	18:50:48	18:58:51	478188	6365491e5682032c1c2a6687	3	1	practice_z	9	practice_z	9	stimuli_target_diamondsquares.svg	stimuli_distractor_diamondtriangles.svg	3	yes	44	1	630	0	0			0	0			1				0	
6.6.1	win	2023-06-27	18:50:48	18:58:51	478188	6365491e5682032c1c2a6687	3	1	practice_z	9	advance_on_keypress_ZEE	10	stimuli_target_diamondsquares.svg	stimuli_distractor_diamondtriangles.svg	3	yes	57	0	524	0	0			0	0			1				0	
6.6.1	win	2023-06-27	18:50:48	18:58:55	482358	6365491e5682032c1c2a6687	3	1	practice_z	9	practice_z	11	stimuli_distractor_diamondtriangles.svg	stimuli_distractor_diamondtriangles.svg	13	no	0	1	2000	0	0			0	0			1				0	
6.6.1	win	2023-06-27	18:50:48	18:58:55	482358	6365491e5682032c1c2a6687	3	1	practice_z	9	advance_on_keypress_ZEE	12	stimuli_distractor_diamondtriangles.svg	stimuli_distractor_diamondtriangles.svg	13	no	57	0	580	0	0			0	0			1				0	
6.6.1	win	2023-06-27	18:50:48	18:58:58	485699	6365491e5682032c1c2a6687	3	1	practice_z	9	practice_z	13	stimuli_distractor_trianglediamonds.svg	stimuli_target_diamondrectangles.svg	12	yes	44	1	1108	0	0			0	0			1				0	
6.6.1	win	2023-06-27	18:50:48	18:58:58	485699	6365491e5682032c1c2a6687	3	1	practice_z	9	advance_on_keypress_ZEE	14	stimuli_distractor_trianglediamonds.svg	stimuli_target_diamondrectangles.svg	12	yes	57	0	429	0	0			0	0			1				0	
6.6.1	win	2023-06-27	18:50:48	18:59:02	489789	6365491e5682032c1c2a6687	3	1	practice_z	9	practice_z	15	stimuli_distractor_trianglediamonds.svg	stimuli_distractor_diamondtriangles.svg	16	no	0	1	2000	0	0			0	0			1				0	
6.6.1	win	2023-06-27	18:50:48	18:59:02	489789	6365491e5682032c1c2a6687	3	1	practice_z	9	advance_on_keypress_ZEE	16	stimuli_distractor_trianglediamonds.svg	stimuli_distractor_diamondtriangles.svg	16	no	57	0	276	0	0			0	0			1				0	
6.6.1	win	2023-06-27	18:50:48	18:59:05	492228	6365491e5682032c1c2a6687	3	1	practice_z	9	practice_z	17	stimuli_distractor_trianglediamonds.svg	stimuli_target_squarediamonds.svg	11	yes	44	1	521	0	0			0	0			1				0	
6.6.1	win	2023-06-27	18:50:48	18:59:05	492228	6365491e5682032c1c2a6687	3	1	practice_z	9	advance_on_keypress_ZEE	18	stimuli_distractor_trianglediamonds.svg	stimuli_target_squarediamonds.svg	11	yes	57	0	318	0	0			0	0			1				0	
6.6.1	win	2023-06-27	18:50:48	18:59:09	496189	6365491e5682032c1c2a6687	3	1	practice_z	9	practice_z	19	stimuli_distractor_trianglediamonds.svg	stimuli_distractor_trianglediamonds.svg	15	no	0	1	2000	0	0			0	0			1				0	
6.6.1	win	2023-06-27	18:50:48	18:59:09	496189	6365491e5682032c1c2a6687	3	1	practice_z	9	advance_on_keypress_ZEE	20	stimuli_distractor_trianglediamonds.svg	stimuli_distractor_trianglediamonds.svg	15	no	57	0	481	0	0			0	0			1				0	
6.6.1	win	2023-06-27	18:50:48	18:59:12	498855	6365491e5682032c1c2a6687	3	1	practice_z	9	practice_z	21	stimuli_distractor_trianglediamonds.svg	stimuli_target_rectanglediamonds.svg	10	yes	44	1	535	0	0			0	0			1				0	
6.6.1	win	2023-06-27	18:50:48	18:59:12	498855	6365491e5682032c1c2a6687	3	1	practice_z	9	advance_on_keypress_ZEE	22	stimuli_distractor_trianglediamonds.svg	stimuli_target_rectanglediamonds.svg	10	yes	57	0	563	0	0			0	0			1				0	
6.6.1	win	2023-06-27	18:50:48	18:59:15	501897	6365491e5682032c1c2a6687	3	1	practice_z	9	practice_z	23	stimuli_target_rectanglediamonds.svg	stimuli_distractor_diamondtriangles.svg	1	yes	44	1	825	0	0			0	0			1				0	
6.6.1	win	2023-06-27	18:50:48	18:59:15	501897	6365491e5682032c1c2a6687	3	1	practice_z	9	advance_on_keypress_ZEE	24	stimuli_target_rectanglediamonds.svg	stimuli_distractor_diamondtriangles.svg	1	yes	57	0	491	0	0			0	0			1				0	
6.6.1	win	2023-06-27	18:50:48	18:59:17	504546	6365491e5682032c1c2a6687	3	1	practice_z	9	practice_z	25	stimuli_target_squarediamonds.svg	stimuli_distractor_diamondtriangles.svg	2	yes	44	1	526	0	0			0	0			1				0	
6.6.1	win	2023-06-27	18:50:48	18:59:17	504546	6365491e5682032c1c2a6687	3	1	practice_z	9	advance_on_keypress_ZEE	26	stimuli_target_squarediamonds.svg	stimuli_distractor_diamondtriangles.svg	2	yes	57	0	43	0	0			0	0			1				0	
6.6.1	win	2023-06-27	18:50:48	18:59:19	506661	6365491e5682032c1c2a6687	3	1	practice_z	9	practice_z	27	stimuli_target_squarediamonds.svg	stimuli_distractor_trianglediamonds.svg	5	yes	44	1	441	0	0			0	0			1				0	
6.6.1	win	2023-06-27	18:50:48	18:59:19	506661	6365491e5682032c1c2a6687	3	1	practice_z	9	advance_on_keypress_ZEE	28	stimuli_target_squarediamonds.svg	stimuli_distractor_trianglediamonds.svg	5	yes	57	0	19	0	0			0	0			1				0	
6.6.1	win	2023-06-27	18:50:48	18:59:21	508788	6365491e5682032c1c2a6687	3	1	practice_z	9	practice_z	29	stimuli_distractor_diamondtriangles.svg	stimuli_target_rectangletriangles.svg	7	yes	44	1	452	0	0			0	0			1				0	
6.6.1	win	2023-06-27	18:50:48	18:59:21	508788	6365491e5682032c1c2a6687	3	1	practice_z	9	advance_on_keypress_ZEE	30	stimuli_distractor_diamondtriangles.svg	stimuli_target_rectangletriangles.svg	7	yes	57	0	53	0	0			0	0			1				0	
6.6.1	win	2023-06-27	18:50:48	18:59:24	511002	6365491e5682032c1c2a6687	3	1	practice_z	9	practice_z	31	stimuli_target_diamondsquares.svg	stimuli_distractor_trianglediamonds.svg	6	yes	44	1	505	0	0			0	0			1				0	
6.6.1	win	2023-06-27	18:50:48	18:59:24	511002	6365491e5682032c1c2a6687	3	1	practice_z	9	advance_on_keypress_ZEE	32	stimuli_target_diamondsquares.svg	stimuli_distractor_trianglediamonds.svg	6	yes	57	0	128	0	0			0	0			1				0	
6.6.1	win	2023-06-27	18:50:48	18:59:28	515274	6365491e5682032c1c2a6687	3	1	main_z	11	main_z	1	stimuli_target_squaretriangles.svg	stimuli_distractor_diamondtriangles.svg	7	yes	44	1	857	0	0			0	0			1				0	
6.6.1	win	2023-06-27	18:50:48	18:59:28	515274	6365491e5682032c1c2a6687	3	1	main_z	11	advance_on_keypress_ZEE	2	stimuli_target_squaretriangles.svg	stimuli_distractor_diamondtriangles.svg	7	yes	57	0	161	0	0			0	0			1				0	
6.6.1	win	2023-06-27	18:50:48	18:59:29	516501	6365491e5682032c1c2a6687	3	1	main_z	11	main_z	3	stimuli_distractor_trianglediamonds.svg	stimuli_target_squaretriangles.svg	11	yes	44	1	434	0	0			0	0			1				0	
6.6.1	win	2023-06-27	18:50:48	18:59:29	516501	6365491e5682032c1c2a6687	3	1	main_z	11	advance_on_keypress_ZEE	4	stimuli_distractor_trianglediamonds.svg	stimuli_target_squaretriangles.svg	11	yes	57	0	78	0	0			0	0			1				0	
6.6.1	win	2023-06-27	18:50:48	18:59:30	517642	6365491e5682032c1c2a6687	3	1	main_z	11	main_z	5	stimuli_distractor_diamondtriangles.svg	stimuli_target_trianglesquares.svg	30	yes	44	1	426	0	0			0	0			1				0	
6.6.1	win	2023-06-27	18:50:48	18:59:30	517642	6365491e5682032c1c2a6687	3	1	main_z	11	advance_on_keypress_ZEE	6	stimuli_distractor_diamondtriangles.svg	stimuli_target_trianglesquares.svg	30	yes	57	0	126	0	0			0	0			1				0	
6.6.1	win	2023-06-27	18:50:48	18:59:31	518737	6365491e5682032c1c2a6687	3	1	main_z	11	main_z	7	stimuli_target_squarediamonds.svg	stimuli_distractor_diamondtriangles.svg	8	yes	44	1	337	0	0			0	0			1				0	
6.6.1	win	2023-06-27	18:50:48	18:59:31	518737	6365491e5682032c1c2a6687	3	1	main_z	11	advance_on_keypress_ZEE	8	stimuli_target_squarediamonds.svg	stimuli_distractor_diamondtriangles.svg	8	yes	57	0	88	0	0			0	0			1				0	
6.6.1	win	2023-06-27	18:50:48	18:59:33	519818	6365491e5682032c1c2a6687	3	1	main_z	11	main_z	9	stimuli_distractor_trianglediamonds.svg	stimuli_target_rectangletriangles.svg	9	yes	44	1	352	0	0			0	0			1				0	
6.6.1	win	2023-06-27	18:50:48	18:59:33	519818	6365491e5682032c1c2a6687	3	1	main_z	11	advance_on_keypress_ZEE	10	stimuli_distractor_trianglediamonds.svg	stimuli_target_rectangletriangles.svg	9	yes	57	0	76	0	0			0	0			1				0	
6.6.1	win	2023-06-27	18:50:48	18:59:35	522533	6365491e5682032c1c2a6687	3	1	main_z	11	main_z	11	stimuli_distractor_trianglediamonds.svg	stimuli_distractor_trianglediamonds.svg	33	no	0	1	2000	0	0			0	0			1				0	
6.6.1	win	2023-06-27	18:50:48	18:59:35	522533	6365491e5682032c1c2a6687	3	1	main_z	11	advance_on_keypress_ZEE	12	stimuli_distractor_trianglediamonds.svg	stimuli_distractor_trianglediamonds.svg	33	no	57	0	196	0	0			0	0			1				0	
6.6.1	win	2023-06-27	18:50:48	18:59:38	525383	6365491e5682032c1c2a6687	3	1	main_z	11	main_z	13	stimuli_distractor_diamondtriangles.svg	stimuli_distractor_trianglediamonds.svg	37	no	0	1	2000	0	0			0	0			1				0	
6.6.1	win	2023-06-27	18:50:48	18:59:38	525383	6365491e5682032c1c2a6687	3	1	main_z	11	advance_on_keypress_ZEE	14	stimuli_distractor_diamondtriangles.svg	stimuli_distractor_trianglediamonds.svg	37	no	57	0	118	0	0			0	0			1				0	
6.6.1	win	2023-06-27	18:50:48	18:59:40	527018	6365491e5682032c1c2a6687	3	1	main_z	11	main_z	15	stimuli_distractor_trianglediamonds.svg	stimuli_target_trianglesquares.svg	26	yes	44	1	869	0	0			0	0			1				0	
6.6.1	win	2023-06-27	18:50:48	18:59:40	527018	6365491e5682032c1c2a6687	3	1	main_z	11	advance_on_keypress_ZEE	16	stimuli_distractor_trianglediamonds.svg	stimuli_target_trianglesquares.svg	26	yes	57	0	431	0	0			0	0			1				0	
6.6.1	win	2023-06-27	18:50:48	18:59:41	528686	6365491e5682032c1c2a6687	3	1	main_z	11	main_z	17	stimuli_target_diamondsquares.svg	stimuli_distractor_trianglediamonds.svg	20	yes	44	1	588	0	0			0	0			1				0	
6.6.1	win	2023-06-27	18:50:48	18:59:41	528686	6365491e5682032c1c2a6687	3	1	main_z	11	advance_on_keypress_ZEE	18	stimuli_target_diamondsquares.svg	stimuli_distractor_trianglediamonds.svg	20	yes	57	0	67	0	0			0	0			1				0	
6.6.1	win	2023-06-27	18:50:48	18:59:44	531399	6365491e5682032c1c2a6687	3	1	main_z	11	main_z	19	stimuli_distractor_trianglediamonds.svg	stimuli_distractor_trianglediamonds.svg	34	no	0	1	2000	0	0			0	0			1				0	
6.6.1	win	2023-06-27	18:50:48	18:59:44	531399	6365491e5682032c1c2a6687	3	1	main_z	11	advance_on_keypress_ZEE	20	stimuli_distractor_trianglediamonds.svg	stimuli_distractor_trianglediamonds.svg	34	no	57	0	36	0	0			0	0			1				0	
6.6.1	win	2023-06-27	18:50:48	18:59:45	532551	6365491e5682032c1c2a6687	3	1	main_z	11	main_z	21	stimuli_distractor_trianglediamonds.svg	stimuli_target_diamondrectangles.svg	27	yes	44	1	469	0	0			0	0			1				0	
6.6.1	win	2023-06-27	18:50:48	18:59:45	532551	6365491e5682032c1c2a6687	3	1	main_z	11	advance_on_keypress_ZEE	22	stimuli_distractor_trianglediamonds.svg	stimuli_target_diamondrectangles.svg	27	yes	57	0	55	0	0			0	0			1				0	
6.6.1	win	2023-06-27	18:50:48	18:59:47	533820	6365491e5682032c1c2a6687	3	1	main_z	11	main_z	23	stimuli_distractor_trianglediamonds.svg	stimuli_target_rectanglediamonds.svg	10	yes	44	1	572	0	0			0	0			1				0	
6.6.1	win	2023-06-27	18:50:48	18:59:47	533820	6365491e5682032c1c2a6687	3	1	main_z	11	advance_on_keypress_ZEE	24	stimuli_distractor_trianglediamonds.svg	stimuli_target_rectanglediamonds.svg	10	yes	57	0	319	0	0			0	0			1				0	
6.6.1	win	2023-06-27	18:50:48	18:59:49	536327	6365491e5682032c1c2a6687	3	1	main_z	11	main_z	25	stimuli_distractor_trianglediamonds.svg	stimuli_target_trianglerectangles.svg	25	yes	44	1	1545	0	0			0	0			1				0	
6.6.1	win	2023-06-27	18:50:48	18:59:49	536327	6365491e5682032c1c2a6687	3	1	main_z	11	advance_on_keypress_ZEE	26	stimuli_distractor_trianglediamonds.svg	stimuli_target_trianglerectangles.svg	25	yes	57	0	108	0	0			0	0			1				0	
6.6.1	win	2023-06-27	18:50:48	18:59:51	538157	6365491e5682032c1c2a6687	3	1	main_z	11	main_z	27	stimuli_distractor_diamondtriangles.svg	stimuli_target_squarediamonds.svg	16	yes	44	1	1076	0	0			0	0			1				0	
6.6.1	win	2023-06-27	18:50:48	18:59:51	538157	6365491e5682032c1c2a6687	3	1	main_z	11	advance_on_keypress_ZEE	28	stimuli_distractor_diamondtriangles.svg	stimuli_target_squarediamonds.svg	16	yes	57	0	88	0	0			0	0			1				0	
6.6.1	win	2023-06-27	18:50:48	18:59:52	539301	6365491e5682032c1c2a6687	3	1	main_z	11	main_z	29	stimuli_distractor_diamondtriangles.svg	stimuli_target_rectangletriangles.svg	13	yes	44	1	421	0	0			0	0			1				0	
6.6.1	win	2023-06-27	18:50:48	18:59:52	539301	6365491e5682032c1c2a6687	3	1	main_z	11	advance_on_keypress_ZEE	30	stimuli_distractor_diamondtriangles.svg	stimuli_target_rectangletriangles.svg	13	yes	57	0	69	0	0			0	0			1				0	
6.6.1	win	2023-06-27	18:50:48	18:59:53	540436	6365491e5682032c1c2a6687	3	1	main_z	11	main_z	31	stimuli_distractor_diamondtriangles.svg	stimuli_target_rectanglediamonds.svg	14	yes	44	1	422	0	0			0	0			1				0	
6.6.1	win	2023-06-27	18:50:48	18:59:53	540436	6365491e5682032c1c2a6687	3	1	main_z	11	advance_on_keypress_ZEE	32	stimuli_distractor_diamondtriangles.svg	stimuli_target_rectanglediamonds.svg	14	yes	57	0	73	0	0			0	0			1				0	
6.6.1	win	2023-06-27	18:50:48	18:59:56	543147	6365491e5682032c1c2a6687	3	1	main_z	11	main_z	33	stimuli_distractor_trianglediamonds.svg	stimuli_distractor_diamondtriangles.svg	36	no	0	1	2000	0	0			0	0			1				0	
6.6.1	win	2023-06-27	18:50:48	18:59:56	543147	6365491e5682032c1c2a6687	3	1	main_z	11	advance_on_keypress_ZEE	34	stimuli_distractor_trianglediamonds.svg	stimuli_distractor_diamondtriangles.svg	36	no	57	0	41	0	0			0	0			1				0	
6.6.1	win	2023-06-27	18:50:48	18:59:57	544386	6365491e5682032c1c2a6687	3	1	main_z	11	main_z	35	stimuli_distractor_trianglediamonds.svg	stimuli_target_squarediamonds.svg	12	yes	44	1	557	0	0			0	0			1				0	
6.6.1	win	2023-06-27	18:50:48	18:59:57	544386	6365491e5682032c1c2a6687	3	1	main_z	11	advance_on_keypress_ZEE	36	stimuli_distractor_trianglediamonds.svg	stimuli_target_squarediamonds.svg	12	yes	57	0	50	0	0			0	0			1				0	
6.6.1	win	2023-06-27	18:50:48	18:59:58	545757	6365491e5682032c1c2a6687	3	1	main_z	11	main_z	37	stimuli_distractor_diamondtriangles.svg	stimuli_target_diamondsquares.svg	32	yes	44	1	677	0	0			0	0			1				0	
6.6.1	win	2023-06-27	18:50:48	18:59:58	545757	6365491e5682032c1c2a6687	3	1	main_z	11	advance_on_keypress_ZEE	38	stimuli_distractor_diamondtriangles.svg	stimuli_target_diamondsquares.svg	32	yes	57	0	45	0	0			0	0			1				0	
6.6.1	win	2023-06-27	18:50:48	19:00:00	546900	6365491e5682032c1c2a6687	3	1	main_z	11	main_z	39	stimuli_target_rectangletriangles.svg	stimuli_distractor_diamondtriangles.svg	5	yes	44	1	471	0	0			0	0			1				0	
6.6.1	win	2023-06-27	18:50:48	19:00:00	546900	6365491e5682032c1c2a6687	3	1	main_z	11	advance_on_keypress_ZEE	40	stimuli_target_rectangletriangles.svg	stimuli_distractor_diamondtriangles.svg	5	yes	57	0	459	0	0			0	0			1				0	
6.6.1	win	2023-06-27	18:50:48	19:00:01	548542	6365491e5682032c1c2a6687	3	1	main_z	11	main_z	41	stimuli_distractor_diamondtriangles.svg	stimuli_target_squaretriangles.svg	15	yes	44	1	547	0	0			0	0			1				0	
6.6.1	win	2023-06-27	18:50:48	19:00:01	548542	6365491e5682032c1c2a6687	3	1	main_z	11	advance_on_keypress_ZEE	42	stimuli_distractor_diamondtriangles.svg	stimuli_target_squaretriangles.svg	15	yes	57	0	84	0	0			0	0			1				0	
6.6.1	win	2023-06-27	18:50:48	19:00:03	550111	6365491e5682032c1c2a6687	3	1	main_z	11	main_z	43	stimuli_target_trianglerectangles.svg	stimuli_distractor_trianglediamonds.svg	17	yes	44	1	832	0	0			0	0			1				0	
6.6.1	win	2023-06-27	18:50:48	19:00:03	550111	6365491e5682032c1c2a6687	3	1	main_z	11	advance_on_keypress_ZEE	44	stimuli_target_trianglerectangles.svg	stimuli_distractor_trianglediamonds.svg	17	yes	57	0	37	0	0			0	0			1				0	
6.6.1	win	2023-06-27	18:50:48	19:00:04	551369	6365491e5682032c1c2a6687	3	1	main_z	11	main_z	45	stimuli_distractor_diamondtriangles.svg	stimuli_target_trianglerectangles.svg	29	yes	44	1	573	0	0			0	0			1				0	
6.6.1	win	2023-06-27	18:50:48	19:00:04	551369	6365491e5682032c1c2a6687	3	1	main_z	11	advance_on_keypress_ZEE	46	stimuli_distractor_diamondtriangles.svg	stimuli_target_trianglerectangles.svg	29	yes	57	0	89	0	0			0	0			1				0	
6.6.1	win	2023-06-27	18:50:48	19:00:05	552624	6365491e5682032c1c2a6687	3	1	main_z	11	main_z	47	stimuli_distractor_diamondtriangles.svg	stimuli_target_diamondrectangles.svg	31	yes	44	1	529	0	0			0	0			1				0	
6.6.1	win	2023-06-27	18:50:48	19:00:05	552624	6365491e5682032c1c2a6687	3	1	main_z	11	advance_on_keypress_ZEE	48	stimuli_distractor_diamondtriangles.svg	stimuli_target_diamondrectangles.svg	31	yes	57	0	55	0	0			0	0			1				0	
6.6.1	win	2023-06-27	18:50:48	19:00:08	555329	6365491e5682032c1c2a6687	3	1	main_z	11	main_z	49	stimuli_distractor_diamondtriangles.svg	stimuli_distractor_diamondtriangles.svg	40	no	0	1	2000	0	0			0	0			1				0	
6.6.1	win	2023-06-27	18:50:48	19:00:08	555329	6365491e5682032c1c2a6687	3	1	main_z	11	advance_on_keypress_ZEE	50	stimuli_distractor_diamondtriangles.svg	stimuli_distractor_diamondtriangles.svg	40	no	57	0	1785	0	0			0	0			1				0	
6.6.1	win	2023-06-27	18:50:48	19:00:12	559062	6365491e5682032c1c2a6687	3	1	main_z	11	main_z	51	stimuli_target_rectangletriangles.svg	stimuli_distractor_trianglediamonds.svg	1	yes	44	1	1299	0	0			0	0			1				0	
6.6.1	win	2023-06-27	18:50:48	19:00:12	559062	6365491e5682032c1c2a6687	3	1	main_z	11	advance_on_keypress_ZEE	52	stimuli_target_rectangletriangles.svg	stimuli_distractor_trianglediamonds.svg	1	yes	57	0	174	0	0			0	0			1				0	
6.6.1	win	2023-06-27	18:50:48	19:00:13	560756	6365491e5682032c1c2a6687	3	1	main_z	11	main_z	53	stimuli_target_trianglesquares.svg	stimuli_distractor_diamondtriangles.svg	22	yes	44	1	879	0	0			0	0			1				0	
6.6.1	win	2023-06-27	18:50:48	19:00:13	560756	6365491e5682032c1c2a6687	3	1	main_z	11	advance_on_keypress_ZEE	54	stimuli_target_trianglesquares.svg	stimuli_distractor_diamondtriangles.svg	22	yes	57	0	106	0	0			0	0			1				0	
6.6.1	win	2023-06-27	18:50:48	19:00:15	561918	6365491e5682032c1c2a6687	3	1	main_z	11	main_z	55	stimuli_target_squaretriangles.svg	stimuli_distractor_trianglediamonds.svg	3	yes	44	1	422	0	0			0	0			1				0	
6.6.1	win	2023-06-27	18:50:48	19:00:15	561918	6365491e5682032c1c2a6687	3	1	main_z	11	advance_on_keypress_ZEE	56	stimuli_target_squaretriangles.svg	stimuli_distractor_trianglediamonds.svg	3	yes	57	0	63	0	0			0	0			1				0	
6.6.1	win	2023-06-27	18:50:48	19:00:16	563047	6365491e5682032c1c2a6687	3	1	main_z	11	main_z	57	stimuli_distractor_trianglediamonds.svg	stimuli_target_diamondsquares.svg	28	yes	44	1	420	0	0			0	0			1				0	
6.6.1	win	2023-06-27	18:50:48	19:00:16	563047	6365491e5682032c1c2a6687	3	1	main_z	11	advance_on_keypress_ZEE	58	stimuli_distractor_trianglediamonds.svg	stimuli_target_diamondsquares.svg	28	yes	57	0	101	0	0			0	0			1				0	
6.6.1	win	2023-06-27	18:50:48	19:00:17	564192	6365491e5682032c1c2a6687	3	1	main_z	11	main_z	59	stimuli_target_rectanglediamonds.svg	stimuli_distractor_diamondtriangles.svg	6	yes	44	1	399	0	0			0	0			1				0	
6.6.1	win	2023-06-27	18:50:48	19:00:17	564192	6365491e5682032c1c2a6687	3	1	main_z	11	advance_on_keypress_ZEE	60	stimuli_target_rectanglediamonds.svg	stimuli_distractor_diamondtriangles.svg	6	yes	57	0	176	0	0			0	0			1				0	
6.6.1	win	2023-06-27	18:50:48	19:00:18	565392	6365491e5682032c1c2a6687	3	1	main_z	11	main_z	61	stimuli_target_trianglerectangles.svg	stimuli_distractor_diamondtriangles.svg	21	yes	44	1	379	0	0			0	0			1				0	
6.6.1	win	2023-06-27	18:50:48	19:00:18	565392	6365491e5682032c1c2a6687	3	1	main_z	11	advance_on_keypress_ZEE	62	stimuli_target_trianglerectangles.svg	stimuli_distractor_diamondtriangles.svg	21	yes	57	0	49	0	0			0	0			1				0	
6.6.1	win	2023-06-27	18:50:48	19:00:20	567681	6365491e5682032c1c2a6687	3	1	main_z	11	main_z	63	stimuli_target_squarediamonds.svg	stimuli_distractor_trianglediamonds.svg	4	yes	44	1	1587	0	0			0	0			1				0	
6.6.1	win	2023-06-27	18:50:48	19:00:20	567681	6365491e5682032c1c2a6687	3	1	main_z	11	advance_on_keypress_ZEE	64	stimuli_target_squarediamonds.svg	stimuli_distractor_trianglediamonds.svg	4	yes	57	0	54	0	0			0	0			1				0	
6.6.1	win	2023-06-27	18:50:48	19:00:22	569203	6365491e5682032c1c2a6687	3	1	main_z	11	main_z	65	stimuli_target_diamondrectangles.svg	stimuli_distractor_diamondtriangles.svg	23	yes	44	1	826	0	0			0	0			1				0	
6.6.1	win	2023-06-27	18:50:48	19:00:22	569203	6365491e5682032c1c2a6687	3	1	main_z	11	advance_on_keypress_ZEE	66	stimuli_target_diamondrectangles.svg	stimuli_distractor_diamondtriangles.svg	23	yes	57	0	68	0	0			0	0			1				0	
6.6.1	win	2023-06-27	18:50:48	19:00:25	571909	6365491e5682032c1c2a6687	3	1	main_z	11	main_z	67	stimuli_distractor_trianglediamonds.svg	stimuli_distractor_diamondtriangles.svg	35	no	0	1	2000	0	0			0	0			1				0	
6.6.1	win	2023-06-27	18:50:48	19:00:25	571909	6365491e5682032c1c2a6687	3	1	main_z	11	advance_on_keypress_ZEE	68	stimuli_distractor_trianglediamonds.svg	stimuli_distractor_diamondtriangles.svg	35	no	57	0	401	0	0			0	0			1				0	
6.6.1	win	2023-06-27	18:50:48	19:00:28	574959	6365491e5682032c1c2a6687	3	1	main_z	11	main_z	69	stimuli_distractor_diamondtriangles.svg	stimuli_distractor_diamondtriangles.svg	39	no	0	1	2000	0	0			0	0			1				0	
6.6.1	win	2023-06-27	18:50:48	19:00:28	574959	6365491e5682032c1c2a6687	3	1	main_z	11	advance_on_keypress_ZEE	70	stimuli_distractor_diamondtriangles.svg	stimuli_distractor_diamondtriangles.svg	39	no	57	0	272	0	0			0	0			1				0	
6.6.1	win	2023-06-27	18:50:48	19:00:29	576372	6365491e5682032c1c2a6687	3	1	main_z	11	main_z	71	stimuli_target_diamondsquares.svg	stimuli_distractor_diamondtriangles.svg	24	yes	44	1	496	0	0			0	0			1				0	
6.6.1	win	2023-06-27	18:50:48	19:00:29	576372	6365491e5682032c1c2a6687	3	1	main_z	11	advance_on_keypress_ZEE	72	stimuli_target_diamondsquares.svg	stimuli_distractor_diamondtriangles.svg	24	yes	57	0	20	0	0			0	0			1				0	
6.6.1	win	2023-06-27	18:50:48	19:00:30	577694	6365491e5682032c1c2a6687	3	1	main_z	11	main_z	73	stimuli_target_rectanglediamonds.svg	stimuli_distractor_trianglediamonds.svg	2	yes	44	1	652	0	0			0	0			1				0	
6.6.1	win	2023-06-27	18:50:48	19:00:30	577694	6365491e5682032c1c2a6687	3	1	main_z	11	advance_on_keypress_ZEE	74	stimuli_target_rectanglediamonds.svg	stimuli_distractor_trianglediamonds.svg	2	yes	57	0	24	0	0			0	0			1				0	
6.6.1	win	2023-06-27	18:50:48	19:00:32	579071	6365491e5682032c1c2a6687	3	1	main_z	11	main_z	75	stimuli_target_diamondrectangles.svg	stimuli_distractor_trianglediamonds.svg	19	yes	44	1	712	0	0			0	0			1				0	
6.6.1	win	2023-06-27	18:50:48	19:00:32	579071	6365491e5682032c1c2a6687	3	1	main_z	11	advance_on_keypress_ZEE	76	stimuli_target_diamondrectangles.svg	stimuli_distractor_trianglediamonds.svg	19	yes	57	0	38	0	0			0	0			1				0	
6.6.1	win	2023-06-27	18:50:48	19:00:33	580305	6365491e5682032c1c2a6687	3	1	main_z	11	main_z	77	stimuli_target_trianglesquares.svg	stimuli_distractor_trianglediamonds.svg	18	yes	44	1	547	0	0			0	0			1				0	
6.6.1	win	2023-06-27	18:50:48	19:00:33	580305	6365491e5682032c1c2a6687	3	1	main_z	11	advance_on_keypress_ZEE	78	stimuli_target_trianglesquares.svg	stimuli_distractor_trianglediamonds.svg	18	yes	57	0	8	0	0			0	0			1				0	
6.6.1	win	2023-06-27	18:50:48	19:00:34	581474	6365491e5682032c1c2a6687	3	1	main_z	11	main_z	79	stimuli_distractor_diamondtriangles.svg	stimuli_distractor_trianglediamonds.svg	38	no	44	0	500	0	0			0	0			1				0	
6.6.1	win	2023-06-27	18:50:48	19:00:34	581474	6365491e5682032c1c2a6687	3	1	main_z	11	advance_on_keypress_ZEE	80	stimuli_distractor_diamondtriangles.svg	stimuli_distractor_trianglediamonds.svg	38	no	57	0	57	0	0			0	0			1				0	
6.6.1	win	2023-06-27	18:50:48	19:00:36	582971	6365491e5682032c1c2a6687	3	1	main_z	11	main_z	81	stimuli_target_diamondsquares.svg	stimuli_distractor_trianglediamonds.svg	20	yes	44	1	797	0	0			0	0			1				0	
6.6.1	win	2023-06-27	18:50:48	19:00:36	582971	6365491e5682032c1c2a6687	3	1	main_z	11	advance_on_keypress_ZEE	82	stimuli_target_diamondsquares.svg	stimuli_distractor_trianglediamonds.svg	20	yes	57	0	43	0	0			0	0			1				0	
6.6.1	win	2023-06-27	18:50:48	19:00:38	585658	6365491e5682032c1c2a6687	3	1	main_z	11	main_z	83	stimuli_distractor_trianglediamonds.svg	stimuli_distractor_diamondtriangles.svg	35	no	0	1	2000	0	0			0	0			1				0	
6.6.1	win	2023-06-27	18:50:48	19:00:38	585658	6365491e5682032c1c2a6687	3	1	main_z	11	advance_on_keypress_ZEE	84	stimuli_distractor_trianglediamonds.svg	stimuli_distractor_diamondtriangles.svg	35	no	57	0	828	0	0			0	0			1				0	
6.6.1	win	2023-06-27	18:50:48	19:00:40	587615	6365491e5682032c1c2a6687	3	1	main_z	11	main_z	85	stimuli_distractor_trianglediamonds.svg	stimuli_target_rectangletriangles.svg	9	yes	44	1	491	0	0			0	0			1				0	
6.6.1	win	2023-06-27	18:50:48	19:00:40	587615	6365491e5682032c1c2a6687	3	1	main_z	11	advance_on_keypress_ZEE	86	stimuli_distractor_trianglediamonds.svg	stimuli_target_rectangletriangles.svg	9	yes	57	0	43	0	0			0	0			1				0	
6.6.1	win	2023-06-27	18:50:48	19:00:41	588676	6365491e5682032c1c2a6687	3	1	main_z	11	main_z	87	stimuli_target_rectangletriangles.svg	stimuli_distractor_trianglediamonds.svg	1	yes	44	1	386	0	0			0	0			1				0	
6.6.1	win	2023-06-27	18:50:48	19:00:41	588676	6365491e5682032c1c2a6687	3	1	main_z	11	advance_on_keypress_ZEE	88	stimuli_target_rectangletriangles.svg	stimuli_distractor_trianglediamonds.svg	1	yes	57	0	78	0	0			0	0			1				0	
6.6.1	win	2023-06-27	18:50:48	19:00:43	590136	6365491e5682032c1c2a6687	3	1	main_z	11	main_z	89	stimuli_distractor_diamondtriangles.svg	stimuli_target_squaretriangles.svg	15	yes	44	1	745	0	0			0	0			1				0	
6.6.1	win	2023-06-27	18:50:48	19:00:43	590136	6365491e5682032c1c2a6687	3	1	main_z	11	advance_on_keypress_ZEE	90	stimuli_distractor_diamondtriangles.svg	stimuli_target_squaretriangles.svg	15	yes	57	0	581	0	0			0	0			1				0	
6.6.1	win	2023-06-27	18:50:48	19:00:45	592382	6365491e5682032c1c2a6687	3	1	main_z	11	main_z	91	stimuli_distractor_trianglediamonds.svg	stimuli_target_diamondsquares.svg	28	yes	44	1	1009	0	0			0	0			1				0	
6.6.1	win	2023-06-27	18:50:48	19:00:45	592382	6365491e5682032c1c2a6687	3	1	main_z	11	advance_on_keypress_ZEE	92	stimuli_distractor_trianglediamonds.svg	stimuli_target_diamondsquares.svg	28	yes	57	0	85	0	0			0	0			1				0	
6.6.1	win	2023-06-27	18:50:48	19:00:46	593621	6365491e5682032c1c2a6687	3	1	main_z	11	main_z	93	stimuli_target_trianglesquares.svg	stimuli_distractor_trianglediamonds.svg	18	yes	44	1	510	0	0			0	0			1				0	
6.6.1	win	2023-06-27	18:50:48	19:00:46	593621	6365491e5682032c1c2a6687	3	1	main_z	11	advance_on_keypress_ZEE	94	stimuli_target_trianglesquares.svg	stimuli_distractor_trianglediamonds.svg	18	yes	57	0	51	0	0			0	0			1				0	
6.6.1	win	2023-06-27	18:50:48	19:00:48	594930	6365491e5682032c1c2a6687	3	1	main_z	11	main_z	95	stimuli_distractor_diamondtriangles.svg	stimuli_target_squarediamonds.svg	16	yes	44	1	608	0	0			0	0			1				0	
6.6.1	win	2023-06-27	18:50:48	19:00:48	594930	6365491e5682032c1c2a6687	3	1	main_z	11	advance_on_keypress_ZEE	96	stimuli_distractor_diamondtriangles.svg	stimuli_target_squarediamonds.svg	16	yes	57	0	60	0	0			0	0			1				0	
6.6.1	win	2023-06-27	18:50:48	19:00:49	596047	6365491e5682032c1c2a6687	3	1	main_z	11	main_z	97	stimuli_target_squaretriangles.svg	stimuli_distractor_diamondtriangles.svg	7	yes	44	1	425	0	0			0	0			1				0	
6.6.1	win	2023-06-27	18:50:48	19:00:49	596047	6365491e5682032c1c2a6687	3	1	main_z	11	advance_on_keypress_ZEE	98	stimuli_target_squaretriangles.svg	stimuli_distractor_diamondtriangles.svg	7	yes	57	0	59	0	0			0	0			1				0	
6.6.1	win	2023-06-27	18:50:48	19:00:50	597124	6365491e5682032c1c2a6687	3	1	main_z	11	main_z	99	stimuli_distractor_trianglediamonds.svg	stimuli_distractor_diamondtriangles.svg	36	no	44	0	385	0	0			0	0			1				0	
6.6.1	win	2023-06-27	18:50:48	19:00:50	597124	6365491e5682032c1c2a6687	3	1	main_z	11	advance_on_keypress_ZEE	100	stimuli_distractor_trianglediamonds.svg	stimuli_distractor_diamondtriangles.svg	36	no	57	0	26	0	0			0	0			1				0	
6.6.1	win	2023-06-27	18:50:48	19:00:52	599788	6365491e5682032c1c2a6687	3	1	main_z	11	main_z	101	stimuli_distractor_diamondtriangles.svg	stimuli_distractor_diamondtriangles.svg	40	no	0	1	2000	0	0			0	0			1				0	
6.6.1	win	2023-06-27	18:50:48	19:00:52	599788	6365491e5682032c1c2a6687	3	1	main_z	11	advance_on_keypress_ZEE	102	stimuli_distractor_diamondtriangles.svg	stimuli_distractor_diamondtriangles.svg	40	no	57	0	205	0	0			0	0			1				0	
6.6.1	win	2023-06-27	18:50:48	19:00:54	601168	6365491e5682032c1c2a6687	3	1	main_z	11	main_z	103	stimuli_distractor_diamondtriangles.svg	stimuli_target_trianglesquares.svg	30	yes	44	1	530	0	0			0	0			1				0	
6.6.1	win	2023-06-27	18:50:48	19:00:54	601168	6365491e5682032c1c2a6687	3	1	main_z	11	advance_on_keypress_ZEE	104	stimuli_distractor_diamondtriangles.svg	stimuli_target_trianglesquares.svg	30	yes	57	0	65	0	0			0	0			1				0	
6.6.1	win	2023-06-27	18:50:48	19:00:55	602634	6365491e5682032c1c2a6687	3	1	main_z	11	main_z	105	stimuli_target_rectanglediamonds.svg	stimuli_distractor_diamondtriangles.svg	6	yes	44	1	746	0	0			0	0			1				0	
6.6.1	win	2023-06-27	18:50:48	19:00:55	602634	6365491e5682032c1c2a6687	3	1	main_z	11	advance_on_keypress_ZEE	106	stimuli_target_rectanglediamonds.svg	stimuli_distractor_diamondtriangles.svg	6	yes	57	0	26	0	0			0	0			1				0	
6.6.1	win	2023-06-27	18:50:48	19:00:57	604015	6365491e5682032c1c2a6687	3	1	main_z	11	main_z	107	stimuli_target_diamondrectangles.svg	stimuli_distractor_trianglediamonds.svg	19	yes	44	1	711	0	0			0	0			1				0	
6.6.1	win	2023-06-27	18:50:48	19:00:57	604015	6365491e5682032c1c2a6687	3	1	main_z	11	advance_on_keypress_ZEE	108	stimuli_target_diamondrectangles.svg	stimuli_distractor_trianglediamonds.svg	19	yes	57	0	56	0	0			0	0			1				0	
6.6.1	win	2023-06-27	18:50:48	19:00:59	606705	6365491e5682032c1c2a6687	3	1	main_z	11	main_z	109	stimuli_distractor_trianglediamonds.svg	stimuli_distractor_trianglediamonds.svg	33	no	0	1	2000	0	0			0	0			1				0	
6.6.1	win	2023-06-27	18:50:48	19:00:59	606705	6365491e5682032c1c2a6687	3	1	main_z	11	advance_on_keypress_ZEE	110	stimuli_distractor_trianglediamonds.svg	stimuli_distractor_trianglediamonds.svg	33	no	57	0	252	0	0			0	0			1				0	
6.6.1	win	2023-06-27	18:50:48	19:01:01	608216	6365491e5682032c1c2a6687	3	1	main_z	11	main_z	111	stimuli_target_diamondsquares.svg	stimuli_distractor_diamondtriangles.svg	24	yes	44	1	612	0	0			0	0			1				0	
6.6.1	win	2023-06-27	18:50:48	19:01:01	608216	6365491e5682032c1c2a6687	3	1	main_z	11	advance_on_keypress_ZEE	112	stimuli_target_diamondsquares.svg	stimuli_distractor_diamondtriangles.svg	24	yes	57	0	65	0	0			0	0			1				0	
6.6.1	win	2023-06-27	18:50:48	19:01:04	610920	6365491e5682032c1c2a6687	3	1	main_z	11	main_z	113	stimuli_distractor_diamondtriangles.svg	stimuli_distractor_trianglediamonds.svg	37	no	0	1	2000	0	0			0	0			1				0	
6.6.1	win	2023-06-27	18:50:48	19:01:04	610920	6365491e5682032c1c2a6687	3	1	main_z	11	advance_on_keypress_ZEE	114	stimuli_distractor_diamondtriangles.svg	stimuli_distractor_trianglediamonds.svg	37	no	57	0	399	0	0			0	0			1				0	
6.6.1	win	2023-06-27	18:50:48	19:01:05	612509	6365491e5682032c1c2a6687	3	1	main_z	11	main_z	115	stimuli_distractor_trianglediamonds.svg	stimuli_target_trianglesquares.svg	26	yes	44	1	539	0	0			0	0			1				0	
6.6.1	win	2023-06-27	18:50:48	19:01:05	612509	6365491e5682032c1c2a6687	3	1	main_z	11	advance_on_keypress_ZEE	116	stimuli_distractor_trianglediamonds.svg	stimuli_target_trianglesquares.svg	26	yes	57	0	45	0	0			0	0			1				0	
6.6.1	win	2023-06-27	18:50:48	19:01:07	613884	6365491e5682032c1c2a6687	3	1	main_z	11	main_z	117	stimuli_distractor_trianglediamonds.svg	stimuli_target_squarediamonds.svg	12	yes	44	1	698	0	0			0	0			1				0	
6.6.1	win	2023-06-27	18:50:48	19:01:07	613884	6365491e5682032c1c2a6687	3	1	main_z	11	advance_on_keypress_ZEE	118	stimuli_distractor_trianglediamonds.svg	stimuli_target_squarediamonds.svg	12	yes	57	0	48	0	0			0	0			1				0	
6.6.1	win	2023-06-27	18:50:48	19:01:08	615105	6365491e5682032c1c2a6687	3	1	main_z	11	main_z	119	stimuli_target_rectanglediamonds.svg	stimuli_distractor_trianglediamonds.svg	2	yes	44	1	517	0	0			0	0			1				0	
6.6.1	win	2023-06-27	18:50:48	19:01:08	615105	6365491e5682032c1c2a6687	3	1	main_z	11	advance_on_keypress_ZEE	120	stimuli_target_rectanglediamonds.svg	stimuli_distractor_trianglediamonds.svg	2	yes	57	0	80	0	0			0	0			1				0	
6.6.1	win	2023-06-27	18:50:48	19:01:09	616306	6365491e5682032c1c2a6687	3	1	main_z	11	main_z	121	stimuli_distractor_trianglediamonds.svg	stimuli_target_rectanglediamonds.svg	10	yes	44	1	471	0	0			0	0			1				0	
6.6.1	win	2023-06-27	18:50:48	19:01:09	616306	6365491e5682032c1c2a6687	3	1	main_z	11	advance_on_keypress_ZEE	122	stimuli_distractor_trianglediamonds.svg	stimuli_target_rectanglediamonds.svg	10	yes	57	0	149	0	0			0	0			1				0	
6.6.1	win	2023-06-27	18:50:48	19:01:10	617575	6365491e5682032c1c2a6687	3	1	main_z	11	main_z	123	stimuli_distractor_diamondtriangles.svg	stimuli_target_diamondsquares.svg	32	yes	44	1	473	0	0			0	0			1				0	
6.6.1	win	2023-06-27	18:50:48	19:01:10	617575	6365491e5682032c1c2a6687	3	1	main_z	11	advance_on_keypress_ZEE	124	stimuli_distractor_diamondtriangles.svg	stimuli_target_diamondsquares.svg	32	yes	57	0	252	0	0			0	0			1				0	
6.6.1	win	2023-06-27	18:50:48	19:01:13	620469	6365491e5682032c1c2a6687	3	1	main_z	11	main_z	125	stimuli_distractor_diamondtriangles.svg	stimuli_target_trianglerectangles.svg	29	yes	0	0	2000	0	0			0	0			1				0	
6.6.1	win	2023-06-27	18:50:48	19:01:13	620469	6365491e5682032c1c2a6687	3	1	main_z	11	advance_on_keypress_ZEE	126	stimuli_distractor_diamondtriangles.svg	stimuli_target_trianglerectangles.svg	29	yes	57	0	277	0	0			0	0			1				0	
6.6.1	win	2023-06-27	18:50:48	19:01:15	622097	6365491e5682032c1c2a6687	3	1	main_z	11	main_z	127	stimuli_target_trianglerectangles.svg	stimuli_distractor_trianglediamonds.svg	17	yes	44	1	712	0	0			0	0			1				0	
6.6.1	win	2023-06-27	18:50:48	19:01:15	622097	6365491e5682032c1c2a6687	3	1	main_z	11	advance_on_keypress_ZEE	128	stimuli_target_trianglerectangles.svg	stimuli_distractor_trianglediamonds.svg	17	yes	57	0	123	0	0			0	0			1				0	
6.6.1	win	2023-06-27	18:50:48	19:01:16	623693	6365491e5682032c1c2a6687	3	1	main_z	11	main_z	129	stimuli_target_squarediamonds.svg	stimuli_distractor_diamondtriangles.svg	8	yes	44	1	841	0	0			0	0			1				0	
6.6.1	win	2023-06-27	18:50:48	19:01:16	623693	6365491e5682032c1c2a6687	3	1	main_z	11	advance_on_keypress_ZEE	130	stimuli_target_squarediamonds.svg	stimuli_distractor_diamondtriangles.svg	8	yes	57	0	40	0	0			0	0			1				0	
6.6.1	win	2023-06-27	18:50:48	19:01:17	624766	6365491e5682032c1c2a6687	3	1	main_z	11	main_z	131	stimuli_target_rectangletriangles.svg	stimuli_distractor_diamondtriangles.svg	5	yes	44	1	397	0	0			0	0			1				0	
6.6.1	win	2023-06-27	18:50:48	19:01:17	624766	6365491e5682032c1c2a6687	3	1	main_z	11	advance_on_keypress_ZEE	132	stimuli_target_rectangletriangles.svg	stimuli_distractor_diamondtriangles.svg	5	yes	57	0	14	0	0			0	0			1				0	
6.6.1	win	2023-06-27	18:50:48	19:01:19	625961	6365491e5682032c1c2a6687	3	1	main_z	11	main_z	133	stimuli_distractor_diamondtriangles.svg	stimuli_target_rectanglediamonds.svg	14	yes	44	1	526	0	0			0	0			1				0	
6.6.1	win	2023-06-27	18:50:48	19:01:19	625961	6365491e5682032c1c2a6687	3	1	main_z	11	advance_on_keypress_ZEE	134	stimuli_distractor_diamondtriangles.svg	stimuli_target_rectanglediamonds.svg	14	yes	57	0	41	0	0			0	0			1				0	
6.6.1	win	2023-06-27	18:50:48	19:01:20	627084	6365491e5682032c1c2a6687	3	1	main_z	11	main_z	135	stimuli_target_squarediamonds.svg	stimuli_distractor_trianglediamonds.svg	4	yes	44	1	450	0	0			0	0			1				0	
6.6.1	win	2023-06-27	18:50:48	19:01:20	627084	6365491e5682032c1c2a6687	3	1	main_z	11	advance_on_keypress_ZEE	136	stimuli_target_squarediamonds.svg	stimuli_distractor_trianglediamonds.svg	4	yes	57	0	31	0	0			0	0			1				0	
6.6.1	win	2023-06-27	18:50:48	19:01:21	628134	6365491e5682032c1c2a6687	3	1	main_z	11	main_z	137	stimuli_distractor_trianglediamonds.svg	stimuli_target_diamondrectangles.svg	27	yes	44	1	366	0	0			0	0			1				0	
6.6.1	win	2023-06-27	18:50:48	19:01:21	628134	6365491e5682032c1c2a6687	3	1	main_z	11	advance_on_keypress_ZEE	138	stimuli_distractor_trianglediamonds.svg	stimuli_target_diamondrectangles.svg	27	yes	57	0	107	0	0			0	0			1				0	
6.6.1	win	2023-06-27	18:50:48	19:01:24	630885	6365491e5682032c1c2a6687	3	1	main_z	11	main_z	139	stimuli_distractor_diamondtriangles.svg	stimuli_distractor_trianglediamonds.svg	38	no	0	1	2000	0	0			0	0			1				0	
6.6.1	win	2023-06-27	18:50:48	19:01:24	630885	6365491e5682032c1c2a6687	3	1	main_z	11	advance_on_keypress_ZEE	140	stimuli_distractor_diamondtriangles.svg	stimuli_distractor_trianglediamonds.svg	38	no	57	0	327	0	0			0	0			1				0	
6.6.1	win	2023-06-27	18:50:48	19:01:25	632464	6365491e5682032c1c2a6687	3	1	main_z	11	main_z	141	stimuli_distractor_trianglediamonds.svg	stimuli_target_squaretriangles.svg	11	yes	44	1	614	0	0			0	0			1				0	
6.6.1	win	2023-06-27	18:50:48	19:01:25	632464	6365491e5682032c1c2a6687	3	1	main_z	11	advance_on_keypress_ZEE	142	stimuli_distractor_trianglediamonds.svg	stimuli_target_squaretriangles.svg	11	yes	57	0	5	0	0			0	0			1				0	
6.6.1	win	2023-06-27	18:50:48	19:01:27	634327	6365491e5682032c1c2a6687	3	1	main_z	11	main_z	143	stimuli_target_trianglesquares.svg	stimuli_distractor_diamondtriangles.svg	22	yes	44	1	1194	0	0			0	0			1				0	
6.6.1	win	2023-06-27	18:50:48	19:01:27	634327	6365491e5682032c1c2a6687	3	1	main_z	11	advance_on_keypress_ZEE	144	stimuli_target_trianglesquares.svg	stimuli_distractor_diamondtriangles.svg	22	yes	57	0	90	0	0			0	0			1				0	
6.6.1	win	2023-06-27	18:50:48	19:01:29	635795	6365491e5682032c1c2a6687	3	1	main_z	11	main_z	145	stimuli_distractor_diamondtriangles.svg	stimuli_target_rectangletriangles.svg	13	yes	44	1	746	0	0			0	0			1				0	
6.6.1	win	2023-06-27	18:50:48	19:01:29	635795	6365491e5682032c1c2a6687	3	1	main_z	11	advance_on_keypress_ZEE	146	stimuli_distractor_diamondtriangles.svg	stimuli_target_rectangletriangles.svg	13	yes	57	0	47	0	0			0	0			1				0	
6.6.1	win	2023-06-27	18:50:48	19:01:30	637015	6365491e5682032c1c2a6687	3	1	main_z	11	main_z	147	stimuli_target_squaretriangles.svg	stimuli_distractor_trianglediamonds.svg	3	yes	44	1	532	0	0			0	0			1				0	
6.6.1	win	2023-06-27	18:50:48	19:01:30	637015	6365491e5682032c1c2a6687	3	1	main_z	11	advance_on_keypress_ZEE	148	stimuli_target_squaretriangles.svg	stimuli_distractor_trianglediamonds.svg	3	yes	57	0	67	0	0			0	0			1				0	
6.6.1	win	2023-06-27	18:50:48	19:01:31	638481	6365491e5682032c1c2a6687	3	1	main_z	11	main_z	149	stimuli_distractor_trianglediamonds.svg	stimuli_target_trianglerectangles.svg	25	yes	44	1	747	0	0			0	0			1				0	
6.6.1	win	2023-06-27	18:50:48	19:01:31	638481	6365491e5682032c1c2a6687	3	1	main_z	11	advance_on_keypress_ZEE	150	stimuli_distractor_trianglediamonds.svg	stimuli_target_trianglerectangles.svg	25	yes	57	0	35	0	0			0	0			1				0	
6.6.1	win	2023-06-27	18:50:48	19:01:33	639810	6365491e5682032c1c2a6687	3	1	main_z	11	main_z	151	stimuli_target_diamondrectangles.svg	stimuli_distractor_diamondtriangles.svg	23	yes	44	1	645	0	0			0	0			1				0	
6.6.1	win	2023-06-27	18:50:48	19:01:33	639810	6365491e5682032c1c2a6687	3	1	main_z	11	advance_on_keypress_ZEE	152	stimuli_target_diamondrectangles.svg	stimuli_distractor_diamondtriangles.svg	23	yes	57	0	46	0	0			0	0			1				0	
6.6.1	win	2023-06-27	18:50:48	19:01:35	642500	6365491e5682032c1c2a6687	3	1	main_z	11	main_z	153	stimuli_distractor_trianglediamonds.svg	stimuli_distractor_trianglediamonds.svg	34	no	0	1	2000	0	0			0	0			1				0	
6.6.1	win	2023-06-27	18:50:48	19:01:35	642500	6365491e5682032c1c2a6687	3	1	main_z	11	advance_on_keypress_ZEE	154	stimuli_distractor_trianglediamonds.svg	stimuli_distractor_trianglediamonds.svg	34	no	57	0	191	0	0			0	0			1				0	
6.6.1	win	2023-06-27	18:50:48	19:01:37	644096	6365491e5682032c1c2a6687	3	1	main_z	11	main_z	155	stimuli_target_trianglerectangles.svg	stimuli_distractor_diamondtriangles.svg	21	yes	44	1	763	0	0			0	0			1				0	
6.6.1	win	2023-06-27	18:50:48	19:01:37	644096	6365491e5682032c1c2a6687	3	1	main_z	11	advance_on_keypress_ZEE	156	stimuli_target_trianglerectangles.svg	stimuli_distractor_diamondtriangles.svg	21	yes	57	0	59	0	0			0	0			1				0	
6.6.1	win	2023-06-27	18:50:48	19:01:40	646798	6365491e5682032c1c2a6687	3	1	main_z	11	main_z	157	stimuli_distractor_diamondtriangles.svg	stimuli_distractor_diamondtriangles.svg	39	no	0	1	2000	0	0			0	0			1				0	
6.6.1	win	2023-06-27	18:50:48	19:01:40	646798	6365491e5682032c1c2a6687	3	1	main_z	11	advance_on_keypress_ZEE	158	stimuli_distractor_diamondtriangles.svg	stimuli_distractor_diamondtriangles.svg	39	no	57	0	505	0	0			0	0			1				0	
6.6.1	win	2023-06-27	18:50:48	19:01:41	648544	6365491e5682032c1c2a6687	3	1	main_z	11	main_z	159	stimuli_distractor_diamondtriangles.svg	stimuli_target_diamondrectangles.svg	31	yes	44	1	595	0	0			0	0			1				0	
6.6.1	win	2023-06-27	18:50:48	19:01:41	648544	6365491e5682032c1c2a6687	3	1	main_z	11	advance_on_keypress_ZEE	160	stimuli_distractor_diamondtriangles.svg	stimuli_target_diamondrectangles.svg	31	yes	57	0	20	0	0			0	0			1				0	
6.6.1	win	2023-06-27	18:50:48	19:01:41	648544	6365491e5682032c1c2a6687	3	1	headphonecheck_calibration	14	headphonecheck_calibrationIntro	1	stimuli_distractor_diamondtriangles.svg	stimuli_target_diamondrectangles.svg	31	yes	calibrationButton	0	2941	0	0			0	0			1				0	
6.6.1	win	2023-06-27	18:50:48	19:01:41	648544	6365491e5682032c1c2a6687	3	1	headphonecheck_testphase	15	test_collectResponse	3	stimuli_distractor_diamondtriangles.svg	stimuli_target_diamondrectangles.svg	31	yes	second	1	453	1	1	antiphase_hc_iso.wav	2	0	0			1				0	
6.6.1	win	2023-06-27	18:50:48	19:01:41	648544	6365491e5682032c1c2a6687	3	1	headphonecheck_testphase	15	test_collectResponse	6	stimuli_distractor_diamondtriangles.svg	stimuli_target_diamondrectangles.svg	31	yes	third	1	261	2	2	antiphase_hc_ios.wav	3	0	0			1				0	
6.6.1	win	2023-06-27	18:50:48	19:01:41	648544	6365491e5682032c1c2a6687	3	1	headphonecheck_testphase	15	test_collectResponse	9	stimuli_distractor_diamondtriangles.svg	stimuli_target_diamondrectangles.svg	31	yes	second	1	373	3	5	antiphase_hc_osi.wav	2	0	0			1				0	
6.6.1	win	2023-06-27	18:50:48	19:01:41	648544	6365491e5682032c1c2a6687	3	1	headphonecheck_testphase	15	test_collectResponse	12	stimuli_distractor_diamondtriangles.svg	stimuli_target_diamondrectangles.svg	31	yes	first	1	230	4	4	antiphase_hc_sio.wav	1	0	0			1				0	
6.6.1	win	2023-06-27	18:50:48	19:01:41	648544	6365491e5682032c1c2a6687	3	1	headphonecheck_testphase	15	test_collectResponse	15	stimuli_distractor_diamondtriangles.svg	stimuli_target_diamondrectangles.svg	31	yes	first	1	178	5	3	antiphase_hc_soi.wav	1	0	0			1				0	
6.6.1	win	2023-06-27	18:50:48	19:01:41	648544	6365491e5682032c1c2a6687	3	1	headphonecheck_testphase	15	test_collectResponse	18	stimuli_distractor_diamondtriangles.svg	stimuli_target_diamondrectangles.svg	31	yes	third	1	720	6	6	antiphase_hc_ois.wav	3	0	0			1				0	
6.6.1	win	2023-06-27	18:50:48	19:01:41	648544	6365491e5682032c1c2a6687	3	1	stereocheck_calibration	17	stereocheck_calibrationIntro	1	stimuli_distractor_diamondtriangles.svg	stimuli_target_diamondrectangles.svg	31	yes	stereocheck_calibrationButton	0	1811	6	6	antiphase_hc_ois.wav	3	0	0			1				0	
6.6.1	win	2023-06-27	18:50:48	19:01:41	648544	6365491e5682032c1c2a6687	3	1	stereocheck_testphase	18	stereocheck_test_collectResponse	3	stimuli_distractor_diamondtriangles.svg	stimuli_target_diamondrectangles.svg	31	yes	stereocheck_right	1	77	6	6	antiphase_hc_ois.wav	3	1	5	noise_calib_stim_RIGHT.wav	2	1				0	
6.6.1	win	2023-06-27	18:50:48	19:01:41	648544	6365491e5682032c1c2a6687	3	1	stereocheck_testphase	18	stereocheck_test_collectResponse	6	stimuli_distractor_diamondtriangles.svg	stimuli_target_diamondrectangles.svg	31	yes	stereocheck_right	1	0	6	6	antiphase_hc_ois.wav	3	2	6	noise_calib_stim_RIGHT.wav	2	1				0	
6.6.1	win	2023-06-27	18:50:48	19:01:41	648544	6365491e5682032c1c2a6687	3	1	stereocheck_testphase	18	stereocheck_test_collectResponse	9	stimuli_distractor_diamondtriangles.svg	stimuli_target_diamondrectangles.svg	31	yes	stereocheck_left	1	89	6	6	antiphase_hc_ois.wav	3	3	1	noise_calib_stim_LEFT.wav	1	1				0	
6.6.1	win	2023-06-27	18:50:48	19:01:41	648544	6365491e5682032c1c2a6687	3	1	stereocheck_testphase	18	stereocheck_test_collectResponse	12	stimuli_distractor_diamondtriangles.svg	stimuli_target_diamondrectangles.svg	31	yes	stereocheck_left	1	559	6	6	antiphase_hc_ois.wav	3	4	3	noise_calib_stim_LEFT.wav	1	1				0	
6.6.1	win	2023-06-27	18:50:48	19:01:41	648544	6365491e5682032c1c2a6687	3	1	stereocheck_testphase	18	stereocheck_test_collectResponse	15	stimuli_distractor_diamondtriangles.svg	stimuli_target_diamondrectangles.svg	31	yes	stereocheck_right	1	203	6	6	antiphase_hc_ois.wav	3	5	4	noise_calib_stim_RIGHT.wav	2	1				0	
6.6.1	win	2023-06-27	18:50:48	19:01:41	648544	6365491e5682032c1c2a6687	3	1	stereocheck_testphase	18	stereocheck_test_collectResponse	18	stimuli_distractor_diamondtriangles.svg	stimuli_target_diamondrectangles.svg	31	yes	stereocheck_left	1	75	6	6	antiphase_hc_ois.wav	3	6	2	noise_calib_stim_LEFT.wav	1	1				0	
6.6.1	win	2023-06-27	18:50:48	19:01:41	648544	6365491e5682032c1c2a6687	3	1	DL_practice	21	DL_practice	2	stimuli_distractor_diamondtriangles.svg	stimuli_target_diamondrectangles.svg	31	yes	ta	1	1415	6	6	antiphase_hc_ois.wav	3	6	2	noise_calib_stim_LEFT.wav	1	36	blb_dichoticlistening_ta-ta.mp3	ta	ta	0	left
6.6.1	win	2023-06-27	18:50:48	19:01:41	648544	6365491e5682032c1c2a6687	3	1	DL_practice	21	DL_practice	3	stimuli_distractor_diamondtriangles.svg	stimuli_target_diamondrectangles.svg	31	yes	ga	1	1206	6	6	antiphase_hc_ois.wav	3	6	2	noise_calib_stim_LEFT.wav	1	15	blb_dichoticlistening_ga-ga.mp3	ga	ga	0	left
6.6.1	win	2023-06-27	18:50:48	19:01:41	648544	6365491e5682032c1c2a6687	3	1	DL_practice	21	DL_practice	4	stimuli_distractor_diamondtriangles.svg	stimuli_target_diamondrectangles.svg	31	yes	ka	1	779	6	6	antiphase_hc_ois.wav	3	6	2	noise_calib_stim_LEFT.wav	1	22	blb_dichoticlistening_ka-ka.mp3	ka	ka	0	left
6.6.1	win	2023-06-27	18:50:48	19:01:41	648544	6365491e5682032c1c2a6687	3	1	DL_practice	21	DL_practice	5	stimuli_distractor_diamondtriangles.svg	stimuli_target_diamondrectangles.svg	31	yes	ka	1	1578	6	6	antiphase_hc_ois.wav	3	6	2	noise_calib_stim_LEFT.wav	1	23	blb_dichoticlistening_ka-pa.mp3	ka	pa	1	left
6.6.1	win	2023-06-27	18:50:48	19:01:41	648544	6365491e5682032c1c2a6687	3	1	DL_practice	21	DL_practice	6	stimuli_distractor_diamondtriangles.svg	stimuli_target_diamondrectangles.svg	31	yes	da	1	2682	6	6	antiphase_hc_ois.wav	3	6	2	noise_calib_stim_LEFT.wav	1	7	blb_dichoticlistening_da-ba.mp3	da	ba	1	left
6.6.1	win	2023-06-27	18:50:48	19:01:41	648544	6365491e5682032c1c2a6687	3	1	DL_practice	21	DL_practice	7	stimuli_distractor_diamondtriangles.svg	stimuli_target_diamondrectangles.svg	31	yes	pa	1	1269	6	6	antiphase_hc_ois.wav	3	6	2	noise_calib_stim_LEFT.wav	1	29	blb_dichoticlistening_pa-pa.mp3	pa	pa	0	left
6.6.1	win	2023-06-27	18:50:48	19:01:41	648544	6365491e5682032c1c2a6687	3	1	DL_practice	21	DL_practice	8	stimuli_distractor_diamondtriangles.svg	stimuli_target_diamondrectangles.svg	31	yes	ga	1	860	6	6	antiphase_hc_ois.wav	3	6	2	noise_calib_stim_LEFT.wav	1	18	blb_dichoticlistening_ga-ta.mp3	ga	ta	1	left
6.6.1	win	2023-06-27	18:50:48	19:01:41	648544	6365491e5682032c1c2a6687	3	1	DL_practice	21	DL_practice	9	stimuli_distractor_diamondtriangles.svg	stimuli_target_diamondrectangles.svg	31	yes	da	1	960	6	6	antiphase_hc_ois.wav	3	6	2	noise_calib_stim_LEFT.wav	1	8	blb_dichoticlistening_da-da.mp3	da	da	0	left
6.6.1	win	2023-06-27	18:50:48	19:01:41	648544	6365491e5682032c1c2a6687	3	1	DL_practice	21	DL_practice	10	stimuli_distractor_diamondtriangles.svg	stimuli_target_diamondrectangles.svg	31	yes	pa	0	1713	6	6	antiphase_hc_ois.wav	3	6	2	noise_calib_stim_LEFT.wav	1	1	blb_dichoticlistening_ba-ba.mp3	ba	ba	0	other
6.6.1	win	2023-06-27	18:50:48	19:01:41	648544	6365491e5682032c1c2a6687	3	1	DL_test	23	DL_test	1	stimuli_distractor_diamondtriangles.svg	stimuli_target_diamondrectangles.svg	31	yes	ka	1	1025	6	6	antiphase_hc_ois.wav	3	6	2	noise_calib_stim_LEFT.wav	1	19	blb_dichoticlistening_ka-ba.mp3	ka	ba	1	left
6.6.1	win	2023-06-27	18:50:48	19:01:41	648544	6365491e5682032c1c2a6687	3	1	DL_test	23	DL_test	2	stimuli_distractor_diamondtriangles.svg	stimuli_target_diamondrectangles.svg	31	yes	ta	0	1262	6	6	antiphase_hc_ois.wav	3	6	2	noise_calib_stim_LEFT.wav	1	11	blb_dichoticlistening_da-pa.mp3	da	pa	1	other
6.6.1	win	2023-06-27	18:50:48	19:01:41	648544	6365491e5682032c1c2a6687	3	1	DL_test	23	DL_test	3	stimuli_distractor_diamondtriangles.svg	stimuli_target_diamondrectangles.svg	31	yes	ga	1	842	6	6	antiphase_hc_ois.wav	3	6	2	noise_calib_stim_LEFT.wav	1	13	blb_dichoticlistening_ga-ba.mp3	ga	ba	1	left
6.6.1	win	2023-06-27	18:50:48	19:01:41	648544	6365491e5682032c1c2a6687	3	1	DL_test	23	DL_test	4	stimuli_distractor_diamondtriangles.svg	stimuli_target_diamondrectangles.svg	31	yes	ka	1	1048	6	6	antiphase_hc_ois.wav	3	6	2	noise_calib_stim_LEFT.wav	1	16	blb_dichoticlistening_ga-ka.mp3	ga	ka	1	right
6.6.1	win	2023-06-27	18:50:48	19:01:41	648544	6365491e5682032c1c2a6687	3	1	DL_test	23	DL_test	5	stimuli_distractor_diamondtriangles.svg	stimuli_target_diamondrectangles.svg	31	yes	ka	1	768	6	6	antiphase_hc_ois.wav	3	6	2	noise_calib_stim_LEFT.wav	1	24	blb_dichoticlistening_ka-ta.mp3	ka	ta	1	left
6.6.1	win	2023-06-27	18:50:48	19:01:41	648544	6365491e5682032c1c2a6687	3	1	DL_test	23	DL_test	6	stimuli_distractor_diamondtriangles.svg	stimuli_target_diamondrectangles.svg	31	yes	ga	1	957	6	6	antiphase_hc_ois.wav	3	6	2	noise_calib_stim_LEFT.wav	1	14	blb_dichoticlistening_ga-da.mp3	ga	da	1	left
6.6.1	win	2023-06-27	18:50:48	19:01:41	648544	6365491e5682032c1c2a6687	3	1	DL_test	23	DL_test	7	stimuli_distractor_diamondtriangles.svg	stimuli_target_diamondrectangles.svg	31	yes	ka	0	1050	6	6	antiphase_hc_ois.wav	3	6	2	noise_calib_stim_LEFT.wav	1	33	blb_dichoticlistening_ta-ga.mp3	ta	ga	1	other
6.6.1	win	2023-06-27	18:50:48	19:01:41	648544	6365491e5682032c1c2a6687	3	1	DL_test	23	DL_test	8	stimuli_distractor_diamondtriangles.svg	stimuli_target_diamondrectangles.svg	31	yes	ta	1	1224	6	6	antiphase_hc_ois.wav	3	6	2	noise_calib_stim_LEFT.wav	1	36	blb_dichoticlistening_ta-ta.mp3	ta	ta	0	left
6.6.1	win	2023-06-27	18:50:48	19:01:41	648544	6365491e5682032c1c2a6687	3	1	DL_test	23	DL_test	9	stimuli_distractor_diamondtriangles.svg	stimuli_target_diamondrectangles.svg	31	yes	da	1	1699	6	6	antiphase_hc_ois.wav	3	6	2	noise_calib_stim_LEFT.wav	1	32	blb_dichoticlistening_ta-da.mp3	ta	da	1	right
6.6.1	win	2023-06-27	18:50:48	19:01:41	648544	6365491e5682032c1c2a6687	3	1	DL_test	23	DL_test	10	stimuli_distractor_diamondtriangles.svg	stimuli_target_diamondrectangles.svg	31	yes	ba	1	975	6	6	antiphase_hc_ois.wav	3	6	2	noise_calib_stim_LEFT.wav	1	1	blb_dichoticlistening_ba-ba.mp3	ba	ba	0	left
6.6.1	win	2023-06-27	18:50:48	19:01:41	648544	6365491e5682032c1c2a6687	3	1	DL_test	23	DL_test	11	stimuli_distractor_diamondtriangles.svg	stimuli_target_diamondrectangles.svg	31	yes	ga	1	710	6	6	antiphase_hc_ois.wav	3	6	2	noise_calib_stim_LEFT.wav	1	9	blb_dichoticlistening_da-ga.mp3	da	ga	1	right
6.6.1	win	2023-06-27	18:50:48	19:01:41	648544	6365491e5682032c1c2a6687	3	1	DL_test	23	DL_test	12	stimuli_distractor_diamondtriangles.svg	stimuli_target_diamondrectangles.svg	31	yes	ka	0	1118	6	6	antiphase_hc_ois.wav	3	6	2	noise_calib_stim_LEFT.wav	1	18	blb_dichoticlistening_ga-ta.mp3	ga	ta	1	other
6.6.1	win	2023-06-27	18:50:48	19:01:41	648544	6365491e5682032c1c2a6687	3	1	DL_test	23	DL_test	13	stimuli_distractor_diamondtriangles.svg	stimuli_target_diamondrectangles.svg	31	yes	ka	1	780	6	6	antiphase_hc_ois.wav	3	6	2	noise_calib_stim_LEFT.wav	1	20	blb_dichoticlistening_ka-da.mp3	ka	da	1	left
6.6.1	win	2023-06-27	18:50:48	19:01:41	648544	6365491e5682032c1c2a6687	3	1	DL_test	23	DL_test	14	stimuli_distractor_diamondtriangles.svg	stimuli_target_diamondrectangles.svg	31	yes	ta	1	1308	6	6	antiphase_hc_ois.wav	3	6	2	noise_calib_stim_LEFT.wav	1	6	blb_dichoticlistening_ba-ta.mp3	ba	ta	1	right
6.6.1	win	2023-06-27	18:50:48	19:01:41	648544	6365491e5682032c1c2a6687	3	1	DL_test	23	DL_test	15	stimuli_distractor_diamondtriangles.svg	stimuli_target_diamondrectangles.svg	31	yes	pa	1	770	6	6	antiphase_hc_ois.wav	3	6	2	noise_calib_stim_LEFT.wav	1	5	blb_dichoticlistening_ba-pa.mp3	ba	pa	1	right
6.6.1	win	2023-06-27	18:50:48	19:01:41	648544	6365491e5682032c1c2a6687	3	1	DL_test	23	DL_test	16	stimuli_distractor_diamondtriangles.svg	stimuli_target_diamondrectangles.svg	31	yes	ka	0	1459	6	6	antiphase_hc_ois.wav	3	6	2	noise_calib_stim_LEFT.wav	1	31	blb_dichoticlistening_ta-ba.mp3	ta	ba	1	other
6.6.1	win	2023-06-27	18:50:48	19:01:41	648544	6365491e5682032c1c2a6687	3	1	DL_test	23	DL_test	17	stimuli_distractor_diamondtriangles.svg	stimuli_target_diamondrectangles.svg	31	yes	ka	1	819	6	6	antiphase_hc_ois.wav	3	6	2	noise_calib_stim_LEFT.wav	1	22	blb_dichoticlistening_ka-ka.mp3	ka	ka	0	left
6.6.1	win	2023-06-27	18:50:48	19:01:41	648544	6365491e5682032c1c2a6687	3	1	DL_test	23	DL_test	18	stimuli_distractor_diamondtriangles.svg	stimuli_target_diamondrectangles.svg	31	yes	pa	1	2434	6	6	antiphase_hc_ois.wav	3	6	2	noise_calib_stim_LEFT.wav	1	28	blb_dichoticlistening_pa-ka.mp3	pa	ka	1	left
6.6.1	win	2023-06-27	18:50:48	19:01:41	648544	6365491e5682032c1c2a6687	3	1	DL_test	23	DL_test	19	stimuli_distractor_diamondtriangles.svg	stimuli_target_diamondrectangles.svg	31	yes	pa	1	909	6	6	antiphase_hc_ois.wav	3	6	2	noise_calib_stim_LEFT.wav	1	25	blb_dichoticlistening_pa-ba.mp3	pa	ba	1	left
6.6.1	win	2023-06-27	18:50:48	19:01:41	648544	6365491e5682032c1c2a6687	3	1	DL_test	23	DL_test	20	stimuli_distractor_diamondtriangles.svg	stimuli_target_diamondrectangles.svg	31	yes	da	1	1569	6	6	antiphase_hc_ois.wav	3	6	2	noise_calib_stim_LEFT.wav	1	7	blb_dichoticlistening_da-ba.mp3	da	ba	1	left
6.6.1	win	2023-06-27	18:50:48	19:01:41	648544	6365491e5682032c1c2a6687	3	1	DL_test	23	DL_test	21	stimuli_distractor_diamondtriangles.svg	stimuli_target_diamondrectangles.svg	31	yes	ga	1	761	6	6	antiphase_hc_ois.wav	3	6	2	noise_calib_stim_LEFT.wav	1	3	blb_dichoticlistening_ba-ga.mp3	ba	ga	1	right
6.6.1	win	2023-06-27	18:50:48	19:01:41	648544	6365491e5682032c1c2a6687	3	1	DL_test	23	DL_test	22	stimuli_distractor_diamondtriangles.svg	stimuli_target_diamondrectangles.svg	31	yes	ka	1	920	6	6	antiphase_hc_ois.wav	3	6	2	noise_calib_stim_LEFT.wav	1	21	blb_dichoticlistening_ka-ga.mp3	ka	ga	1	left
6.6.1	win	2023-06-27	18:50:48	19:01:41	648544	6365491e5682032c1c2a6687	3	1	DL_test	23	DL_test	23	stimuli_distractor_diamondtriangles.svg	stimuli_target_diamondrectangles.svg	31	yes	ga	0	1473	6	6	antiphase_hc_ois.wav	3	6	2	noise_calib_stim_LEFT.wav	1	4	blb_dichoticlistening_ba-ka.mp3	ba	ka	1	other
6.6.1	win	2023-06-27	18:50:48	19:01:41	648544	6365491e5682032c1c2a6687	3	1	DL_test	23	DL_test	24	stimuli_distractor_diamondtriangles.svg	stimuli_target_diamondrectangles.svg	31	yes	ka	1	783	6	6	antiphase_hc_ois.wav	3	6	2	noise_calib_stim_LEFT.wav	1	34	blb_dichoticlistening_ta-ka.mp3	ta	ka	1	right
6.6.1	win	2023-06-27	18:50:48	19:01:41	648544	6365491e5682032c1c2a6687	3	1	DL_test	23	DL_test	25	stimuli_distractor_diamondtriangles.svg	stimuli_target_diamondrectangles.svg	31	yes	pa	1	1658	6	6	antiphase_hc_ois.wav	3	6	2	noise_calib_stim_LEFT.wav	1	27	blb_dichoticlistening_pa-ga.mp3	pa	ga	1	left
6.6.1	win	2023-06-27	18:50:48	19:01:41	648544	6365491e5682032c1c2a6687	3	1	DL_test	23	DL_test	26	stimuli_distractor_diamondtriangles.svg	stimuli_target_diamondrectangles.svg	31	yes	da	1	1595	6	6	antiphase_hc_ois.wav	3	6	2	noise_calib_stim_LEFT.wav	1	2	blb_dichoticlistening_ba-da.mp3	ba	da	1	right
