build	computer.platform	date	time	timestamp	time_elapsed_ms	subject	group	session	blockcode	blocknum	trialcode	trialnum	stimulus_left	stimulus_right	stim_index	target_present	response	correct	latency	headphonecheck_countTestTrials	headphonecheck_index	headphonecheck_testSound	headphonecheck_correctResponse	stereocheck_countTestTrials	stereocheck_index	stereocheck_testSound	stereocheck_correctResponse	DL_index	DL_soundfile	DL_leftSound	DL_rightSound	DL_dualSound	DL_choice
6.6.1	win	2023-07-07	08:35:24	08:41:58	389291	63287c548c0d66d1e300fd64	4	1	practice_z	5	practice_z	1	stimuli_distractor_trianglediamonds.svg	stimuli_distractor_trianglediamonds.svg	15	no	0	1	2000	0	0			0	0			1				0	
6.6.1	win	2023-07-07	08:35:24	08:41:58	389291	63287c548c0d66d1e300fd64	4	1	practice_z	5	advance_on_keypress_ZEE	2	stimuli_distractor_trianglediamonds.svg	stimuli_distractor_trianglediamonds.svg	15	no	57	0	1767	0	0			0	0			1				0	
6.6.1	win	2023-07-07	08:35:24	08:42:04	394706	63287c548c0d66d1e300fd64	4	1	practice_z	5	practice_z	3	stimuli_distractor_diamondtriangles.svg	stimuli_distractor_trianglediamonds.svg	14	no	0	1	2000	0	0			0	0			1				0	
6.6.1	win	2023-07-07	08:35:24	08:42:04	394706	63287c548c0d66d1e300fd64	4	1	practice_z	5	advance_on_keypress_ZEE	4	stimuli_distractor_diamondtriangles.svg	stimuli_distractor_trianglediamonds.svg	14	no	57	0	2903	0	0			0	0			1				0	
6.6.1	win	2023-07-07	08:35:24	08:42:10	401256	63287c548c0d66d1e300fd64	4	1	practice_z	5	practice_z	5	stimuli_distractor_trianglediamonds.svg	stimuli_target_rectanglediamonds.svg	10	yes	0	0	2000	0	0			0	0			1				0	
6.6.1	win	2023-07-07	08:35:24	08:42:10	401256	63287c548c0d66d1e300fd64	4	1	practice_z	5	advance_on_keypress_ZEE	6	stimuli_distractor_trianglediamonds.svg	stimuli_target_rectanglediamonds.svg	10	yes	57	0	1062	0	0			0	0			1				0	
6.6.1	win	2023-07-07	08:35:24	08:42:14	405132	63287c548c0d66d1e300fd64	4	1	practice_z	5	practice_z	7	stimuli_distractor_diamondtriangles.svg	stimuli_target_diamondrectangles.svg	8	yes	44	1	1161	0	0			0	0			1				0	
6.6.1	win	2023-07-07	08:35:24	08:42:14	405132	63287c548c0d66d1e300fd64	4	1	practice_z	5	advance_on_keypress_ZEE	8	stimuli_distractor_diamondtriangles.svg	stimuli_target_diamondrectangles.svg	8	yes	57	0	939	0	0			0	0			1				0	
6.6.1	win	2023-07-07	08:35:24	08:42:18	408695	63287c548c0d66d1e300fd64	4	1	practice_z	5	practice_z	9	stimuli_distractor_trianglediamonds.svg	stimuli_target_squarediamonds.svg	11	yes	44	1	973	0	0			0	0			1				0	
6.6.1	win	2023-07-07	08:35:24	08:42:18	408695	63287c548c0d66d1e300fd64	4	1	practice_z	5	advance_on_keypress_ZEE	10	stimuli_distractor_trianglediamonds.svg	stimuli_target_squarediamonds.svg	11	yes	57	0	782	0	0			0	0			1				0	
6.6.1	win	2023-07-07	08:35:24	08:42:21	412212	63287c548c0d66d1e300fd64	4	1	practice_z	5	practice_z	11	stimuli_distractor_diamondtriangles.svg	stimuli_target_trianglerectangles.svg	9	yes	44	1	1092	0	0			0	0			1				0	
6.6.1	win	2023-07-07	08:35:24	08:42:21	412212	63287c548c0d66d1e300fd64	4	1	practice_z	5	advance_on_keypress_ZEE	12	stimuli_distractor_diamondtriangles.svg	stimuli_target_trianglerectangles.svg	9	yes	57	0	717	0	0			0	0			1				0	
6.6.1	win	2023-07-07	08:35:24	08:42:25	415564	63287c548c0d66d1e300fd64	4	1	practice_z	5	practice_z	13	stimuli_distractor_trianglediamonds.svg	stimuli_distractor_diamondtriangles.svg	16	no	44	0	994	0	0			0	0			1				0	
6.6.1	win	2023-07-07	08:35:24	08:42:25	415564	63287c548c0d66d1e300fd64	4	1	practice_z	5	advance_on_keypress_ZEE	14	stimuli_distractor_trianglediamonds.svg	stimuli_distractor_diamondtriangles.svg	16	no	57	0	837	0	0			0	0			1				0	
6.6.1	win	2023-07-07	08:35:24	08:42:28	418985	63287c548c0d66d1e300fd64	4	1	practice_z	5	practice_z	15	stimuli_target_diamondsquares.svg	stimuli_distractor_trianglediamonds.svg	6	yes	44	1	932	0	0			0	0			1				0	
6.6.1	win	2023-07-07	08:35:24	08:42:28	418985	63287c548c0d66d1e300fd64	4	1	practice_z	5	advance_on_keypress_ZEE	16	stimuli_target_diamondsquares.svg	stimuli_distractor_trianglediamonds.svg	6	yes	57	0	1681	0	0			0	0			1				0	
6.6.1	win	2023-07-07	08:35:24	08:42:32	422543	63287c548c0d66d1e300fd64	4	1	practice_z	5	practice_z	17	stimuli_target_diamondsquares.svg	stimuli_distractor_diamondtriangles.svg	3	yes	44	1	224	0	0			0	0			1				0	
6.6.1	win	2023-07-07	08:35:24	08:42:32	422543	63287c548c0d66d1e300fd64	4	1	practice_z	5	advance_on_keypress_ZEE	18	stimuli_target_diamondsquares.svg	stimuli_distractor_diamondtriangles.svg	3	yes	57	0	760	0	0			0	0			1				0	
6.6.1	win	2023-07-07	08:35:24	08:42:34	425250	63287c548c0d66d1e300fd64	4	1	practice_z	5	practice_z	19	stimuli_distractor_diamondtriangles.svg	stimuli_target_rectangletriangles.svg	7	yes	44	1	298	0	0			0	0			1				0	
6.6.1	win	2023-07-07	08:35:24	08:42:34	425250	63287c548c0d66d1e300fd64	4	1	practice_z	5	advance_on_keypress_ZEE	20	stimuli_distractor_diamondtriangles.svg	stimuli_target_rectangletriangles.svg	7	yes	57	0	548	0	0			0	0			1				0	
6.6.1	win	2023-07-07	08:35:24	08:42:37	427517	63287c548c0d66d1e300fd64	4	1	practice_z	5	practice_z	21	stimuli_target_rectanglediamonds.svg	stimuli_distractor_diamondtriangles.svg	1	yes	44	1	67	0	0			0	0			1				0	
6.6.1	win	2023-07-07	08:35:24	08:42:37	427517	63287c548c0d66d1e300fd64	4	1	practice_z	5	advance_on_keypress_ZEE	22	stimuli_target_rectanglediamonds.svg	stimuli_distractor_diamondtriangles.svg	1	yes	57	0	613	0	0			0	0			1				0	
6.6.1	win	2023-07-07	08:35:24	08:42:39	430003	63287c548c0d66d1e300fd64	4	1	practice_z	5	practice_z	23	stimuli_target_squarediamonds.svg	stimuli_distractor_diamondtriangles.svg	2	yes	44	1	218	0	0			0	0			1				0	
6.6.1	win	2023-07-07	08:35:24	08:42:39	430003	63287c548c0d66d1e300fd64	4	1	practice_z	5	advance_on_keypress_ZEE	24	stimuli_target_squarediamonds.svg	stimuli_distractor_diamondtriangles.svg	2	yes	57	0	761	0	0			0	0			1				0	
6.6.1	win	2023-07-07	08:35:24	08:42:42	432660	63287c548c0d66d1e300fd64	4	1	practice_z	5	practice_z	25	stimuli_distractor_diamondtriangles.svg	stimuli_distractor_diamondtriangles.svg	13	no	44	0	244	0	0			0	0			1				0	
6.6.1	win	2023-07-07	08:35:24	08:42:42	432660	63287c548c0d66d1e300fd64	4	1	practice_z	5	advance_on_keypress_ZEE	26	stimuli_distractor_diamondtriangles.svg	stimuli_distractor_diamondtriangles.svg	13	no	57	0	489	0	0			0	0			1				0	
6.6.1	win	2023-07-07	08:35:24	08:42:44	434996	63287c548c0d66d1e300fd64	4	1	practice_z	5	practice_z	27	stimuli_target_squarediamonds.svg	stimuli_distractor_trianglediamonds.svg	5	yes	44	1	194	0	0			0	0			1				0	
6.6.1	win	2023-07-07	08:35:24	08:42:44	434996	63287c548c0d66d1e300fd64	4	1	practice_z	5	advance_on_keypress_ZEE	28	stimuli_target_squarediamonds.svg	stimuli_distractor_trianglediamonds.svg	5	yes	57	0	593	0	0			0	0			1				0	
6.6.1	win	2023-07-07	08:35:24	08:42:47	437456	63287c548c0d66d1e300fd64	4	1	practice_z	5	practice_z	29	stimuli_distractor_trianglediamonds.svg	stimuli_target_diamondrectangles.svg	12	yes	44	1	206	0	0			0	0			1				0	
6.6.1	win	2023-07-07	08:35:24	08:42:47	437456	63287c548c0d66d1e300fd64	4	1	practice_z	5	advance_on_keypress_ZEE	30	stimuli_distractor_trianglediamonds.svg	stimuli_target_diamondrectangles.svg	12	yes	57	0	1049	0	0			0	0			1				0	
6.6.1	win	2023-07-07	08:35:24	08:42:50	440727	63287c548c0d66d1e300fd64	4	1	practice_z	5	practice_z	31	stimuli_target_rectanglediamonds.svg	stimuli_distractor_trianglediamonds.svg	4	yes	44	1	577	0	0			0	0			1				0	
6.6.1	win	2023-07-07	08:35:24	08:42:50	440727	63287c548c0d66d1e300fd64	4	1	practice_z	5	advance_on_keypress_ZEE	32	stimuli_target_rectanglediamonds.svg	stimuli_distractor_trianglediamonds.svg	4	yes	57	0	708	0	0			0	0			1				0	
6.6.1	win	2023-07-07	08:35:24	08:42:59	449979	63287c548c0d66d1e300fd64	4	1	main_z	7	main_z	1	stimuli_distractor_trianglediamonds.svg	stimuli_target_squarediamonds.svg	12	yes	44	1	332	0	0			0	0			1				0	
6.6.1	win	2023-07-07	08:35:24	08:42:59	449979	63287c548c0d66d1e300fd64	4	1	main_z	7	advance_on_keypress_ZEE	2	stimuli_distractor_trianglediamonds.svg	stimuli_target_squarediamonds.svg	12	yes	57	0	2265	0	0			0	0			1				0	
6.6.1	win	2023-07-07	08:35:24	08:43:02	453128	63287c548c0d66d1e300fd64	4	1	main_z	7	main_z	3	stimuli_target_squaretriangles.svg	stimuli_distractor_diamondtriangles.svg	7	yes	44	1	232	0	0			0	0			1				0	
6.6.1	win	2023-07-07	08:35:24	08:43:02	453128	63287c548c0d66d1e300fd64	4	1	main_z	7	advance_on_keypress_ZEE	4	stimuli_target_squaretriangles.svg	stimuli_distractor_diamondtriangles.svg	7	yes	57	0	1654	0	0			0	0			1				0	
6.6.1	win	2023-07-07	08:35:24	08:43:05	455697	63287c548c0d66d1e300fd64	4	1	main_z	7	main_z	5	stimuli_distractor_trianglediamonds.svg	stimuli_distractor_trianglediamonds.svg	33	no	44	0	268	0	0			0	0			1				0	
6.6.1	win	2023-07-07	08:35:24	08:43:05	455697	63287c548c0d66d1e300fd64	4	1	main_z	7	advance_on_keypress_ZEE	6	stimuli_distractor_trianglediamonds.svg	stimuli_distractor_trianglediamonds.svg	33	no	57	0	1062	0	0			0	0			1				0	
6.6.1	win	2023-07-07	08:35:24	08:43:07	457649	63287c548c0d66d1e300fd64	4	1	main_z	7	main_z	7	stimuli_distractor_trianglediamonds.svg	stimuli_distractor_diamondtriangles.svg	35	no	44	0	253	0	0			0	0			1				0	
6.6.1	win	2023-07-07	08:35:24	08:43:07	457649	63287c548c0d66d1e300fd64	4	1	main_z	7	advance_on_keypress_ZEE	8	stimuli_distractor_trianglediamonds.svg	stimuli_distractor_diamondtriangles.svg	35	no	57	0	820	0	0			0	0			1				0	
6.6.1	win	2023-07-07	08:35:24	08:43:08	459402	63287c548c0d66d1e300fd64	4	1	main_z	7	main_z	9	stimuli_target_squarediamonds.svg	stimuli_distractor_trianglediamonds.svg	4	yes	44	1	290	0	0			0	0			1				0	
6.6.1	win	2023-07-07	08:35:24	08:43:08	459402	63287c548c0d66d1e300fd64	4	1	main_z	7	advance_on_keypress_ZEE	10	stimuli_target_squarediamonds.svg	stimuli_distractor_trianglediamonds.svg	4	yes	57	0	733	0	0			0	0			1				0	
6.6.1	win	2023-07-07	08:35:24	08:43:10	461308	63287c548c0d66d1e300fd64	4	1	main_z	7	main_z	11	stimuli_target_rectangletriangles.svg	stimuli_distractor_trianglediamonds.svg	1	yes	44	1	530	0	0			0	0			1				0	
6.6.1	win	2023-07-07	08:35:24	08:43:10	461308	63287c548c0d66d1e300fd64	4	1	main_z	7	advance_on_keypress_ZEE	12	stimuli_target_rectangletriangles.svg	stimuli_distractor_trianglediamonds.svg	1	yes	57	0	805	0	0			0	0			1				0	
6.6.1	win	2023-07-07	08:35:24	08:43:14	464761	63287c548c0d66d1e300fd64	4	1	main_z	7	main_z	13	stimuli_distractor_trianglediamonds.svg	stimuli_distractor_trianglediamonds.svg	34	no	0	1	2000	0	0			0	0			1				0	
6.6.1	win	2023-07-07	08:35:24	08:43:14	464761	63287c548c0d66d1e300fd64	4	1	main_z	7	advance_on_keypress_ZEE	14	stimuli_distractor_trianglediamonds.svg	stimuli_distractor_trianglediamonds.svg	34	no	57	0	874	0	0			0	0			1				0	
6.6.1	win	2023-07-07	08:35:24	08:43:16	466868	63287c548c0d66d1e300fd64	4	1	main_z	7	main_z	15	stimuli_distractor_diamondtriangles.svg	stimuli_target_squarediamonds.svg	16	yes	44	1	590	0	0			0	0			1				0	
6.6.1	win	2023-07-07	08:35:24	08:43:16	466868	63287c548c0d66d1e300fd64	4	1	main_z	7	advance_on_keypress_ZEE	16	stimuli_distractor_diamondtriangles.svg	stimuli_target_squarediamonds.svg	16	yes	57	0	715	0	0			0	0			1				0	
6.6.1	win	2023-07-07	08:35:24	08:43:18	468549	63287c548c0d66d1e300fd64	4	1	main_z	7	main_z	17	stimuli_target_squaretriangles.svg	stimuli_distractor_trianglediamonds.svg	3	yes	44	1	322	0	0			0	0			1				0	
6.6.1	win	2023-07-07	08:35:24	08:43:18	468549	63287c548c0d66d1e300fd64	4	1	main_z	7	advance_on_keypress_ZEE	18	stimuli_target_squaretriangles.svg	stimuli_distractor_trianglediamonds.svg	3	yes	57	0	393	0	0			0	0			1				0	
6.6.1	win	2023-07-07	08:35:24	08:43:19	469926	63287c548c0d66d1e300fd64	4	1	main_z	7	main_z	19	stimuli_distractor_diamondtriangles.svg	stimuli_target_trianglerectangles.svg	29	yes	44	1	349	0	0			0	0			1				0	
6.6.1	win	2023-07-07	08:35:24	08:43:19	469926	63287c548c0d66d1e300fd64	4	1	main_z	7	advance_on_keypress_ZEE	20	stimuli_distractor_diamondtriangles.svg	stimuli_target_trianglerectangles.svg	29	yes	57	0	501	0	0			0	0			1				0	
6.6.1	win	2023-07-07	08:35:24	08:43:21	471962	63287c548c0d66d1e300fd64	4	1	main_z	7	main_z	21	stimuli_distractor_diamondtriangles.svg	stimuli_distractor_diamondtriangles.svg	39	no	44	0	885	0	0			0	0			1				0	
6.6.1	win	2023-07-07	08:35:24	08:43:21	471962	63287c548c0d66d1e300fd64	4	1	main_z	7	advance_on_keypress_ZEE	22	stimuli_distractor_diamondtriangles.svg	stimuli_distractor_diamondtriangles.svg	39	no	57	0	519	0	0			0	0			1				0	
6.6.1	win	2023-07-07	08:35:24	08:43:23	473792	63287c548c0d66d1e300fd64	4	1	main_z	7	main_z	23	stimuli_distractor_diamondtriangles.svg	stimuli_target_trianglesquares.svg	30	yes	44	1	665	0	0			0	0			1				0	
6.6.1	win	2023-07-07	08:35:24	08:43:23	473792	63287c548c0d66d1e300fd64	4	1	main_z	7	advance_on_keypress_ZEE	24	stimuli_distractor_diamondtriangles.svg	stimuli_target_trianglesquares.svg	30	yes	57	0	465	0	0			0	0			1				0	
6.6.1	win	2023-07-07	08:35:24	08:43:25	475574	63287c548c0d66d1e300fd64	4	1	main_z	7	main_z	25	stimuli_distractor_trianglediamonds.svg	stimuli_target_trianglerectangles.svg	25	yes	44	1	664	0	0			0	0			1				0	
6.6.1	win	2023-07-07	08:35:24	08:43:25	475574	63287c548c0d66d1e300fd64	4	1	main_z	7	advance_on_keypress_ZEE	26	stimuli_distractor_trianglediamonds.svg	stimuli_target_trianglerectangles.svg	25	yes	57	0	389	0	0			0	0			1				0	
6.6.1	win	2023-07-07	08:35:24	08:43:26	477181	63287c548c0d66d1e300fd64	4	1	main_z	7	main_z	27	stimuli_target_trianglerectangles.svg	stimuli_distractor_trianglediamonds.svg	17	yes	44	1	571	0	0			0	0			1				0	
6.6.1	win	2023-07-07	08:35:24	08:43:26	477181	63287c548c0d66d1e300fd64	4	1	main_z	7	advance_on_keypress_ZEE	28	stimuli_target_trianglerectangles.svg	stimuli_distractor_trianglediamonds.svg	17	yes	57	0	443	0	0			0	0			1				0	
6.6.1	win	2023-07-07	08:35:24	08:43:28	478913	63287c548c0d66d1e300fd64	4	1	main_z	7	main_z	29	stimuli_distractor_trianglediamonds.svg	stimuli_distractor_diamondtriangles.svg	36	no	44	0	653	0	0			0	0			1				0	
6.6.1	win	2023-07-07	08:35:24	08:43:28	478913	63287c548c0d66d1e300fd64	4	1	main_z	7	advance_on_keypress_ZEE	30	stimuli_distractor_trianglediamonds.svg	stimuli_distractor_diamondtriangles.svg	36	no	57	0	372	0	0			0	0			1				0	
6.6.1	win	2023-07-07	08:35:24	08:43:30	480574	63287c548c0d66d1e300fd64	4	1	main_z	7	main_z	31	stimuli_target_diamondrectangles.svg	stimuli_distractor_diamondtriangles.svg	23	yes	44	1	648	0	0			0	0			1				0	
6.6.1	win	2023-07-07	08:35:24	08:43:30	480574	63287c548c0d66d1e300fd64	4	1	main_z	7	advance_on_keypress_ZEE	32	stimuli_target_diamondrectangles.svg	stimuli_distractor_diamondtriangles.svg	23	yes	57	0	379	0	0			0	0			1				0	
6.6.1	win	2023-07-07	08:35:24	08:43:31	482197	63287c548c0d66d1e300fd64	4	1	main_z	7	main_z	33	stimuli_target_diamondrectangles.svg	stimuli_distractor_trianglediamonds.svg	19	yes	44	1	605	0	0			0	0			1				0	
6.6.1	win	2023-07-07	08:35:24	08:43:31	482197	63287c548c0d66d1e300fd64	4	1	main_z	7	advance_on_keypress_ZEE	34	stimuli_target_diamondrectangles.svg	stimuli_distractor_trianglediamonds.svg	19	yes	57	0	567	0	0			0	0			1				0	
6.6.1	win	2023-07-07	08:35:24	08:43:33	484081	63287c548c0d66d1e300fd64	4	1	main_z	7	main_z	35	stimuli_target_diamondsquares.svg	stimuli_distractor_diamondtriangles.svg	24	yes	44	1	672	0	0			0	0			1				0	
6.6.1	win	2023-07-07	08:35:24	08:43:33	484081	63287c548c0d66d1e300fd64	4	1	main_z	7	advance_on_keypress_ZEE	36	stimuli_target_diamondsquares.svg	stimuli_distractor_diamondtriangles.svg	24	yes	57	0	404	0	0			0	0			1				0	
6.6.1	win	2023-07-07	08:35:24	08:43:35	485507	63287c548c0d66d1e300fd64	4	1	main_z	7	main_z	37	stimuli_target_rectanglediamonds.svg	stimuli_distractor_trianglediamonds.svg	2	yes	44	1	376	0	0			0	0			1				0	
6.6.1	win	2023-07-07	08:35:24	08:43:35	485507	63287c548c0d66d1e300fd64	4	1	main_z	7	advance_on_keypress_ZEE	38	stimuli_target_rectanglediamonds.svg	stimuli_distractor_trianglediamonds.svg	2	yes	57	0	554	0	0			0	0			1				0	
6.6.1	win	2023-07-07	08:35:24	08:43:36	486986	63287c548c0d66d1e300fd64	4	1	main_z	7	main_z	39	stimuli_distractor_diamondtriangles.svg	stimuli_target_rectanglediamonds.svg	14	yes	44	1	278	0	0			0	0			1				0	
6.6.1	win	2023-07-07	08:35:24	08:43:36	486986	63287c548c0d66d1e300fd64	4	1	main_z	7	advance_on_keypress_ZEE	40	stimuli_distractor_diamondtriangles.svg	stimuli_target_rectanglediamonds.svg	14	yes	57	0	479	0	0			0	0			1				0	
6.6.1	win	2023-07-07	08:35:24	08:43:38	488549	63287c548c0d66d1e300fd64	4	1	main_z	7	main_z	41	stimuli_distractor_trianglediamonds.svg	stimuli_target_squaretriangles.svg	11	yes	44	1	441	0	0			0	0			1				0	
6.6.1	win	2023-07-07	08:35:24	08:43:38	488549	63287c548c0d66d1e300fd64	4	1	main_z	7	advance_on_keypress_ZEE	42	stimuli_distractor_trianglediamonds.svg	stimuli_target_squaretriangles.svg	11	yes	57	0	519	0	0			0	0			1				0	
6.6.1	win	2023-07-07	08:35:24	08:43:39	490021	63287c548c0d66d1e300fd64	4	1	main_z	7	main_z	43	stimuli_target_diamondsquares.svg	stimuli_distractor_trianglediamonds.svg	20	yes	44	1	313	0	0			0	0			1				0	
6.6.1	win	2023-07-07	08:35:24	08:43:39	490021	63287c548c0d66d1e300fd64	4	1	main_z	7	advance_on_keypress_ZEE	44	stimuli_target_diamondsquares.svg	stimuli_distractor_trianglediamonds.svg	20	yes	57	0	367	0	0			0	0			1				0	
6.6.1	win	2023-07-07	08:35:24	08:43:40	491328	63287c548c0d66d1e300fd64	4	1	main_z	7	main_z	45	stimuli_target_rectangletriangles.svg	stimuli_distractor_diamondtriangles.svg	5	yes	44	1	287	0	0			0	0			1				0	
6.6.1	win	2023-07-07	08:35:24	08:43:40	491328	63287c548c0d66d1e300fd64	4	1	main_z	7	advance_on_keypress_ZEE	46	stimuli_target_rectangletriangles.svg	stimuli_distractor_diamondtriangles.svg	5	yes	57	0	246	0	0			0	0			1				0	
6.6.1	win	2023-07-07	08:35:24	08:43:43	494224	63287c548c0d66d1e300fd64	4	1	main_z	7	main_z	47	stimuli_target_trianglesquares.svg	stimuli_distractor_trianglediamonds.svg	18	yes	0	0	2000	0	0			0	0			1				0	
6.6.1	win	2023-07-07	08:35:24	08:43:43	494224	63287c548c0d66d1e300fd64	4	1	main_z	7	advance_on_keypress_ZEE	48	stimuli_target_trianglesquares.svg	stimuli_distractor_trianglediamonds.svg	18	yes	57	0	659	0	0			0	0			1				0	
6.6.1	win	2023-07-07	08:35:24	08:43:45	495834	63287c548c0d66d1e300fd64	4	1	main_z	7	main_z	49	stimuli_distractor_diamondtriangles.svg	stimuli_target_diamondrectangles.svg	31	yes	44	1	310	0	0			0	0			1				0	
6.6.1	win	2023-07-07	08:35:24	08:43:45	495834	63287c548c0d66d1e300fd64	4	1	main_z	7	advance_on_keypress_ZEE	50	stimuli_distractor_diamondtriangles.svg	stimuli_target_diamondrectangles.svg	31	yes	57	0	513	0	0			0	0			1				0	
6.6.1	win	2023-07-07	08:35:24	08:43:46	497277	63287c548c0d66d1e300fd64	4	1	main_z	7	main_z	51	stimuli_distractor_diamondtriangles.svg	stimuli_target_diamondsquares.svg	32	yes	44	1	287	0	0			0	0			1				0	
6.6.1	win	2023-07-07	08:35:24	08:43:46	497277	63287c548c0d66d1e300fd64	4	1	main_z	7	advance_on_keypress_ZEE	52	stimuli_distractor_diamondtriangles.svg	stimuli_target_diamondsquares.svg	32	yes	57	0	394	0	0			0	0			1				0	
6.6.1	win	2023-07-07	08:35:24	08:43:48	498829	63287c548c0d66d1e300fd64	4	1	main_z	7	main_z	53	stimuli_distractor_trianglediamonds.svg	stimuli_target_rectanglediamonds.svg	10	yes	44	1	522	0	0			0	0			1				0	
6.6.1	win	2023-07-07	08:35:24	08:43:48	498829	63287c548c0d66d1e300fd64	4	1	main_z	7	advance_on_keypress_ZEE	54	stimuli_distractor_trianglediamonds.svg	stimuli_target_rectanglediamonds.svg	10	yes	57	0	275	0	0			0	0			1				0	
6.6.1	win	2023-07-07	08:35:24	08:43:49	500362	63287c548c0d66d1e300fd64	4	1	main_z	7	main_z	55	stimuli_target_trianglerectangles.svg	stimuli_distractor_diamondtriangles.svg	21	yes	44	1	622	0	0			0	0			1				0	
6.6.1	win	2023-07-07	08:35:24	08:43:49	500362	63287c548c0d66d1e300fd64	4	1	main_z	7	advance_on_keypress_ZEE	56	stimuli_target_trianglerectangles.svg	stimuli_distractor_diamondtriangles.svg	21	yes	57	0	302	0	0			0	0			1				0	
6.6.1	win	2023-07-07	08:35:24	08:43:51	501912	63287c548c0d66d1e300fd64	4	1	main_z	7	main_z	57	stimuli_distractor_diamondtriangles.svg	stimuli_target_squaretriangles.svg	15	yes	44	1	605	0	0			0	0			1				0	
6.6.1	win	2023-07-07	08:35:24	08:43:51	501912	63287c548c0d66d1e300fd64	4	1	main_z	7	advance_on_keypress_ZEE	58	stimuli_distractor_diamondtriangles.svg	stimuli_target_squaretriangles.svg	15	yes	57	0	343	0	0			0	0			1				0	
6.6.1	win	2023-07-07	08:35:24	08:43:53	503478	63287c548c0d66d1e300fd64	4	1	main_z	7	main_z	59	stimuli_distractor_trianglediamonds.svg	stimuli_target_trianglesquares.svg	26	yes	44	1	588	0	0			0	0			1				0	
6.6.1	win	2023-07-07	08:35:24	08:43:53	503478	63287c548c0d66d1e300fd64	4	1	main_z	7	advance_on_keypress_ZEE	60	stimuli_distractor_trianglediamonds.svg	stimuli_target_trianglesquares.svg	26	yes	57	0	314	0	0			0	0			1				0	
6.6.1	win	2023-07-07	08:35:24	08:43:54	505070	63287c548c0d66d1e300fd64	4	1	main_z	7	main_z	61	stimuli_distractor_diamondtriangles.svg	stimuli_distractor_trianglediamonds.svg	38	no	44	0	630	0	0			0	0			1				0	
6.6.1	win	2023-07-07	08:35:24	08:43:54	505070	63287c548c0d66d1e300fd64	4	1	main_z	7	advance_on_keypress_ZEE	62	stimuli_distractor_diamondtriangles.svg	stimuli_distractor_trianglediamonds.svg	38	no	57	0	145	0	0			0	0			1				0	
6.6.1	win	2023-07-07	08:35:24	08:43:56	506784	63287c548c0d66d1e300fd64	4	1	main_z	7	main_z	63	stimuli_distractor_trianglediamonds.svg	stimuli_target_diamondrectangles.svg	27	yes	44	1	911	0	0			0	0			1				0	
6.6.1	win	2023-07-07	08:35:24	08:43:56	506784	63287c548c0d66d1e300fd64	4	1	main_z	7	advance_on_keypress_ZEE	64	stimuli_distractor_trianglediamonds.svg	stimuli_target_diamondrectangles.svg	27	yes	57	0	705	0	0			0	0			1				0	
6.6.1	win	2023-07-07	08:35:24	08:43:58	508855	63287c548c0d66d1e300fd64	4	1	main_z	7	main_z	65	stimuli_target_squarediamonds.svg	stimuli_distractor_diamondtriangles.svg	8	yes	44	1	716	0	0			0	0			1				0	
6.6.1	win	2023-07-07	08:35:24	08:43:58	508855	63287c548c0d66d1e300fd64	4	1	main_z	7	advance_on_keypress_ZEE	66	stimuli_target_squarediamonds.svg	stimuli_distractor_diamondtriangles.svg	8	yes	57	0	557	0	0			0	0			1				0	
6.6.1	win	2023-07-07	08:35:24	08:43:59	510319	63287c548c0d66d1e300fd64	4	1	main_z	7	main_z	67	stimuli_target_trianglesquares.svg	stimuli_distractor_diamondtriangles.svg	22	yes	44	1	264	0	0			0	0			1				0	
6.6.1	win	2023-07-07	08:35:24	08:43:59	510319	63287c548c0d66d1e300fd64	4	1	main_z	7	advance_on_keypress_ZEE	68	stimuli_target_trianglesquares.svg	stimuli_distractor_diamondtriangles.svg	22	yes	57	0	354	0	0			0	0			1				0	
6.6.1	win	2023-07-07	08:35:24	08:44:01	511603	63287c548c0d66d1e300fd64	4	1	main_z	7	main_z	69	stimuli_distractor_diamondtriangles.svg	stimuli_distractor_trianglediamonds.svg	37	no	44	0	281	0	0			0	0			1				0	
6.6.1	win	2023-07-07	08:35:24	08:44:01	511603	63287c548c0d66d1e300fd64	4	1	main_z	7	advance_on_keypress_ZEE	70	stimuli_distractor_diamondtriangles.svg	stimuli_distractor_trianglediamonds.svg	37	no	57	0	89	0	0			0	0			1				0	
6.6.1	win	2023-07-07	08:35:24	08:44:02	512651	63287c548c0d66d1e300fd64	4	1	main_z	7	main_z	71	stimuli_distractor_trianglediamonds.svg	stimuli_target_rectangletriangles.svg	9	yes	44	1	313	0	0			0	0			1				0	
6.6.1	win	2023-07-07	08:35:24	08:44:02	512651	63287c548c0d66d1e300fd64	4	1	main_z	7	advance_on_keypress_ZEE	72	stimuli_distractor_trianglediamonds.svg	stimuli_target_rectangletriangles.svg	9	yes	57	0	92	0	0			0	0			1				0	
6.6.1	win	2023-07-07	08:35:24	08:44:03	513631	63287c548c0d66d1e300fd64	4	1	main_z	7	main_z	73	stimuli_distractor_trianglediamonds.svg	stimuli_target_diamondsquares.svg	28	yes	44	1	243	0	0			0	0			1				0	
6.6.1	win	2023-07-07	08:35:24	08:44:03	513631	63287c548c0d66d1e300fd64	4	1	main_z	7	advance_on_keypress_ZEE	74	stimuli_distractor_trianglediamonds.svg	stimuli_target_diamondsquares.svg	28	yes	57	0	85	0	0			0	0			1				0	
6.6.1	win	2023-07-07	08:35:24	08:44:04	514577	63287c548c0d66d1e300fd64	4	1	main_z	7	main_z	75	stimuli_target_rectanglediamonds.svg	stimuli_distractor_diamondtriangles.svg	6	yes	44	1	223	0	0			0	0			1				0	
6.6.1	win	2023-07-07	08:35:24	08:44:04	514577	63287c548c0d66d1e300fd64	4	1	main_z	7	advance_on_keypress_ZEE	76	stimuli_target_rectanglediamonds.svg	stimuli_distractor_diamondtriangles.svg	6	yes	57	0	60	0	0			0	0			1				0	
6.6.1	win	2023-07-07	08:35:24	08:44:05	515690	63287c548c0d66d1e300fd64	4	1	main_z	7	main_z	77	stimuli_distractor_diamondtriangles.svg	stimuli_target_rectangletriangles.svg	13	yes	44	1	418	0	0			0	0			1				0	
6.6.1	win	2023-07-07	08:35:24	08:44:05	515690	63287c548c0d66d1e300fd64	4	1	main_z	7	advance_on_keypress_ZEE	78	stimuli_distractor_diamondtriangles.svg	stimuli_target_rectangletriangles.svg	13	yes	57	0	1109	0	0			0	0			1				0	
6.6.1	win	2023-07-07	08:35:24	08:44:07	517673	63287c548c0d66d1e300fd64	4	1	main_z	7	main_z	79	stimuli_distractor_diamondtriangles.svg	stimuli_distractor_diamondtriangles.svg	40	no	44	0	235	0	0			0	0			1				0	
6.6.1	win	2023-07-07	08:35:24	08:44:07	517673	63287c548c0d66d1e300fd64	4	1	main_z	7	advance_on_keypress_ZEE	80	stimuli_distractor_diamondtriangles.svg	stimuli_distractor_diamondtriangles.svg	40	no	57	0	186	0	0			0	0			1				0	
6.6.1	win	2023-07-07	08:35:24	08:44:08	518746	63287c548c0d66d1e300fd64	4	1	main_z	7	main_z	81	stimuli_distractor_trianglediamonds.svg	stimuli_target_trianglesquares.svg	26	yes	44	1	241	0	0			0	0			1				0	
6.6.1	win	2023-07-07	08:35:24	08:44:08	518746	63287c548c0d66d1e300fd64	4	1	main_z	7	advance_on_keypress_ZEE	82	stimuli_distractor_trianglediamonds.svg	stimuli_target_trianglesquares.svg	26	yes	57	0	141	0	0			0	0			1				0	
6.6.1	win	2023-07-07	08:35:24	08:44:09	519709	63287c548c0d66d1e300fd64	4	1	main_z	7	main_z	83	stimuli_distractor_trianglediamonds.svg	stimuli_target_squaretriangles.svg	11	yes	44	1	188	0	0			0	0			1				0	
6.6.1	win	2023-07-07	08:35:24	08:44:09	519709	63287c548c0d66d1e300fd64	4	1	main_z	7	advance_on_keypress_ZEE	84	stimuli_distractor_trianglediamonds.svg	stimuli_target_squaretriangles.svg	11	yes	57	0	161	0	0			0	0			1				0	
6.6.1	win	2023-07-07	08:35:24	08:44:10	520769	63287c548c0d66d1e300fd64	4	1	main_z	7	main_z	85	stimuli_target_trianglesquares.svg	stimuli_distractor_trianglediamonds.svg	18	yes	44	1	248	0	0			0	0			1				0	
6.6.1	win	2023-07-07	08:35:24	08:44:10	520769	63287c548c0d66d1e300fd64	4	1	main_z	7	advance_on_keypress_ZEE	86	stimuli_target_trianglesquares.svg	stimuli_distractor_trianglediamonds.svg	18	yes	57	0	48	0	0			0	0			1				0	
6.6.1	win	2023-07-07	08:35:24	08:44:11	521907	63287c548c0d66d1e300fd64	4	1	main_z	7	main_z	87	stimuli_target_trianglesquares.svg	stimuli_distractor_diamondtriangles.svg	22	yes	44	1	436	0	0			0	0			1				0	
6.6.1	win	2023-07-07	08:35:24	08:44:11	521907	63287c548c0d66d1e300fd64	4	1	main_z	7	advance_on_keypress_ZEE	88	stimuli_target_trianglesquares.svg	stimuli_distractor_diamondtriangles.svg	22	yes	57	0	469	0	0			0	0			1				0	
6.6.1	win	2023-07-07	08:35:24	08:44:12	523275	63287c548c0d66d1e300fd64	4	1	main_z	7	main_z	89	stimuli_distractor_trianglediamonds.svg	stimuli_target_squarediamonds.svg	12	yes	44	1	255	0	0			0	0			1				0	
6.6.1	win	2023-07-07	08:35:24	08:44:12	523275	63287c548c0d66d1e300fd64	4	1	main_z	7	advance_on_keypress_ZEE	90	stimuli_distractor_trianglediamonds.svg	stimuli_target_squarediamonds.svg	12	yes	57	0	349	0	0			0	0			1				0	
6.6.1	win	2023-07-07	08:35:24	08:44:14	524554	63287c548c0d66d1e300fd64	4	1	main_z	7	main_z	91	stimuli_distractor_diamondtriangles.svg	stimuli_target_diamondsquares.svg	32	yes	44	1	284	0	0			0	0			1				0	
6.6.1	win	2023-07-07	08:35:24	08:44:14	524554	63287c548c0d66d1e300fd64	4	1	main_z	7	advance_on_keypress_ZEE	92	stimuli_distractor_diamondtriangles.svg	stimuli_target_diamondsquares.svg	32	yes	57	0	410	0	0			0	0			1				0	
6.6.1	win	2023-07-07	08:35:24	08:44:15	525811	63287c548c0d66d1e300fd64	4	1	main_z	7	main_z	93	stimuli_distractor_diamondtriangles.svg	stimuli_target_rectanglediamonds.svg	14	yes	44	1	208	0	0			0	0			1				0	
6.6.1	win	2023-07-07	08:35:24	08:44:15	525811	63287c548c0d66d1e300fd64	4	1	main_z	7	advance_on_keypress_ZEE	94	stimuli_distractor_diamondtriangles.svg	stimuli_target_rectanglediamonds.svg	14	yes	57	0	230	0	0			0	0			1				0	
6.6.1	win	2023-07-07	08:35:24	08:44:16	526961	63287c548c0d66d1e300fd64	4	1	main_z	7	main_z	95	stimuli_target_rectangletriangles.svg	stimuli_distractor_trianglediamonds.svg	1	yes	44	1	274	0	0			0	0			1				0	
6.6.1	win	2023-07-07	08:35:24	08:44:16	526961	63287c548c0d66d1e300fd64	4	1	main_z	7	advance_on_keypress_ZEE	96	stimuli_target_rectangletriangles.svg	stimuli_distractor_trianglediamonds.svg	1	yes	57	0	381	0	0			0	0			1				0	
6.6.1	win	2023-07-07	08:35:24	08:44:17	528240	63287c548c0d66d1e300fd64	4	1	main_z	7	main_z	97	stimuli_distractor_trianglediamonds.svg	stimuli_distractor_diamondtriangles.svg	36	no	44	0	254	0	0			0	0			1				0	
6.6.1	win	2023-07-07	08:35:24	08:44:17	528240	63287c548c0d66d1e300fd64	4	1	main_z	7	advance_on_keypress_ZEE	98	stimuli_distractor_trianglediamonds.svg	stimuli_distractor_diamondtriangles.svg	36	no	57	0	380	0	0			0	0			1				0	
6.6.1	win	2023-07-07	08:35:24	08:44:19	529651	63287c548c0d66d1e300fd64	4	1	main_z	7	main_z	99	stimuli_distractor_diamondtriangles.svg	stimuli_target_trianglesquares.svg	30	yes	44	1	371	0	0			0	0			1				0	
6.6.1	win	2023-07-07	08:35:24	08:44:19	529651	63287c548c0d66d1e300fd64	4	1	main_z	7	advance_on_keypress_ZEE	100	stimuli_distractor_diamondtriangles.svg	stimuli_target_trianglesquares.svg	30	yes	57	0	290	0	0			0	0			1				0	
6.6.1	win	2023-07-07	08:35:24	08:44:20	530967	63287c548c0d66d1e300fd64	4	1	main_z	7	main_z	101	stimuli_distractor_trianglediamonds.svg	stimuli_distractor_trianglediamonds.svg	34	no	44	0	371	0	0			0	0			1				0	
6.6.1	win	2023-07-07	08:35:24	08:44:20	530967	63287c548c0d66d1e300fd64	4	1	main_z	7	advance_on_keypress_ZEE	102	stimuli_distractor_trianglediamonds.svg	stimuli_distractor_trianglediamonds.svg	34	no	57	0	382	0	0			0	0			1				0	
6.6.1	win	2023-07-07	08:35:24	08:44:21	532317	63287c548c0d66d1e300fd64	4	1	main_z	7	main_z	103	stimuli_distractor_trianglediamonds.svg	stimuli_target_diamondrectangles.svg	27	yes	44	1	314	0	0			0	0			1				0	
6.6.1	win	2023-07-07	08:35:24	08:44:21	532317	63287c548c0d66d1e300fd64	4	1	main_z	7	advance_on_keypress_ZEE	104	stimuli_distractor_trianglediamonds.svg	stimuli_target_diamondrectangles.svg	27	yes	57	0	312	0	0			0	0			1				0	
6.6.1	win	2023-07-07	08:35:24	08:44:23	533822	63287c548c0d66d1e300fd64	4	1	main_z	7	main_z	105	stimuli_distractor_diamondtriangles.svg	stimuli_target_squarediamonds.svg	16	yes	44	1	536	0	0			0	0			1				0	
6.6.1	win	2023-07-07	08:35:24	08:44:23	533822	63287c548c0d66d1e300fd64	4	1	main_z	7	advance_on_keypress_ZEE	106	stimuli_distractor_diamondtriangles.svg	stimuli_target_squarediamonds.svg	16	yes	57	0	406	0	0			0	0			1				0	
6.6.1	win	2023-07-07	08:35:24	08:44:25	535522	63287c548c0d66d1e300fd64	4	1	main_z	7	main_z	107	stimuli_distractor_trianglediamonds.svg	stimuli_target_diamondsquares.svg	28	yes	44	1	652	0	0			0	0			1				0	
6.6.1	win	2023-07-07	08:35:24	08:44:25	535522	63287c548c0d66d1e300fd64	4	1	main_z	7	advance_on_keypress_ZEE	108	stimuli_distractor_trianglediamonds.svg	stimuli_target_diamondsquares.svg	28	yes	57	0	802	0	0			0	0			1				0	
6.6.1	win	2023-07-07	08:35:24	08:44:27	537591	63287c548c0d66d1e300fd64	4	1	main_z	7	main_z	109	stimuli_distractor_diamondtriangles.svg	stimuli_distractor_diamondtriangles.svg	40	no	44	0	623	0	0			0	0			1				0	
6.6.1	win	2023-07-07	08:35:24	08:44:27	537591	63287c548c0d66d1e300fd64	4	1	main_z	7	advance_on_keypress_ZEE	110	stimuli_distractor_diamondtriangles.svg	stimuli_distractor_diamondtriangles.svg	40	no	57	0	411	0	0			0	0			1				0	
6.6.1	win	2023-07-07	08:35:24	08:44:28	538903	63287c548c0d66d1e300fd64	4	1	main_z	7	main_z	111	stimuli_distractor_diamondtriangles.svg	stimuli_target_trianglerectangles.svg	29	yes	44	1	268	0	0			0	0			1				0	
6.6.1	win	2023-07-07	08:35:24	08:44:28	538903	63287c548c0d66d1e300fd64	4	1	main_z	7	advance_on_keypress_ZEE	112	stimuli_distractor_diamondtriangles.svg	stimuli_target_trianglerectangles.svg	29	yes	57	0	361	0	0			0	0			1				0	
6.6.1	win	2023-07-07	08:35:24	08:44:30	540548	63287c548c0d66d1e300fd64	4	1	main_z	7	main_z	113	stimuli_target_squarediamonds.svg	stimuli_distractor_trianglediamonds.svg	4	yes	44	1	646	0	0			0	0			1				0	
6.6.1	win	2023-07-07	08:35:24	08:44:30	540548	63287c548c0d66d1e300fd64	4	1	main_z	7	advance_on_keypress_ZEE	114	stimuli_target_squarediamonds.svg	stimuli_distractor_trianglediamonds.svg	4	yes	57	0	414	0	0			0	0			1				0	
6.6.1	win	2023-07-07	08:35:24	08:44:31	542174	63287c548c0d66d1e300fd64	4	1	main_z	7	main_z	115	stimuli_distractor_diamondtriangles.svg	stimuli_target_rectangletriangles.svg	13	yes	44	1	556	0	0			0	0			1				0	
6.6.1	win	2023-07-07	08:35:24	08:44:31	542174	63287c548c0d66d1e300fd64	4	1	main_z	7	advance_on_keypress_ZEE	116	stimuli_distractor_diamondtriangles.svg	stimuli_target_rectangletriangles.svg	13	yes	57	0	429	0	0			0	0			1				0	
6.6.1	win	2023-07-07	08:35:24	08:44:33	543893	63287c548c0d66d1e300fd64	4	1	main_z	7	main_z	117	stimuli_target_diamondrectangles.svg	stimuli_distractor_trianglediamonds.svg	19	yes	44	1	642	0	0			0	0			1				0	
6.6.1	win	2023-07-07	08:35:24	08:44:33	543893	63287c548c0d66d1e300fd64	4	1	main_z	7	advance_on_keypress_ZEE	118	stimuli_target_diamondrectangles.svg	stimuli_distractor_trianglediamonds.svg	19	yes	57	0	368	0	0			0	0			1				0	
6.6.1	win	2023-07-07	08:35:24	08:44:35	545524	63287c548c0d66d1e300fd64	4	1	main_z	7	main_z	119	stimuli_distractor_diamondtriangles.svg	stimuli_target_squaretriangles.svg	15	yes	44	1	623	0	0			0	0			1				0	
6.6.1	win	2023-07-07	08:35:24	08:44:35	545524	63287c548c0d66d1e300fd64	4	1	main_z	7	advance_on_keypress_ZEE	120	stimuli_distractor_diamondtriangles.svg	stimuli_target_squaretriangles.svg	15	yes	57	0	306	0	0			0	0			1				0	
6.6.1	win	2023-07-07	08:35:24	08:44:36	547136	63287c548c0d66d1e300fd64	4	1	main_z	7	main_z	121	stimuli_target_rectanglediamonds.svg	stimuli_distractor_trianglediamonds.svg	2	yes	44	1	670	0	0			0	0			1				0	
6.6.1	win	2023-07-07	08:35:24	08:44:36	547136	63287c548c0d66d1e300fd64	4	1	main_z	7	advance_on_keypress_ZEE	122	stimuli_target_rectanglediamonds.svg	stimuli_distractor_trianglediamonds.svg	2	yes	57	0	382	0	0			0	0			1				0	
6.6.1	win	2023-07-07	08:35:24	08:44:38	548833	63287c548c0d66d1e300fd64	4	1	main_z	7	main_z	123	stimuli_distractor_diamondtriangles.svg	stimuli_distractor_trianglediamonds.svg	37	no	44	0	666	0	0			0	0			1				0	
6.6.1	win	2023-07-07	08:35:24	08:44:38	548833	63287c548c0d66d1e300fd64	4	1	main_z	7	advance_on_keypress_ZEE	124	stimuli_distractor_diamondtriangles.svg	stimuli_distractor_trianglediamonds.svg	37	no	57	0	302	0	0			0	0			1				0	
6.6.1	win	2023-07-07	08:35:24	08:44:40	550431	63287c548c0d66d1e300fd64	4	1	main_z	7	main_z	125	stimuli_target_squarediamonds.svg	stimuli_distractor_diamondtriangles.svg	8	yes	44	1	647	0	0			0	0			1				0	
6.6.1	win	2023-07-07	08:35:24	08:44:40	550431	63287c548c0d66d1e300fd64	4	1	main_z	7	advance_on_keypress_ZEE	126	stimuli_target_squarediamonds.svg	stimuli_distractor_diamondtriangles.svg	8	yes	57	0	286	0	0			0	0			1				0	
6.6.1	win	2023-07-07	08:35:24	08:44:41	551949	63287c548c0d66d1e300fd64	4	1	main_z	7	main_z	127	stimuli_distractor_diamondtriangles.svg	stimuli_target_diamondrectangles.svg	31	yes	44	1	582	0	0			0	0			1				0	
6.6.1	win	2023-07-07	08:35:24	08:44:41	551949	63287c548c0d66d1e300fd64	4	1	main_z	7	advance_on_keypress_ZEE	128	stimuli_distractor_diamondtriangles.svg	stimuli_target_diamondrectangles.svg	31	yes	57	0	471	0	0			0	0			1				0	
6.6.1	win	2023-07-07	08:35:24	08:44:43	553685	63287c548c0d66d1e300fd64	4	1	main_z	7	main_z	129	stimuli_target_diamondrectangles.svg	stimuli_distractor_diamondtriangles.svg	23	yes	44	1	617	0	0			0	0			1				0	
6.6.1	win	2023-07-07	08:35:24	08:44:43	553685	63287c548c0d66d1e300fd64	4	1	main_z	7	advance_on_keypress_ZEE	130	stimuli_target_diamondrectangles.svg	stimuli_distractor_diamondtriangles.svg	23	yes	57	0	339	0	0			0	0			1				0	
6.6.1	win	2023-07-07	08:35:24	08:44:44	555268	63287c548c0d66d1e300fd64	4	1	main_z	7	main_z	131	stimuli_distractor_trianglediamonds.svg	stimuli_target_rectangletriangles.svg	9	yes	44	1	602	0	0			0	0			1				0	
6.6.1	win	2023-07-07	08:35:24	08:44:44	555268	63287c548c0d66d1e300fd64	4	1	main_z	7	advance_on_keypress_ZEE	132	stimuli_distractor_trianglediamonds.svg	stimuli_target_rectangletriangles.svg	9	yes	57	0	360	0	0			0	0			1				0	
6.6.1	win	2023-07-07	08:35:24	08:44:46	556896	63287c548c0d66d1e300fd64	4	1	main_z	7	main_z	133	stimuli_distractor_trianglediamonds.svg	stimuli_distractor_diamondtriangles.svg	35	no	44	0	631	0	0			0	0			1				0	
6.6.1	win	2023-07-07	08:35:24	08:44:46	556896	63287c548c0d66d1e300fd64	4	1	main_z	7	advance_on_keypress_ZEE	134	stimuli_distractor_trianglediamonds.svg	stimuli_distractor_diamondtriangles.svg	35	no	57	0	301	0	0			0	0			1				0	
6.6.1	win	2023-07-07	08:35:24	08:44:47	558395	63287c548c0d66d1e300fd64	4	1	main_z	7	main_z	135	stimuli_target_rectangletriangles.svg	stimuli_distractor_diamondtriangles.svg	5	yes	44	1	546	0	0			0	0			1				0	
6.6.1	win	2023-07-07	08:35:24	08:44:47	558395	63287c548c0d66d1e300fd64	4	1	main_z	7	advance_on_keypress_ZEE	136	stimuli_target_rectangletriangles.svg	stimuli_distractor_diamondtriangles.svg	5	yes	57	0	363	0	0			0	0			1				0	
6.6.1	win	2023-07-07	08:35:24	08:44:49	559987	63287c548c0d66d1e300fd64	4	1	main_z	7	main_z	137	stimuli_distractor_trianglediamonds.svg	stimuli_target_trianglerectangles.svg	25	yes	44	1	571	0	0			0	0			1				0	
6.6.1	win	2023-07-07	08:35:24	08:44:49	559987	63287c548c0d66d1e300fd64	4	1	main_z	7	advance_on_keypress_ZEE	138	stimuli_distractor_trianglediamonds.svg	stimuli_target_trianglerectangles.svg	25	yes	57	0	395	0	0			0	0			1				0	
6.6.1	win	2023-07-07	08:35:24	08:44:51	561675	63287c548c0d66d1e300fd64	4	1	main_z	7	main_z	139	stimuli_distractor_diamondtriangles.svg	stimuli_distractor_trianglediamonds.svg	38	no	44	0	644	0	0			0	0			1				0	
6.6.1	win	2023-07-07	08:35:24	08:44:51	561675	63287c548c0d66d1e300fd64	4	1	main_z	7	advance_on_keypress_ZEE	140	stimuli_distractor_diamondtriangles.svg	stimuli_distractor_trianglediamonds.svg	38	no	57	0	360	0	0			0	0			1				0	
6.6.1	win	2023-07-07	08:35:24	08:44:52	563302	63287c548c0d66d1e300fd64	4	1	main_z	7	main_z	141	stimuli_distractor_trianglediamonds.svg	stimuli_target_rectanglediamonds.svg	10	yes	44	1	637	0	0			0	0			1				0	
6.6.1	win	2023-07-07	08:35:24	08:44:52	563302	63287c548c0d66d1e300fd64	4	1	main_z	7	advance_on_keypress_ZEE	142	stimuli_distractor_trianglediamonds.svg	stimuli_target_rectanglediamonds.svg	10	yes	57	0	301	0	0			0	0			1				0	
6.6.1	win	2023-07-07	08:35:24	08:44:54	564824	63287c548c0d66d1e300fd64	4	1	main_z	7	main_z	143	stimuli_target_squaretriangles.svg	stimuli_distractor_trianglediamonds.svg	3	yes	44	1	576	0	0			0	0			1				0	
6.6.1	win	2023-07-07	08:35:24	08:44:54	564824	63287c548c0d66d1e300fd64	4	1	main_z	7	advance_on_keypress_ZEE	144	stimuli_target_squaretriangles.svg	stimuli_distractor_trianglediamonds.svg	3	yes	57	0	346	0	0			0	0			1				0	
6.6.1	win	2023-07-07	08:35:24	08:44:56	566424	63287c548c0d66d1e300fd64	4	1	main_z	7	main_z	145	stimuli_target_squaretriangles.svg	stimuli_distractor_diamondtriangles.svg	7	yes	44	1	609	0	0			0	0			1				0	
6.6.1	win	2023-07-07	08:35:24	08:44:56	566424	63287c548c0d66d1e300fd64	4	1	main_z	7	advance_on_keypress_ZEE	146	stimuli_target_squaretriangles.svg	stimuli_distractor_diamondtriangles.svg	7	yes	57	0	355	0	0			0	0			1				0	
6.6.1	win	2023-07-07	08:35:24	08:44:57	568029	63287c548c0d66d1e300fd64	4	1	main_z	7	main_z	147	stimuli_target_diamondsquares.svg	stimuli_distractor_diamondtriangles.svg	24	yes	44	1	614	0	0			0	0			1				0	
6.6.1	win	2023-07-07	08:35:24	08:44:57	568029	63287c548c0d66d1e300fd64	4	1	main_z	7	advance_on_keypress_ZEE	148	stimuli_target_diamondsquares.svg	stimuli_distractor_diamondtriangles.svg	24	yes	57	0	306	0	0			0	0			1				0	
6.6.1	win	2023-07-07	08:35:24	08:44:58	569368	63287c548c0d66d1e300fd64	4	1	main_z	7	main_z	149	stimuli_target_rectanglediamonds.svg	stimuli_distractor_diamondtriangles.svg	6	yes	44	1	387	0	0			0	0			1				0	
6.6.1	win	2023-07-07	08:35:24	08:44:58	569368	63287c548c0d66d1e300fd64	4	1	main_z	7	advance_on_keypress_ZEE	150	stimuli_target_rectanglediamonds.svg	stimuli_distractor_diamondtriangles.svg	6	yes	57	0	432	0	0			0	0			1				0	
6.6.1	win	2023-07-07	08:35:24	08:45:00	571075	63287c548c0d66d1e300fd64	4	1	main_z	7	main_z	151	stimuli_target_diamondsquares.svg	stimuli_distractor_trianglediamonds.svg	20	yes	44	1	627	0	0			0	0			1				0	
6.6.1	win	2023-07-07	08:35:24	08:45:00	571075	63287c548c0d66d1e300fd64	4	1	main_z	7	advance_on_keypress_ZEE	152	stimuli_target_diamondsquares.svg	stimuli_distractor_trianglediamonds.svg	20	yes	57	0	316	0	0			0	0			1				0	
6.6.1	win	2023-07-07	08:35:24	08:45:02	572649	63287c548c0d66d1e300fd64	4	1	main_z	7	main_z	153	stimuli_target_trianglerectangles.svg	stimuli_distractor_trianglediamonds.svg	17	yes	44	1	618	0	0			0	0			1				0	
6.6.1	win	2023-07-07	08:35:24	08:45:02	572649	63287c548c0d66d1e300fd64	4	1	main_z	7	advance_on_keypress_ZEE	154	stimuli_target_trianglerectangles.svg	stimuli_distractor_trianglediamonds.svg	17	yes	57	0	355	0	0			0	0			1				0	
6.6.1	win	2023-07-07	08:35:24	08:45:03	574289	63287c548c0d66d1e300fd64	4	1	main_z	7	main_z	155	stimuli_distractor_diamondtriangles.svg	stimuli_distractor_diamondtriangles.svg	39	no	44	0	643	0	0			0	0			1				0	
6.6.1	win	2023-07-07	08:35:24	08:45:03	574289	63287c548c0d66d1e300fd64	4	1	main_z	7	advance_on_keypress_ZEE	156	stimuli_distractor_diamondtriangles.svg	stimuli_distractor_diamondtriangles.svg	39	no	57	0	351	0	0			0	0			1				0	
6.6.1	win	2023-07-07	08:35:24	08:45:05	575915	63287c548c0d66d1e300fd64	4	1	main_z	7	main_z	157	stimuli_distractor_trianglediamonds.svg	stimuli_distractor_trianglediamonds.svg	33	no	44	0	635	0	0			0	0			1				0	
6.6.1	win	2023-07-07	08:35:24	08:45:05	575915	63287c548c0d66d1e300fd64	4	1	main_z	7	advance_on_keypress_ZEE	158	stimuli_distractor_trianglediamonds.svg	stimuli_distractor_trianglediamonds.svg	33	no	57	0	318	0	0			0	0			1				0	
6.6.1	win	2023-07-07	08:35:24	08:45:07	577490	63287c548c0d66d1e300fd64	4	1	main_z	7	main_z	159	stimuli_target_trianglerectangles.svg	stimuli_distractor_diamondtriangles.svg	21	yes	44	1	611	0	0			0	0			1				0	
6.6.1	win	2023-07-07	08:35:24	08:45:07	577490	63287c548c0d66d1e300fd64	4	1	main_z	7	advance_on_keypress_ZEE	160	stimuli_target_trianglerectangles.svg	stimuli_distractor_diamondtriangles.svg	21	yes	57	0	308	0	0			0	0			1				0	
6.6.1	win	2023-07-07	08:35:24	08:45:35	606337	63287c548c0d66d1e300fd64	4	1	practice_slash	9	practice_slash	1	stimuli_distractor_diamondtriangles.svg	stimuli_target_rectangletriangles.svg	7	yes	53	1	407	0	0			0	0			1				0	
6.6.1	win	2023-07-07	08:35:24	08:45:35	606337	63287c548c0d66d1e300fd64	4	1	practice_slash	9	advance_on_keypress_SLASH	2	stimuli_distractor_diamondtriangles.svg	stimuli_target_rectangletriangles.svg	7	yes	57	0	604	0	0			0	0			1				0	
6.6.1	win	2023-07-07	08:35:24	08:45:38	609115	63287c548c0d66d1e300fd64	4	1	practice_slash	9	practice_slash	3	stimuli_distractor_diamondtriangles.svg	stimuli_target_trianglerectangles.svg	9	yes	53	1	519	0	0			0	0			1				0	
6.6.1	win	2023-07-07	08:35:24	08:45:38	609115	63287c548c0d66d1e300fd64	4	1	practice_slash	9	advance_on_keypress_SLASH	4	stimuli_distractor_diamondtriangles.svg	stimuli_target_trianglerectangles.svg	9	yes	57	0	856	0	0			0	0			1				0	
6.6.1	win	2023-07-07	08:35:24	08:45:41	612263	63287c548c0d66d1e300fd64	4	1	practice_slash	9	practice_slash	5	stimuli_distractor_trianglediamonds.svg	stimuli_distractor_trianglediamonds.svg	15	no	53	0	652	0	0			0	0			1				0	
6.6.1	win	2023-07-07	08:35:24	08:45:41	612263	63287c548c0d66d1e300fd64	4	1	practice_slash	9	advance_on_keypress_SLASH	6	stimuli_distractor_trianglediamonds.svg	stimuli_distractor_trianglediamonds.svg	15	no	57	0	1298	0	0			0	0			1				0	
6.6.1	win	2023-07-07	08:35:24	08:45:45	615904	63287c548c0d66d1e300fd64	4	1	practice_slash	9	practice_slash	7	stimuli_distractor_diamondtriangles.svg	stimuli_target_diamondrectangles.svg	8	yes	53	1	692	0	0			0	0			1				0	
6.6.1	win	2023-07-07	08:35:24	08:45:45	615904	63287c548c0d66d1e300fd64	4	1	practice_slash	9	advance_on_keypress_SLASH	8	stimuli_distractor_diamondtriangles.svg	stimuli_target_diamondrectangles.svg	8	yes	57	0	574	0	0			0	0			1				0	
6.6.1	win	2023-07-07	08:35:24	08:45:48	619153	63287c548c0d66d1e300fd64	4	1	practice_slash	9	practice_slash	9	stimuli_target_diamondsquares.svg	stimuli_distractor_diamondtriangles.svg	3	yes	53	1	1025	0	0			0	0			1				0	
6.6.1	win	2023-07-07	08:35:24	08:45:48	619153	63287c548c0d66d1e300fd64	4	1	practice_slash	9	advance_on_keypress_SLASH	10	stimuli_target_diamondsquares.svg	stimuli_distractor_diamondtriangles.svg	3	yes	57	0	1132	0	0			0	0			1				0	
6.6.1	win	2023-07-07	08:35:24	08:45:52	622549	63287c548c0d66d1e300fd64	4	1	practice_slash	9	practice_slash	11	stimuli_distractor_diamondtriangles.svg	stimuli_distractor_trianglediamonds.svg	14	no	53	0	606	0	0			0	0			1				0	
6.6.1	win	2023-07-07	08:35:24	08:45:52	622549	63287c548c0d66d1e300fd64	4	1	practice_slash	9	advance_on_keypress_SLASH	12	stimuli_distractor_diamondtriangles.svg	stimuli_distractor_trianglediamonds.svg	14	no	57	0	1197	0	0			0	0			1				0	
6.6.1	win	2023-07-07	08:35:24	08:45:55	625988	63287c548c0d66d1e300fd64	4	1	practice_slash	9	practice_slash	13	stimuli_distractor_trianglediamonds.svg	stimuli_target_squarediamonds.svg	11	yes	53	1	594	0	0			0	0			1				0	
6.6.1	win	2023-07-07	08:35:24	08:45:55	625988	63287c548c0d66d1e300fd64	4	1	practice_slash	9	advance_on_keypress_SLASH	14	stimuli_distractor_trianglediamonds.svg	stimuli_target_squarediamonds.svg	11	yes	57	0	717	0	0			0	0			1				0	
6.6.1	win	2023-07-07	08:35:24	08:45:58	629113	63287c548c0d66d1e300fd64	4	1	practice_slash	9	practice_slash	15	stimuli_distractor_trianglediamonds.svg	stimuli_target_diamondrectangles.svg	12	yes	53	1	753	0	0			0	0			1				0	
6.6.1	win	2023-07-07	08:35:24	08:45:58	629113	63287c548c0d66d1e300fd64	4	1	practice_slash	9	advance_on_keypress_SLASH	16	stimuli_distractor_trianglediamonds.svg	stimuli_target_diamondrectangles.svg	12	yes	57	0	632	0	0			0	0			1				0	
6.6.1	win	2023-07-07	08:35:24	08:46:01	632011	63287c548c0d66d1e300fd64	4	1	practice_slash	9	practice_slash	17	stimuli_target_squarediamonds.svg	stimuli_distractor_diamondtriangles.svg	2	yes	53	1	618	0	0			0	0			1				0	
6.6.1	win	2023-07-07	08:35:24	08:46:01	632011	63287c548c0d66d1e300fd64	4	1	practice_slash	9	advance_on_keypress_SLASH	18	stimuli_target_squarediamonds.svg	stimuli_distractor_diamondtriangles.svg	2	yes	57	0	471	0	0			0	0			1				0	
6.6.1	win	2023-07-07	08:35:24	08:46:04	634884	63287c548c0d66d1e300fd64	4	1	practice_slash	9	practice_slash	19	stimuli_distractor_trianglediamonds.svg	stimuli_distractor_diamondtriangles.svg	16	no	53	0	759	0	0			0	0			1				0	
6.6.1	win	2023-07-07	08:35:24	08:46:04	634884	63287c548c0d66d1e300fd64	4	1	practice_slash	9	advance_on_keypress_SLASH	20	stimuli_distractor_trianglediamonds.svg	stimuli_distractor_diamondtriangles.svg	16	no	57	0	941	0	0			0	0			1				0	
6.6.1	win	2023-07-07	08:35:24	08:46:07	638267	63287c548c0d66d1e300fd64	4	1	practice_slash	9	practice_slash	21	stimuli_target_squarediamonds.svg	stimuli_distractor_trianglediamonds.svg	5	yes	53	1	809	0	0			0	0			1				0	
6.6.1	win	2023-07-07	08:35:24	08:46:07	638267	63287c548c0d66d1e300fd64	4	1	practice_slash	9	advance_on_keypress_SLASH	22	stimuli_target_squarediamonds.svg	stimuli_distractor_trianglediamonds.svg	5	yes	57	0	728	0	0			0	0			1				0	
6.6.1	win	2023-07-07	08:35:24	08:46:12	642448	63287c548c0d66d1e300fd64	4	1	practice_slash	9	practice_slash	23	stimuli_distractor_trianglediamonds.svg	stimuli_target_rectanglediamonds.svg	10	yes	53	1	1807	0	0			0	0			1				0	
6.6.1	win	2023-07-07	08:35:24	08:46:12	642448	63287c548c0d66d1e300fd64	4	1	practice_slash	9	advance_on_keypress_SLASH	24	stimuli_distractor_trianglediamonds.svg	stimuli_target_rectanglediamonds.svg	10	yes	57	0	570	0	0			0	0			1				0	
6.6.1	win	2023-07-07	08:35:24	08:46:16	646657	63287c548c0d66d1e300fd64	4	1	practice_slash	9	practice_slash	25	stimuli_target_rectanglediamonds.svg	stimuli_distractor_diamondtriangles.svg	1	yes	0	0	2000	0	0			0	0			1				0	
6.6.1	win	2023-07-07	08:35:24	08:46:16	646657	63287c548c0d66d1e300fd64	4	1	practice_slash	9	advance_on_keypress_SLASH	26	stimuli_target_rectanglediamonds.svg	stimuli_distractor_diamondtriangles.svg	1	yes	57	0	1496	0	0			0	0			1				0	
6.6.1	win	2023-07-07	08:35:24	08:46:19	650367	63287c548c0d66d1e300fd64	4	1	practice_slash	9	practice_slash	27	stimuli_target_rectanglediamonds.svg	stimuli_distractor_trianglediamonds.svg	4	yes	53	1	561	0	0			0	0			1				0	
6.6.1	win	2023-07-07	08:35:24	08:46:19	650367	63287c548c0d66d1e300fd64	4	1	practice_slash	9	advance_on_keypress_SLASH	28	stimuli_target_rectanglediamonds.svg	stimuli_distractor_trianglediamonds.svg	4	yes	57	0	604	0	0			0	0			1				0	
6.6.1	win	2023-07-07	08:35:24	08:46:22	653252	63287c548c0d66d1e300fd64	4	1	practice_slash	9	practice_slash	29	stimuli_distractor_diamondtriangles.svg	stimuli_distractor_diamondtriangles.svg	13	no	53	0	628	0	0			0	0			1				0	
6.6.1	win	2023-07-07	08:35:24	08:46:22	653252	63287c548c0d66d1e300fd64	4	1	practice_slash	9	advance_on_keypress_SLASH	30	stimuli_distractor_diamondtriangles.svg	stimuli_distractor_diamondtriangles.svg	13	no	57	0	813	0	0			0	0			1				0	
6.6.1	win	2023-07-07	08:35:24	08:46:27	657663	63287c548c0d66d1e300fd64	4	1	practice_slash	9	practice_slash	31	stimuli_target_diamondsquares.svg	stimuli_distractor_trianglediamonds.svg	6	yes	53	1	1941	0	0			0	0			1				0	
6.6.1	win	2023-07-07	08:35:24	08:46:27	657663	63287c548c0d66d1e300fd64	4	1	practice_slash	9	advance_on_keypress_SLASH	32	stimuli_target_diamondsquares.svg	stimuli_distractor_trianglediamonds.svg	6	yes	57	0	601	0	0			0	0			1				0	
6.6.1	win	2023-07-07	08:35:24	08:46:35	666325	63287c548c0d66d1e300fd64	4	1	main_slash	11	main_slash	1	stimuli_target_diamondrectangles.svg	stimuli_distractor_diamondtriangles.svg	23	yes	53	1	590	0	0			0	0			1				0	
6.6.1	win	2023-07-07	08:35:24	08:46:35	666325	63287c548c0d66d1e300fd64	4	1	main_slash	11	advance_on_keypress_SLASH	2	stimuli_target_diamondrectangles.svg	stimuli_distractor_diamondtriangles.svg	23	yes	57	0	836	0	0			0	0			1				0	
6.6.1	win	2023-07-07	08:35:24	08:46:39	669802	63287c548c0d66d1e300fd64	4	1	main_slash	11	main_slash	3	stimuli_distractor_diamondtriangles.svg	stimuli_target_trianglerectangles.svg	29	yes	0	0	2000	0	0			0	0			1				0	
6.6.1	win	2023-07-07	08:35:24	08:46:39	669802	63287c548c0d66d1e300fd64	4	1	main_slash	11	advance_on_keypress_SLASH	4	stimuli_distractor_diamondtriangles.svg	stimuli_target_trianglerectangles.svg	29	yes	57	0	740	0	0			0	0			1				0	
6.6.1	win	2023-07-07	08:35:24	08:46:42	673185	63287c548c0d66d1e300fd64	4	1	main_slash	11	main_slash	5	stimuli_distractor_diamondtriangles.svg	stimuli_target_rectangletriangles.svg	13	yes	0	0	2000	0	0			0	0			1				0	
6.6.1	win	2023-07-07	08:35:24	08:46:42	673185	63287c548c0d66d1e300fd64	4	1	main_slash	11	advance_on_keypress_SLASH	6	stimuli_distractor_diamondtriangles.svg	stimuli_target_rectangletriangles.svg	13	yes	57	0	461	0	0			0	0			1				0	
6.6.1	win	2023-07-07	08:35:24	08:46:45	676093	63287c548c0d66d1e300fd64	4	1	main_slash	11	main_slash	7	stimuli_distractor_trianglediamonds.svg	stimuli_distractor_diamondtriangles.svg	35	no	53	0	1810	0	0			0	0			1				0	
6.6.1	win	2023-07-07	08:35:24	08:46:45	676093	63287c548c0d66d1e300fd64	4	1	main_slash	11	advance_on_keypress_SLASH	8	stimuli_distractor_trianglediamonds.svg	stimuli_distractor_diamondtriangles.svg	35	no	57	0	741	0	0			0	0			1				0	
6.6.1	win	2023-07-07	08:35:24	08:46:49	679467	63287c548c0d66d1e300fd64	4	1	main_slash	11	main_slash	9	stimuli_target_rectangletriangles.svg	stimuli_distractor_diamondtriangles.svg	5	yes	0	0	2000	0	0			0	0			1				0	
6.6.1	win	2023-07-07	08:35:24	08:46:49	679467	63287c548c0d66d1e300fd64	4	1	main_slash	11	advance_on_keypress_SLASH	10	stimuli_target_rectangletriangles.svg	stimuli_distractor_diamondtriangles.svg	5	yes	57	0	771	0	0			0	0			1				0	
6.6.1	win	2023-07-07	08:35:24	08:46:51	681527	63287c548c0d66d1e300fd64	4	1	main_slash	11	main_slash	11	stimuli_distractor_trianglediamonds.svg	stimuli_target_trianglesquares.svg	26	yes	53	1	643	0	0			0	0			1				0	
6.6.1	win	2023-07-07	08:35:24	08:46:51	681527	63287c548c0d66d1e300fd64	4	1	main_slash	11	advance_on_keypress_SLASH	12	stimuli_distractor_trianglediamonds.svg	stimuli_target_trianglesquares.svg	26	yes	57	0	658	0	0			0	0			1				0	
6.6.1	win	2023-07-07	08:35:24	08:46:53	683586	63287c548c0d66d1e300fd64	4	1	main_slash	11	main_slash	13	stimuli_target_rectangletriangles.svg	stimuli_distractor_trianglediamonds.svg	1	yes	53	1	769	0	0			0	0			1				0	
6.6.1	win	2023-07-07	08:35:24	08:46:53	683586	63287c548c0d66d1e300fd64	4	1	main_slash	11	advance_on_keypress_SLASH	14	stimuli_target_rectangletriangles.svg	stimuli_distractor_trianglediamonds.svg	1	yes	57	0	679	0	0			0	0			1				0	
6.6.1	win	2023-07-07	08:35:24	08:46:55	685570	63287c548c0d66d1e300fd64	4	1	main_slash	11	main_slash	15	stimuli_distractor_diamondtriangles.svg	stimuli_target_diamondrectangles.svg	31	yes	53	1	654	0	0			0	0			1				0	
6.6.1	win	2023-07-07	08:35:24	08:46:55	685570	63287c548c0d66d1e300fd64	4	1	main_slash	11	advance_on_keypress_SLASH	16	stimuli_distractor_diamondtriangles.svg	stimuli_target_diamondrectangles.svg	31	yes	57	0	355	0	0			0	0			1				0	
6.6.1	win	2023-07-07	08:35:24	08:46:58	688566	63287c548c0d66d1e300fd64	4	1	main_slash	11	main_slash	17	stimuli_target_squaretriangles.svg	stimuli_distractor_trianglediamonds.svg	3	yes	0	0	2000	0	0			0	0			1				0	
6.6.1	win	2023-07-07	08:35:24	08:46:58	688566	63287c548c0d66d1e300fd64	4	1	main_slash	11	advance_on_keypress_SLASH	18	stimuli_target_squaretriangles.svg	stimuli_distractor_trianglediamonds.svg	3	yes	57	0	563	0	0			0	0			1				0	
6.6.1	win	2023-07-07	08:35:24	08:46:59	690279	63287c548c0d66d1e300fd64	4	1	main_slash	11	main_slash	19	stimuli_distractor_trianglediamonds.svg	stimuli_target_diamondsquares.svg	28	yes	53	1	497	0	0			0	0			1				0	
6.6.1	win	2023-07-07	08:35:24	08:46:59	690279	63287c548c0d66d1e300fd64	4	1	main_slash	11	advance_on_keypress_SLASH	20	stimuli_distractor_trianglediamonds.svg	stimuli_target_diamondsquares.svg	28	yes	57	0	651	0	0			0	0			1				0	
6.6.1	win	2023-07-07	08:35:24	08:47:03	693553	63287c548c0d66d1e300fd64	4	1	main_slash	11	main_slash	21	stimuli_distractor_trianglediamonds.svg	stimuli_target_rectanglediamonds.svg	10	yes	53	1	1971	0	0			0	0			1				0	
6.6.1	win	2023-07-07	08:35:24	08:47:03	693553	63287c548c0d66d1e300fd64	4	1	main_slash	11	advance_on_keypress_SLASH	22	stimuli_distractor_trianglediamonds.svg	stimuli_target_rectanglediamonds.svg	10	yes	57	0	432	0	0			0	0			1				0	
6.6.1	win	2023-07-07	08:35:24	08:47:04	695193	63287c548c0d66d1e300fd64	4	1	main_slash	11	main_slash	23	stimuli_distractor_trianglediamonds.svg	stimuli_target_squaretriangles.svg	11	yes	53	1	561	0	0			0	0			1				0	
6.6.1	win	2023-07-07	08:35:24	08:47:04	695193	63287c548c0d66d1e300fd64	4	1	main_slash	11	advance_on_keypress_SLASH	24	stimuli_distractor_trianglediamonds.svg	stimuli_target_squaretriangles.svg	11	yes	57	0	423	0	0			0	0			1				0	
6.6.1	win	2023-07-07	08:35:24	08:47:06	696755	63287c548c0d66d1e300fd64	4	1	main_slash	11	main_slash	25	stimuli_distractor_diamondtriangles.svg	stimuli_distractor_diamondtriangles.svg	39	no	53	0	490	0	0			0	0			1				0	
6.6.1	win	2023-07-07	08:35:24	08:47:06	696755	63287c548c0d66d1e300fd64	4	1	main_slash	11	advance_on_keypress_SLASH	26	stimuli_distractor_diamondtriangles.svg	stimuli_distractor_diamondtriangles.svg	39	no	57	0	401	0	0			0	0			1				0	
6.6.1	win	2023-07-07	08:35:24	08:47:07	698242	63287c548c0d66d1e300fd64	4	1	main_slash	11	main_slash	27	stimuli_distractor_trianglediamonds.svg	stimuli_target_trianglerectangles.svg	25	yes	53	1	444	0	0			0	0			1				0	
6.6.1	win	2023-07-07	08:35:24	08:47:07	698242	63287c548c0d66d1e300fd64	4	1	main_slash	11	advance_on_keypress_SLASH	28	stimuli_distractor_trianglediamonds.svg	stimuli_target_trianglerectangles.svg	25	yes	57	0	424	0	0			0	0			1				0	
6.6.1	win	2023-07-07	08:35:24	08:47:09	699866	63287c548c0d66d1e300fd64	4	1	main_slash	11	main_slash	29	stimuli_distractor_diamondtriangles.svg	stimuli_target_squaretriangles.svg	15	yes	53	1	568	0	0			0	0			1				0	
6.6.1	win	2023-07-07	08:35:24	08:47:09	699866	63287c548c0d66d1e300fd64	4	1	main_slash	11	advance_on_keypress_SLASH	30	stimuli_distractor_diamondtriangles.svg	stimuli_target_squaretriangles.svg	15	yes	57	0	396	0	0			0	0			1				0	
6.6.1	win	2023-07-07	08:35:24	08:47:11	701429	63287c548c0d66d1e300fd64	4	1	main_slash	11	main_slash	31	stimuli_distractor_trianglediamonds.svg	stimuli_target_diamondrectangles.svg	27	yes	53	1	513	0	0			0	0			1				0	
6.6.1	win	2023-07-07	08:35:24	08:47:11	701429	63287c548c0d66d1e300fd64	4	1	main_slash	11	advance_on_keypress_SLASH	32	stimuli_distractor_trianglediamonds.svg	stimuli_target_diamondrectangles.svg	27	yes	57	0	446	0	0			0	0			1				0	
6.6.1	win	2023-07-07	08:35:24	08:47:12	703330	63287c548c0d66d1e300fd64	4	1	main_slash	11	main_slash	33	stimuli_target_diamondsquares.svg	stimuli_distractor_diamondtriangles.svg	24	yes	53	1	799	0	0			0	0			1				0	
6.6.1	win	2023-07-07	08:35:24	08:47:12	703330	63287c548c0d66d1e300fd64	4	1	main_slash	11	advance_on_keypress_SLASH	34	stimuli_target_diamondsquares.svg	stimuli_distractor_diamondtriangles.svg	24	yes	57	0	378	0	0			0	0			1				0	
6.6.1	win	2023-07-07	08:35:24	08:47:14	704797	63287c548c0d66d1e300fd64	4	1	main_slash	11	main_slash	35	stimuli_distractor_trianglediamonds.svg	stimuli_target_rectangletriangles.svg	9	yes	53	1	450	0	0			0	0			1				0	
6.6.1	win	2023-07-07	08:35:24	08:47:14	704797	63287c548c0d66d1e300fd64	4	1	main_slash	11	advance_on_keypress_SLASH	36	stimuli_distractor_trianglediamonds.svg	stimuli_target_rectangletriangles.svg	9	yes	57	0	431	0	0			0	0			1				0	
6.6.1	win	2023-07-07	08:35:24	08:47:16	706540	63287c548c0d66d1e300fd64	4	1	main_slash	11	main_slash	37	stimuli_distractor_diamondtriangles.svg	stimuli_target_diamondsquares.svg	32	yes	53	1	660	0	0			0	0			1				0	
6.6.1	win	2023-07-07	08:35:24	08:47:16	706540	63287c548c0d66d1e300fd64	4	1	main_slash	11	advance_on_keypress_SLASH	38	stimuli_distractor_diamondtriangles.svg	stimuli_target_diamondsquares.svg	32	yes	57	0	317	0	0			0	0			1				0	
6.6.1	win	2023-07-07	08:35:24	08:47:17	708158	63287c548c0d66d1e300fd64	4	1	main_slash	11	main_slash	39	stimuli_target_squarediamonds.svg	stimuli_distractor_diamondtriangles.svg	8	yes	53	1	662	0	0			0	0			1				0	
6.6.1	win	2023-07-07	08:35:24	08:47:17	708158	63287c548c0d66d1e300fd64	4	1	main_slash	11	advance_on_keypress_SLASH	40	stimuli_target_squarediamonds.svg	stimuli_distractor_diamondtriangles.svg	8	yes	57	0	1249	0	0			0	0			1				0	
6.6.1	win	2023-07-07	08:35:24	08:47:20	710733	63287c548c0d66d1e300fd64	4	1	main_slash	11	main_slash	41	stimuli_distractor_trianglediamonds.svg	stimuli_distractor_trianglediamonds.svg	33	no	53	0	670	0	0			0	0			1				0	
6.6.1	win	2023-07-07	08:35:24	08:47:20	710733	63287c548c0d66d1e300fd64	4	1	main_slash	11	advance_on_keypress_SLASH	42	stimuli_distractor_trianglediamonds.svg	stimuli_distractor_trianglediamonds.svg	33	no	57	0	328	0	0			0	0			1				0	
6.6.1	win	2023-07-07	08:35:24	08:47:21	712223	63287c548c0d66d1e300fd64	4	1	main_slash	11	main_slash	43	stimuli_distractor_diamondtriangles.svg	stimuli_target_rectanglediamonds.svg	14	yes	53	1	527	0	0			0	0			1				0	
6.6.1	win	2023-07-07	08:35:24	08:47:21	712223	63287c548c0d66d1e300fd64	4	1	main_slash	11	advance_on_keypress_SLASH	44	stimuli_distractor_diamondtriangles.svg	stimuli_target_rectanglediamonds.svg	14	yes	57	0	411	0	0			0	0			1				0	
6.6.1	win	2023-07-07	08:35:24	08:47:23	713950	63287c548c0d66d1e300fd64	4	1	main_slash	11	main_slash	45	stimuli_target_diamondsquares.svg	stimuli_distractor_trianglediamonds.svg	20	yes	53	1	687	0	0			0	0			1				0	
6.6.1	win	2023-07-07	08:35:24	08:47:23	713950	63287c548c0d66d1e300fd64	4	1	main_slash	11	advance_on_keypress_SLASH	46	stimuli_target_diamondsquares.svg	stimuli_distractor_trianglediamonds.svg	20	yes	57	0	365	0	0			0	0			1				0	
6.6.1	win	2023-07-07	08:35:24	08:47:25	715498	63287c548c0d66d1e300fd64	4	1	main_slash	11	main_slash	47	stimuli_target_rectanglediamonds.svg	stimuli_distractor_diamondtriangles.svg	6	yes	53	1	536	0	0			0	0			1				0	
6.6.1	win	2023-07-07	08:35:24	08:47:25	715498	63287c548c0d66d1e300fd64	4	1	main_slash	11	advance_on_keypress_SLASH	48	stimuli_target_rectanglediamonds.svg	stimuli_distractor_diamondtriangles.svg	6	yes	57	0	359	0	0			0	0			1				0	
6.6.1	win	2023-07-07	08:35:24	08:47:28	718496	63287c548c0d66d1e300fd64	4	1	main_slash	11	main_slash	49	stimuli_target_trianglerectangles.svg	stimuli_distractor_trianglediamonds.svg	17	yes	0	0	2000	0	0			0	0			1				0	
6.6.1	win	2023-07-07	08:35:24	08:47:28	718496	63287c548c0d66d1e300fd64	4	1	main_slash	11	advance_on_keypress_SLASH	50	stimuli_target_trianglerectangles.svg	stimuli_distractor_trianglediamonds.svg	17	yes	57	0	540	0	0			0	0			1				0	
6.6.1	win	2023-07-07	08:35:24	08:47:29	720361	63287c548c0d66d1e300fd64	4	1	main_slash	11	main_slash	51	stimuli_distractor_trianglediamonds.svg	stimuli_distractor_diamondtriangles.svg	36	no	53	0	682	0	0			0	0			1				0	
6.6.1	win	2023-07-07	08:35:24	08:47:29	720361	63287c548c0d66d1e300fd64	4	1	main_slash	11	advance_on_keypress_SLASH	52	stimuli_distractor_trianglediamonds.svg	stimuli_distractor_diamondtriangles.svg	36	no	57	0	404	0	0			0	0			1				0	
6.6.1	win	2023-07-07	08:35:24	08:47:32	723412	63287c548c0d66d1e300fd64	4	1	main_slash	11	main_slash	53	stimuli_target_trianglerectangles.svg	stimuli_distractor_diamondtriangles.svg	21	yes	0	0	2000	0	0			0	0			1				0	
6.6.1	win	2023-07-07	08:35:24	08:47:32	723412	63287c548c0d66d1e300fd64	4	1	main_slash	11	advance_on_keypress_SLASH	54	stimuli_target_trianglerectangles.svg	stimuli_distractor_diamondtriangles.svg	21	yes	57	0	356	0	0			0	0			1				0	
6.6.1	win	2023-07-07	08:35:24	08:47:34	725259	63287c548c0d66d1e300fd64	4	1	main_slash	11	main_slash	55	stimuli_target_trianglesquares.svg	stimuli_distractor_trianglediamonds.svg	18	yes	53	1	848	0	0			0	0			1				0	
6.6.1	win	2023-07-07	08:35:24	08:47:34	725259	63287c548c0d66d1e300fd64	4	1	main_slash	11	advance_on_keypress_SLASH	56	stimuli_target_trianglesquares.svg	stimuli_distractor_trianglediamonds.svg	18	yes	57	0	782	0	0			0	0			1				0	
6.6.1	win	2023-07-07	08:35:24	08:47:37	727732	63287c548c0d66d1e300fd64	4	1	main_slash	11	main_slash	57	stimuli_target_squarediamonds.svg	stimuli_distractor_trianglediamonds.svg	4	yes	53	1	1038	0	0			0	0			1				0	
6.6.1	win	2023-07-07	08:35:24	08:47:37	727732	63287c548c0d66d1e300fd64	4	1	main_slash	11	advance_on_keypress_SLASH	58	stimuli_target_squarediamonds.svg	stimuli_distractor_trianglediamonds.svg	4	yes	57	0	420	0	0			0	0			1				0	
6.6.1	win	2023-07-07	08:35:24	08:47:38	729338	63287c548c0d66d1e300fd64	4	1	main_slash	11	main_slash	59	stimuli_target_trianglesquares.svg	stimuli_distractor_diamondtriangles.svg	22	yes	53	1	544	0	0			0	0			1				0	
6.6.1	win	2023-07-07	08:35:24	08:47:38	729338	63287c548c0d66d1e300fd64	4	1	main_slash	11	advance_on_keypress_SLASH	60	stimuli_target_trianglesquares.svg	stimuli_distractor_diamondtriangles.svg	22	yes	57	0	425	0	0			0	0			1				0	
6.6.1	win	2023-07-07	08:35:24	08:47:40	730780	63287c548c0d66d1e300fd64	4	1	main_slash	11	main_slash	61	stimuli_target_rectanglediamonds.svg	stimuli_distractor_trianglediamonds.svg	2	yes	53	1	386	0	0			0	0			1				0	
6.6.1	win	2023-07-07	08:35:24	08:47:40	730780	63287c548c0d66d1e300fd64	4	1	main_slash	11	advance_on_keypress_SLASH	62	stimuli_target_rectanglediamonds.svg	stimuli_distractor_trianglediamonds.svg	2	yes	57	0	500	0	0			0	0			1				0	
6.6.1	win	2023-07-07	08:35:24	08:47:43	733927	63287c548c0d66d1e300fd64	4	1	main_slash	11	main_slash	63	stimuli_distractor_diamondtriangles.svg	stimuli_distractor_diamondtriangles.svg	40	no	0	1	2000	0	0			0	0			1				0	
6.6.1	win	2023-07-07	08:35:24	08:47:43	733927	63287c548c0d66d1e300fd64	4	1	main_slash	11	advance_on_keypress_SLASH	64	stimuli_distractor_diamondtriangles.svg	stimuli_distractor_diamondtriangles.svg	40	no	57	0	662	0	0			0	0			1				0	
6.6.1	win	2023-07-07	08:35:24	08:47:46	737227	63287c548c0d66d1e300fd64	4	1	main_slash	11	main_slash	65	stimuli_distractor_diamondtriangles.svg	stimuli_distractor_trianglediamonds.svg	37	no	0	1	2000	0	0			0	0			1				0	
6.6.1	win	2023-07-07	08:35:24	08:47:46	737227	63287c548c0d66d1e300fd64	4	1	main_slash	11	advance_on_keypress_SLASH	66	stimuli_distractor_diamondtriangles.svg	stimuli_distractor_trianglediamonds.svg	37	no	57	0	547	0	0			0	0			1				0	
6.6.1	win	2023-07-07	08:35:24	08:47:48	739043	63287c548c0d66d1e300fd64	4	1	main_slash	11	main_slash	67	stimuli_distractor_diamondtriangles.svg	stimuli_target_squarediamonds.svg	16	yes	53	1	617	0	0			0	0			1				0	
6.6.1	win	2023-07-07	08:35:24	08:47:48	739043	63287c548c0d66d1e300fd64	4	1	main_slash	11	advance_on_keypress_SLASH	68	stimuli_distractor_diamondtriangles.svg	stimuli_target_squarediamonds.svg	16	yes	57	0	573	0	0			0	0			1				0	
6.6.1	win	2023-07-07	08:35:24	08:47:50	740666	63287c548c0d66d1e300fd64	4	1	main_slash	11	main_slash	69	stimuli_distractor_trianglediamonds.svg	stimuli_target_squarediamonds.svg	12	yes	53	1	407	0	0			0	0			1				0	
6.6.1	win	2023-07-07	08:35:24	08:47:50	740666	63287c548c0d66d1e300fd64	4	1	main_slash	11	advance_on_keypress_SLASH	70	stimuli_distractor_trianglediamonds.svg	stimuli_target_squarediamonds.svg	12	yes	57	0	961	0	0			0	0			1				0	
6.6.1	win	2023-07-07	08:35:24	08:47:52	742682	63287c548c0d66d1e300fd64	4	1	main_slash	11	main_slash	71	stimuli_target_diamondrectangles.svg	stimuli_distractor_trianglediamonds.svg	19	yes	53	1	423	0	0			0	0			1				0	
6.6.1	win	2023-07-07	08:35:24	08:47:52	742682	63287c548c0d66d1e300fd64	4	1	main_slash	11	advance_on_keypress_SLASH	72	stimuli_target_diamondrectangles.svg	stimuli_distractor_trianglediamonds.svg	19	yes	57	0	464	0	0			0	0			1				0	
6.6.1	win	2023-07-07	08:35:24	08:47:53	744289	63287c548c0d66d1e300fd64	4	1	main_slash	11	main_slash	73	stimuli_distractor_diamondtriangles.svg	stimuli_target_trianglesquares.svg	30	yes	53	1	497	0	0			0	0			1				0	
6.6.1	win	2023-07-07	08:35:24	08:47:53	744289	63287c548c0d66d1e300fd64	4	1	main_slash	11	advance_on_keypress_SLASH	74	stimuli_distractor_diamondtriangles.svg	stimuli_target_trianglesquares.svg	30	yes	57	0	512	0	0			0	0			1				0	
6.6.1	win	2023-07-07	08:35:24	08:47:55	746110	63287c548c0d66d1e300fd64	4	1	main_slash	11	main_slash	75	stimuli_distractor_diamondtriangles.svg	stimuli_distractor_trianglediamonds.svg	38	no	53	0	651	0	0			0	0			1				0	
6.6.1	win	2023-07-07	08:35:24	08:47:55	746110	63287c548c0d66d1e300fd64	4	1	main_slash	11	advance_on_keypress_SLASH	76	stimuli_distractor_diamondtriangles.svg	stimuli_distractor_trianglediamonds.svg	38	no	57	0	485	0	0			0	0			1				0	
6.6.1	win	2023-07-07	08:35:24	08:47:57	747647	63287c548c0d66d1e300fd64	4	1	main_slash	11	main_slash	77	stimuli_distractor_trianglediamonds.svg	stimuli_distractor_trianglediamonds.svg	34	no	53	0	405	0	0			0	0			1				0	
6.6.1	win	2023-07-07	08:35:24	08:47:57	747647	63287c548c0d66d1e300fd64	4	1	main_slash	11	advance_on_keypress_SLASH	78	stimuli_distractor_trianglediamonds.svg	stimuli_distractor_trianglediamonds.svg	34	no	57	0	788	0	0			0	0			1				0	
6.6.1	win	2023-07-07	08:35:24	08:47:59	749708	63287c548c0d66d1e300fd64	4	1	main_slash	11	main_slash	79	stimuli_target_squaretriangles.svg	stimuli_distractor_diamondtriangles.svg	7	yes	53	1	633	0	0			0	0			1				0	
6.6.1	win	2023-07-07	08:35:24	08:47:59	749708	63287c548c0d66d1e300fd64	4	1	main_slash	11	advance_on_keypress_SLASH	80	stimuli_target_squaretriangles.svg	stimuli_distractor_diamondtriangles.svg	7	yes	57	0	408	0	0			0	0			1				0	
6.6.1	win	2023-07-07	08:35:24	08:48:02	752758	63287c548c0d66d1e300fd64	4	1	main_slash	11	main_slash	81	stimuli_distractor_diamondtriangles.svg	stimuli_distractor_diamondtriangles.svg	39	no	0	1	2000	0	0			0	0			1				0	
6.6.1	win	2023-07-07	08:35:24	08:48:02	752758	63287c548c0d66d1e300fd64	4	1	main_slash	11	advance_on_keypress_SLASH	82	stimuli_distractor_diamondtriangles.svg	stimuli_distractor_diamondtriangles.svg	39	no	57	0	387	0	0			0	0			1				0	
6.6.1	win	2023-07-07	08:35:24	08:48:03	754404	63287c548c0d66d1e300fd64	4	1	main_slash	11	main_slash	83	stimuli_target_trianglesquares.svg	stimuli_distractor_diamondtriangles.svg	22	yes	53	1	613	0	0			0	0			1				0	
6.6.1	win	2023-07-07	08:35:24	08:48:03	754404	63287c548c0d66d1e300fd64	4	1	main_slash	11	advance_on_keypress_SLASH	84	stimuli_target_trianglesquares.svg	stimuli_distractor_diamondtriangles.svg	22	yes	57	0	602	0	0			0	0			1				0	
6.6.1	win	2023-07-07	08:35:24	08:48:05	756295	63287c548c0d66d1e300fd64	4	1	main_slash	11	main_slash	85	stimuli_distractor_trianglediamonds.svg	stimuli_distractor_trianglediamonds.svg	34	no	53	0	638	0	0			0	0			1				0	
6.6.1	win	2023-07-07	08:35:24	08:48:05	756295	63287c548c0d66d1e300fd64	4	1	main_slash	11	advance_on_keypress_SLASH	86	stimuli_distractor_trianglediamonds.svg	stimuli_distractor_trianglediamonds.svg	34	no	57	0	419	0	0			0	0			1				0	
6.6.1	win	2023-07-07	08:35:24	08:48:08	759357	63287c548c0d66d1e300fd64	4	1	main_slash	11	main_slash	87	stimuli_distractor_diamondtriangles.svg	stimuli_distractor_diamondtriangles.svg	40	no	0	1	2000	0	0			0	0			1				0	
6.6.1	win	2023-07-07	08:35:24	08:48:08	759357	63287c548c0d66d1e300fd64	4	1	main_slash	11	advance_on_keypress_SLASH	88	stimuli_distractor_diamondtriangles.svg	stimuli_distractor_diamondtriangles.svg	40	no	57	0	475	0	0			0	0			1				0	
6.6.1	win	2023-07-07	08:35:24	08:48:12	762474	63287c548c0d66d1e300fd64	4	1	main_slash	11	main_slash	89	stimuli_target_diamondrectangles.svg	stimuli_distractor_diamondtriangles.svg	23	yes	0	0	2000	0	0			0	0			1				0	
6.6.1	win	2023-07-07	08:35:24	08:48:12	762474	63287c548c0d66d1e300fd64	4	1	main_slash	11	advance_on_keypress_SLASH	90	stimuli_target_diamondrectangles.svg	stimuli_distractor_diamondtriangles.svg	23	yes	57	0	550	0	0			0	0			1				0	
6.6.1	win	2023-07-07	08:35:24	08:48:13	764400	63287c548c0d66d1e300fd64	4	1	main_slash	11	main_slash	91	stimuli_distractor_diamondtriangles.svg	stimuli_target_squarediamonds.svg	16	yes	53	1	727	0	0			0	0			1				0	
6.6.1	win	2023-07-07	08:35:24	08:48:13	764400	63287c548c0d66d1e300fd64	4	1	main_slash	11	advance_on_keypress_SLASH	92	stimuli_distractor_diamondtriangles.svg	stimuli_target_squarediamonds.svg	16	yes	57	0	585	0	0			0	0			1				0	
6.6.1	win	2023-07-07	08:35:24	08:48:15	766106	63287c548c0d66d1e300fd64	4	1	main_slash	11	main_slash	93	stimuli_target_rectanglediamonds.svg	stimuli_distractor_diamondtriangles.svg	6	yes	53	1	483	0	0			0	0			1				0	
6.6.1	win	2023-07-07	08:35:24	08:48:15	766106	63287c548c0d66d1e300fd64	4	1	main_slash	11	advance_on_keypress_SLASH	94	stimuli_target_rectanglediamonds.svg	stimuli_distractor_diamondtriangles.svg	6	yes	57	0	1031	0	0			0	0			1				0	
6.6.1	win	2023-07-07	08:35:24	08:48:19	769789	63287c548c0d66d1e300fd64	4	1	main_slash	11	main_slash	95	stimuli_distractor_trianglediamonds.svg	stimuli_distractor_trianglediamonds.svg	33	no	0	1	2000	0	0			0	0			1				0	
6.6.1	win	2023-07-07	08:35:24	08:48:19	769789	63287c548c0d66d1e300fd64	4	1	main_slash	11	advance_on_keypress_SLASH	96	stimuli_distractor_trianglediamonds.svg	stimuli_distractor_trianglediamonds.svg	33	no	57	0	957	0	0			0	0			1				0	
6.6.1	win	2023-07-07	08:35:24	08:48:21	771918	63287c548c0d66d1e300fd64	4	1	main_slash	11	main_slash	97	stimuli_target_rectangletriangles.svg	stimuli_distractor_trianglediamonds.svg	1	yes	53	1	529	0	0			0	0			1				0	
6.6.1	win	2023-07-07	08:35:24	08:48:21	771918	63287c548c0d66d1e300fd64	4	1	main_slash	11	advance_on_keypress_SLASH	98	stimuli_target_rectangletriangles.svg	stimuli_distractor_trianglediamonds.svg	1	yes	57	0	694	0	0			0	0			1				0	
6.6.1	win	2023-07-07	08:35:24	08:48:23	773859	63287c548c0d66d1e300fd64	4	1	main_slash	11	main_slash	99	stimuli_distractor_diamondtriangles.svg	stimuli_target_trianglesquares.svg	30	yes	53	1	587	0	0			0	0			1				0	
6.6.1	win	2023-07-07	08:35:24	08:48:23	773859	63287c548c0d66d1e300fd64	4	1	main_slash	11	advance_on_keypress_SLASH	100	stimuli_distractor_diamondtriangles.svg	stimuli_target_trianglesquares.svg	30	yes	57	0	1231	0	0			0	0			1				0	
6.6.1	win	2023-07-07	08:35:24	08:48:25	776258	63287c548c0d66d1e300fd64	4	1	main_slash	11	main_slash	101	stimuli_distractor_diamondtriangles.svg	stimuli_target_diamondrectangles.svg	31	yes	53	1	520	0	0			0	0			1				0	
6.6.1	win	2023-07-07	08:35:24	08:48:25	776258	63287c548c0d66d1e300fd64	4	1	main_slash	11	advance_on_keypress_SLASH	102	stimuli_distractor_diamondtriangles.svg	stimuli_target_diamondrectangles.svg	31	yes	57	0	788	0	0			0	0			1				0	
6.6.1	win	2023-07-07	08:35:24	08:48:29	779688	63287c548c0d66d1e300fd64	4	1	main_slash	11	main_slash	103	stimuli_distractor_diamondtriangles.svg	stimuli_distractor_trianglediamonds.svg	37	no	0	1	2000	0	0			0	0			1				0	
6.6.1	win	2023-07-07	08:35:24	08:48:29	779688	63287c548c0d66d1e300fd64	4	1	main_slash	11	advance_on_keypress_SLASH	104	stimuli_distractor_diamondtriangles.svg	stimuli_distractor_trianglediamonds.svg	37	no	57	0	491	0	0			0	0			1				0	
6.6.1	win	2023-07-07	08:35:24	08:48:30	781400	63287c548c0d66d1e300fd64	4	1	main_slash	11	main_slash	105	stimuli_target_diamondsquares.svg	stimuli_distractor_trianglediamonds.svg	20	yes	53	1	579	0	0			0	0			1				0	
6.6.1	win	2023-07-07	08:35:24	08:48:30	781400	63287c548c0d66d1e300fd64	4	1	main_slash	11	advance_on_keypress_SLASH	106	stimuli_target_diamondsquares.svg	stimuli_distractor_trianglediamonds.svg	20	yes	57	0	434	0	0			0	0			1				0	
6.6.1	win	2023-07-07	08:35:24	08:48:32	783049	63287c548c0d66d1e300fd64	4	1	main_slash	11	main_slash	107	stimuli_distractor_trianglediamonds.svg	stimuli_target_diamondsquares.svg	28	yes	53	1	562	0	0			0	0			1				0	
6.6.1	win	2023-07-07	08:35:24	08:48:32	783049	63287c548c0d66d1e300fd64	4	1	main_slash	11	advance_on_keypress_SLASH	108	stimuli_distractor_trianglediamonds.svg	stimuli_target_diamondsquares.svg	28	yes	57	0	649	0	0			0	0			1				0	
6.6.1	win	2023-07-07	08:35:24	08:48:34	785005	63287c548c0d66d1e300fd64	4	1	main_slash	11	main_slash	109	stimuli_target_trianglesquares.svg	stimuli_distractor_trianglediamonds.svg	18	yes	53	1	651	0	0			0	0			1				0	
6.6.1	win	2023-07-07	08:35:24	08:48:34	785005	63287c548c0d66d1e300fd64	4	1	main_slash	11	advance_on_keypress_SLASH	110	stimuli_target_trianglesquares.svg	stimuli_distractor_trianglediamonds.svg	18	yes	57	0	525	0	0			0	0			1				0	
6.6.1	win	2023-07-07	08:35:24	08:48:36	786828	63287c548c0d66d1e300fd64	4	1	main_slash	11	main_slash	111	stimuli_distractor_trianglediamonds.svg	stimuli_target_trianglerectangles.svg	25	yes	53	1	658	0	0			0	0			1				0	
6.6.1	win	2023-07-07	08:35:24	08:48:36	786828	63287c548c0d66d1e300fd64	4	1	main_slash	11	advance_on_keypress_SLASH	112	stimuli_distractor_trianglediamonds.svg	stimuli_target_trianglerectangles.svg	25	yes	57	0	638	0	0			0	0			1				0	
6.6.1	win	2023-07-07	08:35:24	08:48:38	788553	63287c548c0d66d1e300fd64	4	1	main_slash	11	main_slash	113	stimuli_target_squaretriangles.svg	stimuli_distractor_trianglediamonds.svg	3	yes	53	1	450	0	0			0	0			1				0	
6.6.1	win	2023-07-07	08:35:24	08:48:38	788553	63287c548c0d66d1e300fd64	4	1	main_slash	11	advance_on_keypress_SLASH	114	stimuli_target_squaretriangles.svg	stimuli_distractor_trianglediamonds.svg	3	yes	57	0	686	0	0			0	0			1				0	
6.6.1	win	2023-07-07	08:35:24	08:48:39	790401	63287c548c0d66d1e300fd64	4	1	main_slash	11	main_slash	115	stimuli_target_rectangletriangles.svg	stimuli_distractor_diamondtriangles.svg	5	yes	53	1	513	0	0			0	0			1				0	
6.6.1	win	2023-07-07	08:35:24	08:48:39	790401	63287c548c0d66d1e300fd64	4	1	main_slash	11	advance_on_keypress_SLASH	116	stimuli_target_rectangletriangles.svg	stimuli_distractor_diamondtriangles.svg	5	yes	57	0	740	0	0			0	0			1				0	
6.6.1	win	2023-07-07	08:35:24	08:48:41	792215	63287c548c0d66d1e300fd64	4	1	main_slash	11	main_slash	117	stimuli_distractor_trianglediamonds.svg	stimuli_target_rectangletriangles.svg	9	yes	53	1	429	0	0			0	0			1				0	
6.6.1	win	2023-07-07	08:35:24	08:48:41	792215	63287c548c0d66d1e300fd64	4	1	main_slash	11	advance_on_keypress_SLASH	118	stimuli_distractor_trianglediamonds.svg	stimuli_target_rectangletriangles.svg	9	yes	57	0	540	0	0			0	0			1				0	
6.6.1	win	2023-07-07	08:35:24	08:48:43	793801	63287c548c0d66d1e300fd64	4	1	main_slash	11	main_slash	119	stimuli_target_squarediamonds.svg	stimuli_distractor_diamondtriangles.svg	8	yes	53	1	399	0	0			0	0			1				0	
6.6.1	win	2023-07-07	08:35:24	08:48:43	793801	63287c548c0d66d1e300fd64	4	1	main_slash	11	advance_on_keypress_SLASH	120	stimuli_target_squarediamonds.svg	stimuli_distractor_diamondtriangles.svg	8	yes	57	0	563	0	0			0	0			1				0	
6.6.1	win	2023-07-07	08:35:24	08:48:45	795458	63287c548c0d66d1e300fd64	4	1	main_slash	11	main_slash	121	stimuli_distractor_trianglediamonds.svg	stimuli_target_trianglesquares.svg	26	yes	53	1	440	0	0			0	0			1				0	
6.6.1	win	2023-07-07	08:35:24	08:48:45	795458	63287c548c0d66d1e300fd64	4	1	main_slash	11	advance_on_keypress_SLASH	122	stimuli_distractor_trianglediamonds.svg	stimuli_target_trianglesquares.svg	26	yes	57	0	527	0	0			0	0			1				0	
6.6.1	win	2023-07-07	08:35:24	08:48:48	798619	63287c548c0d66d1e300fd64	4	1	main_slash	11	main_slash	123	stimuli_target_diamondsquares.svg	stimuli_distractor_diamondtriangles.svg	24	yes	0	0	2000	0	0			0	0			1				0	
6.6.1	win	2023-07-07	08:35:24	08:48:48	798619	63287c548c0d66d1e300fd64	4	1	main_slash	11	advance_on_keypress_SLASH	124	stimuli_target_diamondsquares.svg	stimuli_distractor_diamondtriangles.svg	24	yes	57	0	329	0	0			0	0			1				0	
6.6.1	win	2023-07-07	08:35:24	08:48:49	800184	63287c548c0d66d1e300fd64	4	1	main_slash	11	main_slash	125	stimuli_target_squarediamonds.svg	stimuli_distractor_trianglediamonds.svg	4	yes	53	1	582	0	0			0	0			1				0	
6.6.1	win	2023-07-07	08:35:24	08:48:49	800184	63287c548c0d66d1e300fd64	4	1	main_slash	11	advance_on_keypress_SLASH	126	stimuli_target_squarediamonds.svg	stimuli_distractor_trianglediamonds.svg	4	yes	57	0	407	0	0			0	0			1				0	
6.6.1	win	2023-07-07	08:35:24	08:48:51	802266	63287c548c0d66d1e300fd64	4	1	main_slash	11	main_slash	127	stimuli_distractor_trianglediamonds.svg	stimuli_distractor_diamondtriangles.svg	35	no	53	0	1031	0	0			0	0			1				0	
6.6.1	win	2023-07-07	08:35:24	08:48:51	802266	63287c548c0d66d1e300fd64	4	1	main_slash	11	advance_on_keypress_SLASH	128	stimuli_distractor_trianglediamonds.svg	stimuli_distractor_diamondtriangles.svg	35	no	57	0	563	0	0			0	0			1				0	
6.6.1	win	2023-07-07	08:35:24	08:48:55	805484	63287c548c0d66d1e300fd64	4	1	main_slash	11	main_slash	129	stimuli_distractor_diamondtriangles.svg	stimuli_target_rectangletriangles.svg	13	yes	0	0	2000	0	0			0	0			1				0	
6.6.1	win	2023-07-07	08:35:24	08:48:55	805484	63287c548c0d66d1e300fd64	4	1	main_slash	11	advance_on_keypress_SLASH	130	stimuli_distractor_diamondtriangles.svg	stimuli_target_rectangletriangles.svg	13	yes	57	0	398	0	0			0	0			1				0	
6.6.1	win	2023-07-07	08:35:24	08:48:56	807090	63287c548c0d66d1e300fd64	4	1	main_slash	11	main_slash	131	stimuli_distractor_trianglediamonds.svg	stimuli_target_diamondrectangles.svg	27	yes	53	1	556	0	0			0	0			1				0	
6.6.1	win	2023-07-07	08:35:24	08:48:56	807090	63287c548c0d66d1e300fd64	4	1	main_slash	11	advance_on_keypress_SLASH	132	stimuli_distractor_trianglediamonds.svg	stimuli_target_diamondrectangles.svg	27	yes	57	0	436	0	0			0	0			1				0	
6.6.1	win	2023-07-07	08:35:24	08:48:59	810167	63287c548c0d66d1e300fd64	4	1	main_slash	11	main_slash	133	stimuli_distractor_trianglediamonds.svg	stimuli_distractor_diamondtriangles.svg	36	no	0	1	2000	0	0			0	0			1				0	
6.6.1	win	2023-07-07	08:35:24	08:48:59	810167	63287c548c0d66d1e300fd64	4	1	main_slash	11	advance_on_keypress_SLASH	134	stimuli_distractor_trianglediamonds.svg	stimuli_distractor_diamondtriangles.svg	36	no	57	0	447	0	0			0	0			1				0	
6.6.1	win	2023-07-07	08:35:24	08:49:01	811809	63287c548c0d66d1e300fd64	4	1	main_slash	11	main_slash	135	stimuli_target_rectanglediamonds.svg	stimuli_distractor_trianglediamonds.svg	2	yes	53	1	542	0	0			0	0			1				0	
6.6.1	win	2023-07-07	08:35:24	08:49:01	811809	63287c548c0d66d1e300fd64	4	1	main_slash	11	advance_on_keypress_SLASH	136	stimuli_target_rectanglediamonds.svg	stimuli_distractor_trianglediamonds.svg	2	yes	57	0	605	0	0			0	0			1				0	
6.6.1	win	2023-07-07	08:35:24	08:49:03	813564	63287c548c0d66d1e300fd64	4	1	main_slash	11	main_slash	137	stimuli_distractor_trianglediamonds.svg	stimuli_target_squaretriangles.svg	11	yes	53	1	505	0	0			0	0			1				0	
6.6.1	win	2023-07-07	08:35:24	08:49:03	813564	63287c548c0d66d1e300fd64	4	1	main_slash	11	advance_on_keypress_SLASH	138	stimuli_distractor_trianglediamonds.svg	stimuli_target_squaretriangles.svg	11	yes	57	0	515	0	0			0	0			1				0	
6.6.1	win	2023-07-07	08:35:24	08:49:04	815247	63287c548c0d66d1e300fd64	4	1	main_slash	11	main_slash	139	stimuli_distractor_diamondtriangles.svg	stimuli_target_squaretriangles.svg	15	yes	53	1	504	0	0			0	0			1				0	
6.6.1	win	2023-07-07	08:35:24	08:49:04	815247	63287c548c0d66d1e300fd64	4	1	main_slash	11	advance_on_keypress_SLASH	140	stimuli_distractor_diamondtriangles.svg	stimuli_target_squaretriangles.svg	15	yes	57	0	476	0	0			0	0			1				0	
6.6.1	win	2023-07-07	08:35:24	08:49:07	817758	63287c548c0d66d1e300fd64	4	1	main_slash	11	main_slash	141	stimuli_target_trianglerectangles.svg	stimuli_distractor_diamondtriangles.svg	21	yes	53	1	1392	0	0			0	0			1				0	
6.6.1	win	2023-07-07	08:35:24	08:49:07	817758	63287c548c0d66d1e300fd64	4	1	main_slash	11	advance_on_keypress_SLASH	142	stimuli_target_trianglerectangles.svg	stimuli_distractor_diamondtriangles.svg	21	yes	57	0	803	0	0			0	0			1				0	
6.6.1	win	2023-07-07	08:35:24	08:49:09	819652	63287c548c0d66d1e300fd64	4	1	main_slash	11	main_slash	143	stimuli_distractor_diamondtriangles.svg	stimuli_target_rectanglediamonds.svg	14	yes	53	1	453	0	0			0	0			1				0	
6.6.1	win	2023-07-07	08:35:24	08:49:09	819652	63287c548c0d66d1e300fd64	4	1	main_slash	11	advance_on_keypress_SLASH	144	stimuli_distractor_diamondtriangles.svg	stimuli_target_rectanglediamonds.svg	14	yes	57	0	498	0	0			0	0			1				0	
6.6.1	win	2023-07-07	08:35:24	08:49:11	821478	63287c548c0d66d1e300fd64	4	1	main_slash	11	main_slash	145	stimuli_distractor_diamondtriangles.svg	stimuli_distractor_trianglediamonds.svg	38	no	53	0	679	0	0			0	0			1				0	
6.6.1	win	2023-07-07	08:35:24	08:49:11	821478	63287c548c0d66d1e300fd64	4	1	main_slash	11	advance_on_keypress_SLASH	146	stimuli_distractor_diamondtriangles.svg	stimuli_distractor_trianglediamonds.svg	38	no	57	0	449	0	0			0	0			1				0	
6.6.1	win	2023-07-07	08:35:24	08:49:14	824582	63287c548c0d66d1e300fd64	4	1	main_slash	11	main_slash	147	stimuli_target_trianglerectangles.svg	stimuli_distractor_trianglediamonds.svg	17	yes	0	0	2000	0	0			0	0			1				0	
6.6.1	win	2023-07-07	08:35:24	08:49:14	824582	63287c548c0d66d1e300fd64	4	1	main_slash	11	advance_on_keypress_SLASH	148	stimuli_target_trianglerectangles.svg	stimuli_distractor_trianglediamonds.svg	17	yes	57	0	703	0	0			0	0			1				0	
6.6.1	win	2023-07-07	08:35:24	08:49:16	826598	63287c548c0d66d1e300fd64	4	1	main_slash	11	main_slash	149	stimuli_distractor_diamondtriangles.svg	stimuli_target_trianglerectangles.svg	29	yes	53	1	666	0	0			0	0			1				0	
6.6.1	win	2023-07-07	08:35:24	08:49:16	826598	63287c548c0d66d1e300fd64	4	1	main_slash	11	advance_on_keypress_SLASH	150	stimuli_distractor_diamondtriangles.svg	stimuli_target_trianglerectangles.svg	29	yes	57	0	1125	0	0			0	0			1				0	
6.6.1	win	2023-07-07	08:35:24	08:49:18	828907	63287c548c0d66d1e300fd64	4	1	main_slash	11	main_slash	151	stimuli_target_squaretriangles.svg	stimuli_distractor_diamondtriangles.svg	7	yes	53	1	542	0	0			0	0			1				0	
6.6.1	win	2023-07-07	08:35:24	08:49:18	828907	63287c548c0d66d1e300fd64	4	1	main_slash	11	advance_on_keypress_SLASH	152	stimuli_target_squaretriangles.svg	stimuli_distractor_diamondtriangles.svg	7	yes	57	0	827	0	0			0	0			1				0	
6.6.1	win	2023-07-07	08:35:24	08:49:20	831253	63287c548c0d66d1e300fd64	4	1	main_slash	11	main_slash	153	stimuli_target_diamondrectangles.svg	stimuli_distractor_trianglediamonds.svg	19	yes	53	1	888	0	0			0	0			1				0	
6.6.1	win	2023-07-07	08:35:24	08:49:20	831253	63287c548c0d66d1e300fd64	4	1	main_slash	11	advance_on_keypress_SLASH	154	stimuli_target_diamondrectangles.svg	stimuli_distractor_trianglediamonds.svg	19	yes	57	0	520	0	0			0	0			1				0	
6.6.1	win	2023-07-07	08:35:24	08:49:22	832944	63287c548c0d66d1e300fd64	4	1	main_slash	11	main_slash	155	stimuli_distractor_trianglediamonds.svg	stimuli_target_squarediamonds.svg	12	yes	53	1	530	0	0			0	0			1				0	
6.6.1	win	2023-07-07	08:35:24	08:49:22	832944	63287c548c0d66d1e300fd64	4	1	main_slash	11	advance_on_keypress_SLASH	156	stimuli_distractor_trianglediamonds.svg	stimuli_target_squarediamonds.svg	12	yes	57	0	1338	0	0			0	0			1				0	
6.6.1	win	2023-07-07	08:35:24	08:49:25	835425	63287c548c0d66d1e300fd64	4	1	main_slash	11	main_slash	157	stimuli_distractor_trianglediamonds.svg	stimuli_target_rectanglediamonds.svg	10	yes	53	1	494	0	0			0	0			1				0	
6.6.1	win	2023-07-07	08:35:24	08:49:25	835425	63287c548c0d66d1e300fd64	4	1	main_slash	11	advance_on_keypress_SLASH	158	stimuli_distractor_trianglediamonds.svg	stimuli_target_rectanglediamonds.svg	10	yes	57	0	522	0	0			0	0			1				0	
6.6.1	win	2023-07-07	08:35:24	08:49:26	837213	63287c548c0d66d1e300fd64	4	1	main_slash	11	main_slash	159	stimuli_distractor_diamondtriangles.svg	stimuli_target_diamondsquares.svg	32	yes	53	1	616	0	0			0	0			1				0	
6.6.1	win	2023-07-07	08:35:24	08:49:26	837213	63287c548c0d66d1e300fd64	4	1	main_slash	11	advance_on_keypress_SLASH	160	stimuli_distractor_diamondtriangles.svg	stimuli_target_diamondsquares.svg	32	yes	57	0	604	0	0			0	0			1				0	
6.6.1	win	2023-07-07	08:35:24	08:49:26	837213	63287c548c0d66d1e300fd64	4	1	headphonecheck_calibration	14	headphonecheck_calibrationIntro	1	stimuli_distractor_diamondtriangles.svg	stimuli_target_diamondsquares.svg	32	yes	calibrationButton	0	9421	0	0			0	0			1				0	
6.6.1	win	2023-07-07	08:35:24	08:49:26	837213	63287c548c0d66d1e300fd64	4	1	headphonecheck_testphase	15	test_collectResponse	3	stimuli_distractor_diamondtriangles.svg	stimuli_target_diamondsquares.svg	32	yes	third	1	3839	1	2	antiphase_hc_ios.wav	3	0	0			1				0	
6.6.1	win	2023-07-07	08:35:24	08:49:26	837213	63287c548c0d66d1e300fd64	4	1	headphonecheck_testphase	15	test_collectResponse	6	stimuli_distractor_diamondtriangles.svg	stimuli_target_diamondsquares.svg	32	yes	second	1	1222	2	1	antiphase_hc_iso.wav	2	0	0			1				0	
6.6.1	win	2023-07-07	08:35:24	08:49:26	837213	63287c548c0d66d1e300fd64	4	1	headphonecheck_testphase	15	test_collectResponse	9	stimuli_distractor_diamondtriangles.svg	stimuli_target_diamondsquares.svg	32	yes	second	1	2751	3	5	antiphase_hc_osi.wav	2	0	0			1				0	
6.6.1	win	2023-07-07	08:35:24	08:49:26	837213	63287c548c0d66d1e300fd64	4	1	headphonecheck_testphase	15	test_collectResponse	12	stimuli_distractor_diamondtriangles.svg	stimuli_target_diamondsquares.svg	32	yes	first	1	993	4	4	antiphase_hc_sio.wav	1	0	0			1				0	
6.6.1	win	2023-07-07	08:35:24	08:49:26	837213	63287c548c0d66d1e300fd64	4	1	headphonecheck_testphase	15	test_collectResponse	15	stimuli_distractor_diamondtriangles.svg	stimuli_target_diamondsquares.svg	32	yes	third	1	782	5	6	antiphase_hc_ois.wav	3	0	0			1				0	
6.6.1	win	2023-07-07	08:35:24	08:49:26	837213	63287c548c0d66d1e300fd64	4	1	headphonecheck_testphase	15	test_collectResponse	18	stimuli_distractor_diamondtriangles.svg	stimuli_target_diamondsquares.svg	32	yes	first	1	572	6	3	antiphase_hc_soi.wav	1	0	0			1				0	
6.6.1	win	2023-07-07	08:35:24	08:49:26	837213	63287c548c0d66d1e300fd64	4	1	stereocheck_calibration	17	stereocheck_calibrationIntro	1	stimuli_distractor_diamondtriangles.svg	stimuli_target_diamondsquares.svg	32	yes	stereocheck_calibrationButton	0	14459	6	3	antiphase_hc_soi.wav	1	0	0			1				0	
6.6.1	win	2023-07-07	08:35:24	08:49:26	837213	63287c548c0d66d1e300fd64	4	1	stereocheck_testphase	18	stereocheck_test_collectResponse	3	stimuli_distractor_diamondtriangles.svg	stimuli_target_diamondsquares.svg	32	yes	stereocheck_right	1	1423	6	3	antiphase_hc_soi.wav	1	1	4	noise_calib_stim_RIGHT.wav	2	1				0	
6.6.1	win	2023-07-07	08:35:24	08:49:26	837213	63287c548c0d66d1e300fd64	4	1	stereocheck_testphase	18	stereocheck_test_collectResponse	6	stimuli_distractor_diamondtriangles.svg	stimuli_target_diamondsquares.svg	32	yes	stereocheck_right	1	1255	6	3	antiphase_hc_soi.wav	1	2	6	noise_calib_stim_RIGHT.wav	2	1				0	
6.6.1	win	2023-07-07	08:35:24	08:49:26	837213	63287c548c0d66d1e300fd64	4	1	stereocheck_testphase	18	stereocheck_test_collectResponse	9	stimuli_distractor_diamondtriangles.svg	stimuli_target_diamondsquares.svg	32	yes	stereocheck_right	1	3001	6	3	antiphase_hc_soi.wav	1	3	5	noise_calib_stim_RIGHT.wav	2	1				0	
6.6.1	win	2023-07-07	08:35:24	08:49:26	837213	63287c548c0d66d1e300fd64	4	1	stereocheck_testphase	18	stereocheck_test_collectResponse	12	stimuli_distractor_diamondtriangles.svg	stimuli_target_diamondsquares.svg	32	yes	stereocheck_left	1	597	6	3	antiphase_hc_soi.wav	1	4	3	noise_calib_stim_LEFT.wav	1	1				0	
6.6.1	win	2023-07-07	08:35:24	08:49:26	837213	63287c548c0d66d1e300fd64	4	1	stereocheck_testphase	18	stereocheck_test_collectResponse	15	stimuli_distractor_diamondtriangles.svg	stimuli_target_diamondsquares.svg	32	yes	stereocheck_left	1	1673	6	3	antiphase_hc_soi.wav	1	5	1	noise_calib_stim_LEFT.wav	1	1				0	
6.6.1	win	2023-07-07	08:35:24	08:49:26	837213	63287c548c0d66d1e300fd64	4	1	stereocheck_testphase	18	stereocheck_test_collectResponse	18	stimuli_distractor_diamondtriangles.svg	stimuli_target_diamondsquares.svg	32	yes	stereocheck_left	1	890	6	3	antiphase_hc_soi.wav	1	6	2	noise_calib_stim_LEFT.wav	1	1				0	
6.6.1	win	2023-07-07	08:35:24	08:49:26	837213	63287c548c0d66d1e300fd64	4	1	DL_practice	21	DL_practice	2	stimuli_distractor_diamondtriangles.svg	stimuli_target_diamondsquares.svg	32	yes	da	1	6159	6	3	antiphase_hc_soi.wav	1	6	2	noise_calib_stim_LEFT.wav	1	7	blb_dichoticlistening_da-ba.mp3	da	ba	1	left
6.6.1	win	2023-07-07	08:35:24	08:49:26	837213	63287c548c0d66d1e300fd64	4	1	DL_practice	21	DL_practice	3	stimuli_distractor_diamondtriangles.svg	stimuli_target_diamondsquares.svg	32	yes	ka	0	3033	6	3	antiphase_hc_soi.wav	1	6	2	noise_calib_stim_LEFT.wav	1	18	blb_dichoticlistening_ga-ta.mp3	ga	ta	1	other
6.6.1	win	2023-07-07	08:35:24	08:49:26	837213	63287c548c0d66d1e300fd64	4	1	DL_practice	21	DL_practice	4	stimuli_distractor_diamondtriangles.svg	stimuli_target_diamondsquares.svg	32	yes	ka	1	1931	6	3	antiphase_hc_soi.wav	1	6	2	noise_calib_stim_LEFT.wav	1	22	blb_dichoticlistening_ka-ka.mp3	ka	ka	0	left
6.6.1	win	2023-07-07	08:35:24	08:49:26	837213	63287c548c0d66d1e300fd64	4	1	DL_practice	21	DL_practice	5	stimuli_distractor_diamondtriangles.svg	stimuli_target_diamondsquares.svg	32	yes	ta	1	2760	6	3	antiphase_hc_soi.wav	1	6	2	noise_calib_stim_LEFT.wav	1	36	blb_dichoticlistening_ta-ta.mp3	ta	ta	0	left
6.6.1	win	2023-07-07	08:35:24	08:49:26	837213	63287c548c0d66d1e300fd64	4	1	DL_practice	21	DL_practice	6	stimuli_distractor_diamondtriangles.svg	stimuli_target_diamondsquares.svg	32	yes	pa	1	2409	6	3	antiphase_hc_soi.wav	1	6	2	noise_calib_stim_LEFT.wav	1	23	blb_dichoticlistening_ka-pa.mp3	ka	pa	1	right
6.6.1	win	2023-07-07	08:35:24	08:49:26	837213	63287c548c0d66d1e300fd64	4	1	DL_practice	21	DL_practice	7	stimuli_distractor_diamondtriangles.svg	stimuli_target_diamondsquares.svg	32	yes	pa	1	1455	6	3	antiphase_hc_soi.wav	1	6	2	noise_calib_stim_LEFT.wav	1	29	blb_dichoticlistening_pa-pa.mp3	pa	pa	0	left
6.6.1	win	2023-07-07	08:35:24	08:49:26	837213	63287c548c0d66d1e300fd64	4	1	DL_practice	21	DL_practice	8	stimuli_distractor_diamondtriangles.svg	stimuli_target_diamondsquares.svg	32	yes	da	1	2256	6	3	antiphase_hc_soi.wav	1	6	2	noise_calib_stim_LEFT.wav	1	8	blb_dichoticlistening_da-da.mp3	da	da	0	left
6.6.1	win	2023-07-07	08:35:24	08:49:26	837213	63287c548c0d66d1e300fd64	4	1	DL_practice	21	DL_practice	9	stimuli_distractor_diamondtriangles.svg	stimuli_target_diamondsquares.svg	32	yes	ba	1	1885	6	3	antiphase_hc_soi.wav	1	6	2	noise_calib_stim_LEFT.wav	1	1	blb_dichoticlistening_ba-ba.mp3	ba	ba	0	left
6.6.1	win	2023-07-07	08:35:24	08:49:26	837213	63287c548c0d66d1e300fd64	4	1	DL_practice	21	DL_practice	10	stimuli_distractor_diamondtriangles.svg	stimuli_target_diamondsquares.svg	32	yes	ga	1	1788	6	3	antiphase_hc_soi.wav	1	6	2	noise_calib_stim_LEFT.wav	1	15	blb_dichoticlistening_ga-ga.mp3	ga	ga	0	left
6.6.1	win	2023-07-07	08:35:24	08:49:26	837213	63287c548c0d66d1e300fd64	4	1	DL_test	23	DL_test	1	stimuli_distractor_diamondtriangles.svg	stimuli_target_diamondsquares.svg	32	yes	da	1	2898	6	3	antiphase_hc_soi.wav	1	6	2	noise_calib_stim_LEFT.wav	1	2	blb_dichoticlistening_ba-da.mp3	ba	da	1	right
6.6.1	win	2023-07-07	08:35:24	08:49:26	837213	63287c548c0d66d1e300fd64	4	1	DL_test	23	DL_test	2	stimuli_distractor_diamondtriangles.svg	stimuli_target_diamondsquares.svg	32	yes	ka	1	2712	6	3	antiphase_hc_soi.wav	1	6	2	noise_calib_stim_LEFT.wav	1	22	blb_dichoticlistening_ka-ka.mp3	ka	ka	0	left
6.6.1	win	2023-07-07	08:35:24	08:49:26	837213	63287c548c0d66d1e300fd64	4	1	DL_test	23	DL_test	3	stimuli_distractor_diamondtriangles.svg	stimuli_target_diamondsquares.svg	32	yes	ta	1	1669	6	3	antiphase_hc_soi.wav	1	6	2	noise_calib_stim_LEFT.wav	1	6	blb_dichoticlistening_ba-ta.mp3	ba	ta	1	right
6.6.1	win	2023-07-07	08:35:24	08:49:26	837213	63287c548c0d66d1e300fd64	4	1	DL_test	23	DL_test	4	stimuli_distractor_diamondtriangles.svg	stimuli_target_diamondsquares.svg	32	yes	ta	1	1376	6	3	antiphase_hc_soi.wav	1	6	2	noise_calib_stim_LEFT.wav	1	36	blb_dichoticlistening_ta-ta.mp3	ta	ta	0	left
6.6.1	win	2023-07-07	08:35:24	08:49:26	837213	63287c548c0d66d1e300fd64	4	1	DL_test	23	DL_test	5	stimuli_distractor_diamondtriangles.svg	stimuli_target_diamondsquares.svg	32	yes	ga	1	1672	6	3	antiphase_hc_soi.wav	1	6	2	noise_calib_stim_LEFT.wav	1	14	blb_dichoticlistening_ga-da.mp3	ga	da	1	left
6.6.1	win	2023-07-07	08:35:24	08:49:26	837213	63287c548c0d66d1e300fd64	4	1	DL_test	23	DL_test	6	stimuli_distractor_diamondtriangles.svg	stimuli_target_diamondsquares.svg	32	yes	da	1	2169	6	3	antiphase_hc_soi.wav	1	6	2	noise_calib_stim_LEFT.wav	1	32	blb_dichoticlistening_ta-da.mp3	ta	da	1	right
6.6.1	win	2023-07-07	08:35:24	08:49:26	837213	63287c548c0d66d1e300fd64	4	1	DL_test	23	DL_test	7	stimuli_distractor_diamondtriangles.svg	stimuli_target_diamondsquares.svg	32	yes	pa	1	1697	6	3	antiphase_hc_soi.wav	1	6	2	noise_calib_stim_LEFT.wav	1	17	blb_dichoticlistening_ga-pa.mp3	ga	pa	1	right
6.6.1	win	2023-07-07	08:35:24	08:49:26	837213	63287c548c0d66d1e300fd64	4	1	DL_test	23	DL_test	8	stimuli_distractor_diamondtriangles.svg	stimuli_target_diamondsquares.svg	32	yes	ka	1	2490	6	3	antiphase_hc_soi.wav	1	6	2	noise_calib_stim_LEFT.wav	1	4	blb_dichoticlistening_ba-ka.mp3	ba	ka	1	right
6.6.1	win	2023-07-07	08:35:24	08:49:26	837213	63287c548c0d66d1e300fd64	4	1	DL_test	23	DL_test	9	stimuli_distractor_diamondtriangles.svg	stimuli_target_diamondsquares.svg	32	yes	ba	1	2165	6	3	antiphase_hc_soi.wav	1	6	2	noise_calib_stim_LEFT.wav	1	1	blb_dichoticlistening_ba-ba.mp3	ba	ba	0	left
6.6.1	win	2023-07-07	08:35:24	08:49:26	837213	63287c548c0d66d1e300fd64	4	1	DL_test	23	DL_test	10	stimuli_distractor_diamondtriangles.svg	stimuli_target_diamondsquares.svg	32	yes	ga	1	1813	6	3	antiphase_hc_soi.wav	1	6	2	noise_calib_stim_LEFT.wav	1	33	blb_dichoticlistening_ta-ga.mp3	ta	ga	1	right
6.6.1	win	2023-07-07	08:35:24	08:49:26	837213	63287c548c0d66d1e300fd64	4	1	DL_test	23	DL_test	11	stimuli_distractor_diamondtriangles.svg	stimuli_target_diamondsquares.svg	32	yes	ga	1	1127	6	3	antiphase_hc_soi.wav	1	6	2	noise_calib_stim_LEFT.wav	1	27	blb_dichoticlistening_pa-ga.mp3	pa	ga	1	right
6.6.1	win	2023-07-07	08:35:24	08:49:26	837213	63287c548c0d66d1e300fd64	4	1	DL_test	23	DL_test	12	stimuli_distractor_diamondtriangles.svg	stimuli_target_diamondsquares.svg	32	yes	pa	1	1691	6	3	antiphase_hc_soi.wav	1	6	2	noise_calib_stim_LEFT.wav	1	29	blb_dichoticlistening_pa-pa.mp3	pa	pa	0	left
6.6.1	win	2023-07-07	08:35:24	08:49:26	837213	63287c548c0d66d1e300fd64	4	1	DL_test	23	DL_test	13	stimuli_distractor_diamondtriangles.svg	stimuli_target_diamondsquares.svg	32	yes	ba	0	4918	6	3	antiphase_hc_soi.wav	1	6	2	noise_calib_stim_LEFT.wav	1	10	blb_dichoticlistening_da-ka.mp3	da	ka	1	other
6.6.1	win	2023-07-07	08:35:24	08:49:26	837213	63287c548c0d66d1e300fd64	4	1	DL_test	23	DL_test	14	stimuli_distractor_diamondtriangles.svg	stimuli_target_diamondsquares.svg	32	yes	ba	1	1799	6	3	antiphase_hc_soi.wav	1	6	2	noise_calib_stim_LEFT.wav	1	19	blb_dichoticlistening_ka-ba.mp3	ka	ba	1	right
6.6.1	win	2023-07-07	08:35:24	08:49:26	837213	63287c548c0d66d1e300fd64	4	1	DL_test	23	DL_test	15	stimuli_distractor_diamondtriangles.svg	stimuli_target_diamondsquares.svg	32	yes	ba	1	1364	6	3	antiphase_hc_soi.wav	1	6	2	noise_calib_stim_LEFT.wav	1	13	blb_dichoticlistening_ga-ba.mp3	ga	ba	1	right
6.6.1	win	2023-07-07	08:35:24	08:49:26	837213	63287c548c0d66d1e300fd64	4	1	DL_test	23	DL_test	16	stimuli_distractor_diamondtriangles.svg	stimuli_target_diamondsquares.svg	32	yes	ba	1	1036	6	3	antiphase_hc_soi.wav	1	6	2	noise_calib_stim_LEFT.wav	1	7	blb_dichoticlistening_da-ba.mp3	da	ba	1	right
6.6.1	win	2023-07-07	08:35:24	08:49:26	837213	63287c548c0d66d1e300fd64	4	1	DL_test	23	DL_test	17	stimuli_distractor_diamondtriangles.svg	stimuli_target_diamondsquares.svg	32	yes	ga	0	2853	6	3	antiphase_hc_soi.wav	1	6	2	noise_calib_stim_LEFT.wav	1	20	blb_dichoticlistening_ka-da.mp3	ka	da	1	other
6.6.1	win	2023-07-07	08:35:24	08:49:26	837213	63287c548c0d66d1e300fd64	4	1	DL_test	23	DL_test	18	stimuli_distractor_diamondtriangles.svg	stimuli_target_diamondsquares.svg	32	yes	ka	0	1569	6	3	antiphase_hc_soi.wav	1	6	2	noise_calib_stim_LEFT.wav	1	30	blb_dichoticlistening_pa-ta.mp3	pa	ta	1	other
6.6.1	win	2023-07-07	08:35:24	08:49:26	837213	63287c548c0d66d1e300fd64	4	1	DL_test	23	DL_test	19	stimuli_distractor_diamondtriangles.svg	stimuli_target_diamondsquares.svg	32	yes	ga	1	2538	6	3	antiphase_hc_soi.wav	1	6	2	noise_calib_stim_LEFT.wav	1	3	blb_dichoticlistening_ba-ga.mp3	ba	ga	1	right
6.6.1	win	2023-07-07	08:35:24	08:49:26	837213	63287c548c0d66d1e300fd64	4	1	DL_test	23	DL_test	20	stimuli_distractor_diamondtriangles.svg	stimuli_target_diamondsquares.svg	32	yes	da	1	1348	6	3	antiphase_hc_soi.wav	1	6	2	noise_calib_stim_LEFT.wav	1	8	blb_dichoticlistening_da-da.mp3	da	da	0	left
6.6.1	win	2023-07-07	08:35:24	08:49:26	837213	63287c548c0d66d1e300fd64	4	1	DL_test	23	DL_test	21	stimuli_distractor_diamondtriangles.svg	stimuli_target_diamondsquares.svg	32	yes	ka	0	1606	6	3	antiphase_hc_soi.wav	1	6	2	noise_calib_stim_LEFT.wav	1	18	blb_dichoticlistening_ga-ta.mp3	ga	ta	1	other
6.6.1	win	2023-07-07	08:35:24	08:49:26	837213	63287c548c0d66d1e300fd64	4	1	DL_test	23	DL_test	22	stimuli_distractor_diamondtriangles.svg	stimuli_target_diamondsquares.svg	32	yes	pa	1	1494	6	3	antiphase_hc_soi.wav	1	6	2	noise_calib_stim_LEFT.wav	1	23	blb_dichoticlistening_ka-pa.mp3	ka	pa	1	right
6.6.1	win	2023-07-07	08:35:24	08:49:26	837213	63287c548c0d66d1e300fd64	4	1	DL_test	23	DL_test	23	stimuli_distractor_diamondtriangles.svg	stimuli_target_diamondsquares.svg	32	yes	pa	1	1761	6	3	antiphase_hc_soi.wav	1	6	2	noise_calib_stim_LEFT.wav	1	11	blb_dichoticlistening_da-pa.mp3	da	pa	1	right
6.6.1	win	2023-07-07	08:35:24	08:49:26	837213	63287c548c0d66d1e300fd64	4	1	DL_test	23	DL_test	24	stimuli_distractor_diamondtriangles.svg	stimuli_target_diamondsquares.svg	32	yes	ka	1	1580	6	3	antiphase_hc_soi.wav	1	6	2	noise_calib_stim_LEFT.wav	1	16	blb_dichoticlistening_ga-ka.mp3	ga	ka	1	right
6.6.1	win	2023-07-07	08:35:24	08:49:26	837213	63287c548c0d66d1e300fd64	4	1	DL_test	23	DL_test	25	stimuli_distractor_diamondtriangles.svg	stimuli_target_diamondsquares.svg	32	yes	ba	1	2206	6	3	antiphase_hc_soi.wav	1	6	2	noise_calib_stim_LEFT.wav	1	25	blb_dichoticlistening_pa-ba.mp3	pa	ba	1	right
6.6.1	win	2023-07-07	08:35:24	08:49:26	837213	63287c548c0d66d1e300fd64	4	1	DL_test	23	DL_test	26	stimuli_distractor_diamondtriangles.svg	stimuli_target_diamondsquares.svg	32	yes	ba	0	2267	6	3	antiphase_hc_soi.wav	1	6	2	noise_calib_stim_LEFT.wav	1	26	blb_dichoticlistening_pa-da.mp3	pa	da	1	other
