build	computer.platform	date	time	timestamp	time_elapsed_ms	subject	group	session	blockcode	blocknum	trialcode	trialnum	stimulus_left	stimulus_right	stim_index	target_present	response	correct	latency	headphonecheck_countTestTrials	headphonecheck_index	headphonecheck_testSound	headphonecheck_correctResponse	stereocheck_countTestTrials	stereocheck_index	stereocheck_testSound	stereocheck_correctResponse	DL_index	DL_soundfile	DL_leftSound	DL_rightSound	DL_dualSound	DL_choice
6.6.1	mac	2023-06-24	02:20:56	0	0	5e1582d9805a30b7d0c8b9c7	2	1	headphonecheck_calibration	4	headphonecheck_calibrationIntro	1			0		calibrationButton	0	2921	0	0			0	0			1				0	
6.6.1	mac	2023-06-24	02:20:56	0	0	5e1582d9805a30b7d0c8b9c7	2	1	headphonecheck_testphase	5	test_collectResponse	3			0		second	0	4565	1	2	antiphase_hc_ios.wav	3	0	0			1				0	
6.6.1	mac	2023-06-24	02:20:56	0	0	5e1582d9805a30b7d0c8b9c7	2	1	headphonecheck_testphase	5	test_collectResponse	6			0		third	0	1051	2	1	antiphase_hc_iso.wav	2	0	0			1				0	
6.6.1	mac	2023-06-24	02:20:56	0	0	5e1582d9805a30b7d0c8b9c7	2	1	headphonecheck_testphase	5	test_collectResponse	9			0		first	0	3314	3	6	antiphase_hc_ois.wav	3	0	0			1				0	
6.6.1	mac	2023-06-24	02:20:56	0	0	5e1582d9805a30b7d0c8b9c7	2	1	headphonecheck_testphase	5	test_collectResponse	12			0		second	0	151	4	3	antiphase_hc_soi.wav	1	0	0			1				0	
6.6.1	mac	2023-06-24	02:20:56	0	0	5e1582d9805a30b7d0c8b9c7	2	1	headphonecheck_testphase	5	test_collectResponse	15			0		first	0	2847	5	5	antiphase_hc_osi.wav	2	0	0			1				0	
6.6.1	mac	2023-06-24	02:20:56	0	0	5e1582d9805a30b7d0c8b9c7	2	1	headphonecheck_testphase	5	test_collectResponse	18			0		third	0	1347	6	4	antiphase_hc_sio.wav	1	0	0			1				0	
6.6.1	mac	2023-06-24	02:20:56	0	0	5e1582d9805a30b7d0c8b9c7	2	1	stereocheck_calibration	7	stereocheck_calibrationIntro	1			0		stereocheck_calibrationButton	0	2134	6	4	antiphase_hc_sio.wav	1	0	0			1				0	
6.6.1	mac	2023-06-24	02:20:56	0	0	5e1582d9805a30b7d0c8b9c7	2	1	stereocheck_testphase	8	stereocheck_test_collectResponse	3			0		stereocheck_left	0	401	6	4	antiphase_hc_sio.wav	1	1	5	noise_calib_stim_RIGHT.wav	2	1				0	
6.6.1	mac	2023-06-24	02:20:56	0	0	5e1582d9805a30b7d0c8b9c7	2	1	stereocheck_testphase	8	stereocheck_test_collectResponse	6			0		stereocheck_left	1	1035	6	4	antiphase_hc_sio.wav	1	2	1	noise_calib_stim_LEFT.wav	1	1				0	
6.6.1	mac	2023-06-24	02:20:56	0	0	5e1582d9805a30b7d0c8b9c7	2	1	stereocheck_testphase	8	stereocheck_test_collectResponse	9			0		stereocheck_left	1	4697	6	4	antiphase_hc_sio.wav	1	3	2	noise_calib_stim_LEFT.wav	1	1				0	
6.6.1	mac	2023-06-24	02:20:56	0	0	5e1582d9805a30b7d0c8b9c7	2	1	stereocheck_testphase	8	stereocheck_test_collectResponse	12			0		stereocheck_right	1	235	6	4	antiphase_hc_sio.wav	1	4	4	noise_calib_stim_RIGHT.wav	2	1				0	
6.6.1	mac	2023-06-24	02:20:56	0	0	5e1582d9805a30b7d0c8b9c7	2	1	stereocheck_testphase	8	stereocheck_test_collectResponse	15			0		stereocheck_right	0	352	6	4	antiphase_hc_sio.wav	1	5	3	noise_calib_stim_LEFT.wav	1	1				0	
6.6.1	mac	2023-06-24	02:20:56	0	0	5e1582d9805a30b7d0c8b9c7	2	1	stereocheck_testphase	8	stereocheck_test_collectResponse	18			0		stereocheck_right	1	365	6	4	antiphase_hc_sio.wav	1	6	6	noise_calib_stim_RIGHT.wav	2	1				0	
6.6.1	mac	2023-06-24	02:20:56	0	0	5e1582d9805a30b7d0c8b9c7	2	1	DL_practice	11	DL_practice	2			0		ka	1	1786	6	4	antiphase_hc_sio.wav	1	6	6	noise_calib_stim_RIGHT.wav	2	23	blb_dichoticlistening_ka-pa.mp3	ka	pa	1	left
6.6.1	mac	2023-06-24	02:20:56	0	0	5e1582d9805a30b7d0c8b9c7	2	1	DL_practice	11	DL_practice	3			0		ba	1	1469	6	4	antiphase_hc_sio.wav	1	6	6	noise_calib_stim_RIGHT.wav	2	7	blb_dichoticlistening_da-ba.mp3	da	ba	1	right
6.6.1	mac	2023-06-24	02:20:56	0	0	5e1582d9805a30b7d0c8b9c7	2	1	DL_practice	11	DL_practice	4			0		pa	1	1186	6	4	antiphase_hc_sio.wav	1	6	6	noise_calib_stim_RIGHT.wav	2	29	blb_dichoticlistening_pa-pa.mp3	pa	pa	0	left
6.6.1	mac	2023-06-24	02:20:56	0	0	5e1582d9805a30b7d0c8b9c7	2	1	DL_practice	11	DL_practice	5			0		da	1	970	6	4	antiphase_hc_sio.wav	1	6	6	noise_calib_stim_RIGHT.wav	2	8	blb_dichoticlistening_da-da.mp3	da	da	0	left
6.6.1	mac	2023-06-24	02:20:56	0	0	5e1582d9805a30b7d0c8b9c7	2	1	DL_practice	11	DL_practice	6			0		ga	1	903	6	4	antiphase_hc_sio.wav	1	6	6	noise_calib_stim_RIGHT.wav	2	15	blb_dichoticlistening_ga-ga.mp3	ga	ga	0	left
6.6.1	mac	2023-06-24	02:20:56	0	0	5e1582d9805a30b7d0c8b9c7	2	1	DL_practice	11	DL_practice	7			0		ga	1	786	6	4	antiphase_hc_sio.wav	1	6	6	noise_calib_stim_RIGHT.wav	2	18	blb_dichoticlistening_ga-ta.mp3	ga	ta	1	left
6.6.1	mac	2023-06-24	02:20:56	0	0	5e1582d9805a30b7d0c8b9c7	2	1	DL_practice	11	DL_practice	8			0		ta	1	1419	6	4	antiphase_hc_sio.wav	1	6	6	noise_calib_stim_RIGHT.wav	2	36	blb_dichoticlistening_ta-ta.mp3	ta	ta	0	left
6.6.1	mac	2023-06-24	02:20:56	0	0	5e1582d9805a30b7d0c8b9c7	2	1	DL_practice	11	DL_practice	9			0		ka	1	1136	6	4	antiphase_hc_sio.wav	1	6	6	noise_calib_stim_RIGHT.wav	2	22	blb_dichoticlistening_ka-ka.mp3	ka	ka	0	left
6.6.1	mac	2023-06-24	02:20:56	0	0	5e1582d9805a30b7d0c8b9c7	2	1	DL_practice	11	DL_practice	10			0		ba	1	1053	6	4	antiphase_hc_sio.wav	1	6	6	noise_calib_stim_RIGHT.wav	2	1	blb_dichoticlistening_ba-ba.mp3	ba	ba	0	left
6.6.1	mac	2023-06-24	02:20:56	0	0	5e1582d9805a30b7d0c8b9c7	2	1	DL_test	13	DL_test	1			0		ga	1	770	6	4	antiphase_hc_sio.wav	1	6	6	noise_calib_stim_RIGHT.wav	2	14	blb_dichoticlistening_ga-da.mp3	ga	da	1	left
6.6.1	mac	2023-06-24	02:20:56	0	0	5e1582d9805a30b7d0c8b9c7	2	1	DL_test	13	DL_test	2			0		ta	1	2486	6	4	antiphase_hc_sio.wav	1	6	6	noise_calib_stim_RIGHT.wav	2	34	blb_dichoticlistening_ta-ka.mp3	ta	ka	1	left
6.6.1	mac	2023-06-24	02:20:56	0	0	5e1582d9805a30b7d0c8b9c7	2	1	DL_test	13	DL_test	3			0		da	1	820	6	4	antiphase_hc_sio.wav	1	6	6	noise_calib_stim_RIGHT.wav	2	32	blb_dichoticlistening_ta-da.mp3	ta	da	1	right
6.6.1	mac	2023-06-24	02:20:56	0	0	5e1582d9805a30b7d0c8b9c7	2	1	DL_test	13	DL_test	4			0		ba	1	1370	6	4	antiphase_hc_sio.wav	1	6	6	noise_calib_stim_RIGHT.wav	2	2	blb_dichoticlistening_ba-da.mp3	ba	da	1	left
6.6.1	mac	2023-06-24	02:20:56	0	0	5e1582d9805a30b7d0c8b9c7	2	1	DL_test	13	DL_test	5			0		ga	1	753	6	4	antiphase_hc_sio.wav	1	6	6	noise_calib_stim_RIGHT.wav	2	18	blb_dichoticlistening_ga-ta.mp3	ga	ta	1	left
6.6.1	mac	2023-06-24	02:20:56	0	0	5e1582d9805a30b7d0c8b9c7	2	1	DL_test	13	DL_test	6			0		ka	0	2120	6	4	antiphase_hc_sio.wav	1	6	6	noise_calib_stim_RIGHT.wav	2	31	blb_dichoticlistening_ta-ba.mp3	ta	ba	1	other
6.6.1	mac	2023-06-24	02:20:56	0	0	5e1582d9805a30b7d0c8b9c7	2	1	DL_test	13	DL_test	7			0		ga	1	804	6	4	antiphase_hc_sio.wav	1	6	6	noise_calib_stim_RIGHT.wav	2	33	blb_dichoticlistening_ta-ga.mp3	ta	ga	1	right
6.6.1	mac	2023-06-24	02:20:56	0	0	5e1582d9805a30b7d0c8b9c7	2	1	DL_test	13	DL_test	8			0		pa	1	836	6	4	antiphase_hc_sio.wav	1	6	6	noise_calib_stim_RIGHT.wav	2	29	blb_dichoticlistening_pa-pa.mp3	pa	pa	0	left
6.6.1	mac	2023-06-24	02:20:56	0	0	5e1582d9805a30b7d0c8b9c7	2	1	DL_test	13	DL_test	9			0		ba	1	1370	6	4	antiphase_hc_sio.wav	1	6	6	noise_calib_stim_RIGHT.wav	2	3	blb_dichoticlistening_ba-ga.mp3	ba	ga	1	left
6.6.1	mac	2023-06-24	02:20:56	0	0	5e1582d9805a30b7d0c8b9c7	2	1	DL_test	13	DL_test	10			0		ka	1	1072	6	4	antiphase_hc_sio.wav	1	6	6	noise_calib_stim_RIGHT.wav	2	23	blb_dichoticlistening_ka-pa.mp3	ka	pa	1	left
6.6.1	mac	2023-06-24	02:20:56	0	0	5e1582d9805a30b7d0c8b9c7	2	1	DL_test	13	DL_test	11			0		ta	1	1420	6	4	antiphase_hc_sio.wav	1	6	6	noise_calib_stim_RIGHT.wav	2	35	blb_dichoticlistening_ta-pa.mp3	ta	pa	1	left
6.6.1	mac	2023-06-24	02:20:56	0	0	5e1582d9805a30b7d0c8b9c7	2	1	DL_test	13	DL_test	12			0		ba	1	803	6	4	antiphase_hc_sio.wav	1	6	6	noise_calib_stim_RIGHT.wav	2	13	blb_dichoticlistening_ga-ba.mp3	ga	ba	1	right
6.6.1	mac	2023-06-24	02:20:56	0	0	5e1582d9805a30b7d0c8b9c7	2	1	DL_test	13	DL_test	13			0		ga	1	737	6	4	antiphase_hc_sio.wav	1	6	6	noise_calib_stim_RIGHT.wav	2	27	blb_dichoticlistening_pa-ga.mp3	pa	ga	1	right
6.6.1	mac	2023-06-24	02:20:56	0	0	5e1582d9805a30b7d0c8b9c7	2	1	DL_test	13	DL_test	14			0		ga	1	537	6	4	antiphase_hc_sio.wav	1	6	6	noise_calib_stim_RIGHT.wav	2	9	blb_dichoticlistening_da-ga.mp3	da	ga	1	right
6.6.1	mac	2023-06-24	02:20:56	0	0	5e1582d9805a30b7d0c8b9c7	2	1	DL_test	13	DL_test	15			0		da	1	804	6	4	antiphase_hc_sio.wav	1	6	6	noise_calib_stim_RIGHT.wav	2	12	blb_dichoticlistening_da-ta.mp3	da	ta	1	left
6.6.1	mac	2023-06-24	02:20:56	0	0	5e1582d9805a30b7d0c8b9c7	2	1	DL_test	13	DL_test	16			0		da	1	570	6	4	antiphase_hc_sio.wav	1	6	6	noise_calib_stim_RIGHT.wav	2	10	blb_dichoticlistening_da-ka.mp3	da	ka	1	left
6.6.1	mac	2023-06-24	02:20:56	0	0	5e1582d9805a30b7d0c8b9c7	2	1	DL_test	13	DL_test	17			0		ga	1	1438	6	4	antiphase_hc_sio.wav	1	6	6	noise_calib_stim_RIGHT.wav	2	21	blb_dichoticlistening_ka-ga.mp3	ka	ga	1	right
6.6.1	mac	2023-06-24	02:20:56	0	0	5e1582d9805a30b7d0c8b9c7	2	1	DL_test	13	DL_test	18			0		ga	0	1204	6	4	antiphase_hc_sio.wav	1	6	6	noise_calib_stim_RIGHT.wav	2	11	blb_dichoticlistening_da-pa.mp3	da	pa	1	other
6.6.1	mac	2023-06-24	02:20:56	0	0	5e1582d9805a30b7d0c8b9c7	2	1	DL_test	13	DL_test	19			0		ka	1	1320	6	4	antiphase_hc_sio.wav	1	6	6	noise_calib_stim_RIGHT.wav	2	4	blb_dichoticlistening_ba-ka.mp3	ba	ka	1	right
6.6.1	mac	2023-06-24	02:20:56	0	0	5e1582d9805a30b7d0c8b9c7	2	1	DL_test	13	DL_test	20			0		ba	1	904	6	4	antiphase_hc_sio.wav	1	6	6	noise_calib_stim_RIGHT.wav	2	25	blb_dichoticlistening_pa-ba.mp3	pa	ba	1	right
6.6.1	mac	2023-06-24	02:20:56	0	0	5e1582d9805a30b7d0c8b9c7	2	1	DL_test	13	DL_test	21			0		ba	1	621	6	4	antiphase_hc_sio.wav	1	6	6	noise_calib_stim_RIGHT.wav	2	1	blb_dichoticlistening_ba-ba.mp3	ba	ba	0	left
6.6.1	mac	2023-06-24	02:20:56	0	0	5e1582d9805a30b7d0c8b9c7	2	1	DL_test	13	DL_test	22			0		ba	1	971	6	4	antiphase_hc_sio.wav	1	6	6	noise_calib_stim_RIGHT.wav	2	19	blb_dichoticlistening_ka-ba.mp3	ka	ba	1	right
6.6.1	mac	2023-06-24	02:20:56	0	0	5e1582d9805a30b7d0c8b9c7	2	1	DL_test	13	DL_test	23			0		ta	1	1854	6	4	antiphase_hc_sio.wav	1	6	6	noise_calib_stim_RIGHT.wav	2	30	blb_dichoticlistening_pa-ta.mp3	pa	ta	1	right
6.6.1	mac	2023-06-24	02:20:56	0	0	5e1582d9805a30b7d0c8b9c7	2	1	DL_test	13	DL_test	24			0		pa	0	1687	6	4	antiphase_hc_sio.wav	1	6	6	noise_calib_stim_RIGHT.wav	2	6	blb_dichoticlistening_ba-ta.mp3	ba	ta	1	other
6.6.1	mac	2023-06-24	02:20:56	0	0	5e1582d9805a30b7d0c8b9c7	2	1	DL_test	13	DL_test	25			0		ga	1	754	6	4	antiphase_hc_sio.wav	1	6	6	noise_calib_stim_RIGHT.wav	2	15	blb_dichoticlistening_ga-ga.mp3	ga	ga	0	left
6.6.1	mac	2023-06-24	02:20:56	0	0	5e1582d9805a30b7d0c8b9c7	2	1	DL_test	13	DL_test	26			0		ga	1	820	6	4	antiphase_hc_sio.wav	1	6	6	noise_calib_stim_RIGHT.wav	2	16	blb_dichoticlistening_ga-ka.mp3	ga	ka	1	left
6.6.1	mac	2023-06-24	02:20:56	0	0	5e1582d9805a30b7d0c8b9c7	2	1	DL_test	13	DL_test	27			0		ga	0	754	6	4	antiphase_hc_sio.wav	1	6	6	noise_calib_stim_RIGHT.wav	2	20	blb_dichoticlistening_ka-da.mp3	ka	da	1	other
6.6.1	mac	2023-06-24	02:20:56	0	0	5e1582d9805a30b7d0c8b9c7	2	1	DL_test	13	DL_test	28			0		ta	1	1054	6	4	antiphase_hc_sio.wav	1	6	6	noise_calib_stim_RIGHT.wav	2	36	blb_dichoticlistening_ta-ta.mp3	ta	ta	0	left
6.6.1	mac	2023-06-24	02:20:56	0	0	5e1582d9805a30b7d0c8b9c7	2	1	DL_test	13	DL_test	29			0		ba	1	1337	6	4	antiphase_hc_sio.wav	1	6	6	noise_calib_stim_RIGHT.wav	2	5	blb_dichoticlistening_ba-pa.mp3	ba	pa	1	left
6.6.1	mac	2023-06-24	02:20:56	0	0	5e1582d9805a30b7d0c8b9c7	2	1	DL_test	13	DL_test	30			0		ka	1	1204	6	4	antiphase_hc_sio.wav	1	6	6	noise_calib_stim_RIGHT.wav	2	22	blb_dichoticlistening_ka-ka.mp3	ka	ka	0	left
6.6.1	mac	2023-06-24	02:20:56	0	0	5e1582d9805a30b7d0c8b9c7	2	1	DL_test	13	DL_test	31			0		ga	0	803	6	4	antiphase_hc_sio.wav	1	6	6	noise_calib_stim_RIGHT.wav	2	26	blb_dichoticlistening_pa-da.mp3	pa	da	1	other
6.6.1	mac	2023-06-24	02:20:56	0	0	5e1582d9805a30b7d0c8b9c7	2	1	DL_test	13	DL_test	32			0		ba	1	1020	6	4	antiphase_hc_sio.wav	1	6	6	noise_calib_stim_RIGHT.wav	2	7	blb_dichoticlistening_da-ba.mp3	da	ba	1	right
6.6.1	mac	2023-06-24	02:20:56	0	0	5e1582d9805a30b7d0c8b9c7	2	1	DL_test	13	DL_test	33			0		ga	1	920	6	4	antiphase_hc_sio.wav	1	6	6	noise_calib_stim_RIGHT.wav	2	17	blb_dichoticlistening_ga-pa.mp3	ga	pa	1	left
6.6.1	mac	2023-06-24	02:20:56	0	0	5e1582d9805a30b7d0c8b9c7	2	1	DL_test	13	DL_test	34			0		ga	0	788	6	4	antiphase_hc_sio.wav	1	6	6	noise_calib_stim_RIGHT.wav	2	8	blb_dichoticlistening_da-da.mp3	da	da	0	other
6.6.1	mac	2023-06-24	02:20:56	0	0	5e1582d9805a30b7d0c8b9c7	2	1	DL_test	13	DL_test	35			0		ka	1	837	6	4	antiphase_hc_sio.wav	1	6	6	noise_calib_stim_RIGHT.wav	2	24	blb_dichoticlistening_ka-ta.mp3	ka	ta	1	left
6.6.1	mac	2023-06-24	02:20:56	0	0	5e1582d9805a30b7d0c8b9c7	2	1	DL_test	13	DL_test	36			0		ka	1	688	6	4	antiphase_hc_sio.wav	1	6	6	noise_calib_stim_RIGHT.wav	2	28	blb_dichoticlistening_pa-ka.mp3	pa	ka	1	right
6.6.1	mac	2023-06-24	02:20:56	0	0	5e1582d9805a30b7d0c8b9c7	2	1	DL_test	14	DL_test	1			0		ga	1	1003	6	4	antiphase_hc_sio.wav	1	6	6	noise_calib_stim_RIGHT.wav	2	33	blb_dichoticlistening_ta-ga.mp3	ta	ga	1	right
6.6.1	mac	2023-06-24	02:20:56	0	0	5e1582d9805a30b7d0c8b9c7	2	1	DL_test	14	DL_test	2			0		ba	1	1471	6	4	antiphase_hc_sio.wav	1	6	6	noise_calib_stim_RIGHT.wav	2	19	blb_dichoticlistening_ka-ba.mp3	ka	ba	1	right
6.6.1	mac	2023-06-24	02:20:56	0	0	5e1582d9805a30b7d0c8b9c7	2	1	DL_test	14	DL_test	3			0		ka	1	787	6	4	antiphase_hc_sio.wav	1	6	6	noise_calib_stim_RIGHT.wav	2	23	blb_dichoticlistening_ka-pa.mp3	ka	pa	1	left
6.6.1	mac	2023-06-24	02:20:56	0	0	5e1582d9805a30b7d0c8b9c7	2	1	DL_test	14	DL_test	4			0		ba	1	2104	6	4	antiphase_hc_sio.wav	1	6	6	noise_calib_stim_RIGHT.wav	2	3	blb_dichoticlistening_ba-ga.mp3	ba	ga	1	left
6.6.1	mac	2023-06-24	02:20:56	0	0	5e1582d9805a30b7d0c8b9c7	2	1	DL_test	14	DL_test	5			0		ga	0	871	6	4	antiphase_hc_sio.wav	1	6	6	noise_calib_stim_RIGHT.wav	2	11	blb_dichoticlistening_da-pa.mp3	da	pa	1	other
6.6.1	mac	2023-06-24	02:20:56	0	0	5e1582d9805a30b7d0c8b9c7	2	1	DL_test	14	DL_test	6			0		ta	1	1404	6	4	antiphase_hc_sio.wav	1	6	6	noise_calib_stim_RIGHT.wav	2	31	blb_dichoticlistening_ta-ba.mp3	ta	ba	1	left
6.6.1	mac	2023-06-24	02:20:56	0	0	5e1582d9805a30b7d0c8b9c7	2	1	DL_test	14	DL_test	7			0		ba	1	954	6	4	antiphase_hc_sio.wav	1	6	6	noise_calib_stim_RIGHT.wav	2	2	blb_dichoticlistening_ba-da.mp3	ba	da	1	left
6.6.1	mac	2023-06-24	02:20:56	0	0	5e1582d9805a30b7d0c8b9c7	2	1	DL_test	14	DL_test	8			0		ka	1	1320	6	4	antiphase_hc_sio.wav	1	6	6	noise_calib_stim_RIGHT.wav	2	4	blb_dichoticlistening_ba-ka.mp3	ba	ka	1	right
6.6.1	mac	2023-06-24	02:20:56	0	0	5e1582d9805a30b7d0c8b9c7	2	1	DL_test	14	DL_test	9			0		ga	1	870	6	4	antiphase_hc_sio.wav	1	6	6	noise_calib_stim_RIGHT.wav	2	27	blb_dichoticlistening_pa-ga.mp3	pa	ga	1	right
6.6.1	mac	2023-06-24	02:20:56	0	0	5e1582d9805a30b7d0c8b9c7	2	1	DL_test	14	DL_test	10			0		pa	1	854	6	4	antiphase_hc_sio.wav	1	6	6	noise_calib_stim_RIGHT.wav	2	29	blb_dichoticlistening_pa-pa.mp3	pa	pa	0	left
6.6.1	mac	2023-06-24	02:20:56	0	0	5e1582d9805a30b7d0c8b9c7	2	1	DL_test	14	DL_test	11			0		ga	1	954	6	4	antiphase_hc_sio.wav	1	6	6	noise_calib_stim_RIGHT.wav	2	17	blb_dichoticlistening_ga-pa.mp3	ga	pa	1	left
6.6.1	mac	2023-06-24	02:20:56	0	0	5e1582d9805a30b7d0c8b9c7	2	1	DL_test	14	DL_test	12			0		ba	1	1070	6	4	antiphase_hc_sio.wav	1	6	6	noise_calib_stim_RIGHT.wav	2	1	blb_dichoticlistening_ba-ba.mp3	ba	ba	0	left
6.6.1	mac	2023-06-24	02:20:56	0	0	5e1582d9805a30b7d0c8b9c7	2	1	DL_test	14	DL_test	13			0		ga	0	937	6	4	antiphase_hc_sio.wav	1	6	6	noise_calib_stim_RIGHT.wav	2	8	blb_dichoticlistening_da-da.mp3	da	da	0	other
6.6.1	mac	2023-06-24	02:20:56	0	0	5e1582d9805a30b7d0c8b9c7	2	1	DL_test	14	DL_test	14			0		ka	1	787	6	4	antiphase_hc_sio.wav	1	6	6	noise_calib_stim_RIGHT.wav	2	28	blb_dichoticlistening_pa-ka.mp3	pa	ka	1	right
6.6.1	mac	2023-06-24	02:20:56	0	0	5e1582d9805a30b7d0c8b9c7	2	1	DL_test	14	DL_test	15			0		ka	1	921	6	4	antiphase_hc_sio.wav	1	6	6	noise_calib_stim_RIGHT.wav	2	24	blb_dichoticlistening_ka-ta.mp3	ka	ta	1	left
6.6.1	mac	2023-06-24	02:20:56	0	0	5e1582d9805a30b7d0c8b9c7	2	1	DL_test	14	DL_test	16			0		ta	1	1020	6	4	antiphase_hc_sio.wav	1	6	6	noise_calib_stim_RIGHT.wav	2	36	blb_dichoticlistening_ta-ta.mp3	ta	ta	0	left
6.6.1	mac	2023-06-24	02:20:56	0	0	5e1582d9805a30b7d0c8b9c7	2	1	DL_test	14	DL_test	17			0		ta	1	837	6	4	antiphase_hc_sio.wav	1	6	6	noise_calib_stim_RIGHT.wav	2	35	blb_dichoticlistening_ta-pa.mp3	ta	pa	1	left
6.6.1	mac	2023-06-24	02:20:56	0	0	5e1582d9805a30b7d0c8b9c7	2	1	DL_test	14	DL_test	18			0		ga	0	1570	6	4	antiphase_hc_sio.wav	1	6	6	noise_calib_stim_RIGHT.wav	2	20	blb_dichoticlistening_ka-da.mp3	ka	da	1	other
6.6.1	mac	2023-06-24	02:20:56	0	0	5e1582d9805a30b7d0c8b9c7	2	1	DL_test	14	DL_test	19			0		ga	1	788	6	4	antiphase_hc_sio.wav	1	6	6	noise_calib_stim_RIGHT.wav	2	14	blb_dichoticlistening_ga-da.mp3	ga	da	1	left
6.6.1	mac	2023-06-24	02:20:56	0	0	5e1582d9805a30b7d0c8b9c7	2	1	DL_test	14	DL_test	20			0		ga	1	721	6	4	antiphase_hc_sio.wav	1	6	6	noise_calib_stim_RIGHT.wav	2	9	blb_dichoticlistening_da-ga.mp3	da	ga	1	right
6.6.1	mac	2023-06-24	02:20:56	0	0	5e1582d9805a30b7d0c8b9c7	2	1	DL_test	14	DL_test	21			0		ba	1	1320	6	4	antiphase_hc_sio.wav	1	6	6	noise_calib_stim_RIGHT.wav	2	7	blb_dichoticlistening_da-ba.mp3	da	ba	1	right
6.6.1	mac	2023-06-24	02:20:56	0	0	5e1582d9805a30b7d0c8b9c7	2	1	DL_test	14	DL_test	22			0		ka	1	1404	6	4	antiphase_hc_sio.wav	1	6	6	noise_calib_stim_RIGHT.wav	2	34	blb_dichoticlistening_ta-ka.mp3	ta	ka	1	right
6.6.1	mac	2023-06-24	02:20:56	0	0	5e1582d9805a30b7d0c8b9c7	2	1	DL_test	14	DL_test	23			0		ga	0	3756	6	4	antiphase_hc_sio.wav	1	6	6	noise_calib_stim_RIGHT.wav	2	12	blb_dichoticlistening_da-ta.mp3	da	ta	1	other
6.6.1	mac	2023-06-24	02:20:56	0	0	5e1582d9805a30b7d0c8b9c7	2	1	DL_test	14	DL_test	24			0		ba	1	1155	6	4	antiphase_hc_sio.wav	1	6	6	noise_calib_stim_RIGHT.wav	2	13	blb_dichoticlistening_ga-ba.mp3	ga	ba	1	right
6.6.1	mac	2023-06-24	02:20:56	0	0	5e1582d9805a30b7d0c8b9c7	2	1	DL_test	14	DL_test	25			0		ka	1	904	6	4	antiphase_hc_sio.wav	1	6	6	noise_calib_stim_RIGHT.wav	2	22	blb_dichoticlistening_ka-ka.mp3	ka	ka	0	left
6.6.1	mac	2023-06-24	02:20:56	0	0	5e1582d9805a30b7d0c8b9c7	2	1	DL_test	14	DL_test	26			0		ba	1	1287	6	4	antiphase_hc_sio.wav	1	6	6	noise_calib_stim_RIGHT.wav	2	25	blb_dichoticlistening_pa-ba.mp3	pa	ba	1	right
6.6.1	mac	2023-06-24	02:20:56	0	0	5e1582d9805a30b7d0c8b9c7	2	1	DL_test	14	DL_test	27			0		ga	1	788	6	4	antiphase_hc_sio.wav	1	6	6	noise_calib_stim_RIGHT.wav	2	21	blb_dichoticlistening_ka-ga.mp3	ka	ga	1	right
6.6.1	mac	2023-06-24	02:20:56	0	0	5e1582d9805a30b7d0c8b9c7	2	1	DL_test	14	DL_test	28			0		ga	1	938	6	4	antiphase_hc_sio.wav	1	6	6	noise_calib_stim_RIGHT.wav	2	18	blb_dichoticlistening_ga-ta.mp3	ga	ta	1	left
6.6.1	mac	2023-06-24	02:20:56	0	0	5e1582d9805a30b7d0c8b9c7	2	1	DL_test	14	DL_test	29			0		ga	1	655	6	4	antiphase_hc_sio.wav	1	6	6	noise_calib_stim_RIGHT.wav	2	16	blb_dichoticlistening_ga-ka.mp3	ga	ka	1	left
6.6.1	mac	2023-06-24	02:20:56	0	0	5e1582d9805a30b7d0c8b9c7	2	1	DL_test	14	DL_test	30			0		ga	1	754	6	4	antiphase_hc_sio.wav	1	6	6	noise_calib_stim_RIGHT.wav	2	15	blb_dichoticlistening_ga-ga.mp3	ga	ga	0	left
6.6.1	mac	2023-06-24	02:20:56	0	0	5e1582d9805a30b7d0c8b9c7	2	1	DL_test	14	DL_test	31			0		ba	1	971	6	4	antiphase_hc_sio.wav	1	6	6	noise_calib_stim_RIGHT.wav	2	5	blb_dichoticlistening_ba-pa.mp3	ba	pa	1	left
6.6.1	mac	2023-06-24	02:20:56	0	0	5e1582d9805a30b7d0c8b9c7	2	1	DL_test	14	DL_test	32			0		ba	0	955	6	4	antiphase_hc_sio.wav	1	6	6	noise_calib_stim_RIGHT.wav	2	10	blb_dichoticlistening_da-ka.mp3	da	ka	1	other
6.6.1	mac	2023-06-24	02:20:56	0	0	5e1582d9805a30b7d0c8b9c7	2	1	DL_test	14	DL_test	33			0		ga	0	821	6	4	antiphase_hc_sio.wav	1	6	6	noise_calib_stim_RIGHT.wav	2	26	blb_dichoticlistening_pa-da.mp3	pa	da	1	other
6.6.1	mac	2023-06-24	02:20:56	0	0	5e1582d9805a30b7d0c8b9c7	2	1	DL_test	14	DL_test	34			0		ba	1	1205	6	4	antiphase_hc_sio.wav	1	6	6	noise_calib_stim_RIGHT.wav	2	6	blb_dichoticlistening_ba-ta.mp3	ba	ta	1	left
6.6.1	mac	2023-06-24	02:20:56	0	0	5e1582d9805a30b7d0c8b9c7	2	1	DL_test	14	DL_test	35			0		ga	0	787	6	4	antiphase_hc_sio.wav	1	6	6	noise_calib_stim_RIGHT.wav	2	32	blb_dichoticlistening_ta-da.mp3	ta	da	1	other
6.6.1	mac	2023-06-24	02:20:56	0	0	5e1582d9805a30b7d0c8b9c7	2	1	DL_test	14	DL_test	36			0		ta	1	1321	6	4	antiphase_hc_sio.wav	1	6	6	noise_calib_stim_RIGHT.wav	2	30	blb_dichoticlistening_pa-ta.mp3	pa	ta	1	right
6.6.1	mac	2023-06-24	02:20:56	0	0	5e1582d9805a30b7d0c8b9c7	2	1	DL_test	15	DL_test	1			0		ga	1	704	6	4	antiphase_hc_sio.wav	1	6	6	noise_calib_stim_RIGHT.wav	2	21	blb_dichoticlistening_ka-ga.mp3	ka	ga	1	right
6.6.1	mac	2023-06-24	02:20:56	0	0	5e1582d9805a30b7d0c8b9c7	2	1	DL_test	15	DL_test	2			0		ga	0	438	6	4	antiphase_hc_sio.wav	1	6	6	noise_calib_stim_RIGHT.wav	2	32	blb_dichoticlistening_ta-da.mp3	ta	da	1	other
6.6.1	mac	2023-06-24	02:20:56	0	0	5e1582d9805a30b7d0c8b9c7	2	1	DL_test	15	DL_test	3			0		ga	1	588	6	4	antiphase_hc_sio.wav	1	6	6	noise_calib_stim_RIGHT.wav	2	17	blb_dichoticlistening_ga-pa.mp3	ga	pa	1	left
6.6.1	mac	2023-06-24	02:20:56	0	0	5e1582d9805a30b7d0c8b9c7	2	1	DL_test	15	DL_test	4			0		ga	1	505	6	4	antiphase_hc_sio.wav	1	6	6	noise_calib_stim_RIGHT.wav	2	14	blb_dichoticlistening_ga-da.mp3	ga	da	1	left
6.6.1	mac	2023-06-24	02:20:56	0	0	5e1582d9805a30b7d0c8b9c7	2	1	DL_test	15	DL_test	5			0		ga	1	605	6	4	antiphase_hc_sio.wav	1	6	6	noise_calib_stim_RIGHT.wav	2	18	blb_dichoticlistening_ga-ta.mp3	ga	ta	1	left
6.6.1	mac	2023-06-24	02:20:56	0	0	5e1582d9805a30b7d0c8b9c7	2	1	DL_test	15	DL_test	6			0		ka	1	1288	6	4	antiphase_hc_sio.wav	1	6	6	noise_calib_stim_RIGHT.wav	2	23	blb_dichoticlistening_ka-pa.mp3	ka	pa	1	left
6.6.1	mac	2023-06-24	02:20:56	0	0	5e1582d9805a30b7d0c8b9c7	2	1	DL_test	15	DL_test	7			0		ba	1	1138	6	4	antiphase_hc_sio.wav	1	6	6	noise_calib_stim_RIGHT.wav	2	7	blb_dichoticlistening_da-ba.mp3	da	ba	1	right
6.6.1	mac	2023-06-24	02:20:56	0	0	5e1582d9805a30b7d0c8b9c7	2	1	DL_test	15	DL_test	8			0		da	1	1004	6	4	antiphase_hc_sio.wav	1	6	6	noise_calib_stim_RIGHT.wav	2	12	blb_dichoticlistening_da-ta.mp3	da	ta	1	left
6.6.1	mac	2023-06-24	02:20:56	0	0	5e1582d9805a30b7d0c8b9c7	2	1	DL_test	15	DL_test	9			0		ta	1	1304	6	4	antiphase_hc_sio.wav	1	6	6	noise_calib_stim_RIGHT.wav	2	36	blb_dichoticlistening_ta-ta.mp3	ta	ta	0	left
6.6.1	mac	2023-06-24	02:20:56	0	0	5e1582d9805a30b7d0c8b9c7	2	1	DL_test	15	DL_test	10			0		ba	1	1406	6	4	antiphase_hc_sio.wav	1	6	6	noise_calib_stim_RIGHT.wav	2	13	blb_dichoticlistening_ga-ba.mp3	ga	ba	1	right
6.6.1	mac	2023-06-24	02:20:56	0	0	5e1582d9805a30b7d0c8b9c7	2	1	DL_test	15	DL_test	11			0		ga	0	1054	6	4	antiphase_hc_sio.wav	1	6	6	noise_calib_stim_RIGHT.wav	2	11	blb_dichoticlistening_da-pa.mp3	da	pa	1	other
6.6.1	mac	2023-06-24	02:20:56	0	0	5e1582d9805a30b7d0c8b9c7	2	1	DL_test	15	DL_test	12			0		da	1	1405	6	4	antiphase_hc_sio.wav	1	6	6	noise_calib_stim_RIGHT.wav	2	8	blb_dichoticlistening_da-da.mp3	da	da	0	left
6.6.1	mac	2023-06-24	02:20:56	0	0	5e1582d9805a30b7d0c8b9c7	2	1	DL_test	15	DL_test	13			0		ba	1	1571	6	4	antiphase_hc_sio.wav	1	6	6	noise_calib_stim_RIGHT.wav	2	4	blb_dichoticlistening_ba-ka.mp3	ba	ka	1	left
6.6.1	mac	2023-06-24	02:20:56	0	0	5e1582d9805a30b7d0c8b9c7	2	1	DL_test	15	DL_test	14			0		ga	0	1055	6	4	antiphase_hc_sio.wav	1	6	6	noise_calib_stim_RIGHT.wav	2	20	blb_dichoticlistening_ka-da.mp3	ka	da	1	other
6.6.1	mac	2023-06-24	02:20:56	0	0	5e1582d9805a30b7d0c8b9c7	2	1	DL_test	15	DL_test	15			0		ba	1	955	6	4	antiphase_hc_sio.wav	1	6	6	noise_calib_stim_RIGHT.wav	2	1	blb_dichoticlistening_ba-ba.mp3	ba	ba	0	left
6.6.1	mac	2023-06-24	02:20:56	0	0	5e1582d9805a30b7d0c8b9c7	2	1	DL_test	15	DL_test	16			0		ka	1	1271	6	4	antiphase_hc_sio.wav	1	6	6	noise_calib_stim_RIGHT.wav	2	28	blb_dichoticlistening_pa-ka.mp3	pa	ka	1	right
6.6.1	mac	2023-06-24	02:20:56	0	0	5e1582d9805a30b7d0c8b9c7	2	1	DL_test	15	DL_test	17			0		ga	1	989	6	4	antiphase_hc_sio.wav	1	6	6	noise_calib_stim_RIGHT.wav	2	16	blb_dichoticlistening_ga-ka.mp3	ga	ka	1	left
6.6.1	mac	2023-06-24	02:20:56	0	0	5e1582d9805a30b7d0c8b9c7	2	1	DL_test	15	DL_test	18			0		ga	1	972	6	4	antiphase_hc_sio.wav	1	6	6	noise_calib_stim_RIGHT.wav	2	27	blb_dichoticlistening_pa-ga.mp3	pa	ga	1	right
6.6.1	mac	2023-06-24	02:20:56	0	0	5e1582d9805a30b7d0c8b9c7	2	1	DL_test	15	DL_test	19			0		ka	1	1071	6	4	antiphase_hc_sio.wav	1	6	6	noise_calib_stim_RIGHT.wav	2	34	blb_dichoticlistening_ta-ka.mp3	ta	ka	1	right
6.6.1	mac	2023-06-24	02:20:56	0	0	5e1582d9805a30b7d0c8b9c7	2	1	DL_test	15	DL_test	20			0		ba	1	1055	6	4	antiphase_hc_sio.wav	1	6	6	noise_calib_stim_RIGHT.wav	2	3	blb_dichoticlistening_ba-ga.mp3	ba	ga	1	left
6.6.1	mac	2023-06-24	02:20:56	0	0	5e1582d9805a30b7d0c8b9c7	2	1	DL_test	15	DL_test	21			0		ta	1	1972	6	4	antiphase_hc_sio.wav	1	6	6	noise_calib_stim_RIGHT.wav	2	31	blb_dichoticlistening_ta-ba.mp3	ta	ba	1	left
6.6.1	mac	2023-06-24	02:20:56	0	0	5e1582d9805a30b7d0c8b9c7	2	1	DL_test	15	DL_test	22			0		pa	1	1489	6	4	antiphase_hc_sio.wav	1	6	6	noise_calib_stim_RIGHT.wav	2	29	blb_dichoticlistening_pa-pa.mp3	pa	pa	0	left
6.6.1	mac	2023-06-24	02:20:56	0	0	5e1582d9805a30b7d0c8b9c7	2	1	DL_test	15	DL_test	23			0		ta	1	1354	6	4	antiphase_hc_sio.wav	1	6	6	noise_calib_stim_RIGHT.wav	2	30	blb_dichoticlistening_pa-ta.mp3	pa	ta	1	right
6.6.1	mac	2023-06-24	02:20:56	0	0	5e1582d9805a30b7d0c8b9c7	2	1	DL_test	15	DL_test	24			0		pa	1	1605	6	4	antiphase_hc_sio.wav	1	6	6	noise_calib_stim_RIGHT.wav	2	25	blb_dichoticlistening_pa-ba.mp3	pa	ba	1	left
6.6.1	mac	2023-06-24	02:20:56	0	0	5e1582d9805a30b7d0c8b9c7	2	1	DL_test	15	DL_test	25			0		ba	1	1055	6	4	antiphase_hc_sio.wav	1	6	6	noise_calib_stim_RIGHT.wav	2	2	blb_dichoticlistening_ba-da.mp3	ba	da	1	left
6.6.1	mac	2023-06-24	02:20:56	0	0	5e1582d9805a30b7d0c8b9c7	2	1	DL_test	15	DL_test	26			0		ka	1	1038	6	4	antiphase_hc_sio.wav	1	6	6	noise_calib_stim_RIGHT.wav	2	19	blb_dichoticlistening_ka-ba.mp3	ka	ba	1	left
6.6.1	mac	2023-06-24	02:20:56	0	0	5e1582d9805a30b7d0c8b9c7	2	1	DL_test	15	DL_test	27			0		ka	1	838	6	4	antiphase_hc_sio.wav	1	6	6	noise_calib_stim_RIGHT.wav	2	22	blb_dichoticlistening_ka-ka.mp3	ka	ka	0	left
6.6.1	mac	2023-06-24	02:20:56	0	0	5e1582d9805a30b7d0c8b9c7	2	1	DL_test	15	DL_test	28			0		pa	1	1004	6	4	antiphase_hc_sio.wav	1	6	6	noise_calib_stim_RIGHT.wav	2	5	blb_dichoticlistening_ba-pa.mp3	ba	pa	1	right
6.6.1	mac	2023-06-24	02:20:56	0	0	5e1582d9805a30b7d0c8b9c7	2	1	DL_test	15	DL_test	29			0		ga	1	1072	6	4	antiphase_hc_sio.wav	1	6	6	noise_calib_stim_RIGHT.wav	2	33	blb_dichoticlistening_ta-ga.mp3	ta	ga	1	right
6.6.1	mac	2023-06-24	02:20:56	0	0	5e1582d9805a30b7d0c8b9c7	2	1	DL_test	15	DL_test	30			0		ta	1	1255	6	4	antiphase_hc_sio.wav	1	6	6	noise_calib_stim_RIGHT.wav	2	6	blb_dichoticlistening_ba-ta.mp3	ba	ta	1	right
6.6.1	mac	2023-06-24	02:20:56	0	0	5e1582d9805a30b7d0c8b9c7	2	1	DL_test	15	DL_test	31			0		ga	0	1004	6	4	antiphase_hc_sio.wav	1	6	6	noise_calib_stim_RIGHT.wav	2	10	blb_dichoticlistening_da-ka.mp3	da	ka	1	other
6.6.1	mac	2023-06-24	02:20:56	0	0	5e1582d9805a30b7d0c8b9c7	2	1	DL_test	15	DL_test	32			0		ga	1	538	6	4	antiphase_hc_sio.wav	1	6	6	noise_calib_stim_RIGHT.wav	2	9	blb_dichoticlistening_da-ga.mp3	da	ga	1	right
6.6.1	mac	2023-06-24	02:20:56	0	0	5e1582d9805a30b7d0c8b9c7	2	1	DL_test	15	DL_test	33			0		ga	1	505	6	4	antiphase_hc_sio.wav	1	6	6	noise_calib_stim_RIGHT.wav	2	15	blb_dichoticlistening_ga-ga.mp3	ga	ga	0	left
6.6.1	mac	2023-06-24	02:20:56	0	0	5e1582d9805a30b7d0c8b9c7	2	1	DL_test	15	DL_test	34			0		ta	1	1256	6	4	antiphase_hc_sio.wav	1	6	6	noise_calib_stim_RIGHT.wav	2	35	blb_dichoticlistening_ta-pa.mp3	ta	pa	1	left
6.6.1	mac	2023-06-24	02:20:56	0	0	5e1582d9805a30b7d0c8b9c7	2	1	DL_test	15	DL_test	35			0		ta	1	888	6	4	antiphase_hc_sio.wav	1	6	6	noise_calib_stim_RIGHT.wav	2	24	blb_dichoticlistening_ka-ta.mp3	ka	ta	1	right
6.6.1	mac	2023-06-24	02:20:56	0	0	5e1582d9805a30b7d0c8b9c7	2	1	DL_test	15	DL_test	36			0		ga	0	1105	6	4	antiphase_hc_sio.wav	1	6	6	noise_calib_stim_RIGHT.wav	2	26	blb_dichoticlistening_pa-da.mp3	pa	da	1	other
6.6.1	mac	2023-06-24	02:20:56	0	0	5e1582d9805a30b7d0c8b9c7	2	1	DL_test	16	DL_test	1			0		ka	0	2722	6	4	antiphase_hc_sio.wav	1	6	6	noise_calib_stim_RIGHT.wav	2	6	blb_dichoticlistening_ba-ta.mp3	ba	ta	1	other
6.6.1	mac	2023-06-24	02:20:56	0	0	5e1582d9805a30b7d0c8b9c7	2	1	DL_test	16	DL_test	2			0		ga	0	956	6	4	antiphase_hc_sio.wav	1	6	6	noise_calib_stim_RIGHT.wav	2	20	blb_dichoticlistening_ka-da.mp3	ka	da	1	other
6.6.1	mac	2023-06-24	02:20:56	0	0	5e1582d9805a30b7d0c8b9c7	2	1	DL_test	16	DL_test	3			0		ga	0	538	6	4	antiphase_hc_sio.wav	1	6	6	noise_calib_stim_RIGHT.wav	2	10	blb_dichoticlistening_da-ka.mp3	da	ka	1	other
6.6.1	mac	2023-06-24	02:20:56	0	0	5e1582d9805a30b7d0c8b9c7	2	1	DL_test	16	DL_test	4			0		ga	1	555	6	4	antiphase_hc_sio.wav	1	6	6	noise_calib_stim_RIGHT.wav	2	17	blb_dichoticlistening_ga-pa.mp3	ga	pa	1	left
6.6.1	mac	2023-06-24	02:20:56	0	0	5e1582d9805a30b7d0c8b9c7	2	1	DL_test	16	DL_test	5			0		ta	1	988	6	4	antiphase_hc_sio.wav	1	6	6	noise_calib_stim_RIGHT.wav	2	30	blb_dichoticlistening_pa-ta.mp3	pa	ta	1	right
6.6.1	mac	2023-06-24	02:20:56	0	0	5e1582d9805a30b7d0c8b9c7	2	1	DL_test	16	DL_test	6			0		ga	1	905	6	4	antiphase_hc_sio.wav	1	6	6	noise_calib_stim_RIGHT.wav	2	18	blb_dichoticlistening_ga-ta.mp3	ga	ta	1	left
6.6.1	mac	2023-06-24	02:20:56	0	0	5e1582d9805a30b7d0c8b9c7	2	1	DL_test	16	DL_test	7			0		ga	0	689	6	4	antiphase_hc_sio.wav	1	6	6	noise_calib_stim_RIGHT.wav	2	8	blb_dichoticlistening_da-da.mp3	da	da	0	other
6.6.1	mac	2023-06-24	02:20:56	0	0	5e1582d9805a30b7d0c8b9c7	2	1	DL_test	16	DL_test	8			0		ka	1	989	6	4	antiphase_hc_sio.wav	1	6	6	noise_calib_stim_RIGHT.wav	2	28	blb_dichoticlistening_pa-ka.mp3	pa	ka	1	right
6.6.1	mac	2023-06-24	02:20:56	0	0	5e1582d9805a30b7d0c8b9c7	2	1	DL_test	16	DL_test	9			0		ba	1	1789	6	4	antiphase_hc_sio.wav	1	6	6	noise_calib_stim_RIGHT.wav	2	1	blb_dichoticlistening_ba-ba.mp3	ba	ba	0	left
6.6.1	mac	2023-06-24	02:20:56	0	0	5e1582d9805a30b7d0c8b9c7	2	1	DL_test	16	DL_test	10			0		ga	1	822	6	4	antiphase_hc_sio.wav	1	6	6	noise_calib_stim_RIGHT.wav	2	9	blb_dichoticlistening_da-ga.mp3	da	ga	1	right
6.6.1	mac	2023-06-24	02:20:56	0	0	5e1582d9805a30b7d0c8b9c7	2	1	DL_test	16	DL_test	11			0		ga	1	555	6	4	antiphase_hc_sio.wav	1	6	6	noise_calib_stim_RIGHT.wav	2	14	blb_dichoticlistening_ga-da.mp3	ga	da	1	left
6.6.1	mac	2023-06-24	02:20:56	0	0	5e1582d9805a30b7d0c8b9c7	2	1	DL_test	16	DL_test	12			0		ka	1	1055	6	4	antiphase_hc_sio.wav	1	6	6	noise_calib_stim_RIGHT.wav	2	23	blb_dichoticlistening_ka-pa.mp3	ka	pa	1	left
6.6.1	mac	2023-06-24	02:20:56	0	0	5e1582d9805a30b7d0c8b9c7	2	1	DL_test	16	DL_test	13			0		ka	1	639	6	4	antiphase_hc_sio.wav	1	6	6	noise_calib_stim_RIGHT.wav	2	21	blb_dichoticlistening_ka-ga.mp3	ka	ga	1	left
6.6.1	mac	2023-06-24	02:20:56	0	0	5e1582d9805a30b7d0c8b9c7	2	1	DL_test	16	DL_test	14			0		ga	1	1023	6	4	antiphase_hc_sio.wav	1	6	6	noise_calib_stim_RIGHT.wav	2	16	blb_dichoticlistening_ga-ka.mp3	ga	ka	1	left
6.6.1	mac	2023-06-24	02:20:56	0	0	5e1582d9805a30b7d0c8b9c7	2	1	DL_test	16	DL_test	15			0		ta	1	1256	6	4	antiphase_hc_sio.wav	1	6	6	noise_calib_stim_RIGHT.wav	2	36	blb_dichoticlistening_ta-ta.mp3	ta	ta	0	left
6.6.1	mac	2023-06-24	02:20:56	0	0	5e1582d9805a30b7d0c8b9c7	2	1	DL_test	16	DL_test	16			0		ga	1	472	6	4	antiphase_hc_sio.wav	1	6	6	noise_calib_stim_RIGHT.wav	2	33	blb_dichoticlistening_ta-ga.mp3	ta	ga	1	right
6.6.1	mac	2023-06-24	02:20:56	0	0	5e1582d9805a30b7d0c8b9c7	2	1	DL_test	16	DL_test	17			0		ba	1	1105	6	4	antiphase_hc_sio.wav	1	6	6	noise_calib_stim_RIGHT.wav	2	19	blb_dichoticlistening_ka-ba.mp3	ka	ba	1	right
6.6.1	mac	2023-06-24	02:20:56	0	0	5e1582d9805a30b7d0c8b9c7	2	1	DL_test	16	DL_test	18			0		ba	1	1005	6	4	antiphase_hc_sio.wav	1	6	6	noise_calib_stim_RIGHT.wav	2	2	blb_dichoticlistening_ba-da.mp3	ba	da	1	left
6.6.1	mac	2023-06-24	02:20:56	0	0	5e1582d9805a30b7d0c8b9c7	2	1	DL_test	16	DL_test	19			0		ba	1	538	6	4	antiphase_hc_sio.wav	1	6	6	noise_calib_stim_RIGHT.wav	2	7	blb_dichoticlistening_da-ba.mp3	da	ba	1	right
6.6.1	mac	2023-06-24	02:20:56	0	0	5e1582d9805a30b7d0c8b9c7	2	1	DL_test	16	DL_test	20			0		ba	1	588	6	4	antiphase_hc_sio.wav	1	6	6	noise_calib_stim_RIGHT.wav	2	25	blb_dichoticlistening_pa-ba.mp3	pa	ba	1	right
6.6.1	mac	2023-06-24	02:20:56	0	0	5e1582d9805a30b7d0c8b9c7	2	1	DL_test	16	DL_test	21			0		ga	1	1072	6	4	antiphase_hc_sio.wav	1	6	6	noise_calib_stim_RIGHT.wav	2	15	blb_dichoticlistening_ga-ga.mp3	ga	ga	0	left
6.6.1	mac	2023-06-24	02:20:56	0	0	5e1582d9805a30b7d0c8b9c7	2	1	DL_test	16	DL_test	22			0		ga	1	855	6	4	antiphase_hc_sio.wav	1	6	6	noise_calib_stim_RIGHT.wav	2	3	blb_dichoticlistening_ba-ga.mp3	ba	ga	1	right
6.6.1	mac	2023-06-24	02:20:56	0	0	5e1582d9805a30b7d0c8b9c7	2	1	DL_test	16	DL_test	23			0		ga	1	522	6	4	antiphase_hc_sio.wav	1	6	6	noise_calib_stim_RIGHT.wav	2	27	blb_dichoticlistening_pa-ga.mp3	pa	ga	1	right
6.6.1	mac	2023-06-24	02:20:56	0	0	5e1582d9805a30b7d0c8b9c7	2	1	DL_test	16	DL_test	24			0		da	1	1089	6	4	antiphase_hc_sio.wav	1	6	6	noise_calib_stim_RIGHT.wav	2	32	blb_dichoticlistening_ta-da.mp3	ta	da	1	right
6.6.1	mac	2023-06-24	02:20:56	0	0	5e1582d9805a30b7d0c8b9c7	2	1	DL_test	16	DL_test	25			0		ta	0	2872	6	4	antiphase_hc_sio.wav	1	6	6	noise_calib_stim_RIGHT.wav	2	11	blb_dichoticlistening_da-pa.mp3	da	pa	1	other
6.6.1	mac	2023-06-24	02:20:56	0	0	5e1582d9805a30b7d0c8b9c7	2	1	DL_test	16	DL_test	26			0		da	1	1156	6	4	antiphase_hc_sio.wav	1	6	6	noise_calib_stim_RIGHT.wav	2	12	blb_dichoticlistening_da-ta.mp3	da	ta	1	left
6.6.1	mac	2023-06-24	02:20:56	0	0	5e1582d9805a30b7d0c8b9c7	2	1	DL_test	16	DL_test	27			0		pa	1	1589	6	4	antiphase_hc_sio.wav	1	6	6	noise_calib_stim_RIGHT.wav	2	5	blb_dichoticlistening_ba-pa.mp3	ba	pa	1	right
6.6.1	mac	2023-06-24	02:20:56	0	0	5e1582d9805a30b7d0c8b9c7	2	1	DL_test	16	DL_test	28			0		ba	1	1406	6	4	antiphase_hc_sio.wav	1	6	6	noise_calib_stim_RIGHT.wav	2	13	blb_dichoticlistening_ga-ba.mp3	ga	ba	1	right
6.6.1	mac	2023-06-24	02:20:56	0	0	5e1582d9805a30b7d0c8b9c7	2	1	DL_test	16	DL_test	29			0		ka	1	972	6	4	antiphase_hc_sio.wav	1	6	6	noise_calib_stim_RIGHT.wav	2	24	blb_dichoticlistening_ka-ta.mp3	ka	ta	1	left
6.6.1	mac	2023-06-24	02:20:56	0	0	5e1582d9805a30b7d0c8b9c7	2	1	DL_test	16	DL_test	30			0		ga	0	1022	6	4	antiphase_hc_sio.wav	1	6	6	noise_calib_stim_RIGHT.wav	2	26	blb_dichoticlistening_pa-da.mp3	pa	da	1	other
6.6.1	mac	2023-06-24	02:20:56	0	0	5e1582d9805a30b7d0c8b9c7	2	1	DL_test	16	DL_test	31			0		ta	1	1439	6	4	antiphase_hc_sio.wav	1	6	6	noise_calib_stim_RIGHT.wav	2	34	blb_dichoticlistening_ta-ka.mp3	ta	ka	1	left
6.6.1	mac	2023-06-24	02:20:56	0	0	5e1582d9805a30b7d0c8b9c7	2	1	DL_test	16	DL_test	32			0		pa	1	922	6	4	antiphase_hc_sio.wav	1	6	6	noise_calib_stim_RIGHT.wav	2	29	blb_dichoticlistening_pa-pa.mp3	pa	pa	0	left
6.6.1	mac	2023-06-24	02:20:56	0	0	5e1582d9805a30b7d0c8b9c7	2	1	DL_test	16	DL_test	33			0		ka	1	1155	6	4	antiphase_hc_sio.wav	1	6	6	noise_calib_stim_RIGHT.wav	2	4	blb_dichoticlistening_ba-ka.mp3	ba	ka	1	right
6.6.1	mac	2023-06-24	02:20:56	0	0	5e1582d9805a30b7d0c8b9c7	2	1	DL_test	16	DL_test	34			0		ta	1	1606	6	4	antiphase_hc_sio.wav	1	6	6	noise_calib_stim_RIGHT.wav	2	31	blb_dichoticlistening_ta-ba.mp3	ta	ba	1	left
6.6.1	mac	2023-06-24	02:20:56	0	0	5e1582d9805a30b7d0c8b9c7	2	1	DL_test	16	DL_test	35			0		ka	1	939	6	4	antiphase_hc_sio.wav	1	6	6	noise_calib_stim_RIGHT.wav	2	22	blb_dichoticlistening_ka-ka.mp3	ka	ka	0	left
6.6.1	mac	2023-06-24	02:20:56	0	0	5e1582d9805a30b7d0c8b9c7	2	1	DL_test	16	DL_test	36			0		ta	1	1122	6	4	antiphase_hc_sio.wav	1	6	6	noise_calib_stim_RIGHT.wav	2	35	blb_dichoticlistening_ta-pa.mp3	ta	pa	1	left
6.6.1	mac	2023-06-24	02:20:56	02:31:44	644726	5e1582d9805a30b7d0c8b9c7	2	1	practice_z	22	practice_z	1	stimuli_distractor_diamondtriangles.svg	stimuli_distractor_diamondtriangles.svg	13	no	0	1	2000	6	4	antiphase_hc_sio.wav	1	6	6	noise_calib_stim_RIGHT.wav	2	35	blb_dichoticlistening_ta-pa.mp3	ta	pa	1	left
6.6.1	mac	2023-06-24	02:20:56	02:31:44	644726	5e1582d9805a30b7d0c8b9c7	2	1	practice_z	22	advance_on_keypress_ZEE	2	stimuli_distractor_diamondtriangles.svg	stimuli_distractor_diamondtriangles.svg	13	no	57	0	544	6	4	antiphase_hc_sio.wav	1	6	6	noise_calib_stim_RIGHT.wav	2	35	blb_dichoticlistening_ta-pa.mp3	ta	pa	1	left
6.6.1	mac	2023-06-24	02:20:56	02:31:47	647669	5e1582d9805a30b7d0c8b9c7	2	1	practice_z	22	practice_z	3	stimuli_target_rectanglediamonds.svg	stimuli_distractor_trianglediamonds.svg	4	yes	44	1	759	6	4	antiphase_hc_sio.wav	1	6	6	noise_calib_stim_RIGHT.wav	2	35	blb_dichoticlistening_ta-pa.mp3	ta	pa	1	left
6.6.1	mac	2023-06-24	02:20:56	02:31:47	647669	5e1582d9805a30b7d0c8b9c7	2	1	practice_z	22	advance_on_keypress_ZEE	4	stimuli_target_rectanglediamonds.svg	stimuli_distractor_trianglediamonds.svg	4	yes	57	0	393	6	4	antiphase_hc_sio.wav	1	6	6	noise_calib_stim_RIGHT.wav	2	35	blb_dichoticlistening_ta-pa.mp3	ta	pa	1	left
6.6.1	mac	2023-06-24	02:20:56	02:31:49	650242	5e1582d9805a30b7d0c8b9c7	2	1	practice_z	22	practice_z	5	stimuli_distractor_trianglediamonds.svg	stimuli_target_squarediamonds.svg	11	yes	44	1	549	6	4	antiphase_hc_sio.wav	1	6	6	noise_calib_stim_RIGHT.wav	2	35	blb_dichoticlistening_ta-pa.mp3	ta	pa	1	left
6.6.1	mac	2023-06-24	02:20:56	02:31:49	650242	5e1582d9805a30b7d0c8b9c7	2	1	practice_z	22	advance_on_keypress_ZEE	6	stimuli_distractor_trianglediamonds.svg	stimuli_target_squarediamonds.svg	11	yes	57	0	0	6	4	antiphase_hc_sio.wav	1	6	6	noise_calib_stim_RIGHT.wav	2	35	blb_dichoticlistening_ta-pa.mp3	ta	pa	1	left
6.6.1	mac	2023-06-24	02:20:56	02:31:51	652470	5e1582d9805a30b7d0c8b9c7	2	1	practice_z	22	practice_z	7	stimuli_distractor_diamondtriangles.svg	stimuli_target_diamondrectangles.svg	8	yes	44	1	593	6	4	antiphase_hc_sio.wav	1	6	6	noise_calib_stim_RIGHT.wav	2	35	blb_dichoticlistening_ta-pa.mp3	ta	pa	1	left
6.6.1	mac	2023-06-24	02:20:56	02:31:51	652470	5e1582d9805a30b7d0c8b9c7	2	1	practice_z	22	advance_on_keypress_ZEE	8	stimuli_distractor_diamondtriangles.svg	stimuli_target_diamondrectangles.svg	8	yes	57	0	928	6	4	antiphase_hc_sio.wav	1	6	6	noise_calib_stim_RIGHT.wav	2	35	blb_dichoticlistening_ta-pa.mp3	ta	pa	1	left
6.6.1	mac	2023-06-24	02:20:56	02:31:54	655481	5e1582d9805a30b7d0c8b9c7	2	1	practice_z	22	practice_z	9	stimuli_target_diamondsquares.svg	stimuli_distractor_diamondtriangles.svg	3	yes	44	1	454	6	4	antiphase_hc_sio.wav	1	6	6	noise_calib_stim_RIGHT.wav	2	35	blb_dichoticlistening_ta-pa.mp3	ta	pa	1	left
6.6.1	mac	2023-06-24	02:20:56	02:31:54	655481	5e1582d9805a30b7d0c8b9c7	2	1	practice_z	22	advance_on_keypress_ZEE	10	stimuli_target_diamondsquares.svg	stimuli_distractor_diamondtriangles.svg	3	yes	57	0	1258	6	4	antiphase_hc_sio.wav	1	6	6	noise_calib_stim_RIGHT.wav	2	35	blb_dichoticlistening_ta-pa.mp3	ta	pa	1	left
6.6.1	mac	2023-06-24	02:20:56	02:31:58	658846	5e1582d9805a30b7d0c8b9c7	2	1	practice_z	22	practice_z	11	stimuli_distractor_diamondtriangles.svg	stimuli_target_rectangletriangles.svg	7	yes	44	1	469	6	4	antiphase_hc_sio.wav	1	6	6	noise_calib_stim_RIGHT.wav	2	35	blb_dichoticlistening_ta-pa.mp3	ta	pa	1	left
6.6.1	mac	2023-06-24	02:20:56	02:31:58	658846	5e1582d9805a30b7d0c8b9c7	2	1	practice_z	22	advance_on_keypress_ZEE	12	stimuli_distractor_diamondtriangles.svg	stimuli_target_rectangletriangles.svg	7	yes	57	0	727	6	4	antiphase_hc_sio.wav	1	6	6	noise_calib_stim_RIGHT.wav	2	35	blb_dichoticlistening_ta-pa.mp3	ta	pa	1	left
6.6.1	mac	2023-06-24	02:20:56	02:32:01	661694	5e1582d9805a30b7d0c8b9c7	2	1	practice_z	22	practice_z	13	stimuli_distractor_trianglediamonds.svg	stimuli_target_rectanglediamonds.svg	10	yes	44	1	485	6	4	antiphase_hc_sio.wav	1	6	6	noise_calib_stim_RIGHT.wav	2	35	blb_dichoticlistening_ta-pa.mp3	ta	pa	1	left
6.6.1	mac	2023-06-24	02:20:56	02:32:01	661694	5e1582d9805a30b7d0c8b9c7	2	1	practice_z	22	advance_on_keypress_ZEE	14	stimuli_distractor_trianglediamonds.svg	stimuli_target_rectanglediamonds.svg	10	yes	57	0	326	6	4	antiphase_hc_sio.wav	1	6	6	noise_calib_stim_RIGHT.wav	2	35	blb_dichoticlistening_ta-pa.mp3	ta	pa	1	left
6.6.1	mac	2023-06-24	02:20:56	02:32:03	664202	5e1582d9805a30b7d0c8b9c7	2	1	practice_z	22	practice_z	15	stimuli_distractor_diamondtriangles.svg	stimuli_target_trianglerectangles.svg	9	yes	44	1	543	6	4	antiphase_hc_sio.wav	1	6	6	noise_calib_stim_RIGHT.wav	2	35	blb_dichoticlistening_ta-pa.mp3	ta	pa	1	left
6.6.1	mac	2023-06-24	02:20:56	02:32:03	664202	5e1582d9805a30b7d0c8b9c7	2	1	practice_z	22	advance_on_keypress_ZEE	16	stimuli_distractor_diamondtriangles.svg	stimuli_target_trianglerectangles.svg	9	yes	57	0	312	6	4	antiphase_hc_sio.wav	1	6	6	noise_calib_stim_RIGHT.wav	2	35	blb_dichoticlistening_ta-pa.mp3	ta	pa	1	left
6.6.1	mac	2023-06-24	02:20:56	02:32:07	668142	5e1582d9805a30b7d0c8b9c7	2	1	practice_z	22	practice_z	17	stimuli_distractor_diamondtriangles.svg	stimuli_distractor_trianglediamonds.svg	14	no	0	1	2000	6	4	antiphase_hc_sio.wav	1	6	6	noise_calib_stim_RIGHT.wav	2	35	blb_dichoticlistening_ta-pa.mp3	ta	pa	1	left
6.6.1	mac	2023-06-24	02:20:56	02:32:07	668142	5e1582d9805a30b7d0c8b9c7	2	1	practice_z	22	advance_on_keypress_ZEE	18	stimuli_distractor_diamondtriangles.svg	stimuli_distractor_trianglediamonds.svg	14	no	57	0	417	6	4	antiphase_hc_sio.wav	1	6	6	noise_calib_stim_RIGHT.wav	2	35	blb_dichoticlistening_ta-pa.mp3	ta	pa	1	left
6.6.1	mac	2023-06-24	02:20:56	02:32:11	672193	5e1582d9805a30b7d0c8b9c7	2	1	practice_z	22	practice_z	19	stimuli_distractor_trianglediamonds.svg	stimuli_distractor_trianglediamonds.svg	15	no	0	1	2000	6	4	antiphase_hc_sio.wav	1	6	6	noise_calib_stim_RIGHT.wav	2	35	blb_dichoticlistening_ta-pa.mp3	ta	pa	1	left
6.6.1	mac	2023-06-24	02:20:56	02:32:11	672193	5e1582d9805a30b7d0c8b9c7	2	1	practice_z	22	advance_on_keypress_ZEE	20	stimuli_distractor_trianglediamonds.svg	stimuli_distractor_trianglediamonds.svg	15	no	57	0	346	6	4	antiphase_hc_sio.wav	1	6	6	noise_calib_stim_RIGHT.wav	2	35	blb_dichoticlistening_ta-pa.mp3	ta	pa	1	left
6.6.1	mac	2023-06-24	02:20:56	02:32:15	676175	5e1582d9805a30b7d0c8b9c7	2	1	practice_z	22	practice_z	21	stimuli_distractor_trianglediamonds.svg	stimuli_distractor_diamondtriangles.svg	16	no	0	1	2000	6	4	antiphase_hc_sio.wav	1	6	6	noise_calib_stim_RIGHT.wav	2	35	blb_dichoticlistening_ta-pa.mp3	ta	pa	1	left
6.6.1	mac	2023-06-24	02:20:56	02:32:15	676175	5e1582d9805a30b7d0c8b9c7	2	1	practice_z	22	advance_on_keypress_ZEE	22	stimuli_distractor_trianglediamonds.svg	stimuli_distractor_diamondtriangles.svg	16	no	57	0	390	6	4	antiphase_hc_sio.wav	1	6	6	noise_calib_stim_RIGHT.wav	2	35	blb_dichoticlistening_ta-pa.mp3	ta	pa	1	left
6.6.1	mac	2023-06-24	02:20:56	02:32:18	678904	5e1582d9805a30b7d0c8b9c7	2	1	practice_z	22	practice_z	23	stimuli_target_squarediamonds.svg	stimuli_distractor_diamondtriangles.svg	2	yes	44	1	711	6	4	antiphase_hc_sio.wav	1	6	6	noise_calib_stim_RIGHT.wav	2	35	blb_dichoticlistening_ta-pa.mp3	ta	pa	1	left
6.6.1	mac	2023-06-24	02:20:56	02:32:18	678904	5e1582d9805a30b7d0c8b9c7	2	1	practice_z	22	advance_on_keypress_ZEE	24	stimuli_target_squarediamonds.svg	stimuli_distractor_diamondtriangles.svg	2	yes	57	0	474	6	4	antiphase_hc_sio.wav	1	6	6	noise_calib_stim_RIGHT.wav	2	35	blb_dichoticlistening_ta-pa.mp3	ta	pa	1	left
6.6.1	mac	2023-06-24	02:20:56	02:32:21	681890	5e1582d9805a30b7d0c8b9c7	2	1	practice_z	22	practice_z	25	stimuli_distractor_trianglediamonds.svg	stimuli_target_diamondrectangles.svg	12	yes	44	1	880	6	4	antiphase_hc_sio.wav	1	6	6	noise_calib_stim_RIGHT.wav	2	35	blb_dichoticlistening_ta-pa.mp3	ta	pa	1	left
6.6.1	mac	2023-06-24	02:20:56	02:32:21	681890	5e1582d9805a30b7d0c8b9c7	2	1	practice_z	22	advance_on_keypress_ZEE	26	stimuli_distractor_trianglediamonds.svg	stimuli_target_diamondrectangles.svg	12	yes	57	0	349	6	4	antiphase_hc_sio.wav	1	6	6	noise_calib_stim_RIGHT.wav	2	35	blb_dichoticlistening_ta-pa.mp3	ta	pa	1	left
6.6.1	mac	2023-06-24	02:20:56	02:32:23	684542	5e1582d9805a30b7d0c8b9c7	2	1	practice_z	22	practice_z	27	stimuli_target_diamondsquares.svg	stimuli_distractor_trianglediamonds.svg	6	yes	44	1	665	6	4	antiphase_hc_sio.wav	1	6	6	noise_calib_stim_RIGHT.wav	2	35	blb_dichoticlistening_ta-pa.mp3	ta	pa	1	left
6.6.1	mac	2023-06-24	02:20:56	02:32:23	684542	5e1582d9805a30b7d0c8b9c7	2	1	practice_z	22	advance_on_keypress_ZEE	28	stimuli_target_diamondsquares.svg	stimuli_distractor_trianglediamonds.svg	6	yes	57	0	498	6	4	antiphase_hc_sio.wav	1	6	6	noise_calib_stim_RIGHT.wav	2	35	blb_dichoticlistening_ta-pa.mp3	ta	pa	1	left
6.6.1	mac	2023-06-24	02:20:56	02:32:26	687221	5e1582d9805a30b7d0c8b9c7	2	1	practice_z	22	practice_z	29	stimuli_target_rectanglediamonds.svg	stimuli_distractor_diamondtriangles.svg	1	yes	44	1	543	6	4	antiphase_hc_sio.wav	1	6	6	noise_calib_stim_RIGHT.wav	2	35	blb_dichoticlistening_ta-pa.mp3	ta	pa	1	left
6.6.1	mac	2023-06-24	02:20:56	02:32:26	687221	5e1582d9805a30b7d0c8b9c7	2	1	practice_z	22	advance_on_keypress_ZEE	30	stimuli_target_rectanglediamonds.svg	stimuli_distractor_diamondtriangles.svg	1	yes	57	0	944	6	4	antiphase_hc_sio.wav	1	6	6	noise_calib_stim_RIGHT.wav	2	35	blb_dichoticlistening_ta-pa.mp3	ta	pa	1	left
6.6.1	mac	2023-06-24	02:20:56	02:32:29	690496	5e1582d9805a30b7d0c8b9c7	2	1	practice_z	22	practice_z	31	stimuli_target_squarediamonds.svg	stimuli_distractor_trianglediamonds.svg	5	yes	44	1	702	6	4	antiphase_hc_sio.wav	1	6	6	noise_calib_stim_RIGHT.wav	2	35	blb_dichoticlistening_ta-pa.mp3	ta	pa	1	left
6.6.1	mac	2023-06-24	02:20:56	02:32:29	690496	5e1582d9805a30b7d0c8b9c7	2	1	practice_z	22	advance_on_keypress_ZEE	32	stimuli_target_squarediamonds.svg	stimuli_distractor_trianglediamonds.svg	5	yes	57	0	382	6	4	antiphase_hc_sio.wav	1	6	6	noise_calib_stim_RIGHT.wav	2	35	blb_dichoticlistening_ta-pa.mp3	ta	pa	1	left
6.6.1	mac	2023-06-24	02:20:56	02:32:36	696629	5e1582d9805a30b7d0c8b9c7	2	1	main_z	24	main_z	1	stimuli_target_diamondrectangles.svg	stimuli_distractor_trianglediamonds.svg	19	yes	44	1	535	6	4	antiphase_hc_sio.wav	1	6	6	noise_calib_stim_RIGHT.wav	2	35	blb_dichoticlistening_ta-pa.mp3	ta	pa	1	left
6.6.1	mac	2023-06-24	02:20:56	02:32:36	696629	5e1582d9805a30b7d0c8b9c7	2	1	main_z	24	advance_on_keypress_ZEE	2	stimuli_target_diamondrectangles.svg	stimuli_distractor_trianglediamonds.svg	19	yes	57	0	608	6	4	antiphase_hc_sio.wav	1	6	6	noise_calib_stim_RIGHT.wav	2	35	blb_dichoticlistening_ta-pa.mp3	ta	pa	1	left
6.6.1	mac	2023-06-24	02:20:56	02:32:37	698536	5e1582d9805a30b7d0c8b9c7	2	1	main_z	24	main_z	3	stimuli_target_squarediamonds.svg	stimuli_distractor_diamondtriangles.svg	8	yes	44	1	677	6	4	antiphase_hc_sio.wav	1	6	6	noise_calib_stim_RIGHT.wav	2	35	blb_dichoticlistening_ta-pa.mp3	ta	pa	1	left
6.6.1	mac	2023-06-24	02:20:56	02:32:37	698536	5e1582d9805a30b7d0c8b9c7	2	1	main_z	24	advance_on_keypress_ZEE	4	stimuli_target_squarediamonds.svg	stimuli_distractor_diamondtriangles.svg	8	yes	57	0	398	6	4	antiphase_hc_sio.wav	1	6	6	noise_calib_stim_RIGHT.wav	2	35	blb_dichoticlistening_ta-pa.mp3	ta	pa	1	left
6.6.1	mac	2023-06-24	02:20:56	02:32:39	700075	5e1582d9805a30b7d0c8b9c7	2	1	main_z	24	main_z	5	stimuli_distractor_diamondtriangles.svg	stimuli_target_diamondsquares.svg	32	yes	44	1	517	6	4	antiphase_hc_sio.wav	1	6	6	noise_calib_stim_RIGHT.wav	2	35	blb_dichoticlistening_ta-pa.mp3	ta	pa	1	left
6.6.1	mac	2023-06-24	02:20:56	02:32:39	700075	5e1582d9805a30b7d0c8b9c7	2	1	main_z	24	advance_on_keypress_ZEE	6	stimuli_distractor_diamondtriangles.svg	stimuli_target_diamondsquares.svg	32	yes	57	0	422	6	4	antiphase_hc_sio.wav	1	6	6	noise_calib_stim_RIGHT.wav	2	35	blb_dichoticlistening_ta-pa.mp3	ta	pa	1	left
6.6.1	mac	2023-06-24	02:20:56	02:32:40	701533	5e1582d9805a30b7d0c8b9c7	2	1	main_z	24	main_z	7	stimuli_distractor_trianglediamonds.svg	stimuli_target_rectanglediamonds.svg	10	yes	44	1	407	6	4	antiphase_hc_sio.wav	1	6	6	noise_calib_stim_RIGHT.wav	2	35	blb_dichoticlistening_ta-pa.mp3	ta	pa	1	left
6.6.1	mac	2023-06-24	02:20:56	02:32:40	701533	5e1582d9805a30b7d0c8b9c7	2	1	main_z	24	advance_on_keypress_ZEE	8	stimuli_distractor_trianglediamonds.svg	stimuli_target_rectanglediamonds.svg	10	yes	57	0	432	6	4	antiphase_hc_sio.wav	1	6	6	noise_calib_stim_RIGHT.wav	2	35	blb_dichoticlistening_ta-pa.mp3	ta	pa	1	left
6.6.1	mac	2023-06-24	02:20:56	02:32:42	703159	5e1582d9805a30b7d0c8b9c7	2	1	main_z	24	main_z	9	stimuli_target_rectanglediamonds.svg	stimuli_distractor_diamondtriangles.svg	6	yes	44	1	567	6	4	antiphase_hc_sio.wav	1	6	6	noise_calib_stim_RIGHT.wav	2	35	blb_dichoticlistening_ta-pa.mp3	ta	pa	1	left
6.6.1	mac	2023-06-24	02:20:56	02:32:42	703159	5e1582d9805a30b7d0c8b9c7	2	1	main_z	24	advance_on_keypress_ZEE	10	stimuli_target_rectanglediamonds.svg	stimuli_distractor_diamondtriangles.svg	6	yes	57	0	342	6	4	antiphase_hc_sio.wav	1	6	6	noise_calib_stim_RIGHT.wav	2	35	blb_dichoticlistening_ta-pa.mp3	ta	pa	1	left
6.6.1	mac	2023-06-24	02:20:56	02:32:45	706142	5e1582d9805a30b7d0c8b9c7	2	1	main_z	24	main_z	11	stimuli_target_trianglesquares.svg	stimuli_distractor_diamondtriangles.svg	22	yes	0	0	2000	6	4	antiphase_hc_sio.wav	1	6	6	noise_calib_stim_RIGHT.wav	2	35	blb_dichoticlistening_ta-pa.mp3	ta	pa	1	left
6.6.1	mac	2023-06-24	02:20:56	02:32:45	706142	5e1582d9805a30b7d0c8b9c7	2	1	main_z	24	advance_on_keypress_ZEE	12	stimuli_target_trianglesquares.svg	stimuli_distractor_diamondtriangles.svg	22	yes	57	0	567	6	4	antiphase_hc_sio.wav	1	6	6	noise_calib_stim_RIGHT.wav	2	35	blb_dichoticlistening_ta-pa.mp3	ta	pa	1	left
6.6.1	mac	2023-06-24	02:20:56	02:32:47	707859	5e1582d9805a30b7d0c8b9c7	2	1	main_z	24	main_z	13	stimuli_distractor_trianglediamonds.svg	stimuli_target_trianglerectangles.svg	25	yes	44	1	519	6	4	antiphase_hc_sio.wav	1	6	6	noise_calib_stim_RIGHT.wav	2	35	blb_dichoticlistening_ta-pa.mp3	ta	pa	1	left
6.6.1	mac	2023-06-24	02:20:56	02:32:47	707859	5e1582d9805a30b7d0c8b9c7	2	1	main_z	24	advance_on_keypress_ZEE	14	stimuli_distractor_trianglediamonds.svg	stimuli_target_trianglerectangles.svg	25	yes	57	0	674	6	4	antiphase_hc_sio.wav	1	6	6	noise_calib_stim_RIGHT.wav	2	35	blb_dichoticlistening_ta-pa.mp3	ta	pa	1	left
6.6.1	mac	2023-06-24	02:20:56	02:32:49	709790	5e1582d9805a30b7d0c8b9c7	2	1	main_z	24	main_z	15	stimuli_distractor_trianglediamonds.svg	stimuli_target_trianglesquares.svg	26	yes	44	1	631	6	4	antiphase_hc_sio.wav	1	6	6	noise_calib_stim_RIGHT.wav	2	35	blb_dichoticlistening_ta-pa.mp3	ta	pa	1	left
6.6.1	mac	2023-06-24	02:20:56	02:32:49	709790	5e1582d9805a30b7d0c8b9c7	2	1	main_z	24	advance_on_keypress_ZEE	16	stimuli_distractor_trianglediamonds.svg	stimuli_target_trianglesquares.svg	26	yes	57	0	486	6	4	antiphase_hc_sio.wav	1	6	6	noise_calib_stim_RIGHT.wav	2	35	blb_dichoticlistening_ta-pa.mp3	ta	pa	1	left
6.6.1	mac	2023-06-24	02:20:56	02:32:50	711520	5e1582d9805a30b7d0c8b9c7	2	1	main_z	24	main_z	17	stimuli_distractor_diamondtriangles.svg	stimuli_target_rectanglediamonds.svg	14	yes	44	1	611	6	4	antiphase_hc_sio.wav	1	6	6	noise_calib_stim_RIGHT.wav	2	35	blb_dichoticlistening_ta-pa.mp3	ta	pa	1	left
6.6.1	mac	2023-06-24	02:20:56	02:32:50	711520	5e1582d9805a30b7d0c8b9c7	2	1	main_z	24	advance_on_keypress_ZEE	18	stimuli_distractor_diamondtriangles.svg	stimuli_target_rectanglediamonds.svg	14	yes	57	0	396	6	4	antiphase_hc_sio.wav	1	6	6	noise_calib_stim_RIGHT.wav	2	35	blb_dichoticlistening_ta-pa.mp3	ta	pa	1	left
6.6.1	mac	2023-06-24	02:20:56	02:32:52	713238	5e1582d9805a30b7d0c8b9c7	2	1	main_z	24	main_z	19	stimuli_distractor_trianglediamonds.svg	stimuli_target_rectangletriangles.svg	9	yes	44	1	696	6	4	antiphase_hc_sio.wav	1	6	6	noise_calib_stim_RIGHT.wav	2	35	blb_dichoticlistening_ta-pa.mp3	ta	pa	1	left
6.6.1	mac	2023-06-24	02:20:56	02:32:52	713238	5e1582d9805a30b7d0c8b9c7	2	1	main_z	24	advance_on_keypress_ZEE	20	stimuli_distractor_trianglediamonds.svg	stimuli_target_rectangletriangles.svg	9	yes	57	0	463	6	4	antiphase_hc_sio.wav	1	6	6	noise_calib_stim_RIGHT.wav	2	35	blb_dichoticlistening_ta-pa.mp3	ta	pa	1	left
6.6.1	mac	2023-06-24	02:20:56	02:32:55	716343	5e1582d9805a30b7d0c8b9c7	2	1	main_z	24	main_z	21	stimuli_distractor_diamondtriangles.svg	stimuli_distractor_trianglediamonds.svg	37	no	0	1	2000	6	4	antiphase_hc_sio.wav	1	6	6	noise_calib_stim_RIGHT.wav	2	35	blb_dichoticlistening_ta-pa.mp3	ta	pa	1	left
6.6.1	mac	2023-06-24	02:20:56	02:32:55	716343	5e1582d9805a30b7d0c8b9c7	2	1	main_z	24	advance_on_keypress_ZEE	22	stimuli_distractor_diamondtriangles.svg	stimuli_distractor_trianglediamonds.svg	37	no	57	0	497	6	4	antiphase_hc_sio.wav	1	6	6	noise_calib_stim_RIGHT.wav	2	35	blb_dichoticlistening_ta-pa.mp3	ta	pa	1	left
6.6.1	mac	2023-06-24	02:20:56	02:32:57	717941	5e1582d9805a30b7d0c8b9c7	2	1	main_z	24	main_z	23	stimuli_distractor_trianglediamonds.svg	stimuli_target_diamondsquares.svg	28	yes	44	1	464	6	4	antiphase_hc_sio.wav	1	6	6	noise_calib_stim_RIGHT.wav	2	35	blb_dichoticlistening_ta-pa.mp3	ta	pa	1	left
6.6.1	mac	2023-06-24	02:20:56	02:32:57	717941	5e1582d9805a30b7d0c8b9c7	2	1	main_z	24	advance_on_keypress_ZEE	24	stimuli_distractor_trianglediamonds.svg	stimuli_target_diamondsquares.svg	28	yes	57	0	477	6	4	antiphase_hc_sio.wav	1	6	6	noise_calib_stim_RIGHT.wav	2	35	blb_dichoticlistening_ta-pa.mp3	ta	pa	1	left
6.6.1	mac	2023-06-24	02:20:56	02:32:59	720319	5e1582d9805a30b7d0c8b9c7	2	1	main_z	24	main_z	25	stimuli_target_squaretriangles.svg	stimuli_distractor_trianglediamonds.svg	3	yes	44	1	1260	6	4	antiphase_hc_sio.wav	1	6	6	noise_calib_stim_RIGHT.wav	2	35	blb_dichoticlistening_ta-pa.mp3	ta	pa	1	left
6.6.1	mac	2023-06-24	02:20:56	02:32:59	720319	5e1582d9805a30b7d0c8b9c7	2	1	main_z	24	advance_on_keypress_ZEE	26	stimuli_target_squaretriangles.svg	stimuli_distractor_trianglediamonds.svg	3	yes	57	0	700	6	4	antiphase_hc_sio.wav	1	6	6	noise_calib_stim_RIGHT.wav	2	35	blb_dichoticlistening_ta-pa.mp3	ta	pa	1	left
6.6.1	mac	2023-06-24	02:20:56	02:33:03	723642	5e1582d9805a30b7d0c8b9c7	2	1	main_z	24	main_z	27	stimuli_distractor_trianglediamonds.svg	stimuli_distractor_diamondtriangles.svg	36	no	0	1	2000	6	4	antiphase_hc_sio.wav	1	6	6	noise_calib_stim_RIGHT.wav	2	35	blb_dichoticlistening_ta-pa.mp3	ta	pa	1	left
6.6.1	mac	2023-06-24	02:20:56	02:33:03	723642	5e1582d9805a30b7d0c8b9c7	2	1	main_z	24	advance_on_keypress_ZEE	28	stimuli_distractor_trianglediamonds.svg	stimuli_distractor_diamondtriangles.svg	36	no	57	0	576	6	4	antiphase_hc_sio.wav	1	6	6	noise_calib_stim_RIGHT.wav	2	35	blb_dichoticlistening_ta-pa.mp3	ta	pa	1	left
6.6.1	mac	2023-06-24	02:20:56	02:33:04	725481	5e1582d9805a30b7d0c8b9c7	2	1	main_z	24	main_z	29	stimuli_distractor_trianglediamonds.svg	stimuli_target_squarediamonds.svg	12	yes	44	1	639	6	4	antiphase_hc_sio.wav	1	6	6	noise_calib_stim_RIGHT.wav	2	35	blb_dichoticlistening_ta-pa.mp3	ta	pa	1	left
6.6.1	mac	2023-06-24	02:20:56	02:33:04	725481	5e1582d9805a30b7d0c8b9c7	2	1	main_z	24	advance_on_keypress_ZEE	30	stimuli_distractor_trianglediamonds.svg	stimuli_target_squarediamonds.svg	12	yes	57	0	413	6	4	antiphase_hc_sio.wav	1	6	6	noise_calib_stim_RIGHT.wav	2	35	blb_dichoticlistening_ta-pa.mp3	ta	pa	1	left
6.6.1	mac	2023-06-24	02:20:56	02:33:06	727136	5e1582d9805a30b7d0c8b9c7	2	1	main_z	24	main_z	31	stimuli_target_rectangletriangles.svg	stimuli_distractor_trianglediamonds.svg	1	yes	44	1	610	6	4	antiphase_hc_sio.wav	1	6	6	noise_calib_stim_RIGHT.wav	2	35	blb_dichoticlistening_ta-pa.mp3	ta	pa	1	left
6.6.1	mac	2023-06-24	02:20:56	02:33:06	727136	5e1582d9805a30b7d0c8b9c7	2	1	main_z	24	advance_on_keypress_ZEE	32	stimuli_target_rectangletriangles.svg	stimuli_distractor_trianglediamonds.svg	1	yes	57	0	388	6	4	antiphase_hc_sio.wav	1	6	6	noise_calib_stim_RIGHT.wav	2	35	blb_dichoticlistening_ta-pa.mp3	ta	pa	1	left
6.6.1	mac	2023-06-24	02:20:56	02:33:08	728958	5e1582d9805a30b7d0c8b9c7	2	1	main_z	24	main_z	33	stimuli_distractor_trianglediamonds.svg	stimuli_target_diamondrectangles.svg	27	yes	44	1	816	6	4	antiphase_hc_sio.wav	1	6	6	noise_calib_stim_RIGHT.wav	2	35	blb_dichoticlistening_ta-pa.mp3	ta	pa	1	left
6.6.1	mac	2023-06-24	02:20:56	02:33:08	728958	5e1582d9805a30b7d0c8b9c7	2	1	main_z	24	advance_on_keypress_ZEE	34	stimuli_distractor_trianglediamonds.svg	stimuli_target_diamondrectangles.svg	27	yes	57	0	457	6	4	antiphase_hc_sio.wav	1	6	6	noise_calib_stim_RIGHT.wav	2	35	blb_dichoticlistening_ta-pa.mp3	ta	pa	1	left
6.6.1	mac	2023-06-24	02:20:56	02:33:10	730766	5e1582d9805a30b7d0c8b9c7	2	1	main_z	24	main_z	35	stimuli_target_trianglesquares.svg	stimuli_distractor_trianglediamonds.svg	18	yes	44	1	723	6	4	antiphase_hc_sio.wav	1	6	6	noise_calib_stim_RIGHT.wav	2	35	blb_dichoticlistening_ta-pa.mp3	ta	pa	1	left
6.6.1	mac	2023-06-24	02:20:56	02:33:10	730766	5e1582d9805a30b7d0c8b9c7	2	1	main_z	24	advance_on_keypress_ZEE	36	stimuli_target_trianglesquares.svg	stimuli_distractor_trianglediamonds.svg	18	yes	57	0	385	6	4	antiphase_hc_sio.wav	1	6	6	noise_calib_stim_RIGHT.wav	2	35	blb_dichoticlistening_ta-pa.mp3	ta	pa	1	left
6.6.1	mac	2023-06-24	02:20:56	02:33:13	733776	5e1582d9805a30b7d0c8b9c7	2	1	main_z	24	main_z	37	stimuli_distractor_diamondtriangles.svg	stimuli_distractor_diamondtriangles.svg	40	no	0	1	2000	6	4	antiphase_hc_sio.wav	1	6	6	noise_calib_stim_RIGHT.wav	2	35	blb_dichoticlistening_ta-pa.mp3	ta	pa	1	left
6.6.1	mac	2023-06-24	02:20:56	02:33:13	733776	5e1582d9805a30b7d0c8b9c7	2	1	main_z	24	advance_on_keypress_ZEE	38	stimuli_distractor_diamondtriangles.svg	stimuli_distractor_diamondtriangles.svg	40	no	57	0	474	6	4	antiphase_hc_sio.wav	1	6	6	noise_calib_stim_RIGHT.wav	2	35	blb_dichoticlistening_ta-pa.mp3	ta	pa	1	left
6.6.1	mac	2023-06-24	02:20:56	02:33:14	735529	5e1582d9805a30b7d0c8b9c7	2	1	main_z	24	main_z	39	stimuli_distractor_diamondtriangles.svg	stimuli_target_rectangletriangles.svg	13	yes	44	1	653	6	4	antiphase_hc_sio.wav	1	6	6	noise_calib_stim_RIGHT.wav	2	35	blb_dichoticlistening_ta-pa.mp3	ta	pa	1	left
6.6.1	mac	2023-06-24	02:20:56	02:33:14	735529	5e1582d9805a30b7d0c8b9c7	2	1	main_z	24	advance_on_keypress_ZEE	40	stimuli_distractor_diamondtriangles.svg	stimuli_target_rectangletriangles.svg	13	yes	57	0	467	6	4	antiphase_hc_sio.wav	1	6	6	noise_calib_stim_RIGHT.wav	2	35	blb_dichoticlistening_ta-pa.mp3	ta	pa	1	left
6.6.1	mac	2023-06-24	02:20:56	02:33:16	737239	5e1582d9805a30b7d0c8b9c7	2	1	main_z	24	main_z	41	stimuli_distractor_diamondtriangles.svg	stimuli_target_diamondrectangles.svg	31	yes	44	1	614	6	4	antiphase_hc_sio.wav	1	6	6	noise_calib_stim_RIGHT.wav	2	35	blb_dichoticlistening_ta-pa.mp3	ta	pa	1	left
6.6.1	mac	2023-06-24	02:20:56	02:33:16	737239	5e1582d9805a30b7d0c8b9c7	2	1	main_z	24	advance_on_keypress_ZEE	42	stimuli_distractor_diamondtriangles.svg	stimuli_target_diamondrectangles.svg	31	yes	57	0	398	6	4	antiphase_hc_sio.wav	1	6	6	noise_calib_stim_RIGHT.wav	2	35	blb_dichoticlistening_ta-pa.mp3	ta	pa	1	left
6.6.1	mac	2023-06-24	02:20:56	02:33:18	738899	5e1582d9805a30b7d0c8b9c7	2	1	main_z	24	main_z	43	stimuli_target_diamondsquares.svg	stimuli_distractor_trianglediamonds.svg	20	yes	44	1	623	6	4	antiphase_hc_sio.wav	1	6	6	noise_calib_stim_RIGHT.wav	2	35	blb_dichoticlistening_ta-pa.mp3	ta	pa	1	left
6.6.1	mac	2023-06-24	02:20:56	02:33:18	738899	5e1582d9805a30b7d0c8b9c7	2	1	main_z	24	advance_on_keypress_ZEE	44	stimuli_target_diamondsquares.svg	stimuli_distractor_trianglediamonds.svg	20	yes	57	0	350	6	4	antiphase_hc_sio.wav	1	6	6	noise_calib_stim_RIGHT.wav	2	35	blb_dichoticlistening_ta-pa.mp3	ta	pa	1	left
6.6.1	mac	2023-06-24	02:20:56	02:33:20	740819	5e1582d9805a30b7d0c8b9c7	2	1	main_z	24	main_z	45	stimuli_distractor_diamondtriangles.svg	stimuli_target_squaretriangles.svg	15	yes	44	1	943	6	4	antiphase_hc_sio.wav	1	6	6	noise_calib_stim_RIGHT.wav	2	35	blb_dichoticlistening_ta-pa.mp3	ta	pa	1	left
6.6.1	mac	2023-06-24	02:20:56	02:33:20	740819	5e1582d9805a30b7d0c8b9c7	2	1	main_z	24	advance_on_keypress_ZEE	46	stimuli_distractor_diamondtriangles.svg	stimuli_target_squaretriangles.svg	15	yes	57	0	388	6	4	antiphase_hc_sio.wav	1	6	6	noise_calib_stim_RIGHT.wav	2	35	blb_dichoticlistening_ta-pa.mp3	ta	pa	1	left
6.6.1	mac	2023-06-24	02:20:56	02:33:21	742542	5e1582d9805a30b7d0c8b9c7	2	1	main_z	24	main_z	47	stimuli_distractor_diamondtriangles.svg	stimuli_target_trianglesquares.svg	30	yes	44	1	716	6	4	antiphase_hc_sio.wav	1	6	6	noise_calib_stim_RIGHT.wav	2	35	blb_dichoticlistening_ta-pa.mp3	ta	pa	1	left
6.6.1	mac	2023-06-24	02:20:56	02:33:21	742542	5e1582d9805a30b7d0c8b9c7	2	1	main_z	24	advance_on_keypress_ZEE	48	stimuli_distractor_diamondtriangles.svg	stimuli_target_trianglesquares.svg	30	yes	57	0	376	6	4	antiphase_hc_sio.wav	1	6	6	noise_calib_stim_RIGHT.wav	2	35	blb_dichoticlistening_ta-pa.mp3	ta	pa	1	left
6.6.1	mac	2023-06-24	02:20:56	02:33:23	744556	5e1582d9805a30b7d0c8b9c7	2	1	main_z	24	main_z	49	stimuli_target_squarediamonds.svg	stimuli_distractor_trianglediamonds.svg	4	yes	44	1	1013	6	4	antiphase_hc_sio.wav	1	6	6	noise_calib_stim_RIGHT.wav	2	35	blb_dichoticlistening_ta-pa.mp3	ta	pa	1	left
6.6.1	mac	2023-06-24	02:20:56	02:33:23	744556	5e1582d9805a30b7d0c8b9c7	2	1	main_z	24	advance_on_keypress_ZEE	50	stimuli_target_squarediamonds.svg	stimuli_distractor_trianglediamonds.svg	4	yes	57	0	460	6	4	antiphase_hc_sio.wav	1	6	6	noise_calib_stim_RIGHT.wav	2	35	blb_dichoticlistening_ta-pa.mp3	ta	pa	1	left
6.6.1	mac	2023-06-24	02:20:56	02:33:27	747641	5e1582d9805a30b7d0c8b9c7	2	1	main_z	24	main_z	51	stimuli_distractor_diamondtriangles.svg	stimuli_distractor_trianglediamonds.svg	38	no	0	1	2000	6	4	antiphase_hc_sio.wav	1	6	6	noise_calib_stim_RIGHT.wav	2	35	blb_dichoticlistening_ta-pa.mp3	ta	pa	1	left
6.6.1	mac	2023-06-24	02:20:56	02:33:27	747641	5e1582d9805a30b7d0c8b9c7	2	1	main_z	24	advance_on_keypress_ZEE	52	stimuli_distractor_diamondtriangles.svg	stimuli_distractor_trianglediamonds.svg	38	no	57	0	620	6	4	antiphase_hc_sio.wav	1	6	6	noise_calib_stim_RIGHT.wav	2	35	blb_dichoticlistening_ta-pa.mp3	ta	pa	1	left
6.6.1	mac	2023-06-24	02:20:56	02:33:28	749489	5e1582d9805a30b7d0c8b9c7	2	1	main_z	24	main_z	53	stimuli_target_rectangletriangles.svg	stimuli_distractor_diamondtriangles.svg	5	yes	44	1	597	6	4	antiphase_hc_sio.wav	1	6	6	noise_calib_stim_RIGHT.wav	2	35	blb_dichoticlistening_ta-pa.mp3	ta	pa	1	left
6.6.1	mac	2023-06-24	02:20:56	02:33:28	749489	5e1582d9805a30b7d0c8b9c7	2	1	main_z	24	advance_on_keypress_ZEE	54	stimuli_target_rectangletriangles.svg	stimuli_distractor_diamondtriangles.svg	5	yes	57	0	313	6	4	antiphase_hc_sio.wav	1	6	6	noise_calib_stim_RIGHT.wav	2	35	blb_dichoticlistening_ta-pa.mp3	ta	pa	1	left
6.6.1	mac	2023-06-24	02:20:56	02:33:31	752442	5e1582d9805a30b7d0c8b9c7	2	1	main_z	24	main_z	55	stimuli_distractor_diamondtriangles.svg	stimuli_distractor_diamondtriangles.svg	39	no	0	1	2000	6	4	antiphase_hc_sio.wav	1	6	6	noise_calib_stim_RIGHT.wav	2	35	blb_dichoticlistening_ta-pa.mp3	ta	pa	1	left
6.6.1	mac	2023-06-24	02:20:56	02:33:31	752442	5e1582d9805a30b7d0c8b9c7	2	1	main_z	24	advance_on_keypress_ZEE	56	stimuli_distractor_diamondtriangles.svg	stimuli_distractor_diamondtriangles.svg	39	no	57	0	309	6	4	antiphase_hc_sio.wav	1	6	6	noise_calib_stim_RIGHT.wav	2	35	blb_dichoticlistening_ta-pa.mp3	ta	pa	1	left
6.6.1	mac	2023-06-24	02:20:56	02:33:34	755375	5e1582d9805a30b7d0c8b9c7	2	1	main_z	24	main_z	57	stimuli_distractor_trianglediamonds.svg	stimuli_distractor_diamondtriangles.svg	35	no	0	1	2000	6	4	antiphase_hc_sio.wav	1	6	6	noise_calib_stim_RIGHT.wav	2	35	blb_dichoticlistening_ta-pa.mp3	ta	pa	1	left
6.6.1	mac	2023-06-24	02:20:56	02:33:34	755375	5e1582d9805a30b7d0c8b9c7	2	1	main_z	24	advance_on_keypress_ZEE	58	stimuli_distractor_trianglediamonds.svg	stimuli_distractor_diamondtriangles.svg	35	no	57	0	361	6	4	antiphase_hc_sio.wav	1	6	6	noise_calib_stim_RIGHT.wav	2	35	blb_dichoticlistening_ta-pa.mp3	ta	pa	1	left
6.6.1	mac	2023-06-24	02:20:56	02:33:36	756848	5e1582d9805a30b7d0c8b9c7	2	1	main_z	24	main_z	59	stimuli_target_rectanglediamonds.svg	stimuli_distractor_trianglediamonds.svg	2	yes	44	1	472	6	4	antiphase_hc_sio.wav	1	6	6	noise_calib_stim_RIGHT.wav	2	35	blb_dichoticlistening_ta-pa.mp3	ta	pa	1	left
6.6.1	mac	2023-06-24	02:20:56	02:33:36	756848	5e1582d9805a30b7d0c8b9c7	2	1	main_z	24	advance_on_keypress_ZEE	60	stimuli_target_rectanglediamonds.svg	stimuli_distractor_trianglediamonds.svg	2	yes	57	0	333	6	4	antiphase_hc_sio.wav	1	6	6	noise_calib_stim_RIGHT.wav	2	35	blb_dichoticlistening_ta-pa.mp3	ta	pa	1	left
6.6.1	mac	2023-06-24	02:20:56	02:33:37	758367	5e1582d9805a30b7d0c8b9c7	2	1	main_z	24	main_z	61	stimuli_target_diamondrectangles.svg	stimuli_distractor_diamondtriangles.svg	23	yes	44	1	558	6	4	antiphase_hc_sio.wav	1	6	6	noise_calib_stim_RIGHT.wav	2	35	blb_dichoticlistening_ta-pa.mp3	ta	pa	1	left
6.6.1	mac	2023-06-24	02:20:56	02:33:37	758367	5e1582d9805a30b7d0c8b9c7	2	1	main_z	24	advance_on_keypress_ZEE	62	stimuli_target_diamondrectangles.svg	stimuli_distractor_diamondtriangles.svg	23	yes	57	0	410	6	4	antiphase_hc_sio.wav	1	6	6	noise_calib_stim_RIGHT.wav	2	35	blb_dichoticlistening_ta-pa.mp3	ta	pa	1	left
6.6.1	mac	2023-06-24	02:20:56	02:33:40	761408	5e1582d9805a30b7d0c8b9c7	2	1	main_z	24	main_z	63	stimuli_distractor_trianglediamonds.svg	stimuli_distractor_trianglediamonds.svg	34	no	0	1	2000	6	4	antiphase_hc_sio.wav	1	6	6	noise_calib_stim_RIGHT.wav	2	35	blb_dichoticlistening_ta-pa.mp3	ta	pa	1	left
6.6.1	mac	2023-06-24	02:20:56	02:33:40	761408	5e1582d9805a30b7d0c8b9c7	2	1	main_z	24	advance_on_keypress_ZEE	64	stimuli_distractor_trianglediamonds.svg	stimuli_distractor_trianglediamonds.svg	34	no	57	0	579	6	4	antiphase_hc_sio.wav	1	6	6	noise_calib_stim_RIGHT.wav	2	35	blb_dichoticlistening_ta-pa.mp3	ta	pa	1	left
6.6.1	mac	2023-06-24	02:20:56	02:33:42	763378	5e1582d9805a30b7d0c8b9c7	2	1	main_z	24	main_z	65	stimuli_distractor_trianglediamonds.svg	stimuli_target_squaretriangles.svg	11	yes	44	1	752	6	4	antiphase_hc_sio.wav	1	6	6	noise_calib_stim_RIGHT.wav	2	35	blb_dichoticlistening_ta-pa.mp3	ta	pa	1	left
6.6.1	mac	2023-06-24	02:20:56	02:33:42	763378	5e1582d9805a30b7d0c8b9c7	2	1	main_z	24	advance_on_keypress_ZEE	66	stimuli_distractor_trianglediamonds.svg	stimuli_target_squaretriangles.svg	11	yes	57	0	484	6	4	antiphase_hc_sio.wav	1	6	6	noise_calib_stim_RIGHT.wav	2	35	blb_dichoticlistening_ta-pa.mp3	ta	pa	1	left
6.6.1	mac	2023-06-24	02:20:56	02:33:44	765167	5e1582d9805a30b7d0c8b9c7	2	1	main_z	24	main_z	67	stimuli_distractor_diamondtriangles.svg	stimuli_target_squarediamonds.svg	16	yes	44	1	674	6	4	antiphase_hc_sio.wav	1	6	6	noise_calib_stim_RIGHT.wav	2	35	blb_dichoticlistening_ta-pa.mp3	ta	pa	1	left
6.6.1	mac	2023-06-24	02:20:56	02:33:44	765167	5e1582d9805a30b7d0c8b9c7	2	1	main_z	24	advance_on_keypress_ZEE	68	stimuli_distractor_diamondtriangles.svg	stimuli_target_squarediamonds.svg	16	yes	57	0	348	6	4	antiphase_hc_sio.wav	1	6	6	noise_calib_stim_RIGHT.wav	2	35	blb_dichoticlistening_ta-pa.mp3	ta	pa	1	left
6.6.1	mac	2023-06-24	02:20:56	02:33:46	766877	5e1582d9805a30b7d0c8b9c7	2	1	main_z	24	main_z	69	stimuli_target_trianglerectangles.svg	stimuli_distractor_diamondtriangles.svg	21	yes	44	1	735	6	4	antiphase_hc_sio.wav	1	6	6	noise_calib_stim_RIGHT.wav	2	35	blb_dichoticlistening_ta-pa.mp3	ta	pa	1	left
6.6.1	mac	2023-06-24	02:20:56	02:33:46	766877	5e1582d9805a30b7d0c8b9c7	2	1	main_z	24	advance_on_keypress_ZEE	70	stimuli_target_trianglerectangles.svg	stimuli_distractor_diamondtriangles.svg	21	yes	57	0	354	6	4	antiphase_hc_sio.wav	1	6	6	noise_calib_stim_RIGHT.wav	2	35	blb_dichoticlistening_ta-pa.mp3	ta	pa	1	left
6.6.1	mac	2023-06-24	02:20:56	02:33:47	768592	5e1582d9805a30b7d0c8b9c7	2	1	main_z	24	main_z	71	stimuli_target_diamondsquares.svg	stimuli_distractor_diamondtriangles.svg	24	yes	44	1	734	6	4	antiphase_hc_sio.wav	1	6	6	noise_calib_stim_RIGHT.wav	2	35	blb_dichoticlistening_ta-pa.mp3	ta	pa	1	left
6.6.1	mac	2023-06-24	02:20:56	02:33:47	768592	5e1582d9805a30b7d0c8b9c7	2	1	main_z	24	advance_on_keypress_ZEE	72	stimuli_target_diamondsquares.svg	stimuli_distractor_diamondtriangles.svg	24	yes	57	0	335	6	4	antiphase_hc_sio.wav	1	6	6	noise_calib_stim_RIGHT.wav	2	35	blb_dichoticlistening_ta-pa.mp3	ta	pa	1	left
6.6.1	mac	2023-06-24	02:20:56	02:33:49	770380	5e1582d9805a30b7d0c8b9c7	2	1	main_z	24	main_z	73	stimuli_target_squaretriangles.svg	stimuli_distractor_diamondtriangles.svg	7	yes	44	1	820	6	4	antiphase_hc_sio.wav	1	6	6	noise_calib_stim_RIGHT.wav	2	35	blb_dichoticlistening_ta-pa.mp3	ta	pa	1	left
6.6.1	mac	2023-06-24	02:20:56	02:33:49	770380	5e1582d9805a30b7d0c8b9c7	2	1	main_z	24	advance_on_keypress_ZEE	74	stimuli_target_squaretriangles.svg	stimuli_distractor_diamondtriangles.svg	7	yes	57	0	327	6	4	antiphase_hc_sio.wav	1	6	6	noise_calib_stim_RIGHT.wav	2	35	blb_dichoticlistening_ta-pa.mp3	ta	pa	1	left
6.6.1	mac	2023-06-24	02:20:56	02:33:52	773326	5e1582d9805a30b7d0c8b9c7	2	1	main_z	24	main_z	75	stimuli_distractor_trianglediamonds.svg	stimuli_distractor_trianglediamonds.svg	33	no	0	1	2000	6	4	antiphase_hc_sio.wav	1	6	6	noise_calib_stim_RIGHT.wav	2	35	blb_dichoticlistening_ta-pa.mp3	ta	pa	1	left
6.6.1	mac	2023-06-24	02:20:56	02:33:52	773326	5e1582d9805a30b7d0c8b9c7	2	1	main_z	24	advance_on_keypress_ZEE	76	stimuli_distractor_trianglediamonds.svg	stimuli_distractor_trianglediamonds.svg	33	no	57	0	562	6	4	antiphase_hc_sio.wav	1	6	6	noise_calib_stim_RIGHT.wav	2	35	blb_dichoticlistening_ta-pa.mp3	ta	pa	1	left
6.6.1	mac	2023-06-24	02:20:56	02:33:54	775524	5e1582d9805a30b7d0c8b9c7	2	1	main_z	24	main_z	77	stimuli_distractor_diamondtriangles.svg	stimuli_target_trianglerectangles.svg	29	yes	44	1	998	6	4	antiphase_hc_sio.wav	1	6	6	noise_calib_stim_RIGHT.wav	2	35	blb_dichoticlistening_ta-pa.mp3	ta	pa	1	left
6.6.1	mac	2023-06-24	02:20:56	02:33:54	775524	5e1582d9805a30b7d0c8b9c7	2	1	main_z	24	advance_on_keypress_ZEE	78	stimuli_distractor_diamondtriangles.svg	stimuli_target_trianglerectangles.svg	29	yes	57	0	376	6	4	antiphase_hc_sio.wav	1	6	6	noise_calib_stim_RIGHT.wav	2	35	blb_dichoticlistening_ta-pa.mp3	ta	pa	1	left
6.6.1	mac	2023-06-24	02:20:56	02:33:56	777476	5e1582d9805a30b7d0c8b9c7	2	1	main_z	24	main_z	79	stimuli_target_trianglerectangles.svg	stimuli_distractor_trianglediamonds.svg	17	yes	44	1	949	6	4	antiphase_hc_sio.wav	1	6	6	noise_calib_stim_RIGHT.wav	2	35	blb_dichoticlistening_ta-pa.mp3	ta	pa	1	left
6.6.1	mac	2023-06-24	02:20:56	02:33:56	777476	5e1582d9805a30b7d0c8b9c7	2	1	main_z	24	advance_on_keypress_ZEE	80	stimuli_target_trianglerectangles.svg	stimuli_distractor_trianglediamonds.svg	17	yes	57	0	392	6	4	antiphase_hc_sio.wav	1	6	6	noise_calib_stim_RIGHT.wav	2	35	blb_dichoticlistening_ta-pa.mp3	ta	pa	1	left
6.6.1	mac	2023-06-24	02:20:56	02:33:58	779285	5e1582d9805a30b7d0c8b9c7	2	1	main_z	24	main_z	81	stimuli_distractor_trianglediamonds.svg	stimuli_target_trianglerectangles.svg	25	yes	44	1	792	6	4	antiphase_hc_sio.wav	1	6	6	noise_calib_stim_RIGHT.wav	2	35	blb_dichoticlistening_ta-pa.mp3	ta	pa	1	left
6.6.1	mac	2023-06-24	02:20:56	02:33:58	779285	5e1582d9805a30b7d0c8b9c7	2	1	main_z	24	advance_on_keypress_ZEE	82	stimuli_distractor_trianglediamonds.svg	stimuli_target_trianglerectangles.svg	25	yes	57	0	348	6	4	antiphase_hc_sio.wav	1	6	6	noise_calib_stim_RIGHT.wav	2	35	blb_dichoticlistening_ta-pa.mp3	ta	pa	1	left
6.6.1	mac	2023-06-24	02:20:56	02:34:00	781035	5e1582d9805a30b7d0c8b9c7	2	1	main_z	24	main_z	83	stimuli_distractor_diamondtriangles.svg	stimuli_target_rectangletriangles.svg	13	yes	44	1	776	6	4	antiphase_hc_sio.wav	1	6	6	noise_calib_stim_RIGHT.wav	2	35	blb_dichoticlistening_ta-pa.mp3	ta	pa	1	left
6.6.1	mac	2023-06-24	02:20:56	02:34:00	781035	5e1582d9805a30b7d0c8b9c7	2	1	main_z	24	advance_on_keypress_ZEE	84	stimuli_distractor_diamondtriangles.svg	stimuli_target_rectangletriangles.svg	13	yes	57	0	404	6	4	antiphase_hc_sio.wav	1	6	6	noise_calib_stim_RIGHT.wav	2	35	blb_dichoticlistening_ta-pa.mp3	ta	pa	1	left
6.6.1	mac	2023-06-24	02:20:56	02:34:02	782912	5e1582d9805a30b7d0c8b9c7	2	1	main_z	24	main_z	85	stimuli_target_diamondsquares.svg	stimuli_distractor_trianglediamonds.svg	20	yes	44	1	854	6	4	antiphase_hc_sio.wav	1	6	6	noise_calib_stim_RIGHT.wav	2	35	blb_dichoticlistening_ta-pa.mp3	ta	pa	1	left
6.6.1	mac	2023-06-24	02:20:56	02:34:02	782912	5e1582d9805a30b7d0c8b9c7	2	1	main_z	24	advance_on_keypress_ZEE	86	stimuli_target_diamondsquares.svg	stimuli_distractor_trianglediamonds.svg	20	yes	57	0	386	6	4	antiphase_hc_sio.wav	1	6	6	noise_calib_stim_RIGHT.wav	2	35	blb_dichoticlistening_ta-pa.mp3	ta	pa	1	left
6.6.1	mac	2023-06-24	02:20:56	02:34:04	784730	5e1582d9805a30b7d0c8b9c7	2	1	main_z	24	main_z	87	stimuli_distractor_diamondtriangles.svg	stimuli_target_squarediamonds.svg	16	yes	44	1	804	6	4	antiphase_hc_sio.wav	1	6	6	noise_calib_stim_RIGHT.wav	2	35	blb_dichoticlistening_ta-pa.mp3	ta	pa	1	left
6.6.1	mac	2023-06-24	02:20:56	02:34:04	784730	5e1582d9805a30b7d0c8b9c7	2	1	main_z	24	advance_on_keypress_ZEE	88	stimuli_distractor_diamondtriangles.svg	stimuli_target_squarediamonds.svg	16	yes	57	0	373	6	4	antiphase_hc_sio.wav	1	6	6	noise_calib_stim_RIGHT.wav	2	35	blb_dichoticlistening_ta-pa.mp3	ta	pa	1	left
6.6.1	mac	2023-06-24	02:20:56	02:34:07	787726	5e1582d9805a30b7d0c8b9c7	2	1	main_z	24	main_z	89	stimuli_distractor_trianglediamonds.svg	stimuli_distractor_trianglediamonds.svg	33	no	0	1	2000	6	4	antiphase_hc_sio.wav	1	6	6	noise_calib_stim_RIGHT.wav	2	35	blb_dichoticlistening_ta-pa.mp3	ta	pa	1	left
6.6.1	mac	2023-06-24	02:20:56	02:34:07	787726	5e1582d9805a30b7d0c8b9c7	2	1	main_z	24	advance_on_keypress_ZEE	90	stimuli_distractor_trianglediamonds.svg	stimuli_distractor_trianglediamonds.svg	33	no	57	0	427	6	4	antiphase_hc_sio.wav	1	6	6	noise_calib_stim_RIGHT.wav	2	35	blb_dichoticlistening_ta-pa.mp3	ta	pa	1	left
6.6.1	mac	2023-06-24	02:20:56	02:34:08	789569	5e1582d9805a30b7d0c8b9c7	2	1	main_z	24	main_z	91	stimuli_distractor_diamondtriangles.svg	stimuli_target_rectanglediamonds.svg	14	yes	44	1	793	6	4	antiphase_hc_sio.wav	1	6	6	noise_calib_stim_RIGHT.wav	2	35	blb_dichoticlistening_ta-pa.mp3	ta	pa	1	left
6.6.1	mac	2023-06-24	02:20:56	02:34:08	789569	5e1582d9805a30b7d0c8b9c7	2	1	main_z	24	advance_on_keypress_ZEE	92	stimuli_distractor_diamondtriangles.svg	stimuli_target_rectanglediamonds.svg	14	yes	57	0	374	6	4	antiphase_hc_sio.wav	1	6	6	noise_calib_stim_RIGHT.wav	2	35	blb_dichoticlistening_ta-pa.mp3	ta	pa	1	left
6.6.1	mac	2023-06-24	02:20:56	02:34:10	791313	5e1582d9805a30b7d0c8b9c7	2	1	main_z	24	main_z	93	stimuli_target_rectangletriangles.svg	stimuli_distractor_diamondtriangles.svg	5	yes	44	1	753	6	4	antiphase_hc_sio.wav	1	6	6	noise_calib_stim_RIGHT.wav	2	35	blb_dichoticlistening_ta-pa.mp3	ta	pa	1	left
6.6.1	mac	2023-06-24	02:20:56	02:34:10	791313	5e1582d9805a30b7d0c8b9c7	2	1	main_z	24	advance_on_keypress_ZEE	94	stimuli_target_rectangletriangles.svg	stimuli_distractor_diamondtriangles.svg	5	yes	57	0	312	6	4	antiphase_hc_sio.wav	1	6	6	noise_calib_stim_RIGHT.wav	2	35	blb_dichoticlistening_ta-pa.mp3	ta	pa	1	left
6.6.1	mac	2023-06-24	02:20:56	02:34:12	793032	5e1582d9805a30b7d0c8b9c7	2	1	main_z	24	main_z	95	stimuli_distractor_diamondtriangles.svg	stimuli_target_trianglesquares.svg	30	yes	44	1	773	6	4	antiphase_hc_sio.wav	1	6	6	noise_calib_stim_RIGHT.wav	2	35	blb_dichoticlistening_ta-pa.mp3	ta	pa	1	left
6.6.1	mac	2023-06-24	02:20:56	02:34:12	793032	5e1582d9805a30b7d0c8b9c7	2	1	main_z	24	advance_on_keypress_ZEE	96	stimuli_distractor_diamondtriangles.svg	stimuli_target_trianglesquares.svg	30	yes	57	0	326	6	4	antiphase_hc_sio.wav	1	6	6	noise_calib_stim_RIGHT.wav	2	35	blb_dichoticlistening_ta-pa.mp3	ta	pa	1	left
6.6.1	mac	2023-06-24	02:20:56	02:34:15	795975	5e1582d9805a30b7d0c8b9c7	2	1	main_z	24	main_z	97	stimuli_distractor_diamondtriangles.svg	stimuli_distractor_trianglediamonds.svg	37	no	0	1	2000	6	4	antiphase_hc_sio.wav	1	6	6	noise_calib_stim_RIGHT.wav	2	35	blb_dichoticlistening_ta-pa.mp3	ta	pa	1	left
6.6.1	mac	2023-06-24	02:20:56	02:34:15	795975	5e1582d9805a30b7d0c8b9c7	2	1	main_z	24	advance_on_keypress_ZEE	98	stimuli_distractor_diamondtriangles.svg	stimuli_distractor_trianglediamonds.svg	37	no	57	0	600	6	4	antiphase_hc_sio.wav	1	6	6	noise_calib_stim_RIGHT.wav	2	35	blb_dichoticlistening_ta-pa.mp3	ta	pa	1	left
6.6.1	mac	2023-06-24	02:20:56	02:34:17	797768	5e1582d9805a30b7d0c8b9c7	2	1	main_z	24	main_z	99	stimuli_target_trianglerectangles.svg	stimuli_distractor_diamondtriangles.svg	21	yes	44	1	559	6	4	antiphase_hc_sio.wav	1	6	6	noise_calib_stim_RIGHT.wav	2	35	blb_dichoticlistening_ta-pa.mp3	ta	pa	1	left
6.6.1	mac	2023-06-24	02:20:56	02:34:17	797768	5e1582d9805a30b7d0c8b9c7	2	1	main_z	24	advance_on_keypress_ZEE	100	stimuli_target_trianglerectangles.svg	stimuli_distractor_diamondtriangles.svg	21	yes	57	0	388	6	4	antiphase_hc_sio.wav	1	6	6	noise_calib_stim_RIGHT.wav	2	35	blb_dichoticlistening_ta-pa.mp3	ta	pa	1	left
6.6.1	mac	2023-06-24	02:20:56	02:34:18	799498	5e1582d9805a30b7d0c8b9c7	2	1	main_z	24	main_z	101	stimuli_distractor_diamondtriangles.svg	stimuli_target_diamondsquares.svg	32	yes	44	1	721	6	4	antiphase_hc_sio.wav	1	6	6	noise_calib_stim_RIGHT.wav	2	35	blb_dichoticlistening_ta-pa.mp3	ta	pa	1	left
6.6.1	mac	2023-06-24	02:20:56	02:34:18	799498	5e1582d9805a30b7d0c8b9c7	2	1	main_z	24	advance_on_keypress_ZEE	102	stimuli_distractor_diamondtriangles.svg	stimuli_target_diamondsquares.svg	32	yes	57	0	354	6	4	antiphase_hc_sio.wav	1	6	6	noise_calib_stim_RIGHT.wav	2	35	blb_dichoticlistening_ta-pa.mp3	ta	pa	1	left
6.6.1	mac	2023-06-24	02:20:56	02:34:20	801232	5e1582d9805a30b7d0c8b9c7	2	1	main_z	24	main_z	103	stimuli_target_squaretriangles.svg	stimuli_distractor_diamondtriangles.svg	7	yes	44	1	755	6	4	antiphase_hc_sio.wav	1	6	6	noise_calib_stim_RIGHT.wav	2	35	blb_dichoticlistening_ta-pa.mp3	ta	pa	1	left
6.6.1	mac	2023-06-24	02:20:56	02:34:20	801232	5e1582d9805a30b7d0c8b9c7	2	1	main_z	24	advance_on_keypress_ZEE	104	stimuli_target_squaretriangles.svg	stimuli_distractor_diamondtriangles.svg	7	yes	57	0	349	6	4	antiphase_hc_sio.wav	1	6	6	noise_calib_stim_RIGHT.wav	2	35	blb_dichoticlistening_ta-pa.mp3	ta	pa	1	left
6.6.1	mac	2023-06-24	02:20:56	02:34:23	804208	5e1582d9805a30b7d0c8b9c7	2	1	main_z	24	main_z	105	stimuli_distractor_diamondtriangles.svg	stimuli_distractor_trianglediamonds.svg	38	no	0	1	2000	6	4	antiphase_hc_sio.wav	1	6	6	noise_calib_stim_RIGHT.wav	2	35	blb_dichoticlistening_ta-pa.mp3	ta	pa	1	left
6.6.1	mac	2023-06-24	02:20:56	02:34:23	804208	5e1582d9805a30b7d0c8b9c7	2	1	main_z	24	advance_on_keypress_ZEE	106	stimuli_distractor_diamondtriangles.svg	stimuli_distractor_trianglediamonds.svg	38	no	57	0	636	6	4	antiphase_hc_sio.wav	1	6	6	noise_calib_stim_RIGHT.wav	2	35	blb_dichoticlistening_ta-pa.mp3	ta	pa	1	left
6.6.1	mac	2023-06-24	02:20:56	02:34:25	806225	5e1582d9805a30b7d0c8b9c7	2	1	main_z	24	main_z	107	stimuli_distractor_trianglediamonds.svg	stimuli_target_diamondsquares.svg	28	yes	44	1	748	6	4	antiphase_hc_sio.wav	1	6	6	noise_calib_stim_RIGHT.wav	2	35	blb_dichoticlistening_ta-pa.mp3	ta	pa	1	left
6.6.1	mac	2023-06-24	02:20:56	02:34:25	806225	5e1582d9805a30b7d0c8b9c7	2	1	main_z	24	advance_on_keypress_ZEE	108	stimuli_distractor_trianglediamonds.svg	stimuli_target_diamondsquares.svg	28	yes	57	0	325	6	4	antiphase_hc_sio.wav	1	6	6	noise_calib_stim_RIGHT.wav	2	35	blb_dichoticlistening_ta-pa.mp3	ta	pa	1	left
6.6.1	mac	2023-06-24	02:20:56	02:34:27	807917	5e1582d9805a30b7d0c8b9c7	2	1	main_z	24	main_z	109	stimuli_target_diamondsquares.svg	stimuli_distractor_diamondtriangles.svg	24	yes	44	1	741	6	4	antiphase_hc_sio.wav	1	6	6	noise_calib_stim_RIGHT.wav	2	35	blb_dichoticlistening_ta-pa.mp3	ta	pa	1	left
6.6.1	mac	2023-06-24	02:20:56	02:34:27	807917	5e1582d9805a30b7d0c8b9c7	2	1	main_z	24	advance_on_keypress_ZEE	110	stimuli_target_diamondsquares.svg	stimuli_distractor_diamondtriangles.svg	24	yes	57	0	349	6	4	antiphase_hc_sio.wav	1	6	6	noise_calib_stim_RIGHT.wav	2	35	blb_dichoticlistening_ta-pa.mp3	ta	pa	1	left
6.6.1	mac	2023-06-24	02:20:56	02:34:29	809672	5e1582d9805a30b7d0c8b9c7	2	1	main_z	24	main_z	111	stimuli_target_rectanglediamonds.svg	stimuli_distractor_diamondtriangles.svg	6	yes	44	1	779	6	4	antiphase_hc_sio.wav	1	6	6	noise_calib_stim_RIGHT.wav	2	35	blb_dichoticlistening_ta-pa.mp3	ta	pa	1	left
6.6.1	mac	2023-06-24	02:20:56	02:34:29	809672	5e1582d9805a30b7d0c8b9c7	2	1	main_z	24	advance_on_keypress_ZEE	112	stimuli_target_rectanglediamonds.svg	stimuli_distractor_diamondtriangles.svg	6	yes	57	0	342	6	4	antiphase_hc_sio.wav	1	6	6	noise_calib_stim_RIGHT.wav	2	35	blb_dichoticlistening_ta-pa.mp3	ta	pa	1	left
6.6.1	mac	2023-06-24	02:20:56	02:34:30	811507	5e1582d9805a30b7d0c8b9c7	2	1	main_z	24	main_z	113	stimuli_distractor_trianglediamonds.svg	stimuli_target_diamondrectangles.svg	27	yes	44	1	864	6	4	antiphase_hc_sio.wav	1	6	6	noise_calib_stim_RIGHT.wav	2	35	blb_dichoticlistening_ta-pa.mp3	ta	pa	1	left
6.6.1	mac	2023-06-24	02:20:56	02:34:30	811507	5e1582d9805a30b7d0c8b9c7	2	1	main_z	24	advance_on_keypress_ZEE	114	stimuli_distractor_trianglediamonds.svg	stimuli_target_diamondrectangles.svg	27	yes	57	0	342	6	4	antiphase_hc_sio.wav	1	6	6	noise_calib_stim_RIGHT.wav	2	35	blb_dichoticlistening_ta-pa.mp3	ta	pa	1	left
6.6.1	mac	2023-06-24	02:20:56	02:34:33	814475	5e1582d9805a30b7d0c8b9c7	2	1	main_z	24	main_z	115	stimuli_distractor_trianglediamonds.svg	stimuli_distractor_trianglediamonds.svg	34	no	0	1	2000	6	4	antiphase_hc_sio.wav	1	6	6	noise_calib_stim_RIGHT.wav	2	35	blb_dichoticlistening_ta-pa.mp3	ta	pa	1	left
6.6.1	mac	2023-06-24	02:20:56	02:34:33	814475	5e1582d9805a30b7d0c8b9c7	2	1	main_z	24	advance_on_keypress_ZEE	116	stimuli_distractor_trianglediamonds.svg	stimuli_distractor_trianglediamonds.svg	34	no	57	0	406	6	4	antiphase_hc_sio.wav	1	6	6	noise_calib_stim_RIGHT.wav	2	35	blb_dichoticlistening_ta-pa.mp3	ta	pa	1	left
6.6.1	mac	2023-06-24	02:20:56	02:34:35	816097	5e1582d9805a30b7d0c8b9c7	2	1	main_z	24	main_z	117	stimuli_distractor_diamondtriangles.svg	stimuli_target_squaretriangles.svg	15	yes	44	1	586	6	4	antiphase_hc_sio.wav	1	6	6	noise_calib_stim_RIGHT.wav	2	35	blb_dichoticlistening_ta-pa.mp3	ta	pa	1	left
6.6.1	mac	2023-06-24	02:20:56	02:34:35	816097	5e1582d9805a30b7d0c8b9c7	2	1	main_z	24	advance_on_keypress_ZEE	118	stimuli_distractor_diamondtriangles.svg	stimuli_target_squaretriangles.svg	15	yes	57	0	349	6	4	antiphase_hc_sio.wav	1	6	6	noise_calib_stim_RIGHT.wav	2	35	blb_dichoticlistening_ta-pa.mp3	ta	pa	1	left
6.6.1	mac	2023-06-24	02:20:56	02:34:37	817781	5e1582d9805a30b7d0c8b9c7	2	1	main_z	24	main_z	119	stimuli_distractor_trianglediamonds.svg	stimuli_target_squarediamonds.svg	12	yes	44	1	705	6	4	antiphase_hc_sio.wav	1	6	6	noise_calib_stim_RIGHT.wav	2	35	blb_dichoticlistening_ta-pa.mp3	ta	pa	1	left
6.6.1	mac	2023-06-24	02:20:56	02:34:37	817781	5e1582d9805a30b7d0c8b9c7	2	1	main_z	24	advance_on_keypress_ZEE	120	stimuli_distractor_trianglediamonds.svg	stimuli_target_squarediamonds.svg	12	yes	57	0	399	6	4	antiphase_hc_sio.wav	1	6	6	noise_calib_stim_RIGHT.wav	2	35	blb_dichoticlistening_ta-pa.mp3	ta	pa	1	left
6.6.1	mac	2023-06-24	02:20:56	02:34:39	819632	5e1582d9805a30b7d0c8b9c7	2	1	main_z	24	main_z	121	stimuli_target_trianglesquares.svg	stimuli_distractor_trianglediamonds.svg	18	yes	44	1	823	6	4	antiphase_hc_sio.wav	1	6	6	noise_calib_stim_RIGHT.wav	2	35	blb_dichoticlistening_ta-pa.mp3	ta	pa	1	left
6.6.1	mac	2023-06-24	02:20:56	02:34:39	819632	5e1582d9805a30b7d0c8b9c7	2	1	main_z	24	advance_on_keypress_ZEE	122	stimuli_target_trianglesquares.svg	stimuli_distractor_trianglediamonds.svg	18	yes	57	0	400	6	4	antiphase_hc_sio.wav	1	6	6	noise_calib_stim_RIGHT.wav	2	35	blb_dichoticlistening_ta-pa.mp3	ta	pa	1	left
6.6.1	mac	2023-06-24	02:20:56	02:34:42	822658	5e1582d9805a30b7d0c8b9c7	2	1	main_z	24	main_z	123	stimuli_distractor_trianglediamonds.svg	stimuli_distractor_diamondtriangles.svg	35	no	0	1	2000	6	4	antiphase_hc_sio.wav	1	6	6	noise_calib_stim_RIGHT.wav	2	35	blb_dichoticlistening_ta-pa.mp3	ta	pa	1	left
6.6.1	mac	2023-06-24	02:20:56	02:34:42	822658	5e1582d9805a30b7d0c8b9c7	2	1	main_z	24	advance_on_keypress_ZEE	124	stimuli_distractor_trianglediamonds.svg	stimuli_distractor_diamondtriangles.svg	35	no	57	0	391	6	4	antiphase_hc_sio.wav	1	6	6	noise_calib_stim_RIGHT.wav	2	35	blb_dichoticlistening_ta-pa.mp3	ta	pa	1	left
6.6.1	mac	2023-06-24	02:20:56	02:34:43	824536	5e1582d9805a30b7d0c8b9c7	2	1	main_z	24	main_z	125	stimuli_target_rectanglediamonds.svg	stimuli_distractor_trianglediamonds.svg	2	yes	44	1	859	6	4	antiphase_hc_sio.wav	1	6	6	noise_calib_stim_RIGHT.wav	2	35	blb_dichoticlistening_ta-pa.mp3	ta	pa	1	left
6.6.1	mac	2023-06-24	02:20:56	02:34:43	824536	5e1582d9805a30b7d0c8b9c7	2	1	main_z	24	advance_on_keypress_ZEE	126	stimuli_target_rectanglediamonds.svg	stimuli_distractor_trianglediamonds.svg	2	yes	57	0	319	6	4	antiphase_hc_sio.wav	1	6	6	noise_calib_stim_RIGHT.wav	2	35	blb_dichoticlistening_ta-pa.mp3	ta	pa	1	left
6.6.1	mac	2023-06-24	02:20:56	02:34:45	826086	5e1582d9805a30b7d0c8b9c7	2	1	main_z	24	main_z	127	stimuli_target_squarediamonds.svg	stimuli_distractor_diamondtriangles.svg	8	yes	44	1	610	6	4	antiphase_hc_sio.wav	1	6	6	noise_calib_stim_RIGHT.wav	2	35	blb_dichoticlistening_ta-pa.mp3	ta	pa	1	left
6.6.1	mac	2023-06-24	02:20:56	02:34:45	826086	5e1582d9805a30b7d0c8b9c7	2	1	main_z	24	advance_on_keypress_ZEE	128	stimuli_target_squarediamonds.svg	stimuli_distractor_diamondtriangles.svg	8	yes	57	0	327	6	4	antiphase_hc_sio.wav	1	6	6	noise_calib_stim_RIGHT.wav	2	35	blb_dichoticlistening_ta-pa.mp3	ta	pa	1	left
6.6.1	mac	2023-06-24	02:20:56	02:34:47	827646	5e1582d9805a30b7d0c8b9c7	2	1	main_z	24	main_z	129	stimuli_target_diamondrectangles.svg	stimuli_distractor_trianglediamonds.svg	19	yes	44	1	620	6	4	antiphase_hc_sio.wav	1	6	6	noise_calib_stim_RIGHT.wav	2	35	blb_dichoticlistening_ta-pa.mp3	ta	pa	1	left
6.6.1	mac	2023-06-24	02:20:56	02:34:47	827646	5e1582d9805a30b7d0c8b9c7	2	1	main_z	24	advance_on_keypress_ZEE	130	stimuli_target_diamondrectangles.svg	stimuli_distractor_trianglediamonds.svg	19	yes	57	0	331	6	4	antiphase_hc_sio.wav	1	6	6	noise_calib_stim_RIGHT.wav	2	35	blb_dichoticlistening_ta-pa.mp3	ta	pa	1	left
6.6.1	mac	2023-06-24	02:20:56	02:34:48	829332	5e1582d9805a30b7d0c8b9c7	2	1	main_z	24	main_z	131	stimuli_distractor_trianglediamonds.svg	stimuli_target_squaretriangles.svg	11	yes	44	1	723	6	4	antiphase_hc_sio.wav	1	6	6	noise_calib_stim_RIGHT.wav	2	35	blb_dichoticlistening_ta-pa.mp3	ta	pa	1	left
6.6.1	mac	2023-06-24	02:20:56	02:34:48	829332	5e1582d9805a30b7d0c8b9c7	2	1	main_z	24	advance_on_keypress_ZEE	132	stimuli_distractor_trianglediamonds.svg	stimuli_target_squaretriangles.svg	11	yes	57	0	326	6	4	antiphase_hc_sio.wav	1	6	6	noise_calib_stim_RIGHT.wav	2	35	blb_dichoticlistening_ta-pa.mp3	ta	pa	1	left
6.6.1	mac	2023-06-24	02:20:56	02:34:50	830966	5e1582d9805a30b7d0c8b9c7	2	1	main_z	24	main_z	133	stimuli_distractor_diamondtriangles.svg	stimuli_target_trianglerectangles.svg	29	yes	44	1	690	6	4	antiphase_hc_sio.wav	1	6	6	noise_calib_stim_RIGHT.wav	2	35	blb_dichoticlistening_ta-pa.mp3	ta	pa	1	left
6.6.1	mac	2023-06-24	02:20:56	02:34:50	830966	5e1582d9805a30b7d0c8b9c7	2	1	main_z	24	advance_on_keypress_ZEE	134	stimuli_distractor_diamondtriangles.svg	stimuli_target_trianglerectangles.svg	29	yes	57	0	249	6	4	antiphase_hc_sio.wav	1	6	6	noise_calib_stim_RIGHT.wav	2	35	blb_dichoticlistening_ta-pa.mp3	ta	pa	1	left
6.6.1	mac	2023-06-24	02:20:56	02:34:51	832359	5e1582d9805a30b7d0c8b9c7	2	1	main_z	24	main_z	135	stimuli_distractor_diamondtriangles.svg	stimuli_target_diamondrectangles.svg	31	yes	44	1	517	6	4	antiphase_hc_sio.wav	1	6	6	noise_calib_stim_RIGHT.wav	2	35	blb_dichoticlistening_ta-pa.mp3	ta	pa	1	left
6.6.1	mac	2023-06-24	02:20:56	02:34:51	832359	5e1582d9805a30b7d0c8b9c7	2	1	main_z	24	advance_on_keypress_ZEE	136	stimuli_distractor_diamondtriangles.svg	stimuli_target_diamondrectangles.svg	31	yes	57	0	301	6	4	antiphase_hc_sio.wav	1	6	6	noise_calib_stim_RIGHT.wav	2	35	blb_dichoticlistening_ta-pa.mp3	ta	pa	1	left
6.6.1	mac	2023-06-24	02:20:56	02:34:53	834029	5e1582d9805a30b7d0c8b9c7	2	1	main_z	24	main_z	137	stimuli_target_squaretriangles.svg	stimuli_distractor_trianglediamonds.svg	3	yes	44	1	737	6	4	antiphase_hc_sio.wav	1	6	6	noise_calib_stim_RIGHT.wav	2	35	blb_dichoticlistening_ta-pa.mp3	ta	pa	1	left
6.6.1	mac	2023-06-24	02:20:56	02:34:53	834029	5e1582d9805a30b7d0c8b9c7	2	1	main_z	24	advance_on_keypress_ZEE	138	stimuli_target_squaretriangles.svg	stimuli_distractor_trianglediamonds.svg	3	yes	57	0	401	6	4	antiphase_hc_sio.wav	1	6	6	noise_calib_stim_RIGHT.wav	2	35	blb_dichoticlistening_ta-pa.mp3	ta	pa	1	left
6.6.1	mac	2023-06-24	02:20:56	02:34:55	836229	5e1582d9805a30b7d0c8b9c7	2	1	main_z	24	main_z	139	stimuli_target_trianglerectangles.svg	stimuli_distractor_trianglediamonds.svg	17	yes	44	1	1170	6	4	antiphase_hc_sio.wav	1	6	6	noise_calib_stim_RIGHT.wav	2	35	blb_dichoticlistening_ta-pa.mp3	ta	pa	1	left
6.6.1	mac	2023-06-24	02:20:56	02:34:55	836229	5e1582d9805a30b7d0c8b9c7	2	1	main_z	24	advance_on_keypress_ZEE	140	stimuli_target_trianglerectangles.svg	stimuli_distractor_trianglediamonds.svg	17	yes	57	0	424	6	4	antiphase_hc_sio.wav	1	6	6	noise_calib_stim_RIGHT.wav	2	35	blb_dichoticlistening_ta-pa.mp3	ta	pa	1	left
6.6.1	mac	2023-06-24	02:20:56	02:34:57	837970	5e1582d9805a30b7d0c8b9c7	2	1	main_z	24	main_z	141	stimuli_target_trianglesquares.svg	stimuli_distractor_diamondtriangles.svg	22	yes	44	1	694	6	4	antiphase_hc_sio.wav	1	6	6	noise_calib_stim_RIGHT.wav	2	35	blb_dichoticlistening_ta-pa.mp3	ta	pa	1	left
6.6.1	mac	2023-06-24	02:20:56	02:34:57	837970	5e1582d9805a30b7d0c8b9c7	2	1	main_z	24	advance_on_keypress_ZEE	142	stimuli_target_trianglesquares.svg	stimuli_distractor_diamondtriangles.svg	22	yes	57	0	261	6	4	antiphase_hc_sio.wav	1	6	6	noise_calib_stim_RIGHT.wav	2	35	blb_dichoticlistening_ta-pa.mp3	ta	pa	1	left
6.6.1	mac	2023-06-24	02:20:56	02:35:00	840841	5e1582d9805a30b7d0c8b9c7	2	1	main_z	24	main_z	143	stimuli_distractor_trianglediamonds.svg	stimuli_distractor_diamondtriangles.svg	36	no	0	1	2000	6	4	antiphase_hc_sio.wav	1	6	6	noise_calib_stim_RIGHT.wav	2	35	blb_dichoticlistening_ta-pa.mp3	ta	pa	1	left
6.6.1	mac	2023-06-24	02:20:56	02:35:00	840841	5e1582d9805a30b7d0c8b9c7	2	1	main_z	24	advance_on_keypress_ZEE	144	stimuli_distractor_trianglediamonds.svg	stimuli_distractor_diamondtriangles.svg	36	no	57	0	1756	6	4	antiphase_hc_sio.wav	1	6	6	noise_calib_stim_RIGHT.wav	2	35	blb_dichoticlistening_ta-pa.mp3	ta	pa	1	left
6.6.1	mac	2023-06-24	02:20:56	02:35:03	844305	5e1582d9805a30b7d0c8b9c7	2	1	main_z	24	main_z	145	stimuli_target_squarediamonds.svg	stimuli_distractor_trianglediamonds.svg	4	yes	44	1	1079	6	4	antiphase_hc_sio.wav	1	6	6	noise_calib_stim_RIGHT.wav	2	35	blb_dichoticlistening_ta-pa.mp3	ta	pa	1	left
6.6.1	mac	2023-06-24	02:20:56	02:35:03	844305	5e1582d9805a30b7d0c8b9c7	2	1	main_z	24	advance_on_keypress_ZEE	146	stimuli_target_squarediamonds.svg	stimuli_distractor_trianglediamonds.svg	4	yes	57	0	439	6	4	antiphase_hc_sio.wav	1	6	6	noise_calib_stim_RIGHT.wav	2	35	blb_dichoticlistening_ta-pa.mp3	ta	pa	1	left
6.6.1	mac	2023-06-24	02:20:56	02:35:05	845999	5e1582d9805a30b7d0c8b9c7	2	1	main_z	24	main_z	147	stimuli_target_diamondrectangles.svg	stimuli_distractor_diamondtriangles.svg	23	yes	44	1	622	6	4	antiphase_hc_sio.wav	1	6	6	noise_calib_stim_RIGHT.wav	2	35	blb_dichoticlistening_ta-pa.mp3	ta	pa	1	left
6.6.1	mac	2023-06-24	02:20:56	02:35:05	845999	5e1582d9805a30b7d0c8b9c7	2	1	main_z	24	advance_on_keypress_ZEE	148	stimuli_target_diamondrectangles.svg	stimuli_distractor_diamondtriangles.svg	23	yes	57	0	259	6	4	antiphase_hc_sio.wav	1	6	6	noise_calib_stim_RIGHT.wav	2	35	blb_dichoticlistening_ta-pa.mp3	ta	pa	1	left
6.6.1	mac	2023-06-24	02:20:56	02:35:07	848151	5e1582d9805a30b7d0c8b9c7	2	1	main_z	24	main_z	149	stimuli_distractor_trianglediamonds.svg	stimuli_target_rectangletriangles.svg	9	yes	44	1	1275	6	4	antiphase_hc_sio.wav	1	6	6	noise_calib_stim_RIGHT.wav	2	35	blb_dichoticlistening_ta-pa.mp3	ta	pa	1	left
6.6.1	mac	2023-06-24	02:20:56	02:35:07	848151	5e1582d9805a30b7d0c8b9c7	2	1	main_z	24	advance_on_keypress_ZEE	150	stimuli_distractor_trianglediamonds.svg	stimuli_target_rectangletriangles.svg	9	yes	57	0	381	6	4	antiphase_hc_sio.wav	1	6	6	noise_calib_stim_RIGHT.wav	2	35	blb_dichoticlistening_ta-pa.mp3	ta	pa	1	left
6.6.1	mac	2023-06-24	02:20:56	02:35:10	851158	5e1582d9805a30b7d0c8b9c7	2	1	main_z	24	main_z	151	stimuli_distractor_diamondtriangles.svg	stimuli_distractor_diamondtriangles.svg	39	no	0	1	2000	6	4	antiphase_hc_sio.wav	1	6	6	noise_calib_stim_RIGHT.wav	2	35	blb_dichoticlistening_ta-pa.mp3	ta	pa	1	left
6.6.1	mac	2023-06-24	02:20:56	02:35:10	851158	5e1582d9805a30b7d0c8b9c7	2	1	main_z	24	advance_on_keypress_ZEE	152	stimuli_distractor_diamondtriangles.svg	stimuli_distractor_diamondtriangles.svg	39	no	57	0	300	6	4	antiphase_hc_sio.wav	1	6	6	noise_calib_stim_RIGHT.wav	2	35	blb_dichoticlistening_ta-pa.mp3	ta	pa	1	left
6.6.1	mac	2023-06-24	02:20:56	02:35:12	852705	5e1582d9805a30b7d0c8b9c7	2	1	main_z	24	main_z	153	stimuli_distractor_trianglediamonds.svg	stimuli_target_trianglesquares.svg	26	yes	44	1	612	6	4	antiphase_hc_sio.wav	1	6	6	noise_calib_stim_RIGHT.wav	2	35	blb_dichoticlistening_ta-pa.mp3	ta	pa	1	left
6.6.1	mac	2023-06-24	02:20:56	02:35:12	852705	5e1582d9805a30b7d0c8b9c7	2	1	main_z	24	advance_on_keypress_ZEE	154	stimuli_distractor_trianglediamonds.svg	stimuli_target_trianglesquares.svg	26	yes	57	0	436	6	4	antiphase_hc_sio.wav	1	6	6	noise_calib_stim_RIGHT.wav	2	35	blb_dichoticlistening_ta-pa.mp3	ta	pa	1	left
6.6.1	mac	2023-06-24	02:20:56	02:35:14	854728	5e1582d9805a30b7d0c8b9c7	2	1	main_z	24	main_z	155	stimuli_target_rectangletriangles.svg	stimuli_distractor_trianglediamonds.svg	1	yes	44	1	952	6	4	antiphase_hc_sio.wav	1	6	6	noise_calib_stim_RIGHT.wav	2	35	blb_dichoticlistening_ta-pa.mp3	ta	pa	1	left
6.6.1	mac	2023-06-24	02:20:56	02:35:14	854728	5e1582d9805a30b7d0c8b9c7	2	1	main_z	24	advance_on_keypress_ZEE	156	stimuli_target_rectangletriangles.svg	stimuli_distractor_trianglediamonds.svg	1	yes	57	0	299	6	4	antiphase_hc_sio.wav	1	6	6	noise_calib_stim_RIGHT.wav	2	35	blb_dichoticlistening_ta-pa.mp3	ta	pa	1	left
6.6.1	mac	2023-06-24	02:20:56	02:35:15	856232	5e1582d9805a30b7d0c8b9c7	2	1	main_z	24	main_z	157	stimuli_distractor_trianglediamonds.svg	stimuli_target_rectanglediamonds.svg	10	yes	44	1	573	6	4	antiphase_hc_sio.wav	1	6	6	noise_calib_stim_RIGHT.wav	2	35	blb_dichoticlistening_ta-pa.mp3	ta	pa	1	left
6.6.1	mac	2023-06-24	02:20:56	02:35:15	856232	5e1582d9805a30b7d0c8b9c7	2	1	main_z	24	advance_on_keypress_ZEE	158	stimuli_distractor_trianglediamonds.svg	stimuli_target_rectanglediamonds.svg	10	yes	57	0	276	6	4	antiphase_hc_sio.wav	1	6	6	noise_calib_stim_RIGHT.wav	2	35	blb_dichoticlistening_ta-pa.mp3	ta	pa	1	left
6.6.1	mac	2023-06-24	02:20:56	02:35:18	859141	5e1582d9805a30b7d0c8b9c7	2	1	main_z	24	main_z	159	stimuli_distractor_diamondtriangles.svg	stimuli_distractor_diamondtriangles.svg	40	no	0	1	2000	6	4	antiphase_hc_sio.wav	1	6	6	noise_calib_stim_RIGHT.wav	2	35	blb_dichoticlistening_ta-pa.mp3	ta	pa	1	left
6.6.1	mac	2023-06-24	02:20:56	02:35:18	859141	5e1582d9805a30b7d0c8b9c7	2	1	main_z	24	advance_on_keypress_ZEE	160	stimuli_distractor_diamondtriangles.svg	stimuli_distractor_diamondtriangles.svg	40	no	57	0	252	6	4	antiphase_hc_sio.wav	1	6	6	noise_calib_stim_RIGHT.wav	2	35	blb_dichoticlistening_ta-pa.mp3	ta	pa	1	left
6.6.1	mac	2023-06-24	02:20:56	02:35:44	884793	5e1582d9805a30b7d0c8b9c7	2	1	practice_slash	26	practice_slash	1	stimuli_distractor_trianglediamonds.svg	stimuli_distractor_trianglediamonds.svg	15	no	0	1	2000	6	4	antiphase_hc_sio.wav	1	6	6	noise_calib_stim_RIGHT.wav	2	35	blb_dichoticlistening_ta-pa.mp3	ta	pa	1	left
6.6.1	mac	2023-06-24	02:20:56	02:35:44	884793	5e1582d9805a30b7d0c8b9c7	2	1	practice_slash	26	advance_on_keypress_SLASH	2	stimuli_distractor_trianglediamonds.svg	stimuli_distractor_trianglediamonds.svg	15	no	57	0	1036	6	4	antiphase_hc_sio.wav	1	6	6	noise_calib_stim_RIGHT.wav	2	35	blb_dichoticlistening_ta-pa.mp3	ta	pa	1	left
6.6.1	mac	2023-06-24	02:20:56	02:35:47	888005	5e1582d9805a30b7d0c8b9c7	2	1	practice_slash	26	practice_slash	3	stimuli_distractor_diamondtriangles.svg	stimuli_target_trianglerectangles.svg	9	yes	53	1	546	6	4	antiphase_hc_sio.wav	1	6	6	noise_calib_stim_RIGHT.wav	2	35	blb_dichoticlistening_ta-pa.mp3	ta	pa	1	left
6.6.1	mac	2023-06-24	02:20:56	02:35:47	888005	5e1582d9805a30b7d0c8b9c7	2	1	practice_slash	26	advance_on_keypress_SLASH	4	stimuli_distractor_diamondtriangles.svg	stimuli_target_trianglerectangles.svg	9	yes	57	0	481	6	4	antiphase_hc_sio.wav	1	6	6	noise_calib_stim_RIGHT.wav	2	35	blb_dichoticlistening_ta-pa.mp3	ta	pa	1	left
6.6.1	mac	2023-06-24	02:20:56	02:35:51	892126	5e1582d9805a30b7d0c8b9c7	2	1	practice_slash	26	practice_slash	5	stimuli_distractor_diamondtriangles.svg	stimuli_distractor_trianglediamonds.svg	14	no	0	1	2000	6	4	antiphase_hc_sio.wav	1	6	6	noise_calib_stim_RIGHT.wav	2	35	blb_dichoticlistening_ta-pa.mp3	ta	pa	1	left
6.6.1	mac	2023-06-24	02:20:56	02:35:51	892126	5e1582d9805a30b7d0c8b9c7	2	1	practice_slash	26	advance_on_keypress_SLASH	6	stimuli_distractor_diamondtriangles.svg	stimuli_distractor_trianglediamonds.svg	14	no	57	0	398	6	4	antiphase_hc_sio.wav	1	6	6	noise_calib_stim_RIGHT.wav	2	35	blb_dichoticlistening_ta-pa.mp3	ta	pa	1	left
6.6.1	mac	2023-06-24	02:20:56	02:35:53	894551	5e1582d9805a30b7d0c8b9c7	2	1	practice_slash	26	practice_slash	7	stimuli_target_squarediamonds.svg	stimuli_distractor_trianglediamonds.svg	5	yes	53	1	393	6	4	antiphase_hc_sio.wav	1	6	6	noise_calib_stim_RIGHT.wav	2	35	blb_dichoticlistening_ta-pa.mp3	ta	pa	1	left
6.6.1	mac	2023-06-24	02:20:56	02:35:53	894551	5e1582d9805a30b7d0c8b9c7	2	1	practice_slash	26	advance_on_keypress_SLASH	8	stimuli_target_squarediamonds.svg	stimuli_distractor_trianglediamonds.svg	5	yes	57	0	284	6	4	antiphase_hc_sio.wav	1	6	6	noise_calib_stim_RIGHT.wav	2	35	blb_dichoticlistening_ta-pa.mp3	ta	pa	1	left
6.6.1	mac	2023-06-24	02:20:56	02:35:56	896861	5e1582d9805a30b7d0c8b9c7	2	1	practice_slash	26	practice_slash	9	stimuli_target_squarediamonds.svg	stimuli_distractor_diamondtriangles.svg	2	yes	53	1	401	6	4	antiphase_hc_sio.wav	1	6	6	noise_calib_stim_RIGHT.wav	2	35	blb_dichoticlistening_ta-pa.mp3	ta	pa	1	left
6.6.1	mac	2023-06-24	02:20:56	02:35:56	896861	5e1582d9805a30b7d0c8b9c7	2	1	practice_slash	26	advance_on_keypress_SLASH	10	stimuli_target_squarediamonds.svg	stimuli_distractor_diamondtriangles.svg	2	yes	57	0	268	6	4	antiphase_hc_sio.wav	1	6	6	noise_calib_stim_RIGHT.wav	2	35	blb_dichoticlistening_ta-pa.mp3	ta	pa	1	left
6.6.1	mac	2023-06-24	02:20:56	02:35:58	899200	5e1582d9805a30b7d0c8b9c7	2	1	practice_slash	26	practice_slash	11	stimuli_target_rectanglediamonds.svg	stimuli_distractor_diamondtriangles.svg	1	yes	53	1	441	6	4	antiphase_hc_sio.wav	1	6	6	noise_calib_stim_RIGHT.wav	2	35	blb_dichoticlistening_ta-pa.mp3	ta	pa	1	left
6.6.1	mac	2023-06-24	02:20:56	02:35:58	899200	5e1582d9805a30b7d0c8b9c7	2	1	practice_slash	26	advance_on_keypress_SLASH	12	stimuli_target_rectanglediamonds.svg	stimuli_distractor_diamondtriangles.svg	1	yes	57	0	218	6	4	antiphase_hc_sio.wav	1	6	6	noise_calib_stim_RIGHT.wav	2	35	blb_dichoticlistening_ta-pa.mp3	ta	pa	1	left
6.6.1	mac	2023-06-24	02:20:56	02:36:00	901479	5e1582d9805a30b7d0c8b9c7	2	1	practice_slash	26	practice_slash	13	stimuli_distractor_trianglediamonds.svg	stimuli_target_squarediamonds.svg	11	yes	53	1	435	6	4	antiphase_hc_sio.wav	1	6	6	noise_calib_stim_RIGHT.wav	2	35	blb_dichoticlistening_ta-pa.mp3	ta	pa	1	left
6.6.1	mac	2023-06-24	02:20:56	02:36:00	901479	5e1582d9805a30b7d0c8b9c7	2	1	practice_slash	26	advance_on_keypress_SLASH	14	stimuli_distractor_trianglediamonds.svg	stimuli_target_squarediamonds.svg	11	yes	57	0	57	6	4	antiphase_hc_sio.wav	1	6	6	noise_calib_stim_RIGHT.wav	2	35	blb_dichoticlistening_ta-pa.mp3	ta	pa	1	left
6.6.1	mac	2023-06-24	02:20:56	02:36:03	903870	5e1582d9805a30b7d0c8b9c7	2	1	practice_slash	26	practice_slash	15	stimuli_distractor_diamondtriangles.svg	stimuli_target_diamondrectangles.svg	8	yes	53	1	711	6	4	antiphase_hc_sio.wav	1	6	6	noise_calib_stim_RIGHT.wav	2	35	blb_dichoticlistening_ta-pa.mp3	ta	pa	1	left
6.6.1	mac	2023-06-24	02:20:56	02:36:03	903870	5e1582d9805a30b7d0c8b9c7	2	1	practice_slash	26	advance_on_keypress_SLASH	16	stimuli_distractor_diamondtriangles.svg	stimuli_target_diamondrectangles.svg	8	yes	57	0	475	6	4	antiphase_hc_sio.wav	1	6	6	noise_calib_stim_RIGHT.wav	2	35	blb_dichoticlistening_ta-pa.mp3	ta	pa	1	left
6.6.1	mac	2023-06-24	02:20:56	02:36:07	907960	5e1582d9805a30b7d0c8b9c7	2	1	practice_slash	26	practice_slash	17	stimuli_distractor_diamondtriangles.svg	stimuli_distractor_diamondtriangles.svg	13	no	0	1	2000	6	4	antiphase_hc_sio.wav	1	6	6	noise_calib_stim_RIGHT.wav	2	35	blb_dichoticlistening_ta-pa.mp3	ta	pa	1	left
6.6.1	mac	2023-06-24	02:20:56	02:36:07	907960	5e1582d9805a30b7d0c8b9c7	2	1	practice_slash	26	advance_on_keypress_SLASH	18	stimuli_distractor_diamondtriangles.svg	stimuli_distractor_diamondtriangles.svg	13	no	57	0	463	6	4	antiphase_hc_sio.wav	1	6	6	noise_calib_stim_RIGHT.wav	2	35	blb_dichoticlistening_ta-pa.mp3	ta	pa	1	left
6.6.1	mac	2023-06-24	02:20:56	02:36:09	910468	5e1582d9805a30b7d0c8b9c7	2	1	practice_slash	26	practice_slash	19	stimuli_distractor_trianglediamonds.svg	stimuli_target_rectanglediamonds.svg	10	yes	53	1	410	6	4	antiphase_hc_sio.wav	1	6	6	noise_calib_stim_RIGHT.wav	2	35	blb_dichoticlistening_ta-pa.mp3	ta	pa	1	left
