build	computer.platform	date	time	timestamp	time_elapsed_ms	subject	group	session	blockcode	blocknum	trialcode	trialnum	stimulus_left	stimulus_right	stim_index	target_present	response	correct	latency	headphonecheck_countTestTrials	headphonecheck_index	headphonecheck_testSound	headphonecheck_correctResponse	stereocheck_countTestTrials	stereocheck_index	stereocheck_testSound	stereocheck_correctResponse	DL_index	DL_soundfile	DL_leftSound	DL_rightSound	DL_dualSound	DL_choice
6.6.1	mac	2023-07-06	22:04:51	0	0	5cc48c234bb96d00018a8bfe	2	1	headphonecheck_calibration	4	headphonecheck_calibrationIntro	1			0		calibrationButton	0	4141	0	0			0	0			1				0	
6.6.1	mac	2023-07-06	22:04:51	0	0	5cc48c234bb96d00018a8bfe	2	1	headphonecheck_testphase	5	test_collectResponse	3			0		second	1	959	1	5	antiphase_hc_osi.wav	2	0	0			1				0	
6.6.1	mac	2023-07-06	22:04:51	0	0	5cc48c234bb96d00018a8bfe	2	1	headphonecheck_testphase	5	test_collectResponse	6			0		third	0	647	2	4	antiphase_hc_sio.wav	1	0	0			1				0	
6.6.1	mac	2023-07-06	22:04:51	0	0	5cc48c234bb96d00018a8bfe	2	1	headphonecheck_testphase	5	test_collectResponse	9			0		second	1	567	3	1	antiphase_hc_iso.wav	2	0	0			1				0	
6.6.1	mac	2023-07-06	22:04:51	0	0	5cc48c234bb96d00018a8bfe	2	1	headphonecheck_testphase	5	test_collectResponse	12			0		first	1	189	4	3	antiphase_hc_soi.wav	1	0	0			1				0	
6.6.1	mac	2023-07-06	22:04:51	0	0	5cc48c234bb96d00018a8bfe	2	1	headphonecheck_testphase	5	test_collectResponse	15			0		third	1	462	5	6	antiphase_hc_ois.wav	3	0	0			1				0	
6.6.1	mac	2023-07-06	22:04:51	0	0	5cc48c234bb96d00018a8bfe	2	1	headphonecheck_testphase	5	test_collectResponse	18			0		third	1	473	6	2	antiphase_hc_ios.wav	3	0	0			1				0	
6.6.1	mac	2023-07-06	22:04:51	0	0	5cc48c234bb96d00018a8bfe	2	1	stereocheck_calibration	7	stereocheck_calibrationIntro	1			0		stereocheck_calibrationButton	0	22587	6	2	antiphase_hc_ios.wav	3	0	0			1				0	
6.6.1	mac	2023-07-06	22:04:51	0	0	5cc48c234bb96d00018a8bfe	2	1	stereocheck_testphase	8	stereocheck_test_collectResponse	3			0		stereocheck_right	1	500	6	2	antiphase_hc_ios.wav	3	1	6	noise_calib_stim_RIGHT.wav	2	1				0	
6.6.1	mac	2023-07-06	22:04:51	0	0	5cc48c234bb96d00018a8bfe	2	1	stereocheck_testphase	8	stereocheck_test_collectResponse	6			0		stereocheck_right	1	282	6	2	antiphase_hc_ios.wav	3	2	4	noise_calib_stim_RIGHT.wav	2	1				0	
6.6.1	mac	2023-07-06	22:04:51	0	0	5cc48c234bb96d00018a8bfe	2	1	stereocheck_testphase	8	stereocheck_test_collectResponse	9			0		stereocheck_left	1	166	6	2	antiphase_hc_ios.wav	3	3	1	noise_calib_stim_LEFT.wav	1	1				0	
6.6.1	mac	2023-07-06	22:04:51	0	0	5cc48c234bb96d00018a8bfe	2	1	stereocheck_testphase	8	stereocheck_test_collectResponse	12			0		stereocheck_left	1	209	6	2	antiphase_hc_ios.wav	3	4	2	noise_calib_stim_LEFT.wav	1	1				0	
6.6.1	mac	2023-07-06	22:04:51	0	0	5cc48c234bb96d00018a8bfe	2	1	stereocheck_testphase	8	stereocheck_test_collectResponse	15			0		stereocheck_left	0	602	6	2	antiphase_hc_ios.wav	3	5	5	noise_calib_stim_RIGHT.wav	2	1				0	
6.6.1	mac	2023-07-06	22:04:51	0	0	5cc48c234bb96d00018a8bfe	2	1	stereocheck_testphase	8	stereocheck_test_collectResponse	18			0		stereocheck_left	1	223	6	2	antiphase_hc_ios.wav	3	6	3	noise_calib_stim_LEFT.wav	1	1				0	
6.6.1	mac	2023-07-06	22:04:51	0	0	5cc48c234bb96d00018a8bfe	2	1	DL_practice	11	DL_practice	2			0		ka	1	1810	6	2	antiphase_hc_ios.wav	3	6	3	noise_calib_stim_LEFT.wav	1	23	blb_dichoticlistening_ka-pa.mp3	ka	pa	1	left
6.6.1	mac	2023-07-06	22:04:51	0	0	5cc48c234bb96d00018a8bfe	2	1	DL_practice	11	DL_practice	3			0		da	1	2249	6	2	antiphase_hc_ios.wav	3	6	3	noise_calib_stim_LEFT.wav	1	8	blb_dichoticlistening_da-da.mp3	da	da	0	left
6.6.1	mac	2023-07-06	22:04:51	0	0	5cc48c234bb96d00018a8bfe	2	1	DL_practice	11	DL_practice	4			0		ga	1	965	6	2	antiphase_hc_ios.wav	3	6	3	noise_calib_stim_LEFT.wav	1	15	blb_dichoticlistening_ga-ga.mp3	ga	ga	0	left
6.6.1	mac	2023-07-06	22:04:51	0	0	5cc48c234bb96d00018a8bfe	2	1	DL_practice	11	DL_practice	5			0		pa	1	1711	6	2	antiphase_hc_ios.wav	3	6	3	noise_calib_stim_LEFT.wav	1	29	blb_dichoticlistening_pa-pa.mp3	pa	pa	0	left
6.6.1	mac	2023-07-06	22:04:51	0	0	5cc48c234bb96d00018a8bfe	2	1	DL_practice	11	DL_practice	6			0		da	1	2835	6	2	antiphase_hc_ios.wav	3	6	3	noise_calib_stim_LEFT.wav	1	7	blb_dichoticlistening_da-ba.mp3	da	ba	1	left
6.6.1	mac	2023-07-06	22:04:51	0	0	5cc48c234bb96d00018a8bfe	2	1	DL_practice	11	DL_practice	7			0		ba	1	1793	6	2	antiphase_hc_ios.wav	3	6	3	noise_calib_stim_LEFT.wav	1	1	blb_dichoticlistening_ba-ba.mp3	ba	ba	0	left
6.6.1	mac	2023-07-06	22:04:51	0	0	5cc48c234bb96d00018a8bfe	2	1	DL_practice	11	DL_practice	8			0		ka	1	821	6	2	antiphase_hc_ios.wav	3	6	3	noise_calib_stim_LEFT.wav	1	22	blb_dichoticlistening_ka-ka.mp3	ka	ka	0	left
6.6.1	mac	2023-07-06	22:04:51	0	0	5cc48c234bb96d00018a8bfe	2	1	DL_practice	11	DL_practice	9			0		ka	0	2022	6	2	antiphase_hc_ios.wav	3	6	3	noise_calib_stim_LEFT.wav	1	18	blb_dichoticlistening_ga-ta.mp3	ga	ta	1	other
6.6.1	mac	2023-07-06	22:04:51	0	0	5cc48c234bb96d00018a8bfe	2	1	DL_practice	11	DL_practice	10			0		ta	1	1534	6	2	antiphase_hc_ios.wav	3	6	3	noise_calib_stim_LEFT.wav	1	36	blb_dichoticlistening_ta-ta.mp3	ta	ta	0	left
6.6.1	mac	2023-07-06	22:04:51	0	0	5cc48c234bb96d00018a8bfe	2	1	DL_test	13	DL_test	1			0		ka	0	1270	6	2	antiphase_hc_ios.wav	3	6	3	noise_calib_stim_LEFT.wav	1	33	blb_dichoticlistening_ta-ga.mp3	ta	ga	1	other
6.6.1	mac	2023-07-06	22:04:51	0	0	5cc48c234bb96d00018a8bfe	2	1	DL_test	13	DL_test	2			0		ka	1	713	6	2	antiphase_hc_ios.wav	3	6	3	noise_calib_stim_LEFT.wav	1	20	blb_dichoticlistening_ka-da.mp3	ka	da	1	left
6.6.1	mac	2023-07-06	22:04:51	0	0	5cc48c234bb96d00018a8bfe	2	1	DL_test	13	DL_test	3			0		pa	1	1311	6	2	antiphase_hc_ios.wav	3	6	3	noise_calib_stim_LEFT.wav	1	5	blb_dichoticlistening_ba-pa.mp3	ba	pa	1	right
6.6.1	mac	2023-07-06	22:04:51	0	0	5cc48c234bb96d00018a8bfe	2	1	DL_test	13	DL_test	4			0		ka	1	951	6	2	antiphase_hc_ios.wav	3	6	3	noise_calib_stim_LEFT.wav	1	21	blb_dichoticlistening_ka-ga.mp3	ka	ga	1	left
6.6.1	mac	2023-07-06	22:04:51	0	0	5cc48c234bb96d00018a8bfe	2	1	DL_test	13	DL_test	5			0		ta	1	2369	6	2	antiphase_hc_ios.wav	3	6	3	noise_calib_stim_LEFT.wav	1	32	blb_dichoticlistening_ta-da.mp3	ta	da	1	left
6.6.1	mac	2023-07-06	22:04:51	0	0	5cc48c234bb96d00018a8bfe	2	1	DL_test	13	DL_test	6			0		da	1	1068	6	2	antiphase_hc_ios.wav	3	6	3	noise_calib_stim_LEFT.wav	1	14	blb_dichoticlistening_ga-da.mp3	ga	da	1	right
6.6.1	mac	2023-07-06	22:04:51	0	0	5cc48c234bb96d00018a8bfe	2	1	DL_test	13	DL_test	7			0		ka	0	1315	6	2	antiphase_hc_ios.wav	3	6	3	noise_calib_stim_LEFT.wav	1	17	blb_dichoticlistening_ga-pa.mp3	ga	pa	1	other
6.6.1	mac	2023-07-06	22:04:51	0	0	5cc48c234bb96d00018a8bfe	2	1	DL_test	13	DL_test	8			0		ka	0	832	6	2	antiphase_hc_ios.wav	3	6	3	noise_calib_stim_LEFT.wav	1	31	blb_dichoticlistening_ta-ba.mp3	ta	ba	1	other
6.6.1	mac	2023-07-06	22:04:51	0	0	5cc48c234bb96d00018a8bfe	2	1	DL_test	13	DL_test	9			0		da	1	1935	6	2	antiphase_hc_ios.wav	3	6	3	noise_calib_stim_LEFT.wav	1	2	blb_dichoticlistening_ba-da.mp3	ba	da	1	right
6.6.1	mac	2023-07-06	22:04:51	0	0	5cc48c234bb96d00018a8bfe	2	1	DL_test	13	DL_test	10			0		pa	1	1829	6	2	antiphase_hc_ios.wav	3	6	3	noise_calib_stim_LEFT.wav	1	29	blb_dichoticlistening_pa-pa.mp3	pa	pa	0	left
6.6.1	mac	2023-07-06	22:04:51	0	0	5cc48c234bb96d00018a8bfe	2	1	DL_test	13	DL_test	11			0		da	1	1240	6	2	antiphase_hc_ios.wav	3	6	3	noise_calib_stim_LEFT.wav	1	9	blb_dichoticlistening_da-ga.mp3	da	ga	1	left
6.6.1	mac	2023-07-06	22:04:51	0	0	5cc48c234bb96d00018a8bfe	2	1	DL_test	13	DL_test	12			0		pa	1	1352	6	2	antiphase_hc_ios.wav	3	6	3	noise_calib_stim_LEFT.wav	1	35	blb_dichoticlistening_ta-pa.mp3	ta	pa	1	right
6.6.1	mac	2023-07-06	22:04:51	0	0	5cc48c234bb96d00018a8bfe	2	1	DL_test	13	DL_test	13			0		ka	1	1330	6	2	antiphase_hc_ios.wav	3	6	3	noise_calib_stim_LEFT.wav	1	22	blb_dichoticlistening_ka-ka.mp3	ka	ka	0	left
6.6.1	mac	2023-07-06	22:04:51	0	0	5cc48c234bb96d00018a8bfe	2	1	DL_test	13	DL_test	14			0		ga	1	1143	6	2	antiphase_hc_ios.wav	3	6	3	noise_calib_stim_LEFT.wav	1	18	blb_dichoticlistening_ga-ta.mp3	ga	ta	1	left
6.6.1	mac	2023-07-06	22:04:51	0	0	5cc48c234bb96d00018a8bfe	2	1	DL_test	13	DL_test	15			0		ta	1	1488	6	2	antiphase_hc_ios.wav	3	6	3	noise_calib_stim_LEFT.wav	1	36	blb_dichoticlistening_ta-ta.mp3	ta	ta	0	left
6.6.1	mac	2023-07-06	22:04:51	0	0	5cc48c234bb96d00018a8bfe	2	1	DL_test	13	DL_test	16			0		da	0	901	6	2	antiphase_hc_ios.wav	3	6	3	noise_calib_stim_LEFT.wav	1	13	blb_dichoticlistening_ga-ba.mp3	ga	ba	1	other
6.6.1	mac	2023-07-06	22:04:51	0	0	5cc48c234bb96d00018a8bfe	2	1	DL_test	13	DL_test	17			0		ga	0	931	6	2	antiphase_hc_ios.wav	3	6	3	noise_calib_stim_LEFT.wav	1	10	blb_dichoticlistening_da-ka.mp3	da	ka	1	other
6.6.1	mac	2023-07-06	22:04:51	0	0	5cc48c234bb96d00018a8bfe	2	1	DL_test	13	DL_test	18			0		ga	0	724	6	2	antiphase_hc_ios.wav	3	6	3	noise_calib_stim_LEFT.wav	1	11	blb_dichoticlistening_da-pa.mp3	da	pa	1	other
6.6.1	mac	2023-07-06	22:04:51	0	0	5cc48c234bb96d00018a8bfe	2	1	DL_test	13	DL_test	19			0		pa	1	1137	6	2	antiphase_hc_ios.wav	3	6	3	noise_calib_stim_LEFT.wav	1	25	blb_dichoticlistening_pa-ba.mp3	pa	ba	1	left
6.6.1	mac	2023-07-06	22:04:51	0	0	5cc48c234bb96d00018a8bfe	2	1	DL_test	13	DL_test	20			0		ka	1	887	6	2	antiphase_hc_ios.wav	3	6	3	noise_calib_stim_LEFT.wav	1	34	blb_dichoticlistening_ta-ka.mp3	ta	ka	1	right
6.6.1	mac	2023-07-06	22:04:51	0	0	5cc48c234bb96d00018a8bfe	2	1	DL_test	13	DL_test	21			0		ga	1	777	6	2	antiphase_hc_ios.wav	3	6	3	noise_calib_stim_LEFT.wav	1	15	blb_dichoticlistening_ga-ga.mp3	ga	ga	0	left
6.6.1	mac	2023-07-06	22:04:51	0	0	5cc48c234bb96d00018a8bfe	2	1	DL_test	13	DL_test	22			0		da	1	781	6	2	antiphase_hc_ios.wav	3	6	3	noise_calib_stim_LEFT.wav	1	8	blb_dichoticlistening_da-da.mp3	da	da	0	left
6.6.1	mac	2023-07-06	22:04:51	0	0	5cc48c234bb96d00018a8bfe	2	1	DL_test	13	DL_test	23			0		ka	1	928	6	2	antiphase_hc_ios.wav	3	6	3	noise_calib_stim_LEFT.wav	1	24	blb_dichoticlistening_ka-ta.mp3	ka	ta	1	left
6.6.1	mac	2023-07-06	22:04:51	0	0	5cc48c234bb96d00018a8bfe	2	1	DL_test	13	DL_test	24			0		ta	1	1363	6	2	antiphase_hc_ios.wav	3	6	3	noise_calib_stim_LEFT.wav	1	30	blb_dichoticlistening_pa-ta.mp3	pa	ta	1	right
6.6.1	mac	2023-07-06	22:04:51	0	0	5cc48c234bb96d00018a8bfe	2	1	DL_test	13	DL_test	25			0		ka	1	1070	6	2	antiphase_hc_ios.wav	3	6	3	noise_calib_stim_LEFT.wav	1	4	blb_dichoticlistening_ba-ka.mp3	ba	ka	1	right
6.6.1	mac	2023-07-06	22:04:51	0	0	5cc48c234bb96d00018a8bfe	2	1	DL_test	13	DL_test	26			0		da	0	1153	6	2	antiphase_hc_ios.wav	3	6	3	noise_calib_stim_LEFT.wav	1	3	blb_dichoticlistening_ba-ga.mp3	ba	ga	1	other
6.6.1	mac	2023-07-06	22:04:51	0	0	5cc48c234bb96d00018a8bfe	2	1	DL_test	13	DL_test	27			0		ka	1	829	6	2	antiphase_hc_ios.wav	3	6	3	noise_calib_stim_LEFT.wav	1	28	blb_dichoticlistening_pa-ka.mp3	pa	ka	1	right
6.6.1	mac	2023-07-06	22:04:51	0	0	5cc48c234bb96d00018a8bfe	2	1	DL_test	13	DL_test	28			0		ka	1	653	6	2	antiphase_hc_ios.wav	3	6	3	noise_calib_stim_LEFT.wav	1	23	blb_dichoticlistening_ka-pa.mp3	ka	pa	1	left
6.6.1	mac	2023-07-06	22:04:51	0	0	5cc48c234bb96d00018a8bfe	2	1	DL_test	13	DL_test	29			0		ka	1	433	6	2	antiphase_hc_ios.wav	3	6	3	noise_calib_stim_LEFT.wav	1	16	blb_dichoticlistening_ga-ka.mp3	ga	ka	1	right
6.6.1	mac	2023-07-06	22:04:51	0	0	5cc48c234bb96d00018a8bfe	2	1	DL_test	13	DL_test	30			0		pa	1	907	6	2	antiphase_hc_ios.wav	3	6	3	noise_calib_stim_LEFT.wav	1	26	blb_dichoticlistening_pa-da.mp3	pa	da	1	left
6.6.1	mac	2023-07-06	22:04:51	0	0	5cc48c234bb96d00018a8bfe	2	1	DL_test	13	DL_test	31			0		pa	1	825	6	2	antiphase_hc_ios.wav	3	6	3	noise_calib_stim_LEFT.wav	1	27	blb_dichoticlistening_pa-ga.mp3	pa	ga	1	left
6.6.1	mac	2023-07-06	22:04:51	0	0	5cc48c234bb96d00018a8bfe	2	1	DL_test	13	DL_test	32			0		pa	0	1216	6	2	antiphase_hc_ios.wav	3	6	3	noise_calib_stim_LEFT.wav	1	6	blb_dichoticlistening_ba-ta.mp3	ba	ta	1	other
6.6.1	mac	2023-07-06	22:04:51	0	0	5cc48c234bb96d00018a8bfe	2	1	DL_test	13	DL_test	33			0		ba	1	1483	6	2	antiphase_hc_ios.wav	3	6	3	noise_calib_stim_LEFT.wav	1	1	blb_dichoticlistening_ba-ba.mp3	ba	ba	0	left
6.6.1	mac	2023-07-06	22:04:51	0	0	5cc48c234bb96d00018a8bfe	2	1	DL_test	13	DL_test	34			0		ba	1	1574	6	2	antiphase_hc_ios.wav	3	6	3	noise_calib_stim_LEFT.wav	1	7	blb_dichoticlistening_da-ba.mp3	da	ba	1	right
6.6.1	mac	2023-07-06	22:04:51	0	0	5cc48c234bb96d00018a8bfe	2	1	DL_test	13	DL_test	35			0		ka	1	1256	6	2	antiphase_hc_ios.wav	3	6	3	noise_calib_stim_LEFT.wav	1	19	blb_dichoticlistening_ka-ba.mp3	ka	ba	1	left
6.6.1	mac	2023-07-06	22:04:51	0	0	5cc48c234bb96d00018a8bfe	2	1	DL_test	13	DL_test	36			0		ta	1	1243	6	2	antiphase_hc_ios.wav	3	6	3	noise_calib_stim_LEFT.wav	1	12	blb_dichoticlistening_da-ta.mp3	da	ta	1	right
6.6.1	mac	2023-07-06	22:04:51	0	0	5cc48c234bb96d00018a8bfe	2	1	DL_test	14	DL_test	1			0		pa	1	2211	6	2	antiphase_hc_ios.wav	3	6	3	noise_calib_stim_LEFT.wav	1	27	blb_dichoticlistening_pa-ga.mp3	pa	ga	1	left
6.6.1	mac	2023-07-06	22:04:51	0	0	5cc48c234bb96d00018a8bfe	2	1	DL_test	14	DL_test	2			0		pa	1	716	6	2	antiphase_hc_ios.wav	3	6	3	noise_calib_stim_LEFT.wav	1	25	blb_dichoticlistening_pa-ba.mp3	pa	ba	1	left
6.6.1	mac	2023-07-06	22:04:51	0	0	5cc48c234bb96d00018a8bfe	2	1	DL_test	14	DL_test	3			0		ka	1	860	6	2	antiphase_hc_ios.wav	3	6	3	noise_calib_stim_LEFT.wav	1	4	blb_dichoticlistening_ba-ka.mp3	ba	ka	1	right
6.6.1	mac	2023-07-06	22:04:51	0	0	5cc48c234bb96d00018a8bfe	2	1	DL_test	14	DL_test	4			0		ka	1	2517	6	2	antiphase_hc_ios.wav	3	6	3	noise_calib_stim_LEFT.wav	1	16	blb_dichoticlistening_ga-ka.mp3	ga	ka	1	right
6.6.1	mac	2023-07-06	22:04:51	0	0	5cc48c234bb96d00018a8bfe	2	1	DL_test	14	DL_test	5			0		ka	1	565	6	2	antiphase_hc_ios.wav	3	6	3	noise_calib_stim_LEFT.wav	1	19	blb_dichoticlistening_ka-ba.mp3	ka	ba	1	left
6.6.1	mac	2023-07-06	22:04:51	0	0	5cc48c234bb96d00018a8bfe	2	1	DL_test	14	DL_test	6			0		da	1	1319	6	2	antiphase_hc_ios.wav	3	6	3	noise_calib_stim_LEFT.wav	1	2	blb_dichoticlistening_ba-da.mp3	ba	da	1	right
6.6.1	mac	2023-07-06	22:04:51	0	0	5cc48c234bb96d00018a8bfe	2	1	DL_test	14	DL_test	7			0		ka	0	955	6	2	antiphase_hc_ios.wav	3	6	3	noise_calib_stim_LEFT.wav	1	17	blb_dichoticlistening_ga-pa.mp3	ga	pa	1	other
6.6.1	mac	2023-07-06	22:04:51	0	0	5cc48c234bb96d00018a8bfe	2	1	DL_test	14	DL_test	8			0		da	1	1375	6	2	antiphase_hc_ios.wav	3	6	3	noise_calib_stim_LEFT.wav	1	9	blb_dichoticlistening_da-ga.mp3	da	ga	1	left
6.6.1	mac	2023-07-06	22:04:51	0	0	5cc48c234bb96d00018a8bfe	2	1	DL_test	14	DL_test	9			0		ka	0	918	6	2	antiphase_hc_ios.wav	3	6	3	noise_calib_stim_LEFT.wav	1	32	blb_dichoticlistening_ta-da.mp3	ta	da	1	other
6.6.1	mac	2023-07-06	22:04:51	0	0	5cc48c234bb96d00018a8bfe	2	1	DL_test	14	DL_test	10			0		ka	0	522	6	2	antiphase_hc_ios.wav	3	6	3	noise_calib_stim_LEFT.wav	1	26	blb_dichoticlistening_pa-da.mp3	pa	da	1	other
6.6.1	mac	2023-07-06	22:04:51	0	0	5cc48c234bb96d00018a8bfe	2	1	DL_test	14	DL_test	11			0		ka	0	680	6	2	antiphase_hc_ios.wav	3	6	3	noise_calib_stim_LEFT.wav	1	6	blb_dichoticlistening_ba-ta.mp3	ba	ta	1	other
6.6.1	mac	2023-07-06	22:04:51	0	0	5cc48c234bb96d00018a8bfe	2	1	DL_test	14	DL_test	12			0		da	1	1309	6	2	antiphase_hc_ios.wav	3	6	3	noise_calib_stim_LEFT.wav	1	8	blb_dichoticlistening_da-da.mp3	da	da	0	left
6.6.1	mac	2023-07-06	22:04:51	0	0	5cc48c234bb96d00018a8bfe	2	1	DL_test	14	DL_test	13			0		pa	1	1084	6	2	antiphase_hc_ios.wav	3	6	3	noise_calib_stim_LEFT.wav	1	5	blb_dichoticlistening_ba-pa.mp3	ba	pa	1	right
6.6.1	mac	2023-07-06	22:04:51	0	0	5cc48c234bb96d00018a8bfe	2	1	DL_test	14	DL_test	14			0		ka	1	689	6	2	antiphase_hc_ios.wav	3	6	3	noise_calib_stim_LEFT.wav	1	34	blb_dichoticlistening_ta-ka.mp3	ta	ka	1	right
6.6.1	mac	2023-07-06	22:04:51	0	0	5cc48c234bb96d00018a8bfe	2	1	DL_test	14	DL_test	15			0		ka	1	492	6	2	antiphase_hc_ios.wav	3	6	3	noise_calib_stim_LEFT.wav	1	24	blb_dichoticlistening_ka-ta.mp3	ka	ta	1	left
6.6.1	mac	2023-07-06	22:04:51	0	0	5cc48c234bb96d00018a8bfe	2	1	DL_test	14	DL_test	16			0		ka	1	450	6	2	antiphase_hc_ios.wav	3	6	3	noise_calib_stim_LEFT.wav	1	23	blb_dichoticlistening_ka-pa.mp3	ka	pa	1	left
6.6.1	mac	2023-07-06	22:04:51	0	0	5cc48c234bb96d00018a8bfe	2	1	DL_test	14	DL_test	17			0		ta	1	1683	6	2	antiphase_hc_ios.wav	3	6	3	noise_calib_stim_LEFT.wav	1	12	blb_dichoticlistening_da-ta.mp3	da	ta	1	right
6.6.1	mac	2023-07-06	22:04:51	0	0	5cc48c234bb96d00018a8bfe	2	1	DL_test	14	DL_test	18			0		ka	1	1232	6	2	antiphase_hc_ios.wav	3	6	3	noise_calib_stim_LEFT.wav	1	20	blb_dichoticlistening_ka-da.mp3	ka	da	1	left
6.6.1	mac	2023-07-06	22:04:51	0	0	5cc48c234bb96d00018a8bfe	2	1	DL_test	14	DL_test	19			0		da	1	1573	6	2	antiphase_hc_ios.wav	3	6	3	noise_calib_stim_LEFT.wav	1	14	blb_dichoticlistening_ga-da.mp3	ga	da	1	right
6.6.1	mac	2023-07-06	22:04:51	0	0	5cc48c234bb96d00018a8bfe	2	1	DL_test	14	DL_test	20			0		ka	0	987	6	2	antiphase_hc_ios.wav	3	6	3	noise_calib_stim_LEFT.wav	1	18	blb_dichoticlistening_ga-ta.mp3	ga	ta	1	other
6.6.1	mac	2023-07-06	22:04:51	0	0	5cc48c234bb96d00018a8bfe	2	1	DL_test	14	DL_test	21			0		pa	0	1030	6	2	antiphase_hc_ios.wav	3	6	3	noise_calib_stim_LEFT.wav	1	3	blb_dichoticlistening_ba-ga.mp3	ba	ga	1	other
6.6.1	mac	2023-07-06	22:04:51	0	0	5cc48c234bb96d00018a8bfe	2	1	DL_test	14	DL_test	22			0		ta	1	1469	6	2	antiphase_hc_ios.wav	3	6	3	noise_calib_stim_LEFT.wav	1	30	blb_dichoticlistening_pa-ta.mp3	pa	ta	1	right
6.6.1	mac	2023-07-06	22:04:51	0	0	5cc48c234bb96d00018a8bfe	2	1	DL_test	14	DL_test	23			0		pa	1	739	6	2	antiphase_hc_ios.wav	3	6	3	noise_calib_stim_LEFT.wav	1	11	blb_dichoticlistening_da-pa.mp3	da	pa	1	right
6.6.1	mac	2023-07-06	22:04:51	0	0	5cc48c234bb96d00018a8bfe	2	1	DL_test	14	DL_test	24			0		ka	1	796	6	2	antiphase_hc_ios.wav	3	6	3	noise_calib_stim_LEFT.wav	1	21	blb_dichoticlistening_ka-ga.mp3	ka	ga	1	left
6.6.1	mac	2023-07-06	22:04:51	0	0	5cc48c234bb96d00018a8bfe	2	1	DL_test	14	DL_test	25			0		ka	0	750	6	2	antiphase_hc_ios.wav	3	6	3	noise_calib_stim_LEFT.wav	1	31	blb_dichoticlistening_ta-ba.mp3	ta	ba	1	other
6.6.1	mac	2023-07-06	22:04:51	0	0	5cc48c234bb96d00018a8bfe	2	1	DL_test	14	DL_test	26			0		da	1	1080	6	2	antiphase_hc_ios.wav	3	6	3	noise_calib_stim_LEFT.wav	1	7	blb_dichoticlistening_da-ba.mp3	da	ba	1	left
6.6.1	mac	2023-07-06	22:04:51	0	0	5cc48c234bb96d00018a8bfe	2	1	DL_test	14	DL_test	27			0		pa	1	1392	6	2	antiphase_hc_ios.wav	3	6	3	noise_calib_stim_LEFT.wav	1	29	blb_dichoticlistening_pa-pa.mp3	pa	pa	0	left
6.6.1	mac	2023-07-06	22:04:51	0	0	5cc48c234bb96d00018a8bfe	2	1	DL_test	14	DL_test	28			0		ba	1	1623	6	2	antiphase_hc_ios.wav	3	6	3	noise_calib_stim_LEFT.wav	1	13	blb_dichoticlistening_ga-ba.mp3	ga	ba	1	right
6.6.1	mac	2023-07-06	22:04:51	0	0	5cc48c234bb96d00018a8bfe	2	1	DL_test	14	DL_test	29			0		ka	0	955	6	2	antiphase_hc_ios.wav	3	6	3	noise_calib_stim_LEFT.wav	1	33	blb_dichoticlistening_ta-ga.mp3	ta	ga	1	other
6.6.1	mac	2023-07-06	22:04:51	0	0	5cc48c234bb96d00018a8bfe	2	1	DL_test	14	DL_test	30			0		ka	1	648	6	2	antiphase_hc_ios.wav	3	6	3	noise_calib_stim_LEFT.wav	1	22	blb_dichoticlistening_ka-ka.mp3	ka	ka	0	left
6.6.1	mac	2023-07-06	22:04:51	0	0	5cc48c234bb96d00018a8bfe	2	1	DL_test	14	DL_test	31			0		ka	1	374	6	2	antiphase_hc_ios.wav	3	6	3	noise_calib_stim_LEFT.wav	1	28	blb_dichoticlistening_pa-ka.mp3	pa	ka	1	right
6.6.1	mac	2023-07-06	22:04:51	0	0	5cc48c234bb96d00018a8bfe	2	1	DL_test	14	DL_test	32			0		ba	1	1673	6	2	antiphase_hc_ios.wav	3	6	3	noise_calib_stim_LEFT.wav	1	1	blb_dichoticlistening_ba-ba.mp3	ba	ba	0	left
6.6.1	mac	2023-07-06	22:04:51	0	0	5cc48c234bb96d00018a8bfe	2	1	DL_test	14	DL_test	33			0		ta	1	1852	6	2	antiphase_hc_ios.wav	3	6	3	noise_calib_stim_LEFT.wav	1	36	blb_dichoticlistening_ta-ta.mp3	ta	ta	0	left
6.6.1	mac	2023-07-06	22:04:51	0	0	5cc48c234bb96d00018a8bfe	2	1	DL_test	14	DL_test	34			0		ga	1	930	6	2	antiphase_hc_ios.wav	3	6	3	noise_calib_stim_LEFT.wav	1	15	blb_dichoticlistening_ga-ga.mp3	ga	ga	0	left
6.6.1	mac	2023-07-06	22:04:51	0	0	5cc48c234bb96d00018a8bfe	2	1	DL_test	14	DL_test	35			0		pa	0	1343	6	2	antiphase_hc_ios.wav	3	6	3	noise_calib_stim_LEFT.wav	1	10	blb_dichoticlistening_da-ka.mp3	da	ka	1	other
6.6.1	mac	2023-07-06	22:04:51	0	0	5cc48c234bb96d00018a8bfe	2	1	DL_test	14	DL_test	36			0		pa	1	581	6	2	antiphase_hc_ios.wav	3	6	3	noise_calib_stim_LEFT.wav	1	35	blb_dichoticlistening_ta-pa.mp3	ta	pa	1	right
6.6.1	mac	2023-07-06	22:04:51	0	0	5cc48c234bb96d00018a8bfe	2	1	DL_test	15	DL_test	1			0		pa	1	1872	6	2	antiphase_hc_ios.wav	3	6	3	noise_calib_stim_LEFT.wav	1	25	blb_dichoticlistening_pa-ba.mp3	pa	ba	1	left
6.6.1	mac	2023-07-06	22:04:51	0	0	5cc48c234bb96d00018a8bfe	2	1	DL_test	15	DL_test	2			0		ka	0	965	6	2	antiphase_hc_ios.wav	3	6	3	noise_calib_stim_LEFT.wav	1	33	blb_dichoticlistening_ta-ga.mp3	ta	ga	1	other
6.6.1	mac	2023-07-06	22:04:51	0	0	5cc48c234bb96d00018a8bfe	2	1	DL_test	15	DL_test	3			0		ba	1	1648	6	2	antiphase_hc_ios.wav	3	6	3	noise_calib_stim_LEFT.wav	1	7	blb_dichoticlistening_da-ba.mp3	da	ba	1	right
6.6.1	mac	2023-07-06	22:04:51	0	0	5cc48c234bb96d00018a8bfe	2	1	DL_test	15	DL_test	4			0		ba	0	821	6	2	antiphase_hc_ios.wav	3	6	3	noise_calib_stim_LEFT.wav	1	26	blb_dichoticlistening_pa-da.mp3	pa	da	1	other
6.6.1	mac	2023-07-06	22:04:51	0	0	5cc48c234bb96d00018a8bfe	2	1	DL_test	15	DL_test	5			0		ga	1	742	6	2	antiphase_hc_ios.wav	3	6	3	noise_calib_stim_LEFT.wav	1	3	blb_dichoticlistening_ba-ga.mp3	ba	ga	1	right
6.6.1	mac	2023-07-06	22:04:51	0	0	5cc48c234bb96d00018a8bfe	2	1	DL_test	15	DL_test	6			0		pa	1	1690	6	2	antiphase_hc_ios.wav	3	6	3	noise_calib_stim_LEFT.wav	1	17	blb_dichoticlistening_ga-pa.mp3	ga	pa	1	right
6.6.1	mac	2023-07-06	22:04:51	0	0	5cc48c234bb96d00018a8bfe	2	1	DL_test	15	DL_test	7			0		ba	1	1916	6	2	antiphase_hc_ios.wav	3	6	3	noise_calib_stim_LEFT.wav	1	13	blb_dichoticlistening_ga-ba.mp3	ga	ba	1	right
6.6.1	mac	2023-07-06	22:04:51	0	0	5cc48c234bb96d00018a8bfe	2	1	DL_test	15	DL_test	8			0		ba	1	607	6	2	antiphase_hc_ios.wav	3	6	3	noise_calib_stim_LEFT.wav	1	19	blb_dichoticlistening_ka-ba.mp3	ka	ba	1	right
6.6.1	mac	2023-07-06	22:04:51	0	0	5cc48c234bb96d00018a8bfe	2	1	DL_test	15	DL_test	9			0		ba	0	793	6	2	antiphase_hc_ios.wav	3	6	3	noise_calib_stim_LEFT.wav	1	27	blb_dichoticlistening_pa-ga.mp3	pa	ga	1	other
6.6.1	mac	2023-07-06	22:04:51	0	0	5cc48c234bb96d00018a8bfe	2	1	DL_test	15	DL_test	10			0		pa	1	1226	6	2	antiphase_hc_ios.wav	3	6	3	noise_calib_stim_LEFT.wav	1	29	blb_dichoticlistening_pa-pa.mp3	pa	pa	0	left
6.6.1	mac	2023-07-06	22:04:51	0	0	5cc48c234bb96d00018a8bfe	2	1	DL_test	15	DL_test	11			0		ga	1	1011	6	2	antiphase_hc_ios.wav	3	6	3	noise_calib_stim_LEFT.wav	1	15	blb_dichoticlistening_ga-ga.mp3	ga	ga	0	left
6.6.1	mac	2023-07-06	22:04:51	0	0	5cc48c234bb96d00018a8bfe	2	1	DL_test	15	DL_test	12			0		ga	0	844	6	2	antiphase_hc_ios.wav	3	6	3	noise_calib_stim_LEFT.wav	1	4	blb_dichoticlistening_ba-ka.mp3	ba	ka	1	other
6.6.1	mac	2023-07-06	22:04:51	0	0	5cc48c234bb96d00018a8bfe	2	1	DL_test	15	DL_test	13			0		ka	1	1066	6	2	antiphase_hc_ios.wav	3	6	3	noise_calib_stim_LEFT.wav	1	34	blb_dichoticlistening_ta-ka.mp3	ta	ka	1	right
6.6.1	mac	2023-07-06	22:04:51	0	0	5cc48c234bb96d00018a8bfe	2	1	DL_test	15	DL_test	14			0		ka	1	551	6	2	antiphase_hc_ios.wav	3	6	3	noise_calib_stim_LEFT.wav	1	24	blb_dichoticlistening_ka-ta.mp3	ka	ta	1	left
6.6.1	mac	2023-07-06	22:04:51	0	0	5cc48c234bb96d00018a8bfe	2	1	DL_test	15	DL_test	15			0		pa	0	1207	6	2	antiphase_hc_ios.wav	3	6	3	noise_calib_stim_LEFT.wav	1	10	blb_dichoticlistening_da-ka.mp3	da	ka	1	other
6.6.1	mac	2023-07-06	22:04:51	0	0	5cc48c234bb96d00018a8bfe	2	1	DL_test	15	DL_test	16			0		ka	1	940	6	2	antiphase_hc_ios.wav	3	6	3	noise_calib_stim_LEFT.wav	1	28	blb_dichoticlistening_pa-ka.mp3	pa	ka	1	right
6.6.1	mac	2023-07-06	22:04:51	0	0	5cc48c234bb96d00018a8bfe	2	1	DL_test	15	DL_test	17			0		da	0	1042	6	2	antiphase_hc_ios.wav	3	6	3	noise_calib_stim_LEFT.wav	1	1	blb_dichoticlistening_ba-ba.mp3	ba	ba	0	other
6.6.1	mac	2023-07-06	22:04:51	0	0	5cc48c234bb96d00018a8bfe	2	1	DL_test	15	DL_test	18			0		da	1	5665	6	2	antiphase_hc_ios.wav	3	6	3	noise_calib_stim_LEFT.wav	1	8	blb_dichoticlistening_da-da.mp3	da	da	0	left
6.6.1	mac	2023-07-06	22:04:51	0	0	5cc48c234bb96d00018a8bfe	2	1	DL_test	15	DL_test	19			0		ta	1	2561	6	2	antiphase_hc_ios.wav	3	6	3	noise_calib_stim_LEFT.wav	1	36	blb_dichoticlistening_ta-ta.mp3	ta	ta	0	left
6.6.1	mac	2023-07-06	22:04:51	0	0	5cc48c234bb96d00018a8bfe	2	1	DL_test	15	DL_test	20			0		pa	1	760	6	2	antiphase_hc_ios.wav	3	6	3	noise_calib_stim_LEFT.wav	1	5	blb_dichoticlistening_ba-pa.mp3	ba	pa	1	right
6.6.1	mac	2023-07-06	22:04:51	0	0	5cc48c234bb96d00018a8bfe	2	1	DL_test	15	DL_test	21			0		pa	0	697	6	2	antiphase_hc_ios.wav	3	6	3	noise_calib_stim_LEFT.wav	1	6	blb_dichoticlistening_ba-ta.mp3	ba	ta	1	other
6.6.1	mac	2023-07-06	22:04:51	0	0	5cc48c234bb96d00018a8bfe	2	1	DL_test	15	DL_test	22			0		ta	1	1289	6	2	antiphase_hc_ios.wav	3	6	3	noise_calib_stim_LEFT.wav	1	30	blb_dichoticlistening_pa-ta.mp3	pa	ta	1	right
6.6.1	mac	2023-07-06	22:04:51	0	0	5cc48c234bb96d00018a8bfe	2	1	DL_test	15	DL_test	23			0		ka	1	1300	6	2	antiphase_hc_ios.wav	3	6	3	noise_calib_stim_LEFT.wav	1	16	blb_dichoticlistening_ga-ka.mp3	ga	ka	1	right
6.6.1	mac	2023-07-06	22:04:51	0	0	5cc48c234bb96d00018a8bfe	2	1	DL_test	15	DL_test	24			0		da	1	1266	6	2	antiphase_hc_ios.wav	3	6	3	noise_calib_stim_LEFT.wav	1	9	blb_dichoticlistening_da-ga.mp3	da	ga	1	left
6.6.1	mac	2023-07-06	22:04:51	0	0	5cc48c234bb96d00018a8bfe	2	1	DL_test	15	DL_test	25			0		pa	1	1210	6	2	antiphase_hc_ios.wav	3	6	3	noise_calib_stim_LEFT.wav	1	35	blb_dichoticlistening_ta-pa.mp3	ta	pa	1	right
6.6.1	mac	2023-07-06	22:04:51	0	0	5cc48c234bb96d00018a8bfe	2	1	DL_test	15	DL_test	26			0		da	1	961	6	2	antiphase_hc_ios.wav	3	6	3	noise_calib_stim_LEFT.wav	1	14	blb_dichoticlistening_ga-da.mp3	ga	da	1	right
6.6.1	mac	2023-07-06	22:04:51	0	0	5cc48c234bb96d00018a8bfe	2	1	DL_test	15	DL_test	27			0		da	1	659	6	2	antiphase_hc_ios.wav	3	6	3	noise_calib_stim_LEFT.wav	1	11	blb_dichoticlistening_da-pa.mp3	da	pa	1	left
6.6.1	mac	2023-07-06	22:04:51	0	0	5cc48c234bb96d00018a8bfe	2	1	DL_test	15	DL_test	28			0		da	0	547	6	2	antiphase_hc_ios.wav	3	6	3	noise_calib_stim_LEFT.wav	1	31	blb_dichoticlistening_ta-ba.mp3	ta	ba	1	other
6.6.1	mac	2023-07-06	22:04:51	0	0	5cc48c234bb96d00018a8bfe	2	1	DL_test	15	DL_test	29			0		ka	1	1324	6	2	antiphase_hc_ios.wav	3	6	3	noise_calib_stim_LEFT.wav	1	20	blb_dichoticlistening_ka-da.mp3	ka	da	1	left
6.6.1	mac	2023-07-06	22:04:51	0	0	5cc48c234bb96d00018a8bfe	2	1	DL_test	15	DL_test	30			0		ka	0	664	6	2	antiphase_hc_ios.wav	3	6	3	noise_calib_stim_LEFT.wav	1	18	blb_dichoticlistening_ga-ta.mp3	ga	ta	1	other
6.6.1	mac	2023-07-06	22:04:51	0	0	5cc48c234bb96d00018a8bfe	2	1	DL_test	15	DL_test	31			0		ta	1	1823	6	2	antiphase_hc_ios.wav	3	6	3	noise_calib_stim_LEFT.wav	1	12	blb_dichoticlistening_da-ta.mp3	da	ta	1	right
6.6.1	mac	2023-07-06	22:04:51	0	0	5cc48c234bb96d00018a8bfe	2	1	DL_test	15	DL_test	32			0		da	1	1232	6	2	antiphase_hc_ios.wav	3	6	3	noise_calib_stim_LEFT.wav	1	2	blb_dichoticlistening_ba-da.mp3	ba	da	1	right
6.6.1	mac	2023-07-06	22:04:51	0	0	5cc48c234bb96d00018a8bfe	2	1	DL_test	15	DL_test	33			0		ga	0	1993	6	2	antiphase_hc_ios.wav	3	6	3	noise_calib_stim_LEFT.wav	1	32	blb_dichoticlistening_ta-da.mp3	ta	da	1	other
6.6.1	mac	2023-07-06	22:04:51	0	0	5cc48c234bb96d00018a8bfe	2	1	DL_test	15	DL_test	34			0		ka	1	695	6	2	antiphase_hc_ios.wav	3	6	3	noise_calib_stim_LEFT.wav	1	22	blb_dichoticlistening_ka-ka.mp3	ka	ka	0	left
6.6.1	mac	2023-07-06	22:04:51	0	0	5cc48c234bb96d00018a8bfe	2	1	DL_test	15	DL_test	35			0		ka	1	485	6	2	antiphase_hc_ios.wav	3	6	3	noise_calib_stim_LEFT.wav	1	21	blb_dichoticlistening_ka-ga.mp3	ka	ga	1	left
6.6.1	mac	2023-07-06	22:04:51	0	0	5cc48c234bb96d00018a8bfe	2	1	DL_test	15	DL_test	36			0		ka	1	464	6	2	antiphase_hc_ios.wav	3	6	3	noise_calib_stim_LEFT.wav	1	23	blb_dichoticlistening_ka-pa.mp3	ka	pa	1	left
6.6.1	mac	2023-07-06	22:04:51	0	0	5cc48c234bb96d00018a8bfe	2	1	DL_test	16	DL_test	1			0		da	1	1239	6	2	antiphase_hc_ios.wav	3	6	3	noise_calib_stim_LEFT.wav	1	14	blb_dichoticlistening_ga-da.mp3	ga	da	1	right
6.6.1	mac	2023-07-06	22:04:51	0	0	5cc48c234bb96d00018a8bfe	2	1	DL_test	16	DL_test	2			0		ka	1	1071	6	2	antiphase_hc_ios.wav	3	6	3	noise_calib_stim_LEFT.wav	1	16	blb_dichoticlistening_ga-ka.mp3	ga	ka	1	right
6.6.1	mac	2023-07-06	22:04:51	0	0	5cc48c234bb96d00018a8bfe	2	1	DL_test	16	DL_test	3			0		ka	1	654	6	2	antiphase_hc_ios.wav	3	6	3	noise_calib_stim_LEFT.wav	1	28	blb_dichoticlistening_pa-ka.mp3	pa	ka	1	right
6.6.1	mac	2023-07-06	22:04:51	0	0	5cc48c234bb96d00018a8bfe	2	1	DL_test	16	DL_test	4			0		pa	1	842	6	2	antiphase_hc_ios.wav	3	6	3	noise_calib_stim_LEFT.wav	1	5	blb_dichoticlistening_ba-pa.mp3	ba	pa	1	right
6.6.1	mac	2023-07-06	22:04:51	0	0	5cc48c234bb96d00018a8bfe	2	1	DL_test	16	DL_test	5			0		ka	1	1059	6	2	antiphase_hc_ios.wav	3	6	3	noise_calib_stim_LEFT.wav	1	34	blb_dichoticlistening_ta-ka.mp3	ta	ka	1	right
6.6.1	mac	2023-07-06	22:04:51	0	0	5cc48c234bb96d00018a8bfe	2	1	DL_test	16	DL_test	6			0		pa	1	1136	6	2	antiphase_hc_ios.wav	3	6	3	noise_calib_stim_LEFT.wav	1	11	blb_dichoticlistening_da-pa.mp3	da	pa	1	right
6.6.1	mac	2023-07-06	22:04:51	0	0	5cc48c234bb96d00018a8bfe	2	1	DL_test	16	DL_test	7			0		da	1	1037	6	2	antiphase_hc_ios.wav	3	6	3	noise_calib_stim_LEFT.wav	1	2	blb_dichoticlistening_ba-da.mp3	ba	da	1	right
6.6.1	mac	2023-07-06	22:04:51	0	0	5cc48c234bb96d00018a8bfe	2	1	DL_test	16	DL_test	8			0		pa	1	1471	6	2	antiphase_hc_ios.wav	3	6	3	noise_calib_stim_LEFT.wav	1	17	blb_dichoticlistening_ga-pa.mp3	ga	pa	1	right
6.6.1	mac	2023-07-06	22:04:51	0	0	5cc48c234bb96d00018a8bfe	2	1	DL_test	16	DL_test	9			0		pa	1	472	6	2	antiphase_hc_ios.wav	3	6	3	noise_calib_stim_LEFT.wav	1	25	blb_dichoticlistening_pa-ba.mp3	pa	ba	1	left
6.6.1	mac	2023-07-06	22:04:51	0	0	5cc48c234bb96d00018a8bfe	2	1	DL_test	16	DL_test	10			0		da	1	1089	6	2	antiphase_hc_ios.wav	3	6	3	noise_calib_stim_LEFT.wav	1	8	blb_dichoticlistening_da-da.mp3	da	da	0	left
6.6.1	mac	2023-07-06	22:04:51	0	0	5cc48c234bb96d00018a8bfe	2	1	DL_test	16	DL_test	11			0		ka	1	1155	6	2	antiphase_hc_ios.wav	3	6	3	noise_calib_stim_LEFT.wav	1	21	blb_dichoticlistening_ka-ga.mp3	ka	ga	1	left
6.6.1	mac	2023-07-06	22:04:51	0	0	5cc48c234bb96d00018a8bfe	2	1	DL_test	16	DL_test	12			0		ta	1	1456	6	2	antiphase_hc_ios.wav	3	6	3	noise_calib_stim_LEFT.wav	1	36	blb_dichoticlistening_ta-ta.mp3	ta	ta	0	left
6.6.1	mac	2023-07-06	22:04:51	0	0	5cc48c234bb96d00018a8bfe	2	1	DL_test	16	DL_test	13			0		ka	1	1630	6	2	antiphase_hc_ios.wav	3	6	3	noise_calib_stim_LEFT.wav	1	24	blb_dichoticlistening_ka-ta.mp3	ka	ta	1	left
6.6.1	mac	2023-07-06	22:04:51	0	0	5cc48c234bb96d00018a8bfe	2	1	DL_test	16	DL_test	14			0		da	1	1261	6	2	antiphase_hc_ios.wav	3	6	3	noise_calib_stim_LEFT.wav	1	9	blb_dichoticlistening_da-ga.mp3	da	ga	1	left
6.6.1	mac	2023-07-06	22:04:51	0	0	5cc48c234bb96d00018a8bfe	2	1	DL_test	16	DL_test	15			0		pa	1	877	6	2	antiphase_hc_ios.wav	3	6	3	noise_calib_stim_LEFT.wav	1	29	blb_dichoticlistening_pa-pa.mp3	pa	pa	0	left
6.6.1	mac	2023-07-06	22:04:51	0	0	5cc48c234bb96d00018a8bfe	2	1	DL_test	16	DL_test	16			0		ka	1	586	6	2	antiphase_hc_ios.wav	3	6	3	noise_calib_stim_LEFT.wav	1	22	blb_dichoticlistening_ka-ka.mp3	ka	ka	0	left
6.6.1	mac	2023-07-06	22:04:51	0	0	5cc48c234bb96d00018a8bfe	2	1	DL_test	16	DL_test	17			0		pa	0	878	6	2	antiphase_hc_ios.wav	3	6	3	noise_calib_stim_LEFT.wav	1	10	blb_dichoticlistening_da-ka.mp3	da	ka	1	other
6.6.1	mac	2023-07-06	22:04:51	0	0	5cc48c234bb96d00018a8bfe	2	1	DL_test	16	DL_test	18			0		da	0	1057	6	2	antiphase_hc_ios.wav	3	6	3	noise_calib_stim_LEFT.wav	1	1	blb_dichoticlistening_ba-ba.mp3	ba	ba	0	other
6.6.1	mac	2023-07-06	22:04:51	0	0	5cc48c234bb96d00018a8bfe	2	1	DL_test	16	DL_test	19			0		ka	0	1339	6	2	antiphase_hc_ios.wav	3	6	3	noise_calib_stim_LEFT.wav	1	18	blb_dichoticlistening_ga-ta.mp3	ga	ta	1	other
6.6.1	mac	2023-07-06	22:04:51	0	0	5cc48c234bb96d00018a8bfe	2	1	DL_test	16	DL_test	20			0		ka	1	567	6	2	antiphase_hc_ios.wav	3	6	3	noise_calib_stim_LEFT.wav	1	19	blb_dichoticlistening_ka-ba.mp3	ka	ba	1	left
6.6.1	mac	2023-07-06	22:04:51	0	0	5cc48c234bb96d00018a8bfe	2	1	DL_test	16	DL_test	21			0		ka	1	573	6	2	antiphase_hc_ios.wav	3	6	3	noise_calib_stim_LEFT.wav	1	20	blb_dichoticlistening_ka-da.mp3	ka	da	1	left
6.6.1	mac	2023-07-06	22:04:51	0	0	5cc48c234bb96d00018a8bfe	2	1	DL_test	16	DL_test	22			0		ta	1	1444	6	2	antiphase_hc_ios.wav	3	6	3	noise_calib_stim_LEFT.wav	1	12	blb_dichoticlistening_da-ta.mp3	da	ta	1	right
6.6.1	mac	2023-07-06	22:04:51	0	0	5cc48c234bb96d00018a8bfe	2	1	DL_test	16	DL_test	23			0		ka	0	1345	6	2	antiphase_hc_ios.wav	3	6	3	noise_calib_stim_LEFT.wav	1	6	blb_dichoticlistening_ba-ta.mp3	ba	ta	1	other
6.6.1	mac	2023-07-06	22:04:51	0	0	5cc48c234bb96d00018a8bfe	2	1	DL_test	16	DL_test	24			0		ka	1	402	6	2	antiphase_hc_ios.wav	3	6	3	noise_calib_stim_LEFT.wav	1	4	blb_dichoticlistening_ba-ka.mp3	ba	ka	1	right
6.6.1	mac	2023-07-06	22:04:51	0	0	5cc48c234bb96d00018a8bfe	2	1	DL_test	16	DL_test	25			0		ka	1	405	6	2	antiphase_hc_ios.wav	3	6	3	noise_calib_stim_LEFT.wav	1	23	blb_dichoticlistening_ka-pa.mp3	ka	pa	1	left
6.6.1	mac	2023-07-06	22:04:51	0	0	5cc48c234bb96d00018a8bfe	2	1	DL_test	16	DL_test	26			0		ba	1	1891	6	2	antiphase_hc_ios.wav	3	6	3	noise_calib_stim_LEFT.wav	1	7	blb_dichoticlistening_da-ba.mp3	da	ba	1	right
6.6.1	mac	2023-07-06	22:04:51	0	0	5cc48c234bb96d00018a8bfe	2	1	DL_test	16	DL_test	27			0		ka	0	1181	6	2	antiphase_hc_ios.wav	3	6	3	noise_calib_stim_LEFT.wav	1	32	blb_dichoticlistening_ta-da.mp3	ta	da	1	other
6.6.1	mac	2023-07-06	22:04:51	0	0	5cc48c234bb96d00018a8bfe	2	1	DL_test	16	DL_test	28			0		ba	1	1536	6	2	antiphase_hc_ios.wav	3	6	3	noise_calib_stim_LEFT.wav	1	13	blb_dichoticlistening_ga-ba.mp3	ga	ba	1	right
6.6.1	mac	2023-07-06	22:04:51	0	0	5cc48c234bb96d00018a8bfe	2	1	DL_test	16	DL_test	29			0		pa	1	1513	6	2	antiphase_hc_ios.wav	3	6	3	noise_calib_stim_LEFT.wav	1	27	blb_dichoticlistening_pa-ga.mp3	pa	ga	1	left
6.6.1	mac	2023-07-06	22:04:51	0	0	5cc48c234bb96d00018a8bfe	2	1	DL_test	16	DL_test	30			0		ka	0	1279	6	2	antiphase_hc_ios.wav	3	6	3	noise_calib_stim_LEFT.wav	1	33	blb_dichoticlistening_ta-ga.mp3	ta	ga	1	other
6.6.1	mac	2023-07-06	22:04:51	0	0	5cc48c234bb96d00018a8bfe	2	1	DL_test	16	DL_test	31			0		ga	1	848	6	2	antiphase_hc_ios.wav	3	6	3	noise_calib_stim_LEFT.wav	1	3	blb_dichoticlistening_ba-ga.mp3	ba	ga	1	right
6.6.1	mac	2023-07-06	22:04:51	0	0	5cc48c234bb96d00018a8bfe	2	1	DL_test	16	DL_test	32			0		ka	0	785	6	2	antiphase_hc_ios.wav	3	6	3	noise_calib_stim_LEFT.wav	1	30	blb_dichoticlistening_pa-ta.mp3	pa	ta	1	other
6.6.1	mac	2023-07-06	22:04:51	0	0	5cc48c234bb96d00018a8bfe	2	1	DL_test	16	DL_test	33			0		ga	1	1590	6	2	antiphase_hc_ios.wav	3	6	3	noise_calib_stim_LEFT.wav	1	15	blb_dichoticlistening_ga-ga.mp3	ga	ga	0	left
6.6.1	mac	2023-07-06	22:04:51	0	0	5cc48c234bb96d00018a8bfe	2	1	DL_test	16	DL_test	34			0		pa	1	1789	6	2	antiphase_hc_ios.wav	3	6	3	noise_calib_stim_LEFT.wav	1	35	blb_dichoticlistening_ta-pa.mp3	ta	pa	1	right
6.6.1	mac	2023-07-06	22:04:51	0	0	5cc48c234bb96d00018a8bfe	2	1	DL_test	16	DL_test	35			0		pa	0	566	6	2	antiphase_hc_ios.wav	3	6	3	noise_calib_stim_LEFT.wav	1	31	blb_dichoticlistening_ta-ba.mp3	ta	ba	1	other
6.6.1	mac	2023-07-06	22:04:51	0	0	5cc48c234bb96d00018a8bfe	2	1	DL_test	16	DL_test	36			0		pa	1	540	6	2	antiphase_hc_ios.wav	3	6	3	noise_calib_stim_LEFT.wav	1	26	blb_dichoticlistening_pa-da.mp3	pa	da	1	left
6.6.1	mac	2023-07-06	22:04:51	22:25:56	1260879	5cc48c234bb96d00018a8bfe	2	1	practice_z	22	practice_z	1	stimuli_distractor_trianglediamonds.svg	stimuli_target_squarediamonds.svg	11	yes	44	1	529	6	2	antiphase_hc_ios.wav	3	6	3	noise_calib_stim_LEFT.wav	1	26	blb_dichoticlistening_pa-da.mp3	pa	da	1	left
6.6.1	mac	2023-07-06	22:04:51	22:25:56	1260879	5cc48c234bb96d00018a8bfe	2	1	practice_z	22	advance_on_keypress_ZEE	2	stimuli_distractor_trianglediamonds.svg	stimuli_target_squarediamonds.svg	11	yes	57	0	828	6	2	antiphase_hc_ios.wav	3	6	3	noise_calib_stim_LEFT.wav	1	26	blb_dichoticlistening_pa-da.mp3	pa	da	1	left
6.6.1	mac	2023-07-06	22:04:51	22:25:58	1263606	5cc48c234bb96d00018a8bfe	2	1	practice_z	22	practice_z	3	stimuli_target_squarediamonds.svg	stimuli_distractor_trianglediamonds.svg	5	yes	44	1	248	6	2	antiphase_hc_ios.wav	3	6	3	noise_calib_stim_LEFT.wav	1	26	blb_dichoticlistening_pa-da.mp3	pa	da	1	left
6.6.1	mac	2023-07-06	22:04:51	22:25:58	1263606	5cc48c234bb96d00018a8bfe	2	1	practice_z	22	advance_on_keypress_ZEE	4	stimuli_target_squarediamonds.svg	stimuli_distractor_trianglediamonds.svg	5	yes	57	0	563	6	2	antiphase_hc_ios.wav	3	6	3	noise_calib_stim_LEFT.wav	1	26	blb_dichoticlistening_pa-da.mp3	pa	da	1	left
6.6.1	mac	2023-07-06	22:04:51	22:26:01	1266250	5cc48c234bb96d00018a8bfe	2	1	practice_z	22	practice_z	5	stimuli_distractor_diamondtriangles.svg	stimuli_target_rectangletriangles.svg	7	yes	44	1	435	6	2	antiphase_hc_ios.wav	3	6	3	noise_calib_stim_LEFT.wav	1	26	blb_dichoticlistening_pa-da.mp3	pa	da	1	left
6.6.1	mac	2023-07-06	22:04:51	22:26:01	1266250	5cc48c234bb96d00018a8bfe	2	1	practice_z	22	advance_on_keypress_ZEE	6	stimuli_distractor_diamondtriangles.svg	stimuli_target_rectangletriangles.svg	7	yes	57	0	459	6	2	antiphase_hc_ios.wav	3	6	3	noise_calib_stim_LEFT.wav	1	26	blb_dichoticlistening_pa-da.mp3	pa	da	1	left
6.6.1	mac	2023-07-06	22:04:51	22:26:04	1268748	5cc48c234bb96d00018a8bfe	2	1	practice_z	22	practice_z	7	stimuli_distractor_diamondtriangles.svg	stimuli_distractor_trianglediamonds.svg	14	no	44	0	393	6	2	antiphase_hc_ios.wav	3	6	3	noise_calib_stim_LEFT.wav	1	26	blb_dichoticlistening_pa-da.mp3	pa	da	1	left
6.6.1	mac	2023-07-06	22:04:51	22:26:04	1268748	5cc48c234bb96d00018a8bfe	2	1	practice_z	22	advance_on_keypress_ZEE	8	stimuli_distractor_diamondtriangles.svg	stimuli_distractor_trianglediamonds.svg	14	no	57	0	460	6	2	antiphase_hc_ios.wav	3	6	3	noise_calib_stim_LEFT.wav	1	26	blb_dichoticlistening_pa-da.mp3	pa	da	1	left
6.6.1	mac	2023-07-06	22:04:51	22:26:06	1271066	5cc48c234bb96d00018a8bfe	2	1	practice_z	22	practice_z	9	stimuli_target_rectanglediamonds.svg	stimuli_distractor_diamondtriangles.svg	1	yes	44	1	220	6	2	antiphase_hc_ios.wav	3	6	3	noise_calib_stim_LEFT.wav	1	26	blb_dichoticlistening_pa-da.mp3	pa	da	1	left
6.6.1	mac	2023-07-06	22:04:51	22:26:06	1271066	5cc48c234bb96d00018a8bfe	2	1	practice_z	22	advance_on_keypress_ZEE	10	stimuli_target_rectanglediamonds.svg	stimuli_distractor_diamondtriangles.svg	1	yes	57	0	522	6	2	antiphase_hc_ios.wav	3	6	3	noise_calib_stim_LEFT.wav	1	26	blb_dichoticlistening_pa-da.mp3	pa	da	1	left
6.6.1	mac	2023-07-06	22:04:51	22:26:10	1275216	5cc48c234bb96d00018a8bfe	2	1	practice_z	22	practice_z	11	stimuli_target_squarediamonds.svg	stimuli_distractor_diamondtriangles.svg	2	yes	0	0	2000	6	2	antiphase_hc_ios.wav	3	6	3	noise_calib_stim_LEFT.wav	1	26	blb_dichoticlistening_pa-da.mp3	pa	da	1	left
6.6.1	mac	2023-07-06	22:04:51	22:26:10	1275216	5cc48c234bb96d00018a8bfe	2	1	practice_z	22	advance_on_keypress_ZEE	12	stimuli_target_squarediamonds.svg	stimuli_distractor_diamondtriangles.svg	2	yes	57	0	676	6	2	antiphase_hc_ios.wav	3	6	3	noise_calib_stim_LEFT.wav	1	26	blb_dichoticlistening_pa-da.mp3	pa	da	1	left
6.6.1	mac	2023-07-06	22:04:51	22:26:13	1277882	5cc48c234bb96d00018a8bfe	2	1	practice_z	22	practice_z	13	stimuli_target_diamondsquares.svg	stimuli_distractor_diamondtriangles.svg	3	yes	44	1	335	6	2	antiphase_hc_ios.wav	3	6	3	noise_calib_stim_LEFT.wav	1	26	blb_dichoticlistening_pa-da.mp3	pa	da	1	left
6.6.1	mac	2023-07-06	22:04:51	22:26:13	1277882	5cc48c234bb96d00018a8bfe	2	1	practice_z	22	advance_on_keypress_ZEE	14	stimuli_target_diamondsquares.svg	stimuli_distractor_diamondtriangles.svg	3	yes	57	0	708	6	2	antiphase_hc_ios.wav	3	6	3	noise_calib_stim_LEFT.wav	1	26	blb_dichoticlistening_pa-da.mp3	pa	da	1	left
6.6.1	mac	2023-07-06	22:04:51	22:26:15	1280469	5cc48c234bb96d00018a8bfe	2	1	practice_z	22	practice_z	15	stimuli_target_diamondsquares.svg	stimuli_distractor_trianglediamonds.svg	6	yes	44	1	231	6	2	antiphase_hc_ios.wav	3	6	3	noise_calib_stim_LEFT.wav	1	26	blb_dichoticlistening_pa-da.mp3	pa	da	1	left
6.6.1	mac	2023-07-06	22:04:51	22:26:15	1280469	5cc48c234bb96d00018a8bfe	2	1	practice_z	22	advance_on_keypress_ZEE	16	stimuli_target_diamondsquares.svg	stimuli_distractor_trianglediamonds.svg	6	yes	57	0	370	6	2	antiphase_hc_ios.wav	3	6	3	noise_calib_stim_LEFT.wav	1	26	blb_dichoticlistening_pa-da.mp3	pa	da	1	left
6.6.1	mac	2023-07-06	22:04:51	22:26:17	1282594	5cc48c234bb96d00018a8bfe	2	1	practice_z	22	practice_z	17	stimuli_target_rectanglediamonds.svg	stimuli_distractor_trianglediamonds.svg	4	yes	44	1	117	6	2	antiphase_hc_ios.wav	3	6	3	noise_calib_stim_LEFT.wav	1	26	blb_dichoticlistening_pa-da.mp3	pa	da	1	left
6.6.1	mac	2023-07-06	22:04:51	22:26:17	1282594	5cc48c234bb96d00018a8bfe	2	1	practice_z	22	advance_on_keypress_ZEE	18	stimuli_target_rectanglediamonds.svg	stimuli_distractor_trianglediamonds.svg	4	yes	57	0	552	6	2	antiphase_hc_ios.wav	3	6	3	noise_calib_stim_LEFT.wav	1	26	blb_dichoticlistening_pa-da.mp3	pa	da	1	left
6.6.1	mac	2023-07-06	22:04:51	22:26:20	1285024	5cc48c234bb96d00018a8bfe	2	1	practice_z	22	practice_z	19	stimuli_distractor_diamondtriangles.svg	stimuli_target_diamondrectangles.svg	8	yes	44	1	224	6	2	antiphase_hc_ios.wav	3	6	3	noise_calib_stim_LEFT.wav	1	26	blb_dichoticlistening_pa-da.mp3	pa	da	1	left
6.6.1	mac	2023-07-06	22:04:51	22:26:20	1285024	5cc48c234bb96d00018a8bfe	2	1	practice_z	22	advance_on_keypress_ZEE	20	stimuli_distractor_diamondtriangles.svg	stimuli_target_diamondrectangles.svg	8	yes	57	0	531	6	2	antiphase_hc_ios.wav	3	6	3	noise_calib_stim_LEFT.wav	1	26	blb_dichoticlistening_pa-da.mp3	pa	da	1	left
6.6.1	mac	2023-07-06	22:04:51	22:26:22	1287411	5cc48c234bb96d00018a8bfe	2	1	practice_z	22	practice_z	21	stimuli_distractor_trianglediamonds.svg	stimuli_target_rectanglediamonds.svg	10	yes	44	1	223	6	2	antiphase_hc_ios.wav	3	6	3	noise_calib_stim_LEFT.wav	1	26	blb_dichoticlistening_pa-da.mp3	pa	da	1	left
6.6.1	mac	2023-07-06	22:04:51	22:26:22	1287411	5cc48c234bb96d00018a8bfe	2	1	practice_z	22	advance_on_keypress_ZEE	22	stimuli_distractor_trianglediamonds.svg	stimuli_target_rectanglediamonds.svg	10	yes	57	0	1187	6	2	antiphase_hc_ios.wav	3	6	3	noise_calib_stim_LEFT.wav	1	26	blb_dichoticlistening_pa-da.mp3	pa	da	1	left
6.6.1	mac	2023-07-06	22:04:51	22:26:25	1290588	5cc48c234bb96d00018a8bfe	2	1	practice_z	22	practice_z	23	stimuli_distractor_trianglediamonds.svg	stimuli_target_diamondrectangles.svg	12	yes	44	1	360	6	2	antiphase_hc_ios.wav	3	6	3	noise_calib_stim_LEFT.wav	1	26	blb_dichoticlistening_pa-da.mp3	pa	da	1	left
6.6.1	mac	2023-07-06	22:04:51	22:26:25	1290588	5cc48c234bb96d00018a8bfe	2	1	practice_z	22	advance_on_keypress_ZEE	24	stimuli_distractor_trianglediamonds.svg	stimuli_target_diamondrectangles.svg	12	yes	57	0	1469	6	2	antiphase_hc_ios.wav	3	6	3	noise_calib_stim_LEFT.wav	1	26	blb_dichoticlistening_pa-da.mp3	pa	da	1	left
6.6.1	mac	2023-07-06	22:04:51	22:26:29	1294072	5cc48c234bb96d00018a8bfe	2	1	practice_z	22	practice_z	25	stimuli_distractor_trianglediamonds.svg	stimuli_distractor_trianglediamonds.svg	15	no	44	0	382	6	2	antiphase_hc_ios.wav	3	6	3	noise_calib_stim_LEFT.wav	1	26	blb_dichoticlistening_pa-da.mp3	pa	da	1	left
6.6.1	mac	2023-07-06	22:04:51	22:26:29	1294072	5cc48c234bb96d00018a8bfe	2	1	practice_z	22	advance_on_keypress_ZEE	26	stimuli_distractor_trianglediamonds.svg	stimuli_distractor_trianglediamonds.svg	15	no	57	0	1110	6	2	antiphase_hc_ios.wav	3	6	3	noise_calib_stim_LEFT.wav	1	26	blb_dichoticlistening_pa-da.mp3	pa	da	1	left
6.6.1	mac	2023-07-06	22:04:51	22:26:32	1297071	5cc48c234bb96d00018a8bfe	2	1	practice_z	22	practice_z	27	stimuli_distractor_diamondtriangles.svg	stimuli_distractor_diamondtriangles.svg	13	no	44	0	239	6	2	antiphase_hc_ios.wav	3	6	3	noise_calib_stim_LEFT.wav	1	26	blb_dichoticlistening_pa-da.mp3	pa	da	1	left
6.6.1	mac	2023-07-06	22:04:51	22:26:32	1297071	5cc48c234bb96d00018a8bfe	2	1	practice_z	22	advance_on_keypress_ZEE	28	stimuli_distractor_diamondtriangles.svg	stimuli_distractor_diamondtriangles.svg	13	no	57	0	812	6	2	antiphase_hc_ios.wav	3	6	3	noise_calib_stim_LEFT.wav	1	26	blb_dichoticlistening_pa-da.mp3	pa	da	1	left
6.6.1	mac	2023-07-06	22:04:51	22:26:35	1299753	5cc48c234bb96d00018a8bfe	2	1	practice_z	22	practice_z	29	stimuli_distractor_diamondtriangles.svg	stimuli_target_trianglerectangles.svg	9	yes	44	1	232	6	2	antiphase_hc_ios.wav	3	6	3	noise_calib_stim_LEFT.wav	1	26	blb_dichoticlistening_pa-da.mp3	pa	da	1	left
6.6.1	mac	2023-07-06	22:04:51	22:26:35	1299753	5cc48c234bb96d00018a8bfe	2	1	practice_z	22	advance_on_keypress_ZEE	30	stimuli_distractor_diamondtriangles.svg	stimuli_target_trianglerectangles.svg	9	yes	57	0	697	6	2	antiphase_hc_ios.wav	3	6	3	noise_calib_stim_LEFT.wav	1	26	blb_dichoticlistening_pa-da.mp3	pa	da	1	left
6.6.1	mac	2023-07-06	22:04:51	22:26:37	1302324	5cc48c234bb96d00018a8bfe	2	1	practice_z	22	practice_z	31	stimuli_distractor_trianglediamonds.svg	stimuli_distractor_diamondtriangles.svg	16	no	44	0	227	6	2	antiphase_hc_ios.wav	3	6	3	noise_calib_stim_LEFT.wav	1	26	blb_dichoticlistening_pa-da.mp3	pa	da	1	left
6.6.1	mac	2023-07-06	22:04:51	22:26:37	1302324	5cc48c234bb96d00018a8bfe	2	1	practice_z	22	advance_on_keypress_ZEE	32	stimuli_distractor_trianglediamonds.svg	stimuli_distractor_diamondtriangles.svg	16	no	57	0	564	6	2	antiphase_hc_ios.wav	3	6	3	noise_calib_stim_LEFT.wav	1	26	blb_dichoticlistening_pa-da.mp3	pa	da	1	left
6.6.1	mac	2023-07-06	22:04:51	22:26:46	1310773	5cc48c234bb96d00018a8bfe	2	1	main_z	24	main_z	1	stimuli_distractor_trianglediamonds.svg	stimuli_target_diamondrectangles.svg	27	yes	44	1	522	6	2	antiphase_hc_ios.wav	3	6	3	noise_calib_stim_LEFT.wav	1	26	blb_dichoticlistening_pa-da.mp3	pa	da	1	left
6.6.1	mac	2023-07-06	22:04:51	22:26:46	1310773	5cc48c234bb96d00018a8bfe	2	1	main_z	24	advance_on_keypress_ZEE	2	stimuli_distractor_trianglediamonds.svg	stimuli_target_diamondrectangles.svg	27	yes	57	0	1071	6	2	antiphase_hc_ios.wav	3	6	3	noise_calib_stim_LEFT.wav	1	26	blb_dichoticlistening_pa-da.mp3	pa	da	1	left
6.6.1	mac	2023-07-06	22:04:51	22:26:48	1312809	5cc48c234bb96d00018a8bfe	2	1	main_z	24	main_z	3	stimuli_distractor_trianglediamonds.svg	stimuli_target_diamondsquares.svg	28	yes	44	1	319	6	2	antiphase_hc_ios.wav	3	6	3	noise_calib_stim_LEFT.wav	1	26	blb_dichoticlistening_pa-da.mp3	pa	da	1	left
6.6.1	mac	2023-07-06	22:04:51	22:26:48	1312809	5cc48c234bb96d00018a8bfe	2	1	main_z	24	advance_on_keypress_ZEE	4	stimuli_distractor_trianglediamonds.svg	stimuli_target_diamondsquares.svg	28	yes	57	0	843	6	2	antiphase_hc_ios.wav	3	6	3	noise_calib_stim_LEFT.wav	1	26	blb_dichoticlistening_pa-da.mp3	pa	da	1	left
6.6.1	mac	2023-07-06	22:04:51	22:26:49	1314520	5cc48c234bb96d00018a8bfe	2	1	main_z	24	main_z	5	stimuli_distractor_diamondtriangles.svg	stimuli_target_rectangletriangles.svg	13	yes	44	1	225	6	2	antiphase_hc_ios.wav	3	6	3	noise_calib_stim_LEFT.wav	1	26	blb_dichoticlistening_pa-da.mp3	pa	da	1	left
6.6.1	mac	2023-07-06	22:04:51	22:26:49	1314520	5cc48c234bb96d00018a8bfe	2	1	main_z	24	advance_on_keypress_ZEE	6	stimuli_distractor_diamondtriangles.svg	stimuli_target_rectangletriangles.svg	13	yes	57	0	984	6	2	antiphase_hc_ios.wav	3	6	3	noise_calib_stim_LEFT.wav	1	26	blb_dichoticlistening_pa-da.mp3	pa	da	1	left
6.6.1	mac	2023-07-06	22:04:51	22:26:51	1316351	5cc48c234bb96d00018a8bfe	2	1	main_z	24	main_z	7	stimuli_distractor_diamondtriangles.svg	stimuli_target_diamondrectangles.svg	31	yes	44	1	216	6	2	antiphase_hc_ios.wav	3	6	3	noise_calib_stim_LEFT.wav	1	26	blb_dichoticlistening_pa-da.mp3	pa	da	1	left
6.6.1	mac	2023-07-06	22:04:51	22:26:51	1316351	5cc48c234bb96d00018a8bfe	2	1	main_z	24	advance_on_keypress_ZEE	8	stimuli_distractor_diamondtriangles.svg	stimuli_target_diamondrectangles.svg	31	yes	57	0	923	6	2	antiphase_hc_ios.wav	3	6	3	noise_calib_stim_LEFT.wav	1	26	blb_dichoticlistening_pa-da.mp3	pa	da	1	left
6.6.1	mac	2023-07-06	22:04:51	22:26:54	1318793	5cc48c234bb96d00018a8bfe	2	1	main_z	24	main_z	9	stimuli_distractor_diamondtriangles.svg	stimuli_distractor_diamondtriangles.svg	40	no	44	0	886	6	2	antiphase_hc_ios.wav	3	6	3	noise_calib_stim_LEFT.wav	1	26	blb_dichoticlistening_pa-da.mp3	pa	da	1	left
6.6.1	mac	2023-07-06	22:04:51	22:26:54	1318793	5cc48c234bb96d00018a8bfe	2	1	main_z	24	advance_on_keypress_ZEE	10	stimuli_distractor_diamondtriangles.svg	stimuli_distractor_diamondtriangles.svg	40	no	57	0	767	6	2	antiphase_hc_ios.wav	3	6	3	noise_calib_stim_LEFT.wav	1	26	blb_dichoticlistening_pa-da.mp3	pa	da	1	left
6.6.1	mac	2023-07-06	22:04:51	22:26:55	1320309	5cc48c234bb96d00018a8bfe	2	1	main_z	24	main_z	11	stimuli_distractor_trianglediamonds.svg	stimuli_distractor_diamondtriangles.svg	36	no	44	0	112	6	2	antiphase_hc_ios.wav	3	6	3	noise_calib_stim_LEFT.wav	1	26	blb_dichoticlistening_pa-da.mp3	pa	da	1	left
6.6.1	mac	2023-07-06	22:04:51	22:26:55	1320309	5cc48c234bb96d00018a8bfe	2	1	main_z	24	advance_on_keypress_ZEE	12	stimuli_distractor_trianglediamonds.svg	stimuli_distractor_diamondtriangles.svg	36	no	57	0	1945	6	2	antiphase_hc_ios.wav	3	6	3	noise_calib_stim_LEFT.wav	1	26	blb_dichoticlistening_pa-da.mp3	pa	da	1	left
6.6.1	mac	2023-07-06	22:04:51	22:26:58	1322960	5cc48c234bb96d00018a8bfe	2	1	main_z	24	main_z	13	stimuli_distractor_diamondtriangles.svg	stimuli_target_rectanglediamonds.svg	14	yes	44	1	58	6	2	antiphase_hc_ios.wav	3	6	3	noise_calib_stim_LEFT.wav	1	26	blb_dichoticlistening_pa-da.mp3	pa	da	1	left
6.6.1	mac	2023-07-06	22:04:51	22:26:58	1322960	5cc48c234bb96d00018a8bfe	2	1	main_z	24	advance_on_keypress_ZEE	14	stimuli_distractor_diamondtriangles.svg	stimuli_target_rectanglediamonds.svg	14	yes	57	0	909	6	2	antiphase_hc_ios.wav	3	6	3	noise_calib_stim_LEFT.wav	1	26	blb_dichoticlistening_pa-da.mp3	pa	da	1	left
6.6.1	mac	2023-07-06	22:04:51	22:27:00	1324731	5cc48c234bb96d00018a8bfe	2	1	main_z	24	main_z	15	stimuli_target_trianglesquares.svg	stimuli_distractor_diamondtriangles.svg	22	yes	44	1	224	6	2	antiphase_hc_ios.wav	3	6	3	noise_calib_stim_LEFT.wav	1	26	blb_dichoticlistening_pa-da.mp3	pa	da	1	left
6.6.1	mac	2023-07-06	22:04:51	22:27:00	1324731	5cc48c234bb96d00018a8bfe	2	1	main_z	24	advance_on_keypress_ZEE	16	stimuli_target_trianglesquares.svg	stimuli_distractor_diamondtriangles.svg	22	yes	57	0	945	6	2	antiphase_hc_ios.wav	3	6	3	noise_calib_stim_LEFT.wav	1	26	blb_dichoticlistening_pa-da.mp3	pa	da	1	left
6.6.1	mac	2023-07-06	22:04:51	22:27:02	1326955	5cc48c234bb96d00018a8bfe	2	1	main_z	24	main_z	17	stimuli_target_rectangletriangles.svg	stimuli_distractor_trianglediamonds.svg	1	yes	44	1	644	6	2	antiphase_hc_ios.wav	3	6	3	noise_calib_stim_LEFT.wav	1	26	blb_dichoticlistening_pa-da.mp3	pa	da	1	left
6.6.1	mac	2023-07-06	22:04:51	22:27:02	1326955	5cc48c234bb96d00018a8bfe	2	1	main_z	24	advance_on_keypress_ZEE	18	stimuli_target_rectangletriangles.svg	stimuli_distractor_trianglediamonds.svg	1	yes	57	0	755	6	2	antiphase_hc_ios.wav	3	6	3	noise_calib_stim_LEFT.wav	1	26	blb_dichoticlistening_pa-da.mp3	pa	da	1	left
6.6.1	mac	2023-07-06	22:04:51	22:27:04	1328987	5cc48c234bb96d00018a8bfe	2	1	main_z	24	main_z	19	stimuli_distractor_diamondtriangles.svg	stimuli_distractor_trianglediamonds.svg	38	no	44	0	638	6	2	antiphase_hc_ios.wav	3	6	3	noise_calib_stim_LEFT.wav	1	26	blb_dichoticlistening_pa-da.mp3	pa	da	1	left
6.6.1	mac	2023-07-06	22:04:51	22:27:04	1328987	5cc48c234bb96d00018a8bfe	2	1	main_z	24	advance_on_keypress_ZEE	20	stimuli_distractor_diamondtriangles.svg	stimuli_distractor_trianglediamonds.svg	38	no	57	0	2270	6	2	antiphase_hc_ios.wav	3	6	3	noise_calib_stim_LEFT.wav	1	26	blb_dichoticlistening_pa-da.mp3	pa	da	1	left
6.6.1	mac	2023-07-06	22:04:51	22:27:07	1332088	5cc48c234bb96d00018a8bfe	2	1	main_z	24	main_z	21	stimuli_target_squaretriangles.svg	stimuli_distractor_diamondtriangles.svg	7	yes	44	1	195	6	2	antiphase_hc_ios.wav	3	6	3	noise_calib_stim_LEFT.wav	1	26	blb_dichoticlistening_pa-da.mp3	pa	da	1	left
6.6.1	mac	2023-07-06	22:04:51	22:27:07	1332088	5cc48c234bb96d00018a8bfe	2	1	main_z	24	advance_on_keypress_ZEE	22	stimuli_target_squaretriangles.svg	stimuli_distractor_diamondtriangles.svg	7	yes	57	0	3053	6	2	antiphase_hc_ios.wav	3	6	3	noise_calib_stim_LEFT.wav	1	26	blb_dichoticlistening_pa-da.mp3	pa	da	1	left
6.6.1	mac	2023-07-06	22:04:51	22:27:11	1335887	5cc48c234bb96d00018a8bfe	2	1	main_z	24	main_z	23	stimuli_target_diamondsquares.svg	stimuli_distractor_trianglediamonds.svg	20	yes	44	1	101	6	2	antiphase_hc_ios.wav	3	6	3	noise_calib_stim_LEFT.wav	1	26	blb_dichoticlistening_pa-da.mp3	pa	da	1	left
6.6.1	mac	2023-07-06	22:04:51	22:27:11	1335887	5cc48c234bb96d00018a8bfe	2	1	main_z	24	advance_on_keypress_ZEE	24	stimuli_target_diamondsquares.svg	stimuli_distractor_trianglediamonds.svg	20	yes	57	0	1797	6	2	antiphase_hc_ios.wav	3	6	3	noise_calib_stim_LEFT.wav	1	26	blb_dichoticlistening_pa-da.mp3	pa	da	1	left
6.6.1	mac	2023-07-06	22:04:51	22:27:15	1339756	5cc48c234bb96d00018a8bfe	2	1	main_z	24	main_z	25	stimuli_distractor_trianglediamonds.svg	stimuli_distractor_trianglediamonds.svg	33	no	44	0	1428	6	2	antiphase_hc_ios.wav	3	6	3	noise_calib_stim_LEFT.wav	1	26	blb_dichoticlistening_pa-da.mp3	pa	da	1	left
6.6.1	mac	2023-07-06	22:04:51	22:27:15	1339756	5cc48c234bb96d00018a8bfe	2	1	main_z	24	advance_on_keypress_ZEE	26	stimuli_distractor_trianglediamonds.svg	stimuli_distractor_trianglediamonds.svg	33	no	57	0	1420	6	2	antiphase_hc_ios.wav	3	6	3	noise_calib_stim_LEFT.wav	1	26	blb_dichoticlistening_pa-da.mp3	pa	da	1	left
6.6.1	mac	2023-07-06	22:04:51	22:27:17	1342042	5cc48c234bb96d00018a8bfe	2	1	main_z	24	main_z	27	stimuli_distractor_diamondtriangles.svg	stimuli_target_trianglesquares.svg	30	yes	44	1	222	6	2	antiphase_hc_ios.wav	3	6	3	noise_calib_stim_LEFT.wav	1	26	blb_dichoticlistening_pa-da.mp3	pa	da	1	left
6.6.1	mac	2023-07-06	22:04:51	22:27:17	1342042	5cc48c234bb96d00018a8bfe	2	1	main_z	24	advance_on_keypress_ZEE	28	stimuli_distractor_diamondtriangles.svg	stimuli_target_trianglesquares.svg	30	yes	57	0	1938	6	2	antiphase_hc_ios.wav	3	6	3	noise_calib_stim_LEFT.wav	1	26	blb_dichoticlistening_pa-da.mp3	pa	da	1	left
6.6.1	mac	2023-07-06	22:04:51	22:27:20	1344941	5cc48c234bb96d00018a8bfe	2	1	main_z	24	main_z	29	stimuli_distractor_diamondtriangles.svg	stimuli_target_trianglerectangles.svg	29	yes	44	1	330	6	2	antiphase_hc_ios.wav	3	6	3	noise_calib_stim_LEFT.wav	1	26	blb_dichoticlistening_pa-da.mp3	pa	da	1	left
6.6.1	mac	2023-07-06	22:04:51	22:27:20	1344941	5cc48c234bb96d00018a8bfe	2	1	main_z	24	advance_on_keypress_ZEE	30	stimuli_distractor_diamondtriangles.svg	stimuli_target_trianglerectangles.svg	29	yes	57	0	1090	6	2	antiphase_hc_ios.wav	3	6	3	noise_calib_stim_LEFT.wav	1	26	blb_dichoticlistening_pa-da.mp3	pa	da	1	left
6.6.1	mac	2023-07-06	22:04:51	22:27:22	1346912	5cc48c234bb96d00018a8bfe	2	1	main_z	24	main_z	31	stimuli_distractor_diamondtriangles.svg	stimuli_distractor_trianglediamonds.svg	37	no	44	0	245	6	2	antiphase_hc_ios.wav	3	6	3	noise_calib_stim_LEFT.wav	1	26	blb_dichoticlistening_pa-da.mp3	pa	da	1	left
6.6.1	mac	2023-07-06	22:04:51	22:27:22	1346912	5cc48c234bb96d00018a8bfe	2	1	main_z	24	advance_on_keypress_ZEE	32	stimuli_distractor_diamondtriangles.svg	stimuli_distractor_trianglediamonds.svg	37	no	57	0	755	6	2	antiphase_hc_ios.wav	3	6	3	noise_calib_stim_LEFT.wav	1	26	blb_dichoticlistening_pa-da.mp3	pa	da	1	left
6.6.1	mac	2023-07-06	22:04:51	22:27:24	1348918	5cc48c234bb96d00018a8bfe	2	1	main_z	24	main_z	33	stimuli_target_trianglerectangles.svg	stimuli_distractor_diamondtriangles.svg	21	yes	44	1	615	6	2	antiphase_hc_ios.wav	3	6	3	noise_calib_stim_LEFT.wav	1	26	blb_dichoticlistening_pa-da.mp3	pa	da	1	left
6.6.1	mac	2023-07-06	22:04:51	22:27:24	1348918	5cc48c234bb96d00018a8bfe	2	1	main_z	24	advance_on_keypress_ZEE	34	stimuli_target_trianglerectangles.svg	stimuli_distractor_diamondtriangles.svg	21	yes	57	0	913	6	2	antiphase_hc_ios.wav	3	6	3	noise_calib_stim_LEFT.wav	1	26	blb_dichoticlistening_pa-da.mp3	pa	da	1	left
6.6.1	mac	2023-07-06	22:04:51	22:27:26	1350718	5cc48c234bb96d00018a8bfe	2	1	main_z	24	main_z	35	stimuli_target_rectangletriangles.svg	stimuli_distractor_diamondtriangles.svg	5	yes	44	1	241	6	2	antiphase_hc_ios.wav	3	6	3	noise_calib_stim_LEFT.wav	1	26	blb_dichoticlistening_pa-da.mp3	pa	da	1	left
6.6.1	mac	2023-07-06	22:04:51	22:27:26	1350718	5cc48c234bb96d00018a8bfe	2	1	main_z	24	advance_on_keypress_ZEE	36	stimuli_target_rectangletriangles.svg	stimuli_distractor_diamondtriangles.svg	5	yes	57	0	1245	6	2	antiphase_hc_ios.wav	3	6	3	noise_calib_stim_LEFT.wav	1	26	blb_dichoticlistening_pa-da.mp3	pa	da	1	left
6.6.1	mac	2023-07-06	22:04:51	22:27:29	1354596	5cc48c234bb96d00018a8bfe	2	1	main_z	24	main_z	37	stimuli_distractor_trianglediamonds.svg	stimuli_distractor_diamondtriangles.svg	35	no	0	1	2000	6	2	antiphase_hc_ios.wav	3	6	3	noise_calib_stim_LEFT.wav	1	26	blb_dichoticlistening_pa-da.mp3	pa	da	1	left
6.6.1	mac	2023-07-06	22:04:51	22:27:29	1354596	5cc48c234bb96d00018a8bfe	2	1	main_z	24	advance_on_keypress_ZEE	38	stimuli_distractor_trianglediamonds.svg	stimuli_distractor_diamondtriangles.svg	35	no	57	0	1089	6	2	antiphase_hc_ios.wav	3	6	3	noise_calib_stim_LEFT.wav	1	26	blb_dichoticlistening_pa-da.mp3	pa	da	1	left
6.6.1	mac	2023-07-06	22:04:51	22:27:31	1356663	5cc48c234bb96d00018a8bfe	2	1	main_z	24	main_z	39	stimuli_distractor_diamondtriangles.svg	stimuli_target_squarediamonds.svg	16	yes	44	1	337	6	2	antiphase_hc_ios.wav	3	6	3	noise_calib_stim_LEFT.wav	1	26	blb_dichoticlistening_pa-da.mp3	pa	da	1	left
6.6.1	mac	2023-07-06	22:04:51	22:27:31	1356663	5cc48c234bb96d00018a8bfe	2	1	main_z	24	advance_on_keypress_ZEE	40	stimuli_distractor_diamondtriangles.svg	stimuli_target_squarediamonds.svg	16	yes	57	0	563	6	2	antiphase_hc_ios.wav	3	6	3	noise_calib_stim_LEFT.wav	1	26	blb_dichoticlistening_pa-da.mp3	pa	da	1	left
6.6.1	mac	2023-07-06	22:04:51	22:27:33	1358179	5cc48c234bb96d00018a8bfe	2	1	main_z	24	main_z	41	stimuli_target_rectanglediamonds.svg	stimuli_distractor_diamondtriangles.svg	6	yes	44	1	316	6	2	antiphase_hc_ios.wav	3	6	3	noise_calib_stim_LEFT.wav	1	26	blb_dichoticlistening_pa-da.mp3	pa	da	1	left
6.6.1	mac	2023-07-06	22:04:51	22:27:33	1358179	5cc48c234bb96d00018a8bfe	2	1	main_z	24	advance_on_keypress_ZEE	42	stimuli_target_rectanglediamonds.svg	stimuli_distractor_diamondtriangles.svg	6	yes	57	0	459	6	2	antiphase_hc_ios.wav	3	6	3	noise_calib_stim_LEFT.wav	1	26	blb_dichoticlistening_pa-da.mp3	pa	da	1	left
6.6.1	mac	2023-07-06	22:04:51	22:27:34	1359467	5cc48c234bb96d00018a8bfe	2	1	main_z	24	main_z	43	stimuli_distractor_trianglediamonds.svg	stimuli_target_trianglesquares.svg	26	yes	44	1	184	6	2	antiphase_hc_ios.wav	3	6	3	noise_calib_stim_LEFT.wav	1	26	blb_dichoticlistening_pa-da.mp3	pa	da	1	left
6.6.1	mac	2023-07-06	22:04:51	22:27:34	1359467	5cc48c234bb96d00018a8bfe	2	1	main_z	24	advance_on_keypress_ZEE	44	stimuli_distractor_trianglediamonds.svg	stimuli_target_trianglesquares.svg	26	yes	57	0	557	6	2	antiphase_hc_ios.wav	3	6	3	noise_calib_stim_LEFT.wav	1	26	blb_dichoticlistening_pa-da.mp3	pa	da	1	left
6.6.1	mac	2023-07-06	22:04:51	22:27:36	1360836	5cc48c234bb96d00018a8bfe	2	1	main_z	24	main_z	45	stimuli_distractor_diamondtriangles.svg	stimuli_target_squaretriangles.svg	15	yes	44	1	184	6	2	antiphase_hc_ios.wav	3	6	3	noise_calib_stim_LEFT.wav	1	26	blb_dichoticlistening_pa-da.mp3	pa	da	1	left
6.6.1	mac	2023-07-06	22:04:51	22:27:36	1360836	5cc48c234bb96d00018a8bfe	2	1	main_z	24	advance_on_keypress_ZEE	46	stimuli_distractor_diamondtriangles.svg	stimuli_target_squaretriangles.svg	15	yes	57	0	664	6	2	antiphase_hc_ios.wav	3	6	3	noise_calib_stim_LEFT.wav	1	26	blb_dichoticlistening_pa-da.mp3	pa	da	1	left
6.6.1	mac	2023-07-06	22:04:51	22:27:37	1362163	5cc48c234bb96d00018a8bfe	2	1	main_z	24	main_z	47	stimuli_distractor_trianglediamonds.svg	stimuli_target_rectangletriangles.svg	9	yes	44	1	23	6	2	antiphase_hc_ios.wav	3	6	3	noise_calib_stim_LEFT.wav	1	26	blb_dichoticlistening_pa-da.mp3	pa	da	1	left
6.6.1	mac	2023-07-06	22:04:51	22:27:37	1362163	5cc48c234bb96d00018a8bfe	2	1	main_z	24	advance_on_keypress_ZEE	48	stimuli_distractor_trianglediamonds.svg	stimuli_target_rectangletriangles.svg	9	yes	57	0	793	6	2	antiphase_hc_ios.wav	3	6	3	noise_calib_stim_LEFT.wav	1	26	blb_dichoticlistening_pa-da.mp3	pa	da	1	left
6.6.1	mac	2023-07-06	22:04:51	22:27:39	1363816	5cc48c234bb96d00018a8bfe	2	1	main_z	24	main_z	49	stimuli_target_squarediamonds.svg	stimuli_distractor_trianglediamonds.svg	4	yes	44	1	222	6	2	antiphase_hc_ios.wav	3	6	3	noise_calib_stim_LEFT.wav	1	26	blb_dichoticlistening_pa-da.mp3	pa	da	1	left
6.6.1	mac	2023-07-06	22:04:51	22:27:39	1363816	5cc48c234bb96d00018a8bfe	2	1	main_z	24	advance_on_keypress_ZEE	50	stimuli_target_squarediamonds.svg	stimuli_distractor_trianglediamonds.svg	4	yes	57	0	839	6	2	antiphase_hc_ios.wav	3	6	3	noise_calib_stim_LEFT.wav	1	26	blb_dichoticlistening_pa-da.mp3	pa	da	1	left
6.6.1	mac	2023-07-06	22:04:51	22:27:40	1365446	5cc48c234bb96d00018a8bfe	2	1	main_z	24	main_z	51	stimuli_target_diamondrectangles.svg	stimuli_distractor_diamondtriangles.svg	23	yes	44	1	164	6	2	antiphase_hc_ios.wav	3	6	3	noise_calib_stim_LEFT.wav	1	26	blb_dichoticlistening_pa-da.mp3	pa	da	1	left
6.6.1	mac	2023-07-06	22:04:51	22:27:40	1365446	5cc48c234bb96d00018a8bfe	2	1	main_z	24	advance_on_keypress_ZEE	52	stimuli_target_diamondrectangles.svg	stimuli_distractor_diamondtriangles.svg	23	yes	57	0	801	6	2	antiphase_hc_ios.wav	3	6	3	noise_calib_stim_LEFT.wav	1	26	blb_dichoticlistening_pa-da.mp3	pa	da	1	left
6.6.1	mac	2023-07-06	22:04:51	22:27:42	1366907	5cc48c234bb96d00018a8bfe	2	1	main_z	24	main_z	53	stimuli_distractor_diamondtriangles.svg	stimuli_target_diamondsquares.svg	32	yes	44	1	21	6	2	antiphase_hc_ios.wav	3	6	3	noise_calib_stim_LEFT.wav	1	26	blb_dichoticlistening_pa-da.mp3	pa	da	1	left
6.6.1	mac	2023-07-06	22:04:51	22:27:42	1366907	5cc48c234bb96d00018a8bfe	2	1	main_z	24	advance_on_keypress_ZEE	54	stimuli_distractor_diamondtriangles.svg	stimuli_target_diamondsquares.svg	32	yes	57	0	1074	6	2	antiphase_hc_ios.wav	3	6	3	noise_calib_stim_LEFT.wav	1	26	blb_dichoticlistening_pa-da.mp3	pa	da	1	left
6.6.1	mac	2023-07-06	22:04:51	22:27:44	1368797	5cc48c234bb96d00018a8bfe	2	1	main_z	24	main_z	55	stimuli_distractor_trianglediamonds.svg	stimuli_distractor_trianglediamonds.svg	34	no	44	0	172	6	2	antiphase_hc_ios.wav	3	6	3	noise_calib_stim_LEFT.wav	1	26	blb_dichoticlistening_pa-da.mp3	pa	da	1	left
6.6.1	mac	2023-07-06	22:04:51	22:27:44	1368797	5cc48c234bb96d00018a8bfe	2	1	main_z	24	advance_on_keypress_ZEE	56	stimuli_distractor_trianglediamonds.svg	stimuli_distractor_trianglediamonds.svg	34	no	57	0	1291	6	2	antiphase_hc_ios.wav	3	6	3	noise_calib_stim_LEFT.wav	1	26	blb_dichoticlistening_pa-da.mp3	pa	da	1	left
6.6.1	mac	2023-07-06	22:04:51	22:27:46	1371239	5cc48c234bb96d00018a8bfe	2	1	main_z	24	main_z	57	stimuli_distractor_diamondtriangles.svg	stimuli_distractor_diamondtriangles.svg	39	no	44	0	505	6	2	antiphase_hc_ios.wav	3	6	3	noise_calib_stim_LEFT.wav	1	26	blb_dichoticlistening_pa-da.mp3	pa	da	1	left
6.6.1	mac	2023-07-06	22:04:51	22:27:46	1371239	5cc48c234bb96d00018a8bfe	2	1	main_z	24	advance_on_keypress_ZEE	58	stimuli_distractor_diamondtriangles.svg	stimuli_distractor_diamondtriangles.svg	39	no	57	0	648	6	2	antiphase_hc_ios.wav	3	6	3	noise_calib_stim_LEFT.wav	1	26	blb_dichoticlistening_pa-da.mp3	pa	da	1	left
6.6.1	mac	2023-07-06	22:04:51	22:27:48	1372731	5cc48c234bb96d00018a8bfe	2	1	main_z	24	main_z	59	stimuli_target_diamondrectangles.svg	stimuli_distractor_trianglediamonds.svg	19	yes	44	1	196	6	2	antiphase_hc_ios.wav	3	6	3	noise_calib_stim_LEFT.wav	1	26	blb_dichoticlistening_pa-da.mp3	pa	da	1	left
6.6.1	mac	2023-07-06	22:04:51	22:27:48	1372731	5cc48c234bb96d00018a8bfe	2	1	main_z	24	advance_on_keypress_ZEE	60	stimuli_target_diamondrectangles.svg	stimuli_distractor_trianglediamonds.svg	19	yes	57	0	976	6	2	antiphase_hc_ios.wav	3	6	3	noise_calib_stim_LEFT.wav	1	26	blb_dichoticlistening_pa-da.mp3	pa	da	1	left
6.6.1	mac	2023-07-06	22:04:51	22:27:50	1374917	5cc48c234bb96d00018a8bfe	2	1	main_z	24	main_z	61	stimuli_distractor_trianglediamonds.svg	stimuli_target_squarediamonds.svg	12	yes	44	1	577	6	2	antiphase_hc_ios.wav	3	6	3	noise_calib_stim_LEFT.wav	1	26	blb_dichoticlistening_pa-da.mp3	pa	da	1	left
6.6.1	mac	2023-07-06	22:04:51	22:27:50	1374917	5cc48c234bb96d00018a8bfe	2	1	main_z	24	advance_on_keypress_ZEE	62	stimuli_distractor_trianglediamonds.svg	stimuli_target_squarediamonds.svg	12	yes	57	0	1487	6	2	antiphase_hc_ios.wav	3	6	3	noise_calib_stim_LEFT.wav	1	26	blb_dichoticlistening_pa-da.mp3	pa	da	1	left
6.6.1	mac	2023-07-06	22:04:51	22:27:52	1377160	5cc48c234bb96d00018a8bfe	2	1	main_z	24	main_z	63	stimuli_target_squarediamonds.svg	stimuli_distractor_diamondtriangles.svg	8	yes	44	1	112	6	2	antiphase_hc_ios.wav	3	6	3	noise_calib_stim_LEFT.wav	1	26	blb_dichoticlistening_pa-da.mp3	pa	da	1	left
6.6.1	mac	2023-07-06	22:04:51	22:27:52	1377160	5cc48c234bb96d00018a8bfe	2	1	main_z	24	advance_on_keypress_ZEE	64	stimuli_target_squarediamonds.svg	stimuli_distractor_diamondtriangles.svg	8	yes	57	0	1620	6	2	antiphase_hc_ios.wav	3	6	3	noise_calib_stim_LEFT.wav	1	26	blb_dichoticlistening_pa-da.mp3	pa	da	1	left
6.6.1	mac	2023-07-06	22:04:51	22:27:54	1379534	5cc48c234bb96d00018a8bfe	2	1	main_z	24	main_z	65	stimuli_distractor_trianglediamonds.svg	stimuli_target_squaretriangles.svg	11	yes	44	1	114	6	2	antiphase_hc_ios.wav	3	6	3	noise_calib_stim_LEFT.wav	1	26	blb_dichoticlistening_pa-da.mp3	pa	da	1	left
6.6.1	mac	2023-07-06	22:04:51	22:27:54	1379534	5cc48c234bb96d00018a8bfe	2	1	main_z	24	advance_on_keypress_ZEE	66	stimuli_distractor_trianglediamonds.svg	stimuli_target_squaretriangles.svg	11	yes	57	0	895	6	2	antiphase_hc_ios.wav	3	6	3	noise_calib_stim_LEFT.wav	1	26	blb_dichoticlistening_pa-da.mp3	pa	da	1	left
6.6.1	mac	2023-07-06	22:04:51	22:27:56	1381600	5cc48c234bb96d00018a8bfe	2	1	main_z	24	main_z	67	stimuli_distractor_trianglediamonds.svg	stimuli_target_rectanglediamonds.svg	10	yes	44	1	525	6	2	antiphase_hc_ios.wav	3	6	3	noise_calib_stim_LEFT.wav	1	26	blb_dichoticlistening_pa-da.mp3	pa	da	1	left
6.6.1	mac	2023-07-06	22:04:51	22:27:56	1381600	5cc48c234bb96d00018a8bfe	2	1	main_z	24	advance_on_keypress_ZEE	68	stimuli_distractor_trianglediamonds.svg	stimuli_target_rectanglediamonds.svg	10	yes	57	0	899	6	2	antiphase_hc_ios.wav	3	6	3	noise_calib_stim_LEFT.wav	1	26	blb_dichoticlistening_pa-da.mp3	pa	da	1	left
6.6.1	mac	2023-07-06	22:04:51	22:27:58	1383348	5cc48c234bb96d00018a8bfe	2	1	main_z	24	main_z	69	stimuli_target_diamondsquares.svg	stimuli_distractor_diamondtriangles.svg	24	yes	44	1	202	6	2	antiphase_hc_ios.wav	3	6	3	noise_calib_stim_LEFT.wav	1	26	blb_dichoticlistening_pa-da.mp3	pa	da	1	left
6.6.1	mac	2023-07-06	22:04:51	22:27:58	1383348	5cc48c234bb96d00018a8bfe	2	1	main_z	24	advance_on_keypress_ZEE	70	stimuli_target_diamondsquares.svg	stimuli_distractor_diamondtriangles.svg	24	yes	57	0	1064	6	2	antiphase_hc_ios.wav	3	6	3	noise_calib_stim_LEFT.wav	1	26	blb_dichoticlistening_pa-da.mp3	pa	da	1	left
6.6.1	mac	2023-07-06	22:04:51	22:28:00	1385255	5cc48c234bb96d00018a8bfe	2	1	main_z	24	main_z	71	stimuli_target_trianglesquares.svg	stimuli_distractor_trianglediamonds.svg	18	yes	44	1	203	6	2	antiphase_hc_ios.wav	3	6	3	noise_calib_stim_LEFT.wav	1	26	blb_dichoticlistening_pa-da.mp3	pa	da	1	left
6.6.1	mac	2023-07-06	22:04:51	22:28:00	1385255	5cc48c234bb96d00018a8bfe	2	1	main_z	24	advance_on_keypress_ZEE	72	stimuli_target_trianglesquares.svg	stimuli_distractor_trianglediamonds.svg	18	yes	57	0	1418	6	2	antiphase_hc_ios.wav	3	6	3	noise_calib_stim_LEFT.wav	1	26	blb_dichoticlistening_pa-da.mp3	pa	da	1	left
6.6.1	mac	2023-07-06	22:04:51	22:28:02	1387678	5cc48c234bb96d00018a8bfe	2	1	main_z	24	main_z	73	stimuli_target_squaretriangles.svg	stimuli_distractor_trianglediamonds.svg	3	yes	44	1	369	6	2	antiphase_hc_ios.wav	3	6	3	noise_calib_stim_LEFT.wav	1	26	blb_dichoticlistening_pa-da.mp3	pa	da	1	left
6.6.1	mac	2023-07-06	22:04:51	22:28:02	1387678	5cc48c234bb96d00018a8bfe	2	1	main_z	24	advance_on_keypress_ZEE	74	stimuli_target_squaretriangles.svg	stimuli_distractor_trianglediamonds.svg	3	yes	57	0	1686	6	2	antiphase_hc_ios.wav	3	6	3	noise_calib_stim_LEFT.wav	1	26	blb_dichoticlistening_pa-da.mp3	pa	da	1	left
6.6.1	mac	2023-07-06	22:04:51	22:28:05	1390593	5cc48c234bb96d00018a8bfe	2	1	main_z	24	main_z	75	stimuli_distractor_trianglediamonds.svg	stimuli_target_trianglerectangles.svg	25	yes	44	1	594	6	2	antiphase_hc_ios.wav	3	6	3	noise_calib_stim_LEFT.wav	1	26	blb_dichoticlistening_pa-da.mp3	pa	da	1	left
6.6.1	mac	2023-07-06	22:04:51	22:28:05	1390593	5cc48c234bb96d00018a8bfe	2	1	main_z	24	advance_on_keypress_ZEE	76	stimuli_distractor_trianglediamonds.svg	stimuli_target_trianglerectangles.svg	25	yes	57	0	1690	6	2	antiphase_hc_ios.wav	3	6	3	noise_calib_stim_LEFT.wav	1	26	blb_dichoticlistening_pa-da.mp3	pa	da	1	left
6.6.1	mac	2023-07-06	22:04:51	22:28:08	1393363	5cc48c234bb96d00018a8bfe	2	1	main_z	24	main_z	77	stimuli_target_rectanglediamonds.svg	stimuli_distractor_trianglediamonds.svg	2	yes	44	1	440	6	2	antiphase_hc_ios.wav	3	6	3	noise_calib_stim_LEFT.wav	1	26	blb_dichoticlistening_pa-da.mp3	pa	da	1	left
6.6.1	mac	2023-07-06	22:04:51	22:28:08	1393363	5cc48c234bb96d00018a8bfe	2	1	main_z	24	advance_on_keypress_ZEE	78	stimuli_target_rectanglediamonds.svg	stimuli_distractor_trianglediamonds.svg	2	yes	57	0	1522	6	2	antiphase_hc_ios.wav	3	6	3	noise_calib_stim_LEFT.wav	1	26	blb_dichoticlistening_pa-da.mp3	pa	da	1	left
6.6.1	mac	2023-07-06	22:04:51	22:28:11	1396054	5cc48c234bb96d00018a8bfe	2	1	main_z	24	main_z	79	stimuli_target_trianglerectangles.svg	stimuli_distractor_trianglediamonds.svg	17	yes	44	1	524	6	2	antiphase_hc_ios.wav	3	6	3	noise_calib_stim_LEFT.wav	1	26	blb_dichoticlistening_pa-da.mp3	pa	da	1	left
6.6.1	mac	2023-07-06	22:04:51	22:28:11	1396054	5cc48c234bb96d00018a8bfe	2	1	main_z	24	advance_on_keypress_ZEE	80	stimuli_target_trianglerectangles.svg	stimuli_distractor_trianglediamonds.svg	17	yes	57	0	643	6	2	antiphase_hc_ios.wav	3	6	3	noise_calib_stim_LEFT.wav	1	26	blb_dichoticlistening_pa-da.mp3	pa	da	1	left
6.6.1	mac	2023-07-06	22:04:51	22:28:12	1397619	5cc48c234bb96d00018a8bfe	2	1	main_z	24	main_z	81	stimuli_target_diamondsquares.svg	stimuli_distractor_diamondtriangles.svg	24	yes	44	1	269	6	2	antiphase_hc_ios.wav	3	6	3	noise_calib_stim_LEFT.wav	1	26	blb_dichoticlistening_pa-da.mp3	pa	da	1	left
6.6.1	mac	2023-07-06	22:04:51	22:28:12	1397619	5cc48c234bb96d00018a8bfe	2	1	main_z	24	advance_on_keypress_ZEE	82	stimuli_target_diamondsquares.svg	stimuli_distractor_diamondtriangles.svg	24	yes	57	0	1879	6	2	antiphase_hc_ios.wav	3	6	3	noise_calib_stim_LEFT.wav	1	26	blb_dichoticlistening_pa-da.mp3	pa	da	1	left
6.6.1	mac	2023-07-06	22:04:51	22:28:15	1400309	5cc48c234bb96d00018a8bfe	2	1	main_z	24	main_z	83	stimuli_distractor_diamondtriangles.svg	stimuli_distractor_diamondtriangles.svg	39	no	44	0	167	6	2	antiphase_hc_ios.wav	3	6	3	noise_calib_stim_LEFT.wav	1	26	blb_dichoticlistening_pa-da.mp3	pa	da	1	left
6.6.1	mac	2023-07-06	22:04:51	22:28:15	1400309	5cc48c234bb96d00018a8bfe	2	1	main_z	24	advance_on_keypress_ZEE	84	stimuli_distractor_diamondtriangles.svg	stimuli_distractor_diamondtriangles.svg	39	no	57	0	804	6	2	antiphase_hc_ios.wav	3	6	3	noise_calib_stim_LEFT.wav	1	26	blb_dichoticlistening_pa-da.mp3	pa	da	1	left
6.6.1	mac	2023-07-06	22:04:51	22:28:17	1401982	5cc48c234bb96d00018a8bfe	2	1	main_z	24	main_z	85	stimuli_distractor_diamondtriangles.svg	stimuli_target_squaretriangles.svg	15	yes	44	1	235	6	2	antiphase_hc_ios.wav	3	6	3	noise_calib_stim_LEFT.wav	1	26	blb_dichoticlistening_pa-da.mp3	pa	da	1	left
6.6.1	mac	2023-07-06	22:04:51	22:28:17	1401982	5cc48c234bb96d00018a8bfe	2	1	main_z	24	advance_on_keypress_ZEE	86	stimuli_distractor_diamondtriangles.svg	stimuli_target_squaretriangles.svg	15	yes	57	0	552	6	2	antiphase_hc_ios.wav	3	6	3	noise_calib_stim_LEFT.wav	1	26	blb_dichoticlistening_pa-da.mp3	pa	da	1	left
6.6.1	mac	2023-07-06	22:04:51	22:28:18	1403371	5cc48c234bb96d00018a8bfe	2	1	main_z	24	main_z	87	stimuli_distractor_trianglediamonds.svg	stimuli_target_trianglerectangles.svg	25	yes	44	1	203	6	2	antiphase_hc_ios.wav	3	6	3	noise_calib_stim_LEFT.wav	1	26	blb_dichoticlistening_pa-da.mp3	pa	da	1	left
6.6.1	mac	2023-07-06	22:04:51	22:28:18	1403371	5cc48c234bb96d00018a8bfe	2	1	main_z	24	advance_on_keypress_ZEE	88	stimuli_distractor_trianglediamonds.svg	stimuli_target_trianglerectangles.svg	25	yes	57	0	1249	6	2	antiphase_hc_ios.wav	3	6	3	noise_calib_stim_LEFT.wav	1	26	blb_dichoticlistening_pa-da.mp3	pa	da	1	left
6.6.1	mac	2023-07-06	22:04:51	22:28:20	1405337	5cc48c234bb96d00018a8bfe	2	1	main_z	24	main_z	89	stimuli_distractor_diamondtriangles.svg	stimuli_distractor_trianglediamonds.svg	38	no	44	0	81	6	2	antiphase_hc_ios.wav	3	6	3	noise_calib_stim_LEFT.wav	1	26	blb_dichoticlistening_pa-da.mp3	pa	da	1	left
6.6.1	mac	2023-07-06	22:04:51	22:28:20	1405337	5cc48c234bb96d00018a8bfe	2	1	main_z	24	advance_on_keypress_ZEE	90	stimuli_distractor_diamondtriangles.svg	stimuli_distractor_trianglediamonds.svg	38	no	57	0	1018	6	2	antiphase_hc_ios.wav	3	6	3	noise_calib_stim_LEFT.wav	1	26	blb_dichoticlistening_pa-da.mp3	pa	da	1	left
6.6.1	mac	2023-07-06	22:04:51	22:28:22	1407051	5cc48c234bb96d00018a8bfe	2	1	main_z	24	main_z	91	stimuli_target_trianglerectangles.svg	stimuli_distractor_diamondtriangles.svg	21	yes	44	1	58	6	2	antiphase_hc_ios.wav	3	6	3	noise_calib_stim_LEFT.wav	1	26	blb_dichoticlistening_pa-da.mp3	pa	da	1	left
6.6.1	mac	2023-07-06	22:04:51	22:28:22	1407051	5cc48c234bb96d00018a8bfe	2	1	main_z	24	advance_on_keypress_ZEE	92	stimuli_target_trianglerectangles.svg	stimuli_distractor_diamondtriangles.svg	21	yes	57	0	1396	6	2	antiphase_hc_ios.wav	3	6	3	noise_calib_stim_LEFT.wav	1	26	blb_dichoticlistening_pa-da.mp3	pa	da	1	left
6.6.1	mac	2023-07-06	22:04:51	22:28:24	1409187	5cc48c234bb96d00018a8bfe	2	1	main_z	24	main_z	93	stimuli_target_trianglesquares.svg	stimuli_distractor_diamondtriangles.svg	22	yes	44	1	104	6	2	antiphase_hc_ios.wav	3	6	3	noise_calib_stim_LEFT.wav	1	26	blb_dichoticlistening_pa-da.mp3	pa	da	1	left
6.6.1	mac	2023-07-06	22:04:51	22:28:24	1409187	5cc48c234bb96d00018a8bfe	2	1	main_z	24	advance_on_keypress_ZEE	94	stimuli_target_trianglesquares.svg	stimuli_distractor_diamondtriangles.svg	22	yes	57	0	1124	6	2	antiphase_hc_ios.wav	3	6	3	noise_calib_stim_LEFT.wav	1	26	blb_dichoticlistening_pa-da.mp3	pa	da	1	left
6.6.1	mac	2023-07-06	22:04:51	22:28:26	1411147	5cc48c234bb96d00018a8bfe	2	1	main_z	24	main_z	95	stimuli_distractor_diamondtriangles.svg	stimuli_target_trianglesquares.svg	30	yes	44	1	209	6	2	antiphase_hc_ios.wav	3	6	3	noise_calib_stim_LEFT.wav	1	26	blb_dichoticlistening_pa-da.mp3	pa	da	1	left
6.6.1	mac	2023-07-06	22:04:51	22:28:26	1411147	5cc48c234bb96d00018a8bfe	2	1	main_z	24	advance_on_keypress_ZEE	96	stimuli_distractor_diamondtriangles.svg	stimuli_target_trianglesquares.svg	30	yes	57	0	1562	6	2	antiphase_hc_ios.wav	3	6	3	noise_calib_stim_LEFT.wav	1	26	blb_dichoticlistening_pa-da.mp3	pa	da	1	left
6.6.1	mac	2023-07-06	22:04:51	22:28:30	1415358	5cc48c234bb96d00018a8bfe	2	1	main_z	24	main_z	97	stimuli_distractor_trianglediamonds.svg	stimuli_target_diamondsquares.svg	28	yes	0	0	2000	6	2	antiphase_hc_ios.wav	3	6	3	noise_calib_stim_LEFT.wav	1	26	blb_dichoticlistening_pa-da.mp3	pa	da	1	left
6.6.1	mac	2023-07-06	22:04:51	22:28:30	1415358	5cc48c234bb96d00018a8bfe	2	1	main_z	24	advance_on_keypress_ZEE	98	stimuli_distractor_trianglediamonds.svg	stimuli_target_diamondsquares.svg	28	yes	57	0	291	6	2	antiphase_hc_ios.wav	3	6	3	noise_calib_stim_LEFT.wav	1	26	blb_dichoticlistening_pa-da.mp3	pa	da	1	left
6.6.1	mac	2023-07-06	22:04:51	22:28:33	1418266	5cc48c234bb96d00018a8bfe	2	1	main_z	24	main_z	99	stimuli_distractor_trianglediamonds.svg	stimuli_target_rectangletriangles.svg	9	yes	0	0	2000	6	2	antiphase_hc_ios.wav	3	6	3	noise_calib_stim_LEFT.wav	1	26	blb_dichoticlistening_pa-da.mp3	pa	da	1	left
6.6.1	mac	2023-07-06	22:04:51	22:28:33	1418266	5cc48c234bb96d00018a8bfe	2	1	main_z	24	advance_on_keypress_ZEE	100	stimuli_distractor_trianglediamonds.svg	stimuli_target_rectangletriangles.svg	9	yes	57	0	1633	6	2	antiphase_hc_ios.wav	3	6	3	noise_calib_stim_LEFT.wav	1	26	blb_dichoticlistening_pa-da.mp3	pa	da	1	left
6.6.1	mac	2023-07-06	22:04:51	22:28:36	1420769	5cc48c234bb96d00018a8bfe	2	1	main_z	24	main_z	101	stimuli_distractor_trianglediamonds.svg	stimuli_target_diamondrectangles.svg	27	yes	44	1	237	6	2	antiphase_hc_ios.wav	3	6	3	noise_calib_stim_LEFT.wav	1	26	blb_dichoticlistening_pa-da.mp3	pa	da	1	left
6.6.1	mac	2023-07-06	22:04:51	22:28:36	1420769	5cc48c234bb96d00018a8bfe	2	1	main_z	24	advance_on_keypress_ZEE	102	stimuli_distractor_trianglediamonds.svg	stimuli_target_diamondrectangles.svg	27	yes	57	0	638	6	2	antiphase_hc_ios.wav	3	6	3	noise_calib_stim_LEFT.wav	1	26	blb_dichoticlistening_pa-da.mp3	pa	da	1	left
6.6.1	mac	2023-07-06	22:04:51	22:28:38	1422752	5cc48c234bb96d00018a8bfe	2	1	main_z	24	main_z	103	stimuli_distractor_diamondtriangles.svg	stimuli_target_trianglerectangles.svg	29	yes	44	1	718	6	2	antiphase_hc_ios.wav	3	6	3	noise_calib_stim_LEFT.wav	1	26	blb_dichoticlistening_pa-da.mp3	pa	da	1	left
6.6.1	mac	2023-07-06	22:04:51	22:28:38	1422752	5cc48c234bb96d00018a8bfe	2	1	main_z	24	advance_on_keypress_ZEE	104	stimuli_distractor_diamondtriangles.svg	stimuli_target_trianglerectangles.svg	29	yes	57	0	2392	6	2	antiphase_hc_ios.wav	3	6	3	noise_calib_stim_LEFT.wav	1	26	blb_dichoticlistening_pa-da.mp3	pa	da	1	left
6.6.1	mac	2023-07-06	22:04:51	22:28:41	1425902	5cc48c234bb96d00018a8bfe	2	1	main_z	24	main_z	105	stimuli_target_rectanglediamonds.svg	stimuli_distractor_trianglediamonds.svg	2	yes	44	1	124	6	2	antiphase_hc_ios.wav	3	6	3	noise_calib_stim_LEFT.wav	1	26	blb_dichoticlistening_pa-da.mp3	pa	da	1	left
6.6.1	mac	2023-07-06	22:04:51	22:28:41	1425902	5cc48c234bb96d00018a8bfe	2	1	main_z	24	advance_on_keypress_ZEE	106	stimuli_target_rectanglediamonds.svg	stimuli_distractor_trianglediamonds.svg	2	yes	57	0	872	6	2	antiphase_hc_ios.wav	3	6	3	noise_calib_stim_LEFT.wav	1	26	blb_dichoticlistening_pa-da.mp3	pa	da	1	left
6.6.1	mac	2023-07-06	22:04:51	22:28:43	1428273	5cc48c234bb96d00018a8bfe	2	1	main_z	24	main_z	107	stimuli_target_squarediamonds.svg	stimuli_distractor_trianglediamonds.svg	4	yes	44	1	858	6	2	antiphase_hc_ios.wav	3	6	3	noise_calib_stim_LEFT.wav	1	26	blb_dichoticlistening_pa-da.mp3	pa	da	1	left
6.6.1	mac	2023-07-06	22:04:51	22:28:43	1428273	5cc48c234bb96d00018a8bfe	2	1	main_z	24	advance_on_keypress_ZEE	108	stimuli_target_squarediamonds.svg	stimuli_distractor_trianglediamonds.svg	4	yes	57	0	1300	6	2	antiphase_hc_ios.wav	3	6	3	noise_calib_stim_LEFT.wav	1	26	blb_dichoticlistening_pa-da.mp3	pa	da	1	left
6.6.1	mac	2023-07-06	22:04:51	22:28:45	1430482	5cc48c234bb96d00018a8bfe	2	1	main_z	24	main_z	109	stimuli_distractor_diamondtriangles.svg	stimuli_distractor_diamondtriangles.svg	40	no	44	0	277	6	2	antiphase_hc_ios.wav	3	6	3	noise_calib_stim_LEFT.wav	1	26	blb_dichoticlistening_pa-da.mp3	pa	da	1	left
6.6.1	mac	2023-07-06	22:04:51	22:28:45	1430482	5cc48c234bb96d00018a8bfe	2	1	main_z	24	advance_on_keypress_ZEE	110	stimuli_distractor_diamondtriangles.svg	stimuli_distractor_diamondtriangles.svg	40	no	57	0	794	6	2	antiphase_hc_ios.wav	3	6	3	noise_calib_stim_LEFT.wav	1	26	blb_dichoticlistening_pa-da.mp3	pa	da	1	left
6.6.1	mac	2023-07-06	22:04:51	22:28:47	1432175	5cc48c234bb96d00018a8bfe	2	1	main_z	24	main_z	111	stimuli_target_trianglesquares.svg	stimuli_distractor_trianglediamonds.svg	18	yes	44	1	248	6	2	antiphase_hc_ios.wav	3	6	3	noise_calib_stim_LEFT.wav	1	26	blb_dichoticlistening_pa-da.mp3	pa	da	1	left
6.6.1	mac	2023-07-06	22:04:51	22:28:47	1432175	5cc48c234bb96d00018a8bfe	2	1	main_z	24	advance_on_keypress_ZEE	112	stimuli_target_trianglesquares.svg	stimuli_distractor_trianglediamonds.svg	18	yes	57	0	40041	6	2	antiphase_hc_ios.wav	3	6	3	noise_calib_stim_LEFT.wav	1	26	blb_dichoticlistening_pa-da.mp3	pa	da	1	left
6.6.1	mac	2023-07-06	22:04:51	22:29:30	1474851	5cc48c234bb96d00018a8bfe	2	1	main_z	24	main_z	113	stimuli_target_rectangletriangles.svg	stimuli_distractor_trianglediamonds.svg	1	yes	0	0	2000	6	2	antiphase_hc_ios.wav	3	6	3	noise_calib_stim_LEFT.wav	1	26	blb_dichoticlistening_pa-da.mp3	pa	da	1	left
6.6.1	mac	2023-07-06	22:04:51	22:29:30	1474851	5cc48c234bb96d00018a8bfe	2	1	main_z	24	advance_on_keypress_ZEE	114	stimuli_target_rectangletriangles.svg	stimuli_distractor_trianglediamonds.svg	1	yes	57	0	151	6	2	antiphase_hc_ios.wav	3	6	3	noise_calib_stim_LEFT.wav	1	26	blb_dichoticlistening_pa-da.mp3	pa	da	1	left
6.6.1	mac	2023-07-06	22:04:51	22:29:32	1477641	5cc48c234bb96d00018a8bfe	2	1	main_z	24	main_z	115	stimuli_target_squaretriangles.svg	stimuli_distractor_trianglediamonds.svg	3	yes	0	0	2000	6	2	antiphase_hc_ios.wav	3	6	3	noise_calib_stim_LEFT.wav	1	26	blb_dichoticlistening_pa-da.mp3	pa	da	1	left
6.6.1	mac	2023-07-06	22:04:51	22:29:32	1477641	5cc48c234bb96d00018a8bfe	2	1	main_z	24	advance_on_keypress_ZEE	116	stimuli_target_squaretriangles.svg	stimuli_distractor_trianglediamonds.svg	3	yes	57	0	225	6	2	antiphase_hc_ios.wav	3	6	3	noise_calib_stim_LEFT.wav	1	26	blb_dichoticlistening_pa-da.mp3	pa	da	1	left
6.6.1	mac	2023-07-06	22:04:51	22:29:35	1480515	5cc48c234bb96d00018a8bfe	2	1	main_z	24	main_z	117	stimuli_target_squarediamonds.svg	stimuli_distractor_diamondtriangles.svg	8	yes	0	0	2000	6	2	antiphase_hc_ios.wav	3	6	3	noise_calib_stim_LEFT.wav	1	26	blb_dichoticlistening_pa-da.mp3	pa	da	1	left
6.6.1	mac	2023-07-06	22:04:51	22:29:35	1480515	5cc48c234bb96d00018a8bfe	2	1	main_z	24	advance_on_keypress_ZEE	118	stimuli_target_squarediamonds.svg	stimuli_distractor_diamondtriangles.svg	8	yes	57	0	571	6	2	antiphase_hc_ios.wav	3	6	3	noise_calib_stim_LEFT.wav	1	26	blb_dichoticlistening_pa-da.mp3	pa	da	1	left
6.6.1	mac	2023-07-06	22:04:51	22:29:39	1483741	5cc48c234bb96d00018a8bfe	2	1	main_z	24	main_z	119	stimuli_target_rectangletriangles.svg	stimuli_distractor_diamondtriangles.svg	5	yes	0	0	2000	6	2	antiphase_hc_ios.wav	3	6	3	noise_calib_stim_LEFT.wav	1	26	blb_dichoticlistening_pa-da.mp3	pa	da	1	left
6.6.1	mac	2023-07-06	22:04:51	22:29:39	1483741	5cc48c234bb96d00018a8bfe	2	1	main_z	24	advance_on_keypress_ZEE	120	stimuli_target_rectangletriangles.svg	stimuli_distractor_diamondtriangles.svg	5	yes	57	0	375	6	2	antiphase_hc_ios.wav	3	6	3	noise_calib_stim_LEFT.wav	1	26	blb_dichoticlistening_pa-da.mp3	pa	da	1	left
6.6.1	mac	2023-07-06	22:04:51	22:29:42	1486765	5cc48c234bb96d00018a8bfe	2	1	main_z	24	main_z	121	stimuli_target_trianglerectangles.svg	stimuli_distractor_trianglediamonds.svg	17	yes	0	0	2000	6	2	antiphase_hc_ios.wav	3	6	3	noise_calib_stim_LEFT.wav	1	26	blb_dichoticlistening_pa-da.mp3	pa	da	1	left
6.6.1	mac	2023-07-06	22:04:51	22:29:42	1486765	5cc48c234bb96d00018a8bfe	2	1	main_z	24	advance_on_keypress_ZEE	122	stimuli_target_trianglerectangles.svg	stimuli_distractor_trianglediamonds.svg	17	yes	57	0	282	6	2	antiphase_hc_ios.wav	3	6	3	noise_calib_stim_LEFT.wav	1	26	blb_dichoticlistening_pa-da.mp3	pa	da	1	left
6.6.1	mac	2023-07-06	22:04:51	22:29:45	1489690	5cc48c234bb96d00018a8bfe	2	1	main_z	24	main_z	123	stimuli_distractor_trianglediamonds.svg	stimuli_target_trianglesquares.svg	26	yes	0	0	2000	6	2	antiphase_hc_ios.wav	3	6	3	noise_calib_stim_LEFT.wav	1	26	blb_dichoticlistening_pa-da.mp3	pa	da	1	left
6.6.1	mac	2023-07-06	22:04:51	22:29:45	1489690	5cc48c234bb96d00018a8bfe	2	1	main_z	24	advance_on_keypress_ZEE	124	stimuli_distractor_trianglediamonds.svg	stimuli_target_trianglesquares.svg	26	yes	57	0	25	6	2	antiphase_hc_ios.wav	3	6	3	noise_calib_stim_LEFT.wav	1	26	blb_dichoticlistening_pa-da.mp3	pa	da	1	left
6.6.1	mac	2023-07-06	22:04:51	22:29:47	1492364	5cc48c234bb96d00018a8bfe	2	1	main_z	24	main_z	125	stimuli_distractor_trianglediamonds.svg	stimuli_target_rectanglediamonds.svg	10	yes	0	0	2000	6	2	antiphase_hc_ios.wav	3	6	3	noise_calib_stim_LEFT.wav	1	26	blb_dichoticlistening_pa-da.mp3	pa	da	1	left
6.6.1	mac	2023-07-06	22:04:51	22:29:47	1492364	5cc48c234bb96d00018a8bfe	2	1	main_z	24	advance_on_keypress_ZEE	126	stimuli_distractor_trianglediamonds.svg	stimuli_target_rectanglediamonds.svg	10	yes	57	0	68	6	2	antiphase_hc_ios.wav	3	6	3	noise_calib_stim_LEFT.wav	1	26	blb_dichoticlistening_pa-da.mp3	pa	da	1	left
6.6.1	mac	2023-07-06	22:04:51	22:29:50	1495055	5cc48c234bb96d00018a8bfe	2	1	main_z	24	main_z	127	stimuli_target_squaretriangles.svg	stimuli_distractor_diamondtriangles.svg	7	yes	0	0	2000	6	2	antiphase_hc_ios.wav	3	6	3	noise_calib_stim_LEFT.wav	1	26	blb_dichoticlistening_pa-da.mp3	pa	da	1	left
6.6.1	mac	2023-07-06	22:04:51	22:29:50	1495055	5cc48c234bb96d00018a8bfe	2	1	main_z	24	advance_on_keypress_ZEE	128	stimuli_target_squaretriangles.svg	stimuli_distractor_diamondtriangles.svg	7	yes	57	0	497	6	2	antiphase_hc_ios.wav	3	6	3	noise_calib_stim_LEFT.wav	1	26	blb_dichoticlistening_pa-da.mp3	pa	da	1	left
6.6.1	mac	2023-07-06	22:04:51	22:29:53	1498195	5cc48c234bb96d00018a8bfe	2	1	main_z	24	main_z	129	stimuli_distractor_trianglediamonds.svg	stimuli_distractor_diamondtriangles.svg	35	no	0	1	2000	6	2	antiphase_hc_ios.wav	3	6	3	noise_calib_stim_LEFT.wav	1	26	blb_dichoticlistening_pa-da.mp3	pa	da	1	left
6.6.1	mac	2023-07-06	22:04:51	22:29:53	1498195	5cc48c234bb96d00018a8bfe	2	1	main_z	24	advance_on_keypress_ZEE	130	stimuli_distractor_trianglediamonds.svg	stimuli_distractor_diamondtriangles.svg	35	no	57	0	174	6	2	antiphase_hc_ios.wav	3	6	3	noise_calib_stim_LEFT.wav	1	26	blb_dichoticlistening_pa-da.mp3	pa	da	1	left
6.6.1	mac	2023-07-06	22:04:51	22:29:56	1501004	5cc48c234bb96d00018a8bfe	2	1	main_z	24	main_z	131	stimuli_target_diamondrectangles.svg	stimuli_distractor_diamondtriangles.svg	23	yes	0	0	2000	6	2	antiphase_hc_ios.wav	3	6	3	noise_calib_stim_LEFT.wav	1	26	blb_dichoticlistening_pa-da.mp3	pa	da	1	left
6.6.1	mac	2023-07-06	22:04:51	22:29:56	1501004	5cc48c234bb96d00018a8bfe	2	1	main_z	24	advance_on_keypress_ZEE	132	stimuli_target_diamondrectangles.svg	stimuli_distractor_diamondtriangles.svg	23	yes	57	0	200	6	2	antiphase_hc_ios.wav	3	6	3	noise_calib_stim_LEFT.wav	1	26	blb_dichoticlistening_pa-da.mp3	pa	da	1	left
6.6.1	mac	2023-07-06	22:04:51	22:29:59	1503844	5cc48c234bb96d00018a8bfe	2	1	main_z	24	main_z	133	stimuli_distractor_trianglediamonds.svg	stimuli_distractor_diamondtriangles.svg	36	no	0	1	2000	6	2	antiphase_hc_ios.wav	3	6	3	noise_calib_stim_LEFT.wav	1	26	blb_dichoticlistening_pa-da.mp3	pa	da	1	left
6.6.1	mac	2023-07-06	22:04:51	22:29:59	1503844	5cc48c234bb96d00018a8bfe	2	1	main_z	24	advance_on_keypress_ZEE	134	stimuli_distractor_trianglediamonds.svg	stimuli_distractor_diamondtriangles.svg	36	no	57	0	342	6	2	antiphase_hc_ios.wav	3	6	3	noise_calib_stim_LEFT.wav	1	26	blb_dichoticlistening_pa-da.mp3	pa	da	1	left
6.6.1	mac	2023-07-06	22:04:51	22:30:02	1506819	5cc48c234bb96d00018a8bfe	2	1	main_z	24	main_z	135	stimuli_distractor_trianglediamonds.svg	stimuli_target_squarediamonds.svg	12	yes	0	0	2000	6	2	antiphase_hc_ios.wav	3	6	3	noise_calib_stim_LEFT.wav	1	26	blb_dichoticlistening_pa-da.mp3	pa	da	1	left
6.6.1	mac	2023-07-06	22:04:51	22:30:02	1506819	5cc48c234bb96d00018a8bfe	2	1	main_z	24	advance_on_keypress_ZEE	136	stimuli_distractor_trianglediamonds.svg	stimuli_target_squarediamonds.svg	12	yes	57	0	626	6	2	antiphase_hc_ios.wav	3	6	3	noise_calib_stim_LEFT.wav	1	26	blb_dichoticlistening_pa-da.mp3	pa	da	1	left
6.6.1	mac	2023-07-06	22:04:51	22:30:05	1510095	5cc48c234bb96d00018a8bfe	2	1	main_z	24	main_z	137	stimuli_target_rectanglediamonds.svg	stimuli_distractor_diamondtriangles.svg	6	yes	0	0	2000	6	2	antiphase_hc_ios.wav	3	6	3	noise_calib_stim_LEFT.wav	1	26	blb_dichoticlistening_pa-da.mp3	pa	da	1	left
6.6.1	mac	2023-07-06	22:04:51	22:30:05	1510095	5cc48c234bb96d00018a8bfe	2	1	main_z	24	advance_on_keypress_ZEE	138	stimuli_target_rectanglediamonds.svg	stimuli_distractor_diamondtriangles.svg	6	yes	57	0	234	6	2	antiphase_hc_ios.wav	3	6	3	noise_calib_stim_LEFT.wav	1	26	blb_dichoticlistening_pa-da.mp3	pa	da	1	left
6.6.1	mac	2023-07-06	22:04:51	22:30:06	1511133	5cc48c234bb96d00018a8bfe	2	1	main_z	24	main_z	139	stimuli_distractor_diamondtriangles.svg	stimuli_target_rectangletriangles.svg	13	yes	44	1	161	6	2	antiphase_hc_ios.wav	3	6	3	noise_calib_stim_LEFT.wav	1	26	blb_dichoticlistening_pa-da.mp3	pa	da	1	left
6.6.1	mac	2023-07-06	22:04:51	22:30:06	1511133	5cc48c234bb96d00018a8bfe	2	1	main_z	24	advance_on_keypress_ZEE	140	stimuli_distractor_diamondtriangles.svg	stimuli_target_rectangletriangles.svg	13	yes	57	0	1124	6	2	antiphase_hc_ios.wav	3	6	3	noise_calib_stim_LEFT.wav	1	26	blb_dichoticlistening_pa-da.mp3	pa	da	1	left
6.6.1	mac	2023-07-06	22:04:51	22:30:08	1513240	5cc48c234bb96d00018a8bfe	2	1	main_z	24	main_z	141	stimuli_distractor_diamondtriangles.svg	stimuli_target_diamondrectangles.svg	31	yes	44	1	348	6	2	antiphase_hc_ios.wav	3	6	3	noise_calib_stim_LEFT.wav	1	26	blb_dichoticlistening_pa-da.mp3	pa	da	1	left
6.6.1	mac	2023-07-06	22:04:51	22:30:08	1513240	5cc48c234bb96d00018a8bfe	2	1	main_z	24	advance_on_keypress_ZEE	142	stimuli_distractor_diamondtriangles.svg	stimuli_target_diamondrectangles.svg	31	yes	57	0	1539	6	2	antiphase_hc_ios.wav	3	6	3	noise_calib_stim_LEFT.wav	1	26	blb_dichoticlistening_pa-da.mp3	pa	da	1	left
6.6.1	mac	2023-07-06	22:04:51	22:30:11	1516088	5cc48c234bb96d00018a8bfe	2	1	main_z	24	main_z	143	stimuli_distractor_trianglediamonds.svg	stimuli_distractor_trianglediamonds.svg	34	no	44	0	671	6	2	antiphase_hc_ios.wav	3	6	3	noise_calib_stim_LEFT.wav	1	26	blb_dichoticlistening_pa-da.mp3	pa	da	1	left
6.6.1	mac	2023-07-06	22:04:51	22:30:11	1516088	5cc48c234bb96d00018a8bfe	2	1	main_z	24	advance_on_keypress_ZEE	144	stimuli_distractor_trianglediamonds.svg	stimuli_distractor_trianglediamonds.svg	34	no	57	0	673	6	2	antiphase_hc_ios.wav	3	6	3	noise_calib_stim_LEFT.wav	1	26	blb_dichoticlistening_pa-da.mp3	pa	da	1	left
6.6.1	mac	2023-07-06	22:04:51	22:30:13	1517809	5cc48c234bb96d00018a8bfe	2	1	main_z	24	main_z	145	stimuli_distractor_trianglediamonds.svg	stimuli_distractor_trianglediamonds.svg	33	no	44	0	419	6	2	antiphase_hc_ios.wav	3	6	3	noise_calib_stim_LEFT.wav	1	26	blb_dichoticlistening_pa-da.mp3	pa	da	1	left
6.6.1	mac	2023-07-06	22:04:51	22:30:13	1517809	5cc48c234bb96d00018a8bfe	2	1	main_z	24	advance_on_keypress_ZEE	146	stimuli_distractor_trianglediamonds.svg	stimuli_distractor_trianglediamonds.svg	33	no	57	0	636	6	2	antiphase_hc_ios.wav	3	6	3	noise_calib_stim_LEFT.wav	1	26	blb_dichoticlistening_pa-da.mp3	pa	da	1	left
6.6.1	mac	2023-07-06	22:04:51	22:30:14	1519417	5cc48c234bb96d00018a8bfe	2	1	main_z	24	main_z	147	stimuli_distractor_diamondtriangles.svg	stimuli_distractor_trianglediamonds.svg	37	no	44	0	341	6	2	antiphase_hc_ios.wav	3	6	3	noise_calib_stim_LEFT.wav	1	26	blb_dichoticlistening_pa-da.mp3	pa	da	1	left
6.6.1	mac	2023-07-06	22:04:51	22:30:14	1519417	5cc48c234bb96d00018a8bfe	2	1	main_z	24	advance_on_keypress_ZEE	148	stimuli_distractor_diamondtriangles.svg	stimuli_distractor_trianglediamonds.svg	37	no	57	0	644	6	2	antiphase_hc_ios.wav	3	6	3	noise_calib_stim_LEFT.wav	1	26	blb_dichoticlistening_pa-da.mp3	pa	da	1	left
6.6.1	mac	2023-07-06	22:04:51	22:30:16	1521145	5cc48c234bb96d00018a8bfe	2	1	main_z	24	main_z	149	stimuli_distractor_diamondtriangles.svg	stimuli_target_rectanglediamonds.svg	14	yes	44	1	447	6	2	antiphase_hc_ios.wav	3	6	3	noise_calib_stim_LEFT.wav	1	26	blb_dichoticlistening_pa-da.mp3	pa	da	1	left
6.6.1	mac	2023-07-06	22:04:51	22:30:16	1521145	5cc48c234bb96d00018a8bfe	2	1	main_z	24	advance_on_keypress_ZEE	150	stimuli_distractor_diamondtriangles.svg	stimuli_target_rectanglediamonds.svg	14	yes	57	0	427	6	2	antiphase_hc_ios.wav	3	6	3	noise_calib_stim_LEFT.wav	1	26	blb_dichoticlistening_pa-da.mp3	pa	da	1	left
6.6.1	mac	2023-07-06	22:04:51	22:30:18	1522749	5cc48c234bb96d00018a8bfe	2	1	main_z	24	main_z	151	stimuli_distractor_diamondtriangles.svg	stimuli_target_diamondsquares.svg	32	yes	44	1	530	6	2	antiphase_hc_ios.wav	3	6	3	noise_calib_stim_LEFT.wav	1	26	blb_dichoticlistening_pa-da.mp3	pa	da	1	left
6.6.1	mac	2023-07-06	22:04:51	22:30:18	1522749	5cc48c234bb96d00018a8bfe	2	1	main_z	24	advance_on_keypress_ZEE	152	stimuli_distractor_diamondtriangles.svg	stimuli_target_diamondsquares.svg	32	yes	57	0	546	6	2	antiphase_hc_ios.wav	3	6	3	noise_calib_stim_LEFT.wav	1	26	blb_dichoticlistening_pa-da.mp3	pa	da	1	left
6.6.1	mac	2023-07-06	22:04:51	22:30:21	1525937	5cc48c234bb96d00018a8bfe	2	1	main_z	24	main_z	153	stimuli_target_diamondsquares.svg	stimuli_distractor_trianglediamonds.svg	20	yes	0	0	2000	6	2	antiphase_hc_ios.wav	3	6	3	noise_calib_stim_LEFT.wav	1	26	blb_dichoticlistening_pa-da.mp3	pa	da	1	left
6.6.1	mac	2023-07-06	22:04:51	22:30:21	1525937	5cc48c234bb96d00018a8bfe	2	1	main_z	24	advance_on_keypress_ZEE	154	stimuli_target_diamondsquares.svg	stimuli_distractor_trianglediamonds.svg	20	yes	57	0	1313	6	2	antiphase_hc_ios.wav	3	6	3	noise_calib_stim_LEFT.wav	1	26	blb_dichoticlistening_pa-da.mp3	pa	da	1	left
6.6.1	mac	2023-07-06	22:04:51	22:30:23	1528059	5cc48c234bb96d00018a8bfe	2	1	main_z	24	main_z	155	stimuli_distractor_diamondtriangles.svg	stimuli_target_squarediamonds.svg	16	yes	44	1	176	6	2	antiphase_hc_ios.wav	3	6	3	noise_calib_stim_LEFT.wav	1	26	blb_dichoticlistening_pa-da.mp3	pa	da	1	left
6.6.1	mac	2023-07-06	22:04:51	22:30:23	1528059	5cc48c234bb96d00018a8bfe	2	1	main_z	24	advance_on_keypress_ZEE	156	stimuli_distractor_diamondtriangles.svg	stimuli_target_squarediamonds.svg	16	yes	57	0	940	6	2	antiphase_hc_ios.wav	3	6	3	noise_calib_stim_LEFT.wav	1	26	blb_dichoticlistening_pa-da.mp3	pa	da	1	left
6.6.1	mac	2023-07-06	22:04:51	22:30:25	1529978	5cc48c234bb96d00018a8bfe	2	1	main_z	24	main_z	157	stimuli_target_diamondrectangles.svg	stimuli_distractor_trianglediamonds.svg	19	yes	44	1	340	6	2	antiphase_hc_ios.wav	3	6	3	noise_calib_stim_LEFT.wav	1	26	blb_dichoticlistening_pa-da.mp3	pa	da	1	left
6.6.1	mac	2023-07-06	22:04:51	22:30:25	1529978	5cc48c234bb96d00018a8bfe	2	1	main_z	24	advance_on_keypress_ZEE	158	stimuli_target_diamondrectangles.svg	stimuli_distractor_trianglediamonds.svg	19	yes	57	0	530	6	2	antiphase_hc_ios.wav	3	6	3	noise_calib_stim_LEFT.wav	1	26	blb_dichoticlistening_pa-da.mp3	pa	da	1	left
6.6.1	mac	2023-07-06	22:04:51	22:30:28	1533139	5cc48c234bb96d00018a8bfe	2	1	main_z	24	main_z	159	stimuli_distractor_trianglediamonds.svg	stimuli_target_squaretriangles.svg	11	yes	0	0	2000	6	2	antiphase_hc_ios.wav	3	6	3	noise_calib_stim_LEFT.wav	1	26	blb_dichoticlistening_pa-da.mp3	pa	da	1	left
6.6.1	mac	2023-07-06	22:04:51	22:30:28	1533139	5cc48c234bb96d00018a8bfe	2	1	main_z	24	advance_on_keypress_ZEE	160	stimuli_distractor_trianglediamonds.svg	stimuli_target_squaretriangles.svg	11	yes	57	0	415	6	2	antiphase_hc_ios.wav	3	6	3	noise_calib_stim_LEFT.wav	1	26	blb_dichoticlistening_pa-da.mp3	pa	da	1	left
6.6.1	mac	2023-07-06	22:04:51	22:30:47	1552394	5cc48c234bb96d00018a8bfe	2	1	practice_slash	26	practice_slash	1	stimuli_target_rectanglediamonds.svg	stimuli_distractor_trianglediamonds.svg	4	yes	53	1	362	6	2	antiphase_hc_ios.wav	3	6	3	noise_calib_stim_LEFT.wav	1	26	blb_dichoticlistening_pa-da.mp3	pa	da	1	left
6.6.1	mac	2023-07-06	22:04:51	22:30:47	1552394	5cc48c234bb96d00018a8bfe	2	1	practice_slash	26	advance_on_keypress_SLASH	2	stimuli_target_rectanglediamonds.svg	stimuli_distractor_trianglediamonds.svg	4	yes	57	0	797	6	2	antiphase_hc_ios.wav	3	6	3	noise_calib_stim_LEFT.wav	1	26	blb_dichoticlistening_pa-da.mp3	pa	da	1	left
6.6.1	mac	2023-07-06	22:04:51	22:30:50	1555074	5cc48c234bb96d00018a8bfe	2	1	practice_slash	26	practice_slash	3	stimuli_target_diamondsquares.svg	stimuli_distractor_trianglediamonds.svg	6	yes	53	1	238	6	2	antiphase_hc_ios.wav	3	6	3	noise_calib_stim_LEFT.wav	1	26	blb_dichoticlistening_pa-da.mp3	pa	da	1	left
6.6.1	mac	2023-07-06	22:04:51	22:30:50	1555074	5cc48c234bb96d00018a8bfe	2	1	practice_slash	26	advance_on_keypress_SLASH	4	stimuli_target_diamondsquares.svg	stimuli_distractor_trianglediamonds.svg	6	yes	57	0	804	6	2	antiphase_hc_ios.wav	3	6	3	noise_calib_stim_LEFT.wav	1	26	blb_dichoticlistening_pa-da.mp3	pa	da	1	left
6.6.1	mac	2023-07-06	22:04:51	22:30:53	1557737	5cc48c234bb96d00018a8bfe	2	1	practice_slash	26	practice_slash	5	stimuli_distractor_diamondtriangles.svg	stimuli_target_diamondrectangles.svg	8	yes	53	1	228	6	2	antiphase_hc_ios.wav	3	6	3	noise_calib_stim_LEFT.wav	1	26	blb_dichoticlistening_pa-da.mp3	pa	da	1	left
6.6.1	mac	2023-07-06	22:04:51	22:30:53	1557737	5cc48c234bb96d00018a8bfe	2	1	practice_slash	26	advance_on_keypress_SLASH	6	stimuli_distractor_diamondtriangles.svg	stimuli_target_diamondrectangles.svg	8	yes	57	0	345	6	2	antiphase_hc_ios.wav	3	6	3	noise_calib_stim_LEFT.wav	1	26	blb_dichoticlistening_pa-da.mp3	pa	da	1	left
6.6.1	mac	2023-07-06	22:04:51	22:30:55	1560286	5cc48c234bb96d00018a8bfe	2	1	practice_slash	26	practice_slash	7	stimuli_target_squarediamonds.svg	stimuli_distractor_trianglediamonds.svg	5	yes	53	1	569	6	2	antiphase_hc_ios.wav	3	6	3	noise_calib_stim_LEFT.wav	1	26	blb_dichoticlistening_pa-da.mp3	pa	da	1	left
6.6.1	mac	2023-07-06	22:04:51	22:30:55	1560286	5cc48c234bb96d00018a8bfe	2	1	practice_slash	26	advance_on_keypress_SLASH	8	stimuli_target_squarediamonds.svg	stimuli_distractor_trianglediamonds.svg	5	yes	57	0	253	6	2	antiphase_hc_ios.wav	3	6	3	noise_calib_stim_LEFT.wav	1	26	blb_dichoticlistening_pa-da.mp3	pa	da	1	left
6.6.1	mac	2023-07-06	22:04:51	22:30:57	1562390	5cc48c234bb96d00018a8bfe	2	1	practice_slash	26	practice_slash	9	stimuli_target_squarediamonds.svg	stimuli_distractor_diamondtriangles.svg	2	yes	53	1	218	6	2	antiphase_hc_ios.wav	3	6	3	noise_calib_stim_LEFT.wav	1	26	blb_dichoticlistening_pa-da.mp3	pa	da	1	left
6.6.1	mac	2023-07-06	22:04:51	22:30:57	1562390	5cc48c234bb96d00018a8bfe	2	1	practice_slash	26	advance_on_keypress_SLASH	10	stimuli_target_squarediamonds.svg	stimuli_distractor_diamondtriangles.svg	2	yes	57	0	782	6	2	antiphase_hc_ios.wav	3	6	3	noise_calib_stim_LEFT.wav	1	26	blb_dichoticlistening_pa-da.mp3	pa	da	1	left
6.6.1	mac	2023-07-06	22:04:51	22:31:00	1564874	5cc48c234bb96d00018a8bfe	2	1	practice_slash	26	practice_slash	11	stimuli_distractor_trianglediamonds.svg	stimuli_target_squarediamonds.svg	11	yes	53	1	61	6	2	antiphase_hc_ios.wav	3	6	3	noise_calib_stim_LEFT.wav	1	26	blb_dichoticlistening_pa-da.mp3	pa	da	1	left
6.6.1	mac	2023-07-06	22:04:51	22:31:00	1564874	5cc48c234bb96d00018a8bfe	2	1	practice_slash	26	advance_on_keypress_SLASH	12	stimuli_distractor_trianglediamonds.svg	stimuli_target_squarediamonds.svg	11	yes	57	0	363	6	2	antiphase_hc_ios.wav	3	6	3	noise_calib_stim_LEFT.wav	1	26	blb_dichoticlistening_pa-da.mp3	pa	da	1	left
6.6.1	mac	2023-07-06	22:04:51	22:31:02	1567057	5cc48c234bb96d00018a8bfe	2	1	practice_slash	26	practice_slash	13	stimuli_distractor_diamondtriangles.svg	stimuli_distractor_trianglediamonds.svg	14	no	53	0	187	6	2	antiphase_hc_ios.wav	3	6	3	noise_calib_stim_LEFT.wav	1	26	blb_dichoticlistening_pa-da.mp3	pa	da	1	left
6.6.1	mac	2023-07-06	22:04:51	22:31:02	1567057	5cc48c234bb96d00018a8bfe	2	1	practice_slash	26	advance_on_keypress_SLASH	14	stimuli_distractor_diamondtriangles.svg	stimuli_distractor_trianglediamonds.svg	14	no	57	0	581	6	2	antiphase_hc_ios.wav	3	6	3	noise_calib_stim_LEFT.wav	1	26	blb_dichoticlistening_pa-da.mp3	pa	da	1	left
6.6.1	mac	2023-07-06	22:04:51	22:31:04	1569324	5cc48c234bb96d00018a8bfe	2	1	practice_slash	26	practice_slash	15	stimuli_distractor_diamondtriangles.svg	stimuli_distractor_diamondtriangles.svg	13	no	53	0	48	6	2	antiphase_hc_ios.wav	3	6	3	noise_calib_stim_LEFT.wav	1	26	blb_dichoticlistening_pa-da.mp3	pa	da	1	left
6.6.1	mac	2023-07-06	22:04:51	22:31:04	1569324	5cc48c234bb96d00018a8bfe	2	1	practice_slash	26	advance_on_keypress_SLASH	16	stimuli_distractor_diamondtriangles.svg	stimuli_distractor_diamondtriangles.svg	13	no	57	0	356	6	2	antiphase_hc_ios.wav	3	6	3	noise_calib_stim_LEFT.wav	1	26	blb_dichoticlistening_pa-da.mp3	pa	da	1	left
6.6.1	mac	2023-07-06	22:04:51	22:31:06	1571417	5cc48c234bb96d00018a8bfe	2	1	practice_slash	26	practice_slash	17	stimuli_target_diamondsquares.svg	stimuli_distractor_diamondtriangles.svg	3	yes	53	1	102	6	2	antiphase_hc_ios.wav	3	6	3	noise_calib_stim_LEFT.wav	1	26	blb_dichoticlistening_pa-da.mp3	pa	da	1	left
6.6.1	mac	2023-07-06	22:04:51	22:31:06	1571417	5cc48c234bb96d00018a8bfe	2	1	practice_slash	26	advance_on_keypress_SLASH	18	stimuli_target_diamondsquares.svg	stimuli_distractor_diamondtriangles.svg	3	yes	57	0	320	6	2	antiphase_hc_ios.wav	3	6	3	noise_calib_stim_LEFT.wav	1	26	blb_dichoticlistening_pa-da.mp3	pa	da	1	left
6.6.1	mac	2023-07-06	22:04:51	22:31:08	1573520	5cc48c234bb96d00018a8bfe	2	1	practice_slash	26	practice_slash	19	stimuli_distractor_diamondtriangles.svg	stimuli_target_trianglerectangles.svg	9	yes	53	1	151	6	2	antiphase_hc_ios.wav	3	6	3	noise_calib_stim_LEFT.wav	1	26	blb_dichoticlistening_pa-da.mp3	pa	da	1	left
