build	computer.platform	date	time	timestamp	time_elapsed_ms	subject	group	session	blockcode	blocknum	trialcode	trialnum	stimulus_left	stimulus_right	stim_index	target_present	response	correct	latency	headphonecheck_countTestTrials	headphonecheck_index	headphonecheck_testSound	headphonecheck_correctResponse	stereocheck_countTestTrials	stereocheck_index	stereocheck_testSound	stereocheck_correctResponse	DL_index	DL_soundfile	DL_leftSound	DL_rightSound	DL_dualSound	DL_choice
6.6.0	win	2023-06-02	03:51:19	0	0	6154973c69da7c97996a19f6	2	1	headphonecheck_calibration	4	headphonecheck_calibrationIntro	1			0		calibrationButton	0	2964	0	0			0	0			1				0	
6.6.0	win	2023-06-02	03:51:19	0	0	6154973c69da7c97996a19f6	2	1	headphonecheck_testphase	5	test_collectResponse	3			0		first	1	9948	1	3	antiphase_hc_soi.wav	1	0	0			1				0	
6.6.0	win	2023-06-02	03:51:19	0	0	6154973c69da7c97996a19f6	2	1	headphonecheck_testphase	5	test_collectResponse	6			0		third	1	302	2	6	antiphase_hc_ois.wav	3	0	0			1				0	
6.6.0	win	2023-06-02	03:51:19	0	0	6154973c69da7c97996a19f6	2	1	headphonecheck_testphase	5	test_collectResponse	9			0		third	1	244	3	2	antiphase_hc_ios.wav	3	0	0			1				0	
6.6.0	win	2023-06-02	03:51:19	0	0	6154973c69da7c97996a19f6	2	1	headphonecheck_testphase	5	test_collectResponse	12			0		second	1	207	4	5	antiphase_hc_osi.wav	2	0	0			1				0	
6.6.0	win	2023-06-02	03:51:19	0	0	6154973c69da7c97996a19f6	2	1	headphonecheck_testphase	5	test_collectResponse	15			0		second	1	256	5	1	antiphase_hc_iso.wav	2	0	0			1				0	
6.6.0	win	2023-06-02	03:51:19	0	0	6154973c69da7c97996a19f6	2	1	headphonecheck_testphase	5	test_collectResponse	18			0		first	1	369	6	4	antiphase_hc_sio.wav	1	0	0			1				0	
6.6.0	win	2023-06-02	03:51:19	0	0	6154973c69da7c97996a19f6	2	1	stereocheck_calibration	7	stereocheck_calibrationIntro	1			0		stereocheck_calibrationButton	0	4438	6	4	antiphase_hc_sio.wav	1	0	0			1				0	
6.6.0	win	2023-06-02	03:51:19	0	0	6154973c69da7c97996a19f6	2	1	stereocheck_testphase	8	stereocheck_test_collectResponse	3			0		stereocheck_left	1	382	6	4	antiphase_hc_sio.wav	1	1	1	noise_calib_stim_LEFT.wav	1	1				0	
6.6.0	win	2023-06-02	03:51:19	0	0	6154973c69da7c97996a19f6	2	1	stereocheck_testphase	8	stereocheck_test_collectResponse	6			0		stereocheck_right	1	250	6	4	antiphase_hc_sio.wav	1	2	6	noise_calib_stim_RIGHT.wav	2	1				0	
6.6.0	win	2023-06-02	03:51:19	0	0	6154973c69da7c97996a19f6	2	1	stereocheck_testphase	8	stereocheck_test_collectResponse	9			0		stereocheck_right	1	215	6	4	antiphase_hc_sio.wav	1	3	4	noise_calib_stim_RIGHT.wav	2	1				0	
6.6.0	win	2023-06-02	03:51:19	0	0	6154973c69da7c97996a19f6	2	1	stereocheck_testphase	8	stereocheck_test_collectResponse	12			0		stereocheck_left	1	256	6	4	antiphase_hc_sio.wav	1	4	3	noise_calib_stim_LEFT.wav	1	1				0	
6.6.0	win	2023-06-02	03:51:19	0	0	6154973c69da7c97996a19f6	2	1	stereocheck_testphase	8	stereocheck_test_collectResponse	15			0		stereocheck_left	1	258	6	4	antiphase_hc_sio.wav	1	5	2	noise_calib_stim_LEFT.wav	1	1				0	
6.6.0	win	2023-06-02	03:51:19	0	0	6154973c69da7c97996a19f6	2	1	stereocheck_testphase	8	stereocheck_test_collectResponse	18			0		stereocheck_right	1	253	6	4	antiphase_hc_sio.wav	1	6	5	noise_calib_stim_RIGHT.wav	2	1				0	
6.6.0	win	2023-06-02	03:51:19	0	0	6154973c69da7c97996a19f6	2	1	DL_practice	11	DL_practice	2			0		ka	0	1915	6	4	antiphase_hc_sio.wav	1	6	5	noise_calib_stim_RIGHT.wav	2	18	blb_dichoticlistening_ga-ta.mp3	ga	ta	1	other
6.6.0	win	2023-06-02	03:51:19	0	0	6154973c69da7c97996a19f6	2	1	DL_practice	11	DL_practice	3			0		pa	1	1325	6	4	antiphase_hc_sio.wav	1	6	5	noise_calib_stim_RIGHT.wav	2	29	blb_dichoticlistening_pa-pa.mp3	pa	pa	0	left
6.6.0	win	2023-06-02	03:51:19	0	0	6154973c69da7c97996a19f6	2	1	DL_practice	11	DL_practice	4			0		ba	1	1634	6	4	antiphase_hc_sio.wav	1	6	5	noise_calib_stim_RIGHT.wav	2	1	blb_dichoticlistening_ba-ba.mp3	ba	ba	0	left
6.6.0	win	2023-06-02	03:51:19	0	0	6154973c69da7c97996a19f6	2	1	DL_practice	11	DL_practice	5			0		da	1	1381	6	4	antiphase_hc_sio.wav	1	6	5	noise_calib_stim_RIGHT.wav	2	8	blb_dichoticlistening_da-da.mp3	da	da	0	left
6.6.0	win	2023-06-02	03:51:19	0	0	6154973c69da7c97996a19f6	2	1	DL_practice	11	DL_practice	6			0		ta	0	3399	6	4	antiphase_hc_sio.wav	1	6	5	noise_calib_stim_RIGHT.wav	2	23	blb_dichoticlistening_ka-pa.mp3	ka	pa	1	other
6.6.0	win	2023-06-02	03:51:19	0	0	6154973c69da7c97996a19f6	2	1	DL_practice	11	DL_practice	7			0		ga	1	1156	6	4	antiphase_hc_sio.wav	1	6	5	noise_calib_stim_RIGHT.wav	2	15	blb_dichoticlistening_ga-ga.mp3	ga	ga	0	left
6.6.0	win	2023-06-02	03:51:19	0	0	6154973c69da7c97996a19f6	2	1	DL_practice	11	DL_practice	8			0		ka	1	936	6	4	antiphase_hc_sio.wav	1	6	5	noise_calib_stim_RIGHT.wav	2	22	blb_dichoticlistening_ka-ka.mp3	ka	ka	0	left
6.6.0	win	2023-06-02	03:51:19	0	0	6154973c69da7c97996a19f6	2	1	DL_practice	11	DL_practice	9			0		ta	1	1737	6	4	antiphase_hc_sio.wav	1	6	5	noise_calib_stim_RIGHT.wav	2	36	blb_dichoticlistening_ta-ta.mp3	ta	ta	0	left
6.6.0	win	2023-06-02	03:51:19	0	0	6154973c69da7c97996a19f6	2	1	DL_practice	11	DL_practice	10			0		da	1	1383	6	4	antiphase_hc_sio.wav	1	6	5	noise_calib_stim_RIGHT.wav	2	7	blb_dichoticlistening_da-ba.mp3	da	ba	1	left
6.6.0	win	2023-06-02	03:51:19	0	0	6154973c69da7c97996a19f6	2	1	DL_test	13	DL_test	1			0		ta	1	1778	6	4	antiphase_hc_sio.wav	1	6	5	noise_calib_stim_RIGHT.wav	2	12	blb_dichoticlistening_da-ta.mp3	da	ta	1	right
6.6.0	win	2023-06-02	03:51:19	0	0	6154973c69da7c97996a19f6	2	1	DL_test	13	DL_test	2			0		pa	1	1105	6	4	antiphase_hc_sio.wav	1	6	5	noise_calib_stim_RIGHT.wav	2	26	blb_dichoticlistening_pa-da.mp3	pa	da	1	left
6.6.0	win	2023-06-02	03:51:19	0	0	6154973c69da7c97996a19f6	2	1	DL_test	13	DL_test	3			0		ba	1	1811	6	4	antiphase_hc_sio.wav	1	6	5	noise_calib_stim_RIGHT.wav	2	7	blb_dichoticlistening_da-ba.mp3	da	ba	1	right
6.6.0	win	2023-06-02	03:51:19	0	0	6154973c69da7c97996a19f6	2	1	DL_test	13	DL_test	4			0		pa	1	1489	6	4	antiphase_hc_sio.wav	1	6	5	noise_calib_stim_RIGHT.wav	2	17	blb_dichoticlistening_ga-pa.mp3	ga	pa	1	right
6.6.0	win	2023-06-02	03:51:19	0	0	6154973c69da7c97996a19f6	2	1	DL_test	13	DL_test	5			0		ta	1	1450	6	4	antiphase_hc_sio.wav	1	6	5	noise_calib_stim_RIGHT.wav	2	35	blb_dichoticlistening_ta-pa.mp3	ta	pa	1	left
6.6.0	win	2023-06-02	03:51:19	0	0	6154973c69da7c97996a19f6	2	1	DL_test	13	DL_test	6			0		da	1	1180	6	4	antiphase_hc_sio.wav	1	6	5	noise_calib_stim_RIGHT.wav	2	14	blb_dichoticlistening_ga-da.mp3	ga	da	1	right
6.6.0	win	2023-06-02	03:51:19	0	0	6154973c69da7c97996a19f6	2	1	DL_test	13	DL_test	7			0		ka	1	1440	6	4	antiphase_hc_sio.wav	1	6	5	noise_calib_stim_RIGHT.wav	2	21	blb_dichoticlistening_ka-ga.mp3	ka	ga	1	left
6.6.0	win	2023-06-02	03:51:19	0	0	6154973c69da7c97996a19f6	2	1	DL_test	13	DL_test	8			0		ba	1	2678	6	4	antiphase_hc_sio.wav	1	6	5	noise_calib_stim_RIGHT.wav	2	3	blb_dichoticlistening_ba-ga.mp3	ba	ga	1	left
6.6.0	win	2023-06-02	03:51:19	0	0	6154973c69da7c97996a19f6	2	1	DL_test	13	DL_test	9			0		ka	1	1381	6	4	antiphase_hc_sio.wav	1	6	5	noise_calib_stim_RIGHT.wav	2	22	blb_dichoticlistening_ka-ka.mp3	ka	ka	0	left
6.6.0	win	2023-06-02	03:51:19	0	0	6154973c69da7c97996a19f6	2	1	DL_test	13	DL_test	10			0		ga	1	1017	6	4	antiphase_hc_sio.wav	1	6	5	noise_calib_stim_RIGHT.wav	2	9	blb_dichoticlistening_da-ga.mp3	da	ga	1	right
6.6.0	win	2023-06-02	03:51:19	0	0	6154973c69da7c97996a19f6	2	1	DL_test	13	DL_test	11			0		pa	1	1067	6	4	antiphase_hc_sio.wav	1	6	5	noise_calib_stim_RIGHT.wav	2	5	blb_dichoticlistening_ba-pa.mp3	ba	pa	1	right
6.6.0	win	2023-06-02	03:51:19	0	0	6154973c69da7c97996a19f6	2	1	DL_test	13	DL_test	12			0		ba	1	1666	6	4	antiphase_hc_sio.wav	1	6	5	noise_calib_stim_RIGHT.wav	2	13	blb_dichoticlistening_ga-ba.mp3	ga	ba	1	right
6.6.0	win	2023-06-02	03:51:19	0	0	6154973c69da7c97996a19f6	2	1	DL_test	13	DL_test	13			0		ka	1	2218	6	4	antiphase_hc_sio.wav	1	6	5	noise_calib_stim_RIGHT.wav	2	19	blb_dichoticlistening_ka-ba.mp3	ka	ba	1	left
6.6.0	win	2023-06-02	03:51:19	0	0	6154973c69da7c97996a19f6	2	1	DL_test	13	DL_test	14			0		ba	1	1487	6	4	antiphase_hc_sio.wav	1	6	5	noise_calib_stim_RIGHT.wav	2	1	blb_dichoticlistening_ba-ba.mp3	ba	ba	0	left
6.6.0	win	2023-06-02	03:51:19	0	0	6154973c69da7c97996a19f6	2	1	DL_test	13	DL_test	15			0		ta	1	1889	6	4	antiphase_hc_sio.wav	1	6	5	noise_calib_stim_RIGHT.wav	2	24	blb_dichoticlistening_ka-ta.mp3	ka	ta	1	right
6.6.0	win	2023-06-02	03:51:19	0	0	6154973c69da7c97996a19f6	2	1	DL_test	13	DL_test	16			0		ga	1	1139	6	4	antiphase_hc_sio.wav	1	6	5	noise_calib_stim_RIGHT.wav	2	15	blb_dichoticlistening_ga-ga.mp3	ga	ga	0	left
6.6.0	win	2023-06-02	03:51:19	0	0	6154973c69da7c97996a19f6	2	1	DL_test	13	DL_test	17			0		pa	1	1142	6	4	antiphase_hc_sio.wav	1	6	5	noise_calib_stim_RIGHT.wav	2	29	blb_dichoticlistening_pa-pa.mp3	pa	pa	0	left
6.6.0	win	2023-06-02	03:51:19	0	0	6154973c69da7c97996a19f6	2	1	DL_test	13	DL_test	18			0		ta	1	1320	6	4	antiphase_hc_sio.wav	1	6	5	noise_calib_stim_RIGHT.wav	2	30	blb_dichoticlistening_pa-ta.mp3	pa	ta	1	right
6.6.0	win	2023-06-02	03:51:19	0	0	6154973c69da7c97996a19f6	2	1	DL_test	13	DL_test	19			0		ka	1	1520	6	4	antiphase_hc_sio.wav	1	6	5	noise_calib_stim_RIGHT.wav	2	20	blb_dichoticlistening_ka-da.mp3	ka	da	1	left
6.6.0	win	2023-06-02	03:51:19	0	0	6154973c69da7c97996a19f6	2	1	DL_test	13	DL_test	20			0		ta	1	1546	6	4	antiphase_hc_sio.wav	1	6	5	noise_calib_stim_RIGHT.wav	2	36	blb_dichoticlistening_ta-ta.mp3	ta	ta	0	left
6.6.0	win	2023-06-02	03:51:19	0	0	6154973c69da7c97996a19f6	2	1	DL_test	13	DL_test	21			0		ta	1	970	6	4	antiphase_hc_sio.wav	1	6	5	noise_calib_stim_RIGHT.wav	2	6	blb_dichoticlistening_ba-ta.mp3	ba	ta	1	right
6.6.0	win	2023-06-02	03:51:19	0	0	6154973c69da7c97996a19f6	2	1	DL_test	13	DL_test	22			0		pa	1	1094	6	4	antiphase_hc_sio.wav	1	6	5	noise_calib_stim_RIGHT.wav	2	11	blb_dichoticlistening_da-pa.mp3	da	pa	1	right
6.6.0	win	2023-06-02	03:51:19	0	0	6154973c69da7c97996a19f6	2	1	DL_test	13	DL_test	23			0		pa	1	1905	6	4	antiphase_hc_sio.wav	1	6	5	noise_calib_stim_RIGHT.wav	2	27	blb_dichoticlistening_pa-ga.mp3	pa	ga	1	left
6.6.0	win	2023-06-02	03:51:19	0	0	6154973c69da7c97996a19f6	2	1	DL_test	13	DL_test	24			0		ka	0	2536	6	4	antiphase_hc_sio.wav	1	6	5	noise_calib_stim_RIGHT.wav	2	18	blb_dichoticlistening_ga-ta.mp3	ga	ta	1	other
6.6.0	win	2023-06-02	03:51:19	0	0	6154973c69da7c97996a19f6	2	1	DL_test	13	DL_test	25			0		ka	1	1037	6	4	antiphase_hc_sio.wav	1	6	5	noise_calib_stim_RIGHT.wav	2	16	blb_dichoticlistening_ga-ka.mp3	ga	ka	1	right
6.6.0	win	2023-06-02	03:51:19	0	0	6154973c69da7c97996a19f6	2	1	DL_test	13	DL_test	26			0		ka	1	1507	6	4	antiphase_hc_sio.wav	1	6	5	noise_calib_stim_RIGHT.wav	2	23	blb_dichoticlistening_ka-pa.mp3	ka	pa	1	left
6.6.0	win	2023-06-02	03:51:19	0	0	6154973c69da7c97996a19f6	2	1	DL_test	13	DL_test	27			0		ta	1	2200	6	4	antiphase_hc_sio.wav	1	6	5	noise_calib_stim_RIGHT.wav	2	32	blb_dichoticlistening_ta-da.mp3	ta	da	1	left
6.6.0	win	2023-06-02	03:51:19	0	0	6154973c69da7c97996a19f6	2	1	DL_test	13	DL_test	28			0		pa	1	978	6	4	antiphase_hc_sio.wav	1	6	5	noise_calib_stim_RIGHT.wav	2	25	blb_dichoticlistening_pa-ba.mp3	pa	ba	1	left
6.6.0	win	2023-06-02	03:51:19	0	0	6154973c69da7c97996a19f6	2	1	DL_test	13	DL_test	29			0		pa	0	834	6	4	antiphase_hc_sio.wav	1	6	5	noise_calib_stim_RIGHT.wav	2	10	blb_dichoticlistening_da-ka.mp3	da	ka	1	other
6.6.0	win	2023-06-02	03:51:19	0	0	6154973c69da7c97996a19f6	2	1	DL_test	13	DL_test	30			0		da	1	1760	6	4	antiphase_hc_sio.wav	1	6	5	noise_calib_stim_RIGHT.wav	2	2	blb_dichoticlistening_ba-da.mp3	ba	da	1	right
6.6.0	win	2023-06-02	03:51:19	0	0	6154973c69da7c97996a19f6	2	1	DL_test	13	DL_test	31			0		ka	1	1205	6	4	antiphase_hc_sio.wav	1	6	5	noise_calib_stim_RIGHT.wav	2	4	blb_dichoticlistening_ba-ka.mp3	ba	ka	1	right
6.6.0	win	2023-06-02	03:51:19	0	0	6154973c69da7c97996a19f6	2	1	DL_test	13	DL_test	32			0		ka	1	986	6	4	antiphase_hc_sio.wav	1	6	5	noise_calib_stim_RIGHT.wav	2	34	blb_dichoticlistening_ta-ka.mp3	ta	ka	1	right
6.6.0	win	2023-06-02	03:51:19	0	0	6154973c69da7c97996a19f6	2	1	DL_test	13	DL_test	33			0		da	1	1269	6	4	antiphase_hc_sio.wav	1	6	5	noise_calib_stim_RIGHT.wav	2	8	blb_dichoticlistening_da-da.mp3	da	da	0	left
6.6.0	win	2023-06-02	03:51:19	0	0	6154973c69da7c97996a19f6	2	1	DL_test	13	DL_test	34			0		ka	0	1263	6	4	antiphase_hc_sio.wav	1	6	5	noise_calib_stim_RIGHT.wav	2	33	blb_dichoticlistening_ta-ga.mp3	ta	ga	1	other
6.6.0	win	2023-06-02	03:51:19	0	0	6154973c69da7c97996a19f6	2	1	DL_test	13	DL_test	35			0		ka	1	1565	6	4	antiphase_hc_sio.wav	1	6	5	noise_calib_stim_RIGHT.wav	2	28	blb_dichoticlistening_pa-ka.mp3	pa	ka	1	right
6.6.0	win	2023-06-02	03:51:19	0	0	6154973c69da7c97996a19f6	2	1	DL_test	13	DL_test	36			0		ba	1	2545	6	4	antiphase_hc_sio.wav	1	6	5	noise_calib_stim_RIGHT.wav	2	31	blb_dichoticlistening_ta-ba.mp3	ta	ba	1	right
6.6.0	win	2023-06-02	03:51:19	0	0	6154973c69da7c97996a19f6	2	1	DL_test	14	DL_test	1			0		ga	1	1280	6	4	antiphase_hc_sio.wav	1	6	5	noise_calib_stim_RIGHT.wav	2	9	blb_dichoticlistening_da-ga.mp3	da	ga	1	right
6.6.0	win	2023-06-02	03:51:19	0	0	6154973c69da7c97996a19f6	2	1	DL_test	14	DL_test	2			0		ba	1	2057	6	4	antiphase_hc_sio.wav	1	6	5	noise_calib_stim_RIGHT.wav	2	13	blb_dichoticlistening_ga-ba.mp3	ga	ba	1	right
6.6.0	win	2023-06-02	03:51:19	0	0	6154973c69da7c97996a19f6	2	1	DL_test	14	DL_test	3			0		pa	0	1074	6	4	antiphase_hc_sio.wav	1	6	5	noise_calib_stim_RIGHT.wav	2	10	blb_dichoticlistening_da-ka.mp3	da	ka	1	other
6.6.0	win	2023-06-02	03:51:19	0	0	6154973c69da7c97996a19f6	2	1	DL_test	14	DL_test	4			0		pa	1	860	6	4	antiphase_hc_sio.wav	1	6	5	noise_calib_stim_RIGHT.wav	2	26	blb_dichoticlistening_pa-da.mp3	pa	da	1	left
6.6.0	win	2023-06-02	03:51:19	0	0	6154973c69da7c97996a19f6	2	1	DL_test	14	DL_test	5			0		ta	1	1638	6	4	antiphase_hc_sio.wav	1	6	5	noise_calib_stim_RIGHT.wav	2	31	blb_dichoticlistening_ta-ba.mp3	ta	ba	1	left
6.6.0	win	2023-06-02	03:51:19	0	0	6154973c69da7c97996a19f6	2	1	DL_test	14	DL_test	6			0		ka	1	1330	6	4	antiphase_hc_sio.wav	1	6	5	noise_calib_stim_RIGHT.wav	2	34	blb_dichoticlistening_ta-ka.mp3	ta	ka	1	right
6.6.0	win	2023-06-02	03:51:19	0	0	6154973c69da7c97996a19f6	2	1	DL_test	14	DL_test	7			0		ta	1	1224	6	4	antiphase_hc_sio.wav	1	6	5	noise_calib_stim_RIGHT.wav	2	12	blb_dichoticlistening_da-ta.mp3	da	ta	1	right
6.6.0	win	2023-06-02	03:51:19	0	0	6154973c69da7c97996a19f6	2	1	DL_test	14	DL_test	8			0		ka	1	913	6	4	antiphase_hc_sio.wav	1	6	5	noise_calib_stim_RIGHT.wav	2	22	blb_dichoticlistening_ka-ka.mp3	ka	ka	0	left
6.6.0	win	2023-06-02	03:51:19	0	0	6154973c69da7c97996a19f6	2	1	DL_test	14	DL_test	9			0		ba	1	2497	6	4	antiphase_hc_sio.wav	1	6	5	noise_calib_stim_RIGHT.wav	2	2	blb_dichoticlistening_ba-da.mp3	ba	da	1	left
6.6.0	win	2023-06-02	03:51:19	0	0	6154973c69da7c97996a19f6	2	1	DL_test	14	DL_test	10			0		ka	1	1329	6	4	antiphase_hc_sio.wav	1	6	5	noise_calib_stim_RIGHT.wav	2	19	blb_dichoticlistening_ka-ba.mp3	ka	ba	1	left
6.6.0	win	2023-06-02	03:51:19	0	0	6154973c69da7c97996a19f6	2	1	DL_test	14	DL_test	11			0		pa	1	1034	6	4	antiphase_hc_sio.wav	1	6	5	noise_calib_stim_RIGHT.wav	2	5	blb_dichoticlistening_ba-pa.mp3	ba	pa	1	right
6.6.0	win	2023-06-02	03:51:19	0	0	6154973c69da7c97996a19f6	2	1	DL_test	14	DL_test	12			0		ka	1	891	6	4	antiphase_hc_sio.wav	1	6	5	noise_calib_stim_RIGHT.wav	2	16	blb_dichoticlistening_ga-ka.mp3	ga	ka	1	right
6.6.0	win	2023-06-02	03:51:19	0	0	6154973c69da7c97996a19f6	2	1	DL_test	14	DL_test	13			0		da	1	909	6	4	antiphase_hc_sio.wav	1	6	5	noise_calib_stim_RIGHT.wav	2	8	blb_dichoticlistening_da-da.mp3	da	da	0	left
6.6.0	win	2023-06-02	03:51:19	0	0	6154973c69da7c97996a19f6	2	1	DL_test	14	DL_test	14			0		pa	1	1077	6	4	antiphase_hc_sio.wav	1	6	5	noise_calib_stim_RIGHT.wav	2	17	blb_dichoticlistening_ga-pa.mp3	ga	pa	1	right
6.6.0	win	2023-06-02	03:51:19	0	0	6154973c69da7c97996a19f6	2	1	DL_test	14	DL_test	15			0		pa	0	2147	6	4	antiphase_hc_sio.wav	1	6	5	noise_calib_stim_RIGHT.wav	2	6	blb_dichoticlistening_ba-ta.mp3	ba	ta	1	other
6.6.0	win	2023-06-02	03:51:19	0	0	6154973c69da7c97996a19f6	2	1	DL_test	14	DL_test	16			0		ka	0	880	6	4	antiphase_hc_sio.wav	1	6	5	noise_calib_stim_RIGHT.wav	2	33	blb_dichoticlistening_ta-ga.mp3	ta	ga	1	other
6.6.0	win	2023-06-02	03:51:19	0	0	6154973c69da7c97996a19f6	2	1	DL_test	14	DL_test	17			0		ta	1	966	6	4	antiphase_hc_sio.wav	1	6	5	noise_calib_stim_RIGHT.wav	2	36	blb_dichoticlistening_ta-ta.mp3	ta	ta	0	left
6.6.0	win	2023-06-02	03:51:19	0	0	6154973c69da7c97996a19f6	2	1	DL_test	14	DL_test	18			0		ba	0	2783	6	4	antiphase_hc_sio.wav	1	6	5	noise_calib_stim_RIGHT.wav	2	30	blb_dichoticlistening_pa-ta.mp3	pa	ta	1	other
6.6.0	win	2023-06-02	03:51:19	0	0	6154973c69da7c97996a19f6	2	1	DL_test	14	DL_test	19			0		ka	1	1073	6	4	antiphase_hc_sio.wav	1	6	5	noise_calib_stim_RIGHT.wav	2	24	blb_dichoticlistening_ka-ta.mp3	ka	ta	1	left
6.6.0	win	2023-06-02	03:51:19	0	0	6154973c69da7c97996a19f6	2	1	DL_test	14	DL_test	20			0		ba	1	1297	6	4	antiphase_hc_sio.wav	1	6	5	noise_calib_stim_RIGHT.wav	2	7	blb_dichoticlistening_da-ba.mp3	da	ba	1	right
6.6.0	win	2023-06-02	03:51:19	0	0	6154973c69da7c97996a19f6	2	1	DL_test	14	DL_test	21			0		ba	0	2366	6	4	antiphase_hc_sio.wav	1	6	5	noise_calib_stim_RIGHT.wav	2	18	blb_dichoticlistening_ga-ta.mp3	ga	ta	1	other
6.6.0	win	2023-06-02	03:51:19	0	0	6154973c69da7c97996a19f6	2	1	DL_test	14	DL_test	22			0		pa	1	1272	6	4	antiphase_hc_sio.wav	1	6	5	noise_calib_stim_RIGHT.wav	2	35	blb_dichoticlistening_ta-pa.mp3	ta	pa	1	right
6.6.0	win	2023-06-02	03:51:19	0	0	6154973c69da7c97996a19f6	2	1	DL_test	14	DL_test	23			0		ba	1	1662	6	4	antiphase_hc_sio.wav	1	6	5	noise_calib_stim_RIGHT.wav	2	3	blb_dichoticlistening_ba-ga.mp3	ba	ga	1	left
6.6.0	win	2023-06-02	03:51:19	0	0	6154973c69da7c97996a19f6	2	1	DL_test	14	DL_test	24			0		pa	1	1990	6	4	antiphase_hc_sio.wav	1	6	5	noise_calib_stim_RIGHT.wav	2	11	blb_dichoticlistening_da-pa.mp3	da	pa	1	right
6.6.0	win	2023-06-02	03:51:19	0	0	6154973c69da7c97996a19f6	2	1	DL_test	14	DL_test	25			0		ta	1	1098	6	4	antiphase_hc_sio.wav	1	6	5	noise_calib_stim_RIGHT.wav	2	32	blb_dichoticlistening_ta-da.mp3	ta	da	1	left
6.6.0	win	2023-06-02	03:51:19	0	0	6154973c69da7c97996a19f6	2	1	DL_test	14	DL_test	26			0		ka	1	1419	6	4	antiphase_hc_sio.wav	1	6	5	noise_calib_stim_RIGHT.wav	2	28	blb_dichoticlistening_pa-ka.mp3	pa	ka	1	right
6.6.0	win	2023-06-02	03:51:19	0	0	6154973c69da7c97996a19f6	2	1	DL_test	14	DL_test	27			0		ba	1	1180	6	4	antiphase_hc_sio.wav	1	6	5	noise_calib_stim_RIGHT.wav	2	1	blb_dichoticlistening_ba-ba.mp3	ba	ba	0	left
6.6.0	win	2023-06-02	03:51:19	0	0	6154973c69da7c97996a19f6	2	1	DL_test	14	DL_test	28			0		ga	1	1095	6	4	antiphase_hc_sio.wav	1	6	5	noise_calib_stim_RIGHT.wav	2	14	blb_dichoticlistening_ga-da.mp3	ga	da	1	left
6.6.0	win	2023-06-02	03:51:19	0	0	6154973c69da7c97996a19f6	2	1	DL_test	14	DL_test	29			0		pa	1	1235	6	4	antiphase_hc_sio.wav	1	6	5	noise_calib_stim_RIGHT.wav	2	29	blb_dichoticlistening_pa-pa.mp3	pa	pa	0	left
6.6.0	win	2023-06-02	03:51:19	0	0	6154973c69da7c97996a19f6	2	1	DL_test	14	DL_test	30			0		ka	1	1096	6	4	antiphase_hc_sio.wav	1	6	5	noise_calib_stim_RIGHT.wav	2	23	blb_dichoticlistening_ka-pa.mp3	ka	pa	1	left
6.6.0	win	2023-06-02	03:51:19	0	0	6154973c69da7c97996a19f6	2	1	DL_test	14	DL_test	31			0		ga	1	1359	6	4	antiphase_hc_sio.wav	1	6	5	noise_calib_stim_RIGHT.wav	2	21	blb_dichoticlistening_ka-ga.mp3	ka	ga	1	right
6.6.0	win	2023-06-02	03:51:19	0	0	6154973c69da7c97996a19f6	2	1	DL_test	14	DL_test	32			0		pa	1	1785	6	4	antiphase_hc_sio.wav	1	6	5	noise_calib_stim_RIGHT.wav	2	25	blb_dichoticlistening_pa-ba.mp3	pa	ba	1	left
6.6.0	win	2023-06-02	03:51:19	0	0	6154973c69da7c97996a19f6	2	1	DL_test	14	DL_test	33			0		ka	1	1143	6	4	antiphase_hc_sio.wav	1	6	5	noise_calib_stim_RIGHT.wav	2	4	blb_dichoticlistening_ba-ka.mp3	ba	ka	1	right
6.6.0	win	2023-06-02	03:51:19	0	0	6154973c69da7c97996a19f6	2	1	DL_test	14	DL_test	34			0		pa	1	2032	6	4	antiphase_hc_sio.wav	1	6	5	noise_calib_stim_RIGHT.wav	2	27	blb_dichoticlistening_pa-ga.mp3	pa	ga	1	left
6.6.0	win	2023-06-02	03:51:19	0	0	6154973c69da7c97996a19f6	2	1	DL_test	14	DL_test	35			0		ka	1	1275	6	4	antiphase_hc_sio.wav	1	6	5	noise_calib_stim_RIGHT.wav	2	20	blb_dichoticlistening_ka-da.mp3	ka	da	1	left
6.6.0	win	2023-06-02	03:51:19	0	0	6154973c69da7c97996a19f6	2	1	DL_test	14	DL_test	36			0		ga	1	1060	6	4	antiphase_hc_sio.wav	1	6	5	noise_calib_stim_RIGHT.wav	2	15	blb_dichoticlistening_ga-ga.mp3	ga	ga	0	left
6.6.0	win	2023-06-02	03:51:19	0	0	6154973c69da7c97996a19f6	2	1	DL_test	15	DL_test	1			0		pa	1	1265	6	4	antiphase_hc_sio.wav	1	6	5	noise_calib_stim_RIGHT.wav	2	35	blb_dichoticlistening_ta-pa.mp3	ta	pa	1	right
6.6.0	win	2023-06-02	03:51:19	0	0	6154973c69da7c97996a19f6	2	1	DL_test	15	DL_test	2			0		pa	1	918	6	4	antiphase_hc_sio.wav	1	6	5	noise_calib_stim_RIGHT.wav	2	29	blb_dichoticlistening_pa-pa.mp3	pa	pa	0	left
6.6.0	win	2023-06-02	03:51:19	0	0	6154973c69da7c97996a19f6	2	1	DL_test	15	DL_test	3			0		ga	1	930	6	4	antiphase_hc_sio.wav	1	6	5	noise_calib_stim_RIGHT.wav	2	15	blb_dichoticlistening_ga-ga.mp3	ga	ga	0	left
6.6.0	win	2023-06-02	03:51:19	0	0	6154973c69da7c97996a19f6	2	1	DL_test	15	DL_test	4			0		da	1	1150	6	4	antiphase_hc_sio.wav	1	6	5	noise_calib_stim_RIGHT.wav	2	9	blb_dichoticlistening_da-ga.mp3	da	ga	1	left
6.6.0	win	2023-06-02	03:51:19	0	0	6154973c69da7c97996a19f6	2	1	DL_test	15	DL_test	5			0		da	1	700	6	4	antiphase_hc_sio.wav	1	6	5	noise_calib_stim_RIGHT.wav	2	8	blb_dichoticlistening_da-da.mp3	da	da	0	left
6.6.0	win	2023-06-02	03:51:19	0	0	6154973c69da7c97996a19f6	2	1	DL_test	15	DL_test	6			0		ka	1	887	6	4	antiphase_hc_sio.wav	1	6	5	noise_calib_stim_RIGHT.wav	2	24	blb_dichoticlistening_ka-ta.mp3	ka	ta	1	left
6.6.0	win	2023-06-02	03:51:19	0	0	6154973c69da7c97996a19f6	2	1	DL_test	15	DL_test	7			0		ta	1	1367	6	4	antiphase_hc_sio.wav	1	6	5	noise_calib_stim_RIGHT.wav	2	6	blb_dichoticlistening_ba-ta.mp3	ba	ta	1	right
6.6.0	win	2023-06-02	03:51:19	0	0	6154973c69da7c97996a19f6	2	1	DL_test	15	DL_test	8			0		pa	1	2859	6	4	antiphase_hc_sio.wav	1	6	5	noise_calib_stim_RIGHT.wav	2	27	blb_dichoticlistening_pa-ga.mp3	pa	ga	1	left
6.6.0	win	2023-06-02	03:51:19	0	0	6154973c69da7c97996a19f6	2	1	DL_test	15	DL_test	9			0		ka	1	3722	6	4	antiphase_hc_sio.wav	1	6	5	noise_calib_stim_RIGHT.wav	2	23	blb_dichoticlistening_ka-pa.mp3	ka	pa	1	left
6.6.0	win	2023-06-02	03:51:19	0	0	6154973c69da7c97996a19f6	2	1	DL_test	15	DL_test	10			0		pa	1	2019	6	4	antiphase_hc_sio.wav	1	6	5	noise_calib_stim_RIGHT.wav	2	30	blb_dichoticlistening_pa-ta.mp3	pa	ta	1	left
6.6.0	win	2023-06-02	03:51:19	0	0	6154973c69da7c97996a19f6	2	1	DL_test	15	DL_test	11			0		da	1	1902	6	4	antiphase_hc_sio.wav	1	6	5	noise_calib_stim_RIGHT.wav	2	7	blb_dichoticlistening_da-ba.mp3	da	ba	1	left
6.6.0	win	2023-06-02	03:51:19	0	0	6154973c69da7c97996a19f6	2	1	DL_test	15	DL_test	12			0		ga	1	1729	6	4	antiphase_hc_sio.wav	1	6	5	noise_calib_stim_RIGHT.wav	2	33	blb_dichoticlistening_ta-ga.mp3	ta	ga	1	right
6.6.0	win	2023-06-02	03:51:19	0	0	6154973c69da7c97996a19f6	2	1	DL_test	15	DL_test	13			0		pa	1	1088	6	4	antiphase_hc_sio.wav	1	6	5	noise_calib_stim_RIGHT.wav	2	11	blb_dichoticlistening_da-pa.mp3	da	pa	1	right
6.6.0	win	2023-06-02	03:51:19	0	0	6154973c69da7c97996a19f6	2	1	DL_test	15	DL_test	14			0		ta	1	1212	6	4	antiphase_hc_sio.wav	1	6	5	noise_calib_stim_RIGHT.wav	2	12	blb_dichoticlistening_da-ta.mp3	da	ta	1	right
6.6.0	win	2023-06-02	03:51:19	0	0	6154973c69da7c97996a19f6	2	1	DL_test	15	DL_test	15			0		ka	1	1703	6	4	antiphase_hc_sio.wav	1	6	5	noise_calib_stim_RIGHT.wav	2	28	blb_dichoticlistening_pa-ka.mp3	pa	ka	1	right
6.6.0	win	2023-06-02	03:51:19	0	0	6154973c69da7c97996a19f6	2	1	DL_test	15	DL_test	16			0		pa	0	3224	6	4	antiphase_hc_sio.wav	1	6	5	noise_calib_stim_RIGHT.wav	2	31	blb_dichoticlistening_ta-ba.mp3	ta	ba	1	other
6.6.0	win	2023-06-02	03:51:19	0	0	6154973c69da7c97996a19f6	2	1	DL_test	15	DL_test	17			0		pa	1	1309	6	4	antiphase_hc_sio.wav	1	6	5	noise_calib_stim_RIGHT.wav	2	26	blb_dichoticlistening_pa-da.mp3	pa	da	1	left
6.6.0	win	2023-06-02	03:51:19	0	0	6154973c69da7c97996a19f6	2	1	DL_test	15	DL_test	18			0		ka	1	1215	6	4	antiphase_hc_sio.wav	1	6	5	noise_calib_stim_RIGHT.wav	2	19	blb_dichoticlistening_ka-ba.mp3	ka	ba	1	left
6.6.0	win	2023-06-02	03:51:19	0	0	6154973c69da7c97996a19f6	2	1	DL_test	15	DL_test	19			0		ka	1	1182	6	4	antiphase_hc_sio.wav	1	6	5	noise_calib_stim_RIGHT.wav	2	34	blb_dichoticlistening_ta-ka.mp3	ta	ka	1	right
6.6.0	win	2023-06-02	03:51:19	0	0	6154973c69da7c97996a19f6	2	1	DL_test	15	DL_test	20			0		pa	1	1432	6	4	antiphase_hc_sio.wav	1	6	5	noise_calib_stim_RIGHT.wav	2	25	blb_dichoticlistening_pa-ba.mp3	pa	ba	1	left
6.6.0	win	2023-06-02	03:51:19	0	0	6154973c69da7c97996a19f6	2	1	DL_test	15	DL_test	21			0		da	1	1371	6	4	antiphase_hc_sio.wav	1	6	5	noise_calib_stim_RIGHT.wav	2	2	blb_dichoticlistening_ba-da.mp3	ba	da	1	right
6.6.0	win	2023-06-02	03:51:19	0	0	6154973c69da7c97996a19f6	2	1	DL_test	15	DL_test	22			0		ka	1	1361	6	4	antiphase_hc_sio.wav	1	6	5	noise_calib_stim_RIGHT.wav	2	22	blb_dichoticlistening_ka-ka.mp3	ka	ka	0	left
6.6.0	win	2023-06-02	03:51:19	0	0	6154973c69da7c97996a19f6	2	1	DL_test	15	DL_test	23			0		ka	1	864	6	4	antiphase_hc_sio.wav	1	6	5	noise_calib_stim_RIGHT.wav	2	16	blb_dichoticlistening_ga-ka.mp3	ga	ka	1	right
6.6.0	win	2023-06-02	03:51:19	0	0	6154973c69da7c97996a19f6	2	1	DL_test	15	DL_test	24			0		ka	1	1447	6	4	antiphase_hc_sio.wav	1	6	5	noise_calib_stim_RIGHT.wav	2	21	blb_dichoticlistening_ka-ga.mp3	ka	ga	1	left
6.6.0	win	2023-06-02	03:51:19	0	0	6154973c69da7c97996a19f6	2	1	DL_test	15	DL_test	25			0		ta	1	1278	6	4	antiphase_hc_sio.wav	1	6	5	noise_calib_stim_RIGHT.wav	2	36	blb_dichoticlistening_ta-ta.mp3	ta	ta	0	left
6.6.0	win	2023-06-02	03:51:19	0	0	6154973c69da7c97996a19f6	2	1	DL_test	15	DL_test	26			0		pa	0	1026	6	4	antiphase_hc_sio.wav	1	6	5	noise_calib_stim_RIGHT.wav	2	10	blb_dichoticlistening_da-ka.mp3	da	ka	1	other
6.6.0	win	2023-06-02	03:51:19	0	0	6154973c69da7c97996a19f6	2	1	DL_test	15	DL_test	27			0		ba	1	1902	6	4	antiphase_hc_sio.wav	1	6	5	noise_calib_stim_RIGHT.wav	2	13	blb_dichoticlistening_ga-ba.mp3	ga	ba	1	right
6.6.0	win	2023-06-02	03:51:19	0	0	6154973c69da7c97996a19f6	2	1	DL_test	15	DL_test	28			0		ka	1	1779	6	4	antiphase_hc_sio.wav	1	6	5	noise_calib_stim_RIGHT.wav	2	20	blb_dichoticlistening_ka-da.mp3	ka	da	1	left
6.6.0	win	2023-06-02	03:51:19	0	0	6154973c69da7c97996a19f6	2	1	DL_test	15	DL_test	29			0		ta	1	1487	6	4	antiphase_hc_sio.wav	1	6	5	noise_calib_stim_RIGHT.wav	2	18	blb_dichoticlistening_ga-ta.mp3	ga	ta	1	right
6.6.0	win	2023-06-02	03:51:19	0	0	6154973c69da7c97996a19f6	2	1	DL_test	15	DL_test	30			0		pa	1	1093	6	4	antiphase_hc_sio.wav	1	6	5	noise_calib_stim_RIGHT.wav	2	5	blb_dichoticlistening_ba-pa.mp3	ba	pa	1	right
6.6.0	win	2023-06-02	03:51:19	0	0	6154973c69da7c97996a19f6	2	1	DL_test	15	DL_test	31			0		da	1	1856	6	4	antiphase_hc_sio.wav	1	6	5	noise_calib_stim_RIGHT.wav	2	14	blb_dichoticlistening_ga-da.mp3	ga	da	1	right
6.6.0	win	2023-06-02	03:51:19	0	0	6154973c69da7c97996a19f6	2	1	DL_test	15	DL_test	32			0		ta	1	1233	6	4	antiphase_hc_sio.wav	1	6	5	noise_calib_stim_RIGHT.wav	2	32	blb_dichoticlistening_ta-da.mp3	ta	da	1	left
6.6.0	win	2023-06-02	03:51:19	0	0	6154973c69da7c97996a19f6	2	1	DL_test	15	DL_test	33			0		ba	1	1162	6	4	antiphase_hc_sio.wav	1	6	5	noise_calib_stim_RIGHT.wav	2	1	blb_dichoticlistening_ba-ba.mp3	ba	ba	0	left
6.6.0	win	2023-06-02	03:51:19	0	0	6154973c69da7c97996a19f6	2	1	DL_test	15	DL_test	34			0		ba	1	1837	6	4	antiphase_hc_sio.wav	1	6	5	noise_calib_stim_RIGHT.wav	2	4	blb_dichoticlistening_ba-ka.mp3	ba	ka	1	left
6.6.0	win	2023-06-02	03:51:19	0	0	6154973c69da7c97996a19f6	2	1	DL_test	15	DL_test	35			0		pa	1	1230	6	4	antiphase_hc_sio.wav	1	6	5	noise_calib_stim_RIGHT.wav	2	17	blb_dichoticlistening_ga-pa.mp3	ga	pa	1	right
6.6.0	win	2023-06-02	03:51:19	0	0	6154973c69da7c97996a19f6	2	1	DL_test	15	DL_test	36			0		ba	1	3613	6	4	antiphase_hc_sio.wav	1	6	5	noise_calib_stim_RIGHT.wav	2	3	blb_dichoticlistening_ba-ga.mp3	ba	ga	1	left
6.6.0	win	2023-06-02	03:51:19	0	0	6154973c69da7c97996a19f6	2	1	DL_test	16	DL_test	1			0		pa	1	1447	6	4	antiphase_hc_sio.wav	1	6	5	noise_calib_stim_RIGHT.wav	2	29	blb_dichoticlistening_pa-pa.mp3	pa	pa	0	left
6.6.0	win	2023-06-02	03:51:19	0	0	6154973c69da7c97996a19f6	2	1	DL_test	16	DL_test	2			0		da	1	1175	6	4	antiphase_hc_sio.wav	1	6	5	noise_calib_stim_RIGHT.wav	2	2	blb_dichoticlistening_ba-da.mp3	ba	da	1	right
6.6.0	win	2023-06-02	03:51:19	0	0	6154973c69da7c97996a19f6	2	1	DL_test	16	DL_test	3			0		ta	1	1821	6	4	antiphase_hc_sio.wav	1	6	5	noise_calib_stim_RIGHT.wav	2	35	blb_dichoticlistening_ta-pa.mp3	ta	pa	1	left
6.6.0	win	2023-06-02	03:51:19	0	0	6154973c69da7c97996a19f6	2	1	DL_test	16	DL_test	4			0		da	1	1095	6	4	antiphase_hc_sio.wav	1	6	5	noise_calib_stim_RIGHT.wav	2	7	blb_dichoticlistening_da-ba.mp3	da	ba	1	left
6.6.0	win	2023-06-02	03:51:19	0	0	6154973c69da7c97996a19f6	2	1	DL_test	16	DL_test	5			0		ka	1	791	6	4	antiphase_hc_sio.wav	1	6	5	noise_calib_stim_RIGHT.wav	2	22	blb_dichoticlistening_ka-ka.mp3	ka	ka	0	left
6.6.0	win	2023-06-02	03:51:19	0	0	6154973c69da7c97996a19f6	2	1	DL_test	16	DL_test	6			0		ba	1	1355	6	4	antiphase_hc_sio.wav	1	6	5	noise_calib_stim_RIGHT.wav	2	13	blb_dichoticlistening_ga-ba.mp3	ga	ba	1	right
6.6.0	win	2023-06-02	03:51:19	0	0	6154973c69da7c97996a19f6	2	1	DL_test	16	DL_test	7			0		ka	1	947	6	4	antiphase_hc_sio.wav	1	6	5	noise_calib_stim_RIGHT.wav	2	16	blb_dichoticlistening_ga-ka.mp3	ga	ka	1	right
6.6.0	win	2023-06-02	03:51:19	0	0	6154973c69da7c97996a19f6	2	1	DL_test	16	DL_test	8			0		ba	1	881	6	4	antiphase_hc_sio.wav	1	6	5	noise_calib_stim_RIGHT.wav	2	1	blb_dichoticlistening_ba-ba.mp3	ba	ba	0	left
6.6.0	win	2023-06-02	03:51:19	0	0	6154973c69da7c97996a19f6	2	1	DL_test	16	DL_test	9			0		pa	1	1075	6	4	antiphase_hc_sio.wav	1	6	5	noise_calib_stim_RIGHT.wav	2	26	blb_dichoticlistening_pa-da.mp3	pa	da	1	left
6.6.0	win	2023-06-02	03:51:19	0	0	6154973c69da7c97996a19f6	2	1	DL_test	16	DL_test	10			0		ta	1	980	6	4	antiphase_hc_sio.wav	1	6	5	noise_calib_stim_RIGHT.wav	2	6	blb_dichoticlistening_ba-ta.mp3	ba	ta	1	right
6.6.0	win	2023-06-02	03:51:19	0	0	6154973c69da7c97996a19f6	2	1	DL_test	16	DL_test	11			0		ta	1	819	6	4	antiphase_hc_sio.wav	1	6	5	noise_calib_stim_RIGHT.wav	2	36	blb_dichoticlistening_ta-ta.mp3	ta	ta	0	left
6.6.0	win	2023-06-02	03:51:19	0	0	6154973c69da7c97996a19f6	2	1	DL_test	16	DL_test	12			0		ga	1	1103	6	4	antiphase_hc_sio.wav	1	6	5	noise_calib_stim_RIGHT.wav	2	3	blb_dichoticlistening_ba-ga.mp3	ba	ga	1	right
6.6.0	win	2023-06-02	03:51:19	0	0	6154973c69da7c97996a19f6	2	1	DL_test	16	DL_test	13			0		ta	1	1150	6	4	antiphase_hc_sio.wav	1	6	5	noise_calib_stim_RIGHT.wav	2	12	blb_dichoticlistening_da-ta.mp3	da	ta	1	right
6.6.0	win	2023-06-02	03:51:19	0	0	6154973c69da7c97996a19f6	2	1	DL_test	16	DL_test	14			0		ta	1	1102	6	4	antiphase_hc_sio.wav	1	6	5	noise_calib_stim_RIGHT.wav	2	32	blb_dichoticlistening_ta-da.mp3	ta	da	1	left
6.6.0	win	2023-06-02	03:51:19	0	0	6154973c69da7c97996a19f6	2	1	DL_test	16	DL_test	15			0		ka	0	1047	6	4	antiphase_hc_sio.wav	1	6	5	noise_calib_stim_RIGHT.wav	2	18	blb_dichoticlistening_ga-ta.mp3	ga	ta	1	other
6.6.0	win	2023-06-02	03:51:19	0	0	6154973c69da7c97996a19f6	2	1	DL_test	16	DL_test	16			0		ka	1	869	6	4	antiphase_hc_sio.wav	1	6	5	noise_calib_stim_RIGHT.wav	2	24	blb_dichoticlistening_ka-ta.mp3	ka	ta	1	left
6.6.0	win	2023-06-02	03:51:19	0	0	6154973c69da7c97996a19f6	2	1	DL_test	16	DL_test	17			0		ka	1	941	6	4	antiphase_hc_sio.wav	1	6	5	noise_calib_stim_RIGHT.wav	2	21	blb_dichoticlistening_ka-ga.mp3	ka	ga	1	left
6.6.0	win	2023-06-02	03:51:19	0	0	6154973c69da7c97996a19f6	2	1	DL_test	16	DL_test	18			0		ga	1	719	6	4	antiphase_hc_sio.wav	1	6	5	noise_calib_stim_RIGHT.wav	2	15	blb_dichoticlistening_ga-ga.mp3	ga	ga	0	left
6.6.0	win	2023-06-02	03:51:19	0	0	6154973c69da7c97996a19f6	2	1	DL_test	16	DL_test	19			0		ka	1	771	6	4	antiphase_hc_sio.wav	1	6	5	noise_calib_stim_RIGHT.wav	2	4	blb_dichoticlistening_ba-ka.mp3	ba	ka	1	right
6.6.0	win	2023-06-02	03:51:19	0	0	6154973c69da7c97996a19f6	2	1	DL_test	16	DL_test	20			0		ga	1	913	6	4	antiphase_hc_sio.wav	1	6	5	noise_calib_stim_RIGHT.wav	2	14	blb_dichoticlistening_ga-da.mp3	ga	da	1	left
6.6.0	win	2023-06-02	03:51:19	0	0	6154973c69da7c97996a19f6	2	1	DL_test	16	DL_test	21			0		pa	1	928	6	4	antiphase_hc_sio.wav	1	6	5	noise_calib_stim_RIGHT.wav	2	5	blb_dichoticlistening_ba-pa.mp3	ba	pa	1	right
6.6.0	win	2023-06-02	03:51:19	0	0	6154973c69da7c97996a19f6	2	1	DL_test	16	DL_test	22			0		pa	0	827	6	4	antiphase_hc_sio.wav	1	6	5	noise_calib_stim_RIGHT.wav	2	10	blb_dichoticlistening_da-ka.mp3	da	ka	1	other
6.6.0	win	2023-06-02	03:51:19	0	0	6154973c69da7c97996a19f6	2	1	DL_test	16	DL_test	23			0		ka	1	1426	6	4	antiphase_hc_sio.wav	1	6	5	noise_calib_stim_RIGHT.wav	2	20	blb_dichoticlistening_ka-da.mp3	ka	da	1	left
6.6.0	win	2023-06-02	03:51:19	0	0	6154973c69da7c97996a19f6	2	1	DL_test	16	DL_test	24			0		da	1	893	6	4	antiphase_hc_sio.wav	1	6	5	noise_calib_stim_RIGHT.wav	2	8	blb_dichoticlistening_da-da.mp3	da	da	0	left
6.6.0	win	2023-06-02	03:51:19	0	0	6154973c69da7c97996a19f6	2	1	DL_test	16	DL_test	25			0		pa	1	1360	6	4	antiphase_hc_sio.wav	1	6	5	noise_calib_stim_RIGHT.wav	2	30	blb_dichoticlistening_pa-ta.mp3	pa	ta	1	left
6.6.0	win	2023-06-02	03:51:19	0	0	6154973c69da7c97996a19f6	2	1	DL_test	16	DL_test	26			0		ka	1	1016	6	4	antiphase_hc_sio.wav	1	6	5	noise_calib_stim_RIGHT.wav	2	28	blb_dichoticlistening_pa-ka.mp3	pa	ka	1	right
6.6.0	win	2023-06-02	03:51:19	0	0	6154973c69da7c97996a19f6	2	1	DL_test	16	DL_test	27			0		ba	1	1980	6	4	antiphase_hc_sio.wav	1	6	5	noise_calib_stim_RIGHT.wav	2	31	blb_dichoticlistening_ta-ba.mp3	ta	ba	1	right
6.6.0	win	2023-06-02	03:51:19	0	0	6154973c69da7c97996a19f6	2	1	DL_test	16	DL_test	28			0		pa	1	1330	6	4	antiphase_hc_sio.wav	1	6	5	noise_calib_stim_RIGHT.wav	2	25	blb_dichoticlistening_pa-ba.mp3	pa	ba	1	left
6.6.0	win	2023-06-02	03:51:19	0	0	6154973c69da7c97996a19f6	2	1	DL_test	16	DL_test	29			0		pa	1	1043	6	4	antiphase_hc_sio.wav	1	6	5	noise_calib_stim_RIGHT.wav	2	11	blb_dichoticlistening_da-pa.mp3	da	pa	1	right
6.6.0	win	2023-06-02	03:51:19	0	0	6154973c69da7c97996a19f6	2	1	DL_test	16	DL_test	30			0		ka	1	783	6	4	antiphase_hc_sio.wav	1	6	5	noise_calib_stim_RIGHT.wav	2	34	blb_dichoticlistening_ta-ka.mp3	ta	ka	1	right
6.6.0	win	2023-06-02	03:51:19	0	0	6154973c69da7c97996a19f6	2	1	DL_test	16	DL_test	31			0		ga	1	901	6	4	antiphase_hc_sio.wav	1	6	5	noise_calib_stim_RIGHT.wav	2	9	blb_dichoticlistening_da-ga.mp3	da	ga	1	right
6.6.0	win	2023-06-02	03:51:19	0	0	6154973c69da7c97996a19f6	2	1	DL_test	16	DL_test	32			0		pa	1	1305	6	4	antiphase_hc_sio.wav	1	6	5	noise_calib_stim_RIGHT.wav	2	17	blb_dichoticlistening_ga-pa.mp3	ga	pa	1	right
6.6.0	win	2023-06-02	03:51:19	0	0	6154973c69da7c97996a19f6	2	1	DL_test	16	DL_test	33			0		ka	1	1233	6	4	antiphase_hc_sio.wav	1	6	5	noise_calib_stim_RIGHT.wav	2	19	blb_dichoticlistening_ka-ba.mp3	ka	ba	1	left
6.6.0	win	2023-06-02	03:51:19	0	0	6154973c69da7c97996a19f6	2	1	DL_test	16	DL_test	34			0		ga	1	1024	6	4	antiphase_hc_sio.wav	1	6	5	noise_calib_stim_RIGHT.wav	2	33	blb_dichoticlistening_ta-ga.mp3	ta	ga	1	right
6.6.0	win	2023-06-02	03:51:19	0	0	6154973c69da7c97996a19f6	2	1	DL_test	16	DL_test	35			0		ka	1	3164	6	4	antiphase_hc_sio.wav	1	6	5	noise_calib_stim_RIGHT.wav	2	23	blb_dichoticlistening_ka-pa.mp3	ka	pa	1	left
6.6.0	win	2023-06-02	03:51:19	0	0	6154973c69da7c97996a19f6	2	1	DL_test	16	DL_test	36			0		pa	1	1331	6	4	antiphase_hc_sio.wav	1	6	5	noise_calib_stim_RIGHT.wav	2	27	blb_dichoticlistening_pa-ga.mp3	pa	ga	1	left
6.6.0	win	2023-06-02	03:51:19	04:02:51	685319	6154973c69da7c97996a19f6	2	1	practice_z	22	practice_z	1	stimuli_distractor_trianglediamonds.svg	stimuli_target_squarediamonds.svg	11	yes	44	1	707	6	4	antiphase_hc_sio.wav	1	6	5	noise_calib_stim_RIGHT.wav	2	27	blb_dichoticlistening_pa-ga.mp3	pa	ga	1	left
6.6.0	win	2023-06-02	03:51:19	04:02:51	685319	6154973c69da7c97996a19f6	2	1	practice_z	22	advance_on_keypress_ZEE	2	stimuli_distractor_trianglediamonds.svg	stimuli_target_squarediamonds.svg	11	yes	57	0	901	6	4	antiphase_hc_sio.wav	1	6	5	noise_calib_stim_RIGHT.wav	2	27	blb_dichoticlistening_pa-ga.mp3	pa	ga	1	left
6.6.0	win	2023-06-02	03:51:19	04:02:56	689992	6154973c69da7c97996a19f6	2	1	practice_z	22	practice_z	3	stimuli_distractor_trianglediamonds.svg	stimuli_distractor_trianglediamonds.svg	15	no	0	1	2000	6	4	antiphase_hc_sio.wav	1	6	5	noise_calib_stim_RIGHT.wav	2	27	blb_dichoticlistening_pa-ga.mp3	pa	ga	1	left
6.6.0	win	2023-06-02	03:51:19	04:02:56	689992	6154973c69da7c97996a19f6	2	1	practice_z	22	advance_on_keypress_ZEE	4	stimuli_distractor_trianglediamonds.svg	stimuli_distractor_trianglediamonds.svg	15	no	57	0	635	6	4	antiphase_hc_sio.wav	1	6	5	noise_calib_stim_RIGHT.wav	2	27	blb_dichoticlistening_pa-ga.mp3	pa	ga	1	left
6.6.0	win	2023-06-02	03:51:19	04:02:59	693216	6154973c69da7c97996a19f6	2	1	practice_z	22	practice_z	5	stimuli_target_squarediamonds.svg	stimuli_distractor_diamondtriangles.svg	2	yes	44	1	886	6	4	antiphase_hc_sio.wav	1	6	5	noise_calib_stim_RIGHT.wav	2	27	blb_dichoticlistening_pa-ga.mp3	pa	ga	1	left
6.6.0	win	2023-06-02	03:51:19	04:02:59	693216	6154973c69da7c97996a19f6	2	1	practice_z	22	advance_on_keypress_ZEE	6	stimuli_target_squarediamonds.svg	stimuli_distractor_diamondtriangles.svg	2	yes	57	0	767	6	4	antiphase_hc_sio.wav	1	6	5	noise_calib_stim_RIGHT.wav	2	27	blb_dichoticlistening_pa-ga.mp3	pa	ga	1	left
6.6.0	win	2023-06-02	03:51:19	04:03:03	697683	6154973c69da7c97996a19f6	2	1	practice_z	22	practice_z	7	stimuli_distractor_diamondtriangles.svg	stimuli_distractor_diamondtriangles.svg	13	no	0	1	2000	6	4	antiphase_hc_sio.wav	1	6	5	noise_calib_stim_RIGHT.wav	2	27	blb_dichoticlistening_pa-ga.mp3	pa	ga	1	left
6.6.0	win	2023-06-02	03:51:19	04:03:03	697683	6154973c69da7c97996a19f6	2	1	practice_z	22	advance_on_keypress_ZEE	8	stimuli_distractor_diamondtriangles.svg	stimuli_distractor_diamondtriangles.svg	13	no	57	0	485	6	4	antiphase_hc_sio.wav	1	6	5	noise_calib_stim_RIGHT.wav	2	27	blb_dichoticlistening_pa-ga.mp3	pa	ga	1	left
6.6.0	win	2023-06-02	03:51:19	04:03:07	700869	6154973c69da7c97996a19f6	2	1	practice_z	22	practice_z	9	stimuli_target_rectanglediamonds.svg	stimuli_distractor_trianglediamonds.svg	4	yes	44	1	999	6	4	antiphase_hc_sio.wav	1	6	5	noise_calib_stim_RIGHT.wav	2	27	blb_dichoticlistening_pa-ga.mp3	pa	ga	1	left
6.6.0	win	2023-06-02	03:51:19	04:03:07	700869	6154973c69da7c97996a19f6	2	1	practice_z	22	advance_on_keypress_ZEE	10	stimuli_target_rectanglediamonds.svg	stimuli_distractor_trianglediamonds.svg	4	yes	57	0	553	6	4	antiphase_hc_sio.wav	1	6	5	noise_calib_stim_RIGHT.wav	2	27	blb_dichoticlistening_pa-ga.mp3	pa	ga	1	left
6.6.0	win	2023-06-02	03:51:19	04:03:10	704113	6154973c69da7c97996a19f6	2	1	practice_z	22	practice_z	11	stimuli_target_squarediamonds.svg	stimuli_distractor_trianglediamonds.svg	5	yes	44	1	989	6	4	antiphase_hc_sio.wav	1	6	5	noise_calib_stim_RIGHT.wav	2	27	blb_dichoticlistening_pa-ga.mp3	pa	ga	1	left
6.6.0	win	2023-06-02	03:51:19	04:03:10	704113	6154973c69da7c97996a19f6	2	1	practice_z	22	advance_on_keypress_ZEE	12	stimuli_target_squarediamonds.svg	stimuli_distractor_trianglediamonds.svg	5	yes	57	0	431	6	4	antiphase_hc_sio.wav	1	6	5	noise_calib_stim_RIGHT.wav	2	27	blb_dichoticlistening_pa-ga.mp3	pa	ga	1	left
6.6.0	win	2023-06-02	03:51:19	04:03:13	707265	6154973c69da7c97996a19f6	2	1	practice_z	22	practice_z	13	stimuli_target_diamondsquares.svg	stimuli_distractor_diamondtriangles.svg	3	yes	44	1	1023	6	4	antiphase_hc_sio.wav	1	6	5	noise_calib_stim_RIGHT.wav	2	27	blb_dichoticlistening_pa-ga.mp3	pa	ga	1	left
6.6.0	win	2023-06-02	03:51:19	04:03:13	707265	6154973c69da7c97996a19f6	2	1	practice_z	22	advance_on_keypress_ZEE	14	stimuli_target_diamondsquares.svg	stimuli_distractor_diamondtriangles.svg	3	yes	57	0	682	6	4	antiphase_hc_sio.wav	1	6	5	noise_calib_stim_RIGHT.wav	2	27	blb_dichoticlistening_pa-ga.mp3	pa	ga	1	left
6.6.0	win	2023-06-02	03:51:19	04:03:16	710622	6154973c69da7c97996a19f6	2	1	practice_z	22	practice_z	15	stimuli_distractor_trianglediamonds.svg	stimuli_target_rectanglediamonds.svg	10	yes	44	1	975	6	4	antiphase_hc_sio.wav	1	6	5	noise_calib_stim_RIGHT.wav	2	27	blb_dichoticlistening_pa-ga.mp3	pa	ga	1	left
6.6.0	win	2023-06-02	03:51:19	04:03:16	710622	6154973c69da7c97996a19f6	2	1	practice_z	22	advance_on_keypress_ZEE	16	stimuli_distractor_trianglediamonds.svg	stimuli_target_rectanglediamonds.svg	10	yes	57	0	511	6	4	antiphase_hc_sio.wav	1	6	5	noise_calib_stim_RIGHT.wav	2	27	blb_dichoticlistening_pa-ga.mp3	pa	ga	1	left
6.6.0	win	2023-06-02	03:51:19	04:03:20	714833	6154973c69da7c97996a19f6	2	1	practice_z	22	practice_z	17	stimuli_distractor_trianglediamonds.svg	stimuli_distractor_diamondtriangles.svg	16	no	0	1	2000	6	4	antiphase_hc_sio.wav	1	6	5	noise_calib_stim_RIGHT.wav	2	27	blb_dichoticlistening_pa-ga.mp3	pa	ga	1	left
6.6.0	win	2023-06-02	03:51:19	04:03:20	714833	6154973c69da7c97996a19f6	2	1	practice_z	22	advance_on_keypress_ZEE	18	stimuli_distractor_trianglediamonds.svg	stimuli_distractor_diamondtriangles.svg	16	no	57	0	484	6	4	antiphase_hc_sio.wav	1	6	5	noise_calib_stim_RIGHT.wav	2	27	blb_dichoticlistening_pa-ga.mp3	pa	ga	1	left
6.6.0	win	2023-06-02	03:51:19	04:03:24	717879	6154973c69da7c97996a19f6	2	1	practice_z	22	practice_z	19	stimuli_target_diamondsquares.svg	stimuli_distractor_trianglediamonds.svg	6	yes	44	1	859	6	4	antiphase_hc_sio.wav	1	6	5	noise_calib_stim_RIGHT.wav	2	27	blb_dichoticlistening_pa-ga.mp3	pa	ga	1	left
6.6.0	win	2023-06-02	03:51:19	04:03:24	717879	6154973c69da7c97996a19f6	2	1	practice_z	22	advance_on_keypress_ZEE	20	stimuli_target_diamondsquares.svg	stimuli_distractor_trianglediamonds.svg	6	yes	57	0	427	6	4	antiphase_hc_sio.wav	1	6	5	noise_calib_stim_RIGHT.wav	2	27	blb_dichoticlistening_pa-ga.mp3	pa	ga	1	left
6.6.0	win	2023-06-02	03:51:19	04:03:27	720901	6154973c69da7c97996a19f6	2	1	practice_z	22	practice_z	21	stimuli_distractor_trianglediamonds.svg	stimuli_target_diamondrectangles.svg	12	yes	44	1	894	6	4	antiphase_hc_sio.wav	1	6	5	noise_calib_stim_RIGHT.wav	2	27	blb_dichoticlistening_pa-ga.mp3	pa	ga	1	left
6.6.0	win	2023-06-02	03:51:19	04:03:27	720901	6154973c69da7c97996a19f6	2	1	practice_z	22	advance_on_keypress_ZEE	22	stimuli_distractor_trianglediamonds.svg	stimuli_target_diamondrectangles.svg	12	yes	57	0	425	6	4	antiphase_hc_sio.wav	1	6	5	noise_calib_stim_RIGHT.wav	2	27	blb_dichoticlistening_pa-ga.mp3	pa	ga	1	left
6.6.0	win	2023-06-02	03:51:19	04:03:30	723975	6154973c69da7c97996a19f6	2	1	practice_z	22	practice_z	23	stimuli_target_rectanglediamonds.svg	stimuli_distractor_diamondtriangles.svg	1	yes	44	1	948	6	4	antiphase_hc_sio.wav	1	6	5	noise_calib_stim_RIGHT.wav	2	27	blb_dichoticlistening_pa-ga.mp3	pa	ga	1	left
6.6.0	win	2023-06-02	03:51:19	04:03:30	723975	6154973c69da7c97996a19f6	2	1	practice_z	22	advance_on_keypress_ZEE	24	stimuli_target_rectanglediamonds.svg	stimuli_distractor_diamondtriangles.svg	1	yes	57	0	453	6	4	antiphase_hc_sio.wav	1	6	5	noise_calib_stim_RIGHT.wav	2	27	blb_dichoticlistening_pa-ga.mp3	pa	ga	1	left
6.6.0	win	2023-06-02	03:51:19	04:03:34	728130	6154973c69da7c97996a19f6	2	1	practice_z	22	practice_z	25	stimuli_distractor_diamondtriangles.svg	stimuli_distractor_trianglediamonds.svg	14	no	0	1	2000	6	4	antiphase_hc_sio.wav	1	6	5	noise_calib_stim_RIGHT.wav	2	27	blb_dichoticlistening_pa-ga.mp3	pa	ga	1	left
6.6.0	win	2023-06-02	03:51:19	04:03:34	728130	6154973c69da7c97996a19f6	2	1	practice_z	22	advance_on_keypress_ZEE	26	stimuli_distractor_diamondtriangles.svg	stimuli_distractor_trianglediamonds.svg	14	no	57	0	442	6	4	antiphase_hc_sio.wav	1	6	5	noise_calib_stim_RIGHT.wav	2	27	blb_dichoticlistening_pa-ga.mp3	pa	ga	1	left
6.6.0	win	2023-06-02	03:51:19	04:03:37	731552	6154973c69da7c97996a19f6	2	1	practice_z	22	practice_z	27	stimuli_distractor_diamondtriangles.svg	stimuli_target_trianglerectangles.svg	9	yes	44	1	1201	6	4	antiphase_hc_sio.wav	1	6	5	noise_calib_stim_RIGHT.wav	2	27	blb_dichoticlistening_pa-ga.mp3	pa	ga	1	left
6.6.0	win	2023-06-02	03:51:19	04:03:37	731552	6154973c69da7c97996a19f6	2	1	practice_z	22	advance_on_keypress_ZEE	28	stimuli_distractor_diamondtriangles.svg	stimuli_target_trianglerectangles.svg	9	yes	57	0	416	6	4	antiphase_hc_sio.wav	1	6	5	noise_calib_stim_RIGHT.wav	2	27	blb_dichoticlistening_pa-ga.mp3	pa	ga	1	left
6.6.0	win	2023-06-02	03:51:19	04:03:40	734504	6154973c69da7c97996a19f6	2	1	practice_z	22	practice_z	29	stimuli_distractor_diamondtriangles.svg	stimuli_target_diamondrectangles.svg	8	yes	44	1	833	6	4	antiphase_hc_sio.wav	1	6	5	noise_calib_stim_RIGHT.wav	2	27	blb_dichoticlistening_pa-ga.mp3	pa	ga	1	left
6.6.0	win	2023-06-02	03:51:19	04:03:40	734504	6154973c69da7c97996a19f6	2	1	practice_z	22	advance_on_keypress_ZEE	30	stimuli_distractor_diamondtriangles.svg	stimuli_target_diamondrectangles.svg	8	yes	57	0	405	6	4	antiphase_hc_sio.wav	1	6	5	noise_calib_stim_RIGHT.wav	2	27	blb_dichoticlistening_pa-ga.mp3	pa	ga	1	left
6.6.0	win	2023-06-02	03:51:19	04:03:43	737359	6154973c69da7c97996a19f6	2	1	practice_z	22	practice_z	31	stimuli_distractor_diamondtriangles.svg	stimuli_target_rectangletriangles.svg	7	yes	44	1	752	6	4	antiphase_hc_sio.wav	1	6	5	noise_calib_stim_RIGHT.wav	2	27	blb_dichoticlistening_pa-ga.mp3	pa	ga	1	left
6.6.0	win	2023-06-02	03:51:19	04:03:43	737359	6154973c69da7c97996a19f6	2	1	practice_z	22	advance_on_keypress_ZEE	32	stimuli_distractor_diamondtriangles.svg	stimuli_target_rectangletriangles.svg	7	yes	57	0	421	6	4	antiphase_hc_sio.wav	1	6	5	noise_calib_stim_RIGHT.wav	2	27	blb_dichoticlistening_pa-ga.mp3	pa	ga	1	left
6.6.0	win	2023-06-02	03:51:19	04:03:54	747935	6154973c69da7c97996a19f6	2	1	main_z	24	main_z	1	stimuli_target_diamondsquares.svg	stimuli_distractor_diamondtriangles.svg	24	yes	44	1	667	6	4	antiphase_hc_sio.wav	1	6	5	noise_calib_stim_RIGHT.wav	2	27	blb_dichoticlistening_pa-ga.mp3	pa	ga	1	left
6.6.0	win	2023-06-02	03:51:19	04:03:54	747935	6154973c69da7c97996a19f6	2	1	main_z	24	advance_on_keypress_ZEE	2	stimuli_target_diamondsquares.svg	stimuli_distractor_diamondtriangles.svg	24	yes	57	0	989	6	4	antiphase_hc_sio.wav	1	6	5	noise_calib_stim_RIGHT.wav	2	27	blb_dichoticlistening_pa-ga.mp3	pa	ga	1	left
6.6.0	win	2023-06-02	03:51:19	04:03:57	751619	6154973c69da7c97996a19f6	2	1	main_z	24	main_z	3	stimuli_distractor_diamondtriangles.svg	stimuli_distractor_diamondtriangles.svg	39	no	0	1	2000	6	4	antiphase_hc_sio.wav	1	6	5	noise_calib_stim_RIGHT.wav	2	27	blb_dichoticlistening_pa-ga.mp3	pa	ga	1	left
6.6.0	win	2023-06-02	03:51:19	04:03:57	751619	6154973c69da7c97996a19f6	2	1	main_z	24	advance_on_keypress_ZEE	4	stimuli_distractor_diamondtriangles.svg	stimuli_distractor_diamondtriangles.svg	39	no	57	0	380	6	4	antiphase_hc_sio.wav	1	6	5	noise_calib_stim_RIGHT.wav	2	27	blb_dichoticlistening_pa-ga.mp3	pa	ga	1	left
6.6.0	win	2023-06-02	03:51:19	04:03:59	753312	6154973c69da7c97996a19f6	2	1	main_z	24	main_z	5	stimuli_distractor_diamondtriangles.svg	stimuli_target_diamondrectangles.svg	31	yes	44	1	689	6	4	antiphase_hc_sio.wav	1	6	5	noise_calib_stim_RIGHT.wav	2	27	blb_dichoticlistening_pa-ga.mp3	pa	ga	1	left
6.6.0	win	2023-06-02	03:51:19	04:03:59	753312	6154973c69da7c97996a19f6	2	1	main_z	24	advance_on_keypress_ZEE	6	stimuli_distractor_diamondtriangles.svg	stimuli_target_diamondrectangles.svg	31	yes	57	0	853	6	4	antiphase_hc_sio.wav	1	6	5	noise_calib_stim_RIGHT.wav	2	27	blb_dichoticlistening_pa-ga.mp3	pa	ga	1	left
6.6.0	win	2023-06-02	03:51:19	04:04:01	755620	6154973c69da7c97996a19f6	2	1	main_z	24	main_z	7	stimuli_distractor_trianglediamonds.svg	stimuli_target_trianglerectangles.svg	25	yes	44	1	832	6	4	antiphase_hc_sio.wav	1	6	5	noise_calib_stim_RIGHT.wav	2	27	blb_dichoticlistening_pa-ga.mp3	pa	ga	1	left
6.6.0	win	2023-06-02	03:51:19	04:04:01	755620	6154973c69da7c97996a19f6	2	1	main_z	24	advance_on_keypress_ZEE	8	stimuli_distractor_trianglediamonds.svg	stimuli_target_trianglerectangles.svg	25	yes	57	0	544	6	4	antiphase_hc_sio.wav	1	6	5	noise_calib_stim_RIGHT.wav	2	27	blb_dichoticlistening_pa-ga.mp3	pa	ga	1	left
6.6.0	win	2023-06-02	03:51:19	04:04:03	757566	6154973c69da7c97996a19f6	2	1	main_z	24	main_z	9	stimuli_distractor_diamondtriangles.svg	stimuli_target_trianglesquares.svg	30	yes	44	1	779	6	4	antiphase_hc_sio.wav	1	6	5	noise_calib_stim_RIGHT.wav	2	27	blb_dichoticlistening_pa-ga.mp3	pa	ga	1	left
6.6.0	win	2023-06-02	03:51:19	04:04:03	757566	6154973c69da7c97996a19f6	2	1	main_z	24	advance_on_keypress_ZEE	10	stimuli_distractor_diamondtriangles.svg	stimuli_target_trianglesquares.svg	30	yes	57	0	474	6	4	antiphase_hc_sio.wav	1	6	5	noise_calib_stim_RIGHT.wav	2	27	blb_dichoticlistening_pa-ga.mp3	pa	ga	1	left
6.6.0	win	2023-06-02	03:51:19	04:04:06	760664	6154973c69da7c97996a19f6	2	1	main_z	24	main_z	11	stimuli_distractor_trianglediamonds.svg	stimuli_distractor_trianglediamonds.svg	34	no	0	1	2000	6	4	antiphase_hc_sio.wav	1	6	5	noise_calib_stim_RIGHT.wav	2	27	blb_dichoticlistening_pa-ga.mp3	pa	ga	1	left
6.6.0	win	2023-06-02	03:51:19	04:04:06	760664	6154973c69da7c97996a19f6	2	1	main_z	24	advance_on_keypress_ZEE	12	stimuli_distractor_trianglediamonds.svg	stimuli_distractor_trianglediamonds.svg	34	no	57	0	418	6	4	antiphase_hc_sio.wav	1	6	5	noise_calib_stim_RIGHT.wav	2	27	blb_dichoticlistening_pa-ga.mp3	pa	ga	1	left
6.6.0	win	2023-06-02	03:51:19	04:04:08	762261	6154973c69da7c97996a19f6	2	1	main_z	24	main_z	13	stimuli_target_rectanglediamonds.svg	stimuli_distractor_diamondtriangles.svg	6	yes	44	1	555	6	4	antiphase_hc_sio.wav	1	6	5	noise_calib_stim_RIGHT.wav	2	27	blb_dichoticlistening_pa-ga.mp3	pa	ga	1	left
6.6.0	win	2023-06-02	03:51:19	04:04:08	762261	6154973c69da7c97996a19f6	2	1	main_z	24	advance_on_keypress_ZEE	14	stimuli_target_rectanglediamonds.svg	stimuli_distractor_diamondtriangles.svg	6	yes	57	0	436	6	4	antiphase_hc_sio.wav	1	6	5	noise_calib_stim_RIGHT.wav	2	27	blb_dichoticlistening_pa-ga.mp3	pa	ga	1	left
6.6.0	win	2023-06-02	03:51:19	04:04:10	764405	6154973c69da7c97996a19f6	2	1	main_z	24	main_z	15	stimuli_distractor_diamondtriangles.svg	stimuli_target_rectangletriangles.svg	13	yes	44	1	1008	6	4	antiphase_hc_sio.wav	1	6	5	noise_calib_stim_RIGHT.wav	2	27	blb_dichoticlistening_pa-ga.mp3	pa	ga	1	left
6.6.0	win	2023-06-02	03:51:19	04:04:10	764405	6154973c69da7c97996a19f6	2	1	main_z	24	advance_on_keypress_ZEE	16	stimuli_distractor_diamondtriangles.svg	stimuli_target_rectangletriangles.svg	13	yes	57	0	421	6	4	antiphase_hc_sio.wav	1	6	5	noise_calib_stim_RIGHT.wav	2	27	blb_dichoticlistening_pa-ga.mp3	pa	ga	1	left
6.6.0	win	2023-06-02	03:51:19	04:04:12	766207	6154973c69da7c97996a19f6	2	1	main_z	24	main_z	17	stimuli_distractor_diamondtriangles.svg	stimuli_target_squarediamonds.svg	16	yes	44	1	757	6	4	antiphase_hc_sio.wav	1	6	5	noise_calib_stim_RIGHT.wav	2	27	blb_dichoticlistening_pa-ga.mp3	pa	ga	1	left
6.6.0	win	2023-06-02	03:51:19	04:04:12	766207	6154973c69da7c97996a19f6	2	1	main_z	24	advance_on_keypress_ZEE	18	stimuli_distractor_diamondtriangles.svg	stimuli_target_squarediamonds.svg	16	yes	57	0	401	6	4	antiphase_hc_sio.wav	1	6	5	noise_calib_stim_RIGHT.wav	2	27	blb_dichoticlistening_pa-ga.mp3	pa	ga	1	left
6.6.0	win	2023-06-02	03:51:19	04:04:14	768047	6154973c69da7c97996a19f6	2	1	main_z	24	main_z	19	stimuli_target_trianglesquares.svg	stimuli_distractor_diamondtriangles.svg	22	yes	44	1	816	6	4	antiphase_hc_sio.wav	1	6	5	noise_calib_stim_RIGHT.wav	2	27	blb_dichoticlistening_pa-ga.mp3	pa	ga	1	left
6.6.0	win	2023-06-02	03:51:19	04:04:14	768047	6154973c69da7c97996a19f6	2	1	main_z	24	advance_on_keypress_ZEE	20	stimuli_target_trianglesquares.svg	stimuli_distractor_diamondtriangles.svg	22	yes	57	0	390	6	4	antiphase_hc_sio.wav	1	6	5	noise_calib_stim_RIGHT.wav	2	27	blb_dichoticlistening_pa-ga.mp3	pa	ga	1	left
6.6.0	win	2023-06-02	03:51:19	04:04:16	769935	6154973c69da7c97996a19f6	2	1	main_z	24	main_z	21	stimuli_target_trianglerectangles.svg	stimuli_distractor_diamondtriangles.svg	21	yes	44	1	874	6	4	antiphase_hc_sio.wav	1	6	5	noise_calib_stim_RIGHT.wav	2	27	blb_dichoticlistening_pa-ga.mp3	pa	ga	1	left
6.6.0	win	2023-06-02	03:51:19	04:04:16	769935	6154973c69da7c97996a19f6	2	1	main_z	24	advance_on_keypress_ZEE	22	stimuli_target_trianglerectangles.svg	stimuli_distractor_diamondtriangles.svg	21	yes	57	0	342	6	4	antiphase_hc_sio.wav	1	6	5	noise_calib_stim_RIGHT.wav	2	27	blb_dichoticlistening_pa-ga.mp3	pa	ga	1	left
6.6.0	win	2023-06-02	03:51:19	04:04:17	771791	6154973c69da7c97996a19f6	2	1	main_z	24	main_z	23	stimuli_distractor_diamondtriangles.svg	stimuli_target_diamondsquares.svg	32	yes	44	1	890	6	4	antiphase_hc_sio.wav	1	6	5	noise_calib_stim_RIGHT.wav	2	27	blb_dichoticlistening_pa-ga.mp3	pa	ga	1	left
6.6.0	win	2023-06-02	03:51:19	04:04:17	771791	6154973c69da7c97996a19f6	2	1	main_z	24	advance_on_keypress_ZEE	24	stimuli_distractor_diamondtriangles.svg	stimuli_target_diamondsquares.svg	32	yes	57	0	288	6	4	antiphase_hc_sio.wav	1	6	5	noise_calib_stim_RIGHT.wav	2	27	blb_dichoticlistening_pa-ga.mp3	pa	ga	1	left
6.6.0	win	2023-06-02	03:51:19	04:04:20	774784	6154973c69da7c97996a19f6	2	1	main_z	24	main_z	25	stimuli_distractor_trianglediamonds.svg	stimuli_distractor_diamondtriangles.svg	35	no	0	1	2000	6	4	antiphase_hc_sio.wav	1	6	5	noise_calib_stim_RIGHT.wav	2	27	blb_dichoticlistening_pa-ga.mp3	pa	ga	1	left
6.6.0	win	2023-06-02	03:51:19	04:04:20	774784	6154973c69da7c97996a19f6	2	1	main_z	24	advance_on_keypress_ZEE	26	stimuli_distractor_trianglediamonds.svg	stimuli_distractor_diamondtriangles.svg	35	no	57	0	348	6	4	antiphase_hc_sio.wav	1	6	5	noise_calib_stim_RIGHT.wav	2	27	blb_dichoticlistening_pa-ga.mp3	pa	ga	1	left
6.6.0	win	2023-06-02	03:51:19	04:04:22	776476	6154973c69da7c97996a19f6	2	1	main_z	24	main_z	27	stimuli_distractor_trianglediamonds.svg	stimuli_target_diamondsquares.svg	28	yes	44	1	720	6	4	antiphase_hc_sio.wav	1	6	5	noise_calib_stim_RIGHT.wav	2	27	blb_dichoticlistening_pa-ga.mp3	pa	ga	1	left
6.6.0	win	2023-06-02	03:51:19	04:04:22	776476	6154973c69da7c97996a19f6	2	1	main_z	24	advance_on_keypress_ZEE	28	stimuli_distractor_trianglediamonds.svg	stimuli_target_diamondsquares.svg	28	yes	57	0	389	6	4	antiphase_hc_sio.wav	1	6	5	noise_calib_stim_RIGHT.wav	2	27	blb_dichoticlistening_pa-ga.mp3	pa	ga	1	left
6.6.0	win	2023-06-02	03:51:19	04:04:24	778342	6154973c69da7c97996a19f6	2	1	main_z	24	main_z	29	stimuli_target_rectangletriangles.svg	stimuli_distractor_trianglediamonds.svg	1	yes	44	1	853	6	4	antiphase_hc_sio.wav	1	6	5	noise_calib_stim_RIGHT.wav	2	27	blb_dichoticlistening_pa-ga.mp3	pa	ga	1	left
6.6.0	win	2023-06-02	03:51:19	04:04:24	778342	6154973c69da7c97996a19f6	2	1	main_z	24	advance_on_keypress_ZEE	30	stimuli_target_rectangletriangles.svg	stimuli_distractor_trianglediamonds.svg	1	yes	57	0	321	6	4	antiphase_hc_sio.wav	1	6	5	noise_calib_stim_RIGHT.wav	2	27	blb_dichoticlistening_pa-ga.mp3	pa	ga	1	left
6.6.0	win	2023-06-02	03:51:19	04:04:26	779959	6154973c69da7c97996a19f6	2	1	main_z	24	main_z	31	stimuli_target_squarediamonds.svg	stimuli_distractor_trianglediamonds.svg	4	yes	44	1	672	6	4	antiphase_hc_sio.wav	1	6	5	noise_calib_stim_RIGHT.wav	2	27	blb_dichoticlistening_pa-ga.mp3	pa	ga	1	left
6.6.0	win	2023-06-02	03:51:19	04:04:26	779959	6154973c69da7c97996a19f6	2	1	main_z	24	advance_on_keypress_ZEE	32	stimuli_target_squarediamonds.svg	stimuli_distractor_trianglediamonds.svg	4	yes	57	0	369	6	4	antiphase_hc_sio.wav	1	6	5	noise_calib_stim_RIGHT.wav	2	27	blb_dichoticlistening_pa-ga.mp3	pa	ga	1	left
6.6.0	win	2023-06-02	03:51:19	04:04:29	782951	6154973c69da7c97996a19f6	2	1	main_z	24	main_z	33	stimuli_distractor_diamondtriangles.svg	stimuli_distractor_trianglediamonds.svg	37	no	0	1	2000	6	4	antiphase_hc_sio.wav	1	6	5	noise_calib_stim_RIGHT.wav	2	27	blb_dichoticlistening_pa-ga.mp3	pa	ga	1	left
6.6.0	win	2023-06-02	03:51:19	04:04:29	782951	6154973c69da7c97996a19f6	2	1	main_z	24	advance_on_keypress_ZEE	34	stimuli_distractor_diamondtriangles.svg	stimuli_distractor_trianglediamonds.svg	37	no	57	0	599	6	4	antiphase_hc_sio.wav	1	6	5	noise_calib_stim_RIGHT.wav	2	27	blb_dichoticlistening_pa-ga.mp3	pa	ga	1	left
6.6.0	win	2023-06-02	03:51:19	04:04:31	784990	6154973c69da7c97996a19f6	2	1	main_z	24	main_z	35	stimuli_distractor_trianglediamonds.svg	stimuli_target_rectangletriangles.svg	9	yes	44	1	816	6	4	antiphase_hc_sio.wav	1	6	5	noise_calib_stim_RIGHT.wav	2	27	blb_dichoticlistening_pa-ga.mp3	pa	ga	1	left
6.6.0	win	2023-06-02	03:51:19	04:04:31	784990	6154973c69da7c97996a19f6	2	1	main_z	24	advance_on_keypress_ZEE	36	stimuli_distractor_trianglediamonds.svg	stimuli_target_rectangletriangles.svg	9	yes	57	0	326	6	4	antiphase_hc_sio.wav	1	6	5	noise_calib_stim_RIGHT.wav	2	27	blb_dichoticlistening_pa-ga.mp3	pa	ga	1	left
6.6.0	win	2023-06-02	03:51:19	04:04:32	786654	6154973c69da7c97996a19f6	2	1	main_z	24	main_z	37	stimuli_distractor_trianglediamonds.svg	stimuli_target_rectanglediamonds.svg	10	yes	44	1	715	6	4	antiphase_hc_sio.wav	1	6	5	noise_calib_stim_RIGHT.wav	2	27	blb_dichoticlistening_pa-ga.mp3	pa	ga	1	left
6.6.0	win	2023-06-02	03:51:19	04:04:32	786654	6154973c69da7c97996a19f6	2	1	main_z	24	advance_on_keypress_ZEE	38	stimuli_distractor_trianglediamonds.svg	stimuli_target_rectanglediamonds.svg	10	yes	57	0	316	6	4	antiphase_hc_sio.wav	1	6	5	noise_calib_stim_RIGHT.wav	2	27	blb_dichoticlistening_pa-ga.mp3	pa	ga	1	left
6.6.0	win	2023-06-02	03:51:19	04:04:34	788265	6154973c69da7c97996a19f6	2	1	main_z	24	main_z	39	stimuli_target_trianglesquares.svg	stimuli_distractor_trianglediamonds.svg	18	yes	44	1	672	6	4	antiphase_hc_sio.wav	1	6	5	noise_calib_stim_RIGHT.wav	2	27	blb_dichoticlistening_pa-ga.mp3	pa	ga	1	left
6.6.0	win	2023-06-02	03:51:19	04:04:34	788265	6154973c69da7c97996a19f6	2	1	main_z	24	advance_on_keypress_ZEE	40	stimuli_target_trianglesquares.svg	stimuli_distractor_trianglediamonds.svg	18	yes	57	0	322	6	4	antiphase_hc_sio.wav	1	6	5	noise_calib_stim_RIGHT.wav	2	27	blb_dichoticlistening_pa-ga.mp3	pa	ga	1	left
6.6.0	win	2023-06-02	03:51:19	04:04:36	789999	6154973c69da7c97996a19f6	2	1	main_z	24	main_z	41	stimuli_target_diamondrectangles.svg	stimuli_distractor_diamondtriangles.svg	23	yes	44	1	789	6	4	antiphase_hc_sio.wav	1	6	5	noise_calib_stim_RIGHT.wav	2	27	blb_dichoticlistening_pa-ga.mp3	pa	ga	1	left
6.6.0	win	2023-06-02	03:51:19	04:04:36	789999	6154973c69da7c97996a19f6	2	1	main_z	24	advance_on_keypress_ZEE	42	stimuli_target_diamondrectangles.svg	stimuli_distractor_diamondtriangles.svg	23	yes	57	0	310	6	4	antiphase_hc_sio.wav	1	6	5	noise_calib_stim_RIGHT.wav	2	27	blb_dichoticlistening_pa-ga.mp3	pa	ga	1	left
6.6.0	win	2023-06-02	03:51:19	04:04:37	791738	6154973c69da7c97996a19f6	2	1	main_z	24	main_z	43	stimuli_distractor_trianglediamonds.svg	stimuli_target_squaretriangles.svg	11	yes	44	1	736	6	4	antiphase_hc_sio.wav	1	6	5	noise_calib_stim_RIGHT.wav	2	27	blb_dichoticlistening_pa-ga.mp3	pa	ga	1	left
6.6.0	win	2023-06-02	03:51:19	04:04:37	791738	6154973c69da7c97996a19f6	2	1	main_z	24	advance_on_keypress_ZEE	44	stimuli_distractor_trianglediamonds.svg	stimuli_target_squaretriangles.svg	11	yes	57	0	310	6	4	antiphase_hc_sio.wav	1	6	5	noise_calib_stim_RIGHT.wav	2	27	blb_dichoticlistening_pa-ga.mp3	pa	ga	1	left
6.6.0	win	2023-06-02	03:51:19	04:04:39	793504	6154973c69da7c97996a19f6	2	1	main_z	24	main_z	45	stimuli_distractor_trianglediamonds.svg	stimuli_target_trianglesquares.svg	26	yes	44	1	832	6	4	antiphase_hc_sio.wav	1	6	5	noise_calib_stim_RIGHT.wav	2	27	blb_dichoticlistening_pa-ga.mp3	pa	ga	1	left
6.6.0	win	2023-06-02	03:51:19	04:04:39	793504	6154973c69da7c97996a19f6	2	1	main_z	24	advance_on_keypress_ZEE	46	stimuli_distractor_trianglediamonds.svg	stimuli_target_trianglesquares.svg	26	yes	57	0	267	6	4	antiphase_hc_sio.wav	1	6	5	noise_calib_stim_RIGHT.wav	2	27	blb_dichoticlistening_pa-ga.mp3	pa	ga	1	left
6.6.0	win	2023-06-02	03:51:19	04:04:41	795471	6154973c69da7c97996a19f6	2	1	main_z	24	main_z	47	stimuli_distractor_diamondtriangles.svg	stimuli_target_rectanglediamonds.svg	14	yes	44	1	999	6	4	antiphase_hc_sio.wav	1	6	5	noise_calib_stim_RIGHT.wav	2	27	blb_dichoticlistening_pa-ga.mp3	pa	ga	1	left
6.6.0	win	2023-06-02	03:51:19	04:04:41	795471	6154973c69da7c97996a19f6	2	1	main_z	24	advance_on_keypress_ZEE	48	stimuli_distractor_diamondtriangles.svg	stimuli_target_rectanglediamonds.svg	14	yes	57	0	295	6	4	antiphase_hc_sio.wav	1	6	5	noise_calib_stim_RIGHT.wav	2	27	blb_dichoticlistening_pa-ga.mp3	pa	ga	1	left
6.6.0	win	2023-06-02	03:51:19	04:04:44	798389	6154973c69da7c97996a19f6	2	1	main_z	24	main_z	49	stimuli_distractor_diamondtriangles.svg	stimuli_distractor_trianglediamonds.svg	38	no	0	1	2000	6	4	antiphase_hc_sio.wav	1	6	5	noise_calib_stim_RIGHT.wav	2	27	blb_dichoticlistening_pa-ga.mp3	pa	ga	1	left
6.6.0	win	2023-06-02	03:51:19	04:04:44	798389	6154973c69da7c97996a19f6	2	1	main_z	24	advance_on_keypress_ZEE	50	stimuli_distractor_diamondtriangles.svg	stimuli_distractor_trianglediamonds.svg	38	no	57	0	705	6	4	antiphase_hc_sio.wav	1	6	5	noise_calib_stim_RIGHT.wav	2	27	blb_dichoticlistening_pa-ga.mp3	pa	ga	1	left
6.6.0	win	2023-06-02	03:51:19	04:04:47	801718	6154973c69da7c97996a19f6	2	1	main_z	24	main_z	51	stimuli_distractor_trianglediamonds.svg	stimuli_distractor_trianglediamonds.svg	33	no	0	1	2000	6	4	antiphase_hc_sio.wav	1	6	5	noise_calib_stim_RIGHT.wav	2	27	blb_dichoticlistening_pa-ga.mp3	pa	ga	1	left
6.6.0	win	2023-06-02	03:51:19	04:04:47	801718	6154973c69da7c97996a19f6	2	1	main_z	24	advance_on_keypress_ZEE	52	stimuli_distractor_trianglediamonds.svg	stimuli_distractor_trianglediamonds.svg	33	no	57	0	668	6	4	antiphase_hc_sio.wav	1	6	5	noise_calib_stim_RIGHT.wav	2	27	blb_dichoticlistening_pa-ga.mp3	pa	ga	1	left
6.6.0	win	2023-06-02	03:51:19	04:04:49	803692	6154973c69da7c97996a19f6	2	1	main_z	24	main_z	53	stimuli_distractor_diamondtriangles.svg	stimuli_target_squaretriangles.svg	15	yes	44	1	682	6	4	antiphase_hc_sio.wav	1	6	5	noise_calib_stim_RIGHT.wav	2	27	blb_dichoticlistening_pa-ga.mp3	pa	ga	1	left
6.6.0	win	2023-06-02	03:51:19	04:04:49	803692	6154973c69da7c97996a19f6	2	1	main_z	24	advance_on_keypress_ZEE	54	stimuli_distractor_diamondtriangles.svg	stimuli_target_squaretriangles.svg	15	yes	57	0	354	6	4	antiphase_hc_sio.wav	1	6	5	noise_calib_stim_RIGHT.wav	2	27	blb_dichoticlistening_pa-ga.mp3	pa	ga	1	left
6.6.0	win	2023-06-02	03:51:19	04:04:51	805511	6154973c69da7c97996a19f6	2	1	main_z	24	main_z	55	stimuli_target_squarediamonds.svg	stimuli_distractor_diamondtriangles.svg	8	yes	44	1	842	6	4	antiphase_hc_sio.wav	1	6	5	noise_calib_stim_RIGHT.wav	2	27	blb_dichoticlistening_pa-ga.mp3	pa	ga	1	left
6.6.0	win	2023-06-02	03:51:19	04:04:51	805511	6154973c69da7c97996a19f6	2	1	main_z	24	advance_on_keypress_ZEE	56	stimuli_target_squarediamonds.svg	stimuli_distractor_diamondtriangles.svg	8	yes	57	0	299	6	4	antiphase_hc_sio.wav	1	6	5	noise_calib_stim_RIGHT.wav	2	27	blb_dichoticlistening_pa-ga.mp3	pa	ga	1	left
6.6.0	win	2023-06-02	03:51:19	04:04:53	807207	6154973c69da7c97996a19f6	2	1	main_z	24	main_z	57	stimuli_target_squaretriangles.svg	stimuli_distractor_trianglediamonds.svg	3	yes	44	1	773	6	4	antiphase_hc_sio.wav	1	6	5	noise_calib_stim_RIGHT.wav	2	27	blb_dichoticlistening_pa-ga.mp3	pa	ga	1	left
6.6.0	win	2023-06-02	03:51:19	04:04:53	807207	6154973c69da7c97996a19f6	2	1	main_z	24	advance_on_keypress_ZEE	58	stimuli_target_squaretriangles.svg	stimuli_distractor_trianglediamonds.svg	3	yes	57	0	278	6	4	antiphase_hc_sio.wav	1	6	5	noise_calib_stim_RIGHT.wav	2	27	blb_dichoticlistening_pa-ga.mp3	pa	ga	1	left
6.6.0	win	2023-06-02	03:51:19	04:04:56	810109	6154973c69da7c97996a19f6	2	1	main_z	24	main_z	59	stimuli_distractor_diamondtriangles.svg	stimuli_distractor_diamondtriangles.svg	40	no	0	1	2000	6	4	antiphase_hc_sio.wav	1	6	5	noise_calib_stim_RIGHT.wav	2	27	blb_dichoticlistening_pa-ga.mp3	pa	ga	1	left
6.6.0	win	2023-06-02	03:51:19	04:04:56	810109	6154973c69da7c97996a19f6	2	1	main_z	24	advance_on_keypress_ZEE	60	stimuli_distractor_diamondtriangles.svg	stimuli_distractor_diamondtriangles.svg	40	no	57	0	446	6	4	antiphase_hc_sio.wav	1	6	5	noise_calib_stim_RIGHT.wav	2	27	blb_dichoticlistening_pa-ga.mp3	pa	ga	1	left
6.6.0	win	2023-06-02	03:51:19	04:04:59	813179	6154973c69da7c97996a19f6	2	1	main_z	24	main_z	61	stimuli_distractor_trianglediamonds.svg	stimuli_distractor_diamondtriangles.svg	36	no	0	1	2000	6	4	antiphase_hc_sio.wav	1	6	5	noise_calib_stim_RIGHT.wav	2	27	blb_dichoticlistening_pa-ga.mp3	pa	ga	1	left
6.6.0	win	2023-06-02	03:51:19	04:04:59	813179	6154973c69da7c97996a19f6	2	1	main_z	24	advance_on_keypress_ZEE	62	stimuli_distractor_trianglediamonds.svg	stimuli_distractor_diamondtriangles.svg	36	no	57	0	465	6	4	antiphase_hc_sio.wav	1	6	5	noise_calib_stim_RIGHT.wav	2	27	blb_dichoticlistening_pa-ga.mp3	pa	ga	1	left
6.6.0	win	2023-06-02	03:51:19	04:05:01	815030	6154973c69da7c97996a19f6	2	1	main_z	24	main_z	63	stimuli_target_rectanglediamonds.svg	stimuli_distractor_trianglediamonds.svg	2	yes	44	1	688	6	4	antiphase_hc_sio.wav	1	6	5	noise_calib_stim_RIGHT.wav	2	27	blb_dichoticlistening_pa-ga.mp3	pa	ga	1	left
6.6.0	win	2023-06-02	03:51:19	04:05:01	815030	6154973c69da7c97996a19f6	2	1	main_z	24	advance_on_keypress_ZEE	64	stimuli_target_rectanglediamonds.svg	stimuli_distractor_trianglediamonds.svg	2	yes	57	0	315	6	4	antiphase_hc_sio.wav	1	6	5	noise_calib_stim_RIGHT.wav	2	27	blb_dichoticlistening_pa-ga.mp3	pa	ga	1	left
6.6.0	win	2023-06-02	03:51:19	04:05:03	816870	6154973c69da7c97996a19f6	2	1	main_z	24	main_z	65	stimuli_target_squaretriangles.svg	stimuli_distractor_diamondtriangles.svg	7	yes	44	1	901	6	4	antiphase_hc_sio.wav	1	6	5	noise_calib_stim_RIGHT.wav	2	27	blb_dichoticlistening_pa-ga.mp3	pa	ga	1	left
6.6.0	win	2023-06-02	03:51:19	04:05:03	816870	6154973c69da7c97996a19f6	2	1	main_z	24	advance_on_keypress_ZEE	66	stimuli_target_squaretriangles.svg	stimuli_distractor_diamondtriangles.svg	7	yes	57	0	262	6	4	antiphase_hc_sio.wav	1	6	5	noise_calib_stim_RIGHT.wav	2	27	blb_dichoticlistening_pa-ga.mp3	pa	ga	1	left
6.6.0	win	2023-06-02	03:51:19	04:05:04	818657	6154973c69da7c97996a19f6	2	1	main_z	24	main_z	67	stimuli_target_diamondrectangles.svg	stimuli_distractor_trianglediamonds.svg	19	yes	44	1	828	6	4	antiphase_hc_sio.wav	1	6	5	noise_calib_stim_RIGHT.wav	2	27	blb_dichoticlistening_pa-ga.mp3	pa	ga	1	left
6.6.0	win	2023-06-02	03:51:19	04:05:04	818657	6154973c69da7c97996a19f6	2	1	main_z	24	advance_on_keypress_ZEE	68	stimuli_target_diamondrectangles.svg	stimuli_distractor_trianglediamonds.svg	19	yes	57	0	246	6	4	antiphase_hc_sio.wav	1	6	5	noise_calib_stim_RIGHT.wav	2	27	blb_dichoticlistening_pa-ga.mp3	pa	ga	1	left
6.6.0	win	2023-06-02	03:51:19	04:05:06	820459	6154973c69da7c97996a19f6	2	1	main_z	24	main_z	69	stimuli_distractor_diamondtriangles.svg	stimuli_target_trianglerectangles.svg	29	yes	44	1	862	6	4	antiphase_hc_sio.wav	1	6	5	noise_calib_stim_RIGHT.wav	2	27	blb_dichoticlistening_pa-ga.mp3	pa	ga	1	left
6.6.0	win	2023-06-02	03:51:19	04:05:06	820459	6154973c69da7c97996a19f6	2	1	main_z	24	advance_on_keypress_ZEE	70	stimuli_distractor_diamondtriangles.svg	stimuli_target_trianglerectangles.svg	29	yes	57	0	230	6	4	antiphase_hc_sio.wav	1	6	5	noise_calib_stim_RIGHT.wav	2	27	blb_dichoticlistening_pa-ga.mp3	pa	ga	1	left
6.6.0	win	2023-06-02	03:51:19	04:05:08	822342	6154973c69da7c97996a19f6	2	1	main_z	24	main_z	71	stimuli_target_rectangletriangles.svg	stimuli_distractor_diamondtriangles.svg	5	yes	44	1	960	6	4	antiphase_hc_sio.wav	1	6	5	noise_calib_stim_RIGHT.wav	2	27	blb_dichoticlistening_pa-ga.mp3	pa	ga	1	left
6.6.0	win	2023-06-02	03:51:19	04:05:08	822342	6154973c69da7c97996a19f6	2	1	main_z	24	advance_on_keypress_ZEE	72	stimuli_target_rectangletriangles.svg	stimuli_distractor_diamondtriangles.svg	5	yes	57	0	262	6	4	antiphase_hc_sio.wav	1	6	5	noise_calib_stim_RIGHT.wav	2	27	blb_dichoticlistening_pa-ga.mp3	pa	ga	1	left
6.6.0	win	2023-06-02	03:51:19	04:05:10	824166	6154973c69da7c97996a19f6	2	1	main_z	24	main_z	73	stimuli_distractor_trianglediamonds.svg	stimuli_target_diamondrectangles.svg	27	yes	44	1	865	6	4	antiphase_hc_sio.wav	1	6	5	noise_calib_stim_RIGHT.wav	2	27	blb_dichoticlistening_pa-ga.mp3	pa	ga	1	left
6.6.0	win	2023-06-02	03:51:19	04:05:10	824166	6154973c69da7c97996a19f6	2	1	main_z	24	advance_on_keypress_ZEE	74	stimuli_distractor_trianglediamonds.svg	stimuli_target_diamondrectangles.svg	27	yes	57	0	209	6	4	antiphase_hc_sio.wav	1	6	5	noise_calib_stim_RIGHT.wav	2	27	blb_dichoticlistening_pa-ga.mp3	pa	ga	1	left
6.6.0	win	2023-06-02	03:51:19	04:05:11	825836	6154973c69da7c97996a19f6	2	1	main_z	24	main_z	75	stimuli_distractor_trianglediamonds.svg	stimuli_target_squarediamonds.svg	12	yes	44	1	837	6	4	antiphase_hc_sio.wav	1	6	5	noise_calib_stim_RIGHT.wav	2	27	blb_dichoticlistening_pa-ga.mp3	pa	ga	1	left
6.6.0	win	2023-06-02	03:51:19	04:05:11	825836	6154973c69da7c97996a19f6	2	1	main_z	24	advance_on_keypress_ZEE	76	stimuli_distractor_trianglediamonds.svg	stimuli_target_squarediamonds.svg	12	yes	57	0	224	6	4	antiphase_hc_sio.wav	1	6	5	noise_calib_stim_RIGHT.wav	2	27	blb_dichoticlistening_pa-ga.mp3	pa	ga	1	left
6.6.0	win	2023-06-02	03:51:19	04:05:14	828229	6154973c69da7c97996a19f6	2	1	main_z	24	main_z	77	stimuli_target_trianglerectangles.svg	stimuli_distractor_trianglediamonds.svg	17	yes	44	1	1475	6	4	antiphase_hc_sio.wav	1	6	5	noise_calib_stim_RIGHT.wav	2	27	blb_dichoticlistening_pa-ga.mp3	pa	ga	1	left
6.6.0	win	2023-06-02	03:51:19	04:05:14	828229	6154973c69da7c97996a19f6	2	1	main_z	24	advance_on_keypress_ZEE	78	stimuli_target_trianglerectangles.svg	stimuli_distractor_trianglediamonds.svg	17	yes	57	0	166	6	4	antiphase_hc_sio.wav	1	6	5	noise_calib_stim_RIGHT.wav	2	27	blb_dichoticlistening_pa-ga.mp3	pa	ga	1	left
6.6.0	win	2023-06-02	03:51:19	04:05:16	829925	6154973c69da7c97996a19f6	2	1	main_z	24	main_z	79	stimuli_target_diamondsquares.svg	stimuli_distractor_trianglediamonds.svg	20	yes	44	1	906	6	4	antiphase_hc_sio.wav	1	6	5	noise_calib_stim_RIGHT.wav	2	27	blb_dichoticlistening_pa-ga.mp3	pa	ga	1	left
6.6.0	win	2023-06-02	03:51:19	04:05:16	829925	6154973c69da7c97996a19f6	2	1	main_z	24	advance_on_keypress_ZEE	80	stimuli_target_diamondsquares.svg	stimuli_distractor_trianglediamonds.svg	20	yes	57	0	230	6	4	antiphase_hc_sio.wav	1	6	5	noise_calib_stim_RIGHT.wav	2	27	blb_dichoticlistening_pa-ga.mp3	pa	ga	1	left
6.6.0	win	2023-06-02	03:51:19	04:05:17	831659	6154973c69da7c97996a19f6	2	1	main_z	24	main_z	81	stimuli_distractor_trianglediamonds.svg	stimuli_target_squaretriangles.svg	11	yes	44	1	801	6	4	antiphase_hc_sio.wav	1	6	5	noise_calib_stim_RIGHT.wav	2	27	blb_dichoticlistening_pa-ga.mp3	pa	ga	1	left
6.6.0	win	2023-06-02	03:51:19	04:05:17	831659	6154973c69da7c97996a19f6	2	1	main_z	24	advance_on_keypress_ZEE	82	stimuli_distractor_trianglediamonds.svg	stimuli_target_squaretriangles.svg	11	yes	57	0	240	6	4	antiphase_hc_sio.wav	1	6	5	noise_calib_stim_RIGHT.wav	2	27	blb_dichoticlistening_pa-ga.mp3	pa	ga	1	left
6.6.0	win	2023-06-02	03:51:19	04:05:20	834523	6154973c69da7c97996a19f6	2	1	main_z	24	main_z	83	stimuli_distractor_diamondtriangles.svg	stimuli_distractor_trianglediamonds.svg	37	no	0	1	2000	6	4	antiphase_hc_sio.wav	1	6	5	noise_calib_stim_RIGHT.wav	2	27	blb_dichoticlistening_pa-ga.mp3	pa	ga	1	left
6.6.0	win	2023-06-02	03:51:19	04:05:20	834523	6154973c69da7c97996a19f6	2	1	main_z	24	advance_on_keypress_ZEE	84	stimuli_distractor_diamondtriangles.svg	stimuli_distractor_trianglediamonds.svg	37	no	57	0	797	6	4	antiphase_hc_sio.wav	1	6	5	noise_calib_stim_RIGHT.wav	2	27	blb_dichoticlistening_pa-ga.mp3	pa	ga	1	left
6.6.0	win	2023-06-02	03:51:19	04:05:22	836514	6154973c69da7c97996a19f6	2	1	main_z	24	main_z	85	stimuli_target_squarediamonds.svg	stimuli_distractor_trianglediamonds.svg	4	yes	44	1	571	6	4	antiphase_hc_sio.wav	1	6	5	noise_calib_stim_RIGHT.wav	2	27	blb_dichoticlistening_pa-ga.mp3	pa	ga	1	left
6.6.0	win	2023-06-02	03:51:19	04:05:22	836514	6154973c69da7c97996a19f6	2	1	main_z	24	advance_on_keypress_ZEE	86	stimuli_target_squarediamonds.svg	stimuli_distractor_trianglediamonds.svg	4	yes	57	0	187	6	4	antiphase_hc_sio.wav	1	6	5	noise_calib_stim_RIGHT.wav	2	27	blb_dichoticlistening_pa-ga.mp3	pa	ga	1	left
6.6.0	win	2023-06-02	03:51:19	04:05:24	838067	6154973c69da7c97996a19f6	2	1	main_z	24	main_z	87	stimuli_target_rectangletriangles.svg	stimuli_distractor_trianglediamonds.svg	1	yes	44	1	662	6	4	antiphase_hc_sio.wav	1	6	5	noise_calib_stim_RIGHT.wav	2	27	blb_dichoticlistening_pa-ga.mp3	pa	ga	1	left
6.6.0	win	2023-06-02	03:51:19	04:05:24	838067	6154973c69da7c97996a19f6	2	1	main_z	24	advance_on_keypress_ZEE	88	stimuli_target_rectangletriangles.svg	stimuli_distractor_trianglediamonds.svg	1	yes	57	0	240	6	4	antiphase_hc_sio.wav	1	6	5	noise_calib_stim_RIGHT.wav	2	27	blb_dichoticlistening_pa-ga.mp3	pa	ga	1	left
6.6.0	win	2023-06-02	03:51:19	04:05:26	840311	6154973c69da7c97996a19f6	2	1	main_z	24	main_z	89	stimuli_target_diamondsquares.svg	stimuli_distractor_diamondtriangles.svg	24	yes	44	1	1311	6	4	antiphase_hc_sio.wav	1	6	5	noise_calib_stim_RIGHT.wav	2	27	blb_dichoticlistening_pa-ga.mp3	pa	ga	1	left
6.6.0	win	2023-06-02	03:51:19	04:05:26	840311	6154973c69da7c97996a19f6	2	1	main_z	24	advance_on_keypress_ZEE	90	stimuli_target_diamondsquares.svg	stimuli_distractor_diamondtriangles.svg	24	yes	57	0	193	6	4	antiphase_hc_sio.wav	1	6	5	noise_calib_stim_RIGHT.wav	2	27	blb_dichoticlistening_pa-ga.mp3	pa	ga	1	left
6.6.0	win	2023-06-02	03:51:19	04:05:28	842060	6154973c69da7c97996a19f6	2	1	main_z	24	main_z	91	stimuli_target_trianglerectangles.svg	stimuli_distractor_diamondtriangles.svg	21	yes	44	1	932	6	4	antiphase_hc_sio.wav	1	6	5	noise_calib_stim_RIGHT.wav	2	27	blb_dichoticlistening_pa-ga.mp3	pa	ga	1	left
6.6.0	win	2023-06-02	03:51:19	04:05:28	842060	6154973c69da7c97996a19f6	2	1	main_z	24	advance_on_keypress_ZEE	92	stimuli_target_trianglerectangles.svg	stimuli_distractor_diamondtriangles.svg	21	yes	57	0	257	6	4	antiphase_hc_sio.wav	1	6	5	noise_calib_stim_RIGHT.wav	2	27	blb_dichoticlistening_pa-ga.mp3	pa	ga	1	left
6.6.0	win	2023-06-02	03:51:19	04:05:29	843799	6154973c69da7c97996a19f6	2	1	main_z	24	main_z	93	stimuli_target_rectanglediamonds.svg	stimuli_distractor_trianglediamonds.svg	2	yes	44	1	778	6	4	antiphase_hc_sio.wav	1	6	5	noise_calib_stim_RIGHT.wav	2	27	blb_dichoticlistening_pa-ga.mp3	pa	ga	1	left
6.6.0	win	2023-06-02	03:51:19	04:05:29	843799	6154973c69da7c97996a19f6	2	1	main_z	24	advance_on_keypress_ZEE	94	stimuli_target_rectanglediamonds.svg	stimuli_distractor_trianglediamonds.svg	2	yes	57	0	257	6	4	antiphase_hc_sio.wav	1	6	5	noise_calib_stim_RIGHT.wav	2	27	blb_dichoticlistening_pa-ga.mp3	pa	ga	1	left
6.6.0	win	2023-06-02	03:51:19	04:05:31	845496	6154973c69da7c97996a19f6	2	1	main_z	24	main_z	95	stimuli_target_squaretriangles.svg	stimuli_distractor_diamondtriangles.svg	7	yes	44	1	816	6	4	antiphase_hc_sio.wav	1	6	5	noise_calib_stim_RIGHT.wav	2	27	blb_dichoticlistening_pa-ga.mp3	pa	ga	1	left
6.6.0	win	2023-06-02	03:51:19	04:05:31	845496	6154973c69da7c97996a19f6	2	1	main_z	24	advance_on_keypress_ZEE	96	stimuli_target_squaretriangles.svg	stimuli_distractor_diamondtriangles.svg	7	yes	57	0	261	6	4	antiphase_hc_sio.wav	1	6	5	noise_calib_stim_RIGHT.wav	2	27	blb_dichoticlistening_pa-ga.mp3	pa	ga	1	left
6.6.0	win	2023-06-02	03:51:19	04:05:33	847160	6154973c69da7c97996a19f6	2	1	main_z	24	main_z	97	stimuli_distractor_diamondtriangles.svg	stimuli_target_rectangletriangles.svg	13	yes	44	1	779	6	4	antiphase_hc_sio.wav	1	6	5	noise_calib_stim_RIGHT.wav	2	27	blb_dichoticlistening_pa-ga.mp3	pa	ga	1	left
6.6.0	win	2023-06-02	03:51:19	04:05:33	847160	6154973c69da7c97996a19f6	2	1	main_z	24	advance_on_keypress_ZEE	98	stimuli_distractor_diamondtriangles.svg	stimuli_target_rectangletriangles.svg	13	yes	57	0	251	6	4	antiphase_hc_sio.wav	1	6	5	noise_calib_stim_RIGHT.wav	2	27	blb_dichoticlistening_pa-ga.mp3	pa	ga	1	left
6.6.0	win	2023-06-02	03:51:19	04:05:35	849085	6154973c69da7c97996a19f6	2	1	main_z	24	main_z	99	stimuli_distractor_diamondtriangles.svg	stimuli_target_trianglerectangles.svg	29	yes	44	1	1051	6	4	antiphase_hc_sio.wav	1	6	5	noise_calib_stim_RIGHT.wav	2	27	blb_dichoticlistening_pa-ga.mp3	pa	ga	1	left
6.6.0	win	2023-06-02	03:51:19	04:05:35	849085	6154973c69da7c97996a19f6	2	1	main_z	24	advance_on_keypress_ZEE	100	stimuli_distractor_diamondtriangles.svg	stimuli_target_trianglerectangles.svg	29	yes	57	0	204	6	4	antiphase_hc_sio.wav	1	6	5	noise_calib_stim_RIGHT.wav	2	27	blb_dichoticlistening_pa-ga.mp3	pa	ga	1	left
6.6.0	win	2023-06-02	03:51:19	04:05:37	850952	6154973c69da7c97996a19f6	2	1	main_z	24	main_z	101	stimuli_target_diamondrectangles.svg	stimuli_distractor_diamondtriangles.svg	23	yes	44	1	917	6	4	antiphase_hc_sio.wav	1	6	5	noise_calib_stim_RIGHT.wav	2	27	blb_dichoticlistening_pa-ga.mp3	pa	ga	1	left
6.6.0	win	2023-06-02	03:51:19	04:05:37	850952	6154973c69da7c97996a19f6	2	1	main_z	24	advance_on_keypress_ZEE	102	stimuli_target_diamondrectangles.svg	stimuli_distractor_diamondtriangles.svg	23	yes	57	0	192	6	4	antiphase_hc_sio.wav	1	6	5	noise_calib_stim_RIGHT.wav	2	27	blb_dichoticlistening_pa-ga.mp3	pa	ga	1	left
6.6.0	win	2023-06-02	03:51:19	04:05:38	852653	6154973c69da7c97996a19f6	2	1	main_z	24	main_z	103	stimuli_target_diamondrectangles.svg	stimuli_distractor_trianglediamonds.svg	19	yes	44	1	885	6	4	antiphase_hc_sio.wav	1	6	5	noise_calib_stim_RIGHT.wav	2	27	blb_dichoticlistening_pa-ga.mp3	pa	ga	1	left
6.6.0	win	2023-06-02	03:51:19	04:05:38	852653	6154973c69da7c97996a19f6	2	1	main_z	24	advance_on_keypress_ZEE	104	stimuli_target_diamondrectangles.svg	stimuli_distractor_trianglediamonds.svg	19	yes	57	0	214	6	4	antiphase_hc_sio.wav	1	6	5	noise_calib_stim_RIGHT.wav	2	27	blb_dichoticlistening_pa-ga.mp3	pa	ga	1	left
6.6.0	win	2023-06-02	03:51:19	04:05:41	855564	6154973c69da7c97996a19f6	2	1	main_z	24	main_z	105	stimuli_distractor_diamondtriangles.svg	stimuli_distractor_diamondtriangles.svg	39	no	0	1	2000	6	4	antiphase_hc_sio.wav	1	6	5	noise_calib_stim_RIGHT.wav	2	27	blb_dichoticlistening_pa-ga.mp3	pa	ga	1	left
6.6.0	win	2023-06-02	03:51:19	04:05:41	855564	6154973c69da7c97996a19f6	2	1	main_z	24	advance_on_keypress_ZEE	106	stimuli_distractor_diamondtriangles.svg	stimuli_distractor_diamondtriangles.svg	39	no	57	0	510	6	4	antiphase_hc_sio.wav	1	6	5	noise_calib_stim_RIGHT.wav	2	27	blb_dichoticlistening_pa-ga.mp3	pa	ga	1	left
6.6.0	win	2023-06-02	03:51:19	04:05:44	858699	6154973c69da7c97996a19f6	2	1	main_z	24	main_z	107	stimuli_distractor_diamondtriangles.svg	stimuli_distractor_diamondtriangles.svg	40	no	0	1	2000	6	4	antiphase_hc_sio.wav	1	6	5	noise_calib_stim_RIGHT.wav	2	27	blb_dichoticlistening_pa-ga.mp3	pa	ga	1	left
6.6.0	win	2023-06-02	03:51:19	04:05:44	858699	6154973c69da7c97996a19f6	2	1	main_z	24	advance_on_keypress_ZEE	108	stimuli_distractor_diamondtriangles.svg	stimuli_distractor_diamondtriangles.svg	40	no	57	0	311	6	4	antiphase_hc_sio.wav	1	6	5	noise_calib_stim_RIGHT.wav	2	27	blb_dichoticlistening_pa-ga.mp3	pa	ga	1	left
6.6.0	win	2023-06-02	03:51:19	04:05:46	860428	6154973c69da7c97996a19f6	2	1	main_z	24	main_z	109	stimuli_distractor_trianglediamonds.svg	stimuli_target_trianglesquares.svg	26	yes	44	1	794	6	4	antiphase_hc_sio.wav	1	6	5	noise_calib_stim_RIGHT.wav	2	27	blb_dichoticlistening_pa-ga.mp3	pa	ga	1	left
6.6.0	win	2023-06-02	03:51:19	04:05:46	860428	6154973c69da7c97996a19f6	2	1	main_z	24	advance_on_keypress_ZEE	110	stimuli_distractor_trianglediamonds.svg	stimuli_target_trianglesquares.svg	26	yes	57	0	198	6	4	antiphase_hc_sio.wav	1	6	5	noise_calib_stim_RIGHT.wav	2	27	blb_dichoticlistening_pa-ga.mp3	pa	ga	1	left
6.6.0	win	2023-06-02	03:51:19	04:05:48	862066	6154973c69da7c97996a19f6	2	1	main_z	24	main_z	111	stimuli_distractor_trianglediamonds.svg	stimuli_target_diamondrectangles.svg	27	yes	44	1	816	6	4	antiphase_hc_sio.wav	1	6	5	noise_calib_stim_RIGHT.wav	2	27	blb_dichoticlistening_pa-ga.mp3	pa	ga	1	left
6.6.0	win	2023-06-02	03:51:19	04:05:48	862066	6154973c69da7c97996a19f6	2	1	main_z	24	advance_on_keypress_ZEE	112	stimuli_distractor_trianglediamonds.svg	stimuli_target_diamondrectangles.svg	27	yes	57	0	177	6	4	antiphase_hc_sio.wav	1	6	5	noise_calib_stim_RIGHT.wav	2	27	blb_dichoticlistening_pa-ga.mp3	pa	ga	1	left
6.6.0	win	2023-06-02	03:51:19	04:05:49	863799	6154973c69da7c97996a19f6	2	1	main_z	24	main_z	113	stimuli_target_diamondsquares.svg	stimuli_distractor_trianglediamonds.svg	20	yes	44	1	858	6	4	antiphase_hc_sio.wav	1	6	5	noise_calib_stim_RIGHT.wav	2	27	blb_dichoticlistening_pa-ga.mp3	pa	ga	1	left
6.6.0	win	2023-06-02	03:51:19	04:05:49	863799	6154973c69da7c97996a19f6	2	1	main_z	24	advance_on_keypress_ZEE	114	stimuli_target_diamondsquares.svg	stimuli_distractor_trianglediamonds.svg	20	yes	57	0	168	6	4	antiphase_hc_sio.wav	1	6	5	noise_calib_stim_RIGHT.wav	2	27	blb_dichoticlistening_pa-ga.mp3	pa	ga	1	left
6.6.0	win	2023-06-02	03:51:19	04:05:52	866676	6154973c69da7c97996a19f6	2	1	main_z	24	main_z	115	stimuli_target_squarediamonds.svg	stimuli_distractor_diamondtriangles.svg	8	yes	0	0	2000	6	4	antiphase_hc_sio.wav	1	6	5	noise_calib_stim_RIGHT.wav	2	27	blb_dichoticlistening_pa-ga.mp3	pa	ga	1	left
6.6.0	win	2023-06-02	03:51:19	04:05:52	866676	6154973c69da7c97996a19f6	2	1	main_z	24	advance_on_keypress_ZEE	116	stimuli_target_squarediamonds.svg	stimuli_distractor_diamondtriangles.svg	8	yes	57	0	582	6	4	antiphase_hc_sio.wav	1	6	5	noise_calib_stim_RIGHT.wav	2	27	blb_dichoticlistening_pa-ga.mp3	pa	ga	1	left
6.6.0	win	2023-06-02	03:51:19	04:05:56	869882	6154973c69da7c97996a19f6	2	1	main_z	24	main_z	117	stimuli_distractor_trianglediamonds.svg	stimuli_distractor_trianglediamonds.svg	34	no	0	1	2000	6	4	antiphase_hc_sio.wav	1	6	5	noise_calib_stim_RIGHT.wav	2	27	blb_dichoticlistening_pa-ga.mp3	pa	ga	1	left
6.6.0	win	2023-06-02	03:51:19	04:05:56	869882	6154973c69da7c97996a19f6	2	1	main_z	24	advance_on_keypress_ZEE	118	stimuli_distractor_trianglediamonds.svg	stimuli_distractor_trianglediamonds.svg	34	no	57	0	503	6	4	antiphase_hc_sio.wav	1	6	5	noise_calib_stim_RIGHT.wav	2	27	blb_dichoticlistening_pa-ga.mp3	pa	ga	1	left
6.6.0	win	2023-06-02	03:51:19	04:05:58	871856	6154973c69da7c97996a19f6	2	1	main_z	24	main_z	119	stimuli_target_trianglesquares.svg	stimuli_distractor_diamondtriangles.svg	22	yes	44	1	848	6	4	antiphase_hc_sio.wav	1	6	5	noise_calib_stim_RIGHT.wav	2	27	blb_dichoticlistening_pa-ga.mp3	pa	ga	1	left
6.6.0	win	2023-06-02	03:51:19	04:05:58	871856	6154973c69da7c97996a19f6	2	1	main_z	24	advance_on_keypress_ZEE	120	stimuli_target_trianglesquares.svg	stimuli_distractor_diamondtriangles.svg	22	yes	57	0	187	6	4	antiphase_hc_sio.wav	1	6	5	noise_calib_stim_RIGHT.wav	2	27	blb_dichoticlistening_pa-ga.mp3	pa	ga	1	left
6.6.0	win	2023-06-02	03:51:19	04:05:59	873441	6154973c69da7c97996a19f6	2	1	main_z	24	main_z	121	stimuli_distractor_diamondtriangles.svg	stimuli_target_diamondrectangles.svg	31	yes	44	1	707	6	4	antiphase_hc_sio.wav	1	6	5	noise_calib_stim_RIGHT.wav	2	27	blb_dichoticlistening_pa-ga.mp3	pa	ga	1	left
6.6.0	win	2023-06-02	03:51:19	04:05:59	873441	6154973c69da7c97996a19f6	2	1	main_z	24	advance_on_keypress_ZEE	122	stimuli_distractor_diamondtriangles.svg	stimuli_target_diamondrectangles.svg	31	yes	57	0	187	6	4	antiphase_hc_sio.wav	1	6	5	noise_calib_stim_RIGHT.wav	2	27	blb_dichoticlistening_pa-ga.mp3	pa	ga	1	left
6.6.0	win	2023-06-02	03:51:19	04:06:01	875100	6154973c69da7c97996a19f6	2	1	main_z	24	main_z	123	stimuli_target_rectangletriangles.svg	stimuli_distractor_diamondtriangles.svg	5	yes	44	1	781	6	4	antiphase_hc_sio.wav	1	6	5	noise_calib_stim_RIGHT.wav	2	27	blb_dichoticlistening_pa-ga.mp3	pa	ga	1	left
6.6.0	win	2023-06-02	03:51:19	04:06:01	875100	6154973c69da7c97996a19f6	2	1	main_z	24	advance_on_keypress_ZEE	124	stimuli_target_rectangletriangles.svg	stimuli_distractor_diamondtriangles.svg	5	yes	57	0	193	6	4	antiphase_hc_sio.wav	1	6	5	noise_calib_stim_RIGHT.wav	2	27	blb_dichoticlistening_pa-ga.mp3	pa	ga	1	left
6.6.0	win	2023-06-02	03:51:19	04:06:02	876690	6154973c69da7c97996a19f6	2	1	main_z	24	main_z	125	stimuli_target_trianglesquares.svg	stimuli_distractor_trianglediamonds.svg	18	yes	44	1	773	6	4	antiphase_hc_sio.wav	1	6	5	noise_calib_stim_RIGHT.wav	2	27	blb_dichoticlistening_pa-ga.mp3	pa	ga	1	left
6.6.0	win	2023-06-02	03:51:19	04:06:02	876690	6154973c69da7c97996a19f6	2	1	main_z	24	advance_on_keypress_ZEE	126	stimuli_target_trianglesquares.svg	stimuli_distractor_trianglediamonds.svg	18	yes	57	0	182	6	4	antiphase_hc_sio.wav	1	6	5	noise_calib_stim_RIGHT.wav	2	27	blb_dichoticlistening_pa-ga.mp3	pa	ga	1	left
6.6.0	win	2023-06-02	03:51:19	04:06:04	878349	6154973c69da7c97996a19f6	2	1	main_z	24	main_z	127	stimuli_distractor_trianglediamonds.svg	stimuli_target_squarediamonds.svg	12	yes	44	1	777	6	4	antiphase_hc_sio.wav	1	6	5	noise_calib_stim_RIGHT.wav	2	27	blb_dichoticlistening_pa-ga.mp3	pa	ga	1	left
6.6.0	win	2023-06-02	03:51:19	04:06:04	878349	6154973c69da7c97996a19f6	2	1	main_z	24	advance_on_keypress_ZEE	128	stimuli_distractor_trianglediamonds.svg	stimuli_target_squarediamonds.svg	12	yes	57	0	203	6	4	antiphase_hc_sio.wav	1	6	5	noise_calib_stim_RIGHT.wav	2	27	blb_dichoticlistening_pa-ga.mp3	pa	ga	1	left
6.6.0	win	2023-06-02	03:51:19	04:06:06	879923	6154973c69da7c97996a19f6	2	1	main_z	24	main_z	129	stimuli_distractor_diamondtriangles.svg	stimuli_target_diamondsquares.svg	32	yes	44	1	747	6	4	antiphase_hc_sio.wav	1	6	5	noise_calib_stim_RIGHT.wav	2	27	blb_dichoticlistening_pa-ga.mp3	pa	ga	1	left
6.6.0	win	2023-06-02	03:51:19	04:06:06	879923	6154973c69da7c97996a19f6	2	1	main_z	24	advance_on_keypress_ZEE	130	stimuli_distractor_diamondtriangles.svg	stimuli_target_diamondsquares.svg	32	yes	57	0	187	6	4	antiphase_hc_sio.wav	1	6	5	noise_calib_stim_RIGHT.wav	2	27	blb_dichoticlistening_pa-ga.mp3	pa	ga	1	left
6.6.0	win	2023-06-02	03:51:19	04:06:07	881449	6154973c69da7c97996a19f6	2	1	main_z	24	main_z	131	stimuli_distractor_trianglediamonds.svg	stimuli_target_diamondsquares.svg	28	yes	44	1	641	6	4	antiphase_hc_sio.wav	1	6	5	noise_calib_stim_RIGHT.wav	2	27	blb_dichoticlistening_pa-ga.mp3	pa	ga	1	left
6.6.0	win	2023-06-02	03:51:19	04:06:07	881449	6154973c69da7c97996a19f6	2	1	main_z	24	advance_on_keypress_ZEE	132	stimuli_distractor_trianglediamonds.svg	stimuli_target_diamondsquares.svg	28	yes	57	0	209	6	4	antiphase_hc_sio.wav	1	6	5	noise_calib_stim_RIGHT.wav	2	27	blb_dichoticlistening_pa-ga.mp3	pa	ga	1	left
6.6.0	win	2023-06-02	03:51:19	04:06:09	883087	6154973c69da7c97996a19f6	2	1	main_z	24	main_z	133	stimuli_distractor_trianglediamonds.svg	stimuli_target_trianglerectangles.svg	25	yes	44	1	805	6	4	antiphase_hc_sio.wav	1	6	5	noise_calib_stim_RIGHT.wav	2	27	blb_dichoticlistening_pa-ga.mp3	pa	ga	1	left
6.6.0	win	2023-06-02	03:51:19	04:06:09	883087	6154973c69da7c97996a19f6	2	1	main_z	24	advance_on_keypress_ZEE	134	stimuli_distractor_trianglediamonds.svg	stimuli_target_trianglerectangles.svg	25	yes	57	0	209	6	4	antiphase_hc_sio.wav	1	6	5	noise_calib_stim_RIGHT.wav	2	27	blb_dichoticlistening_pa-ga.mp3	pa	ga	1	left
6.6.0	win	2023-06-02	03:51:19	04:06:11	885071	6154973c69da7c97996a19f6	2	1	main_z	24	main_z	135	stimuli_target_squaretriangles.svg	stimuli_distractor_trianglediamonds.svg	3	yes	44	1	1076	6	4	antiphase_hc_sio.wav	1	6	5	noise_calib_stim_RIGHT.wav	2	27	blb_dichoticlistening_pa-ga.mp3	pa	ga	1	left
6.6.0	win	2023-06-02	03:51:19	04:06:11	885071	6154973c69da7c97996a19f6	2	1	main_z	24	advance_on_keypress_ZEE	136	stimuli_target_squaretriangles.svg	stimuli_distractor_trianglediamonds.svg	3	yes	57	0	171	6	4	antiphase_hc_sio.wav	1	6	5	noise_calib_stim_RIGHT.wav	2	27	blb_dichoticlistening_pa-ga.mp3	pa	ga	1	left
6.6.0	win	2023-06-02	03:51:19	04:06:13	886974	6154973c69da7c97996a19f6	2	1	main_z	24	main_z	137	stimuli_distractor_diamondtriangles.svg	stimuli_target_trianglesquares.svg	30	yes	44	1	1027	6	4	antiphase_hc_sio.wav	1	6	5	noise_calib_stim_RIGHT.wav	2	27	blb_dichoticlistening_pa-ga.mp3	pa	ga	1	left
6.6.0	win	2023-06-02	03:51:19	04:06:13	886974	6154973c69da7c97996a19f6	2	1	main_z	24	advance_on_keypress_ZEE	138	stimuli_distractor_diamondtriangles.svg	stimuli_target_trianglesquares.svg	30	yes	57	0	161	6	4	antiphase_hc_sio.wav	1	6	5	noise_calib_stim_RIGHT.wav	2	27	blb_dichoticlistening_pa-ga.mp3	pa	ga	1	left
6.6.0	win	2023-06-02	03:51:19	04:06:14	888623	6154973c69da7c97996a19f6	2	1	main_z	24	main_z	139	stimuli_distractor_trianglediamonds.svg	stimuli_target_rectangletriangles.svg	9	yes	44	1	791	6	4	antiphase_hc_sio.wav	1	6	5	noise_calib_stim_RIGHT.wav	2	27	blb_dichoticlistening_pa-ga.mp3	pa	ga	1	left
6.6.0	win	2023-06-02	03:51:19	04:06:14	888623	6154973c69da7c97996a19f6	2	1	main_z	24	advance_on_keypress_ZEE	140	stimuli_distractor_trianglediamonds.svg	stimuli_target_rectangletriangles.svg	9	yes	57	0	198	6	4	antiphase_hc_sio.wav	1	6	5	noise_calib_stim_RIGHT.wav	2	27	blb_dichoticlistening_pa-ga.mp3	pa	ga	1	left
6.6.0	win	2023-06-02	03:51:19	04:06:16	890384	6154973c69da7c97996a19f6	2	1	main_z	24	main_z	141	stimuli_distractor_diamondtriangles.svg	stimuli_target_squaretriangles.svg	15	yes	44	1	866	6	4	antiphase_hc_sio.wav	1	6	5	noise_calib_stim_RIGHT.wav	2	27	blb_dichoticlistening_pa-ga.mp3	pa	ga	1	left
6.6.0	win	2023-06-02	03:51:19	04:06:16	890384	6154973c69da7c97996a19f6	2	1	main_z	24	advance_on_keypress_ZEE	142	stimuli_distractor_diamondtriangles.svg	stimuli_target_squaretriangles.svg	15	yes	57	0	172	6	4	antiphase_hc_sio.wav	1	6	5	noise_calib_stim_RIGHT.wav	2	27	blb_dichoticlistening_pa-ga.mp3	pa	ga	1	left
6.6.0	win	2023-06-02	03:51:19	04:06:19	893179	6154973c69da7c97996a19f6	2	1	main_z	24	main_z	143	stimuli_distractor_diamondtriangles.svg	stimuli_distractor_trianglediamonds.svg	38	no	0	1	2000	6	4	antiphase_hc_sio.wav	1	6	5	noise_calib_stim_RIGHT.wav	2	27	blb_dichoticlistening_pa-ga.mp3	pa	ga	1	left
6.6.0	win	2023-06-02	03:51:19	04:06:19	893179	6154973c69da7c97996a19f6	2	1	main_z	24	advance_on_keypress_ZEE	144	stimuli_distractor_diamondtriangles.svg	stimuli_distractor_trianglediamonds.svg	38	no	57	0	690	6	4	antiphase_hc_sio.wav	1	6	5	noise_calib_stim_RIGHT.wav	2	27	blb_dichoticlistening_pa-ga.mp3	pa	ga	1	left
6.6.0	win	2023-06-02	03:51:19	04:06:22	896493	6154973c69da7c97996a19f6	2	1	main_z	24	main_z	145	stimuli_distractor_trianglediamonds.svg	stimuli_distractor_diamondtriangles.svg	35	no	0	1	2000	6	4	antiphase_hc_sio.wav	1	6	5	noise_calib_stim_RIGHT.wav	2	27	blb_dichoticlistening_pa-ga.mp3	pa	ga	1	left
6.6.0	win	2023-06-02	03:51:19	04:06:22	896493	6154973c69da7c97996a19f6	2	1	main_z	24	advance_on_keypress_ZEE	146	stimuli_distractor_trianglediamonds.svg	stimuli_distractor_diamondtriangles.svg	35	no	57	0	385	6	4	antiphase_hc_sio.wav	1	6	5	noise_calib_stim_RIGHT.wav	2	27	blb_dichoticlistening_pa-ga.mp3	pa	ga	1	left
6.6.0	win	2023-06-02	03:51:19	04:06:24	898206	6154973c69da7c97996a19f6	2	1	main_z	24	main_z	147	stimuli_distractor_trianglediamonds.svg	stimuli_target_rectanglediamonds.svg	10	yes	44	1	704	6	4	antiphase_hc_sio.wav	1	6	5	noise_calib_stim_RIGHT.wav	2	27	blb_dichoticlistening_pa-ga.mp3	pa	ga	1	left
6.6.0	win	2023-06-02	03:51:19	04:06:24	898206	6154973c69da7c97996a19f6	2	1	main_z	24	advance_on_keypress_ZEE	148	stimuli_distractor_trianglediamonds.svg	stimuli_target_rectanglediamonds.svg	10	yes	57	0	171	6	4	antiphase_hc_sio.wav	1	6	5	noise_calib_stim_RIGHT.wav	2	27	blb_dichoticlistening_pa-ga.mp3	pa	ga	1	left
6.6.0	win	2023-06-02	03:51:19	04:06:27	901001	6154973c69da7c97996a19f6	2	1	main_z	24	main_z	149	stimuli_distractor_trianglediamonds.svg	stimuli_distractor_trianglediamonds.svg	33	no	0	1	2000	6	4	antiphase_hc_sio.wav	1	6	5	noise_calib_stim_RIGHT.wav	2	27	blb_dichoticlistening_pa-ga.mp3	pa	ga	1	left
6.6.0	win	2023-06-02	03:51:19	04:06:27	901001	6154973c69da7c97996a19f6	2	1	main_z	24	advance_on_keypress_ZEE	150	stimuli_distractor_trianglediamonds.svg	stimuli_distractor_trianglediamonds.svg	33	no	57	0	420	6	4	antiphase_hc_sio.wav	1	6	5	noise_calib_stim_RIGHT.wav	2	27	blb_dichoticlistening_pa-ga.mp3	pa	ga	1	left
6.6.0	win	2023-06-02	03:51:19	04:06:28	902779	6154973c69da7c97996a19f6	2	1	main_z	24	main_z	151	stimuli_target_trianglerectangles.svg	stimuli_distractor_trianglediamonds.svg	17	yes	44	1	736	6	4	antiphase_hc_sio.wav	1	6	5	noise_calib_stim_RIGHT.wav	2	27	blb_dichoticlistening_pa-ga.mp3	pa	ga	1	left
6.6.0	win	2023-06-02	03:51:19	04:06:28	902779	6154973c69da7c97996a19f6	2	1	main_z	24	advance_on_keypress_ZEE	152	stimuli_target_trianglerectangles.svg	stimuli_distractor_trianglediamonds.svg	17	yes	57	0	167	6	4	antiphase_hc_sio.wav	1	6	5	noise_calib_stim_RIGHT.wav	2	27	blb_dichoticlistening_pa-ga.mp3	pa	ga	1	left
6.6.0	win	2023-06-02	03:51:19	04:06:30	904475	6154973c69da7c97996a19f6	2	1	main_z	24	main_z	153	stimuli_target_rectanglediamonds.svg	stimuli_distractor_diamondtriangles.svg	6	yes	44	1	828	6	4	antiphase_hc_sio.wav	1	6	5	noise_calib_stim_RIGHT.wav	2	27	blb_dichoticlistening_pa-ga.mp3	pa	ga	1	left
6.6.0	win	2023-06-02	03:51:19	04:06:30	904475	6154973c69da7c97996a19f6	2	1	main_z	24	advance_on_keypress_ZEE	154	stimuli_target_rectanglediamonds.svg	stimuli_distractor_diamondtriangles.svg	6	yes	57	0	172	6	4	antiphase_hc_sio.wav	1	6	5	noise_calib_stim_RIGHT.wav	2	27	blb_dichoticlistening_pa-ga.mp3	pa	ga	1	left
6.6.0	win	2023-06-02	03:51:19	04:06:32	906098	6154973c69da7c97996a19f6	2	1	main_z	24	main_z	155	stimuli_distractor_diamondtriangles.svg	stimuli_target_squarediamonds.svg	16	yes	44	1	748	6	4	antiphase_hc_sio.wav	1	6	5	noise_calib_stim_RIGHT.wav	2	27	blb_dichoticlistening_pa-ga.mp3	pa	ga	1	left
6.6.0	win	2023-06-02	03:51:19	04:06:32	906098	6154973c69da7c97996a19f6	2	1	main_z	24	advance_on_keypress_ZEE	156	stimuli_distractor_diamondtriangles.svg	stimuli_target_squarediamonds.svg	16	yes	57	0	172	6	4	antiphase_hc_sio.wav	1	6	5	noise_calib_stim_RIGHT.wav	2	27	blb_dichoticlistening_pa-ga.mp3	pa	ga	1	left
6.6.0	win	2023-06-02	03:51:19	04:06:33	907703	6154973c69da7c97996a19f6	2	1	main_z	24	main_z	157	stimuli_distractor_diamondtriangles.svg	stimuli_target_rectanglediamonds.svg	14	yes	44	1	736	6	4	antiphase_hc_sio.wav	1	6	5	noise_calib_stim_RIGHT.wav	2	27	blb_dichoticlistening_pa-ga.mp3	pa	ga	1	left
6.6.0	win	2023-06-02	03:51:19	04:06:33	907703	6154973c69da7c97996a19f6	2	1	main_z	24	advance_on_keypress_ZEE	158	stimuli_distractor_diamondtriangles.svg	stimuli_target_rectanglediamonds.svg	14	yes	57	0	124	6	4	antiphase_hc_sio.wav	1	6	5	noise_calib_stim_RIGHT.wav	2	27	blb_dichoticlistening_pa-ga.mp3	pa	ga	1	left
6.6.0	win	2023-06-02	03:51:19	04:06:36	910519	6154973c69da7c97996a19f6	2	1	main_z	24	main_z	159	stimuli_distractor_trianglediamonds.svg	stimuli_distractor_diamondtriangles.svg	36	no	0	1	2000	6	4	antiphase_hc_sio.wav	1	6	5	noise_calib_stim_RIGHT.wav	2	27	blb_dichoticlistening_pa-ga.mp3	pa	ga	1	left
6.6.0	win	2023-06-02	03:51:19	04:06:36	910519	6154973c69da7c97996a19f6	2	1	main_z	24	advance_on_keypress_ZEE	160	stimuli_distractor_trianglediamonds.svg	stimuli_distractor_diamondtriangles.svg	36	no	57	0	297	6	4	antiphase_hc_sio.wav	1	6	5	noise_calib_stim_RIGHT.wav	2	27	blb_dichoticlistening_pa-ga.mp3	pa	ga	1	left
6.6.0	win	2023-06-02	03:51:19	04:07:08	942143	6154973c69da7c97996a19f6	2	1	practice_slash	26	practice_slash	1	stimuli_target_diamondsquares.svg	stimuli_distractor_diamondtriangles.svg	3	yes	53	1	717	6	4	antiphase_hc_sio.wav	1	6	5	noise_calib_stim_RIGHT.wav	2	27	blb_dichoticlistening_pa-ga.mp3	pa	ga	1	left
6.6.0	win	2023-06-02	03:51:19	04:07:08	942143	6154973c69da7c97996a19f6	2	1	practice_slash	26	advance_on_keypress_SLASH	2	stimuli_target_diamondsquares.svg	stimuli_distractor_diamondtriangles.svg	3	yes	57	0	486	6	4	antiphase_hc_sio.wav	1	6	5	noise_calib_stim_RIGHT.wav	2	27	blb_dichoticlistening_pa-ga.mp3	pa	ga	1	left
6.6.0	win	2023-06-02	03:51:19	04:07:11	945115	6154973c69da7c97996a19f6	2	1	practice_slash	26	practice_slash	3	stimuli_target_rectanglediamonds.svg	stimuli_distractor_diamondtriangles.svg	1	yes	53	1	716	6	4	antiphase_hc_sio.wav	1	6	5	noise_calib_stim_RIGHT.wav	2	27	blb_dichoticlistening_pa-ga.mp3	pa	ga	1	left
6.6.0	win	2023-06-02	03:51:19	04:07:11	945115	6154973c69da7c97996a19f6	2	1	practice_slash	26	advance_on_keypress_SLASH	4	stimuli_target_rectanglediamonds.svg	stimuli_distractor_diamondtriangles.svg	1	yes	57	0	331	6	4	antiphase_hc_sio.wav	1	6	5	noise_calib_stim_RIGHT.wav	2	27	blb_dichoticlistening_pa-ga.mp3	pa	ga	1	left
6.6.0	win	2023-06-02	03:51:19	04:07:15	949153	6154973c69da7c97996a19f6	2	1	practice_slash	26	practice_slash	5	stimuli_distractor_diamondtriangles.svg	stimuli_distractor_trianglediamonds.svg	14	no	0	1	2000	6	4	antiphase_hc_sio.wav	1	6	5	noise_calib_stim_RIGHT.wav	2	27	blb_dichoticlistening_pa-ga.mp3	pa	ga	1	left
6.6.0	win	2023-06-02	03:51:19	04:07:15	949153	6154973c69da7c97996a19f6	2	1	practice_slash	26	advance_on_keypress_SLASH	6	stimuli_distractor_diamondtriangles.svg	stimuli_distractor_trianglediamonds.svg	14	no	57	0	409	6	4	antiphase_hc_sio.wav	1	6	5	noise_calib_stim_RIGHT.wav	2	27	blb_dichoticlistening_pa-ga.mp3	pa	ga	1	left
6.6.0	win	2023-06-02	03:51:19	04:07:18	952013	6154973c69da7c97996a19f6	2	1	practice_slash	26	practice_slash	7	stimuli_distractor_trianglediamonds.svg	stimuli_target_squarediamonds.svg	11	yes	53	1	756	6	4	antiphase_hc_sio.wav	1	6	5	noise_calib_stim_RIGHT.wav	2	27	blb_dichoticlistening_pa-ga.mp3	pa	ga	1	left
6.6.0	win	2023-06-02	03:51:19	04:07:18	952013	6154973c69da7c97996a19f6	2	1	practice_slash	26	advance_on_keypress_SLASH	8	stimuli_distractor_trianglediamonds.svg	stimuli_target_squarediamonds.svg	11	yes	57	0	367	6	4	antiphase_hc_sio.wav	1	6	5	noise_calib_stim_RIGHT.wav	2	27	blb_dichoticlistening_pa-ga.mp3	pa	ga	1	left
6.6.0	win	2023-06-02	03:51:19	04:07:22	956077	6154973c69da7c97996a19f6	2	1	practice_slash	26	practice_slash	9	stimuli_distractor_trianglediamonds.svg	stimuli_distractor_diamondtriangles.svg	16	no	0	1	2000	6	4	antiphase_hc_sio.wav	1	6	5	noise_calib_stim_RIGHT.wav	2	27	blb_dichoticlistening_pa-ga.mp3	pa	ga	1	left
6.6.0	win	2023-06-02	03:51:19	04:07:22	956077	6154973c69da7c97996a19f6	2	1	practice_slash	26	advance_on_keypress_SLASH	10	stimuli_distractor_trianglediamonds.svg	stimuli_distractor_diamondtriangles.svg	16	no	57	0	388	6	4	antiphase_hc_sio.wav	1	6	5	noise_calib_stim_RIGHT.wav	2	27	blb_dichoticlistening_pa-ga.mp3	pa	ga	1	left
6.6.0	win	2023-06-02	03:51:19	04:07:26	960164	6154973c69da7c97996a19f6	2	1	practice_slash	26	practice_slash	11	stimuli_distractor_diamondtriangles.svg	stimuli_distractor_diamondtriangles.svg	13	no	0	1	2000	6	4	antiphase_hc_sio.wav	1	6	5	noise_calib_stim_RIGHT.wav	2	27	blb_dichoticlistening_pa-ga.mp3	pa	ga	1	left
6.6.0	win	2023-06-02	03:51:19	04:07:26	960164	6154973c69da7c97996a19f6	2	1	practice_slash	26	advance_on_keypress_SLASH	12	stimuli_distractor_diamondtriangles.svg	stimuli_distractor_diamondtriangles.svg	13	no	57	0	411	6	4	antiphase_hc_sio.wav	1	6	5	noise_calib_stim_RIGHT.wav	2	27	blb_dichoticlistening_pa-ga.mp3	pa	ga	1	left
6.6.0	win	2023-06-02	03:51:19	04:07:29	962984	6154973c69da7c97996a19f6	2	1	practice_slash	26	practice_slash	13	stimuli_target_diamondsquares.svg	stimuli_distractor_trianglediamonds.svg	6	yes	53	1	716	6	4	antiphase_hc_sio.wav	1	6	5	noise_calib_stim_RIGHT.wav	2	27	blb_dichoticlistening_pa-ga.mp3	pa	ga	1	left
6.6.0	win	2023-06-02	03:51:19	04:07:29	962984	6154973c69da7c97996a19f6	2	1	practice_slash	26	advance_on_keypress_SLASH	14	stimuli_target_diamondsquares.svg	stimuli_distractor_trianglediamonds.svg	6	yes	57	0	425	6	4	antiphase_hc_sio.wav	1	6	5	noise_calib_stim_RIGHT.wav	2	27	blb_dichoticlistening_pa-ga.mp3	pa	ga	1	left
6.6.0	win	2023-06-02	03:51:19	04:07:32	965983	6154973c69da7c97996a19f6	2	1	practice_slash	26	practice_slash	15	stimuli_distractor_diamondtriangles.svg	stimuli_target_rectangletriangles.svg	7	yes	53	1	879	6	4	antiphase_hc_sio.wav	1	6	5	noise_calib_stim_RIGHT.wav	2	27	blb_dichoticlistening_pa-ga.mp3	pa	ga	1	left
6.6.0	win	2023-06-02	03:51:19	04:07:32	965983	6154973c69da7c97996a19f6	2	1	practice_slash	26	advance_on_keypress_SLASH	16	stimuli_distractor_diamondtriangles.svg	stimuli_target_rectangletriangles.svg	7	yes	57	0	388	6	4	antiphase_hc_sio.wav	1	6	5	noise_calib_stim_RIGHT.wav	2	27	blb_dichoticlistening_pa-ga.mp3	pa	ga	1	left
6.6.0	win	2023-06-02	03:51:19	04:07:35	968887	6154973c69da7c97996a19f6	2	1	practice_slash	26	practice_slash	17	stimuli_target_squarediamonds.svg	stimuli_distractor_trianglediamonds.svg	5	yes	53	1	813	6	4	antiphase_hc_sio.wav	1	6	5	noise_calib_stim_RIGHT.wav	2	27	blb_dichoticlistening_pa-ga.mp3	pa	ga	1	left
6.6.0	win	2023-06-02	03:51:19	04:07:35	968887	6154973c69da7c97996a19f6	2	1	practice_slash	26	advance_on_keypress_SLASH	18	stimuli_target_squarediamonds.svg	stimuli_distractor_trianglediamonds.svg	5	yes	57	0	377	6	4	antiphase_hc_sio.wav	1	6	5	noise_calib_stim_RIGHT.wav	2	27	blb_dichoticlistening_pa-ga.mp3	pa	ga	1	left
