build	computer.platform	date	time	timestamp	time_elapsed_ms	subject	group	session	blockcode	blocknum	trialcode	trialnum	stimulus_left	stimulus_right	stim_index	target_present	response	correct	latency	headphonecheck_countTestTrials	headphonecheck_index	headphonecheck_testSound	headphonecheck_correctResponse	stereocheck_countTestTrials	stereocheck_index	stereocheck_testSound	stereocheck_correctResponse	DL_index	DL_soundfile	DL_leftSound	DL_rightSound	DL_dualSound	DL_choice
6.6.1	mac	2023-06-28	14:47:06	14:49:37	148225	57739704c1b42d0001a58ae6	3	1	practice_slash	5	practice_slash	1	stimuli_target_squarediamonds.svg	stimuli_distractor_trianglediamonds.svg	5	yes	53	1	581	0	0			0	0			1				0	
6.6.1	mac	2023-06-28	14:47:06	14:49:37	148225	57739704c1b42d0001a58ae6	3	1	practice_slash	5	advance_on_keypress_SLASH	2	stimuli_target_squarediamonds.svg	stimuli_distractor_trianglediamonds.svg	5	yes	57	0	1346	0	0			0	0			1				0	
6.6.1	mac	2023-06-28	14:47:06	14:49:41	151738	57739704c1b42d0001a58ae6	3	1	practice_slash	5	practice_slash	3	stimuli_distractor_trianglediamonds.svg	stimuli_target_rectanglediamonds.svg	10	yes	53	1	527	0	0			0	0			1				0	
6.6.1	mac	2023-06-28	14:47:06	14:49:41	151738	57739704c1b42d0001a58ae6	3	1	practice_slash	5	advance_on_keypress_SLASH	4	stimuli_distractor_trianglediamonds.svg	stimuli_target_rectanglediamonds.svg	10	yes	57	0	1125	0	0			0	0			1				0	
6.6.1	mac	2023-06-28	14:47:06	14:49:44	155252	57739704c1b42d0001a58ae6	3	1	practice_slash	5	practice_slash	5	stimuli_target_diamondsquares.svg	stimuli_distractor_diamondtriangles.svg	3	yes	53	1	776	0	0			0	0			1				0	
6.6.1	mac	2023-06-28	14:47:06	14:49:44	155252	57739704c1b42d0001a58ae6	3	1	practice_slash	5	advance_on_keypress_SLASH	6	stimuli_target_diamondsquares.svg	stimuli_distractor_diamondtriangles.svg	3	yes	57	0	975	0	0			0	0			1				0	
6.6.1	mac	2023-06-28	14:47:06	14:49:48	158655	57739704c1b42d0001a58ae6	3	1	practice_slash	5	practice_slash	7	stimuli_distractor_diamondtriangles.svg	stimuli_target_trianglerectangles.svg	9	yes	53	1	812	0	0			0	0			1				0	
6.6.1	mac	2023-06-28	14:47:06	14:49:48	158655	57739704c1b42d0001a58ae6	3	1	practice_slash	5	advance_on_keypress_SLASH	8	stimuli_distractor_diamondtriangles.svg	stimuli_target_trianglerectangles.svg	9	yes	57	0	4086	0	0			0	0			1				0	
6.6.1	mac	2023-06-28	14:47:06	14:49:55	166374	57739704c1b42d0001a58ae6	3	1	practice_slash	5	practice_slash	9	stimuli_distractor_diamondtriangles.svg	stimuli_distractor_trianglediamonds.svg	14	no	0	1	2000	0	0			0	0			1				0	
6.6.1	mac	2023-06-28	14:47:06	14:49:55	166374	57739704c1b42d0001a58ae6	3	1	practice_slash	5	advance_on_keypress_SLASH	10	stimuli_distractor_diamondtriangles.svg	stimuli_distractor_trianglediamonds.svg	14	no	57	0	845	0	0			0	0			1				0	
6.6.1	mac	2023-06-28	14:47:06	14:49:59	169791	57739704c1b42d0001a58ae6	3	1	practice_slash	5	practice_slash	11	stimuli_distractor_diamondtriangles.svg	stimuli_target_diamondrectangles.svg	8	yes	53	1	932	0	0			0	0			1				0	
6.6.1	mac	2023-06-28	14:47:06	14:49:59	169791	57739704c1b42d0001a58ae6	3	1	practice_slash	5	advance_on_keypress_SLASH	12	stimuli_distractor_diamondtriangles.svg	stimuli_target_diamondrectangles.svg	8	yes	57	0	584	0	0			0	0			1				0	
6.6.1	mac	2023-06-28	14:47:06	14:50:02	172663	57739704c1b42d0001a58ae6	3	1	practice_slash	5	practice_slash	13	stimuli_target_squarediamonds.svg	stimuli_distractor_diamondtriangles.svg	2	yes	53	1	654	0	0			0	0			1				0	
6.6.1	mac	2023-06-28	14:47:06	14:50:02	172663	57739704c1b42d0001a58ae6	3	1	practice_slash	5	advance_on_keypress_SLASH	14	stimuli_target_squarediamonds.svg	stimuli_distractor_diamondtriangles.svg	2	yes	57	0	760	0	0			0	0			1				0	
6.6.1	mac	2023-06-28	14:47:06	14:50:06	177040	57739704c1b42d0001a58ae6	3	1	practice_slash	5	practice_slash	15	stimuli_distractor_trianglediamonds.svg	stimuli_distractor_trianglediamonds.svg	15	no	0	1	2000	0	0			0	0			1				0	
6.6.1	mac	2023-06-28	14:47:06	14:50:06	177040	57739704c1b42d0001a58ae6	3	1	practice_slash	5	advance_on_keypress_SLASH	16	stimuli_distractor_trianglediamonds.svg	stimuli_distractor_trianglediamonds.svg	15	no	57	0	506	0	0			0	0			1				0	
6.6.1	mac	2023-06-28	14:47:06	14:50:10	181173	57739704c1b42d0001a58ae6	3	1	practice_slash	5	practice_slash	17	stimuli_distractor_diamondtriangles.svg	stimuli_distractor_diamondtriangles.svg	13	no	0	1	2000	0	0			0	0			1				0	
6.6.1	mac	2023-06-28	14:47:06	14:50:10	181173	57739704c1b42d0001a58ae6	3	1	practice_slash	5	advance_on_keypress_SLASH	18	stimuli_distractor_diamondtriangles.svg	stimuli_distractor_diamondtriangles.svg	13	no	57	0	724	0	0			0	0			1				0	
6.6.1	mac	2023-06-28	14:47:06	14:50:13	184364	57739704c1b42d0001a58ae6	3	1	practice_slash	5	practice_slash	19	stimuli_distractor_trianglediamonds.svg	stimuli_target_squarediamonds.svg	11	yes	53	1	840	0	0			0	0			1				0	
6.6.1	mac	2023-06-28	14:47:06	14:50:13	184364	57739704c1b42d0001a58ae6	3	1	practice_slash	5	advance_on_keypress_SLASH	20	stimuli_distractor_trianglediamonds.svg	stimuli_target_squarediamonds.svg	11	yes	57	0	728	0	0			0	0			1				0	
6.6.1	mac	2023-06-28	14:47:06	14:50:17	187564	57739704c1b42d0001a58ae6	3	1	practice_slash	5	practice_slash	21	stimuli_target_rectanglediamonds.svg	stimuli_distractor_trianglediamonds.svg	4	yes	53	1	855	0	0			0	0			1				0	
6.6.1	mac	2023-06-28	14:47:06	14:50:17	187564	57739704c1b42d0001a58ae6	3	1	practice_slash	5	advance_on_keypress_SLASH	22	stimuli_target_rectanglediamonds.svg	stimuli_distractor_trianglediamonds.svg	4	yes	57	0	603	0	0			0	0			1				0	
6.6.1	mac	2023-06-28	14:47:06	14:50:20	190560	57739704c1b42d0001a58ae6	3	1	practice_slash	5	practice_slash	23	stimuli_distractor_trianglediamonds.svg	stimuli_target_diamondrectangles.svg	12	yes	53	1	768	0	0			0	0			1				0	
6.6.1	mac	2023-06-28	14:47:06	14:50:20	190560	57739704c1b42d0001a58ae6	3	1	practice_slash	5	advance_on_keypress_SLASH	24	stimuli_distractor_trianglediamonds.svg	stimuli_target_diamondrectangles.svg	12	yes	57	0	1049	0	0			0	0			1				0	
6.6.1	mac	2023-06-28	14:47:06	14:50:24	195240	57739704c1b42d0001a58ae6	3	1	practice_slash	5	practice_slash	25	stimuli_distractor_trianglediamonds.svg	stimuli_distractor_diamondtriangles.svg	16	no	0	1	2000	0	0			0	0			1				0	
6.6.1	mac	2023-06-28	14:47:06	14:50:24	195240	57739704c1b42d0001a58ae6	3	1	practice_slash	5	advance_on_keypress_SLASH	26	stimuli_distractor_trianglediamonds.svg	stimuli_distractor_diamondtriangles.svg	16	no	57	0	718	0	0			0	0			1				0	
6.6.1	mac	2023-06-28	14:47:06	14:50:27	198300	57739704c1b42d0001a58ae6	3	1	practice_slash	5	practice_slash	27	stimuli_target_rectanglediamonds.svg	stimuli_distractor_diamondtriangles.svg	1	yes	53	1	709	0	0			0	0			1				0	
6.6.1	mac	2023-06-28	14:47:06	14:50:27	198300	57739704c1b42d0001a58ae6	3	1	practice_slash	5	advance_on_keypress_SLASH	28	stimuli_target_rectanglediamonds.svg	stimuli_distractor_diamondtriangles.svg	1	yes	57	0	609	0	0			0	0			1				0	
6.6.1	mac	2023-06-28	14:47:06	14:50:30	200956	57739704c1b42d0001a58ae6	3	1	practice_slash	5	practice_slash	29	stimuli_distractor_diamondtriangles.svg	stimuli_target_rectangletriangles.svg	7	yes	53	1	432	0	0			0	0			1				0	
6.6.1	mac	2023-06-28	14:47:06	14:50:30	200956	57739704c1b42d0001a58ae6	3	1	practice_slash	5	advance_on_keypress_SLASH	30	stimuli_distractor_diamondtriangles.svg	stimuli_target_rectangletriangles.svg	7	yes	57	0	446	0	0			0	0			1				0	
6.6.1	mac	2023-06-28	14:47:06	14:50:33	203703	57739704c1b42d0001a58ae6	3	1	practice_slash	5	practice_slash	31	stimuli_target_diamondsquares.svg	stimuli_distractor_trianglediamonds.svg	6	yes	53	1	661	0	0			0	0			1				0	
6.6.1	mac	2023-06-28	14:47:06	14:50:33	203703	57739704c1b42d0001a58ae6	3	1	practice_slash	5	advance_on_keypress_SLASH	32	stimuli_target_diamondsquares.svg	stimuli_distractor_trianglediamonds.svg	6	yes	57	0	497	0	0			0	0			1				0	
6.6.1	mac	2023-06-28	14:47:06	14:50:39	209667	57739704c1b42d0001a58ae6	3	1	main_slash	7	main_slash	1	stimuli_distractor_diamondtriangles.svg	stimuli_target_squaretriangles.svg	15	yes	53	1	526	0	0			0	0			1				0	
6.6.1	mac	2023-06-28	14:47:06	14:50:39	209667	57739704c1b42d0001a58ae6	3	1	main_slash	7	advance_on_keypress_SLASH	2	stimuli_distractor_diamondtriangles.svg	stimuli_target_squaretriangles.svg	15	yes	57	0	1272	0	0			0	0			1				0	
6.6.1	mac	2023-06-28	14:47:06	14:50:41	211900	57739704c1b42d0001a58ae6	3	1	main_slash	7	main_slash	3	stimuli_distractor_diamondtriangles.svg	stimuli_distractor_diamondtriangles.svg	40	no	53	0	325	0	0			0	0			1				0	
6.6.1	mac	2023-06-28	14:47:06	14:50:41	211900	57739704c1b42d0001a58ae6	3	1	main_slash	7	advance_on_keypress_SLASH	4	stimuli_distractor_diamondtriangles.svg	stimuli_distractor_diamondtriangles.svg	40	no	57	0	1338	0	0			0	0			1				0	
6.6.1	mac	2023-06-28	14:47:06	14:50:44	214514	57739704c1b42d0001a58ae6	3	1	main_slash	7	main_slash	5	stimuli_target_trianglerectangles.svg	stimuli_distractor_diamondtriangles.svg	21	yes	53	1	656	0	0			0	0			1				0	
6.6.1	mac	2023-06-28	14:47:06	14:50:44	214514	57739704c1b42d0001a58ae6	3	1	main_slash	7	advance_on_keypress_SLASH	6	stimuli_target_trianglerectangles.svg	stimuli_distractor_diamondtriangles.svg	21	yes	57	0	835	0	0			0	0			1				0	
6.6.1	mac	2023-06-28	14:47:06	14:50:46	216539	57739704c1b42d0001a58ae6	3	1	main_slash	7	main_slash	7	stimuli_distractor_diamondtriangles.svg	stimuli_target_rectangletriangles.svg	13	yes	53	1	565	0	0			0	0			1				0	
6.6.1	mac	2023-06-28	14:47:06	14:50:46	216539	57739704c1b42d0001a58ae6	3	1	main_slash	7	advance_on_keypress_SLASH	8	stimuli_distractor_diamondtriangles.svg	stimuli_target_rectangletriangles.svg	13	yes	57	0	604	0	0			0	0			1				0	
6.6.1	mac	2023-06-28	14:47:06	14:50:49	219772	57739704c1b42d0001a58ae6	3	1	main_slash	7	main_slash	9	stimuli_distractor_diamondtriangles.svg	stimuli_distractor_trianglediamonds.svg	38	no	0	1	2000	0	0			0	0			1				0	
6.6.1	mac	2023-06-28	14:47:06	14:50:49	219772	57739704c1b42d0001a58ae6	3	1	main_slash	7	advance_on_keypress_SLASH	10	stimuli_distractor_diamondtriangles.svg	stimuli_distractor_trianglediamonds.svg	38	no	57	0	423	0	0			0	0			1				0	
6.6.1	mac	2023-06-28	14:47:06	14:50:52	222715	57739704c1b42d0001a58ae6	3	1	main_slash	7	main_slash	11	stimuli_target_rectangletriangles.svg	stimuli_distractor_trianglediamonds.svg	1	yes	53	1	1890	0	0			0	0			1				0	
6.6.1	mac	2023-06-28	14:47:06	14:50:52	222715	57739704c1b42d0001a58ae6	3	1	main_slash	7	advance_on_keypress_SLASH	12	stimuli_target_rectangletriangles.svg	stimuli_distractor_trianglediamonds.svg	1	yes	57	0	763	0	0			0	0			1				0	
6.6.1	mac	2023-06-28	14:47:06	14:50:54	224623	57739704c1b42d0001a58ae6	3	1	main_slash	7	main_slash	13	stimuli_target_rectanglediamonds.svg	stimuli_distractor_diamondtriangles.svg	6	yes	53	1	534	0	0			0	0			1				0	
6.6.1	mac	2023-06-28	14:47:06	14:50:54	224623	57739704c1b42d0001a58ae6	3	1	main_slash	7	advance_on_keypress_SLASH	14	stimuli_target_rectanglediamonds.svg	stimuli_distractor_diamondtriangles.svg	6	yes	57	0	782	0	0			0	0			1				0	
6.6.1	mac	2023-06-28	14:47:06	14:50:56	226700	57739704c1b42d0001a58ae6	3	1	main_slash	7	main_slash	15	stimuli_distractor_trianglediamonds.svg	stimuli_target_rectanglediamonds.svg	10	yes	53	1	660	0	0			0	0			1				0	
6.6.1	mac	2023-06-28	14:47:06	14:50:56	226700	57739704c1b42d0001a58ae6	3	1	main_slash	7	advance_on_keypress_SLASH	16	stimuli_distractor_trianglediamonds.svg	stimuli_target_rectanglediamonds.svg	10	yes	57	0	1492	0	0			0	0			1				0	
6.6.1	mac	2023-06-28	14:47:06	14:50:59	229396	57739704c1b42d0001a58ae6	3	1	main_slash	7	main_slash	17	stimuli_target_squarediamonds.svg	stimuli_distractor_diamondtriangles.svg	8	yes	53	1	590	0	0			0	0			1				0	
6.6.1	mac	2023-06-28	14:47:06	14:50:59	229396	57739704c1b42d0001a58ae6	3	1	main_slash	7	advance_on_keypress_SLASH	18	stimuli_target_squarediamonds.svg	stimuli_distractor_diamondtriangles.svg	8	yes	57	0	1248	0	0			0	0			1				0	
6.6.1	mac	2023-06-28	14:47:06	14:51:01	231893	57739704c1b42d0001a58ae6	3	1	main_slash	7	main_slash	19	stimuli_target_squaretriangles.svg	stimuli_distractor_diamondtriangles.svg	7	yes	53	1	619	0	0			0	0			1				0	
6.6.1	mac	2023-06-28	14:47:06	14:51:01	231893	57739704c1b42d0001a58ae6	3	1	main_slash	7	advance_on_keypress_SLASH	20	stimuli_target_squaretriangles.svg	stimuli_distractor_diamondtriangles.svg	7	yes	57	0	699	0	0			0	0			1				0	
6.6.1	mac	2023-06-28	14:47:06	14:51:03	234123	57739704c1b42d0001a58ae6	3	1	main_slash	7	main_slash	21	stimuli_distractor_trianglediamonds.svg	stimuli_target_trianglesquares.svg	26	yes	53	1	899	0	0			0	0			1				0	
6.6.1	mac	2023-06-28	14:47:06	14:51:03	234123	57739704c1b42d0001a58ae6	3	1	main_slash	7	advance_on_keypress_SLASH	22	stimuli_distractor_trianglediamonds.svg	stimuli_target_trianglesquares.svg	26	yes	57	0	719	0	0			0	0			1				0	
6.6.1	mac	2023-06-28	14:47:06	14:51:05	236327	57739704c1b42d0001a58ae6	3	1	main_slash	7	main_slash	23	stimuli_distractor_trianglediamonds.svg	stimuli_target_squaretriangles.svg	11	yes	53	1	853	0	0			0	0			1				0	
6.6.1	mac	2023-06-28	14:47:06	14:51:05	236327	57739704c1b42d0001a58ae6	3	1	main_slash	7	advance_on_keypress_SLASH	24	stimuli_distractor_trianglediamonds.svg	stimuli_target_squaretriangles.svg	11	yes	57	0	841	0	0			0	0			1				0	
6.6.1	mac	2023-06-28	14:47:06	14:51:08	238596	57739704c1b42d0001a58ae6	3	1	main_slash	7	main_slash	25	stimuli_distractor_trianglediamonds.svg	stimuli_target_diamondsquares.svg	28	yes	53	1	805	0	0			0	0			1				0	
6.6.1	mac	2023-06-28	14:47:06	14:51:08	238596	57739704c1b42d0001a58ae6	3	1	main_slash	7	advance_on_keypress_SLASH	26	stimuli_distractor_trianglediamonds.svg	stimuli_target_diamondsquares.svg	28	yes	57	0	896	0	0			0	0			1				0	
6.6.1	mac	2023-06-28	14:47:06	14:51:10	240663	57739704c1b42d0001a58ae6	3	1	main_slash	7	main_slash	27	stimuli_distractor_diamondtriangles.svg	stimuli_target_trianglerectangles.svg	29	yes	53	1	539	0	0			0	0			1				0	
6.6.1	mac	2023-06-28	14:47:06	14:51:10	240663	57739704c1b42d0001a58ae6	3	1	main_slash	7	advance_on_keypress_SLASH	28	stimuli_distractor_diamondtriangles.svg	stimuli_target_trianglerectangles.svg	29	yes	57	0	1388	0	0			0	0			1				0	
6.6.1	mac	2023-06-28	14:47:06	14:51:12	243173	57739704c1b42d0001a58ae6	3	1	main_slash	7	main_slash	29	stimuli_distractor_trianglediamonds.svg	stimuli_target_squarediamonds.svg	12	yes	53	1	501	0	0			0	0			1				0	
6.6.1	mac	2023-06-28	14:47:06	14:51:12	243173	57739704c1b42d0001a58ae6	3	1	main_slash	7	advance_on_keypress_SLASH	30	stimuli_distractor_trianglediamonds.svg	stimuli_target_squarediamonds.svg	12	yes	57	0	839	0	0			0	0			1				0	
6.6.1	mac	2023-06-28	14:47:06	14:51:14	245361	57739704c1b42d0001a58ae6	3	1	main_slash	7	main_slash	31	stimuli_target_rectangletriangles.svg	stimuli_distractor_diamondtriangles.svg	5	yes	53	1	720	0	0			0	0			1				0	
6.6.1	mac	2023-06-28	14:47:06	14:51:14	245361	57739704c1b42d0001a58ae6	3	1	main_slash	7	advance_on_keypress_SLASH	32	stimuli_target_rectangletriangles.svg	stimuli_distractor_diamondtriangles.svg	5	yes	57	0	890	0	0			0	0			1				0	
6.6.1	mac	2023-06-28	14:47:06	14:51:17	247595	57739704c1b42d0001a58ae6	3	1	main_slash	7	main_slash	33	stimuli_distractor_diamondtriangles.svg	stimuli_distractor_diamondtriangles.svg	39	no	53	0	722	0	0			0	0			1				0	
6.6.1	mac	2023-06-28	14:47:06	14:51:17	247595	57739704c1b42d0001a58ae6	3	1	main_slash	7	advance_on_keypress_SLASH	34	stimuli_distractor_diamondtriangles.svg	stimuli_distractor_diamondtriangles.svg	39	no	57	0	1125	0	0			0	0			1				0	
6.6.1	mac	2023-06-28	14:47:06	14:51:20	251338	57739704c1b42d0001a58ae6	3	1	main_slash	7	main_slash	35	stimuli_distractor_diamondtriangles.svg	stimuli_distractor_trianglediamonds.svg	37	no	0	1	2000	0	0			0	0			1				0	
6.6.1	mac	2023-06-28	14:47:06	14:51:20	251338	57739704c1b42d0001a58ae6	3	1	main_slash	7	advance_on_keypress_SLASH	36	stimuli_distractor_diamondtriangles.svg	stimuli_distractor_trianglediamonds.svg	37	no	57	0	631	0	0			0	0			1				0	
6.6.1	mac	2023-06-28	14:47:06	14:51:23	253564	57739704c1b42d0001a58ae6	3	1	main_slash	7	main_slash	37	stimuli_target_diamondrectangles.svg	stimuli_distractor_diamondtriangles.svg	23	yes	53	1	957	0	0			0	0			1				0	
6.6.1	mac	2023-06-28	14:47:06	14:51:23	253564	57739704c1b42d0001a58ae6	3	1	main_slash	7	advance_on_keypress_SLASH	38	stimuli_target_diamondrectangles.svg	stimuli_distractor_diamondtriangles.svg	23	yes	57	0	721	0	0			0	0			1				0	
6.6.1	mac	2023-06-28	14:47:06	14:51:25	255831	57739704c1b42d0001a58ae6	3	1	main_slash	7	main_slash	39	stimuli_target_trianglerectangles.svg	stimuli_distractor_trianglediamonds.svg	17	yes	53	1	925	0	0			0	0			1				0	
6.6.1	mac	2023-06-28	14:47:06	14:51:25	255831	57739704c1b42d0001a58ae6	3	1	main_slash	7	advance_on_keypress_SLASH	40	stimuli_target_trianglerectangles.svg	stimuli_distractor_trianglediamonds.svg	17	yes	57	0	618	0	0			0	0			1				0	
6.6.1	mac	2023-06-28	14:47:06	14:51:28	258752	57739704c1b42d0001a58ae6	3	1	main_slash	7	main_slash	41	stimuli_distractor_trianglediamonds.svg	stimuli_distractor_trianglediamonds.svg	34	no	53	0	1679	0	0			0	0			1				0	
6.6.1	mac	2023-06-28	14:47:06	14:51:28	258752	57739704c1b42d0001a58ae6	3	1	main_slash	7	advance_on_keypress_SLASH	42	stimuli_distractor_trianglediamonds.svg	stimuli_distractor_trianglediamonds.svg	34	no	57	0	666	0	0			0	0			1				0	
6.6.1	mac	2023-06-28	14:47:06	14:51:30	260860	57739704c1b42d0001a58ae6	3	1	main_slash	7	main_slash	43	stimuli_target_diamondrectangles.svg	stimuli_distractor_trianglediamonds.svg	19	yes	53	1	820	0	0			0	0			1				0	
6.6.1	mac	2023-06-28	14:47:06	14:51:30	260860	57739704c1b42d0001a58ae6	3	1	main_slash	7	advance_on_keypress_SLASH	44	stimuli_target_diamondrectangles.svg	stimuli_distractor_trianglediamonds.svg	19	yes	57	0	687	0	0			0	0			1				0	
6.6.1	mac	2023-06-28	14:47:06	14:51:32	263367	57739704c1b42d0001a58ae6	3	1	main_slash	7	main_slash	45	stimuli_distractor_diamondtriangles.svg	stimuli_target_diamondsquares.svg	32	yes	53	1	1193	0	0			0	0			1				0	
6.6.1	mac	2023-06-28	14:47:06	14:51:32	263367	57739704c1b42d0001a58ae6	3	1	main_slash	7	advance_on_keypress_SLASH	46	stimuli_distractor_diamondtriangles.svg	stimuli_target_diamondsquares.svg	32	yes	57	0	707	0	0			0	0			1				0	
6.6.1	mac	2023-06-28	14:47:06	14:51:35	265542	57739704c1b42d0001a58ae6	3	1	main_slash	7	main_slash	47	stimuli_target_squarediamonds.svg	stimuli_distractor_trianglediamonds.svg	4	yes	53	1	852	0	0			0	0			1				0	
6.6.1	mac	2023-06-28	14:47:06	14:51:35	265542	57739704c1b42d0001a58ae6	3	1	main_slash	7	advance_on_keypress_SLASH	48	stimuli_target_squarediamonds.svg	stimuli_distractor_trianglediamonds.svg	4	yes	57	0	1161	0	0			0	0			1				0	
6.6.1	mac	2023-06-28	14:47:06	14:51:37	268010	57739704c1b42d0001a58ae6	3	1	main_slash	7	main_slash	49	stimuli_distractor_trianglediamonds.svg	stimuli_target_rectangletriangles.svg	9	yes	53	1	687	0	0			0	0			1				0	
6.6.1	mac	2023-06-28	14:47:06	14:51:37	268010	57739704c1b42d0001a58ae6	3	1	main_slash	7	advance_on_keypress_SLASH	50	stimuli_distractor_trianglediamonds.svg	stimuli_target_rectangletriangles.svg	9	yes	57	0	741	0	0			0	0			1				0	
6.6.1	mac	2023-06-28	14:47:06	14:51:39	270277	57739704c1b42d0001a58ae6	3	1	main_slash	7	main_slash	51	stimuli_target_diamondsquares.svg	stimuli_distractor_trianglediamonds.svg	20	yes	53	1	889	0	0			0	0			1				0	
6.6.1	mac	2023-06-28	14:47:06	14:51:39	270277	57739704c1b42d0001a58ae6	3	1	main_slash	7	advance_on_keypress_SLASH	52	stimuli_target_diamondsquares.svg	stimuli_distractor_trianglediamonds.svg	20	yes	57	0	1288	0	0			0	0			1				0	
6.6.1	mac	2023-06-28	14:47:06	14:51:43	274187	57739704c1b42d0001a58ae6	3	1	main_slash	7	main_slash	53	stimuli_distractor_trianglediamonds.svg	stimuli_distractor_diamondtriangles.svg	35	no	0	1	2000	0	0			0	0			1				0	
6.6.1	mac	2023-06-28	14:47:06	14:51:43	274187	57739704c1b42d0001a58ae6	3	1	main_slash	7	advance_on_keypress_SLASH	54	stimuli_distractor_trianglediamonds.svg	stimuli_distractor_diamondtriangles.svg	35	no	57	0	1198	0	0			0	0			1				0	
6.6.1	mac	2023-06-28	14:47:06	14:51:46	276510	57739704c1b42d0001a58ae6	3	1	main_slash	7	main_slash	55	stimuli_distractor_diamondtriangles.svg	stimuli_target_rectanglediamonds.svg	14	yes	53	1	487	0	0			0	0			1				0	
6.6.1	mac	2023-06-28	14:47:06	14:51:46	276510	57739704c1b42d0001a58ae6	3	1	main_slash	7	advance_on_keypress_SLASH	56	stimuli_distractor_diamondtriangles.svg	stimuli_target_rectanglediamonds.svg	14	yes	57	0	584	0	0			0	0			1				0	
6.6.1	mac	2023-06-28	14:47:06	14:51:49	279737	57739704c1b42d0001a58ae6	3	1	main_slash	7	main_slash	57	stimuli_target_squaretriangles.svg	stimuli_distractor_trianglediamonds.svg	3	yes	0	0	2000	0	0			0	0			1				0	
6.6.1	mac	2023-06-28	14:47:06	14:51:49	279737	57739704c1b42d0001a58ae6	3	1	main_slash	7	advance_on_keypress_SLASH	58	stimuli_target_squaretriangles.svg	stimuli_distractor_trianglediamonds.svg	3	yes	57	0	649	0	0			0	0			1				0	
6.6.1	mac	2023-06-28	14:47:06	14:51:52	283021	57739704c1b42d0001a58ae6	3	1	main_slash	7	main_slash	59	stimuli_distractor_trianglediamonds.svg	stimuli_distractor_trianglediamonds.svg	33	no	0	1	2000	0	0			0	0			1				0	
6.6.1	mac	2023-06-28	14:47:06	14:51:52	283021	57739704c1b42d0001a58ae6	3	1	main_slash	7	advance_on_keypress_SLASH	60	stimuli_distractor_trianglediamonds.svg	stimuli_distractor_trianglediamonds.svg	33	no	57	0	832	0	0			0	0			1				0	
6.6.1	mac	2023-06-28	14:47:06	14:51:54	285300	57739704c1b42d0001a58ae6	3	1	main_slash	7	main_slash	61	stimuli_target_trianglesquares.svg	stimuli_distractor_diamondtriangles.svg	22	yes	53	1	810	0	0			0	0			1				0	
6.6.1	mac	2023-06-28	14:47:06	14:51:54	285300	57739704c1b42d0001a58ae6	3	1	main_slash	7	advance_on_keypress_SLASH	62	stimuli_target_trianglesquares.svg	stimuli_distractor_diamondtriangles.svg	22	yes	57	0	1081	0	0			0	0			1				0	
6.6.1	mac	2023-06-28	14:47:06	14:51:57	287862	57739704c1b42d0001a58ae6	3	1	main_slash	7	main_slash	63	stimuli_distractor_diamondtriangles.svg	stimuli_target_trianglesquares.svg	30	yes	53	1	857	0	0			0	0			1				0	
6.6.1	mac	2023-06-28	14:47:06	14:51:57	287862	57739704c1b42d0001a58ae6	3	1	main_slash	7	advance_on_keypress_SLASH	64	stimuli_distractor_diamondtriangles.svg	stimuli_target_trianglesquares.svg	30	yes	57	0	602	0	0			0	0			1				0	
6.6.1	mac	2023-06-28	14:47:06	14:52:00	291087	57739704c1b42d0001a58ae6	3	1	main_slash	7	main_slash	65	stimuli_target_diamondsquares.svg	stimuli_distractor_diamondtriangles.svg	24	yes	0	0	2000	0	0			0	0			1				0	
6.6.1	mac	2023-06-28	14:47:06	14:52:00	291087	57739704c1b42d0001a58ae6	3	1	main_slash	7	advance_on_keypress_SLASH	66	stimuli_target_diamondsquares.svg	stimuli_distractor_diamondtriangles.svg	24	yes	57	0	3701	0	0			0	0			1				0	
6.6.1	mac	2023-06-28	14:47:06	14:52:05	296045	57739704c1b42d0001a58ae6	3	1	main_slash	7	main_slash	67	stimuli_distractor_trianglediamonds.svg	stimuli_target_diamondrectangles.svg	27	yes	53	1	622	0	0			0	0			1				0	
6.6.1	mac	2023-06-28	14:47:06	14:52:05	296045	57739704c1b42d0001a58ae6	3	1	main_slash	7	advance_on_keypress_SLASH	68	stimuli_distractor_trianglediamonds.svg	stimuli_target_diamondrectangles.svg	27	yes	57	0	626	0	0			0	0			1				0	
6.6.1	mac	2023-06-28	14:47:06	14:52:07	297924	57739704c1b42d0001a58ae6	3	1	main_slash	7	main_slash	69	stimuli_distractor_diamondtriangles.svg	stimuli_target_diamondrectangles.svg	31	yes	53	1	635	0	0			0	0			1				0	
6.6.1	mac	2023-06-28	14:47:06	14:52:07	297924	57739704c1b42d0001a58ae6	3	1	main_slash	7	advance_on_keypress_SLASH	70	stimuli_distractor_diamondtriangles.svg	stimuli_target_diamondrectangles.svg	31	yes	57	0	587	0	0			0	0			1				0	
6.6.1	mac	2023-06-28	14:47:06	14:52:09	299680	57739704c1b42d0001a58ae6	3	1	main_slash	7	main_slash	71	stimuli_distractor_trianglediamonds.svg	stimuli_target_trianglerectangles.svg	25	yes	53	1	541	0	0			0	0			1				0	
6.6.1	mac	2023-06-28	14:47:06	14:52:09	299680	57739704c1b42d0001a58ae6	3	1	main_slash	7	advance_on_keypress_SLASH	72	stimuli_distractor_trianglediamonds.svg	stimuli_target_trianglerectangles.svg	25	yes	57	0	578	0	0			0	0			1				0	
6.6.1	mac	2023-06-28	14:47:06	14:52:11	301560	57739704c1b42d0001a58ae6	3	1	main_slash	7	main_slash	73	stimuli_target_trianglesquares.svg	stimuli_distractor_trianglediamonds.svg	18	yes	53	1	672	0	0			0	0			1				0	
6.6.1	mac	2023-06-28	14:47:06	14:52:11	301560	57739704c1b42d0001a58ae6	3	1	main_slash	7	advance_on_keypress_SLASH	74	stimuli_target_trianglesquares.svg	stimuli_distractor_trianglediamonds.svg	18	yes	57	0	518	0	0			0	0			1				0	
6.6.1	mac	2023-06-28	14:47:06	14:52:14	304703	57739704c1b42d0001a58ae6	3	1	main_slash	7	main_slash	75	stimuli_distractor_trianglediamonds.svg	stimuli_distractor_diamondtriangles.svg	36	no	0	1	2000	0	0			0	0			1				0	
6.6.1	mac	2023-06-28	14:47:06	14:52:14	304703	57739704c1b42d0001a58ae6	3	1	main_slash	7	advance_on_keypress_SLASH	76	stimuli_distractor_trianglediamonds.svg	stimuli_distractor_diamondtriangles.svg	36	no	57	0	555	0	0			0	0			1				0	
6.6.1	mac	2023-06-28	14:47:06	14:52:16	306580	57739704c1b42d0001a58ae6	3	1	main_slash	7	main_slash	77	stimuli_target_rectanglediamonds.svg	stimuli_distractor_trianglediamonds.svg	2	yes	53	1	692	0	0			0	0			1				0	
6.6.1	mac	2023-06-28	14:47:06	14:52:16	306580	57739704c1b42d0001a58ae6	3	1	main_slash	7	advance_on_keypress_SLASH	78	stimuli_target_rectanglediamonds.svg	stimuli_distractor_trianglediamonds.svg	2	yes	57	0	433	0	0			0	0			1				0	
6.6.1	mac	2023-06-28	14:47:06	14:52:18	308863	57739704c1b42d0001a58ae6	3	1	main_slash	7	main_slash	79	stimuli_distractor_diamondtriangles.svg	stimuli_target_squarediamonds.svg	16	yes	53	1	1224	0	0			0	0			1				0	
6.6.1	mac	2023-06-28	14:47:06	14:52:18	308863	57739704c1b42d0001a58ae6	3	1	main_slash	7	advance_on_keypress_SLASH	80	stimuli_distractor_diamondtriangles.svg	stimuli_target_squarediamonds.svg	16	yes	57	0	497	0	0			0	0			1				0	
6.6.1	mac	2023-06-28	14:47:06	14:52:21	311969	57739704c1b42d0001a58ae6	3	1	main_slash	7	main_slash	81	stimuli_distractor_diamondtriangles.svg	stimuli_distractor_trianglediamonds.svg	38	no	0	1	2000	0	0			0	0			1				0	
6.6.1	mac	2023-06-28	14:47:06	14:52:21	311969	57739704c1b42d0001a58ae6	3	1	main_slash	7	advance_on_keypress_SLASH	82	stimuli_distractor_diamondtriangles.svg	stimuli_distractor_trianglediamonds.svg	38	no	57	0	872	0	0			0	0			1				0	
6.6.1	mac	2023-06-28	14:47:06	14:52:23	313986	57739704c1b42d0001a58ae6	3	1	main_slash	7	main_slash	83	stimuli_distractor_trianglediamonds.svg	stimuli_target_diamondrectangles.svg	27	yes	53	1	516	0	0			0	0			1				0	
6.6.1	mac	2023-06-28	14:47:06	14:52:23	313986	57739704c1b42d0001a58ae6	3	1	main_slash	7	advance_on_keypress_SLASH	84	stimuli_distractor_trianglediamonds.svg	stimuli_target_diamondrectangles.svg	27	yes	57	0	647	0	0			0	0			1				0	
6.6.1	mac	2023-06-28	14:47:06	14:52:25	316001	57739704c1b42d0001a58ae6	3	1	main_slash	7	main_slash	85	stimuli_distractor_diamondtriangles.svg	stimuli_target_squarediamonds.svg	16	yes	53	1	729	0	0			0	0			1				0	
6.6.1	mac	2023-06-28	14:47:06	14:52:25	316001	57739704c1b42d0001a58ae6	3	1	main_slash	7	advance_on_keypress_SLASH	86	stimuli_distractor_diamondtriangles.svg	stimuli_target_squarediamonds.svg	16	yes	57	0	1110	0	0			0	0			1				0	
6.6.1	mac	2023-06-28	14:47:06	14:52:27	318289	57739704c1b42d0001a58ae6	3	1	main_slash	7	main_slash	87	stimuli_distractor_diamondtriangles.svg	stimuli_target_trianglerectangles.svg	29	yes	53	1	568	0	0			0	0			1				0	
6.6.1	mac	2023-06-28	14:47:06	14:52:27	318289	57739704c1b42d0001a58ae6	3	1	main_slash	7	advance_on_keypress_SLASH	88	stimuli_distractor_diamondtriangles.svg	stimuli_target_trianglerectangles.svg	29	yes	57	0	590	0	0			0	0			1				0	
6.6.1	mac	2023-06-28	14:47:06	14:52:30	320548	57739704c1b42d0001a58ae6	3	1	main_slash	7	main_slash	89	stimuli_target_squarediamonds.svg	stimuli_distractor_diamondtriangles.svg	8	yes	53	1	1043	0	0			0	0			1				0	
6.6.1	mac	2023-06-28	14:47:06	14:52:30	320548	57739704c1b42d0001a58ae6	3	1	main_slash	7	advance_on_keypress_SLASH	90	stimuli_target_squarediamonds.svg	stimuli_distractor_diamondtriangles.svg	8	yes	57	0	805	0	0			0	0			1				0	
6.6.1	mac	2023-06-28	14:47:06	14:52:32	322589	57739704c1b42d0001a58ae6	3	1	main_slash	7	main_slash	91	stimuli_target_diamondrectangles.svg	stimuli_distractor_trianglediamonds.svg	19	yes	53	1	617	0	0			0	0			1				0	
6.6.1	mac	2023-06-28	14:47:06	14:52:32	322589	57739704c1b42d0001a58ae6	3	1	main_slash	7	advance_on_keypress_SLASH	92	stimuli_target_diamondrectangles.svg	stimuli_distractor_trianglediamonds.svg	19	yes	57	0	860	0	0			0	0			1				0	
6.6.1	mac	2023-06-28	14:47:06	14:52:34	324643	57739704c1b42d0001a58ae6	3	1	main_slash	7	main_slash	93	stimuli_distractor_trianglediamonds.svg	stimuli_target_squarediamonds.svg	12	yes	53	1	573	0	0			0	0			1				0	
6.6.1	mac	2023-06-28	14:47:06	14:52:34	324643	57739704c1b42d0001a58ae6	3	1	main_slash	7	advance_on_keypress_SLASH	94	stimuli_distractor_trianglediamonds.svg	stimuli_target_squarediamonds.svg	12	yes	57	0	587	0	0			0	0			1				0	
6.6.1	mac	2023-06-28	14:47:06	14:52:36	326532	57739704c1b42d0001a58ae6	3	1	main_slash	7	main_slash	95	stimuli_distractor_trianglediamonds.svg	stimuli_target_diamondsquares.svg	28	yes	53	1	676	0	0			0	0			1				0	
6.6.1	mac	2023-06-28	14:47:06	14:52:36	326532	57739704c1b42d0001a58ae6	3	1	main_slash	7	advance_on_keypress_SLASH	96	stimuli_distractor_trianglediamonds.svg	stimuli_target_diamondsquares.svg	28	yes	57	0	592	0	0			0	0			1				0	
6.6.1	mac	2023-06-28	14:47:06	14:52:39	329736	57739704c1b42d0001a58ae6	3	1	main_slash	7	main_slash	97	stimuli_distractor_trianglediamonds.svg	stimuli_distractor_trianglediamonds.svg	34	no	0	1	2000	0	0			0	0			1				0	
6.6.1	mac	2023-06-28	14:47:06	14:52:39	329736	57739704c1b42d0001a58ae6	3	1	main_slash	7	advance_on_keypress_SLASH	98	stimuli_distractor_trianglediamonds.svg	stimuli_distractor_trianglediamonds.svg	34	no	57	0	19231	0	0			0	0			1				0	
6.6.1	mac	2023-06-28	14:47:06	14:52:59	350100	57739704c1b42d0001a58ae6	3	1	main_slash	7	main_slash	99	stimuli_target_diamondrectangles.svg	stimuli_distractor_diamondtriangles.svg	23	yes	53	1	496	0	0			0	0			1				0	
6.6.1	mac	2023-06-28	14:47:06	14:52:59	350100	57739704c1b42d0001a58ae6	3	1	main_slash	7	advance_on_keypress_SLASH	100	stimuli_target_diamondrectangles.svg	stimuli_distractor_diamondtriangles.svg	23	yes	57	0	400	0	0			0	0			1				0	
6.6.1	mac	2023-06-28	14:47:06	14:53:02	353135	57739704c1b42d0001a58ae6	3	1	main_slash	7	main_slash	101	stimuli_target_squaretriangles.svg	stimuli_distractor_trianglediamonds.svg	3	yes	0	0	2000	0	0			0	0			1				0	
6.6.1	mac	2023-06-28	14:47:06	14:53:02	353135	57739704c1b42d0001a58ae6	3	1	main_slash	7	advance_on_keypress_SLASH	102	stimuli_target_squaretriangles.svg	stimuli_distractor_trianglediamonds.svg	3	yes	57	0	606	0	0			0	0			1				0	
6.6.1	mac	2023-06-28	14:47:06	14:53:04	354964	57739704c1b42d0001a58ae6	3	1	main_slash	7	main_slash	103	stimuli_distractor_trianglediamonds.svg	stimuli_target_rectangletriangles.svg	9	yes	53	1	593	0	0			0	0			1				0	
6.6.1	mac	2023-06-28	14:47:06	14:53:04	354964	57739704c1b42d0001a58ae6	3	1	main_slash	7	advance_on_keypress_SLASH	104	stimuli_distractor_trianglediamonds.svg	stimuli_target_rectangletriangles.svg	9	yes	57	0	638	0	0			0	0			1				0	
6.6.1	mac	2023-06-28	14:47:06	14:53:06	356808	57739704c1b42d0001a58ae6	3	1	main_slash	7	main_slash	105	stimuli_distractor_diamondtriangles.svg	stimuli_target_rectanglediamonds.svg	14	yes	53	1	587	0	0			0	0			1				0	
6.6.1	mac	2023-06-28	14:47:06	14:53:06	356808	57739704c1b42d0001a58ae6	3	1	main_slash	7	advance_on_keypress_SLASH	106	stimuli_distractor_diamondtriangles.svg	stimuli_target_rectanglediamonds.svg	14	yes	57	0	778	0	0			0	0			1				0	
6.6.1	mac	2023-06-28	14:47:06	14:53:09	360201	57739704c1b42d0001a58ae6	3	1	main_slash	7	main_slash	107	stimuli_distractor_diamondtriangles.svg	stimuli_distractor_diamondtriangles.svg	39	no	0	1	2000	0	0			0	0			1				0	
6.6.1	mac	2023-06-28	14:47:06	14:53:09	360201	57739704c1b42d0001a58ae6	3	1	main_slash	7	advance_on_keypress_SLASH	108	stimuli_distractor_diamondtriangles.svg	stimuli_distractor_diamondtriangles.svg	39	no	57	0	658	0	0			0	0			1				0	
6.6.1	mac	2023-06-28	14:47:06	14:53:11	362082	57739704c1b42d0001a58ae6	3	1	main_slash	7	main_slash	109	stimuli_target_rectangletriangles.svg	stimuli_distractor_diamondtriangles.svg	5	yes	53	1	597	0	0			0	0			1				0	
6.6.1	mac	2023-06-28	14:47:06	14:53:11	362082	57739704c1b42d0001a58ae6	3	1	main_slash	7	advance_on_keypress_SLASH	110	stimuli_target_rectangletriangles.svg	stimuli_distractor_diamondtriangles.svg	5	yes	57	0	479	0	0			0	0			1				0	
6.6.1	mac	2023-06-28	14:47:06	14:53:13	364174	57739704c1b42d0001a58ae6	3	1	main_slash	7	main_slash	111	stimuli_target_trianglerectangles.svg	stimuli_distractor_diamondtriangles.svg	21	yes	53	1	972	0	0			0	0			1				0	
6.6.1	mac	2023-06-28	14:47:06	14:53:13	364174	57739704c1b42d0001a58ae6	3	1	main_slash	7	advance_on_keypress_SLASH	112	stimuli_target_trianglerectangles.svg	stimuli_distractor_diamondtriangles.svg	21	yes	57	0	699	0	0			0	0			1				0	
6.6.1	mac	2023-06-28	14:47:06	14:53:17	367502	57739704c1b42d0001a58ae6	3	1	main_slash	7	main_slash	113	stimuli_distractor_trianglediamonds.svg	stimuli_distractor_trianglediamonds.svg	33	no	0	1	2000	0	0			0	0			1				0	
6.6.1	mac	2023-06-28	14:47:06	14:53:17	367502	57739704c1b42d0001a58ae6	3	1	main_slash	7	advance_on_keypress_SLASH	114	stimuli_distractor_trianglediamonds.svg	stimuli_distractor_trianglediamonds.svg	33	no	57	0	641	0	0			0	0			1				0	
6.6.1	mac	2023-06-28	14:47:06	14:53:19	369446	57739704c1b42d0001a58ae6	3	1	main_slash	7	main_slash	115	stimuli_target_trianglesquares.svg	stimuli_distractor_trianglediamonds.svg	18	yes	53	1	660	0	0			0	0			1				0	
6.6.1	mac	2023-06-28	14:47:06	14:53:19	369446	57739704c1b42d0001a58ae6	3	1	main_slash	7	advance_on_keypress_SLASH	116	stimuli_target_trianglesquares.svg	stimuli_distractor_trianglediamonds.svg	18	yes	57	0	489	0	0			0	0			1				0	
6.6.1	mac	2023-06-28	14:47:06	14:53:20	371210	57739704c1b42d0001a58ae6	3	1	main_slash	7	main_slash	117	stimuli_target_rectangletriangles.svg	stimuli_distractor_trianglediamonds.svg	1	yes	53	1	656	0	0			0	0			1				0	
6.6.1	mac	2023-06-28	14:47:06	14:53:20	371210	57739704c1b42d0001a58ae6	3	1	main_slash	7	advance_on_keypress_SLASH	118	stimuli_target_rectangletriangles.svg	stimuli_distractor_trianglediamonds.svg	1	yes	57	0	926	0	0			0	0			1				0	
6.6.1	mac	2023-06-28	14:47:06	14:53:23	373795	57739704c1b42d0001a58ae6	3	1	main_slash	7	main_slash	119	stimuli_target_diamondsquares.svg	stimuli_distractor_diamondtriangles.svg	24	yes	53	1	1042	0	0			0	0			1				0	
6.6.1	mac	2023-06-28	14:47:06	14:53:23	373795	57739704c1b42d0001a58ae6	3	1	main_slash	7	advance_on_keypress_SLASH	120	stimuli_target_diamondsquares.svg	stimuli_distractor_diamondtriangles.svg	24	yes	57	0	607	0	0			0	0			1				0	
6.6.1	mac	2023-06-28	14:47:06	14:53:25	375615	57739704c1b42d0001a58ae6	3	1	main_slash	7	main_slash	121	stimuli_target_rectanglediamonds.svg	stimuli_distractor_trianglediamonds.svg	2	yes	53	1	595	0	0			0	0			1				0	
6.6.1	mac	2023-06-28	14:47:06	14:53:25	375615	57739704c1b42d0001a58ae6	3	1	main_slash	7	advance_on_keypress_SLASH	122	stimuli_target_rectanglediamonds.svg	stimuli_distractor_trianglediamonds.svg	2	yes	57	0	656	0	0			0	0			1				0	
6.6.1	mac	2023-06-28	14:47:06	14:53:28	378900	57739704c1b42d0001a58ae6	3	1	main_slash	7	main_slash	123	stimuli_distractor_diamondtriangles.svg	stimuli_distractor_diamondtriangles.svg	40	no	0	1	2000	0	0			0	0			1				0	
6.6.1	mac	2023-06-28	14:47:06	14:53:28	378900	57739704c1b42d0001a58ae6	3	1	main_slash	7	advance_on_keypress_SLASH	124	stimuli_distractor_diamondtriangles.svg	stimuli_distractor_diamondtriangles.svg	40	no	57	0	515	0	0			0	0			1				0	
6.6.1	mac	2023-06-28	14:47:06	14:53:30	380650	57739704c1b42d0001a58ae6	3	1	main_slash	7	main_slash	125	stimuli_distractor_diamondtriangles.svg	stimuli_target_trianglesquares.svg	30	yes	53	1	598	0	0			0	0			1				0	
6.6.1	mac	2023-06-28	14:47:06	14:53:30	380650	57739704c1b42d0001a58ae6	3	1	main_slash	7	advance_on_keypress_SLASH	126	stimuli_distractor_diamondtriangles.svg	stimuli_target_trianglesquares.svg	30	yes	57	0	668	0	0			0	0			1				0	
6.6.1	mac	2023-06-28	14:47:06	14:53:32	382677	57739704c1b42d0001a58ae6	3	1	main_slash	7	main_slash	127	stimuli_distractor_diamondtriangles.svg	stimuli_target_diamondsquares.svg	32	yes	53	1	725	0	0			0	0			1				0	
6.6.1	mac	2023-06-28	14:47:06	14:53:32	382677	57739704c1b42d0001a58ae6	3	1	main_slash	7	advance_on_keypress_SLASH	128	stimuli_distractor_diamondtriangles.svg	stimuli_target_diamondsquares.svg	32	yes	57	0	800	0	0			0	0			1				0	
6.6.1	mac	2023-06-28	14:47:06	14:53:34	384609	57739704c1b42d0001a58ae6	3	1	main_slash	7	main_slash	129	stimuli_target_squarediamonds.svg	stimuli_distractor_trianglediamonds.svg	4	yes	53	1	507	0	0			0	0			1				0	
6.6.1	mac	2023-06-28	14:47:06	14:53:34	384609	57739704c1b42d0001a58ae6	3	1	main_slash	7	advance_on_keypress_SLASH	130	stimuli_target_squarediamonds.svg	stimuli_distractor_trianglediamonds.svg	4	yes	57	0	492	0	0			0	0			1				0	
6.6.1	mac	2023-06-28	14:47:06	14:53:37	387717	57739704c1b42d0001a58ae6	3	1	main_slash	7	main_slash	131	stimuli_distractor_diamondtriangles.svg	stimuli_distractor_trianglediamonds.svg	37	no	0	1	2000	0	0			0	0			1				0	
6.6.1	mac	2023-06-28	14:47:06	14:53:37	387717	57739704c1b42d0001a58ae6	3	1	main_slash	7	advance_on_keypress_SLASH	132	stimuli_distractor_diamondtriangles.svg	stimuli_distractor_trianglediamonds.svg	37	no	57	0	843	0	0			0	0			1				0	
6.6.1	mac	2023-06-28	14:47:06	14:53:39	389817	57739704c1b42d0001a58ae6	3	1	main_slash	7	main_slash	133	stimuli_distractor_trianglediamonds.svg	stimuli_target_trianglesquares.svg	26	yes	53	1	631	0	0			0	0			1				0	
6.6.1	mac	2023-06-28	14:47:06	14:53:39	389817	57739704c1b42d0001a58ae6	3	1	main_slash	7	advance_on_keypress_SLASH	134	stimuli_distractor_trianglediamonds.svg	stimuli_target_trianglesquares.svg	26	yes	57	0	404	0	0			0	0			1				0	
6.6.1	mac	2023-06-28	14:47:06	14:53:41	391654	57739704c1b42d0001a58ae6	3	1	main_slash	7	main_slash	135	stimuli_distractor_diamondtriangles.svg	stimuli_target_squaretriangles.svg	15	yes	53	1	801	0	0			0	0			1				0	
6.6.1	mac	2023-06-28	14:47:06	14:53:41	391654	57739704c1b42d0001a58ae6	3	1	main_slash	7	advance_on_keypress_SLASH	136	stimuli_distractor_diamondtriangles.svg	stimuli_target_squaretriangles.svg	15	yes	57	0	345	0	0			0	0			1				0	
6.6.1	mac	2023-06-28	14:47:06	14:53:43	393661	57739704c1b42d0001a58ae6	3	1	main_slash	7	main_slash	137	stimuli_distractor_trianglediamonds.svg	stimuli_target_trianglerectangles.svg	25	yes	53	1	1042	0	0			0	0			1				0	
6.6.1	mac	2023-06-28	14:47:06	14:53:43	393661	57739704c1b42d0001a58ae6	3	1	main_slash	7	advance_on_keypress_SLASH	138	stimuli_distractor_trianglediamonds.svg	stimuli_target_trianglerectangles.svg	25	yes	57	0	368	0	0			0	0			1				0	
6.6.1	mac	2023-06-28	14:47:06	14:53:44	395343	57739704c1b42d0001a58ae6	3	1	main_slash	7	main_slash	139	stimuli_distractor_trianglediamonds.svg	stimuli_target_squaretriangles.svg	11	yes	53	1	691	0	0			0	0			1				0	
6.6.1	mac	2023-06-28	14:47:06	14:53:44	395343	57739704c1b42d0001a58ae6	3	1	main_slash	7	advance_on_keypress_SLASH	140	stimuli_distractor_trianglediamonds.svg	stimuli_target_squaretriangles.svg	11	yes	57	0	386	0	0			0	0			1				0	
6.6.1	mac	2023-06-28	14:47:06	14:53:47	397755	57739704c1b42d0001a58ae6	3	1	main_slash	7	main_slash	141	stimuli_target_squaretriangles.svg	stimuli_distractor_diamondtriangles.svg	7	yes	53	1	1403	0	0			0	0			1				0	
6.6.1	mac	2023-06-28	14:47:06	14:53:47	397755	57739704c1b42d0001a58ae6	3	1	main_slash	7	advance_on_keypress_SLASH	142	stimuli_target_squaretriangles.svg	stimuli_distractor_diamondtriangles.svg	7	yes	57	0	312	0	0			0	0			1				0	
6.6.1	mac	2023-06-28	14:47:06	14:53:49	399438	57739704c1b42d0001a58ae6	3	1	main_slash	7	main_slash	143	stimuli_distractor_diamondtriangles.svg	stimuli_target_diamondrectangles.svg	31	yes	53	1	754	0	0			0	0			1				0	
6.6.1	mac	2023-06-28	14:47:06	14:53:49	399438	57739704c1b42d0001a58ae6	3	1	main_slash	7	advance_on_keypress_SLASH	144	stimuli_distractor_diamondtriangles.svg	stimuli_target_diamondrectangles.svg	31	yes	57	0	330	0	0			0	0			1				0	
6.6.1	mac	2023-06-28	14:47:06	14:53:50	400978	57739704c1b42d0001a58ae6	3	1	main_slash	7	main_slash	145	stimuli_distractor_trianglediamonds.svg	stimuli_target_rectanglediamonds.svg	10	yes	53	1	577	0	0			0	0			1				0	
6.6.1	mac	2023-06-28	14:47:06	14:53:50	400978	57739704c1b42d0001a58ae6	3	1	main_slash	7	advance_on_keypress_SLASH	146	stimuli_distractor_trianglediamonds.svg	stimuli_target_rectanglediamonds.svg	10	yes	57	0	345	0	0			0	0			1				0	
6.6.1	mac	2023-06-28	14:47:06	14:53:52	402581	57739704c1b42d0001a58ae6	3	1	main_slash	7	main_slash	147	stimuli_target_trianglesquares.svg	stimuli_distractor_diamondtriangles.svg	22	yes	53	1	628	0	0			0	0			1				0	
6.6.1	mac	2023-06-28	14:47:06	14:53:52	402581	57739704c1b42d0001a58ae6	3	1	main_slash	7	advance_on_keypress_SLASH	148	stimuli_target_trianglesquares.svg	stimuli_distractor_diamondtriangles.svg	22	yes	57	0	324	0	0			0	0			1				0	
6.6.1	mac	2023-06-28	14:47:06	14:53:55	405533	57739704c1b42d0001a58ae6	3	1	main_slash	7	main_slash	149	stimuli_target_rectanglediamonds.svg	stimuli_distractor_diamondtriangles.svg	6	yes	0	0	2000	0	0			0	0			1				0	
6.6.1	mac	2023-06-28	14:47:06	14:53:55	405533	57739704c1b42d0001a58ae6	3	1	main_slash	7	advance_on_keypress_SLASH	150	stimuli_target_rectanglediamonds.svg	stimuli_distractor_diamondtriangles.svg	6	yes	57	0	1406	0	0			0	0			1				0	
6.6.1	mac	2023-06-28	14:47:06	14:53:57	408236	57739704c1b42d0001a58ae6	3	1	main_slash	7	main_slash	151	stimuli_target_diamondsquares.svg	stimuli_distractor_trianglediamonds.svg	20	yes	53	1	668	0	0			0	0			1				0	
6.6.1	mac	2023-06-28	14:47:06	14:53:57	408236	57739704c1b42d0001a58ae6	3	1	main_slash	7	advance_on_keypress_SLASH	152	stimuli_target_diamondsquares.svg	stimuli_distractor_trianglediamonds.svg	20	yes	57	0	329	0	0			0	0			1				0	
6.6.1	mac	2023-06-28	14:47:06	14:54:00	411200	57739704c1b42d0001a58ae6	3	1	main_slash	7	main_slash	153	stimuli_distractor_trianglediamonds.svg	stimuli_distractor_diamondtriangles.svg	35	no	0	1	2000	0	0			0	0			1				0	
6.6.1	mac	2023-06-28	14:47:06	14:54:00	411200	57739704c1b42d0001a58ae6	3	1	main_slash	7	advance_on_keypress_SLASH	154	stimuli_distractor_trianglediamonds.svg	stimuli_distractor_diamondtriangles.svg	35	no	57	0	432	0	0			0	0			1				0	
6.6.1	mac	2023-06-28	14:47:06	14:54:03	414267	57739704c1b42d0001a58ae6	3	1	main_slash	7	main_slash	155	stimuli_distractor_trianglediamonds.svg	stimuli_distractor_diamondtriangles.svg	36	no	0	1	2000	0	0			0	0			1				0	
6.6.1	mac	2023-06-28	14:47:06	14:54:03	414267	57739704c1b42d0001a58ae6	3	1	main_slash	7	advance_on_keypress_SLASH	156	stimuli_distractor_trianglediamonds.svg	stimuli_distractor_diamondtriangles.svg	36	no	57	0	549	0	0			0	0			1				0	
6.6.1	mac	2023-06-28	14:47:06	14:54:05	416019	57739704c1b42d0001a58ae6	3	1	main_slash	7	main_slash	157	stimuli_target_trianglerectangles.svg	stimuli_distractor_trianglediamonds.svg	17	yes	53	1	568	0	0			0	0			1				0	
6.6.1	mac	2023-06-28	14:47:06	14:54:05	416019	57739704c1b42d0001a58ae6	3	1	main_slash	7	advance_on_keypress_SLASH	158	stimuli_target_trianglerectangles.svg	stimuli_distractor_trianglediamonds.svg	17	yes	57	0	395	0	0			0	0			1				0	
6.6.1	mac	2023-06-28	14:47:06	14:54:07	417543	57739704c1b42d0001a58ae6	3	1	main_slash	7	main_slash	159	stimuli_distractor_diamondtriangles.svg	stimuli_target_rectangletriangles.svg	13	yes	53	1	508	0	0			0	0			1				0	
6.6.1	mac	2023-06-28	14:47:06	14:54:07	417543	57739704c1b42d0001a58ae6	3	1	main_slash	7	advance_on_keypress_SLASH	160	stimuli_distractor_diamondtriangles.svg	stimuli_target_rectangletriangles.svg	13	yes	57	0	391	0	0			0	0			1				0	
6.6.1	mac	2023-06-28	14:47:06	14:54:26	436951	57739704c1b42d0001a58ae6	3	1	practice_z	9	practice_z	1	stimuli_target_squarediamonds.svg	stimuli_distractor_trianglediamonds.svg	5	yes	44	1	400	0	0			0	0			1				0	
6.6.1	mac	2023-06-28	14:47:06	14:54:26	436951	57739704c1b42d0001a58ae6	3	1	practice_z	9	advance_on_keypress_ZEE	2	stimuli_target_squarediamonds.svg	stimuli_distractor_trianglediamonds.svg	5	yes	57	0	681	0	0			0	0			1				0	
6.6.1	mac	2023-06-28	14:47:06	14:54:29	439757	57739704c1b42d0001a58ae6	3	1	practice_z	9	practice_z	3	stimuli_distractor_trianglediamonds.svg	stimuli_target_diamondrectangles.svg	12	yes	44	1	489	0	0			0	0			1				0	
6.6.1	mac	2023-06-28	14:47:06	14:54:29	439757	57739704c1b42d0001a58ae6	3	1	practice_z	9	advance_on_keypress_ZEE	4	stimuli_distractor_trianglediamonds.svg	stimuli_target_diamondrectangles.svg	12	yes	57	0	687	0	0			0	0			1				0	
6.6.1	mac	2023-06-28	14:47:06	14:54:32	442455	57739704c1b42d0001a58ae6	3	1	practice_z	9	practice_z	5	stimuli_target_rectanglediamonds.svg	stimuli_distractor_diamondtriangles.svg	1	yes	44	1	388	0	0			0	0			1				0	
6.6.1	mac	2023-06-28	14:47:06	14:54:32	442455	57739704c1b42d0001a58ae6	3	1	practice_z	9	advance_on_keypress_ZEE	6	stimuli_target_rectanglediamonds.svg	stimuli_distractor_diamondtriangles.svg	1	yes	57	0	744	0	0			0	0			1				0	
6.6.1	mac	2023-06-28	14:47:06	14:54:36	446815	57739704c1b42d0001a58ae6	3	1	practice_z	9	practice_z	7	stimuli_distractor_diamondtriangles.svg	stimuli_distractor_diamondtriangles.svg	13	no	0	1	2000	0	0			0	0			1				0	
6.6.1	mac	2023-06-28	14:47:06	14:54:36	446815	57739704c1b42d0001a58ae6	3	1	practice_z	9	advance_on_keypress_ZEE	8	stimuli_distractor_diamondtriangles.svg	stimuli_distractor_diamondtriangles.svg	13	no	57	0	609	0	0			0	0			1				0	
6.6.1	mac	2023-06-28	14:47:06	14:54:39	449572	57739704c1b42d0001a58ae6	3	1	practice_z	9	practice_z	9	stimuli_distractor_diamondtriangles.svg	stimuli_target_rectangletriangles.svg	7	yes	44	1	522	0	0			0	0			1				0	
6.6.1	mac	2023-06-28	14:47:06	14:54:39	449572	57739704c1b42d0001a58ae6	3	1	practice_z	9	advance_on_keypress_ZEE	10	stimuli_distractor_diamondtriangles.svg	stimuli_target_rectangletriangles.svg	7	yes	57	0	774	0	0			0	0			1				0	
6.6.1	mac	2023-06-28	14:47:06	14:54:42	452511	57739704c1b42d0001a58ae6	3	1	practice_z	9	practice_z	11	stimuli_target_rectanglediamonds.svg	stimuli_distractor_trianglediamonds.svg	4	yes	44	1	544	0	0			0	0			1				0	
6.6.1	mac	2023-06-28	14:47:06	14:54:42	452511	57739704c1b42d0001a58ae6	3	1	practice_z	9	advance_on_keypress_ZEE	12	stimuli_target_rectanglediamonds.svg	stimuli_distractor_trianglediamonds.svg	4	yes	57	0	740	0	0			0	0			1				0	
6.6.1	mac	2023-06-28	14:47:06	14:54:45	455618	57739704c1b42d0001a58ae6	3	1	practice_z	9	practice_z	13	stimuli_target_diamondsquares.svg	stimuli_distractor_diamondtriangles.svg	3	yes	44	1	733	0	0			0	0			1				0	
6.6.1	mac	2023-06-28	14:47:06	14:54:45	455618	57739704c1b42d0001a58ae6	3	1	practice_z	9	advance_on_keypress_ZEE	14	stimuli_target_diamondsquares.svg	stimuli_distractor_diamondtriangles.svg	3	yes	57	0	579	0	0			0	0			1				0	
6.6.1	mac	2023-06-28	14:47:06	14:54:49	459832	57739704c1b42d0001a58ae6	3	1	practice_z	9	practice_z	15	stimuli_distractor_diamondtriangles.svg	stimuli_distractor_trianglediamonds.svg	14	no	0	1	2000	0	0			0	0			1				0	
6.6.1	mac	2023-06-28	14:47:06	14:54:49	459832	57739704c1b42d0001a58ae6	3	1	practice_z	9	advance_on_keypress_ZEE	16	stimuli_distractor_diamondtriangles.svg	stimuli_distractor_trianglediamonds.svg	14	no	57	0	912	0	0			0	0			1				0	
6.6.1	mac	2023-06-28	14:47:06	14:54:53	464364	57739704c1b42d0001a58ae6	3	1	practice_z	9	practice_z	17	stimuli_distractor_trianglediamonds.svg	stimuli_distractor_diamondtriangles.svg	16	no	0	1	2000	0	0			0	0			1				0	
6.6.1	mac	2023-06-28	14:47:06	14:54:53	464364	57739704c1b42d0001a58ae6	3	1	practice_z	9	advance_on_keypress_ZEE	18	stimuli_distractor_trianglediamonds.svg	stimuli_distractor_diamondtriangles.svg	16	no	57	0	885	0	0			0	0			1				0	
6.6.1	mac	2023-06-28	14:47:06	14:54:56	467354	57739704c1b42d0001a58ae6	3	1	practice_z	9	practice_z	19	stimuli_target_diamondsquares.svg	stimuli_distractor_trianglediamonds.svg	6	yes	44	1	471	0	0			0	0			1				0	
6.6.1	mac	2023-06-28	14:47:06	14:54:56	467354	57739704c1b42d0001a58ae6	3	1	practice_z	9	advance_on_keypress_ZEE	20	stimuli_target_diamondsquares.svg	stimuli_distractor_trianglediamonds.svg	6	yes	57	0	729	0	0			0	0			1				0	
6.6.1	mac	2023-06-28	14:47:06	14:54:59	470236	57739704c1b42d0001a58ae6	3	1	practice_z	9	practice_z	21	stimuli_distractor_trianglediamonds.svg	stimuli_target_rectanglediamonds.svg	10	yes	44	1	520	0	0			0	0			1				0	
6.6.1	mac	2023-06-28	14:47:06	14:54:59	470236	57739704c1b42d0001a58ae6	3	1	practice_z	9	advance_on_keypress_ZEE	22	stimuli_distractor_trianglediamonds.svg	stimuli_target_rectanglediamonds.svg	10	yes	57	0	2008	0	0			0	0			1				0	
6.6.1	mac	2023-06-28	14:47:06	14:55:04	474485	57739704c1b42d0001a58ae6	3	1	practice_z	9	practice_z	23	stimuli_distractor_diamondtriangles.svg	stimuli_target_trianglerectangles.svg	9	yes	44	1	619	0	0			0	0			1				0	
6.6.1	mac	2023-06-28	14:47:06	14:55:04	474485	57739704c1b42d0001a58ae6	3	1	practice_z	9	advance_on_keypress_ZEE	24	stimuli_distractor_diamondtriangles.svg	stimuli_target_trianglerectangles.svg	9	yes	57	0	650	0	0			0	0			1				0	
6.6.1	mac	2023-06-28	14:47:06	14:55:06	477336	57739704c1b42d0001a58ae6	3	1	practice_z	9	practice_z	25	stimuli_target_squarediamonds.svg	stimuli_distractor_diamondtriangles.svg	2	yes	44	1	569	0	0			0	0			1				0	
6.6.1	mac	2023-06-28	14:47:06	14:55:06	477336	57739704c1b42d0001a58ae6	3	1	practice_z	9	advance_on_keypress_ZEE	26	stimuli_target_squarediamonds.svg	stimuli_distractor_diamondtriangles.svg	2	yes	57	0	492	0	0			0	0			1				0	
6.6.1	mac	2023-06-28	14:47:06	14:55:11	481447	57739704c1b42d0001a58ae6	3	1	practice_z	9	practice_z	27	stimuli_distractor_trianglediamonds.svg	stimuli_distractor_trianglediamonds.svg	15	no	0	1	2000	0	0			0	0			1				0	
6.6.1	mac	2023-06-28	14:47:06	14:55:11	481447	57739704c1b42d0001a58ae6	3	1	practice_z	9	advance_on_keypress_ZEE	28	stimuli_distractor_trianglediamonds.svg	stimuli_distractor_trianglediamonds.svg	15	no	57	0	1129	0	0			0	0			1				0	
6.6.1	mac	2023-06-28	14:47:06	14:55:14	484784	57739704c1b42d0001a58ae6	3	1	practice_z	9	practice_z	29	stimuli_distractor_trianglediamonds.svg	stimuli_target_squarediamonds.svg	11	yes	44	1	567	0	0			0	0			1				0	
6.6.1	mac	2023-06-28	14:47:06	14:55:14	484784	57739704c1b42d0001a58ae6	3	1	practice_z	9	advance_on_keypress_ZEE	30	stimuli_distractor_trianglediamonds.svg	stimuli_target_squarediamonds.svg	11	yes	57	0	557	0	0			0	0			1				0	
6.6.1	mac	2023-06-28	14:47:06	14:55:17	487483	57739704c1b42d0001a58ae6	3	1	practice_z	9	practice_z	31	stimuli_distractor_diamondtriangles.svg	stimuli_target_diamondrectangles.svg	8	yes	44	1	518	0	0			0	0			1				0	
6.6.1	mac	2023-06-28	14:47:06	14:55:17	487483	57739704c1b42d0001a58ae6	3	1	practice_z	9	advance_on_keypress_ZEE	32	stimuli_distractor_diamondtriangles.svg	stimuli_target_diamondrectangles.svg	8	yes	57	0	514	0	0			0	0			1				0	
6.6.1	mac	2023-06-28	14:47:06	14:55:20	491243	57739704c1b42d0001a58ae6	3	1	main_z	11	main_z	1	stimuli_target_trianglesquares.svg	stimuli_distractor_trianglediamonds.svg	18	yes	44	1	493	0	0			0	0			1				0	
6.6.1	mac	2023-06-28	14:47:06	14:55:20	491243	57739704c1b42d0001a58ae6	3	1	main_z	11	advance_on_keypress_ZEE	2	stimuli_target_trianglesquares.svg	stimuli_distractor_trianglediamonds.svg	18	yes	57	0	908	0	0			0	0			1				0	
6.6.1	mac	2023-06-28	14:47:06	14:55:22	493185	57739704c1b42d0001a58ae6	3	1	main_z	11	main_z	3	stimuli_target_rectangletriangles.svg	stimuli_distractor_diamondtriangles.svg	5	yes	44	1	419	0	0			0	0			1				0	
6.6.1	mac	2023-06-28	14:47:06	14:55:22	493185	57739704c1b42d0001a58ae6	3	1	main_z	11	advance_on_keypress_ZEE	4	stimuli_target_rectangletriangles.svg	stimuli_distractor_diamondtriangles.svg	5	yes	57	0	579	0	0			0	0			1				0	
6.6.1	mac	2023-06-28	14:47:06	14:55:24	494870	57739704c1b42d0001a58ae6	3	1	main_z	11	main_z	5	stimuli_distractor_trianglediamonds.svg	stimuli_target_diamondrectangles.svg	27	yes	44	1	471	0	0			0	0			1				0	
6.6.1	mac	2023-06-28	14:47:06	14:55:24	494870	57739704c1b42d0001a58ae6	3	1	main_z	11	advance_on_keypress_ZEE	6	stimuli_distractor_trianglediamonds.svg	stimuli_target_diamondrectangles.svg	27	yes	57	0	520	0	0			0	0			1				0	
6.6.1	mac	2023-06-28	14:47:06	14:55:27	498014	57739704c1b42d0001a58ae6	3	1	main_z	11	main_z	7	stimuli_distractor_diamondtriangles.svg	stimuli_distractor_trianglediamonds.svg	37	no	0	1	2000	0	0			0	0			1				0	
6.6.1	mac	2023-06-28	14:47:06	14:55:27	498014	57739704c1b42d0001a58ae6	3	1	main_z	11	advance_on_keypress_ZEE	8	stimuli_distractor_diamondtriangles.svg	stimuli_distractor_trianglediamonds.svg	37	no	57	0	765	0	0			0	0			1				0	
6.6.1	mac	2023-06-28	14:47:06	14:55:29	499832	57739704c1b42d0001a58ae6	3	1	main_z	11	main_z	9	stimuli_target_trianglerectangles.svg	stimuli_distractor_trianglediamonds.svg	17	yes	44	1	416	0	0			0	0			1				0	
6.6.1	mac	2023-06-28	14:47:06	14:55:29	499832	57739704c1b42d0001a58ae6	3	1	main_z	11	advance_on_keypress_ZEE	10	stimuli_target_trianglerectangles.svg	stimuli_distractor_trianglediamonds.svg	17	yes	57	0	920	0	0			0	0			1				0	
6.6.1	mac	2023-06-28	14:47:06	14:55:31	502333	57739704c1b42d0001a58ae6	3	1	main_z	11	main_z	11	stimuli_target_squaretriangles.svg	stimuli_distractor_diamondtriangles.svg	7	yes	44	1	950	0	0			0	0			1				0	
6.6.1	mac	2023-06-28	14:47:06	14:55:31	502333	57739704c1b42d0001a58ae6	3	1	main_z	11	advance_on_keypress_ZEE	12	stimuli_target_squaretriangles.svg	stimuli_distractor_diamondtriangles.svg	7	yes	57	0	932	0	0			0	0			1				0	
6.6.1	mac	2023-06-28	14:47:06	14:55:34	504517	57739704c1b42d0001a58ae6	3	1	main_z	11	main_z	13	stimuli_distractor_trianglediamonds.svg	stimuli_target_trianglesquares.svg	26	yes	44	1	618	0	0			0	0			1				0	
6.6.1	mac	2023-06-28	14:47:06	14:55:34	504517	57739704c1b42d0001a58ae6	3	1	main_z	11	advance_on_keypress_ZEE	14	stimuli_distractor_trianglediamonds.svg	stimuli_target_trianglesquares.svg	26	yes	57	0	525	0	0			0	0			1				0	
6.6.1	mac	2023-06-28	14:47:06	14:55:35	506257	57739704c1b42d0001a58ae6	3	1	main_z	11	main_z	15	stimuli_target_squarediamonds.svg	stimuli_distractor_diamondtriangles.svg	8	yes	44	1	591	0	0			0	0			1				0	
6.6.1	mac	2023-06-28	14:47:06	14:55:35	506257	57739704c1b42d0001a58ae6	3	1	main_z	11	advance_on_keypress_ZEE	16	stimuli_target_squarediamonds.svg	stimuli_distractor_diamondtriangles.svg	8	yes	57	0	746	0	0			0	0			1				0	
6.6.1	mac	2023-06-28	14:47:06	14:55:37	508124	57739704c1b42d0001a58ae6	3	1	main_z	11	main_z	17	stimuli_distractor_diamondtriangles.svg	stimuli_target_squaretriangles.svg	15	yes	44	1	509	0	0			0	0			1				0	
6.6.1	mac	2023-06-28	14:47:06	14:55:37	508124	57739704c1b42d0001a58ae6	3	1	main_z	11	advance_on_keypress_ZEE	18	stimuli_distractor_diamondtriangles.svg	stimuli_target_squaretriangles.svg	15	yes	57	0	916	0	0			0	0			1				0	
6.6.1	mac	2023-06-28	14:47:06	14:55:39	510202	57739704c1b42d0001a58ae6	3	1	main_z	11	main_z	19	stimuli_distractor_diamondtriangles.svg	stimuli_target_rectangletriangles.svg	13	yes	44	1	536	0	0			0	0			1				0	
6.6.1	mac	2023-06-28	14:47:06	14:55:39	510202	57739704c1b42d0001a58ae6	3	1	main_z	11	advance_on_keypress_ZEE	20	stimuli_distractor_diamondtriangles.svg	stimuli_target_rectangletriangles.svg	13	yes	57	0	572	0	0			0	0			1				0	
6.6.1	mac	2023-06-28	14:47:06	14:55:41	511771	57739704c1b42d0001a58ae6	3	1	main_z	11	main_z	21	stimuli_target_rectangletriangles.svg	stimuli_distractor_trianglediamonds.svg	1	yes	44	1	373	0	0			0	0			1				0	
6.6.1	mac	2023-06-28	14:47:06	14:55:41	511771	57739704c1b42d0001a58ae6	3	1	main_z	11	advance_on_keypress_ZEE	22	stimuli_target_rectangletriangles.svg	stimuli_distractor_trianglediamonds.svg	1	yes	57	0	496	0	0			0	0			1				0	
6.6.1	mac	2023-06-28	14:47:06	14:55:44	514897	57739704c1b42d0001a58ae6	3	1	main_z	11	main_z	23	stimuli_distractor_diamondtriangles.svg	stimuli_distractor_diamondtriangles.svg	40	no	0	1	2000	0	0			0	0			1				0	
6.6.1	mac	2023-06-28	14:47:06	14:55:44	514897	57739704c1b42d0001a58ae6	3	1	main_z	11	advance_on_keypress_ZEE	24	stimuli_distractor_diamondtriangles.svg	stimuli_distractor_diamondtriangles.svg	40	no	57	0	715	0	0			0	0			1				0	
6.6.1	mac	2023-06-28	14:47:06	14:55:46	516743	57739704c1b42d0001a58ae6	3	1	main_z	11	main_z	25	stimuli_target_rectanglediamonds.svg	stimuli_distractor_trianglediamonds.svg	2	yes	44	1	494	0	0			0	0			1				0	
6.6.1	mac	2023-06-28	14:47:06	14:55:46	516743	57739704c1b42d0001a58ae6	3	1	main_z	11	advance_on_keypress_ZEE	26	stimuli_target_rectanglediamonds.svg	stimuli_distractor_trianglediamonds.svg	2	yes	57	0	1017	0	0			0	0			1				0	
6.6.1	mac	2023-06-28	14:47:06	14:55:48	518999	57739704c1b42d0001a58ae6	3	1	main_z	11	main_z	27	stimuli_distractor_diamondtriangles.svg	stimuli_target_diamondrectangles.svg	31	yes	44	1	617	0	0			0	0			1				0	
6.6.1	mac	2023-06-28	14:47:06	14:55:48	518999	57739704c1b42d0001a58ae6	3	1	main_z	11	advance_on_keypress_ZEE	28	stimuli_distractor_diamondtriangles.svg	stimuli_target_diamondrectangles.svg	31	yes	57	0	581	0	0			0	0			1				0	
6.6.1	mac	2023-06-28	14:47:06	14:55:50	520783	57739704c1b42d0001a58ae6	3	1	main_z	11	main_z	29	stimuli_target_diamondrectangles.svg	stimuli_distractor_trianglediamonds.svg	19	yes	44	1	568	0	0			0	0			1				0	
6.6.1	mac	2023-06-28	14:47:06	14:55:50	520783	57739704c1b42d0001a58ae6	3	1	main_z	11	advance_on_keypress_ZEE	30	stimuli_target_diamondrectangles.svg	stimuli_distractor_trianglediamonds.svg	19	yes	57	0	435	0	0			0	0			1				0	
6.6.1	mac	2023-06-28	14:47:06	14:55:53	523846	57739704c1b42d0001a58ae6	3	1	main_z	11	main_z	31	stimuli_distractor_trianglediamonds.svg	stimuli_distractor_trianglediamonds.svg	34	no	0	1	2000	0	0			0	0			1				0	
6.6.1	mac	2023-06-28	14:47:06	14:55:53	523846	57739704c1b42d0001a58ae6	3	1	main_z	11	advance_on_keypress_ZEE	32	stimuli_distractor_trianglediamonds.svg	stimuli_distractor_trianglediamonds.svg	34	no	57	0	468	0	0			0	0			1				0	
6.6.1	mac	2023-06-28	14:47:06	14:55:55	525571	57739704c1b42d0001a58ae6	3	1	main_z	11	main_z	33	stimuli_distractor_trianglediamonds.svg	stimuli_target_squaretriangles.svg	11	yes	44	1	622	0	0			0	0			1				0	
6.6.1	mac	2023-06-28	14:47:06	14:55:55	525571	57739704c1b42d0001a58ae6	3	1	main_z	11	advance_on_keypress_ZEE	34	stimuli_distractor_trianglediamonds.svg	stimuli_target_squaretriangles.svg	11	yes	57	0	534	0	0			0	0			1				0	
6.6.1	mac	2023-06-28	14:47:06	14:55:58	528730	57739704c1b42d0001a58ae6	3	1	main_z	11	main_z	35	stimuli_distractor_diamondtriangles.svg	stimuli_distractor_diamondtriangles.svg	39	no	0	1	2000	0	0			0	0			1				0	
6.6.1	mac	2023-06-28	14:47:06	14:55:58	528730	57739704c1b42d0001a58ae6	3	1	main_z	11	advance_on_keypress_ZEE	36	stimuli_distractor_diamondtriangles.svg	stimuli_distractor_diamondtriangles.svg	39	no	57	0	883	0	0			0	0			1				0	
6.6.1	mac	2023-06-28	14:47:06	14:56:00	530763	57739704c1b42d0001a58ae6	3	1	main_z	11	main_z	37	stimuli_distractor_diamondtriangles.svg	stimuli_target_squarediamonds.svg	16	yes	44	1	516	0	0			0	0			1				0	
6.6.1	mac	2023-06-28	14:47:06	14:56:00	530763	57739704c1b42d0001a58ae6	3	1	main_z	11	advance_on_keypress_ZEE	38	stimuli_distractor_diamondtriangles.svg	stimuli_target_squarediamonds.svg	16	yes	57	0	692	0	0			0	0			1				0	
6.6.1	mac	2023-06-28	14:47:06	14:56:02	532706	57739704c1b42d0001a58ae6	3	1	main_z	11	main_z	39	stimuli_target_diamondsquares.svg	stimuli_distractor_diamondtriangles.svg	24	yes	44	1	625	0	0			0	0			1				0	
6.6.1	mac	2023-06-28	14:47:06	14:56:02	532706	57739704c1b42d0001a58ae6	3	1	main_z	11	advance_on_keypress_ZEE	40	stimuli_target_diamondsquares.svg	stimuli_distractor_diamondtriangles.svg	24	yes	57	0	573	0	0			0	0			1				0	
6.6.1	mac	2023-06-28	14:47:06	14:56:04	534509	57739704c1b42d0001a58ae6	3	1	main_z	11	main_z	41	stimuli_distractor_trianglediamonds.svg	stimuli_target_trianglerectangles.svg	25	yes	44	1	611	0	0			0	0			1				0	
6.6.1	mac	2023-06-28	14:47:06	14:56:04	534509	57739704c1b42d0001a58ae6	3	1	main_z	11	advance_on_keypress_ZEE	42	stimuli_distractor_trianglediamonds.svg	stimuli_target_trianglerectangles.svg	25	yes	57	0	652	0	0			0	0			1				0	
6.6.1	mac	2023-06-28	14:47:06	14:56:05	536213	57739704c1b42d0001a58ae6	3	1	main_z	11	main_z	43	stimuli_distractor_trianglediamonds.svg	stimuli_target_rectanglediamonds.svg	10	yes	44	1	415	0	0			0	0			1				0	
6.6.1	mac	2023-06-28	14:47:06	14:56:05	536213	57739704c1b42d0001a58ae6	3	1	main_z	11	advance_on_keypress_ZEE	44	stimuli_distractor_trianglediamonds.svg	stimuli_target_rectanglediamonds.svg	10	yes	57	0	664	0	0			0	0			1				0	
6.6.1	mac	2023-06-28	14:47:06	14:56:07	538161	57739704c1b42d0001a58ae6	3	1	main_z	11	main_z	45	stimuli_distractor_diamondtriangles.svg	stimuli_target_diamondsquares.svg	32	yes	44	1	647	0	0			0	0			1				0	
6.6.1	mac	2023-06-28	14:47:06	14:56:07	538161	57739704c1b42d0001a58ae6	3	1	main_z	11	advance_on_keypress_ZEE	46	stimuli_distractor_diamondtriangles.svg	stimuli_target_diamondsquares.svg	32	yes	57	0	476	0	0			0	0			1				0	
6.6.1	mac	2023-06-28	14:47:06	14:56:09	539837	57739704c1b42d0001a58ae6	3	1	main_z	11	main_z	47	stimuli_distractor_diamondtriangles.svg	stimuli_target_rectanglediamonds.svg	14	yes	44	1	573	0	0			0	0			1				0	
6.6.1	mac	2023-06-28	14:47:06	14:56:09	539837	57739704c1b42d0001a58ae6	3	1	main_z	11	advance_on_keypress_ZEE	48	stimuli_distractor_diamondtriangles.svg	stimuli_target_rectanglediamonds.svg	14	yes	57	0	442	0	0			0	0			1				0	
6.6.1	mac	2023-06-28	14:47:06	14:56:10	541314	57739704c1b42d0001a58ae6	3	1	main_z	11	main_z	49	stimuli_distractor_trianglediamonds.svg	stimuli_target_squarediamonds.svg	12	yes	44	1	399	0	0			0	0			1				0	
6.6.1	mac	2023-06-28	14:47:06	14:56:10	541314	57739704c1b42d0001a58ae6	3	1	main_z	11	advance_on_keypress_ZEE	50	stimuli_distractor_trianglediamonds.svg	stimuli_target_squarediamonds.svg	12	yes	57	0	469	0	0			0	0			1				0	
6.6.1	mac	2023-06-28	14:47:06	14:56:12	542969	57739704c1b42d0001a58ae6	3	1	main_z	11	main_z	51	stimuli_target_trianglerectangles.svg	stimuli_distractor_diamondtriangles.svg	21	yes	44	1	554	0	0			0	0			1				0	
6.6.1	mac	2023-06-28	14:47:06	14:56:12	542969	57739704c1b42d0001a58ae6	3	1	main_z	11	advance_on_keypress_ZEE	52	stimuli_target_trianglerectangles.svg	stimuli_distractor_diamondtriangles.svg	21	yes	57	0	646	0	0			0	0			1				0	
6.6.1	mac	2023-06-28	14:47:06	14:56:15	546245	57739704c1b42d0001a58ae6	3	1	main_z	11	main_z	53	stimuli_distractor_trianglediamonds.svg	stimuli_distractor_diamondtriangles.svg	35	no	0	1	2000	0	0			0	0			1				0	
6.6.1	mac	2023-06-28	14:47:06	14:56:15	546245	57739704c1b42d0001a58ae6	3	1	main_z	11	advance_on_keypress_ZEE	54	stimuli_distractor_trianglediamonds.svg	stimuli_distractor_diamondtriangles.svg	35	no	57	0	1233	0	0			0	0			1				0	
6.6.1	mac	2023-06-28	14:47:06	14:56:18	548731	57739704c1b42d0001a58ae6	3	1	main_z	11	main_z	55	stimuli_target_diamondrectangles.svg	stimuli_distractor_diamondtriangles.svg	23	yes	44	1	600	0	0			0	0			1				0	
6.6.1	mac	2023-06-28	14:47:06	14:56:18	548731	57739704c1b42d0001a58ae6	3	1	main_z	11	advance_on_keypress_ZEE	56	stimuli_target_diamondrectangles.svg	stimuli_distractor_diamondtriangles.svg	23	yes	57	0	671	0	0			0	0			1				0	
6.6.1	mac	2023-06-28	14:47:06	14:56:21	552029	57739704c1b42d0001a58ae6	3	1	main_z	11	main_z	57	stimuli_distractor_trianglediamonds.svg	stimuli_distractor_diamondtriangles.svg	36	no	0	1	2000	0	0			0	0			1				0	
6.6.1	mac	2023-06-28	14:47:06	14:56:21	552029	57739704c1b42d0001a58ae6	3	1	main_z	11	advance_on_keypress_ZEE	58	stimuli_distractor_trianglediamonds.svg	stimuli_distractor_diamondtriangles.svg	36	no	57	0	446	0	0			0	0			1				0	
6.6.1	mac	2023-06-28	14:47:06	14:56:23	553659	57739704c1b42d0001a58ae6	3	1	main_z	11	main_z	59	stimuli_distractor_diamondtriangles.svg	stimuli_target_trianglerectangles.svg	29	yes	44	1	529	0	0			0	0			1				0	
6.6.1	mac	2023-06-28	14:47:06	14:56:23	553659	57739704c1b42d0001a58ae6	3	1	main_z	11	advance_on_keypress_ZEE	60	stimuli_distractor_diamondtriangles.svg	stimuli_target_trianglerectangles.svg	29	yes	57	0	490	0	0			0	0			1				0	
6.6.1	mac	2023-06-28	14:47:06	14:56:24	555275	57739704c1b42d0001a58ae6	3	1	main_z	11	main_z	61	stimuli_target_trianglesquares.svg	stimuli_distractor_diamondtriangles.svg	22	yes	44	1	494	0	0			0	0			1				0	
6.6.1	mac	2023-06-28	14:47:06	14:56:24	555275	57739704c1b42d0001a58ae6	3	1	main_z	11	advance_on_keypress_ZEE	62	stimuli_target_trianglesquares.svg	stimuli_distractor_diamondtriangles.svg	22	yes	57	0	547	0	0			0	0			1				0	
6.6.1	mac	2023-06-28	14:47:06	14:56:26	556981	57739704c1b42d0001a58ae6	3	1	main_z	11	main_z	63	stimuli_distractor_trianglediamonds.svg	stimuli_target_rectangletriangles.svg	9	yes	44	1	535	0	0			0	0			1				0	
6.6.1	mac	2023-06-28	14:47:06	14:56:26	556981	57739704c1b42d0001a58ae6	3	1	main_z	11	advance_on_keypress_ZEE	64	stimuli_distractor_trianglediamonds.svg	stimuli_target_rectangletriangles.svg	9	yes	57	0	470	0	0			0	0			1				0	
6.6.1	mac	2023-06-28	14:47:06	14:56:28	558451	57739704c1b42d0001a58ae6	3	1	main_z	11	main_z	65	stimuli_target_rectanglediamonds.svg	stimuli_distractor_diamondtriangles.svg	6	yes	44	1	372	0	0			0	0			1				0	
6.6.1	mac	2023-06-28	14:47:06	14:56:28	558451	57739704c1b42d0001a58ae6	3	1	main_z	11	advance_on_keypress_ZEE	66	stimuli_target_rectanglediamonds.svg	stimuli_distractor_diamondtriangles.svg	6	yes	57	0	441	0	0			0	0			1				0	
6.6.1	mac	2023-06-28	14:47:06	14:56:30	560465	57739704c1b42d0001a58ae6	3	1	main_z	11	main_z	67	stimuli_distractor_trianglediamonds.svg	stimuli_target_diamondsquares.svg	28	yes	44	1	951	0	0			0	0			1				0	
6.6.1	mac	2023-06-28	14:47:06	14:56:30	560465	57739704c1b42d0001a58ae6	3	1	main_z	11	advance_on_keypress_ZEE	68	stimuli_distractor_trianglediamonds.svg	stimuli_target_diamondsquares.svg	28	yes	57	0	559	0	0			0	0			1				0	
6.6.1	mac	2023-06-28	14:47:06	14:56:31	562245	57739704c1b42d0001a58ae6	3	1	main_z	11	main_z	69	stimuli_target_squaretriangles.svg	stimuli_distractor_trianglediamonds.svg	3	yes	44	1	598	0	0			0	0			1				0	
6.6.1	mac	2023-06-28	14:47:06	14:56:31	562245	57739704c1b42d0001a58ae6	3	1	main_z	11	advance_on_keypress_ZEE	70	stimuli_target_squaretriangles.svg	stimuli_distractor_trianglediamonds.svg	3	yes	57	0	808	0	0			0	0			1				0	
6.6.1	mac	2023-06-28	14:47:06	14:56:33	564125	57739704c1b42d0001a58ae6	3	1	main_z	11	main_z	71	stimuli_target_diamondsquares.svg	stimuli_distractor_trianglediamonds.svg	20	yes	44	1	444	0	0			0	0			1				0	
6.6.1	mac	2023-06-28	14:47:06	14:56:33	564125	57739704c1b42d0001a58ae6	3	1	main_z	11	advance_on_keypress_ZEE	72	stimuli_target_diamondsquares.svg	stimuli_distractor_trianglediamonds.svg	20	yes	57	0	715	0	0			0	0			1				0	
6.6.1	mac	2023-06-28	14:47:06	14:56:37	567461	57739704c1b42d0001a58ae6	3	1	main_z	11	main_z	73	stimuli_distractor_diamondtriangles.svg	stimuli_distractor_trianglediamonds.svg	38	no	0	1	2000	0	0			0	0			1				0	
6.6.1	mac	2023-06-28	14:47:06	14:56:37	567461	57739704c1b42d0001a58ae6	3	1	main_z	11	advance_on_keypress_ZEE	74	stimuli_distractor_diamondtriangles.svg	stimuli_distractor_trianglediamonds.svg	38	no	57	0	481	0	0			0	0			1				0	
6.6.1	mac	2023-06-28	14:47:06	14:56:40	570578	57739704c1b42d0001a58ae6	3	1	main_z	11	main_z	75	stimuli_distractor_trianglediamonds.svg	stimuli_distractor_trianglediamonds.svg	33	no	0	1	2000	0	0			0	0			1				0	
6.6.1	mac	2023-06-28	14:47:06	14:56:40	570578	57739704c1b42d0001a58ae6	3	1	main_z	11	advance_on_keypress_ZEE	76	stimuli_distractor_trianglediamonds.svg	stimuli_distractor_trianglediamonds.svg	33	no	57	0	512	0	0			0	0			1				0	
6.6.1	mac	2023-06-28	14:47:06	14:56:41	572210	57739704c1b42d0001a58ae6	3	1	main_z	11	main_z	77	stimuli_target_squarediamonds.svg	stimuli_distractor_trianglediamonds.svg	4	yes	44	1	480	0	0			0	0			1				0	
6.6.1	mac	2023-06-28	14:47:06	14:56:41	572210	57739704c1b42d0001a58ae6	3	1	main_z	11	advance_on_keypress_ZEE	78	stimuli_target_squarediamonds.svg	stimuli_distractor_trianglediamonds.svg	4	yes	57	0	379	0	0			0	0			1				0	
6.6.1	mac	2023-06-28	14:47:06	14:56:43	573676	57739704c1b42d0001a58ae6	3	1	main_z	11	main_z	79	stimuli_distractor_diamondtriangles.svg	stimuli_target_trianglesquares.svg	30	yes	44	1	446	0	0			0	0			1				0	
6.6.1	mac	2023-06-28	14:47:06	14:56:43	573676	57739704c1b42d0001a58ae6	3	1	main_z	11	advance_on_keypress_ZEE	80	stimuli_distractor_diamondtriangles.svg	stimuli_target_trianglesquares.svg	30	yes	57	0	400	0	0			0	0			1				0	
6.6.1	mac	2023-06-28	14:47:06	14:56:46	576711	57739704c1b42d0001a58ae6	3	1	main_z	11	main_z	81	stimuli_distractor_diamondtriangles.svg	stimuli_distractor_trianglediamonds.svg	37	no	0	1	2000	0	0			0	0			1				0	
6.6.1	mac	2023-06-28	14:47:06	14:56:46	576711	57739704c1b42d0001a58ae6	3	1	main_z	11	advance_on_keypress_ZEE	82	stimuli_distractor_diamondtriangles.svg	stimuli_distractor_trianglediamonds.svg	37	no	57	0	640	0	0			0	0			1				0	
6.6.1	mac	2023-06-28	14:47:06	14:56:48	578498	57739704c1b42d0001a58ae6	3	1	main_z	11	main_z	83	stimuli_target_squaretriangles.svg	stimuli_distractor_diamondtriangles.svg	7	yes	44	1	518	0	0			0	0			1				0	
6.6.1	mac	2023-06-28	14:47:06	14:56:48	578498	57739704c1b42d0001a58ae6	3	1	main_z	11	advance_on_keypress_ZEE	84	stimuli_target_squaretriangles.svg	stimuli_distractor_diamondtriangles.svg	7	yes	57	0	372	0	0			0	0			1				0	
6.6.1	mac	2023-06-28	14:47:06	14:56:49	579995	57739704c1b42d0001a58ae6	3	1	main_z	11	main_z	85	stimuli_distractor_trianglediamonds.svg	stimuli_target_trianglesquares.svg	26	yes	44	1	481	0	0			0	0			1				0	
6.6.1	mac	2023-06-28	14:47:06	14:56:49	579995	57739704c1b42d0001a58ae6	3	1	main_z	11	advance_on_keypress_ZEE	86	stimuli_distractor_trianglediamonds.svg	stimuli_target_trianglesquares.svg	26	yes	57	0	352	0	0			0	0			1				0	
6.6.1	mac	2023-06-28	14:47:06	14:56:51	581487	57739704c1b42d0001a58ae6	3	1	main_z	11	main_z	87	stimuli_target_trianglesquares.svg	stimuli_distractor_diamondtriangles.svg	22	yes	44	1	507	0	0			0	0			1				0	
6.6.1	mac	2023-06-28	14:47:06	14:56:51	581487	57739704c1b42d0001a58ae6	3	1	main_z	11	advance_on_keypress_ZEE	88	stimuli_target_trianglesquares.svg	stimuli_distractor_diamondtriangles.svg	22	yes	57	0	392	0	0			0	0			1				0	
6.6.1	mac	2023-06-28	14:47:06	14:56:52	583029	57739704c1b42d0001a58ae6	3	1	main_z	11	main_z	89	stimuli_distractor_diamondtriangles.svg	stimuli_target_rectanglediamonds.svg	14	yes	44	1	533	0	0			0	0			1				0	
6.6.1	mac	2023-06-28	14:47:06	14:56:52	583029	57739704c1b42d0001a58ae6	3	1	main_z	11	advance_on_keypress_ZEE	90	stimuli_distractor_diamondtriangles.svg	stimuli_target_rectanglediamonds.svg	14	yes	57	0	355	0	0			0	0			1				0	
6.6.1	mac	2023-06-28	14:47:06	14:56:54	584448	57739704c1b42d0001a58ae6	3	1	main_z	11	main_z	91	stimuli_target_rectanglediamonds.svg	stimuli_distractor_trianglediamonds.svg	2	yes	44	1	435	0	0			0	0			1				0	
6.6.1	mac	2023-06-28	14:47:06	14:56:54	584448	57739704c1b42d0001a58ae6	3	1	main_z	11	advance_on_keypress_ZEE	92	stimuli_target_rectanglediamonds.svg	stimuli_distractor_trianglediamonds.svg	2	yes	57	0	352	0	0			0	0			1				0	
6.6.1	mac	2023-06-28	14:47:06	14:56:57	587428	57739704c1b42d0001a58ae6	3	1	main_z	11	main_z	93	stimuli_distractor_trianglediamonds.svg	stimuli_distractor_diamondtriangles.svg	36	no	0	1	2000	0	0			0	0			1				0	
6.6.1	mac	2023-06-28	14:47:06	14:56:57	587428	57739704c1b42d0001a58ae6	3	1	main_z	11	advance_on_keypress_ZEE	94	stimuli_distractor_trianglediamonds.svg	stimuli_distractor_diamondtriangles.svg	36	no	57	0	541	0	0			0	0			1				0	
6.6.1	mac	2023-06-28	14:47:06	14:56:59	589618	57739704c1b42d0001a58ae6	3	1	main_z	11	main_z	95	stimuli_target_diamondsquares.svg	stimuli_distractor_diamondtriangles.svg	24	yes	44	1	1021	0	0			0	0			1				0	
6.6.1	mac	2023-06-28	14:47:06	14:56:59	589618	57739704c1b42d0001a58ae6	3	1	main_z	11	advance_on_keypress_ZEE	96	stimuli_target_diamondsquares.svg	stimuli_distractor_diamondtriangles.svg	24	yes	57	0	395	0	0			0	0			1				0	
6.6.1	mac	2023-06-28	14:47:06	14:57:00	591080	57739704c1b42d0001a58ae6	3	1	main_z	11	main_z	97	stimuli_distractor_trianglediamonds.svg	stimuli_target_diamondrectangles.svg	27	yes	44	1	452	0	0			0	0			1				0	
6.6.1	mac	2023-06-28	14:47:06	14:57:00	591080	57739704c1b42d0001a58ae6	3	1	main_z	11	advance_on_keypress_ZEE	98	stimuli_distractor_trianglediamonds.svg	stimuli_target_diamondrectangles.svg	27	yes	57	0	319	0	0			0	0			1				0	
6.6.1	mac	2023-06-28	14:47:06	14:57:02	592780	57739704c1b42d0001a58ae6	3	1	main_z	11	main_z	99	stimuli_distractor_trianglediamonds.svg	stimuli_target_rectanglediamonds.svg	10	yes	44	1	750	0	0			0	0			1				0	
6.6.1	mac	2023-06-28	14:47:06	14:57:02	592780	57739704c1b42d0001a58ae6	3	1	main_z	11	advance_on_keypress_ZEE	100	stimuli_distractor_trianglediamonds.svg	stimuli_target_rectanglediamonds.svg	10	yes	57	0	402	0	0			0	0			1				0	
6.6.1	mac	2023-06-28	14:47:06	14:57:04	595059	57739704c1b42d0001a58ae6	3	1	main_z	11	main_z	101	stimuli_target_rectangletriangles.svg	stimuli_distractor_trianglediamonds.svg	1	yes	44	1	1247	0	0			0	0			1				0	
6.6.1	mac	2023-06-28	14:47:06	14:57:04	595059	57739704c1b42d0001a58ae6	3	1	main_z	11	advance_on_keypress_ZEE	102	stimuli_target_rectangletriangles.svg	stimuli_distractor_trianglediamonds.svg	1	yes	57	0	307	0	0			0	0			1				0	
6.6.1	mac	2023-06-28	14:47:06	14:57:05	596372	57739704c1b42d0001a58ae6	3	1	main_z	11	main_z	103	stimuli_target_rectanglediamonds.svg	stimuli_distractor_diamondtriangles.svg	6	yes	44	1	376	0	0			0	0			1				0	
6.6.1	mac	2023-06-28	14:47:06	14:57:05	596372	57739704c1b42d0001a58ae6	3	1	main_z	11	advance_on_keypress_ZEE	104	stimuli_target_rectanglediamonds.svg	stimuli_distractor_diamondtriangles.svg	6	yes	57	0	278	0	0			0	0			1				0	
6.6.1	mac	2023-06-28	14:47:06	14:57:07	597711	57739704c1b42d0001a58ae6	3	1	main_z	11	main_z	105	stimuli_distractor_diamondtriangles.svg	stimuli_target_rectangletriangles.svg	13	yes	44	1	449	0	0			0	0			1				0	
6.6.1	mac	2023-06-28	14:47:06	14:57:07	597711	57739704c1b42d0001a58ae6	3	1	main_z	11	advance_on_keypress_ZEE	106	stimuli_distractor_diamondtriangles.svg	stimuli_target_rectangletriangles.svg	13	yes	57	0	316	0	0			0	0			1				0	
6.6.1	mac	2023-06-28	14:47:06	14:57:08	599009	57739704c1b42d0001a58ae6	3	1	main_z	11	main_z	107	stimuli_distractor_diamondtriangles.svg	stimuli_target_squarediamonds.svg	16	yes	44	1	346	0	0			0	0			1				0	
6.6.1	mac	2023-06-28	14:47:06	14:57:08	599009	57739704c1b42d0001a58ae6	3	1	main_z	11	advance_on_keypress_ZEE	108	stimuli_distractor_diamondtriangles.svg	stimuli_target_squarediamonds.svg	16	yes	57	0	265	0	0			0	0			1				0	
6.6.1	mac	2023-06-28	14:47:06	14:57:11	601911	57739704c1b42d0001a58ae6	3	1	main_z	11	main_z	109	stimuli_target_diamondsquares.svg	stimuli_distractor_trianglediamonds.svg	20	yes	0	0	2000	0	0			0	0			1				0	
6.6.1	mac	2023-06-28	14:47:06	14:57:11	601911	57739704c1b42d0001a58ae6	3	1	main_z	11	advance_on_keypress_ZEE	110	stimuli_target_diamondsquares.svg	stimuli_distractor_trianglediamonds.svg	20	yes	57	0	566	0	0			0	0			1				0	
6.6.1	mac	2023-06-28	14:47:06	14:57:14	605127	57739704c1b42d0001a58ae6	3	1	main_z	11	main_z	111	stimuli_distractor_diamondtriangles.svg	stimuli_distractor_diamondtriangles.svg	39	no	0	1	2000	0	0			0	0			1				0	
6.6.1	mac	2023-06-28	14:47:06	14:57:14	605127	57739704c1b42d0001a58ae6	3	1	main_z	11	advance_on_keypress_ZEE	112	stimuli_distractor_diamondtriangles.svg	stimuli_distractor_diamondtriangles.svg	39	no	57	0	443	0	0			0	0			1				0	
6.6.1	mac	2023-06-28	14:47:06	14:57:16	606745	57739704c1b42d0001a58ae6	3	1	main_z	11	main_z	113	stimuli_target_squarediamonds.svg	stimuli_distractor_diamondtriangles.svg	8	yes	44	1	549	0	0			0	0			1				0	
6.6.1	mac	2023-06-28	14:47:06	14:57:16	606745	57739704c1b42d0001a58ae6	3	1	main_z	11	advance_on_keypress_ZEE	114	stimuli_target_squarediamonds.svg	stimuli_distractor_diamondtriangles.svg	8	yes	57	0	298	0	0			0	0			1				0	
6.6.1	mac	2023-06-28	14:47:06	14:57:17	608230	57739704c1b42d0001a58ae6	3	1	main_z	11	main_z	115	stimuli_target_rectangletriangles.svg	stimuli_distractor_diamondtriangles.svg	5	yes	44	1	551	0	0			0	0			1				0	
6.6.1	mac	2023-06-28	14:47:06	14:57:17	608230	57739704c1b42d0001a58ae6	3	1	main_z	11	advance_on_keypress_ZEE	116	stimuli_target_rectangletriangles.svg	stimuli_distractor_diamondtriangles.svg	5	yes	57	0	327	0	0			0	0			1				0	
6.6.1	mac	2023-06-28	14:47:06	14:57:20	611177	57739704c1b42d0001a58ae6	3	1	main_z	11	main_z	117	stimuli_distractor_diamondtriangles.svg	stimuli_distractor_trianglediamonds.svg	38	no	0	1	2000	0	0			0	0			1				0	
6.6.1	mac	2023-06-28	14:47:06	14:57:20	611177	57739704c1b42d0001a58ae6	3	1	main_z	11	advance_on_keypress_ZEE	118	stimuli_distractor_diamondtriangles.svg	stimuli_distractor_trianglediamonds.svg	38	no	57	0	666	0	0			0	0			1				0	
6.6.1	mac	2023-06-28	14:47:06	14:57:22	613380	57739704c1b42d0001a58ae6	3	1	main_z	11	main_z	119	stimuli_distractor_trianglediamonds.svg	stimuli_distractor_diamondtriangles.svg	35	no	44	0	901	0	0			0	0			1				0	
6.6.1	mac	2023-06-28	14:47:06	14:57:22	613380	57739704c1b42d0001a58ae6	3	1	main_z	11	advance_on_keypress_ZEE	120	stimuli_distractor_trianglediamonds.svg	stimuli_distractor_diamondtriangles.svg	35	no	57	0	335	0	0			0	0			1				0	
6.6.1	mac	2023-06-28	14:47:06	14:57:25	616344	57739704c1b42d0001a58ae6	3	1	main_z	11	main_z	121	stimuli_distractor_diamondtriangles.svg	stimuli_distractor_diamondtriangles.svg	40	no	0	1	2000	0	0			0	0			1				0	
6.6.1	mac	2023-06-28	14:47:06	14:57:25	616344	57739704c1b42d0001a58ae6	3	1	main_z	11	advance_on_keypress_ZEE	122	stimuli_distractor_diamondtriangles.svg	stimuli_distractor_diamondtriangles.svg	40	no	57	0	450	0	0			0	0			1				0	
6.6.1	mac	2023-06-28	14:47:06	14:57:27	617997	57739704c1b42d0001a58ae6	3	1	main_z	11	main_z	123	stimuli_distractor_diamondtriangles.svg	stimuli_target_squaretriangles.svg	15	yes	44	1	569	0	0			0	0			1				0	
6.6.1	mac	2023-06-28	14:47:06	14:57:27	617997	57739704c1b42d0001a58ae6	3	1	main_z	11	advance_on_keypress_ZEE	124	stimuli_distractor_diamondtriangles.svg	stimuli_target_squaretriangles.svg	15	yes	57	0	305	0	0			0	0			1				0	
6.6.1	mac	2023-06-28	14:47:06	14:57:29	619912	57739704c1b42d0001a58ae6	3	1	main_z	11	main_z	125	stimuli_distractor_diamondtriangles.svg	stimuli_target_diamondsquares.svg	32	yes	44	1	983	0	0			0	0			1				0	
6.6.1	mac	2023-06-28	14:47:06	14:57:29	619912	57739704c1b42d0001a58ae6	3	1	main_z	11	advance_on_keypress_ZEE	126	stimuli_distractor_diamondtriangles.svg	stimuli_target_diamondsquares.svg	32	yes	57	0	327	0	0			0	0			1				0	
6.6.1	mac	2023-06-28	14:47:06	14:57:32	622859	57739704c1b42d0001a58ae6	3	1	main_z	11	main_z	127	stimuli_distractor_trianglediamonds.svg	stimuli_target_rectangletriangles.svg	9	yes	0	0	2000	0	0			0	0			1				0	
6.6.1	mac	2023-06-28	14:47:06	14:57:32	622859	57739704c1b42d0001a58ae6	3	1	main_z	11	advance_on_keypress_ZEE	128	stimuli_distractor_trianglediamonds.svg	stimuli_target_rectangletriangles.svg	9	yes	57	0	1051	0	0			0	0			1				0	
6.6.1	mac	2023-06-28	14:47:06	14:57:34	625204	57739704c1b42d0001a58ae6	3	1	main_z	11	main_z	129	stimuli_target_diamondrectangles.svg	stimuli_distractor_diamondtriangles.svg	23	yes	44	1	658	0	0			0	0			1				0	
6.6.1	mac	2023-06-28	14:47:06	14:57:34	625204	57739704c1b42d0001a58ae6	3	1	main_z	11	advance_on_keypress_ZEE	130	stimuli_target_diamondrectangles.svg	stimuli_distractor_diamondtriangles.svg	23	yes	57	0	390	0	0			0	0			1				0	
6.6.1	mac	2023-06-28	14:47:06	14:57:37	627542	57739704c1b42d0001a58ae6	3	1	main_z	11	main_z	131	stimuli_distractor_trianglediamonds.svg	stimuli_target_trianglerectangles.svg	25	yes	44	1	1330	0	0			0	0			1				0	
6.6.1	mac	2023-06-28	14:47:06	14:57:37	627542	57739704c1b42d0001a58ae6	3	1	main_z	11	advance_on_keypress_ZEE	132	stimuli_distractor_trianglediamonds.svg	stimuli_target_trianglerectangles.svg	25	yes	57	0	368	0	0			0	0			1				0	
6.6.1	mac	2023-06-28	14:47:06	14:57:39	629443	57739704c1b42d0001a58ae6	3	1	main_z	11	main_z	133	stimuli_target_trianglerectangles.svg	stimuli_distractor_trianglediamonds.svg	17	yes	44	1	898	0	0			0	0			1				0	
6.6.1	mac	2023-06-28	14:47:06	14:57:39	629443	57739704c1b42d0001a58ae6	3	1	main_z	11	advance_on_keypress_ZEE	134	stimuli_target_trianglerectangles.svg	stimuli_distractor_trianglediamonds.svg	17	yes	57	0	329	0	0			0	0			1				0	
6.6.1	mac	2023-06-28	14:47:06	14:57:40	631032	57739704c1b42d0001a58ae6	3	1	main_z	11	main_z	135	stimuli_target_trianglerectangles.svg	stimuli_distractor_diamondtriangles.svg	21	yes	44	1	620	0	0			0	0			1				0	
6.6.1	mac	2023-06-28	14:47:06	14:57:40	631032	57739704c1b42d0001a58ae6	3	1	main_z	11	advance_on_keypress_ZEE	136	stimuli_target_trianglerectangles.svg	stimuli_distractor_diamondtriangles.svg	21	yes	57	0	324	0	0			0	0			1				0	
6.6.1	mac	2023-06-28	14:47:06	14:57:42	632660	57739704c1b42d0001a58ae6	3	1	main_z	11	main_z	137	stimuli_distractor_trianglediamonds.svg	stimuli_target_squaretriangles.svg	11	yes	44	1	681	0	0			0	0			1				0	
6.6.1	mac	2023-06-28	14:47:06	14:57:42	632660	57739704c1b42d0001a58ae6	3	1	main_z	11	advance_on_keypress_ZEE	138	stimuli_distractor_trianglediamonds.svg	stimuli_target_squaretriangles.svg	11	yes	57	0	293	0	0			0	0			1				0	
6.6.1	mac	2023-06-28	14:47:06	14:57:44	634768	57739704c1b42d0001a58ae6	3	1	main_z	11	main_z	139	stimuli_distractor_diamondtriangles.svg	stimuli_target_trianglerectangles.svg	29	yes	44	1	1189	0	0			0	0			1				0	
6.6.1	mac	2023-06-28	14:47:06	14:57:44	634768	57739704c1b42d0001a58ae6	3	1	main_z	11	advance_on_keypress_ZEE	140	stimuli_distractor_diamondtriangles.svg	stimuli_target_trianglerectangles.svg	29	yes	57	0	262	0	0			0	0			1				0	
6.6.1	mac	2023-06-28	14:47:06	14:57:45	636224	57739704c1b42d0001a58ae6	3	1	main_z	11	main_z	141	stimuli_distractor_diamondtriangles.svg	stimuli_target_trianglesquares.svg	30	yes	44	1	563	0	0			0	0			1				0	
6.6.1	mac	2023-06-28	14:47:06	14:57:45	636224	57739704c1b42d0001a58ae6	3	1	main_z	11	advance_on_keypress_ZEE	142	stimuli_distractor_diamondtriangles.svg	stimuli_target_trianglesquares.svg	30	yes	57	0	313	0	0			0	0			1				0	
6.6.1	mac	2023-06-28	14:47:06	14:57:47	637683	57739704c1b42d0001a58ae6	3	1	main_z	11	main_z	143	stimuli_target_squarediamonds.svg	stimuli_distractor_trianglediamonds.svg	4	yes	44	1	506	0	0			0	0			1				0	
6.6.1	mac	2023-06-28	14:47:06	14:57:47	637683	57739704c1b42d0001a58ae6	3	1	main_z	11	advance_on_keypress_ZEE	144	stimuli_target_squarediamonds.svg	stimuli_distractor_trianglediamonds.svg	4	yes	57	0	331	0	0			0	0			1				0	
6.6.1	mac	2023-06-28	14:47:06	14:57:48	639155	57739704c1b42d0001a58ae6	3	1	main_z	11	main_z	145	stimuli_target_squaretriangles.svg	stimuli_distractor_trianglediamonds.svg	3	yes	44	1	510	0	0			0	0			1				0	
6.6.1	mac	2023-06-28	14:47:06	14:57:48	639155	57739704c1b42d0001a58ae6	3	1	main_z	11	advance_on_keypress_ZEE	146	stimuli_target_squaretriangles.svg	stimuli_distractor_trianglediamonds.svg	3	yes	57	0	296	0	0			0	0			1				0	
6.6.1	mac	2023-06-28	14:47:06	14:57:50	641015	57739704c1b42d0001a58ae6	3	1	main_z	11	main_z	147	stimuli_target_trianglesquares.svg	stimuli_distractor_trianglediamonds.svg	18	yes	44	1	954	0	0			0	0			1				0	
6.6.1	mac	2023-06-28	14:47:06	14:57:50	641015	57739704c1b42d0001a58ae6	3	1	main_z	11	advance_on_keypress_ZEE	148	stimuli_target_trianglesquares.svg	stimuli_distractor_trianglediamonds.svg	18	yes	57	0	201	0	0			0	0			1				0	
6.6.1	mac	2023-06-28	14:47:06	14:57:53	643842	57739704c1b42d0001a58ae6	3	1	main_z	11	main_z	149	stimuli_distractor_trianglediamonds.svg	stimuli_distractor_trianglediamonds.svg	33	no	0	1	2000	0	0			0	0			1				0	
6.6.1	mac	2023-06-28	14:47:06	14:57:53	643842	57739704c1b42d0001a58ae6	3	1	main_z	11	advance_on_keypress_ZEE	150	stimuli_distractor_trianglediamonds.svg	stimuli_distractor_trianglediamonds.svg	33	no	57	0	637	0	0			0	0			1				0	
6.6.1	mac	2023-06-28	14:47:06	14:57:56	647126	57739704c1b42d0001a58ae6	3	1	main_z	11	main_z	151	stimuli_distractor_trianglediamonds.svg	stimuli_distractor_trianglediamonds.svg	34	no	0	1	2000	0	0			0	0			1				0	
6.6.1	mac	2023-06-28	14:47:06	14:57:56	647126	57739704c1b42d0001a58ae6	3	1	main_z	11	advance_on_keypress_ZEE	152	stimuli_distractor_trianglediamonds.svg	stimuli_distractor_trianglediamonds.svg	34	no	57	0	650	0	0			0	0			1				0	
6.6.1	mac	2023-06-28	14:47:06	14:57:58	648984	57739704c1b42d0001a58ae6	3	1	main_z	11	main_z	153	stimuli_target_diamondrectangles.svg	stimuli_distractor_trianglediamonds.svg	19	yes	44	1	573	0	0			0	0			1				0	
6.6.1	mac	2023-06-28	14:47:06	14:57:58	648984	57739704c1b42d0001a58ae6	3	1	main_z	11	advance_on_keypress_ZEE	154	stimuli_target_diamondrectangles.svg	stimuli_distractor_trianglediamonds.svg	19	yes	57	0	275	0	0			0	0			1				0	
6.6.1	mac	2023-06-28	14:47:06	14:58:00	650426	57739704c1b42d0001a58ae6	3	1	main_z	11	main_z	155	stimuli_distractor_trianglediamonds.svg	stimuli_target_diamondsquares.svg	28	yes	44	1	532	0	0			0	0			1				0	
6.6.1	mac	2023-06-28	14:47:06	14:58:00	650426	57739704c1b42d0001a58ae6	3	1	main_z	11	advance_on_keypress_ZEE	156	stimuli_distractor_trianglediamonds.svg	stimuli_target_diamondsquares.svg	28	yes	57	0	322	0	0			0	0			1				0	
6.6.1	mac	2023-06-28	14:47:06	14:58:01	651856	57739704c1b42d0001a58ae6	3	1	main_z	11	main_z	157	stimuli_distractor_trianglediamonds.svg	stimuli_target_squarediamonds.svg	12	yes	44	1	478	0	0			0	0			1				0	
6.6.1	mac	2023-06-28	14:47:06	14:58:01	651856	57739704c1b42d0001a58ae6	3	1	main_z	11	advance_on_keypress_ZEE	158	stimuli_distractor_trianglediamonds.svg	stimuli_target_squarediamonds.svg	12	yes	57	0	325	0	0			0	0			1				0	
6.6.1	mac	2023-06-28	14:47:06	14:58:02	653322	57739704c1b42d0001a58ae6	3	1	main_z	11	main_z	159	stimuli_distractor_diamondtriangles.svg	stimuli_target_diamondrectangles.svg	31	yes	44	1	529	0	0			0	0			1				0	
6.6.1	mac	2023-06-28	14:47:06	14:58:02	653322	57739704c1b42d0001a58ae6	3	1	main_z	11	advance_on_keypress_ZEE	160	stimuli_distractor_diamondtriangles.svg	stimuli_target_diamondrectangles.svg	31	yes	57	0	313	0	0			0	0			1				0	
6.6.1	mac	2023-06-28	14:47:06	14:58:02	653322	57739704c1b42d0001a58ae6	3	1	headphonecheck_calibration	14	headphonecheck_calibrationIntro	1	stimuli_distractor_diamondtriangles.svg	stimuli_target_diamondrectangles.svg	31	yes	calibrationButton	0	1845	0	0			0	0			1				0	
6.6.1	mac	2023-06-28	14:47:06	14:58:02	653322	57739704c1b42d0001a58ae6	3	1	headphonecheck_testphase	15	test_collectResponse	3	stimuli_distractor_diamondtriangles.svg	stimuli_target_diamondrectangles.svg	31	yes	second	1	15385	1	5	antiphase_hc_osi.wav	2	0	0			1				0	
6.6.1	mac	2023-06-28	14:47:06	14:58:02	653322	57739704c1b42d0001a58ae6	3	1	headphonecheck_testphase	15	test_collectResponse	6	stimuli_distractor_diamondtriangles.svg	stimuli_target_diamondrectangles.svg	31	yes	third	1	540	2	2	antiphase_hc_ios.wav	3	0	0			1				0	
6.6.1	mac	2023-06-28	14:47:06	14:58:02	653322	57739704c1b42d0001a58ae6	3	1	headphonecheck_testphase	15	test_collectResponse	9	stimuli_distractor_diamondtriangles.svg	stimuli_target_diamondrectangles.svg	31	yes	first	1	1766	3	4	antiphase_hc_sio.wav	1	0	0			1				0	
6.6.1	mac	2023-06-28	14:47:06	14:58:02	653322	57739704c1b42d0001a58ae6	3	1	headphonecheck_testphase	15	test_collectResponse	12	stimuli_distractor_diamondtriangles.svg	stimuli_target_diamondrectangles.svg	31	yes	second	1	133	4	1	antiphase_hc_iso.wav	2	0	0			1				0	
6.6.1	mac	2023-06-28	14:47:06	14:58:02	653322	57739704c1b42d0001a58ae6	3	1	headphonecheck_testphase	15	test_collectResponse	15	stimuli_distractor_diamondtriangles.svg	stimuli_target_diamondrectangles.svg	31	yes	first	1	1104	5	3	antiphase_hc_soi.wav	1	0	0			1				0	
6.6.1	mac	2023-06-28	14:47:06	14:58:02	653322	57739704c1b42d0001a58ae6	3	1	headphonecheck_testphase	15	test_collectResponse	18	stimuli_distractor_diamondtriangles.svg	stimuli_target_diamondrectangles.svg	31	yes	third	1	5155	6	6	antiphase_hc_ois.wav	3	0	0			1				0	
6.6.1	mac	2023-06-28	14:47:06	14:58:02	653322	57739704c1b42d0001a58ae6	3	1	stereocheck_calibration	17	stereocheck_calibrationIntro	1	stimuli_distractor_diamondtriangles.svg	stimuli_target_diamondrectangles.svg	31	yes	stereocheck_calibrationButton	0	5584	6	6	antiphase_hc_ois.wav	3	0	0			1				0	
6.6.1	mac	2023-06-28	14:47:06	14:58:02	653322	57739704c1b42d0001a58ae6	3	1	stereocheck_testphase	18	stereocheck_test_collectResponse	3	stimuli_distractor_diamondtriangles.svg	stimuli_target_diamondrectangles.svg	31	yes	stereocheck_left	1	268	6	6	antiphase_hc_ois.wav	3	1	1	noise_calib_stim_LEFT.wav	1	1				0	
6.6.1	mac	2023-06-28	14:47:06	14:58:02	653322	57739704c1b42d0001a58ae6	3	1	stereocheck_testphase	18	stereocheck_test_collectResponse	6	stimuli_distractor_diamondtriangles.svg	stimuli_target_diamondrectangles.svg	31	yes	stereocheck_right	1	249	6	6	antiphase_hc_ois.wav	3	2	4	noise_calib_stim_RIGHT.wav	2	1				0	
6.6.1	mac	2023-06-28	14:47:06	14:58:02	653322	57739704c1b42d0001a58ae6	3	1	stereocheck_testphase	18	stereocheck_test_collectResponse	9	stimuli_distractor_diamondtriangles.svg	stimuli_target_diamondrectangles.svg	31	yes	stereocheck_left	1	207	6	6	antiphase_hc_ois.wav	3	3	3	noise_calib_stim_LEFT.wav	1	1				0	
6.6.1	mac	2023-06-28	14:47:06	14:58:02	653322	57739704c1b42d0001a58ae6	3	1	stereocheck_testphase	18	stereocheck_test_collectResponse	12	stimuli_distractor_diamondtriangles.svg	stimuli_target_diamondrectangles.svg	31	yes	stereocheck_right	1	187	6	6	antiphase_hc_ois.wav	3	4	6	noise_calib_stim_RIGHT.wav	2	1				0	
6.6.1	mac	2023-06-28	14:47:06	14:58:02	653322	57739704c1b42d0001a58ae6	3	1	stereocheck_testphase	18	stereocheck_test_collectResponse	15	stimuli_distractor_diamondtriangles.svg	stimuli_target_diamondrectangles.svg	31	yes	stereocheck_left	1	226	6	6	antiphase_hc_ois.wav	3	5	2	noise_calib_stim_LEFT.wav	1	1				0	
6.6.1	mac	2023-06-28	14:47:06	14:58:02	653322	57739704c1b42d0001a58ae6	3	1	stereocheck_testphase	18	stereocheck_test_collectResponse	18	stimuli_distractor_diamondtriangles.svg	stimuli_target_diamondrectangles.svg	31	yes	stereocheck_right	1	233	6	6	antiphase_hc_ois.wav	3	6	5	noise_calib_stim_RIGHT.wav	2	1				0	
6.6.1	mac	2023-06-28	14:47:06	14:58:02	653322	57739704c1b42d0001a58ae6	3	1	DL_practice	21	DL_practice	2	stimuli_distractor_diamondtriangles.svg	stimuli_target_diamondrectangles.svg	31	yes	da	1	1073	6	6	antiphase_hc_ois.wav	3	6	5	noise_calib_stim_RIGHT.wav	2	8	blb_dichoticlistening_da-da.mp3	da	da	0	left
6.6.1	mac	2023-06-28	14:47:06	14:58:02	653322	57739704c1b42d0001a58ae6	3	1	DL_practice	21	DL_practice	3	stimuli_distractor_diamondtriangles.svg	stimuli_target_diamondrectangles.svg	31	yes	da	1	2511	6	6	antiphase_hc_ois.wav	3	6	5	noise_calib_stim_RIGHT.wav	2	7	blb_dichoticlistening_da-ba.mp3	da	ba	1	left
6.6.1	mac	2023-06-28	14:47:06	14:58:02	653322	57739704c1b42d0001a58ae6	3	1	DL_practice	21	DL_practice	4	stimuli_distractor_diamondtriangles.svg	stimuli_target_diamondrectangles.svg	31	yes	pa	0	1912	6	6	antiphase_hc_ois.wav	3	6	5	noise_calib_stim_RIGHT.wav	2	1	blb_dichoticlistening_ba-ba.mp3	ba	ba	0	other
6.6.1	mac	2023-06-28	14:47:06	14:58:02	653322	57739704c1b42d0001a58ae6	3	1	DL_practice	21	DL_practice	5	stimuli_distractor_diamondtriangles.svg	stimuli_target_diamondrectangles.svg	31	yes	ta	1	931	6	6	antiphase_hc_ois.wav	3	6	5	noise_calib_stim_RIGHT.wav	2	36	blb_dichoticlistening_ta-ta.mp3	ta	ta	0	left
6.6.1	mac	2023-06-28	14:47:06	14:58:02	653322	57739704c1b42d0001a58ae6	3	1	DL_practice	21	DL_practice	6	stimuli_distractor_diamondtriangles.svg	stimuli_target_diamondrectangles.svg	31	yes	ga	1	1046	6	6	antiphase_hc_ois.wav	3	6	5	noise_calib_stim_RIGHT.wav	2	18	blb_dichoticlistening_ga-ta.mp3	ga	ta	1	left
6.6.1	mac	2023-06-28	14:47:06	14:58:02	653322	57739704c1b42d0001a58ae6	3	1	DL_practice	21	DL_practice	7	stimuli_distractor_diamondtriangles.svg	stimuli_target_diamondrectangles.svg	31	yes	pa	1	1145	6	6	antiphase_hc_ois.wav	3	6	5	noise_calib_stim_RIGHT.wav	2	29	blb_dichoticlistening_pa-pa.mp3	pa	pa	0	left
6.6.1	mac	2023-06-28	14:47:06	14:58:02	653322	57739704c1b42d0001a58ae6	3	1	DL_practice	21	DL_practice	8	stimuli_distractor_diamondtriangles.svg	stimuli_target_diamondrectangles.svg	31	yes	ka	1	1152	6	6	antiphase_hc_ois.wav	3	6	5	noise_calib_stim_RIGHT.wav	2	22	blb_dichoticlistening_ka-ka.mp3	ka	ka	0	left
6.6.1	mac	2023-06-28	14:47:06	14:58:02	653322	57739704c1b42d0001a58ae6	3	1	DL_practice	21	DL_practice	9	stimuli_distractor_diamondtriangles.svg	stimuli_target_diamondrectangles.svg	31	yes	ga	1	1051	6	6	antiphase_hc_ois.wav	3	6	5	noise_calib_stim_RIGHT.wav	2	15	blb_dichoticlistening_ga-ga.mp3	ga	ga	0	left
6.6.1	mac	2023-06-28	14:47:06	14:58:02	653322	57739704c1b42d0001a58ae6	3	1	DL_practice	21	DL_practice	10	stimuli_distractor_diamondtriangles.svg	stimuli_target_diamondrectangles.svg	31	yes	ka	1	1038	6	6	antiphase_hc_ois.wav	3	6	5	noise_calib_stim_RIGHT.wav	2	23	blb_dichoticlistening_ka-pa.mp3	ka	pa	1	left
6.6.1	mac	2023-06-28	14:47:06	14:58:02	653322	57739704c1b42d0001a58ae6	3	1	DL_test	23	DL_test	1	stimuli_distractor_diamondtriangles.svg	stimuli_target_diamondrectangles.svg	31	yes	da	1	2139	6	6	antiphase_hc_ois.wav	3	6	5	noise_calib_stim_RIGHT.wav	2	2	blb_dichoticlistening_ba-da.mp3	ba	da	1	right
6.6.1	mac	2023-06-28	14:47:06	14:58:02	653322	57739704c1b42d0001a58ae6	3	1	DL_test	23	DL_test	2	stimuli_distractor_diamondtriangles.svg	stimuli_target_diamondrectangles.svg	31	yes	da	0	1820	6	6	antiphase_hc_ois.wav	3	6	5	noise_calib_stim_RIGHT.wav	2	6	blb_dichoticlistening_ba-ta.mp3	ba	ta	1	other
6.6.1	mac	2023-06-28	14:47:06	14:58:02	653322	57739704c1b42d0001a58ae6	3	1	DL_test	23	DL_test	3	stimuli_distractor_diamondtriangles.svg	stimuli_target_diamondrectangles.svg	31	yes	da	1	818	6	6	antiphase_hc_ois.wav	3	6	5	noise_calib_stim_RIGHT.wav	2	20	blb_dichoticlistening_ka-da.mp3	ka	da	1	right
6.6.1	mac	2023-06-28	14:47:06	14:58:02	653322	57739704c1b42d0001a58ae6	3	1	DL_test	23	DL_test	4	stimuli_distractor_diamondtriangles.svg	stimuli_target_diamondrectangles.svg	31	yes	da	1	594	6	6	antiphase_hc_ois.wav	3	6	5	noise_calib_stim_RIGHT.wav	2	32	blb_dichoticlistening_ta-da.mp3	ta	da	1	right
6.6.1	mac	2023-06-28	14:47:06	14:58:02	653322	57739704c1b42d0001a58ae6	3	1	DL_test	23	DL_test	5	stimuli_distractor_diamondtriangles.svg	stimuli_target_diamondrectangles.svg	31	yes	da	0	528	6	6	antiphase_hc_ois.wav	3	6	5	noise_calib_stim_RIGHT.wav	2	33	blb_dichoticlistening_ta-ga.mp3	ta	ga	1	other
6.6.1	mac	2023-06-28	14:47:06	14:58:02	653322	57739704c1b42d0001a58ae6	3	1	DL_test	23	DL_test	6	stimuli_distractor_diamondtriangles.svg	stimuli_target_diamondrectangles.svg	31	yes	da	1	566	6	6	antiphase_hc_ois.wav	3	6	5	noise_calib_stim_RIGHT.wav	2	14	blb_dichoticlistening_ga-da.mp3	ga	da	1	right
6.6.1	mac	2023-06-28	14:47:06	14:58:02	653322	57739704c1b42d0001a58ae6	3	1	DL_test	23	DL_test	7	stimuli_distractor_diamondtriangles.svg	stimuli_target_diamondrectangles.svg	31	yes	ka	0	2481	6	6	antiphase_hc_ois.wav	3	6	5	noise_calib_stim_RIGHT.wav	2	25	blb_dichoticlistening_pa-ba.mp3	pa	ba	1	other
6.6.1	mac	2023-06-28	14:47:06	14:58:02	653322	57739704c1b42d0001a58ae6	3	1	DL_test	23	DL_test	8	stimuli_distractor_diamondtriangles.svg	stimuli_target_diamondrectangles.svg	31	yes	ga	1	991	6	6	antiphase_hc_ois.wav	3	6	5	noise_calib_stim_RIGHT.wav	2	16	blb_dichoticlistening_ga-ka.mp3	ga	ka	1	left
6.6.1	mac	2023-06-28	14:47:06	14:58:02	653322	57739704c1b42d0001a58ae6	3	1	DL_test	23	DL_test	9	stimuli_distractor_diamondtriangles.svg	stimuli_target_diamondrectangles.svg	31	yes	pa	1	1109	6	6	antiphase_hc_ois.wav	3	6	5	noise_calib_stim_RIGHT.wav	2	29	blb_dichoticlistening_pa-pa.mp3	pa	pa	0	left
6.6.1	mac	2023-06-28	14:47:06	14:58:02	653322	57739704c1b42d0001a58ae6	3	1	DL_test	23	DL_test	10	stimuli_distractor_diamondtriangles.svg	stimuli_target_diamondrectangles.svg	31	yes	ka	1	1750	6	6	antiphase_hc_ois.wav	3	6	5	noise_calib_stim_RIGHT.wav	2	4	blb_dichoticlistening_ba-ka.mp3	ba	ka	1	right
6.6.1	mac	2023-06-28	14:47:06	14:58:02	653322	57739704c1b42d0001a58ae6	3	1	DL_test	23	DL_test	11	stimuli_distractor_diamondtriangles.svg	stimuli_target_diamondrectangles.svg	31	yes	ta	1	1271	6	6	antiphase_hc_ois.wav	3	6	5	noise_calib_stim_RIGHT.wav	2	30	blb_dichoticlistening_pa-ta.mp3	pa	ta	1	right
6.6.1	mac	2023-06-28	14:47:06	14:58:02	653322	57739704c1b42d0001a58ae6	3	1	DL_test	23	DL_test	12	stimuli_distractor_diamondtriangles.svg	stimuli_target_diamondrectangles.svg	31	yes	ba	1	1818	6	6	antiphase_hc_ois.wav	3	6	5	noise_calib_stim_RIGHT.wav	2	1	blb_dichoticlistening_ba-ba.mp3	ba	ba	0	left
6.6.1	mac	2023-06-28	14:47:06	14:58:02	653322	57739704c1b42d0001a58ae6	3	1	DL_test	23	DL_test	13	stimuli_distractor_diamondtriangles.svg	stimuli_target_diamondrectangles.svg	31	yes	ka	1	888	6	6	antiphase_hc_ois.wav	3	6	5	noise_calib_stim_RIGHT.wav	2	28	blb_dichoticlistening_pa-ka.mp3	pa	ka	1	right
6.6.1	mac	2023-06-28	14:47:06	14:58:02	653322	57739704c1b42d0001a58ae6	3	1	DL_test	23	DL_test	14	stimuli_distractor_diamondtriangles.svg	stimuli_target_diamondrectangles.svg	31	yes	ba	1	1620	6	6	antiphase_hc_ois.wav	3	6	5	noise_calib_stim_RIGHT.wav	2	13	blb_dichoticlistening_ga-ba.mp3	ga	ba	1	right
6.6.1	mac	2023-06-28	14:47:06	14:58:02	653322	57739704c1b42d0001a58ae6	3	1	DL_test	23	DL_test	15	stimuli_distractor_diamondtriangles.svg	stimuli_target_diamondrectangles.svg	31	yes	ka	1	1030	6	6	antiphase_hc_ois.wav	3	6	5	noise_calib_stim_RIGHT.wav	2	34	blb_dichoticlistening_ta-ka.mp3	ta	ka	1	right
6.6.1	mac	2023-06-28	14:47:06	14:58:02	653322	57739704c1b42d0001a58ae6	3	1	DL_test	23	DL_test	16	stimuli_distractor_diamondtriangles.svg	stimuli_target_diamondrectangles.svg	31	yes	ga	1	1225	6	6	antiphase_hc_ois.wav	3	6	5	noise_calib_stim_RIGHT.wav	2	27	blb_dichoticlistening_pa-ga.mp3	pa	ga	1	right
6.6.1	mac	2023-06-28	14:47:06	14:58:02	653322	57739704c1b42d0001a58ae6	3	1	DL_test	23	DL_test	17	stimuli_distractor_diamondtriangles.svg	stimuli_target_diamondrectangles.svg	31	yes	ga	1	642	6	6	antiphase_hc_ois.wav	3	6	5	noise_calib_stim_RIGHT.wav	2	21	blb_dichoticlistening_ka-ga.mp3	ka	ga	1	right
6.6.1	mac	2023-06-28	14:47:06	14:58:02	653322	57739704c1b42d0001a58ae6	3	1	DL_test	23	DL_test	18	stimuli_distractor_diamondtriangles.svg	stimuli_target_diamondrectangles.svg	31	yes	ta	1	1244	6	6	antiphase_hc_ois.wav	3	6	5	noise_calib_stim_RIGHT.wav	2	35	blb_dichoticlistening_ta-pa.mp3	ta	pa	1	left
6.6.1	mac	2023-06-28	14:47:06	14:58:02	653322	57739704c1b42d0001a58ae6	3	1	DL_test	23	DL_test	19	stimuli_distractor_diamondtriangles.svg	stimuli_target_diamondrectangles.svg	31	yes	da	1	1156	6	6	antiphase_hc_ois.wav	3	6	5	noise_calib_stim_RIGHT.wav	2	26	blb_dichoticlistening_pa-da.mp3	pa	da	1	right
6.6.1	mac	2023-06-28	14:47:06	14:58:02	653322	57739704c1b42d0001a58ae6	3	1	DL_test	23	DL_test	20	stimuli_distractor_diamondtriangles.svg	stimuli_target_diamondrectangles.svg	31	yes	ka	1	1044	6	6	antiphase_hc_ois.wav	3	6	5	noise_calib_stim_RIGHT.wav	2	22	blb_dichoticlistening_ka-ka.mp3	ka	ka	0	left
6.6.1	mac	2023-06-28	14:47:06	14:58:02	653322	57739704c1b42d0001a58ae6	3	1	DL_test	23	DL_test	21	stimuli_distractor_diamondtriangles.svg	stimuli_target_diamondrectangles.svg	31	yes	ba	1	1642	6	6	antiphase_hc_ois.wav	3	6	5	noise_calib_stim_RIGHT.wav	2	3	blb_dichoticlistening_ba-ga.mp3	ba	ga	1	left
6.6.1	mac	2023-06-28	14:47:06	14:58:02	653322	57739704c1b42d0001a58ae6	3	1	DL_test	23	DL_test	22	stimuli_distractor_diamondtriangles.svg	stimuli_target_diamondrectangles.svg	31	yes	da	1	713	6	6	antiphase_hc_ois.wav	3	6	5	noise_calib_stim_RIGHT.wav	2	10	blb_dichoticlistening_da-ka.mp3	da	ka	1	left
6.6.1	mac	2023-06-28	14:47:06	14:58:02	653322	57739704c1b42d0001a58ae6	3	1	DL_test	23	DL_test	23	stimuli_distractor_diamondtriangles.svg	stimuli_target_diamondrectangles.svg	31	yes	ta	1	1298	6	6	antiphase_hc_ois.wav	3	6	5	noise_calib_stim_RIGHT.wav	2	36	blb_dichoticlistening_ta-ta.mp3	ta	ta	0	left
6.6.1	mac	2023-06-28	14:47:06	14:58:02	653322	57739704c1b42d0001a58ae6	3	1	DL_test	23	DL_test	24	stimuli_distractor_diamondtriangles.svg	stimuli_target_diamondrectangles.svg	31	yes	da	1	1750	6	6	antiphase_hc_ois.wav	3	6	5	noise_calib_stim_RIGHT.wav	2	12	blb_dichoticlistening_da-ta.mp3	da	ta	1	left
6.6.1	mac	2023-06-28	14:47:06	14:58:02	653322	57739704c1b42d0001a58ae6	3	1	DL_test	23	DL_test	25	stimuli_distractor_diamondtriangles.svg	stimuli_target_diamondrectangles.svg	31	yes	ga	1	2107	6	6	antiphase_hc_ois.wav	3	6	5	noise_calib_stim_RIGHT.wav	2	17	blb_dichoticlistening_ga-pa.mp3	ga	pa	1	left
6.6.1	mac	2023-06-28	14:47:06	14:58:02	653322	57739704c1b42d0001a58ae6	3	1	DL_test	23	DL_test	26	stimuli_distractor_diamondtriangles.svg	stimuli_target_diamondrectangles.svg	31	yes	da	1	860	6	6	antiphase_hc_ois.wav	3	6	5	noise_calib_stim_RIGHT.wav	2	9	blb_dichoticlistening_da-ga.mp3	da	ga	1	left
