build	computer.platform	date	time	timestamp	time_elapsed_ms	subject	group	session	blockcode	blocknum	trialcode	trialnum	stimulus_left	stimulus_right	stim_index	target_present	response	correct	latency	headphonecheck_countTestTrials	headphonecheck_index	headphonecheck_testSound	headphonecheck_correctResponse	stereocheck_countTestTrials	stereocheck_index	stereocheck_testSound	stereocheck_correctResponse	DL_index	DL_soundfile	DL_leftSound	DL_rightSound	DL_dualSound	DL_choice
6.6.1	win	2023-07-10	09:28:58	09:31:32	148755	6401227cb3aa0d131ec5dd53	4	1	practice_z	5	practice_z	1	stimuli_distractor_diamondtriangles.svg	stimuli_target_diamondrectangles.svg	8	yes	44	1	1778	0	0			0	0			1				0	
6.6.1	win	2023-07-10	09:28:58	09:31:32	148755	6401227cb3aa0d131ec5dd53	4	1	practice_z	5	advance_on_keypress_ZEE	2	stimuli_distractor_diamondtriangles.svg	stimuli_target_diamondrectangles.svg	8	yes	57	0	1251	0	0			0	0			1				0	
6.6.1	win	2023-07-10	09:28:58	09:31:36	152829	6401227cb3aa0d131ec5dd53	4	1	practice_z	5	practice_z	3	stimuli_distractor_diamondtriangles.svg	stimuli_target_trianglerectangles.svg	9	yes	44	1	1161	0	0			0	0			1				0	
6.6.1	win	2023-07-10	09:28:58	09:31:36	152829	6401227cb3aa0d131ec5dd53	4	1	practice_z	5	advance_on_keypress_ZEE	4	stimuli_distractor_diamondtriangles.svg	stimuli_target_trianglerectangles.svg	9	yes	57	0	621	0	0			0	0			1				0	
6.6.1	win	2023-07-10	09:28:58	09:31:39	156198	6401227cb3aa0d131ec5dd53	4	1	practice_z	5	practice_z	5	stimuli_distractor_diamondtriangles.svg	stimuli_target_rectangletriangles.svg	7	yes	44	1	1087	0	0			0	0			1				0	
6.6.1	win	2023-07-10	09:28:58	09:31:39	156198	6401227cb3aa0d131ec5dd53	4	1	practice_z	5	advance_on_keypress_ZEE	6	stimuli_distractor_diamondtriangles.svg	stimuli_target_rectangletriangles.svg	7	yes	57	0	1925	0	0			0	0			1				0	
6.6.1	win	2023-07-10	09:28:58	09:31:44	161094	6401227cb3aa0d131ec5dd53	4	1	practice_z	5	practice_z	7	stimuli_distractor_trianglediamonds.svg	stimuli_distractor_diamondtriangles.svg	16	no	44	0	1326	0	0			0	0			1				0	
6.6.1	win	2023-07-10	09:28:58	09:31:44	161094	6401227cb3aa0d131ec5dd53	4	1	practice_z	5	advance_on_keypress_ZEE	8	stimuli_distractor_trianglediamonds.svg	stimuli_distractor_diamondtriangles.svg	16	no	57	0	539	0	0			0	0			1				0	
6.6.1	win	2023-07-10	09:28:58	09:31:48	164836	6401227cb3aa0d131ec5dd53	4	1	practice_z	5	practice_z	9	stimuli_distractor_diamondtriangles.svg	stimuli_distractor_diamondtriangles.svg	13	no	44	0	1561	0	0			0	0			1				0	
6.6.1	win	2023-07-10	09:28:58	09:31:48	164836	6401227cb3aa0d131ec5dd53	4	1	practice_z	5	advance_on_keypress_ZEE	10	stimuli_distractor_diamondtriangles.svg	stimuli_distractor_diamondtriangles.svg	13	no	57	0	605	0	0			0	0			1				0	
6.6.1	win	2023-07-10	09:28:58	09:31:51	168369	6401227cb3aa0d131ec5dd53	4	1	practice_z	5	practice_z	11	stimuli_target_rectanglediamonds.svg	stimuli_distractor_diamondtriangles.svg	1	yes	44	1	1278	0	0			0	0			1				0	
6.6.1	win	2023-07-10	09:28:58	09:31:51	168369	6401227cb3aa0d131ec5dd53	4	1	practice_z	5	advance_on_keypress_ZEE	12	stimuli_target_rectanglediamonds.svg	stimuli_distractor_diamondtriangles.svg	1	yes	57	0	3278	0	0			0	0			1				0	
6.6.1	win	2023-07-10	09:28:58	09:31:57	174329	6401227cb3aa0d131ec5dd53	4	1	practice_z	5	practice_z	13	stimuli_target_diamondsquares.svg	stimuli_distractor_diamondtriangles.svg	3	yes	44	1	1029	0	0			0	0			1				0	
6.6.1	win	2023-07-10	09:28:58	09:31:57	174329	6401227cb3aa0d131ec5dd53	4	1	practice_z	5	advance_on_keypress_ZEE	14	stimuli_target_diamondsquares.svg	stimuli_distractor_diamondtriangles.svg	3	yes	57	0	533	0	0			0	0			1				0	
6.6.1	win	2023-07-10	09:28:58	09:32:01	177665	6401227cb3aa0d131ec5dd53	4	1	practice_z	5	practice_z	15	stimuli_target_squarediamonds.svg	stimuli_distractor_diamondtriangles.svg	2	yes	44	1	1166	0	0			0	0			1				0	
6.6.1	win	2023-07-10	09:28:58	09:32:01	177665	6401227cb3aa0d131ec5dd53	4	1	practice_z	5	advance_on_keypress_ZEE	16	stimuli_target_squarediamonds.svg	stimuli_distractor_diamondtriangles.svg	2	yes	57	0	521	0	0			0	0			1				0	
6.6.1	win	2023-07-10	09:28:58	09:32:04	181033	6401227cb3aa0d131ec5dd53	4	1	practice_z	5	practice_z	17	stimuli_target_rectanglediamonds.svg	stimuli_distractor_trianglediamonds.svg	4	yes	44	1	1184	0	0			0	0			1				0	
6.6.1	win	2023-07-10	09:28:58	09:32:04	181033	6401227cb3aa0d131ec5dd53	4	1	practice_z	5	advance_on_keypress_ZEE	18	stimuli_target_rectanglediamonds.svg	stimuli_distractor_trianglediamonds.svg	4	yes	57	0	798	0	0			0	0			1				0	
6.6.1	win	2023-07-10	09:28:58	09:32:08	184635	6401227cb3aa0d131ec5dd53	4	1	practice_z	5	practice_z	19	stimuli_distractor_trianglediamonds.svg	stimuli_target_diamondrectangles.svg	12	yes	44	1	1144	0	0			0	0			1				0	
6.6.1	win	2023-07-10	09:28:58	09:32:08	184635	6401227cb3aa0d131ec5dd53	4	1	practice_z	5	advance_on_keypress_ZEE	20	stimuli_distractor_trianglediamonds.svg	stimuli_target_diamondrectangles.svg	12	yes	57	0	1174	0	0			0	0			1				0	
6.6.1	win	2023-07-10	09:28:58	09:32:12	189476	6401227cb3aa0d131ec5dd53	4	1	practice_z	5	practice_z	21	stimuli_distractor_diamondtriangles.svg	stimuli_distractor_trianglediamonds.svg	14	no	0	1	2000	0	0			0	0			1				0	
6.6.1	win	2023-07-10	09:28:58	09:32:12	189476	6401227cb3aa0d131ec5dd53	4	1	practice_z	5	advance_on_keypress_ZEE	22	stimuli_distractor_diamondtriangles.svg	stimuli_distractor_trianglediamonds.svg	14	no	57	0	926	0	0			0	0			1				0	
6.6.1	win	2023-07-10	09:28:58	09:32:16	192903	6401227cb3aa0d131ec5dd53	4	1	practice_z	5	practice_z	23	stimuli_target_squarediamonds.svg	stimuli_distractor_trianglediamonds.svg	5	yes	44	1	846	0	0			0	0			1				0	
6.6.1	win	2023-07-10	09:28:58	09:32:16	192903	6401227cb3aa0d131ec5dd53	4	1	practice_z	5	advance_on_keypress_ZEE	24	stimuli_target_squarediamonds.svg	stimuli_distractor_trianglediamonds.svg	5	yes	57	0	893	0	0			0	0			1				0	
6.6.1	win	2023-07-10	09:28:58	09:32:19	196196	6401227cb3aa0d131ec5dd53	4	1	practice_z	5	practice_z	25	stimuli_distractor_trianglediamonds.svg	stimuli_target_rectanglediamonds.svg	10	yes	44	1	738	0	0			0	0			1				0	
6.6.1	win	2023-07-10	09:28:58	09:32:19	196196	6401227cb3aa0d131ec5dd53	4	1	practice_z	5	advance_on_keypress_ZEE	26	stimuli_distractor_trianglediamonds.svg	stimuli_target_rectanglediamonds.svg	10	yes	57	0	619	0	0			0	0			1				0	
6.6.1	win	2023-07-10	09:28:58	09:32:23	200466	6401227cb3aa0d131ec5dd53	4	1	practice_z	5	practice_z	27	stimuli_target_diamondsquares.svg	stimuli_distractor_trianglediamonds.svg	6	yes	0	0	2000	0	0			0	0			1				0	
6.6.1	win	2023-07-10	09:28:58	09:32:23	200466	6401227cb3aa0d131ec5dd53	4	1	practice_z	5	advance_on_keypress_ZEE	28	stimuli_target_diamondsquares.svg	stimuli_distractor_trianglediamonds.svg	6	yes	57	0	758	0	0			0	0			1				0	
6.6.1	win	2023-07-10	09:28:58	09:32:27	203849	6401227cb3aa0d131ec5dd53	4	1	practice_z	5	practice_z	29	stimuli_distractor_trianglediamonds.svg	stimuli_target_squarediamonds.svg	11	yes	44	1	975	0	0			0	0			1				0	
6.6.1	win	2023-07-10	09:28:58	09:32:27	203849	6401227cb3aa0d131ec5dd53	4	1	practice_z	5	advance_on_keypress_ZEE	30	stimuli_distractor_trianglediamonds.svg	stimuli_target_squarediamonds.svg	11	yes	57	0	358	0	0			0	0			1				0	
6.6.1	win	2023-07-10	09:28:58	09:32:30	207293	6401227cb3aa0d131ec5dd53	4	1	practice_z	5	practice_z	31	stimuli_distractor_trianglediamonds.svg	stimuli_distractor_trianglediamonds.svg	15	no	44	0	1435	0	0			0	0			1				0	
6.6.1	win	2023-07-10	09:28:58	09:32:30	207293	6401227cb3aa0d131ec5dd53	4	1	practice_z	5	advance_on_keypress_ZEE	32	stimuli_distractor_trianglediamonds.svg	stimuli_distractor_trianglediamonds.svg	15	no	57	0	515	0	0			0	0			1				0	
6.6.1	win	2023-07-10	09:28:58	09:32:37	213859	6401227cb3aa0d131ec5dd53	4	1	main_z	7	main_z	1	stimuli_distractor_diamondtriangles.svg	stimuli_distractor_trianglediamonds.svg	38	no	44	0	1621	0	0			0	0			1				0	
6.6.1	win	2023-07-10	09:28:58	09:32:37	213859	6401227cb3aa0d131ec5dd53	4	1	main_z	7	advance_on_keypress_ZEE	2	stimuli_distractor_diamondtriangles.svg	stimuli_distractor_trianglediamonds.svg	38	no	57	0	2611	0	0			0	0			1				0	
6.6.1	win	2023-07-10	09:28:58	09:32:41	218447	6401227cb3aa0d131ec5dd53	4	1	main_z	7	main_z	3	stimuli_target_squaretriangles.svg	stimuli_distractor_trianglediamonds.svg	3	yes	44	1	1317	0	0			0	0			1				0	
6.6.1	win	2023-07-10	09:28:58	09:32:41	218447	6401227cb3aa0d131ec5dd53	4	1	main_z	7	advance_on_keypress_ZEE	4	stimuli_target_squaretriangles.svg	stimuli_distractor_trianglediamonds.svg	3	yes	57	0	1203	0	0			0	0			1				0	
6.6.1	win	2023-07-10	09:28:58	09:32:45	221897	6401227cb3aa0d131ec5dd53	4	1	main_z	7	main_z	5	stimuli_distractor_trianglediamonds.svg	stimuli_target_diamondrectangles.svg	27	yes	44	1	1601	0	0			0	0			1				0	
6.6.1	win	2023-07-10	09:28:58	09:32:45	221897	6401227cb3aa0d131ec5dd53	4	1	main_z	7	advance_on_keypress_ZEE	6	stimuli_distractor_trianglediamonds.svg	stimuli_target_diamondrectangles.svg	27	yes	57	0	813	0	0			0	0			1				0	
6.6.1	win	2023-07-10	09:28:58	09:32:48	225371	6401227cb3aa0d131ec5dd53	4	1	main_z	7	main_z	7	stimuli_distractor_trianglediamonds.svg	stimuli_distractor_trianglediamonds.svg	33	no	0	1	2000	0	0			0	0			1				0	
6.6.1	win	2023-07-10	09:28:58	09:32:48	225371	6401227cb3aa0d131ec5dd53	4	1	main_z	7	advance_on_keypress_ZEE	8	stimuli_distractor_trianglediamonds.svg	stimuli_distractor_trianglediamonds.svg	33	no	57	0	757	0	0			0	0			1				0	
6.6.1	win	2023-07-10	09:28:58	09:32:50	227356	6401227cb3aa0d131ec5dd53	4	1	main_z	7	main_z	9	stimuli_target_diamondsquares.svg	stimuli_distractor_diamondtriangles.svg	24	yes	44	1	577	0	0			0	0			1				0	
6.6.1	win	2023-07-10	09:28:58	09:32:50	227356	6401227cb3aa0d131ec5dd53	4	1	main_z	7	advance_on_keypress_ZEE	10	stimuli_target_diamondsquares.svg	stimuli_distractor_diamondtriangles.svg	24	yes	57	0	828	0	0			0	0			1				0	
6.6.1	win	2023-07-10	09:28:58	09:32:52	229245	6401227cb3aa0d131ec5dd53	4	1	main_z	7	main_z	11	stimuli_distractor_diamondtriangles.svg	stimuli_target_diamondrectangles.svg	31	yes	44	1	417	0	0			0	0			1				0	
6.6.1	win	2023-07-10	09:28:58	09:32:52	229245	6401227cb3aa0d131ec5dd53	4	1	main_z	7	advance_on_keypress_ZEE	12	stimuli_distractor_diamondtriangles.svg	stimuli_target_diamondrectangles.svg	31	yes	57	0	1016	0	0			0	0			1				0	
6.6.1	win	2023-07-10	09:28:58	09:32:55	232014	6401227cb3aa0d131ec5dd53	4	1	main_z	7	main_z	13	stimuli_target_rectanglediamonds.svg	stimuli_distractor_diamondtriangles.svg	6	yes	44	1	1103	0	0			0	0			1				0	
6.6.1	win	2023-07-10	09:28:58	09:32:55	232014	6401227cb3aa0d131ec5dd53	4	1	main_z	7	advance_on_keypress_ZEE	14	stimuli_target_rectanglediamonds.svg	stimuli_distractor_diamondtriangles.svg	6	yes	57	0	804	0	0			0	0			1				0	
6.6.1	win	2023-07-10	09:28:58	09:32:58	234654	6401227cb3aa0d131ec5dd53	4	1	main_z	7	main_z	15	stimuli_distractor_diamondtriangles.svg	stimuli_target_diamondsquares.svg	32	yes	44	1	1184	0	0			0	0			1				0	
6.6.1	win	2023-07-10	09:28:58	09:32:58	234654	6401227cb3aa0d131ec5dd53	4	1	main_z	7	advance_on_keypress_ZEE	16	stimuli_distractor_diamondtriangles.svg	stimuli_target_diamondsquares.svg	32	yes	57	0	814	0	0			0	0			1				0	
6.6.1	win	2023-07-10	09:28:58	09:33:00	237489	6401227cb3aa0d131ec5dd53	4	1	main_z	7	main_z	17	stimuli_target_squarediamonds.svg	stimuli_distractor_diamondtriangles.svg	8	yes	44	1	1369	0	0			0	0			1				0	
6.6.1	win	2023-07-10	09:28:58	09:33:00	237489	6401227cb3aa0d131ec5dd53	4	1	main_z	7	advance_on_keypress_ZEE	18	stimuli_target_squarediamonds.svg	stimuli_distractor_diamondtriangles.svg	8	yes	57	0	847	0	0			0	0			1				0	
6.6.1	win	2023-07-10	09:28:58	09:33:03	239601	6401227cb3aa0d131ec5dd53	4	1	main_z	7	main_z	19	stimuli_distractor_diamondtriangles.svg	stimuli_target_squaretriangles.svg	15	yes	44	1	572	0	0			0	0			1				0	
6.6.1	win	2023-07-10	09:28:58	09:33:03	239601	6401227cb3aa0d131ec5dd53	4	1	main_z	7	advance_on_keypress_ZEE	20	stimuli_distractor_diamondtriangles.svg	stimuli_target_squaretriangles.svg	15	yes	57	0	864	0	0			0	0			1				0	
6.6.1	win	2023-07-10	09:28:58	09:33:05	242283	6401227cb3aa0d131ec5dd53	4	1	main_z	7	main_z	21	stimuli_target_squarediamonds.svg	stimuli_distractor_trianglediamonds.svg	4	yes	44	1	1155	0	0			0	0			1				0	
6.6.1	win	2023-07-10	09:28:58	09:33:05	242283	6401227cb3aa0d131ec5dd53	4	1	main_z	7	advance_on_keypress_ZEE	22	stimuli_target_squarediamonds.svg	stimuli_distractor_trianglediamonds.svg	4	yes	57	0	838	0	0			0	0			1				0	
6.6.1	win	2023-07-10	09:28:58	09:33:08	245005	6401227cb3aa0d131ec5dd53	4	1	main_z	7	main_z	23	stimuli_distractor_diamondtriangles.svg	stimuli_target_trianglesquares.svg	30	yes	44	1	1226	0	0			0	0			1				0	
6.6.1	win	2023-07-10	09:28:58	09:33:08	245005	6401227cb3aa0d131ec5dd53	4	1	main_z	7	advance_on_keypress_ZEE	24	stimuli_distractor_diamondtriangles.svg	stimuli_target_trianglesquares.svg	30	yes	57	0	961	0	0			0	0			1				0	
6.6.1	win	2023-07-10	09:28:58	09:33:12	248628	6401227cb3aa0d131ec5dd53	4	1	main_z	7	main_z	25	stimuli_distractor_diamondtriangles.svg	stimuli_distractor_diamondtriangles.svg	40	no	0	1	2000	0	0			0	0			1				0	
6.6.1	win	2023-07-10	09:28:58	09:33:12	248628	6401227cb3aa0d131ec5dd53	4	1	main_z	7	advance_on_keypress_ZEE	26	stimuli_distractor_diamondtriangles.svg	stimuli_distractor_diamondtriangles.svg	40	no	57	0	1358	0	0			0	0			1				0	
6.6.1	win	2023-07-10	09:28:58	09:33:15	252277	6401227cb3aa0d131ec5dd53	4	1	main_z	7	main_z	27	stimuli_distractor_trianglediamonds.svg	stimuli_distractor_trianglediamonds.svg	34	no	44	0	1632	0	0			0	0			1				0	
6.6.1	win	2023-07-10	09:28:58	09:33:15	252277	6401227cb3aa0d131ec5dd53	4	1	main_z	7	advance_on_keypress_ZEE	28	stimuli_distractor_trianglediamonds.svg	stimuli_distractor_trianglediamonds.svg	34	no	57	0	706	0	0			0	0			1				0	
6.6.1	win	2023-07-10	09:28:58	09:33:18	254967	6401227cb3aa0d131ec5dd53	4	1	main_z	7	main_z	29	stimuli_distractor_trianglediamonds.svg	stimuli_target_trianglerectangles.svg	25	yes	44	1	1330	0	0			0	0			1				0	
6.6.1	win	2023-07-10	09:28:58	09:33:18	254967	6401227cb3aa0d131ec5dd53	4	1	main_z	7	advance_on_keypress_ZEE	30	stimuli_distractor_trianglediamonds.svg	stimuli_target_trianglerectangles.svg	25	yes	57	0	967	0	0			0	0			1				0	
6.6.1	win	2023-07-10	09:28:58	09:33:22	258587	6401227cb3aa0d131ec5dd53	4	1	main_z	7	main_z	31	stimuli_target_rectangletriangles.svg	stimuli_distractor_diamondtriangles.svg	5	yes	0	0	2000	0	0			0	0			1				0	
6.6.1	win	2023-07-10	09:28:58	09:33:22	258587	6401227cb3aa0d131ec5dd53	4	1	main_z	7	advance_on_keypress_ZEE	32	stimuli_target_rectangletriangles.svg	stimuli_distractor_diamondtriangles.svg	5	yes	57	0	1169	0	0			0	0			1				0	
6.6.1	win	2023-07-10	09:28:58	09:33:24	261179	6401227cb3aa0d131ec5dd53	4	1	main_z	7	main_z	33	stimuli_target_rectanglediamonds.svg	stimuli_distractor_trianglediamonds.svg	2	yes	44	1	761	0	0			0	0			1				0	
6.6.1	win	2023-07-10	09:28:58	09:33:24	261179	6401227cb3aa0d131ec5dd53	4	1	main_z	7	advance_on_keypress_ZEE	34	stimuli_target_rectanglediamonds.svg	stimuli_distractor_trianglediamonds.svg	2	yes	57	0	3763	0	0			0	0			1				0	
6.6.1	win	2023-07-10	09:28:58	09:33:31	267610	6401227cb3aa0d131ec5dd53	4	1	main_z	7	main_z	35	stimuli_distractor_diamondtriangles.svg	stimuli_target_rectangletriangles.svg	13	yes	0	0	2000	0	0			0	0			1				0	
6.6.1	win	2023-07-10	09:28:58	09:33:31	267610	6401227cb3aa0d131ec5dd53	4	1	main_z	7	advance_on_keypress_ZEE	36	stimuli_distractor_diamondtriangles.svg	stimuli_target_rectangletriangles.svg	13	yes	57	0	855	0	0			0	0			1				0	
6.6.1	win	2023-07-10	09:28:58	09:33:34	270538	6401227cb3aa0d131ec5dd53	4	1	main_z	7	main_z	37	stimuli_target_diamondsquares.svg	stimuli_distractor_trianglediamonds.svg	20	yes	44	1	1410	0	0			0	0			1				0	
6.6.1	win	2023-07-10	09:28:58	09:33:34	270538	6401227cb3aa0d131ec5dd53	4	1	main_z	7	advance_on_keypress_ZEE	38	stimuli_target_diamondsquares.svg	stimuli_distractor_trianglediamonds.svg	20	yes	57	0	951	0	0			0	0			1				0	
6.6.1	win	2023-07-10	09:28:58	09:33:37	274144	6401227cb3aa0d131ec5dd53	4	1	main_z	7	main_z	39	stimuli_target_trianglerectangles.svg	stimuli_distractor_diamondtriangles.svg	21	yes	0	0	2000	0	0			0	0			1				0	
6.6.1	win	2023-07-10	09:28:58	09:33:37	274144	6401227cb3aa0d131ec5dd53	4	1	main_z	7	advance_on_keypress_ZEE	40	stimuli_target_trianglerectangles.svg	stimuli_distractor_diamondtriangles.svg	21	yes	57	0	582	0	0			0	0			1				0	
6.6.1	win	2023-07-10	09:28:58	09:33:40	276901	6401227cb3aa0d131ec5dd53	4	1	main_z	7	main_z	41	stimuli_distractor_trianglediamonds.svg	stimuli_target_trianglesquares.svg	26	yes	44	1	1525	0	0			0	0			1				0	
6.6.1	win	2023-07-10	09:28:58	09:33:40	276901	6401227cb3aa0d131ec5dd53	4	1	main_z	7	advance_on_keypress_ZEE	42	stimuli_distractor_trianglediamonds.svg	stimuli_target_trianglesquares.svg	26	yes	57	0	694	0	0			0	0			1				0	
6.6.1	win	2023-07-10	09:28:58	09:33:43	279659	6401227cb3aa0d131ec5dd53	4	1	main_z	7	main_z	43	stimuli_target_diamondrectangles.svg	stimuli_distractor_trianglediamonds.svg	19	yes	44	1	1407	0	0			0	0			1				0	
6.6.1	win	2023-07-10	09:28:58	09:33:43	279659	6401227cb3aa0d131ec5dd53	4	1	main_z	7	advance_on_keypress_ZEE	44	stimuli_target_diamondrectangles.svg	stimuli_distractor_trianglediamonds.svg	19	yes	57	0	538	0	0			0	0			1				0	
6.6.1	win	2023-07-10	09:28:58	09:33:45	282227	6401227cb3aa0d131ec5dd53	4	1	main_z	7	main_z	45	stimuli_target_trianglesquares.svg	stimuli_distractor_trianglediamonds.svg	18	yes	44	1	1375	0	0			0	0			1				0	
6.6.1	win	2023-07-10	09:28:58	09:33:45	282227	6401227cb3aa0d131ec5dd53	4	1	main_z	7	advance_on_keypress_ZEE	46	stimuli_target_trianglesquares.svg	stimuli_distractor_trianglediamonds.svg	18	yes	57	0	710	0	0			0	0			1				0	
6.6.1	win	2023-07-10	09:28:58	09:33:48	284775	6401227cb3aa0d131ec5dd53	4	1	main_z	7	main_z	47	stimuli_distractor_diamondtriangles.svg	stimuli_target_trianglerectangles.svg	29	yes	44	1	1200	0	0			0	0			1				0	
6.6.1	win	2023-07-10	09:28:58	09:33:48	284775	6401227cb3aa0d131ec5dd53	4	1	main_z	7	advance_on_keypress_ZEE	48	stimuli_distractor_diamondtriangles.svg	stimuli_target_trianglerectangles.svg	29	yes	57	0	611	0	0			0	0			1				0	
6.6.1	win	2023-07-10	09:28:58	09:33:51	288035	6401227cb3aa0d131ec5dd53	4	1	main_z	7	main_z	49	stimuli_target_diamondrectangles.svg	stimuli_distractor_diamondtriangles.svg	23	yes	0	0	2000	0	0			0	0			1				0	
6.6.1	win	2023-07-10	09:28:58	09:33:51	288035	6401227cb3aa0d131ec5dd53	4	1	main_z	7	advance_on_keypress_ZEE	50	stimuli_target_diamondrectangles.svg	stimuli_distractor_diamondtriangles.svg	23	yes	57	0	456	0	0			0	0			1				0	
6.6.1	win	2023-07-10	09:28:58	09:33:54	291134	6401227cb3aa0d131ec5dd53	4	1	main_z	7	main_z	51	stimuli_distractor_diamondtriangles.svg	stimuli_distractor_diamondtriangles.svg	39	no	0	1	2000	0	0			0	0			1				0	
6.6.1	win	2023-07-10	09:28:58	09:33:54	291134	6401227cb3aa0d131ec5dd53	4	1	main_z	7	advance_on_keypress_ZEE	52	stimuli_distractor_diamondtriangles.svg	stimuli_distractor_diamondtriangles.svg	39	no	57	0	577	0	0			0	0			1				0	
6.6.1	win	2023-07-10	09:28:58	09:33:57	293803	6401227cb3aa0d131ec5dd53	4	1	main_z	7	main_z	53	stimuli_target_squaretriangles.svg	stimuli_distractor_diamondtriangles.svg	7	yes	44	1	1452	0	0			0	0			1				0	
6.6.1	win	2023-07-10	09:28:58	09:33:57	293803	6401227cb3aa0d131ec5dd53	4	1	main_z	7	advance_on_keypress_ZEE	54	stimuli_target_squaretriangles.svg	stimuli_distractor_diamondtriangles.svg	7	yes	57	0	644	0	0			0	0			1				0	
6.6.1	win	2023-07-10	09:28:58	09:34:00	297092	6401227cb3aa0d131ec5dd53	4	1	main_z	7	main_z	55	stimuli_distractor_trianglediamonds.svg	stimuli_distractor_diamondtriangles.svg	35	no	0	1	2000	0	0			0	0			1				0	
6.6.1	win	2023-07-10	09:28:58	09:34:00	297092	6401227cb3aa0d131ec5dd53	4	1	main_z	7	advance_on_keypress_ZEE	56	stimuli_distractor_trianglediamonds.svg	stimuli_distractor_diamondtriangles.svg	35	no	57	0	104	0	0			0	0			1				0	
6.6.1	win	2023-07-10	09:28:58	09:34:03	299658	6401227cb3aa0d131ec5dd53	4	1	main_z	7	main_z	57	stimuli_distractor_trianglediamonds.svg	stimuli_target_diamondsquares.svg	28	yes	44	1	1808	0	0			0	0			1				0	
6.6.1	win	2023-07-10	09:28:58	09:34:03	299658	6401227cb3aa0d131ec5dd53	4	1	main_z	7	advance_on_keypress_ZEE	58	stimuli_distractor_trianglediamonds.svg	stimuli_target_diamondsquares.svg	28	yes	57	0	518	0	0			0	0			1				0	
6.6.1	win	2023-07-10	09:28:58	09:34:06	302825	6401227cb3aa0d131ec5dd53	4	1	main_z	7	main_z	59	stimuli_distractor_diamondtriangles.svg	stimuli_distractor_trianglediamonds.svg	37	no	0	1	2000	0	0			0	0			1				0	
6.6.1	win	2023-07-10	09:28:58	09:34:06	302825	6401227cb3aa0d131ec5dd53	4	1	main_z	7	advance_on_keypress_ZEE	60	stimuli_distractor_diamondtriangles.svg	stimuli_distractor_trianglediamonds.svg	37	no	57	0	455	0	0			0	0			1				0	
6.6.1	win	2023-07-10	09:28:58	09:34:09	305933	6401227cb3aa0d131ec5dd53	4	1	main_z	7	main_z	61	stimuli_distractor_trianglediamonds.svg	stimuli_distractor_diamondtriangles.svg	36	no	0	1	2000	0	0			0	0			1				0	
6.6.1	win	2023-07-10	09:28:58	09:34:09	305933	6401227cb3aa0d131ec5dd53	4	1	main_z	7	advance_on_keypress_ZEE	62	stimuli_distractor_trianglediamonds.svg	stimuli_distractor_diamondtriangles.svg	36	no	57	0	707	0	0			0	0			1				0	
6.6.1	win	2023-07-10	09:28:58	09:34:11	308411	6401227cb3aa0d131ec5dd53	4	1	main_z	7	main_z	63	stimuli_target_trianglesquares.svg	stimuli_distractor_diamondtriangles.svg	22	yes	44	1	1137	0	0			0	0			1				0	
6.6.1	win	2023-07-10	09:28:58	09:34:11	308411	6401227cb3aa0d131ec5dd53	4	1	main_z	7	advance_on_keypress_ZEE	64	stimuli_target_trianglesquares.svg	stimuli_distractor_diamondtriangles.svg	22	yes	57	0	1192	0	0			0	0			1				0	
6.6.1	win	2023-07-10	09:28:58	09:34:15	311945	6401227cb3aa0d131ec5dd53	4	1	main_z	7	main_z	65	stimuli_distractor_trianglediamonds.svg	stimuli_target_squarediamonds.svg	12	yes	44	1	1687	0	0			0	0			1				0	
6.6.1	win	2023-07-10	09:28:58	09:34:15	311945	6401227cb3aa0d131ec5dd53	4	1	main_z	7	advance_on_keypress_ZEE	66	stimuli_distractor_trianglediamonds.svg	stimuli_target_squarediamonds.svg	12	yes	57	0	528	0	0			0	0			1				0	
6.6.1	win	2023-07-10	09:28:58	09:34:17	314038	6401227cb3aa0d131ec5dd53	4	1	main_z	7	main_z	67	stimuli_distractor_trianglediamonds.svg	stimuli_target_squaretriangles.svg	11	yes	44	1	904	0	0			0	0			1				0	
6.6.1	win	2023-07-10	09:28:58	09:34:17	314038	6401227cb3aa0d131ec5dd53	4	1	main_z	7	advance_on_keypress_ZEE	68	stimuli_distractor_trianglediamonds.svg	stimuli_target_squaretriangles.svg	11	yes	57	0	386	0	0			0	0			1				0	
6.6.1	win	2023-07-10	09:28:58	09:34:19	315996	6401227cb3aa0d131ec5dd53	4	1	main_z	7	main_z	69	stimuli_distractor_diamondtriangles.svg	stimuli_target_squarediamonds.svg	16	yes	44	1	929	0	0			0	0			1				0	
6.6.1	win	2023-07-10	09:28:58	09:34:19	315996	6401227cb3aa0d131ec5dd53	4	1	main_z	7	advance_on_keypress_ZEE	70	stimuli_distractor_diamondtriangles.svg	stimuli_target_squarediamonds.svg	16	yes	57	0	285	0	0			0	0			1				0	
6.6.1	win	2023-07-10	09:28:58	09:34:22	318925	6401227cb3aa0d131ec5dd53	4	1	main_z	7	main_z	71	stimuli_target_trianglerectangles.svg	stimuli_distractor_trianglediamonds.svg	17	yes	0	0	2000	0	0			0	0			1				0	
6.6.1	win	2023-07-10	09:28:58	09:34:22	318925	6401227cb3aa0d131ec5dd53	4	1	main_z	7	advance_on_keypress_ZEE	72	stimuli_target_trianglerectangles.svg	stimuli_distractor_trianglediamonds.svg	17	yes	57	0	1303	0	0			0	0			1				0	
6.6.1	win	2023-07-10	09:28:58	09:34:24	321327	6401227cb3aa0d131ec5dd53	4	1	main_z	7	main_z	73	stimuli_target_rectangletriangles.svg	stimuli_distractor_trianglediamonds.svg	1	yes	44	1	460	0	0			0	0			1				0	
6.6.1	win	2023-07-10	09:28:58	09:34:24	321327	6401227cb3aa0d131ec5dd53	4	1	main_z	7	advance_on_keypress_ZEE	74	stimuli_target_rectangletriangles.svg	stimuli_distractor_trianglediamonds.svg	1	yes	57	0	508	0	0			0	0			1				0	
6.6.1	win	2023-07-10	09:28:58	09:34:26	323040	6401227cb3aa0d131ec5dd53	4	1	main_z	7	main_z	75	stimuli_distractor_diamondtriangles.svg	stimuli_target_rectanglediamonds.svg	14	yes	44	1	558	0	0			0	0			1				0	
6.6.1	win	2023-07-10	09:28:58	09:34:26	323040	6401227cb3aa0d131ec5dd53	4	1	main_z	7	advance_on_keypress_ZEE	76	stimuli_distractor_diamondtriangles.svg	stimuli_target_rectanglediamonds.svg	14	yes	57	0	433	0	0			0	0			1				0	
6.6.1	win	2023-07-10	09:28:58	09:34:28	324647	6401227cb3aa0d131ec5dd53	4	1	main_z	7	main_z	77	stimuli_distractor_trianglediamonds.svg	stimuli_target_rectanglediamonds.svg	10	yes	44	1	532	0	0			0	0			1				0	
6.6.1	win	2023-07-10	09:28:58	09:34:28	324647	6401227cb3aa0d131ec5dd53	4	1	main_z	7	advance_on_keypress_ZEE	78	stimuli_distractor_trianglediamonds.svg	stimuli_target_rectanglediamonds.svg	10	yes	57	0	434	0	0			0	0			1				0	
6.6.1	win	2023-07-10	09:28:58	09:34:29	326211	6401227cb3aa0d131ec5dd53	4	1	main_z	7	main_z	79	stimuli_distractor_trianglediamonds.svg	stimuli_target_rectangletriangles.svg	9	yes	44	1	495	0	0			0	0			1				0	
6.6.1	win	2023-07-10	09:28:58	09:34:29	326211	6401227cb3aa0d131ec5dd53	4	1	main_z	7	advance_on_keypress_ZEE	80	stimuli_distractor_trianglediamonds.svg	stimuli_target_rectangletriangles.svg	9	yes	57	0	439	0	0			0	0			1				0	
6.6.1	win	2023-07-10	09:28:58	09:34:31	327911	6401227cb3aa0d131ec5dd53	4	1	main_z	7	main_z	81	stimuli_target_rectanglediamonds.svg	stimuli_distractor_diamondtriangles.svg	6	yes	44	1	595	0	0			0	0			1				0	
6.6.1	win	2023-07-10	09:28:58	09:34:31	327911	6401227cb3aa0d131ec5dd53	4	1	main_z	7	advance_on_keypress_ZEE	82	stimuli_target_rectanglediamonds.svg	stimuli_distractor_diamondtriangles.svg	6	yes	57	0	424	0	0			0	0			1				0	
6.6.1	win	2023-07-10	09:28:58	09:34:33	329610	6401227cb3aa0d131ec5dd53	4	1	main_z	7	main_z	83	stimuli_target_squaretriangles.svg	stimuli_distractor_diamondtriangles.svg	7	yes	44	1	595	0	0			0	0			1				0	
6.6.1	win	2023-07-10	09:28:58	09:34:33	329610	6401227cb3aa0d131ec5dd53	4	1	main_z	7	advance_on_keypress_ZEE	84	stimuli_target_squaretriangles.svg	stimuli_distractor_diamondtriangles.svg	7	yes	57	0	484	0	0			0	0			1				0	
6.6.1	win	2023-07-10	09:28:58	09:34:36	332732	6401227cb3aa0d131ec5dd53	4	1	main_z	7	main_z	85	stimuli_target_trianglerectangles.svg	stimuli_distractor_diamondtriangles.svg	21	yes	0	0	2000	0	0			0	0			1				0	
6.6.1	win	2023-07-10	09:28:58	09:34:36	332732	6401227cb3aa0d131ec5dd53	4	1	main_z	7	advance_on_keypress_ZEE	86	stimuli_target_trianglerectangles.svg	stimuli_distractor_diamondtriangles.svg	21	yes	57	0	755	0	0			0	0			1				0	
6.6.1	win	2023-07-10	09:28:58	09:34:38	335319	6401227cb3aa0d131ec5dd53	4	1	main_z	7	main_z	87	stimuli_target_diamondsquares.svg	stimuli_distractor_diamondtriangles.svg	24	yes	44	1	1187	0	0			0	0			1				0	
6.6.1	win	2023-07-10	09:28:58	09:34:38	335319	6401227cb3aa0d131ec5dd53	4	1	main_z	7	advance_on_keypress_ZEE	88	stimuli_target_diamondsquares.svg	stimuli_distractor_diamondtriangles.svg	24	yes	57	0	363	0	0			0	0			1				0	
6.6.1	win	2023-07-10	09:28:58	09:34:40	337145	6401227cb3aa0d131ec5dd53	4	1	main_z	7	main_z	89	stimuli_target_diamondrectangles.svg	stimuli_distractor_trianglediamonds.svg	19	yes	44	1	813	0	0			0	0			1				0	
6.6.1	win	2023-07-10	09:28:58	09:34:40	337145	6401227cb3aa0d131ec5dd53	4	1	main_z	7	advance_on_keypress_ZEE	90	stimuli_target_diamondrectangles.svg	stimuli_distractor_trianglediamonds.svg	19	yes	57	0	459	0	0			0	0			1				0	
6.6.1	win	2023-07-10	09:28:58	09:34:42	339116	6401227cb3aa0d131ec5dd53	4	1	main_z	7	main_z	91	stimuli_distractor_diamondtriangles.svg	stimuli_target_rectanglediamonds.svg	14	yes	44	1	876	0	0			0	0			1				0	
6.6.1	win	2023-07-10	09:28:58	09:34:42	339116	6401227cb3aa0d131ec5dd53	4	1	main_z	7	advance_on_keypress_ZEE	92	stimuli_distractor_diamondtriangles.svg	stimuli_target_rectanglediamonds.svg	14	yes	57	0	348	0	0			0	0			1				0	
6.6.1	win	2023-07-10	09:28:58	09:34:45	342107	6401227cb3aa0d131ec5dd53	4	1	main_z	7	main_z	93	stimuli_distractor_trianglediamonds.svg	stimuli_target_trianglesquares.svg	26	yes	0	0	2000	0	0			0	0			1				0	
6.6.1	win	2023-07-10	09:28:58	09:34:45	342107	6401227cb3aa0d131ec5dd53	4	1	main_z	7	advance_on_keypress_ZEE	94	stimuli_distractor_trianglediamonds.svg	stimuli_target_trianglesquares.svg	26	yes	57	0	1465	0	0			0	0			1				0	
6.6.1	win	2023-07-10	09:28:58	09:34:48	345269	6401227cb3aa0d131ec5dd53	4	1	main_z	7	main_z	95	stimuli_target_trianglerectangles.svg	stimuli_distractor_trianglediamonds.svg	17	yes	44	1	1046	0	0			0	0			1				0	
6.6.1	win	2023-07-10	09:28:58	09:34:48	345269	6401227cb3aa0d131ec5dd53	4	1	main_z	7	advance_on_keypress_ZEE	96	stimuli_target_trianglerectangles.svg	stimuli_distractor_trianglediamonds.svg	17	yes	57	0	220	0	0			0	0			1				0	
6.6.1	win	2023-07-10	09:28:58	09:34:50	347180	6401227cb3aa0d131ec5dd53	4	1	main_z	7	main_z	97	stimuli_target_squarediamonds.svg	stimuli_distractor_trianglediamonds.svg	4	yes	44	1	1032	0	0			0	0			1				0	
6.6.1	win	2023-07-10	09:28:58	09:34:50	347180	6401227cb3aa0d131ec5dd53	4	1	main_z	7	advance_on_keypress_ZEE	98	stimuli_target_squarediamonds.svg	stimuli_distractor_trianglediamonds.svg	4	yes	57	0	223	0	0			0	0			1				0	
6.6.1	win	2023-07-10	09:28:58	09:34:53	350056	6401227cb3aa0d131ec5dd53	4	1	main_z	7	main_z	99	stimuli_distractor_trianglediamonds.svg	stimuli_distractor_diamondtriangles.svg	35	no	0	1	2000	0	0			0	0			1				0	
6.6.1	win	2023-07-10	09:28:58	09:34:53	350056	6401227cb3aa0d131ec5dd53	4	1	main_z	7	advance_on_keypress_ZEE	100	stimuli_distractor_trianglediamonds.svg	stimuli_distractor_diamondtriangles.svg	35	no	57	0	724	0	0			0	0			1				0	
6.6.1	win	2023-07-10	09:28:58	09:34:55	352464	6401227cb3aa0d131ec5dd53	4	1	main_z	7	main_z	101	stimuli_target_rectangletriangles.svg	stimuli_distractor_diamondtriangles.svg	5	yes	44	1	1025	0	0			0	0			1				0	
6.6.1	win	2023-07-10	09:28:58	09:34:55	352464	6401227cb3aa0d131ec5dd53	4	1	main_z	7	advance_on_keypress_ZEE	102	stimuli_target_rectangletriangles.svg	stimuli_distractor_diamondtriangles.svg	5	yes	57	0	490	0	0			0	0			1				0	
6.6.1	win	2023-07-10	09:28:58	09:34:57	354443	6401227cb3aa0d131ec5dd53	4	1	main_z	7	main_z	103	stimuli_distractor_trianglediamonds.svg	stimuli_target_squaretriangles.svg	11	yes	44	1	853	0	0			0	0			1				0	
6.6.1	win	2023-07-10	09:28:58	09:34:57	354443	6401227cb3aa0d131ec5dd53	4	1	main_z	7	advance_on_keypress_ZEE	104	stimuli_distractor_trianglediamonds.svg	stimuli_target_squaretriangles.svg	11	yes	57	0	391	0	0			0	0			1				0	
6.6.1	win	2023-07-10	09:28:58	09:34:59	356421	6401227cb3aa0d131ec5dd53	4	1	main_z	7	main_z	105	stimuli_target_rectangletriangles.svg	stimuli_distractor_trianglediamonds.svg	1	yes	44	1	949	0	0			0	0			1				0	
6.6.1	win	2023-07-10	09:28:58	09:34:59	356421	6401227cb3aa0d131ec5dd53	4	1	main_z	7	advance_on_keypress_ZEE	106	stimuli_target_rectangletriangles.svg	stimuli_distractor_trianglediamonds.svg	1	yes	57	0	350	0	0			0	0			1				0	
6.6.1	win	2023-07-10	09:28:58	09:35:01	358054	6401227cb3aa0d131ec5dd53	4	1	main_z	7	main_z	107	stimuli_distractor_trianglediamonds.svg	stimuli_target_rectanglediamonds.svg	10	yes	44	1	632	0	0			0	0			1				0	
6.6.1	win	2023-07-10	09:28:58	09:35:01	358054	6401227cb3aa0d131ec5dd53	4	1	main_z	7	advance_on_keypress_ZEE	108	stimuli_distractor_trianglediamonds.svg	stimuli_target_rectanglediamonds.svg	10	yes	57	0	454	0	0			0	0			1				0	
6.6.1	win	2023-07-10	09:28:58	09:35:03	360213	6401227cb3aa0d131ec5dd53	4	1	main_z	7	main_z	109	stimuli_distractor_diamondtriangles.svg	stimuli_target_squarediamonds.svg	16	yes	44	1	1049	0	0			0	0			1				0	
6.6.1	win	2023-07-10	09:28:58	09:35:03	360213	6401227cb3aa0d131ec5dd53	4	1	main_z	7	advance_on_keypress_ZEE	110	stimuli_distractor_diamondtriangles.svg	stimuli_target_squarediamonds.svg	16	yes	57	0	339	0	0			0	0			1				0	
6.6.1	win	2023-07-10	09:28:58	09:35:06	363197	6401227cb3aa0d131ec5dd53	4	1	main_z	7	main_z	111	stimuli_distractor_diamondtriangles.svg	stimuli_distractor_diamondtriangles.svg	40	no	0	1	2000	0	0			0	0			1				0	
6.6.1	win	2023-07-10	09:28:58	09:35:06	363197	6401227cb3aa0d131ec5dd53	4	1	main_z	7	advance_on_keypress_ZEE	112	stimuli_distractor_diamondtriangles.svg	stimuli_distractor_diamondtriangles.svg	40	no	57	0	461	0	0			0	0			1				0	
6.6.1	win	2023-07-10	09:28:58	09:35:08	364901	6401227cb3aa0d131ec5dd53	4	1	main_z	7	main_z	113	stimuli_target_squarediamonds.svg	stimuli_distractor_diamondtriangles.svg	8	yes	44	1	612	0	0			0	0			1				0	
6.6.1	win	2023-07-10	09:28:58	09:35:08	364901	6401227cb3aa0d131ec5dd53	4	1	main_z	7	advance_on_keypress_ZEE	114	stimuli_target_squarediamonds.svg	stimuli_distractor_diamondtriangles.svg	8	yes	57	0	511	0	0			0	0			1				0	
6.6.1	win	2023-07-10	09:28:58	09:35:10	367116	6401227cb3aa0d131ec5dd53	4	1	main_z	7	main_z	115	stimuli_target_diamondrectangles.svg	stimuli_distractor_diamondtriangles.svg	23	yes	44	1	1052	0	0			0	0			1				0	
6.6.1	win	2023-07-10	09:28:58	09:35:10	367116	6401227cb3aa0d131ec5dd53	4	1	main_z	7	advance_on_keypress_ZEE	116	stimuli_target_diamondrectangles.svg	stimuli_distractor_diamondtriangles.svg	23	yes	57	0	396	0	0			0	0			1				0	
6.6.1	win	2023-07-10	09:28:58	09:35:13	370155	6401227cb3aa0d131ec5dd53	4	1	main_z	7	main_z	117	stimuli_distractor_trianglediamonds.svg	stimuli_target_trianglerectangles.svg	25	yes	0	0	2000	0	0			0	0			1				0	
6.6.1	win	2023-07-10	09:28:58	09:35:13	370155	6401227cb3aa0d131ec5dd53	4	1	main_z	7	advance_on_keypress_ZEE	118	stimuli_distractor_trianglediamonds.svg	stimuli_target_trianglerectangles.svg	25	yes	57	0	871	0	0			0	0			1				0	
6.6.1	win	2023-07-10	09:28:58	09:35:16	372839	6401227cb3aa0d131ec5dd53	4	1	main_z	7	main_z	119	stimuli_target_squaretriangles.svg	stimuli_distractor_trianglediamonds.svg	3	yes	44	1	1150	0	0			0	0			1				0	
6.6.1	win	2023-07-10	09:28:58	09:35:16	372839	6401227cb3aa0d131ec5dd53	4	1	main_z	7	advance_on_keypress_ZEE	120	stimuli_target_squaretriangles.svg	stimuli_distractor_trianglediamonds.svg	3	yes	57	0	391	0	0			0	0			1				0	
6.6.1	win	2023-07-10	09:28:58	09:35:19	375880	6401227cb3aa0d131ec5dd53	4	1	main_z	7	main_z	121	stimuli_target_trianglesquares.svg	stimuli_distractor_trianglediamonds.svg	18	yes	0	0	2000	0	0			0	0			1				0	
6.6.1	win	2023-07-10	09:28:58	09:35:19	375880	6401227cb3aa0d131ec5dd53	4	1	main_z	7	advance_on_keypress_ZEE	122	stimuli_target_trianglesquares.svg	stimuli_distractor_trianglediamonds.svg	18	yes	57	0	787	0	0			0	0			1				0	
6.6.1	win	2023-07-10	09:28:58	09:35:21	378450	6401227cb3aa0d131ec5dd53	4	1	main_z	7	main_z	123	stimuli_distractor_diamondtriangles.svg	stimuli_target_rectangletriangles.svg	13	yes	44	1	1119	0	0			0	0			1				0	
6.6.1	win	2023-07-10	09:28:58	09:35:21	378450	6401227cb3aa0d131ec5dd53	4	1	main_z	7	advance_on_keypress_ZEE	124	stimuli_distractor_diamondtriangles.svg	stimuli_target_rectangletriangles.svg	13	yes	57	0	333	0	0			0	0			1				0	
6.6.1	win	2023-07-10	09:28:58	09:35:24	380563	6401227cb3aa0d131ec5dd53	4	1	main_z	7	main_z	125	stimuli_distractor_trianglediamonds.svg	stimuli_target_diamondrectangles.svg	27	yes	44	1	1134	0	0			0	0			1				0	
6.6.1	win	2023-07-10	09:28:58	09:35:24	380563	6401227cb3aa0d131ec5dd53	4	1	main_z	7	advance_on_keypress_ZEE	126	stimuli_distractor_trianglediamonds.svg	stimuli_target_diamondrectangles.svg	27	yes	57	0	305	0	0			0	0			1				0	
6.6.1	win	2023-07-10	09:28:58	09:35:26	382717	6401227cb3aa0d131ec5dd53	4	1	main_z	7	main_z	127	stimuli_distractor_diamondtriangles.svg	stimuli_target_squaretriangles.svg	15	yes	44	1	1188	0	0			0	0			1				0	
6.6.1	win	2023-07-10	09:28:58	09:35:26	382717	6401227cb3aa0d131ec5dd53	4	1	main_z	7	advance_on_keypress_ZEE	128	stimuli_distractor_diamondtriangles.svg	stimuli_target_squaretriangles.svg	15	yes	57	0	293	0	0			0	0			1				0	
6.6.1	win	2023-07-10	09:28:58	09:35:29	385663	6401227cb3aa0d131ec5dd53	4	1	main_z	7	main_z	129	stimuli_distractor_diamondtriangles.svg	stimuli_distractor_trianglediamonds.svg	38	no	0	1	2000	0	0			0	0			1				0	
6.6.1	win	2023-07-10	09:28:58	09:35:29	385663	6401227cb3aa0d131ec5dd53	4	1	main_z	7	advance_on_keypress_ZEE	130	stimuli_distractor_diamondtriangles.svg	stimuli_distractor_trianglediamonds.svg	38	no	57	0	613	0	0			0	0			1				0	
6.6.1	win	2023-07-10	09:28:58	09:35:31	387731	6401227cb3aa0d131ec5dd53	4	1	main_z	7	main_z	131	stimuli_target_rectanglediamonds.svg	stimuli_distractor_trianglediamonds.svg	2	yes	44	1	792	0	0			0	0			1				0	
6.6.1	win	2023-07-10	09:28:58	09:35:31	387731	6401227cb3aa0d131ec5dd53	4	1	main_z	7	advance_on_keypress_ZEE	132	stimuli_target_rectanglediamonds.svg	stimuli_distractor_trianglediamonds.svg	2	yes	57	0	406	0	0			0	0			1				0	
6.6.1	win	2023-07-10	09:28:58	09:35:33	389920	6401227cb3aa0d131ec5dd53	4	1	main_z	7	main_z	133	stimuli_distractor_trianglediamonds.svg	stimuli_target_diamondsquares.svg	28	yes	44	1	1140	0	0			0	0			1				0	
6.6.1	win	2023-07-10	09:28:58	09:35:33	389920	6401227cb3aa0d131ec5dd53	4	1	main_z	7	advance_on_keypress_ZEE	134	stimuli_distractor_trianglediamonds.svg	stimuli_target_diamondsquares.svg	28	yes	57	0	282	0	0			0	0			1				0	
6.6.1	win	2023-07-10	09:28:58	09:35:36	392846	6401227cb3aa0d131ec5dd53	4	1	main_z	7	main_z	135	stimuli_distractor_trianglediamonds.svg	stimuli_distractor_trianglediamonds.svg	34	no	0	1	2000	0	0			0	0			1				0	
6.6.1	win	2023-07-10	09:28:58	09:35:36	392846	6401227cb3aa0d131ec5dd53	4	1	main_z	7	advance_on_keypress_ZEE	136	stimuli_distractor_trianglediamonds.svg	stimuli_distractor_trianglediamonds.svg	34	no	57	0	182	0	0			0	0			1				0	
6.6.1	win	2023-07-10	09:28:58	09:35:37	394328	6401227cb3aa0d131ec5dd53	4	1	main_z	7	main_z	137	stimuli_distractor_trianglediamonds.svg	stimuli_target_rectangletriangles.svg	9	yes	44	1	666	0	0			0	0			1				0	
6.6.1	win	2023-07-10	09:28:58	09:35:37	394328	6401227cb3aa0d131ec5dd53	4	1	main_z	7	advance_on_keypress_ZEE	138	stimuli_distractor_trianglediamonds.svg	stimuli_target_rectangletriangles.svg	9	yes	57	0	362	0	0			0	0			1				0	
6.6.1	win	2023-07-10	09:28:58	09:35:40	396719	6401227cb3aa0d131ec5dd53	4	1	main_z	7	main_z	139	stimuli_target_trianglesquares.svg	stimuli_distractor_diamondtriangles.svg	22	yes	44	1	1373	0	0			0	0			1				0	
6.6.1	win	2023-07-10	09:28:58	09:35:40	396719	6401227cb3aa0d131ec5dd53	4	1	main_z	7	advance_on_keypress_ZEE	140	stimuli_target_trianglesquares.svg	stimuli_distractor_diamondtriangles.svg	22	yes	57	0	306	0	0			0	0			1				0	
6.6.1	win	2023-07-10	09:28:58	09:35:42	398994	6401227cb3aa0d131ec5dd53	4	1	main_z	7	main_z	141	stimuli_distractor_trianglediamonds.svg	stimuli_target_squarediamonds.svg	12	yes	44	1	1331	0	0			0	0			1				0	
6.6.1	win	2023-07-10	09:28:58	09:35:42	398994	6401227cb3aa0d131ec5dd53	4	1	main_z	7	advance_on_keypress_ZEE	142	stimuli_distractor_trianglediamonds.svg	stimuli_target_squarediamonds.svg	12	yes	57	0	302	0	0			0	0			1				0	
6.6.1	win	2023-07-10	09:28:58	09:35:45	401946	6401227cb3aa0d131ec5dd53	4	1	main_z	7	main_z	143	stimuli_distractor_diamondtriangles.svg	stimuli_distractor_trianglediamonds.svg	37	no	0	1	2000	0	0			0	0			1				0	
6.6.1	win	2023-07-10	09:28:58	09:35:45	401946	6401227cb3aa0d131ec5dd53	4	1	main_z	7	advance_on_keypress_ZEE	144	stimuli_distractor_diamondtriangles.svg	stimuli_distractor_trianglediamonds.svg	37	no	57	0	143	0	0			0	0			1				0	
6.6.1	win	2023-07-10	09:28:58	09:35:47	404145	6401227cb3aa0d131ec5dd53	4	1	main_z	7	main_z	145	stimuli_target_diamondsquares.svg	stimuli_distractor_trianglediamonds.svg	20	yes	44	1	1408	0	0			0	0			1				0	
6.6.1	win	2023-07-10	09:28:58	09:35:47	404145	6401227cb3aa0d131ec5dd53	4	1	main_z	7	advance_on_keypress_ZEE	146	stimuli_target_diamondsquares.svg	stimuli_distractor_trianglediamonds.svg	20	yes	57	0	262	0	0			0	0			1				0	
6.6.1	win	2023-07-10	09:28:58	09:35:49	406258	6401227cb3aa0d131ec5dd53	4	1	main_z	7	main_z	147	stimuli_distractor_diamondtriangles.svg	stimuli_target_diamondsquares.svg	32	yes	44	1	1213	0	0			0	0			1				0	
6.6.1	win	2023-07-10	09:28:58	09:35:49	406258	6401227cb3aa0d131ec5dd53	4	1	main_z	7	advance_on_keypress_ZEE	148	stimuli_distractor_diamondtriangles.svg	stimuli_target_diamondsquares.svg	32	yes	57	0	344	0	0			0	0			1				0	
6.6.1	win	2023-07-10	09:28:58	09:35:52	409254	6401227cb3aa0d131ec5dd53	4	1	main_z	7	main_z	149	stimuli_distractor_trianglediamonds.svg	stimuli_distractor_trianglediamonds.svg	33	no	0	1	2000	0	0			0	0			1				0	
6.6.1	win	2023-07-10	09:28:58	09:35:52	409254	6401227cb3aa0d131ec5dd53	4	1	main_z	7	advance_on_keypress_ZEE	150	stimuli_distractor_trianglediamonds.svg	stimuli_distractor_trianglediamonds.svg	33	no	57	0	569	0	0			0	0			1				0	
6.6.1	win	2023-07-10	09:28:58	09:35:55	411718	6401227cb3aa0d131ec5dd53	4	1	main_z	7	main_z	151	stimuli_distractor_diamondtriangles.svg	stimuli_target_diamondrectangles.svg	31	yes	44	1	1231	0	0			0	0			1				0	
6.6.1	win	2023-07-10	09:28:58	09:35:55	411718	6401227cb3aa0d131ec5dd53	4	1	main_z	7	advance_on_keypress_ZEE	152	stimuli_distractor_diamondtriangles.svg	stimuli_target_diamondrectangles.svg	31	yes	57	0	269	0	0			0	0			1				0	
6.6.1	win	2023-07-10	09:28:58	09:35:57	413664	6401227cb3aa0d131ec5dd53	4	1	main_z	7	main_z	153	stimuli_distractor_diamondtriangles.svg	stimuli_target_trianglesquares.svg	30	yes	44	1	1011	0	0			0	0			1				0	
6.6.1	win	2023-07-10	09:28:58	09:35:57	413664	6401227cb3aa0d131ec5dd53	4	1	main_z	7	advance_on_keypress_ZEE	154	stimuli_distractor_diamondtriangles.svg	stimuli_target_trianglesquares.svg	30	yes	57	0	283	0	0			0	0			1				0	
6.6.1	win	2023-07-10	09:28:58	09:36:00	416595	6401227cb3aa0d131ec5dd53	4	1	main_z	7	main_z	155	stimuli_distractor_diamondtriangles.svg	stimuli_distractor_diamondtriangles.svg	39	no	0	1	2000	0	0			0	0			1				0	
6.6.1	win	2023-07-10	09:28:58	09:36:00	416595	6401227cb3aa0d131ec5dd53	4	1	main_z	7	advance_on_keypress_ZEE	156	stimuli_distractor_diamondtriangles.svg	stimuli_distractor_diamondtriangles.svg	39	no	57	0	295	0	0			0	0			1				0	
6.6.1	win	2023-07-10	09:28:58	09:36:03	419537	6401227cb3aa0d131ec5dd53	4	1	main_z	7	main_z	157	stimuli_distractor_trianglediamonds.svg	stimuli_distractor_diamondtriangles.svg	36	no	0	1	2000	0	0			0	0			1				0	
6.6.1	win	2023-07-10	09:28:58	09:36:03	419537	6401227cb3aa0d131ec5dd53	4	1	main_z	7	advance_on_keypress_ZEE	158	stimuli_distractor_trianglediamonds.svg	stimuli_distractor_diamondtriangles.svg	36	no	57	0	1507	0	0			0	0			1				0	
6.6.1	win	2023-07-10	09:28:58	09:36:06	422785	6401227cb3aa0d131ec5dd53	4	1	main_z	7	main_z	159	stimuli_distractor_diamondtriangles.svg	stimuli_target_trianglerectangles.svg	29	yes	44	1	1082	0	0			0	0			1				0	
6.6.1	win	2023-07-10	09:28:58	09:36:06	422785	6401227cb3aa0d131ec5dd53	4	1	main_z	7	advance_on_keypress_ZEE	160	stimuli_distractor_diamondtriangles.svg	stimuli_target_trianglerectangles.svg	29	yes	57	0	308	0	0			0	0			1				0	
6.6.1	win	2023-07-10	09:28:58	09:36:33	450332	6401227cb3aa0d131ec5dd53	4	1	practice_slash	9	practice_slash	1	stimuli_distractor_trianglediamonds.svg	stimuli_distractor_trianglediamonds.svg	15	no	53	0	961	0	0			0	0			1				0	
6.6.1	win	2023-07-10	09:28:58	09:36:33	450332	6401227cb3aa0d131ec5dd53	4	1	practice_slash	9	advance_on_keypress_SLASH	2	stimuli_distractor_trianglediamonds.svg	stimuli_distractor_trianglediamonds.svg	15	no	57	0	666	0	0			0	0			1				0	
6.6.1	win	2023-07-10	09:28:58	09:36:37	453713	6401227cb3aa0d131ec5dd53	4	1	practice_slash	9	practice_slash	3	stimuli_target_diamondsquares.svg	stimuli_distractor_trianglediamonds.svg	6	yes	53	1	1068	0	0			0	0			1				0	
6.6.1	win	2023-07-10	09:28:58	09:36:37	453713	6401227cb3aa0d131ec5dd53	4	1	practice_slash	9	advance_on_keypress_SLASH	4	stimuli_target_diamondsquares.svg	stimuli_distractor_trianglediamonds.svg	6	yes	57	0	1047	0	0			0	0			1				0	
6.6.1	win	2023-07-10	09:28:58	09:36:40	457385	6401227cb3aa0d131ec5dd53	4	1	practice_slash	9	practice_slash	5	stimuli_distractor_diamondtriangles.svg	stimuli_target_rectangletriangles.svg	7	yes	53	1	974	0	0			0	0			1				0	
6.6.1	win	2023-07-10	09:28:58	09:36:40	457385	6401227cb3aa0d131ec5dd53	4	1	practice_slash	9	advance_on_keypress_SLASH	6	stimuli_distractor_diamondtriangles.svg	stimuli_target_rectangletriangles.svg	7	yes	57	0	925	0	0			0	0			1				0	
6.6.1	win	2023-07-10	09:28:58	09:36:43	460467	6401227cb3aa0d131ec5dd53	4	1	practice_slash	9	practice_slash	7	stimuli_target_squarediamonds.svg	stimuli_distractor_trianglediamonds.svg	5	yes	53	1	511	0	0			0	0			1				0	
6.6.1	win	2023-07-10	09:28:58	09:36:43	460467	6401227cb3aa0d131ec5dd53	4	1	practice_slash	9	advance_on_keypress_SLASH	8	stimuli_target_squarediamonds.svg	stimuli_distractor_trianglediamonds.svg	5	yes	57	0	936	0	0			0	0			1				0	
6.6.1	win	2023-07-10	09:28:58	09:36:46	463314	6401227cb3aa0d131ec5dd53	4	1	practice_slash	9	practice_slash	9	stimuli_distractor_trianglediamonds.svg	stimuli_target_rectanglediamonds.svg	10	yes	53	1	252	0	0			0	0			1				0	
6.6.1	win	2023-07-10	09:28:58	09:36:46	463314	6401227cb3aa0d131ec5dd53	4	1	practice_slash	9	advance_on_keypress_SLASH	10	stimuli_distractor_trianglediamonds.svg	stimuli_target_rectanglediamonds.svg	10	yes	57	0	43	0	0			0	0			1				0	
6.6.1	win	2023-07-10	09:28:58	09:36:48	465458	6401227cb3aa0d131ec5dd53	4	1	practice_slash	9	practice_slash	11	stimuli_target_rectanglediamonds.svg	stimuli_distractor_trianglediamonds.svg	4	yes	53	1	439	0	0			0	0			1				0	
6.6.1	win	2023-07-10	09:28:58	09:36:48	465458	6401227cb3aa0d131ec5dd53	4	1	practice_slash	9	advance_on_keypress_SLASH	12	stimuli_target_rectanglediamonds.svg	stimuli_distractor_trianglediamonds.svg	4	yes	57	0	638	0	0			0	0			1				0	
6.6.1	win	2023-07-10	09:28:58	09:36:52	468703	6401227cb3aa0d131ec5dd53	4	1	practice_slash	9	practice_slash	13	stimuli_target_diamondsquares.svg	stimuli_distractor_diamondtriangles.svg	3	yes	53	1	942	0	0			0	0			1				0	
6.6.1	win	2023-07-10	09:28:58	09:36:52	468703	6401227cb3aa0d131ec5dd53	4	1	practice_slash	9	advance_on_keypress_SLASH	14	stimuli_target_diamondsquares.svg	stimuli_distractor_diamondtriangles.svg	3	yes	57	0	509	0	0			0	0			1				0	
6.6.1	win	2023-07-10	09:28:58	09:36:55	471874	6401227cb3aa0d131ec5dd53	4	1	practice_slash	9	practice_slash	15	stimuli_distractor_trianglediamonds.svg	stimuli_target_squarediamonds.svg	11	yes	53	1	1022	0	0			0	0			1				0	
6.6.1	win	2023-07-10	09:28:58	09:36:55	471874	6401227cb3aa0d131ec5dd53	4	1	practice_slash	9	advance_on_keypress_SLASH	16	stimuli_distractor_trianglediamonds.svg	stimuli_target_squarediamonds.svg	11	yes	57	0	791	0	0			0	0			1				0	
6.6.1	win	2023-07-10	09:28:58	09:36:58	474784	6401227cb3aa0d131ec5dd53	4	1	practice_slash	9	practice_slash	17	stimuli_target_rectanglediamonds.svg	stimuli_distractor_diamondtriangles.svg	1	yes	53	1	457	0	0			0	0			1				0	
6.6.1	win	2023-07-10	09:28:58	09:36:58	474784	6401227cb3aa0d131ec5dd53	4	1	practice_slash	9	advance_on_keypress_SLASH	18	stimuli_target_rectanglediamonds.svg	stimuli_distractor_diamondtriangles.svg	1	yes	57	0	975	0	0			0	0			1				0	
6.6.1	win	2023-07-10	09:28:58	09:37:02	479411	6401227cb3aa0d131ec5dd53	4	1	practice_slash	9	practice_slash	19	stimuli_distractor_diamondtriangles.svg	stimuli_distractor_diamondtriangles.svg	13	no	0	1	2000	0	0			0	0			1				0	
6.6.1	win	2023-07-10	09:28:58	09:37:02	479411	6401227cb3aa0d131ec5dd53	4	1	practice_slash	9	advance_on_keypress_SLASH	20	stimuli_distractor_diamondtriangles.svg	stimuli_distractor_diamondtriangles.svg	13	no	57	0	729	0	0			0	0			1				0	
6.6.1	win	2023-07-10	09:28:58	09:37:07	483794	6401227cb3aa0d131ec5dd53	4	1	practice_slash	9	practice_slash	21	stimuli_distractor_trianglediamonds.svg	stimuli_distractor_diamondtriangles.svg	16	no	0	1	2000	0	0			0	0			1				0	
6.6.1	win	2023-07-10	09:28:58	09:37:07	483794	6401227cb3aa0d131ec5dd53	4	1	practice_slash	9	advance_on_keypress_SLASH	22	stimuli_distractor_trianglediamonds.svg	stimuli_distractor_diamondtriangles.svg	16	no	57	0	0	0	0			0	0			1				0	
6.6.1	win	2023-07-10	09:28:58	09:37:09	486490	6401227cb3aa0d131ec5dd53	4	1	practice_slash	9	practice_slash	23	stimuli_distractor_diamondtriangles.svg	stimuli_distractor_trianglediamonds.svg	14	no	53	0	1022	0	0			0	0			1				0	
6.6.1	win	2023-07-10	09:28:58	09:37:09	486490	6401227cb3aa0d131ec5dd53	4	1	practice_slash	9	advance_on_keypress_SLASH	24	stimuli_distractor_diamondtriangles.svg	stimuli_distractor_trianglediamonds.svg	14	no	57	0	130	0	0			0	0			1				0	
6.6.1	win	2023-07-10	09:28:58	09:37:13	489593	6401227cb3aa0d131ec5dd53	4	1	practice_slash	9	practice_slash	25	stimuli_target_squarediamonds.svg	stimuli_distractor_diamondtriangles.svg	2	yes	53	1	1325	0	0			0	0			1				0	
6.6.1	win	2023-07-10	09:28:58	09:37:13	489593	6401227cb3aa0d131ec5dd53	4	1	practice_slash	9	advance_on_keypress_SLASH	26	stimuli_target_squarediamonds.svg	stimuli_distractor_diamondtriangles.svg	2	yes	57	0	1884	0	0			0	0			1				0	
6.6.1	win	2023-07-10	09:28:58	09:37:17	494219	6401227cb3aa0d131ec5dd53	4	1	practice_slash	9	practice_slash	27	stimuli_distractor_diamondtriangles.svg	stimuli_target_trianglerectangles.svg	9	yes	53	1	1109	0	0			0	0			1				0	
6.6.1	win	2023-07-10	09:28:58	09:37:17	494219	6401227cb3aa0d131ec5dd53	4	1	practice_slash	9	advance_on_keypress_SLASH	28	stimuli_distractor_diamondtriangles.svg	stimuli_target_trianglerectangles.svg	9	yes	57	0	724	0	0			0	0			1				0	
6.6.1	win	2023-07-10	09:28:58	09:37:20	497236	6401227cb3aa0d131ec5dd53	4	1	practice_slash	9	practice_slash	29	stimuli_distractor_trianglediamonds.svg	stimuli_target_diamondrectangles.svg	12	yes	53	1	627	0	0			0	0			1				0	
6.6.1	win	2023-07-10	09:28:58	09:37:20	497236	6401227cb3aa0d131ec5dd53	4	1	practice_slash	9	advance_on_keypress_SLASH	30	stimuli_distractor_trianglediamonds.svg	stimuli_target_diamondrectangles.svg	12	yes	57	0	598	0	0			0	0			1				0	
6.6.1	win	2023-07-10	09:28:58	09:37:23	500007	6401227cb3aa0d131ec5dd53	4	1	practice_slash	9	practice_slash	31	stimuli_distractor_diamondtriangles.svg	stimuli_target_diamondrectangles.svg	8	yes	53	1	509	0	0			0	0			1				0	
6.6.1	win	2023-07-10	09:28:58	09:37:23	500007	6401227cb3aa0d131ec5dd53	4	1	practice_slash	9	advance_on_keypress_SLASH	32	stimuli_distractor_diamondtriangles.svg	stimuli_target_diamondrectangles.svg	8	yes	57	0	501	0	0			0	0			1				0	
6.6.1	win	2023-07-10	09:28:58	09:37:28	505354	6401227cb3aa0d131ec5dd53	4	1	main_slash	11	main_slash	1	stimuli_distractor_diamondtriangles.svg	stimuli_target_rectangletriangles.svg	13	yes	53	1	797	0	0			0	0			1				0	
6.6.1	win	2023-07-10	09:28:58	09:37:28	505354	6401227cb3aa0d131ec5dd53	4	1	main_slash	11	advance_on_keypress_SLASH	2	stimuli_distractor_diamondtriangles.svg	stimuli_target_rectangletriangles.svg	13	yes	57	0	478	0	0			0	0			1				0	
6.6.1	win	2023-07-10	09:28:58	09:37:31	508499	6401227cb3aa0d131ec5dd53	4	1	main_slash	11	main_slash	3	stimuli_distractor_trianglediamonds.svg	stimuli_distractor_trianglediamonds.svg	33	no	0	1	2000	0	0			0	0			1				0	
6.6.1	win	2023-07-10	09:28:58	09:37:31	508499	6401227cb3aa0d131ec5dd53	4	1	main_slash	11	advance_on_keypress_SLASH	4	stimuli_distractor_trianglediamonds.svg	stimuli_distractor_trianglediamonds.svg	33	no	57	0	577	0	0			0	0			1				0	
6.6.1	win	2023-07-10	09:28:58	09:37:33	510328	6401227cb3aa0d131ec5dd53	4	1	main_slash	11	main_slash	5	stimuli_target_trianglerectangles.svg	stimuli_distractor_trianglediamonds.svg	17	yes	53	1	605	0	0			0	0			1				0	
6.6.1	win	2023-07-10	09:28:58	09:37:33	510328	6401227cb3aa0d131ec5dd53	4	1	main_slash	11	advance_on_keypress_SLASH	6	stimuli_target_trianglerectangles.svg	stimuli_distractor_trianglediamonds.svg	17	yes	57	0	553	0	0			0	0			1				0	
6.6.1	win	2023-07-10	09:28:58	09:37:35	512142	6401227cb3aa0d131ec5dd53	4	1	main_slash	11	main_slash	7	stimuli_distractor_trianglediamonds.svg	stimuli_target_diamondrectangles.svg	27	yes	53	1	610	0	0			0	0			1				0	
6.6.1	win	2023-07-10	09:28:58	09:37:35	512142	6401227cb3aa0d131ec5dd53	4	1	main_slash	11	advance_on_keypress_SLASH	8	stimuli_distractor_trianglediamonds.svg	stimuli_target_diamondrectangles.svg	27	yes	57	0	339	0	0			0	0			1				0	
6.6.1	win	2023-07-10	09:28:58	09:37:36	513467	6401227cb3aa0d131ec5dd53	4	1	main_slash	11	main_slash	9	stimuli_distractor_diamondtriangles.svg	stimuli_target_diamondsquares.svg	32	yes	53	1	335	0	0			0	0			1				0	
6.6.1	win	2023-07-10	09:28:58	09:37:36	513467	6401227cb3aa0d131ec5dd53	4	1	main_slash	11	advance_on_keypress_SLASH	10	stimuli_distractor_diamondtriangles.svg	stimuli_target_diamondsquares.svg	32	yes	57	0	329	0	0			0	0			1				0	
6.6.1	win	2023-07-10	09:28:58	09:37:38	514967	6401227cb3aa0d131ec5dd53	4	1	main_slash	11	main_slash	11	stimuli_target_rectangletriangles.svg	stimuli_distractor_diamondtriangles.svg	5	yes	53	1	518	0	0			0	0			1				0	
6.6.1	win	2023-07-10	09:28:58	09:37:38	514967	6401227cb3aa0d131ec5dd53	4	1	main_slash	11	advance_on_keypress_SLASH	12	stimuli_target_rectangletriangles.svg	stimuli_distractor_diamondtriangles.svg	5	yes	57	0	2383	0	0			0	0			1				0	
6.6.1	win	2023-07-10	09:28:58	09:37:42	519014	6401227cb3aa0d131ec5dd53	4	1	main_slash	11	main_slash	13	stimuli_target_trianglesquares.svg	stimuli_distractor_trianglediamonds.svg	18	yes	53	1	1032	0	0			0	0			1				0	
6.6.1	win	2023-07-10	09:28:58	09:37:42	519014	6401227cb3aa0d131ec5dd53	4	1	main_slash	11	advance_on_keypress_SLASH	14	stimuli_target_trianglesquares.svg	stimuli_distractor_trianglediamonds.svg	18	yes	57	0	468	0	0			0	0			1				0	
6.6.1	win	2023-07-10	09:28:58	09:37:44	521413	6401227cb3aa0d131ec5dd53	4	1	main_slash	11	main_slash	15	stimuli_distractor_diamondtriangles.svg	stimuli_target_rectanglediamonds.svg	14	yes	53	1	1266	0	0			0	0			1				0	
6.6.1	win	2023-07-10	09:28:58	09:37:44	521413	6401227cb3aa0d131ec5dd53	4	1	main_slash	11	advance_on_keypress_SLASH	16	stimuli_distractor_diamondtriangles.svg	stimuli_target_rectanglediamonds.svg	14	yes	57	0	402	0	0			0	0			1				0	
6.6.1	win	2023-07-10	09:28:58	09:37:46	523483	6401227cb3aa0d131ec5dd53	4	1	main_slash	11	main_slash	17	stimuli_target_squaretriangles.svg	stimuli_distractor_diamondtriangles.svg	7	yes	53	1	1010	0	0			0	0			1				0	
6.6.1	win	2023-07-10	09:28:58	09:37:46	523483	6401227cb3aa0d131ec5dd53	4	1	main_slash	11	advance_on_keypress_SLASH	18	stimuli_target_squaretriangles.svg	stimuli_distractor_diamondtriangles.svg	7	yes	57	0	441	0	0			0	0			1				0	
6.6.1	win	2023-07-10	09:28:58	09:37:49	525801	6401227cb3aa0d131ec5dd53	4	1	main_slash	11	main_slash	19	stimuli_distractor_trianglediamonds.svg	stimuli_target_trianglesquares.svg	26	yes	53	1	1212	0	0			0	0			1				0	
6.6.1	win	2023-07-10	09:28:58	09:37:49	525801	6401227cb3aa0d131ec5dd53	4	1	main_slash	11	advance_on_keypress_SLASH	20	stimuli_distractor_trianglediamonds.svg	stimuli_target_trianglesquares.svg	26	yes	57	0	460	0	0			0	0			1				0	
6.6.1	win	2023-07-10	09:28:58	09:37:52	528915	6401227cb3aa0d131ec5dd53	4	1	main_slash	11	main_slash	21	stimuli_distractor_trianglediamonds.svg	stimuli_distractor_trianglediamonds.svg	34	no	0	1	2000	0	0			0	0			1				0	
6.6.1	win	2023-07-10	09:28:58	09:37:52	528915	6401227cb3aa0d131ec5dd53	4	1	main_slash	11	advance_on_keypress_SLASH	22	stimuli_distractor_trianglediamonds.svg	stimuli_distractor_trianglediamonds.svg	34	no	57	0	93	0	0			0	0			1				0	
6.6.1	win	2023-07-10	09:28:58	09:37:53	530315	6401227cb3aa0d131ec5dd53	4	1	main_slash	11	main_slash	23	stimuli_target_squarediamonds.svg	stimuli_distractor_trianglediamonds.svg	4	yes	53	1	676	0	0			0	0			1				0	
6.6.1	win	2023-07-10	09:28:58	09:37:53	530315	6401227cb3aa0d131ec5dd53	4	1	main_slash	11	advance_on_keypress_SLASH	24	stimuli_target_squarediamonds.svg	stimuli_distractor_trianglediamonds.svg	4	yes	57	0	577	0	0			0	0			1				0	
6.6.1	win	2023-07-10	09:28:58	09:37:57	533531	6401227cb3aa0d131ec5dd53	4	1	main_slash	11	main_slash	25	stimuli_target_diamondrectangles.svg	stimuli_distractor_trianglediamonds.svg	19	yes	0	0	2000	0	0			0	0			1				0	
6.6.1	win	2023-07-10	09:28:58	09:37:57	533531	6401227cb3aa0d131ec5dd53	4	1	main_slash	11	advance_on_keypress_SLASH	26	stimuli_target_diamondrectangles.svg	stimuli_distractor_trianglediamonds.svg	19	yes	57	0	3624	0	0			0	0			1				0	
6.6.1	win	2023-07-10	09:28:58	09:38:02	538967	6401227cb3aa0d131ec5dd53	4	1	main_slash	11	main_slash	27	stimuli_target_diamondrectangles.svg	stimuli_distractor_diamondtriangles.svg	23	yes	53	1	1161	0	0			0	0			1				0	
6.6.1	win	2023-07-10	09:28:58	09:38:02	538967	6401227cb3aa0d131ec5dd53	4	1	main_slash	11	advance_on_keypress_SLASH	28	stimuli_target_diamondrectangles.svg	stimuli_distractor_diamondtriangles.svg	23	yes	57	0	342	0	0			0	0			1				0	
6.6.1	win	2023-07-10	09:28:58	09:38:03	540327	6401227cb3aa0d131ec5dd53	4	1	main_slash	11	main_slash	29	stimuli_target_rectanglediamonds.svg	stimuli_distractor_diamondtriangles.svg	6	yes	53	1	379	0	0			0	0			1				0	
6.6.1	win	2023-07-10	09:28:58	09:38:03	540327	6401227cb3aa0d131ec5dd53	4	1	main_slash	11	advance_on_keypress_SLASH	30	stimuli_target_rectanglediamonds.svg	stimuli_distractor_diamondtriangles.svg	6	yes	57	0	371	0	0			0	0			1				0	
6.6.1	win	2023-07-10	09:28:58	09:38:05	541754	6401227cb3aa0d131ec5dd53	4	1	main_slash	11	main_slash	31	stimuli_target_squaretriangles.svg	stimuli_distractor_trianglediamonds.svg	3	yes	53	1	407	0	0			0	0			1				0	
6.6.1	win	2023-07-10	09:28:58	09:38:05	541754	6401227cb3aa0d131ec5dd53	4	1	main_slash	11	advance_on_keypress_SLASH	32	stimuli_target_squaretriangles.svg	stimuli_distractor_trianglediamonds.svg	3	yes	57	0	327	0	0			0	0			1				0	
6.6.1	win	2023-07-10	09:28:58	09:38:06	543069	6401227cb3aa0d131ec5dd53	4	1	main_slash	11	main_slash	33	stimuli_target_squarediamonds.svg	stimuli_distractor_diamondtriangles.svg	8	yes	53	1	347	0	0			0	0			1				0	
6.6.1	win	2023-07-10	09:28:58	09:38:06	543069	6401227cb3aa0d131ec5dd53	4	1	main_slash	11	advance_on_keypress_SLASH	34	stimuli_target_squarediamonds.svg	stimuli_distractor_diamondtriangles.svg	8	yes	57	0	199	0	0			0	0			1				0	
6.6.1	win	2023-07-10	09:28:58	09:38:07	544315	6401227cb3aa0d131ec5dd53	4	1	main_slash	11	main_slash	35	stimuli_distractor_trianglediamonds.svg	stimuli_target_squaretriangles.svg	11	yes	53	1	375	0	0			0	0			1				0	
6.6.1	win	2023-07-10	09:28:58	09:38:07	544315	6401227cb3aa0d131ec5dd53	4	1	main_slash	11	advance_on_keypress_SLASH	36	stimuli_distractor_trianglediamonds.svg	stimuli_target_squaretriangles.svg	11	yes	57	0	219	0	0			0	0			1				0	
6.6.1	win	2023-07-10	09:28:58	09:38:09	545684	6401227cb3aa0d131ec5dd53	4	1	main_slash	11	main_slash	37	stimuli_target_trianglerectangles.svg	stimuli_distractor_diamondtriangles.svg	21	yes	53	1	496	0	0			0	0			1				0	
6.6.1	win	2023-07-10	09:28:58	09:38:09	545684	6401227cb3aa0d131ec5dd53	4	1	main_slash	11	advance_on_keypress_SLASH	38	stimuli_target_trianglerectangles.svg	stimuli_distractor_diamondtriangles.svg	21	yes	57	0	910	0	0			0	0			1				0	
6.6.1	win	2023-07-10	09:28:58	09:38:11	547834	6401227cb3aa0d131ec5dd53	4	1	main_slash	11	main_slash	39	stimuli_distractor_diamondtriangles.svg	stimuli_target_trianglerectangles.svg	29	yes	53	1	604	0	0			0	0			1				0	
6.6.1	win	2023-07-10	09:28:58	09:38:11	547834	6401227cb3aa0d131ec5dd53	4	1	main_slash	11	advance_on_keypress_SLASH	40	stimuli_distractor_diamondtriangles.svg	stimuli_target_trianglerectangles.svg	29	yes	57	0	475	0	0			0	0			1				0	
6.6.1	win	2023-07-10	09:28:58	09:38:14	550964	6401227cb3aa0d131ec5dd53	4	1	main_slash	11	main_slash	41	stimuli_distractor_trianglediamonds.svg	stimuli_target_rectanglediamonds.svg	10	yes	0	0	2000	0	0			0	0			1				0	
6.6.1	win	2023-07-10	09:28:58	09:38:14	550964	6401227cb3aa0d131ec5dd53	4	1	main_slash	11	advance_on_keypress_SLASH	42	stimuli_distractor_trianglediamonds.svg	stimuli_target_rectanglediamonds.svg	10	yes	57	0	496	0	0			0	0			1				0	
6.6.1	win	2023-07-10	09:28:58	09:38:16	552746	6401227cb3aa0d131ec5dd53	4	1	main_slash	11	main_slash	43	stimuli_distractor_trianglediamonds.svg	stimuli_target_squarediamonds.svg	12	yes	53	1	624	0	0			0	0			1				0	
6.6.1	win	2023-07-10	09:28:58	09:38:16	552746	6401227cb3aa0d131ec5dd53	4	1	main_slash	11	advance_on_keypress_SLASH	44	stimuli_distractor_trianglediamonds.svg	stimuli_target_squarediamonds.svg	12	yes	57	0	417	0	0			0	0			1				0	
6.6.1	win	2023-07-10	09:28:58	09:38:19	555813	6401227cb3aa0d131ec5dd53	4	1	main_slash	11	main_slash	45	stimuli_distractor_diamondtriangles.svg	stimuli_distractor_diamondtriangles.svg	39	no	0	1	2000	0	0			0	0			1				0	
6.6.1	win	2023-07-10	09:28:58	09:38:19	555813	6401227cb3aa0d131ec5dd53	4	1	main_slash	11	advance_on_keypress_SLASH	46	stimuli_distractor_diamondtriangles.svg	stimuli_distractor_diamondtriangles.svg	39	no	57	0	739	0	0			0	0			1				0	
6.6.1	win	2023-07-10	09:28:58	09:38:21	558053	6401227cb3aa0d131ec5dd53	4	1	main_slash	11	main_slash	47	stimuli_distractor_trianglediamonds.svg	stimuli_target_trianglerectangles.svg	25	yes	53	1	832	0	0			0	0			1				0	
6.6.1	win	2023-07-10	09:28:58	09:38:21	558053	6401227cb3aa0d131ec5dd53	4	1	main_slash	11	advance_on_keypress_SLASH	48	stimuli_distractor_trianglediamonds.svg	stimuli_target_trianglerectangles.svg	25	yes	57	0	398	0	0			0	0			1				0	
6.6.1	win	2023-07-10	09:28:58	09:38:23	559972	6401227cb3aa0d131ec5dd53	4	1	main_slash	11	main_slash	49	stimuli_distractor_diamondtriangles.svg	stimuli_target_diamondrectangles.svg	31	yes	53	1	868	0	0			0	0			1				0	
6.6.1	win	2023-07-10	09:28:58	09:38:23	559972	6401227cb3aa0d131ec5dd53	4	1	main_slash	11	advance_on_keypress_SLASH	50	stimuli_distractor_diamondtriangles.svg	stimuli_target_diamondrectangles.svg	31	yes	57	0	386	0	0			0	0			1				0	
6.6.1	win	2023-07-10	09:28:58	09:38:25	562216	6401227cb3aa0d131ec5dd53	4	1	main_slash	11	main_slash	51	stimuli_target_trianglesquares.svg	stimuli_distractor_diamondtriangles.svg	22	yes	53	1	1221	0	0			0	0			1				0	
6.6.1	win	2023-07-10	09:28:58	09:38:25	562216	6401227cb3aa0d131ec5dd53	4	1	main_slash	11	advance_on_keypress_SLASH	52	stimuli_target_trianglesquares.svg	stimuli_distractor_diamondtriangles.svg	22	yes	57	0	594	0	0			0	0			1				0	
6.6.1	win	2023-07-10	09:28:58	09:38:27	564253	6401227cb3aa0d131ec5dd53	4	1	main_slash	11	main_slash	53	stimuli_target_diamondsquares.svg	stimuli_distractor_trianglediamonds.svg	20	yes	53	1	782	0	0			0	0			1				0	
6.6.1	win	2023-07-10	09:28:58	09:38:27	564253	6401227cb3aa0d131ec5dd53	4	1	main_slash	11	advance_on_keypress_SLASH	54	stimuli_target_diamondsquares.svg	stimuli_distractor_trianglediamonds.svg	20	yes	57	0	369	0	0			0	0			1				0	
6.6.1	win	2023-07-10	09:28:58	09:38:30	567287	6401227cb3aa0d131ec5dd53	4	1	main_slash	11	main_slash	55	stimuli_distractor_trianglediamonds.svg	stimuli_distractor_diamondtriangles.svg	35	no	0	1	2000	0	0			0	0			1				0	
6.6.1	win	2023-07-10	09:28:58	09:38:30	567287	6401227cb3aa0d131ec5dd53	4	1	main_slash	11	advance_on_keypress_SLASH	56	stimuli_distractor_trianglediamonds.svg	stimuli_distractor_diamondtriangles.svg	35	no	57	0	621	0	0			0	0			1				0	
6.6.1	win	2023-07-10	09:28:58	09:38:32	569060	6401227cb3aa0d131ec5dd53	4	1	main_slash	11	main_slash	57	stimuli_target_diamondsquares.svg	stimuli_distractor_diamondtriangles.svg	24	yes	53	1	497	0	0			0	0			1				0	
6.6.1	win	2023-07-10	09:28:58	09:38:32	569060	6401227cb3aa0d131ec5dd53	4	1	main_slash	11	advance_on_keypress_SLASH	58	stimuli_target_diamondsquares.svg	stimuli_distractor_diamondtriangles.svg	24	yes	57	0	405	0	0			0	0			1				0	
6.6.1	win	2023-07-10	09:28:58	09:38:34	570668	6401227cb3aa0d131ec5dd53	4	1	main_slash	11	main_slash	59	stimuli_distractor_diamondtriangles.svg	stimuli_target_trianglesquares.svg	30	yes	53	1	555	0	0			0	0			1				0	
6.6.1	win	2023-07-10	09:28:58	09:38:34	570668	6401227cb3aa0d131ec5dd53	4	1	main_slash	11	advance_on_keypress_SLASH	60	stimuli_distractor_diamondtriangles.svg	stimuli_target_trianglesquares.svg	30	yes	57	0	404	0	0			0	0			1				0	
6.6.1	win	2023-07-10	09:28:58	09:38:35	572176	6401227cb3aa0d131ec5dd53	4	1	main_slash	11	main_slash	61	stimuli_distractor_trianglediamonds.svg	stimuli_target_diamondsquares.svg	28	yes	53	1	455	0	0			0	0			1				0	
6.6.1	win	2023-07-10	09:28:58	09:38:35	572176	6401227cb3aa0d131ec5dd53	4	1	main_slash	11	advance_on_keypress_SLASH	62	stimuli_distractor_trianglediamonds.svg	stimuli_target_diamondsquares.svg	28	yes	57	0	407	0	0			0	0			1				0	
6.6.1	win	2023-07-10	09:28:58	09:38:38	575229	6401227cb3aa0d131ec5dd53	4	1	main_slash	11	main_slash	63	stimuli_target_rectanglediamonds.svg	stimuli_distractor_trianglediamonds.svg	2	yes	0	0	2000	0	0			0	0			1				0	
6.6.1	win	2023-07-10	09:28:58	09:38:38	575229	6401227cb3aa0d131ec5dd53	4	1	main_slash	11	advance_on_keypress_SLASH	64	stimuli_target_rectanglediamonds.svg	stimuli_distractor_trianglediamonds.svg	2	yes	57	0	831	0	0			0	0			1				0	
6.6.1	win	2023-07-10	09:28:58	09:38:42	578712	6401227cb3aa0d131ec5dd53	4	1	main_slash	11	main_slash	65	stimuli_target_rectangletriangles.svg	stimuli_distractor_trianglediamonds.svg	1	yes	0	0	2000	0	0			0	0			1				0	
6.6.1	win	2023-07-10	09:28:58	09:38:42	578712	6401227cb3aa0d131ec5dd53	4	1	main_slash	11	advance_on_keypress_SLASH	66	stimuli_target_rectangletriangles.svg	stimuli_distractor_trianglediamonds.svg	1	yes	57	0	285	0	0			0	0			1				0	
6.6.1	win	2023-07-10	09:28:58	09:38:45	581654	6401227cb3aa0d131ec5dd53	4	1	main_slash	11	main_slash	67	stimuli_distractor_diamondtriangles.svg	stimuli_target_squarediamonds.svg	16	yes	0	0	2000	0	0			0	0			1				0	
6.6.1	win	2023-07-10	09:28:58	09:38:45	581654	6401227cb3aa0d131ec5dd53	4	1	main_slash	11	advance_on_keypress_SLASH	68	stimuli_distractor_diamondtriangles.svg	stimuli_target_squarediamonds.svg	16	yes	57	0	1012	0	0			0	0			1				0	
6.6.1	win	2023-07-10	09:28:58	09:38:48	585320	6401227cb3aa0d131ec5dd53	4	1	main_slash	11	main_slash	69	stimuli_distractor_diamondtriangles.svg	stimuli_distractor_trianglediamonds.svg	37	no	0	1	2000	0	0			0	0			1				0	
6.6.1	win	2023-07-10	09:28:58	09:38:48	585320	6401227cb3aa0d131ec5dd53	4	1	main_slash	11	advance_on_keypress_SLASH	70	stimuli_distractor_diamondtriangles.svg	stimuli_distractor_trianglediamonds.svg	37	no	57	0	748	0	0			0	0			1				0	
6.6.1	win	2023-07-10	09:28:58	09:38:52	588728	6401227cb3aa0d131ec5dd53	4	1	main_slash	11	main_slash	71	stimuli_distractor_diamondtriangles.svg	stimuli_distractor_trianglediamonds.svg	38	no	0	1	2000	0	0			0	0			1				0	
6.6.1	win	2023-07-10	09:28:58	09:38:52	588728	6401227cb3aa0d131ec5dd53	4	1	main_slash	11	advance_on_keypress_SLASH	72	stimuli_distractor_diamondtriangles.svg	stimuli_distractor_trianglediamonds.svg	38	no	57	0	756	0	0			0	0			1				0	
6.6.1	win	2023-07-10	09:28:58	09:38:55	592128	6401227cb3aa0d131ec5dd53	4	1	main_slash	11	main_slash	73	stimuli_distractor_diamondtriangles.svg	stimuli_distractor_diamondtriangles.svg	40	no	0	1	2000	0	0			0	0			1				0	
6.6.1	win	2023-07-10	09:28:58	09:38:55	592128	6401227cb3aa0d131ec5dd53	4	1	main_slash	11	advance_on_keypress_SLASH	74	stimuli_distractor_diamondtriangles.svg	stimuli_distractor_diamondtriangles.svg	40	no	57	0	58	0	0			0	0			1				0	
6.6.1	win	2023-07-10	09:28:58	09:38:58	594820	6401227cb3aa0d131ec5dd53	4	1	main_slash	11	main_slash	75	stimuli_distractor_trianglediamonds.svg	stimuli_distractor_diamondtriangles.svg	36	no	0	1	2000	0	0			0	0			1				0	
6.6.1	win	2023-07-10	09:28:58	09:38:58	594820	6401227cb3aa0d131ec5dd53	4	1	main_slash	11	advance_on_keypress_SLASH	76	stimuli_distractor_trianglediamonds.svg	stimuli_distractor_diamondtriangles.svg	36	no	57	0	519	0	0			0	0			1				0	
6.6.1	win	2023-07-10	09:28:58	09:39:00	596986	6401227cb3aa0d131ec5dd53	4	1	main_slash	11	main_slash	77	stimuli_distractor_diamondtriangles.svg	stimuli_target_squaretriangles.svg	15	yes	53	1	1001	0	0			0	0			1				0	
6.6.1	win	2023-07-10	09:28:58	09:39:00	596986	6401227cb3aa0d131ec5dd53	4	1	main_slash	11	advance_on_keypress_SLASH	78	stimuli_distractor_diamondtriangles.svg	stimuli_target_squaretriangles.svg	15	yes	57	0	507	0	0			0	0			1				0	
6.6.1	win	2023-07-10	09:28:58	09:39:02	598702	6401227cb3aa0d131ec5dd53	4	1	main_slash	11	main_slash	79	stimuli_distractor_trianglediamonds.svg	stimuli_target_rectangletriangles.svg	9	yes	53	1	575	0	0			0	0			1				0	
6.6.1	win	2023-07-10	09:28:58	09:39:02	598702	6401227cb3aa0d131ec5dd53	4	1	main_slash	11	advance_on_keypress_SLASH	80	stimuli_distractor_trianglediamonds.svg	stimuli_target_rectangletriangles.svg	9	yes	57	0	424	0	0			0	0			1				0	
6.6.1	win	2023-07-10	09:28:58	09:39:05	601778	6401227cb3aa0d131ec5dd53	4	1	main_slash	11	main_slash	81	stimuli_target_trianglerectangles.svg	stimuli_distractor_diamondtriangles.svg	21	yes	0	0	2000	0	0			0	0			1				0	
6.6.1	win	2023-07-10	09:28:58	09:39:05	601778	6401227cb3aa0d131ec5dd53	4	1	main_slash	11	advance_on_keypress_SLASH	82	stimuli_target_trianglerectangles.svg	stimuli_distractor_diamondtriangles.svg	21	yes	57	0	543	0	0			0	0			1				0	
6.6.1	win	2023-07-10	09:28:58	09:39:06	603411	6401227cb3aa0d131ec5dd53	4	1	main_slash	11	main_slash	83	stimuli_distractor_trianglediamonds.svg	stimuli_target_squarediamonds.svg	12	yes	53	1	433	0	0			0	0			1				0	
6.6.1	win	2023-07-10	09:28:58	09:39:06	603411	6401227cb3aa0d131ec5dd53	4	1	main_slash	11	advance_on_keypress_SLASH	84	stimuli_distractor_trianglediamonds.svg	stimuli_target_squarediamonds.svg	12	yes	57	0	351	0	0			0	0			1				0	
6.6.1	win	2023-07-10	09:28:58	09:39:09	606411	6401227cb3aa0d131ec5dd53	4	1	main_slash	11	main_slash	85	stimuli_distractor_trianglediamonds.svg	stimuli_distractor_diamondtriangles.svg	35	no	0	1	2000	0	0			0	0			1				0	
6.6.1	win	2023-07-10	09:28:58	09:39:09	606411	6401227cb3aa0d131ec5dd53	4	1	main_slash	11	advance_on_keypress_SLASH	86	stimuli_distractor_trianglediamonds.svg	stimuli_distractor_diamondtriangles.svg	35	no	57	0	539	0	0			0	0			1				0	
6.6.1	win	2023-07-10	09:28:58	09:39:11	608304	6401227cb3aa0d131ec5dd53	4	1	main_slash	11	main_slash	87	stimuli_target_trianglesquares.svg	stimuli_distractor_trianglediamonds.svg	18	yes	53	1	686	0	0			0	0			1				0	
6.6.1	win	2023-07-10	09:28:58	09:39:11	608304	6401227cb3aa0d131ec5dd53	4	1	main_slash	11	advance_on_keypress_SLASH	88	stimuli_target_trianglesquares.svg	stimuli_distractor_trianglediamonds.svg	18	yes	57	0	418	0	0			0	0			1				0	
6.6.1	win	2023-07-10	09:28:58	09:39:13	609767	6401227cb3aa0d131ec5dd53	4	1	main_slash	11	main_slash	89	stimuli_target_rectangletriangles.svg	stimuli_distractor_diamondtriangles.svg	5	yes	53	1	377	0	0			0	0			1				0	
6.6.1	win	2023-07-10	09:28:58	09:39:13	609767	6401227cb3aa0d131ec5dd53	4	1	main_slash	11	advance_on_keypress_SLASH	90	stimuli_target_rectangletriangles.svg	stimuli_distractor_diamondtriangles.svg	5	yes	57	0	352	0	0			0	0			1				0	
6.6.1	win	2023-07-10	09:28:58	09:39:14	611098	6401227cb3aa0d131ec5dd53	4	1	main_slash	11	main_slash	91	stimuli_target_rectangletriangles.svg	stimuli_distractor_trianglediamonds.svg	1	yes	53	1	330	0	0			0	0			1				0	
6.6.1	win	2023-07-10	09:28:58	09:39:14	611098	6401227cb3aa0d131ec5dd53	4	1	main_slash	11	advance_on_keypress_SLASH	92	stimuli_target_rectangletriangles.svg	stimuli_distractor_trianglediamonds.svg	1	yes	57	0	282	0	0			0	0			1				0	
6.6.1	win	2023-07-10	09:28:58	09:39:15	612418	6401227cb3aa0d131ec5dd53	4	1	main_slash	11	main_slash	93	stimuli_target_squarediamonds.svg	stimuli_distractor_trianglediamonds.svg	4	yes	53	1	373	0	0			0	0			1				0	
6.6.1	win	2023-07-10	09:28:58	09:39:15	612418	6401227cb3aa0d131ec5dd53	4	1	main_slash	11	advance_on_keypress_SLASH	94	stimuli_target_squarediamonds.svg	stimuli_distractor_trianglediamonds.svg	4	yes	57	0	175	0	0			0	0			1				0	
6.6.1	win	2023-07-10	09:28:58	09:39:17	613564	6401227cb3aa0d131ec5dd53	4	1	main_slash	11	main_slash	95	stimuli_target_squarediamonds.svg	stimuli_distractor_diamondtriangles.svg	8	yes	53	1	313	0	0			0	0			1				0	
6.6.1	win	2023-07-10	09:28:58	09:39:17	613564	6401227cb3aa0d131ec5dd53	4	1	main_slash	11	advance_on_keypress_SLASH	96	stimuli_target_squarediamonds.svg	stimuli_distractor_diamondtriangles.svg	8	yes	57	0	224	0	0			0	0			1				0	
6.6.1	win	2023-07-10	09:28:58	09:39:18	614864	6401227cb3aa0d131ec5dd53	4	1	main_slash	11	main_slash	97	stimuli_distractor_trianglediamonds.svg	stimuli_target_rectanglediamonds.svg	10	yes	53	1	429	0	0			0	0			1				0	
6.6.1	win	2023-07-10	09:28:58	09:39:18	614864	6401227cb3aa0d131ec5dd53	4	1	main_slash	11	advance_on_keypress_SLASH	98	stimuli_distractor_trianglediamonds.svg	stimuli_target_rectanglediamonds.svg	10	yes	57	0	282	0	0			0	0			1				0	
6.6.1	win	2023-07-10	09:28:58	09:39:20	616833	6401227cb3aa0d131ec5dd53	4	1	main_slash	11	main_slash	99	stimuli_distractor_trianglediamonds.svg	stimuli_target_trianglesquares.svg	26	yes	53	1	1031	0	0			0	0			1				0	
6.6.1	win	2023-07-10	09:28:58	09:39:20	616833	6401227cb3aa0d131ec5dd53	4	1	main_slash	11	advance_on_keypress_SLASH	100	stimuli_distractor_trianglediamonds.svg	stimuli_target_trianglesquares.svg	26	yes	57	0	237	0	0			0	0			1				0	
6.6.1	win	2023-07-10	09:28:58	09:39:23	619727	6401227cb3aa0d131ec5dd53	4	1	main_slash	11	main_slash	101	stimuli_distractor_diamondtriangles.svg	stimuli_target_squaretriangles.svg	15	yes	0	0	2000	0	0			0	0			1				0	
6.6.1	win	2023-07-10	09:28:58	09:39:23	619727	6401227cb3aa0d131ec5dd53	4	1	main_slash	11	advance_on_keypress_SLASH	102	stimuli_distractor_diamondtriangles.svg	stimuli_target_squaretriangles.svg	15	yes	57	0	1251	0	0			0	0			1				0	
6.6.1	win	2023-07-10	09:28:58	09:39:26	622576	6401227cb3aa0d131ec5dd53	4	1	main_slash	11	main_slash	103	stimuli_distractor_trianglediamonds.svg	stimuli_target_diamondsquares.svg	28	yes	53	1	942	0	0			0	0			1				0	
6.6.1	win	2023-07-10	09:28:58	09:39:26	622576	6401227cb3aa0d131ec5dd53	4	1	main_slash	11	advance_on_keypress_SLASH	104	stimuli_distractor_trianglediamonds.svg	stimuli_target_diamondsquares.svg	28	yes	57	0	256	0	0			0	0			1				0	
6.6.1	win	2023-07-10	09:28:58	09:39:27	624344	6401227cb3aa0d131ec5dd53	4	1	main_slash	11	main_slash	105	stimuli_target_trianglesquares.svg	stimuli_distractor_diamondtriangles.svg	22	yes	53	1	876	0	0			0	0			1				0	
6.6.1	win	2023-07-10	09:28:58	09:39:27	624344	6401227cb3aa0d131ec5dd53	4	1	main_slash	11	advance_on_keypress_SLASH	106	stimuli_target_trianglesquares.svg	stimuli_distractor_diamondtriangles.svg	22	yes	57	0	321	0	0			0	0			1				0	
6.6.1	win	2023-07-10	09:28:58	09:39:30	627327	6401227cb3aa0d131ec5dd53	4	1	main_slash	11	main_slash	107	stimuli_target_rectanglediamonds.svg	stimuli_distractor_trianglediamonds.svg	2	yes	0	0	2000	0	0			0	0			1				0	
6.6.1	win	2023-07-10	09:28:58	09:39:30	627327	6401227cb3aa0d131ec5dd53	4	1	main_slash	11	advance_on_keypress_SLASH	108	stimuli_target_rectanglediamonds.svg	stimuli_distractor_trianglediamonds.svg	2	yes	57	0	495	0	0			0	0			1				0	
6.6.1	win	2023-07-10	09:28:58	09:39:32	629357	6401227cb3aa0d131ec5dd53	4	1	main_slash	11	main_slash	109	stimuli_target_diamondsquares.svg	stimuli_distractor_trianglediamonds.svg	20	yes	53	1	872	0	0			0	0			1				0	
6.6.1	win	2023-07-10	09:28:58	09:39:32	629357	6401227cb3aa0d131ec5dd53	4	1	main_slash	11	advance_on_keypress_SLASH	110	stimuli_target_diamondsquares.svg	stimuli_distractor_trianglediamonds.svg	20	yes	57	0	267	0	0			0	0			1				0	
6.6.1	win	2023-07-10	09:28:58	09:39:35	631979	6401227cb3aa0d131ec5dd53	4	1	main_slash	11	main_slash	111	stimuli_target_squaretriangles.svg	stimuli_distractor_trianglediamonds.svg	3	yes	53	1	1702	0	0			0	0			1				0	
6.6.1	win	2023-07-10	09:28:58	09:39:35	631979	6401227cb3aa0d131ec5dd53	4	1	main_slash	11	advance_on_keypress_SLASH	112	stimuli_target_squaretriangles.svg	stimuli_distractor_trianglediamonds.svg	3	yes	57	0	339	0	0			0	0			1				0	
6.6.1	win	2023-07-10	09:28:58	09:39:38	634976	6401227cb3aa0d131ec5dd53	4	1	main_slash	11	main_slash	113	stimuli_target_rectanglediamonds.svg	stimuli_distractor_diamondtriangles.svg	6	yes	0	0	2000	0	0			0	0			1				0	
6.6.1	win	2023-07-10	09:28:58	09:39:38	634976	6401227cb3aa0d131ec5dd53	4	1	main_slash	11	advance_on_keypress_SLASH	114	stimuli_target_rectanglediamonds.svg	stimuli_distractor_diamondtriangles.svg	6	yes	57	0	1456	0	0			0	0			1				0	
6.6.1	win	2023-07-10	09:28:58	09:39:42	639084	6401227cb3aa0d131ec5dd53	4	1	main_slash	11	main_slash	115	stimuli_distractor_diamondtriangles.svg	stimuli_distractor_diamondtriangles.svg	39	no	0	1	2000	0	0			0	0			1				0	
6.6.1	win	2023-07-10	09:28:58	09:39:42	639084	6401227cb3aa0d131ec5dd53	4	1	main_slash	11	advance_on_keypress_SLASH	116	stimuli_distractor_diamondtriangles.svg	stimuli_distractor_diamondtriangles.svg	39	no	57	0	1157	0	0			0	0			1				0	
6.6.1	win	2023-07-10	09:28:58	09:39:46	642876	6401227cb3aa0d131ec5dd53	4	1	main_slash	11	main_slash	117	stimuli_distractor_trianglediamonds.svg	stimuli_target_trianglerectangles.svg	25	yes	0	0	2000	0	0			0	0			1				0	
6.6.1	win	2023-07-10	09:28:58	09:39:46	642876	6401227cb3aa0d131ec5dd53	4	1	main_slash	11	advance_on_keypress_SLASH	118	stimuli_distractor_trianglediamonds.svg	stimuli_target_trianglerectangles.svg	25	yes	57	0	791	0	0			0	0			1				0	
6.6.1	win	2023-07-10	09:28:58	09:39:48	645078	6401227cb3aa0d131ec5dd53	4	1	main_slash	11	main_slash	119	stimuli_target_diamondrectangles.svg	stimuli_distractor_trianglediamonds.svg	19	yes	53	1	743	0	0			0	0			1				0	
6.6.1	win	2023-07-10	09:28:58	09:39:48	645078	6401227cb3aa0d131ec5dd53	4	1	main_slash	11	advance_on_keypress_SLASH	120	stimuli_target_diamondrectangles.svg	stimuli_distractor_trianglediamonds.svg	19	yes	57	0	265	0	0			0	0			1				0	
6.6.1	win	2023-07-10	09:28:58	09:39:50	646574	6401227cb3aa0d131ec5dd53	4	1	main_slash	11	main_slash	121	stimuli_distractor_trianglediamonds.svg	stimuli_target_squaretriangles.svg	11	yes	53	1	582	0	0			0	0			1				0	
6.6.1	win	2023-07-10	09:28:58	09:39:50	646574	6401227cb3aa0d131ec5dd53	4	1	main_slash	11	advance_on_keypress_SLASH	122	stimuli_distractor_trianglediamonds.svg	stimuli_target_squaretriangles.svg	11	yes	57	0	178	0	0			0	0			1				0	
6.6.1	win	2023-07-10	09:28:58	09:39:52	649393	6401227cb3aa0d131ec5dd53	4	1	main_slash	11	main_slash	123	stimuli_distractor_trianglediamonds.svg	stimuli_distractor_trianglediamonds.svg	34	no	0	1	2000	0	0			0	0			1				0	
6.6.1	win	2023-07-10	09:28:58	09:39:52	649393	6401227cb3aa0d131ec5dd53	4	1	main_slash	11	advance_on_keypress_SLASH	124	stimuli_distractor_trianglediamonds.svg	stimuli_distractor_trianglediamonds.svg	34	no	57	0	644	0	0			0	0			1				0	
6.6.1	win	2023-07-10	09:28:58	09:39:54	651117	6401227cb3aa0d131ec5dd53	4	1	main_slash	11	main_slash	125	stimuli_distractor_diamondtriangles.svg	stimuli_target_rectangletriangles.svg	13	yes	53	1	433	0	0			0	0			1				0	
6.6.1	win	2023-07-10	09:28:58	09:39:54	651117	6401227cb3aa0d131ec5dd53	4	1	main_slash	11	advance_on_keypress_SLASH	126	stimuli_distractor_diamondtriangles.svg	stimuli_target_rectangletriangles.svg	13	yes	57	0	257	0	0			0	0			1				0	
6.6.1	win	2023-07-10	09:28:58	09:39:56	653005	6401227cb3aa0d131ec5dd53	4	1	main_slash	11	main_slash	127	stimuli_distractor_diamondtriangles.svg	stimuli_distractor_trianglediamonds.svg	37	no	53	0	980	0	0			0	0			1				0	
6.6.1	win	2023-07-10	09:28:58	09:39:56	653005	6401227cb3aa0d131ec5dd53	4	1	main_slash	11	advance_on_keypress_SLASH	128	stimuli_distractor_diamondtriangles.svg	stimuli_distractor_trianglediamonds.svg	37	no	57	0	224	0	0			0	0			1				0	
6.6.1	win	2023-07-10	09:28:58	09:39:59	655867	6401227cb3aa0d131ec5dd53	4	1	main_slash	11	main_slash	129	stimuli_distractor_trianglediamonds.svg	stimuli_distractor_trianglediamonds.svg	33	no	0	1	2000	0	0			0	0			1				0	
6.6.1	win	2023-07-10	09:28:58	09:39:59	655867	6401227cb3aa0d131ec5dd53	4	1	main_slash	11	advance_on_keypress_SLASH	130	stimuli_distractor_trianglediamonds.svg	stimuli_distractor_trianglediamonds.svg	33	no	57	0	1152	0	0			0	0			1				0	
6.6.1	win	2023-07-10	09:28:58	09:40:03	659675	6401227cb3aa0d131ec5dd53	4	1	main_slash	11	main_slash	131	stimuli_distractor_diamondtriangles.svg	stimuli_distractor_diamondtriangles.svg	40	no	0	1	2000	0	0			0	0			1				0	
6.6.1	win	2023-07-10	09:28:58	09:40:03	659675	6401227cb3aa0d131ec5dd53	4	1	main_slash	11	advance_on_keypress_SLASH	132	stimuli_distractor_diamondtriangles.svg	stimuli_distractor_diamondtriangles.svg	40	no	57	0	442	0	0			0	0			1				0	
6.6.1	win	2023-07-10	09:28:58	09:40:04	661341	6401227cb3aa0d131ec5dd53	4	1	main_slash	11	main_slash	133	stimuli_distractor_trianglediamonds.svg	stimuli_target_diamondrectangles.svg	27	yes	53	1	592	0	0			0	0			1				0	
6.6.1	win	2023-07-10	09:28:58	09:40:04	661341	6401227cb3aa0d131ec5dd53	4	1	main_slash	11	advance_on_keypress_SLASH	134	stimuli_distractor_trianglediamonds.svg	stimuli_target_diamondrectangles.svg	27	yes	57	0	727	0	0			0	0			1				0	
6.6.1	win	2023-07-10	09:28:58	09:40:07	663831	6401227cb3aa0d131ec5dd53	4	1	main_slash	11	main_slash	135	stimuli_target_trianglerectangles.svg	stimuli_distractor_trianglediamonds.svg	17	yes	53	1	1107	0	0			0	0			1				0	
6.6.1	win	2023-07-10	09:28:58	09:40:07	663831	6401227cb3aa0d131ec5dd53	4	1	main_slash	11	advance_on_keypress_SLASH	136	stimuli_target_trianglerectangles.svg	stimuli_distractor_trianglediamonds.svg	17	yes	57	0	381	0	0			0	0			1				0	
6.6.1	win	2023-07-10	09:28:58	09:40:09	665737	6401227cb3aa0d131ec5dd53	4	1	main_slash	11	main_slash	137	stimuli_distractor_diamondtriangles.svg	stimuli_target_trianglerectangles.svg	29	yes	53	1	871	0	0			0	0			1				0	
6.6.1	win	2023-07-10	09:28:58	09:40:09	665737	6401227cb3aa0d131ec5dd53	4	1	main_slash	11	advance_on_keypress_SLASH	138	stimuli_distractor_diamondtriangles.svg	stimuli_target_trianglerectangles.svg	29	yes	57	0	358	0	0			0	0			1				0	
6.6.1	win	2023-07-10	09:28:58	09:40:11	667864	6401227cb3aa0d131ec5dd53	4	1	main_slash	11	main_slash	139	stimuli_distractor_diamondtriangles.svg	stimuli_target_rectanglediamonds.svg	14	yes	53	1	1123	0	0			0	0			1				0	
6.6.1	win	2023-07-10	09:28:58	09:40:11	667864	6401227cb3aa0d131ec5dd53	4	1	main_slash	11	advance_on_keypress_SLASH	140	stimuli_distractor_diamondtriangles.svg	stimuli_target_rectanglediamonds.svg	14	yes	57	0	425	0	0			0	0			1				0	
6.6.1	win	2023-07-10	09:28:58	09:40:13	669913	6401227cb3aa0d131ec5dd53	4	1	main_slash	11	main_slash	141	stimuli_distractor_diamondtriangles.svg	stimuli_target_diamondsquares.svg	32	yes	53	1	981	0	0			0	0			1				0	
6.6.1	win	2023-07-10	09:28:58	09:40:13	669913	6401227cb3aa0d131ec5dd53	4	1	main_slash	11	advance_on_keypress_SLASH	142	stimuli_distractor_diamondtriangles.svg	stimuli_target_diamondsquares.svg	32	yes	57	0	393	0	0			0	0			1				0	
6.6.1	win	2023-07-10	09:28:58	09:40:16	672974	6401227cb3aa0d131ec5dd53	4	1	main_slash	11	main_slash	143	stimuli_distractor_trianglediamonds.svg	stimuli_distractor_diamondtriangles.svg	36	no	0	1	2000	0	0			0	0			1				0	
6.6.1	win	2023-07-10	09:28:58	09:40:16	672974	6401227cb3aa0d131ec5dd53	4	1	main_slash	11	advance_on_keypress_SLASH	144	stimuli_distractor_trianglediamonds.svg	stimuli_distractor_diamondtriangles.svg	36	no	57	0	50	0	0			0	0			1				0	
6.6.1	win	2023-07-10	09:28:58	09:40:17	674228	6401227cb3aa0d131ec5dd53	4	1	main_slash	11	main_slash	145	stimuli_target_diamondsquares.svg	stimuli_distractor_diamondtriangles.svg	24	yes	53	1	563	0	0			0	0			1				0	
6.6.1	win	2023-07-10	09:28:58	09:40:17	674228	6401227cb3aa0d131ec5dd53	4	1	main_slash	11	advance_on_keypress_SLASH	146	stimuli_target_diamondsquares.svg	stimuli_distractor_diamondtriangles.svg	24	yes	57	0	293	0	0			0	0			1				0	
6.6.1	win	2023-07-10	09:28:58	09:40:19	675713	6401227cb3aa0d131ec5dd53	4	1	main_slash	11	main_slash	147	stimuli_target_squaretriangles.svg	stimuli_distractor_diamondtriangles.svg	7	yes	53	1	540	0	0			0	0			1				0	
6.6.1	win	2023-07-10	09:28:58	09:40:19	675713	6401227cb3aa0d131ec5dd53	4	1	main_slash	11	advance_on_keypress_SLASH	148	stimuli_target_squaretriangles.svg	stimuli_distractor_diamondtriangles.svg	7	yes	57	0	337	0	0			0	0			1				0	
6.6.1	win	2023-07-10	09:28:58	09:40:20	677076	6401227cb3aa0d131ec5dd53	4	1	main_slash	11	main_slash	149	stimuli_distractor_diamondtriangles.svg	stimuli_target_squarediamonds.svg	16	yes	53	1	378	0	0			0	0			1				0	
6.6.1	win	2023-07-10	09:28:58	09:40:20	677076	6401227cb3aa0d131ec5dd53	4	1	main_slash	11	advance_on_keypress_SLASH	150	stimuli_distractor_diamondtriangles.svg	stimuli_target_squarediamonds.svg	16	yes	57	0	286	0	0			0	0			1				0	
6.6.1	win	2023-07-10	09:28:58	09:40:21	678416	6401227cb3aa0d131ec5dd53	4	1	main_slash	11	main_slash	151	stimuli_distractor_diamondtriangles.svg	stimuli_target_trianglesquares.svg	30	yes	53	1	418	0	0			0	0			1				0	
6.6.1	win	2023-07-10	09:28:58	09:40:21	678416	6401227cb3aa0d131ec5dd53	4	1	main_slash	11	advance_on_keypress_SLASH	152	stimuli_distractor_diamondtriangles.svg	stimuli_target_trianglesquares.svg	30	yes	57	0	766	0	0			0	0			1				0	
6.6.1	win	2023-07-10	09:28:58	09:40:25	681840	6401227cb3aa0d131ec5dd53	4	1	main_slash	11	main_slash	153	stimuli_distractor_diamondtriangles.svg	stimuli_distractor_trianglediamonds.svg	38	no	0	1	2000	0	0			0	0			1				0	
6.6.1	win	2023-07-10	09:28:58	09:40:25	681840	6401227cb3aa0d131ec5dd53	4	1	main_slash	11	advance_on_keypress_SLASH	154	stimuli_distractor_diamondtriangles.svg	stimuli_distractor_trianglediamonds.svg	38	no	57	0	614	0	0			0	0			1				0	
6.6.1	win	2023-07-10	09:28:58	09:40:26	683516	6401227cb3aa0d131ec5dd53	4	1	main_slash	11	main_slash	155	stimuli_distractor_trianglediamonds.svg	stimuli_target_rectangletriangles.svg	9	yes	53	1	400	0	0			0	0			1				0	
6.6.1	win	2023-07-10	09:28:58	09:40:26	683516	6401227cb3aa0d131ec5dd53	4	1	main_slash	11	advance_on_keypress_SLASH	156	stimuli_distractor_trianglediamonds.svg	stimuli_target_rectangletriangles.svg	9	yes	57	0	449	0	0			0	0			1				0	
6.6.1	win	2023-07-10	09:28:58	09:40:30	686607	6401227cb3aa0d131ec5dd53	4	1	main_slash	11	main_slash	157	stimuli_target_diamondrectangles.svg	stimuli_distractor_diamondtriangles.svg	23	yes	0	0	2000	0	0			0	0			1				0	
6.6.1	win	2023-07-10	09:28:58	09:40:30	686607	6401227cb3aa0d131ec5dd53	4	1	main_slash	11	advance_on_keypress_SLASH	158	stimuli_target_diamondrectangles.svg	stimuli_distractor_diamondtriangles.svg	23	yes	57	0	643	0	0			0	0			1				0	
6.6.1	win	2023-07-10	09:28:58	09:40:31	688451	6401227cb3aa0d131ec5dd53	4	1	main_slash	11	main_slash	159	stimuli_distractor_diamondtriangles.svg	stimuli_target_diamondrectangles.svg	31	yes	53	1	543	0	0			0	0			1				0	
6.6.1	win	2023-07-10	09:28:58	09:40:31	688451	6401227cb3aa0d131ec5dd53	4	1	main_slash	11	advance_on_keypress_SLASH	160	stimuli_distractor_diamondtriangles.svg	stimuli_target_diamondrectangles.svg	31	yes	57	0	450	0	0			0	0			1				0	
6.6.1	win	2023-07-10	09:28:58	09:40:31	688451	6401227cb3aa0d131ec5dd53	4	1	headphonecheck_calibration	14	headphonecheck_calibrationIntro	1	stimuli_distractor_diamondtriangles.svg	stimuli_target_diamondrectangles.svg	31	yes	calibrationButton	0	1830	0	0			0	0			1				0	
6.6.1	win	2023-07-10	09:28:58	09:40:31	688451	6401227cb3aa0d131ec5dd53	4	1	headphonecheck_testphase	15	test_collectResponse	3	stimuli_distractor_diamondtriangles.svg	stimuli_target_diamondrectangles.svg	31	yes	third	0	12382	1	3	antiphase_hc_soi.wav	1	0	0			1				0	
6.6.1	win	2023-07-10	09:28:58	09:40:31	688451	6401227cb3aa0d131ec5dd53	4	1	headphonecheck_testphase	15	test_collectResponse	6	stimuli_distractor_diamondtriangles.svg	stimuli_target_diamondrectangles.svg	31	yes	second	0	553	2	6	antiphase_hc_ois.wav	3	0	0			1				0	
6.6.1	win	2023-07-10	09:28:58	09:40:31	688451	6401227cb3aa0d131ec5dd53	4	1	headphonecheck_testphase	15	test_collectResponse	9	stimuli_distractor_diamondtriangles.svg	stimuli_target_diamondrectangles.svg	31	yes	first	0	1001	3	1	antiphase_hc_iso.wav	2	0	0			1				0	
6.6.1	win	2023-07-10	09:28:58	09:40:31	688451	6401227cb3aa0d131ec5dd53	4	1	headphonecheck_testphase	15	test_collectResponse	12	stimuli_distractor_diamondtriangles.svg	stimuli_target_diamondrectangles.svg	31	yes	first	0	332	4	2	antiphase_hc_ios.wav	3	0	0			1				0	
6.6.1	win	2023-07-10	09:28:58	09:40:31	688451	6401227cb3aa0d131ec5dd53	4	1	headphonecheck_testphase	15	test_collectResponse	15	stimuli_distractor_diamondtriangles.svg	stimuli_target_diamondrectangles.svg	31	yes	second	0	2940	5	4	antiphase_hc_sio.wav	1	0	0			1				0	
6.6.1	win	2023-07-10	09:28:58	09:40:31	688451	6401227cb3aa0d131ec5dd53	4	1	headphonecheck_testphase	15	test_collectResponse	18	stimuli_distractor_diamondtriangles.svg	stimuli_target_diamondrectangles.svg	31	yes	third	0	779	6	5	antiphase_hc_osi.wav	2	0	0			1				0	
6.6.1	win	2023-07-10	09:28:58	09:40:31	688451	6401227cb3aa0d131ec5dd53	4	1	stereocheck_calibration	17	stereocheck_calibrationIntro	1	stimuli_distractor_diamondtriangles.svg	stimuli_target_diamondrectangles.svg	31	yes	stereocheck_calibrationButton	0	11255	6	5	antiphase_hc_osi.wav	2	0	0			1				0	
6.6.1	win	2023-07-10	09:28:58	09:40:31	688451	6401227cb3aa0d131ec5dd53	4	1	stereocheck_testphase	18	stereocheck_test_collectResponse	3	stimuli_distractor_diamondtriangles.svg	stimuli_target_diamondrectangles.svg	31	yes	stereocheck_left	1	3024	6	5	antiphase_hc_osi.wav	2	1	1	noise_calib_stim_LEFT.wav	1	1				0	
6.6.1	win	2023-07-10	09:28:58	09:40:31	688451	6401227cb3aa0d131ec5dd53	4	1	stereocheck_testphase	18	stereocheck_test_collectResponse	6	stimuli_distractor_diamondtriangles.svg	stimuli_target_diamondrectangles.svg	31	yes	stereocheck_right	1	89	6	5	antiphase_hc_osi.wav	2	2	5	noise_calib_stim_RIGHT.wav	2	1				0	
6.6.1	win	2023-07-10	09:28:58	09:40:31	688451	6401227cb3aa0d131ec5dd53	4	1	stereocheck_testphase	18	stereocheck_test_collectResponse	9	stimuli_distractor_diamondtriangles.svg	stimuli_target_diamondrectangles.svg	31	yes	stereocheck_left	1	447	6	5	antiphase_hc_osi.wav	2	3	3	noise_calib_stim_LEFT.wav	1	1				0	
6.6.1	win	2023-07-10	09:28:58	09:40:31	688451	6401227cb3aa0d131ec5dd53	4	1	stereocheck_testphase	18	stereocheck_test_collectResponse	12	stimuli_distractor_diamondtriangles.svg	stimuli_target_diamondrectangles.svg	31	yes	stereocheck_left	1	476	6	5	antiphase_hc_osi.wav	2	4	2	noise_calib_stim_LEFT.wav	1	1				0	
6.6.1	win	2023-07-10	09:28:58	09:40:31	688451	6401227cb3aa0d131ec5dd53	4	1	stereocheck_testphase	18	stereocheck_test_collectResponse	15	stimuli_distractor_diamondtriangles.svg	stimuli_target_diamondrectangles.svg	31	yes	stereocheck_right	1	295	6	5	antiphase_hc_osi.wav	2	5	4	noise_calib_stim_RIGHT.wav	2	1				0	
6.6.1	win	2023-07-10	09:28:58	09:40:31	688451	6401227cb3aa0d131ec5dd53	4	1	stereocheck_testphase	18	stereocheck_test_collectResponse	18	stimuli_distractor_diamondtriangles.svg	stimuli_target_diamondrectangles.svg	31	yes	stereocheck_right	1	410	6	5	antiphase_hc_osi.wav	2	6	6	noise_calib_stim_RIGHT.wav	2	1				0	
6.6.1	win	2023-07-10	09:28:58	09:40:31	688451	6401227cb3aa0d131ec5dd53	4	1	DL_practice	21	DL_practice	2	stimuli_distractor_diamondtriangles.svg	stimuli_target_diamondrectangles.svg	31	yes	ga	1	1316	6	5	antiphase_hc_osi.wav	2	6	6	noise_calib_stim_RIGHT.wav	2	18	blb_dichoticlistening_ga-ta.mp3	ga	ta	1	left
6.6.1	win	2023-07-10	09:28:58	09:40:31	688451	6401227cb3aa0d131ec5dd53	4	1	DL_practice	21	DL_practice	3	stimuli_distractor_diamondtriangles.svg	stimuli_target_diamondrectangles.svg	31	yes	ka	1	918	6	5	antiphase_hc_osi.wav	2	6	6	noise_calib_stim_RIGHT.wav	2	22	blb_dichoticlistening_ka-ka.mp3	ka	ka	0	left
6.6.1	win	2023-07-10	09:28:58	09:40:31	688451	6401227cb3aa0d131ec5dd53	4	1	DL_practice	21	DL_practice	4	stimuli_distractor_diamondtriangles.svg	stimuli_target_diamondrectangles.svg	31	yes	pa	1	662	6	5	antiphase_hc_osi.wav	2	6	6	noise_calib_stim_RIGHT.wav	2	29	blb_dichoticlistening_pa-pa.mp3	pa	pa	0	left
6.6.1	win	2023-07-10	09:28:58	09:40:31	688451	6401227cb3aa0d131ec5dd53	4	1	DL_practice	21	DL_practice	5	stimuli_distractor_diamondtriangles.svg	stimuli_target_diamondrectangles.svg	31	yes	ga	1	1083	6	5	antiphase_hc_osi.wav	2	6	6	noise_calib_stim_RIGHT.wav	2	15	blb_dichoticlistening_ga-ga.mp3	ga	ga	0	left
6.6.1	win	2023-07-10	09:28:58	09:40:31	688451	6401227cb3aa0d131ec5dd53	4	1	DL_practice	21	DL_practice	6	stimuli_distractor_diamondtriangles.svg	stimuli_target_diamondrectangles.svg	31	yes	ba	1	1171	6	5	antiphase_hc_osi.wav	2	6	6	noise_calib_stim_RIGHT.wav	2	7	blb_dichoticlistening_da-ba.mp3	da	ba	1	right
6.6.1	win	2023-07-10	09:28:58	09:40:31	688451	6401227cb3aa0d131ec5dd53	4	1	DL_practice	21	DL_practice	7	stimuli_distractor_diamondtriangles.svg	stimuli_target_diamondrectangles.svg	31	yes	ta	1	1123	6	5	antiphase_hc_osi.wav	2	6	6	noise_calib_stim_RIGHT.wav	2	36	blb_dichoticlistening_ta-ta.mp3	ta	ta	0	left
6.6.1	win	2023-07-10	09:28:58	09:40:31	688451	6401227cb3aa0d131ec5dd53	4	1	DL_practice	21	DL_practice	8	stimuli_distractor_diamondtriangles.svg	stimuli_target_diamondrectangles.svg	31	yes	da	1	786	6	5	antiphase_hc_osi.wav	2	6	6	noise_calib_stim_RIGHT.wav	2	8	blb_dichoticlistening_da-da.mp3	da	da	0	left
6.6.1	win	2023-07-10	09:28:58	09:40:31	688451	6401227cb3aa0d131ec5dd53	4	1	DL_practice	21	DL_practice	9	stimuli_distractor_diamondtriangles.svg	stimuli_target_diamondrectangles.svg	31	yes	ba	1	976	6	5	antiphase_hc_osi.wav	2	6	6	noise_calib_stim_RIGHT.wav	2	1	blb_dichoticlistening_ba-ba.mp3	ba	ba	0	left
6.6.1	win	2023-07-10	09:28:58	09:40:31	688451	6401227cb3aa0d131ec5dd53	4	1	DL_practice	21	DL_practice	10	stimuli_distractor_diamondtriangles.svg	stimuli_target_diamondrectangles.svg	31	yes	ka	1	818	6	5	antiphase_hc_osi.wav	2	6	6	noise_calib_stim_RIGHT.wav	2	23	blb_dichoticlistening_ka-pa.mp3	ka	pa	1	left
6.6.1	win	2023-07-10	09:28:58	09:40:31	688451	6401227cb3aa0d131ec5dd53	4	1	DL_test	23	DL_test	1	stimuli_distractor_diamondtriangles.svg	stimuli_target_diamondrectangles.svg	31	yes	da	1	1316	6	5	antiphase_hc_osi.wav	2	6	6	noise_calib_stim_RIGHT.wav	2	10	blb_dichoticlistening_da-ka.mp3	da	ka	1	left
6.6.1	win	2023-07-10	09:28:58	09:40:31	688451	6401227cb3aa0d131ec5dd53	4	1	DL_test	23	DL_test	2	stimuli_distractor_diamondtriangles.svg	stimuli_target_diamondrectangles.svg	31	yes	pa	1	788	6	5	antiphase_hc_osi.wav	2	6	6	noise_calib_stim_RIGHT.wav	2	29	blb_dichoticlistening_pa-pa.mp3	pa	pa	0	left
6.6.1	win	2023-07-10	09:28:58	09:40:31	688451	6401227cb3aa0d131ec5dd53	4	1	DL_test	23	DL_test	3	stimuli_distractor_diamondtriangles.svg	stimuli_target_diamondrectangles.svg	31	yes	ga	1	818	6	5	antiphase_hc_osi.wav	2	6	6	noise_calib_stim_RIGHT.wav	2	33	blb_dichoticlistening_ta-ga.mp3	ta	ga	1	right
6.6.1	win	2023-07-10	09:28:58	09:40:31	688451	6401227cb3aa0d131ec5dd53	4	1	DL_test	23	DL_test	4	stimuli_distractor_diamondtriangles.svg	stimuli_target_diamondrectangles.svg	31	yes	ka	1	2683	6	5	antiphase_hc_osi.wav	2	6	6	noise_calib_stim_RIGHT.wav	2	19	blb_dichoticlistening_ka-ba.mp3	ka	ba	1	left
6.6.1	win	2023-07-10	09:28:58	09:40:31	688451	6401227cb3aa0d131ec5dd53	4	1	DL_test	23	DL_test	5	stimuli_distractor_diamondtriangles.svg	stimuli_target_diamondrectangles.svg	31	yes	ka	1	907	6	5	antiphase_hc_osi.wav	2	6	6	noise_calib_stim_RIGHT.wav	2	22	blb_dichoticlistening_ka-ka.mp3	ka	ka	0	left
6.6.1	win	2023-07-10	09:28:58	09:40:31	688451	6401227cb3aa0d131ec5dd53	4	1	DL_test	23	DL_test	6	stimuli_distractor_diamondtriangles.svg	stimuli_target_diamondrectangles.svg	31	yes	ba	1	904	6	5	antiphase_hc_osi.wav	2	6	6	noise_calib_stim_RIGHT.wav	2	1	blb_dichoticlistening_ba-ba.mp3	ba	ba	0	left
6.6.1	win	2023-07-10	09:28:58	09:40:31	688451	6401227cb3aa0d131ec5dd53	4	1	DL_test	23	DL_test	7	stimuli_distractor_diamondtriangles.svg	stimuli_target_diamondrectangles.svg	31	yes	ba	1	1015	6	5	antiphase_hc_osi.wav	2	6	6	noise_calib_stim_RIGHT.wav	2	5	blb_dichoticlistening_ba-pa.mp3	ba	pa	1	left
6.6.1	win	2023-07-10	09:28:58	09:40:31	688451	6401227cb3aa0d131ec5dd53	4	1	DL_test	23	DL_test	8	stimuli_distractor_diamondtriangles.svg	stimuli_target_diamondrectangles.svg	31	yes	da	1	787	6	5	antiphase_hc_osi.wav	2	6	6	noise_calib_stim_RIGHT.wav	2	11	blb_dichoticlistening_da-pa.mp3	da	pa	1	left
6.6.1	win	2023-07-10	09:28:58	09:40:31	688451	6401227cb3aa0d131ec5dd53	4	1	DL_test	23	DL_test	9	stimuli_distractor_diamondtriangles.svg	stimuli_target_diamondrectangles.svg	31	yes	da	1	879	6	5	antiphase_hc_osi.wav	2	6	6	noise_calib_stim_RIGHT.wav	2	26	blb_dichoticlistening_pa-da.mp3	pa	da	1	right
6.6.1	win	2023-07-10	09:28:58	09:40:31	688451	6401227cb3aa0d131ec5dd53	4	1	DL_test	23	DL_test	10	stimuli_distractor_diamondtriangles.svg	stimuli_target_diamondrectangles.svg	31	yes	ka	1	1777	6	5	antiphase_hc_osi.wav	2	6	6	noise_calib_stim_RIGHT.wav	2	20	blb_dichoticlistening_ka-da.mp3	ka	da	1	left
6.6.1	win	2023-07-10	09:28:58	09:40:31	688451	6401227cb3aa0d131ec5dd53	4	1	DL_test	23	DL_test	11	stimuli_distractor_diamondtriangles.svg	stimuli_target_diamondrectangles.svg	31	yes	ta	1	1327	6	5	antiphase_hc_osi.wav	2	6	6	noise_calib_stim_RIGHT.wav	2	36	blb_dichoticlistening_ta-ta.mp3	ta	ta	0	left
6.6.1	win	2023-07-10	09:28:58	09:40:31	688451	6401227cb3aa0d131ec5dd53	4	1	DL_test	23	DL_test	12	stimuli_distractor_diamondtriangles.svg	stimuli_target_diamondrectangles.svg	31	yes	ka	1	909	6	5	antiphase_hc_osi.wav	2	6	6	noise_calib_stim_RIGHT.wav	2	34	blb_dichoticlistening_ta-ka.mp3	ta	ka	1	right
6.6.1	win	2023-07-10	09:28:58	09:40:31	688451	6401227cb3aa0d131ec5dd53	4	1	DL_test	23	DL_test	13	stimuli_distractor_diamondtriangles.svg	stimuli_target_diamondrectangles.svg	31	yes	ka	0	936	6	5	antiphase_hc_osi.wav	2	6	6	noise_calib_stim_RIGHT.wav	2	31	blb_dichoticlistening_ta-ba.mp3	ta	ba	1	other
6.6.1	win	2023-07-10	09:28:58	09:40:31	688451	6401227cb3aa0d131ec5dd53	4	1	DL_test	23	DL_test	14	stimuli_distractor_diamondtriangles.svg	stimuli_target_diamondrectangles.svg	31	yes	pa	0	2448	6	5	antiphase_hc_osi.wav	2	6	6	noise_calib_stim_RIGHT.wav	2	4	blb_dichoticlistening_ba-ka.mp3	ba	ka	1	other
6.6.1	win	2023-07-10	09:28:58	09:40:31	688451	6401227cb3aa0d131ec5dd53	4	1	DL_test	23	DL_test	15	stimuli_distractor_diamondtriangles.svg	stimuli_target_diamondrectangles.svg	31	yes	pa	0	940	6	5	antiphase_hc_osi.wav	2	6	6	noise_calib_stim_RIGHT.wav	2	6	blb_dichoticlistening_ba-ta.mp3	ba	ta	1	other
6.6.1	win	2023-07-10	09:28:58	09:40:31	688451	6401227cb3aa0d131ec5dd53	4	1	DL_test	23	DL_test	16	stimuli_distractor_diamondtriangles.svg	stimuli_target_diamondrectangles.svg	31	yes	da	1	989	6	5	antiphase_hc_osi.wav	2	6	6	noise_calib_stim_RIGHT.wav	2	8	blb_dichoticlistening_da-da.mp3	da	da	0	left
6.6.1	win	2023-07-10	09:28:58	09:40:31	688451	6401227cb3aa0d131ec5dd53	4	1	DL_test	23	DL_test	17	stimuli_distractor_diamondtriangles.svg	stimuli_target_diamondrectangles.svg	31	yes	da	1	961	6	5	antiphase_hc_osi.wav	2	6	6	noise_calib_stim_RIGHT.wav	2	12	blb_dichoticlistening_da-ta.mp3	da	ta	1	left
6.6.1	win	2023-07-10	09:28:58	09:40:31	688451	6401227cb3aa0d131ec5dd53	4	1	DL_test	23	DL_test	18	stimuli_distractor_diamondtriangles.svg	stimuli_target_diamondrectangles.svg	31	yes	ka	1	1121	6	5	antiphase_hc_osi.wav	2	6	6	noise_calib_stim_RIGHT.wav	2	24	blb_dichoticlistening_ka-ta.mp3	ka	ta	1	left
6.6.1	win	2023-07-10	09:28:58	09:40:31	688451	6401227cb3aa0d131ec5dd53	4	1	DL_test	23	DL_test	19	stimuli_distractor_diamondtriangles.svg	stimuli_target_diamondrectangles.svg	31	yes	ba	1	911	6	5	antiphase_hc_osi.wav	2	6	6	noise_calib_stim_RIGHT.wav	2	7	blb_dichoticlistening_da-ba.mp3	da	ba	1	right
6.6.1	win	2023-07-10	09:28:58	09:40:31	688451	6401227cb3aa0d131ec5dd53	4	1	DL_test	23	DL_test	20	stimuli_distractor_diamondtriangles.svg	stimuli_target_diamondrectangles.svg	31	yes	ga	1	1012	6	5	antiphase_hc_osi.wav	2	6	6	noise_calib_stim_RIGHT.wav	2	27	blb_dichoticlistening_pa-ga.mp3	pa	ga	1	right
6.6.1	win	2023-07-10	09:28:58	09:40:31	688451	6401227cb3aa0d131ec5dd53	4	1	DL_test	23	DL_test	21	stimuli_distractor_diamondtriangles.svg	stimuli_target_diamondrectangles.svg	31	yes	ba	1	1227	6	5	antiphase_hc_osi.wav	2	6	6	noise_calib_stim_RIGHT.wav	2	13	blb_dichoticlistening_ga-ba.mp3	ga	ba	1	right
6.6.1	win	2023-07-10	09:28:58	09:40:31	688451	6401227cb3aa0d131ec5dd53	4	1	DL_test	23	DL_test	22	stimuli_distractor_diamondtriangles.svg	stimuli_target_diamondrectangles.svg	31	yes	da	1	1071	6	5	antiphase_hc_osi.wav	2	6	6	noise_calib_stim_RIGHT.wav	2	32	blb_dichoticlistening_ta-da.mp3	ta	da	1	right
6.6.1	win	2023-07-10	09:28:58	09:40:31	688451	6401227cb3aa0d131ec5dd53	4	1	DL_test	23	DL_test	23	stimuli_distractor_diamondtriangles.svg	stimuli_target_diamondrectangles.svg	31	yes	ka	1	983	6	5	antiphase_hc_osi.wav	2	6	6	noise_calib_stim_RIGHT.wav	2	23	blb_dichoticlistening_ka-pa.mp3	ka	pa	1	left
6.6.1	win	2023-07-10	09:28:58	09:40:31	688451	6401227cb3aa0d131ec5dd53	4	1	DL_test	23	DL_test	24	stimuli_distractor_diamondtriangles.svg	stimuli_target_diamondrectangles.svg	31	yes	ta	1	930	6	5	antiphase_hc_osi.wav	2	6	6	noise_calib_stim_RIGHT.wav	2	35	blb_dichoticlistening_ta-pa.mp3	ta	pa	1	left
6.6.1	win	2023-07-10	09:28:58	09:40:31	688451	6401227cb3aa0d131ec5dd53	4	1	DL_test	23	DL_test	25	stimuli_distractor_diamondtriangles.svg	stimuli_target_diamondrectangles.svg	31	yes	da	1	1624	6	5	antiphase_hc_osi.wav	2	6	6	noise_calib_stim_RIGHT.wav	2	9	blb_dichoticlistening_da-ga.mp3	da	ga	1	left
6.6.1	win	2023-07-10	09:28:58	09:40:31	688451	6401227cb3aa0d131ec5dd53	4	1	DL_test	23	DL_test	26	stimuli_distractor_diamondtriangles.svg	stimuli_target_diamondrectangles.svg	31	yes	ba	1	1007	6	5	antiphase_hc_osi.wav	2	6	6	noise_calib_stim_RIGHT.wav	2	3	blb_dichoticlistening_ba-ga.mp3	ba	ga	1	left
