build	computer.platform	date	time	timestamp	time_elapsed_ms	subject	group	session	blockcode	blocknum	trialcode	trialnum	stimulus_left	stimulus_right	stim_index	target_present	response	correct	latency	headphonecheck_countTestTrials	headphonecheck_index	headphonecheck_testSound	headphonecheck_correctResponse	stereocheck_countTestTrials	stereocheck_index	stereocheck_testSound	stereocheck_correctResponse	DL_index	DL_soundfile	DL_leftSound	DL_rightSound	DL_dualSound	DL_choice
6.6.1	win	2023-06-27	14:54:28	0	0	59e27cc0c0d35a0001294e6b	1	1	headphonecheck_calibration	4	headphonecheck_calibrationIntro	1			0		calibrationButton	0	4065	0	0			0	0			1				0	
6.6.1	win	2023-06-27	14:54:28	0	0	59e27cc0c0d35a0001294e6b	1	1	headphonecheck_testphase	5	test_collectResponse	3			0		second	1	585	1	1	antiphase_hc_iso.wav	2	0	0			1				0	
6.6.1	win	2023-06-27	14:54:28	0	0	59e27cc0c0d35a0001294e6b	1	1	headphonecheck_testphase	5	test_collectResponse	6			0		third	1	629	2	6	antiphase_hc_ois.wav	3	0	0			1				0	
6.6.1	win	2023-06-27	14:54:28	0	0	59e27cc0c0d35a0001294e6b	1	1	headphonecheck_testphase	5	test_collectResponse	9			0		second	1	650	3	5	antiphase_hc_osi.wav	2	0	0			1				0	
6.6.1	win	2023-06-27	14:54:28	0	0	59e27cc0c0d35a0001294e6b	1	1	headphonecheck_testphase	5	test_collectResponse	12			0		third	1	331	4	2	antiphase_hc_ios.wav	3	0	0			1				0	
6.6.1	win	2023-06-27	14:54:28	0	0	59e27cc0c0d35a0001294e6b	1	1	headphonecheck_testphase	5	test_collectResponse	15			0		first	1	461	5	3	antiphase_hc_soi.wav	1	0	0			1				0	
6.6.1	win	2023-06-27	14:54:28	0	0	59e27cc0c0d35a0001294e6b	1	1	headphonecheck_testphase	5	test_collectResponse	18			0		first	1	474	6	4	antiphase_hc_sio.wav	1	0	0			1				0	
6.6.1	win	2023-06-27	14:54:28	0	0	59e27cc0c0d35a0001294e6b	1	1	stereocheck_calibration	7	stereocheck_calibrationIntro	1			0		stereocheck_calibrationButton	0	3304	6	4	antiphase_hc_sio.wav	1	0	0			1				0	
6.6.1	win	2023-06-27	14:54:28	0	0	59e27cc0c0d35a0001294e6b	1	1	stereocheck_testphase	8	stereocheck_test_collectResponse	3			0		stereocheck_left	1	407	6	4	antiphase_hc_sio.wav	1	1	2	noise_calib_stim_LEFT.wav	1	1				0	
6.6.1	win	2023-06-27	14:54:28	0	0	59e27cc0c0d35a0001294e6b	1	1	stereocheck_testphase	8	stereocheck_test_collectResponse	6			0		stereocheck_left	1	359	6	4	antiphase_hc_sio.wav	1	2	3	noise_calib_stim_LEFT.wav	1	1				0	
6.6.1	win	2023-06-27	14:54:28	0	0	59e27cc0c0d35a0001294e6b	1	1	stereocheck_testphase	8	stereocheck_test_collectResponse	9			0		stereocheck_right	1	364	6	4	antiphase_hc_sio.wav	1	3	6	noise_calib_stim_RIGHT.wav	2	1				0	
6.6.1	win	2023-06-27	14:54:28	0	0	59e27cc0c0d35a0001294e6b	1	1	stereocheck_testphase	8	stereocheck_test_collectResponse	12			0		stereocheck_left	1	329	6	4	antiphase_hc_sio.wav	1	4	1	noise_calib_stim_LEFT.wav	1	1				0	
6.6.1	win	2023-06-27	14:54:28	0	0	59e27cc0c0d35a0001294e6b	1	1	stereocheck_testphase	8	stereocheck_test_collectResponse	15			0		stereocheck_right	1	364	6	4	antiphase_hc_sio.wav	1	5	5	noise_calib_stim_RIGHT.wav	2	1				0	
6.6.1	win	2023-06-27	14:54:28	0	0	59e27cc0c0d35a0001294e6b	1	1	stereocheck_testphase	8	stereocheck_test_collectResponse	18			0		stereocheck_right	1	468	6	4	antiphase_hc_sio.wav	1	6	4	noise_calib_stim_RIGHT.wav	2	1				0	
6.6.1	win	2023-06-27	14:54:28	0	0	59e27cc0c0d35a0001294e6b	1	1	DL_practice	11	DL_practice	2			0		ka	1	1295	6	4	antiphase_hc_sio.wav	1	6	4	noise_calib_stim_RIGHT.wav	2	22	blb_dichoticlistening_ka-ka.mp3	ka	ka	0	left
6.6.1	win	2023-06-27	14:54:28	0	0	59e27cc0c0d35a0001294e6b	1	1	DL_practice	11	DL_practice	3			0		pa	1	1532	6	4	antiphase_hc_sio.wav	1	6	4	noise_calib_stim_RIGHT.wav	2	29	blb_dichoticlistening_pa-pa.mp3	pa	pa	0	left
6.6.1	win	2023-06-27	14:54:28	0	0	59e27cc0c0d35a0001294e6b	1	1	DL_practice	11	DL_practice	4			0		da	1	1133	6	4	antiphase_hc_sio.wav	1	6	4	noise_calib_stim_RIGHT.wav	2	8	blb_dichoticlistening_da-da.mp3	da	da	0	left
6.6.1	win	2023-06-27	14:54:28	0	0	59e27cc0c0d35a0001294e6b	1	1	DL_practice	11	DL_practice	5			0		ga	1	1137	6	4	antiphase_hc_sio.wav	1	6	4	noise_calib_stim_RIGHT.wav	2	15	blb_dichoticlistening_ga-ga.mp3	ga	ga	0	left
6.6.1	win	2023-06-27	14:54:28	0	0	59e27cc0c0d35a0001294e6b	1	1	DL_practice	11	DL_practice	6			0		ba	1	1935	6	4	antiphase_hc_sio.wav	1	6	4	noise_calib_stim_RIGHT.wav	2	7	blb_dichoticlistening_da-ba.mp3	da	ba	1	right
6.6.1	win	2023-06-27	14:54:28	0	0	59e27cc0c0d35a0001294e6b	1	1	DL_practice	11	DL_practice	7			0		ka	0	1115	6	4	antiphase_hc_sio.wav	1	6	4	noise_calib_stim_RIGHT.wav	2	18	blb_dichoticlistening_ga-ta.mp3	ga	ta	1	other
6.6.1	win	2023-06-27	14:54:28	0	0	59e27cc0c0d35a0001294e6b	1	1	DL_practice	11	DL_practice	8			0		ba	1	1441	6	4	antiphase_hc_sio.wav	1	6	4	noise_calib_stim_RIGHT.wav	2	1	blb_dichoticlistening_ba-ba.mp3	ba	ba	0	left
6.6.1	win	2023-06-27	14:54:28	0	0	59e27cc0c0d35a0001294e6b	1	1	DL_practice	11	DL_practice	9			0		ta	1	1283	6	4	antiphase_hc_sio.wav	1	6	4	noise_calib_stim_RIGHT.wav	2	36	blb_dichoticlistening_ta-ta.mp3	ta	ta	0	left
6.6.1	win	2023-06-27	14:54:28	0	0	59e27cc0c0d35a0001294e6b	1	1	DL_practice	11	DL_practice	10			0		pa	1	1609	6	4	antiphase_hc_sio.wav	1	6	4	noise_calib_stim_RIGHT.wav	2	23	blb_dichoticlistening_ka-pa.mp3	ka	pa	1	right
6.6.1	win	2023-06-27	14:54:28	0	0	59e27cc0c0d35a0001294e6b	1	1	DL_test	13	DL_test	1			0		pa	1	1486	6	4	antiphase_hc_sio.wav	1	6	4	noise_calib_stim_RIGHT.wav	2	23	blb_dichoticlistening_ka-pa.mp3	ka	pa	1	right
6.6.1	win	2023-06-27	14:54:28	0	0	59e27cc0c0d35a0001294e6b	1	1	DL_test	13	DL_test	2			0		ba	1	1355	6	4	antiphase_hc_sio.wav	1	6	4	noise_calib_stim_RIGHT.wav	2	7	blb_dichoticlistening_da-ba.mp3	da	ba	1	right
6.6.1	win	2023-06-27	14:54:28	0	0	59e27cc0c0d35a0001294e6b	1	1	DL_test	13	DL_test	3			0		ta	1	1163	6	4	antiphase_hc_sio.wav	1	6	4	noise_calib_stim_RIGHT.wav	2	36	blb_dichoticlistening_ta-ta.mp3	ta	ta	0	left
6.6.1	win	2023-06-27	14:54:28	0	0	59e27cc0c0d35a0001294e6b	1	1	DL_test	13	DL_test	4			0		pa	1	1721	6	4	antiphase_hc_sio.wav	1	6	4	noise_calib_stim_RIGHT.wav	2	17	blb_dichoticlistening_ga-pa.mp3	ga	pa	1	right
6.6.1	win	2023-06-27	14:54:28	0	0	59e27cc0c0d35a0001294e6b	1	1	DL_test	13	DL_test	5			0		ta	1	1865	6	4	antiphase_hc_sio.wav	1	6	4	noise_calib_stim_RIGHT.wav	2	35	blb_dichoticlistening_ta-pa.mp3	ta	pa	1	left
6.6.1	win	2023-06-27	14:54:28	0	0	59e27cc0c0d35a0001294e6b	1	1	DL_test	13	DL_test	6			0		ga	1	3525	6	4	antiphase_hc_sio.wav	1	6	4	noise_calib_stim_RIGHT.wav	2	21	blb_dichoticlistening_ka-ga.mp3	ka	ga	1	right
6.6.1	win	2023-06-27	14:54:28	0	0	59e27cc0c0d35a0001294e6b	1	1	DL_test	13	DL_test	7			0		ga	1	1417	6	4	antiphase_hc_sio.wav	1	6	4	noise_calib_stim_RIGHT.wav	2	33	blb_dichoticlistening_ta-ga.mp3	ta	ga	1	right
6.6.1	win	2023-06-27	14:54:28	0	0	59e27cc0c0d35a0001294e6b	1	1	DL_test	13	DL_test	8			0		ta	0	2535	6	4	antiphase_hc_sio.wav	1	6	4	noise_calib_stim_RIGHT.wav	2	26	blb_dichoticlistening_pa-da.mp3	pa	da	1	other
6.6.1	win	2023-06-27	14:54:28	0	0	59e27cc0c0d35a0001294e6b	1	1	DL_test	13	DL_test	9			0		pa	0	1425	6	4	antiphase_hc_sio.wav	1	6	4	noise_calib_stim_RIGHT.wav	2	31	blb_dichoticlistening_ta-ba.mp3	ta	ba	1	other
6.6.1	win	2023-06-27	14:54:28	0	0	59e27cc0c0d35a0001294e6b	1	1	DL_test	13	DL_test	10			0		ka	1	1183	6	4	antiphase_hc_sio.wav	1	6	4	noise_calib_stim_RIGHT.wav	2	20	blb_dichoticlistening_ka-da.mp3	ka	da	1	left
6.6.1	win	2023-06-27	14:54:28	0	0	59e27cc0c0d35a0001294e6b	1	1	DL_test	13	DL_test	11			0		ka	1	1250	6	4	antiphase_hc_sio.wav	1	6	4	noise_calib_stim_RIGHT.wav	2	19	blb_dichoticlistening_ka-ba.mp3	ka	ba	1	left
6.6.1	win	2023-06-27	14:54:28	0	0	59e27cc0c0d35a0001294e6b	1	1	DL_test	13	DL_test	12			0		da	1	1037	6	4	antiphase_hc_sio.wav	1	6	4	noise_calib_stim_RIGHT.wav	2	8	blb_dichoticlistening_da-da.mp3	da	da	0	left
6.6.1	win	2023-06-27	14:54:28	0	0	59e27cc0c0d35a0001294e6b	1	1	DL_test	13	DL_test	13			0		ka	1	1004	6	4	antiphase_hc_sio.wav	1	6	4	noise_calib_stim_RIGHT.wav	2	34	blb_dichoticlistening_ta-ka.mp3	ta	ka	1	right
6.6.1	win	2023-06-27	14:54:28	0	0	59e27cc0c0d35a0001294e6b	1	1	DL_test	13	DL_test	14			0		ba	1	1228	6	4	antiphase_hc_sio.wav	1	6	4	noise_calib_stim_RIGHT.wav	2	1	blb_dichoticlistening_ba-ba.mp3	ba	ba	0	left
6.6.1	win	2023-06-27	14:54:28	0	0	59e27cc0c0d35a0001294e6b	1	1	DL_test	13	DL_test	15			0		ka	0	1290	6	4	antiphase_hc_sio.wav	1	6	4	noise_calib_stim_RIGHT.wav	2	32	blb_dichoticlistening_ta-da.mp3	ta	da	1	other
6.6.1	win	2023-06-27	14:54:28	0	0	59e27cc0c0d35a0001294e6b	1	1	DL_test	13	DL_test	16			0		pa	1	994	6	4	antiphase_hc_sio.wav	1	6	4	noise_calib_stim_RIGHT.wav	2	25	blb_dichoticlistening_pa-ba.mp3	pa	ba	1	left
6.6.1	win	2023-06-27	14:54:28	0	0	59e27cc0c0d35a0001294e6b	1	1	DL_test	13	DL_test	17			0		pa	1	1617	6	4	antiphase_hc_sio.wav	1	6	4	noise_calib_stim_RIGHT.wav	2	27	blb_dichoticlistening_pa-ga.mp3	pa	ga	1	left
6.6.1	win	2023-06-27	14:54:28	0	0	59e27cc0c0d35a0001294e6b	1	1	DL_test	13	DL_test	18			0		ta	0	1512	6	4	antiphase_hc_sio.wav	1	6	4	noise_calib_stim_RIGHT.wav	2	28	blb_dichoticlistening_pa-ka.mp3	pa	ka	1	other
6.6.1	win	2023-06-27	14:54:28	0	0	59e27cc0c0d35a0001294e6b	1	1	DL_test	13	DL_test	19			0		pa	1	1141	6	4	antiphase_hc_sio.wav	1	6	4	noise_calib_stim_RIGHT.wav	2	5	blb_dichoticlistening_ba-pa.mp3	ba	pa	1	right
6.6.1	win	2023-06-27	14:54:28	0	0	59e27cc0c0d35a0001294e6b	1	1	DL_test	13	DL_test	20			0		pa	1	1014	6	4	antiphase_hc_sio.wav	1	6	4	noise_calib_stim_RIGHT.wav	2	11	blb_dichoticlistening_da-pa.mp3	da	pa	1	right
6.6.1	win	2023-06-27	14:54:28	0	0	59e27cc0c0d35a0001294e6b	1	1	DL_test	13	DL_test	21			0		ka	1	936	6	4	antiphase_hc_sio.wav	1	6	4	noise_calib_stim_RIGHT.wav	2	22	blb_dichoticlistening_ka-ka.mp3	ka	ka	0	left
6.6.1	win	2023-06-27	14:54:28	0	0	59e27cc0c0d35a0001294e6b	1	1	DL_test	13	DL_test	22			0		ta	1	1125	6	4	antiphase_hc_sio.wav	1	6	4	noise_calib_stim_RIGHT.wav	2	12	blb_dichoticlistening_da-ta.mp3	da	ta	1	right
6.6.1	win	2023-06-27	14:54:28	0	0	59e27cc0c0d35a0001294e6b	1	1	DL_test	13	DL_test	23			0		ka	1	1031	6	4	antiphase_hc_sio.wav	1	6	4	noise_calib_stim_RIGHT.wav	2	16	blb_dichoticlistening_ga-ka.mp3	ga	ka	1	right
6.6.1	win	2023-06-27	14:54:28	0	0	59e27cc0c0d35a0001294e6b	1	1	DL_test	13	DL_test	24			0		ba	1	1554	6	4	antiphase_hc_sio.wav	1	6	4	noise_calib_stim_RIGHT.wav	2	13	blb_dichoticlistening_ga-ba.mp3	ga	ba	1	right
6.6.1	win	2023-06-27	14:54:28	0	0	59e27cc0c0d35a0001294e6b	1	1	DL_test	13	DL_test	25			0		ka	1	1045	6	4	antiphase_hc_sio.wav	1	6	4	noise_calib_stim_RIGHT.wav	2	4	blb_dichoticlistening_ba-ka.mp3	ba	ka	1	right
6.6.1	win	2023-06-27	14:54:28	0	0	59e27cc0c0d35a0001294e6b	1	1	DL_test	13	DL_test	26			0		pa	1	1205	6	4	antiphase_hc_sio.wav	1	6	4	noise_calib_stim_RIGHT.wav	2	29	blb_dichoticlistening_pa-pa.mp3	pa	pa	0	left
6.6.1	win	2023-06-27	14:54:28	0	0	59e27cc0c0d35a0001294e6b	1	1	DL_test	13	DL_test	27			0		ga	1	1383	6	4	antiphase_hc_sio.wav	1	6	4	noise_calib_stim_RIGHT.wav	2	3	blb_dichoticlistening_ba-ga.mp3	ba	ga	1	right
6.6.1	win	2023-06-27	14:54:28	0	0	59e27cc0c0d35a0001294e6b	1	1	DL_test	13	DL_test	28			0		ga	1	1077	6	4	antiphase_hc_sio.wav	1	6	4	noise_calib_stim_RIGHT.wav	2	14	blb_dichoticlistening_ga-da.mp3	ga	da	1	left
6.6.1	win	2023-06-27	14:54:28	0	0	59e27cc0c0d35a0001294e6b	1	1	DL_test	13	DL_test	29			0		da	1	1012	6	4	antiphase_hc_sio.wav	1	6	4	noise_calib_stim_RIGHT.wav	2	2	blb_dichoticlistening_ba-da.mp3	ba	da	1	right
6.6.1	win	2023-06-27	14:54:28	0	0	59e27cc0c0d35a0001294e6b	1	1	DL_test	13	DL_test	30			0		ta	1	1162	6	4	antiphase_hc_sio.wav	1	6	4	noise_calib_stim_RIGHT.wav	2	18	blb_dichoticlistening_ga-ta.mp3	ga	ta	1	right
6.6.1	win	2023-06-27	14:54:28	0	0	59e27cc0c0d35a0001294e6b	1	1	DL_test	13	DL_test	31			0		pa	0	1452	6	4	antiphase_hc_sio.wav	1	6	4	noise_calib_stim_RIGHT.wav	2	10	blb_dichoticlistening_da-ka.mp3	da	ka	1	other
6.6.1	win	2023-06-27	14:54:28	0	0	59e27cc0c0d35a0001294e6b	1	1	DL_test	13	DL_test	32			0		ka	1	1087	6	4	antiphase_hc_sio.wav	1	6	4	noise_calib_stim_RIGHT.wav	2	24	blb_dichoticlistening_ka-ta.mp3	ka	ta	1	left
6.6.1	win	2023-06-27	14:54:28	0	0	59e27cc0c0d35a0001294e6b	1	1	DL_test	13	DL_test	33			0		ta	1	1447	6	4	antiphase_hc_sio.wav	1	6	4	noise_calib_stim_RIGHT.wav	2	30	blb_dichoticlistening_pa-ta.mp3	pa	ta	1	right
6.6.1	win	2023-06-27	14:54:28	0	0	59e27cc0c0d35a0001294e6b	1	1	DL_test	13	DL_test	34			0		ta	1	1168	6	4	antiphase_hc_sio.wav	1	6	4	noise_calib_stim_RIGHT.wav	2	6	blb_dichoticlistening_ba-ta.mp3	ba	ta	1	right
6.6.1	win	2023-06-27	14:54:28	0	0	59e27cc0c0d35a0001294e6b	1	1	DL_test	13	DL_test	35			0		ga	1	1229	6	4	antiphase_hc_sio.wav	1	6	4	noise_calib_stim_RIGHT.wav	2	9	blb_dichoticlistening_da-ga.mp3	da	ga	1	right
6.6.1	win	2023-06-27	14:54:28	0	0	59e27cc0c0d35a0001294e6b	1	1	DL_test	13	DL_test	36			0		ga	1	1004	6	4	antiphase_hc_sio.wav	1	6	4	noise_calib_stim_RIGHT.wav	2	15	blb_dichoticlistening_ga-ga.mp3	ga	ga	0	left
6.6.1	win	2023-06-27	14:54:28	0	0	59e27cc0c0d35a0001294e6b	1	1	DL_test	14	DL_test	1			0		ka	1	1044	6	4	antiphase_hc_sio.wav	1	6	4	noise_calib_stim_RIGHT.wav	2	20	blb_dichoticlistening_ka-da.mp3	ka	da	1	left
6.6.1	win	2023-06-27	14:54:28	0	0	59e27cc0c0d35a0001294e6b	1	1	DL_test	14	DL_test	2			0		ka	1	1127	6	4	antiphase_hc_sio.wav	1	6	4	noise_calib_stim_RIGHT.wav	2	22	blb_dichoticlistening_ka-ka.mp3	ka	ka	0	left
6.6.1	win	2023-06-27	14:54:28	0	0	59e27cc0c0d35a0001294e6b	1	1	DL_test	14	DL_test	3			0		pa	1	1172	6	4	antiphase_hc_sio.wav	1	6	4	noise_calib_stim_RIGHT.wav	2	25	blb_dichoticlistening_pa-ba.mp3	pa	ba	1	left
6.6.1	win	2023-06-27	14:54:28	0	0	59e27cc0c0d35a0001294e6b	1	1	DL_test	14	DL_test	4			0		ta	1	1235	6	4	antiphase_hc_sio.wav	1	6	4	noise_calib_stim_RIGHT.wav	2	32	blb_dichoticlistening_ta-da.mp3	ta	da	1	left
6.6.1	win	2023-06-27	14:54:28	0	0	59e27cc0c0d35a0001294e6b	1	1	DL_test	14	DL_test	5			0		pa	0	1093	6	4	antiphase_hc_sio.wav	1	6	4	noise_calib_stim_RIGHT.wav	2	10	blb_dichoticlistening_da-ka.mp3	da	ka	1	other
6.6.1	win	2023-06-27	14:54:28	0	0	59e27cc0c0d35a0001294e6b	1	1	DL_test	14	DL_test	6			0		ta	1	1117	6	4	antiphase_hc_sio.wav	1	6	4	noise_calib_stim_RIGHT.wav	2	12	blb_dichoticlistening_da-ta.mp3	da	ta	1	right
6.6.1	win	2023-06-27	14:54:28	0	0	59e27cc0c0d35a0001294e6b	1	1	DL_test	14	DL_test	7			0		ka	0	1139	6	4	antiphase_hc_sio.wav	1	6	4	noise_calib_stim_RIGHT.wav	2	31	blb_dichoticlistening_ta-ba.mp3	ta	ba	1	other
6.6.1	win	2023-06-27	14:54:28	0	0	59e27cc0c0d35a0001294e6b	1	1	DL_test	14	DL_test	8			0		ka	1	1100	6	4	antiphase_hc_sio.wav	1	6	4	noise_calib_stim_RIGHT.wav	2	28	blb_dichoticlistening_pa-ka.mp3	pa	ka	1	right
6.6.1	win	2023-06-27	14:54:28	0	0	59e27cc0c0d35a0001294e6b	1	1	DL_test	14	DL_test	9			0		ka	1	1223	6	4	antiphase_hc_sio.wav	1	6	4	noise_calib_stim_RIGHT.wav	2	21	blb_dichoticlistening_ka-ga.mp3	ka	ga	1	left
6.6.1	win	2023-06-27	14:54:28	0	0	59e27cc0c0d35a0001294e6b	1	1	DL_test	14	DL_test	10			0		ta	1	1118	6	4	antiphase_hc_sio.wav	1	6	4	noise_calib_stim_RIGHT.wav	2	6	blb_dichoticlistening_ba-ta.mp3	ba	ta	1	right
6.6.1	win	2023-06-27	14:54:28	0	0	59e27cc0c0d35a0001294e6b	1	1	DL_test	14	DL_test	11			0		ka	1	902	6	4	antiphase_hc_sio.wav	1	6	4	noise_calib_stim_RIGHT.wav	2	34	blb_dichoticlistening_ta-ka.mp3	ta	ka	1	right
6.6.1	win	2023-06-27	14:54:28	0	0	59e27cc0c0d35a0001294e6b	1	1	DL_test	14	DL_test	12			0		pa	1	2092	6	4	antiphase_hc_sio.wav	1	6	4	noise_calib_stim_RIGHT.wav	2	11	blb_dichoticlistening_da-pa.mp3	da	pa	1	right
6.6.1	win	2023-06-27	14:54:28	0	0	59e27cc0c0d35a0001294e6b	1	1	DL_test	14	DL_test	13			0		ka	0	1011	6	4	antiphase_hc_sio.wav	1	6	4	noise_calib_stim_RIGHT.wav	2	33	blb_dichoticlistening_ta-ga.mp3	ta	ga	1	other
6.6.1	win	2023-06-27	14:54:28	0	0	59e27cc0c0d35a0001294e6b	1	1	DL_test	14	DL_test	14			0		ka	1	1693	6	4	antiphase_hc_sio.wav	1	6	4	noise_calib_stim_RIGHT.wav	2	24	blb_dichoticlistening_ka-ta.mp3	ka	ta	1	left
6.6.1	win	2023-06-27	14:54:28	0	0	59e27cc0c0d35a0001294e6b	1	1	DL_test	14	DL_test	15			0		ka	1	1162	6	4	antiphase_hc_sio.wav	1	6	4	noise_calib_stim_RIGHT.wav	2	19	blb_dichoticlistening_ka-ba.mp3	ka	ba	1	left
6.6.1	win	2023-06-27	14:54:28	0	0	59e27cc0c0d35a0001294e6b	1	1	DL_test	14	DL_test	16			0		ta	1	1090	6	4	antiphase_hc_sio.wav	1	6	4	noise_calib_stim_RIGHT.wav	2	30	blb_dichoticlistening_pa-ta.mp3	pa	ta	1	right
6.6.1	win	2023-06-27	14:54:28	0	0	59e27cc0c0d35a0001294e6b	1	1	DL_test	14	DL_test	17			0		pa	1	1409	6	4	antiphase_hc_sio.wav	1	6	4	noise_calib_stim_RIGHT.wav	2	5	blb_dichoticlistening_ba-pa.mp3	ba	pa	1	right
6.6.1	win	2023-06-27	14:54:28	0	0	59e27cc0c0d35a0001294e6b	1	1	DL_test	14	DL_test	18			0		pa	1	1064	6	4	antiphase_hc_sio.wav	1	6	4	noise_calib_stim_RIGHT.wav	2	17	blb_dichoticlistening_ga-pa.mp3	ga	pa	1	right
6.6.1	win	2023-06-27	14:54:28	0	0	59e27cc0c0d35a0001294e6b	1	1	DL_test	14	DL_test	19			0		da	1	1081	6	4	antiphase_hc_sio.wav	1	6	4	noise_calib_stim_RIGHT.wav	2	7	blb_dichoticlistening_da-ba.mp3	da	ba	1	left
6.6.1	win	2023-06-27	14:54:28	0	0	59e27cc0c0d35a0001294e6b	1	1	DL_test	14	DL_test	20			0		ka	1	929	6	4	antiphase_hc_sio.wav	1	6	4	noise_calib_stim_RIGHT.wav	2	16	blb_dichoticlistening_ga-ka.mp3	ga	ka	1	right
6.6.1	win	2023-06-27	14:54:28	0	0	59e27cc0c0d35a0001294e6b	1	1	DL_test	14	DL_test	21			0		ga	1	1042	6	4	antiphase_hc_sio.wav	1	6	4	noise_calib_stim_RIGHT.wav	2	9	blb_dichoticlistening_da-ga.mp3	da	ga	1	right
6.6.1	win	2023-06-27	14:54:28	0	0	59e27cc0c0d35a0001294e6b	1	1	DL_test	14	DL_test	22			0		pa	1	1086	6	4	antiphase_hc_sio.wav	1	6	4	noise_calib_stim_RIGHT.wav	2	26	blb_dichoticlistening_pa-da.mp3	pa	da	1	left
6.6.1	win	2023-06-27	14:54:28	0	0	59e27cc0c0d35a0001294e6b	1	1	DL_test	14	DL_test	23			0		pa	1	2620	6	4	antiphase_hc_sio.wav	1	6	4	noise_calib_stim_RIGHT.wav	2	35	blb_dichoticlistening_ta-pa.mp3	ta	pa	1	right
6.6.1	win	2023-06-27	14:54:28	0	0	59e27cc0c0d35a0001294e6b	1	1	DL_test	14	DL_test	24			0		ga	1	1089	6	4	antiphase_hc_sio.wav	1	6	4	noise_calib_stim_RIGHT.wav	2	14	blb_dichoticlistening_ga-da.mp3	ga	da	1	left
6.6.1	win	2023-06-27	14:54:28	0	0	59e27cc0c0d35a0001294e6b	1	1	DL_test	14	DL_test	25			0		pa	1	1025	6	4	antiphase_hc_sio.wav	1	6	4	noise_calib_stim_RIGHT.wav	2	29	blb_dichoticlistening_pa-pa.mp3	pa	pa	0	left
6.6.1	win	2023-06-27	14:54:28	0	0	59e27cc0c0d35a0001294e6b	1	1	DL_test	14	DL_test	26			0		ka	0	986	6	4	antiphase_hc_sio.wav	1	6	4	noise_calib_stim_RIGHT.wav	2	18	blb_dichoticlistening_ga-ta.mp3	ga	ta	1	other
6.6.1	win	2023-06-27	14:54:28	0	0	59e27cc0c0d35a0001294e6b	1	1	DL_test	14	DL_test	27			0		ka	1	1102	6	4	antiphase_hc_sio.wav	1	6	4	noise_calib_stim_RIGHT.wav	2	4	blb_dichoticlistening_ba-ka.mp3	ba	ka	1	right
6.6.1	win	2023-06-27	14:54:28	0	0	59e27cc0c0d35a0001294e6b	1	1	DL_test	14	DL_test	28			0		ga	1	914	6	4	antiphase_hc_sio.wav	1	6	4	noise_calib_stim_RIGHT.wav	2	15	blb_dichoticlistening_ga-ga.mp3	ga	ga	0	left
6.6.1	win	2023-06-27	14:54:28	0	0	59e27cc0c0d35a0001294e6b	1	1	DL_test	14	DL_test	29			0		ga	1	912	6	4	antiphase_hc_sio.wav	1	6	4	noise_calib_stim_RIGHT.wav	2	3	blb_dichoticlistening_ba-ga.mp3	ba	ga	1	right
6.6.1	win	2023-06-27	14:54:28	0	0	59e27cc0c0d35a0001294e6b	1	1	DL_test	14	DL_test	30			0		pa	1	1026	6	4	antiphase_hc_sio.wav	1	6	4	noise_calib_stim_RIGHT.wav	2	23	blb_dichoticlistening_ka-pa.mp3	ka	pa	1	right
6.6.1	win	2023-06-27	14:54:28	0	0	59e27cc0c0d35a0001294e6b	1	1	DL_test	14	DL_test	31			0		ba	1	1267	6	4	antiphase_hc_sio.wav	1	6	4	noise_calib_stim_RIGHT.wav	2	13	blb_dichoticlistening_ga-ba.mp3	ga	ba	1	right
6.6.1	win	2023-06-27	14:54:28	0	0	59e27cc0c0d35a0001294e6b	1	1	DL_test	14	DL_test	32			0		da	1	1103	6	4	antiphase_hc_sio.wav	1	6	4	noise_calib_stim_RIGHT.wav	2	2	blb_dichoticlistening_ba-da.mp3	ba	da	1	right
6.6.1	win	2023-06-27	14:54:28	0	0	59e27cc0c0d35a0001294e6b	1	1	DL_test	14	DL_test	33			0		ta	1	1118	6	4	antiphase_hc_sio.wav	1	6	4	noise_calib_stim_RIGHT.wav	2	36	blb_dichoticlistening_ta-ta.mp3	ta	ta	0	left
6.6.1	win	2023-06-27	14:54:28	0	0	59e27cc0c0d35a0001294e6b	1	1	DL_test	14	DL_test	34			0		ka	0	1094	6	4	antiphase_hc_sio.wav	1	6	4	noise_calib_stim_RIGHT.wav	2	27	blb_dichoticlistening_pa-ga.mp3	pa	ga	1	other
6.6.1	win	2023-06-27	14:54:28	0	0	59e27cc0c0d35a0001294e6b	1	1	DL_test	14	DL_test	35			0		ba	1	1035	6	4	antiphase_hc_sio.wav	1	6	4	noise_calib_stim_RIGHT.wav	2	1	blb_dichoticlistening_ba-ba.mp3	ba	ba	0	left
6.6.1	win	2023-06-27	14:54:28	0	0	59e27cc0c0d35a0001294e6b	1	1	DL_test	14	DL_test	36			0		da	1	1107	6	4	antiphase_hc_sio.wav	1	6	4	noise_calib_stim_RIGHT.wav	2	8	blb_dichoticlistening_da-da.mp3	da	da	0	left
6.6.1	win	2023-06-27	14:54:28	0	0	59e27cc0c0d35a0001294e6b	1	1	DL_test	15	DL_test	1			0		ka	0	1027	6	4	antiphase_hc_sio.wav	1	6	4	noise_calib_stim_RIGHT.wav	2	31	blb_dichoticlistening_ta-ba.mp3	ta	ba	1	other
6.6.1	win	2023-06-27	14:54:28	0	0	59e27cc0c0d35a0001294e6b	1	1	DL_test	15	DL_test	2			0		ka	1	912	6	4	antiphase_hc_sio.wav	1	6	4	noise_calib_stim_RIGHT.wav	2	28	blb_dichoticlistening_pa-ka.mp3	pa	ka	1	right
6.6.1	win	2023-06-27	14:54:28	0	0	59e27cc0c0d35a0001294e6b	1	1	DL_test	15	DL_test	3			0		da	1	1012	6	4	antiphase_hc_sio.wav	1	6	4	noise_calib_stim_RIGHT.wav	2	2	blb_dichoticlistening_ba-da.mp3	ba	da	1	right
6.6.1	win	2023-06-27	14:54:28	0	0	59e27cc0c0d35a0001294e6b	1	1	DL_test	15	DL_test	4			0		ga	1	950	6	4	antiphase_hc_sio.wav	1	6	4	noise_calib_stim_RIGHT.wav	2	3	blb_dichoticlistening_ba-ga.mp3	ba	ga	1	right
6.6.1	win	2023-06-27	14:54:28	0	0	59e27cc0c0d35a0001294e6b	1	1	DL_test	15	DL_test	5			0		ga	1	841	6	4	antiphase_hc_sio.wav	1	6	4	noise_calib_stim_RIGHT.wav	2	15	blb_dichoticlistening_ga-ga.mp3	ga	ga	0	left
6.6.1	win	2023-06-27	14:54:28	0	0	59e27cc0c0d35a0001294e6b	1	1	DL_test	15	DL_test	6			0		ta	1	1004	6	4	antiphase_hc_sio.wav	1	6	4	noise_calib_stim_RIGHT.wav	2	30	blb_dichoticlistening_pa-ta.mp3	pa	ta	1	right
6.6.1	win	2023-06-27	14:54:28	0	0	59e27cc0c0d35a0001294e6b	1	1	DL_test	15	DL_test	7			0		da	1	975	6	4	antiphase_hc_sio.wav	1	6	4	noise_calib_stim_RIGHT.wav	2	8	blb_dichoticlistening_da-da.mp3	da	da	0	left
6.6.1	win	2023-06-27	14:54:28	0	0	59e27cc0c0d35a0001294e6b	1	1	DL_test	15	DL_test	8			0		ka	1	1037	6	4	antiphase_hc_sio.wav	1	6	4	noise_calib_stim_RIGHT.wav	2	19	blb_dichoticlistening_ka-ba.mp3	ka	ba	1	left
6.6.1	win	2023-06-27	14:54:28	0	0	59e27cc0c0d35a0001294e6b	1	1	DL_test	15	DL_test	9			0		ka	0	1307	6	4	antiphase_hc_sio.wav	1	6	4	noise_calib_stim_RIGHT.wav	2	27	blb_dichoticlistening_pa-ga.mp3	pa	ga	1	other
6.6.1	win	2023-06-27	14:54:28	0	0	59e27cc0c0d35a0001294e6b	1	1	DL_test	15	DL_test	10			0		ka	1	1024	6	4	antiphase_hc_sio.wav	1	6	4	noise_calib_stim_RIGHT.wav	2	4	blb_dichoticlistening_ba-ka.mp3	ba	ka	1	right
6.6.1	win	2023-06-27	14:54:28	0	0	59e27cc0c0d35a0001294e6b	1	1	DL_test	15	DL_test	11			0		pa	1	1334	6	4	antiphase_hc_sio.wav	1	6	4	noise_calib_stim_RIGHT.wav	2	23	blb_dichoticlistening_ka-pa.mp3	ka	pa	1	right
6.6.1	win	2023-06-27	14:54:28	0	0	59e27cc0c0d35a0001294e6b	1	1	DL_test	15	DL_test	12			0		ka	1	963	6	4	antiphase_hc_sio.wav	1	6	4	noise_calib_stim_RIGHT.wav	2	22	blb_dichoticlistening_ka-ka.mp3	ka	ka	0	left
6.6.1	win	2023-06-27	14:54:28	0	0	59e27cc0c0d35a0001294e6b	1	1	DL_test	15	DL_test	13			0		ka	1	1014	6	4	antiphase_hc_sio.wav	1	6	4	noise_calib_stim_RIGHT.wav	2	24	blb_dichoticlistening_ka-ta.mp3	ka	ta	1	left
6.6.1	win	2023-06-27	14:54:28	0	0	59e27cc0c0d35a0001294e6b	1	1	DL_test	15	DL_test	14			0		pa	1	1058	6	4	antiphase_hc_sio.wav	1	6	4	noise_calib_stim_RIGHT.wav	2	5	blb_dichoticlistening_ba-pa.mp3	ba	pa	1	right
6.6.1	win	2023-06-27	14:54:28	0	0	59e27cc0c0d35a0001294e6b	1	1	DL_test	15	DL_test	15			0		ta	1	1369	6	4	antiphase_hc_sio.wav	1	6	4	noise_calib_stim_RIGHT.wav	2	36	blb_dichoticlistening_ta-ta.mp3	ta	ta	0	left
6.6.1	win	2023-06-27	14:54:28	0	0	59e27cc0c0d35a0001294e6b	1	1	DL_test	15	DL_test	16			0		ga	1	1015	6	4	antiphase_hc_sio.wav	1	6	4	noise_calib_stim_RIGHT.wav	2	14	blb_dichoticlistening_ga-da.mp3	ga	da	1	left
6.6.1	win	2023-06-27	14:54:28	0	0	59e27cc0c0d35a0001294e6b	1	1	DL_test	15	DL_test	17			0		ba	1	1278	6	4	antiphase_hc_sio.wav	1	6	4	noise_calib_stim_RIGHT.wav	2	1	blb_dichoticlistening_ba-ba.mp3	ba	ba	0	left
6.6.1	win	2023-06-27	14:54:28	0	0	59e27cc0c0d35a0001294e6b	1	1	DL_test	15	DL_test	18			0		ta	1	1472	6	4	antiphase_hc_sio.wav	1	6	4	noise_calib_stim_RIGHT.wav	2	32	blb_dichoticlistening_ta-da.mp3	ta	da	1	left
6.6.1	win	2023-06-27	14:54:28	0	0	59e27cc0c0d35a0001294e6b	1	1	DL_test	15	DL_test	19			0		pa	1	1451	6	4	antiphase_hc_sio.wav	1	6	4	noise_calib_stim_RIGHT.wav	2	25	blb_dichoticlistening_pa-ba.mp3	pa	ba	1	left
6.6.1	win	2023-06-27	14:54:28	0	0	59e27cc0c0d35a0001294e6b	1	1	DL_test	15	DL_test	20			0		ba	1	1414	6	4	antiphase_hc_sio.wav	1	6	4	noise_calib_stim_RIGHT.wav	2	13	blb_dichoticlistening_ga-ba.mp3	ga	ba	1	right
6.6.1	win	2023-06-27	14:54:28	0	0	59e27cc0c0d35a0001294e6b	1	1	DL_test	15	DL_test	21			0		ba	1	2114	6	4	antiphase_hc_sio.wav	1	6	4	noise_calib_stim_RIGHT.wav	2	7	blb_dichoticlistening_da-ba.mp3	da	ba	1	right
6.6.1	win	2023-06-27	14:54:28	0	0	59e27cc0c0d35a0001294e6b	1	1	DL_test	15	DL_test	22			0		pa	1	1095	6	4	antiphase_hc_sio.wav	1	6	4	noise_calib_stim_RIGHT.wav	2	17	blb_dichoticlistening_ga-pa.mp3	ga	pa	1	right
6.6.1	win	2023-06-27	14:54:28	0	0	59e27cc0c0d35a0001294e6b	1	1	DL_test	15	DL_test	23			0		ka	0	1078	6	4	antiphase_hc_sio.wav	1	6	4	noise_calib_stim_RIGHT.wav	2	18	blb_dichoticlistening_ga-ta.mp3	ga	ta	1	other
6.6.1	win	2023-06-27	14:54:28	0	0	59e27cc0c0d35a0001294e6b	1	1	DL_test	15	DL_test	24			0		ta	1	1121	6	4	antiphase_hc_sio.wav	1	6	4	noise_calib_stim_RIGHT.wav	2	12	blb_dichoticlistening_da-ta.mp3	da	ta	1	right
6.6.1	win	2023-06-27	14:54:28	0	0	59e27cc0c0d35a0001294e6b	1	1	DL_test	15	DL_test	25			0		pa	1	1153	6	4	antiphase_hc_sio.wav	1	6	4	noise_calib_stim_RIGHT.wav	2	11	blb_dichoticlistening_da-pa.mp3	da	pa	1	right
6.6.1	win	2023-06-27	14:54:28	0	0	59e27cc0c0d35a0001294e6b	1	1	DL_test	15	DL_test	26			0		ka	0	1392	6	4	antiphase_hc_sio.wav	1	6	4	noise_calib_stim_RIGHT.wav	2	33	blb_dichoticlistening_ta-ga.mp3	ta	ga	1	other
6.6.1	win	2023-06-27	14:54:28	0	0	59e27cc0c0d35a0001294e6b	1	1	DL_test	15	DL_test	27			0		pa	1	1297	6	4	antiphase_hc_sio.wav	1	6	4	noise_calib_stim_RIGHT.wav	2	26	blb_dichoticlistening_pa-da.mp3	pa	da	1	left
6.6.1	win	2023-06-27	14:54:28	0	0	59e27cc0c0d35a0001294e6b	1	1	DL_test	15	DL_test	28			0		ga	1	962	6	4	antiphase_hc_sio.wav	1	6	4	noise_calib_stim_RIGHT.wav	2	9	blb_dichoticlistening_da-ga.mp3	da	ga	1	right
6.6.1	win	2023-06-27	14:54:28	0	0	59e27cc0c0d35a0001294e6b	1	1	DL_test	15	DL_test	29			0		pa	1	1382	6	4	antiphase_hc_sio.wav	1	6	4	noise_calib_stim_RIGHT.wav	2	29	blb_dichoticlistening_pa-pa.mp3	pa	pa	0	left
6.6.1	win	2023-06-27	14:54:28	0	0	59e27cc0c0d35a0001294e6b	1	1	DL_test	15	DL_test	30			0		ka	1	924	6	4	antiphase_hc_sio.wav	1	6	4	noise_calib_stim_RIGHT.wav	2	21	blb_dichoticlistening_ka-ga.mp3	ka	ga	1	left
6.6.1	win	2023-06-27	14:54:28	0	0	59e27cc0c0d35a0001294e6b	1	1	DL_test	15	DL_test	31			0		ka	0	1136	6	4	antiphase_hc_sio.wav	1	6	4	noise_calib_stim_RIGHT.wav	2	6	blb_dichoticlistening_ba-ta.mp3	ba	ta	1	other
6.6.1	win	2023-06-27	14:54:28	0	0	59e27cc0c0d35a0001294e6b	1	1	DL_test	15	DL_test	32			0		ka	1	1031	6	4	antiphase_hc_sio.wav	1	6	4	noise_calib_stim_RIGHT.wav	2	16	blb_dichoticlistening_ga-ka.mp3	ga	ka	1	right
6.6.1	win	2023-06-27	14:54:28	0	0	59e27cc0c0d35a0001294e6b	1	1	DL_test	15	DL_test	33			0		pa	1	1326	6	4	antiphase_hc_sio.wav	1	6	4	noise_calib_stim_RIGHT.wav	2	35	blb_dichoticlistening_ta-pa.mp3	ta	pa	1	right
6.6.1	win	2023-06-27	14:54:28	0	0	59e27cc0c0d35a0001294e6b	1	1	DL_test	15	DL_test	34			0		ka	1	992	6	4	antiphase_hc_sio.wav	1	6	4	noise_calib_stim_RIGHT.wav	2	34	blb_dichoticlistening_ta-ka.mp3	ta	ka	1	right
6.6.1	win	2023-06-27	14:54:28	0	0	59e27cc0c0d35a0001294e6b	1	1	DL_test	15	DL_test	35			0		pa	0	1086	6	4	antiphase_hc_sio.wav	1	6	4	noise_calib_stim_RIGHT.wav	2	10	blb_dichoticlistening_da-ka.mp3	da	ka	1	other
6.6.1	win	2023-06-27	14:54:28	0	0	59e27cc0c0d35a0001294e6b	1	1	DL_test	15	DL_test	36			0		ka	1	1211	6	4	antiphase_hc_sio.wav	1	6	4	noise_calib_stim_RIGHT.wav	2	20	blb_dichoticlistening_ka-da.mp3	ka	da	1	left
6.6.1	win	2023-06-27	14:54:28	0	0	59e27cc0c0d35a0001294e6b	1	1	DL_test	16	DL_test	1			0		pa	1	1032	6	4	antiphase_hc_sio.wav	1	6	4	noise_calib_stim_RIGHT.wav	2	26	blb_dichoticlistening_pa-da.mp3	pa	da	1	left
6.6.1	win	2023-06-27	14:54:28	0	0	59e27cc0c0d35a0001294e6b	1	1	DL_test	16	DL_test	2			0		pa	1	970	6	4	antiphase_hc_sio.wav	1	6	4	noise_calib_stim_RIGHT.wav	2	11	blb_dichoticlistening_da-pa.mp3	da	pa	1	right
6.6.1	win	2023-06-27	14:54:28	0	0	59e27cc0c0d35a0001294e6b	1	1	DL_test	16	DL_test	3			0		ta	1	1027	6	4	antiphase_hc_sio.wav	1	6	4	noise_calib_stim_RIGHT.wav	2	12	blb_dichoticlistening_da-ta.mp3	da	ta	1	right
6.6.1	win	2023-06-27	14:54:28	0	0	59e27cc0c0d35a0001294e6b	1	1	DL_test	16	DL_test	4			0		ta	1	1019	6	4	antiphase_hc_sio.wav	1	6	4	noise_calib_stim_RIGHT.wav	2	6	blb_dichoticlistening_ba-ta.mp3	ba	ta	1	right
6.6.1	win	2023-06-27	14:54:28	0	0	59e27cc0c0d35a0001294e6b	1	1	DL_test	16	DL_test	5			0		pa	1	956	6	4	antiphase_hc_sio.wav	1	6	4	noise_calib_stim_RIGHT.wav	2	25	blb_dichoticlistening_pa-ba.mp3	pa	ba	1	left
6.6.1	win	2023-06-27	14:54:28	0	0	59e27cc0c0d35a0001294e6b	1	1	DL_test	16	DL_test	6			0		ka	1	1506	6	4	antiphase_hc_sio.wav	1	6	4	noise_calib_stim_RIGHT.wav	2	16	blb_dichoticlistening_ga-ka.mp3	ga	ka	1	right
6.6.1	win	2023-06-27	14:54:28	0	0	59e27cc0c0d35a0001294e6b	1	1	DL_test	16	DL_test	7			0		pa	1	1010	6	4	antiphase_hc_sio.wav	1	6	4	noise_calib_stim_RIGHT.wav	2	17	blb_dichoticlistening_ga-pa.mp3	ga	pa	1	right
6.6.1	win	2023-06-27	14:54:28	0	0	59e27cc0c0d35a0001294e6b	1	1	DL_test	16	DL_test	8			0		da	0	1162	6	4	antiphase_hc_sio.wav	1	6	4	noise_calib_stim_RIGHT.wav	2	1	blb_dichoticlistening_ba-ba.mp3	ba	ba	0	other
6.6.1	win	2023-06-27	14:54:28	0	0	59e27cc0c0d35a0001294e6b	1	1	DL_test	16	DL_test	9			0		ka	1	1561	6	4	antiphase_hc_sio.wav	1	6	4	noise_calib_stim_RIGHT.wav	2	21	blb_dichoticlistening_ka-ga.mp3	ka	ga	1	left
6.6.1	win	2023-06-27	14:54:28	0	0	59e27cc0c0d35a0001294e6b	1	1	DL_test	16	DL_test	10			0		ga	0	4091	6	4	antiphase_hc_sio.wav	1	6	4	noise_calib_stim_RIGHT.wav	2	7	blb_dichoticlistening_da-ba.mp3	da	ba	1	other
6.6.1	win	2023-06-27	14:54:28	0	0	59e27cc0c0d35a0001294e6b	1	1	DL_test	16	DL_test	11			0		da	1	1197	6	4	antiphase_hc_sio.wav	1	6	4	noise_calib_stim_RIGHT.wav	2	2	blb_dichoticlistening_ba-da.mp3	ba	da	1	right
6.6.1	win	2023-06-27	14:54:28	0	0	59e27cc0c0d35a0001294e6b	1	1	DL_test	16	DL_test	12			0		da	1	1038	6	4	antiphase_hc_sio.wav	1	6	4	noise_calib_stim_RIGHT.wav	2	8	blb_dichoticlistening_da-da.mp3	da	da	0	left
6.6.1	win	2023-06-27	14:54:28	0	0	59e27cc0c0d35a0001294e6b	1	1	DL_test	16	DL_test	13			0		ta	1	1116	6	4	antiphase_hc_sio.wav	1	6	4	noise_calib_stim_RIGHT.wav	2	36	blb_dichoticlistening_ta-ta.mp3	ta	ta	0	left
6.6.1	win	2023-06-27	14:54:28	0	0	59e27cc0c0d35a0001294e6b	1	1	DL_test	16	DL_test	14			0		ka	1	1063	6	4	antiphase_hc_sio.wav	1	6	4	noise_calib_stim_RIGHT.wav	2	34	blb_dichoticlistening_ta-ka.mp3	ta	ka	1	right
6.6.1	win	2023-06-27	14:54:28	0	0	59e27cc0c0d35a0001294e6b	1	1	DL_test	16	DL_test	15			0		pa	1	1626	6	4	antiphase_hc_sio.wav	1	6	4	noise_calib_stim_RIGHT.wav	2	5	blb_dichoticlistening_ba-pa.mp3	ba	pa	1	right
6.6.1	win	2023-06-27	14:54:28	0	0	59e27cc0c0d35a0001294e6b	1	1	DL_test	16	DL_test	16			0		ka	0	1692	6	4	antiphase_hc_sio.wav	1	6	4	noise_calib_stim_RIGHT.wav	2	31	blb_dichoticlistening_ta-ba.mp3	ta	ba	1	other
6.6.1	win	2023-06-27	14:54:28	0	0	59e27cc0c0d35a0001294e6b	1	1	DL_test	16	DL_test	17			0		pa	0	1029	6	4	antiphase_hc_sio.wav	1	6	4	noise_calib_stim_RIGHT.wav	2	10	blb_dichoticlistening_da-ka.mp3	da	ka	1	other
6.6.1	win	2023-06-27	14:54:28	0	0	59e27cc0c0d35a0001294e6b	1	1	DL_test	16	DL_test	18			0		pa	1	978	6	4	antiphase_hc_sio.wav	1	6	4	noise_calib_stim_RIGHT.wav	2	23	blb_dichoticlistening_ka-pa.mp3	ka	pa	1	right
6.6.1	win	2023-06-27	14:54:28	0	0	59e27cc0c0d35a0001294e6b	1	1	DL_test	16	DL_test	19			0		ga	1	977	6	4	antiphase_hc_sio.wav	1	6	4	noise_calib_stim_RIGHT.wav	2	3	blb_dichoticlistening_ba-ga.mp3	ba	ga	1	right
6.6.1	win	2023-06-27	14:54:28	0	0	59e27cc0c0d35a0001294e6b	1	1	DL_test	16	DL_test	20			0		ka	1	999	6	4	antiphase_hc_sio.wav	1	6	4	noise_calib_stim_RIGHT.wav	2	28	blb_dichoticlistening_pa-ka.mp3	pa	ka	1	right
6.6.1	win	2023-06-27	14:54:28	0	0	59e27cc0c0d35a0001294e6b	1	1	DL_test	16	DL_test	21			0		ka	1	898	6	4	antiphase_hc_sio.wav	1	6	4	noise_calib_stim_RIGHT.wav	2	22	blb_dichoticlistening_ka-ka.mp3	ka	ka	0	left
6.6.1	win	2023-06-27	14:54:28	0	0	59e27cc0c0d35a0001294e6b	1	1	DL_test	16	DL_test	22			0		pa	1	1096	6	4	antiphase_hc_sio.wav	1	6	4	noise_calib_stim_RIGHT.wav	2	27	blb_dichoticlistening_pa-ga.mp3	pa	ga	1	left
6.6.1	win	2023-06-27	14:54:28	0	0	59e27cc0c0d35a0001294e6b	1	1	DL_test	16	DL_test	23			0		da	1	1100	6	4	antiphase_hc_sio.wav	1	6	4	noise_calib_stim_RIGHT.wav	2	14	blb_dichoticlistening_ga-da.mp3	ga	da	1	right
6.6.1	win	2023-06-27	14:54:28	0	0	59e27cc0c0d35a0001294e6b	1	1	DL_test	16	DL_test	24			0		ka	1	1068	6	4	antiphase_hc_sio.wav	1	6	4	noise_calib_stim_RIGHT.wav	2	19	blb_dichoticlistening_ka-ba.mp3	ka	ba	1	left
6.6.1	win	2023-06-27	14:54:28	0	0	59e27cc0c0d35a0001294e6b	1	1	DL_test	16	DL_test	25			0		ga	1	1033	6	4	antiphase_hc_sio.wav	1	6	4	noise_calib_stim_RIGHT.wav	2	15	blb_dichoticlistening_ga-ga.mp3	ga	ga	0	left
6.6.1	win	2023-06-27	14:54:28	0	0	59e27cc0c0d35a0001294e6b	1	1	DL_test	16	DL_test	26			0		ka	1	1436	6	4	antiphase_hc_sio.wav	1	6	4	noise_calib_stim_RIGHT.wav	2	24	blb_dichoticlistening_ka-ta.mp3	ka	ta	1	left
6.6.1	win	2023-06-27	14:54:28	0	0	59e27cc0c0d35a0001294e6b	1	1	DL_test	16	DL_test	27			0		ka	0	1091	6	4	antiphase_hc_sio.wav	1	6	4	noise_calib_stim_RIGHT.wav	2	33	blb_dichoticlistening_ta-ga.mp3	ta	ga	1	other
6.6.1	win	2023-06-27	14:54:28	0	0	59e27cc0c0d35a0001294e6b	1	1	DL_test	16	DL_test	28			0		pa	1	1099	6	4	antiphase_hc_sio.wav	1	6	4	noise_calib_stim_RIGHT.wav	2	29	blb_dichoticlistening_pa-pa.mp3	pa	pa	0	left
6.6.1	win	2023-06-27	14:54:28	0	0	59e27cc0c0d35a0001294e6b	1	1	DL_test	16	DL_test	29			0		ta	1	1306	6	4	antiphase_hc_sio.wav	1	6	4	noise_calib_stim_RIGHT.wav	2	18	blb_dichoticlistening_ga-ta.mp3	ga	ta	1	right
6.6.1	win	2023-06-27	14:54:28	0	0	59e27cc0c0d35a0001294e6b	1	1	DL_test	16	DL_test	30			0		pa	1	1143	6	4	antiphase_hc_sio.wav	1	6	4	noise_calib_stim_RIGHT.wav	2	35	blb_dichoticlistening_ta-pa.mp3	ta	pa	1	right
6.6.1	win	2023-06-27	14:54:28	0	0	59e27cc0c0d35a0001294e6b	1	1	DL_test	16	DL_test	31			0		ba	1	1261	6	4	antiphase_hc_sio.wav	1	6	4	noise_calib_stim_RIGHT.wav	2	13	blb_dichoticlistening_ga-ba.mp3	ga	ba	1	right
6.6.1	win	2023-06-27	14:54:28	0	0	59e27cc0c0d35a0001294e6b	1	1	DL_test	16	DL_test	32			0		ka	1	1078	6	4	antiphase_hc_sio.wav	1	6	4	noise_calib_stim_RIGHT.wav	2	20	blb_dichoticlistening_ka-da.mp3	ka	da	1	left
6.6.1	win	2023-06-27	14:54:28	0	0	59e27cc0c0d35a0001294e6b	1	1	DL_test	16	DL_test	33			0		ka	0	1080	6	4	antiphase_hc_sio.wav	1	6	4	noise_calib_stim_RIGHT.wav	2	32	blb_dichoticlistening_ta-da.mp3	ta	da	1	other
6.6.1	win	2023-06-27	14:54:28	0	0	59e27cc0c0d35a0001294e6b	1	1	DL_test	16	DL_test	34			0		ka	1	861	6	4	antiphase_hc_sio.wav	1	6	4	noise_calib_stim_RIGHT.wav	2	4	blb_dichoticlistening_ba-ka.mp3	ba	ka	1	right
6.6.1	win	2023-06-27	14:54:28	0	0	59e27cc0c0d35a0001294e6b	1	1	DL_test	16	DL_test	35			0		ta	1	1373	6	4	antiphase_hc_sio.wav	1	6	4	noise_calib_stim_RIGHT.wav	2	30	blb_dichoticlistening_pa-ta.mp3	pa	ta	1	right
6.6.1	win	2023-06-27	14:54:28	0	0	59e27cc0c0d35a0001294e6b	1	1	DL_test	16	DL_test	36			0		ga	1	899	6	4	antiphase_hc_sio.wav	1	6	4	noise_calib_stim_RIGHT.wav	2	9	blb_dichoticlistening_da-ga.mp3	da	ga	1	right
6.6.1	win	2023-06-27	14:54:28	15:04:02	570707	59e27cc0c0d35a0001294e6b	1	1	practice_slash	22	practice_slash	1	stimuli_distractor_trianglediamonds.svg	stimuli_distractor_trianglediamonds.svg	15	no	0	1	2003	6	4	antiphase_hc_sio.wav	1	6	4	noise_calib_stim_RIGHT.wav	2	9	blb_dichoticlistening_da-ga.mp3	da	ga	1	right
6.6.1	win	2023-06-27	14:54:28	15:04:02	570707	59e27cc0c0d35a0001294e6b	1	1	practice_slash	22	advance_on_keypress_SLASH	2	stimuli_distractor_trianglediamonds.svg	stimuli_distractor_trianglediamonds.svg	15	no	57	0	2852	6	4	antiphase_hc_sio.wav	1	6	4	noise_calib_stim_RIGHT.wav	2	9	blb_dichoticlistening_da-ga.mp3	da	ga	1	right
6.6.1	win	2023-06-27	14:54:28	15:04:07	575619	59e27cc0c0d35a0001294e6b	1	1	practice_slash	22	practice_slash	3	stimuli_distractor_trianglediamonds.svg	stimuli_target_diamondrectangles.svg	12	yes	53	1	445	6	4	antiphase_hc_sio.wav	1	6	4	noise_calib_stim_RIGHT.wav	2	9	blb_dichoticlistening_da-ga.mp3	da	ga	1	right
6.6.1	win	2023-06-27	14:54:28	15:04:07	575619	59e27cc0c0d35a0001294e6b	1	1	practice_slash	22	advance_on_keypress_SLASH	4	stimuli_distractor_trianglediamonds.svg	stimuli_target_diamondrectangles.svg	12	yes	57	0	767	6	4	antiphase_hc_sio.wav	1	6	4	noise_calib_stim_RIGHT.wav	2	9	blb_dichoticlistening_da-ga.mp3	da	ga	1	right
6.6.1	win	2023-06-27	14:54:28	15:04:10	578582	59e27cc0c0d35a0001294e6b	1	1	practice_slash	22	practice_slash	5	stimuli_distractor_diamondtriangles.svg	stimuli_distractor_trianglediamonds.svg	14	no	53	0	580	6	4	antiphase_hc_sio.wav	1	6	4	noise_calib_stim_RIGHT.wav	2	9	blb_dichoticlistening_da-ga.mp3	da	ga	1	right
6.6.1	win	2023-06-27	14:54:28	15:04:10	578582	59e27cc0c0d35a0001294e6b	1	1	practice_slash	22	advance_on_keypress_SLASH	6	stimuli_distractor_diamondtriangles.svg	stimuli_distractor_trianglediamonds.svg	14	no	57	0	553	6	4	antiphase_hc_sio.wav	1	6	4	noise_calib_stim_RIGHT.wav	2	9	blb_dichoticlistening_da-ga.mp3	da	ga	1	right
6.6.1	win	2023-06-27	14:54:28	15:04:13	581162	59e27cc0c0d35a0001294e6b	1	1	practice_slash	22	practice_slash	7	stimuli_target_diamondsquares.svg	stimuli_distractor_diamondtriangles.svg	3	yes	53	1	409	6	4	antiphase_hc_sio.wav	1	6	4	noise_calib_stim_RIGHT.wav	2	9	blb_dichoticlistening_da-ga.mp3	da	ga	1	right
6.6.1	win	2023-06-27	14:54:28	15:04:13	581162	59e27cc0c0d35a0001294e6b	1	1	practice_slash	22	advance_on_keypress_SLASH	8	stimuli_target_diamondsquares.svg	stimuli_distractor_diamondtriangles.svg	3	yes	57	0	1050	6	4	antiphase_hc_sio.wav	1	6	4	noise_calib_stim_RIGHT.wav	2	9	blb_dichoticlistening_da-ga.mp3	da	ga	1	right
6.6.1	win	2023-06-27	14:54:28	15:04:16	584744	59e27cc0c0d35a0001294e6b	1	1	practice_slash	22	practice_slash	9	stimuli_target_rectanglediamonds.svg	stimuli_distractor_diamondtriangles.svg	1	yes	53	1	920	6	4	antiphase_hc_sio.wav	1	6	4	noise_calib_stim_RIGHT.wav	2	9	blb_dichoticlistening_da-ga.mp3	da	ga	1	right
6.6.1	win	2023-06-27	14:54:28	15:04:16	584744	59e27cc0c0d35a0001294e6b	1	1	practice_slash	22	advance_on_keypress_SLASH	10	stimuli_target_rectanglediamonds.svg	stimuli_distractor_diamondtriangles.svg	1	yes	57	0	481	6	4	antiphase_hc_sio.wav	1	6	4	noise_calib_stim_RIGHT.wav	2	9	blb_dichoticlistening_da-ga.mp3	da	ga	1	right
6.6.1	win	2023-06-27	14:54:28	15:04:19	587702	59e27cc0c0d35a0001294e6b	1	1	practice_slash	22	practice_slash	11	stimuli_target_rectanglediamonds.svg	stimuli_distractor_trianglediamonds.svg	4	yes	53	1	861	6	4	antiphase_hc_sio.wav	1	6	4	noise_calib_stim_RIGHT.wav	2	9	blb_dichoticlistening_da-ga.mp3	da	ga	1	right
6.6.1	win	2023-06-27	14:54:28	15:04:19	587702	59e27cc0c0d35a0001294e6b	1	1	practice_slash	22	advance_on_keypress_SLASH	12	stimuli_target_rectanglediamonds.svg	stimuli_distractor_trianglediamonds.svg	4	yes	57	0	448	6	4	antiphase_hc_sio.wav	1	6	4	noise_calib_stim_RIGHT.wav	2	9	blb_dichoticlistening_da-ga.mp3	da	ga	1	right
6.6.1	win	2023-06-27	14:54:28	15:04:22	590608	59e27cc0c0d35a0001294e6b	1	1	practice_slash	22	practice_slash	13	stimuli_distractor_diamondtriangles.svg	stimuli_target_diamondrectangles.svg	8	yes	53	1	843	6	4	antiphase_hc_sio.wav	1	6	4	noise_calib_stim_RIGHT.wav	2	9	blb_dichoticlistening_da-ga.mp3	da	ga	1	right
6.6.1	win	2023-06-27	14:54:28	15:04:22	590608	59e27cc0c0d35a0001294e6b	1	1	practice_slash	22	advance_on_keypress_SLASH	14	stimuli_distractor_diamondtriangles.svg	stimuli_target_diamondrectangles.svg	8	yes	57	0	420	6	4	antiphase_hc_sio.wav	1	6	4	noise_calib_stim_RIGHT.wav	2	9	blb_dichoticlistening_da-ga.mp3	da	ga	1	right
6.6.1	win	2023-06-27	14:54:28	15:04:25	593527	59e27cc0c0d35a0001294e6b	1	1	practice_slash	22	practice_slash	15	stimuli_target_squarediamonds.svg	stimuli_distractor_trianglediamonds.svg	5	yes	53	1	884	6	4	antiphase_hc_sio.wav	1	6	4	noise_calib_stim_RIGHT.wav	2	9	blb_dichoticlistening_da-ga.mp3	da	ga	1	right
6.6.1	win	2023-06-27	14:54:28	15:04:25	593527	59e27cc0c0d35a0001294e6b	1	1	practice_slash	22	advance_on_keypress_SLASH	16	stimuli_target_squarediamonds.svg	stimuli_distractor_trianglediamonds.svg	5	yes	57	0	421	6	4	antiphase_hc_sio.wav	1	6	4	noise_calib_stim_RIGHT.wav	2	9	blb_dichoticlistening_da-ga.mp3	da	ga	1	right
6.6.1	win	2023-06-27	14:54:28	15:04:28	596497	59e27cc0c0d35a0001294e6b	1	1	practice_slash	22	practice_slash	17	stimuli_distractor_trianglediamonds.svg	stimuli_target_squarediamonds.svg	11	yes	53	1	929	6	4	antiphase_hc_sio.wav	1	6	4	noise_calib_stim_RIGHT.wav	2	9	blb_dichoticlistening_da-ga.mp3	da	ga	1	right
6.6.1	win	2023-06-27	14:54:28	15:04:28	596497	59e27cc0c0d35a0001294e6b	1	1	practice_slash	22	advance_on_keypress_SLASH	18	stimuli_distractor_trianglediamonds.svg	stimuli_target_squarediamonds.svg	11	yes	57	0	364	6	4	antiphase_hc_sio.wav	1	6	4	noise_calib_stim_RIGHT.wav	2	9	blb_dichoticlistening_da-ga.mp3	da	ga	1	right
6.6.1	win	2023-06-27	14:54:28	15:04:31	599343	59e27cc0c0d35a0001294e6b	1	1	practice_slash	22	practice_slash	19	stimuli_distractor_trianglediamonds.svg	stimuli_target_rectanglediamonds.svg	10	yes	53	1	871	6	4	antiphase_hc_sio.wav	1	6	4	noise_calib_stim_RIGHT.wav	2	9	blb_dichoticlistening_da-ga.mp3	da	ga	1	right
6.6.1	win	2023-06-27	14:54:28	15:04:31	599343	59e27cc0c0d35a0001294e6b	1	1	practice_slash	22	advance_on_keypress_SLASH	20	stimuli_distractor_trianglediamonds.svg	stimuli_target_rectanglediamonds.svg	10	yes	57	0	385	6	4	antiphase_hc_sio.wav	1	6	4	noise_calib_stim_RIGHT.wav	2	9	blb_dichoticlistening_da-ga.mp3	da	ga	1	right
6.6.1	win	2023-06-27	14:54:28	15:04:35	603346	59e27cc0c0d35a0001294e6b	1	1	practice_slash	22	practice_slash	21	stimuli_distractor_diamondtriangles.svg	stimuli_target_trianglerectangles.svg	9	yes	0	0	2003	6	4	antiphase_hc_sio.wav	1	6	4	noise_calib_stim_RIGHT.wav	2	9	blb_dichoticlistening_da-ga.mp3	da	ga	1	right
6.6.1	win	2023-06-27	14:54:28	15:04:35	603346	59e27cc0c0d35a0001294e6b	1	1	practice_slash	22	advance_on_keypress_SLASH	22	stimuli_distractor_diamondtriangles.svg	stimuli_target_trianglerectangles.svg	9	yes	57	0	398	6	4	antiphase_hc_sio.wav	1	6	4	noise_calib_stim_RIGHT.wav	2	9	blb_dichoticlistening_da-ga.mp3	da	ga	1	right
6.6.1	win	2023-06-27	14:54:28	15:04:38	606235	59e27cc0c0d35a0001294e6b	1	1	practice_slash	22	practice_slash	23	stimuli_distractor_diamondtriangles.svg	stimuli_target_rectangletriangles.svg	7	yes	53	1	877	6	4	antiphase_hc_sio.wav	1	6	4	noise_calib_stim_RIGHT.wav	2	9	blb_dichoticlistening_da-ga.mp3	da	ga	1	right
6.6.1	win	2023-06-27	14:54:28	15:04:38	606235	59e27cc0c0d35a0001294e6b	1	1	practice_slash	22	advance_on_keypress_SLASH	24	stimuli_distractor_diamondtriangles.svg	stimuli_target_rectangletriangles.svg	7	yes	57	0	430	6	4	antiphase_hc_sio.wav	1	6	4	noise_calib_stim_RIGHT.wav	2	9	blb_dichoticlistening_da-ga.mp3	da	ga	1	right
6.6.1	win	2023-06-27	14:54:28	15:04:42	610287	59e27cc0c0d35a0001294e6b	1	1	practice_slash	22	practice_slash	25	stimuli_distractor_trianglediamonds.svg	stimuli_distractor_diamondtriangles.svg	16	no	0	1	2003	6	4	antiphase_hc_sio.wav	1	6	4	noise_calib_stim_RIGHT.wav	2	9	blb_dichoticlistening_da-ga.mp3	da	ga	1	right
6.6.1	win	2023-06-27	14:54:28	15:04:42	610287	59e27cc0c0d35a0001294e6b	1	1	practice_slash	22	advance_on_keypress_SLASH	26	stimuli_distractor_trianglediamonds.svg	stimuli_distractor_diamondtriangles.svg	16	no	57	0	407	6	4	antiphase_hc_sio.wav	1	6	4	noise_calib_stim_RIGHT.wav	2	9	blb_dichoticlistening_da-ga.mp3	da	ga	1	right
6.6.1	win	2023-06-27	14:54:28	15:04:45	613394	59e27cc0c0d35a0001294e6b	1	1	practice_slash	22	practice_slash	27	stimuli_target_squarediamonds.svg	stimuli_distractor_diamondtriangles.svg	2	yes	53	1	1086	6	4	antiphase_hc_sio.wav	1	6	4	noise_calib_stim_RIGHT.wav	2	9	blb_dichoticlistening_da-ga.mp3	da	ga	1	right
6.6.1	win	2023-06-27	14:54:28	15:04:45	613394	59e27cc0c0d35a0001294e6b	1	1	practice_slash	22	advance_on_keypress_SLASH	28	stimuli_target_squarediamonds.svg	stimuli_distractor_diamondtriangles.svg	2	yes	57	0	377	6	4	antiphase_hc_sio.wav	1	6	4	noise_calib_stim_RIGHT.wav	2	9	blb_dichoticlistening_da-ga.mp3	da	ga	1	right
6.6.1	win	2023-06-27	14:54:28	15:04:49	617388	59e27cc0c0d35a0001294e6b	1	1	practice_slash	22	practice_slash	29	stimuli_distractor_diamondtriangles.svg	stimuli_distractor_diamondtriangles.svg	13	no	0	1	2003	6	4	antiphase_hc_sio.wav	1	6	4	noise_calib_stim_RIGHT.wav	2	9	blb_dichoticlistening_da-ga.mp3	da	ga	1	right
6.6.1	win	2023-06-27	14:54:28	15:04:49	617388	59e27cc0c0d35a0001294e6b	1	1	practice_slash	22	advance_on_keypress_SLASH	30	stimuli_distractor_diamondtriangles.svg	stimuli_distractor_diamondtriangles.svg	13	no	57	0	397	6	4	antiphase_hc_sio.wav	1	6	4	noise_calib_stim_RIGHT.wav	2	9	blb_dichoticlistening_da-ga.mp3	da	ga	1	right
6.6.1	win	2023-06-27	14:54:28	15:04:52	620392	59e27cc0c0d35a0001294e6b	1	1	practice_slash	22	practice_slash	31	stimuli_target_diamondsquares.svg	stimuli_distractor_trianglediamonds.svg	6	yes	53	1	990	6	4	antiphase_hc_sio.wav	1	6	4	noise_calib_stim_RIGHT.wav	2	9	blb_dichoticlistening_da-ga.mp3	da	ga	1	right
6.6.1	win	2023-06-27	14:54:28	15:04:52	620392	59e27cc0c0d35a0001294e6b	1	1	practice_slash	22	advance_on_keypress_SLASH	32	stimuli_target_diamondsquares.svg	stimuli_distractor_trianglediamonds.svg	6	yes	57	0	371	6	4	antiphase_hc_sio.wav	1	6	4	noise_calib_stim_RIGHT.wav	2	9	blb_dichoticlistening_da-ga.mp3	da	ga	1	right
6.6.1	win	2023-06-27	14:54:28	15:04:59	627478	59e27cc0c0d35a0001294e6b	1	1	main_slash	24	main_slash	1	stimuli_distractor_diamondtriangles.svg	stimuli_target_diamondsquares.svg	32	yes	53	1	863	6	4	antiphase_hc_sio.wav	1	6	4	noise_calib_stim_RIGHT.wav	2	9	blb_dichoticlistening_da-ga.mp3	da	ga	1	right
6.6.1	win	2023-06-27	14:54:28	15:04:59	627478	59e27cc0c0d35a0001294e6b	1	1	main_slash	24	advance_on_keypress_SLASH	2	stimuli_distractor_diamondtriangles.svg	stimuli_target_diamondsquares.svg	32	yes	57	0	2029	6	4	antiphase_hc_sio.wav	1	6	4	noise_calib_stim_RIGHT.wav	2	9	blb_dichoticlistening_da-ga.mp3	da	ga	1	right
6.6.1	win	2023-06-27	14:54:28	15:05:03	631309	59e27cc0c0d35a0001294e6b	1	1	main_slash	24	main_slash	3	stimuli_distractor_trianglediamonds.svg	stimuli_distractor_trianglediamonds.svg	34	no	53	0	1185	6	4	antiphase_hc_sio.wav	1	6	4	noise_calib_stim_RIGHT.wav	2	9	blb_dichoticlistening_da-ga.mp3	da	ga	1	right
6.6.1	win	2023-06-27	14:54:28	15:05:03	631309	59e27cc0c0d35a0001294e6b	1	1	main_slash	24	advance_on_keypress_SLASH	4	stimuli_distractor_trianglediamonds.svg	stimuli_distractor_trianglediamonds.svg	34	no	57	0	1051	6	4	antiphase_hc_sio.wav	1	6	4	noise_calib_stim_RIGHT.wav	2	9	blb_dichoticlistening_da-ga.mp3	da	ga	1	right
6.6.1	win	2023-06-27	14:54:28	15:05:06	634016	59e27cc0c0d35a0001294e6b	1	1	main_slash	24	main_slash	5	stimuli_distractor_trianglediamonds.svg	stimuli_target_trianglerectangles.svg	25	yes	53	1	1043	6	4	antiphase_hc_sio.wav	1	6	4	noise_calib_stim_RIGHT.wav	2	9	blb_dichoticlistening_da-ga.mp3	da	ga	1	right
6.6.1	win	2023-06-27	14:54:28	15:05:06	634016	59e27cc0c0d35a0001294e6b	1	1	main_slash	24	advance_on_keypress_SLASH	6	stimuli_distractor_trianglediamonds.svg	stimuli_target_trianglerectangles.svg	25	yes	57	0	1046	6	4	antiphase_hc_sio.wav	1	6	4	noise_calib_stim_RIGHT.wav	2	9	blb_dichoticlistening_da-ga.mp3	da	ga	1	right
6.6.1	win	2023-06-27	14:54:28	15:05:08	636765	59e27cc0c0d35a0001294e6b	1	1	main_slash	24	main_slash	7	stimuli_target_trianglesquares.svg	stimuli_distractor_trianglediamonds.svg	18	yes	53	1	1089	6	4	antiphase_hc_sio.wav	1	6	4	noise_calib_stim_RIGHT.wav	2	9	blb_dichoticlistening_da-ga.mp3	da	ga	1	right
6.6.1	win	2023-06-27	14:54:28	15:05:08	636765	59e27cc0c0d35a0001294e6b	1	1	main_slash	24	advance_on_keypress_SLASH	8	stimuli_target_trianglesquares.svg	stimuli_distractor_trianglediamonds.svg	18	yes	57	0	1201	6	4	antiphase_hc_sio.wav	1	6	4	noise_calib_stim_RIGHT.wav	2	9	blb_dichoticlistening_da-ga.mp3	da	ga	1	right
6.6.1	win	2023-06-27	14:54:28	15:05:11	639536	59e27cc0c0d35a0001294e6b	1	1	main_slash	24	main_slash	9	stimuli_target_rectangletriangles.svg	stimuli_distractor_trianglediamonds.svg	1	yes	53	1	956	6	4	antiphase_hc_sio.wav	1	6	4	noise_calib_stim_RIGHT.wav	2	9	blb_dichoticlistening_da-ga.mp3	da	ga	1	right
6.6.1	win	2023-06-27	14:54:28	15:05:11	639536	59e27cc0c0d35a0001294e6b	1	1	main_slash	24	advance_on_keypress_SLASH	10	stimuli_target_rectangletriangles.svg	stimuli_distractor_trianglediamonds.svg	1	yes	57	0	1321	6	4	antiphase_hc_sio.wav	1	6	4	noise_calib_stim_RIGHT.wav	2	9	blb_dichoticlistening_da-ga.mp3	da	ga	1	right
6.6.1	win	2023-06-27	14:54:28	15:05:14	642541	59e27cc0c0d35a0001294e6b	1	1	main_slash	24	main_slash	11	stimuli_target_diamondsquares.svg	stimuli_distractor_trianglediamonds.svg	20	yes	53	1	1070	6	4	antiphase_hc_sio.wav	1	6	4	noise_calib_stim_RIGHT.wav	2	9	blb_dichoticlistening_da-ga.mp3	da	ga	1	right
6.6.1	win	2023-06-27	14:54:28	15:05:14	642541	59e27cc0c0d35a0001294e6b	1	1	main_slash	24	advance_on_keypress_SLASH	12	stimuli_target_diamondsquares.svg	stimuli_distractor_trianglediamonds.svg	20	yes	57	0	1256	6	4	antiphase_hc_sio.wav	1	6	4	noise_calib_stim_RIGHT.wav	2	9	blb_dichoticlistening_da-ga.mp3	da	ga	1	right
6.6.1	win	2023-06-27	14:54:28	15:05:18	646420	59e27cc0c0d35a0001294e6b	1	1	main_slash	24	main_slash	13	stimuli_distractor_trianglediamonds.svg	stimuli_distractor_trianglediamonds.svg	33	no	0	1	2003	6	4	antiphase_hc_sio.wav	1	6	4	noise_calib_stim_RIGHT.wav	2	9	blb_dichoticlistening_da-ga.mp3	da	ga	1	right
6.6.1	win	2023-06-27	14:54:28	15:05:18	646420	59e27cc0c0d35a0001294e6b	1	1	main_slash	24	advance_on_keypress_SLASH	14	stimuli_distractor_trianglediamonds.svg	stimuli_distractor_trianglediamonds.svg	33	no	57	0	504	6	4	antiphase_hc_sio.wav	1	6	4	noise_calib_stim_RIGHT.wav	2	9	blb_dichoticlistening_da-ga.mp3	da	ga	1	right
6.6.1	win	2023-06-27	14:54:28	15:05:20	648520	59e27cc0c0d35a0001294e6b	1	1	main_slash	24	main_slash	15	stimuli_target_squarediamonds.svg	stimuli_distractor_trianglediamonds.svg	4	yes	53	1	983	6	4	antiphase_hc_sio.wav	1	6	4	noise_calib_stim_RIGHT.wav	2	9	blb_dichoticlistening_da-ga.mp3	da	ga	1	right
6.6.1	win	2023-06-27	14:54:28	15:05:20	648520	59e27cc0c0d35a0001294e6b	1	1	main_slash	24	advance_on_keypress_SLASH	16	stimuli_target_squarediamonds.svg	stimuli_distractor_trianglediamonds.svg	4	yes	57	0	924	6	4	antiphase_hc_sio.wav	1	6	4	noise_calib_stim_RIGHT.wav	2	9	blb_dichoticlistening_da-ga.mp3	da	ga	1	right
6.6.1	win	2023-06-27	14:54:28	15:05:24	652062	59e27cc0c0d35a0001294e6b	1	1	main_slash	24	main_slash	17	stimuli_distractor_diamondtriangles.svg	stimuli_distractor_trianglediamonds.svg	38	no	0	1	2003	6	4	antiphase_hc_sio.wav	1	6	4	noise_calib_stim_RIGHT.wav	2	9	blb_dichoticlistening_da-ga.mp3	da	ga	1	right
6.6.1	win	2023-06-27	14:54:28	15:05:24	652062	59e27cc0c0d35a0001294e6b	1	1	main_slash	24	advance_on_keypress_SLASH	18	stimuli_distractor_diamondtriangles.svg	stimuli_distractor_trianglediamonds.svg	38	no	57	0	622	6	4	antiphase_hc_sio.wav	1	6	4	noise_calib_stim_RIGHT.wav	2	9	blb_dichoticlistening_da-ga.mp3	da	ga	1	right
6.6.1	win	2023-06-27	14:54:28	15:05:26	654301	59e27cc0c0d35a0001294e6b	1	1	main_slash	24	main_slash	19	stimuli_target_trianglerectangles.svg	stimuli_distractor_trianglediamonds.svg	17	yes	53	1	1004	6	4	antiphase_hc_sio.wav	1	6	4	noise_calib_stim_RIGHT.wav	2	9	blb_dichoticlistening_da-ga.mp3	da	ga	1	right
6.6.1	win	2023-06-27	14:54:28	15:05:26	654301	59e27cc0c0d35a0001294e6b	1	1	main_slash	24	advance_on_keypress_SLASH	20	stimuli_target_trianglerectangles.svg	stimuli_distractor_trianglediamonds.svg	17	yes	57	0	873	6	4	antiphase_hc_sio.wav	1	6	4	noise_calib_stim_RIGHT.wav	2	9	blb_dichoticlistening_da-ga.mp3	da	ga	1	right
6.6.1	win	2023-06-27	14:54:28	15:05:29	656817	59e27cc0c0d35a0001294e6b	1	1	main_slash	24	main_slash	21	stimuli_target_squaretriangles.svg	stimuli_distractor_diamondtriangles.svg	7	yes	53	1	1032	6	4	antiphase_hc_sio.wav	1	6	4	noise_calib_stim_RIGHT.wav	2	9	blb_dichoticlistening_da-ga.mp3	da	ga	1	right
6.6.1	win	2023-06-27	14:54:28	15:05:29	656817	59e27cc0c0d35a0001294e6b	1	1	main_slash	24	advance_on_keypress_SLASH	22	stimuli_target_squaretriangles.svg	stimuli_distractor_diamondtriangles.svg	7	yes	57	0	709	6	4	antiphase_hc_sio.wav	1	6	4	noise_calib_stim_RIGHT.wav	2	9	blb_dichoticlistening_da-ga.mp3	da	ga	1	right
6.6.1	win	2023-06-27	14:54:28	15:05:31	659187	59e27cc0c0d35a0001294e6b	1	1	main_slash	24	main_slash	23	stimuli_target_diamondsquares.svg	stimuli_distractor_diamondtriangles.svg	24	yes	53	1	1046	6	4	antiphase_hc_sio.wav	1	6	4	noise_calib_stim_RIGHT.wav	2	9	blb_dichoticlistening_da-ga.mp3	da	ga	1	right
6.6.1	win	2023-06-27	14:54:28	15:05:31	659187	59e27cc0c0d35a0001294e6b	1	1	main_slash	24	advance_on_keypress_SLASH	24	stimuli_target_diamondsquares.svg	stimuli_distractor_diamondtriangles.svg	24	yes	57	0	925	6	4	antiphase_hc_sio.wav	1	6	4	noise_calib_stim_RIGHT.wav	2	9	blb_dichoticlistening_da-ga.mp3	da	ga	1	right
6.6.1	win	2023-06-27	14:54:28	15:05:34	662002	59e27cc0c0d35a0001294e6b	1	1	main_slash	24	main_slash	25	stimuli_distractor_diamondtriangles.svg	stimuli_target_trianglerectangles.svg	29	yes	53	1	1275	6	4	antiphase_hc_sio.wav	1	6	4	noise_calib_stim_RIGHT.wav	2	9	blb_dichoticlistening_da-ga.mp3	da	ga	1	right
6.6.1	win	2023-06-27	14:54:28	15:05:34	662002	59e27cc0c0d35a0001294e6b	1	1	main_slash	24	advance_on_keypress_SLASH	26	stimuli_distractor_diamondtriangles.svg	stimuli_target_trianglerectangles.svg	29	yes	57	0	840	6	4	antiphase_hc_sio.wav	1	6	4	noise_calib_stim_RIGHT.wav	2	9	blb_dichoticlistening_da-ga.mp3	da	ga	1	right
6.6.1	win	2023-06-27	14:54:28	15:05:37	665460	59e27cc0c0d35a0001294e6b	1	1	main_slash	24	main_slash	27	stimuli_distractor_diamondtriangles.svg	stimuli_distractor_diamondtriangles.svg	40	no	0	1	2003	6	4	antiphase_hc_sio.wav	1	6	4	noise_calib_stim_RIGHT.wav	2	9	blb_dichoticlistening_da-ga.mp3	da	ga	1	right
6.6.1	win	2023-06-27	14:54:28	15:05:37	665460	59e27cc0c0d35a0001294e6b	1	1	main_slash	24	advance_on_keypress_SLASH	28	stimuli_distractor_diamondtriangles.svg	stimuli_distractor_diamondtriangles.svg	40	no	57	0	469	6	4	antiphase_hc_sio.wav	1	6	4	noise_calib_stim_RIGHT.wav	2	9	blb_dichoticlistening_da-ga.mp3	da	ga	1	right
6.6.1	win	2023-06-27	14:54:28	15:05:39	667673	59e27cc0c0d35a0001294e6b	1	1	main_slash	24	main_slash	29	stimuli_distractor_trianglediamonds.svg	stimuli_target_diamondrectangles.svg	27	yes	53	1	1131	6	4	antiphase_hc_sio.wav	1	6	4	noise_calib_stim_RIGHT.wav	2	9	blb_dichoticlistening_da-ga.mp3	da	ga	1	right
6.6.1	win	2023-06-27	14:54:28	15:05:39	667673	59e27cc0c0d35a0001294e6b	1	1	main_slash	24	advance_on_keypress_SLASH	30	stimuli_distractor_trianglediamonds.svg	stimuli_target_diamondrectangles.svg	27	yes	57	0	863	6	4	antiphase_hc_sio.wav	1	6	4	noise_calib_stim_RIGHT.wav	2	9	blb_dichoticlistening_da-ga.mp3	da	ga	1	right
6.6.1	win	2023-06-27	14:54:28	15:05:43	671150	59e27cc0c0d35a0001294e6b	1	1	main_slash	24	main_slash	31	stimuli_distractor_diamondtriangles.svg	stimuli_distractor_diamondtriangles.svg	39	no	0	1	2003	6	4	antiphase_hc_sio.wav	1	6	4	noise_calib_stim_RIGHT.wav	2	9	blb_dichoticlistening_da-ga.mp3	da	ga	1	right
6.6.1	win	2023-06-27	14:54:28	15:05:43	671150	59e27cc0c0d35a0001294e6b	1	1	main_slash	24	advance_on_keypress_SLASH	32	stimuli_distractor_diamondtriangles.svg	stimuli_distractor_diamondtriangles.svg	39	no	57	0	582	6	4	antiphase_hc_sio.wav	1	6	4	noise_calib_stim_RIGHT.wav	2	9	blb_dichoticlistening_da-ga.mp3	da	ga	1	right
6.6.1	win	2023-06-27	14:54:28	15:05:46	674123	59e27cc0c0d35a0001294e6b	1	1	main_slash	24	main_slash	33	stimuli_distractor_diamondtriangles.svg	stimuli_distractor_trianglediamonds.svg	37	no	53	0	1772	6	4	antiphase_hc_sio.wav	1	6	4	noise_calib_stim_RIGHT.wav	2	9	blb_dichoticlistening_da-ga.mp3	da	ga	1	right
6.6.1	win	2023-06-27	14:54:28	15:05:46	674123	59e27cc0c0d35a0001294e6b	1	1	main_slash	24	advance_on_keypress_SLASH	34	stimuli_distractor_diamondtriangles.svg	stimuli_distractor_trianglediamonds.svg	37	no	57	0	773	6	4	antiphase_hc_sio.wav	1	6	4	noise_calib_stim_RIGHT.wav	2	9	blb_dichoticlistening_da-ga.mp3	da	ga	1	right
6.6.1	win	2023-06-27	14:54:28	15:05:48	676760	59e27cc0c0d35a0001294e6b	1	1	main_slash	24	main_slash	35	stimuli_distractor_trianglediamonds.svg	stimuli_target_diamondsquares.svg	28	yes	53	1	1248	6	4	antiphase_hc_sio.wav	1	6	4	noise_calib_stim_RIGHT.wav	2	9	blb_dichoticlistening_da-ga.mp3	da	ga	1	right
6.6.1	win	2023-06-27	14:54:28	15:05:48	676760	59e27cc0c0d35a0001294e6b	1	1	main_slash	24	advance_on_keypress_SLASH	36	stimuli_distractor_trianglediamonds.svg	stimuli_target_diamondsquares.svg	28	yes	57	0	950	6	4	antiphase_hc_sio.wav	1	6	4	noise_calib_stim_RIGHT.wav	2	9	blb_dichoticlistening_da-ga.mp3	da	ga	1	right
6.6.1	win	2023-06-27	14:54:28	15:05:51	679533	59e27cc0c0d35a0001294e6b	1	1	main_slash	24	main_slash	37	stimuli_target_trianglerectangles.svg	stimuli_distractor_diamondtriangles.svg	21	yes	53	1	1213	6	4	antiphase_hc_sio.wav	1	6	4	noise_calib_stim_RIGHT.wav	2	9	blb_dichoticlistening_da-ga.mp3	da	ga	1	right
6.6.1	win	2023-06-27	14:54:28	15:05:51	679533	59e27cc0c0d35a0001294e6b	1	1	main_slash	24	advance_on_keypress_SLASH	38	stimuli_target_trianglerectangles.svg	stimuli_distractor_diamondtriangles.svg	21	yes	57	0	708	6	4	antiphase_hc_sio.wav	1	6	4	noise_calib_stim_RIGHT.wav	2	9	blb_dichoticlistening_da-ga.mp3	da	ga	1	right
6.6.1	win	2023-06-27	14:54:28	15:05:54	682192	59e27cc0c0d35a0001294e6b	1	1	main_slash	24	main_slash	39	stimuli_distractor_trianglediamonds.svg	stimuli_target_squaretriangles.svg	11	yes	53	1	1336	6	4	antiphase_hc_sio.wav	1	6	4	noise_calib_stim_RIGHT.wav	2	9	blb_dichoticlistening_da-ga.mp3	da	ga	1	right
6.6.1	win	2023-06-27	14:54:28	15:05:54	682192	59e27cc0c0d35a0001294e6b	1	1	main_slash	24	advance_on_keypress_SLASH	40	stimuli_distractor_trianglediamonds.svg	stimuli_target_squaretriangles.svg	11	yes	57	0	847	6	4	antiphase_hc_sio.wav	1	6	4	noise_calib_stim_RIGHT.wav	2	9	blb_dichoticlistening_da-ga.mp3	da	ga	1	right
6.6.1	win	2023-06-27	14:54:28	15:05:57	685659	59e27cc0c0d35a0001294e6b	1	1	main_slash	24	main_slash	41	stimuli_distractor_trianglediamonds.svg	stimuli_distractor_diamondtriangles.svg	36	no	0	1	2003	6	4	antiphase_hc_sio.wav	1	6	4	noise_calib_stim_RIGHT.wav	2	9	blb_dichoticlistening_da-ga.mp3	da	ga	1	right
6.6.1	win	2023-06-27	14:54:28	15:05:57	685659	59e27cc0c0d35a0001294e6b	1	1	main_slash	24	advance_on_keypress_SLASH	42	stimuli_distractor_trianglediamonds.svg	stimuli_distractor_diamondtriangles.svg	36	no	57	0	354	6	4	antiphase_hc_sio.wav	1	6	4	noise_calib_stim_RIGHT.wav	2	9	blb_dichoticlistening_da-ga.mp3	da	ga	1	right
6.6.1	win	2023-06-27	14:54:28	15:06:00	687801	59e27cc0c0d35a0001294e6b	1	1	main_slash	24	main_slash	43	stimuli_target_rectanglediamonds.svg	stimuli_distractor_diamondtriangles.svg	6	yes	53	1	1171	6	4	antiphase_hc_sio.wav	1	6	4	noise_calib_stim_RIGHT.wav	2	9	blb_dichoticlistening_da-ga.mp3	da	ga	1	right
6.6.1	win	2023-06-27	14:54:28	15:06:00	687801	59e27cc0c0d35a0001294e6b	1	1	main_slash	24	advance_on_keypress_SLASH	44	stimuli_target_rectanglediamonds.svg	stimuli_distractor_diamondtriangles.svg	6	yes	57	0	1294	6	4	antiphase_hc_sio.wav	1	6	4	noise_calib_stim_RIGHT.wav	2	9	blb_dichoticlistening_da-ga.mp3	da	ga	1	right
6.6.1	win	2023-06-27	14:54:28	15:06:03	690854	59e27cc0c0d35a0001294e6b	1	1	main_slash	24	main_slash	45	stimuli_distractor_diamondtriangles.svg	stimuli_target_diamondrectangles.svg	31	yes	53	1	1146	6	4	antiphase_hc_sio.wav	1	6	4	noise_calib_stim_RIGHT.wav	2	9	blb_dichoticlistening_da-ga.mp3	da	ga	1	right
6.6.1	win	2023-06-27	14:54:28	15:06:03	690854	59e27cc0c0d35a0001294e6b	1	1	main_slash	24	advance_on_keypress_SLASH	46	stimuli_distractor_diamondtriangles.svg	stimuli_target_diamondrectangles.svg	31	yes	57	0	1005	6	4	antiphase_hc_sio.wav	1	6	4	noise_calib_stim_RIGHT.wav	2	9	blb_dichoticlistening_da-ga.mp3	da	ga	1	right
6.6.1	win	2023-06-27	14:54:28	15:06:05	693671	59e27cc0c0d35a0001294e6b	1	1	main_slash	24	main_slash	47	stimuli_target_diamondrectangles.svg	stimuli_distractor_diamondtriangles.svg	23	yes	53	1	1197	6	4	antiphase_hc_sio.wav	1	6	4	noise_calib_stim_RIGHT.wav	2	9	blb_dichoticlistening_da-ga.mp3	da	ga	1	right
6.6.1	win	2023-06-27	14:54:28	15:06:05	693671	59e27cc0c0d35a0001294e6b	1	1	main_slash	24	advance_on_keypress_SLASH	48	stimuli_target_diamondrectangles.svg	stimuli_distractor_diamondtriangles.svg	23	yes	57	0	746	6	4	antiphase_hc_sio.wav	1	6	4	noise_calib_stim_RIGHT.wav	2	9	blb_dichoticlistening_da-ga.mp3	da	ga	1	right
6.6.1	win	2023-06-27	14:54:28	15:06:08	696111	59e27cc0c0d35a0001294e6b	1	1	main_slash	24	main_slash	49	stimuli_distractor_diamondtriangles.svg	stimuli_target_squarediamonds.svg	16	yes	53	1	1080	6	4	antiphase_hc_sio.wav	1	6	4	noise_calib_stim_RIGHT.wav	2	9	blb_dichoticlistening_da-ga.mp3	da	ga	1	right
6.6.1	win	2023-06-27	14:54:28	15:06:08	696111	59e27cc0c0d35a0001294e6b	1	1	main_slash	24	advance_on_keypress_SLASH	50	stimuli_distractor_diamondtriangles.svg	stimuli_target_squarediamonds.svg	16	yes	57	0	823	6	4	antiphase_hc_sio.wav	1	6	4	noise_calib_stim_RIGHT.wav	2	9	blb_dichoticlistening_da-ga.mp3	da	ga	1	right
6.6.1	win	2023-06-27	14:54:28	15:06:10	698615	59e27cc0c0d35a0001294e6b	1	1	main_slash	24	main_slash	51	stimuli_target_rectanglediamonds.svg	stimuli_distractor_trianglediamonds.svg	2	yes	53	1	1068	6	4	antiphase_hc_sio.wav	1	6	4	noise_calib_stim_RIGHT.wav	2	9	blb_dichoticlistening_da-ga.mp3	da	ga	1	right
6.6.1	win	2023-06-27	14:54:28	15:06:10	698615	59e27cc0c0d35a0001294e6b	1	1	main_slash	24	advance_on_keypress_SLASH	52	stimuli_target_rectanglediamonds.svg	stimuli_distractor_trianglediamonds.svg	2	yes	57	0	598	6	4	antiphase_hc_sio.wav	1	6	4	noise_calib_stim_RIGHT.wav	2	9	blb_dichoticlistening_da-ga.mp3	da	ga	1	right
6.6.1	win	2023-06-27	14:54:28	15:06:13	700822	59e27cc0c0d35a0001294e6b	1	1	main_slash	24	main_slash	53	stimuli_distractor_trianglediamonds.svg	stimuli_target_rectangletriangles.svg	9	yes	53	1	996	6	4	antiphase_hc_sio.wav	1	6	4	noise_calib_stim_RIGHT.wav	2	9	blb_dichoticlistening_da-ga.mp3	da	ga	1	right
6.6.1	win	2023-06-27	14:54:28	15:06:13	700822	59e27cc0c0d35a0001294e6b	1	1	main_slash	24	advance_on_keypress_SLASH	54	stimuli_distractor_trianglediamonds.svg	stimuli_target_rectangletriangles.svg	9	yes	57	0	597	6	4	antiphase_hc_sio.wav	1	6	4	noise_calib_stim_RIGHT.wav	2	9	blb_dichoticlistening_da-ga.mp3	da	ga	1	right
6.6.1	win	2023-06-27	14:54:28	15:06:15	703134	59e27cc0c0d35a0001294e6b	1	1	main_slash	24	main_slash	55	stimuli_target_rectangletriangles.svg	stimuli_distractor_diamondtriangles.svg	5	yes	53	1	1099	6	4	antiphase_hc_sio.wav	1	6	4	noise_calib_stim_RIGHT.wav	2	9	blb_dichoticlistening_da-ga.mp3	da	ga	1	right
6.6.1	win	2023-06-27	14:54:28	15:06:15	703134	59e27cc0c0d35a0001294e6b	1	1	main_slash	24	advance_on_keypress_SLASH	56	stimuli_target_rectangletriangles.svg	stimuli_distractor_diamondtriangles.svg	5	yes	57	0	549	6	4	antiphase_hc_sio.wav	1	6	4	noise_calib_stim_RIGHT.wav	2	9	blb_dichoticlistening_da-ga.mp3	da	ga	1	right
6.6.1	win	2023-06-27	14:54:28	15:06:17	705442	59e27cc0c0d35a0001294e6b	1	1	main_slash	24	main_slash	57	stimuli_distractor_diamondtriangles.svg	stimuli_target_rectangletriangles.svg	13	yes	53	1	1141	6	4	antiphase_hc_sio.wav	1	6	4	noise_calib_stim_RIGHT.wav	2	9	blb_dichoticlistening_da-ga.mp3	da	ga	1	right
6.6.1	win	2023-06-27	14:54:28	15:06:17	705442	59e27cc0c0d35a0001294e6b	1	1	main_slash	24	advance_on_keypress_SLASH	58	stimuli_distractor_diamondtriangles.svg	stimuli_target_rectangletriangles.svg	13	yes	57	0	649	6	4	antiphase_hc_sio.wav	1	6	4	noise_calib_stim_RIGHT.wav	2	9	blb_dichoticlistening_da-ga.mp3	da	ga	1	right
6.6.1	win	2023-06-27	14:54:28	15:06:19	707631	59e27cc0c0d35a0001294e6b	1	1	main_slash	24	main_slash	59	stimuli_target_diamondrectangles.svg	stimuli_distractor_trianglediamonds.svg	19	yes	53	1	925	6	4	antiphase_hc_sio.wav	1	6	4	noise_calib_stim_RIGHT.wav	2	9	blb_dichoticlistening_da-ga.mp3	da	ga	1	right
6.6.1	win	2023-06-27	14:54:28	15:06:19	707631	59e27cc0c0d35a0001294e6b	1	1	main_slash	24	advance_on_keypress_SLASH	60	stimuli_target_diamondrectangles.svg	stimuli_distractor_trianglediamonds.svg	19	yes	57	0	572	6	4	antiphase_hc_sio.wav	1	6	4	noise_calib_stim_RIGHT.wav	2	9	blb_dichoticlistening_da-ga.mp3	da	ga	1	right
6.6.1	win	2023-06-27	14:54:28	15:06:22	709871	59e27cc0c0d35a0001294e6b	1	1	main_slash	24	main_slash	61	stimuli_target_squarediamonds.svg	stimuli_distractor_diamondtriangles.svg	8	yes	53	1	1053	6	4	antiphase_hc_sio.wav	1	6	4	noise_calib_stim_RIGHT.wav	2	9	blb_dichoticlistening_da-ga.mp3	da	ga	1	right
6.6.1	win	2023-06-27	14:54:28	15:06:22	709871	59e27cc0c0d35a0001294e6b	1	1	main_slash	24	advance_on_keypress_SLASH	62	stimuli_target_squarediamonds.svg	stimuli_distractor_diamondtriangles.svg	8	yes	57	0	620	6	4	antiphase_hc_sio.wav	1	6	4	noise_calib_stim_RIGHT.wav	2	9	blb_dichoticlistening_da-ga.mp3	da	ga	1	right
6.6.1	win	2023-06-27	14:54:28	15:06:24	712240	59e27cc0c0d35a0001294e6b	1	1	main_slash	24	main_slash	63	stimuli_distractor_trianglediamonds.svg	stimuli_target_rectanglediamonds.svg	10	yes	53	1	1137	6	4	antiphase_hc_sio.wav	1	6	4	noise_calib_stim_RIGHT.wav	2	9	blb_dichoticlistening_da-ga.mp3	da	ga	1	right
6.6.1	win	2023-06-27	14:54:28	15:06:24	712240	59e27cc0c0d35a0001294e6b	1	1	main_slash	24	advance_on_keypress_SLASH	64	stimuli_distractor_trianglediamonds.svg	stimuli_target_rectanglediamonds.svg	10	yes	57	0	669	6	4	antiphase_hc_sio.wav	1	6	4	noise_calib_stim_RIGHT.wav	2	9	blb_dichoticlistening_da-ga.mp3	da	ga	1	right
6.6.1	win	2023-06-27	14:54:28	15:06:26	714489	59e27cc0c0d35a0001294e6b	1	1	main_slash	24	main_slash	65	stimuli_distractor_diamondtriangles.svg	stimuli_target_trianglesquares.svg	30	yes	53	1	968	6	4	antiphase_hc_sio.wav	1	6	4	noise_calib_stim_RIGHT.wav	2	9	blb_dichoticlistening_da-ga.mp3	da	ga	1	right
6.6.1	win	2023-06-27	14:54:28	15:06:26	714489	59e27cc0c0d35a0001294e6b	1	1	main_slash	24	advance_on_keypress_SLASH	66	stimuli_distractor_diamondtriangles.svg	stimuli_target_trianglesquares.svg	30	yes	57	0	650	6	4	antiphase_hc_sio.wav	1	6	4	noise_calib_stim_RIGHT.wav	2	9	blb_dichoticlistening_da-ga.mp3	da	ga	1	right
6.6.1	win	2023-06-27	14:54:28	15:06:28	716775	59e27cc0c0d35a0001294e6b	1	1	main_slash	24	main_slash	67	stimuli_distractor_trianglediamonds.svg	stimuli_target_trianglesquares.svg	26	yes	53	1	1023	6	4	antiphase_hc_sio.wav	1	6	4	noise_calib_stim_RIGHT.wav	2	9	blb_dichoticlistening_da-ga.mp3	da	ga	1	right
6.6.1	win	2023-06-27	14:54:28	15:06:28	716775	59e27cc0c0d35a0001294e6b	1	1	main_slash	24	advance_on_keypress_SLASH	68	stimuli_distractor_trianglediamonds.svg	stimuli_target_trianglesquares.svg	26	yes	57	0	590	6	4	antiphase_hc_sio.wav	1	6	4	noise_calib_stim_RIGHT.wav	2	9	blb_dichoticlistening_da-ga.mp3	da	ga	1	right
6.6.1	win	2023-06-27	14:54:28	15:06:31	718916	59e27cc0c0d35a0001294e6b	1	1	main_slash	24	main_slash	69	stimuli_distractor_trianglediamonds.svg	stimuli_target_squarediamonds.svg	12	yes	53	1	934	6	4	antiphase_hc_sio.wav	1	6	4	noise_calib_stim_RIGHT.wav	2	9	blb_dichoticlistening_da-ga.mp3	da	ga	1	right
6.6.1	win	2023-06-27	14:54:28	15:06:31	718916	59e27cc0c0d35a0001294e6b	1	1	main_slash	24	advance_on_keypress_SLASH	70	stimuli_distractor_trianglediamonds.svg	stimuli_target_squarediamonds.svg	12	yes	57	0	1017	6	4	antiphase_hc_sio.wav	1	6	4	noise_calib_stim_RIGHT.wav	2	9	blb_dichoticlistening_da-ga.mp3	da	ga	1	right
6.6.1	win	2023-06-27	14:54:28	15:06:33	721512	59e27cc0c0d35a0001294e6b	1	1	main_slash	24	main_slash	71	stimuli_distractor_diamondtriangles.svg	stimuli_target_squaretriangles.svg	15	yes	53	1	965	6	4	antiphase_hc_sio.wav	1	6	4	noise_calib_stim_RIGHT.wav	2	9	blb_dichoticlistening_da-ga.mp3	da	ga	1	right
6.6.1	win	2023-06-27	14:54:28	15:06:33	721512	59e27cc0c0d35a0001294e6b	1	1	main_slash	24	advance_on_keypress_SLASH	72	stimuli_distractor_diamondtriangles.svg	stimuli_target_squaretriangles.svg	15	yes	57	0	704	6	4	antiphase_hc_sio.wav	1	6	4	noise_calib_stim_RIGHT.wav	2	9	blb_dichoticlistening_da-ga.mp3	da	ga	1	right
6.6.1	win	2023-06-27	14:54:28	15:06:36	723888	59e27cc0c0d35a0001294e6b	1	1	main_slash	24	main_slash	73	stimuli_distractor_diamondtriangles.svg	stimuli_target_rectanglediamonds.svg	14	yes	53	1	1055	6	4	antiphase_hc_sio.wav	1	6	4	noise_calib_stim_RIGHT.wav	2	9	blb_dichoticlistening_da-ga.mp3	da	ga	1	right
6.6.1	win	2023-06-27	14:54:28	15:06:36	723888	59e27cc0c0d35a0001294e6b	1	1	main_slash	24	advance_on_keypress_SLASH	74	stimuli_distractor_diamondtriangles.svg	stimuli_target_rectanglediamonds.svg	14	yes	57	0	602	6	4	antiphase_hc_sio.wav	1	6	4	noise_calib_stim_RIGHT.wav	2	9	blb_dichoticlistening_da-ga.mp3	da	ga	1	right
6.6.1	win	2023-06-27	14:54:28	15:06:38	726345	59e27cc0c0d35a0001294e6b	1	1	main_slash	24	main_slash	75	stimuli_target_trianglesquares.svg	stimuli_distractor_diamondtriangles.svg	22	yes	53	1	1240	6	4	antiphase_hc_sio.wav	1	6	4	noise_calib_stim_RIGHT.wav	2	9	blb_dichoticlistening_da-ga.mp3	da	ga	1	right
6.6.1	win	2023-06-27	14:54:28	15:06:38	726345	59e27cc0c0d35a0001294e6b	1	1	main_slash	24	advance_on_keypress_SLASH	76	stimuli_target_trianglesquares.svg	stimuli_distractor_diamondtriangles.svg	22	yes	57	0	603	6	4	antiphase_hc_sio.wav	1	6	4	noise_calib_stim_RIGHT.wav	2	9	blb_dichoticlistening_da-ga.mp3	da	ga	1	right
6.6.1	win	2023-06-27	14:54:28	15:06:41	729243	59e27cc0c0d35a0001294e6b	1	1	main_slash	24	main_slash	77	stimuli_distractor_trianglediamonds.svg	stimuli_distractor_diamondtriangles.svg	35	no	53	0	1678	6	4	antiphase_hc_sio.wav	1	6	4	noise_calib_stim_RIGHT.wav	2	9	blb_dichoticlistening_da-ga.mp3	da	ga	1	right
6.6.1	win	2023-06-27	14:54:28	15:06:41	729243	59e27cc0c0d35a0001294e6b	1	1	main_slash	24	advance_on_keypress_SLASH	78	stimuli_distractor_trianglediamonds.svg	stimuli_distractor_diamondtriangles.svg	35	no	57	0	548	6	4	antiphase_hc_sio.wav	1	6	4	noise_calib_stim_RIGHT.wav	2	9	blb_dichoticlistening_da-ga.mp3	da	ga	1	right
6.6.1	win	2023-06-27	14:54:28	15:06:43	731500	59e27cc0c0d35a0001294e6b	1	1	main_slash	24	main_slash	79	stimuli_target_squaretriangles.svg	stimuli_distractor_trianglediamonds.svg	3	yes	53	1	1093	6	4	antiphase_hc_sio.wav	1	6	4	noise_calib_stim_RIGHT.wav	2	9	blb_dichoticlistening_da-ga.mp3	da	ga	1	right
6.6.1	win	2023-06-27	14:54:28	15:06:43	731500	59e27cc0c0d35a0001294e6b	1	1	main_slash	24	advance_on_keypress_SLASH	80	stimuli_target_squaretriangles.svg	stimuli_distractor_trianglediamonds.svg	3	yes	57	0	541	6	4	antiphase_hc_sio.wav	1	6	4	noise_calib_stim_RIGHT.wav	2	9	blb_dichoticlistening_da-ga.mp3	da	ga	1	right
6.6.1	win	2023-06-27	14:54:28	15:06:45	733678	59e27cc0c0d35a0001294e6b	1	1	main_slash	24	main_slash	81	stimuli_distractor_diamondtriangles.svg	stimuli_target_rectanglediamonds.svg	14	yes	53	1	1020	6	4	antiphase_hc_sio.wav	1	6	4	noise_calib_stim_RIGHT.wav	2	9	blb_dichoticlistening_da-ga.mp3	da	ga	1	right
6.6.1	win	2023-06-27	14:54:28	15:06:45	733678	59e27cc0c0d35a0001294e6b	1	1	main_slash	24	advance_on_keypress_SLASH	82	stimuli_distractor_diamondtriangles.svg	stimuli_target_rectanglediamonds.svg	14	yes	57	0	561	6	4	antiphase_hc_sio.wav	1	6	4	noise_calib_stim_RIGHT.wav	2	9	blb_dichoticlistening_da-ga.mp3	da	ga	1	right
6.6.1	win	2023-06-27	14:54:28	15:06:48	735960	59e27cc0c0d35a0001294e6b	1	1	main_slash	24	main_slash	83	stimuli_target_trianglerectangles.svg	stimuli_distractor_diamondtriangles.svg	21	yes	53	1	1113	6	4	antiphase_hc_sio.wav	1	6	4	noise_calib_stim_RIGHT.wav	2	9	blb_dichoticlistening_da-ga.mp3	da	ga	1	right
6.6.1	win	2023-06-27	14:54:28	15:06:48	735960	59e27cc0c0d35a0001294e6b	1	1	main_slash	24	advance_on_keypress_SLASH	84	stimuli_target_trianglerectangles.svg	stimuli_distractor_diamondtriangles.svg	21	yes	57	0	546	6	4	antiphase_hc_sio.wav	1	6	4	noise_calib_stim_RIGHT.wav	2	9	blb_dichoticlistening_da-ga.mp3	da	ga	1	right
6.6.1	win	2023-06-27	14:54:28	15:06:50	738117	59e27cc0c0d35a0001294e6b	1	1	main_slash	24	main_slash	85	stimuli_target_rectangletriangles.svg	stimuli_distractor_diamondtriangles.svg	5	yes	53	1	998	6	4	antiphase_hc_sio.wav	1	6	4	noise_calib_stim_RIGHT.wav	2	9	blb_dichoticlistening_da-ga.mp3	da	ga	1	right
6.6.1	win	2023-06-27	14:54:28	15:06:50	738117	59e27cc0c0d35a0001294e6b	1	1	main_slash	24	advance_on_keypress_SLASH	86	stimuli_target_rectangletriangles.svg	stimuli_distractor_diamondtriangles.svg	5	yes	57	0	644	6	4	antiphase_hc_sio.wav	1	6	4	noise_calib_stim_RIGHT.wav	2	9	blb_dichoticlistening_da-ga.mp3	da	ga	1	right
6.6.1	win	2023-06-27	14:54:28	15:06:52	740332	59e27cc0c0d35a0001294e6b	1	1	main_slash	24	main_slash	87	stimuli_distractor_trianglediamonds.svg	stimuli_target_squarediamonds.svg	12	yes	53	1	962	6	4	antiphase_hc_sio.wav	1	6	4	noise_calib_stim_RIGHT.wav	2	9	blb_dichoticlistening_da-ga.mp3	da	ga	1	right
6.6.1	win	2023-06-27	14:54:28	15:06:52	740332	59e27cc0c0d35a0001294e6b	1	1	main_slash	24	advance_on_keypress_SLASH	88	stimuli_distractor_trianglediamonds.svg	stimuli_target_squarediamonds.svg	12	yes	57	0	518	6	4	antiphase_hc_sio.wav	1	6	4	noise_calib_stim_RIGHT.wav	2	9	blb_dichoticlistening_da-ga.mp3	da	ga	1	right
6.6.1	win	2023-06-27	14:54:28	15:06:54	742573	59e27cc0c0d35a0001294e6b	1	1	main_slash	24	main_slash	89	stimuli_target_trianglesquares.svg	stimuli_distractor_diamondtriangles.svg	22	yes	53	1	1111	6	4	antiphase_hc_sio.wav	1	6	4	noise_calib_stim_RIGHT.wav	2	9	blb_dichoticlistening_da-ga.mp3	da	ga	1	right
6.6.1	win	2023-06-27	14:54:28	15:06:54	742573	59e27cc0c0d35a0001294e6b	1	1	main_slash	24	advance_on_keypress_SLASH	90	stimuli_target_trianglesquares.svg	stimuli_distractor_diamondtriangles.svg	22	yes	57	0	671	6	4	antiphase_hc_sio.wav	1	6	4	noise_calib_stim_RIGHT.wav	2	9	blb_dichoticlistening_da-ga.mp3	da	ga	1	right
6.6.1	win	2023-06-27	14:54:28	15:06:57	744986	59e27cc0c0d35a0001294e6b	1	1	main_slash	24	main_slash	91	stimuli_distractor_trianglediamonds.svg	stimuli_target_rectangletriangles.svg	9	yes	53	1	1126	6	4	antiphase_hc_sio.wav	1	6	4	noise_calib_stim_RIGHT.wav	2	9	blb_dichoticlistening_da-ga.mp3	da	ga	1	right
6.6.1	win	2023-06-27	14:54:28	15:06:57	744986	59e27cc0c0d35a0001294e6b	1	1	main_slash	24	advance_on_keypress_SLASH	92	stimuli_distractor_trianglediamonds.svg	stimuli_target_rectangletriangles.svg	9	yes	57	0	628	6	4	antiphase_hc_sio.wav	1	6	4	noise_calib_stim_RIGHT.wav	2	9	blb_dichoticlistening_da-ga.mp3	da	ga	1	right
6.6.1	win	2023-06-27	14:54:28	15:06:59	747370	59e27cc0c0d35a0001294e6b	1	1	main_slash	24	main_slash	93	stimuli_target_trianglerectangles.svg	stimuli_distractor_trianglediamonds.svg	17	yes	53	1	1140	6	4	antiphase_hc_sio.wav	1	6	4	noise_calib_stim_RIGHT.wav	2	9	blb_dichoticlistening_da-ga.mp3	da	ga	1	right
6.6.1	win	2023-06-27	14:54:28	15:06:59	747370	59e27cc0c0d35a0001294e6b	1	1	main_slash	24	advance_on_keypress_SLASH	94	stimuli_target_trianglerectangles.svg	stimuli_distractor_trianglediamonds.svg	17	yes	57	0	511	6	4	antiphase_hc_sio.wav	1	6	4	noise_calib_stim_RIGHT.wav	2	9	blb_dichoticlistening_da-ga.mp3	da	ga	1	right
6.6.1	win	2023-06-27	14:54:28	15:07:01	749607	59e27cc0c0d35a0001294e6b	1	1	main_slash	24	main_slash	95	stimuli_distractor_trianglediamonds.svg	stimuli_target_diamondsquares.svg	28	yes	53	1	1112	6	4	antiphase_hc_sio.wav	1	6	4	noise_calib_stim_RIGHT.wav	2	9	blb_dichoticlistening_da-ga.mp3	da	ga	1	right
6.6.1	win	2023-06-27	14:54:28	15:07:01	749607	59e27cc0c0d35a0001294e6b	1	1	main_slash	24	advance_on_keypress_SLASH	96	stimuli_distractor_trianglediamonds.svg	stimuli_target_diamondsquares.svg	28	yes	57	0	529	6	4	antiphase_hc_sio.wav	1	6	4	noise_calib_stim_RIGHT.wav	2	9	blb_dichoticlistening_da-ga.mp3	da	ga	1	right
6.6.1	win	2023-06-27	14:54:28	15:07:04	751866	59e27cc0c0d35a0001294e6b	1	1	main_slash	24	main_slash	97	stimuli_distractor_diamondtriangles.svg	stimuli_target_trianglesquares.svg	30	yes	53	1	1114	6	4	antiphase_hc_sio.wav	1	6	4	noise_calib_stim_RIGHT.wav	2	9	blb_dichoticlistening_da-ga.mp3	da	ga	1	right
6.6.1	win	2023-06-27	14:54:28	15:07:04	751866	59e27cc0c0d35a0001294e6b	1	1	main_slash	24	advance_on_keypress_SLASH	98	stimuli_distractor_diamondtriangles.svg	stimuli_target_trianglesquares.svg	30	yes	57	0	592	6	4	antiphase_hc_sio.wav	1	6	4	noise_calib_stim_RIGHT.wav	2	9	blb_dichoticlistening_da-ga.mp3	da	ga	1	right
6.6.1	win	2023-06-27	14:54:28	15:07:06	754155	59e27cc0c0d35a0001294e6b	1	1	main_slash	24	main_slash	99	stimuli_distractor_trianglediamonds.svg	stimuli_target_rectanglediamonds.svg	10	yes	53	1	1082	6	4	antiphase_hc_sio.wav	1	6	4	noise_calib_stim_RIGHT.wav	2	9	blb_dichoticlistening_da-ga.mp3	da	ga	1	right
6.6.1	win	2023-06-27	14:54:28	15:07:06	754155	59e27cc0c0d35a0001294e6b	1	1	main_slash	24	advance_on_keypress_SLASH	100	stimuli_distractor_trianglediamonds.svg	stimuli_target_rectanglediamonds.svg	10	yes	57	0	542	6	4	antiphase_hc_sio.wav	1	6	4	noise_calib_stim_RIGHT.wav	2	9	blb_dichoticlistening_da-ga.mp3	da	ga	1	right
6.6.1	win	2023-06-27	14:54:28	15:07:08	756336	59e27cc0c0d35a0001294e6b	1	1	main_slash	24	main_slash	101	stimuli_target_squaretriangles.svg	stimuli_distractor_trianglediamonds.svg	3	yes	53	1	1025	6	4	antiphase_hc_sio.wav	1	6	4	noise_calib_stim_RIGHT.wav	2	9	blb_dichoticlistening_da-ga.mp3	da	ga	1	right
6.6.1	win	2023-06-27	14:54:28	15:07:08	756336	59e27cc0c0d35a0001294e6b	1	1	main_slash	24	advance_on_keypress_SLASH	102	stimuli_target_squaretriangles.svg	stimuli_distractor_trianglediamonds.svg	3	yes	57	0	506	6	4	antiphase_hc_sio.wav	1	6	4	noise_calib_stim_RIGHT.wav	2	9	blb_dichoticlistening_da-ga.mp3	da	ga	1	right
6.6.1	win	2023-06-27	14:54:28	15:07:10	758551	59e27cc0c0d35a0001294e6b	1	1	main_slash	24	main_slash	103	stimuli_target_diamondsquares.svg	stimuli_distractor_diamondtriangles.svg	24	yes	53	1	1093	6	4	antiphase_hc_sio.wav	1	6	4	noise_calib_stim_RIGHT.wav	2	9	blb_dichoticlistening_da-ga.mp3	da	ga	1	right
6.6.1	win	2023-06-27	14:54:28	15:07:10	758551	59e27cc0c0d35a0001294e6b	1	1	main_slash	24	advance_on_keypress_SLASH	104	stimuli_target_diamondsquares.svg	stimuli_distractor_diamondtriangles.svg	24	yes	57	0	478	6	4	antiphase_hc_sio.wav	1	6	4	noise_calib_stim_RIGHT.wav	2	9	blb_dichoticlistening_da-ga.mp3	da	ga	1	right
6.6.1	win	2023-06-27	14:54:28	15:07:13	761080	59e27cc0c0d35a0001294e6b	1	1	main_slash	24	main_slash	105	stimuli_target_rectanglediamonds.svg	stimuli_distractor_trianglediamonds.svg	2	yes	53	1	1433	6	4	antiphase_hc_sio.wav	1	6	4	noise_calib_stim_RIGHT.wav	2	9	blb_dichoticlistening_da-ga.mp3	da	ga	1	right
6.6.1	win	2023-06-27	14:54:28	15:07:13	761080	59e27cc0c0d35a0001294e6b	1	1	main_slash	24	advance_on_keypress_SLASH	106	stimuli_target_rectanglediamonds.svg	stimuli_distractor_trianglediamonds.svg	2	yes	57	0	561	6	4	antiphase_hc_sio.wav	1	6	4	noise_calib_stim_RIGHT.wav	2	9	blb_dichoticlistening_da-ga.mp3	da	ga	1	right
6.6.1	win	2023-06-27	14:54:28	15:07:15	763253	59e27cc0c0d35a0001294e6b	1	1	main_slash	24	main_slash	107	stimuli_distractor_diamondtriangles.svg	stimuli_target_trianglerectangles.svg	29	yes	53	1	1001	6	4	antiphase_hc_sio.wav	1	6	4	noise_calib_stim_RIGHT.wav	2	9	blb_dichoticlistening_da-ga.mp3	da	ga	1	right
6.6.1	win	2023-06-27	14:54:28	15:07:15	763253	59e27cc0c0d35a0001294e6b	1	1	main_slash	24	advance_on_keypress_SLASH	108	stimuli_distractor_diamondtriangles.svg	stimuli_target_trianglerectangles.svg	29	yes	57	0	513	6	4	antiphase_hc_sio.wav	1	6	4	noise_calib_stim_RIGHT.wav	2	9	blb_dichoticlistening_da-ga.mp3	da	ga	1	right
6.6.1	win	2023-06-27	14:54:28	15:07:17	765373	59e27cc0c0d35a0001294e6b	1	1	main_slash	24	main_slash	109	stimuli_target_squaretriangles.svg	stimuli_distractor_diamondtriangles.svg	7	yes	53	1	994	6	4	antiphase_hc_sio.wav	1	6	4	noise_calib_stim_RIGHT.wav	2	9	blb_dichoticlistening_da-ga.mp3	da	ga	1	right
6.6.1	win	2023-06-27	14:54:28	15:07:17	765373	59e27cc0c0d35a0001294e6b	1	1	main_slash	24	advance_on_keypress_SLASH	110	stimuli_target_squaretriangles.svg	stimuli_distractor_diamondtriangles.svg	7	yes	57	0	516	6	4	antiphase_hc_sio.wav	1	6	4	noise_calib_stim_RIGHT.wav	2	9	blb_dichoticlistening_da-ga.mp3	da	ga	1	right
6.6.1	win	2023-06-27	14:54:28	15:07:19	767527	59e27cc0c0d35a0001294e6b	1	1	main_slash	24	main_slash	111	stimuli_target_diamondrectangles.svg	stimuli_distractor_trianglediamonds.svg	19	yes	53	1	1021	6	4	antiphase_hc_sio.wav	1	6	4	noise_calib_stim_RIGHT.wav	2	9	blb_dichoticlistening_da-ga.mp3	da	ga	1	right
6.6.1	win	2023-06-27	14:54:28	15:07:19	767527	59e27cc0c0d35a0001294e6b	1	1	main_slash	24	advance_on_keypress_SLASH	112	stimuli_target_diamondrectangles.svg	stimuli_distractor_trianglediamonds.svg	19	yes	57	0	586	6	4	antiphase_hc_sio.wav	1	6	4	noise_calib_stim_RIGHT.wav	2	9	blb_dichoticlistening_da-ga.mp3	da	ga	1	right
6.6.1	win	2023-06-27	14:54:28	15:07:21	769737	59e27cc0c0d35a0001294e6b	1	1	main_slash	24	main_slash	113	stimuli_distractor_trianglediamonds.svg	stimuli_target_trianglesquares.svg	26	yes	53	1	1008	6	4	antiphase_hc_sio.wav	1	6	4	noise_calib_stim_RIGHT.wav	2	9	blb_dichoticlistening_da-ga.mp3	da	ga	1	right
6.6.1	win	2023-06-27	14:54:28	15:07:21	769737	59e27cc0c0d35a0001294e6b	1	1	main_slash	24	advance_on_keypress_SLASH	114	stimuli_distractor_trianglediamonds.svg	stimuli_target_trianglesquares.svg	26	yes	57	0	527	6	4	antiphase_hc_sio.wav	1	6	4	noise_calib_stim_RIGHT.wav	2	9	blb_dichoticlistening_da-ga.mp3	da	ga	1	right
6.6.1	win	2023-06-27	14:54:28	15:07:25	772886	59e27cc0c0d35a0001294e6b	1	1	main_slash	24	main_slash	115	stimuli_target_squarediamonds.svg	stimuli_distractor_trianglediamonds.svg	4	yes	0	0	2003	6	4	antiphase_hc_sio.wav	1	6	4	noise_calib_stim_RIGHT.wav	2	9	blb_dichoticlistening_da-ga.mp3	da	ga	1	right
6.6.1	win	2023-06-27	14:54:28	15:07:25	772886	59e27cc0c0d35a0001294e6b	1	1	main_slash	24	advance_on_keypress_SLASH	116	stimuli_target_squarediamonds.svg	stimuli_distractor_trianglediamonds.svg	4	yes	57	0	460	6	4	antiphase_hc_sio.wav	1	6	4	noise_calib_stim_RIGHT.wav	2	9	blb_dichoticlistening_da-ga.mp3	da	ga	1	right
6.6.1	win	2023-06-27	14:54:28	15:07:27	774949	59e27cc0c0d35a0001294e6b	1	1	main_slash	24	main_slash	117	stimuli_distractor_diamondtriangles.svg	stimuli_target_diamondsquares.svg	32	yes	53	1	988	6	4	antiphase_hc_sio.wav	1	6	4	noise_calib_stim_RIGHT.wav	2	9	blb_dichoticlistening_da-ga.mp3	da	ga	1	right
6.6.1	win	2023-06-27	14:54:28	15:07:27	774949	59e27cc0c0d35a0001294e6b	1	1	main_slash	24	advance_on_keypress_SLASH	118	stimuli_distractor_diamondtriangles.svg	stimuli_target_diamondsquares.svg	32	yes	57	0	589	6	4	antiphase_hc_sio.wav	1	6	4	noise_calib_stim_RIGHT.wav	2	9	blb_dichoticlistening_da-ga.mp3	da	ga	1	right
6.6.1	win	2023-06-27	14:54:28	15:07:30	778160	59e27cc0c0d35a0001294e6b	1	1	main_slash	24	main_slash	119	stimuli_distractor_diamondtriangles.svg	stimuli_target_squaretriangles.svg	15	yes	0	0	2003	6	4	antiphase_hc_sio.wav	1	6	4	noise_calib_stim_RIGHT.wav	2	9	blb_dichoticlistening_da-ga.mp3	da	ga	1	right
6.6.1	win	2023-06-27	14:54:28	15:07:30	778160	59e27cc0c0d35a0001294e6b	1	1	main_slash	24	advance_on_keypress_SLASH	120	stimuli_distractor_diamondtriangles.svg	stimuli_target_squaretriangles.svg	15	yes	57	0	488	6	4	antiphase_hc_sio.wav	1	6	4	noise_calib_stim_RIGHT.wav	2	9	blb_dichoticlistening_da-ga.mp3	da	ga	1	right
6.6.1	win	2023-06-27	14:54:28	15:07:32	780506	59e27cc0c0d35a0001294e6b	1	1	main_slash	24	main_slash	121	stimuli_distractor_diamondtriangles.svg	stimuli_distractor_trianglediamonds.svg	37	no	53	0	1243	6	4	antiphase_hc_sio.wav	1	6	4	noise_calib_stim_RIGHT.wav	2	9	blb_dichoticlistening_da-ga.mp3	da	ga	1	right
6.6.1	win	2023-06-27	14:54:28	15:07:32	780506	59e27cc0c0d35a0001294e6b	1	1	main_slash	24	advance_on_keypress_SLASH	122	stimuli_distractor_diamondtriangles.svg	stimuli_distractor_trianglediamonds.svg	37	no	57	0	644	6	4	antiphase_hc_sio.wav	1	6	4	noise_calib_stim_RIGHT.wav	2	9	blb_dichoticlistening_da-ga.mp3	da	ga	1	right
6.6.1	win	2023-06-27	14:54:28	15:07:35	783767	59e27cc0c0d35a0001294e6b	1	1	main_slash	24	main_slash	123	stimuli_distractor_diamondtriangles.svg	stimuli_target_rectangletriangles.svg	13	yes	0	0	2003	6	4	antiphase_hc_sio.wav	1	6	4	noise_calib_stim_RIGHT.wav	2	9	blb_dichoticlistening_da-ga.mp3	da	ga	1	right
6.6.1	win	2023-06-27	14:54:28	15:07:35	783767	59e27cc0c0d35a0001294e6b	1	1	main_slash	24	advance_on_keypress_SLASH	124	stimuli_distractor_diamondtriangles.svg	stimuli_target_rectangletriangles.svg	13	yes	57	0	521	6	4	antiphase_hc_sio.wav	1	6	4	noise_calib_stim_RIGHT.wav	2	9	blb_dichoticlistening_da-ga.mp3	da	ga	1	right
6.6.1	win	2023-06-27	14:54:28	15:07:38	785930	59e27cc0c0d35a0001294e6b	1	1	main_slash	24	main_slash	125	stimuli_target_trianglesquares.svg	stimuli_distractor_trianglediamonds.svg	18	yes	53	1	1025	6	4	antiphase_hc_sio.wav	1	6	4	noise_calib_stim_RIGHT.wav	2	9	blb_dichoticlistening_da-ga.mp3	da	ga	1	right
6.6.1	win	2023-06-27	14:54:28	15:07:38	785930	59e27cc0c0d35a0001294e6b	1	1	main_slash	24	advance_on_keypress_SLASH	126	stimuli_target_trianglesquares.svg	stimuli_distractor_trianglediamonds.svg	18	yes	57	0	511	6	4	antiphase_hc_sio.wav	1	6	4	noise_calib_stim_RIGHT.wav	2	9	blb_dichoticlistening_da-ga.mp3	da	ga	1	right
6.6.1	win	2023-06-27	14:54:28	15:07:40	788167	59e27cc0c0d35a0001294e6b	1	1	main_slash	24	main_slash	127	stimuli_distractor_diamondtriangles.svg	stimuli_target_diamondrectangles.svg	31	yes	53	1	1114	6	4	antiphase_hc_sio.wav	1	6	4	noise_calib_stim_RIGHT.wav	2	9	blb_dichoticlistening_da-ga.mp3	da	ga	1	right
6.6.1	win	2023-06-27	14:54:28	15:07:40	788167	59e27cc0c0d35a0001294e6b	1	1	main_slash	24	advance_on_keypress_SLASH	128	stimuli_distractor_diamondtriangles.svg	stimuli_target_diamondrectangles.svg	31	yes	57	0	480	6	4	antiphase_hc_sio.wav	1	6	4	noise_calib_stim_RIGHT.wav	2	9	blb_dichoticlistening_da-ga.mp3	da	ga	1	right
6.6.1	win	2023-06-27	14:54:28	15:07:43	791265	59e27cc0c0d35a0001294e6b	1	1	main_slash	24	main_slash	129	stimuli_distractor_trianglediamonds.svg	stimuli_distractor_trianglediamonds.svg	33	no	0	1	2003	6	4	antiphase_hc_sio.wav	1	6	4	noise_calib_stim_RIGHT.wav	2	9	blb_dichoticlistening_da-ga.mp3	da	ga	1	right
6.6.1	win	2023-06-27	14:54:28	15:07:43	791265	59e27cc0c0d35a0001294e6b	1	1	main_slash	24	advance_on_keypress_SLASH	130	stimuli_distractor_trianglediamonds.svg	stimuli_distractor_trianglediamonds.svg	33	no	57	0	409	6	4	antiphase_hc_sio.wav	1	6	4	noise_calib_stim_RIGHT.wav	2	9	blb_dichoticlistening_da-ga.mp3	da	ga	1	right
6.6.1	win	2023-06-27	14:54:28	15:07:46	794295	59e27cc0c0d35a0001294e6b	1	1	main_slash	24	main_slash	131	stimuli_distractor_trianglediamonds.svg	stimuli_distractor_diamondtriangles.svg	36	no	0	1	2003	6	4	antiphase_hc_sio.wav	1	6	4	noise_calib_stim_RIGHT.wav	2	9	blb_dichoticlistening_da-ga.mp3	da	ga	1	right
6.6.1	win	2023-06-27	14:54:28	15:07:46	794295	59e27cc0c0d35a0001294e6b	1	1	main_slash	24	advance_on_keypress_SLASH	132	stimuli_distractor_trianglediamonds.svg	stimuli_distractor_diamondtriangles.svg	36	no	57	0	686	6	4	antiphase_hc_sio.wav	1	6	4	noise_calib_stim_RIGHT.wav	2	9	blb_dichoticlistening_da-ga.mp3	da	ga	1	right
6.6.1	win	2023-06-27	14:54:28	15:07:49	797602	59e27cc0c0d35a0001294e6b	1	1	main_slash	24	main_slash	133	stimuli_distractor_diamondtriangles.svg	stimuli_distractor_diamondtriangles.svg	39	no	0	1	2003	6	4	antiphase_hc_sio.wav	1	6	4	noise_calib_stim_RIGHT.wav	2	9	blb_dichoticlistening_da-ga.mp3	da	ga	1	right
6.6.1	win	2023-06-27	14:54:28	15:07:49	797602	59e27cc0c0d35a0001294e6b	1	1	main_slash	24	advance_on_keypress_SLASH	134	stimuli_distractor_diamondtriangles.svg	stimuli_distractor_diamondtriangles.svg	39	no	57	0	508	6	4	antiphase_hc_sio.wav	1	6	4	noise_calib_stim_RIGHT.wav	2	9	blb_dichoticlistening_da-ga.mp3	da	ga	1	right
6.6.1	win	2023-06-27	14:54:28	15:07:51	799740	59e27cc0c0d35a0001294e6b	1	1	main_slash	24	main_slash	135	stimuli_distractor_trianglediamonds.svg	stimuli_target_trianglerectangles.svg	25	yes	53	1	1014	6	4	antiphase_hc_sio.wav	1	6	4	noise_calib_stim_RIGHT.wav	2	9	blb_dichoticlistening_da-ga.mp3	da	ga	1	right
6.6.1	win	2023-06-27	14:54:28	15:07:51	799740	59e27cc0c0d35a0001294e6b	1	1	main_slash	24	advance_on_keypress_SLASH	136	stimuli_distractor_trianglediamonds.svg	stimuli_target_trianglerectangles.svg	25	yes	57	0	510	6	4	antiphase_hc_sio.wav	1	6	4	noise_calib_stim_RIGHT.wav	2	9	blb_dichoticlistening_da-ga.mp3	da	ga	1	right
6.6.1	win	2023-06-27	14:54:28	15:07:54	801946	59e27cc0c0d35a0001294e6b	1	1	main_slash	24	main_slash	137	stimuli_distractor_trianglediamonds.svg	stimuli_target_diamondrectangles.svg	27	yes	53	1	1080	6	4	antiphase_hc_sio.wav	1	6	4	noise_calib_stim_RIGHT.wav	2	9	blb_dichoticlistening_da-ga.mp3	da	ga	1	right
6.6.1	win	2023-06-27	14:54:28	15:07:54	801946	59e27cc0c0d35a0001294e6b	1	1	main_slash	24	advance_on_keypress_SLASH	138	stimuli_distractor_trianglediamonds.svg	stimuli_target_diamondrectangles.svg	27	yes	57	0	539	6	4	antiphase_hc_sio.wav	1	6	4	noise_calib_stim_RIGHT.wav	2	9	blb_dichoticlistening_da-ga.mp3	da	ga	1	right
6.6.1	win	2023-06-27	14:54:28	15:07:56	804152	59e27cc0c0d35a0001294e6b	1	1	main_slash	24	main_slash	139	stimuli_target_rectangletriangles.svg	stimuli_distractor_trianglediamonds.svg	1	yes	53	1	1055	6	4	antiphase_hc_sio.wav	1	6	4	noise_calib_stim_RIGHT.wav	2	9	blb_dichoticlistening_da-ga.mp3	da	ga	1	right
6.6.1	win	2023-06-27	14:54:28	15:07:56	804152	59e27cc0c0d35a0001294e6b	1	1	main_slash	24	advance_on_keypress_SLASH	140	stimuli_target_rectangletriangles.svg	stimuli_distractor_trianglediamonds.svg	1	yes	57	0	483	6	4	antiphase_hc_sio.wav	1	6	4	noise_calib_stim_RIGHT.wav	2	9	blb_dichoticlistening_da-ga.mp3	da	ga	1	right
6.6.1	win	2023-06-27	14:54:28	15:07:58	806317	59e27cc0c0d35a0001294e6b	1	1	main_slash	24	main_slash	141	stimuli_distractor_diamondtriangles.svg	stimuli_target_squarediamonds.svg	16	yes	53	1	1066	6	4	antiphase_hc_sio.wav	1	6	4	noise_calib_stim_RIGHT.wav	2	9	blb_dichoticlistening_da-ga.mp3	da	ga	1	right
6.6.1	win	2023-06-27	14:54:28	15:07:58	806317	59e27cc0c0d35a0001294e6b	1	1	main_slash	24	advance_on_keypress_SLASH	142	stimuli_distractor_diamondtriangles.svg	stimuli_target_squarediamonds.svg	16	yes	57	0	599	6	4	antiphase_hc_sio.wav	1	6	4	noise_calib_stim_RIGHT.wav	2	9	blb_dichoticlistening_da-ga.mp3	da	ga	1	right
6.6.1	win	2023-06-27	14:54:28	15:08:01	809533	59e27cc0c0d35a0001294e6b	1	1	main_slash	24	main_slash	143	stimuli_distractor_trianglediamonds.svg	stimuli_distractor_diamondtriangles.svg	35	no	0	1	2003	6	4	antiphase_hc_sio.wav	1	6	4	noise_calib_stim_RIGHT.wav	2	9	blb_dichoticlistening_da-ga.mp3	da	ga	1	right
6.6.1	win	2023-06-27	14:54:28	15:08:01	809533	59e27cc0c0d35a0001294e6b	1	1	main_slash	24	advance_on_keypress_SLASH	144	stimuli_distractor_trianglediamonds.svg	stimuli_distractor_diamondtriangles.svg	35	no	57	0	442	6	4	antiphase_hc_sio.wav	1	6	4	noise_calib_stim_RIGHT.wav	2	9	blb_dichoticlistening_da-ga.mp3	da	ga	1	right
6.6.1	win	2023-06-27	14:54:28	15:08:04	812591	59e27cc0c0d35a0001294e6b	1	1	main_slash	24	main_slash	145	stimuli_distractor_trianglediamonds.svg	stimuli_distractor_trianglediamonds.svg	34	no	0	1	2003	6	4	antiphase_hc_sio.wav	1	6	4	noise_calib_stim_RIGHT.wav	2	9	blb_dichoticlistening_da-ga.mp3	da	ga	1	right
6.6.1	win	2023-06-27	14:54:28	15:08:04	812591	59e27cc0c0d35a0001294e6b	1	1	main_slash	24	advance_on_keypress_SLASH	146	stimuli_distractor_trianglediamonds.svg	stimuli_distractor_trianglediamonds.svg	34	no	57	0	383	6	4	antiphase_hc_sio.wav	1	6	4	noise_calib_stim_RIGHT.wav	2	9	blb_dichoticlistening_da-ga.mp3	da	ga	1	right
6.6.1	win	2023-06-27	14:54:28	15:08:06	814642	59e27cc0c0d35a0001294e6b	1	1	main_slash	24	main_slash	147	stimuli_target_diamondrectangles.svg	stimuli_distractor_diamondtriangles.svg	23	yes	53	1	1053	6	4	antiphase_hc_sio.wav	1	6	4	noise_calib_stim_RIGHT.wav	2	9	blb_dichoticlistening_da-ga.mp3	da	ga	1	right
6.6.1	win	2023-06-27	14:54:28	15:08:06	814642	59e27cc0c0d35a0001294e6b	1	1	main_slash	24	advance_on_keypress_SLASH	148	stimuli_target_diamondrectangles.svg	stimuli_distractor_diamondtriangles.svg	23	yes	57	0	614	6	4	antiphase_hc_sio.wav	1	6	4	noise_calib_stim_RIGHT.wav	2	9	blb_dichoticlistening_da-ga.mp3	da	ga	1	right
6.6.1	win	2023-06-27	14:54:28	15:08:09	816954	59e27cc0c0d35a0001294e6b	1	1	main_slash	24	main_slash	149	stimuli_distractor_trianglediamonds.svg	stimuli_target_squaretriangles.svg	11	yes	53	1	1086	6	4	antiphase_hc_sio.wav	1	6	4	noise_calib_stim_RIGHT.wav	2	9	blb_dichoticlistening_da-ga.mp3	da	ga	1	right
6.6.1	win	2023-06-27	14:54:28	15:08:09	816954	59e27cc0c0d35a0001294e6b	1	1	main_slash	24	advance_on_keypress_SLASH	150	stimuli_distractor_trianglediamonds.svg	stimuli_target_squaretriangles.svg	11	yes	57	0	494	6	4	antiphase_hc_sio.wav	1	6	4	noise_calib_stim_RIGHT.wav	2	9	blb_dichoticlistening_da-ga.mp3	da	ga	1	right
6.6.1	win	2023-06-27	14:54:28	15:08:12	820067	59e27cc0c0d35a0001294e6b	1	1	main_slash	24	main_slash	151	stimuli_distractor_diamondtriangles.svg	stimuli_distractor_diamondtriangles.svg	40	no	0	1	2003	6	4	antiphase_hc_sio.wav	1	6	4	noise_calib_stim_RIGHT.wav	2	9	blb_dichoticlistening_da-ga.mp3	da	ga	1	right
6.6.1	win	2023-06-27	14:54:28	15:08:12	820067	59e27cc0c0d35a0001294e6b	1	1	main_slash	24	advance_on_keypress_SLASH	152	stimuli_distractor_diamondtriangles.svg	stimuli_distractor_diamondtriangles.svg	40	no	57	0	338	6	4	antiphase_hc_sio.wav	1	6	4	noise_calib_stim_RIGHT.wav	2	9	blb_dichoticlistening_da-ga.mp3	da	ga	1	right
6.6.1	win	2023-06-27	14:54:28	15:08:14	822164	59e27cc0c0d35a0001294e6b	1	1	main_slash	24	main_slash	153	stimuli_target_rectanglediamonds.svg	stimuli_distractor_diamondtriangles.svg	6	yes	53	1	1140	6	4	antiphase_hc_sio.wav	1	6	4	noise_calib_stim_RIGHT.wav	2	9	blb_dichoticlistening_da-ga.mp3	da	ga	1	right
6.6.1	win	2023-06-27	14:54:28	15:08:14	822164	59e27cc0c0d35a0001294e6b	1	1	main_slash	24	advance_on_keypress_SLASH	154	stimuli_target_rectanglediamonds.svg	stimuli_distractor_diamondtriangles.svg	6	yes	57	0	543	6	4	antiphase_hc_sio.wav	1	6	4	noise_calib_stim_RIGHT.wav	2	9	blb_dichoticlistening_da-ga.mp3	da	ga	1	right
6.6.1	win	2023-06-27	14:54:28	15:08:16	824514	59e27cc0c0d35a0001294e6b	1	1	main_slash	24	main_slash	155	stimuli_target_diamondsquares.svg	stimuli_distractor_trianglediamonds.svg	20	yes	53	1	1190	6	4	antiphase_hc_sio.wav	1	6	4	noise_calib_stim_RIGHT.wav	2	9	blb_dichoticlistening_da-ga.mp3	da	ga	1	right
6.6.1	win	2023-06-27	14:54:28	15:08:16	824514	59e27cc0c0d35a0001294e6b	1	1	main_slash	24	advance_on_keypress_SLASH	156	stimuli_target_diamondsquares.svg	stimuli_distractor_trianglediamonds.svg	20	yes	57	0	594	6	4	antiphase_hc_sio.wav	1	6	4	noise_calib_stim_RIGHT.wav	2	9	blb_dichoticlistening_da-ga.mp3	da	ga	1	right
6.6.1	win	2023-06-27	14:54:28	15:08:19	826807	59e27cc0c0d35a0001294e6b	1	1	main_slash	24	main_slash	157	stimuli_target_squarediamonds.svg	stimuli_distractor_diamondtriangles.svg	8	yes	53	1	1086	6	4	antiphase_hc_sio.wav	1	6	4	noise_calib_stim_RIGHT.wav	2	9	blb_dichoticlistening_da-ga.mp3	da	ga	1	right
6.6.1	win	2023-06-27	14:54:28	15:08:19	826807	59e27cc0c0d35a0001294e6b	1	1	main_slash	24	advance_on_keypress_SLASH	158	stimuli_target_squarediamonds.svg	stimuli_distractor_diamondtriangles.svg	8	yes	57	0	510	6	4	antiphase_hc_sio.wav	1	6	4	noise_calib_stim_RIGHT.wav	2	9	blb_dichoticlistening_da-ga.mp3	da	ga	1	right
6.6.1	win	2023-06-27	14:54:28	15:08:22	829934	59e27cc0c0d35a0001294e6b	1	1	main_slash	24	main_slash	159	stimuli_distractor_diamondtriangles.svg	stimuli_distractor_trianglediamonds.svg	38	no	0	1	2003	6	4	antiphase_hc_sio.wav	1	6	4	noise_calib_stim_RIGHT.wav	2	9	blb_dichoticlistening_da-ga.mp3	da	ga	1	right
6.6.1	win	2023-06-27	14:54:28	15:08:22	829934	59e27cc0c0d35a0001294e6b	1	1	main_slash	24	advance_on_keypress_SLASH	160	stimuli_distractor_diamondtriangles.svg	stimuli_distractor_trianglediamonds.svg	38	no	57	0	411	6	4	antiphase_hc_sio.wav	1	6	4	noise_calib_stim_RIGHT.wav	2	9	blb_dichoticlistening_da-ga.mp3	da	ga	1	right
6.6.1	win	2023-06-27	14:54:28	15:08:43	850925	59e27cc0c0d35a0001294e6b	1	1	practice_z	26	practice_z	1	stimuli_distractor_trianglediamonds.svg	stimuli_target_squarediamonds.svg	11	yes	44	1	925	6	4	antiphase_hc_sio.wav	1	6	4	noise_calib_stim_RIGHT.wav	2	9	blb_dichoticlistening_da-ga.mp3	da	ga	1	right
6.6.1	win	2023-06-27	14:54:28	15:08:43	850925	59e27cc0c0d35a0001294e6b	1	1	practice_z	26	advance_on_keypress_ZEE	2	stimuli_distractor_trianglediamonds.svg	stimuli_target_squarediamonds.svg	11	yes	57	0	552	6	4	antiphase_hc_sio.wav	1	6	4	noise_calib_stim_RIGHT.wav	2	9	blb_dichoticlistening_da-ga.mp3	da	ga	1	right
6.6.1	win	2023-06-27	14:54:28	15:08:46	853989	59e27cc0c0d35a0001294e6b	1	1	practice_z	26	practice_z	3	stimuli_distractor_diamondtriangles.svg	stimuli_target_trianglerectangles.svg	9	yes	44	1	896	6	4	antiphase_hc_sio.wav	1	6	4	noise_calib_stim_RIGHT.wav	2	9	blb_dichoticlistening_da-ga.mp3	da	ga	1	right
6.6.1	win	2023-06-27	14:54:28	15:08:46	853989	59e27cc0c0d35a0001294e6b	1	1	practice_z	26	advance_on_keypress_ZEE	4	stimuli_distractor_diamondtriangles.svg	stimuli_target_trianglerectangles.svg	9	yes	57	0	429	6	4	antiphase_hc_sio.wav	1	6	4	noise_calib_stim_RIGHT.wav	2	9	blb_dichoticlistening_da-ga.mp3	da	ga	1	right
6.6.1	win	2023-06-27	14:54:28	15:08:50	858042	59e27cc0c0d35a0001294e6b	1	1	practice_z	26	practice_z	5	stimuli_distractor_diamondtriangles.svg	stimuli_distractor_diamondtriangles.svg	13	no	0	1	2003	6	4	antiphase_hc_sio.wav	1	6	4	noise_calib_stim_RIGHT.wav	2	9	blb_dichoticlistening_da-ga.mp3	da	ga	1	right
6.6.1	win	2023-06-27	14:54:28	15:08:50	858042	59e27cc0c0d35a0001294e6b	1	1	practice_z	26	advance_on_keypress_ZEE	6	stimuli_distractor_diamondtriangles.svg	stimuli_distractor_diamondtriangles.svg	13	no	57	0	1702	6	4	antiphase_hc_sio.wav	1	6	4	noise_calib_stim_RIGHT.wav	2	9	blb_dichoticlistening_da-ga.mp3	da	ga	1	right
6.6.1	win	2023-06-27	14:54:28	15:08:54	862220	59e27cc0c0d35a0001294e6b	1	1	practice_z	26	practice_z	7	stimuli_target_diamondsquares.svg	stimuli_distractor_diamondtriangles.svg	3	yes	44	1	858	6	4	antiphase_hc_sio.wav	1	6	4	noise_calib_stim_RIGHT.wav	2	9	blb_dichoticlistening_da-ga.mp3	da	ga	1	right
6.6.1	win	2023-06-27	14:54:28	15:08:54	862220	59e27cc0c0d35a0001294e6b	1	1	practice_z	26	advance_on_keypress_ZEE	8	stimuli_target_diamondsquares.svg	stimuli_distractor_diamondtriangles.svg	3	yes	57	0	443	6	4	antiphase_hc_sio.wav	1	6	4	noise_calib_stim_RIGHT.wav	2	9	blb_dichoticlistening_da-ga.mp3	da	ga	1	right
6.6.1	win	2023-06-27	14:54:28	15:08:57	865172	59e27cc0c0d35a0001294e6b	1	1	practice_z	26	practice_z	9	stimuli_distractor_diamondtriangles.svg	stimuli_target_rectangletriangles.svg	7	yes	44	1	893	6	4	antiphase_hc_sio.wav	1	6	4	noise_calib_stim_RIGHT.wav	2	9	blb_dichoticlistening_da-ga.mp3	da	ga	1	right
6.6.1	win	2023-06-27	14:54:28	15:08:57	865172	59e27cc0c0d35a0001294e6b	1	1	practice_z	26	advance_on_keypress_ZEE	10	stimuli_distractor_diamondtriangles.svg	stimuli_target_rectangletriangles.svg	7	yes	57	0	449	6	4	antiphase_hc_sio.wav	1	6	4	noise_calib_stim_RIGHT.wav	2	9	blb_dichoticlistening_da-ga.mp3	da	ga	1	right
6.6.1	win	2023-06-27	14:54:28	15:09:01	869236	59e27cc0c0d35a0001294e6b	1	1	practice_z	26	practice_z	11	stimuli_distractor_trianglediamonds.svg	stimuli_distractor_trianglediamonds.svg	15	no	0	1	2003	6	4	antiphase_hc_sio.wav	1	6	4	noise_calib_stim_RIGHT.wav	2	9	blb_dichoticlistening_da-ga.mp3	da	ga	1	right
6.6.1	win	2023-06-27	14:54:28	15:09:01	869236	59e27cc0c0d35a0001294e6b	1	1	practice_z	26	advance_on_keypress_ZEE	12	stimuli_distractor_trianglediamonds.svg	stimuli_distractor_trianglediamonds.svg	15	no	57	0	456	6	4	antiphase_hc_sio.wav	1	6	4	noise_calib_stim_RIGHT.wav	2	9	blb_dichoticlistening_da-ga.mp3	da	ga	1	right
6.6.1	win	2023-06-27	14:54:28	15:09:04	872161	59e27cc0c0d35a0001294e6b	1	1	practice_z	26	practice_z	13	stimuli_target_rectanglediamonds.svg	stimuli_distractor_diamondtriangles.svg	1	yes	44	1	857	6	4	antiphase_hc_sio.wav	1	6	4	noise_calib_stim_RIGHT.wav	2	9	blb_dichoticlistening_da-ga.mp3	da	ga	1	right
6.6.1	win	2023-06-27	14:54:28	15:09:04	872161	59e27cc0c0d35a0001294e6b	1	1	practice_z	26	advance_on_keypress_ZEE	14	stimuli_target_rectanglediamonds.svg	stimuli_distractor_diamondtriangles.svg	1	yes	57	0	488	6	4	antiphase_hc_sio.wav	1	6	4	noise_calib_stim_RIGHT.wav	2	9	blb_dichoticlistening_da-ga.mp3	da	ga	1	right
