build	computer.platform	date	time	timestamp	time_elapsed_ms	subject	group	session	blockcode	blocknum	trialcode	trialnum	stimulus_left	stimulus_right	stim_index	target_present	response	correct	latency	headphonecheck_countTestTrials	headphonecheck_index	headphonecheck_testSound	headphonecheck_correctResponse	stereocheck_countTestTrials	stereocheck_index	stereocheck_testSound	stereocheck_correctResponse	DL_index	DL_soundfile	DL_leftSound	DL_rightSound	DL_dualSound	DL_choice
6.6.1	mac	2023-07-07	00:22:21	0	0	5e6d7b0421be18343d8bc4a9	1	1	headphonecheck_calibration	4	headphonecheck_calibrationIntro	1			0		calibrationButton	0	3904	0	0			0	0			1				0	
6.6.1	mac	2023-07-07	00:22:21	0	0	5e6d7b0421be18343d8bc4a9	1	1	headphonecheck_testphase	5	test_collectResponse	3			0		second	0	18481	1	3	antiphase_hc_soi.wav	1	0	0			1				0	
6.6.1	mac	2023-07-07	00:22:21	0	0	5e6d7b0421be18343d8bc4a9	1	1	headphonecheck_testphase	5	test_collectResponse	6			0		third	1	581	2	2	antiphase_hc_ios.wav	3	0	0			1				0	
6.6.1	mac	2023-07-07	00:22:21	0	0	5e6d7b0421be18343d8bc4a9	1	1	headphonecheck_testphase	5	test_collectResponse	9			0		second	1	314	3	1	antiphase_hc_iso.wav	2	0	0			1				0	
6.6.1	mac	2023-07-07	00:22:21	0	0	5e6d7b0421be18343d8bc4a9	1	1	headphonecheck_testphase	5	test_collectResponse	12			0		first	1	423	4	4	antiphase_hc_sio.wav	1	0	0			1				0	
6.6.1	mac	2023-07-07	00:22:21	0	0	5e6d7b0421be18343d8bc4a9	1	1	headphonecheck_testphase	5	test_collectResponse	15			0		third	1	381	5	6	antiphase_hc_ois.wav	3	0	0			1				0	
6.6.1	mac	2023-07-07	00:22:21	0	0	5e6d7b0421be18343d8bc4a9	1	1	headphonecheck_testphase	5	test_collectResponse	18			0		second	1	315	6	5	antiphase_hc_osi.wav	2	0	0			1				0	
6.6.1	mac	2023-07-07	00:22:21	0	0	5e6d7b0421be18343d8bc4a9	1	1	stereocheck_calibration	7	stereocheck_calibrationIntro	1			0		stereocheck_calibrationButton	0	6216	6	5	antiphase_hc_osi.wav	2	0	0			1				0	
6.6.1	mac	2023-07-07	00:22:21	0	0	5e6d7b0421be18343d8bc4a9	1	1	stereocheck_testphase	8	stereocheck_test_collectResponse	3			0		stereocheck_right	1	1533	6	5	antiphase_hc_osi.wav	2	1	4	noise_calib_stim_RIGHT.wav	2	1				0	
6.6.1	mac	2023-07-07	00:22:21	0	0	5e6d7b0421be18343d8bc4a9	1	1	stereocheck_testphase	8	stereocheck_test_collectResponse	6			0		stereocheck_left	1	366	6	5	antiphase_hc_osi.wav	2	2	1	noise_calib_stim_LEFT.wav	1	1				0	
6.6.1	mac	2023-07-07	00:22:21	0	0	5e6d7b0421be18343d8bc4a9	1	1	stereocheck_testphase	8	stereocheck_test_collectResponse	9			0		stereocheck_right	1	209	6	5	antiphase_hc_osi.wav	2	3	6	noise_calib_stim_RIGHT.wav	2	1				0	
6.6.1	mac	2023-07-07	00:22:21	0	0	5e6d7b0421be18343d8bc4a9	1	1	stereocheck_testphase	8	stereocheck_test_collectResponse	12			0		stereocheck_right	1	283	6	5	antiphase_hc_osi.wav	2	4	5	noise_calib_stim_RIGHT.wav	2	1				0	
6.6.1	mac	2023-07-07	00:22:21	0	0	5e6d7b0421be18343d8bc4a9	1	1	stereocheck_testphase	8	stereocheck_test_collectResponse	15			0		stereocheck_left	1	332	6	5	antiphase_hc_osi.wav	2	5	2	noise_calib_stim_LEFT.wav	1	1				0	
6.6.1	mac	2023-07-07	00:22:21	0	0	5e6d7b0421be18343d8bc4a9	1	1	stereocheck_testphase	8	stereocheck_test_collectResponse	18			0		stereocheck_left	1	265	6	5	antiphase_hc_osi.wav	2	6	3	noise_calib_stim_LEFT.wav	1	1				0	
6.6.1	mac	2023-07-07	00:22:21	0	0	5e6d7b0421be18343d8bc4a9	1	1	DL_practice	11	DL_practice	2			0		ka	1	2067	6	5	antiphase_hc_osi.wav	2	6	3	noise_calib_stim_LEFT.wav	1	23	blb_dichoticlistening_ka-pa.mp3	ka	pa	1	left
6.6.1	mac	2023-07-07	00:22:21	0	0	5e6d7b0421be18343d8bc4a9	1	1	DL_practice	11	DL_practice	3			0		ga	1	1550	6	5	antiphase_hc_osi.wav	2	6	3	noise_calib_stim_LEFT.wav	1	18	blb_dichoticlistening_ga-ta.mp3	ga	ta	1	left
6.6.1	mac	2023-07-07	00:22:21	0	0	5e6d7b0421be18343d8bc4a9	1	1	DL_practice	11	DL_practice	4			0		ba	1	1183	6	5	antiphase_hc_osi.wav	2	6	3	noise_calib_stim_LEFT.wav	1	7	blb_dichoticlistening_da-ba.mp3	da	ba	1	right
6.6.1	mac	2023-07-07	00:22:21	0	0	5e6d7b0421be18343d8bc4a9	1	1	DL_practice	11	DL_practice	5			0		da	1	617	6	5	antiphase_hc_osi.wav	2	6	3	noise_calib_stim_LEFT.wav	1	8	blb_dichoticlistening_da-da.mp3	da	da	0	left
6.6.1	mac	2023-07-07	00:22:21	0	0	5e6d7b0421be18343d8bc4a9	1	1	DL_practice	11	DL_practice	6			0		ga	1	750	6	5	antiphase_hc_osi.wav	2	6	3	noise_calib_stim_LEFT.wav	1	15	blb_dichoticlistening_ga-ga.mp3	ga	ga	0	left
6.6.1	mac	2023-07-07	00:22:21	0	0	5e6d7b0421be18343d8bc4a9	1	1	DL_practice	11	DL_practice	7			0		ba	1	2800	6	5	antiphase_hc_osi.wav	2	6	3	noise_calib_stim_LEFT.wav	1	1	blb_dichoticlistening_ba-ba.mp3	ba	ba	0	left
6.6.1	mac	2023-07-07	00:22:21	0	0	5e6d7b0421be18343d8bc4a9	1	1	DL_practice	11	DL_practice	8			0		ka	1	866	6	5	antiphase_hc_osi.wav	2	6	3	noise_calib_stim_LEFT.wav	1	22	blb_dichoticlistening_ka-ka.mp3	ka	ka	0	left
6.6.1	mac	2023-07-07	00:22:21	0	0	5e6d7b0421be18343d8bc4a9	1	1	DL_practice	11	DL_practice	9			0		pa	1	817	6	5	antiphase_hc_osi.wav	2	6	3	noise_calib_stim_LEFT.wav	1	29	blb_dichoticlistening_pa-pa.mp3	pa	pa	0	left
6.6.1	mac	2023-07-07	00:22:21	0	0	5e6d7b0421be18343d8bc4a9	1	1	DL_practice	11	DL_practice	10			0		ta	1	834	6	5	antiphase_hc_osi.wav	2	6	3	noise_calib_stim_LEFT.wav	1	36	blb_dichoticlistening_ta-ta.mp3	ta	ta	0	left
6.6.1	mac	2023-07-07	00:22:21	0	0	5e6d7b0421be18343d8bc4a9	1	1	DL_test	13	DL_test	1			0		ka	1	918	6	5	antiphase_hc_osi.wav	2	6	3	noise_calib_stim_LEFT.wav	1	34	blb_dichoticlistening_ta-ka.mp3	ta	ka	1	right
6.6.1	mac	2023-07-07	00:22:21	0	0	5e6d7b0421be18343d8bc4a9	1	1	DL_test	13	DL_test	2			0		da	1	867	6	5	antiphase_hc_osi.wav	2	6	3	noise_calib_stim_LEFT.wav	1	10	blb_dichoticlistening_da-ka.mp3	da	ka	1	left
6.6.1	mac	2023-07-07	00:22:21	0	0	5e6d7b0421be18343d8bc4a9	1	1	DL_test	13	DL_test	3			0		ba	1	2784	6	5	antiphase_hc_osi.wav	2	6	3	noise_calib_stim_LEFT.wav	1	6	blb_dichoticlistening_ba-ta.mp3	ba	ta	1	left
6.6.1	mac	2023-07-07	00:22:21	0	0	5e6d7b0421be18343d8bc4a9	1	1	DL_test	13	DL_test	4			0		ga	1	717	6	5	antiphase_hc_osi.wav	2	6	3	noise_calib_stim_LEFT.wav	1	18	blb_dichoticlistening_ga-ta.mp3	ga	ta	1	left
6.6.1	mac	2023-07-07	00:22:21	0	0	5e6d7b0421be18343d8bc4a9	1	1	DL_test	13	DL_test	5			0		ga	0	700	6	5	antiphase_hc_osi.wav	2	6	3	noise_calib_stim_LEFT.wav	1	20	blb_dichoticlistening_ka-da.mp3	ka	da	1	other
6.6.1	mac	2023-07-07	00:22:21	0	0	5e6d7b0421be18343d8bc4a9	1	1	DL_test	13	DL_test	6			0		ka	1	1051	6	5	antiphase_hc_osi.wav	2	6	3	noise_calib_stim_LEFT.wav	1	4	blb_dichoticlistening_ba-ka.mp3	ba	ka	1	right
6.6.1	mac	2023-07-07	00:22:21	0	0	5e6d7b0421be18343d8bc4a9	1	1	DL_test	13	DL_test	7			0		ba	1	1100	6	5	antiphase_hc_osi.wav	2	6	3	noise_calib_stim_LEFT.wav	1	1	blb_dichoticlistening_ba-ba.mp3	ba	ba	0	left
6.6.1	mac	2023-07-07	00:22:21	0	0	5e6d7b0421be18343d8bc4a9	1	1	DL_test	13	DL_test	8			0		ga	1	868	6	5	antiphase_hc_osi.wav	2	6	3	noise_calib_stim_LEFT.wav	1	27	blb_dichoticlistening_pa-ga.mp3	pa	ga	1	right
6.6.1	mac	2023-07-07	00:22:21	0	0	5e6d7b0421be18343d8bc4a9	1	1	DL_test	13	DL_test	9			0		pa	1	1234	6	5	antiphase_hc_osi.wav	2	6	3	noise_calib_stim_LEFT.wav	1	29	blb_dichoticlistening_pa-pa.mp3	pa	pa	0	left
6.6.1	mac	2023-07-07	00:22:21	0	0	5e6d7b0421be18343d8bc4a9	1	1	DL_test	13	DL_test	10			0		ba	1	1500	6	5	antiphase_hc_osi.wav	2	6	3	noise_calib_stim_LEFT.wav	1	7	blb_dichoticlistening_da-ba.mp3	da	ba	1	right
6.6.1	mac	2023-07-07	00:22:21	0	0	5e6d7b0421be18343d8bc4a9	1	1	DL_test	13	DL_test	11			0		ka	1	885	6	5	antiphase_hc_osi.wav	2	6	3	noise_calib_stim_LEFT.wav	1	22	blb_dichoticlistening_ka-ka.mp3	ka	ka	0	left
6.6.1	mac	2023-07-07	00:22:21	0	0	5e6d7b0421be18343d8bc4a9	1	1	DL_test	13	DL_test	12			0		ga	1	1235	6	5	antiphase_hc_osi.wav	2	6	3	noise_calib_stim_LEFT.wav	1	3	blb_dichoticlistening_ba-ga.mp3	ba	ga	1	right
6.6.1	mac	2023-07-07	00:22:21	0	0	5e6d7b0421be18343d8bc4a9	1	1	DL_test	13	DL_test	13			0		da	1	768	6	5	antiphase_hc_osi.wav	2	6	3	noise_calib_stim_LEFT.wav	1	32	blb_dichoticlistening_ta-da.mp3	ta	da	1	right
6.6.1	mac	2023-07-07	00:22:21	0	0	5e6d7b0421be18343d8bc4a9	1	1	DL_test	13	DL_test	14			0		ga	1	717	6	5	antiphase_hc_osi.wav	2	6	3	noise_calib_stim_LEFT.wav	1	21	blb_dichoticlistening_ka-ga.mp3	ka	ga	1	right
6.6.1	mac	2023-07-07	00:22:21	0	0	5e6d7b0421be18343d8bc4a9	1	1	DL_test	13	DL_test	15			0		ka	1	1084	6	5	antiphase_hc_osi.wav	2	6	3	noise_calib_stim_LEFT.wav	1	23	blb_dichoticlistening_ka-pa.mp3	ka	pa	1	left
6.6.1	mac	2023-07-07	00:22:21	0	0	5e6d7b0421be18343d8bc4a9	1	1	DL_test	13	DL_test	16			0		da	1	1134	6	5	antiphase_hc_osi.wav	2	6	3	noise_calib_stim_LEFT.wav	1	12	blb_dichoticlistening_da-ta.mp3	da	ta	1	left
6.6.1	mac	2023-07-07	00:22:21	0	0	5e6d7b0421be18343d8bc4a9	1	1	DL_test	13	DL_test	17			0		ta	1	2268	6	5	antiphase_hc_osi.wav	2	6	3	noise_calib_stim_LEFT.wav	1	31	blb_dichoticlistening_ta-ba.mp3	ta	ba	1	left
6.6.1	mac	2023-07-07	00:22:21	0	0	5e6d7b0421be18343d8bc4a9	1	1	DL_test	13	DL_test	18			0		ga	1	968	6	5	antiphase_hc_osi.wav	2	6	3	noise_calib_stim_LEFT.wav	1	16	blb_dichoticlistening_ga-ka.mp3	ga	ka	1	left
6.6.1	mac	2023-07-07	00:22:21	0	0	5e6d7b0421be18343d8bc4a9	1	1	DL_test	13	DL_test	19			0		da	1	917	6	5	antiphase_hc_osi.wav	2	6	3	noise_calib_stim_LEFT.wav	1	11	blb_dichoticlistening_da-pa.mp3	da	pa	1	left
6.6.1	mac	2023-07-07	00:22:21	0	0	5e6d7b0421be18343d8bc4a9	1	1	DL_test	13	DL_test	20			0		ta	1	1484	6	5	antiphase_hc_osi.wav	2	6	3	noise_calib_stim_LEFT.wav	1	35	blb_dichoticlistening_ta-pa.mp3	ta	pa	1	left
6.6.1	mac	2023-07-07	00:22:21	0	0	5e6d7b0421be18343d8bc4a9	1	1	DL_test	13	DL_test	21			0		ta	1	1051	6	5	antiphase_hc_osi.wav	2	6	3	noise_calib_stim_LEFT.wav	1	24	blb_dichoticlistening_ka-ta.mp3	ka	ta	1	right
6.6.1	mac	2023-07-07	00:22:21	0	0	5e6d7b0421be18343d8bc4a9	1	1	DL_test	13	DL_test	22			0		ka	1	730	6	5	antiphase_hc_osi.wav	2	6	3	noise_calib_stim_LEFT.wav	1	28	blb_dichoticlistening_pa-ka.mp3	pa	ka	1	right
6.6.1	mac	2023-07-07	00:22:21	0	0	5e6d7b0421be18343d8bc4a9	1	1	DL_test	13	DL_test	23			0		da	1	917	6	5	antiphase_hc_osi.wav	2	6	3	noise_calib_stim_LEFT.wav	1	2	blb_dichoticlistening_ba-da.mp3	ba	da	1	right
6.6.1	mac	2023-07-07	00:22:21	0	0	5e6d7b0421be18343d8bc4a9	1	1	DL_test	13	DL_test	24			0		ba	1	1434	6	5	antiphase_hc_osi.wav	2	6	3	noise_calib_stim_LEFT.wav	1	13	blb_dichoticlistening_ga-ba.mp3	ga	ba	1	right
6.6.1	mac	2023-07-07	00:22:21	0	0	5e6d7b0421be18343d8bc4a9	1	1	DL_test	13	DL_test	25			0		ga	1	701	6	5	antiphase_hc_osi.wav	2	6	3	noise_calib_stim_LEFT.wav	1	33	blb_dichoticlistening_ta-ga.mp3	ta	ga	1	right
6.6.1	mac	2023-07-07	00:22:21	0	0	5e6d7b0421be18343d8bc4a9	1	1	DL_test	13	DL_test	26			0		pa	1	1151	6	5	antiphase_hc_osi.wav	2	6	3	noise_calib_stim_LEFT.wav	1	5	blb_dichoticlistening_ba-pa.mp3	ba	pa	1	right
6.6.1	mac	2023-07-07	00:22:21	0	0	5e6d7b0421be18343d8bc4a9	1	1	DL_test	13	DL_test	27			0		da	1	785	6	5	antiphase_hc_osi.wav	2	6	3	noise_calib_stim_LEFT.wav	1	26	blb_dichoticlistening_pa-da.mp3	pa	da	1	right
6.6.1	mac	2023-07-07	00:22:21	0	0	5e6d7b0421be18343d8bc4a9	1	1	DL_test	13	DL_test	28			0		ta	1	1268	6	5	antiphase_hc_osi.wav	2	6	3	noise_calib_stim_LEFT.wav	1	30	blb_dichoticlistening_pa-ta.mp3	pa	ta	1	right
6.6.1	mac	2023-07-07	00:22:21	0	0	5e6d7b0421be18343d8bc4a9	1	1	DL_test	13	DL_test	29			0		ga	1	668	6	5	antiphase_hc_osi.wav	2	6	3	noise_calib_stim_LEFT.wav	1	17	blb_dichoticlistening_ga-pa.mp3	ga	pa	1	left
6.6.1	mac	2023-07-07	00:22:21	0	0	5e6d7b0421be18343d8bc4a9	1	1	DL_test	13	DL_test	30			0		ga	1	835	6	5	antiphase_hc_osi.wav	2	6	3	noise_calib_stim_LEFT.wav	1	14	blb_dichoticlistening_ga-da.mp3	ga	da	1	left
6.6.1	mac	2023-07-07	00:22:21	0	0	5e6d7b0421be18343d8bc4a9	1	1	DL_test	13	DL_test	31			0		ga	1	784	6	5	antiphase_hc_osi.wav	2	6	3	noise_calib_stim_LEFT.wav	1	9	blb_dichoticlistening_da-ga.mp3	da	ga	1	right
6.6.1	mac	2023-07-07	00:22:21	0	0	5e6d7b0421be18343d8bc4a9	1	1	DL_test	13	DL_test	32			0		ga	1	718	6	5	antiphase_hc_osi.wav	2	6	3	noise_calib_stim_LEFT.wav	1	15	blb_dichoticlistening_ga-ga.mp3	ga	ga	0	left
6.6.1	mac	2023-07-07	00:22:21	0	0	5e6d7b0421be18343d8bc4a9	1	1	DL_test	13	DL_test	33			0		ta	1	1184	6	5	antiphase_hc_osi.wav	2	6	3	noise_calib_stim_LEFT.wav	1	36	blb_dichoticlistening_ta-ta.mp3	ta	ta	0	left
6.6.1	mac	2023-07-07	00:22:21	0	0	5e6d7b0421be18343d8bc4a9	1	1	DL_test	13	DL_test	34			0		da	1	1284	6	5	antiphase_hc_osi.wav	2	6	3	noise_calib_stim_LEFT.wav	1	8	blb_dichoticlistening_da-da.mp3	da	da	0	left
6.6.1	mac	2023-07-07	00:22:21	0	0	5e6d7b0421be18343d8bc4a9	1	1	DL_test	13	DL_test	35			0		ga	0	1802	6	5	antiphase_hc_osi.wav	2	6	3	noise_calib_stim_LEFT.wav	1	19	blb_dichoticlistening_ka-ba.mp3	ka	ba	1	other
6.6.1	mac	2023-07-07	00:22:21	0	0	5e6d7b0421be18343d8bc4a9	1	1	DL_test	13	DL_test	36			0		pa	1	1751	6	5	antiphase_hc_osi.wav	2	6	3	noise_calib_stim_LEFT.wav	1	25	blb_dichoticlistening_pa-ba.mp3	pa	ba	1	left
6.6.1	mac	2023-07-07	00:22:21	0	0	5e6d7b0421be18343d8bc4a9	1	1	DL_test	14	DL_test	1			0		ba	1	1835	6	5	antiphase_hc_osi.wav	2	6	3	noise_calib_stim_LEFT.wav	1	13	blb_dichoticlistening_ga-ba.mp3	ga	ba	1	right
6.6.1	mac	2023-07-07	00:22:21	0	0	5e6d7b0421be18343d8bc4a9	1	1	DL_test	14	DL_test	2			0		ga	1	801	6	5	antiphase_hc_osi.wav	2	6	3	noise_calib_stim_LEFT.wav	1	33	blb_dichoticlistening_ta-ga.mp3	ta	ga	1	right
6.6.1	mac	2023-07-07	00:22:21	0	0	5e6d7b0421be18343d8bc4a9	1	1	DL_test	14	DL_test	3			0		ka	1	551	6	5	antiphase_hc_osi.wav	2	6	3	noise_calib_stim_LEFT.wav	1	22	blb_dichoticlistening_ka-ka.mp3	ka	ka	0	left
6.6.1	mac	2023-07-07	00:22:21	0	0	5e6d7b0421be18343d8bc4a9	1	1	DL_test	14	DL_test	4			0		pa	0	1268	6	5	antiphase_hc_osi.wav	2	6	3	noise_calib_stim_LEFT.wav	1	7	blb_dichoticlistening_da-ba.mp3	da	ba	1	other
6.6.1	mac	2023-07-07	00:22:21	0	0	5e6d7b0421be18343d8bc4a9	1	1	DL_test	14	DL_test	5			0		pa	1	985	6	5	antiphase_hc_osi.wav	2	6	3	noise_calib_stim_LEFT.wav	1	5	blb_dichoticlistening_ba-pa.mp3	ba	pa	1	right
6.6.1	mac	2023-07-07	00:22:21	0	0	5e6d7b0421be18343d8bc4a9	1	1	DL_test	14	DL_test	6			0		ga	1	1852	6	5	antiphase_hc_osi.wav	2	6	3	noise_calib_stim_LEFT.wav	1	21	blb_dichoticlistening_ka-ga.mp3	ka	ga	1	right
6.6.1	mac	2023-07-07	00:22:21	0	0	5e6d7b0421be18343d8bc4a9	1	1	DL_test	14	DL_test	7			0		ka	1	785	6	5	antiphase_hc_osi.wav	2	6	3	noise_calib_stim_LEFT.wav	1	24	blb_dichoticlistening_ka-ta.mp3	ka	ta	1	left
6.6.1	mac	2023-07-07	00:22:21	0	0	5e6d7b0421be18343d8bc4a9	1	1	DL_test	14	DL_test	8			0		ka	0	902	6	5	antiphase_hc_osi.wav	2	6	3	noise_calib_stim_LEFT.wav	1	17	blb_dichoticlistening_ga-pa.mp3	ga	pa	1	other
6.6.1	mac	2023-07-07	00:22:21	0	0	5e6d7b0421be18343d8bc4a9	1	1	DL_test	14	DL_test	9			0		ga	1	1251	6	5	antiphase_hc_osi.wav	2	6	3	noise_calib_stim_LEFT.wav	1	16	blb_dichoticlistening_ga-ka.mp3	ga	ka	1	left
6.6.1	mac	2023-07-07	00:22:21	0	0	5e6d7b0421be18343d8bc4a9	1	1	DL_test	14	DL_test	10			0		ta	1	1235	6	5	antiphase_hc_osi.wav	2	6	3	noise_calib_stim_LEFT.wav	1	35	blb_dichoticlistening_ta-pa.mp3	ta	pa	1	left
6.6.1	mac	2023-07-07	00:22:21	0	0	5e6d7b0421be18343d8bc4a9	1	1	DL_test	14	DL_test	11			0		ba	1	1485	6	5	antiphase_hc_osi.wav	2	6	3	noise_calib_stim_LEFT.wav	1	1	blb_dichoticlistening_ba-ba.mp3	ba	ba	0	left
6.6.1	mac	2023-07-07	00:22:21	0	0	5e6d7b0421be18343d8bc4a9	1	1	DL_test	14	DL_test	12			0		da	1	785	6	5	antiphase_hc_osi.wav	2	6	3	noise_calib_stim_LEFT.wav	1	10	blb_dichoticlistening_da-ka.mp3	da	ka	1	left
6.6.1	mac	2023-07-07	00:22:21	0	0	5e6d7b0421be18343d8bc4a9	1	1	DL_test	14	DL_test	13			0		da	1	1336	6	5	antiphase_hc_osi.wav	2	6	3	noise_calib_stim_LEFT.wav	1	20	blb_dichoticlistening_ka-da.mp3	ka	da	1	right
6.6.1	mac	2023-07-07	00:22:21	0	0	5e6d7b0421be18343d8bc4a9	1	1	DL_test	14	DL_test	14			0		ga	1	635	6	5	antiphase_hc_osi.wav	2	6	3	noise_calib_stim_LEFT.wav	1	9	blb_dichoticlistening_da-ga.mp3	da	ga	1	right
6.6.1	mac	2023-07-07	00:22:21	0	0	5e6d7b0421be18343d8bc4a9	1	1	DL_test	14	DL_test	15			0		ta	1	1301	6	5	antiphase_hc_osi.wav	2	6	3	noise_calib_stim_LEFT.wav	1	36	blb_dichoticlistening_ta-ta.mp3	ta	ta	0	left
6.6.1	mac	2023-07-07	00:22:21	0	0	5e6d7b0421be18343d8bc4a9	1	1	DL_test	14	DL_test	16			0		ba	1	1535	6	5	antiphase_hc_osi.wav	2	6	3	noise_calib_stim_LEFT.wav	1	3	blb_dichoticlistening_ba-ga.mp3	ba	ga	1	left
6.6.1	mac	2023-07-07	00:22:21	0	0	5e6d7b0421be18343d8bc4a9	1	1	DL_test	14	DL_test	17			0		ba	1	1435	6	5	antiphase_hc_osi.wav	2	6	3	noise_calib_stim_LEFT.wav	1	6	blb_dichoticlistening_ba-ta.mp3	ba	ta	1	left
6.6.1	mac	2023-07-07	00:22:21	0	0	5e6d7b0421be18343d8bc4a9	1	1	DL_test	14	DL_test	18			0		da	1	985	6	5	antiphase_hc_osi.wav	2	6	3	noise_calib_stim_LEFT.wav	1	11	blb_dichoticlistening_da-pa.mp3	da	pa	1	left
6.6.1	mac	2023-07-07	00:22:21	0	0	5e6d7b0421be18343d8bc4a9	1	1	DL_test	14	DL_test	19			0		ka	0	1052	6	5	antiphase_hc_osi.wav	2	6	3	noise_calib_stim_LEFT.wav	1	18	blb_dichoticlistening_ga-ta.mp3	ga	ta	1	other
6.6.1	mac	2023-07-07	00:22:21	0	0	5e6d7b0421be18343d8bc4a9	1	1	DL_test	14	DL_test	20			0		ga	1	1024	6	5	antiphase_hc_osi.wav	2	6	3	noise_calib_stim_LEFT.wav	1	27	blb_dichoticlistening_pa-ga.mp3	pa	ga	1	right
6.6.1	mac	2023-07-07	00:22:21	0	0	5e6d7b0421be18343d8bc4a9	1	1	DL_test	14	DL_test	21			0		ga	1	769	6	5	antiphase_hc_osi.wav	2	6	3	noise_calib_stim_LEFT.wav	1	15	blb_dichoticlistening_ga-ga.mp3	ga	ga	0	left
6.6.1	mac	2023-07-07	00:22:21	0	0	5e6d7b0421be18343d8bc4a9	1	1	DL_test	14	DL_test	22			0		ka	1	985	6	5	antiphase_hc_osi.wav	2	6	3	noise_calib_stim_LEFT.wav	1	28	blb_dichoticlistening_pa-ka.mp3	pa	ka	1	right
6.6.1	mac	2023-07-07	00:22:21	0	0	5e6d7b0421be18343d8bc4a9	1	1	DL_test	14	DL_test	23			0		da	1	1219	6	5	antiphase_hc_osi.wav	2	6	3	noise_calib_stim_LEFT.wav	1	26	blb_dichoticlistening_pa-da.mp3	pa	da	1	right
6.6.1	mac	2023-07-07	00:22:21	0	0	5e6d7b0421be18343d8bc4a9	1	1	DL_test	14	DL_test	24			0		pa	1	1836	6	5	antiphase_hc_osi.wav	2	6	3	noise_calib_stim_LEFT.wav	1	25	blb_dichoticlistening_pa-ba.mp3	pa	ba	1	left
6.6.1	mac	2023-07-07	00:22:21	0	0	5e6d7b0421be18343d8bc4a9	1	1	DL_test	14	DL_test	25			0		da	1	1503	6	5	antiphase_hc_osi.wav	2	6	3	noise_calib_stim_LEFT.wav	1	12	blb_dichoticlistening_da-ta.mp3	da	ta	1	left
6.6.1	mac	2023-07-07	00:22:21	0	0	5e6d7b0421be18343d8bc4a9	1	1	DL_test	14	DL_test	26			0		ba	1	2619	6	5	antiphase_hc_osi.wav	2	6	3	noise_calib_stim_LEFT.wav	1	4	blb_dichoticlistening_ba-ka.mp3	ba	ka	1	left
6.6.1	mac	2023-07-07	00:22:21	0	0	5e6d7b0421be18343d8bc4a9	1	1	DL_test	14	DL_test	27			0		ta	1	1886	6	5	antiphase_hc_osi.wav	2	6	3	noise_calib_stim_LEFT.wav	1	31	blb_dichoticlistening_ta-ba.mp3	ta	ba	1	left
6.6.1	mac	2023-07-07	00:22:21	0	0	5e6d7b0421be18343d8bc4a9	1	1	DL_test	14	DL_test	28			0		da	1	1103	6	5	antiphase_hc_osi.wav	2	6	3	noise_calib_stim_LEFT.wav	1	32	blb_dichoticlistening_ta-da.mp3	ta	da	1	right
6.6.1	mac	2023-07-07	00:22:21	0	0	5e6d7b0421be18343d8bc4a9	1	1	DL_test	14	DL_test	29			0		ka	1	1136	6	5	antiphase_hc_osi.wav	2	6	3	noise_calib_stim_LEFT.wav	1	19	blb_dichoticlistening_ka-ba.mp3	ka	ba	1	left
6.6.1	mac	2023-07-07	00:22:21	0	0	5e6d7b0421be18343d8bc4a9	1	1	DL_test	14	DL_test	30			0		da	1	1169	6	5	antiphase_hc_osi.wav	2	6	3	noise_calib_stim_LEFT.wav	1	8	blb_dichoticlistening_da-da.mp3	da	da	0	left
6.6.1	mac	2023-07-07	00:22:21	0	0	5e6d7b0421be18343d8bc4a9	1	1	DL_test	14	DL_test	31			0		ka	1	1018	6	5	antiphase_hc_osi.wav	2	6	3	noise_calib_stim_LEFT.wav	1	34	blb_dichoticlistening_ta-ka.mp3	ta	ka	1	right
6.6.1	mac	2023-07-07	00:22:21	0	0	5e6d7b0421be18343d8bc4a9	1	1	DL_test	14	DL_test	32			0		ga	1	952	6	5	antiphase_hc_osi.wav	2	6	3	noise_calib_stim_LEFT.wav	1	14	blb_dichoticlistening_ga-da.mp3	ga	da	1	left
6.6.1	mac	2023-07-07	00:22:21	0	0	5e6d7b0421be18343d8bc4a9	1	1	DL_test	14	DL_test	33			0		ba	1	1502	6	5	antiphase_hc_osi.wav	2	6	3	noise_calib_stim_LEFT.wav	1	2	blb_dichoticlistening_ba-da.mp3	ba	da	1	left
6.6.1	mac	2023-07-07	00:22:21	0	0	5e6d7b0421be18343d8bc4a9	1	1	DL_test	14	DL_test	34			0		ka	1	852	6	5	antiphase_hc_osi.wav	2	6	3	noise_calib_stim_LEFT.wav	1	23	blb_dichoticlistening_ka-pa.mp3	ka	pa	1	left
6.6.1	mac	2023-07-07	00:22:21	0	0	5e6d7b0421be18343d8bc4a9	1	1	DL_test	14	DL_test	35			0		ta	1	1302	6	5	antiphase_hc_osi.wav	2	6	3	noise_calib_stim_LEFT.wav	1	30	blb_dichoticlistening_pa-ta.mp3	pa	ta	1	right
6.6.1	mac	2023-07-07	00:22:21	0	0	5e6d7b0421be18343d8bc4a9	1	1	DL_test	14	DL_test	36			0		pa	1	2520	6	5	antiphase_hc_osi.wav	2	6	3	noise_calib_stim_LEFT.wav	1	29	blb_dichoticlistening_pa-pa.mp3	pa	pa	0	left
6.6.1	mac	2023-07-07	00:22:21	0	0	5e6d7b0421be18343d8bc4a9	1	1	DL_test	15	DL_test	1			0		ga	1	836	6	5	antiphase_hc_osi.wav	2	6	3	noise_calib_stim_LEFT.wav	1	14	blb_dichoticlistening_ga-da.mp3	ga	da	1	left
6.6.1	mac	2023-07-07	00:22:21	0	0	5e6d7b0421be18343d8bc4a9	1	1	DL_test	15	DL_test	2			0		ga	1	1052	6	5	antiphase_hc_osi.wav	2	6	3	noise_calib_stim_LEFT.wav	1	27	blb_dichoticlistening_pa-ga.mp3	pa	ga	1	right
6.6.1	mac	2023-07-07	00:22:21	0	0	5e6d7b0421be18343d8bc4a9	1	1	DL_test	15	DL_test	3			0		ga	1	719	6	5	antiphase_hc_osi.wav	2	6	3	noise_calib_stim_LEFT.wav	1	18	blb_dichoticlistening_ga-ta.mp3	ga	ta	1	left
6.6.1	mac	2023-07-07	00:22:21	0	0	5e6d7b0421be18343d8bc4a9	1	1	DL_test	15	DL_test	4			0		ga	1	836	6	5	antiphase_hc_osi.wav	2	6	3	noise_calib_stim_LEFT.wav	1	9	blb_dichoticlistening_da-ga.mp3	da	ga	1	right
6.6.1	mac	2023-07-07	00:22:21	0	0	5e6d7b0421be18343d8bc4a9	1	1	DL_test	15	DL_test	5			0		ga	0	36	6	5	antiphase_hc_osi.wav	2	6	3	noise_calib_stim_LEFT.wav	1	1	blb_dichoticlistening_ba-ba.mp3	ba	ba	0	other
6.6.1	mac	2023-07-07	00:22:21	0	0	5e6d7b0421be18343d8bc4a9	1	1	DL_test	15	DL_test	6			0		pa	1	1219	6	5	antiphase_hc_osi.wav	2	6	3	noise_calib_stim_LEFT.wav	1	11	blb_dichoticlistening_da-pa.mp3	da	pa	1	right
6.6.1	mac	2023-07-07	00:22:21	0	0	5e6d7b0421be18343d8bc4a9	1	1	DL_test	15	DL_test	7			0		pa	0	1686	6	5	antiphase_hc_osi.wav	2	6	3	noise_calib_stim_LEFT.wav	1	2	blb_dichoticlistening_ba-da.mp3	ba	da	1	other
6.6.1	mac	2023-07-07	00:22:21	0	0	5e6d7b0421be18343d8bc4a9	1	1	DL_test	15	DL_test	8			0		ba	1	1203	6	5	antiphase_hc_osi.wav	2	6	3	noise_calib_stim_LEFT.wav	1	7	blb_dichoticlistening_da-ba.mp3	da	ba	1	right
6.6.1	mac	2023-07-07	00:22:21	0	0	5e6d7b0421be18343d8bc4a9	1	1	DL_test	15	DL_test	9			0		ka	1	1152	6	5	antiphase_hc_osi.wav	2	6	3	noise_calib_stim_LEFT.wav	1	24	blb_dichoticlistening_ka-ta.mp3	ka	ta	1	left
6.6.1	mac	2023-07-07	00:22:21	0	0	5e6d7b0421be18343d8bc4a9	1	1	DL_test	15	DL_test	10			0		ga	1	1270	6	5	antiphase_hc_osi.wav	2	6	3	noise_calib_stim_LEFT.wav	1	21	blb_dichoticlistening_ka-ga.mp3	ka	ga	1	right
6.6.1	mac	2023-07-07	00:22:21	0	0	5e6d7b0421be18343d8bc4a9	1	1	DL_test	15	DL_test	11			0		ka	1	1202	6	5	antiphase_hc_osi.wav	2	6	3	noise_calib_stim_LEFT.wav	1	34	blb_dichoticlistening_ta-ka.mp3	ta	ka	1	right
6.6.1	mac	2023-07-07	00:22:21	0	0	5e6d7b0421be18343d8bc4a9	1	1	DL_test	15	DL_test	12			0		da	1	1087	6	5	antiphase_hc_osi.wav	2	6	3	noise_calib_stim_LEFT.wav	1	8	blb_dichoticlistening_da-da.mp3	da	da	0	left
6.6.1	mac	2023-07-07	00:22:21	0	0	5e6d7b0421be18343d8bc4a9	1	1	DL_test	15	DL_test	13			0		ka	1	853	6	5	antiphase_hc_osi.wav	2	6	3	noise_calib_stim_LEFT.wav	1	28	blb_dichoticlistening_pa-ka.mp3	pa	ka	1	right
6.6.1	mac	2023-07-07	00:22:21	0	0	5e6d7b0421be18343d8bc4a9	1	1	DL_test	15	DL_test	14			0		ka	1	1203	6	5	antiphase_hc_osi.wav	2	6	3	noise_calib_stim_LEFT.wav	1	20	blb_dichoticlistening_ka-da.mp3	ka	da	1	left
6.6.1	mac	2023-07-07	00:22:21	0	0	5e6d7b0421be18343d8bc4a9	1	1	DL_test	15	DL_test	15			0		ga	1	669	6	5	antiphase_hc_osi.wav	2	6	3	noise_calib_stim_LEFT.wav	1	16	blb_dichoticlistening_ga-ka.mp3	ga	ka	1	left
6.6.1	mac	2023-07-07	00:22:21	0	0	5e6d7b0421be18343d8bc4a9	1	1	DL_test	15	DL_test	16			0		ta	1	1103	6	5	antiphase_hc_osi.wav	2	6	3	noise_calib_stim_LEFT.wav	1	36	blb_dichoticlistening_ta-ta.mp3	ta	ta	0	left
6.6.1	mac	2023-07-07	00:22:21	0	0	5e6d7b0421be18343d8bc4a9	1	1	DL_test	15	DL_test	17			0		pa	1	719	6	5	antiphase_hc_osi.wav	2	6	3	noise_calib_stim_LEFT.wav	1	5	blb_dichoticlistening_ba-pa.mp3	ba	pa	1	right
6.6.1	mac	2023-07-07	00:22:21	0	0	5e6d7b0421be18343d8bc4a9	1	1	DL_test	15	DL_test	18			0		ba	1	1653	6	5	antiphase_hc_osi.wav	2	6	3	noise_calib_stim_LEFT.wav	1	3	blb_dichoticlistening_ba-ga.mp3	ba	ga	1	left
6.6.1	mac	2023-07-07	00:22:21	0	0	5e6d7b0421be18343d8bc4a9	1	1	DL_test	15	DL_test	19			0		da	0	1386	6	5	antiphase_hc_osi.wav	2	6	3	noise_calib_stim_LEFT.wav	1	31	blb_dichoticlistening_ta-ba.mp3	ta	ba	1	other
6.6.1	mac	2023-07-07	00:22:21	0	0	5e6d7b0421be18343d8bc4a9	1	1	DL_test	15	DL_test	20			0		ta	1	1052	6	5	antiphase_hc_osi.wav	2	6	3	noise_calib_stim_LEFT.wav	1	30	blb_dichoticlistening_pa-ta.mp3	pa	ta	1	right
6.6.1	mac	2023-07-07	00:22:21	0	0	5e6d7b0421be18343d8bc4a9	1	1	DL_test	15	DL_test	21			0		da	1	1153	6	5	antiphase_hc_osi.wav	2	6	3	noise_calib_stim_LEFT.wav	1	10	blb_dichoticlistening_da-ka.mp3	da	ka	1	left
6.6.1	mac	2023-07-07	00:22:21	0	0	5e6d7b0421be18343d8bc4a9	1	1	DL_test	15	DL_test	22			0		da	1	853	6	5	antiphase_hc_osi.wav	2	6	3	noise_calib_stim_LEFT.wav	1	26	blb_dichoticlistening_pa-da.mp3	pa	da	1	right
6.6.1	mac	2023-07-07	00:22:21	0	0	5e6d7b0421be18343d8bc4a9	1	1	DL_test	15	DL_test	23			0		pa	1	1069	6	5	antiphase_hc_osi.wav	2	6	3	noise_calib_stim_LEFT.wav	1	29	blb_dichoticlistening_pa-pa.mp3	pa	pa	0	left
6.6.1	mac	2023-07-07	00:22:21	0	0	5e6d7b0421be18343d8bc4a9	1	1	DL_test	15	DL_test	24			0		ka	1	1420	6	5	antiphase_hc_osi.wav	2	6	3	noise_calib_stim_LEFT.wav	1	4	blb_dichoticlistening_ba-ka.mp3	ba	ka	1	right
6.6.1	mac	2023-07-07	00:22:21	0	0	5e6d7b0421be18343d8bc4a9	1	1	DL_test	15	DL_test	25			0		ka	1	803	6	5	antiphase_hc_osi.wav	2	6	3	noise_calib_stim_LEFT.wav	1	23	blb_dichoticlistening_ka-pa.mp3	ka	pa	1	left
6.6.1	mac	2023-07-07	00:22:21	0	0	5e6d7b0421be18343d8bc4a9	1	1	DL_test	15	DL_test	26			0		ga	1	736	6	5	antiphase_hc_osi.wav	2	6	3	noise_calib_stim_LEFT.wav	1	15	blb_dichoticlistening_ga-ga.mp3	ga	ga	0	left
6.6.1	mac	2023-07-07	00:22:21	0	0	5e6d7b0421be18343d8bc4a9	1	1	DL_test	15	DL_test	27			0		ga	1	770	6	5	antiphase_hc_osi.wav	2	6	3	noise_calib_stim_LEFT.wav	1	33	blb_dichoticlistening_ta-ga.mp3	ta	ga	1	right
6.6.1	mac	2023-07-07	00:22:21	0	0	5e6d7b0421be18343d8bc4a9	1	1	DL_test	15	DL_test	28			0		ba	1	1253	6	5	antiphase_hc_osi.wav	2	6	3	noise_calib_stim_LEFT.wav	1	13	blb_dichoticlistening_ga-ba.mp3	ga	ba	1	right
6.6.1	mac	2023-07-07	00:22:21	0	0	5e6d7b0421be18343d8bc4a9	1	1	DL_test	15	DL_test	29			0		ta	1	1353	6	5	antiphase_hc_osi.wav	2	6	3	noise_calib_stim_LEFT.wav	1	6	blb_dichoticlistening_ba-ta.mp3	ba	ta	1	right
6.6.1	mac	2023-07-07	00:22:21	0	0	5e6d7b0421be18343d8bc4a9	1	1	DL_test	15	DL_test	30			0		da	1	1169	6	5	antiphase_hc_osi.wav	2	6	3	noise_calib_stim_LEFT.wav	1	32	blb_dichoticlistening_ta-da.mp3	ta	da	1	right
6.6.1	mac	2023-07-07	00:22:21	0	0	5e6d7b0421be18343d8bc4a9	1	1	DL_test	15	DL_test	31			0		ka	1	753	6	5	antiphase_hc_osi.wav	2	6	3	noise_calib_stim_LEFT.wav	1	22	blb_dichoticlistening_ka-ka.mp3	ka	ka	0	left
6.6.1	mac	2023-07-07	00:22:21	0	0	5e6d7b0421be18343d8bc4a9	1	1	DL_test	15	DL_test	32			0		pa	1	1103	6	5	antiphase_hc_osi.wav	2	6	3	noise_calib_stim_LEFT.wav	1	25	blb_dichoticlistening_pa-ba.mp3	pa	ba	1	left
6.6.1	mac	2023-07-07	00:22:21	0	0	5e6d7b0421be18343d8bc4a9	1	1	DL_test	15	DL_test	33			0		ta	1	1386	6	5	antiphase_hc_osi.wav	2	6	3	noise_calib_stim_LEFT.wav	1	35	blb_dichoticlistening_ta-pa.mp3	ta	pa	1	left
6.6.1	mac	2023-07-07	00:22:21	0	0	5e6d7b0421be18343d8bc4a9	1	1	DL_test	15	DL_test	34			0		ga	0	903	6	5	antiphase_hc_osi.wav	2	6	3	noise_calib_stim_LEFT.wav	1	19	blb_dichoticlistening_ka-ba.mp3	ka	ba	1	other
6.6.1	mac	2023-07-07	00:22:21	0	0	5e6d7b0421be18343d8bc4a9	1	1	DL_test	15	DL_test	35			0		da	1	936	6	5	antiphase_hc_osi.wav	2	6	3	noise_calib_stim_LEFT.wav	1	12	blb_dichoticlistening_da-ta.mp3	da	ta	1	left
6.6.1	mac	2023-07-07	00:22:21	0	0	5e6d7b0421be18343d8bc4a9	1	1	DL_test	15	DL_test	36			0		ga	1	1153	6	5	antiphase_hc_osi.wav	2	6	3	noise_calib_stim_LEFT.wav	1	17	blb_dichoticlistening_ga-pa.mp3	ga	pa	1	left
6.6.1	mac	2023-07-07	00:22:21	0	0	5e6d7b0421be18343d8bc4a9	1	1	DL_test	16	DL_test	1			0		ka	1	1036	6	5	antiphase_hc_osi.wav	2	6	3	noise_calib_stim_LEFT.wav	1	24	blb_dichoticlistening_ka-ta.mp3	ka	ta	1	left
6.6.1	mac	2023-07-07	00:22:21	0	0	5e6d7b0421be18343d8bc4a9	1	1	DL_test	16	DL_test	2			0		ga	1	936	6	5	antiphase_hc_osi.wav	2	6	3	noise_calib_stim_LEFT.wav	1	33	blb_dichoticlistening_ta-ga.mp3	ta	ga	1	right
6.6.1	mac	2023-07-07	00:22:21	0	0	5e6d7b0421be18343d8bc4a9	1	1	DL_test	16	DL_test	3			0		ba	1	1703	6	5	antiphase_hc_osi.wav	2	6	3	noise_calib_stim_LEFT.wav	1	3	blb_dichoticlistening_ba-ga.mp3	ba	ga	1	left
6.6.1	mac	2023-07-07	00:22:21	0	0	5e6d7b0421be18343d8bc4a9	1	1	DL_test	16	DL_test	4			0		pa	1	1486	6	5	antiphase_hc_osi.wav	2	6	3	noise_calib_stim_LEFT.wav	1	5	blb_dichoticlistening_ba-pa.mp3	ba	pa	1	right
6.6.1	mac	2023-07-07	00:22:21	0	0	5e6d7b0421be18343d8bc4a9	1	1	DL_test	16	DL_test	5			0		da	1	637	6	5	antiphase_hc_osi.wav	2	6	3	noise_calib_stim_LEFT.wav	1	11	blb_dichoticlistening_da-pa.mp3	da	pa	1	left
6.6.1	mac	2023-07-07	00:22:21	0	0	5e6d7b0421be18343d8bc4a9	1	1	DL_test	16	DL_test	6			0		ta	1	1370	6	5	antiphase_hc_osi.wav	2	6	3	noise_calib_stim_LEFT.wav	1	31	blb_dichoticlistening_ta-ba.mp3	ta	ba	1	left
6.6.1	mac	2023-07-07	00:22:21	0	0	5e6d7b0421be18343d8bc4a9	1	1	DL_test	16	DL_test	7			0		ta	1	1321	6	5	antiphase_hc_osi.wav	2	6	3	noise_calib_stim_LEFT.wav	1	35	blb_dichoticlistening_ta-pa.mp3	ta	pa	1	left
6.6.1	mac	2023-07-07	00:22:21	0	0	5e6d7b0421be18343d8bc4a9	1	1	DL_test	16	DL_test	8			0		ba	1	1287	6	5	antiphase_hc_osi.wav	2	6	3	noise_calib_stim_LEFT.wav	1	1	blb_dichoticlistening_ba-ba.mp3	ba	ba	0	left
6.6.1	mac	2023-07-07	00:22:21	0	0	5e6d7b0421be18343d8bc4a9	1	1	DL_test	16	DL_test	9			0		da	1	886	6	5	antiphase_hc_osi.wav	2	6	3	noise_calib_stim_LEFT.wav	1	12	blb_dichoticlistening_da-ta.mp3	da	ta	1	left
6.6.1	mac	2023-07-07	00:22:21	0	0	5e6d7b0421be18343d8bc4a9	1	1	DL_test	16	DL_test	10			0		ka	1	1170	6	5	antiphase_hc_osi.wav	2	6	3	noise_calib_stim_LEFT.wav	1	23	blb_dichoticlistening_ka-pa.mp3	ka	pa	1	left
6.6.1	mac	2023-07-07	00:22:21	0	0	5e6d7b0421be18343d8bc4a9	1	1	DL_test	16	DL_test	11			0		ga	1	487	6	5	antiphase_hc_osi.wav	2	6	3	noise_calib_stim_LEFT.wav	1	27	blb_dichoticlistening_pa-ga.mp3	pa	ga	1	right
6.6.1	mac	2023-07-07	00:22:21	0	0	5e6d7b0421be18343d8bc4a9	1	1	DL_test	16	DL_test	12			0		ga	0	954	6	5	antiphase_hc_osi.wav	2	6	3	noise_calib_stim_LEFT.wav	1	20	blb_dichoticlistening_ka-da.mp3	ka	da	1	other
6.6.1	mac	2023-07-07	00:22:21	0	0	5e6d7b0421be18343d8bc4a9	1	1	DL_test	16	DL_test	13			0		ta	1	2153	6	5	antiphase_hc_osi.wav	2	6	3	noise_calib_stim_LEFT.wav	1	6	blb_dichoticlistening_ba-ta.mp3	ba	ta	1	right
6.6.1	mac	2023-07-07	00:22:21	0	0	5e6d7b0421be18343d8bc4a9	1	1	DL_test	16	DL_test	14			0		ka	1	871	6	5	antiphase_hc_osi.wav	2	6	3	noise_calib_stim_LEFT.wav	1	28	blb_dichoticlistening_pa-ka.mp3	pa	ka	1	right
6.6.1	mac	2023-07-07	00:22:21	0	0	5e6d7b0421be18343d8bc4a9	1	1	DL_test	16	DL_test	15			0		ga	1	770	6	5	antiphase_hc_osi.wav	2	6	3	noise_calib_stim_LEFT.wav	1	16	blb_dichoticlistening_ga-ka.mp3	ga	ka	1	left
6.6.1	mac	2023-07-07	00:22:21	0	0	5e6d7b0421be18343d8bc4a9	1	1	DL_test	16	DL_test	16			0		ga	1	787	6	5	antiphase_hc_osi.wav	2	6	3	noise_calib_stim_LEFT.wav	1	21	blb_dichoticlistening_ka-ga.mp3	ka	ga	1	right
6.6.1	mac	2023-07-07	00:22:21	0	0	5e6d7b0421be18343d8bc4a9	1	1	DL_test	16	DL_test	17			0		da	1	804	6	5	antiphase_hc_osi.wav	2	6	3	noise_calib_stim_LEFT.wav	1	10	blb_dichoticlistening_da-ka.mp3	da	ka	1	left
6.6.1	mac	2023-07-07	00:22:21	0	0	5e6d7b0421be18343d8bc4a9	1	1	DL_test	16	DL_test	18			0		ga	1	853	6	5	antiphase_hc_osi.wav	2	6	3	noise_calib_stim_LEFT.wav	1	15	blb_dichoticlistening_ga-ga.mp3	ga	ga	0	left
6.6.1	mac	2023-07-07	00:22:21	0	0	5e6d7b0421be18343d8bc4a9	1	1	DL_test	16	DL_test	19			0		ka	1	1304	6	5	antiphase_hc_osi.wav	2	6	3	noise_calib_stim_LEFT.wav	1	34	blb_dichoticlistening_ta-ka.mp3	ta	ka	1	right
6.6.1	mac	2023-07-07	00:22:21	0	0	5e6d7b0421be18343d8bc4a9	1	1	DL_test	16	DL_test	20			0		da	1	854	6	5	antiphase_hc_osi.wav	2	6	3	noise_calib_stim_LEFT.wav	1	8	blb_dichoticlistening_da-da.mp3	da	da	0	left
6.6.1	mac	2023-07-07	00:22:21	0	0	5e6d7b0421be18343d8bc4a9	1	1	DL_test	16	DL_test	21			0		pa	1	970	6	5	antiphase_hc_osi.wav	2	6	3	noise_calib_stim_LEFT.wav	1	25	blb_dichoticlistening_pa-ba.mp3	pa	ba	1	left
6.6.1	mac	2023-07-07	00:22:21	0	0	5e6d7b0421be18343d8bc4a9	1	1	DL_test	16	DL_test	22			0		ka	1	855	6	5	antiphase_hc_osi.wav	2	6	3	noise_calib_stim_LEFT.wav	1	22	blb_dichoticlistening_ka-ka.mp3	ka	ka	0	left
6.6.1	mac	2023-07-07	00:22:21	0	0	5e6d7b0421be18343d8bc4a9	1	1	DL_test	16	DL_test	23			0		ta	1	1203	6	5	antiphase_hc_osi.wav	2	6	3	noise_calib_stim_LEFT.wav	1	30	blb_dichoticlistening_pa-ta.mp3	pa	ta	1	right
6.6.1	mac	2023-07-07	00:22:21	0	0	5e6d7b0421be18343d8bc4a9	1	1	DL_test	16	DL_test	24			0		ta	1	771	6	5	antiphase_hc_osi.wav	2	6	3	noise_calib_stim_LEFT.wav	1	36	blb_dichoticlistening_ta-ta.mp3	ta	ta	0	left
6.6.1	mac	2023-07-07	00:22:21	0	0	5e6d7b0421be18343d8bc4a9	1	1	DL_test	16	DL_test	25			0		ba	1	2587	6	5	antiphase_hc_osi.wav	2	6	3	noise_calib_stim_LEFT.wav	1	4	blb_dichoticlistening_ba-ka.mp3	ba	ka	1	left
6.6.1	mac	2023-07-07	00:22:21	0	0	5e6d7b0421be18343d8bc4a9	1	1	DL_test	16	DL_test	26			0		ga	1	720	6	5	antiphase_hc_osi.wav	2	6	3	noise_calib_stim_LEFT.wav	1	9	blb_dichoticlistening_da-ga.mp3	da	ga	1	right
6.6.1	mac	2023-07-07	00:22:21	0	0	5e6d7b0421be18343d8bc4a9	1	1	DL_test	16	DL_test	27			0		ba	1	1121	6	5	antiphase_hc_osi.wav	2	6	3	noise_calib_stim_LEFT.wav	1	7	blb_dichoticlistening_da-ba.mp3	da	ba	1	right
6.6.1	mac	2023-07-07	00:22:21	0	0	5e6d7b0421be18343d8bc4a9	1	1	DL_test	16	DL_test	28			0		pa	1	1253	6	5	antiphase_hc_osi.wav	2	6	3	noise_calib_stim_LEFT.wav	1	29	blb_dichoticlistening_pa-pa.mp3	pa	pa	0	left
6.6.1	mac	2023-07-07	00:22:21	0	0	5e6d7b0421be18343d8bc4a9	1	1	DL_test	16	DL_test	29			0		ga	1	1121	6	5	antiphase_hc_osi.wav	2	6	3	noise_calib_stim_LEFT.wav	1	18	blb_dichoticlistening_ga-ta.mp3	ga	ta	1	left
6.6.1	mac	2023-07-07	00:22:21	0	0	5e6d7b0421be18343d8bc4a9	1	1	DL_test	16	DL_test	30			0		ga	1	721	6	5	antiphase_hc_osi.wav	2	6	3	noise_calib_stim_LEFT.wav	1	17	blb_dichoticlistening_ga-pa.mp3	ga	pa	1	left
6.6.1	mac	2023-07-07	00:22:21	0	0	5e6d7b0421be18343d8bc4a9	1	1	DL_test	16	DL_test	31			0		da	1	1071	6	5	antiphase_hc_osi.wav	2	6	3	noise_calib_stim_LEFT.wav	1	2	blb_dichoticlistening_ba-da.mp3	ba	da	1	right
6.6.1	mac	2023-07-07	00:22:21	0	0	5e6d7b0421be18343d8bc4a9	1	1	DL_test	16	DL_test	32			0		da	1	654	6	5	antiphase_hc_osi.wav	2	6	3	noise_calib_stim_LEFT.wav	1	26	blb_dichoticlistening_pa-da.mp3	pa	da	1	right
6.6.1	mac	2023-07-07	00:22:21	0	0	5e6d7b0421be18343d8bc4a9	1	1	DL_test	16	DL_test	33			0		ga	0	1454	6	5	antiphase_hc_osi.wav	2	6	3	noise_calib_stim_LEFT.wav	1	19	blb_dichoticlistening_ka-ba.mp3	ka	ba	1	other
6.6.1	mac	2023-07-07	00:22:21	0	0	5e6d7b0421be18343d8bc4a9	1	1	DL_test	16	DL_test	34			0		da	1	1021	6	5	antiphase_hc_osi.wav	2	6	3	noise_calib_stim_LEFT.wav	1	32	blb_dichoticlistening_ta-da.mp3	ta	da	1	right
6.6.1	mac	2023-07-07	00:22:21	0	0	5e6d7b0421be18343d8bc4a9	1	1	DL_test	16	DL_test	35			0		ga	1	754	6	5	antiphase_hc_osi.wav	2	6	3	noise_calib_stim_LEFT.wav	1	14	blb_dichoticlistening_ga-da.mp3	ga	da	1	left
6.6.1	mac	2023-07-07	00:22:21	0	0	5e6d7b0421be18343d8bc4a9	1	1	DL_test	16	DL_test	36			0		ba	1	1071	6	5	antiphase_hc_osi.wav	2	6	3	noise_calib_stim_LEFT.wav	1	13	blb_dichoticlistening_ga-ba.mp3	ga	ba	1	right
6.6.1	mac	2023-07-07	00:22:21	00:31:47	562378	5e6d7b0421be18343d8bc4a9	1	1	practice_slash	22	practice_slash	1	stimuli_distractor_diamondtriangles.svg	stimuli_target_trianglerectangles.svg	9	yes	53	1	1596	6	5	antiphase_hc_osi.wav	2	6	3	noise_calib_stim_LEFT.wav	1	13	blb_dichoticlistening_ga-ba.mp3	ga	ba	1	right
6.6.1	mac	2023-07-07	00:22:21	00:31:47	562378	5e6d7b0421be18343d8bc4a9	1	1	practice_slash	22	advance_on_keypress_SLASH	2	stimuli_distractor_diamondtriangles.svg	stimuli_target_trianglerectangles.svg	9	yes	57	0	722	6	5	antiphase_hc_osi.wav	2	6	3	noise_calib_stim_LEFT.wav	1	13	blb_dichoticlistening_ga-ba.mp3	ga	ba	1	right
6.6.1	mac	2023-07-07	00:22:21	00:31:50	565746	5e6d7b0421be18343d8bc4a9	1	1	practice_slash	22	practice_slash	3	stimuli_distractor_trianglediamonds.svg	stimuli_target_squarediamonds.svg	11	yes	53	1	1012	6	5	antiphase_hc_osi.wav	2	6	3	noise_calib_stim_LEFT.wav	1	13	blb_dichoticlistening_ga-ba.mp3	ga	ba	1	right
6.6.1	mac	2023-07-07	00:22:21	00:31:50	565746	5e6d7b0421be18343d8bc4a9	1	1	practice_slash	22	advance_on_keypress_SLASH	4	stimuli_distractor_trianglediamonds.svg	stimuli_target_squarediamonds.svg	11	yes	57	0	519	6	5	antiphase_hc_osi.wav	2	6	3	noise_calib_stim_LEFT.wav	1	13	blb_dichoticlistening_ga-ba.mp3	ga	ba	1	right
6.6.1	mac	2023-07-07	00:22:21	00:31:53	568868	5e6d7b0421be18343d8bc4a9	1	1	practice_slash	22	practice_slash	5	stimuli_target_rectanglediamonds.svg	stimuli_distractor_diamondtriangles.svg	1	yes	53	1	968	6	5	antiphase_hc_osi.wav	2	6	3	noise_calib_stim_LEFT.wav	1	13	blb_dichoticlistening_ga-ba.mp3	ga	ba	1	right
6.6.1	mac	2023-07-07	00:22:21	00:31:53	568868	5e6d7b0421be18343d8bc4a9	1	1	practice_slash	22	advance_on_keypress_SLASH	6	stimuli_target_rectanglediamonds.svg	stimuli_distractor_diamondtriangles.svg	1	yes	57	0	512	6	5	antiphase_hc_osi.wav	2	6	3	noise_calib_stim_LEFT.wav	1	13	blb_dichoticlistening_ga-ba.mp3	ga	ba	1	right
6.6.1	mac	2023-07-07	00:22:21	00:31:57	573017	5e6d7b0421be18343d8bc4a9	1	1	practice_slash	22	practice_slash	7	stimuli_target_diamondsquares.svg	stimuli_distractor_trianglediamonds.svg	6	yes	0	0	2000	6	5	antiphase_hc_osi.wav	2	6	3	noise_calib_stim_LEFT.wav	1	13	blb_dichoticlistening_ga-ba.mp3	ga	ba	1	right
6.6.1	mac	2023-07-07	00:22:21	00:31:57	573017	5e6d7b0421be18343d8bc4a9	1	1	practice_slash	22	advance_on_keypress_SLASH	8	stimuli_target_diamondsquares.svg	stimuli_distractor_trianglediamonds.svg	6	yes	57	0	552	6	5	antiphase_hc_osi.wav	2	6	3	noise_calib_stim_LEFT.wav	1	13	blb_dichoticlistening_ga-ba.mp3	ga	ba	1	right
6.6.1	mac	2023-07-07	00:22:21	00:32:00	576109	5e6d7b0421be18343d8bc4a9	1	1	practice_slash	22	practice_slash	9	stimuli_target_squarediamonds.svg	stimuli_distractor_diamondtriangles.svg	2	yes	53	1	910	6	5	antiphase_hc_osi.wav	2	6	3	noise_calib_stim_LEFT.wav	1	13	blb_dichoticlistening_ga-ba.mp3	ga	ba	1	right
6.6.1	mac	2023-07-07	00:22:21	00:32:00	576109	5e6d7b0421be18343d8bc4a9	1	1	practice_slash	22	advance_on_keypress_SLASH	10	stimuli_target_squarediamonds.svg	stimuli_distractor_diamondtriangles.svg	2	yes	57	0	479	6	5	antiphase_hc_osi.wav	2	6	3	noise_calib_stim_LEFT.wav	1	13	blb_dichoticlistening_ga-ba.mp3	ga	ba	1	right
6.6.1	mac	2023-07-07	00:22:21	00:32:03	579108	5e6d7b0421be18343d8bc4a9	1	1	practice_slash	22	practice_slash	11	stimuli_target_rectanglediamonds.svg	stimuli_distractor_trianglediamonds.svg	4	yes	53	1	892	6	5	antiphase_hc_osi.wav	2	6	3	noise_calib_stim_LEFT.wav	1	13	blb_dichoticlistening_ga-ba.mp3	ga	ba	1	right
6.6.1	mac	2023-07-07	00:22:21	00:32:03	579108	5e6d7b0421be18343d8bc4a9	1	1	practice_slash	22	advance_on_keypress_SLASH	12	stimuli_target_rectanglediamonds.svg	stimuli_distractor_trianglediamonds.svg	4	yes	57	0	353	6	5	antiphase_hc_osi.wav	2	6	3	noise_calib_stim_LEFT.wav	1	13	blb_dichoticlistening_ga-ba.mp3	ga	ba	1	right
6.6.1	mac	2023-07-07	00:22:21	00:32:07	583084	5e6d7b0421be18343d8bc4a9	1	1	practice_slash	22	practice_slash	13	stimuli_distractor_diamondtriangles.svg	stimuli_distractor_trianglediamonds.svg	14	no	0	1	2000	6	5	antiphase_hc_osi.wav	2	6	3	noise_calib_stim_LEFT.wav	1	13	blb_dichoticlistening_ga-ba.mp3	ga	ba	1	right
6.6.1	mac	2023-07-07	00:22:21	00:32:07	583084	5e6d7b0421be18343d8bc4a9	1	1	practice_slash	22	advance_on_keypress_SLASH	14	stimuli_distractor_diamondtriangles.svg	stimuli_distractor_trianglediamonds.svg	14	no	57	0	1091	6	5	antiphase_hc_osi.wav	2	6	3	noise_calib_stim_LEFT.wav	1	13	blb_dichoticlistening_ga-ba.mp3	ga	ba	1	right
6.6.1	mac	2023-07-07	00:22:21	00:32:11	586555	5e6d7b0421be18343d8bc4a9	1	1	practice_slash	22	practice_slash	15	stimuli_distractor_diamondtriangles.svg	stimuli_target_rectangletriangles.svg	7	yes	53	1	755	6	5	antiphase_hc_osi.wav	2	6	3	noise_calib_stim_LEFT.wav	1	13	blb_dichoticlistening_ga-ba.mp3	ga	ba	1	right
6.6.1	mac	2023-07-07	00:22:21	00:32:11	586555	5e6d7b0421be18343d8bc4a9	1	1	practice_slash	22	advance_on_keypress_SLASH	16	stimuli_distractor_diamondtriangles.svg	stimuli_target_rectangletriangles.svg	7	yes	57	0	544	6	5	antiphase_hc_osi.wav	2	6	3	noise_calib_stim_LEFT.wav	1	13	blb_dichoticlistening_ga-ba.mp3	ga	ba	1	right
6.6.1	mac	2023-07-07	00:22:21	00:32:15	590734	5e6d7b0421be18343d8bc4a9	1	1	practice_slash	22	practice_slash	17	stimuli_distractor_trianglediamonds.svg	stimuli_target_diamondrectangles.svg	12	yes	0	0	2000	6	5	antiphase_hc_osi.wav	2	6	3	noise_calib_stim_LEFT.wav	1	13	blb_dichoticlistening_ga-ba.mp3	ga	ba	1	right
6.6.1	mac	2023-07-07	00:22:21	00:32:15	590734	5e6d7b0421be18343d8bc4a9	1	1	practice_slash	22	advance_on_keypress_SLASH	18	stimuli_distractor_trianglediamonds.svg	stimuli_target_diamondrectangles.svg	12	yes	57	0	678	6	5	antiphase_hc_osi.wav	2	6	3	noise_calib_stim_LEFT.wav	1	13	blb_dichoticlistening_ga-ba.mp3	ga	ba	1	right
6.6.1	mac	2023-07-07	00:22:21	00:32:19	595052	5e6d7b0421be18343d8bc4a9	1	1	practice_slash	22	practice_slash	19	stimuli_distractor_trianglediamonds.svg	stimuli_distractor_diamondtriangles.svg	16	no	0	1	2000	6	5	antiphase_hc_osi.wav	2	6	3	noise_calib_stim_LEFT.wav	1	13	blb_dichoticlistening_ga-ba.mp3	ga	ba	1	right
6.6.1	mac	2023-07-07	00:22:21	00:32:19	595052	5e6d7b0421be18343d8bc4a9	1	1	practice_slash	22	advance_on_keypress_SLASH	20	stimuli_distractor_trianglediamonds.svg	stimuli_distractor_diamondtriangles.svg	16	no	57	0	485	6	5	antiphase_hc_osi.wav	2	6	3	noise_calib_stim_LEFT.wav	1	13	blb_dichoticlistening_ga-ba.mp3	ga	ba	1	right
6.6.1	mac	2023-07-07	00:22:21	00:32:23	598455	5e6d7b0421be18343d8bc4a9	1	1	practice_slash	22	practice_slash	21	stimuli_target_squarediamonds.svg	stimuli_distractor_trianglediamonds.svg	5	yes	53	1	1289	6	5	antiphase_hc_osi.wav	2	6	3	noise_calib_stim_LEFT.wav	1	13	blb_dichoticlistening_ga-ba.mp3	ga	ba	1	right
6.6.1	mac	2023-07-07	00:22:21	00:32:23	598455	5e6d7b0421be18343d8bc4a9	1	1	practice_slash	22	advance_on_keypress_SLASH	22	stimuli_target_squarediamonds.svg	stimuli_distractor_trianglediamonds.svg	5	yes	57	0	436	6	5	antiphase_hc_osi.wav	2	6	3	noise_calib_stim_LEFT.wav	1	13	blb_dichoticlistening_ga-ba.mp3	ga	ba	1	right
6.6.1	mac	2023-07-07	00:22:21	00:32:27	602518	5e6d7b0421be18343d8bc4a9	1	1	practice_slash	22	practice_slash	23	stimuli_distractor_trianglediamonds.svg	stimuli_distractor_trianglediamonds.svg	15	no	0	1	2000	6	5	antiphase_hc_osi.wav	2	6	3	noise_calib_stim_LEFT.wav	1	13	blb_dichoticlistening_ga-ba.mp3	ga	ba	1	right
6.6.1	mac	2023-07-07	00:22:21	00:32:27	602518	5e6d7b0421be18343d8bc4a9	1	1	practice_slash	22	advance_on_keypress_SLASH	24	stimuli_distractor_trianglediamonds.svg	stimuli_distractor_trianglediamonds.svg	15	no	57	0	479	6	5	antiphase_hc_osi.wav	2	6	3	noise_calib_stim_LEFT.wav	1	13	blb_dichoticlistening_ga-ba.mp3	ga	ba	1	right
6.6.1	mac	2023-07-07	00:22:21	00:32:31	606635	5e6d7b0421be18343d8bc4a9	1	1	practice_slash	22	practice_slash	25	stimuli_distractor_diamondtriangles.svg	stimuli_distractor_diamondtriangles.svg	13	no	0	1	2000	6	5	antiphase_hc_osi.wav	2	6	3	noise_calib_stim_LEFT.wav	1	13	blb_dichoticlistening_ga-ba.mp3	ga	ba	1	right
6.6.1	mac	2023-07-07	00:22:21	00:32:31	606635	5e6d7b0421be18343d8bc4a9	1	1	practice_slash	22	advance_on_keypress_SLASH	26	stimuli_distractor_diamondtriangles.svg	stimuli_distractor_diamondtriangles.svg	13	no	57	0	379	6	5	antiphase_hc_osi.wav	2	6	3	noise_calib_stim_LEFT.wav	1	13	blb_dichoticlistening_ga-ba.mp3	ga	ba	1	right
6.6.1	mac	2023-07-07	00:22:21	00:32:34	609825	5e6d7b0421be18343d8bc4a9	1	1	practice_slash	22	practice_slash	27	stimuli_distractor_diamondtriangles.svg	stimuli_target_diamondrectangles.svg	8	yes	53	1	1175	6	5	antiphase_hc_osi.wav	2	6	3	noise_calib_stim_LEFT.wav	1	13	blb_dichoticlistening_ga-ba.mp3	ga	ba	1	right
6.6.1	mac	2023-07-07	00:22:21	00:32:34	609825	5e6d7b0421be18343d8bc4a9	1	1	practice_slash	22	advance_on_keypress_SLASH	28	stimuli_distractor_diamondtriangles.svg	stimuli_target_diamondrectangles.svg	8	yes	57	0	515	6	5	antiphase_hc_osi.wav	2	6	3	noise_calib_stim_LEFT.wav	1	13	blb_dichoticlistening_ga-ba.mp3	ga	ba	1	right
6.6.1	mac	2023-07-07	00:22:21	00:32:38	613966	5e6d7b0421be18343d8bc4a9	1	1	practice_slash	22	practice_slash	29	stimuli_target_diamondsquares.svg	stimuli_distractor_diamondtriangles.svg	3	yes	0	0	2000	6	5	antiphase_hc_osi.wav	2	6	3	noise_calib_stim_LEFT.wav	1	13	blb_dichoticlistening_ga-ba.mp3	ga	ba	1	right
6.6.1	mac	2023-07-07	00:22:21	00:32:38	613966	5e6d7b0421be18343d8bc4a9	1	1	practice_slash	22	advance_on_keypress_SLASH	30	stimuli_target_diamondsquares.svg	stimuli_distractor_diamondtriangles.svg	3	yes	57	0	513	6	5	antiphase_hc_osi.wav	2	6	3	noise_calib_stim_LEFT.wav	1	13	blb_dichoticlistening_ga-ba.mp3	ga	ba	1	right
6.6.1	mac	2023-07-07	00:22:21	00:32:41	616919	5e6d7b0421be18343d8bc4a9	1	1	practice_slash	22	practice_slash	31	stimuli_distractor_trianglediamonds.svg	stimuli_target_rectanglediamonds.svg	10	yes	53	1	803	6	5	antiphase_hc_osi.wav	2	6	3	noise_calib_stim_LEFT.wav	1	13	blb_dichoticlistening_ga-ba.mp3	ga	ba	1	right
6.6.1	mac	2023-07-07	00:22:21	00:32:41	616919	5e6d7b0421be18343d8bc4a9	1	1	practice_slash	22	advance_on_keypress_SLASH	32	stimuli_distractor_trianglediamonds.svg	stimuli_target_rectanglediamonds.svg	10	yes	57	0	452	6	5	antiphase_hc_osi.wav	2	6	3	noise_calib_stim_LEFT.wav	1	13	blb_dichoticlistening_ga-ba.mp3	ga	ba	1	right
6.6.1	mac	2023-07-07	00:22:21	00:32:45	621133	5e6d7b0421be18343d8bc4a9	1	1	main_slash	24	main_slash	1	stimuli_distractor_trianglediamonds.svg	stimuli_target_diamondrectangles.svg	27	yes	53	1	951	6	5	antiphase_hc_osi.wav	2	6	3	noise_calib_stim_LEFT.wav	1	13	blb_dichoticlistening_ga-ba.mp3	ga	ba	1	right
6.6.1	mac	2023-07-07	00:22:21	00:32:45	621133	5e6d7b0421be18343d8bc4a9	1	1	main_slash	24	advance_on_keypress_SLASH	2	stimuli_distractor_trianglediamonds.svg	stimuli_target_diamondrectangles.svg	27	yes	57	0	1217	6	5	antiphase_hc_osi.wav	2	6	3	noise_calib_stim_LEFT.wav	1	13	blb_dichoticlistening_ga-ba.mp3	ga	ba	1	right
6.6.1	mac	2023-07-07	00:22:21	00:32:48	623836	5e6d7b0421be18343d8bc4a9	1	1	main_slash	24	main_slash	3	stimuli_distractor_trianglediamonds.svg	stimuli_target_diamondsquares.svg	28	yes	53	1	854	6	5	antiphase_hc_osi.wav	2	6	3	noise_calib_stim_LEFT.wav	1	13	blb_dichoticlistening_ga-ba.mp3	ga	ba	1	right
6.6.1	mac	2023-07-07	00:22:21	00:32:48	623836	5e6d7b0421be18343d8bc4a9	1	1	main_slash	24	advance_on_keypress_SLASH	4	stimuli_distractor_trianglediamonds.svg	stimuli_target_diamondsquares.svg	28	yes	57	0	506	6	5	antiphase_hc_osi.wav	2	6	3	noise_calib_stim_LEFT.wav	1	13	blb_dichoticlistening_ga-ba.mp3	ga	ba	1	right
6.6.1	mac	2023-07-07	00:22:21	00:32:50	625782	5e6d7b0421be18343d8bc4a9	1	1	main_slash	24	main_slash	5	stimuli_target_squaretriangles.svg	stimuli_distractor_trianglediamonds.svg	3	yes	53	1	816	6	5	antiphase_hc_osi.wav	2	6	3	noise_calib_stim_LEFT.wav	1	13	blb_dichoticlistening_ga-ba.mp3	ga	ba	1	right
6.6.1	mac	2023-07-07	00:22:21	00:32:50	625782	5e6d7b0421be18343d8bc4a9	1	1	main_slash	24	advance_on_keypress_SLASH	6	stimuli_target_squaretriangles.svg	stimuli_distractor_trianglediamonds.svg	3	yes	57	0	394	6	5	antiphase_hc_osi.wav	2	6	3	noise_calib_stim_LEFT.wav	1	13	blb_dichoticlistening_ga-ba.mp3	ga	ba	1	right
6.6.1	mac	2023-07-07	00:22:21	00:32:52	627677	5e6d7b0421be18343d8bc4a9	1	1	main_slash	24	main_slash	7	stimuli_target_trianglerectangles.svg	stimuli_distractor_trianglediamonds.svg	17	yes	53	1	877	6	5	antiphase_hc_osi.wav	2	6	3	noise_calib_stim_LEFT.wav	1	13	blb_dichoticlistening_ga-ba.mp3	ga	ba	1	right
6.6.1	mac	2023-07-07	00:22:21	00:32:52	627677	5e6d7b0421be18343d8bc4a9	1	1	main_slash	24	advance_on_keypress_SLASH	8	stimuli_target_trianglerectangles.svg	stimuli_distractor_trianglediamonds.svg	17	yes	57	0	542	6	5	antiphase_hc_osi.wav	2	6	3	noise_calib_stim_LEFT.wav	1	13	blb_dichoticlistening_ga-ba.mp3	ga	ba	1	right
6.6.1	mac	2023-07-07	00:22:21	00:32:54	629735	5e6d7b0421be18343d8bc4a9	1	1	main_slash	24	main_slash	9	stimuli_target_squaretriangles.svg	stimuli_distractor_diamondtriangles.svg	7	yes	53	1	903	6	5	antiphase_hc_osi.wav	2	6	3	noise_calib_stim_LEFT.wav	1	13	blb_dichoticlistening_ga-ba.mp3	ga	ba	1	right
6.6.1	mac	2023-07-07	00:22:21	00:32:54	629735	5e6d7b0421be18343d8bc4a9	1	1	main_slash	24	advance_on_keypress_SLASH	10	stimuli_target_squaretriangles.svg	stimuli_distractor_diamondtriangles.svg	7	yes	57	0	435	6	5	antiphase_hc_osi.wav	2	6	3	noise_calib_stim_LEFT.wav	1	13	blb_dichoticlistening_ga-ba.mp3	ga	ba	1	right
6.6.1	mac	2023-07-07	00:22:21	00:32:56	631602	5e6d7b0421be18343d8bc4a9	1	1	main_slash	24	main_slash	11	stimuli_target_rectangletriangles.svg	stimuli_distractor_trianglediamonds.svg	1	yes	53	1	803	6	5	antiphase_hc_osi.wav	2	6	3	noise_calib_stim_LEFT.wav	1	13	blb_dichoticlistening_ga-ba.mp3	ga	ba	1	right
6.6.1	mac	2023-07-07	00:22:21	00:32:56	631602	5e6d7b0421be18343d8bc4a9	1	1	main_slash	24	advance_on_keypress_SLASH	12	stimuli_target_rectangletriangles.svg	stimuli_distractor_trianglediamonds.svg	1	yes	57	0	353	6	5	antiphase_hc_osi.wav	2	6	3	noise_calib_stim_LEFT.wav	1	13	blb_dichoticlistening_ga-ba.mp3	ga	ba	1	right
6.6.1	mac	2023-07-07	00:22:21	00:32:59	634583	5e6d7b0421be18343d8bc4a9	1	1	main_slash	24	main_slash	13	stimuli_distractor_trianglediamonds.svg	stimuli_distractor_diamondtriangles.svg	36	no	0	1	2000	6	5	antiphase_hc_osi.wav	2	6	3	noise_calib_stim_LEFT.wav	1	13	blb_dichoticlistening_ga-ba.mp3	ga	ba	1	right
6.6.1	mac	2023-07-07	00:22:21	00:32:59	634583	5e6d7b0421be18343d8bc4a9	1	1	main_slash	24	advance_on_keypress_SLASH	14	stimuli_distractor_trianglediamonds.svg	stimuli_distractor_diamondtriangles.svg	36	no	57	0	492	6	5	antiphase_hc_osi.wav	2	6	3	noise_calib_stim_LEFT.wav	1	13	blb_dichoticlistening_ga-ba.mp3	ga	ba	1	right
6.6.1	mac	2023-07-07	00:22:21	00:33:02	637698	5e6d7b0421be18343d8bc4a9	1	1	main_slash	24	main_slash	15	stimuli_distractor_trianglediamonds.svg	stimuli_distractor_diamondtriangles.svg	35	no	0	1	2000	6	5	antiphase_hc_osi.wav	2	6	3	noise_calib_stim_LEFT.wav	1	13	blb_dichoticlistening_ga-ba.mp3	ga	ba	1	right
6.6.1	mac	2023-07-07	00:22:21	00:33:02	637698	5e6d7b0421be18343d8bc4a9	1	1	main_slash	24	advance_on_keypress_SLASH	16	stimuli_distractor_trianglediamonds.svg	stimuli_distractor_diamondtriangles.svg	35	no	57	0	445	6	5	antiphase_hc_osi.wav	2	6	3	noise_calib_stim_LEFT.wav	1	13	blb_dichoticlistening_ga-ba.mp3	ga	ba	1	right
6.6.1	mac	2023-07-07	00:22:21	00:33:03	639187	5e6d7b0421be18343d8bc4a9	1	1	main_slash	24	main_slash	17	stimuli_target_squarediamonds.svg	stimuli_distractor_trianglediamonds.svg	4	yes	53	1	423	6	5	antiphase_hc_osi.wav	2	6	3	noise_calib_stim_LEFT.wav	1	13	blb_dichoticlistening_ga-ba.mp3	ga	ba	1	right
6.6.1	mac	2023-07-07	00:22:21	00:33:03	639187	5e6d7b0421be18343d8bc4a9	1	1	main_slash	24	advance_on_keypress_SLASH	18	stimuli_target_squarediamonds.svg	stimuli_distractor_trianglediamonds.svg	4	yes	57	0	678	6	5	antiphase_hc_osi.wav	2	6	3	noise_calib_stim_LEFT.wav	1	13	blb_dichoticlistening_ga-ba.mp3	ga	ba	1	right
6.6.1	mac	2023-07-07	00:22:21	00:33:05	641116	5e6d7b0421be18343d8bc4a9	1	1	main_slash	24	main_slash	19	stimuli_target_rectanglediamonds.svg	stimuli_distractor_trianglediamonds.svg	2	yes	53	1	619	6	5	antiphase_hc_osi.wav	2	6	3	noise_calib_stim_LEFT.wav	1	13	blb_dichoticlistening_ga-ba.mp3	ga	ba	1	right
6.6.1	mac	2023-07-07	00:22:21	00:33:05	641116	5e6d7b0421be18343d8bc4a9	1	1	main_slash	24	advance_on_keypress_SLASH	20	stimuli_target_rectanglediamonds.svg	stimuli_distractor_trianglediamonds.svg	2	yes	57	0	458	6	5	antiphase_hc_osi.wav	2	6	3	noise_calib_stim_LEFT.wav	1	13	blb_dichoticlistening_ga-ba.mp3	ga	ba	1	right
6.6.1	mac	2023-07-07	00:22:21	00:33:08	644199	5e6d7b0421be18343d8bc4a9	1	1	main_slash	24	main_slash	21	stimuli_target_trianglerectangles.svg	stimuli_distractor_diamondtriangles.svg	21	yes	0	0	2000	6	5	antiphase_hc_osi.wav	2	6	3	noise_calib_stim_LEFT.wav	1	13	blb_dichoticlistening_ga-ba.mp3	ga	ba	1	right
6.6.1	mac	2023-07-07	00:22:21	00:33:08	644199	5e6d7b0421be18343d8bc4a9	1	1	main_slash	24	advance_on_keypress_SLASH	22	stimuli_target_trianglerectangles.svg	stimuli_distractor_diamondtriangles.svg	21	yes	57	0	450	6	5	antiphase_hc_osi.wav	2	6	3	noise_calib_stim_LEFT.wav	1	13	blb_dichoticlistening_ga-ba.mp3	ga	ba	1	right
6.6.1	mac	2023-07-07	00:22:21	00:33:10	645827	5e6d7b0421be18343d8bc4a9	1	1	main_slash	24	main_slash	23	stimuli_distractor_diamondtriangles.svg	stimuli_target_squaretriangles.svg	15	yes	53	1	546	6	5	antiphase_hc_osi.wav	2	6	3	noise_calib_stim_LEFT.wav	1	13	blb_dichoticlistening_ga-ba.mp3	ga	ba	1	right
6.6.1	mac	2023-07-07	00:22:21	00:33:10	645827	5e6d7b0421be18343d8bc4a9	1	1	main_slash	24	advance_on_keypress_SLASH	24	stimuli_distractor_diamondtriangles.svg	stimuli_target_squaretriangles.svg	15	yes	57	0	390	6	5	antiphase_hc_osi.wav	2	6	3	noise_calib_stim_LEFT.wav	1	13	blb_dichoticlistening_ga-ba.mp3	ga	ba	1	right
6.6.1	mac	2023-07-07	00:22:21	00:33:12	647576	5e6d7b0421be18343d8bc4a9	1	1	main_slash	24	main_slash	25	stimuli_distractor_diamondtriangles.svg	stimuli_target_diamondrectangles.svg	31	yes	53	1	727	6	5	antiphase_hc_osi.wav	2	6	3	noise_calib_stim_LEFT.wav	1	13	blb_dichoticlistening_ga-ba.mp3	ga	ba	1	right
6.6.1	mac	2023-07-07	00:22:21	00:33:12	647576	5e6d7b0421be18343d8bc4a9	1	1	main_slash	24	advance_on_keypress_SLASH	26	stimuli_distractor_diamondtriangles.svg	stimuli_target_diamondrectangles.svg	31	yes	57	0	364	6	5	antiphase_hc_osi.wav	2	6	3	noise_calib_stim_LEFT.wav	1	13	blb_dichoticlistening_ga-ba.mp3	ga	ba	1	right
6.6.1	mac	2023-07-07	00:22:21	00:33:15	650565	5e6d7b0421be18343d8bc4a9	1	1	main_slash	24	main_slash	27	stimuli_distractor_trianglediamonds.svg	stimuli_distractor_trianglediamonds.svg	33	no	0	1	2000	6	5	antiphase_hc_osi.wav	2	6	3	noise_calib_stim_LEFT.wav	1	13	blb_dichoticlistening_ga-ba.mp3	ga	ba	1	right
6.6.1	mac	2023-07-07	00:22:21	00:33:15	650565	5e6d7b0421be18343d8bc4a9	1	1	main_slash	24	advance_on_keypress_SLASH	28	stimuli_distractor_trianglediamonds.svg	stimuli_distractor_trianglediamonds.svg	33	no	57	0	422	6	5	antiphase_hc_osi.wav	2	6	3	noise_calib_stim_LEFT.wav	1	13	blb_dichoticlistening_ga-ba.mp3	ga	ba	1	right
6.6.1	mac	2023-07-07	00:22:21	00:33:18	653616	5e6d7b0421be18343d8bc4a9	1	1	main_slash	24	main_slash	29	stimuli_distractor_trianglediamonds.svg	stimuli_distractor_trianglediamonds.svg	34	no	0	1	2000	6	5	antiphase_hc_osi.wav	2	6	3	noise_calib_stim_LEFT.wav	1	13	blb_dichoticlistening_ga-ba.mp3	ga	ba	1	right
6.6.1	mac	2023-07-07	00:22:21	00:33:18	653616	5e6d7b0421be18343d8bc4a9	1	1	main_slash	24	advance_on_keypress_SLASH	30	stimuli_distractor_trianglediamonds.svg	stimuli_distractor_trianglediamonds.svg	34	no	57	0	415	6	5	antiphase_hc_osi.wav	2	6	3	noise_calib_stim_LEFT.wav	1	13	blb_dichoticlistening_ga-ba.mp3	ga	ba	1	right
6.6.1	mac	2023-07-07	00:22:21	00:33:20	655436	5e6d7b0421be18343d8bc4a9	1	1	main_slash	24	main_slash	31	stimuli_distractor_trianglediamonds.svg	stimuli_target_trianglesquares.svg	26	yes	53	1	771	6	5	antiphase_hc_osi.wav	2	6	3	noise_calib_stim_LEFT.wav	1	13	blb_dichoticlistening_ga-ba.mp3	ga	ba	1	right
6.6.1	mac	2023-07-07	00:22:21	00:33:20	655436	5e6d7b0421be18343d8bc4a9	1	1	main_slash	24	advance_on_keypress_SLASH	32	stimuli_distractor_trianglediamonds.svg	stimuli_target_trianglesquares.svg	26	yes	57	0	561	6	5	antiphase_hc_osi.wav	2	6	3	noise_calib_stim_LEFT.wav	1	13	blb_dichoticlistening_ga-ba.mp3	ga	ba	1	right
6.6.1	mac	2023-07-07	00:22:21	00:33:21	657234	5e6d7b0421be18343d8bc4a9	1	1	main_slash	24	main_slash	33	stimuli_target_diamondsquares.svg	stimuli_distractor_trianglediamonds.svg	20	yes	53	1	620	6	5	antiphase_hc_osi.wav	2	6	3	noise_calib_stim_LEFT.wav	1	13	blb_dichoticlistening_ga-ba.mp3	ga	ba	1	right
6.6.1	mac	2023-07-07	00:22:21	00:33:21	657234	5e6d7b0421be18343d8bc4a9	1	1	main_slash	24	advance_on_keypress_SLASH	34	stimuli_target_diamondsquares.svg	stimuli_distractor_trianglediamonds.svg	20	yes	57	0	378	6	5	antiphase_hc_osi.wav	2	6	3	noise_calib_stim_LEFT.wav	1	13	blb_dichoticlistening_ga-ba.mp3	ga	ba	1	right
6.6.1	mac	2023-07-07	00:22:21	00:33:23	658888	5e6d7b0421be18343d8bc4a9	1	1	main_slash	24	main_slash	35	stimuli_distractor_diamondtriangles.svg	stimuli_target_rectangletriangles.svg	13	yes	53	1	656	6	5	antiphase_hc_osi.wav	2	6	3	noise_calib_stim_LEFT.wav	1	13	blb_dichoticlistening_ga-ba.mp3	ga	ba	1	right
6.6.1	mac	2023-07-07	00:22:21	00:33:23	658888	5e6d7b0421be18343d8bc4a9	1	1	main_slash	24	advance_on_keypress_SLASH	36	stimuli_distractor_diamondtriangles.svg	stimuli_target_rectangletriangles.svg	13	yes	57	0	392	6	5	antiphase_hc_osi.wav	2	6	3	noise_calib_stim_LEFT.wav	1	13	blb_dichoticlistening_ga-ba.mp3	ga	ba	1	right
6.6.1	mac	2023-07-07	00:22:21	00:33:25	661058	5e6d7b0421be18343d8bc4a9	1	1	main_slash	24	main_slash	37	stimuli_target_trianglesquares.svg	stimuli_distractor_diamondtriangles.svg	22	yes	53	1	1160	6	5	antiphase_hc_osi.wav	2	6	3	noise_calib_stim_LEFT.wav	1	13	blb_dichoticlistening_ga-ba.mp3	ga	ba	1	right
6.6.1	mac	2023-07-07	00:22:21	00:33:25	661058	5e6d7b0421be18343d8bc4a9	1	1	main_slash	24	advance_on_keypress_SLASH	38	stimuli_target_trianglesquares.svg	stimuli_distractor_diamondtriangles.svg	22	yes	57	0	532	6	5	antiphase_hc_osi.wav	2	6	3	noise_calib_stim_LEFT.wav	1	13	blb_dichoticlistening_ga-ba.mp3	ga	ba	1	right
6.6.1	mac	2023-07-07	00:22:21	00:33:27	663052	5e6d7b0421be18343d8bc4a9	1	1	main_slash	24	main_slash	39	stimuli_distractor_trianglediamonds.svg	stimuli_target_squaretriangles.svg	11	yes	53	1	834	6	5	antiphase_hc_osi.wav	2	6	3	noise_calib_stim_LEFT.wav	1	13	blb_dichoticlistening_ga-ba.mp3	ga	ba	1	right
6.6.1	mac	2023-07-07	00:22:21	00:33:27	663052	5e6d7b0421be18343d8bc4a9	1	1	main_slash	24	advance_on_keypress_SLASH	40	stimuli_distractor_trianglediamonds.svg	stimuli_target_squaretriangles.svg	11	yes	57	0	437	6	5	antiphase_hc_osi.wav	2	6	3	noise_calib_stim_LEFT.wav	1	13	blb_dichoticlistening_ga-ba.mp3	ga	ba	1	right
6.6.1	mac	2023-07-07	00:22:21	00:33:30	665312	5e6d7b0421be18343d8bc4a9	1	1	main_slash	24	main_slash	41	stimuli_target_trianglesquares.svg	stimuli_distractor_trianglediamonds.svg	18	yes	53	1	1198	6	5	antiphase_hc_osi.wav	2	6	3	noise_calib_stim_LEFT.wav	1	13	blb_dichoticlistening_ga-ba.mp3	ga	ba	1	right
6.6.1	mac	2023-07-07	00:22:21	00:33:30	665312	5e6d7b0421be18343d8bc4a9	1	1	main_slash	24	advance_on_keypress_SLASH	42	stimuli_target_trianglesquares.svg	stimuli_distractor_trianglediamonds.svg	18	yes	57	0	469	6	5	antiphase_hc_osi.wav	2	6	3	noise_calib_stim_LEFT.wav	1	13	blb_dichoticlistening_ga-ba.mp3	ga	ba	1	right
6.6.1	mac	2023-07-07	00:22:21	00:33:32	667313	5e6d7b0421be18343d8bc4a9	1	1	main_slash	24	main_slash	43	stimuli_target_diamondrectangles.svg	stimuli_distractor_diamondtriangles.svg	23	yes	53	1	897	6	5	antiphase_hc_osi.wav	2	6	3	noise_calib_stim_LEFT.wav	1	13	blb_dichoticlistening_ga-ba.mp3	ga	ba	1	right
6.6.1	mac	2023-07-07	00:22:21	00:33:32	667313	5e6d7b0421be18343d8bc4a9	1	1	main_slash	24	advance_on_keypress_SLASH	44	stimuli_target_diamondrectangles.svg	stimuli_distractor_diamondtriangles.svg	23	yes	57	0	409	6	5	antiphase_hc_osi.wav	2	6	3	noise_calib_stim_LEFT.wav	1	13	blb_dichoticlistening_ga-ba.mp3	ga	ba	1	right
6.6.1	mac	2023-07-07	00:22:21	00:33:35	670349	5e6d7b0421be18343d8bc4a9	1	1	main_slash	24	main_slash	45	stimuli_distractor_diamondtriangles.svg	stimuli_distractor_trianglediamonds.svg	37	no	0	1	2000	6	5	antiphase_hc_osi.wav	2	6	3	noise_calib_stim_LEFT.wav	1	13	blb_dichoticlistening_ga-ba.mp3	ga	ba	1	right
6.6.1	mac	2023-07-07	00:22:21	00:33:35	670349	5e6d7b0421be18343d8bc4a9	1	1	main_slash	24	advance_on_keypress_SLASH	46	stimuli_distractor_diamondtriangles.svg	stimuli_distractor_trianglediamonds.svg	37	no	57	0	477	6	5	antiphase_hc_osi.wav	2	6	3	noise_calib_stim_LEFT.wav	1	13	blb_dichoticlistening_ga-ba.mp3	ga	ba	1	right
6.6.1	mac	2023-07-07	00:22:21	00:33:37	672724	5e6d7b0421be18343d8bc4a9	1	1	main_slash	24	main_slash	47	stimuli_target_diamondrectangles.svg	stimuli_distractor_trianglediamonds.svg	19	yes	53	1	1275	6	5	antiphase_hc_osi.wav	2	6	3	noise_calib_stim_LEFT.wav	1	13	blb_dichoticlistening_ga-ba.mp3	ga	ba	1	right
6.6.1	mac	2023-07-07	00:22:21	00:33:37	672724	5e6d7b0421be18343d8bc4a9	1	1	main_slash	24	advance_on_keypress_SLASH	48	stimuli_target_diamondrectangles.svg	stimuli_distractor_trianglediamonds.svg	19	yes	57	0	458	6	5	antiphase_hc_osi.wav	2	6	3	noise_calib_stim_LEFT.wav	1	13	blb_dichoticlistening_ga-ba.mp3	ga	ba	1	right
6.6.1	mac	2023-07-07	00:22:21	00:33:39	674994	5e6d7b0421be18343d8bc4a9	1	1	main_slash	24	main_slash	49	stimuli_distractor_trianglediamonds.svg	stimuli_target_trianglerectangles.svg	25	yes	53	1	1196	6	5	antiphase_hc_osi.wav	2	6	3	noise_calib_stim_LEFT.wav	1	13	blb_dichoticlistening_ga-ba.mp3	ga	ba	1	right
6.6.1	mac	2023-07-07	00:22:21	00:33:39	674994	5e6d7b0421be18343d8bc4a9	1	1	main_slash	24	advance_on_keypress_SLASH	50	stimuli_distractor_trianglediamonds.svg	stimuli_target_trianglerectangles.svg	25	yes	57	0	418	6	5	antiphase_hc_osi.wav	2	6	3	noise_calib_stim_LEFT.wav	1	13	blb_dichoticlistening_ga-ba.mp3	ga	ba	1	right
6.6.1	mac	2023-07-07	00:22:21	00:33:42	678051	5e6d7b0421be18343d8bc4a9	1	1	main_slash	24	main_slash	51	stimuli_target_diamondsquares.svg	stimuli_distractor_diamondtriangles.svg	24	yes	0	0	2000	6	5	antiphase_hc_osi.wav	2	6	3	noise_calib_stim_LEFT.wav	1	13	blb_dichoticlistening_ga-ba.mp3	ga	ba	1	right
6.6.1	mac	2023-07-07	00:22:21	00:33:42	678051	5e6d7b0421be18343d8bc4a9	1	1	main_slash	24	advance_on_keypress_SLASH	52	stimuli_target_diamondsquares.svg	stimuli_distractor_diamondtriangles.svg	24	yes	57	0	480	6	5	antiphase_hc_osi.wav	2	6	3	noise_calib_stim_LEFT.wav	1	13	blb_dichoticlistening_ga-ba.mp3	ga	ba	1	right
6.6.1	mac	2023-07-07	00:22:21	00:33:44	679675	5e6d7b0421be18343d8bc4a9	1	1	main_slash	24	main_slash	53	stimuli_distractor_trianglediamonds.svg	stimuli_target_rectanglediamonds.svg	10	yes	53	1	511	6	5	antiphase_hc_osi.wav	2	6	3	noise_calib_stim_LEFT.wav	1	13	blb_dichoticlistening_ga-ba.mp3	ga	ba	1	right
6.6.1	mac	2023-07-07	00:22:21	00:33:44	679675	5e6d7b0421be18343d8bc4a9	1	1	main_slash	24	advance_on_keypress_SLASH	54	stimuli_distractor_trianglediamonds.svg	stimuli_target_rectanglediamonds.svg	10	yes	57	0	466	6	5	antiphase_hc_osi.wav	2	6	3	noise_calib_stim_LEFT.wav	1	13	blb_dichoticlistening_ga-ba.mp3	ga	ba	1	right
6.6.1	mac	2023-07-07	00:22:21	00:33:47	682767	5e6d7b0421be18343d8bc4a9	1	1	main_slash	24	main_slash	55	stimuli_distractor_diamondtriangles.svg	stimuli_distractor_diamondtriangles.svg	40	no	0	1	2000	6	5	antiphase_hc_osi.wav	2	6	3	noise_calib_stim_LEFT.wav	1	13	blb_dichoticlistening_ga-ba.mp3	ga	ba	1	right
6.6.1	mac	2023-07-07	00:22:21	00:33:47	682767	5e6d7b0421be18343d8bc4a9	1	1	main_slash	24	advance_on_keypress_SLASH	56	stimuli_distractor_diamondtriangles.svg	stimuli_distractor_diamondtriangles.svg	40	no	57	0	290	6	5	antiphase_hc_osi.wav	2	6	3	noise_calib_stim_LEFT.wav	1	13	blb_dichoticlistening_ga-ba.mp3	ga	ba	1	right
6.6.1	mac	2023-07-07	00:22:21	00:33:50	685688	5e6d7b0421be18343d8bc4a9	1	1	main_slash	24	main_slash	57	stimuli_distractor_diamondtriangles.svg	stimuli_target_trianglerectangles.svg	29	yes	0	0	2000	6	5	antiphase_hc_osi.wav	2	6	3	noise_calib_stim_LEFT.wav	1	13	blb_dichoticlistening_ga-ba.mp3	ga	ba	1	right
6.6.1	mac	2023-07-07	00:22:21	00:33:50	685688	5e6d7b0421be18343d8bc4a9	1	1	main_slash	24	advance_on_keypress_SLASH	58	stimuli_distractor_diamondtriangles.svg	stimuli_target_trianglerectangles.svg	29	yes	57	0	560	6	5	antiphase_hc_osi.wav	2	6	3	noise_calib_stim_LEFT.wav	1	13	blb_dichoticlistening_ga-ba.mp3	ga	ba	1	right
6.6.1	mac	2023-07-07	00:22:21	00:33:52	687578	5e6d7b0421be18343d8bc4a9	1	1	main_slash	24	main_slash	59	stimuli_distractor_trianglediamonds.svg	stimuli_target_rectangletriangles.svg	9	yes	53	1	714	6	5	antiphase_hc_osi.wav	2	6	3	noise_calib_stim_LEFT.wav	1	13	blb_dichoticlistening_ga-ba.mp3	ga	ba	1	right
6.6.1	mac	2023-07-07	00:22:21	00:33:52	687578	5e6d7b0421be18343d8bc4a9	1	1	main_slash	24	advance_on_keypress_SLASH	60	stimuli_distractor_trianglediamonds.svg	stimuli_target_rectangletriangles.svg	9	yes	57	0	367	6	5	antiphase_hc_osi.wav	2	6	3	noise_calib_stim_LEFT.wav	1	13	blb_dichoticlistening_ga-ba.mp3	ga	ba	1	right
6.6.1	mac	2023-07-07	00:22:21	00:33:53	689037	5e6d7b0421be18343d8bc4a9	1	1	main_slash	24	main_slash	61	stimuli_distractor_diamondtriangles.svg	stimuli_target_trianglesquares.svg	30	yes	53	1	455	6	5	antiphase_hc_osi.wav	2	6	3	noise_calib_stim_LEFT.wav	1	13	blb_dichoticlistening_ga-ba.mp3	ga	ba	1	right
6.6.1	mac	2023-07-07	00:22:21	00:33:53	689037	5e6d7b0421be18343d8bc4a9	1	1	main_slash	24	advance_on_keypress_SLASH	62	stimuli_distractor_diamondtriangles.svg	stimuli_target_trianglesquares.svg	30	yes	57	0	620	6	5	antiphase_hc_osi.wav	2	6	3	noise_calib_stim_LEFT.wav	1	13	blb_dichoticlistening_ga-ba.mp3	ga	ba	1	right
6.6.1	mac	2023-07-07	00:22:21	00:33:55	690987	5e6d7b0421be18343d8bc4a9	1	1	main_slash	24	main_slash	63	stimuli_distractor_diamondtriangles.svg	stimuli_target_diamondsquares.svg	32	yes	53	1	706	6	5	antiphase_hc_osi.wav	2	6	3	noise_calib_stim_LEFT.wav	1	13	blb_dichoticlistening_ga-ba.mp3	ga	ba	1	right
6.6.1	mac	2023-07-07	00:22:21	00:33:55	690987	5e6d7b0421be18343d8bc4a9	1	1	main_slash	24	advance_on_keypress_SLASH	64	stimuli_distractor_diamondtriangles.svg	stimuli_target_diamondsquares.svg	32	yes	57	0	317	6	5	antiphase_hc_osi.wav	2	6	3	noise_calib_stim_LEFT.wav	1	13	blb_dichoticlistening_ga-ba.mp3	ga	ba	1	right
6.6.1	mac	2023-07-07	00:22:21	00:33:57	692492	5e6d7b0421be18343d8bc4a9	1	1	main_slash	24	main_slash	65	stimuli_target_squarediamonds.svg	stimuli_distractor_diamondtriangles.svg	8	yes	53	1	560	6	5	antiphase_hc_osi.wav	2	6	3	noise_calib_stim_LEFT.wav	1	13	blb_dichoticlistening_ga-ba.mp3	ga	ba	1	right
6.6.1	mac	2023-07-07	00:22:21	00:33:57	692492	5e6d7b0421be18343d8bc4a9	1	1	main_slash	24	advance_on_keypress_SLASH	66	stimuli_target_squarediamonds.svg	stimuli_distractor_diamondtriangles.svg	8	yes	57	0	295	6	5	antiphase_hc_osi.wav	2	6	3	noise_calib_stim_LEFT.wav	1	13	blb_dichoticlistening_ga-ba.mp3	ga	ba	1	right
6.6.1	mac	2023-07-07	00:22:21	00:33:58	693819	5e6d7b0421be18343d8bc4a9	1	1	main_slash	24	main_slash	67	stimuli_distractor_diamondtriangles.svg	stimuli_target_rectanglediamonds.svg	14	yes	53	1	404	6	5	antiphase_hc_osi.wav	2	6	3	noise_calib_stim_LEFT.wav	1	13	blb_dichoticlistening_ga-ba.mp3	ga	ba	1	right
6.6.1	mac	2023-07-07	00:22:21	00:33:58	693819	5e6d7b0421be18343d8bc4a9	1	1	main_slash	24	advance_on_keypress_SLASH	68	stimuli_distractor_diamondtriangles.svg	stimuli_target_rectanglediamonds.svg	14	yes	57	0	281	6	5	antiphase_hc_osi.wav	2	6	3	noise_calib_stim_LEFT.wav	1	13	blb_dichoticlistening_ga-ba.mp3	ga	ba	1	right
6.6.1	mac	2023-07-07	00:22:21	00:34:01	696733	5e6d7b0421be18343d8bc4a9	1	1	main_slash	24	main_slash	69	stimuli_distractor_diamondtriangles.svg	stimuli_distractor_diamondtriangles.svg	39	no	0	1	2000	6	5	antiphase_hc_osi.wav	2	6	3	noise_calib_stim_LEFT.wav	1	13	blb_dichoticlistening_ga-ba.mp3	ga	ba	1	right
6.6.1	mac	2023-07-07	00:22:21	00:34:01	696733	5e6d7b0421be18343d8bc4a9	1	1	main_slash	24	advance_on_keypress_SLASH	70	stimuli_distractor_diamondtriangles.svg	stimuli_distractor_diamondtriangles.svg	39	no	57	0	353	6	5	antiphase_hc_osi.wav	2	6	3	noise_calib_stim_LEFT.wav	1	13	blb_dichoticlistening_ga-ba.mp3	ga	ba	1	right
6.6.1	mac	2023-07-07	00:22:21	00:34:02	698199	5e6d7b0421be18343d8bc4a9	1	1	main_slash	24	main_slash	71	stimuli_distractor_diamondtriangles.svg	stimuli_target_squarediamonds.svg	16	yes	53	1	484	6	5	antiphase_hc_osi.wav	2	6	3	noise_calib_stim_LEFT.wav	1	13	blb_dichoticlistening_ga-ba.mp3	ga	ba	1	right
6.6.1	mac	2023-07-07	00:22:21	00:34:02	698199	5e6d7b0421be18343d8bc4a9	1	1	main_slash	24	advance_on_keypress_SLASH	72	stimuli_distractor_diamondtriangles.svg	stimuli_target_squarediamonds.svg	16	yes	57	0	335	6	5	antiphase_hc_osi.wav	2	6	3	noise_calib_stim_LEFT.wav	1	13	blb_dichoticlistening_ga-ba.mp3	ga	ba	1	right
6.6.1	mac	2023-07-07	00:22:21	00:34:05	701166	5e6d7b0421be18343d8bc4a9	1	1	main_slash	24	main_slash	73	stimuli_distractor_diamondtriangles.svg	stimuli_distractor_trianglediamonds.svg	38	no	0	1	2000	6	5	antiphase_hc_osi.wav	2	6	3	noise_calib_stim_LEFT.wav	1	13	blb_dichoticlistening_ga-ba.mp3	ga	ba	1	right
6.6.1	mac	2023-07-07	00:22:21	00:34:05	701166	5e6d7b0421be18343d8bc4a9	1	1	main_slash	24	advance_on_keypress_SLASH	74	stimuli_distractor_diamondtriangles.svg	stimuli_distractor_trianglediamonds.svg	38	no	57	0	424	6	5	antiphase_hc_osi.wav	2	6	3	noise_calib_stim_LEFT.wav	1	13	blb_dichoticlistening_ga-ba.mp3	ga	ba	1	right
6.6.1	mac	2023-07-07	00:22:21	00:34:07	702607	5e6d7b0421be18343d8bc4a9	1	1	main_slash	24	main_slash	75	stimuli_distractor_trianglediamonds.svg	stimuli_target_squarediamonds.svg	12	yes	53	1	393	6	5	antiphase_hc_osi.wav	2	6	3	noise_calib_stim_LEFT.wav	1	13	blb_dichoticlistening_ga-ba.mp3	ga	ba	1	right
6.6.1	mac	2023-07-07	00:22:21	00:34:07	702607	5e6d7b0421be18343d8bc4a9	1	1	main_slash	24	advance_on_keypress_SLASH	76	stimuli_distractor_trianglediamonds.svg	stimuli_target_squarediamonds.svg	12	yes	57	0	274	6	5	antiphase_hc_osi.wav	2	6	3	noise_calib_stim_LEFT.wav	1	13	blb_dichoticlistening_ga-ba.mp3	ga	ba	1	right
6.6.1	mac	2023-07-07	00:22:21	00:34:08	703961	5e6d7b0421be18343d8bc4a9	1	1	main_slash	24	main_slash	77	stimuli_target_rectanglediamonds.svg	stimuli_distractor_diamondtriangles.svg	6	yes	53	1	462	6	5	antiphase_hc_osi.wav	2	6	3	noise_calib_stim_LEFT.wav	1	13	blb_dichoticlistening_ga-ba.mp3	ga	ba	1	right
6.6.1	mac	2023-07-07	00:22:21	00:34:08	703961	5e6d7b0421be18343d8bc4a9	1	1	main_slash	24	advance_on_keypress_SLASH	78	stimuli_target_rectanglediamonds.svg	stimuli_distractor_diamondtriangles.svg	6	yes	57	0	180	6	5	antiphase_hc_osi.wav	2	6	3	noise_calib_stim_LEFT.wav	1	13	blb_dichoticlistening_ga-ba.mp3	ga	ba	1	right
6.6.1	mac	2023-07-07	00:22:21	00:34:09	705164	5e6d7b0421be18343d8bc4a9	1	1	main_slash	24	main_slash	79	stimuli_target_rectangletriangles.svg	stimuli_distractor_diamondtriangles.svg	5	yes	53	1	415	6	5	antiphase_hc_osi.wav	2	6	3	noise_calib_stim_LEFT.wav	1	13	blb_dichoticlistening_ga-ba.mp3	ga	ba	1	right
6.6.1	mac	2023-07-07	00:22:21	00:34:09	705164	5e6d7b0421be18343d8bc4a9	1	1	main_slash	24	advance_on_keypress_SLASH	80	stimuli_target_rectangletriangles.svg	stimuli_distractor_diamondtriangles.svg	5	yes	57	0	129	6	5	antiphase_hc_osi.wav	2	6	3	noise_calib_stim_LEFT.wav	1	13	blb_dichoticlistening_ga-ba.mp3	ga	ba	1	right
6.6.1	mac	2023-07-07	00:22:21	00:34:11	706343	5e6d7b0421be18343d8bc4a9	1	1	main_slash	24	main_slash	81	stimuli_distractor_trianglediamonds.svg	stimuli_target_squarediamonds.svg	12	yes	53	1	429	6	5	antiphase_hc_osi.wav	2	6	3	noise_calib_stim_LEFT.wav	1	13	blb_dichoticlistening_ga-ba.mp3	ga	ba	1	right
6.6.1	mac	2023-07-07	00:22:21	00:34:11	706343	5e6d7b0421be18343d8bc4a9	1	1	main_slash	24	advance_on_keypress_SLASH	82	stimuli_distractor_trianglediamonds.svg	stimuli_target_squarediamonds.svg	12	yes	57	0	148	6	5	antiphase_hc_osi.wav	2	6	3	noise_calib_stim_LEFT.wav	1	13	blb_dichoticlistening_ga-ba.mp3	ga	ba	1	right
6.6.1	mac	2023-07-07	00:22:21	00:34:12	707747	5e6d7b0421be18343d8bc4a9	1	1	main_slash	24	main_slash	83	stimuli_target_diamondsquares.svg	stimuli_distractor_trianglediamonds.svg	20	yes	53	1	633	6	5	antiphase_hc_osi.wav	2	6	3	noise_calib_stim_LEFT.wav	1	13	blb_dichoticlistening_ga-ba.mp3	ga	ba	1	right
6.6.1	mac	2023-07-07	00:22:21	00:34:12	707747	5e6d7b0421be18343d8bc4a9	1	1	main_slash	24	advance_on_keypress_SLASH	84	stimuli_target_diamondsquares.svg	stimuli_distractor_trianglediamonds.svg	20	yes	57	0	205	6	5	antiphase_hc_osi.wav	2	6	3	noise_calib_stim_LEFT.wav	1	13	blb_dichoticlistening_ga-ba.mp3	ga	ba	1	right
6.6.1	mac	2023-07-07	00:22:21	00:34:13	709110	5e6d7b0421be18343d8bc4a9	1	1	main_slash	24	main_slash	85	stimuli_distractor_diamondtriangles.svg	stimuli_target_trianglesquares.svg	30	yes	53	1	530	6	5	antiphase_hc_osi.wav	2	6	3	noise_calib_stim_LEFT.wav	1	13	blb_dichoticlistening_ga-ba.mp3	ga	ba	1	right
6.6.1	mac	2023-07-07	00:22:21	00:34:13	709110	5e6d7b0421be18343d8bc4a9	1	1	main_slash	24	advance_on_keypress_SLASH	86	stimuli_distractor_diamondtriangles.svg	stimuli_target_trianglesquares.svg	30	yes	57	0	167	6	5	antiphase_hc_osi.wav	2	6	3	noise_calib_stim_LEFT.wav	1	13	blb_dichoticlistening_ga-ba.mp3	ga	ba	1	right
6.6.1	mac	2023-07-07	00:22:21	00:34:15	710379	5e6d7b0421be18343d8bc4a9	1	1	main_slash	24	main_slash	87	stimuli_target_rectangletriangles.svg	stimuli_distractor_diamondtriangles.svg	5	yes	53	1	481	6	5	antiphase_hc_osi.wav	2	6	3	noise_calib_stim_LEFT.wav	1	13	blb_dichoticlistening_ga-ba.mp3	ga	ba	1	right
6.6.1	mac	2023-07-07	00:22:21	00:34:15	710379	5e6d7b0421be18343d8bc4a9	1	1	main_slash	24	advance_on_keypress_SLASH	88	stimuli_target_rectangletriangles.svg	stimuli_distractor_diamondtriangles.svg	5	yes	57	0	170	6	5	antiphase_hc_osi.wav	2	6	3	noise_calib_stim_LEFT.wav	1	13	blb_dichoticlistening_ga-ba.mp3	ga	ba	1	right
6.6.1	mac	2023-07-07	00:22:21	00:34:16	711577	5e6d7b0421be18343d8bc4a9	1	1	main_slash	24	main_slash	89	stimuli_target_squarediamonds.svg	stimuli_distractor_diamondtriangles.svg	8	yes	53	1	397	6	5	antiphase_hc_osi.wav	2	6	3	noise_calib_stim_LEFT.wav	1	13	blb_dichoticlistening_ga-ba.mp3	ga	ba	1	right
6.6.1	mac	2023-07-07	00:22:21	00:34:16	711577	5e6d7b0421be18343d8bc4a9	1	1	main_slash	24	advance_on_keypress_SLASH	90	stimuli_target_squarediamonds.svg	stimuli_distractor_diamondtriangles.svg	8	yes	57	0	157	6	5	antiphase_hc_osi.wav	2	6	3	noise_calib_stim_LEFT.wav	1	13	blb_dichoticlistening_ga-ba.mp3	ga	ba	1	right
6.6.1	mac	2023-07-07	00:22:21	00:34:17	713099	5e6d7b0421be18343d8bc4a9	1	1	main_slash	24	main_slash	91	stimuli_distractor_trianglediamonds.svg	stimuli_target_diamondsquares.svg	28	yes	53	1	751	6	5	antiphase_hc_osi.wav	2	6	3	noise_calib_stim_LEFT.wav	1	13	blb_dichoticlistening_ga-ba.mp3	ga	ba	1	right
6.6.1	mac	2023-07-07	00:22:21	00:34:17	713099	5e6d7b0421be18343d8bc4a9	1	1	main_slash	24	advance_on_keypress_SLASH	92	stimuli_distractor_trianglediamonds.svg	stimuli_target_diamondsquares.svg	28	yes	57	0	184	6	5	antiphase_hc_osi.wav	2	6	3	noise_calib_stim_LEFT.wav	1	13	blb_dichoticlistening_ga-ba.mp3	ga	ba	1	right
6.6.1	mac	2023-07-07	00:22:21	00:34:19	714371	5e6d7b0421be18343d8bc4a9	1	1	main_slash	24	main_slash	93	stimuli_target_squarediamonds.svg	stimuli_distractor_trianglediamonds.svg	4	yes	53	1	456	6	5	antiphase_hc_osi.wav	2	6	3	noise_calib_stim_LEFT.wav	1	13	blb_dichoticlistening_ga-ba.mp3	ga	ba	1	right
6.6.1	mac	2023-07-07	00:22:21	00:34:19	714371	5e6d7b0421be18343d8bc4a9	1	1	main_slash	24	advance_on_keypress_SLASH	94	stimuli_target_squarediamonds.svg	stimuli_distractor_trianglediamonds.svg	4	yes	57	0	154	6	5	antiphase_hc_osi.wav	2	6	3	noise_calib_stim_LEFT.wav	1	13	blb_dichoticlistening_ga-ba.mp3	ga	ba	1	right
6.6.1	mac	2023-07-07	00:22:21	00:34:20	715608	5e6d7b0421be18343d8bc4a9	1	1	main_slash	24	main_slash	95	stimuli_distractor_trianglediamonds.svg	stimuli_distractor_diamondtriangles.svg	36	no	53	0	460	6	5	antiphase_hc_osi.wav	2	6	3	noise_calib_stim_LEFT.wav	1	13	blb_dichoticlistening_ga-ba.mp3	ga	ba	1	right
6.6.1	mac	2023-07-07	00:22:21	00:34:20	715608	5e6d7b0421be18343d8bc4a9	1	1	main_slash	24	advance_on_keypress_SLASH	96	stimuli_distractor_trianglediamonds.svg	stimuli_distractor_diamondtriangles.svg	36	no	57	0	334	6	5	antiphase_hc_osi.wav	2	6	3	noise_calib_stim_LEFT.wav	1	13	blb_dichoticlistening_ga-ba.mp3	ga	ba	1	right
6.6.1	mac	2023-07-07	00:22:21	00:34:23	718565	5e6d7b0421be18343d8bc4a9	1	1	main_slash	24	main_slash	97	stimuli_distractor_trianglediamonds.svg	stimuli_distractor_trianglediamonds.svg	33	no	0	1	2000	6	5	antiphase_hc_osi.wav	2	6	3	noise_calib_stim_LEFT.wav	1	13	blb_dichoticlistening_ga-ba.mp3	ga	ba	1	right
6.6.1	mac	2023-07-07	00:22:21	00:34:23	718565	5e6d7b0421be18343d8bc4a9	1	1	main_slash	24	advance_on_keypress_SLASH	98	stimuli_distractor_trianglediamonds.svg	stimuli_distractor_trianglediamonds.svg	33	no	57	0	547	6	5	antiphase_hc_osi.wav	2	6	3	noise_calib_stim_LEFT.wav	1	13	blb_dichoticlistening_ga-ba.mp3	ga	ba	1	right
6.6.1	mac	2023-07-07	00:22:21	00:34:25	720735	5e6d7b0421be18343d8bc4a9	1	1	main_slash	24	main_slash	99	stimuli_target_diamondrectangles.svg	stimuli_distractor_diamondtriangles.svg	23	yes	53	1	986	6	5	antiphase_hc_osi.wav	2	6	3	noise_calib_stim_LEFT.wav	1	13	blb_dichoticlistening_ga-ba.mp3	ga	ba	1	right
6.6.1	mac	2023-07-07	00:22:21	00:34:25	720735	5e6d7b0421be18343d8bc4a9	1	1	main_slash	24	advance_on_keypress_SLASH	100	stimuli_target_diamondrectangles.svg	stimuli_distractor_diamondtriangles.svg	23	yes	57	0	256	6	5	antiphase_hc_osi.wav	2	6	3	noise_calib_stim_LEFT.wav	1	13	blb_dichoticlistening_ga-ba.mp3	ga	ba	1	right
6.6.1	mac	2023-07-07	00:22:21	00:34:28	723617	5e6d7b0421be18343d8bc4a9	1	1	main_slash	24	main_slash	101	stimuli_distractor_diamondtriangles.svg	stimuli_distractor_diamondtriangles.svg	39	no	0	1	2000	6	5	antiphase_hc_osi.wav	2	6	3	noise_calib_stim_LEFT.wav	1	13	blb_dichoticlistening_ga-ba.mp3	ga	ba	1	right
6.6.1	mac	2023-07-07	00:22:21	00:34:28	723617	5e6d7b0421be18343d8bc4a9	1	1	main_slash	24	advance_on_keypress_SLASH	102	stimuli_distractor_diamondtriangles.svg	stimuli_distractor_diamondtriangles.svg	39	no	57	0	464	6	5	antiphase_hc_osi.wav	2	6	3	noise_calib_stim_LEFT.wav	1	13	blb_dichoticlistening_ga-ba.mp3	ga	ba	1	right
6.6.1	mac	2023-07-07	00:22:21	00:34:30	725362	5e6d7b0421be18343d8bc4a9	1	1	main_slash	24	main_slash	103	stimuli_distractor_diamondtriangles.svg	stimuli_target_rectangletriangles.svg	13	yes	53	1	647	6	5	antiphase_hc_osi.wav	2	6	3	noise_calib_stim_LEFT.wav	1	13	blb_dichoticlistening_ga-ba.mp3	ga	ba	1	right
6.6.1	mac	2023-07-07	00:22:21	00:34:30	725362	5e6d7b0421be18343d8bc4a9	1	1	main_slash	24	advance_on_keypress_SLASH	104	stimuli_distractor_diamondtriangles.svg	stimuli_target_rectangletriangles.svg	13	yes	57	0	209	6	5	antiphase_hc_osi.wav	2	6	3	noise_calib_stim_LEFT.wav	1	13	blb_dichoticlistening_ga-ba.mp3	ga	ba	1	right
6.6.1	mac	2023-07-07	00:22:21	00:34:32	727454	5e6d7b0421be18343d8bc4a9	1	1	main_slash	24	main_slash	105	stimuli_target_trianglesquares.svg	stimuli_distractor_diamondtriangles.svg	22	yes	53	1	1255	6	5	antiphase_hc_osi.wav	2	6	3	noise_calib_stim_LEFT.wav	1	13	blb_dichoticlistening_ga-ba.mp3	ga	ba	1	right
6.6.1	mac	2023-07-07	00:22:21	00:34:32	727454	5e6d7b0421be18343d8bc4a9	1	1	main_slash	24	advance_on_keypress_SLASH	106	stimuli_target_trianglesquares.svg	stimuli_distractor_diamondtriangles.svg	22	yes	57	0	251	6	5	antiphase_hc_osi.wav	2	6	3	noise_calib_stim_LEFT.wav	1	13	blb_dichoticlistening_ga-ba.mp3	ga	ba	1	right
6.6.1	mac	2023-07-07	00:22:21	00:34:33	729105	5e6d7b0421be18343d8bc4a9	1	1	main_slash	24	main_slash	107	stimuli_target_diamondrectangles.svg	stimuli_distractor_trianglediamonds.svg	19	yes	53	1	774	6	5	antiphase_hc_osi.wav	2	6	3	noise_calib_stim_LEFT.wav	1	13	blb_dichoticlistening_ga-ba.mp3	ga	ba	1	right
6.6.1	mac	2023-07-07	00:22:21	00:34:33	729105	5e6d7b0421be18343d8bc4a9	1	1	main_slash	24	advance_on_keypress_SLASH	108	stimuli_target_diamondrectangles.svg	stimuli_distractor_trianglediamonds.svg	19	yes	57	0	223	6	5	antiphase_hc_osi.wav	2	6	3	noise_calib_stim_LEFT.wav	1	13	blb_dichoticlistening_ga-ba.mp3	ga	ba	1	right
6.6.1	mac	2023-07-07	00:22:21	00:34:35	730760	5e6d7b0421be18343d8bc4a9	1	1	main_slash	24	main_slash	109	stimuli_distractor_diamondtriangles.svg	stimuli_target_trianglerectangles.svg	29	yes	53	1	811	6	5	antiphase_hc_osi.wav	2	6	3	noise_calib_stim_LEFT.wav	1	13	blb_dichoticlistening_ga-ba.mp3	ga	ba	1	right
6.6.1	mac	2023-07-07	00:22:21	00:34:35	730760	5e6d7b0421be18343d8bc4a9	1	1	main_slash	24	advance_on_keypress_SLASH	110	stimuli_distractor_diamondtriangles.svg	stimuli_target_trianglerectangles.svg	29	yes	57	0	200	6	5	antiphase_hc_osi.wav	2	6	3	noise_calib_stim_LEFT.wav	1	13	blb_dichoticlistening_ga-ba.mp3	ga	ba	1	right
6.6.1	mac	2023-07-07	00:22:21	00:34:38	733583	5e6d7b0421be18343d8bc4a9	1	1	main_slash	24	main_slash	111	stimuli_distractor_diamondtriangles.svg	stimuli_distractor_diamondtriangles.svg	40	no	0	1	2000	6	5	antiphase_hc_osi.wav	2	6	3	noise_calib_stim_LEFT.wav	1	13	blb_dichoticlistening_ga-ba.mp3	ga	ba	1	right
6.6.1	mac	2023-07-07	00:22:21	00:34:38	733583	5e6d7b0421be18343d8bc4a9	1	1	main_slash	24	advance_on_keypress_SLASH	112	stimuli_distractor_diamondtriangles.svg	stimuli_distractor_diamondtriangles.svg	40	no	57	0	393	6	5	antiphase_hc_osi.wav	2	6	3	noise_calib_stim_LEFT.wav	1	13	blb_dichoticlistening_ga-ba.mp3	ga	ba	1	right
6.6.1	mac	2023-07-07	00:22:21	00:34:39	735104	5e6d7b0421be18343d8bc4a9	1	1	main_slash	24	main_slash	113	stimuli_target_squaretriangles.svg	stimuli_distractor_diamondtriangles.svg	7	yes	53	1	505	6	5	antiphase_hc_osi.wav	2	6	3	noise_calib_stim_LEFT.wav	1	13	blb_dichoticlistening_ga-ba.mp3	ga	ba	1	right
6.6.1	mac	2023-07-07	00:22:21	00:34:39	735104	5e6d7b0421be18343d8bc4a9	1	1	main_slash	24	advance_on_keypress_SLASH	114	stimuli_target_squaretriangles.svg	stimuli_distractor_diamondtriangles.svg	7	yes	57	0	171	6	5	antiphase_hc_osi.wav	2	6	3	noise_calib_stim_LEFT.wav	1	13	blb_dichoticlistening_ga-ba.mp3	ga	ba	1	right
6.6.1	mac	2023-07-07	00:22:21	00:34:41	736548	5e6d7b0421be18343d8bc4a9	1	1	main_slash	24	main_slash	115	stimuli_distractor_diamondtriangles.svg	stimuli_target_diamondrectangles.svg	31	yes	53	1	649	6	5	antiphase_hc_osi.wav	2	6	3	noise_calib_stim_LEFT.wav	1	13	blb_dichoticlistening_ga-ba.mp3	ga	ba	1	right
6.6.1	mac	2023-07-07	00:22:21	00:34:41	736548	5e6d7b0421be18343d8bc4a9	1	1	main_slash	24	advance_on_keypress_SLASH	116	stimuli_distractor_diamondtriangles.svg	stimuli_target_diamondrectangles.svg	31	yes	57	0	155	6	5	antiphase_hc_osi.wav	2	6	3	noise_calib_stim_LEFT.wav	1	13	blb_dichoticlistening_ga-ba.mp3	ga	ba	1	right
6.6.1	mac	2023-07-07	00:22:21	00:34:43	738383	5e6d7b0421be18343d8bc4a9	1	1	main_slash	24	main_slash	117	stimuli_target_trianglerectangles.svg	stimuli_distractor_diamondtriangles.svg	21	yes	53	1	1051	6	5	antiphase_hc_osi.wav	2	6	3	noise_calib_stim_LEFT.wav	1	13	blb_dichoticlistening_ga-ba.mp3	ga	ba	1	right
6.6.1	mac	2023-07-07	00:22:21	00:34:43	738383	5e6d7b0421be18343d8bc4a9	1	1	main_slash	24	advance_on_keypress_SLASH	118	stimuli_target_trianglerectangles.svg	stimuli_distractor_diamondtriangles.svg	21	yes	57	0	204	6	5	antiphase_hc_osi.wav	2	6	3	noise_calib_stim_LEFT.wav	1	13	blb_dichoticlistening_ga-ba.mp3	ga	ba	1	right
6.6.1	mac	2023-07-07	00:22:21	00:34:45	741216	5e6d7b0421be18343d8bc4a9	1	1	main_slash	24	main_slash	119	stimuli_distractor_diamondtriangles.svg	stimuli_target_diamondsquares.svg	32	yes	0	0	2000	6	5	antiphase_hc_osi.wav	2	6	3	noise_calib_stim_LEFT.wav	1	13	blb_dichoticlistening_ga-ba.mp3	ga	ba	1	right
6.6.1	mac	2023-07-07	00:22:21	00:34:45	741216	5e6d7b0421be18343d8bc4a9	1	1	main_slash	24	advance_on_keypress_SLASH	120	stimuli_distractor_diamondtriangles.svg	stimuli_target_diamondsquares.svg	32	yes	57	0	349	6	5	antiphase_hc_osi.wav	2	6	3	noise_calib_stim_LEFT.wav	1	13	blb_dichoticlistening_ga-ba.mp3	ga	ba	1	right
6.6.1	mac	2023-07-07	00:22:21	00:34:47	743012	5e6d7b0421be18343d8bc4a9	1	1	main_slash	24	main_slash	121	stimuli_target_diamondsquares.svg	stimuli_distractor_diamondtriangles.svg	24	yes	53	1	813	6	5	antiphase_hc_osi.wav	2	6	3	noise_calib_stim_LEFT.wav	1	13	blb_dichoticlistening_ga-ba.mp3	ga	ba	1	right
6.6.1	mac	2023-07-07	00:22:21	00:34:47	743012	5e6d7b0421be18343d8bc4a9	1	1	main_slash	24	advance_on_keypress_SLASH	122	stimuli_target_diamondsquares.svg	stimuli_distractor_diamondtriangles.svg	24	yes	57	0	171	6	5	antiphase_hc_osi.wav	2	6	3	noise_calib_stim_LEFT.wav	1	13	blb_dichoticlistening_ga-ba.mp3	ga	ba	1	right
6.6.1	mac	2023-07-07	00:22:21	00:34:49	744736	5e6d7b0421be18343d8bc4a9	1	1	main_slash	24	main_slash	123	stimuli_target_trianglesquares.svg	stimuli_distractor_trianglediamonds.svg	18	yes	53	1	921	6	5	antiphase_hc_osi.wav	2	6	3	noise_calib_stim_LEFT.wav	1	13	blb_dichoticlistening_ga-ba.mp3	ga	ba	1	right
6.6.1	mac	2023-07-07	00:22:21	00:34:49	744736	5e6d7b0421be18343d8bc4a9	1	1	main_slash	24	advance_on_keypress_SLASH	124	stimuli_target_trianglesquares.svg	stimuli_distractor_trianglediamonds.svg	18	yes	57	0	212	6	5	antiphase_hc_osi.wav	2	6	3	noise_calib_stim_LEFT.wav	1	13	blb_dichoticlistening_ga-ba.mp3	ga	ba	1	right
6.6.1	mac	2023-07-07	00:22:21	00:34:51	746312	5e6d7b0421be18343d8bc4a9	1	1	main_slash	24	main_slash	125	stimuli_target_trianglerectangles.svg	stimuli_distractor_trianglediamonds.svg	17	yes	53	1	747	6	5	antiphase_hc_osi.wav	2	6	3	noise_calib_stim_LEFT.wav	1	13	blb_dichoticlistening_ga-ba.mp3	ga	ba	1	right
6.6.1	mac	2023-07-07	00:22:21	00:34:51	746312	5e6d7b0421be18343d8bc4a9	1	1	main_slash	24	advance_on_keypress_SLASH	126	stimuli_target_trianglerectangles.svg	stimuli_distractor_trianglediamonds.svg	17	yes	57	0	174	6	5	antiphase_hc_osi.wav	2	6	3	noise_calib_stim_LEFT.wav	1	13	blb_dichoticlistening_ga-ba.mp3	ga	ba	1	right
6.6.1	mac	2023-07-07	00:22:21	00:34:53	749117	5e6d7b0421be18343d8bc4a9	1	1	main_slash	24	main_slash	127	stimuli_distractor_diamondtriangles.svg	stimuli_distractor_trianglediamonds.svg	38	no	0	1	2000	6	5	antiphase_hc_osi.wav	2	6	3	noise_calib_stim_LEFT.wav	1	13	blb_dichoticlistening_ga-ba.mp3	ga	ba	1	right
6.6.1	mac	2023-07-07	00:22:21	00:34:53	749117	5e6d7b0421be18343d8bc4a9	1	1	main_slash	24	advance_on_keypress_SLASH	128	stimuli_distractor_diamondtriangles.svg	stimuli_distractor_trianglediamonds.svg	38	no	57	0	409	6	5	antiphase_hc_osi.wav	2	6	3	noise_calib_stim_LEFT.wav	1	13	blb_dichoticlistening_ga-ba.mp3	ga	ba	1	right
6.6.1	mac	2023-07-07	00:22:21	00:34:56	752150	5e6d7b0421be18343d8bc4a9	1	1	main_slash	24	main_slash	129	stimuli_distractor_diamondtriangles.svg	stimuli_distractor_trianglediamonds.svg	37	no	0	1	2000	6	5	antiphase_hc_osi.wav	2	6	3	noise_calib_stim_LEFT.wav	1	13	blb_dichoticlistening_ga-ba.mp3	ga	ba	1	right
6.6.1	mac	2023-07-07	00:22:21	00:34:56	752150	5e6d7b0421be18343d8bc4a9	1	1	main_slash	24	advance_on_keypress_SLASH	130	stimuli_distractor_diamondtriangles.svg	stimuli_distractor_trianglediamonds.svg	37	no	57	0	324	6	5	antiphase_hc_osi.wav	2	6	3	noise_calib_stim_LEFT.wav	1	13	blb_dichoticlistening_ga-ba.mp3	ga	ba	1	right
6.6.1	mac	2023-07-07	00:22:21	00:34:59	755100	5e6d7b0421be18343d8bc4a9	1	1	main_slash	24	main_slash	131	stimuli_distractor_trianglediamonds.svg	stimuli_distractor_diamondtriangles.svg	35	no	0	1	2000	6	5	antiphase_hc_osi.wav	2	6	3	noise_calib_stim_LEFT.wav	1	13	blb_dichoticlistening_ga-ba.mp3	ga	ba	1	right
6.6.1	mac	2023-07-07	00:22:21	00:34:59	755100	5e6d7b0421be18343d8bc4a9	1	1	main_slash	24	advance_on_keypress_SLASH	132	stimuli_distractor_trianglediamonds.svg	stimuli_distractor_diamondtriangles.svg	35	no	57	0	329	6	5	antiphase_hc_osi.wav	2	6	3	noise_calib_stim_LEFT.wav	1	13	blb_dichoticlistening_ga-ba.mp3	ga	ba	1	right
6.6.1	mac	2023-07-07	00:22:21	00:35:01	756696	5e6d7b0421be18343d8bc4a9	1	1	main_slash	24	main_slash	133	stimuli_distractor_trianglediamonds.svg	stimuli_target_squaretriangles.svg	11	yes	53	1	648	6	5	antiphase_hc_osi.wav	2	6	3	noise_calib_stim_LEFT.wav	1	13	blb_dichoticlistening_ga-ba.mp3	ga	ba	1	right
6.6.1	mac	2023-07-07	00:22:21	00:35:01	756696	5e6d7b0421be18343d8bc4a9	1	1	main_slash	24	advance_on_keypress_SLASH	134	stimuli_distractor_trianglediamonds.svg	stimuli_target_squaretriangles.svg	11	yes	57	0	153	6	5	antiphase_hc_osi.wav	2	6	3	noise_calib_stim_LEFT.wav	1	13	blb_dichoticlistening_ga-ba.mp3	ga	ba	1	right
6.6.1	mac	2023-07-07	00:22:21	00:35:02	758029	5e6d7b0421be18343d8bc4a9	1	1	main_slash	24	main_slash	135	stimuli_distractor_diamondtriangles.svg	stimuli_target_squaretriangles.svg	15	yes	53	1	547	6	5	antiphase_hc_osi.wav	2	6	3	noise_calib_stim_LEFT.wav	1	13	blb_dichoticlistening_ga-ba.mp3	ga	ba	1	right
6.6.1	mac	2023-07-07	00:22:21	00:35:02	758029	5e6d7b0421be18343d8bc4a9	1	1	main_slash	24	advance_on_keypress_SLASH	136	stimuli_distractor_diamondtriangles.svg	stimuli_target_squaretriangles.svg	15	yes	57	0	143	6	5	antiphase_hc_osi.wav	2	6	3	noise_calib_stim_LEFT.wav	1	13	blb_dichoticlistening_ga-ba.mp3	ga	ba	1	right
6.6.1	mac	2023-07-07	00:22:21	00:35:03	759268	5e6d7b0421be18343d8bc4a9	1	1	main_slash	24	main_slash	137	stimuli_target_rectangletriangles.svg	stimuli_distractor_trianglediamonds.svg	1	yes	53	1	469	6	5	antiphase_hc_osi.wav	2	6	3	noise_calib_stim_LEFT.wav	1	13	blb_dichoticlistening_ga-ba.mp3	ga	ba	1	right
6.6.1	mac	2023-07-07	00:22:21	00:35:03	759268	5e6d7b0421be18343d8bc4a9	1	1	main_slash	24	advance_on_keypress_SLASH	138	stimuli_target_rectangletriangles.svg	stimuli_distractor_trianglediamonds.svg	1	yes	57	0	136	6	5	antiphase_hc_osi.wav	2	6	3	noise_calib_stim_LEFT.wav	1	13	blb_dichoticlistening_ga-ba.mp3	ga	ba	1	right
6.6.1	mac	2023-07-07	00:22:21	00:35:06	762033	5e6d7b0421be18343d8bc4a9	1	1	main_slash	24	main_slash	139	stimuli_distractor_trianglediamonds.svg	stimuli_distractor_trianglediamonds.svg	34	no	0	1	2000	6	5	antiphase_hc_osi.wav	2	6	3	noise_calib_stim_LEFT.wav	1	13	blb_dichoticlistening_ga-ba.mp3	ga	ba	1	right
6.6.1	mac	2023-07-07	00:22:21	00:35:06	762033	5e6d7b0421be18343d8bc4a9	1	1	main_slash	24	advance_on_keypress_SLASH	140	stimuli_distractor_trianglediamonds.svg	stimuli_distractor_trianglediamonds.svg	34	no	57	0	324	6	5	antiphase_hc_osi.wav	2	6	3	noise_calib_stim_LEFT.wav	1	13	blb_dichoticlistening_ga-ba.mp3	ga	ba	1	right
6.6.1	mac	2023-07-07	00:22:21	00:35:08	763550	5e6d7b0421be18343d8bc4a9	1	1	main_slash	24	main_slash	141	stimuli_target_rectanglediamonds.svg	stimuli_distractor_diamondtriangles.svg	6	yes	53	1	568	6	5	antiphase_hc_osi.wav	2	6	3	noise_calib_stim_LEFT.wav	1	13	blb_dichoticlistening_ga-ba.mp3	ga	ba	1	right
6.6.1	mac	2023-07-07	00:22:21	00:35:08	763550	5e6d7b0421be18343d8bc4a9	1	1	main_slash	24	advance_on_keypress_SLASH	142	stimuli_target_rectanglediamonds.svg	stimuli_distractor_diamondtriangles.svg	6	yes	57	0	121	6	5	antiphase_hc_osi.wav	2	6	3	noise_calib_stim_LEFT.wav	1	13	blb_dichoticlistening_ga-ba.mp3	ga	ba	1	right
6.6.1	mac	2023-07-07	00:22:21	00:35:09	764763	5e6d7b0421be18343d8bc4a9	1	1	main_slash	24	main_slash	143	stimuli_distractor_trianglediamonds.svg	stimuli_target_rectangletriangles.svg	9	yes	53	1	465	6	5	antiphase_hc_osi.wav	2	6	3	noise_calib_stim_LEFT.wav	1	13	blb_dichoticlistening_ga-ba.mp3	ga	ba	1	right
6.6.1	mac	2023-07-07	00:22:21	00:35:09	764763	5e6d7b0421be18343d8bc4a9	1	1	main_slash	24	advance_on_keypress_SLASH	144	stimuli_distractor_trianglediamonds.svg	stimuli_target_rectangletriangles.svg	9	yes	57	0	157	6	5	antiphase_hc_osi.wav	2	6	3	noise_calib_stim_LEFT.wav	1	13	blb_dichoticlistening_ga-ba.mp3	ga	ba	1	right
6.6.1	mac	2023-07-07	00:22:21	00:35:10	766166	5e6d7b0421be18343d8bc4a9	1	1	main_slash	24	main_slash	145	stimuli_distractor_trianglediamonds.svg	stimuli_target_diamondrectangles.svg	27	yes	53	1	617	6	5	antiphase_hc_osi.wav	2	6	3	noise_calib_stim_LEFT.wav	1	13	blb_dichoticlistening_ga-ba.mp3	ga	ba	1	right
6.6.1	mac	2023-07-07	00:22:21	00:35:10	766166	5e6d7b0421be18343d8bc4a9	1	1	main_slash	24	advance_on_keypress_SLASH	146	stimuli_distractor_trianglediamonds.svg	stimuli_target_diamondrectangles.svg	27	yes	57	0	208	6	5	antiphase_hc_osi.wav	2	6	3	noise_calib_stim_LEFT.wav	1	13	blb_dichoticlistening_ga-ba.mp3	ga	ba	1	right
6.6.1	mac	2023-07-07	00:22:21	00:35:12	768078	5e6d7b0421be18343d8bc4a9	1	1	main_slash	24	main_slash	147	stimuli_distractor_trianglediamonds.svg	stimuli_target_rectanglediamonds.svg	10	yes	53	1	1079	6	5	antiphase_hc_osi.wav	2	6	3	noise_calib_stim_LEFT.wav	1	13	blb_dichoticlistening_ga-ba.mp3	ga	ba	1	right
6.6.1	mac	2023-07-07	00:22:21	00:35:12	768078	5e6d7b0421be18343d8bc4a9	1	1	main_slash	24	advance_on_keypress_SLASH	148	stimuli_distractor_trianglediamonds.svg	stimuli_target_rectanglediamonds.svg	10	yes	57	0	184	6	5	antiphase_hc_osi.wav	2	6	3	noise_calib_stim_LEFT.wav	1	13	blb_dichoticlistening_ga-ba.mp3	ga	ba	1	right
6.6.1	mac	2023-07-07	00:22:21	00:35:14	769375	5e6d7b0421be18343d8bc4a9	1	1	main_slash	24	main_slash	149	stimuli_distractor_diamondtriangles.svg	stimuli_target_squarediamonds.svg	16	yes	53	1	477	6	5	antiphase_hc_osi.wav	2	6	3	noise_calib_stim_LEFT.wav	1	13	blb_dichoticlistening_ga-ba.mp3	ga	ba	1	right
6.6.1	mac	2023-07-07	00:22:21	00:35:14	769375	5e6d7b0421be18343d8bc4a9	1	1	main_slash	24	advance_on_keypress_SLASH	150	stimuli_distractor_diamondtriangles.svg	stimuli_target_squarediamonds.svg	16	yes	57	0	155	6	5	antiphase_hc_osi.wav	2	6	3	noise_calib_stim_LEFT.wav	1	13	blb_dichoticlistening_ga-ba.mp3	ga	ba	1	right
6.6.1	mac	2023-07-07	00:22:21	00:35:15	770883	5e6d7b0421be18343d8bc4a9	1	1	main_slash	24	main_slash	151	stimuli_distractor_trianglediamonds.svg	stimuli_target_trianglesquares.svg	26	yes	53	1	735	6	5	antiphase_hc_osi.wav	2	6	3	noise_calib_stim_LEFT.wav	1	13	blb_dichoticlistening_ga-ba.mp3	ga	ba	1	right
6.6.1	mac	2023-07-07	00:22:21	00:35:15	770883	5e6d7b0421be18343d8bc4a9	1	1	main_slash	24	advance_on_keypress_SLASH	152	stimuli_distractor_trianglediamonds.svg	stimuli_target_trianglesquares.svg	26	yes	57	0	120	6	5	antiphase_hc_osi.wav	2	6	3	noise_calib_stim_LEFT.wav	1	13	blb_dichoticlistening_ga-ba.mp3	ga	ba	1	right
6.6.1	mac	2023-07-07	00:22:21	00:35:17	772335	5e6d7b0421be18343d8bc4a9	1	1	main_slash	24	main_slash	153	stimuli_target_rectanglediamonds.svg	stimuli_distractor_trianglediamonds.svg	2	yes	53	1	703	6	5	antiphase_hc_osi.wav	2	6	3	noise_calib_stim_LEFT.wav	1	13	blb_dichoticlistening_ga-ba.mp3	ga	ba	1	right
6.6.1	mac	2023-07-07	00:22:21	00:35:17	772335	5e6d7b0421be18343d8bc4a9	1	1	main_slash	24	advance_on_keypress_SLASH	154	stimuli_target_rectanglediamonds.svg	stimuli_distractor_trianglediamonds.svg	2	yes	57	0	161	6	5	antiphase_hc_osi.wav	2	6	3	noise_calib_stim_LEFT.wav	1	13	blb_dichoticlistening_ga-ba.mp3	ga	ba	1	right
6.6.1	mac	2023-07-07	00:22:21	00:35:18	773593	5e6d7b0421be18343d8bc4a9	1	1	main_slash	24	main_slash	155	stimuli_target_squaretriangles.svg	stimuli_distractor_trianglediamonds.svg	3	yes	53	1	478	6	5	antiphase_hc_osi.wav	2	6	3	noise_calib_stim_LEFT.wav	1	13	blb_dichoticlistening_ga-ba.mp3	ga	ba	1	right
6.6.1	mac	2023-07-07	00:22:21	00:35:18	773593	5e6d7b0421be18343d8bc4a9	1	1	main_slash	24	advance_on_keypress_SLASH	156	stimuli_target_squaretriangles.svg	stimuli_distractor_trianglediamonds.svg	3	yes	57	0	176	6	5	antiphase_hc_osi.wav	2	6	3	noise_calib_stim_LEFT.wav	1	13	blb_dichoticlistening_ga-ba.mp3	ga	ba	1	right
6.6.1	mac	2023-07-07	00:22:21	00:35:19	774754	5e6d7b0421be18343d8bc4a9	1	1	main_slash	24	main_slash	157	stimuli_distractor_diamondtriangles.svg	stimuli_target_rectanglediamonds.svg	14	yes	53	1	372	6	5	antiphase_hc_osi.wav	2	6	3	noise_calib_stim_LEFT.wav	1	13	blb_dichoticlistening_ga-ba.mp3	ga	ba	1	right
6.6.1	mac	2023-07-07	00:22:21	00:35:19	774754	5e6d7b0421be18343d8bc4a9	1	1	main_slash	24	advance_on_keypress_SLASH	158	stimuli_distractor_diamondtriangles.svg	stimuli_target_rectanglediamonds.svg	14	yes	57	0	159	6	5	antiphase_hc_osi.wav	2	6	3	noise_calib_stim_LEFT.wav	1	13	blb_dichoticlistening_ga-ba.mp3	ga	ba	1	right
6.6.1	mac	2023-07-07	00:22:21	00:35:20	776209	5e6d7b0421be18343d8bc4a9	1	1	main_slash	24	main_slash	159	stimuli_distractor_trianglediamonds.svg	stimuli_target_trianglerectangles.svg	25	yes	53	1	677	6	5	antiphase_hc_osi.wav	2	6	3	noise_calib_stim_LEFT.wav	1	13	blb_dichoticlistening_ga-ba.mp3	ga	ba	1	right
6.6.1	mac	2023-07-07	00:22:21	00:35:20	776209	5e6d7b0421be18343d8bc4a9	1	1	main_slash	24	advance_on_keypress_SLASH	160	stimuli_distractor_trianglediamonds.svg	stimuli_target_trianglerectangles.svg	25	yes	57	0	163	6	5	antiphase_hc_osi.wav	2	6	3	noise_calib_stim_LEFT.wav	1	13	blb_dichoticlistening_ga-ba.mp3	ga	ba	1	right
6.6.1	mac	2023-07-07	00:22:21	00:35:53	808384	5e6d7b0421be18343d8bc4a9	1	1	practice_z	26	practice_z	1	stimuli_target_diamondsquares.svg	stimuli_distractor_trianglediamonds.svg	6	yes	44	1	615	6	5	antiphase_hc_osi.wav	2	6	3	noise_calib_stim_LEFT.wav	1	13	blb_dichoticlistening_ga-ba.mp3	ga	ba	1	right
6.6.1	mac	2023-07-07	00:22:21	00:35:53	808384	5e6d7b0421be18343d8bc4a9	1	1	practice_z	26	advance_on_keypress_ZEE	2	stimuli_target_diamondsquares.svg	stimuli_distractor_trianglediamonds.svg	6	yes	57	0	458	6	5	antiphase_hc_osi.wav	2	6	3	noise_calib_stim_LEFT.wav	1	13	blb_dichoticlistening_ga-ba.mp3	ga	ba	1	right
6.6.1	mac	2023-07-07	00:22:21	00:35:55	811055	5e6d7b0421be18343d8bc4a9	1	1	practice_z	26	practice_z	3	stimuli_target_diamondsquares.svg	stimuli_distractor_diamondtriangles.svg	3	yes	44	1	590	6	5	antiphase_hc_osi.wav	2	6	3	noise_calib_stim_LEFT.wav	1	13	blb_dichoticlistening_ga-ba.mp3	ga	ba	1	right
6.6.1	mac	2023-07-07	00:22:21	00:35:55	811055	5e6d7b0421be18343d8bc4a9	1	1	practice_z	26	advance_on_keypress_ZEE	4	stimuli_target_diamondsquares.svg	stimuli_distractor_diamondtriangles.svg	3	yes	57	0	339	6	5	antiphase_hc_osi.wav	2	6	3	noise_calib_stim_LEFT.wav	1	13	blb_dichoticlistening_ga-ba.mp3	ga	ba	1	right
6.6.1	mac	2023-07-07	00:22:21	00:35:58	813689	5e6d7b0421be18343d8bc4a9	1	1	practice_z	26	practice_z	5	stimuli_distractor_diamondtriangles.svg	stimuli_target_trianglerectangles.svg	9	yes	44	1	673	6	5	antiphase_hc_osi.wav	2	6	3	noise_calib_stim_LEFT.wav	1	13	blb_dichoticlistening_ga-ba.mp3	ga	ba	1	right
6.6.1	mac	2023-07-07	00:22:21	00:35:58	813689	5e6d7b0421be18343d8bc4a9	1	1	practice_z	26	advance_on_keypress_ZEE	6	stimuli_distractor_diamondtriangles.svg	stimuli_target_trianglerectangles.svg	9	yes	57	0	512	6	5	antiphase_hc_osi.wav	2	6	3	noise_calib_stim_LEFT.wav	1	13	blb_dichoticlistening_ga-ba.mp3	ga	ba	1	right
6.6.1	mac	2023-07-07	00:22:21	00:36:01	816484	5e6d7b0421be18343d8bc4a9	1	1	practice_z	26	practice_z	7	stimuli_distractor_diamondtriangles.svg	stimuli_target_diamondrectangles.svg	8	yes	44	1	652	6	5	antiphase_hc_osi.wav	2	6	3	noise_calib_stim_LEFT.wav	1	13	blb_dichoticlistening_ga-ba.mp3	ga	ba	1	right
6.6.1	mac	2023-07-07	00:22:21	00:36:01	816484	5e6d7b0421be18343d8bc4a9	1	1	practice_z	26	advance_on_keypress_ZEE	8	stimuli_distractor_diamondtriangles.svg	stimuli_target_diamondrectangles.svg	8	yes	57	0	376	6	5	antiphase_hc_osi.wav	2	6	3	noise_calib_stim_LEFT.wav	1	13	blb_dichoticlistening_ga-ba.mp3	ga	ba	1	right
6.6.1	mac	2023-07-07	00:22:21	00:36:03	819049	5e6d7b0421be18343d8bc4a9	1	1	practice_z	26	practice_z	9	stimuli_target_rectanglediamonds.svg	stimuli_distractor_trianglediamonds.svg	4	yes	44	1	567	6	5	antiphase_hc_osi.wav	2	6	3	noise_calib_stim_LEFT.wav	1	13	blb_dichoticlistening_ga-ba.mp3	ga	ba	1	right
6.6.1	mac	2023-07-07	00:22:21	00:36:03	819049	5e6d7b0421be18343d8bc4a9	1	1	practice_z	26	advance_on_keypress_ZEE	10	stimuli_target_rectanglediamonds.svg	stimuli_distractor_trianglediamonds.svg	4	yes	57	0	225	6	5	antiphase_hc_osi.wav	2	6	3	noise_calib_stim_LEFT.wav	1	13	blb_dichoticlistening_ga-ba.mp3	ga	ba	1	right
6.6.1	mac	2023-07-07	00:22:21	00:36:06	821702	5e6d7b0421be18343d8bc4a9	1	1	practice_z	26	practice_z	11	stimuli_distractor_trianglediamonds.svg	stimuli_target_squarediamonds.svg	11	yes	44	1	803	6	5	antiphase_hc_osi.wav	2	6	3	noise_calib_stim_LEFT.wav	1	13	blb_dichoticlistening_ga-ba.mp3	ga	ba	1	right
6.6.1	mac	2023-07-07	00:22:21	00:36:06	821702	5e6d7b0421be18343d8bc4a9	1	1	practice_z	26	advance_on_keypress_ZEE	12	stimuli_distractor_trianglediamonds.svg	stimuli_target_squarediamonds.svg	11	yes	57	0	291	6	5	antiphase_hc_osi.wav	2	6	3	noise_calib_stim_LEFT.wav	1	13	blb_dichoticlistening_ga-ba.mp3	ga	ba	1	right
6.6.1	mac	2023-07-07	00:22:21	00:36:10	825617	5e6d7b0421be18343d8bc4a9	1	1	practice_z	26	practice_z	13	stimuli_distractor_trianglediamonds.svg	stimuli_distractor_trianglediamonds.svg	15	no	0	1	2000	6	5	antiphase_hc_osi.wav	2	6	3	noise_calib_stim_LEFT.wav	1	13	blb_dichoticlistening_ga-ba.mp3	ga	ba	1	right
6.6.1	mac	2023-07-07	00:22:21	00:36:10	825617	5e6d7b0421be18343d8bc4a9	1	1	practice_z	26	advance_on_keypress_ZEE	14	stimuli_distractor_trianglediamonds.svg	stimuli_distractor_trianglediamonds.svg	15	no	57	0	417	6	5	antiphase_hc_osi.wav	2	6	3	noise_calib_stim_LEFT.wav	1	13	blb_dichoticlistening_ga-ba.mp3	ga	ba	1	right
6.6.1	mac	2023-07-07	00:22:21	00:36:12	828226	5e6d7b0421be18343d8bc4a9	1	1	practice_z	26	practice_z	15	stimuli_distractor_trianglediamonds.svg	stimuli_target_rectanglediamonds.svg	10	yes	44	1	560	6	5	antiphase_hc_osi.wav	2	6	3	noise_calib_stim_LEFT.wav	1	13	blb_dichoticlistening_ga-ba.mp3	ga	ba	1	right
