build	computer.platform	date	time	timestamp	time_elapsed_ms	subject	group	session	blockcode	blocknum	trialcode	trialnum	stimulus_left	stimulus_right	stim_index	target_present	response	correct	latency	headphonecheck_countTestTrials	headphonecheck_index	headphonecheck_testSound	headphonecheck_correctResponse	stereocheck_countTestTrials	stereocheck_index	stereocheck_testSound	stereocheck_correctResponse	DL_index	DL_soundfile	DL_leftSound	DL_rightSound	DL_dualSound	DL_choice
6.6.1	mac	2023-06-23	12:15:19	12:17:47	139812	60fef79fa408c9eae61e49c3	4	1	practice_z	5	practice_z	1	stimuli_distractor_trianglediamonds.svg	stimuli_target_diamondrectangles.svg	12	yes	0	0	2000	0	0			0	0			1				0	
6.6.1	mac	2023-06-23	12:15:19	12:17:47	139812	60fef79fa408c9eae61e49c3	4	1	practice_z	5	advance_on_keypress_ZEE	2	stimuli_distractor_trianglediamonds.svg	stimuli_target_diamondrectangles.svg	12	yes	57	0	1814	0	0			0	0			1				0	
6.6.1	mac	2023-06-23	12:15:19	12:17:52	145294	60fef79fa408c9eae61e49c3	4	1	practice_z	5	practice_z	3	stimuli_distractor_trianglediamonds.svg	stimuli_target_rectanglediamonds.svg	10	yes	0	0	2000	0	0			0	0			1				0	
6.6.1	mac	2023-06-23	12:15:19	12:17:52	145294	60fef79fa408c9eae61e49c3	4	1	practice_z	5	advance_on_keypress_ZEE	4	stimuli_distractor_trianglediamonds.svg	stimuli_target_rectanglediamonds.svg	10	yes	57	0	3317	0	0			0	0			1				0	
6.6.1	mac	2023-06-23	12:15:19	12:17:58	151164	60fef79fa408c9eae61e49c3	4	1	practice_z	5	practice_z	5	stimuli_target_diamondsquares.svg	stimuli_distractor_diamondtriangles.svg	3	yes	44	1	800	0	0			0	0			1				0	
6.6.1	mac	2023-06-23	12:15:19	12:17:58	151164	60fef79fa408c9eae61e49c3	4	1	practice_z	5	advance_on_keypress_ZEE	6	stimuli_target_diamondsquares.svg	stimuli_distractor_diamondtriangles.svg	3	yes	57	0	672	0	0			0	0			1				0	
6.6.1	mac	2023-06-23	12:15:19	12:18:02	155405	60fef79fa408c9eae61e49c3	4	1	practice_z	5	practice_z	7	stimuli_distractor_diamondtriangles.svg	stimuli_target_rectangletriangles.svg	7	yes	44	1	1898	0	0			0	0			1				0	
6.6.1	mac	2023-06-23	12:15:19	12:18:02	155405	60fef79fa408c9eae61e49c3	4	1	practice_z	5	advance_on_keypress_ZEE	8	stimuli_distractor_diamondtriangles.svg	stimuli_target_rectangletriangles.svg	7	yes	57	0	5656	0	0			0	0			1				0	
6.6.1	mac	2023-06-23	12:15:19	12:18:12	164885	60fef79fa408c9eae61e49c3	4	1	practice_z	5	practice_z	9	stimuli_distractor_trianglediamonds.svg	stimuli_distractor_diamondtriangles.svg	16	no	0	1	2000	0	0			0	0			1				0	
6.6.1	mac	2023-06-23	12:15:19	12:18:12	164885	60fef79fa408c9eae61e49c3	4	1	practice_z	5	advance_on_keypress_ZEE	10	stimuli_distractor_trianglediamonds.svg	stimuli_distractor_diamondtriangles.svg	16	no	57	0	364	0	0			0	0			1				0	
6.6.1	mac	2023-06-23	12:15:19	12:18:15	167903	60fef79fa408c9eae61e49c3	4	1	practice_z	5	practice_z	11	stimuli_distractor_diamondtriangles.svg	stimuli_target_diamondrectangles.svg	8	yes	44	1	1010	0	0			0	0			1				0	
6.6.1	mac	2023-06-23	12:15:19	12:18:15	167903	60fef79fa408c9eae61e49c3	4	1	practice_z	5	advance_on_keypress_ZEE	12	stimuli_distractor_diamondtriangles.svg	stimuli_target_diamondrectangles.svg	8	yes	57	0	540	0	0			0	0			1				0	
6.6.1	mac	2023-06-23	12:15:19	12:18:19	171570	60fef79fa408c9eae61e49c3	4	1	practice_z	5	practice_z	13	stimuli_target_rectanglediamonds.svg	stimuli_distractor_trianglediamonds.svg	4	yes	44	1	1485	0	0			0	0			1				0	
6.6.1	mac	2023-06-23	12:15:19	12:18:19	171570	60fef79fa408c9eae61e49c3	4	1	practice_z	5	advance_on_keypress_ZEE	14	stimuli_target_rectanglediamonds.svg	stimuli_distractor_trianglediamonds.svg	4	yes	57	0	593	0	0			0	0			1				0	
6.6.1	mac	2023-06-23	12:15:19	12:18:22	175385	60fef79fa408c9eae61e49c3	4	1	practice_z	5	practice_z	15	stimuli_target_squarediamonds.svg	stimuli_distractor_diamondtriangles.svg	2	yes	44	1	1574	0	0			0	0			1				0	
6.6.1	mac	2023-06-23	12:15:19	12:18:22	175385	60fef79fa408c9eae61e49c3	4	1	practice_z	5	advance_on_keypress_ZEE	16	stimuli_target_squarediamonds.svg	stimuli_distractor_diamondtriangles.svg	2	yes	57	0	435	0	0			0	0			1				0	
6.6.1	mac	2023-06-23	12:15:19	12:18:26	178852	60fef79fa408c9eae61e49c3	4	1	practice_z	5	practice_z	17	stimuli_target_squarediamonds.svg	stimuli_distractor_trianglediamonds.svg	5	yes	44	1	1378	0	0			0	0			1				0	
6.6.1	mac	2023-06-23	12:15:19	12:18:26	178852	60fef79fa408c9eae61e49c3	4	1	practice_z	5	advance_on_keypress_ZEE	18	stimuli_target_squarediamonds.svg	stimuli_distractor_trianglediamonds.svg	5	yes	57	0	296	0	0			0	0			1				0	
6.6.1	mac	2023-06-23	12:15:19	12:18:29	182112	60fef79fa408c9eae61e49c3	4	1	practice_z	5	practice_z	19	stimuli_distractor_diamondtriangles.svg	stimuli_target_trianglerectangles.svg	9	yes	44	1	1181	0	0			0	0			1				0	
6.6.1	mac	2023-06-23	12:15:19	12:18:29	182112	60fef79fa408c9eae61e49c3	4	1	practice_z	5	advance_on_keypress_ZEE	20	stimuli_distractor_diamondtriangles.svg	stimuli_target_trianglerectangles.svg	9	yes	57	0	546	0	0			0	0			1				0	
6.6.1	mac	2023-06-23	12:15:19	12:18:33	185765	60fef79fa408c9eae61e49c3	4	1	practice_z	5	practice_z	21	stimuli_target_diamondsquares.svg	stimuli_distractor_trianglediamonds.svg	6	yes	44	1	1418	0	0			0	0			1				0	
6.6.1	mac	2023-06-23	12:15:19	12:18:33	185765	60fef79fa408c9eae61e49c3	4	1	practice_z	5	advance_on_keypress_ZEE	22	stimuli_target_diamondsquares.svg	stimuli_distractor_trianglediamonds.svg	6	yes	57	0	458	0	0			0	0			1				0	
6.6.1	mac	2023-06-23	12:15:19	12:18:37	190031	60fef79fa408c9eae61e49c3	4	1	practice_z	5	practice_z	23	stimuli_distractor_diamondtriangles.svg	stimuli_distractor_trianglediamonds.svg	14	no	0	1	2000	0	0			0	0			1				0	
6.6.1	mac	2023-06-23	12:15:19	12:18:37	190031	60fef79fa408c9eae61e49c3	4	1	practice_z	5	advance_on_keypress_ZEE	24	stimuli_distractor_diamondtriangles.svg	stimuli_distractor_trianglediamonds.svg	14	no	57	0	934	0	0			0	0			1				0	
6.6.1	mac	2023-06-23	12:15:19	12:18:41	193656	60fef79fa408c9eae61e49c3	4	1	practice_z	5	practice_z	25	stimuli_distractor_trianglediamonds.svg	stimuli_target_squarediamonds.svg	11	yes	44	1	1042	0	0			0	0			1				0	
6.6.1	mac	2023-06-23	12:15:19	12:18:41	193656	60fef79fa408c9eae61e49c3	4	1	practice_z	5	advance_on_keypress_ZEE	26	stimuli_distractor_trianglediamonds.svg	stimuli_target_squarediamonds.svg	11	yes	57	0	3231	0	0			0	0			1				0	
6.6.1	mac	2023-06-23	12:15:19	12:18:48	200569	60fef79fa408c9eae61e49c3	4	1	practice_z	5	practice_z	27	stimuli_distractor_trianglediamonds.svg	stimuli_distractor_trianglediamonds.svg	15	no	0	1	2000	0	0			0	0			1				0	
6.6.1	mac	2023-06-23	12:15:19	12:18:48	200569	60fef79fa408c9eae61e49c3	4	1	practice_z	5	advance_on_keypress_ZEE	28	stimuli_distractor_trianglediamonds.svg	stimuli_distractor_trianglediamonds.svg	15	no	57	0	558	0	0			0	0			1				0	
6.6.1	mac	2023-06-23	12:15:19	12:18:52	204769	60fef79fa408c9eae61e49c3	4	1	practice_z	5	practice_z	29	stimuli_distractor_diamondtriangles.svg	stimuli_distractor_diamondtriangles.svg	13	no	0	1	2000	0	0			0	0			1				0	
6.6.1	mac	2023-06-23	12:15:19	12:18:52	204769	60fef79fa408c9eae61e49c3	4	1	practice_z	5	advance_on_keypress_ZEE	30	stimuli_distractor_diamondtriangles.svg	stimuli_distractor_diamondtriangles.svg	13	no	57	0	526	0	0			0	0			1				0	
6.6.1	mac	2023-06-23	12:15:19	12:18:55	208224	60fef79fa408c9eae61e49c3	4	1	practice_z	5	practice_z	31	stimuli_target_rectanglediamonds.svg	stimuli_distractor_diamondtriangles.svg	1	yes	44	1	1273	0	0			0	0			1				0	
6.6.1	mac	2023-06-23	12:15:19	12:18:55	208224	60fef79fa408c9eae61e49c3	4	1	practice_z	5	advance_on_keypress_ZEE	32	stimuli_target_rectanglediamonds.svg	stimuli_distractor_diamondtriangles.svg	1	yes	57	0	506	0	0			0	0			1				0	
6.6.1	mac	2023-06-23	12:15:19	12:19:28	241095	60fef79fa408c9eae61e49c3	4	1	main_z	7	main_z	1	stimuli_target_rectanglediamonds.svg	stimuli_distractor_trianglediamonds.svg	2	yes	44	1	736	0	0			0	0			1				0	
6.6.1	mac	2023-06-23	12:15:19	12:19:28	241095	60fef79fa408c9eae61e49c3	4	1	main_z	7	advance_on_keypress_ZEE	2	stimuli_target_rectanglediamonds.svg	stimuli_distractor_trianglediamonds.svg	2	yes	57	0	2834	0	0			0	0			1				0	
6.6.1	mac	2023-06-23	12:15:19	12:19:33	245688	60fef79fa408c9eae61e49c3	4	1	main_z	7	main_z	3	stimuli_distractor_trianglediamonds.svg	stimuli_target_trianglerectangles.svg	25	yes	44	1	1095	0	0			0	0			1				0	
6.6.1	mac	2023-06-23	12:15:19	12:19:33	245688	60fef79fa408c9eae61e49c3	4	1	main_z	7	advance_on_keypress_ZEE	4	stimuli_distractor_trianglediamonds.svg	stimuli_target_trianglerectangles.svg	25	yes	57	0	788	0	0			0	0			1				0	
6.6.1	mac	2023-06-23	12:15:19	12:19:36	249141	60fef79fa408c9eae61e49c3	4	1	main_z	7	main_z	5	stimuli_distractor_trianglediamonds.svg	stimuli_distractor_diamondtriangles.svg	35	no	0	1	2000	0	0			0	0			1				0	
6.6.1	mac	2023-06-23	12:15:19	12:19:36	249141	60fef79fa408c9eae61e49c3	4	1	main_z	7	advance_on_keypress_ZEE	6	stimuli_distractor_trianglediamonds.svg	stimuli_distractor_diamondtriangles.svg	35	no	57	0	530	0	0			0	0			1				0	
6.6.1	mac	2023-06-23	12:15:19	12:19:39	252331	60fef79fa408c9eae61e49c3	4	1	main_z	7	main_z	7	stimuli_distractor_diamondtriangles.svg	stimuli_target_squarediamonds.svg	16	yes	0	0	2000	0	0			0	0			1				0	
6.6.1	mac	2023-06-23	12:15:19	12:19:39	252331	60fef79fa408c9eae61e49c3	4	1	main_z	7	advance_on_keypress_ZEE	8	stimuli_distractor_diamondtriangles.svg	stimuli_target_squarediamonds.svg	16	yes	57	0	835	0	0			0	0			1				0	
6.6.1	mac	2023-06-23	12:15:19	12:19:42	254902	60fef79fa408c9eae61e49c3	4	1	main_z	7	main_z	9	stimuli_distractor_trianglediamonds.svg	stimuli_target_diamondrectangles.svg	27	yes	44	1	1039	0	0			0	0			1				0	
6.6.1	mac	2023-06-23	12:15:19	12:19:42	254902	60fef79fa408c9eae61e49c3	4	1	main_z	7	advance_on_keypress_ZEE	10	stimuli_distractor_trianglediamonds.svg	stimuli_target_diamondrectangles.svg	27	yes	57	0	1014	0	0			0	0			1				0	
6.6.1	mac	2023-06-23	12:15:19	12:19:45	257569	60fef79fa408c9eae61e49c3	4	1	main_z	7	main_z	11	stimuli_distractor_trianglediamonds.svg	stimuli_target_trianglesquares.svg	26	yes	44	1	1016	0	0			0	0			1				0	
6.6.1	mac	2023-06-23	12:15:19	12:19:45	257569	60fef79fa408c9eae61e49c3	4	1	main_z	7	advance_on_keypress_ZEE	12	stimuli_distractor_trianglediamonds.svg	stimuli_target_trianglesquares.svg	26	yes	57	0	1090	0	0			0	0			1				0	
6.6.1	mac	2023-06-23	12:15:19	12:19:48	261289	60fef79fa408c9eae61e49c3	4	1	main_z	7	main_z	13	stimuli_target_trianglesquares.svg	stimuli_distractor_trianglediamonds.svg	18	yes	0	0	2000	0	0			0	0			1				0	
6.6.1	mac	2023-06-23	12:15:19	12:19:48	261289	60fef79fa408c9eae61e49c3	4	1	main_z	7	advance_on_keypress_ZEE	14	stimuli_target_trianglesquares.svg	stimuli_distractor_trianglediamonds.svg	18	yes	57	0	99	0	0			0	0			1				0	
6.6.1	mac	2023-06-23	12:15:19	12:19:50	263112	60fef79fa408c9eae61e49c3	4	1	main_z	7	main_z	15	stimuli_distractor_diamondtriangles.svg	stimuli_target_rectanglediamonds.svg	14	yes	44	1	1096	0	0			0	0			1				0	
6.6.1	mac	2023-06-23	12:15:19	12:19:50	263112	60fef79fa408c9eae61e49c3	4	1	main_z	7	advance_on_keypress_ZEE	16	stimuli_distractor_diamondtriangles.svg	stimuli_target_rectanglediamonds.svg	14	yes	57	0	599	0	0			0	0			1				0	
6.6.1	mac	2023-06-23	12:15:19	12:19:52	265434	60fef79fa408c9eae61e49c3	4	1	main_z	7	main_z	17	stimuli_target_trianglerectangles.svg	stimuli_distractor_diamondtriangles.svg	21	yes	44	1	1079	0	0			0	0			1				0	
6.6.1	mac	2023-06-23	12:15:19	12:19:52	265434	60fef79fa408c9eae61e49c3	4	1	main_z	7	advance_on_keypress_ZEE	18	stimuli_target_trianglerectangles.svg	stimuli_distractor_diamondtriangles.svg	21	yes	57	0	384	0	0			0	0			1				0	
6.6.1	mac	2023-06-23	12:15:19	12:19:55	268458	60fef79fa408c9eae61e49c3	4	1	main_z	7	main_z	19	stimuli_distractor_trianglediamonds.svg	stimuli_distractor_trianglediamonds.svg	33	no	0	1	2000	0	0			0	0			1				0	
6.6.1	mac	2023-06-23	12:15:19	12:19:55	268458	60fef79fa408c9eae61e49c3	4	1	main_z	7	advance_on_keypress_ZEE	20	stimuli_distractor_trianglediamonds.svg	stimuli_distractor_trianglediamonds.svg	33	no	57	0	522	0	0			0	0			1				0	
6.6.1	mac	2023-06-23	12:15:19	12:19:58	270941	60fef79fa408c9eae61e49c3	4	1	main_z	7	main_z	21	stimuli_target_rectangletriangles.svg	stimuli_distractor_trianglediamonds.svg	1	yes	44	1	1321	0	0			0	0			1				0	
6.6.1	mac	2023-06-23	12:15:19	12:19:58	270941	60fef79fa408c9eae61e49c3	4	1	main_z	7	advance_on_keypress_ZEE	22	stimuli_target_rectangletriangles.svg	stimuli_distractor_trianglediamonds.svg	1	yes	57	0	933	0	0			0	0			1				0	
6.6.1	mac	2023-06-23	12:15:19	12:20:01	274507	60fef79fa408c9eae61e49c3	4	1	main_z	7	main_z	23	stimuli_distractor_diamondtriangles.svg	stimuli_distractor_trianglediamonds.svg	38	no	0	1	2000	0	0			0	0			1				0	
6.6.1	mac	2023-06-23	12:15:19	12:20:01	274507	60fef79fa408c9eae61e49c3	4	1	main_z	7	advance_on_keypress_ZEE	24	stimuli_distractor_diamondtriangles.svg	stimuli_distractor_trianglediamonds.svg	38	no	57	0	443	0	0			0	0			1				0	
6.6.1	mac	2023-06-23	12:15:19	12:20:04	276689	60fef79fa408c9eae61e49c3	4	1	main_z	7	main_z	25	stimuli_target_diamondsquares.svg	stimuli_distractor_diamondtriangles.svg	24	yes	44	1	1102	0	0			0	0			1				0	
6.6.1	mac	2023-06-23	12:15:19	12:20:04	276689	60fef79fa408c9eae61e49c3	4	1	main_z	7	advance_on_keypress_ZEE	26	stimuli_target_diamondsquares.svg	stimuli_distractor_diamondtriangles.svg	24	yes	57	0	2126	0	0			0	0			1				0	
6.6.1	mac	2023-06-23	12:15:19	12:20:08	280888	60fef79fa408c9eae61e49c3	4	1	main_z	7	main_z	27	stimuli_target_squarediamonds.svg	stimuli_distractor_diamondtriangles.svg	8	yes	44	1	1426	0	0			0	0			1				0	
6.6.1	mac	2023-06-23	12:15:19	12:20:08	280888	60fef79fa408c9eae61e49c3	4	1	main_z	7	advance_on_keypress_ZEE	28	stimuli_target_squarediamonds.svg	stimuli_distractor_diamondtriangles.svg	8	yes	57	0	357	0	0			0	0			1				0	
6.6.1	mac	2023-06-23	12:15:19	12:20:11	283882	60fef79fa408c9eae61e49c3	4	1	main_z	7	main_z	29	stimuli_target_diamondrectangles.svg	stimuli_distractor_trianglediamonds.svg	19	yes	0	0	2000	0	0			0	0			1				0	
6.6.1	mac	2023-06-23	12:15:19	12:20:11	283882	60fef79fa408c9eae61e49c3	4	1	main_z	7	advance_on_keypress_ZEE	30	stimuli_target_diamondrectangles.svg	stimuli_distractor_trianglediamonds.svg	19	yes	57	0	734	0	0			0	0			1				0	
6.6.1	mac	2023-06-23	12:15:19	12:20:13	286310	60fef79fa408c9eae61e49c3	4	1	main_z	7	main_z	31	stimuli_target_diamondsquares.svg	stimuli_distractor_trianglediamonds.svg	20	yes	44	1	1065	0	0			0	0			1				0	
6.6.1	mac	2023-06-23	12:15:19	12:20:13	286310	60fef79fa408c9eae61e49c3	4	1	main_z	7	advance_on_keypress_ZEE	32	stimuli_target_diamondsquares.svg	stimuli_distractor_trianglediamonds.svg	20	yes	57	0	406	0	0			0	0			1				0	
6.6.1	mac	2023-06-23	12:15:19	12:20:16	289411	60fef79fa408c9eae61e49c3	4	1	main_z	7	main_z	33	stimuli_distractor_trianglediamonds.svg	stimuli_target_diamondsquares.svg	28	yes	0	0	2000	0	0			0	0			1				0	
6.6.1	mac	2023-06-23	12:15:19	12:20:16	289411	60fef79fa408c9eae61e49c3	4	1	main_z	7	advance_on_keypress_ZEE	34	stimuli_distractor_trianglediamonds.svg	stimuli_target_diamondsquares.svg	28	yes	57	0	373	0	0			0	0			1				0	
6.6.1	mac	2023-06-23	12:15:19	12:20:19	291677	60fef79fa408c9eae61e49c3	4	1	main_z	7	main_z	35	stimuli_distractor_trianglediamonds.svg	stimuli_target_squaretriangles.svg	11	yes	44	1	1252	0	0			0	0			1				0	
6.6.1	mac	2023-06-23	12:15:19	12:20:19	291677	60fef79fa408c9eae61e49c3	4	1	main_z	7	advance_on_keypress_ZEE	36	stimuli_distractor_trianglediamonds.svg	stimuli_target_squaretriangles.svg	11	yes	57	0	371	0	0			0	0			1				0	
6.6.1	mac	2023-06-23	12:15:19	12:20:21	294151	60fef79fa408c9eae61e49c3	4	1	main_z	7	main_z	37	stimuli_distractor_diamondtriangles.svg	stimuli_target_diamondrectangles.svg	31	yes	44	1	1470	0	0			0	0			1				0	
6.6.1	mac	2023-06-23	12:15:19	12:20:21	294151	60fef79fa408c9eae61e49c3	4	1	main_z	7	advance_on_keypress_ZEE	38	stimuli_distractor_diamondtriangles.svg	stimuli_target_diamondrectangles.svg	31	yes	57	0	287	0	0			0	0			1				0	
6.6.1	mac	2023-06-23	12:15:19	12:20:24	297046	60fef79fa408c9eae61e49c3	4	1	main_z	7	main_z	39	stimuli_distractor_diamondtriangles.svg	stimuli_target_trianglerectangles.svg	29	yes	44	1	1975	0	0			0	0			1				0	
6.6.1	mac	2023-06-23	12:15:19	12:20:24	297046	60fef79fa408c9eae61e49c3	4	1	main_z	7	advance_on_keypress_ZEE	40	stimuli_distractor_diamondtriangles.svg	stimuli_target_trianglerectangles.svg	29	yes	57	0	345	0	0			0	0			1				0	
6.6.1	mac	2023-06-23	12:15:19	12:20:26	299067	60fef79fa408c9eae61e49c3	4	1	main_z	7	main_z	41	stimuli_distractor_diamondtriangles.svg	stimuli_target_rectangletriangles.svg	13	yes	44	1	1038	0	0			0	0			1				0	
6.6.1	mac	2023-06-23	12:15:19	12:20:26	299067	60fef79fa408c9eae61e49c3	4	1	main_z	7	advance_on_keypress_ZEE	42	stimuli_distractor_diamondtriangles.svg	stimuli_target_rectangletriangles.svg	13	yes	57	0	307	0	0			0	0			1				0	
6.6.1	mac	2023-06-23	12:15:19	12:20:28	300971	60fef79fa408c9eae61e49c3	4	1	main_z	7	main_z	43	stimuli_target_squaretriangles.svg	stimuli_distractor_trianglediamonds.svg	3	yes	44	1	968	0	0			0	0			1				0	
6.6.1	mac	2023-06-23	12:15:19	12:20:28	300971	60fef79fa408c9eae61e49c3	4	1	main_z	7	advance_on_keypress_ZEE	44	stimuli_target_squaretriangles.svg	stimuli_distractor_trianglediamonds.svg	3	yes	57	0	385	0	0			0	0			1				0	
6.6.1	mac	2023-06-23	12:15:19	12:20:31	303909	60fef79fa408c9eae61e49c3	4	1	main_z	7	main_z	45	stimuli_target_trianglerectangles.svg	stimuli_distractor_trianglediamonds.svg	17	yes	44	1	1918	0	0			0	0			1				0	
6.6.1	mac	2023-06-23	12:15:19	12:20:31	303909	60fef79fa408c9eae61e49c3	4	1	main_z	7	advance_on_keypress_ZEE	46	stimuli_target_trianglerectangles.svg	stimuli_distractor_trianglediamonds.svg	17	yes	57	0	347	0	0			0	0			1				0	
6.6.1	mac	2023-06-23	12:15:19	12:20:33	305885	60fef79fa408c9eae61e49c3	4	1	main_z	7	main_z	47	stimuli_target_squarediamonds.svg	stimuli_distractor_trianglediamonds.svg	4	yes	44	1	988	0	0			0	0			1				0	
6.6.1	mac	2023-06-23	12:15:19	12:20:33	305885	60fef79fa408c9eae61e49c3	4	1	main_z	7	advance_on_keypress_ZEE	48	stimuli_target_squarediamonds.svg	stimuli_distractor_trianglediamonds.svg	4	yes	57	0	297	0	0			0	0			1				0	
6.6.1	mac	2023-06-23	12:15:19	12:20:35	308503	60fef79fa408c9eae61e49c3	4	1	main_z	7	main_z	49	stimuli_target_trianglesquares.svg	stimuli_distractor_diamondtriangles.svg	22	yes	44	1	1684	0	0			0	0			1				0	
6.6.1	mac	2023-06-23	12:15:19	12:20:35	308503	60fef79fa408c9eae61e49c3	4	1	main_z	7	advance_on_keypress_ZEE	50	stimuli_target_trianglesquares.svg	stimuli_distractor_diamondtriangles.svg	22	yes	57	0	258	0	0			0	0			1				0	
6.6.1	mac	2023-06-23	12:15:19	12:20:38	311406	60fef79fa408c9eae61e49c3	4	1	main_z	7	main_z	51	stimuli_target_diamondrectangles.svg	stimuli_distractor_diamondtriangles.svg	23	yes	0	0	2000	0	0			0	0			1				0	
6.6.1	mac	2023-06-23	12:15:19	12:20:38	311406	60fef79fa408c9eae61e49c3	4	1	main_z	7	advance_on_keypress_ZEE	52	stimuli_target_diamondrectangles.svg	stimuli_distractor_diamondtriangles.svg	23	yes	57	0	366	0	0			0	0			1				0	
6.6.1	mac	2023-06-23	12:15:19	12:20:41	313760	60fef79fa408c9eae61e49c3	4	1	main_z	7	main_z	53	stimuli_distractor_diamondtriangles.svg	stimuli_target_trianglesquares.svg	30	yes	44	1	1341	0	0			0	0			1				0	
6.6.1	mac	2023-06-23	12:15:19	12:20:41	313760	60fef79fa408c9eae61e49c3	4	1	main_z	7	advance_on_keypress_ZEE	54	stimuli_distractor_diamondtriangles.svg	stimuli_target_trianglesquares.svg	30	yes	57	0	371	0	0			0	0			1				0	
6.6.1	mac	2023-06-23	12:15:19	12:20:44	316672	60fef79fa408c9eae61e49c3	4	1	main_z	7	main_z	55	stimuli_distractor_trianglediamonds.svg	stimuli_distractor_trianglediamonds.svg	34	no	44	0	1872	0	0			0	0			1				0	
6.6.1	mac	2023-06-23	12:15:19	12:20:44	316672	60fef79fa408c9eae61e49c3	4	1	main_z	7	advance_on_keypress_ZEE	56	stimuli_distractor_trianglediamonds.svg	stimuli_distractor_trianglediamonds.svg	34	no	57	0	273	0	0			0	0			1				0	
6.6.1	mac	2023-06-23	12:15:19	12:20:46	318831	60fef79fa408c9eae61e49c3	4	1	main_z	7	main_z	57	stimuli_target_rectanglediamonds.svg	stimuli_distractor_diamondtriangles.svg	6	yes	44	1	1232	0	0			0	0			1				0	
6.6.1	mac	2023-06-23	12:15:19	12:20:46	318831	60fef79fa408c9eae61e49c3	4	1	main_z	7	advance_on_keypress_ZEE	58	stimuli_target_rectanglediamonds.svg	stimuli_distractor_diamondtriangles.svg	6	yes	57	0	439	0	0			0	0			1				0	
6.6.1	mac	2023-06-23	12:15:19	12:20:48	320801	60fef79fa408c9eae61e49c3	4	1	main_z	7	main_z	59	stimuli_distractor_trianglediamonds.svg	stimuli_target_rectangletriangles.svg	9	yes	44	1	898	0	0			0	0			1				0	
6.6.1	mac	2023-06-23	12:15:19	12:20:48	320801	60fef79fa408c9eae61e49c3	4	1	main_z	7	advance_on_keypress_ZEE	60	stimuli_distractor_trianglediamonds.svg	stimuli_target_rectangletriangles.svg	9	yes	57	0	310	0	0			0	0			1				0	
6.6.1	mac	2023-06-23	12:15:19	12:20:50	322566	60fef79fa408c9eae61e49c3	4	1	main_z	7	main_z	61	stimuli_distractor_trianglediamonds.svg	stimuli_target_rectanglediamonds.svg	10	yes	44	1	801	0	0			0	0			1				0	
6.6.1	mac	2023-06-23	12:15:19	12:20:50	322566	60fef79fa408c9eae61e49c3	4	1	main_z	7	advance_on_keypress_ZEE	62	stimuli_distractor_trianglediamonds.svg	stimuli_target_rectanglediamonds.svg	10	yes	57	0	1101	0	0			0	0			1				0	
6.6.1	mac	2023-06-23	12:15:19	12:20:53	326312	60fef79fa408c9eae61e49c3	4	1	main_z	7	main_z	63	stimuli_distractor_trianglediamonds.svg	stimuli_distractor_diamondtriangles.svg	36	no	0	1	2000	0	0			0	0			1				0	
6.6.1	mac	2023-06-23	12:15:19	12:20:53	326312	60fef79fa408c9eae61e49c3	4	1	main_z	7	advance_on_keypress_ZEE	64	stimuli_distractor_trianglediamonds.svg	stimuli_distractor_diamondtriangles.svg	36	no	57	0	431	0	0			0	0			1				0	
6.6.1	mac	2023-06-23	12:15:19	12:20:55	328378	60fef79fa408c9eae61e49c3	4	1	main_z	7	main_z	65	stimuli_distractor_trianglediamonds.svg	stimuli_target_squarediamonds.svg	12	yes	44	1	1003	0	0			0	0			1				0	
6.6.1	mac	2023-06-23	12:15:19	12:20:55	328378	60fef79fa408c9eae61e49c3	4	1	main_z	7	advance_on_keypress_ZEE	66	stimuli_distractor_trianglediamonds.svg	stimuli_target_squarediamonds.svg	12	yes	57	0	303	0	0			0	0			1				0	
6.6.1	mac	2023-06-23	12:15:19	12:20:58	331309	60fef79fa408c9eae61e49c3	4	1	main_z	7	main_z	67	stimuli_distractor_diamondtriangles.svg	stimuli_distractor_diamondtriangles.svg	40	no	0	1	2000	0	0			0	0			1				0	
6.6.1	mac	2023-06-23	12:15:19	12:20:58	331309	60fef79fa408c9eae61e49c3	4	1	main_z	7	advance_on_keypress_ZEE	68	stimuli_distractor_diamondtriangles.svg	stimuli_distractor_diamondtriangles.svg	40	no	57	0	392	0	0			0	0			1				0	
6.6.1	mac	2023-06-23	12:15:19	12:21:01	334333	60fef79fa408c9eae61e49c3	4	1	main_z	7	main_z	69	stimuli_distractor_diamondtriangles.svg	stimuli_distractor_trianglediamonds.svg	37	no	0	1	2000	0	0			0	0			1				0	
6.6.1	mac	2023-06-23	12:15:19	12:21:01	334333	60fef79fa408c9eae61e49c3	4	1	main_z	7	advance_on_keypress_ZEE	70	stimuli_distractor_diamondtriangles.svg	stimuli_distractor_trianglediamonds.svg	37	no	57	0	375	0	0			0	0			1				0	
6.6.1	mac	2023-06-23	12:15:19	12:21:03	336431	60fef79fa408c9eae61e49c3	4	1	main_z	7	main_z	71	stimuli_distractor_diamondtriangles.svg	stimuli_target_diamondsquares.svg	32	yes	44	1	1079	0	0			0	0			1				0	
6.6.1	mac	2023-06-23	12:15:19	12:21:03	336431	60fef79fa408c9eae61e49c3	4	1	main_z	7	advance_on_keypress_ZEE	72	stimuli_distractor_diamondtriangles.svg	stimuli_target_diamondsquares.svg	32	yes	57	0	785	0	0			0	0			1				0	
6.6.1	mac	2023-06-23	12:15:19	12:21:06	338948	60fef79fa408c9eae61e49c3	4	1	main_z	7	main_z	73	stimuli_target_rectangletriangles.svg	stimuli_distractor_diamondtriangles.svg	5	yes	44	1	1096	0	0			0	0			1				0	
6.6.1	mac	2023-06-23	12:15:19	12:21:06	338948	60fef79fa408c9eae61e49c3	4	1	main_z	7	advance_on_keypress_ZEE	74	stimuli_target_rectangletriangles.svg	stimuli_distractor_diamondtriangles.svg	5	yes	57	0	368	0	0			0	0			1				0	
6.6.1	mac	2023-06-23	12:15:19	12:21:08	340976	60fef79fa408c9eae61e49c3	4	1	main_z	7	main_z	75	stimuli_distractor_diamondtriangles.svg	stimuli_target_squaretriangles.svg	15	yes	44	1	1019	0	0			0	0			1				0	
6.6.1	mac	2023-06-23	12:15:19	12:21:08	340976	60fef79fa408c9eae61e49c3	4	1	main_z	7	advance_on_keypress_ZEE	76	stimuli_distractor_diamondtriangles.svg	stimuli_target_squaretriangles.svg	15	yes	57	0	371	0	0			0	0			1				0	
6.6.1	mac	2023-06-23	12:15:19	12:21:11	343976	60fef79fa408c9eae61e49c3	4	1	main_z	7	main_z	77	stimuli_distractor_diamondtriangles.svg	stimuli_distractor_diamondtriangles.svg	39	no	0	1	2000	0	0			0	0			1				0	
6.6.1	mac	2023-06-23	12:15:19	12:21:11	343976	60fef79fa408c9eae61e49c3	4	1	main_z	7	advance_on_keypress_ZEE	78	stimuli_distractor_diamondtriangles.svg	stimuli_distractor_diamondtriangles.svg	39	no	57	0	162	0	0			0	0			1				0	
6.6.1	mac	2023-06-23	12:15:19	12:21:13	345812	60fef79fa408c9eae61e49c3	4	1	main_z	7	main_z	79	stimuli_target_squaretriangles.svg	stimuli_distractor_diamondtriangles.svg	7	yes	44	1	1010	0	0			0	0			1				0	
6.6.1	mac	2023-06-23	12:15:19	12:21:13	345812	60fef79fa408c9eae61e49c3	4	1	main_z	7	advance_on_keypress_ZEE	80	stimuli_target_squaretriangles.svg	stimuli_distractor_diamondtriangles.svg	7	yes	57	0	361	0	0			0	0			1				0	
6.6.1	mac	2023-06-23	12:15:19	12:21:16	348805	60fef79fa408c9eae61e49c3	4	1	main_z	7	main_z	81	stimuli_distractor_trianglediamonds.svg	stimuli_target_trianglerectangles.svg	25	yes	0	0	2000	0	0			0	0			1				0	
6.6.1	mac	2023-06-23	12:15:19	12:21:16	348805	60fef79fa408c9eae61e49c3	4	1	main_z	7	advance_on_keypress_ZEE	82	stimuli_distractor_trianglediamonds.svg	stimuli_target_trianglerectangles.svg	25	yes	57	0	543	0	0			0	0			1				0	
6.6.1	mac	2023-06-23	12:15:19	12:21:18	350983	60fef79fa408c9eae61e49c3	4	1	main_z	7	main_z	83	stimuli_distractor_diamondtriangles.svg	stimuli_target_trianglesquares.svg	30	yes	44	1	989	0	0			0	0			1				0	
6.6.1	mac	2023-06-23	12:15:19	12:21:18	350983	60fef79fa408c9eae61e49c3	4	1	main_z	7	advance_on_keypress_ZEE	84	stimuli_distractor_diamondtriangles.svg	stimuli_target_trianglesquares.svg	30	yes	57	0	909	0	0			0	0			1				0	
6.6.1	mac	2023-06-23	12:15:19	12:21:21	354521	60fef79fa408c9eae61e49c3	4	1	main_z	7	main_z	85	stimuli_target_trianglerectangles.svg	stimuli_distractor_trianglediamonds.svg	17	yes	0	0	2000	0	0			0	0			1				0	
6.6.1	mac	2023-06-23	12:15:19	12:21:21	354521	60fef79fa408c9eae61e49c3	4	1	main_z	7	advance_on_keypress_ZEE	86	stimuli_target_trianglerectangles.svg	stimuli_distractor_trianglediamonds.svg	17	yes	57	0	375	0	0			0	0			1				0	
6.6.1	mac	2023-06-23	12:15:19	12:21:24	357512	60fef79fa408c9eae61e49c3	4	1	main_z	7	main_z	87	stimuli_distractor_diamondtriangles.svg	stimuli_distractor_trianglediamonds.svg	38	no	0	1	2000	0	0			0	0			1				0	
6.6.1	mac	2023-06-23	12:15:19	12:21:24	357512	60fef79fa408c9eae61e49c3	4	1	main_z	7	advance_on_keypress_ZEE	88	stimuli_distractor_diamondtriangles.svg	stimuli_distractor_trianglediamonds.svg	38	no	57	0	417	0	0			0	0			1				0	
6.6.1	mac	2023-06-23	12:15:19	12:21:28	360554	60fef79fa408c9eae61e49c3	4	1	main_z	7	main_z	89	stimuli_target_diamondrectangles.svg	stimuli_distractor_diamondtriangles.svg	23	yes	0	0	2000	0	0			0	0			1				0	
6.6.1	mac	2023-06-23	12:15:19	12:21:28	360554	60fef79fa408c9eae61e49c3	4	1	main_z	7	advance_on_keypress_ZEE	90	stimuli_target_diamondrectangles.svg	stimuli_distractor_diamondtriangles.svg	23	yes	57	0	1393	0	0			0	0			1				0	
6.6.1	mac	2023-06-23	12:15:19	12:21:30	363229	60fef79fa408c9eae61e49c3	4	1	main_z	7	main_z	91	stimuli_target_trianglerectangles.svg	stimuli_distractor_diamondtriangles.svg	21	yes	44	1	657	0	0			0	0			1				0	
6.6.1	mac	2023-06-23	12:15:19	12:21:30	363229	60fef79fa408c9eae61e49c3	4	1	main_z	7	advance_on_keypress_ZEE	92	stimuli_target_trianglerectangles.svg	stimuli_distractor_diamondtriangles.svg	21	yes	57	0	814	0	0			0	0			1				0	
6.6.1	mac	2023-06-23	12:15:19	12:21:34	366609	60fef79fa408c9eae61e49c3	4	1	main_z	7	main_z	93	stimuli_distractor_diamondtriangles.svg	stimuli_target_squarediamonds.svg	16	yes	44	1	1891	0	0			0	0			1				0	
6.6.1	mac	2023-06-23	12:15:19	12:21:34	366609	60fef79fa408c9eae61e49c3	4	1	main_z	7	advance_on_keypress_ZEE	94	stimuli_distractor_diamondtriangles.svg	stimuli_target_squarediamonds.svg	16	yes	57	0	454	0	0			0	0			1				0	
6.6.1	mac	2023-06-23	12:15:19	12:21:36	368850	60fef79fa408c9eae61e49c3	4	1	main_z	7	main_z	95	stimuli_distractor_trianglediamonds.svg	stimuli_target_squaretriangles.svg	11	yes	44	1	1110	0	0			0	0			1				0	
6.6.1	mac	2023-06-23	12:15:19	12:21:36	368850	60fef79fa408c9eae61e49c3	4	1	main_z	7	advance_on_keypress_ZEE	96	stimuli_distractor_trianglediamonds.svg	stimuli_target_squaretriangles.svg	11	yes	57	0	338	0	0			0	0			1				0	
6.6.1	mac	2023-06-23	12:15:19	12:21:39	371817	60fef79fa408c9eae61e49c3	4	1	main_z	7	main_z	97	stimuli_target_trianglesquares.svg	stimuli_distractor_diamondtriangles.svg	22	yes	0	0	2000	0	0			0	0			1				0	
6.6.1	mac	2023-06-23	12:15:19	12:21:39	371817	60fef79fa408c9eae61e49c3	4	1	main_z	7	advance_on_keypress_ZEE	98	stimuli_target_trianglesquares.svg	stimuli_distractor_diamondtriangles.svg	22	yes	57	0	422	0	0			0	0			1				0	
6.6.1	mac	2023-06-23	12:15:19	12:21:42	374875	60fef79fa408c9eae61e49c3	4	1	main_z	7	main_z	99	stimuli_distractor_diamondtriangles.svg	stimuli_distractor_trianglediamonds.svg	37	no	0	1	2000	0	0			0	0			1				0	
6.6.1	mac	2023-06-23	12:15:19	12:21:42	374875	60fef79fa408c9eae61e49c3	4	1	main_z	7	advance_on_keypress_ZEE	100	stimuli_distractor_diamondtriangles.svg	stimuli_distractor_trianglediamonds.svg	37	no	57	0	700	0	0			0	0			1				0	
6.6.1	mac	2023-06-23	12:15:19	12:21:45	378218	60fef79fa408c9eae61e49c3	4	1	main_z	7	main_z	101	stimuli_target_diamondrectangles.svg	stimuli_distractor_trianglediamonds.svg	19	yes	0	0	2000	0	0			0	0			1				0	
6.6.1	mac	2023-06-23	12:15:19	12:21:45	378218	60fef79fa408c9eae61e49c3	4	1	main_z	7	advance_on_keypress_ZEE	102	stimuli_target_diamondrectangles.svg	stimuli_distractor_trianglediamonds.svg	19	yes	57	0	282	0	0			0	0			1				0	
6.6.1	mac	2023-06-23	12:15:19	12:21:48	381125	60fef79fa408c9eae61e49c3	4	1	main_z	7	main_z	103	stimuli_distractor_diamondtriangles.svg	stimuli_distractor_diamondtriangles.svg	40	no	0	1	2000	0	0			0	0			1				0	
6.6.1	mac	2023-06-23	12:15:19	12:21:48	381125	60fef79fa408c9eae61e49c3	4	1	main_z	7	advance_on_keypress_ZEE	104	stimuli_distractor_diamondtriangles.svg	stimuli_distractor_diamondtriangles.svg	40	no	57	0	189	0	0			0	0			1				0	
6.6.1	mac	2023-06-23	12:15:19	12:21:50	383149	60fef79fa408c9eae61e49c3	4	1	main_z	7	main_z	105	stimuli_target_trianglesquares.svg	stimuli_distractor_trianglediamonds.svg	18	yes	44	1	1194	0	0			0	0			1				0	
6.6.1	mac	2023-06-23	12:15:19	12:21:50	383149	60fef79fa408c9eae61e49c3	4	1	main_z	7	advance_on_keypress_ZEE	106	stimuli_target_trianglesquares.svg	stimuli_distractor_trianglediamonds.svg	18	yes	57	0	1448	0	0			0	0			1				0	
6.6.1	mac	2023-06-23	12:15:19	12:21:53	386433	60fef79fa408c9eae61e49c3	4	1	main_z	7	main_z	107	stimuli_distractor_trianglediamonds.svg	stimuli_target_squarediamonds.svg	12	yes	44	1	1203	0	0			0	0			1				0	
6.6.1	mac	2023-06-23	12:15:19	12:21:53	386433	60fef79fa408c9eae61e49c3	4	1	main_z	7	advance_on_keypress_ZEE	108	stimuli_distractor_trianglediamonds.svg	stimuli_target_squarediamonds.svg	12	yes	57	0	433	0	0			0	0			1				0	
6.6.1	mac	2023-06-23	12:15:19	12:21:56	389497	60fef79fa408c9eae61e49c3	4	1	main_z	7	main_z	109	stimuli_distractor_diamondtriangles.svg	stimuli_target_trianglerectangles.svg	29	yes	0	0	2000	0	0			0	0			1				0	
6.6.1	mac	2023-06-23	12:15:19	12:21:56	389497	60fef79fa408c9eae61e49c3	4	1	main_z	7	advance_on_keypress_ZEE	110	stimuli_distractor_diamondtriangles.svg	stimuli_target_trianglerectangles.svg	29	yes	57	0	536	0	0			0	0			1				0	
6.6.1	mac	2023-06-23	12:15:19	12:21:59	392000	60fef79fa408c9eae61e49c3	4	1	main_z	7	main_z	111	stimuli_target_rectanglediamonds.svg	stimuli_distractor_trianglediamonds.svg	2	yes	44	1	1340	0	0			0	0			1				0	
6.6.1	mac	2023-06-23	12:15:19	12:21:59	392000	60fef79fa408c9eae61e49c3	4	1	main_z	7	advance_on_keypress_ZEE	112	stimuli_target_rectanglediamonds.svg	stimuli_distractor_trianglediamonds.svg	2	yes	57	0	903	0	0			0	0			1				0	
6.6.1	mac	2023-06-23	12:15:19	12:22:03	395547	60fef79fa408c9eae61e49c3	4	1	main_z	7	main_z	113	stimuli_distractor_diamondtriangles.svg	stimuli_target_rectangletriangles.svg	13	yes	0	0	2000	0	0			0	0			1				0	
6.6.1	mac	2023-06-23	12:15:19	12:22:03	395547	60fef79fa408c9eae61e49c3	4	1	main_z	7	advance_on_keypress_ZEE	114	stimuli_distractor_diamondtriangles.svg	stimuli_target_rectangletriangles.svg	13	yes	57	0	3464	0	0			0	0			1				0	
6.6.1	mac	2023-06-23	12:15:19	12:22:08	400806	60fef79fa408c9eae61e49c3	4	1	main_z	7	main_z	115	stimuli_target_squaretriangles.svg	stimuli_distractor_trianglediamonds.svg	3	yes	44	1	1153	0	0			0	0			1				0	
6.6.1	mac	2023-06-23	12:15:19	12:22:08	400806	60fef79fa408c9eae61e49c3	4	1	main_z	7	advance_on_keypress_ZEE	116	stimuli_target_squaretriangles.svg	stimuli_distractor_trianglediamonds.svg	3	yes	57	0	402	0	0			0	0			1				0	
6.6.1	mac	2023-06-23	12:15:19	12:22:10	402823	60fef79fa408c9eae61e49c3	4	1	main_z	7	main_z	117	stimuli_target_squarediamonds.svg	stimuli_distractor_diamondtriangles.svg	8	yes	44	1	980	0	0			0	0			1				0	
6.6.1	mac	2023-06-23	12:15:19	12:22:10	402823	60fef79fa408c9eae61e49c3	4	1	main_z	7	advance_on_keypress_ZEE	118	stimuli_target_squarediamonds.svg	stimuli_distractor_diamondtriangles.svg	8	yes	57	0	485	0	0			0	0			1				0	
6.6.1	mac	2023-06-23	12:15:19	12:22:12	404970	60fef79fa408c9eae61e49c3	4	1	main_z	7	main_z	119	stimuli_distractor_trianglediamonds.svg	stimuli_target_rectangletriangles.svg	9	yes	44	1	1025	0	0			0	0			1				0	
6.6.1	mac	2023-06-23	12:15:19	12:22:12	404970	60fef79fa408c9eae61e49c3	4	1	main_z	7	advance_on_keypress_ZEE	120	stimuli_distractor_trianglediamonds.svg	stimuli_target_rectangletriangles.svg	9	yes	57	0	378	0	0			0	0			1				0	
6.6.1	mac	2023-06-23	12:15:19	12:22:14	407169	60fef79fa408c9eae61e49c3	4	1	main_z	7	main_z	121	stimuli_distractor_trianglediamonds.svg	stimuli_target_trianglesquares.svg	26	yes	44	1	1185	0	0			0	0			1				0	
6.6.1	mac	2023-06-23	12:15:19	12:22:14	407169	60fef79fa408c9eae61e49c3	4	1	main_z	7	advance_on_keypress_ZEE	122	stimuli_distractor_trianglediamonds.svg	stimuli_target_trianglesquares.svg	26	yes	57	0	472	0	0			0	0			1				0	
6.6.1	mac	2023-06-23	12:15:19	12:22:16	409424	60fef79fa408c9eae61e49c3	4	1	main_z	7	main_z	123	stimuli_target_diamondsquares.svg	stimuli_distractor_diamondtriangles.svg	24	yes	44	1	1151	0	0			0	0			1				0	
6.6.1	mac	2023-06-23	12:15:19	12:22:16	409424	60fef79fa408c9eae61e49c3	4	1	main_z	7	advance_on_keypress_ZEE	124	stimuli_target_diamondsquares.svg	stimuli_distractor_diamondtriangles.svg	24	yes	57	0	408	0	0			0	0			1				0	
6.6.1	mac	2023-06-23	12:15:19	12:22:19	412459	60fef79fa408c9eae61e49c3	4	1	main_z	7	main_z	125	stimuli_distractor_trianglediamonds.svg	stimuli_distractor_diamondtriangles.svg	35	no	0	1	2000	0	0			0	0			1				0	
6.6.1	mac	2023-06-23	12:15:19	12:22:19	412459	60fef79fa408c9eae61e49c3	4	1	main_z	7	advance_on_keypress_ZEE	126	stimuli_distractor_trianglediamonds.svg	stimuli_distractor_diamondtriangles.svg	35	no	57	0	486	0	0			0	0			1				0	
6.6.1	mac	2023-06-23	12:15:19	12:22:22	414765	60fef79fa408c9eae61e49c3	4	1	main_z	7	main_z	127	stimuli_target_rectanglediamonds.svg	stimuli_distractor_diamondtriangles.svg	6	yes	44	1	1192	0	0			0	0			1				0	
6.6.1	mac	2023-06-23	12:15:19	12:22:22	414765	60fef79fa408c9eae61e49c3	4	1	main_z	7	advance_on_keypress_ZEE	128	stimuli_target_rectanglediamonds.svg	stimuli_distractor_diamondtriangles.svg	6	yes	57	0	451	0	0			0	0			1				0	
6.6.1	mac	2023-06-23	12:15:19	12:22:24	416967	60fef79fa408c9eae61e49c3	4	1	main_z	7	main_z	129	stimuli_distractor_trianglediamonds.svg	stimuli_target_rectanglediamonds.svg	10	yes	44	1	1123	0	0			0	0			1				0	
6.6.1	mac	2023-06-23	12:15:19	12:22:24	416967	60fef79fa408c9eae61e49c3	4	1	main_z	7	advance_on_keypress_ZEE	130	stimuli_distractor_trianglediamonds.svg	stimuli_target_rectanglediamonds.svg	10	yes	57	0	577	0	0			0	0			1				0	
6.6.1	mac	2023-06-23	12:15:19	12:22:26	419192	60fef79fa408c9eae61e49c3	4	1	main_z	7	main_z	131	stimuli_target_rectangletriangles.svg	stimuli_distractor_diamondtriangles.svg	5	yes	44	1	1010	0	0			0	0			1				0	
6.6.1	mac	2023-06-23	12:15:19	12:22:26	419192	60fef79fa408c9eae61e49c3	4	1	main_z	7	advance_on_keypress_ZEE	132	stimuli_target_rectangletriangles.svg	stimuli_distractor_diamondtriangles.svg	5	yes	57	0	523	0	0			0	0			1				0	
6.6.1	mac	2023-06-23	12:15:19	12:22:28	420646	60fef79fa408c9eae61e49c3	4	1	main_z	7	main_z	133	stimuli_target_squarediamonds.svg	stimuli_distractor_trianglediamonds.svg	4	yes	44	1	308	0	0			0	0			1				0	
6.6.1	mac	2023-06-23	12:15:19	12:22:28	420646	60fef79fa408c9eae61e49c3	4	1	main_z	7	advance_on_keypress_ZEE	134	stimuli_target_squarediamonds.svg	stimuli_distractor_trianglediamonds.svg	4	yes	57	0	854	0	0			0	0			1				0	
6.6.1	mac	2023-06-23	12:15:19	12:22:29	422428	60fef79fa408c9eae61e49c3	4	1	main_z	7	main_z	135	stimuli_distractor_trianglediamonds.svg	stimuli_target_diamondsquares.svg	28	yes	44	1	301	0	0			0	0			1				0	
6.6.1	mac	2023-06-23	12:15:19	12:22:29	422428	60fef79fa408c9eae61e49c3	4	1	main_z	7	advance_on_keypress_ZEE	136	stimuli_distractor_trianglediamonds.svg	stimuli_target_diamondsquares.svg	28	yes	57	0	560	0	0			0	0			1				0	
6.6.1	mac	2023-06-23	12:15:19	12:22:31	423759	60fef79fa408c9eae61e49c3	4	1	main_z	7	main_z	137	stimuli_target_diamondsquares.svg	stimuli_distractor_trianglediamonds.svg	20	yes	44	1	127	0	0			0	0			1				0	
6.6.1	mac	2023-06-23	12:15:19	12:22:31	423759	60fef79fa408c9eae61e49c3	4	1	main_z	7	advance_on_keypress_ZEE	138	stimuli_target_diamondsquares.svg	stimuli_distractor_trianglediamonds.svg	20	yes	57	0	644	0	0			0	0			1				0	
6.6.1	mac	2023-06-23	12:15:19	12:22:32	425302	60fef79fa408c9eae61e49c3	4	1	main_z	7	main_z	139	stimuli_distractor_trianglediamonds.svg	stimuli_target_diamondrectangles.svg	27	yes	44	1	233	0	0			0	0			1				0	
6.6.1	mac	2023-06-23	12:15:19	12:22:32	425302	60fef79fa408c9eae61e49c3	4	1	main_z	7	advance_on_keypress_ZEE	140	stimuli_distractor_trianglediamonds.svg	stimuli_target_diamondrectangles.svg	27	yes	57	0	626	0	0			0	0			1				0	
6.6.1	mac	2023-06-23	12:15:19	12:22:34	426805	60fef79fa408c9eae61e49c3	4	1	main_z	7	main_z	141	stimuli_distractor_diamondtriangles.svg	stimuli_target_diamondsquares.svg	32	yes	44	1	223	0	0			0	0			1				0	
6.6.1	mac	2023-06-23	12:15:19	12:22:34	426805	60fef79fa408c9eae61e49c3	4	1	main_z	7	advance_on_keypress_ZEE	142	stimuli_distractor_diamondtriangles.svg	stimuli_target_diamondsquares.svg	32	yes	57	0	663	0	0			0	0			1				0	
6.6.1	mac	2023-06-23	12:15:19	12:22:35	428313	60fef79fa408c9eae61e49c3	4	1	main_z	7	main_z	143	stimuli_target_squaretriangles.svg	stimuli_distractor_diamondtriangles.svg	7	yes	44	1	187	0	0			0	0			1				0	
6.6.1	mac	2023-06-23	12:15:19	12:22:35	428313	60fef79fa408c9eae61e49c3	4	1	main_z	7	advance_on_keypress_ZEE	144	stimuli_target_squaretriangles.svg	stimuli_distractor_diamondtriangles.svg	7	yes	57	0	553	0	0			0	0			1				0	
6.6.1	mac	2023-06-23	12:15:19	12:22:38	431072	60fef79fa408c9eae61e49c3	4	1	main_z	7	main_z	145	stimuli_distractor_diamondtriangles.svg	stimuli_target_squaretriangles.svg	15	yes	44	1	1558	0	0			0	0			1				0	
6.6.1	mac	2023-06-23	12:15:19	12:22:38	431072	60fef79fa408c9eae61e49c3	4	1	main_z	7	advance_on_keypress_ZEE	146	stimuli_distractor_diamondtriangles.svg	stimuli_target_squaretriangles.svg	15	yes	57	0	487	0	0			0	0			1				0	
6.6.1	mac	2023-06-23	12:15:19	12:22:41	434200	60fef79fa408c9eae61e49c3	4	1	main_z	7	main_z	147	stimuli_distractor_trianglediamonds.svg	stimuli_distractor_trianglediamonds.svg	33	no	0	1	2000	0	0			0	0			1				0	
6.6.1	mac	2023-06-23	12:15:19	12:22:41	434200	60fef79fa408c9eae61e49c3	4	1	main_z	7	advance_on_keypress_ZEE	148	stimuli_distractor_trianglediamonds.svg	stimuli_distractor_trianglediamonds.svg	33	no	57	0	588	0	0			0	0			1				0	
6.6.1	mac	2023-06-23	12:15:19	12:22:43	435898	60fef79fa408c9eae61e49c3	4	1	main_z	7	main_z	149	stimuli_distractor_trianglediamonds.svg	stimuli_distractor_trianglediamonds.svg	34	no	44	0	461	0	0			0	0			1				0	
6.6.1	mac	2023-06-23	12:15:19	12:22:43	435898	60fef79fa408c9eae61e49c3	4	1	main_z	7	advance_on_keypress_ZEE	150	stimuli_distractor_trianglediamonds.svg	stimuli_distractor_trianglediamonds.svg	34	no	57	0	517	0	0			0	0			1				0	
6.6.1	mac	2023-06-23	12:15:19	12:22:44	437064	60fef79fa408c9eae61e49c3	4	1	main_z	7	main_z	151	stimuli_target_rectangletriangles.svg	stimuli_distractor_trianglediamonds.svg	1	yes	44	1	14	0	0			0	0			1				0	
6.6.1	mac	2023-06-23	12:15:19	12:22:44	437064	60fef79fa408c9eae61e49c3	4	1	main_z	7	advance_on_keypress_ZEE	152	stimuli_target_rectangletriangles.svg	stimuli_distractor_trianglediamonds.svg	1	yes	57	0	507	0	0			0	0			1				0	
6.6.1	mac	2023-06-23	12:15:19	12:22:45	438405	60fef79fa408c9eae61e49c3	4	1	main_z	7	main_z	153	stimuli_distractor_diamondtriangles.svg	stimuli_target_rectanglediamonds.svg	14	yes	44	1	202	0	0			0	0			1				0	
6.6.1	mac	2023-06-23	12:15:19	12:22:45	438405	60fef79fa408c9eae61e49c3	4	1	main_z	7	advance_on_keypress_ZEE	154	stimuli_distractor_diamondtriangles.svg	stimuli_target_rectanglediamonds.svg	14	yes	57	0	85	0	0			0	0			1				0	
6.6.1	mac	2023-06-23	12:15:19	12:22:46	439124	60fef79fa408c9eae61e49c3	4	1	main_z	7	main_z	155	stimuli_distractor_diamondtriangles.svg	stimuli_distractor_diamondtriangles.svg	39	no	44	0	0	0	0			0	0			1				0	
6.6.1	mac	2023-06-23	12:15:19	12:22:46	439124	60fef79fa408c9eae61e49c3	4	1	main_z	7	advance_on_keypress_ZEE	156	stimuli_distractor_diamondtriangles.svg	stimuli_distractor_diamondtriangles.svg	39	no	57	0	320	0	0			0	0			1				0	
6.6.1	mac	2023-06-23	12:15:19	12:22:47	440358	60fef79fa408c9eae61e49c3	4	1	main_z	7	main_z	157	stimuli_distractor_trianglediamonds.svg	stimuli_distractor_diamondtriangles.svg	36	no	44	0	268	0	0			0	0			1				0	
6.6.1	mac	2023-06-23	12:15:19	12:22:47	440358	60fef79fa408c9eae61e49c3	4	1	main_z	7	advance_on_keypress_ZEE	158	stimuli_distractor_trianglediamonds.svg	stimuli_distractor_diamondtriangles.svg	36	no	57	0	421	0	0			0	0			1				0	
6.6.1	mac	2023-06-23	12:15:19	12:22:49	442046	60fef79fa408c9eae61e49c3	4	1	main_z	7	main_z	159	stimuli_distractor_diamondtriangles.svg	stimuli_target_diamondrectangles.svg	31	yes	44	1	635	0	0			0	0			1				0	
6.6.1	mac	2023-06-23	12:15:19	12:22:49	442046	60fef79fa408c9eae61e49c3	4	1	main_z	7	advance_on_keypress_ZEE	160	stimuli_distractor_diamondtriangles.svg	stimuli_target_diamondrectangles.svg	31	yes	57	0	528	0	0			0	0			1				0	
6.6.1	mac	2023-06-23	12:15:19	12:23:25	478376	60fef79fa408c9eae61e49c3	4	1	practice_slash	9	practice_slash	1	stimuli_target_rectanglediamonds.svg	stimuli_distractor_trianglediamonds.svg	4	yes	53	1	967	0	0			0	0			1				0	
6.6.1	mac	2023-06-23	12:15:19	12:23:25	478376	60fef79fa408c9eae61e49c3	4	1	practice_slash	9	advance_on_keypress_SLASH	2	stimuli_target_rectanglediamonds.svg	stimuli_distractor_trianglediamonds.svg	4	yes	57	0	417	0	0			0	0			1				0	
6.6.1	mac	2023-06-23	12:15:19	12:23:28	480971	60fef79fa408c9eae61e49c3	4	1	practice_slash	9	practice_slash	3	stimuli_target_squarediamonds.svg	stimuli_distractor_diamondtriangles.svg	2	yes	53	1	522	0	0			0	0			1				0	
6.6.1	mac	2023-06-23	12:15:19	12:23:28	480971	60fef79fa408c9eae61e49c3	4	1	practice_slash	9	advance_on_keypress_SLASH	4	stimuli_target_squarediamonds.svg	stimuli_distractor_diamondtriangles.svg	2	yes	57	0	591	0	0			0	0			1				0	
6.6.1	mac	2023-06-23	12:15:19	12:23:31	483549	60fef79fa408c9eae61e49c3	4	1	practice_slash	9	practice_slash	5	stimuli_distractor_trianglediamonds.svg	stimuli_target_diamondrectangles.svg	12	yes	53	1	346	0	0			0	0			1				0	
6.6.1	mac	2023-06-23	12:15:19	12:23:31	483549	60fef79fa408c9eae61e49c3	4	1	practice_slash	9	advance_on_keypress_SLASH	6	stimuli_distractor_trianglediamonds.svg	stimuli_target_diamondrectangles.svg	12	yes	57	0	951	0	0			0	0			1				0	
6.6.1	mac	2023-06-23	12:15:19	12:23:33	486414	60fef79fa408c9eae61e49c3	4	1	practice_slash	9	practice_slash	7	stimuli_distractor_diamondtriangles.svg	stimuli_target_diamondrectangles.svg	8	yes	53	1	285	0	0			0	0			1				0	
6.6.1	mac	2023-06-23	12:15:19	12:23:33	486414	60fef79fa408c9eae61e49c3	4	1	practice_slash	9	advance_on_keypress_SLASH	8	stimuli_distractor_diamondtriangles.svg	stimuli_target_diamondrectangles.svg	8	yes	57	0	681	0	0			0	0			1				0	
6.6.1	mac	2023-06-23	12:15:19	12:23:36	489141	60fef79fa408c9eae61e49c3	4	1	practice_slash	9	practice_slash	9	stimuli_distractor_trianglediamonds.svg	stimuli_distractor_trianglediamonds.svg	15	no	53	0	405	0	0			0	0			1				0	
6.6.1	mac	2023-06-23	12:15:19	12:23:36	489141	60fef79fa408c9eae61e49c3	4	1	practice_slash	9	advance_on_keypress_SLASH	10	stimuli_distractor_trianglediamonds.svg	stimuli_distractor_trianglediamonds.svg	15	no	57	0	555	0	0			0	0			1				0	
6.6.1	mac	2023-06-23	12:15:19	12:23:39	491690	60fef79fa408c9eae61e49c3	4	1	practice_slash	9	practice_slash	11	stimuli_distractor_diamondtriangles.svg	stimuli_target_rectangletriangles.svg	7	yes	53	1	363	0	0			0	0			1				0	
6.6.1	mac	2023-06-23	12:15:19	12:23:39	491690	60fef79fa408c9eae61e49c3	4	1	practice_slash	9	advance_on_keypress_SLASH	12	stimuli_distractor_diamondtriangles.svg	stimuli_target_rectangletriangles.svg	7	yes	57	0	413	0	0			0	0			1				0	
6.6.1	mac	2023-06-23	12:15:19	12:23:42	494663	60fef79fa408c9eae61e49c3	4	1	practice_slash	9	practice_slash	13	stimuli_target_diamondsquares.svg	stimuli_distractor_diamondtriangles.svg	3	yes	53	1	929	0	0			0	0			1				0	
6.6.1	mac	2023-06-23	12:15:19	12:23:42	494663	60fef79fa408c9eae61e49c3	4	1	practice_slash	9	advance_on_keypress_SLASH	14	stimuli_target_diamondsquares.svg	stimuli_distractor_diamondtriangles.svg	3	yes	57	0	396	0	0			0	0			1				0	
6.6.1	mac	2023-06-23	12:15:19	12:23:46	498687	60fef79fa408c9eae61e49c3	4	1	practice_slash	9	practice_slash	15	stimuli_distractor_diamondtriangles.svg	stimuli_distractor_diamondtriangles.svg	13	no	0	1	2000	0	0			0	0			1				0	
6.6.1	mac	2023-06-23	12:15:19	12:23:46	498687	60fef79fa408c9eae61e49c3	4	1	practice_slash	9	advance_on_keypress_SLASH	16	stimuli_distractor_diamondtriangles.svg	stimuli_distractor_diamondtriangles.svg	13	no	57	0	887	0	0			0	0			1				0	
6.6.1	mac	2023-06-23	12:15:19	12:23:49	501817	60fef79fa408c9eae61e49c3	4	1	practice_slash	9	practice_slash	17	stimuli_target_rectanglediamonds.svg	stimuli_distractor_diamondtriangles.svg	1	yes	53	1	613	0	0			0	0			1				0	
6.6.1	mac	2023-06-23	12:15:19	12:23:49	501817	60fef79fa408c9eae61e49c3	4	1	practice_slash	9	advance_on_keypress_SLASH	18	stimuli_target_rectanglediamonds.svg	stimuli_distractor_diamondtriangles.svg	1	yes	57	0	459	0	0			0	0			1				0	
6.6.1	mac	2023-06-23	12:15:19	12:23:53	505907	60fef79fa408c9eae61e49c3	4	1	practice_slash	9	practice_slash	19	stimuli_distractor_diamondtriangles.svg	stimuli_distractor_trianglediamonds.svg	14	no	0	1	2000	0	0			0	0			1				0	
6.6.1	mac	2023-06-23	12:15:19	12:23:53	505907	60fef79fa408c9eae61e49c3	4	1	practice_slash	9	advance_on_keypress_SLASH	20	stimuli_distractor_diamondtriangles.svg	stimuli_distractor_trianglediamonds.svg	14	no	57	0	435	0	0			0	0			1				0	
6.6.1	mac	2023-06-23	12:15:19	12:23:57	509642	60fef79fa408c9eae61e49c3	4	1	practice_slash	9	practice_slash	21	stimuli_target_squarediamonds.svg	stimuli_distractor_trianglediamonds.svg	5	yes	53	1	1672	0	0			0	0			1				0	
6.6.1	mac	2023-06-23	12:15:19	12:23:57	509642	60fef79fa408c9eae61e49c3	4	1	practice_slash	9	advance_on_keypress_SLASH	22	stimuli_target_squarediamonds.svg	stimuli_distractor_trianglediamonds.svg	5	yes	57	0	701	0	0			0	0			1				0	
6.6.1	mac	2023-06-23	12:15:19	12:24:00	513161	60fef79fa408c9eae61e49c3	4	1	practice_slash	9	practice_slash	23	stimuli_target_diamondsquares.svg	stimuli_distractor_trianglediamonds.svg	6	yes	53	1	1176	0	0			0	0			1				0	
6.6.1	mac	2023-06-23	12:15:19	12:24:00	513161	60fef79fa408c9eae61e49c3	4	1	practice_slash	9	advance_on_keypress_SLASH	24	stimuli_target_diamondsquares.svg	stimuli_distractor_trianglediamonds.svg	6	yes	57	0	501	0	0			0	0			1				0	
6.6.1	mac	2023-06-23	12:15:19	12:24:04	517303	60fef79fa408c9eae61e49c3	4	1	practice_slash	9	practice_slash	25	stimuli_distractor_trianglediamonds.svg	stimuli_target_squarediamonds.svg	11	yes	0	0	2000	0	0			0	0			1				0	
6.6.1	mac	2023-06-23	12:15:19	12:24:04	517303	60fef79fa408c9eae61e49c3	4	1	practice_slash	9	advance_on_keypress_SLASH	26	stimuli_distractor_trianglediamonds.svg	stimuli_target_squarediamonds.svg	11	yes	57	0	500	0	0			0	0			1				0	
6.6.1	mac	2023-06-23	12:15:19	12:24:07	520257	60fef79fa408c9eae61e49c3	4	1	practice_slash	9	practice_slash	27	stimuli_distractor_diamondtriangles.svg	stimuli_target_trianglerectangles.svg	9	yes	53	1	805	0	0			0	0			1				0	
6.6.1	mac	2023-06-23	12:15:19	12:24:07	520257	60fef79fa408c9eae61e49c3	4	1	practice_slash	9	advance_on_keypress_SLASH	28	stimuli_distractor_diamondtriangles.svg	stimuli_target_trianglerectangles.svg	9	yes	57	0	439	0	0			0	0			1				0	
6.6.1	mac	2023-06-23	12:15:19	12:24:11	524340	60fef79fa408c9eae61e49c3	4	1	practice_slash	9	practice_slash	29	stimuli_distractor_trianglediamonds.svg	stimuli_target_rectanglediamonds.svg	10	yes	0	0	2000	0	0			0	0			1				0	
6.6.1	mac	2023-06-23	12:15:19	12:24:11	524340	60fef79fa408c9eae61e49c3	4	1	practice_slash	9	advance_on_keypress_SLASH	30	stimuli_distractor_trianglediamonds.svg	stimuli_target_rectanglediamonds.svg	10	yes	57	0	587	0	0			0	0			1				0	
6.6.1	mac	2023-06-23	12:15:19	12:24:16	528568	60fef79fa408c9eae61e49c3	4	1	practice_slash	9	practice_slash	31	stimuli_distractor_trianglediamonds.svg	stimuli_distractor_diamondtriangles.svg	16	no	0	1	2000	0	0			0	0			1				0	
6.6.1	mac	2023-06-23	12:15:19	12:24:16	528568	60fef79fa408c9eae61e49c3	4	1	practice_slash	9	advance_on_keypress_SLASH	32	stimuli_distractor_trianglediamonds.svg	stimuli_distractor_diamondtriangles.svg	16	no	57	0	692	0	0			0	0			1				0	
6.6.1	mac	2023-06-23	12:15:19	12:24:22	535479	60fef79fa408c9eae61e49c3	4	1	main_slash	11	main_slash	1	stimuli_distractor_diamondtriangles.svg	stimuli_distractor_diamondtriangles.svg	39	no	53	0	902	0	0			0	0			1				0	
6.6.1	mac	2023-06-23	12:15:19	12:24:22	535479	60fef79fa408c9eae61e49c3	4	1	main_slash	11	advance_on_keypress_SLASH	2	stimuli_distractor_diamondtriangles.svg	stimuli_distractor_diamondtriangles.svg	39	no	57	0	985	0	0			0	0			1				0	
6.6.1	mac	2023-06-23	12:15:19	12:24:24	537525	60fef79fa408c9eae61e49c3	4	1	main_slash	11	main_slash	3	stimuli_target_diamondsquares.svg	stimuli_distractor_trianglediamonds.svg	20	yes	53	1	425	0	0			0	0			1				0	
6.6.1	mac	2023-06-23	12:15:19	12:24:24	537525	60fef79fa408c9eae61e49c3	4	1	main_slash	11	advance_on_keypress_SLASH	4	stimuli_target_diamondsquares.svg	stimuli_distractor_trianglediamonds.svg	20	yes	57	0	458	0	0			0	0			1				0	
6.6.1	mac	2023-06-23	12:15:19	12:24:26	539030	60fef79fa408c9eae61e49c3	4	1	main_slash	11	main_slash	5	stimuli_distractor_trianglediamonds.svg	stimuli_target_squaretriangles.svg	11	yes	53	1	408	0	0			0	0			1				0	
6.6.1	mac	2023-06-23	12:15:19	12:24:26	539030	60fef79fa408c9eae61e49c3	4	1	main_slash	11	advance_on_keypress_SLASH	6	stimuli_distractor_trianglediamonds.svg	stimuli_target_squaretriangles.svg	11	yes	57	0	483	0	0			0	0			1				0	
6.6.1	mac	2023-06-23	12:15:19	12:24:29	542138	60fef79fa408c9eae61e49c3	4	1	main_slash	11	main_slash	7	stimuli_distractor_trianglediamonds.svg	stimuli_target_diamondsquares.svg	28	yes	0	0	2000	0	0			0	0			1				0	
6.6.1	mac	2023-06-23	12:15:19	12:24:29	542138	60fef79fa408c9eae61e49c3	4	1	main_slash	11	advance_on_keypress_SLASH	8	stimuli_distractor_trianglediamonds.svg	stimuli_target_diamondsquares.svg	28	yes	57	0	319	0	0			0	0			1				0	
6.6.1	mac	2023-06-23	12:15:19	12:24:31	544050	60fef79fa408c9eae61e49c3	4	1	main_slash	11	main_slash	9	stimuli_distractor_diamondtriangles.svg	stimuli_target_squaretriangles.svg	15	yes	53	1	966	0	0			0	0			1				0	
6.6.1	mac	2023-06-23	12:15:19	12:24:31	544050	60fef79fa408c9eae61e49c3	4	1	main_slash	11	advance_on_keypress_SLASH	10	stimuli_distractor_diamondtriangles.svg	stimuli_target_squaretriangles.svg	15	yes	57	0	456	0	0			0	0			1				0	
6.6.1	mac	2023-06-23	12:15:19	12:24:32	545367	60fef79fa408c9eae61e49c3	4	1	main_slash	11	main_slash	11	stimuli_distractor_diamondtriangles.svg	stimuli_distractor_diamondtriangles.svg	40	no	53	0	193	0	0			0	0			1				0	
6.6.1	mac	2023-06-23	12:15:19	12:24:32	545367	60fef79fa408c9eae61e49c3	4	1	main_slash	11	advance_on_keypress_SLASH	12	stimuli_distractor_diamondtriangles.svg	stimuli_distractor_diamondtriangles.svg	40	no	57	0	606	0	0			0	0			1				0	
6.6.1	mac	2023-06-23	12:15:19	12:24:34	547011	60fef79fa408c9eae61e49c3	4	1	main_slash	11	main_slash	13	stimuli_distractor_diamondtriangles.svg	stimuli_target_squarediamonds.svg	16	yes	53	1	401	0	0			0	0			1				0	
6.6.1	mac	2023-06-23	12:15:19	12:24:34	547011	60fef79fa408c9eae61e49c3	4	1	main_slash	11	advance_on_keypress_SLASH	14	stimuli_distractor_diamondtriangles.svg	stimuli_target_squarediamonds.svg	16	yes	57	0	477	0	0			0	0			1				0	
6.6.1	mac	2023-06-23	12:15:19	12:24:35	548429	60fef79fa408c9eae61e49c3	4	1	main_slash	11	main_slash	15	stimuli_distractor_trianglediamonds.svg	stimuli_target_rectangletriangles.svg	9	yes	53	1	299	0	0			0	0			1				0	
6.6.1	mac	2023-06-23	12:15:19	12:24:35	548429	60fef79fa408c9eae61e49c3	4	1	main_slash	11	advance_on_keypress_SLASH	16	stimuli_distractor_trianglediamonds.svg	stimuli_target_rectangletriangles.svg	9	yes	57	0	449	0	0			0	0			1				0	
6.6.1	mac	2023-06-23	12:15:19	12:24:37	549817	60fef79fa408c9eae61e49c3	4	1	main_slash	11	main_slash	17	stimuli_target_diamondsquares.svg	stimuli_distractor_diamondtriangles.svg	24	yes	53	1	300	0	0			0	0			1				0	
6.6.1	mac	2023-06-23	12:15:19	12:24:37	549817	60fef79fa408c9eae61e49c3	4	1	main_slash	11	advance_on_keypress_SLASH	18	stimuli_target_diamondsquares.svg	stimuli_distractor_diamondtriangles.svg	24	yes	57	0	596	0	0			0	0			1				0	
6.6.1	mac	2023-06-23	12:15:19	12:24:40	553052	60fef79fa408c9eae61e49c3	4	1	main_slash	11	main_slash	19	stimuli_target_trianglerectangles.svg	stimuli_distractor_trianglediamonds.svg	17	yes	0	0	2000	0	0			0	0			1				0	
6.6.1	mac	2023-06-23	12:15:19	12:24:40	553052	60fef79fa408c9eae61e49c3	4	1	main_slash	11	advance_on_keypress_SLASH	20	stimuli_target_trianglerectangles.svg	stimuli_distractor_trianglediamonds.svg	17	yes	57	0	321	0	0			0	0			1				0	
6.6.1	mac	2023-06-23	12:15:19	12:24:42	554626	60fef79fa408c9eae61e49c3	4	1	main_slash	11	main_slash	21	stimuli_distractor_diamondtriangles.svg	stimuli_target_trianglesquares.svg	30	yes	53	1	613	0	0			0	0			1				0	
6.6.1	mac	2023-06-23	12:15:19	12:24:42	554626	60fef79fa408c9eae61e49c3	4	1	main_slash	11	advance_on_keypress_SLASH	22	stimuli_distractor_diamondtriangles.svg	stimuli_target_trianglesquares.svg	30	yes	57	0	529	0	0			0	0			1				0	
6.6.1	mac	2023-06-23	12:15:19	12:24:45	557797	60fef79fa408c9eae61e49c3	4	1	main_slash	11	main_slash	23	stimuli_distractor_diamondtriangles.svg	stimuli_distractor_trianglediamonds.svg	37	no	0	1	2000	0	0			0	0			1				0	
6.6.1	mac	2023-06-23	12:15:19	12:24:45	557797	60fef79fa408c9eae61e49c3	4	1	main_slash	11	advance_on_keypress_SLASH	24	stimuli_distractor_diamondtriangles.svg	stimuli_distractor_trianglediamonds.svg	37	no	57	0	236	0	0			0	0			1				0	
6.6.1	mac	2023-06-23	12:15:19	12:24:48	560655	60fef79fa408c9eae61e49c3	4	1	main_slash	11	main_slash	25	stimuli_distractor_trianglediamonds.svg	stimuli_distractor_diamondtriangles.svg	35	no	0	1	2000	0	0			0	0			1				0	
6.6.1	mac	2023-06-23	12:15:19	12:24:48	560655	60fef79fa408c9eae61e49c3	4	1	main_slash	11	advance_on_keypress_SLASH	26	stimuli_distractor_trianglediamonds.svg	stimuli_distractor_diamondtriangles.svg	35	no	57	0	307	0	0			0	0			1				0	
6.6.1	mac	2023-06-23	12:15:19	12:24:51	563579	60fef79fa408c9eae61e49c3	4	1	main_slash	11	main_slash	27	stimuli_target_rectanglediamonds.svg	stimuli_distractor_diamondtriangles.svg	6	yes	0	0	2000	0	0			0	0			1				0	
6.6.1	mac	2023-06-23	12:15:19	12:24:51	563579	60fef79fa408c9eae61e49c3	4	1	main_slash	11	advance_on_keypress_SLASH	28	stimuli_target_rectanglediamonds.svg	stimuli_distractor_diamondtriangles.svg	6	yes	57	0	990	0	0			0	0			1				0	
6.6.1	mac	2023-06-23	12:15:19	12:24:54	566530	60fef79fa408c9eae61e49c3	4	1	main_slash	11	main_slash	29	stimuli_distractor_diamondtriangles.svg	stimuli_distractor_trianglediamonds.svg	38	no	53	0	1338	0	0			0	0			1				0	
6.6.1	mac	2023-06-23	12:15:19	12:24:54	566530	60fef79fa408c9eae61e49c3	4	1	main_slash	11	advance_on_keypress_SLASH	30	stimuli_distractor_diamondtriangles.svg	stimuli_distractor_trianglediamonds.svg	38	no	57	0	463	0	0			0	0			1				0	
6.6.1	mac	2023-06-23	12:15:19	12:24:56	568535	60fef79fa408c9eae61e49c3	4	1	main_slash	11	main_slash	31	stimuli_distractor_diamondtriangles.svg	stimuli_target_trianglerectangles.svg	29	yes	53	1	901	0	0			0	0			1				0	
6.6.1	mac	2023-06-23	12:15:19	12:24:56	568535	60fef79fa408c9eae61e49c3	4	1	main_slash	11	advance_on_keypress_SLASH	32	stimuli_distractor_diamondtriangles.svg	stimuli_target_trianglerectangles.svg	29	yes	57	0	391	0	0			0	0			1				0	
6.6.1	mac	2023-06-23	12:15:19	12:24:57	570489	60fef79fa408c9eae61e49c3	4	1	main_slash	11	main_slash	33	stimuli_target_rectangletriangles.svg	stimuli_distractor_trianglediamonds.svg	1	yes	53	1	919	0	0			0	0			1				0	
6.6.1	mac	2023-06-23	12:15:19	12:24:57	570489	60fef79fa408c9eae61e49c3	4	1	main_slash	11	advance_on_keypress_SLASH	34	stimuli_target_rectangletriangles.svg	stimuli_distractor_trianglediamonds.svg	1	yes	57	0	507	0	0			0	0			1				0	
6.6.1	mac	2023-06-23	12:15:19	12:24:59	571697	60fef79fa408c9eae61e49c3	4	1	main_slash	11	main_slash	35	stimuli_distractor_trianglediamonds.svg	stimuli_distractor_diamondtriangles.svg	36	no	53	0	63	0	0			0	0			1				0	
6.6.1	mac	2023-06-23	12:15:19	12:24:59	571697	60fef79fa408c9eae61e49c3	4	1	main_slash	11	advance_on_keypress_SLASH	36	stimuli_distractor_trianglediamonds.svg	stimuli_distractor_diamondtriangles.svg	36	no	57	0	612	0	0			0	0			1				0	
6.6.1	mac	2023-06-23	12:15:19	12:25:00	573130	60fef79fa408c9eae61e49c3	4	1	main_slash	11	main_slash	37	stimuli_target_rectanglediamonds.svg	stimuli_distractor_trianglediamonds.svg	2	yes	53	1	175	0	0			0	0			1				0	
6.6.1	mac	2023-06-23	12:15:19	12:25:00	573130	60fef79fa408c9eae61e49c3	4	1	main_slash	11	advance_on_keypress_SLASH	38	stimuli_target_rectanglediamonds.svg	stimuli_distractor_trianglediamonds.svg	2	yes	57	0	878	0	0			0	0			1				0	
6.6.1	mac	2023-06-23	12:15:19	12:25:02	575040	60fef79fa408c9eae61e49c3	4	1	main_slash	11	main_slash	39	stimuli_distractor_trianglediamonds.svg	stimuli_target_trianglesquares.svg	26	yes	53	1	386	0	0			0	0			1				0	
6.6.1	mac	2023-06-23	12:15:19	12:25:02	575040	60fef79fa408c9eae61e49c3	4	1	main_slash	11	advance_on_keypress_SLASH	40	stimuli_distractor_trianglediamonds.svg	stimuli_target_trianglesquares.svg	26	yes	57	0	581	0	0			0	0			1				0	
6.6.1	mac	2023-06-23	12:15:19	12:25:03	576408	60fef79fa408c9eae61e49c3	4	1	main_slash	11	main_slash	41	stimuli_distractor_trianglediamonds.svg	stimuli_target_squarediamonds.svg	12	yes	53	1	134	0	0			0	0			1				0	
6.6.1	mac	2023-06-23	12:15:19	12:25:03	576408	60fef79fa408c9eae61e49c3	4	1	main_slash	11	advance_on_keypress_SLASH	42	stimuli_distractor_trianglediamonds.svg	stimuli_target_squarediamonds.svg	12	yes	57	0	540	0	0			0	0			1				0	
6.6.1	mac	2023-06-23	12:15:19	12:25:05	577817	60fef79fa408c9eae61e49c3	4	1	main_slash	11	main_slash	43	stimuli_distractor_diamondtriangles.svg	stimuli_target_rectangletriangles.svg	13	yes	53	1	224	0	0			0	0			1				0	
6.6.1	mac	2023-06-23	12:15:19	12:25:05	577817	60fef79fa408c9eae61e49c3	4	1	main_slash	11	advance_on_keypress_SLASH	44	stimuli_distractor_diamondtriangles.svg	stimuli_target_rectangletriangles.svg	13	yes	57	0	488	0	0			0	0			1				0	
6.6.1	mac	2023-06-23	12:15:19	12:25:07	579795	60fef79fa408c9eae61e49c3	4	1	main_slash	11	main_slash	45	stimuli_distractor_diamondtriangles.svg	stimuli_target_diamondrectangles.svg	31	yes	53	1	866	0	0			0	0			1				0	
6.6.1	mac	2023-06-23	12:15:19	12:25:07	579795	60fef79fa408c9eae61e49c3	4	1	main_slash	11	advance_on_keypress_SLASH	46	stimuli_distractor_diamondtriangles.svg	stimuli_target_diamondrectangles.svg	31	yes	57	0	400	0	0			0	0			1				0	
6.6.1	mac	2023-06-23	12:15:19	12:25:08	581285	60fef79fa408c9eae61e49c3	4	1	main_slash	11	main_slash	47	stimuli_distractor_trianglediamonds.svg	stimuli_target_diamondrectangles.svg	27	yes	53	1	449	0	0			0	0			1				0	
6.6.1	mac	2023-06-23	12:15:19	12:25:08	581285	60fef79fa408c9eae61e49c3	4	1	main_slash	11	advance_on_keypress_SLASH	48	stimuli_distractor_trianglediamonds.svg	stimuli_target_diamondrectangles.svg	27	yes	57	0	501	0	0			0	0			1				0	
6.6.1	mac	2023-06-23	12:15:19	12:25:10	582932	60fef79fa408c9eae61e49c3	4	1	main_slash	11	main_slash	49	stimuli_distractor_trianglediamonds.svg	stimuli_target_rectanglediamonds.svg	10	yes	53	1	510	0	0			0	0			1				0	
6.6.1	mac	2023-06-23	12:15:19	12:25:10	582932	60fef79fa408c9eae61e49c3	4	1	main_slash	11	advance_on_keypress_SLASH	50	stimuli_distractor_trianglediamonds.svg	stimuli_target_rectanglediamonds.svg	10	yes	57	0	483	0	0			0	0			1				0	
6.6.1	mac	2023-06-23	12:15:19	12:25:11	584295	60fef79fa408c9eae61e49c3	4	1	main_slash	11	main_slash	51	stimuli_target_squarediamonds.svg	stimuli_distractor_diamondtriangles.svg	8	yes	53	1	244	0	0			0	0			1				0	
6.6.1	mac	2023-06-23	12:15:19	12:25:11	584295	60fef79fa408c9eae61e49c3	4	1	main_slash	11	advance_on_keypress_SLASH	52	stimuli_target_squarediamonds.svg	stimuli_distractor_diamondtriangles.svg	8	yes	57	0	544	0	0			0	0			1				0	
6.6.1	mac	2023-06-23	12:15:19	12:25:13	585679	60fef79fa408c9eae61e49c3	4	1	main_slash	11	main_slash	53	stimuli_target_trianglerectangles.svg	stimuli_distractor_diamondtriangles.svg	21	yes	53	1	190	0	0			0	0			1				0	
6.6.1	mac	2023-06-23	12:15:19	12:25:13	585679	60fef79fa408c9eae61e49c3	4	1	main_slash	11	advance_on_keypress_SLASH	54	stimuli_target_trianglerectangles.svg	stimuli_distractor_diamondtriangles.svg	21	yes	57	0	841	0	0			0	0			1				0	
6.6.1	mac	2023-06-23	12:15:19	12:25:16	589172	60fef79fa408c9eae61e49c3	4	1	main_slash	11	main_slash	55	stimuli_target_diamondrectangles.svg	stimuli_distractor_trianglediamonds.svg	19	yes	0	0	2000	0	0			0	0			1				0	
6.6.1	mac	2023-06-23	12:15:19	12:25:16	589172	60fef79fa408c9eae61e49c3	4	1	main_slash	11	advance_on_keypress_SLASH	56	stimuli_target_diamondrectangles.svg	stimuli_distractor_trianglediamonds.svg	19	yes	57	0	107	0	0			0	0			1				0	
6.6.1	mac	2023-06-23	12:15:19	12:25:19	591922	60fef79fa408c9eae61e49c3	4	1	main_slash	11	main_slash	57	stimuli_target_trianglesquares.svg	stimuli_distractor_diamondtriangles.svg	22	yes	0	0	2000	0	0			0	0			1				0	
6.6.1	mac	2023-06-23	12:15:19	12:25:19	591922	60fef79fa408c9eae61e49c3	4	1	main_slash	11	advance_on_keypress_SLASH	58	stimuli_target_trianglesquares.svg	stimuli_distractor_diamondtriangles.svg	22	yes	57	0	758	0	0			0	0			1				0	
6.6.1	mac	2023-06-23	12:15:19	12:25:20	593510	60fef79fa408c9eae61e49c3	4	1	main_slash	11	main_slash	59	stimuli_distractor_diamondtriangles.svg	stimuli_target_diamondsquares.svg	32	yes	53	1	193	0	0			0	0			1				0	
6.6.1	mac	2023-06-23	12:15:19	12:25:20	593510	60fef79fa408c9eae61e49c3	4	1	main_slash	11	advance_on_keypress_SLASH	60	stimuli_distractor_diamondtriangles.svg	stimuli_target_diamondsquares.svg	32	yes	57	0	538	0	0			0	0			1				0	
6.6.1	mac	2023-06-23	12:15:19	12:25:22	595073	60fef79fa408c9eae61e49c3	4	1	main_slash	11	main_slash	61	stimuli_distractor_diamondtriangles.svg	stimuli_target_rectanglediamonds.svg	14	yes	53	1	376	0	0			0	0			1				0	
6.6.1	mac	2023-06-23	12:15:19	12:25:22	595073	60fef79fa408c9eae61e49c3	4	1	main_slash	11	advance_on_keypress_SLASH	62	stimuli_distractor_diamondtriangles.svg	stimuli_target_rectanglediamonds.svg	14	yes	57	0	492	0	0			0	0			1				0	
6.6.1	mac	2023-06-23	12:15:19	12:25:23	596468	60fef79fa408c9eae61e49c3	4	1	main_slash	11	main_slash	63	stimuli_target_diamondrectangles.svg	stimuli_distractor_diamondtriangles.svg	23	yes	53	1	259	0	0			0	0			1				0	
6.6.1	mac	2023-06-23	12:15:19	12:25:23	596468	60fef79fa408c9eae61e49c3	4	1	main_slash	11	advance_on_keypress_SLASH	64	stimuli_target_diamondrectangles.svg	stimuli_distractor_diamondtriangles.svg	23	yes	57	0	604	0	0			0	0			1				0	
6.6.1	mac	2023-06-23	12:15:19	12:25:25	598088	60fef79fa408c9eae61e49c3	4	1	main_slash	11	main_slash	65	stimuli_target_rectangletriangles.svg	stimuli_distractor_diamondtriangles.svg	5	yes	53	1	375	0	0			0	0			1				0	
6.6.1	mac	2023-06-23	12:15:19	12:25:25	598088	60fef79fa408c9eae61e49c3	4	1	main_slash	11	advance_on_keypress_SLASH	66	stimuli_target_rectangletriangles.svg	stimuli_distractor_diamondtriangles.svg	5	yes	57	0	611	0	0			0	0			1				0	
6.6.1	mac	2023-06-23	12:15:19	12:25:26	599468	60fef79fa408c9eae61e49c3	4	1	main_slash	11	main_slash	67	stimuli_distractor_trianglediamonds.svg	stimuli_distractor_trianglediamonds.svg	34	no	53	0	119	0	0			0	0			1				0	
6.6.1	mac	2023-06-23	12:15:19	12:25:26	599468	60fef79fa408c9eae61e49c3	4	1	main_slash	11	advance_on_keypress_SLASH	68	stimuli_distractor_trianglediamonds.svg	stimuli_distractor_trianglediamonds.svg	34	no	57	0	794	0	0			0	0			1				0	
6.6.1	mac	2023-06-23	12:15:19	12:25:30	602901	60fef79fa408c9eae61e49c3	4	1	main_slash	11	main_slash	69	stimuli_distractor_trianglediamonds.svg	stimuli_distractor_trianglediamonds.svg	33	no	0	1	2000	0	0			0	0			1				0	
6.6.1	mac	2023-06-23	12:15:19	12:25:30	602901	60fef79fa408c9eae61e49c3	4	1	main_slash	11	advance_on_keypress_SLASH	70	stimuli_distractor_trianglediamonds.svg	stimuli_distractor_trianglediamonds.svg	33	no	57	0	393	0	0			0	0			1				0	
6.6.1	mac	2023-06-23	12:15:19	12:25:31	604455	60fef79fa408c9eae61e49c3	4	1	main_slash	11	main_slash	71	stimuli_target_squaretriangles.svg	stimuli_distractor_diamondtriangles.svg	7	yes	53	1	524	0	0			0	0			1				0	
6.6.1	mac	2023-06-23	12:15:19	12:25:31	604455	60fef79fa408c9eae61e49c3	4	1	main_slash	11	advance_on_keypress_SLASH	72	stimuli_target_squaretriangles.svg	stimuli_distractor_diamondtriangles.svg	7	yes	57	0	425	0	0			0	0			1				0	
6.6.1	mac	2023-06-23	12:15:19	12:25:33	605904	60fef79fa408c9eae61e49c3	4	1	main_slash	11	main_slash	73	stimuli_target_squaretriangles.svg	stimuli_distractor_trianglediamonds.svg	3	yes	53	1	388	0	0			0	0			1				0	
6.6.1	mac	2023-06-23	12:15:19	12:25:33	605904	60fef79fa408c9eae61e49c3	4	1	main_slash	11	advance_on_keypress_SLASH	74	stimuli_target_squaretriangles.svg	stimuli_distractor_trianglediamonds.svg	3	yes	57	0	406	0	0			0	0			1				0	
6.6.1	mac	2023-06-23	12:15:19	12:25:34	607218	60fef79fa408c9eae61e49c3	4	1	main_slash	11	main_slash	75	stimuli_target_trianglesquares.svg	stimuli_distractor_trianglediamonds.svg	18	yes	53	1	278	0	0			0	0			1				0	
6.6.1	mac	2023-06-23	12:15:19	12:25:34	607218	60fef79fa408c9eae61e49c3	4	1	main_slash	11	advance_on_keypress_SLASH	76	stimuli_target_trianglesquares.svg	stimuli_distractor_trianglediamonds.svg	18	yes	57	0	753	0	0			0	0			1				0	
6.6.1	mac	2023-06-23	12:15:19	12:25:36	609223	60fef79fa408c9eae61e49c3	4	1	main_slash	11	main_slash	77	stimuli_distractor_trianglediamonds.svg	stimuli_target_trianglerectangles.svg	25	yes	53	1	598	0	0			0	0			1				0	
6.6.1	mac	2023-06-23	12:15:19	12:25:36	609223	60fef79fa408c9eae61e49c3	4	1	main_slash	11	advance_on_keypress_SLASH	78	stimuli_distractor_trianglediamonds.svg	stimuli_target_trianglerectangles.svg	25	yes	57	0	612	0	0			0	0			1				0	
6.6.1	mac	2023-06-23	12:15:19	12:25:39	612044	60fef79fa408c9eae61e49c3	4	1	main_slash	11	main_slash	79	stimuli_target_squarediamonds.svg	stimuli_distractor_trianglediamonds.svg	4	yes	53	1	1565	0	0			0	0			1				0	
6.6.1	mac	2023-06-23	12:15:19	12:25:39	612044	60fef79fa408c9eae61e49c3	4	1	main_slash	11	advance_on_keypress_SLASH	80	stimuli_target_squarediamonds.svg	stimuli_distractor_trianglediamonds.svg	4	yes	57	0	412	0	0			0	0			1				0	
6.6.1	mac	2023-06-23	12:15:19	12:25:41	613648	60fef79fa408c9eae61e49c3	4	1	main_slash	11	main_slash	81	stimuli_target_squarediamonds.svg	stimuli_distractor_diamondtriangles.svg	8	yes	53	1	536	0	0			0	0			1				0	
6.6.1	mac	2023-06-23	12:15:19	12:25:41	613648	60fef79fa408c9eae61e49c3	4	1	main_slash	11	advance_on_keypress_SLASH	82	stimuli_target_squarediamonds.svg	stimuli_distractor_diamondtriangles.svg	8	yes	57	0	428	0	0			0	0			1				0	
6.6.1	mac	2023-06-23	12:15:19	12:25:43	615891	60fef79fa408c9eae61e49c3	4	1	main_slash	11	main_slash	83	stimuli_distractor_trianglediamonds.svg	stimuli_target_diamondsquares.svg	28	yes	53	1	1166	0	0			0	0			1				0	
6.6.1	mac	2023-06-23	12:15:19	12:25:43	615891	60fef79fa408c9eae61e49c3	4	1	main_slash	11	advance_on_keypress_SLASH	84	stimuli_distractor_trianglediamonds.svg	stimuli_target_diamondsquares.svg	28	yes	57	0	335	0	0			0	0			1				0	
6.6.1	mac	2023-06-23	12:15:19	12:25:44	617416	60fef79fa408c9eae61e49c3	4	1	main_slash	11	main_slash	85	stimuli_distractor_trianglediamonds.svg	stimuli_target_trianglerectangles.svg	25	yes	53	1	551	0	0			0	0			1				0	
6.6.1	mac	2023-06-23	12:15:19	12:25:44	617416	60fef79fa408c9eae61e49c3	4	1	main_slash	11	advance_on_keypress_SLASH	86	stimuli_distractor_trianglediamonds.svg	stimuli_target_trianglerectangles.svg	25	yes	57	0	333	0	0			0	0			1				0	
6.6.1	mac	2023-06-23	12:15:19	12:25:46	618853	60fef79fa408c9eae61e49c3	4	1	main_slash	11	main_slash	87	stimuli_distractor_diamondtriangles.svg	stimuli_target_diamondrectangles.svg	31	yes	53	1	468	0	0			0	0			1				0	
6.6.1	mac	2023-06-23	12:15:19	12:25:46	618853	60fef79fa408c9eae61e49c3	4	1	main_slash	11	advance_on_keypress_SLASH	88	stimuli_distractor_diamondtriangles.svg	stimuli_target_diamondrectangles.svg	31	yes	57	0	324	0	0			0	0			1				0	
6.6.1	mac	2023-06-23	12:15:19	12:25:48	621345	60fef79fa408c9eae61e49c3	4	1	main_slash	11	main_slash	89	stimuli_target_rectangletriangles.svg	stimuli_distractor_diamondtriangles.svg	5	yes	53	1	1524	0	0			0	0			1				0	
6.6.1	mac	2023-06-23	12:15:19	12:25:48	621345	60fef79fa408c9eae61e49c3	4	1	main_slash	11	advance_on_keypress_SLASH	90	stimuli_target_rectangletriangles.svg	stimuli_distractor_diamondtriangles.svg	5	yes	57	0	278	0	0			0	0			1				0	
6.6.1	mac	2023-06-23	12:15:19	12:25:50	622782	60fef79fa408c9eae61e49c3	4	1	main_slash	11	main_slash	91	stimuli_target_squaretriangles.svg	stimuli_distractor_trianglediamonds.svg	3	yes	53	1	520	0	0			0	0			1				0	
6.6.1	mac	2023-06-23	12:15:19	12:25:50	622782	60fef79fa408c9eae61e49c3	4	1	main_slash	11	advance_on_keypress_SLASH	92	stimuli_target_squaretriangles.svg	stimuli_distractor_trianglediamonds.svg	3	yes	57	0	367	0	0			0	0			1				0	
6.6.1	mac	2023-06-23	12:15:19	12:25:51	624207	60fef79fa408c9eae61e49c3	4	1	main_slash	11	main_slash	93	stimuli_distractor_trianglediamonds.svg	stimuli_target_rectangletriangles.svg	9	yes	53	1	425	0	0			0	0			1				0	
6.6.1	mac	2023-06-23	12:15:19	12:25:51	624207	60fef79fa408c9eae61e49c3	4	1	main_slash	11	advance_on_keypress_SLASH	94	stimuli_distractor_trianglediamonds.svg	stimuli_target_rectangletriangles.svg	9	yes	57	0	427	0	0			0	0			1				0	
6.6.1	mac	2023-06-23	12:15:19	12:25:53	625546	60fef79fa408c9eae61e49c3	4	1	main_slash	11	main_slash	95	stimuli_target_squaretriangles.svg	stimuli_distractor_diamondtriangles.svg	7	yes	53	1	277	0	0			0	0			1				0	
6.6.1	mac	2023-06-23	12:15:19	12:25:53	625546	60fef79fa408c9eae61e49c3	4	1	main_slash	11	advance_on_keypress_SLASH	96	stimuli_target_squaretriangles.svg	stimuli_distractor_diamondtriangles.svg	7	yes	57	0	406	0	0			0	0			1				0	
6.6.1	mac	2023-06-23	12:15:19	12:25:54	626849	60fef79fa408c9eae61e49c3	4	1	main_slash	11	main_slash	97	stimuli_distractor_trianglediamonds.svg	stimuli_target_rectanglediamonds.svg	10	yes	53	1	268	0	0			0	0			1				0	
6.6.1	mac	2023-06-23	12:15:19	12:25:54	626849	60fef79fa408c9eae61e49c3	4	1	main_slash	11	advance_on_keypress_SLASH	98	stimuli_distractor_trianglediamonds.svg	stimuli_target_rectanglediamonds.svg	10	yes	57	0	452	0	0			0	0			1				0	
6.6.1	mac	2023-06-23	12:15:19	12:25:57	629924	60fef79fa408c9eae61e49c3	4	1	main_slash	11	main_slash	99	stimuli_target_trianglerectangles.svg	stimuli_distractor_trianglediamonds.svg	17	yes	0	0	2000	0	0			0	0			1				0	
6.6.1	mac	2023-06-23	12:15:19	12:25:57	629924	60fef79fa408c9eae61e49c3	4	1	main_slash	11	advance_on_keypress_SLASH	100	stimuli_target_trianglerectangles.svg	stimuli_distractor_trianglediamonds.svg	17	yes	57	0	397	0	0			0	0			1				0	
6.6.1	mac	2023-06-23	12:15:19	12:26:00	632691	60fef79fa408c9eae61e49c3	4	1	main_slash	11	main_slash	101	stimuli_target_diamondsquares.svg	stimuli_distractor_diamondtriangles.svg	24	yes	53	1	1740	0	0			0	0			1				0	
6.6.1	mac	2023-06-23	12:15:19	12:26:00	632691	60fef79fa408c9eae61e49c3	4	1	main_slash	11	advance_on_keypress_SLASH	102	stimuli_target_diamondsquares.svg	stimuli_distractor_diamondtriangles.svg	24	yes	57	0	379	0	0			0	0			1				0	
6.6.1	mac	2023-06-23	12:15:19	12:26:02	635085	60fef79fa408c9eae61e49c3	4	1	main_slash	11	main_slash	103	stimuli_target_rectanglediamonds.svg	stimuli_distractor_diamondtriangles.svg	6	yes	53	1	1375	0	0			0	0			1				0	
6.6.1	mac	2023-06-23	12:15:19	12:26:02	635085	60fef79fa408c9eae61e49c3	4	1	main_slash	11	advance_on_keypress_SLASH	104	stimuli_target_rectanglediamonds.svg	stimuli_distractor_diamondtriangles.svg	6	yes	57	0	557	0	0			0	0			1				0	
6.6.1	mac	2023-06-23	12:15:19	12:26:04	636544	60fef79fa408c9eae61e49c3	4	1	main_slash	11	main_slash	105	stimuli_target_squarediamonds.svg	stimuli_distractor_trianglediamonds.svg	4	yes	53	1	261	0	0			0	0			1				0	
6.6.1	mac	2023-06-23	12:15:19	12:26:04	636544	60fef79fa408c9eae61e49c3	4	1	main_slash	11	advance_on_keypress_SLASH	106	stimuli_target_squarediamonds.svg	stimuli_distractor_trianglediamonds.svg	4	yes	57	0	338	0	0			0	0			1				0	
6.6.1	mac	2023-06-23	12:15:19	12:26:05	638510	60fef79fa408c9eae61e49c3	4	1	main_slash	11	main_slash	107	stimuli_distractor_diamondtriangles.svg	stimuli_target_trianglerectangles.svg	29	yes	53	1	989	0	0			0	0			1				0	
6.6.1	mac	2023-06-23	12:15:19	12:26:05	638510	60fef79fa408c9eae61e49c3	4	1	main_slash	11	advance_on_keypress_SLASH	108	stimuli_distractor_diamondtriangles.svg	stimuli_target_trianglerectangles.svg	29	yes	57	0	492	0	0			0	0			1				0	
6.6.1	mac	2023-06-23	12:15:19	12:26:09	641622	60fef79fa408c9eae61e49c3	4	1	main_slash	11	main_slash	109	stimuli_distractor_diamondtriangles.svg	stimuli_distractor_trianglediamonds.svg	38	no	0	1	2000	0	0			0	0			1				0	
6.6.1	mac	2023-06-23	12:15:19	12:26:09	641622	60fef79fa408c9eae61e49c3	4	1	main_slash	11	advance_on_keypress_SLASH	110	stimuli_distractor_diamondtriangles.svg	stimuli_distractor_trianglediamonds.svg	38	no	57	0	309	0	0			0	0			1				0	
6.6.1	mac	2023-06-23	12:15:19	12:26:10	643010	60fef79fa408c9eae61e49c3	4	1	main_slash	11	main_slash	111	stimuli_distractor_trianglediamonds.svg	stimuli_target_diamondrectangles.svg	27	yes	53	1	420	0	0			0	0			1				0	
6.6.1	mac	2023-06-23	12:15:19	12:26:10	643010	60fef79fa408c9eae61e49c3	4	1	main_slash	11	advance_on_keypress_SLASH	112	stimuli_distractor_trianglediamonds.svg	stimuli_target_diamondrectangles.svg	27	yes	57	0	449	0	0			0	0			1				0	
6.6.1	mac	2023-06-23	12:15:19	12:26:11	644497	60fef79fa408c9eae61e49c3	4	1	main_slash	11	main_slash	113	stimuli_distractor_trianglediamonds.svg	stimuli_distractor_diamondtriangles.svg	36	no	53	0	411	0	0			0	0			1				0	
6.6.1	mac	2023-06-23	12:15:19	12:26:11	644497	60fef79fa408c9eae61e49c3	4	1	main_slash	11	advance_on_keypress_SLASH	114	stimuli_distractor_trianglediamonds.svg	stimuli_distractor_diamondtriangles.svg	36	no	57	0	421	0	0			0	0			1				0	
6.6.1	mac	2023-06-23	12:15:19	12:26:13	645811	60fef79fa408c9eae61e49c3	4	1	main_slash	11	main_slash	115	stimuli_distractor_diamondtriangles.svg	stimuli_distractor_diamondtriangles.svg	39	no	53	0	255	0	0			0	0			1				0	
6.6.1	mac	2023-06-23	12:15:19	12:26:13	645811	60fef79fa408c9eae61e49c3	4	1	main_slash	11	advance_on_keypress_SLASH	116	stimuli_distractor_diamondtriangles.svg	stimuli_distractor_diamondtriangles.svg	39	no	57	0	345	0	0			0	0			1				0	
6.6.1	mac	2023-06-23	12:15:19	12:26:15	647634	60fef79fa408c9eae61e49c3	4	1	main_slash	11	main_slash	117	stimuli_target_diamondrectangles.svg	stimuli_distractor_diamondtriangles.svg	23	yes	53	1	840	0	0			0	0			1				0	
6.6.1	mac	2023-06-23	12:15:19	12:26:15	647634	60fef79fa408c9eae61e49c3	4	1	main_slash	11	advance_on_keypress_SLASH	118	stimuli_target_diamondrectangles.svg	stimuli_distractor_diamondtriangles.svg	23	yes	57	0	47	0	0			0	0			1				0	
6.6.1	mac	2023-06-23	12:15:19	12:26:16	649260	60fef79fa408c9eae61e49c3	4	1	main_slash	11	main_slash	119	stimuli_target_diamondrectangles.svg	stimuli_distractor_trianglediamonds.svg	19	yes	53	1	946	0	0			0	0			1				0	
6.6.1	mac	2023-06-23	12:15:19	12:26:16	649260	60fef79fa408c9eae61e49c3	4	1	main_slash	11	advance_on_keypress_SLASH	120	stimuli_target_diamondrectangles.svg	stimuli_distractor_trianglediamonds.svg	19	yes	57	0	1120	0	0			0	0			1				0	
6.6.1	mac	2023-06-23	12:15:19	12:26:20	653019	60fef79fa408c9eae61e49c3	4	1	main_slash	11	main_slash	121	stimuli_target_trianglerectangles.svg	stimuli_distractor_diamondtriangles.svg	21	yes	0	0	2000	0	0			0	0			1				0	
6.6.1	mac	2023-06-23	12:15:19	12:26:20	653019	60fef79fa408c9eae61e49c3	4	1	main_slash	11	advance_on_keypress_SLASH	122	stimuli_target_trianglerectangles.svg	stimuli_distractor_diamondtriangles.svg	21	yes	57	0	262	0	0			0	0			1				0	
6.6.1	mac	2023-06-23	12:15:19	12:26:21	654304	60fef79fa408c9eae61e49c3	4	1	main_slash	11	main_slash	123	stimuli_distractor_trianglediamonds.svg	stimuli_target_squaretriangles.svg	11	yes	53	1	391	0	0			0	0			1				0	
6.6.1	mac	2023-06-23	12:15:19	12:26:21	654304	60fef79fa408c9eae61e49c3	4	1	main_slash	11	advance_on_keypress_SLASH	124	stimuli_distractor_trianglediamonds.svg	stimuli_target_squaretriangles.svg	11	yes	57	0	285	0	0			0	0			1				0	
6.6.1	mac	2023-06-23	12:15:19	12:26:23	655605	60fef79fa408c9eae61e49c3	4	1	main_slash	11	main_slash	125	stimuli_target_rectanglediamonds.svg	stimuli_distractor_trianglediamonds.svg	2	yes	53	1	372	0	0			0	0			1				0	
6.6.1	mac	2023-06-23	12:15:19	12:26:23	655605	60fef79fa408c9eae61e49c3	4	1	main_slash	11	advance_on_keypress_SLASH	126	stimuli_target_rectanglediamonds.svg	stimuli_distractor_trianglediamonds.svg	2	yes	57	0	280	0	0			0	0			1				0	
6.6.1	mac	2023-06-23	12:15:19	12:26:25	658516	60fef79fa408c9eae61e49c3	4	1	main_slash	11	main_slash	127	stimuli_target_trianglesquares.svg	stimuli_distractor_trianglediamonds.svg	18	yes	0	0	2000	0	0			0	0			1				0	
6.6.1	mac	2023-06-23	12:15:19	12:26:25	658516	60fef79fa408c9eae61e49c3	4	1	main_slash	11	advance_on_keypress_SLASH	128	stimuli_target_trianglesquares.svg	stimuli_distractor_trianglediamonds.svg	18	yes	57	0	117	0	0			0	0			1				0	
6.6.1	mac	2023-06-23	12:15:19	12:26:27	659924	60fef79fa408c9eae61e49c3	4	1	main_slash	11	main_slash	129	stimuli_target_diamondsquares.svg	stimuli_distractor_trianglediamonds.svg	20	yes	53	1	664	0	0			0	0			1				0	
6.6.1	mac	2023-06-23	12:15:19	12:26:27	659924	60fef79fa408c9eae61e49c3	4	1	main_slash	11	advance_on_keypress_SLASH	130	stimuli_target_diamondsquares.svg	stimuli_distractor_trianglediamonds.svg	20	yes	57	0	481	0	0			0	0			1				0	
6.6.1	mac	2023-06-23	12:15:19	12:26:28	661529	60fef79fa408c9eae61e49c3	4	1	main_slash	11	main_slash	131	stimuli_distractor_diamondtriangles.svg	stimuli_target_rectangletriangles.svg	13	yes	53	1	473	0	0			0	0			1				0	
6.6.1	mac	2023-06-23	12:15:19	12:26:28	661529	60fef79fa408c9eae61e49c3	4	1	main_slash	11	advance_on_keypress_SLASH	132	stimuli_distractor_diamondtriangles.svg	stimuli_target_rectangletriangles.svg	13	yes	57	0	373	0	0			0	0			1				0	
6.6.1	mac	2023-06-23	12:15:19	12:26:30	662868	60fef79fa408c9eae61e49c3	4	1	main_slash	11	main_slash	133	stimuli_distractor_diamondtriangles.svg	stimuli_target_rectanglediamonds.svg	14	yes	53	1	332	0	0			0	0			1				0	
6.6.1	mac	2023-06-23	12:15:19	12:26:30	662868	60fef79fa408c9eae61e49c3	4	1	main_slash	11	advance_on_keypress_SLASH	134	stimuli_distractor_diamondtriangles.svg	stimuli_target_rectanglediamonds.svg	14	yes	57	0	370	0	0			0	0			1				0	
6.6.1	mac	2023-06-23	12:15:19	12:26:32	664858	60fef79fa408c9eae61e49c3	4	1	main_slash	11	main_slash	135	stimuli_target_trianglesquares.svg	stimuli_distractor_diamondtriangles.svg	22	yes	53	1	985	0	0			0	0			1				0	
6.6.1	mac	2023-06-23	12:15:19	12:26:32	664858	60fef79fa408c9eae61e49c3	4	1	main_slash	11	advance_on_keypress_SLASH	136	stimuli_target_trianglesquares.svg	stimuli_distractor_diamondtriangles.svg	22	yes	57	0	947	0	0			0	0			1				0	
6.6.1	mac	2023-06-23	12:15:19	12:26:35	668442	60fef79fa408c9eae61e49c3	4	1	main_slash	11	main_slash	137	stimuli_distractor_diamondtriangles.svg	stimuli_distractor_diamondtriangles.svg	40	no	0	1	2000	0	0			0	0			1				0	
6.6.1	mac	2023-06-23	12:15:19	12:26:35	668442	60fef79fa408c9eae61e49c3	4	1	main_slash	11	advance_on_keypress_SLASH	138	stimuli_distractor_diamondtriangles.svg	stimuli_distractor_diamondtriangles.svg	40	no	57	0	241	0	0			0	0			1				0	
6.6.1	mac	2023-06-23	12:15:19	12:26:37	669690	60fef79fa408c9eae61e49c3	4	1	main_slash	11	main_slash	139	stimuli_distractor_trianglediamonds.svg	stimuli_target_squarediamonds.svg	12	yes	53	1	385	0	0			0	0			1				0	
6.6.1	mac	2023-06-23	12:15:19	12:26:37	669690	60fef79fa408c9eae61e49c3	4	1	main_slash	11	advance_on_keypress_SLASH	140	stimuli_distractor_trianglediamonds.svg	stimuli_target_squarediamonds.svg	12	yes	57	0	435	0	0			0	0			1				0	
6.6.1	mac	2023-06-23	12:15:19	12:26:38	671078	60fef79fa408c9eae61e49c3	4	1	main_slash	11	main_slash	141	stimuli_target_rectangletriangles.svg	stimuli_distractor_trianglediamonds.svg	1	yes	53	1	320	0	0			0	0			1				0	
6.6.1	mac	2023-06-23	12:15:19	12:26:38	671078	60fef79fa408c9eae61e49c3	4	1	main_slash	11	advance_on_keypress_SLASH	142	stimuli_target_rectangletriangles.svg	stimuli_distractor_trianglediamonds.svg	1	yes	57	0	299	0	0			0	0			1				0	
6.6.1	mac	2023-06-23	12:15:19	12:26:39	672263	60fef79fa408c9eae61e49c3	4	1	main_slash	11	main_slash	143	stimuli_distractor_trianglediamonds.svg	stimuli_target_trianglesquares.svg	26	yes	53	1	245	0	0			0	0			1				0	
6.6.1	mac	2023-06-23	12:15:19	12:26:39	672263	60fef79fa408c9eae61e49c3	4	1	main_slash	11	advance_on_keypress_SLASH	144	stimuli_distractor_trianglediamonds.svg	stimuli_target_trianglesquares.svg	26	yes	57	0	583	0	0			0	0			1				0	
6.6.1	mac	2023-06-23	12:15:19	12:26:42	675479	60fef79fa408c9eae61e49c3	4	1	main_slash	11	main_slash	145	stimuli_distractor_trianglediamonds.svg	stimuli_distractor_trianglediamonds.svg	34	no	0	1	2000	0	0			0	0			1				0	
6.6.1	mac	2023-06-23	12:15:19	12:26:42	675479	60fef79fa408c9eae61e49c3	4	1	main_slash	11	advance_on_keypress_SLASH	146	stimuli_distractor_trianglediamonds.svg	stimuli_distractor_trianglediamonds.svg	34	no	57	0	263	0	0			0	0			1				0	
6.6.1	mac	2023-06-23	12:15:19	12:26:45	678369	60fef79fa408c9eae61e49c3	4	1	main_slash	11	main_slash	147	stimuli_distractor_trianglediamonds.svg	stimuli_distractor_diamondtriangles.svg	35	no	0	1	2000	0	0			0	0			1				0	
6.6.1	mac	2023-06-23	12:15:19	12:26:45	678369	60fef79fa408c9eae61e49c3	4	1	main_slash	11	advance_on_keypress_SLASH	148	stimuli_distractor_trianglediamonds.svg	stimuli_distractor_diamondtriangles.svg	35	no	57	0	272	0	0			0	0			1				0	
6.6.1	mac	2023-06-23	12:15:19	12:26:48	681260	60fef79fa408c9eae61e49c3	4	1	main_slash	11	main_slash	149	stimuli_distractor_diamondtriangles.svg	stimuli_distractor_trianglediamonds.svg	37	no	0	1	2000	0	0			0	0			1				0	
6.6.1	mac	2023-06-23	12:15:19	12:26:48	681260	60fef79fa408c9eae61e49c3	4	1	main_slash	11	advance_on_keypress_SLASH	150	stimuli_distractor_diamondtriangles.svg	stimuli_distractor_trianglediamonds.svg	37	no	57	0	313	0	0			0	0			1				0	
6.6.1	mac	2023-06-23	12:15:19	12:26:51	684202	60fef79fa408c9eae61e49c3	4	1	main_slash	11	main_slash	151	stimuli_distractor_trianglediamonds.svg	stimuli_distractor_trianglediamonds.svg	33	no	0	1	2000	0	0			0	0			1				0	
6.6.1	mac	2023-06-23	12:15:19	12:26:51	684202	60fef79fa408c9eae61e49c3	4	1	main_slash	11	advance_on_keypress_SLASH	152	stimuli_distractor_trianglediamonds.svg	stimuli_distractor_trianglediamonds.svg	33	no	57	0	281	0	0			0	0			1				0	
6.6.1	mac	2023-06-23	12:15:19	12:26:53	685533	60fef79fa408c9eae61e49c3	4	1	main_slash	11	main_slash	153	stimuli_distractor_diamondtriangles.svg	stimuli_target_diamondsquares.svg	32	yes	53	1	412	0	0			0	0			1				0	
6.6.1	mac	2023-06-23	12:15:19	12:26:53	685533	60fef79fa408c9eae61e49c3	4	1	main_slash	11	advance_on_keypress_SLASH	154	stimuli_distractor_diamondtriangles.svg	stimuli_target_diamondsquares.svg	32	yes	57	0	415	0	0			0	0			1				0	
6.6.1	mac	2023-06-23	12:15:19	12:26:54	687052	60fef79fa408c9eae61e49c3	4	1	main_slash	11	main_slash	155	stimuli_distractor_diamondtriangles.svg	stimuli_target_trianglesquares.svg	30	yes	53	1	469	0	0			0	0			1				0	
6.6.1	mac	2023-06-23	12:15:19	12:26:54	687052	60fef79fa408c9eae61e49c3	4	1	main_slash	11	advance_on_keypress_SLASH	156	stimuli_distractor_diamondtriangles.svg	stimuli_target_trianglesquares.svg	30	yes	57	0	399	0	0			0	0			1				0	
6.6.1	mac	2023-06-23	12:15:19	12:26:56	689358	60fef79fa408c9eae61e49c3	4	1	main_slash	11	main_slash	157	stimuli_distractor_diamondtriangles.svg	stimuli_target_squarediamonds.svg	16	yes	53	1	1253	0	0			0	0			1				0	
6.6.1	mac	2023-06-23	12:15:19	12:26:56	689358	60fef79fa408c9eae61e49c3	4	1	main_slash	11	advance_on_keypress_SLASH	158	stimuli_distractor_diamondtriangles.svg	stimuli_target_squarediamonds.svg	16	yes	57	0	430	0	0			0	0			1				0	
6.6.1	mac	2023-06-23	12:15:19	12:26:58	690866	60fef79fa408c9eae61e49c3	4	1	main_slash	11	main_slash	159	stimuli_distractor_diamondtriangles.svg	stimuli_target_squaretriangles.svg	15	yes	53	1	439	0	0			0	0			1				0	
6.6.1	mac	2023-06-23	12:15:19	12:26:58	690866	60fef79fa408c9eae61e49c3	4	1	main_slash	11	advance_on_keypress_SLASH	160	stimuli_distractor_diamondtriangles.svg	stimuli_target_squaretriangles.svg	15	yes	57	0	416	0	0			0	0			1				0	
6.6.1	mac	2023-06-23	12:15:19	12:26:58	690866	60fef79fa408c9eae61e49c3	4	1	headphonecheck_calibration	14	headphonecheck_calibrationIntro	1	stimuli_distractor_diamondtriangles.svg	stimuli_target_squaretriangles.svg	15	yes	calibrationButton	0	3983	0	0			0	0			1				0	
6.6.1	mac	2023-06-23	12:15:19	12:26:58	690866	60fef79fa408c9eae61e49c3	4	1	headphonecheck_testphase	15	test_collectResponse	3	stimuli_distractor_diamondtriangles.svg	stimuli_target_squaretriangles.svg	15	yes	second	1	5650	1	5	antiphase_hc_osi.wav	2	0	0			1				0	
6.6.1	mac	2023-06-23	12:15:19	12:26:58	690866	60fef79fa408c9eae61e49c3	4	1	headphonecheck_testphase	15	test_collectResponse	6	stimuli_distractor_diamondtriangles.svg	stimuli_target_squaretriangles.svg	15	yes	third	1	591	2	2	antiphase_hc_ios.wav	3	0	0			1				0	
6.6.1	mac	2023-06-23	12:15:19	12:26:58	690866	60fef79fa408c9eae61e49c3	4	1	headphonecheck_testphase	15	test_collectResponse	9	stimuli_distractor_diamondtriangles.svg	stimuli_target_squaretriangles.svg	15	yes	third	1	629	3	6	antiphase_hc_ois.wav	3	0	0			1				0	
6.6.1	mac	2023-06-23	12:15:19	12:26:58	690866	60fef79fa408c9eae61e49c3	4	1	headphonecheck_testphase	15	test_collectResponse	12	stimuli_distractor_diamondtriangles.svg	stimuli_target_squaretriangles.svg	15	yes	second	1	660	4	1	antiphase_hc_iso.wav	2	0	0			1				0	
6.6.1	mac	2023-06-23	12:15:19	12:26:58	690866	60fef79fa408c9eae61e49c3	4	1	headphonecheck_testphase	15	test_collectResponse	15	stimuli_distractor_diamondtriangles.svg	stimuli_target_squaretriangles.svg	15	yes	first	1	962	5	4	antiphase_hc_sio.wav	1	0	0			1				0	
6.6.1	mac	2023-06-23	12:15:19	12:26:58	690866	60fef79fa408c9eae61e49c3	4	1	headphonecheck_testphase	15	test_collectResponse	18	stimuli_distractor_diamondtriangles.svg	stimuli_target_squaretriangles.svg	15	yes	first	1	879	6	3	antiphase_hc_soi.wav	1	0	0			1				0	
6.6.1	mac	2023-06-23	12:15:19	12:26:58	690866	60fef79fa408c9eae61e49c3	4	1	stereocheck_calibration	17	stereocheck_calibrationIntro	1	stimuli_distractor_diamondtriangles.svg	stimuli_target_squaretriangles.svg	15	yes	stereocheck_calibrationButton	0	3163	6	3	antiphase_hc_soi.wav	1	0	0			1				0	
6.6.1	mac	2023-06-23	12:15:19	12:26:58	690866	60fef79fa408c9eae61e49c3	4	1	stereocheck_testphase	18	stereocheck_test_collectResponse	3	stimuli_distractor_diamondtriangles.svg	stimuli_target_squaretriangles.svg	15	yes	stereocheck_left	1	562	6	3	antiphase_hc_soi.wav	1	1	3	noise_calib_stim_LEFT.wav	1	1				0	
6.6.1	mac	2023-06-23	12:15:19	12:26:58	690866	60fef79fa408c9eae61e49c3	4	1	stereocheck_testphase	18	stereocheck_test_collectResponse	6	stimuli_distractor_diamondtriangles.svg	stimuli_target_squaretriangles.svg	15	yes	stereocheck_right	1	366	6	3	antiphase_hc_soi.wav	1	2	4	noise_calib_stim_RIGHT.wav	2	1				0	
6.6.1	mac	2023-06-23	12:15:19	12:26:58	690866	60fef79fa408c9eae61e49c3	4	1	stereocheck_testphase	18	stereocheck_test_collectResponse	9	stimuli_distractor_diamondtriangles.svg	stimuli_target_squaretriangles.svg	15	yes	stereocheck_right	1	348	6	3	antiphase_hc_soi.wav	1	3	6	noise_calib_stim_RIGHT.wav	2	1				0	
6.6.1	mac	2023-06-23	12:15:19	12:26:58	690866	60fef79fa408c9eae61e49c3	4	1	stereocheck_testphase	18	stereocheck_test_collectResponse	12	stimuli_distractor_diamondtriangles.svg	stimuli_target_squaretriangles.svg	15	yes	stereocheck_left	1	332	6	3	antiphase_hc_soi.wav	1	4	2	noise_calib_stim_LEFT.wav	1	1				0	
6.6.1	mac	2023-06-23	12:15:19	12:26:58	690866	60fef79fa408c9eae61e49c3	4	1	stereocheck_testphase	18	stereocheck_test_collectResponse	15	stimuli_distractor_diamondtriangles.svg	stimuli_target_squaretriangles.svg	15	yes	stereocheck_left	1	527	6	3	antiphase_hc_soi.wav	1	5	1	noise_calib_stim_LEFT.wav	1	1				0	
6.6.1	mac	2023-06-23	12:15:19	12:26:58	690866	60fef79fa408c9eae61e49c3	4	1	stereocheck_testphase	18	stereocheck_test_collectResponse	18	stimuli_distractor_diamondtriangles.svg	stimuli_target_squaretriangles.svg	15	yes	stereocheck_right	1	813	6	3	antiphase_hc_soi.wav	1	6	5	noise_calib_stim_RIGHT.wav	2	1				0	
6.6.1	mac	2023-06-23	12:15:19	12:26:58	690866	60fef79fa408c9eae61e49c3	4	1	DL_practice	21	DL_practice	2	stimuli_distractor_diamondtriangles.svg	stimuli_target_squaretriangles.svg	15	yes	pa	1	967	6	3	antiphase_hc_soi.wav	1	6	5	noise_calib_stim_RIGHT.wav	2	29	blb_dichoticlistening_pa-pa.mp3	pa	pa	0	left
6.6.1	mac	2023-06-23	12:15:19	12:26:58	690866	60fef79fa408c9eae61e49c3	4	1	DL_practice	21	DL_practice	3	stimuli_distractor_diamondtriangles.svg	stimuli_target_squaretriangles.svg	15	yes	ga	1	2491	6	3	antiphase_hc_soi.wav	1	6	5	noise_calib_stim_RIGHT.wav	2	18	blb_dichoticlistening_ga-ta.mp3	ga	ta	1	left
6.6.1	mac	2023-06-23	12:15:19	12:26:58	690866	60fef79fa408c9eae61e49c3	4	1	DL_practice	21	DL_practice	4	stimuli_distractor_diamondtriangles.svg	stimuli_target_squaretriangles.svg	15	yes	ga	1	720	6	3	antiphase_hc_soi.wav	1	6	5	noise_calib_stim_RIGHT.wav	2	15	blb_dichoticlistening_ga-ga.mp3	ga	ga	0	left
6.6.1	mac	2023-06-23	12:15:19	12:26:58	690866	60fef79fa408c9eae61e49c3	4	1	DL_practice	21	DL_practice	5	stimuli_distractor_diamondtriangles.svg	stimuli_target_squaretriangles.svg	15	yes	pa	0	1992	6	3	antiphase_hc_soi.wav	1	6	5	noise_calib_stim_RIGHT.wav	2	7	blb_dichoticlistening_da-ba.mp3	da	ba	1	other
6.6.1	mac	2023-06-23	12:15:19	12:26:58	690866	60fef79fa408c9eae61e49c3	4	1	DL_practice	21	DL_practice	6	stimuli_distractor_diamondtriangles.svg	stimuli_target_squaretriangles.svg	15	yes	da	1	1348	6	3	antiphase_hc_soi.wav	1	6	5	noise_calib_stim_RIGHT.wav	2	8	blb_dichoticlistening_da-da.mp3	da	da	0	left
6.6.1	mac	2023-06-23	12:15:19	12:26:58	690866	60fef79fa408c9eae61e49c3	4	1	DL_practice	21	DL_practice	7	stimuli_distractor_diamondtriangles.svg	stimuli_target_squaretriangles.svg	15	yes	ta	1	1465	6	3	antiphase_hc_soi.wav	1	6	5	noise_calib_stim_RIGHT.wav	2	36	blb_dichoticlistening_ta-ta.mp3	ta	ta	0	left
6.6.1	mac	2023-06-23	12:15:19	12:26:58	690866	60fef79fa408c9eae61e49c3	4	1	DL_practice	21	DL_practice	8	stimuli_distractor_diamondtriangles.svg	stimuli_target_squaretriangles.svg	15	yes	pa	1	1808	6	3	antiphase_hc_soi.wav	1	6	5	noise_calib_stim_RIGHT.wav	2	23	blb_dichoticlistening_ka-pa.mp3	ka	pa	1	right
6.6.1	mac	2023-06-23	12:15:19	12:26:58	690866	60fef79fa408c9eae61e49c3	4	1	DL_practice	21	DL_practice	9	stimuli_distractor_diamondtriangles.svg	stimuli_target_squaretriangles.svg	15	yes	ba	1	1855	6	3	antiphase_hc_soi.wav	1	6	5	noise_calib_stim_RIGHT.wav	2	1	blb_dichoticlistening_ba-ba.mp3	ba	ba	0	left
6.6.1	mac	2023-06-23	12:15:19	12:26:58	690866	60fef79fa408c9eae61e49c3	4	1	DL_practice	21	DL_practice	10	stimuli_distractor_diamondtriangles.svg	stimuli_target_squaretriangles.svg	15	yes	ka	1	1131	6	3	antiphase_hc_soi.wav	1	6	5	noise_calib_stim_RIGHT.wav	2	22	blb_dichoticlistening_ka-ka.mp3	ka	ka	0	left
6.6.1	mac	2023-06-23	12:15:19	12:26:58	690866	60fef79fa408c9eae61e49c3	4	1	DL_test	23	DL_test	1	stimuli_distractor_diamondtriangles.svg	stimuli_target_squaretriangles.svg	15	yes	pa	1	1258	6	3	antiphase_hc_soi.wav	1	6	5	noise_calib_stim_RIGHT.wav	2	17	blb_dichoticlistening_ga-pa.mp3	ga	pa	1	right
6.6.1	mac	2023-06-23	12:15:19	12:26:58	690866	60fef79fa408c9eae61e49c3	4	1	DL_test	23	DL_test	2	stimuli_distractor_diamondtriangles.svg	stimuli_target_squaretriangles.svg	15	yes	da	1	1819	6	3	antiphase_hc_soi.wav	1	6	5	noise_calib_stim_RIGHT.wav	2	12	blb_dichoticlistening_da-ta.mp3	da	ta	1	left
6.6.1	mac	2023-06-23	12:15:19	12:26:58	690866	60fef79fa408c9eae61e49c3	4	1	DL_test	23	DL_test	3	stimuli_distractor_diamondtriangles.svg	stimuli_target_squaretriangles.svg	15	yes	ba	1	1963	6	3	antiphase_hc_soi.wav	1	6	5	noise_calib_stim_RIGHT.wav	2	7	blb_dichoticlistening_da-ba.mp3	da	ba	1	right
6.6.1	mac	2023-06-23	12:15:19	12:26:58	690866	60fef79fa408c9eae61e49c3	4	1	DL_test	23	DL_test	4	stimuli_distractor_diamondtriangles.svg	stimuli_target_squaretriangles.svg	15	yes	ta	1	1820	6	3	antiphase_hc_soi.wav	1	6	5	noise_calib_stim_RIGHT.wav	2	31	blb_dichoticlistening_ta-ba.mp3	ta	ba	1	left
6.6.1	mac	2023-06-23	12:15:19	12:26:58	690866	60fef79fa408c9eae61e49c3	4	1	DL_test	23	DL_test	5	stimuli_distractor_diamondtriangles.svg	stimuli_target_squaretriangles.svg	15	yes	ga	1	1248	6	3	antiphase_hc_soi.wav	1	6	5	noise_calib_stim_RIGHT.wav	2	14	blb_dichoticlistening_ga-da.mp3	ga	da	1	left
6.6.1	mac	2023-06-23	12:15:19	12:26:58	690866	60fef79fa408c9eae61e49c3	4	1	DL_test	23	DL_test	6	stimuli_distractor_diamondtriangles.svg	stimuli_target_squaretriangles.svg	15	yes	ka	1	1162	6	3	antiphase_hc_soi.wav	1	6	5	noise_calib_stim_RIGHT.wav	2	20	blb_dichoticlistening_ka-da.mp3	ka	da	1	left
6.6.1	mac	2023-06-23	12:15:19	12:26:58	690866	60fef79fa408c9eae61e49c3	4	1	DL_test	23	DL_test	7	stimuli_distractor_diamondtriangles.svg	stimuli_target_squaretriangles.svg	15	yes	ka	1	908	6	3	antiphase_hc_soi.wav	1	6	5	noise_calib_stim_RIGHT.wav	2	21	blb_dichoticlistening_ka-ga.mp3	ka	ga	1	left
6.6.1	mac	2023-06-23	12:15:19	12:26:58	690866	60fef79fa408c9eae61e49c3	4	1	DL_test	23	DL_test	8	stimuli_distractor_diamondtriangles.svg	stimuli_target_squaretriangles.svg	15	yes	ta	1	1652	6	3	antiphase_hc_soi.wav	1	6	5	noise_calib_stim_RIGHT.wav	2	6	blb_dichoticlistening_ba-ta.mp3	ba	ta	1	right
6.6.1	mac	2023-06-23	12:15:19	12:26:58	690866	60fef79fa408c9eae61e49c3	4	1	DL_test	23	DL_test	9	stimuli_distractor_diamondtriangles.svg	stimuli_target_squaretriangles.svg	15	yes	pa	0	984	6	3	antiphase_hc_soi.wav	1	6	5	noise_calib_stim_RIGHT.wav	2	10	blb_dichoticlistening_da-ka.mp3	da	ka	1	other
6.6.1	mac	2023-06-23	12:15:19	12:26:58	690866	60fef79fa408c9eae61e49c3	4	1	DL_test	23	DL_test	10	stimuli_distractor_diamondtriangles.svg	stimuli_target_squaretriangles.svg	15	yes	da	1	1909	6	3	antiphase_hc_soi.wav	1	6	5	noise_calib_stim_RIGHT.wav	2	26	blb_dichoticlistening_pa-da.mp3	pa	da	1	right
6.6.1	mac	2023-06-23	12:15:19	12:26:58	690866	60fef79fa408c9eae61e49c3	4	1	DL_test	23	DL_test	11	stimuli_distractor_diamondtriangles.svg	stimuli_target_squaretriangles.svg	15	yes	da	0	743	6	3	antiphase_hc_soi.wav	1	6	5	noise_calib_stim_RIGHT.wav	2	27	blb_dichoticlistening_pa-ga.mp3	pa	ga	1	other
6.6.1	mac	2023-06-23	12:15:19	12:26:58	690866	60fef79fa408c9eae61e49c3	4	1	DL_test	23	DL_test	12	stimuli_distractor_diamondtriangles.svg	stimuli_target_squaretriangles.svg	15	yes	ta	0	1338	6	3	antiphase_hc_soi.wav	1	6	5	noise_calib_stim_RIGHT.wav	2	23	blb_dichoticlistening_ka-pa.mp3	ka	pa	1	other
6.6.1	mac	2023-06-23	12:15:19	12:26:58	690866	60fef79fa408c9eae61e49c3	4	1	DL_test	23	DL_test	13	stimuli_distractor_diamondtriangles.svg	stimuli_target_squaretriangles.svg	15	yes	pa	1	470	6	3	antiphase_hc_soi.wav	1	6	5	noise_calib_stim_RIGHT.wav	2	28	blb_dichoticlistening_pa-ka.mp3	pa	ka	1	left
6.6.1	mac	2023-06-23	12:15:19	12:26:58	690866	60fef79fa408c9eae61e49c3	4	1	DL_test	23	DL_test	14	stimuli_distractor_diamondtriangles.svg	stimuli_target_squaretriangles.svg	15	yes	ga	1	1966	6	3	antiphase_hc_soi.wav	1	6	5	noise_calib_stim_RIGHT.wav	2	33	blb_dichoticlistening_ta-ga.mp3	ta	ga	1	right
6.6.1	mac	2023-06-23	12:15:19	12:26:58	690866	60fef79fa408c9eae61e49c3	4	1	DL_test	23	DL_test	15	stimuli_distractor_diamondtriangles.svg	stimuli_target_squaretriangles.svg	15	yes	pa	1	921	6	3	antiphase_hc_soi.wav	1	6	5	noise_calib_stim_RIGHT.wav	2	5	blb_dichoticlistening_ba-pa.mp3	ba	pa	1	right
6.6.1	mac	2023-06-23	12:15:19	12:26:58	690866	60fef79fa408c9eae61e49c3	4	1	DL_test	23	DL_test	16	stimuli_distractor_diamondtriangles.svg	stimuli_target_squaretriangles.svg	15	yes	ga	1	1093	6	3	antiphase_hc_soi.wav	1	6	5	noise_calib_stim_RIGHT.wav	2	9	blb_dichoticlistening_da-ga.mp3	da	ga	1	right
6.6.1	mac	2023-06-23	12:15:19	12:26:58	690866	60fef79fa408c9eae61e49c3	4	1	DL_test	23	DL_test	17	stimuli_distractor_diamondtriangles.svg	stimuli_target_squaretriangles.svg	15	yes	pa	0	1605	6	3	antiphase_hc_soi.wav	1	6	5	noise_calib_stim_RIGHT.wav	2	13	blb_dichoticlistening_ga-ba.mp3	ga	ba	1	other
6.6.1	mac	2023-06-23	12:15:19	12:26:58	690866	60fef79fa408c9eae61e49c3	4	1	DL_test	23	DL_test	18	stimuli_distractor_diamondtriangles.svg	stimuli_target_squaretriangles.svg	15	yes	ta	1	1948	6	3	antiphase_hc_soi.wav	1	6	5	noise_calib_stim_RIGHT.wav	2	35	blb_dichoticlistening_ta-pa.mp3	ta	pa	1	left
6.6.1	mac	2023-06-23	12:15:19	12:26:58	690866	60fef79fa408c9eae61e49c3	4	1	DL_test	23	DL_test	19	stimuli_distractor_diamondtriangles.svg	stimuli_target_squaretriangles.svg	15	yes	da	1	1608	6	3	antiphase_hc_soi.wav	1	6	5	noise_calib_stim_RIGHT.wav	2	8	blb_dichoticlistening_da-da.mp3	da	da	0	left
6.6.1	mac	2023-06-23	12:15:19	12:26:58	690866	60fef79fa408c9eae61e49c3	4	1	DL_test	23	DL_test	20	stimuli_distractor_diamondtriangles.svg	stimuli_target_squaretriangles.svg	15	yes	da	1	1478	6	3	antiphase_hc_soi.wav	1	6	5	noise_calib_stim_RIGHT.wav	2	32	blb_dichoticlistening_ta-da.mp3	ta	da	1	right
6.6.1	mac	2023-06-23	12:15:19	12:26:58	690866	60fef79fa408c9eae61e49c3	4	1	DL_test	23	DL_test	21	stimuli_distractor_diamondtriangles.svg	stimuli_target_squaretriangles.svg	15	yes	ka	1	1158	6	3	antiphase_hc_soi.wav	1	6	5	noise_calib_stim_RIGHT.wav	2	34	blb_dichoticlistening_ta-ka.mp3	ta	ka	1	right
6.6.1	mac	2023-06-23	12:15:19	12:26:58	690866	60fef79fa408c9eae61e49c3	4	1	DL_test	23	DL_test	22	stimuli_distractor_diamondtriangles.svg	stimuli_target_squaretriangles.svg	15	yes	pa	1	895	6	3	antiphase_hc_soi.wav	1	6	5	noise_calib_stim_RIGHT.wav	2	29	blb_dichoticlistening_pa-pa.mp3	pa	pa	0	left
6.6.1	mac	2023-06-23	12:15:19	12:26:58	690866	60fef79fa408c9eae61e49c3	4	1	DL_test	23	DL_test	23	stimuli_distractor_diamondtriangles.svg	stimuli_target_squaretriangles.svg	15	yes	ba	1	1380	6	3	antiphase_hc_soi.wav	1	6	5	noise_calib_stim_RIGHT.wav	2	1	blb_dichoticlistening_ba-ba.mp3	ba	ba	0	left
6.6.1	mac	2023-06-23	12:15:19	12:26:58	690866	60fef79fa408c9eae61e49c3	4	1	DL_test	23	DL_test	24	stimuli_distractor_diamondtriangles.svg	stimuli_target_squaretriangles.svg	15	yes	ta	1	1583	6	3	antiphase_hc_soi.wav	1	6	5	noise_calib_stim_RIGHT.wav	2	36	blb_dichoticlistening_ta-ta.mp3	ta	ta	0	left
6.6.1	mac	2023-06-23	12:15:19	12:26:58	690866	60fef79fa408c9eae61e49c3	4	1	DL_test	23	DL_test	25	stimuli_distractor_diamondtriangles.svg	stimuli_target_squaretriangles.svg	15	yes	ta	1	839	6	3	antiphase_hc_soi.wav	1	6	5	noise_calib_stim_RIGHT.wav	2	30	blb_dichoticlistening_pa-ta.mp3	pa	ta	1	right
6.6.1	mac	2023-06-23	12:15:19	12:26:58	690866	60fef79fa408c9eae61e49c3	4	1	DL_test	23	DL_test	26	stimuli_distractor_diamondtriangles.svg	stimuli_target_squaretriangles.svg	15	yes	ta	0	349	6	3	antiphase_hc_soi.wav	1	6	5	noise_calib_stim_RIGHT.wav	2	11	blb_dichoticlistening_da-pa.mp3	da	pa	1	other
