build	computer.platform	date	time	timestamp	time_elapsed_ms	subject	group	session	blockcode	blocknum	trialcode	trialnum	stimulus_left	stimulus_right	stim_index	target_present	response	correct	latency	headphonecheck_countTestTrials	headphonecheck_index	headphonecheck_testSound	headphonecheck_correctResponse	stereocheck_countTestTrials	stereocheck_index	stereocheck_testSound	stereocheck_correctResponse	DL_index	DL_soundfile	DL_leftSound	DL_rightSound	DL_dualSound	DL_choice
6.6.1	win	2023-06-02	07:53:30	07:56:30	177791	60412f7a5f580407f8e6e615	3	1	practice_slash	5	practice_slash	1	stimuli_distractor_diamondtriangles.svg	stimuli_target_rectangletriangles.svg	7	yes	53	1	671	0	0			0	0			1				0	
6.6.1	win	2023-06-02	07:53:30	07:56:30	177791	60412f7a5f580407f8e6e615	3	1	practice_slash	5	advance_on_keypress_SLASH	2	stimuli_distractor_diamondtriangles.svg	stimuli_target_rectangletriangles.svg	7	yes	57	0	731	0	0			0	0			1				0	
6.6.1	win	2023-06-02	07:53:30	07:56:33	181030	60412f7a5f580407f8e6e615	3	1	practice_slash	5	practice_slash	3	stimuli_target_diamondsquares.svg	stimuli_distractor_diamondtriangles.svg	3	yes	53	1	860	0	0			0	0			1				0	
6.6.1	win	2023-06-02	07:53:30	07:56:33	181030	60412f7a5f580407f8e6e615	3	1	practice_slash	5	advance_on_keypress_SLASH	4	stimuli_target_diamondsquares.svg	stimuli_distractor_diamondtriangles.svg	3	yes	57	0	922	0	0			0	0			1				0	
6.6.1	win	2023-06-02	07:53:30	07:56:38	185588	60412f7a5f580407f8e6e615	3	1	practice_slash	5	practice_slash	5	stimuli_distractor_trianglediamonds.svg	stimuli_distractor_diamondtriangles.svg	16	no	0	1	2000	0	0			0	0			1				0	
6.6.1	win	2023-06-02	07:53:30	07:56:38	185588	60412f7a5f580407f8e6e615	3	1	practice_slash	5	advance_on_keypress_SLASH	6	stimuli_distractor_trianglediamonds.svg	stimuli_distractor_diamondtriangles.svg	16	no	57	0	578	0	0			0	0			1				0	
6.6.1	win	2023-06-02	07:53:30	07:56:40	188271	60412f7a5f580407f8e6e615	3	1	practice_slash	5	practice_slash	7	stimuli_target_rectanglediamonds.svg	stimuli_distractor_trianglediamonds.svg	4	yes	53	1	449	0	0			0	0			1				0	
6.6.1	win	2023-06-02	07:53:30	07:56:40	188271	60412f7a5f580407f8e6e615	3	1	practice_slash	5	advance_on_keypress_SLASH	8	stimuli_target_rectanglediamonds.svg	stimuli_distractor_trianglediamonds.svg	4	yes	57	0	590	0	0			0	0			1				0	
6.6.1	win	2023-06-02	07:53:30	07:56:43	191335	60412f7a5f580407f8e6e615	3	1	practice_slash	5	practice_slash	9	stimuli_target_diamondsquares.svg	stimuli_distractor_trianglediamonds.svg	6	yes	53	1	830	0	0			0	0			1				0	
6.6.1	win	2023-06-02	07:53:30	07:56:43	191335	60412f7a5f580407f8e6e615	3	1	practice_slash	5	advance_on_keypress_SLASH	10	stimuli_target_diamondsquares.svg	stimuli_distractor_trianglediamonds.svg	6	yes	57	0	788	0	0			0	0			1				0	
6.6.1	win	2023-06-02	07:53:30	07:56:46	194350	60412f7a5f580407f8e6e615	3	1	practice_slash	5	practice_slash	11	stimuli_distractor_diamondtriangles.svg	stimuli_target_diamondrectangles.svg	8	yes	53	1	579	0	0			0	0			1				0	
6.6.1	win	2023-06-02	07:53:30	07:56:46	194350	60412f7a5f580407f8e6e615	3	1	practice_slash	5	advance_on_keypress_SLASH	12	stimuli_distractor_diamondtriangles.svg	stimuli_target_diamondrectangles.svg	8	yes	57	0	763	0	0			0	0			1				0	
6.6.1	win	2023-06-02	07:53:30	07:56:49	197438	60412f7a5f580407f8e6e615	3	1	practice_slash	5	practice_slash	13	stimuli_distractor_trianglediamonds.svg	stimuli_target_diamondrectangles.svg	12	yes	53	1	667	0	0			0	0			1				0	
6.6.1	win	2023-06-02	07:53:30	07:56:49	197438	60412f7a5f580407f8e6e615	3	1	practice_slash	5	advance_on_keypress_SLASH	14	stimuli_distractor_trianglediamonds.svg	stimuli_target_diamondrectangles.svg	12	yes	57	0	1074	0	0			0	0			1				0	
6.6.1	win	2023-06-02	07:53:30	07:56:54	202155	60412f7a5f580407f8e6e615	3	1	practice_slash	5	practice_slash	15	stimuli_distractor_diamondtriangles.svg	stimuli_distractor_trianglediamonds.svg	14	no	0	1	2000	0	0			0	0			1				0	
6.6.1	win	2023-06-02	07:53:30	07:56:54	202155	60412f7a5f580407f8e6e615	3	1	practice_slash	5	advance_on_keypress_SLASH	16	stimuli_distractor_diamondtriangles.svg	stimuli_distractor_trianglediamonds.svg	14	no	57	0	540	0	0			0	0			1				0	
6.6.1	win	2023-06-02	07:53:30	07:56:57	205502	60412f7a5f580407f8e6e615	3	1	practice_slash	5	practice_slash	17	stimuli_target_rectanglediamonds.svg	stimuli_distractor_diamondtriangles.svg	1	yes	53	1	1164	0	0			0	0			1				0	
6.6.1	win	2023-06-02	07:53:30	07:56:57	205502	60412f7a5f580407f8e6e615	3	1	practice_slash	5	advance_on_keypress_SLASH	18	stimuli_target_rectanglediamonds.svg	stimuli_distractor_diamondtriangles.svg	1	yes	57	0	678	0	0			0	0			1				0	
6.6.1	win	2023-06-02	07:53:30	07:57:02	209822	60412f7a5f580407f8e6e615	3	1	practice_slash	5	practice_slash	19	stimuli_distractor_diamondtriangles.svg	stimuli_distractor_diamondtriangles.svg	13	no	0	1	2000	0	0			0	0			1				0	
6.6.1	win	2023-06-02	07:53:30	07:57:02	209822	60412f7a5f580407f8e6e615	3	1	practice_slash	5	advance_on_keypress_SLASH	20	stimuli_distractor_diamondtriangles.svg	stimuli_distractor_diamondtriangles.svg	13	no	57	0	512	0	0			0	0			1				0	
6.6.1	win	2023-06-02	07:53:30	07:57:06	213972	60412f7a5f580407f8e6e615	3	1	practice_slash	5	practice_slash	21	stimuli_distractor_trianglediamonds.svg	stimuli_distractor_trianglediamonds.svg	15	no	0	1	2000	0	0			0	0			1				0	
6.6.1	win	2023-06-02	07:53:30	07:57:06	213972	60412f7a5f580407f8e6e615	3	1	practice_slash	5	advance_on_keypress_SLASH	22	stimuli_distractor_trianglediamonds.svg	stimuli_distractor_trianglediamonds.svg	15	no	57	0	778	0	0			0	0			1				0	
6.6.1	win	2023-06-02	07:53:30	07:57:09	217247	60412f7a5f580407f8e6e615	3	1	practice_slash	5	practice_slash	23	stimuli_distractor_diamondtriangles.svg	stimuli_target_trianglerectangles.svg	9	yes	53	1	842	0	0			0	0			1				0	
6.6.1	win	2023-06-02	07:53:30	07:57:09	217247	60412f7a5f580407f8e6e615	3	1	practice_slash	5	advance_on_keypress_SLASH	24	stimuli_distractor_diamondtriangles.svg	stimuli_target_trianglerectangles.svg	9	yes	57	0	1184	0	0			0	0			1				0	
6.6.1	win	2023-06-02	07:53:30	07:57:13	221142	60412f7a5f580407f8e6e615	3	1	practice_slash	5	practice_slash	25	stimuli_distractor_trianglediamonds.svg	stimuli_target_squarediamonds.svg	11	yes	53	1	1070	0	0			0	0			1				0	
6.6.1	win	2023-06-02	07:53:30	07:57:13	221142	60412f7a5f580407f8e6e615	3	1	practice_slash	5	advance_on_keypress_SLASH	26	stimuli_distractor_trianglediamonds.svg	stimuli_target_squarediamonds.svg	11	yes	57	0	2163	0	0			0	0			1				0	
6.6.1	win	2023-06-02	07:53:30	07:57:18	225671	60412f7a5f580407f8e6e615	3	1	practice_slash	5	practice_slash	27	stimuli_distractor_trianglediamonds.svg	stimuli_target_rectanglediamonds.svg	10	yes	53	1	715	0	0			0	0			1				0	
6.6.1	win	2023-06-02	07:53:30	07:57:18	225671	60412f7a5f580407f8e6e615	3	1	practice_slash	5	advance_on_keypress_SLASH	28	stimuli_distractor_trianglediamonds.svg	stimuli_target_rectanglediamonds.svg	10	yes	57	0	565	0	0			0	0			1				0	
6.6.1	win	2023-06-02	07:53:30	07:57:21	228542	60412f7a5f580407f8e6e615	3	1	practice_slash	5	practice_slash	29	stimuli_target_squarediamonds.svg	stimuli_distractor_diamondtriangles.svg	2	yes	53	1	653	0	0			0	0			1				0	
6.6.1	win	2023-06-02	07:53:30	07:57:21	228542	60412f7a5f580407f8e6e615	3	1	practice_slash	5	advance_on_keypress_SLASH	30	stimuli_target_squarediamonds.svg	stimuli_distractor_diamondtriangles.svg	2	yes	57	0	475	0	0			0	0			1				0	
6.6.1	win	2023-06-02	07:53:30	07:57:23	231454	60412f7a5f580407f8e6e615	3	1	practice_slash	5	practice_slash	31	stimuli_target_squarediamonds.svg	stimuli_distractor_trianglediamonds.svg	5	yes	53	1	799	0	0			0	0			1				0	
6.6.1	win	2023-06-02	07:53:30	07:57:23	231454	60412f7a5f580407f8e6e615	3	1	practice_slash	5	advance_on_keypress_SLASH	32	stimuli_target_squarediamonds.svg	stimuli_distractor_trianglediamonds.svg	5	yes	57	0	575	0	0			0	0			1				0	
6.6.1	win	2023-06-02	07:53:30	07:57:36	244038	60412f7a5f580407f8e6e615	3	1	main_slash	7	main_slash	1	stimuli_distractor_trianglediamonds.svg	stimuli_target_squarediamonds.svg	12	yes	53	1	482	0	0			0	0			1				0	
6.6.1	win	2023-06-02	07:53:30	07:57:36	244038	60412f7a5f580407f8e6e615	3	1	main_slash	7	advance_on_keypress_SLASH	2	stimuli_distractor_trianglediamonds.svg	stimuli_target_squarediamonds.svg	12	yes	57	0	703	0	0			0	0			1				0	
6.6.1	win	2023-06-02	07:53:30	07:57:38	246198	60412f7a5f580407f8e6e615	3	1	main_slash	7	main_slash	3	stimuli_target_trianglesquares.svg	stimuli_distractor_diamondtriangles.svg	22	yes	53	1	809	0	0			0	0			1				0	
6.6.1	win	2023-06-02	07:53:30	07:57:38	246198	60412f7a5f580407f8e6e615	3	1	main_slash	7	advance_on_keypress_SLASH	4	stimuli_target_trianglesquares.svg	stimuli_distractor_diamondtriangles.svg	22	yes	57	0	609	0	0			0	0			1				0	
6.6.1	win	2023-06-02	07:53:30	07:57:41	249439	60412f7a5f580407f8e6e615	3	1	main_slash	7	main_slash	5	stimuli_distractor_diamondtriangles.svg	stimuli_distractor_diamondtriangles.svg	39	no	0	1	2000	0	0			0	0			1				0	
6.6.1	win	2023-06-02	07:53:30	07:57:41	249439	60412f7a5f580407f8e6e615	3	1	main_slash	7	advance_on_keypress_SLASH	6	stimuli_distractor_diamondtriangles.svg	stimuli_distractor_diamondtriangles.svg	39	no	57	0	542	0	0			0	0			1				0	
6.6.1	win	2023-06-02	07:53:30	07:57:45	252622	60412f7a5f580407f8e6e615	3	1	main_slash	7	main_slash	7	stimuli_distractor_diamondtriangles.svg	stimuli_distractor_trianglediamonds.svg	37	no	0	1	2000	0	0			0	0			1				0	
6.6.1	win	2023-06-02	07:53:30	07:57:45	252622	60412f7a5f580407f8e6e615	3	1	main_slash	7	advance_on_keypress_SLASH	8	stimuli_distractor_diamondtriangles.svg	stimuli_distractor_trianglediamonds.svg	37	no	57	0	431	0	0			0	0			1				0	
6.6.1	win	2023-06-02	07:53:30	07:57:48	255706	60412f7a5f580407f8e6e615	3	1	main_slash	7	main_slash	9	stimuli_distractor_trianglediamonds.svg	stimuli_distractor_diamondtriangles.svg	36	no	0	1	2000	0	0			0	0			1				0	
6.6.1	win	2023-06-02	07:53:30	07:57:48	255706	60412f7a5f580407f8e6e615	3	1	main_slash	7	advance_on_keypress_SLASH	10	stimuli_distractor_trianglediamonds.svg	stimuli_distractor_diamondtriangles.svg	36	no	57	0	347	0	0			0	0			1				0	
6.6.1	win	2023-06-02	07:53:30	07:57:49	257318	60412f7a5f580407f8e6e615	3	1	main_slash	7	main_slash	11	stimuli_distractor_trianglediamonds.svg	stimuli_target_diamondsquares.svg	28	yes	53	1	612	0	0			0	0			1				0	
6.6.1	win	2023-06-02	07:53:30	07:57:49	257318	60412f7a5f580407f8e6e615	3	1	main_slash	7	advance_on_keypress_SLASH	12	stimuli_distractor_trianglediamonds.svg	stimuli_target_diamondsquares.svg	28	yes	57	0	867	0	0			0	0			1				0	
6.6.1	win	2023-06-02	07:53:30	07:57:53	260822	60412f7a5f580407f8e6e615	3	1	main_slash	7	main_slash	13	stimuli_distractor_diamondtriangles.svg	stimuli_distractor_diamondtriangles.svg	40	no	0	1	2000	0	0			0	0			1				0	
6.6.1	win	2023-06-02	07:53:30	07:57:53	260822	60412f7a5f580407f8e6e615	3	1	main_slash	7	advance_on_keypress_SLASH	14	stimuli_distractor_diamondtriangles.svg	stimuli_distractor_diamondtriangles.svg	40	no	57	0	760	0	0			0	0			1				0	
6.6.1	win	2023-06-02	07:53:30	07:57:55	262862	60412f7a5f580407f8e6e615	3	1	main_slash	7	main_slash	15	stimuli_target_diamondsquares.svg	stimuli_distractor_diamondtriangles.svg	24	yes	53	1	640	0	0			0	0			1				0	
6.6.1	win	2023-06-02	07:53:30	07:57:55	262862	60412f7a5f580407f8e6e615	3	1	main_slash	7	advance_on_keypress_SLASH	16	stimuli_target_diamondsquares.svg	stimuli_distractor_diamondtriangles.svg	24	yes	57	0	622	0	0			0	0			1				0	
6.6.1	win	2023-06-02	07:53:30	07:57:57	264734	60412f7a5f580407f8e6e615	3	1	main_slash	7	main_slash	17	stimuli_target_diamondrectangles.svg	stimuli_distractor_trianglediamonds.svg	19	yes	53	1	611	0	0			0	0			1				0	
6.6.1	win	2023-06-02	07:53:30	07:57:57	264734	60412f7a5f580407f8e6e615	3	1	main_slash	7	advance_on_keypress_SLASH	18	stimuli_target_diamondrectangles.svg	stimuli_distractor_trianglediamonds.svg	19	yes	57	0	579	0	0			0	0			1				0	
6.6.1	win	2023-06-02	07:53:30	07:58:00	267939	60412f7a5f580407f8e6e615	3	1	main_slash	7	main_slash	19	stimuli_distractor_diamondtriangles.svg	stimuli_distractor_trianglediamonds.svg	38	no	0	1	2000	0	0			0	0			1				0	
6.6.1	win	2023-06-02	07:53:30	07:58:00	267939	60412f7a5f580407f8e6e615	3	1	main_slash	7	advance_on_keypress_SLASH	20	stimuli_distractor_diamondtriangles.svg	stimuli_distractor_trianglediamonds.svg	38	no	57	0	451	0	0			0	0			1				0	
6.6.1	win	2023-06-02	07:53:30	07:58:02	269838	60412f7a5f580407f8e6e615	3	1	main_slash	7	main_slash	21	stimuli_target_rectangletriangles.svg	stimuli_distractor_trianglediamonds.svg	1	yes	53	1	798	0	0			0	0			1				0	
6.6.1	win	2023-06-02	07:53:30	07:58:02	269838	60412f7a5f580407f8e6e615	3	1	main_slash	7	advance_on_keypress_SLASH	22	stimuli_target_rectangletriangles.svg	stimuli_distractor_trianglediamonds.svg	1	yes	57	0	525	0	0			0	0			1				0	
6.6.1	win	2023-06-02	07:53:30	07:58:04	271694	60412f7a5f580407f8e6e615	3	1	main_slash	7	main_slash	23	stimuli_target_diamondsquares.svg	stimuli_distractor_trianglediamonds.svg	20	yes	53	1	687	0	0			0	0			1				0	
6.6.1	win	2023-06-02	07:53:30	07:58:04	271694	60412f7a5f580407f8e6e615	3	1	main_slash	7	advance_on_keypress_SLASH	24	stimuli_target_diamondsquares.svg	stimuli_distractor_trianglediamonds.svg	20	yes	57	0	467	0	0			0	0			1				0	
6.6.1	win	2023-06-02	07:53:30	07:58:07	274806	60412f7a5f580407f8e6e615	3	1	main_slash	7	main_slash	25	stimuli_distractor_trianglediamonds.svg	stimuli_distractor_trianglediamonds.svg	34	no	0	1	2000	0	0			0	0			1				0	
6.6.1	win	2023-06-02	07:53:30	07:58:07	274806	60412f7a5f580407f8e6e615	3	1	main_slash	7	advance_on_keypress_SLASH	26	stimuli_distractor_trianglediamonds.svg	stimuli_distractor_trianglediamonds.svg	34	no	57	0	487	0	0			0	0			1				0	
6.6.1	win	2023-06-02	07:53:30	07:58:09	276517	60412f7a5f580407f8e6e615	3	1	main_slash	7	main_slash	27	stimuli_target_diamondrectangles.svg	stimuli_distractor_diamondtriangles.svg	23	yes	53	1	578	0	0			0	0			1				0	
6.6.1	win	2023-06-02	07:53:30	07:58:09	276517	60412f7a5f580407f8e6e615	3	1	main_slash	7	advance_on_keypress_SLASH	28	stimuli_target_diamondrectangles.svg	stimuli_distractor_diamondtriangles.svg	23	yes	57	0	499	0	0			0	0			1				0	
6.6.1	win	2023-06-02	07:53:30	07:58:12	279656	60412f7a5f580407f8e6e615	3	1	main_slash	7	main_slash	29	stimuli_distractor_trianglediamonds.svg	stimuli_distractor_diamondtriangles.svg	35	no	0	1	2000	0	0			0	0			1				0	
6.6.1	win	2023-06-02	07:53:30	07:58:12	279656	60412f7a5f580407f8e6e615	3	1	main_slash	7	advance_on_keypress_SLASH	30	stimuli_distractor_trianglediamonds.svg	stimuli_distractor_diamondtriangles.svg	35	no	57	0	509	0	0			0	0			1				0	
6.6.1	win	2023-06-02	07:53:30	07:58:13	281502	60412f7a5f580407f8e6e615	3	1	main_slash	7	main_slash	31	stimuli_target_squaretriangles.svg	stimuli_distractor_trianglediamonds.svg	3	yes	53	1	696	0	0			0	0			1				0	
6.6.1	win	2023-06-02	07:53:30	07:58:13	281502	60412f7a5f580407f8e6e615	3	1	main_slash	7	advance_on_keypress_SLASH	32	stimuli_target_squaretriangles.svg	stimuli_distractor_trianglediamonds.svg	3	yes	57	0	515	0	0			0	0			1				0	
6.6.1	win	2023-06-02	07:53:30	07:58:15	283175	60412f7a5f580407f8e6e615	3	1	main_slash	7	main_slash	33	stimuli_target_rectanglediamonds.svg	stimuli_distractor_trianglediamonds.svg	2	yes	53	1	517	0	0			0	0			1				0	
6.6.1	win	2023-06-02	07:53:30	07:58:15	283175	60412f7a5f580407f8e6e615	3	1	main_slash	7	advance_on_keypress_SLASH	34	stimuli_target_rectanglediamonds.svg	stimuli_distractor_trianglediamonds.svg	2	yes	57	0	464	0	0			0	0			1				0	
6.6.1	win	2023-06-02	07:53:30	07:58:17	284733	60412f7a5f580407f8e6e615	3	1	main_slash	7	main_slash	35	stimuli_distractor_trianglediamonds.svg	stimuli_target_diamondrectangles.svg	27	yes	53	1	444	0	0			0	0			1				0	
6.6.1	win	2023-06-02	07:53:30	07:58:17	284733	60412f7a5f580407f8e6e615	3	1	main_slash	7	advance_on_keypress_SLASH	36	stimuli_distractor_trianglediamonds.svg	stimuli_target_diamondrectangles.svg	27	yes	57	0	442	0	0			0	0			1				0	
6.6.1	win	2023-06-02	07:53:30	07:58:18	286246	60412f7a5f580407f8e6e615	3	1	main_slash	7	main_slash	37	stimuli_distractor_diamondtriangles.svg	stimuli_target_rectanglediamonds.svg	14	yes	53	1	439	0	0			0	0			1				0	
6.6.1	win	2023-06-02	07:53:30	07:58:18	286246	60412f7a5f580407f8e6e615	3	1	main_slash	7	advance_on_keypress_SLASH	38	stimuli_distractor_diamondtriangles.svg	stimuli_target_rectanglediamonds.svg	14	yes	57	0	261	0	0			0	0			1				0	
6.6.1	win	2023-06-02	07:53:30	07:58:20	287838	60412f7a5f580407f8e6e615	3	1	main_slash	7	main_slash	39	stimuli_distractor_diamondtriangles.svg	stimuli_target_trianglesquares.svg	30	yes	53	1	698	0	0			0	0			1				0	
6.6.1	win	2023-06-02	07:53:30	07:58:20	287838	60412f7a5f580407f8e6e615	3	1	main_slash	7	advance_on_keypress_SLASH	40	stimuli_distractor_diamondtriangles.svg	stimuli_target_trianglesquares.svg	30	yes	57	0	301	0	0			0	0			1				0	
6.6.1	win	2023-06-02	07:53:30	07:58:21	289214	60412f7a5f580407f8e6e615	3	1	main_slash	7	main_slash	41	stimuli_distractor_diamondtriangles.svg	stimuli_target_trianglerectangles.svg	29	yes	53	1	424	0	0			0	0			1				0	
6.6.1	win	2023-06-02	07:53:30	07:58:21	289214	60412f7a5f580407f8e6e615	3	1	main_slash	7	advance_on_keypress_SLASH	42	stimuli_distractor_diamondtriangles.svg	stimuli_target_trianglerectangles.svg	29	yes	57	0	198	0	0			0	0			1				0	
6.6.1	win	2023-06-02	07:53:30	07:58:23	291326	60412f7a5f580407f8e6e615	3	1	main_slash	7	main_slash	43	stimuli_distractor_trianglediamonds.svg	stimuli_target_rectangletriangles.svg	9	yes	53	1	1270	0	0			0	0			1				0	
6.6.1	win	2023-06-02	07:53:30	07:58:23	291326	60412f7a5f580407f8e6e615	3	1	main_slash	7	advance_on_keypress_SLASH	44	stimuli_distractor_trianglediamonds.svg	stimuli_target_rectangletriangles.svg	9	yes	57	0	627	0	0			0	0			1				0	
6.6.1	win	2023-06-02	07:53:30	07:58:25	293054	60412f7a5f580407f8e6e615	3	1	main_slash	7	main_slash	45	stimuli_distractor_trianglediamonds.svg	stimuli_target_trianglesquares.svg	26	yes	53	1	464	0	0			0	0			1				0	
6.6.1	win	2023-06-02	07:53:30	07:58:25	293054	60412f7a5f580407f8e6e615	3	1	main_slash	7	advance_on_keypress_SLASH	46	stimuli_distractor_trianglediamonds.svg	stimuli_target_trianglesquares.svg	26	yes	57	0	260	0	0			0	0			1				0	
6.6.1	win	2023-06-02	07:53:30	07:58:27	294622	60412f7a5f580407f8e6e615	3	1	main_slash	7	main_slash	47	stimuli_target_trianglerectangles.svg	stimuli_distractor_trianglediamonds.svg	17	yes	53	1	665	0	0			0	0			1				0	
6.6.1	win	2023-06-02	07:53:30	07:58:27	294622	60412f7a5f580407f8e6e615	3	1	main_slash	7	advance_on_keypress_SLASH	48	stimuli_target_trianglerectangles.svg	stimuli_distractor_trianglediamonds.svg	17	yes	57	0	269	0	0			0	0			1				0	
6.6.1	win	2023-06-02	07:53:30	07:58:29	296902	60412f7a5f580407f8e6e615	3	1	main_slash	7	main_slash	49	stimuli_distractor_trianglediamonds.svg	stimuli_target_squaretriangles.svg	11	yes	53	1	1361	0	0			0	0			1				0	
6.6.1	win	2023-06-02	07:53:30	07:58:29	296902	60412f7a5f580407f8e6e615	3	1	main_slash	7	advance_on_keypress_SLASH	50	stimuli_distractor_trianglediamonds.svg	stimuli_target_squaretriangles.svg	11	yes	57	0	491	0	0			0	0			1				0	
6.6.1	win	2023-06-02	07:53:30	07:58:30	298493	60412f7a5f580407f8e6e615	3	1	main_slash	7	main_slash	51	stimuli_distractor_trianglediamonds.svg	stimuli_target_trianglerectangles.svg	25	yes	53	1	470	0	0			0	0			1				0	
6.6.1	win	2023-06-02	07:53:30	07:58:30	298493	60412f7a5f580407f8e6e615	3	1	main_slash	7	advance_on_keypress_SLASH	52	stimuli_distractor_trianglediamonds.svg	stimuli_target_trianglerectangles.svg	25	yes	57	0	364	0	0			0	0			1				0	
6.6.1	win	2023-06-02	07:53:30	07:58:32	300030	60412f7a5f580407f8e6e615	3	1	main_slash	7	main_slash	53	stimuli_target_squaretriangles.svg	stimuli_distractor_diamondtriangles.svg	7	yes	53	1	523	0	0			0	0			1				0	
6.6.1	win	2023-06-02	07:53:30	07:58:32	300030	60412f7a5f580407f8e6e615	3	1	main_slash	7	advance_on_keypress_SLASH	54	stimuli_target_squaretriangles.svg	stimuli_distractor_diamondtriangles.svg	7	yes	57	0	254	0	0			0	0			1				0	
6.6.1	win	2023-06-02	07:53:30	07:58:33	301333	60412f7a5f580407f8e6e615	3	1	main_slash	7	main_slash	55	stimuli_distractor_diamondtriangles.svg	stimuli_target_diamondsquares.svg	32	yes	53	1	410	0	0			0	0			1				0	
6.6.1	win	2023-06-02	07:53:30	07:58:33	301333	60412f7a5f580407f8e6e615	3	1	main_slash	7	advance_on_keypress_SLASH	56	stimuli_distractor_diamondtriangles.svg	stimuli_target_diamondsquares.svg	32	yes	57	0	185	0	0			0	0			1				0	
6.6.1	win	2023-06-02	07:53:30	07:58:35	302694	60412f7a5f580407f8e6e615	3	1	main_slash	7	main_slash	57	stimuli_target_trianglerectangles.svg	stimuli_distractor_diamondtriangles.svg	21	yes	53	1	537	0	0			0	0			1				0	
6.6.1	win	2023-06-02	07:53:30	07:58:35	302694	60412f7a5f580407f8e6e615	3	1	main_slash	7	advance_on_keypress_SLASH	58	stimuli_target_trianglerectangles.svg	stimuli_distractor_diamondtriangles.svg	21	yes	57	0	251	0	0			0	0			1				0	
6.6.1	win	2023-06-02	07:53:30	07:58:36	304061	60412f7a5f580407f8e6e615	3	1	main_slash	7	main_slash	59	stimuli_target_squarediamonds.svg	stimuli_distractor_trianglediamonds.svg	4	yes	53	1	471	0	0			0	0			1				0	
6.6.1	win	2023-06-02	07:53:30	07:58:36	304061	60412f7a5f580407f8e6e615	3	1	main_slash	7	advance_on_keypress_SLASH	60	stimuli_target_squarediamonds.svg	stimuli_distractor_trianglediamonds.svg	4	yes	57	0	204	0	0			0	0			1				0	
6.6.1	win	2023-06-02	07:53:30	07:58:37	305391	60412f7a5f580407f8e6e615	3	1	main_slash	7	main_slash	61	stimuli_target_squarediamonds.svg	stimuli_distractor_diamondtriangles.svg	8	yes	53	1	484	0	0			0	0			1				0	
6.6.1	win	2023-06-02	07:53:30	07:58:37	305391	60412f7a5f580407f8e6e615	3	1	main_slash	7	advance_on_keypress_SLASH	62	stimuli_target_squarediamonds.svg	stimuli_distractor_diamondtriangles.svg	8	yes	57	0	134	0	0			0	0			1				0	
6.6.1	win	2023-06-02	07:53:30	07:58:39	306559	60412f7a5f580407f8e6e615	3	1	main_slash	7	main_slash	63	stimuli_target_rectangletriangles.svg	stimuli_distractor_diamondtriangles.svg	5	yes	53	1	384	0	0			0	0			1				0	
6.6.1	win	2023-06-02	07:53:30	07:58:39	306559	60412f7a5f580407f8e6e615	3	1	main_slash	7	advance_on_keypress_SLASH	64	stimuli_target_rectangletriangles.svg	stimuli_distractor_diamondtriangles.svg	5	yes	57	0	104	0	0			0	0			1				0	
6.6.1	win	2023-06-02	07:53:30	07:58:40	307702	60412f7a5f580407f8e6e615	3	1	main_slash	7	main_slash	65	stimuli_distractor_diamondtriangles.svg	stimuli_target_squarediamonds.svg	16	yes	53	1	394	0	0			0	0			1				0	
6.6.1	win	2023-06-02	07:53:30	07:58:40	307702	60412f7a5f580407f8e6e615	3	1	main_slash	7	advance_on_keypress_SLASH	66	stimuli_distractor_diamondtriangles.svg	stimuli_target_squarediamonds.svg	16	yes	57	0	162	0	0			0	0			1				0	
6.6.1	win	2023-06-02	07:53:30	07:58:41	308855	60412f7a5f580407f8e6e615	3	1	main_slash	7	main_slash	67	stimuli_target_rectanglediamonds.svg	stimuli_distractor_diamondtriangles.svg	6	yes	53	1	364	0	0			0	0			1				0	
6.6.1	win	2023-06-02	07:53:30	07:58:41	308855	60412f7a5f580407f8e6e615	3	1	main_slash	7	advance_on_keypress_SLASH	68	stimuli_target_rectanglediamonds.svg	stimuli_distractor_diamondtriangles.svg	6	yes	57	0	116	0	0			0	0			1				0	
6.6.1	win	2023-06-02	07:53:30	07:58:44	311624	60412f7a5f580407f8e6e615	3	1	main_slash	7	main_slash	69	stimuli_distractor_trianglediamonds.svg	stimuli_distractor_trianglediamonds.svg	33	no	0	1	2000	0	0			0	0			1				0	
6.6.1	win	2023-06-02	07:53:30	07:58:44	311624	60412f7a5f580407f8e6e615	3	1	main_slash	7	advance_on_keypress_SLASH	70	stimuli_distractor_trianglediamonds.svg	stimuli_distractor_trianglediamonds.svg	33	no	57	0	446	0	0			0	0			1				0	
6.6.1	win	2023-06-02	07:53:30	07:58:45	313189	60412f7a5f580407f8e6e615	3	1	main_slash	7	main_slash	71	stimuli_distractor_diamondtriangles.svg	stimuli_target_squaretriangles.svg	15	yes	53	1	482	0	0			0	0			1				0	
6.6.1	win	2023-06-02	07:53:30	07:58:45	313189	60412f7a5f580407f8e6e615	3	1	main_slash	7	advance_on_keypress_SLASH	72	stimuli_distractor_diamondtriangles.svg	stimuli_target_squaretriangles.svg	15	yes	57	0	495	0	0			0	0			1				0	
6.6.1	win	2023-06-02	07:53:30	07:58:47	314707	60412f7a5f580407f8e6e615	3	1	main_slash	7	main_slash	73	stimuli_distractor_diamondtriangles.svg	stimuli_target_diamondrectangles.svg	31	yes	53	1	378	0	0			0	0			1				0	
6.6.1	win	2023-06-02	07:53:30	07:58:47	314707	60412f7a5f580407f8e6e615	3	1	main_slash	7	advance_on_keypress_SLASH	74	stimuli_distractor_diamondtriangles.svg	stimuli_target_diamondrectangles.svg	31	yes	57	0	283	0	0			0	0			1				0	
6.6.1	win	2023-06-02	07:53:30	07:58:50	317641	60412f7a5f580407f8e6e615	3	1	main_slash	7	main_slash	75	stimuli_distractor_diamondtriangles.svg	stimuli_target_rectangletriangles.svg	13	yes	0	0	2000	0	0			0	0			1				0	
6.6.1	win	2023-06-02	07:53:30	07:58:50	317641	60412f7a5f580407f8e6e615	3	1	main_slash	7	advance_on_keypress_SLASH	76	stimuli_distractor_diamondtriangles.svg	stimuli_target_rectangletriangles.svg	13	yes	57	0	892	0	0			0	0			1				0	
6.6.1	win	2023-06-02	07:53:30	07:58:52	319798	60412f7a5f580407f8e6e615	3	1	main_slash	7	main_slash	77	stimuli_target_trianglesquares.svg	stimuli_distractor_trianglediamonds.svg	18	yes	53	1	624	0	0			0	0			1				0	
6.6.1	win	2023-06-02	07:53:30	07:58:52	319798	60412f7a5f580407f8e6e615	3	1	main_slash	7	advance_on_keypress_SLASH	78	stimuli_target_trianglesquares.svg	stimuli_distractor_trianglediamonds.svg	18	yes	57	0	502	0	0			0	0			1				0	
6.6.1	win	2023-06-02	07:53:30	07:58:53	321323	60412f7a5f580407f8e6e615	3	1	main_slash	7	main_slash	79	stimuli_distractor_trianglediamonds.svg	stimuli_target_rectanglediamonds.svg	10	yes	53	1	377	0	0			0	0			1				0	
6.6.1	win	2023-06-02	07:53:30	07:58:53	321323	60412f7a5f580407f8e6e615	3	1	main_slash	7	advance_on_keypress_SLASH	80	stimuli_distractor_trianglediamonds.svg	stimuli_target_rectanglediamonds.svg	10	yes	57	0	193	0	0			0	0			1				0	
6.6.1	win	2023-06-02	07:53:30	07:58:55	322640	60412f7a5f580407f8e6e615	3	1	main_slash	7	main_slash	81	stimuli_distractor_diamondtriangles.svg	stimuli_target_diamondrectangles.svg	31	yes	53	1	482	0	0			0	0			1				0	
6.6.1	win	2023-06-02	07:53:30	07:58:55	322640	60412f7a5f580407f8e6e615	3	1	main_slash	7	advance_on_keypress_SLASH	82	stimuli_distractor_diamondtriangles.svg	stimuli_target_diamondrectangles.svg	31	yes	57	0	132	0	0			0	0			1				0	
6.6.1	win	2023-06-02	07:53:30	07:58:56	323807	60412f7a5f580407f8e6e615	3	1	main_slash	7	main_slash	83	stimuli_distractor_trianglediamonds.svg	stimuli_target_rectangletriangles.svg	9	yes	53	1	381	0	0			0	0			1				0	
6.6.1	win	2023-06-02	07:53:30	07:58:56	323807	60412f7a5f580407f8e6e615	3	1	main_slash	7	advance_on_keypress_SLASH	84	stimuli_distractor_trianglediamonds.svg	stimuli_target_rectangletriangles.svg	9	yes	57	0	157	0	0			0	0			1				0	
6.6.1	win	2023-06-02	07:53:30	07:58:57	324990	60412f7a5f580407f8e6e615	3	1	main_slash	7	main_slash	85	stimuli_target_rectanglediamonds.svg	stimuli_distractor_trianglediamonds.svg	2	yes	53	1	374	0	0			0	0			1				0	
6.6.1	win	2023-06-02	07:53:30	07:58:57	324990	60412f7a5f580407f8e6e615	3	1	main_slash	7	advance_on_keypress_SLASH	86	stimuli_target_rectanglediamonds.svg	stimuli_distractor_trianglediamonds.svg	2	yes	57	0	182	0	0			0	0			1				0	
6.6.1	win	2023-06-02	07:53:30	07:58:58	326174	60412f7a5f580407f8e6e615	3	1	main_slash	7	main_slash	87	stimuli_target_squarediamonds.svg	stimuli_distractor_trianglediamonds.svg	4	yes	53	1	349	0	0			0	0			1				0	
6.6.1	win	2023-06-02	07:53:30	07:58:58	326174	60412f7a5f580407f8e6e615	3	1	main_slash	7	advance_on_keypress_SLASH	88	stimuli_target_squarediamonds.svg	stimuli_distractor_trianglediamonds.svg	4	yes	57	0	184	0	0			0	0			1				0	
6.6.1	win	2023-06-02	07:53:30	07:58:59	327350	60412f7a5f580407f8e6e615	3	1	main_slash	7	main_slash	89	stimuli_target_rectangletriangles.svg	stimuli_distractor_diamondtriangles.svg	5	yes	53	1	342	0	0			0	0			1				0	
6.6.1	win	2023-06-02	07:53:30	07:58:59	327350	60412f7a5f580407f8e6e615	3	1	main_slash	7	advance_on_keypress_SLASH	90	stimuli_target_rectangletriangles.svg	stimuli_distractor_diamondtriangles.svg	5	yes	57	0	184	0	0			0	0			1				0	
6.6.1	win	2023-06-02	07:53:30	07:59:01	328557	60412f7a5f580407f8e6e615	3	1	main_slash	7	main_slash	91	stimuli_target_diamondsquares.svg	stimuli_distractor_diamondtriangles.svg	24	yes	53	1	375	0	0			0	0			1				0	
6.6.1	win	2023-06-02	07:53:30	07:59:01	328557	60412f7a5f580407f8e6e615	3	1	main_slash	7	advance_on_keypress_SLASH	92	stimuli_target_diamondsquares.svg	stimuli_distractor_diamondtriangles.svg	24	yes	57	0	207	0	0			0	0			1				0	
6.6.1	win	2023-06-02	07:53:30	07:59:02	329886	60412f7a5f580407f8e6e615	3	1	main_slash	7	main_slash	93	stimuli_target_diamondrectangles.svg	stimuli_distractor_trianglediamonds.svg	19	yes	53	1	478	0	0			0	0			1				0	
6.6.1	win	2023-06-02	07:53:30	07:59:02	329886	60412f7a5f580407f8e6e615	3	1	main_slash	7	advance_on_keypress_SLASH	94	stimuli_target_diamondrectangles.svg	stimuli_distractor_trianglediamonds.svg	19	yes	57	0	162	0	0			0	0			1				0	
6.6.1	win	2023-06-02	07:53:30	07:59:03	331358	60412f7a5f580407f8e6e615	3	1	main_slash	7	main_slash	95	stimuli_distractor_trianglediamonds.svg	stimuli_target_trianglerectangles.svg	25	yes	53	1	684	0	0			0	0			1				0	
6.6.1	win	2023-06-02	07:53:30	07:59:03	331358	60412f7a5f580407f8e6e615	3	1	main_slash	7	advance_on_keypress_SLASH	96	stimuli_distractor_trianglediamonds.svg	stimuli_target_trianglerectangles.svg	25	yes	57	0	255	0	0			0	0			1				0	
6.6.1	win	2023-06-02	07:53:30	07:59:05	332718	60412f7a5f580407f8e6e615	3	1	main_slash	7	main_slash	97	stimuli_distractor_trianglediamonds.svg	stimuli_target_rectanglediamonds.svg	10	yes	53	1	461	0	0			0	0			1				0	
6.6.1	win	2023-06-02	07:53:30	07:59:05	332718	60412f7a5f580407f8e6e615	3	1	main_slash	7	advance_on_keypress_SLASH	98	stimuli_distractor_trianglediamonds.svg	stimuli_target_rectanglediamonds.svg	10	yes	57	0	297	0	0			0	0			1				0	
6.6.1	win	2023-06-02	07:53:30	07:59:06	334022	60412f7a5f580407f8e6e615	3	1	main_slash	7	main_slash	99	stimuli_target_diamondsquares.svg	stimuli_distractor_trianglediamonds.svg	20	yes	53	1	364	0	0			0	0			1				0	
6.6.1	win	2023-06-02	07:53:30	07:59:06	334022	60412f7a5f580407f8e6e615	3	1	main_slash	7	advance_on_keypress_SLASH	100	stimuli_target_diamondsquares.svg	stimuli_distractor_trianglediamonds.svg	20	yes	57	0	100	0	0			0	0			1				0	
6.6.1	win	2023-06-02	07:53:30	07:59:07	335157	60412f7a5f580407f8e6e615	3	1	main_slash	7	main_slash	101	stimuli_distractor_diamondtriangles.svg	stimuli_target_trianglesquares.svg	30	yes	53	1	375	0	0			0	0			1				0	
6.6.1	win	2023-06-02	07:53:30	07:59:07	335157	60412f7a5f580407f8e6e615	3	1	main_slash	7	advance_on_keypress_SLASH	102	stimuli_distractor_diamondtriangles.svg	stimuli_target_trianglesquares.svg	30	yes	57	0	231	0	0			0	0			1				0	
6.6.1	win	2023-06-02	07:53:30	07:59:10	338041	60412f7a5f580407f8e6e615	3	1	main_slash	7	main_slash	103	stimuli_distractor_trianglediamonds.svg	stimuli_distractor_diamondtriangles.svg	35	no	0	1	2000	0	0			0	0			1				0	
6.6.1	win	2023-06-02	07:53:30	07:59:10	338041	60412f7a5f580407f8e6e615	3	1	main_slash	7	advance_on_keypress_SLASH	104	stimuli_distractor_trianglediamonds.svg	stimuli_distractor_diamondtriangles.svg	35	no	57	0	596	0	0			0	0			1				0	
6.6.1	win	2023-06-02	07:53:30	07:59:12	339710	60412f7a5f580407f8e6e615	3	1	main_slash	7	main_slash	105	stimuli_target_diamondrectangles.svg	stimuli_distractor_diamondtriangles.svg	23	yes	53	1	435	0	0			0	0			1				0	
6.6.1	win	2023-06-02	07:53:30	07:59:12	339710	60412f7a5f580407f8e6e615	3	1	main_slash	7	advance_on_keypress_SLASH	106	stimuli_target_diamondrectangles.svg	stimuli_distractor_diamondtriangles.svg	23	yes	57	0	561	0	0			0	0			1				0	
6.6.1	win	2023-06-02	07:53:30	07:59:13	341302	60412f7a5f580407f8e6e615	3	1	main_slash	7	main_slash	107	stimuli_target_trianglesquares.svg	stimuli_distractor_trianglediamonds.svg	18	yes	53	1	394	0	0			0	0			1				0	
6.6.1	win	2023-06-02	07:53:30	07:59:13	341302	60412f7a5f580407f8e6e615	3	1	main_slash	7	advance_on_keypress_SLASH	108	stimuli_target_trianglesquares.svg	stimuli_distractor_trianglediamonds.svg	18	yes	57	0	347	0	0			0	0			1				0	
6.6.1	win	2023-06-02	07:53:30	07:59:15	342670	60412f7a5f580407f8e6e615	3	1	main_slash	7	main_slash	109	stimuli_distractor_diamondtriangles.svg	stimuli_target_squaretriangles.svg	15	yes	53	1	396	0	0			0	0			1				0	
6.6.1	win	2023-06-02	07:53:30	07:59:15	342670	60412f7a5f580407f8e6e615	3	1	main_slash	7	advance_on_keypress_SLASH	110	stimuli_distractor_diamondtriangles.svg	stimuli_target_squaretriangles.svg	15	yes	57	0	388	0	0			0	0			1				0	
6.6.1	win	2023-06-02	07:53:30	07:59:16	344074	60412f7a5f580407f8e6e615	3	1	main_slash	7	main_slash	111	stimuli_target_squarediamonds.svg	stimuli_distractor_diamondtriangles.svg	8	yes	53	1	379	0	0			0	0			1				0	
6.6.1	win	2023-06-02	07:53:30	07:59:16	344074	60412f7a5f580407f8e6e615	3	1	main_slash	7	advance_on_keypress_SLASH	112	stimuli_target_squarediamonds.svg	stimuli_distractor_diamondtriangles.svg	8	yes	57	0	378	0	0			0	0			1				0	
6.6.1	win	2023-06-02	07:53:30	07:59:17	345478	60412f7a5f580407f8e6e615	3	1	main_slash	7	main_slash	113	stimuli_target_squaretriangles.svg	stimuli_distractor_trianglediamonds.svg	3	yes	53	1	386	0	0			0	0			1				0	
6.6.1	win	2023-06-02	07:53:30	07:59:17	345478	60412f7a5f580407f8e6e615	3	1	main_slash	7	advance_on_keypress_SLASH	114	stimuli_target_squaretriangles.svg	stimuli_distractor_trianglediamonds.svg	3	yes	57	0	250	0	0			0	0			1				0	
6.6.1	win	2023-06-02	07:53:30	07:59:19	346869	60412f7a5f580407f8e6e615	3	1	main_slash	7	main_slash	115	stimuli_target_squaretriangles.svg	stimuli_distractor_diamondtriangles.svg	7	yes	53	1	495	0	0			0	0			1				0	
6.6.1	win	2023-06-02	07:53:30	07:59:19	346869	60412f7a5f580407f8e6e615	3	1	main_slash	7	advance_on_keypress_SLASH	116	stimuli_target_squaretriangles.svg	stimuli_distractor_diamondtriangles.svg	7	yes	57	0	243	0	0			0	0			1				0	
6.6.1	win	2023-06-02	07:53:30	07:59:21	348582	60412f7a5f580407f8e6e615	3	1	main_slash	7	main_slash	117	stimuli_target_trianglesquares.svg	stimuli_distractor_diamondtriangles.svg	22	yes	53	1	841	0	0			0	0			1				0	
6.6.1	win	2023-06-02	07:53:30	07:59:21	348582	60412f7a5f580407f8e6e615	3	1	main_slash	7	advance_on_keypress_SLASH	118	stimuli_target_trianglesquares.svg	stimuli_distractor_diamondtriangles.svg	22	yes	57	0	366	0	0			0	0			1				0	
6.6.1	win	2023-06-02	07:53:30	07:59:22	349981	60412f7a5f580407f8e6e615	3	1	main_slash	7	main_slash	119	stimuli_distractor_diamondtriangles.svg	stimuli_target_squarediamonds.svg	16	yes	53	1	390	0	0			0	0			1				0	
6.6.1	win	2023-06-02	07:53:30	07:59:22	349981	60412f7a5f580407f8e6e615	3	1	main_slash	7	advance_on_keypress_SLASH	120	stimuli_distractor_diamondtriangles.svg	stimuli_target_squarediamonds.svg	16	yes	57	0	206	0	0			0	0			1				0	
6.6.1	win	2023-06-02	07:53:30	07:59:25	352825	60412f7a5f580407f8e6e615	3	1	main_slash	7	main_slash	121	stimuli_distractor_diamondtriangles.svg	stimuli_distractor_diamondtriangles.svg	40	no	0	1	2000	0	0			0	0			1				0	
6.6.1	win	2023-06-02	07:53:30	07:59:25	352825	60412f7a5f580407f8e6e615	3	1	main_slash	7	advance_on_keypress_SLASH	122	stimuli_distractor_diamondtriangles.svg	stimuli_distractor_diamondtriangles.svg	40	no	57	0	1244	0	0			0	0			1				0	
6.6.1	win	2023-06-02	07:53:30	07:59:27	355091	60412f7a5f580407f8e6e615	3	1	main_slash	7	main_slash	123	stimuli_distractor_trianglediamonds.svg	stimuli_target_squarediamonds.svg	12	yes	53	1	377	0	0			0	0			1				0	
6.6.1	win	2023-06-02	07:53:30	07:59:27	355091	60412f7a5f580407f8e6e615	3	1	main_slash	7	advance_on_keypress_SLASH	124	stimuli_distractor_trianglediamonds.svg	stimuli_target_squarediamonds.svg	12	yes	57	0	225	0	0			0	0			1				0	
6.6.1	win	2023-06-02	07:53:30	07:59:29	356704	60412f7a5f580407f8e6e615	3	1	main_slash	7	main_slash	125	stimuli_target_trianglerectangles.svg	stimuli_distractor_trianglediamonds.svg	17	yes	53	1	745	0	0			0	0			1				0	
6.6.1	win	2023-06-02	07:53:30	07:59:29	356704	60412f7a5f580407f8e6e615	3	1	main_slash	7	advance_on_keypress_SLASH	126	stimuli_target_trianglerectangles.svg	stimuli_distractor_trianglediamonds.svg	17	yes	57	0	473	0	0			0	0			1				0	
6.6.1	win	2023-06-02	07:53:30	07:59:30	358486	60412f7a5f580407f8e6e615	3	1	main_slash	7	main_slash	127	stimuli_distractor_trianglediamonds.svg	stimuli_target_squaretriangles.svg	11	yes	53	1	677	0	0			0	0			1				0	
6.6.1	win	2023-06-02	07:53:30	07:59:30	358486	60412f7a5f580407f8e6e615	3	1	main_slash	7	advance_on_keypress_SLASH	128	stimuli_distractor_trianglediamonds.svg	stimuli_target_squaretriangles.svg	11	yes	57	0	338	0	0			0	0			1				0	
6.6.1	win	2023-06-02	07:53:30	07:59:32	360046	60412f7a5f580407f8e6e615	3	1	main_slash	7	main_slash	129	stimuli_distractor_diamondtriangles.svg	stimuli_target_trianglerectangles.svg	29	yes	53	1	587	0	0			0	0			1				0	
6.6.1	win	2023-06-02	07:53:30	07:59:32	360046	60412f7a5f580407f8e6e615	3	1	main_slash	7	advance_on_keypress_SLASH	130	stimuli_distractor_diamondtriangles.svg	stimuli_target_trianglerectangles.svg	29	yes	57	0	299	0	0			0	0			1				0	
6.6.1	win	2023-06-02	07:53:30	07:59:33	361446	60412f7a5f580407f8e6e615	3	1	main_slash	7	main_slash	131	stimuli_distractor_diamondtriangles.svg	stimuli_target_rectangletriangles.svg	13	yes	53	1	455	0	0			0	0			1				0	
6.6.1	win	2023-06-02	07:53:30	07:59:33	361446	60412f7a5f580407f8e6e615	3	1	main_slash	7	advance_on_keypress_SLASH	132	stimuli_distractor_diamondtriangles.svg	stimuli_target_rectangletriangles.svg	13	yes	57	0	227	0	0			0	0			1				0	
6.6.1	win	2023-06-02	07:53:30	07:59:35	362691	60412f7a5f580407f8e6e615	3	1	main_slash	7	main_slash	133	stimuli_distractor_trianglediamonds.svg	stimuli_target_diamondrectangles.svg	27	yes	53	1	377	0	0			0	0			1				0	
6.6.1	win	2023-06-02	07:53:30	07:59:35	362691	60412f7a5f580407f8e6e615	3	1	main_slash	7	advance_on_keypress_SLASH	134	stimuli_distractor_trianglediamonds.svg	stimuli_target_diamondrectangles.svg	27	yes	57	0	185	0	0			0	0			1				0	
6.6.1	win	2023-06-02	07:53:30	07:59:36	363878	60412f7a5f580407f8e6e615	3	1	main_slash	7	main_slash	135	stimuli_target_trianglerectangles.svg	stimuli_distractor_diamondtriangles.svg	21	yes	53	1	353	0	0			0	0			1				0	
6.6.1	win	2023-06-02	07:53:30	07:59:36	363878	60412f7a5f580407f8e6e615	3	1	main_slash	7	advance_on_keypress_SLASH	136	stimuli_target_trianglerectangles.svg	stimuli_distractor_diamondtriangles.svg	21	yes	57	0	208	0	0			0	0			1				0	
6.6.1	win	2023-06-02	07:53:30	07:59:39	366726	60412f7a5f580407f8e6e615	3	1	main_slash	7	main_slash	137	stimuli_distractor_trianglediamonds.svg	stimuli_distractor_diamondtriangles.svg	36	no	0	1	2000	0	0			0	0			1				0	
6.6.1	win	2023-06-02	07:53:30	07:59:39	366726	60412f7a5f580407f8e6e615	3	1	main_slash	7	advance_on_keypress_SLASH	138	stimuli_distractor_trianglediamonds.svg	stimuli_distractor_diamondtriangles.svg	36	no	57	0	328	0	0			0	0			1				0	
6.6.1	win	2023-06-02	07:53:30	07:59:40	368046	60412f7a5f580407f8e6e615	3	1	main_slash	7	main_slash	139	stimuli_distractor_diamondtriangles.svg	stimuli_target_rectanglediamonds.svg	14	yes	53	1	354	0	0			0	0			1				0	
6.6.1	win	2023-06-02	07:53:30	07:59:40	368046	60412f7a5f580407f8e6e615	3	1	main_slash	7	advance_on_keypress_SLASH	140	stimuli_distractor_diamondtriangles.svg	stimuli_target_rectanglediamonds.svg	14	yes	57	0	236	0	0			0	0			1				0	
6.6.1	win	2023-06-02	07:53:30	07:59:41	369262	60412f7a5f580407f8e6e615	3	1	main_slash	7	main_slash	141	stimuli_distractor_trianglediamonds.svg	stimuli_target_diamondsquares.svg	28	yes	53	1	336	0	0			0	0			1				0	
6.6.1	win	2023-06-02	07:53:30	07:59:41	369262	60412f7a5f580407f8e6e615	3	1	main_slash	7	advance_on_keypress_SLASH	142	stimuli_distractor_trianglediamonds.svg	stimuli_target_diamondsquares.svg	28	yes	57	0	602	0	0			0	0			1				0	
6.6.1	win	2023-06-02	07:53:30	07:59:43	371102	60412f7a5f580407f8e6e615	3	1	main_slash	7	main_slash	143	stimuli_target_rectangletriangles.svg	stimuli_distractor_trianglediamonds.svg	1	yes	53	1	594	0	0			0	0			1				0	
6.6.1	win	2023-06-02	07:53:30	07:59:43	371102	60412f7a5f580407f8e6e615	3	1	main_slash	7	advance_on_keypress_SLASH	144	stimuli_target_rectangletriangles.svg	stimuli_distractor_trianglediamonds.svg	1	yes	57	0	417	0	0			0	0			1				0	
6.6.1	win	2023-06-02	07:53:30	07:59:45	372509	60412f7a5f580407f8e6e615	3	1	main_slash	7	main_slash	145	stimuli_distractor_diamondtriangles.svg	stimuli_target_diamondsquares.svg	32	yes	53	1	351	0	0			0	0			1				0	
6.6.1	win	2023-06-02	07:53:30	07:59:45	372509	60412f7a5f580407f8e6e615	3	1	main_slash	7	advance_on_keypress_SLASH	146	stimuli_distractor_diamondtriangles.svg	stimuli_target_diamondsquares.svg	32	yes	57	0	216	0	0			0	0			1				0	
6.6.1	win	2023-06-02	07:53:30	07:59:46	373814	60412f7a5f580407f8e6e615	3	1	main_slash	7	main_slash	147	stimuli_distractor_trianglediamonds.svg	stimuli_target_trianglesquares.svg	26	yes	53	1	439	0	0			0	0			1				0	
6.6.1	win	2023-06-02	07:53:30	07:59:46	373814	60412f7a5f580407f8e6e615	3	1	main_slash	7	advance_on_keypress_SLASH	148	stimuli_distractor_trianglediamonds.svg	stimuli_target_trianglesquares.svg	26	yes	57	0	140	0	0			0	0			1				0	
6.6.1	win	2023-06-02	07:53:30	07:59:47	374958	60412f7a5f580407f8e6e615	3	1	main_slash	7	main_slash	149	stimuli_distractor_diamondtriangles.svg	stimuli_distractor_trianglediamonds.svg	37	no	53	0	365	0	0			0	0			1				0	
6.6.1	win	2023-06-02	07:53:30	07:59:47	374958	60412f7a5f580407f8e6e615	3	1	main_slash	7	advance_on_keypress_SLASH	150	stimuli_distractor_diamondtriangles.svg	stimuli_distractor_trianglediamonds.svg	37	no	57	0	135	0	0			0	0			1				0	
6.6.1	win	2023-06-02	07:53:30	07:59:50	377743	60412f7a5f580407f8e6e615	3	1	main_slash	7	main_slash	151	stimuli_distractor_trianglediamonds.svg	stimuli_distractor_trianglediamonds.svg	33	no	0	1	2000	0	0			0	0			1				0	
6.6.1	win	2023-06-02	07:53:30	07:59:50	377743	60412f7a5f580407f8e6e615	3	1	main_slash	7	advance_on_keypress_SLASH	152	stimuli_distractor_trianglediamonds.svg	stimuli_distractor_trianglediamonds.svg	33	no	57	0	342	0	0			0	0			1				0	
6.6.1	win	2023-06-02	07:53:30	07:59:53	380726	60412f7a5f580407f8e6e615	3	1	main_slash	7	main_slash	153	stimuli_distractor_diamondtriangles.svg	stimuli_distractor_diamondtriangles.svg	39	no	0	1	2000	0	0			0	0			1				0	
6.6.1	win	2023-06-02	07:53:30	07:59:53	380726	60412f7a5f580407f8e6e615	3	1	main_slash	7	advance_on_keypress_SLASH	154	stimuli_distractor_diamondtriangles.svg	stimuli_distractor_diamondtriangles.svg	39	no	57	0	359	0	0			0	0			1				0	
6.6.1	win	2023-06-02	07:53:30	07:59:56	383726	60412f7a5f580407f8e6e615	3	1	main_slash	7	main_slash	155	stimuli_distractor_diamondtriangles.svg	stimuli_distractor_trianglediamonds.svg	38	no	0	1	2000	0	0			0	0			1				0	
6.6.1	win	2023-06-02	07:53:30	07:59:56	383726	60412f7a5f580407f8e6e615	3	1	main_slash	7	advance_on_keypress_SLASH	156	stimuli_distractor_diamondtriangles.svg	stimuli_distractor_trianglediamonds.svg	38	no	57	0	560	0	0			0	0			1				0	
6.6.1	win	2023-06-02	07:53:30	07:59:58	385590	60412f7a5f580407f8e6e615	3	1	main_slash	7	main_slash	157	stimuli_target_rectanglediamonds.svg	stimuli_distractor_diamondtriangles.svg	6	yes	53	1	665	0	0			0	0			1				0	
6.6.1	win	2023-06-02	07:53:30	07:59:58	385590	60412f7a5f580407f8e6e615	3	1	main_slash	7	advance_on_keypress_SLASH	158	stimuli_target_rectanglediamonds.svg	stimuli_distractor_diamondtriangles.svg	6	yes	57	0	509	0	0			0	0			1				0	
6.6.1	win	2023-06-02	07:53:30	08:00:01	388743	60412f7a5f580407f8e6e615	3	1	main_slash	7	main_slash	159	stimuli_distractor_trianglediamonds.svg	stimuli_distractor_trianglediamonds.svg	34	no	0	1	2000	0	0			0	0			1				0	
6.6.1	win	2023-06-02	07:53:30	08:00:01	388743	60412f7a5f580407f8e6e615	3	1	main_slash	7	advance_on_keypress_SLASH	160	stimuli_distractor_trianglediamonds.svg	stimuli_distractor_trianglediamonds.svg	34	no	57	0	463	0	0			0	0			1				0	
6.6.1	win	2023-06-02	07:53:30	08:00:24	411879	60412f7a5f580407f8e6e615	3	1	practice_z	9	practice_z	1	stimuli_target_rectanglediamonds.svg	stimuli_distractor_trianglediamonds.svg	4	yes	44	1	517	0	0			0	0			1				0	
6.6.1	win	2023-06-02	07:53:30	08:00:24	411879	60412f7a5f580407f8e6e615	3	1	practice_z	9	advance_on_keypress_ZEE	2	stimuli_target_rectanglediamonds.svg	stimuli_distractor_trianglediamonds.svg	4	yes	57	0	617	0	0			0	0			1				0	
6.6.1	win	2023-06-02	07:53:30	08:00:28	416144	60412f7a5f580407f8e6e615	3	1	practice_z	9	practice_z	3	stimuli_distractor_trianglediamonds.svg	stimuli_distractor_trianglediamonds.svg	15	no	0	1	2000	0	0			0	0			1				0	
6.6.1	win	2023-06-02	07:53:30	08:00:28	416144	60412f7a5f580407f8e6e615	3	1	practice_z	9	advance_on_keypress_ZEE	4	stimuli_distractor_trianglediamonds.svg	stimuli_distractor_trianglediamonds.svg	15	no	57	0	525	0	0			0	0			1				0	
6.6.1	win	2023-06-02	07:53:30	08:00:31	418830	60412f7a5f580407f8e6e615	3	1	practice_z	9	practice_z	5	stimuli_distractor_diamondtriangles.svg	stimuli_target_trianglerectangles.svg	9	yes	44	1	519	0	0			0	0			1				0	
6.6.1	win	2023-06-02	07:53:30	08:00:31	418830	60412f7a5f580407f8e6e615	3	1	practice_z	9	advance_on_keypress_ZEE	6	stimuli_distractor_diamondtriangles.svg	stimuli_target_trianglerectangles.svg	9	yes	57	0	410	0	0			0	0			1				0	
6.6.1	win	2023-06-02	07:53:30	08:00:33	421463	60412f7a5f580407f8e6e615	3	1	practice_z	9	practice_z	7	stimuli_target_rectanglediamonds.svg	stimuli_distractor_diamondtriangles.svg	1	yes	44	1	586	0	0			0	0			1				0	
6.6.1	win	2023-06-02	07:53:30	08:00:33	421463	60412f7a5f580407f8e6e615	3	1	practice_z	9	advance_on_keypress_ZEE	8	stimuli_target_rectanglediamonds.svg	stimuli_distractor_diamondtriangles.svg	1	yes	57	0	544	0	0			0	0			1				0	
6.6.1	win	2023-06-02	07:53:30	08:00:38	425645	60412f7a5f580407f8e6e615	3	1	practice_z	9	practice_z	9	stimuli_distractor_diamondtriangles.svg	stimuli_distractor_trianglediamonds.svg	14	no	0	1	2000	0	0			0	0			1				0	
6.6.1	win	2023-06-02	07:53:30	08:00:38	425645	60412f7a5f580407f8e6e615	3	1	practice_z	9	advance_on_keypress_ZEE	10	stimuli_distractor_diamondtriangles.svg	stimuli_distractor_trianglediamonds.svg	14	no	57	0	562	0	0			0	0			1				0	
6.6.1	win	2023-06-02	07:53:30	08:00:42	429845	60412f7a5f580407f8e6e615	3	1	practice_z	9	practice_z	11	stimuli_distractor_trianglediamonds.svg	stimuli_distractor_diamondtriangles.svg	16	no	0	1	2000	0	0			0	0			1				0	
6.6.1	win	2023-06-02	07:53:30	08:00:42	429845	60412f7a5f580407f8e6e615	3	1	practice_z	9	advance_on_keypress_ZEE	12	stimuli_distractor_trianglediamonds.svg	stimuli_distractor_diamondtriangles.svg	16	no	57	0	482	0	0			0	0			1				0	
6.6.1	win	2023-06-02	07:53:30	08:00:46	433978	60412f7a5f580407f8e6e615	3	1	practice_z	9	practice_z	13	stimuli_distractor_diamondtriangles.svg	stimuli_distractor_diamondtriangles.svg	13	no	0	1	2000	0	0			0	0			1				0	
6.6.1	win	2023-06-02	07:53:30	08:00:46	433978	60412f7a5f580407f8e6e615	3	1	practice_z	9	advance_on_keypress_ZEE	14	stimuli_distractor_diamondtriangles.svg	stimuli_distractor_diamondtriangles.svg	13	no	57	0	348	0	0			0	0			1				0	
6.6.1	win	2023-06-02	07:53:30	08:00:49	436750	60412f7a5f580407f8e6e615	3	1	practice_z	9	practice_z	15	stimuli_target_squarediamonds.svg	stimuli_distractor_trianglediamonds.svg	5	yes	44	1	772	0	0			0	0			1				0	
6.6.1	win	2023-06-02	07:53:30	08:00:49	436750	60412f7a5f580407f8e6e615	3	1	practice_z	9	advance_on_keypress_ZEE	16	stimuli_target_squarediamonds.svg	stimuli_distractor_trianglediamonds.svg	5	yes	57	0	542	0	0			0	0			1				0	
6.6.1	win	2023-06-02	07:53:30	08:00:52	439694	60412f7a5f580407f8e6e615	3	1	practice_z	9	practice_z	17	stimuli_target_diamondsquares.svg	stimuli_distractor_diamondtriangles.svg	3	yes	44	1	767	0	0			0	0			1				0	
6.6.1	win	2023-06-02	07:53:30	08:00:52	439694	60412f7a5f580407f8e6e615	3	1	practice_z	9	advance_on_keypress_ZEE	18	stimuli_target_diamondsquares.svg	stimuli_distractor_diamondtriangles.svg	3	yes	57	0	527	0	0			0	0			1				0	
6.6.1	win	2023-06-02	07:53:30	08:00:54	442399	60412f7a5f580407f8e6e615	3	1	practice_z	9	practice_z	19	stimuli_distractor_trianglediamonds.svg	stimuli_target_diamondrectangles.svg	12	yes	44	1	538	0	0			0	0			1				0	
6.6.1	win	2023-06-02	07:53:30	08:00:54	442399	60412f7a5f580407f8e6e615	3	1	practice_z	9	advance_on_keypress_ZEE	20	stimuli_distractor_trianglediamonds.svg	stimuli_target_diamondrectangles.svg	12	yes	57	0	475	0	0			0	0			1				0	
6.6.1	win	2023-06-02	07:53:30	08:00:57	445183	60412f7a5f580407f8e6e615	3	1	practice_z	9	practice_z	21	stimuli_target_diamondsquares.svg	stimuli_distractor_trianglediamonds.svg	6	yes	44	1	672	0	0			0	0			1				0	
6.6.1	win	2023-06-02	07:53:30	08:00:57	445183	60412f7a5f580407f8e6e615	3	1	practice_z	9	advance_on_keypress_ZEE	22	stimuli_target_diamondsquares.svg	stimuli_distractor_trianglediamonds.svg	6	yes	57	0	411	0	0			0	0			1				0	
6.6.1	win	2023-06-02	07:53:30	08:01:00	447745	60412f7a5f580407f8e6e615	3	1	practice_z	9	practice_z	23	stimuli_target_squarediamonds.svg	stimuli_distractor_diamondtriangles.svg	2	yes	44	1	515	0	0			0	0			1				0	
6.6.1	win	2023-06-02	07:53:30	08:01:00	447745	60412f7a5f580407f8e6e615	3	1	practice_z	9	advance_on_keypress_ZEE	24	stimuli_target_squarediamonds.svg	stimuli_distractor_diamondtriangles.svg	2	yes	57	0	523	0	0			0	0			1				0	
6.6.1	win	2023-06-02	07:53:30	08:01:02	450294	60412f7a5f580407f8e6e615	3	1	practice_z	9	practice_z	25	stimuli_distractor_trianglediamonds.svg	stimuli_target_squarediamonds.svg	11	yes	44	1	367	0	0			0	0			1				0	
6.6.1	win	2023-06-02	07:53:30	08:01:02	450294	60412f7a5f580407f8e6e615	3	1	practice_z	9	advance_on_keypress_ZEE	26	stimuli_distractor_trianglediamonds.svg	stimuli_target_squarediamonds.svg	11	yes	57	0	470	0	0			0	0			1				0	
6.6.1	win	2023-06-02	07:53:30	08:01:05	453006	60412f7a5f580407f8e6e615	3	1	practice_z	9	practice_z	27	stimuli_distractor_diamondtriangles.svg	stimuli_target_diamondrectangles.svg	8	yes	44	1	594	0	0			0	0			1				0	
6.6.1	win	2023-06-02	07:53:30	08:01:05	453006	60412f7a5f580407f8e6e615	3	1	practice_z	9	advance_on_keypress_ZEE	28	stimuli_distractor_diamondtriangles.svg	stimuli_target_diamondrectangles.svg	8	yes	57	0	539	0	0			0	0			1				0	
6.6.1	win	2023-06-02	07:53:30	08:01:08	455910	60412f7a5f580407f8e6e615	3	1	practice_z	9	practice_z	29	stimuli_distractor_diamondtriangles.svg	stimuli_target_rectangletriangles.svg	7	yes	44	1	732	0	0			0	0			1				0	
6.6.1	win	2023-06-02	07:53:30	08:01:08	455910	60412f7a5f580407f8e6e615	3	1	practice_z	9	advance_on_keypress_ZEE	30	stimuli_distractor_diamondtriangles.svg	stimuli_target_rectangletriangles.svg	7	yes	57	0	496	0	0			0	0			1				0	
6.6.1	win	2023-06-02	07:53:30	08:01:10	458455	60412f7a5f580407f8e6e615	3	1	practice_z	9	practice_z	31	stimuli_distractor_trianglediamonds.svg	stimuli_target_rectanglediamonds.svg	10	yes	44	1	409	0	0			0	0			1				0	
6.6.1	win	2023-06-02	07:53:30	08:01:10	458455	60412f7a5f580407f8e6e615	3	1	practice_z	9	advance_on_keypress_ZEE	32	stimuli_distractor_trianglediamonds.svg	stimuli_target_rectanglediamonds.svg	10	yes	57	0	345	0	0			0	0			1				0	
6.6.1	win	2023-06-02	07:53:30	08:01:17	464790	60412f7a5f580407f8e6e615	3	1	main_z	11	main_z	1	stimuli_distractor_diamondtriangles.svg	stimuli_target_squaretriangles.svg	15	yes	44	1	1145	0	0			0	0			1				0	
6.6.1	win	2023-06-02	07:53:30	08:01:17	464790	60412f7a5f580407f8e6e615	3	1	main_z	11	advance_on_keypress_ZEE	2	stimuli_distractor_diamondtriangles.svg	stimuli_target_squaretriangles.svg	15	yes	57	0	675	0	0			0	0			1				0	
6.6.1	win	2023-06-02	07:53:30	08:01:18	466478	60412f7a5f580407f8e6e615	3	1	main_z	11	main_z	3	stimuli_distractor_diamondtriangles.svg	stimuli_target_squarediamonds.svg	16	yes	44	1	366	0	0			0	0			1				0	
6.6.1	win	2023-06-02	07:53:30	08:01:18	466478	60412f7a5f580407f8e6e615	3	1	main_z	11	advance_on_keypress_ZEE	4	stimuli_distractor_diamondtriangles.svg	stimuli_target_squarediamonds.svg	16	yes	57	0	559	0	0			0	0			1				0	
6.6.1	win	2023-06-02	07:53:30	08:01:20	468278	60412f7a5f580407f8e6e615	3	1	main_z	11	main_z	5	stimuli_target_diamondrectangles.svg	stimuli_distractor_trianglediamonds.svg	19	yes	44	1	599	0	0			0	0			1				0	
6.6.1	win	2023-06-02	07:53:30	08:01:20	468278	60412f7a5f580407f8e6e615	3	1	main_z	11	advance_on_keypress_ZEE	6	stimuli_target_diamondrectangles.svg	stimuli_distractor_trianglediamonds.svg	19	yes	57	0	383	0	0			0	0			1				0	
6.6.1	win	2023-06-02	07:53:30	08:01:22	469718	60412f7a5f580407f8e6e615	3	1	main_z	11	main_z	7	stimuli_target_rectangletriangles.svg	stimuli_distractor_trianglediamonds.svg	1	yes	44	1	406	0	0			0	0			1				0	
6.6.1	win	2023-06-02	07:53:30	08:01:22	469718	60412f7a5f580407f8e6e615	3	1	main_z	11	advance_on_keypress_ZEE	8	stimuli_target_rectangletriangles.svg	stimuli_distractor_trianglediamonds.svg	1	yes	57	0	318	0	0			0	0			1				0	
6.6.1	win	2023-06-02	07:53:30	08:01:25	472679	60412f7a5f580407f8e6e615	3	1	main_z	11	main_z	9	stimuli_distractor_diamondtriangles.svg	stimuli_distractor_trianglediamonds.svg	37	no	0	1	2000	0	0			0	0			1				0	
6.6.1	win	2023-06-02	07:53:30	08:01:25	472679	60412f7a5f580407f8e6e615	3	1	main_z	11	advance_on_keypress_ZEE	10	stimuli_distractor_diamondtriangles.svg	stimuli_distractor_trianglediamonds.svg	37	no	57	0	327	0	0			0	0			1				0	
6.6.1	win	2023-06-02	07:53:30	08:01:26	473990	60412f7a5f580407f8e6e615	3	1	main_z	11	main_z	11	stimuli_target_squaretriangles.svg	stimuli_distractor_trianglediamonds.svg	3	yes	44	1	344	0	0			0	0			1				0	
6.6.1	win	2023-06-02	07:53:30	08:01:26	473990	60412f7a5f580407f8e6e615	3	1	main_z	11	advance_on_keypress_ZEE	12	stimuli_target_squaretriangles.svg	stimuli_distractor_trianglediamonds.svg	3	yes	57	0	458	0	0			0	0			1				0	
6.6.1	win	2023-06-02	07:53:30	08:01:28	475614	60412f7a5f580407f8e6e615	3	1	main_z	11	main_z	13	stimuli_target_rectanglediamonds.svg	stimuli_distractor_diamondtriangles.svg	6	yes	44	1	536	0	0			0	0			1				0	
6.6.1	win	2023-06-02	07:53:30	08:01:28	475614	60412f7a5f580407f8e6e615	3	1	main_z	11	advance_on_keypress_ZEE	14	stimuli_target_rectanglediamonds.svg	stimuli_distractor_diamondtriangles.svg	6	yes	57	0	378	0	0			0	0			1				0	
6.6.1	win	2023-06-02	07:53:30	08:01:29	477145	60412f7a5f580407f8e6e615	3	1	main_z	11	main_z	15	stimuli_distractor_trianglediamonds.svg	stimuli_target_trianglerectangles.svg	25	yes	44	1	505	0	0			0	0			1				0	
6.6.1	win	2023-06-02	07:53:30	08:01:29	477145	60412f7a5f580407f8e6e615	3	1	main_z	11	advance_on_keypress_ZEE	16	stimuli_distractor_trianglediamonds.svg	stimuli_target_trianglerectangles.svg	25	yes	57	0	245	0	0			0	0			1				0	
6.6.1	win	2023-06-02	07:53:30	08:01:30	478326	60412f7a5f580407f8e6e615	3	1	main_z	11	main_z	17	stimuli_distractor_diamondtriangles.svg	stimuli_target_rectanglediamonds.svg	14	yes	44	1	298	0	0			0	0			1				0	
6.6.1	win	2023-06-02	07:53:30	08:01:30	478326	60412f7a5f580407f8e6e615	3	1	main_z	11	advance_on_keypress_ZEE	18	stimuli_distractor_diamondtriangles.svg	stimuli_target_rectanglediamonds.svg	14	yes	57	0	220	0	0			0	0			1				0	
6.6.1	win	2023-06-02	07:53:30	08:01:32	479542	60412f7a5f580407f8e6e615	3	1	main_z	11	main_z	19	stimuli_distractor_trianglediamonds.svg	stimuli_target_trianglesquares.svg	26	yes	44	1	346	0	0			0	0			1				0	
6.6.1	win	2023-06-02	07:53:30	08:01:32	479542	60412f7a5f580407f8e6e615	3	1	main_z	11	advance_on_keypress_ZEE	20	stimuli_distractor_trianglediamonds.svg	stimuli_target_trianglesquares.svg	26	yes	57	0	204	0	0			0	0			1				0	
6.6.1	win	2023-06-02	07:53:30	08:01:33	481142	60412f7a5f580407f8e6e615	3	1	main_z	11	main_z	21	stimuli_target_squaretriangles.svg	stimuli_distractor_diamondtriangles.svg	7	yes	44	1	763	0	0			0	0			1				0	
6.6.1	win	2023-06-02	07:53:30	08:01:33	481142	60412f7a5f580407f8e6e615	3	1	main_z	11	advance_on_keypress_ZEE	22	stimuli_target_squaretriangles.svg	stimuli_distractor_diamondtriangles.svg	7	yes	57	0	284	0	0			0	0			1				0	
6.6.1	win	2023-06-02	07:53:30	08:01:35	482678	60412f7a5f580407f8e6e615	3	1	main_z	11	main_z	23	stimuli_distractor_trianglediamonds.svg	stimuli_target_diamondrectangles.svg	27	yes	44	1	615	0	0			0	0			1				0	
6.6.1	win	2023-06-02	07:53:30	08:01:35	482678	60412f7a5f580407f8e6e615	3	1	main_z	11	advance_on_keypress_ZEE	24	stimuli_distractor_trianglediamonds.svg	stimuli_target_diamondrectangles.svg	27	yes	57	0	247	0	0			0	0			1				0	
6.6.1	win	2023-06-02	07:53:30	08:01:36	484006	60412f7a5f580407f8e6e615	3	1	main_z	11	main_z	25	stimuli_distractor_trianglediamonds.svg	stimuli_target_squarediamonds.svg	12	yes	44	1	427	0	0			0	0			1				0	
6.6.1	win	2023-06-02	07:53:30	08:01:36	484006	60412f7a5f580407f8e6e615	3	1	main_z	11	advance_on_keypress_ZEE	26	stimuli_distractor_trianglediamonds.svg	stimuli_target_squarediamonds.svg	12	yes	57	0	194	0	0			0	0			1				0	
6.6.1	win	2023-06-02	07:53:30	08:01:38	485678	60412f7a5f580407f8e6e615	3	1	main_z	11	main_z	27	stimuli_distractor_diamondtriangles.svg	stimuli_target_trianglerectangles.svg	29	yes	44	1	849	0	0			0	0			1				0	
6.6.1	win	2023-06-02	07:53:30	08:01:38	485678	60412f7a5f580407f8e6e615	3	1	main_z	11	advance_on_keypress_ZEE	28	stimuli_distractor_diamondtriangles.svg	stimuli_target_trianglerectangles.svg	29	yes	57	0	198	0	0			0	0			1				0	
6.6.1	win	2023-06-02	07:53:30	08:01:39	486944	60412f7a5f580407f8e6e615	3	1	main_z	11	main_z	29	stimuli_distractor_diamondtriangles.svg	stimuli_target_diamondsquares.svg	32	yes	44	1	415	0	0			0	0			1				0	
6.6.1	win	2023-06-02	07:53:30	08:01:39	486944	60412f7a5f580407f8e6e615	3	1	main_z	11	advance_on_keypress_ZEE	30	stimuli_distractor_diamondtriangles.svg	stimuli_target_diamondsquares.svg	32	yes	57	0	235	0	0			0	0			1				0	
6.6.1	win	2023-06-02	07:53:30	08:01:40	488174	60412f7a5f580407f8e6e615	3	1	main_z	11	main_z	31	stimuli_target_rectangletriangles.svg	stimuli_distractor_diamondtriangles.svg	5	yes	44	1	345	0	0			0	0			1				0	
6.6.1	win	2023-06-02	07:53:30	08:01:40	488174	60412f7a5f580407f8e6e615	3	1	main_z	11	advance_on_keypress_ZEE	32	stimuli_target_rectangletriangles.svg	stimuli_distractor_diamondtriangles.svg	5	yes	57	0	267	0	0			0	0			1				0	
6.6.1	win	2023-06-02	07:53:30	08:01:41	489486	60412f7a5f580407f8e6e615	3	1	main_z	11	main_z	33	stimuli_distractor_diamondtriangles.svg	stimuli_target_diamondrectangles.svg	31	yes	44	1	407	0	0			0	0			1				0	
6.6.1	win	2023-06-02	07:53:30	08:01:41	489486	60412f7a5f580407f8e6e615	3	1	main_z	11	advance_on_keypress_ZEE	34	stimuli_distractor_diamondtriangles.svg	stimuli_target_diamondrectangles.svg	31	yes	57	0	206	0	0			0	0			1				0	
6.6.1	win	2023-06-02	07:53:30	08:01:43	490670	60412f7a5f580407f8e6e615	3	1	main_z	11	main_z	35	stimuli_target_rectanglediamonds.svg	stimuli_distractor_trianglediamonds.svg	2	yes	44	1	341	0	0			0	0			1				0	
6.6.1	win	2023-06-02	07:53:30	08:01:43	490670	60412f7a5f580407f8e6e615	3	1	main_z	11	advance_on_keypress_ZEE	36	stimuli_target_rectanglediamonds.svg	stimuli_distractor_trianglediamonds.svg	2	yes	57	0	239	0	0			0	0			1				0	
6.6.1	win	2023-06-02	07:53:30	08:01:44	491886	60412f7a5f580407f8e6e615	3	1	main_z	11	main_z	37	stimuli_distractor_trianglediamonds.svg	stimuli_distractor_trianglediamonds.svg	34	no	44	0	340	0	0			0	0			1				0	
6.6.1	win	2023-06-02	07:53:30	08:01:44	491886	60412f7a5f580407f8e6e615	3	1	main_z	11	advance_on_keypress_ZEE	38	stimuli_distractor_trianglediamonds.svg	stimuli_distractor_trianglediamonds.svg	34	no	57	0	167	0	0			0	0			1				0	
6.6.1	win	2023-06-02	07:53:30	08:01:45	493454	60412f7a5f580407f8e6e615	3	1	main_z	11	main_z	39	stimuli_target_diamondrectangles.svg	stimuli_distractor_diamondtriangles.svg	23	yes	44	1	759	0	0			0	0			1				0	
6.6.1	win	2023-06-02	07:53:30	08:01:45	493454	60412f7a5f580407f8e6e615	3	1	main_z	11	advance_on_keypress_ZEE	40	stimuli_target_diamondrectangles.svg	stimuli_distractor_diamondtriangles.svg	23	yes	57	0	503	0	0			0	0			1				0	
6.6.1	win	2023-06-02	07:53:30	08:01:49	496596	60412f7a5f580407f8e6e615	3	1	main_z	11	main_z	41	stimuli_distractor_diamondtriangles.svg	stimuli_distractor_diamondtriangles.svg	39	no	0	1	2000	0	0			0	0			1				0	
6.6.1	win	2023-06-02	07:53:30	08:01:49	496596	60412f7a5f580407f8e6e615	3	1	main_z	11	advance_on_keypress_ZEE	42	stimuli_distractor_diamondtriangles.svg	stimuli_distractor_diamondtriangles.svg	39	no	57	0	466	0	0			0	0			1				0	
6.6.1	win	2023-06-02	07:53:30	08:01:50	498302	60412f7a5f580407f8e6e615	3	1	main_z	11	main_z	43	stimuli_target_trianglerectangles.svg	stimuli_distractor_trianglediamonds.svg	17	yes	44	1	590	0	0			0	0			1				0	
6.6.1	win	2023-06-02	07:53:30	08:01:50	498302	60412f7a5f580407f8e6e615	3	1	main_z	11	advance_on_keypress_ZEE	44	stimuli_target_trianglerectangles.svg	stimuli_distractor_trianglediamonds.svg	17	yes	57	0	422	0	0			0	0			1				0	
6.6.1	win	2023-06-02	07:53:30	08:01:52	500117	60412f7a5f580407f8e6e615	3	1	main_z	11	main_z	45	stimuli_distractor_diamondtriangles.svg	stimuli_target_rectangletriangles.svg	13	yes	44	1	755	0	0			0	0			1				0	
6.6.1	win	2023-06-02	07:53:30	08:01:52	500117	60412f7a5f580407f8e6e615	3	1	main_z	11	advance_on_keypress_ZEE	46	stimuli_distractor_diamondtriangles.svg	stimuli_target_rectangletriangles.svg	13	yes	57	0	292	0	0			0	0			1				0	
6.6.1	win	2023-06-02	07:53:30	08:01:55	502982	60412f7a5f580407f8e6e615	3	1	main_z	11	main_z	47	stimuli_distractor_diamondtriangles.svg	stimuli_target_trianglesquares.svg	30	yes	44	1	1936	0	0			0	0			1				0	
6.6.1	win	2023-06-02	07:53:30	08:01:55	502982	60412f7a5f580407f8e6e615	3	1	main_z	11	advance_on_keypress_ZEE	48	stimuli_distractor_diamondtriangles.svg	stimuli_target_trianglesquares.svg	30	yes	57	0	555	0	0			0	0			1				0	
6.6.1	win	2023-06-02	07:53:30	08:01:57	504709	60412f7a5f580407f8e6e615	3	1	main_z	11	main_z	49	stimuli_target_squarediamonds.svg	stimuli_distractor_diamondtriangles.svg	8	yes	44	1	530	0	0			0	0			1				0	
6.6.1	win	2023-06-02	07:53:30	08:01:57	504709	60412f7a5f580407f8e6e615	3	1	main_z	11	advance_on_keypress_ZEE	50	stimuli_target_squarediamonds.svg	stimuli_distractor_diamondtriangles.svg	8	yes	57	0	445	0	0			0	0			1				0	
6.6.1	win	2023-06-02	07:53:30	08:01:58	506350	60412f7a5f580407f8e6e615	3	1	main_z	11	main_z	51	stimuli_target_trianglesquares.svg	stimuli_distractor_trianglediamonds.svg	18	yes	44	1	571	0	0			0	0			1				0	
6.6.1	win	2023-06-02	07:53:30	08:01:58	506350	60412f7a5f580407f8e6e615	3	1	main_z	11	advance_on_keypress_ZEE	52	stimuli_target_trianglesquares.svg	stimuli_distractor_trianglediamonds.svg	18	yes	57	0	331	0	0			0	0			1				0	
6.6.1	win	2023-06-02	07:53:30	08:02:00	508134	60412f7a5f580407f8e6e615	3	1	main_z	11	main_z	53	stimuli_distractor_trianglediamonds.svg	stimuli_target_squaretriangles.svg	11	yes	44	1	804	0	0			0	0			1				0	
6.6.1	win	2023-06-02	07:53:30	08:02:00	508134	60412f7a5f580407f8e6e615	3	1	main_z	11	advance_on_keypress_ZEE	54	stimuli_distractor_trianglediamonds.svg	stimuli_target_squaretriangles.svg	11	yes	57	0	291	0	0			0	0			1				0	
6.6.1	win	2023-06-02	07:53:30	08:02:02	509686	60412f7a5f580407f8e6e615	3	1	main_z	11	main_z	55	stimuli_distractor_trianglediamonds.svg	stimuli_target_rectanglediamonds.svg	10	yes	44	1	624	0	0			0	0			1				0	
6.6.1	win	2023-06-02	07:53:30	08:02:02	509686	60412f7a5f580407f8e6e615	3	1	main_z	11	advance_on_keypress_ZEE	56	stimuli_distractor_trianglediamonds.svg	stimuli_target_rectanglediamonds.svg	10	yes	57	0	285	0	0			0	0			1				0	
6.6.1	win	2023-06-02	07:53:30	08:02:03	511254	60412f7a5f580407f8e6e615	3	1	main_z	11	main_z	57	stimuli_distractor_trianglediamonds.svg	stimuli_target_diamondsquares.svg	28	yes	44	1	641	0	0			0	0			1				0	
6.6.1	win	2023-06-02	07:53:30	08:02:03	511254	60412f7a5f580407f8e6e615	3	1	main_z	11	advance_on_keypress_ZEE	58	stimuli_distractor_trianglediamonds.svg	stimuli_target_diamondsquares.svg	28	yes	57	0	255	0	0			0	0			1				0	
6.6.1	win	2023-06-02	07:53:30	08:02:05	513479	60412f7a5f580407f8e6e615	3	1	main_z	11	main_z	59	stimuli_distractor_trianglediamonds.svg	stimuli_target_rectangletriangles.svg	9	yes	44	1	1332	0	0			0	0			1				0	
6.6.1	win	2023-06-02	07:53:30	08:02:05	513479	60412f7a5f580407f8e6e615	3	1	main_z	11	advance_on_keypress_ZEE	60	stimuli_distractor_trianglediamonds.svg	stimuli_target_rectangletriangles.svg	9	yes	57	0	541	0	0			0	0			1				0	
6.6.1	win	2023-06-02	07:53:30	08:02:07	515262	60412f7a5f580407f8e6e615	3	1	main_z	11	main_z	61	stimuli_target_trianglesquares.svg	stimuli_distractor_diamondtriangles.svg	22	yes	44	1	599	0	0			0	0			1				0	
6.6.1	win	2023-06-02	07:53:30	08:02:07	515262	60412f7a5f580407f8e6e615	3	1	main_z	11	advance_on_keypress_ZEE	62	stimuli_target_trianglesquares.svg	stimuli_distractor_diamondtriangles.svg	22	yes	57	0	270	0	0			0	0			1				0	
6.6.1	win	2023-06-02	07:53:30	08:02:09	516542	60412f7a5f580407f8e6e615	3	1	main_z	11	main_z	63	stimuli_target_squarediamonds.svg	stimuli_distractor_trianglediamonds.svg	4	yes	44	1	362	0	0			0	0			1				0	
6.6.1	win	2023-06-02	07:53:30	08:02:09	516542	60412f7a5f580407f8e6e615	3	1	main_z	11	advance_on_keypress_ZEE	64	stimuli_target_squarediamonds.svg	stimuli_distractor_trianglediamonds.svg	4	yes	57	0	228	0	0			0	0			1				0	
6.6.1	win	2023-06-02	07:53:30	08:02:11	519396	60412f7a5f580407f8e6e615	3	1	main_z	11	main_z	65	stimuli_distractor_diamondtriangles.svg	stimuli_distractor_diamondtriangles.svg	40	no	0	1	2000	0	0			0	0			1				0	
6.6.1	win	2023-06-02	07:53:30	08:02:11	519396	60412f7a5f580407f8e6e615	3	1	main_z	11	advance_on_keypress_ZEE	66	stimuli_distractor_diamondtriangles.svg	stimuli_distractor_diamondtriangles.svg	40	no	57	0	322	0	0			0	0			1				0	
6.6.1	win	2023-06-02	07:53:30	08:02:14	522363	60412f7a5f580407f8e6e615	3	1	main_z	11	main_z	67	stimuli_distractor_trianglediamonds.svg	stimuli_distractor_trianglediamonds.svg	33	no	0	1	2000	0	0			0	0			1				0	
6.6.1	win	2023-06-02	07:53:30	08:02:14	522363	60412f7a5f580407f8e6e615	3	1	main_z	11	advance_on_keypress_ZEE	68	stimuli_distractor_trianglediamonds.svg	stimuli_distractor_trianglediamonds.svg	33	no	57	0	442	0	0			0	0			1				0	
6.6.1	win	2023-06-02	07:53:30	08:02:17	524870	60412f7a5f580407f8e6e615	3	1	main_z	11	main_z	69	stimuli_distractor_trianglediamonds.svg	stimuli_distractor_diamondtriangles.svg	36	no	44	0	1423	0	0			0	0			1				0	
6.6.1	win	2023-06-02	07:53:30	08:02:17	524870	60412f7a5f580407f8e6e615	3	1	main_z	11	advance_on_keypress_ZEE	70	stimuli_distractor_trianglediamonds.svg	stimuli_distractor_diamondtriangles.svg	36	no	57	0	430	0	0			0	0			1				0	
6.6.1	win	2023-06-02	07:53:30	08:02:20	527947	60412f7a5f580407f8e6e615	3	1	main_z	11	main_z	71	stimuli_distractor_trianglediamonds.svg	stimuli_distractor_diamondtriangles.svg	35	no	0	1	2000	0	0			0	0			1				0	
6.6.1	win	2023-06-02	07:53:30	08:02:20	527947	60412f7a5f580407f8e6e615	3	1	main_z	11	advance_on_keypress_ZEE	72	stimuli_distractor_trianglediamonds.svg	stimuli_distractor_diamondtriangles.svg	35	no	57	0	411	0	0			0	0			1				0	
6.6.1	win	2023-06-02	07:53:30	08:02:23	530997	60412f7a5f580407f8e6e615	3	1	main_z	11	main_z	73	stimuli_distractor_diamondtriangles.svg	stimuli_distractor_trianglediamonds.svg	38	no	0	1	2000	0	0			0	0			1				0	
6.6.1	win	2023-06-02	07:53:30	08:02:23	530997	60412f7a5f580407f8e6e615	3	1	main_z	11	advance_on_keypress_ZEE	74	stimuli_distractor_diamondtriangles.svg	stimuli_distractor_trianglediamonds.svg	38	no	57	0	313	0	0			0	0			1				0	
6.6.1	win	2023-06-02	07:53:30	08:02:25	532590	60412f7a5f580407f8e6e615	3	1	main_z	11	main_z	75	stimuli_target_diamondsquares.svg	stimuli_distractor_trianglediamonds.svg	20	yes	44	1	643	0	0			0	0			1				0	
6.6.1	win	2023-06-02	07:53:30	08:02:25	532590	60412f7a5f580407f8e6e615	3	1	main_z	11	advance_on_keypress_ZEE	76	stimuli_target_diamondsquares.svg	stimuli_distractor_trianglediamonds.svg	20	yes	57	0	506	0	0			0	0			1				0	
6.6.1	win	2023-06-02	07:53:30	08:02:26	534318	60412f7a5f580407f8e6e615	3	1	main_z	11	main_z	77	stimuli_target_trianglerectangles.svg	stimuli_distractor_diamondtriangles.svg	21	yes	44	1	587	0	0			0	0			1				0	
6.6.1	win	2023-06-02	07:53:30	08:02:26	534318	60412f7a5f580407f8e6e615	3	1	main_z	11	advance_on_keypress_ZEE	78	stimuli_target_trianglerectangles.svg	stimuli_distractor_diamondtriangles.svg	21	yes	57	0	469	0	0			0	0			1				0	
6.6.1	win	2023-06-02	07:53:30	08:02:28	536102	60412f7a5f580407f8e6e615	3	1	main_z	11	main_z	79	stimuli_target_diamondsquares.svg	stimuli_distractor_diamondtriangles.svg	24	yes	44	1	672	0	0			0	0			1				0	
6.6.1	win	2023-06-02	07:53:30	08:02:28	536102	60412f7a5f580407f8e6e615	3	1	main_z	11	advance_on_keypress_ZEE	80	stimuli_target_diamondsquares.svg	stimuli_distractor_diamondtriangles.svg	24	yes	57	0	293	0	0			0	0			1				0	
6.6.1	win	2023-06-02	07:53:30	08:02:30	538493	60412f7a5f580407f8e6e615	3	1	main_z	11	main_z	81	stimuli_distractor_diamondtriangles.svg	stimuli_target_rectanglediamonds.svg	14	yes	44	1	1463	0	0			0	0			1				0	
6.6.1	win	2023-06-02	07:53:30	08:02:30	538493	60412f7a5f580407f8e6e615	3	1	main_z	11	advance_on_keypress_ZEE	82	stimuli_distractor_diamondtriangles.svg	stimuli_target_rectanglediamonds.svg	14	yes	57	0	661	0	0			0	0			1				0	
6.6.1	win	2023-06-02	07:53:30	08:02:33	540701	60412f7a5f580407f8e6e615	3	1	main_z	11	main_z	83	stimuli_target_diamondrectangles.svg	stimuli_distractor_trianglediamonds.svg	19	yes	44	1	921	0	0			0	0			1				0	
6.6.1	win	2023-06-02	07:53:30	08:02:33	540701	60412f7a5f580407f8e6e615	3	1	main_z	11	advance_on_keypress_ZEE	84	stimuli_target_diamondrectangles.svg	stimuli_distractor_trianglediamonds.svg	19	yes	57	0	509	0	0			0	0			1				0	
6.6.1	win	2023-06-02	07:53:30	08:02:36	543847	60412f7a5f580407f8e6e615	3	1	main_z	11	main_z	85	stimuli_distractor_diamondtriangles.svg	stimuli_distractor_trianglediamonds.svg	38	no	0	1	2000	0	0			0	0			1				0	
6.6.1	win	2023-06-02	07:53:30	08:02:36	543847	60412f7a5f580407f8e6e615	3	1	main_z	11	advance_on_keypress_ZEE	86	stimuli_distractor_diamondtriangles.svg	stimuli_distractor_trianglediamonds.svg	38	no	57	0	598	0	0			0	0			1				0	
6.6.1	win	2023-06-02	07:53:30	08:02:38	545855	60412f7a5f580407f8e6e615	3	1	main_z	11	main_z	87	stimuli_distractor_trianglediamonds.svg	stimuli_target_trianglerectangles.svg	25	yes	44	1	757	0	0			0	0			1				0	
6.6.1	win	2023-06-02	07:53:30	08:02:38	545855	60412f7a5f580407f8e6e615	3	1	main_z	11	advance_on_keypress_ZEE	88	stimuli_distractor_trianglediamonds.svg	stimuli_target_trianglerectangles.svg	25	yes	57	0	414	0	0			0	0			1				0	
6.6.1	win	2023-06-02	07:53:30	08:02:41	548897	60412f7a5f580407f8e6e615	3	1	main_z	11	main_z	89	stimuli_distractor_trianglediamonds.svg	stimuli_distractor_diamondtriangles.svg	35	no	0	1	2000	0	0			0	0			1				0	
6.6.1	win	2023-06-02	07:53:30	08:02:41	548897	60412f7a5f580407f8e6e615	3	1	main_z	11	advance_on_keypress_ZEE	90	stimuli_distractor_trianglediamonds.svg	stimuli_distractor_diamondtriangles.svg	35	no	57	0	372	0	0			0	0			1				0	
6.6.1	win	2023-06-02	07:53:30	08:02:43	550710	60412f7a5f580407f8e6e615	3	1	main_z	11	main_z	91	stimuli_target_squarediamonds.svg	stimuli_distractor_trianglediamonds.svg	4	yes	44	1	797	0	0			0	0			1				0	
6.6.1	win	2023-06-02	07:53:30	08:02:43	550710	60412f7a5f580407f8e6e615	3	1	main_z	11	advance_on_keypress_ZEE	92	stimuli_target_squarediamonds.svg	stimuli_distractor_trianglediamonds.svg	4	yes	57	0	532	0	0			0	0			1				0	
6.6.1	win	2023-06-02	07:53:30	08:02:45	552758	60412f7a5f580407f8e6e615	3	1	main_z	11	main_z	93	stimuli_target_squaretriangles.svg	stimuli_distractor_trianglediamonds.svg	3	yes	44	1	877	0	0			0	0			1				0	
6.6.1	win	2023-06-02	07:53:30	08:02:45	552758	60412f7a5f580407f8e6e615	3	1	main_z	11	advance_on_keypress_ZEE	94	stimuli_target_squaretriangles.svg	stimuli_distractor_trianglediamonds.svg	3	yes	57	0	779	0	0			0	0			1				0	
6.6.1	win	2023-06-02	07:53:30	08:02:47	555286	60412f7a5f580407f8e6e615	3	1	main_z	11	main_z	95	stimuli_target_squaretriangles.svg	stimuli_distractor_diamondtriangles.svg	7	yes	44	1	1122	0	0			0	0			1				0	
6.6.1	win	2023-06-02	07:53:30	08:02:47	555286	60412f7a5f580407f8e6e615	3	1	main_z	11	advance_on_keypress_ZEE	96	stimuli_target_squaretriangles.svg	stimuli_distractor_diamondtriangles.svg	7	yes	57	0	300	0	0			0	0			1				0	
6.6.1	win	2023-06-02	07:53:30	08:02:49	556941	60412f7a5f580407f8e6e615	3	1	main_z	11	main_z	97	stimuli_distractor_trianglediamonds.svg	stimuli_target_trianglesquares.svg	26	yes	44	1	711	0	0			0	0			1				0	
6.6.1	win	2023-06-02	07:53:30	08:02:49	556941	60412f7a5f580407f8e6e615	3	1	main_z	11	advance_on_keypress_ZEE	98	stimuli_distractor_trianglediamonds.svg	stimuli_target_trianglesquares.svg	26	yes	57	0	418	0	0			0	0			1				0	
6.6.1	win	2023-06-02	07:53:30	08:02:52	559998	60412f7a5f580407f8e6e615	3	1	main_z	11	main_z	99	stimuli_distractor_trianglediamonds.svg	stimuli_distractor_trianglediamonds.svg	33	no	0	1	2000	0	0			0	0			1				0	
6.6.1	win	2023-06-02	07:53:30	08:02:52	559998	60412f7a5f580407f8e6e615	3	1	main_z	11	advance_on_keypress_ZEE	100	stimuli_distractor_trianglediamonds.svg	stimuli_distractor_trianglediamonds.svg	33	no	57	0	312	0	0			0	0			1				0	
6.6.1	win	2023-06-02	07:53:30	08:02:54	562102	60412f7a5f580407f8e6e615	3	1	main_z	11	main_z	101	stimuli_distractor_diamondtriangles.svg	stimuli_distractor_diamondtriangles.svg	40	no	44	0	1155	0	0			0	0			1				0	
6.6.1	win	2023-06-02	07:53:30	08:02:54	562102	60412f7a5f580407f8e6e615	3	1	main_z	11	advance_on_keypress_ZEE	102	stimuli_distractor_diamondtriangles.svg	stimuli_distractor_diamondtriangles.svg	40	no	57	0	907	0	0			0	0			1				0	
6.6.1	win	2023-06-02	07:53:30	08:02:57	565037	60412f7a5f580407f8e6e615	3	1	main_z	11	main_z	103	stimuli_distractor_diamondtriangles.svg	stimuli_target_squarediamonds.svg	16	yes	44	1	1390	0	0			0	0			1				0	
6.6.1	win	2023-06-02	07:53:30	08:02:57	565037	60412f7a5f580407f8e6e615	3	1	main_z	11	advance_on_keypress_ZEE	104	stimuli_distractor_diamondtriangles.svg	stimuli_target_squarediamonds.svg	16	yes	57	0	438	0	0			0	0			1				0	
6.6.1	win	2023-06-02	07:53:30	08:02:59	567158	60412f7a5f580407f8e6e615	3	1	main_z	11	main_z	105	stimuli_distractor_trianglediamonds.svg	stimuli_target_squarediamonds.svg	12	yes	44	1	1044	0	0			0	0			1				0	
6.6.1	win	2023-06-02	07:53:30	08:02:59	567158	60412f7a5f580407f8e6e615	3	1	main_z	11	advance_on_keypress_ZEE	106	stimuli_distractor_trianglediamonds.svg	stimuli_target_squarediamonds.svg	12	yes	57	0	345	0	0			0	0			1				0	
6.6.1	win	2023-06-02	07:53:30	08:03:01	569214	60412f7a5f580407f8e6e615	3	1	main_z	11	main_z	107	stimuli_distractor_diamondtriangles.svg	stimuli_target_trianglesquares.svg	30	yes	44	1	1083	0	0			0	0			1				0	
6.6.1	win	2023-06-02	07:53:30	08:03:01	569214	60412f7a5f580407f8e6e615	3	1	main_z	11	advance_on_keypress_ZEE	108	stimuli_distractor_diamondtriangles.svg	stimuli_target_trianglesquares.svg	30	yes	57	0	424	0	0			0	0			1				0	
6.6.1	win	2023-06-02	07:53:30	08:03:04	572281	60412f7a5f580407f8e6e615	3	1	main_z	11	main_z	109	stimuli_distractor_trianglediamonds.svg	stimuli_distractor_diamondtriangles.svg	36	no	0	1	2000	0	0			0	0			1				0	
6.6.1	win	2023-06-02	07:53:30	08:03:04	572281	60412f7a5f580407f8e6e615	3	1	main_z	11	advance_on_keypress_ZEE	110	stimuli_distractor_trianglediamonds.svg	stimuli_distractor_diamondtriangles.svg	36	no	57	0	485	0	0			0	0			1				0	
6.6.1	win	2023-06-02	07:53:30	08:03:07	574526	60412f7a5f580407f8e6e615	3	1	main_z	11	main_z	111	stimuli_distractor_diamondtriangles.svg	stimuli_target_squaretriangles.svg	15	yes	44	1	1111	0	0			0	0			1				0	
6.6.1	win	2023-06-02	07:53:30	08:03:07	574526	60412f7a5f580407f8e6e615	3	1	main_z	11	advance_on_keypress_ZEE	112	stimuli_distractor_diamondtriangles.svg	stimuli_target_squaretriangles.svg	15	yes	57	0	458	0	0			0	0			1				0	
6.6.1	win	2023-06-02	07:53:30	08:03:08	576422	60412f7a5f580407f8e6e615	3	1	main_z	11	main_z	113	stimuli_target_trianglesquares.svg	stimuli_distractor_diamondtriangles.svg	22	yes	44	1	808	0	0			0	0			1				0	
6.6.1	win	2023-06-02	07:53:30	08:03:08	576422	60412f7a5f580407f8e6e615	3	1	main_z	11	advance_on_keypress_ZEE	114	stimuli_target_trianglesquares.svg	stimuli_distractor_diamondtriangles.svg	22	yes	57	0	398	0	0			0	0			1				0	
6.6.1	win	2023-06-02	07:53:30	08:03:10	578318	60412f7a5f580407f8e6e615	3	1	main_z	11	main_z	115	stimuli_distractor_trianglediamonds.svg	stimuli_target_rectangletriangles.svg	9	yes	44	1	854	0	0			0	0			1				0	
6.6.1	win	2023-06-02	07:53:30	08:03:10	578318	60412f7a5f580407f8e6e615	3	1	main_z	11	advance_on_keypress_ZEE	116	stimuli_distractor_trianglediamonds.svg	stimuli_target_rectangletriangles.svg	9	yes	57	0	363	0	0			0	0			1				0	
6.6.1	win	2023-06-02	07:53:30	08:03:13	581315	60412f7a5f580407f8e6e615	3	1	main_z	11	main_z	117	stimuli_distractor_diamondtriangles.svg	stimuli_distractor_trianglediamonds.svg	37	no	0	1	2000	0	0			0	0			1				0	
6.6.1	win	2023-06-02	07:53:30	08:03:13	581315	60412f7a5f580407f8e6e615	3	1	main_z	11	advance_on_keypress_ZEE	118	stimuli_distractor_diamondtriangles.svg	stimuli_distractor_trianglediamonds.svg	37	no	57	0	515	0	0			0	0			1				0	
6.6.1	win	2023-06-02	07:53:30	08:03:15	583174	60412f7a5f580407f8e6e615	3	1	main_z	11	main_z	119	stimuli_distractor_trianglediamonds.svg	stimuli_target_diamondrectangles.svg	27	yes	44	1	693	0	0			0	0			1				0	
6.6.1	win	2023-06-02	07:53:30	08:03:15	583174	60412f7a5f580407f8e6e615	3	1	main_z	11	advance_on_keypress_ZEE	120	stimuli_distractor_trianglediamonds.svg	stimuli_target_diamondrectangles.svg	27	yes	57	0	368	0	0			0	0			1				0	
6.6.1	win	2023-06-02	07:53:30	08:03:17	584870	60412f7a5f580407f8e6e615	3	1	main_z	11	main_z	121	stimuli_target_diamondsquares.svg	stimuli_distractor_diamondtriangles.svg	24	yes	44	1	688	0	0			0	0			1				0	
6.6.1	win	2023-06-02	07:53:30	08:03:17	584870	60412f7a5f580407f8e6e615	3	1	main_z	11	advance_on_keypress_ZEE	122	stimuli_target_diamondsquares.svg	stimuli_distractor_diamondtriangles.svg	24	yes	57	0	245	0	0			0	0			1				0	
6.6.1	win	2023-06-02	07:53:30	08:03:19	586534	60412f7a5f580407f8e6e615	3	1	main_z	11	main_z	123	stimuli_target_rectangletriangles.svg	stimuli_distractor_trianglediamonds.svg	1	yes	44	1	786	0	0			0	0			1				0	
6.6.1	win	2023-06-02	07:53:30	08:03:19	586534	60412f7a5f580407f8e6e615	3	1	main_z	11	advance_on_keypress_ZEE	124	stimuli_target_rectangletriangles.svg	stimuli_distractor_trianglediamonds.svg	1	yes	57	0	266	0	0			0	0			1				0	
6.6.1	win	2023-06-02	07:53:30	08:03:20	588102	60412f7a5f580407f8e6e615	3	1	main_z	11	main_z	125	stimuli_target_diamondrectangles.svg	stimuli_distractor_diamondtriangles.svg	23	yes	44	1	654	0	0			0	0			1				0	
6.6.1	win	2023-06-02	07:53:30	08:03:20	588102	60412f7a5f580407f8e6e615	3	1	main_z	11	advance_on_keypress_ZEE	126	stimuli_target_diamondrectangles.svg	stimuli_distractor_diamondtriangles.svg	23	yes	57	0	179	0	0			0	0			1				0	
6.6.1	win	2023-06-02	07:53:30	08:03:22	589550	60412f7a5f580407f8e6e615	3	1	main_z	11	main_z	127	stimuli_distractor_diamondtriangles.svg	stimuli_target_trianglerectangles.svg	29	yes	44	1	634	0	0			0	0			1				0	
6.6.1	win	2023-06-02	07:53:30	08:03:22	589550	60412f7a5f580407f8e6e615	3	1	main_z	11	advance_on_keypress_ZEE	128	stimuli_distractor_diamondtriangles.svg	stimuli_target_trianglerectangles.svg	29	yes	57	0	160	0	0			0	0			1				0	
6.6.1	win	2023-06-02	07:53:30	08:03:23	591015	60412f7a5f580407f8e6e615	3	1	main_z	11	main_z	129	stimuli_target_trianglerectangles.svg	stimuli_distractor_trianglediamonds.svg	17	yes	44	1	666	0	0			0	0			1				0	
6.6.1	win	2023-06-02	07:53:30	08:03:23	591015	60412f7a5f580407f8e6e615	3	1	main_z	11	advance_on_keypress_ZEE	130	stimuli_target_trianglerectangles.svg	stimuli_distractor_trianglediamonds.svg	17	yes	57	0	159	0	0			0	0			1				0	
6.6.1	win	2023-06-02	07:53:30	08:03:24	592406	60412f7a5f580407f8e6e615	3	1	main_z	11	main_z	131	stimuli_distractor_diamondtriangles.svg	stimuli_target_diamondrectangles.svg	31	yes	44	1	590	0	0			0	0			1				0	
6.6.1	win	2023-06-02	07:53:30	08:03:24	592406	60412f7a5f580407f8e6e615	3	1	main_z	11	advance_on_keypress_ZEE	132	stimuli_distractor_diamondtriangles.svg	stimuli_target_diamondrectangles.svg	31	yes	57	0	143	0	0			0	0			1				0	
6.6.1	win	2023-06-02	07:53:30	08:03:26	593750	60412f7a5f580407f8e6e615	3	1	main_z	11	main_z	133	stimuli_target_rectangletriangles.svg	stimuli_distractor_diamondtriangles.svg	5	yes	44	1	568	0	0			0	0			1				0	
6.6.1	win	2023-06-02	07:53:30	08:03:26	593750	60412f7a5f580407f8e6e615	3	1	main_z	11	advance_on_keypress_ZEE	134	stimuli_target_rectangletriangles.svg	stimuli_distractor_diamondtriangles.svg	5	yes	57	0	144	0	0			0	0			1				0	
6.6.1	win	2023-06-02	07:53:30	08:03:27	595014	60412f7a5f580407f8e6e615	3	1	main_z	11	main_z	135	stimuli_target_trianglerectangles.svg	stimuli_distractor_diamondtriangles.svg	21	yes	44	1	482	0	0			0	0			1				0	
6.6.1	win	2023-06-02	07:53:30	08:03:27	595014	60412f7a5f580407f8e6e615	3	1	main_z	11	advance_on_keypress_ZEE	136	stimuli_target_trianglerectangles.svg	stimuli_distractor_diamondtriangles.svg	21	yes	57	0	111	0	0			0	0			1				0	
6.6.1	win	2023-06-02	07:53:30	08:03:29	596638	60412f7a5f580407f8e6e615	3	1	main_z	11	main_z	137	stimuli_target_rectanglediamonds.svg	stimuli_distractor_trianglediamonds.svg	2	yes	44	1	873	0	0			0	0			1				0	
6.6.1	win	2023-06-02	07:53:30	08:03:29	596638	60412f7a5f580407f8e6e615	3	1	main_z	11	advance_on_keypress_ZEE	138	stimuli_target_rectanglediamonds.svg	stimuli_distractor_trianglediamonds.svg	2	yes	57	0	181	0	0			0	0			1				0	
6.6.1	win	2023-06-02	07:53:30	08:03:30	598102	60412f7a5f580407f8e6e615	3	1	main_z	11	main_z	139	stimuli_distractor_trianglediamonds.svg	stimuli_target_squaretriangles.svg	11	yes	44	1	636	0	0			0	0			1				0	
6.6.1	win	2023-06-02	07:53:30	08:03:30	598102	60412f7a5f580407f8e6e615	3	1	main_z	11	advance_on_keypress_ZEE	140	stimuli_distractor_trianglediamonds.svg	stimuli_target_squaretriangles.svg	11	yes	57	0	107	0	0			0	0			1				0	
6.6.1	win	2023-06-02	07:53:30	08:03:33	600849	60412f7a5f580407f8e6e615	3	1	main_z	11	main_z	141	stimuli_distractor_diamondtriangles.svg	stimuli_distractor_diamondtriangles.svg	39	no	0	1	2000	0	0			0	0			1				0	
6.6.1	win	2023-06-02	07:53:30	08:03:33	600849	60412f7a5f580407f8e6e615	3	1	main_z	11	advance_on_keypress_ZEE	142	stimuli_distractor_diamondtriangles.svg	stimuli_distractor_diamondtriangles.svg	39	no	57	0	356	0	0			0	0			1				0	
6.6.1	win	2023-06-02	07:53:30	08:03:36	603849	60412f7a5f580407f8e6e615	3	1	main_z	11	main_z	143	stimuli_distractor_trianglediamonds.svg	stimuli_distractor_trianglediamonds.svg	34	no	0	1	2000	0	0			0	0			1				0	
6.6.1	win	2023-06-02	07:53:30	08:03:36	603849	60412f7a5f580407f8e6e615	3	1	main_z	11	advance_on_keypress_ZEE	144	stimuli_distractor_trianglediamonds.svg	stimuli_distractor_trianglediamonds.svg	34	no	57	0	340	0	0			0	0			1				0	
6.6.1	win	2023-06-02	07:53:30	08:03:38	605726	60412f7a5f580407f8e6e615	3	1	main_z	11	main_z	145	stimuli_distractor_diamondtriangles.svg	stimuli_target_rectangletriangles.svg	13	yes	44	1	894	0	0			0	0			1				0	
6.6.1	win	2023-06-02	07:53:30	08:03:38	605726	60412f7a5f580407f8e6e615	3	1	main_z	11	advance_on_keypress_ZEE	146	stimuli_distractor_diamondtriangles.svg	stimuli_target_rectangletriangles.svg	13	yes	57	0	289	0	0			0	0			1				0	
6.6.1	win	2023-06-02	07:53:30	08:03:39	607086	60412f7a5f580407f8e6e615	3	1	main_z	11	main_z	147	stimuli_target_squarediamonds.svg	stimuli_distractor_diamondtriangles.svg	8	yes	44	1	437	0	0			0	0			1				0	
6.6.1	win	2023-06-02	07:53:30	08:03:39	607086	60412f7a5f580407f8e6e615	3	1	main_z	11	advance_on_keypress_ZEE	148	stimuli_target_squarediamonds.svg	stimuli_distractor_diamondtriangles.svg	8	yes	57	0	253	0	0			0	0			1				0	
6.6.1	win	2023-06-02	07:53:30	08:03:41	608710	60412f7a5f580407f8e6e615	3	1	main_z	11	main_z	149	stimuli_distractor_diamondtriangles.svg	stimuli_target_diamondsquares.svg	32	yes	44	1	728	0	0			0	0			1				0	
6.6.1	win	2023-06-02	07:53:30	08:03:41	608710	60412f7a5f580407f8e6e615	3	1	main_z	11	advance_on_keypress_ZEE	150	stimuli_distractor_diamondtriangles.svg	stimuli_target_diamondsquares.svg	32	yes	57	0	218	0	0			0	0			1				0	
6.6.1	win	2023-06-02	07:53:30	08:03:42	610175	60412f7a5f580407f8e6e615	3	1	main_z	11	main_z	151	stimuli_target_trianglesquares.svg	stimuli_distractor_trianglediamonds.svg	18	yes	44	1	610	0	0			0	0			1				0	
6.6.1	win	2023-06-02	07:53:30	08:03:42	610175	60412f7a5f580407f8e6e615	3	1	main_z	11	advance_on_keypress_ZEE	152	stimuli_target_trianglesquares.svg	stimuli_distractor_trianglediamonds.svg	18	yes	57	0	199	0	0			0	0			1				0	
6.6.1	win	2023-06-02	07:53:30	08:03:44	611532	60412f7a5f580407f8e6e615	3	1	main_z	11	main_z	153	stimuli_target_diamondsquares.svg	stimuli_distractor_trianglediamonds.svg	20	yes	44	1	503	0	0			0	0			1				0	
6.6.1	win	2023-06-02	07:53:30	08:03:44	611532	60412f7a5f580407f8e6e615	3	1	main_z	11	advance_on_keypress_ZEE	154	stimuli_target_diamondsquares.svg	stimuli_distractor_trianglediamonds.svg	20	yes	57	0	184	0	0			0	0			1				0	
6.6.1	win	2023-06-02	07:53:30	08:03:45	612806	60412f7a5f580407f8e6e615	3	1	main_z	11	main_z	155	stimuli_target_rectanglediamonds.svg	stimuli_distractor_diamondtriangles.svg	6	yes	44	1	441	0	0			0	0			1				0	
6.6.1	win	2023-06-02	07:53:30	08:03:45	612806	60412f7a5f580407f8e6e615	3	1	main_z	11	advance_on_keypress_ZEE	156	stimuli_target_rectanglediamonds.svg	stimuli_distractor_diamondtriangles.svg	6	yes	57	0	152	0	0			0	0			1				0	
6.6.1	win	2023-06-02	07:53:30	08:03:46	613984	60412f7a5f580407f8e6e615	3	1	main_z	11	main_z	157	stimuli_distractor_trianglediamonds.svg	stimuli_target_rectanglediamonds.svg	10	yes	44	1	383	0	0			0	0			1				0	
6.6.1	win	2023-06-02	07:53:30	08:03:46	613984	60412f7a5f580407f8e6e615	3	1	main_z	11	advance_on_keypress_ZEE	158	stimuli_distractor_trianglediamonds.svg	stimuli_target_rectanglediamonds.svg	10	yes	57	0	102	0	0			0	0			1				0	
6.6.1	win	2023-06-02	07:53:30	08:03:47	615086	60412f7a5f580407f8e6e615	3	1	main_z	11	main_z	159	stimuli_distractor_trianglediamonds.svg	stimuli_target_diamondsquares.svg	28	yes	44	1	353	0	0			0	0			1				0	
6.6.1	win	2023-06-02	07:53:30	08:03:47	615086	60412f7a5f580407f8e6e615	3	1	main_z	11	advance_on_keypress_ZEE	160	stimuli_distractor_trianglediamonds.svg	stimuli_target_diamondsquares.svg	28	yes	57	0	154	0	0			0	0			1				0	
6.6.1	win	2023-06-02	07:53:30	08:03:47	615086	60412f7a5f580407f8e6e615	3	1	headphonecheck_calibration	14	headphonecheck_calibrationIntro	1	stimuli_distractor_trianglediamonds.svg	stimuli_target_diamondsquares.svg	28	yes	calibrationButton	0	8499	0	0			0	0			1				0	
6.6.1	win	2023-06-02	07:53:30	08:03:47	615086	60412f7a5f580407f8e6e615	3	1	headphonecheck_testphase	15	test_collectResponse	3	stimuli_distractor_trianglediamonds.svg	stimuli_target_diamondsquares.svg	28	yes	second	1	305	1	5	antiphase_hc_osi.wav	2	0	0			1				0	
6.6.1	win	2023-06-02	07:53:30	08:03:47	615086	60412f7a5f580407f8e6e615	3	1	headphonecheck_testphase	15	test_collectResponse	6	stimuli_distractor_trianglediamonds.svg	stimuli_target_diamondsquares.svg	28	yes	first	1	407	2	4	antiphase_hc_sio.wav	1	0	0			1				0	
6.6.1	win	2023-06-02	07:53:30	08:03:47	615086	60412f7a5f580407f8e6e615	3	1	headphonecheck_testphase	15	test_collectResponse	9	stimuli_distractor_trianglediamonds.svg	stimuli_target_diamondsquares.svg	28	yes	third	1	388	3	6	antiphase_hc_ois.wav	3	0	0			1				0	
6.6.1	win	2023-06-02	07:53:30	08:03:47	615086	60412f7a5f580407f8e6e615	3	1	headphonecheck_testphase	15	test_collectResponse	12	stimuli_distractor_trianglediamonds.svg	stimuli_target_diamondsquares.svg	28	yes	first	1	381	4	3	antiphase_hc_soi.wav	1	0	0			1				0	
6.6.1	win	2023-06-02	07:53:30	08:03:47	615086	60412f7a5f580407f8e6e615	3	1	headphonecheck_testphase	15	test_collectResponse	15	stimuli_distractor_trianglediamonds.svg	stimuli_target_diamondsquares.svg	28	yes	second	1	352	5	1	antiphase_hc_iso.wav	2	0	0			1				0	
6.6.1	win	2023-06-02	07:53:30	08:03:47	615086	60412f7a5f580407f8e6e615	3	1	headphonecheck_testphase	15	test_collectResponse	18	stimuli_distractor_trianglediamonds.svg	stimuli_target_diamondsquares.svg	28	yes	third	1	342	6	2	antiphase_hc_ios.wav	3	0	0			1				0	
6.6.1	win	2023-06-02	07:53:30	08:03:47	615086	60412f7a5f580407f8e6e615	3	1	stereocheck_calibration	17	stereocheck_calibrationIntro	1	stimuli_distractor_trianglediamonds.svg	stimuli_target_diamondsquares.svg	28	yes	stereocheck_calibrationButton	0	5145	6	2	antiphase_hc_ios.wav	3	0	0			1				0	
6.6.1	win	2023-06-02	07:53:30	08:03:47	615086	60412f7a5f580407f8e6e615	3	1	stereocheck_testphase	18	stereocheck_test_collectResponse	3	stimuli_distractor_trianglediamonds.svg	stimuli_target_diamondsquares.svg	28	yes	stereocheck_left	1	1342	6	2	antiphase_hc_ios.wav	3	1	1	noise_calib_stim_LEFT.wav	1	1				0	
6.6.1	win	2023-06-02	07:53:30	08:03:47	615086	60412f7a5f580407f8e6e615	3	1	stereocheck_testphase	18	stereocheck_test_collectResponse	6	stimuli_distractor_trianglediamonds.svg	stimuli_target_diamondsquares.svg	28	yes	stereocheck_right	1	437	6	2	antiphase_hc_ios.wav	3	2	5	noise_calib_stim_RIGHT.wav	2	1				0	
6.6.1	win	2023-06-02	07:53:30	08:03:47	615086	60412f7a5f580407f8e6e615	3	1	stereocheck_testphase	18	stereocheck_test_collectResponse	9	stimuli_distractor_trianglediamonds.svg	stimuli_target_diamondsquares.svg	28	yes	stereocheck_left	1	357	6	2	antiphase_hc_ios.wav	3	3	2	noise_calib_stim_LEFT.wav	1	1				0	
6.6.1	win	2023-06-02	07:53:30	08:03:47	615086	60412f7a5f580407f8e6e615	3	1	stereocheck_testphase	18	stereocheck_test_collectResponse	12	stimuli_distractor_trianglediamonds.svg	stimuli_target_diamondsquares.svg	28	yes	stereocheck_left	1	427	6	2	antiphase_hc_ios.wav	3	4	3	noise_calib_stim_LEFT.wav	1	1				0	
6.6.1	win	2023-06-02	07:53:30	08:03:47	615086	60412f7a5f580407f8e6e615	3	1	stereocheck_testphase	18	stereocheck_test_collectResponse	15	stimuli_distractor_trianglediamonds.svg	stimuli_target_diamondsquares.svg	28	yes	stereocheck_right	1	492	6	2	antiphase_hc_ios.wav	3	5	4	noise_calib_stim_RIGHT.wav	2	1				0	
6.6.1	win	2023-06-02	07:53:30	08:03:47	615086	60412f7a5f580407f8e6e615	3	1	stereocheck_testphase	18	stereocheck_test_collectResponse	18	stimuli_distractor_trianglediamonds.svg	stimuli_target_diamondsquares.svg	28	yes	stereocheck_right	1	464	6	2	antiphase_hc_ios.wav	3	6	6	noise_calib_stim_RIGHT.wav	2	1				0	
6.6.1	win	2023-06-02	07:53:30	08:03:47	615086	60412f7a5f580407f8e6e615	3	1	DL_practice	21	DL_practice	2	stimuli_distractor_trianglediamonds.svg	stimuli_target_diamondsquares.svg	28	yes	ba	1	987	6	2	antiphase_hc_ios.wav	3	6	6	noise_calib_stim_RIGHT.wav	2	1	blb_dichoticlistening_ba-ba.mp3	ba	ba	0	left
6.6.1	win	2023-06-02	07:53:30	08:03:47	615086	60412f7a5f580407f8e6e615	3	1	DL_practice	21	DL_practice	3	stimuli_distractor_trianglediamonds.svg	stimuli_target_diamondsquares.svg	28	yes	ta	1	1169	6	2	antiphase_hc_ios.wav	3	6	6	noise_calib_stim_RIGHT.wav	2	36	blb_dichoticlistening_ta-ta.mp3	ta	ta	0	left
6.6.1	win	2023-06-02	07:53:30	08:03:47	615086	60412f7a5f580407f8e6e615	3	1	DL_practice	21	DL_practice	4	stimuli_distractor_trianglediamonds.svg	stimuli_target_diamondsquares.svg	28	yes	ga	1	940	6	2	antiphase_hc_ios.wav	3	6	6	noise_calib_stim_RIGHT.wav	2	15	blb_dichoticlistening_ga-ga.mp3	ga	ga	0	left
6.6.1	win	2023-06-02	07:53:30	08:03:47	615086	60412f7a5f580407f8e6e615	3	1	DL_practice	21	DL_practice	5	stimuli_distractor_trianglediamonds.svg	stimuli_target_diamondsquares.svg	28	yes	da	1	2308	6	2	antiphase_hc_ios.wav	3	6	6	noise_calib_stim_RIGHT.wav	2	7	blb_dichoticlistening_da-ba.mp3	da	ba	1	left
6.6.1	win	2023-06-02	07:53:30	08:03:47	615086	60412f7a5f580407f8e6e615	3	1	DL_practice	21	DL_practice	6	stimuli_distractor_trianglediamonds.svg	stimuli_target_diamondsquares.svg	28	yes	pa	1	1409	6	2	antiphase_hc_ios.wav	3	6	6	noise_calib_stim_RIGHT.wav	2	29	blb_dichoticlistening_pa-pa.mp3	pa	pa	0	left
6.6.1	win	2023-06-02	07:53:30	08:03:47	615086	60412f7a5f580407f8e6e615	3	1	DL_practice	21	DL_practice	7	stimuli_distractor_trianglediamonds.svg	stimuli_target_diamondsquares.svg	28	yes	ka	1	951	6	2	antiphase_hc_ios.wav	3	6	6	noise_calib_stim_RIGHT.wav	2	22	blb_dichoticlistening_ka-ka.mp3	ka	ka	0	left
6.6.1	win	2023-06-02	07:53:30	08:03:47	615086	60412f7a5f580407f8e6e615	3	1	DL_practice	21	DL_practice	8	stimuli_distractor_trianglediamonds.svg	stimuli_target_diamondsquares.svg	28	yes	pa	1	1214	6	2	antiphase_hc_ios.wav	3	6	6	noise_calib_stim_RIGHT.wav	2	23	blb_dichoticlistening_ka-pa.mp3	ka	pa	1	right
6.6.1	win	2023-06-02	07:53:30	08:03:47	615086	60412f7a5f580407f8e6e615	3	1	DL_practice	21	DL_practice	9	stimuli_distractor_trianglediamonds.svg	stimuli_target_diamondsquares.svg	28	yes	ta	1	845	6	2	antiphase_hc_ios.wav	3	6	6	noise_calib_stim_RIGHT.wav	2	18	blb_dichoticlistening_ga-ta.mp3	ga	ta	1	right
6.6.1	win	2023-06-02	07:53:30	08:03:47	615086	60412f7a5f580407f8e6e615	3	1	DL_practice	21	DL_practice	10	stimuli_distractor_trianglediamonds.svg	stimuli_target_diamondsquares.svg	28	yes	da	1	936	6	2	antiphase_hc_ios.wav	3	6	6	noise_calib_stim_RIGHT.wav	2	8	blb_dichoticlistening_da-da.mp3	da	da	0	left
6.6.1	win	2023-06-02	07:53:30	08:03:47	615086	60412f7a5f580407f8e6e615	3	1	DL_test	23	DL_test	1	stimuli_distractor_trianglediamonds.svg	stimuli_target_diamondsquares.svg	28	yes	da	1	947	6	2	antiphase_hc_ios.wav	3	6	6	noise_calib_stim_RIGHT.wav	2	8	blb_dichoticlistening_da-da.mp3	da	da	0	left
6.6.1	win	2023-06-02	07:53:30	08:03:47	615086	60412f7a5f580407f8e6e615	3	1	DL_test	23	DL_test	2	stimuli_distractor_trianglediamonds.svg	stimuli_target_diamondsquares.svg	28	yes	pa	1	1221	6	2	antiphase_hc_ios.wav	3	6	6	noise_calib_stim_RIGHT.wav	2	11	blb_dichoticlistening_da-pa.mp3	da	pa	1	right
6.6.1	win	2023-06-02	07:53:30	08:03:47	615086	60412f7a5f580407f8e6e615	3	1	DL_test	23	DL_test	3	stimuli_distractor_trianglediamonds.svg	stimuli_target_diamondsquares.svg	28	yes	pa	1	1028	6	2	antiphase_hc_ios.wav	3	6	6	noise_calib_stim_RIGHT.wav	2	25	blb_dichoticlistening_pa-ba.mp3	pa	ba	1	left
6.6.1	win	2023-06-02	07:53:30	08:03:47	615086	60412f7a5f580407f8e6e615	3	1	DL_test	23	DL_test	4	stimuli_distractor_trianglediamonds.svg	stimuli_target_diamondsquares.svg	28	yes	ka	1	1101	6	2	antiphase_hc_ios.wav	3	6	6	noise_calib_stim_RIGHT.wav	2	16	blb_dichoticlistening_ga-ka.mp3	ga	ka	1	right
6.6.1	win	2023-06-02	07:53:30	08:03:47	615086	60412f7a5f580407f8e6e615	3	1	DL_test	23	DL_test	5	stimuli_distractor_trianglediamonds.svg	stimuli_target_diamondsquares.svg	28	yes	pa	0	1985	6	2	antiphase_hc_ios.wav	3	6	6	noise_calib_stim_RIGHT.wav	2	19	blb_dichoticlistening_ka-ba.mp3	ka	ba	1	other
6.6.1	win	2023-06-02	07:53:30	08:03:47	615086	60412f7a5f580407f8e6e615	3	1	DL_test	23	DL_test	6	stimuli_distractor_trianglediamonds.svg	stimuli_target_diamondsquares.svg	28	yes	ta	1	2203	6	2	antiphase_hc_ios.wav	3	6	6	noise_calib_stim_RIGHT.wav	2	33	blb_dichoticlistening_ta-ga.mp3	ta	ga	1	left
6.6.1	win	2023-06-02	07:53:30	08:03:47	615086	60412f7a5f580407f8e6e615	3	1	DL_test	23	DL_test	7	stimuli_distractor_trianglediamonds.svg	stimuli_target_diamondsquares.svg	28	yes	da	1	992	6	2	antiphase_hc_ios.wav	3	6	6	noise_calib_stim_RIGHT.wav	2	32	blb_dichoticlistening_ta-da.mp3	ta	da	1	right
6.6.1	win	2023-06-02	07:53:30	08:03:47	615086	60412f7a5f580407f8e6e615	3	1	DL_test	23	DL_test	8	stimuli_distractor_trianglediamonds.svg	stimuli_target_diamondsquares.svg	28	yes	pa	1	1142	6	2	antiphase_hc_ios.wav	3	6	6	noise_calib_stim_RIGHT.wav	2	23	blb_dichoticlistening_ka-pa.mp3	ka	pa	1	right
6.6.1	win	2023-06-02	07:53:30	08:03:47	615086	60412f7a5f580407f8e6e615	3	1	DL_test	23	DL_test	9	stimuli_distractor_trianglediamonds.svg	stimuli_target_diamondsquares.svg	28	yes	ba	1	1017	6	2	antiphase_hc_ios.wav	3	6	6	noise_calib_stim_RIGHT.wav	2	7	blb_dichoticlistening_da-ba.mp3	da	ba	1	right
6.6.1	win	2023-06-02	07:53:30	08:03:47	615086	60412f7a5f580407f8e6e615	3	1	DL_test	23	DL_test	10	stimuli_distractor_trianglediamonds.svg	stimuli_target_diamondsquares.svg	28	yes	ka	0	1943	6	2	antiphase_hc_ios.wav	3	6	6	noise_calib_stim_RIGHT.wav	2	18	blb_dichoticlistening_ga-ta.mp3	ga	ta	1	other
6.6.1	win	2023-06-02	07:53:30	08:03:47	615086	60412f7a5f580407f8e6e615	3	1	DL_test	23	DL_test	11	stimuli_distractor_trianglediamonds.svg	stimuli_target_diamondsquares.svg	28	yes	pa	1	1002	6	2	antiphase_hc_ios.wav	3	6	6	noise_calib_stim_RIGHT.wav	2	17	blb_dichoticlistening_ga-pa.mp3	ga	pa	1	right
6.6.1	win	2023-06-02	07:53:30	08:03:47	615086	60412f7a5f580407f8e6e615	3	1	DL_test	23	DL_test	12	stimuli_distractor_trianglediamonds.svg	stimuli_target_diamondsquares.svg	28	yes	da	1	1253	6	2	antiphase_hc_ios.wav	3	6	6	noise_calib_stim_RIGHT.wav	2	2	blb_dichoticlistening_ba-da.mp3	ba	da	1	right
6.6.1	win	2023-06-02	07:53:30	08:03:47	615086	60412f7a5f580407f8e6e615	3	1	DL_test	23	DL_test	13	stimuli_distractor_trianglediamonds.svg	stimuli_target_diamondsquares.svg	28	yes	ba	1	715	6	2	antiphase_hc_ios.wav	3	6	6	noise_calib_stim_RIGHT.wav	2	1	blb_dichoticlistening_ba-ba.mp3	ba	ba	0	left
6.6.1	win	2023-06-02	07:53:30	08:03:47	615086	60412f7a5f580407f8e6e615	3	1	DL_test	23	DL_test	14	stimuli_distractor_trianglediamonds.svg	stimuli_target_diamondsquares.svg	28	yes	pa	0	1270	6	2	antiphase_hc_ios.wav	3	6	6	noise_calib_stim_RIGHT.wav	2	10	blb_dichoticlistening_da-ka.mp3	da	ka	1	other
6.6.1	win	2023-06-02	07:53:30	08:03:47	615086	60412f7a5f580407f8e6e615	3	1	DL_test	23	DL_test	15	stimuli_distractor_trianglediamonds.svg	stimuli_target_diamondsquares.svg	28	yes	pa	1	1280	6	2	antiphase_hc_ios.wav	3	6	6	noise_calib_stim_RIGHT.wav	2	5	blb_dichoticlistening_ba-pa.mp3	ba	pa	1	right
6.6.1	win	2023-06-02	07:53:30	08:03:47	615086	60412f7a5f580407f8e6e615	3	1	DL_test	23	DL_test	16	stimuli_distractor_trianglediamonds.svg	stimuli_target_diamondsquares.svg	28	yes	ka	1	1169	6	2	antiphase_hc_ios.wav	3	6	6	noise_calib_stim_RIGHT.wav	2	28	blb_dichoticlistening_pa-ka.mp3	pa	ka	1	right
6.6.1	win	2023-06-02	07:53:30	08:03:47	615086	60412f7a5f580407f8e6e615	3	1	DL_test	23	DL_test	17	stimuli_distractor_trianglediamonds.svg	stimuli_target_diamondsquares.svg	28	yes	pa	1	999	6	2	antiphase_hc_ios.wav	3	6	6	noise_calib_stim_RIGHT.wav	2	29	blb_dichoticlistening_pa-pa.mp3	pa	pa	0	left
6.6.1	win	2023-06-02	07:53:30	08:03:47	615086	60412f7a5f580407f8e6e615	3	1	DL_test	23	DL_test	18	stimuli_distractor_trianglediamonds.svg	stimuli_target_diamondsquares.svg	28	yes	da	0	1031	6	2	antiphase_hc_ios.wav	3	6	6	noise_calib_stim_RIGHT.wav	2	15	blb_dichoticlistening_ga-ga.mp3	ga	ga	0	other
6.6.1	win	2023-06-02	07:53:30	08:03:47	615086	60412f7a5f580407f8e6e615	3	1	DL_test	23	DL_test	19	stimuli_distractor_trianglediamonds.svg	stimuli_target_diamondsquares.svg	28	yes	da	0	1159	6	2	antiphase_hc_ios.wav	3	6	6	noise_calib_stim_RIGHT.wav	2	27	blb_dichoticlistening_pa-ga.mp3	pa	ga	1	other
6.6.1	win	2023-06-02	07:53:30	08:03:47	615086	60412f7a5f580407f8e6e615	3	1	DL_test	23	DL_test	20	stimuli_distractor_trianglediamonds.svg	stimuli_target_diamondsquares.svg	28	yes	ta	1	1833	6	2	antiphase_hc_ios.wav	3	6	6	noise_calib_stim_RIGHT.wav	2	30	blb_dichoticlistening_pa-ta.mp3	pa	ta	1	right
6.6.1	win	2023-06-02	07:53:30	08:03:47	615086	60412f7a5f580407f8e6e615	3	1	DL_test	23	DL_test	21	stimuli_distractor_trianglediamonds.svg	stimuli_target_diamondsquares.svg	28	yes	da	0	841	6	2	antiphase_hc_ios.wav	3	6	6	noise_calib_stim_RIGHT.wav	2	3	blb_dichoticlistening_ba-ga.mp3	ba	ga	1	other
6.6.1	win	2023-06-02	07:53:30	08:03:47	615086	60412f7a5f580407f8e6e615	3	1	DL_test	23	DL_test	22	stimuli_distractor_trianglediamonds.svg	stimuli_target_diamondsquares.svg	28	yes	ka	1	1166	6	2	antiphase_hc_ios.wav	3	6	6	noise_calib_stim_RIGHT.wav	2	21	blb_dichoticlistening_ka-ga.mp3	ka	ga	1	left
6.6.1	win	2023-06-02	07:53:30	08:03:47	615086	60412f7a5f580407f8e6e615	3	1	DL_test	23	DL_test	23	stimuli_distractor_trianglediamonds.svg	stimuli_target_diamondsquares.svg	28	yes	pa	1	673	6	2	antiphase_hc_ios.wav	3	6	6	noise_calib_stim_RIGHT.wav	2	35	blb_dichoticlistening_ta-pa.mp3	ta	pa	1	right
6.6.1	win	2023-06-02	07:53:30	08:03:47	615086	60412f7a5f580407f8e6e615	3	1	DL_test	23	DL_test	24	stimuli_distractor_trianglediamonds.svg	stimuli_target_diamondsquares.svg	28	yes	ka	0	1588	6	2	antiphase_hc_ios.wav	3	6	6	noise_calib_stim_RIGHT.wav	2	26	blb_dichoticlistening_pa-da.mp3	pa	da	1	other
6.6.1	win	2023-06-02	07:53:30	08:03:47	615086	60412f7a5f580407f8e6e615	3	1	DL_test	23	DL_test	25	stimuli_distractor_trianglediamonds.svg	stimuli_target_diamondsquares.svg	28	yes	da	1	992	6	2	antiphase_hc_ios.wav	3	6	6	noise_calib_stim_RIGHT.wav	2	14	blb_dichoticlistening_ga-da.mp3	ga	da	1	right
6.6.1	win	2023-06-02	07:53:30	08:03:47	615086	60412f7a5f580407f8e6e615	3	1	DL_test	23	DL_test	26	stimuli_distractor_trianglediamonds.svg	stimuli_target_diamondsquares.svg	28	yes	ka	1	1090	6	2	antiphase_hc_ios.wav	3	6	6	noise_calib_stim_RIGHT.wav	2	34	blb_dichoticlistening_ta-ka.mp3	ta	ka	1	right
