build	computer.platform	date	time	timestamp	time_elapsed_ms	subject	group	session	blockcode	blocknum	trialcode	trialnum	stimulus_left	stimulus_right	stim_index	target_present	response	correct	latency	headphonecheck_countTestTrials	headphonecheck_index	headphonecheck_testSound	headphonecheck_correctResponse	stereocheck_countTestTrials	stereocheck_index	stereocheck_testSound	stereocheck_correctResponse	DL_index	DL_soundfile	DL_leftSound	DL_rightSound	DL_dualSound	DL_choice
6.6.1	mac	2023-07-09	19:39:51	19:42:56	164683	61474f07f4cfbc50cb3b2f1e	3	1	practice_slash	5	practice_slash	1	stimuli_distractor_diamondtriangles.svg	stimuli_distractor_diamondtriangles.svg	13	no	0	1	2000	0	0			0	0			1				0	
6.6.1	mac	2023-07-09	19:39:51	19:42:56	164683	61474f07f4cfbc50cb3b2f1e	3	1	practice_slash	5	advance_on_keypress_SLASH	2	stimuli_distractor_diamondtriangles.svg	stimuli_distractor_diamondtriangles.svg	13	no	57	0	1463	0	0			0	0			1				0	
6.6.1	mac	2023-07-09	19:39:51	19:43:01	169784	61474f07f4cfbc50cb3b2f1e	3	1	practice_slash	5	practice_slash	3	stimuli_distractor_trianglediamonds.svg	stimuli_distractor_trianglediamonds.svg	15	no	0	1	2000	0	0			0	0			1				0	
6.6.1	mac	2023-07-09	19:39:51	19:43:01	169784	61474f07f4cfbc50cb3b2f1e	3	1	practice_slash	5	advance_on_keypress_SLASH	4	stimuli_distractor_trianglediamonds.svg	stimuli_distractor_trianglediamonds.svg	15	no	57	0	1128	0	0			0	0			1				0	
6.6.1	mac	2023-07-09	19:39:51	19:43:05	173585	61474f07f4cfbc50cb3b2f1e	3	1	practice_slash	5	practice_slash	5	stimuli_distractor_diamondtriangles.svg	stimuli_target_trianglerectangles.svg	9	yes	53	1	1028	0	0			0	0			1				0	
6.6.1	mac	2023-07-09	19:39:51	19:43:05	173585	61474f07f4cfbc50cb3b2f1e	3	1	practice_slash	5	advance_on_keypress_SLASH	6	stimuli_distractor_diamondtriangles.svg	stimuli_target_trianglerectangles.svg	9	yes	57	0	1419	0	0			0	0			1				0	
6.6.1	mac	2023-07-09	19:39:51	19:43:09	177626	61474f07f4cfbc50cb3b2f1e	3	1	practice_slash	5	practice_slash	7	stimuli_distractor_trianglediamonds.svg	stimuli_target_squarediamonds.svg	11	yes	53	1	983	0	0			0	0			1				0	
6.6.1	mac	2023-07-09	19:39:51	19:43:09	177626	61474f07f4cfbc50cb3b2f1e	3	1	practice_slash	5	advance_on_keypress_SLASH	8	stimuli_distractor_trianglediamonds.svg	stimuli_target_squarediamonds.svg	11	yes	57	0	1382	0	0			0	0			1				0	
6.6.1	mac	2023-07-09	19:39:51	19:43:13	181247	61474f07f4cfbc50cb3b2f1e	3	1	practice_slash	5	practice_slash	9	stimuli_target_squarediamonds.svg	stimuli_distractor_diamondtriangles.svg	2	yes	53	1	599	0	0			0	0			1				0	
6.6.1	mac	2023-07-09	19:39:51	19:43:13	181247	61474f07f4cfbc50cb3b2f1e	3	1	practice_slash	5	advance_on_keypress_SLASH	10	stimuli_target_squarediamonds.svg	stimuli_distractor_diamondtriangles.svg	2	yes	57	0	1122	0	0			0	0			1				0	
6.6.1	mac	2023-07-09	19:39:51	19:43:16	184757	61474f07f4cfbc50cb3b2f1e	3	1	practice_slash	5	practice_slash	11	stimuli_target_diamondsquares.svg	stimuli_distractor_diamondtriangles.svg	3	yes	53	1	760	0	0			0	0			1				0	
6.6.1	mac	2023-07-09	19:39:51	19:43:16	184757	61474f07f4cfbc50cb3b2f1e	3	1	practice_slash	5	advance_on_keypress_SLASH	12	stimuli_target_diamondsquares.svg	stimuli_distractor_diamondtriangles.svg	3	yes	57	0	990	0	0			0	0			1				0	
6.6.1	mac	2023-07-09	19:39:51	19:43:19	187961	61474f07f4cfbc50cb3b2f1e	3	1	practice_slash	5	practice_slash	13	stimuli_target_rectanglediamonds.svg	stimuli_distractor_diamondtriangles.svg	1	yes	53	1	579	0	0			0	0			1				0	
6.6.1	mac	2023-07-09	19:39:51	19:43:19	187961	61474f07f4cfbc50cb3b2f1e	3	1	practice_slash	5	advance_on_keypress_SLASH	14	stimuli_target_rectanglediamonds.svg	stimuli_distractor_diamondtriangles.svg	1	yes	57	0	967	0	0			0	0			1				0	
6.6.1	mac	2023-07-09	19:39:51	19:43:24	192570	61474f07f4cfbc50cb3b2f1e	3	1	practice_slash	5	practice_slash	15	stimuli_distractor_trianglediamonds.svg	stimuli_distractor_diamondtriangles.svg	16	no	0	1	2000	0	0			0	0			1				0	
6.6.1	mac	2023-07-09	19:39:51	19:43:24	192570	61474f07f4cfbc50cb3b2f1e	3	1	practice_slash	5	advance_on_keypress_SLASH	16	stimuli_distractor_trianglediamonds.svg	stimuli_distractor_diamondtriangles.svg	16	no	57	0	1416	0	0			0	0			1				0	
6.6.1	mac	2023-07-09	19:39:51	19:43:29	197624	61474f07f4cfbc50cb3b2f1e	3	1	practice_slash	5	practice_slash	17	stimuli_distractor_diamondtriangles.svg	stimuli_distractor_trianglediamonds.svg	14	no	0	1	2000	0	0			0	0			1				0	
6.6.1	mac	2023-07-09	19:39:51	19:43:29	197624	61474f07f4cfbc50cb3b2f1e	3	1	practice_slash	5	advance_on_keypress_SLASH	18	stimuli_distractor_diamondtriangles.svg	stimuli_distractor_trianglediamonds.svg	14	no	57	0	648	0	0			0	0			1				0	
6.6.1	mac	2023-07-09	19:39:51	19:43:32	200393	61474f07f4cfbc50cb3b2f1e	3	1	practice_slash	5	practice_slash	19	stimuli_distractor_trianglediamonds.svg	stimuli_target_rectanglediamonds.svg	10	yes	53	1	486	0	0			0	0			1				0	
6.6.1	mac	2023-07-09	19:39:51	19:43:32	200393	61474f07f4cfbc50cb3b2f1e	3	1	practice_slash	5	advance_on_keypress_SLASH	20	stimuli_distractor_trianglediamonds.svg	stimuli_target_rectanglediamonds.svg	10	yes	57	0	1078	0	0			0	0			1				0	
6.6.1	mac	2023-07-09	19:39:51	19:43:35	203955	61474f07f4cfbc50cb3b2f1e	3	1	practice_slash	5	practice_slash	21	stimuli_distractor_trianglediamonds.svg	stimuli_target_diamondrectangles.svg	12	yes	53	1	844	0	0			0	0			1				0	
6.6.1	mac	2023-07-09	19:39:51	19:43:35	203955	61474f07f4cfbc50cb3b2f1e	3	1	practice_slash	5	advance_on_keypress_SLASH	22	stimuli_distractor_trianglediamonds.svg	stimuli_target_diamondrectangles.svg	12	yes	57	0	520	0	0			0	0			1				0	
6.6.1	mac	2023-07-09	19:39:51	19:43:38	206767	61474f07f4cfbc50cb3b2f1e	3	1	practice_slash	5	practice_slash	23	stimuli_target_squarediamonds.svg	stimuli_distractor_trianglediamonds.svg	5	yes	53	1	653	0	0			0	0			1				0	
6.6.1	mac	2023-07-09	19:39:51	19:43:38	206767	61474f07f4cfbc50cb3b2f1e	3	1	practice_slash	5	advance_on_keypress_SLASH	24	stimuli_target_squarediamonds.svg	stimuli_distractor_trianglediamonds.svg	5	yes	57	0	390	0	0			0	0			1				0	
6.6.1	mac	2023-07-09	19:39:51	19:43:41	209887	61474f07f4cfbc50cb3b2f1e	3	1	practice_slash	5	practice_slash	25	stimuli_distractor_diamondtriangles.svg	stimuli_target_diamondrectangles.svg	8	yes	53	1	1089	0	0			0	0			1				0	
6.6.1	mac	2023-07-09	19:39:51	19:43:41	209887	61474f07f4cfbc50cb3b2f1e	3	1	practice_slash	5	advance_on_keypress_SLASH	26	stimuli_distractor_diamondtriangles.svg	stimuli_target_diamondrectangles.svg	8	yes	57	0	339	0	0			0	0			1				0	
6.6.1	mac	2023-07-09	19:39:51	19:43:44	212593	61474f07f4cfbc50cb3b2f1e	3	1	practice_slash	5	practice_slash	27	stimuli_target_diamondsquares.svg	stimuli_distractor_trianglediamonds.svg	6	yes	53	1	724	0	0			0	0			1				0	
6.6.1	mac	2023-07-09	19:39:51	19:43:44	212593	61474f07f4cfbc50cb3b2f1e	3	1	practice_slash	5	advance_on_keypress_SLASH	28	stimuli_target_diamondsquares.svg	stimuli_distractor_trianglediamonds.svg	6	yes	57	0	273	0	0			0	0			1				0	
6.6.1	mac	2023-07-09	19:39:51	19:43:47	215147	61474f07f4cfbc50cb3b2f1e	3	1	practice_slash	5	practice_slash	29	stimuli_distractor_diamondtriangles.svg	stimuli_target_rectangletriangles.svg	7	yes	53	1	645	0	0			0	0			1				0	
6.6.1	mac	2023-07-09	19:39:51	19:43:47	215147	61474f07f4cfbc50cb3b2f1e	3	1	practice_slash	5	advance_on_keypress_SLASH	30	stimuli_distractor_diamondtriangles.svg	stimuli_target_rectangletriangles.svg	7	yes	57	0	412	0	0			0	0			1				0	
6.6.1	mac	2023-07-09	19:39:51	19:43:49	217946	61474f07f4cfbc50cb3b2f1e	3	1	practice_slash	5	practice_slash	31	stimuli_target_rectanglediamonds.svg	stimuli_distractor_trianglediamonds.svg	4	yes	53	1	741	0	0			0	0			1				0	
6.6.1	mac	2023-07-09	19:39:51	19:43:49	217946	61474f07f4cfbc50cb3b2f1e	3	1	practice_slash	5	advance_on_keypress_SLASH	32	stimuli_target_rectanglediamonds.svg	stimuli_distractor_trianglediamonds.svg	4	yes	57	0	374	0	0			0	0			1				0	
6.6.1	mac	2023-07-09	19:39:51	19:44:33	261122	61474f07f4cfbc50cb3b2f1e	3	1	main_slash	7	main_slash	1	stimuli_target_rectangletriangles.svg	stimuli_distractor_trianglediamonds.svg	1	yes	53	1	541	0	0			0	0			1				0	
6.6.1	mac	2023-07-09	19:39:51	19:44:33	261122	61474f07f4cfbc50cb3b2f1e	3	1	main_slash	7	advance_on_keypress_SLASH	2	stimuli_target_rectangletriangles.svg	stimuli_distractor_trianglediamonds.svg	1	yes	57	0	1428	0	0			0	0			1				0	
6.6.1	mac	2023-07-09	19:39:51	19:44:35	263897	61474f07f4cfbc50cb3b2f1e	3	1	main_slash	7	main_slash	3	stimuli_target_trianglesquares.svg	stimuli_distractor_trianglediamonds.svg	18	yes	53	1	714	0	0			0	0			1				0	
6.6.1	mac	2023-07-09	19:39:51	19:44:35	263897	61474f07f4cfbc50cb3b2f1e	3	1	main_slash	7	advance_on_keypress_SLASH	4	stimuli_target_trianglesquares.svg	stimuli_distractor_trianglediamonds.svg	18	yes	57	0	519	0	0			0	0			1				0	
6.6.1	mac	2023-07-09	19:39:51	19:44:38	267053	61474f07f4cfbc50cb3b2f1e	3	1	main_slash	7	main_slash	5	stimuli_distractor_trianglediamonds.svg	stimuli_distractor_trianglediamonds.svg	33	no	0	1	2000	0	0			0	0			1				0	
6.6.1	mac	2023-07-09	19:39:51	19:44:38	267053	61474f07f4cfbc50cb3b2f1e	3	1	main_slash	7	advance_on_keypress_SLASH	6	stimuli_distractor_trianglediamonds.svg	stimuli_distractor_trianglediamonds.svg	33	no	57	0	441	0	0			0	0			1				0	
6.6.1	mac	2023-07-09	19:39:51	19:44:41	269671	61474f07f4cfbc50cb3b2f1e	3	1	main_slash	7	main_slash	7	stimuli_target_squaretriangles.svg	stimuli_distractor_trianglediamonds.svg	3	yes	53	1	1551	0	0			0	0			1				0	
6.6.1	mac	2023-07-09	19:39:51	19:44:41	269671	61474f07f4cfbc50cb3b2f1e	3	1	main_slash	7	advance_on_keypress_SLASH	8	stimuli_target_squaretriangles.svg	stimuli_distractor_trianglediamonds.svg	3	yes	57	0	678	0	0			0	0			1				0	
6.6.1	mac	2023-07-09	19:39:51	19:44:43	271838	61474f07f4cfbc50cb3b2f1e	3	1	main_slash	7	main_slash	9	stimuli_target_squarediamonds.svg	stimuli_distractor_diamondtriangles.svg	8	yes	53	1	847	0	0			0	0			1				0	
6.6.1	mac	2023-07-09	19:39:51	19:44:43	271838	61474f07f4cfbc50cb3b2f1e	3	1	main_slash	7	advance_on_keypress_SLASH	10	stimuli_target_squarediamonds.svg	stimuli_distractor_diamondtriangles.svg	8	yes	57	0	558	0	0			0	0			1				0	
6.6.1	mac	2023-07-09	19:39:51	19:44:45	273854	61474f07f4cfbc50cb3b2f1e	3	1	main_slash	7	main_slash	11	stimuli_distractor_trianglediamonds.svg	stimuli_target_squarediamonds.svg	12	yes	53	1	832	0	0			0	0			1				0	
6.6.1	mac	2023-07-09	19:39:51	19:44:45	273854	61474f07f4cfbc50cb3b2f1e	3	1	main_slash	7	advance_on_keypress_SLASH	12	stimuli_distractor_trianglediamonds.svg	stimuli_target_squarediamonds.svg	12	yes	57	0	466	0	0			0	0			1				0	
6.6.1	mac	2023-07-09	19:39:51	19:44:48	276277	61474f07f4cfbc50cb3b2f1e	3	1	main_slash	7	main_slash	13	stimuli_target_squaretriangles.svg	stimuli_distractor_diamondtriangles.svg	7	yes	53	1	1316	0	0			0	0			1				0	
6.6.1	mac	2023-07-09	19:39:51	19:44:48	276277	61474f07f4cfbc50cb3b2f1e	3	1	main_slash	7	advance_on_keypress_SLASH	14	stimuli_target_squaretriangles.svg	stimuli_distractor_diamondtriangles.svg	7	yes	57	0	365	0	0			0	0			1				0	
6.6.1	mac	2023-07-09	19:39:51	19:44:51	279278	61474f07f4cfbc50cb3b2f1e	3	1	main_slash	7	main_slash	15	stimuli_target_diamondsquares.svg	stimuli_distractor_trianglediamonds.svg	20	yes	0	0	2000	0	0			0	0			1				0	
6.6.1	mac	2023-07-09	19:39:51	19:44:51	279278	61474f07f4cfbc50cb3b2f1e	3	1	main_slash	7	advance_on_keypress_SLASH	16	stimuli_target_diamondsquares.svg	stimuli_distractor_trianglediamonds.svg	20	yes	57	0	501	0	0			0	0			1				0	
6.6.1	mac	2023-07-09	19:39:51	19:44:53	281158	61474f07f4cfbc50cb3b2f1e	3	1	main_slash	7	main_slash	17	stimuli_target_trianglesquares.svg	stimuli_distractor_diamondtriangles.svg	22	yes	53	1	743	0	0			0	0			1				0	
6.6.1	mac	2023-07-09	19:39:51	19:44:53	281158	61474f07f4cfbc50cb3b2f1e	3	1	main_slash	7	advance_on_keypress_SLASH	18	stimuli_target_trianglesquares.svg	stimuli_distractor_diamondtriangles.svg	22	yes	57	0	917	0	0			0	0			1				0	
6.6.1	mac	2023-07-09	19:39:51	19:44:55	283547	61474f07f4cfbc50cb3b2f1e	3	1	main_slash	7	main_slash	19	stimuli_target_rectanglediamonds.svg	stimuli_distractor_trianglediamonds.svg	2	yes	53	1	833	0	0			0	0			1				0	
6.6.1	mac	2023-07-09	19:39:51	19:44:55	283547	61474f07f4cfbc50cb3b2f1e	3	1	main_slash	7	advance_on_keypress_SLASH	20	stimuli_target_rectanglediamonds.svg	stimuli_distractor_trianglediamonds.svg	2	yes	57	0	660	0	0			0	0			1				0	
6.6.1	mac	2023-07-09	19:39:51	19:44:58	286835	61474f07f4cfbc50cb3b2f1e	3	1	main_slash	7	main_slash	21	stimuli_distractor_diamondtriangles.svg	stimuli_distractor_trianglediamonds.svg	37	no	0	1	2000	0	0			0	0			1				0	
6.6.1	mac	2023-07-09	19:39:51	19:44:58	286835	61474f07f4cfbc50cb3b2f1e	3	1	main_slash	7	advance_on_keypress_SLASH	22	stimuli_distractor_diamondtriangles.svg	stimuli_distractor_trianglediamonds.svg	37	no	57	0	512	0	0			0	0			1				0	
6.6.1	mac	2023-07-09	19:39:51	19:45:00	288795	61474f07f4cfbc50cb3b2f1e	3	1	main_slash	7	main_slash	23	stimuli_distractor_trianglediamonds.svg	stimuli_target_diamondrectangles.svg	27	yes	53	1	812	0	0			0	0			1				0	
6.6.1	mac	2023-07-09	19:39:51	19:45:00	288795	61474f07f4cfbc50cb3b2f1e	3	1	main_slash	7	advance_on_keypress_SLASH	24	stimuli_distractor_trianglediamonds.svg	stimuli_target_diamondrectangles.svg	27	yes	57	0	547	0	0			0	0			1				0	
6.6.1	mac	2023-07-09	19:39:51	19:45:03	291972	61474f07f4cfbc50cb3b2f1e	3	1	main_slash	7	main_slash	25	stimuli_distractor_diamondtriangles.svg	stimuli_distractor_diamondtriangles.svg	39	no	0	1	2000	0	0			0	0			1				0	
6.6.1	mac	2023-07-09	19:39:51	19:45:03	291972	61474f07f4cfbc50cb3b2f1e	3	1	main_slash	7	advance_on_keypress_SLASH	26	stimuli_distractor_diamondtriangles.svg	stimuli_distractor_diamondtriangles.svg	39	no	57	0	418	0	0			0	0			1				0	
6.6.1	mac	2023-07-09	19:39:51	19:45:05	293677	61474f07f4cfbc50cb3b2f1e	3	1	main_slash	7	main_slash	27	stimuli_distractor_diamondtriangles.svg	stimuli_target_squarediamonds.svg	16	yes	53	1	655	0	0			0	0			1				0	
6.6.1	mac	2023-07-09	19:39:51	19:45:05	293677	61474f07f4cfbc50cb3b2f1e	3	1	main_slash	7	advance_on_keypress_SLASH	28	stimuli_distractor_diamondtriangles.svg	stimuli_target_squarediamonds.svg	16	yes	57	0	619	0	0			0	0			1				0	
6.6.1	mac	2023-07-09	19:39:51	19:45:08	296227	61474f07f4cfbc50cb3b2f1e	3	1	main_slash	7	main_slash	29	stimuli_distractor_diamondtriangles.svg	stimuli_target_squaretriangles.svg	15	yes	53	1	1302	0	0			0	0			1				0	
6.6.1	mac	2023-07-09	19:39:51	19:45:08	296227	61474f07f4cfbc50cb3b2f1e	3	1	main_slash	7	advance_on_keypress_SLASH	30	stimuli_distractor_diamondtriangles.svg	stimuli_target_squaretriangles.svg	15	yes	57	0	504	0	0			0	0			1				0	
6.6.1	mac	2023-07-09	19:39:51	19:45:10	298620	61474f07f4cfbc50cb3b2f1e	3	1	main_slash	7	main_slash	31	stimuli_distractor_trianglediamonds.svg	stimuli_target_diamondsquares.svg	28	yes	53	1	1262	0	0			0	0			1				0	
6.6.1	mac	2023-07-09	19:39:51	19:45:10	298620	61474f07f4cfbc50cb3b2f1e	3	1	main_slash	7	advance_on_keypress_SLASH	32	stimuli_distractor_trianglediamonds.svg	stimuli_target_diamondsquares.svg	28	yes	57	0	501	0	0			0	0			1				0	
6.6.1	mac	2023-07-09	19:39:51	19:45:12	300728	61474f07f4cfbc50cb3b2f1e	3	1	main_slash	7	main_slash	33	stimuli_target_rectanglediamonds.svg	stimuli_distractor_diamondtriangles.svg	6	yes	53	1	966	0	0			0	0			1				0	
6.6.1	mac	2023-07-09	19:39:51	19:45:12	300728	61474f07f4cfbc50cb3b2f1e	3	1	main_slash	7	advance_on_keypress_SLASH	34	stimuli_target_rectanglediamonds.svg	stimuli_distractor_diamondtriangles.svg	6	yes	57	0	383	0	0			0	0			1				0	
6.6.1	mac	2023-07-09	19:39:51	19:45:15	303597	61474f07f4cfbc50cb3b2f1e	3	1	main_slash	7	main_slash	35	stimuli_distractor_trianglediamonds.svg	stimuli_target_rectangletriangles.svg	9	yes	53	1	1851	0	0			0	0			1				0	
6.6.1	mac	2023-07-09	19:39:51	19:45:15	303597	61474f07f4cfbc50cb3b2f1e	3	1	main_slash	7	advance_on_keypress_SLASH	36	stimuli_distractor_trianglediamonds.svg	stimuli_target_rectangletriangles.svg	9	yes	57	0	375	0	0			0	0			1				0	
6.6.1	mac	2023-07-09	19:39:51	19:45:17	305592	61474f07f4cfbc50cb3b2f1e	3	1	main_slash	7	main_slash	37	stimuli_distractor_trianglediamonds.svg	stimuli_target_trianglesquares.svg	26	yes	53	1	993	0	0			0	0			1				0	
6.6.1	mac	2023-07-09	19:39:51	19:45:17	305592	61474f07f4cfbc50cb3b2f1e	3	1	main_slash	7	advance_on_keypress_SLASH	38	stimuli_distractor_trianglediamonds.svg	stimuli_target_trianglesquares.svg	26	yes	57	0	393	0	0			0	0			1				0	
6.6.1	mac	2023-07-09	19:39:51	19:45:20	308616	61474f07f4cfbc50cb3b2f1e	3	1	main_slash	7	main_slash	39	stimuli_distractor_trianglediamonds.svg	stimuli_distractor_diamondtriangles.svg	36	no	0	1	2000	0	0			0	0			1				0	
6.6.1	mac	2023-07-09	19:39:51	19:45:20	308616	61474f07f4cfbc50cb3b2f1e	3	1	main_slash	7	advance_on_keypress_SLASH	40	stimuli_distractor_trianglediamonds.svg	stimuli_distractor_diamondtriangles.svg	36	no	57	0	610	0	0			0	0			1				0	
6.6.1	mac	2023-07-09	19:39:51	19:45:22	310757	61474f07f4cfbc50cb3b2f1e	3	1	main_slash	7	main_slash	41	stimuli_distractor_diamondtriangles.svg	stimuli_target_trianglesquares.svg	30	yes	53	1	904	0	0			0	0			1				0	
6.6.1	mac	2023-07-09	19:39:51	19:45:22	310757	61474f07f4cfbc50cb3b2f1e	3	1	main_slash	7	advance_on_keypress_SLASH	42	stimuli_distractor_diamondtriangles.svg	stimuli_target_trianglesquares.svg	30	yes	57	0	316	0	0			0	0			1				0	
6.6.1	mac	2023-07-09	19:39:51	19:45:25	313703	61474f07f4cfbc50cb3b2f1e	3	1	main_slash	7	main_slash	43	stimuli_target_rectangletriangles.svg	stimuli_distractor_diamondtriangles.svg	5	yes	0	0	2000	0	0			0	0			1				0	
6.6.1	mac	2023-07-09	19:39:51	19:45:25	313703	61474f07f4cfbc50cb3b2f1e	3	1	main_slash	7	advance_on_keypress_SLASH	44	stimuli_target_rectangletriangles.svg	stimuli_distractor_diamondtriangles.svg	5	yes	57	0	551	0	0			0	0			1				0	
6.6.1	mac	2023-07-09	19:39:51	19:45:27	315960	61474f07f4cfbc50cb3b2f1e	3	1	main_slash	7	main_slash	45	stimuli_target_diamondrectangles.svg	stimuli_distractor_trianglediamonds.svg	19	yes	53	1	1070	0	0			0	0			1				0	
6.6.1	mac	2023-07-09	19:39:51	19:45:27	315960	61474f07f4cfbc50cb3b2f1e	3	1	main_slash	7	advance_on_keypress_SLASH	46	stimuli_target_diamondrectangles.svg	stimuli_distractor_trianglediamonds.svg	19	yes	57	0	410	0	0			0	0			1				0	
6.6.1	mac	2023-07-09	19:39:51	19:45:29	317831	61474f07f4cfbc50cb3b2f1e	3	1	main_slash	7	main_slash	47	stimuli_target_squarediamonds.svg	stimuli_distractor_trianglediamonds.svg	4	yes	53	1	825	0	0			0	0			1				0	
6.6.1	mac	2023-07-09	19:39:51	19:45:29	317831	61474f07f4cfbc50cb3b2f1e	3	1	main_slash	7	advance_on_keypress_SLASH	48	stimuli_target_squarediamonds.svg	stimuli_distractor_trianglediamonds.svg	4	yes	57	0	389	0	0			0	0			1				0	
6.6.1	mac	2023-07-09	19:39:51	19:45:31	319877	61474f07f4cfbc50cb3b2f1e	3	1	main_slash	7	main_slash	49	stimuli_distractor_trianglediamonds.svg	stimuli_target_trianglerectangles.svg	25	yes	53	1	1021	0	0			0	0			1				0	
6.6.1	mac	2023-07-09	19:39:51	19:45:31	319877	61474f07f4cfbc50cb3b2f1e	3	1	main_slash	7	advance_on_keypress_SLASH	50	stimuli_distractor_trianglediamonds.svg	stimuli_target_trianglerectangles.svg	25	yes	57	0	587	0	0			0	0			1				0	
6.6.1	mac	2023-07-09	19:39:51	19:45:33	322046	61474f07f4cfbc50cb3b2f1e	3	1	main_slash	7	main_slash	51	stimuli_target_diamondsquares.svg	stimuli_distractor_diamondtriangles.svg	24	yes	53	1	954	0	0			0	0			1				0	
6.6.1	mac	2023-07-09	19:39:51	19:45:33	322046	61474f07f4cfbc50cb3b2f1e	3	1	main_slash	7	advance_on_keypress_SLASH	52	stimuli_target_diamondsquares.svg	stimuli_distractor_diamondtriangles.svg	24	yes	57	0	323	0	0			0	0			1				0	
6.6.1	mac	2023-07-09	19:39:51	19:45:36	324376	61474f07f4cfbc50cb3b2f1e	3	1	main_slash	7	main_slash	53	stimuli_distractor_diamondtriangles.svg	stimuli_target_trianglerectangles.svg	29	yes	53	1	1367	0	0			0	0			1				0	
6.6.1	mac	2023-07-09	19:39:51	19:45:36	324376	61474f07f4cfbc50cb3b2f1e	3	1	main_slash	7	advance_on_keypress_SLASH	54	stimuli_distractor_diamondtriangles.svg	stimuli_target_trianglerectangles.svg	29	yes	57	0	332	0	0			0	0			1				0	
6.6.1	mac	2023-07-09	19:39:51	19:45:39	327344	61474f07f4cfbc50cb3b2f1e	3	1	main_slash	7	main_slash	55	stimuli_distractor_trianglediamonds.svg	stimuli_distractor_trianglediamonds.svg	34	no	0	1	2000	0	0			0	0			1				0	
6.6.1	mac	2023-07-09	19:39:51	19:45:39	327344	61474f07f4cfbc50cb3b2f1e	3	1	main_slash	7	advance_on_keypress_SLASH	56	stimuli_distractor_trianglediamonds.svg	stimuli_distractor_trianglediamonds.svg	34	no	57	0	454	0	0			0	0			1				0	
6.6.1	mac	2023-07-09	19:39:51	19:45:41	329738	61474f07f4cfbc50cb3b2f1e	3	1	main_slash	7	main_slash	57	stimuli_distractor_diamondtriangles.svg	stimuli_target_rectangletriangles.svg	13	yes	53	1	1310	0	0			0	0			1				0	
6.6.1	mac	2023-07-09	19:39:51	19:45:41	329738	61474f07f4cfbc50cb3b2f1e	3	1	main_slash	7	advance_on_keypress_SLASH	58	stimuli_distractor_diamondtriangles.svg	stimuli_target_rectangletriangles.svg	13	yes	57	0	356	0	0			0	0			1				0	
6.6.1	mac	2023-07-09	19:39:51	19:45:44	332732	61474f07f4cfbc50cb3b2f1e	3	1	main_slash	7	main_slash	59	stimuli_distractor_trianglediamonds.svg	stimuli_distractor_diamondtriangles.svg	35	no	0	1	2000	0	0			0	0			1				0	
6.6.1	mac	2023-07-09	19:39:51	19:45:44	332732	61474f07f4cfbc50cb3b2f1e	3	1	main_slash	7	advance_on_keypress_SLASH	60	stimuli_distractor_trianglediamonds.svg	stimuli_distractor_diamondtriangles.svg	35	no	57	0	459	0	0			0	0			1				0	
6.6.1	mac	2023-07-09	19:39:51	19:45:47	335816	61474f07f4cfbc50cb3b2f1e	3	1	main_slash	7	main_slash	61	stimuli_distractor_diamondtriangles.svg	stimuli_distractor_diamondtriangles.svg	40	no	0	1	2000	0	0			0	0			1				0	
6.6.1	mac	2023-07-09	19:39:51	19:45:47	335816	61474f07f4cfbc50cb3b2f1e	3	1	main_slash	7	advance_on_keypress_SLASH	62	stimuli_distractor_diamondtriangles.svg	stimuli_distractor_diamondtriangles.svg	40	no	57	0	378	0	0			0	0			1				0	
6.6.1	mac	2023-07-09	19:39:51	19:45:49	337402	61474f07f4cfbc50cb3b2f1e	3	1	main_slash	7	main_slash	63	stimuli_distractor_diamondtriangles.svg	stimuli_target_rectanglediamonds.svg	14	yes	53	1	569	0	0			0	0			1				0	
6.6.1	mac	2023-07-09	19:39:51	19:45:49	337402	61474f07f4cfbc50cb3b2f1e	3	1	main_slash	7	advance_on_keypress_SLASH	64	stimuli_distractor_diamondtriangles.svg	stimuli_target_rectanglediamonds.svg	14	yes	57	0	402	0	0			0	0			1				0	
6.6.1	mac	2023-07-09	19:39:51	19:45:51	339330	61474f07f4cfbc50cb3b2f1e	3	1	main_slash	7	main_slash	65	stimuli_target_diamondrectangles.svg	stimuli_distractor_diamondtriangles.svg	23	yes	53	1	895	0	0			0	0			1				0	
6.6.1	mac	2023-07-09	19:39:51	19:45:51	339330	61474f07f4cfbc50cb3b2f1e	3	1	main_slash	7	advance_on_keypress_SLASH	66	stimuli_target_diamondrectangles.svg	stimuli_distractor_diamondtriangles.svg	23	yes	57	0	296	0	0			0	0			1				0	
6.6.1	mac	2023-07-09	19:39:51	19:45:53	341123	61474f07f4cfbc50cb3b2f1e	3	1	main_slash	7	main_slash	67	stimuli_distractor_diamondtriangles.svg	stimuli_target_diamondsquares.svg	32	yes	53	1	852	0	0			0	0			1				0	
6.6.1	mac	2023-07-09	19:39:51	19:45:53	341123	61474f07f4cfbc50cb3b2f1e	3	1	main_slash	7	advance_on_keypress_SLASH	68	stimuli_distractor_diamondtriangles.svg	stimuli_target_diamondsquares.svg	32	yes	57	0	281	0	0			0	0			1				0	
6.6.1	mac	2023-07-09	19:39:51	19:45:55	343146	61474f07f4cfbc50cb3b2f1e	3	1	main_slash	7	main_slash	69	stimuli_distractor_trianglediamonds.svg	stimuli_target_rectanglediamonds.svg	10	yes	53	1	1108	0	0			0	0			1				0	
6.6.1	mac	2023-07-09	19:39:51	19:45:55	343146	61474f07f4cfbc50cb3b2f1e	3	1	main_slash	7	advance_on_keypress_SLASH	70	stimuli_distractor_trianglediamonds.svg	stimuli_target_rectanglediamonds.svg	10	yes	57	0	308	0	0			0	0			1				0	
6.6.1	mac	2023-07-09	19:39:51	19:45:56	344908	61474f07f4cfbc50cb3b2f1e	3	1	main_slash	7	main_slash	71	stimuli_target_trianglerectangles.svg	stimuli_distractor_trianglediamonds.svg	17	yes	53	1	820	0	0			0	0			1				0	
6.6.1	mac	2023-07-09	19:39:51	19:45:56	344908	61474f07f4cfbc50cb3b2f1e	3	1	main_slash	7	advance_on_keypress_SLASH	72	stimuli_target_trianglerectangles.svg	stimuli_distractor_trianglediamonds.svg	17	yes	57	0	272	0	0			0	0			1				0	
6.6.1	mac	2023-07-09	19:39:51	19:45:59	347808	61474f07f4cfbc50cb3b2f1e	3	1	main_slash	7	main_slash	73	stimuli_distractor_diamondtriangles.svg	stimuli_distractor_trianglediamonds.svg	38	no	0	1	2000	0	0			0	0			1				0	
6.6.1	mac	2023-07-09	19:39:51	19:45:59	347808	61474f07f4cfbc50cb3b2f1e	3	1	main_slash	7	advance_on_keypress_SLASH	74	stimuli_distractor_diamondtriangles.svg	stimuli_distractor_trianglediamonds.svg	38	no	57	0	440	0	0			0	0			1				0	
6.6.1	mac	2023-07-09	19:39:51	19:46:02	350889	61474f07f4cfbc50cb3b2f1e	3	1	main_slash	7	main_slash	75	stimuli_target_trianglerectangles.svg	stimuli_distractor_diamondtriangles.svg	21	yes	0	0	2000	0	0			0	0			1				0	
6.6.1	mac	2023-07-09	19:39:51	19:46:02	350889	61474f07f4cfbc50cb3b2f1e	3	1	main_slash	7	advance_on_keypress_SLASH	76	stimuli_target_trianglerectangles.svg	stimuli_distractor_diamondtriangles.svg	21	yes	57	0	352	0	0			0	0			1				0	
6.6.1	mac	2023-07-09	19:39:51	19:46:05	353333	61474f07f4cfbc50cb3b2f1e	3	1	main_slash	7	main_slash	77	stimuli_distractor_trianglediamonds.svg	stimuli_target_squaretriangles.svg	11	yes	53	1	1455	0	0			0	0			1				0	
6.6.1	mac	2023-07-09	19:39:51	19:46:05	353333	61474f07f4cfbc50cb3b2f1e	3	1	main_slash	7	advance_on_keypress_SLASH	78	stimuli_distractor_trianglediamonds.svg	stimuli_target_squaretriangles.svg	11	yes	57	0	413	0	0			0	0			1				0	
6.6.1	mac	2023-07-09	19:39:51	19:46:07	355512	61474f07f4cfbc50cb3b2f1e	3	1	main_slash	7	main_slash	79	stimuli_distractor_diamondtriangles.svg	stimuli_target_diamondrectangles.svg	31	yes	53	1	1134	0	0			0	0			1				0	
6.6.1	mac	2023-07-09	19:39:51	19:46:07	355512	61474f07f4cfbc50cb3b2f1e	3	1	main_slash	7	advance_on_keypress_SLASH	80	stimuli_distractor_diamondtriangles.svg	stimuli_target_diamondrectangles.svg	31	yes	57	0	372	0	0			0	0			1				0	
6.6.1	mac	2023-07-09	19:39:51	19:46:09	357409	61474f07f4cfbc50cb3b2f1e	3	1	main_slash	7	main_slash	81	stimuli_distractor_diamondtriangles.svg	stimuli_target_rectanglediamonds.svg	14	yes	53	1	894	0	0			0	0			1				0	
6.6.1	mac	2023-07-09	19:39:51	19:46:09	357409	61474f07f4cfbc50cb3b2f1e	3	1	main_slash	7	advance_on_keypress_SLASH	82	stimuli_distractor_diamondtriangles.svg	stimuli_target_rectanglediamonds.svg	14	yes	57	0	283	0	0			0	0			1				0	
6.6.1	mac	2023-07-09	19:39:51	19:46:11	359411	61474f07f4cfbc50cb3b2f1e	3	1	main_slash	7	main_slash	83	stimuli_distractor_diamondtriangles.svg	stimuli_target_trianglesquares.svg	30	yes	53	1	1080	0	0			0	0			1				0	
6.6.1	mac	2023-07-09	19:39:51	19:46:11	359411	61474f07f4cfbc50cb3b2f1e	3	1	main_slash	7	advance_on_keypress_SLASH	84	stimuli_distractor_diamondtriangles.svg	stimuli_target_trianglesquares.svg	30	yes	57	0	268	0	0			0	0			1				0	
6.6.1	mac	2023-07-09	19:39:51	19:46:13	361291	61474f07f4cfbc50cb3b2f1e	3	1	main_slash	7	main_slash	85	stimuli_distractor_diamondtriangles.svg	stimuli_target_diamondrectangles.svg	31	yes	53	1	974	0	0			0	0			1				0	
6.6.1	mac	2023-07-09	19:39:51	19:46:13	361291	61474f07f4cfbc50cb3b2f1e	3	1	main_slash	7	advance_on_keypress_SLASH	86	stimuli_distractor_diamondtriangles.svg	stimuli_target_diamondrectangles.svg	31	yes	57	0	306	0	0			0	0			1				0	
6.6.1	mac	2023-07-09	19:39:51	19:46:15	363406	61474f07f4cfbc50cb3b2f1e	3	1	main_slash	7	main_slash	87	stimuli_target_squaretriangles.svg	stimuli_distractor_trianglediamonds.svg	3	yes	53	1	1171	0	0			0	0			1				0	
6.6.1	mac	2023-07-09	19:39:51	19:46:15	363406	61474f07f4cfbc50cb3b2f1e	3	1	main_slash	7	advance_on_keypress_SLASH	88	stimuli_target_squaretriangles.svg	stimuli_distractor_trianglediamonds.svg	3	yes	57	0	276	0	0			0	0			1				0	
6.6.1	mac	2023-07-09	19:39:51	19:46:16	365074	61474f07f4cfbc50cb3b2f1e	3	1	main_slash	7	main_slash	89	stimuli_distractor_diamondtriangles.svg	stimuli_target_diamondsquares.svg	32	yes	53	1	756	0	0			0	0			1				0	
6.6.1	mac	2023-07-09	19:39:51	19:46:16	365074	61474f07f4cfbc50cb3b2f1e	3	1	main_slash	7	advance_on_keypress_SLASH	90	stimuli_distractor_diamondtriangles.svg	stimuli_target_diamondsquares.svg	32	yes	57	0	243	0	0			0	0			1				0	
6.6.1	mac	2023-07-09	19:39:51	19:46:19	367231	61474f07f4cfbc50cb3b2f1e	3	1	main_slash	7	main_slash	91	stimuli_distractor_trianglediamonds.svg	stimuli_target_diamondrectangles.svg	27	yes	53	1	1276	0	0			0	0			1				0	
6.6.1	mac	2023-07-09	19:39:51	19:46:19	367231	61474f07f4cfbc50cb3b2f1e	3	1	main_slash	7	advance_on_keypress_SLASH	92	stimuli_distractor_trianglediamonds.svg	stimuli_target_diamondrectangles.svg	27	yes	57	0	217	0	0			0	0			1				0	
6.6.1	mac	2023-07-09	19:39:51	19:46:22	370087	61474f07f4cfbc50cb3b2f1e	3	1	main_slash	7	main_slash	93	stimuli_distractor_diamondtriangles.svg	stimuli_distractor_diamondtriangles.svg	39	no	0	1	2000	0	0			0	0			1				0	
6.6.1	mac	2023-07-09	19:39:51	19:46:22	370087	61474f07f4cfbc50cb3b2f1e	3	1	main_slash	7	advance_on_keypress_SLASH	94	stimuli_distractor_diamondtriangles.svg	stimuli_distractor_diamondtriangles.svg	39	no	57	0	692	0	0			0	0			1				0	
6.6.1	mac	2023-07-09	19:39:51	19:46:24	372199	61474f07f4cfbc50cb3b2f1e	3	1	main_slash	7	main_slash	95	stimuli_target_trianglesquares.svg	stimuli_distractor_diamondtriangles.svg	22	yes	53	1	790	0	0			0	0			1				0	
6.6.1	mac	2023-07-09	19:39:51	19:46:24	372199	61474f07f4cfbc50cb3b2f1e	3	1	main_slash	7	advance_on_keypress_SLASH	96	stimuli_target_trianglesquares.svg	stimuli_distractor_diamondtriangles.svg	22	yes	57	0	507	0	0			0	0			1				0	
6.6.1	mac	2023-07-09	19:39:51	19:46:27	375342	61474f07f4cfbc50cb3b2f1e	3	1	main_slash	7	main_slash	97	stimuli_distractor_diamondtriangles.svg	stimuli_distractor_trianglediamonds.svg	37	no	0	1	2000	0	0			0	0			1				0	
6.6.1	mac	2023-07-09	19:39:51	19:46:27	375342	61474f07f4cfbc50cb3b2f1e	3	1	main_slash	7	advance_on_keypress_SLASH	98	stimuli_distractor_diamondtriangles.svg	stimuli_distractor_trianglediamonds.svg	37	no	57	0	413	0	0			0	0			1				0	
6.6.1	mac	2023-07-09	19:39:51	19:46:28	376925	61474f07f4cfbc50cb3b2f1e	3	1	main_slash	7	main_slash	99	stimuli_target_squarediamonds.svg	stimuli_distractor_diamondtriangles.svg	8	yes	53	1	531	0	0			0	0			1				0	
6.6.1	mac	2023-07-09	19:39:51	19:46:28	376925	61474f07f4cfbc50cb3b2f1e	3	1	main_slash	7	advance_on_keypress_SLASH	100	stimuli_target_squarediamonds.svg	stimuli_distractor_diamondtriangles.svg	8	yes	57	0	288	0	0			0	0			1				0	
6.6.1	mac	2023-07-09	19:39:51	19:46:30	378589	61474f07f4cfbc50cb3b2f1e	3	1	main_slash	7	main_slash	101	stimuli_distractor_trianglediamonds.svg	stimuli_target_squaretriangles.svg	11	yes	53	1	744	0	0			0	0			1				0	
6.6.1	mac	2023-07-09	19:39:51	19:46:30	378589	61474f07f4cfbc50cb3b2f1e	3	1	main_slash	7	advance_on_keypress_SLASH	102	stimuli_distractor_trianglediamonds.svg	stimuli_target_squaretriangles.svg	11	yes	57	0	179	0	0			0	0			1				0	
6.6.1	mac	2023-07-09	19:39:51	19:46:32	380183	61474f07f4cfbc50cb3b2f1e	3	1	main_slash	7	main_slash	103	stimuli_distractor_trianglediamonds.svg	stimuli_target_rectanglediamonds.svg	10	yes	53	1	771	0	0			0	0			1				0	
6.6.1	mac	2023-07-09	19:39:51	19:46:32	380183	61474f07f4cfbc50cb3b2f1e	3	1	main_slash	7	advance_on_keypress_SLASH	104	stimuli_distractor_trianglediamonds.svg	stimuli_target_rectanglediamonds.svg	10	yes	57	0	256	0	0			0	0			1				0	
6.6.1	mac	2023-07-09	19:39:51	19:46:34	382248	61474f07f4cfbc50cb3b2f1e	3	1	main_slash	7	main_slash	105	stimuli_distractor_diamondtriangles.svg	stimuli_target_rectangletriangles.svg	13	yes	53	1	1182	0	0			0	0			1				0	
6.6.1	mac	2023-07-09	19:39:51	19:46:34	382248	61474f07f4cfbc50cb3b2f1e	3	1	main_slash	7	advance_on_keypress_SLASH	106	stimuli_distractor_diamondtriangles.svg	stimuli_target_rectangletriangles.svg	13	yes	57	0	225	0	0			0	0			1				0	
6.6.1	mac	2023-07-09	19:39:51	19:46:35	383991	61474f07f4cfbc50cb3b2f1e	3	1	main_slash	7	main_slash	107	stimuli_target_trianglerectangles.svg	stimuli_distractor_diamondtriangles.svg	21	yes	53	1	892	0	0			0	0			1				0	
6.6.1	mac	2023-07-09	19:39:51	19:46:35	383991	61474f07f4cfbc50cb3b2f1e	3	1	main_slash	7	advance_on_keypress_SLASH	108	stimuli_target_trianglerectangles.svg	stimuli_distractor_diamondtriangles.svg	21	yes	57	0	222	0	0			0	0			1				0	
6.6.1	mac	2023-07-09	19:39:51	19:46:37	385498	61474f07f4cfbc50cb3b2f1e	3	1	main_slash	7	main_slash	109	stimuli_target_trianglerectangles.svg	stimuli_distractor_trianglediamonds.svg	17	yes	53	1	646	0	0			0	0			1				0	
6.6.1	mac	2023-07-09	19:39:51	19:46:37	385498	61474f07f4cfbc50cb3b2f1e	3	1	main_slash	7	advance_on_keypress_SLASH	110	stimuli_target_trianglerectangles.svg	stimuli_distractor_trianglediamonds.svg	17	yes	57	0	309	0	0			0	0			1				0	
6.6.1	mac	2023-07-09	19:39:51	19:46:39	387324	61474f07f4cfbc50cb3b2f1e	3	1	main_slash	7	main_slash	111	stimuli_target_rectangletriangles.svg	stimuli_distractor_trianglediamonds.svg	1	yes	53	1	889	0	0			0	0			1				0	
6.6.1	mac	2023-07-09	19:39:51	19:46:39	387324	61474f07f4cfbc50cb3b2f1e	3	1	main_slash	7	advance_on_keypress_SLASH	112	stimuli_target_rectangletriangles.svg	stimuli_distractor_trianglediamonds.svg	1	yes	57	0	269	0	0			0	0			1				0	
6.6.1	mac	2023-07-09	19:39:51	19:46:40	388873	61474f07f4cfbc50cb3b2f1e	3	1	main_slash	7	main_slash	113	stimuli_target_rectanglediamonds.svg	stimuli_distractor_trianglediamonds.svg	2	yes	53	1	639	0	0			0	0			1				0	
6.6.1	mac	2023-07-09	19:39:51	19:46:40	388873	61474f07f4cfbc50cb3b2f1e	3	1	main_slash	7	advance_on_keypress_SLASH	114	stimuli_target_rectanglediamonds.svg	stimuli_distractor_trianglediamonds.svg	2	yes	57	0	187	0	0			0	0			1				0	
6.6.1	mac	2023-07-09	19:39:51	19:46:42	390376	61474f07f4cfbc50cb3b2f1e	3	1	main_slash	7	main_slash	115	stimuli_distractor_trianglediamonds.svg	stimuli_target_rectangletriangles.svg	9	yes	53	1	688	0	0			0	0			1				0	
6.6.1	mac	2023-07-09	19:39:51	19:46:42	390376	61474f07f4cfbc50cb3b2f1e	3	1	main_slash	7	advance_on_keypress_SLASH	116	stimuli_distractor_trianglediamonds.svg	stimuli_target_rectangletriangles.svg	9	yes	57	0	261	0	0			0	0			1				0	
6.6.1	mac	2023-07-09	19:39:51	19:46:44	392114	61474f07f4cfbc50cb3b2f1e	3	1	main_slash	7	main_slash	117	stimuli_distractor_diamondtriangles.svg	stimuli_target_squaretriangles.svg	15	yes	53	1	840	0	0			0	0			1				0	
6.6.1	mac	2023-07-09	19:39:51	19:46:44	392114	61474f07f4cfbc50cb3b2f1e	3	1	main_slash	7	advance_on_keypress_SLASH	118	stimuli_distractor_diamondtriangles.svg	stimuli_target_squaretriangles.svg	15	yes	57	0	163	0	0			0	0			1				0	
6.6.1	mac	2023-07-09	19:39:51	19:46:45	393750	61474f07f4cfbc50cb3b2f1e	3	1	main_slash	7	main_slash	119	stimuli_target_diamondrectangles.svg	stimuli_distractor_diamondtriangles.svg	23	yes	53	1	843	0	0			0	0			1				0	
6.6.1	mac	2023-07-09	19:39:51	19:46:45	393750	61474f07f4cfbc50cb3b2f1e	3	1	main_slash	7	advance_on_keypress_SLASH	120	stimuli_target_diamondrectangles.svg	stimuli_distractor_diamondtriangles.svg	23	yes	57	0	154	0	0			0	0			1				0	
6.6.1	mac	2023-07-09	19:39:51	19:46:47	395361	61474f07f4cfbc50cb3b2f1e	3	1	main_slash	7	main_slash	121	stimuli_target_trianglesquares.svg	stimuli_distractor_trianglediamonds.svg	18	yes	53	1	821	0	0			0	0			1				0	
6.6.1	mac	2023-07-09	19:39:51	19:46:47	395361	61474f07f4cfbc50cb3b2f1e	3	1	main_slash	7	advance_on_keypress_SLASH	122	stimuli_target_trianglesquares.svg	stimuli_distractor_trianglediamonds.svg	18	yes	57	0	237	0	0			0	0			1				0	
6.6.1	mac	2023-07-09	19:39:51	19:46:50	398227	61474f07f4cfbc50cb3b2f1e	3	1	main_slash	7	main_slash	123	stimuli_distractor_trianglediamonds.svg	stimuli_distractor_diamondtriangles.svg	35	no	0	1	2000	0	0			0	0			1				0	
6.6.1	mac	2023-07-09	19:39:51	19:46:50	398227	61474f07f4cfbc50cb3b2f1e	3	1	main_slash	7	advance_on_keypress_SLASH	124	stimuli_distractor_trianglediamonds.svg	stimuli_distractor_diamondtriangles.svg	35	no	57	0	7499	0	0			0	0			1				0	
6.6.1	mac	2023-07-09	19:39:51	19:46:59	407350	61474f07f4cfbc50cb3b2f1e	3	1	main_slash	7	main_slash	125	stimuli_target_diamondsquares.svg	stimuli_distractor_trianglediamonds.svg	20	yes	53	1	998	0	0			0	0			1				0	
6.6.1	mac	2023-07-09	19:39:51	19:46:59	407350	61474f07f4cfbc50cb3b2f1e	3	1	main_slash	7	advance_on_keypress_SLASH	126	stimuli_target_diamondsquares.svg	stimuli_distractor_trianglediamonds.svg	20	yes	57	0	1216	0	0			0	0			1				0	
6.6.1	mac	2023-07-09	19:39:51	19:47:01	410075	61474f07f4cfbc50cb3b2f1e	3	1	main_slash	7	main_slash	127	stimuli_distractor_trianglediamonds.svg	stimuli_target_trianglesquares.svg	26	yes	53	1	857	0	0			0	0			1				0	
6.6.1	mac	2023-07-09	19:39:51	19:47:01	410075	61474f07f4cfbc50cb3b2f1e	3	1	main_slash	7	advance_on_keypress_SLASH	128	stimuli_distractor_trianglediamonds.svg	stimuli_target_trianglesquares.svg	26	yes	57	0	386	0	0			0	0			1				0	
6.6.1	mac	2023-07-09	19:39:51	19:47:03	411830	61474f07f4cfbc50cb3b2f1e	3	1	main_slash	7	main_slash	129	stimuli_distractor_trianglediamonds.svg	stimuli_target_squarediamonds.svg	12	yes	53	1	724	0	0			0	0			1				0	
6.6.1	mac	2023-07-09	19:39:51	19:47:03	411830	61474f07f4cfbc50cb3b2f1e	3	1	main_slash	7	advance_on_keypress_SLASH	130	stimuli_distractor_trianglediamonds.svg	stimuli_target_squarediamonds.svg	12	yes	57	0	350	0	0			0	0			1				0	
6.6.1	mac	2023-07-09	19:39:51	19:47:06	414821	61474f07f4cfbc50cb3b2f1e	3	1	main_slash	7	main_slash	131	stimuli_distractor_diamondtriangles.svg	stimuli_distractor_trianglediamonds.svg	38	no	0	1	2000	0	0			0	0			1				0	
6.6.1	mac	2023-07-09	19:39:51	19:47:06	414821	61474f07f4cfbc50cb3b2f1e	3	1	main_slash	7	advance_on_keypress_SLASH	132	stimuli_distractor_diamondtriangles.svg	stimuli_distractor_trianglediamonds.svg	38	no	57	0	469	0	0			0	0			1				0	
6.6.1	mac	2023-07-09	19:39:51	19:47:08	416496	61474f07f4cfbc50cb3b2f1e	3	1	main_slash	7	main_slash	133	stimuli_target_rectangletriangles.svg	stimuli_distractor_diamondtriangles.svg	5	yes	53	1	572	0	0			0	0			1				0	
6.6.1	mac	2023-07-09	19:39:51	19:47:08	416496	61474f07f4cfbc50cb3b2f1e	3	1	main_slash	7	advance_on_keypress_SLASH	134	stimuli_target_rectangletriangles.svg	stimuli_distractor_diamondtriangles.svg	5	yes	57	0	227	0	0			0	0			1				0	
6.6.1	mac	2023-07-09	19:39:51	19:47:11	419358	61474f07f4cfbc50cb3b2f1e	3	1	main_slash	7	main_slash	135	stimuli_distractor_trianglediamonds.svg	stimuli_distractor_trianglediamonds.svg	33	no	0	1	2000	0	0			0	0			1				0	
6.6.1	mac	2023-07-09	19:39:51	19:47:11	419358	61474f07f4cfbc50cb3b2f1e	3	1	main_slash	7	advance_on_keypress_SLASH	136	stimuli_distractor_trianglediamonds.svg	stimuli_distractor_trianglediamonds.svg	33	no	57	0	559	0	0			0	0			1				0	
6.6.1	mac	2023-07-09	19:39:51	19:47:12	420996	61474f07f4cfbc50cb3b2f1e	3	1	main_slash	7	main_slash	137	stimuli_distractor_trianglediamonds.svg	stimuli_target_diamondsquares.svg	28	yes	53	1	451	0	0			0	0			1				0	
6.6.1	mac	2023-07-09	19:39:51	19:47:12	420996	61474f07f4cfbc50cb3b2f1e	3	1	main_slash	7	advance_on_keypress_SLASH	138	stimuli_distractor_trianglediamonds.svg	stimuli_target_diamondsquares.svg	28	yes	57	0	295	0	0			0	0			1				0	
6.6.1	mac	2023-07-09	19:39:51	19:47:15	423929	61474f07f4cfbc50cb3b2f1e	3	1	main_slash	7	main_slash	139	stimuli_distractor_trianglediamonds.svg	stimuli_distractor_diamondtriangles.svg	36	no	0	1	2000	0	0			0	0			1				0	
6.6.1	mac	2023-07-09	19:39:51	19:47:15	423929	61474f07f4cfbc50cb3b2f1e	3	1	main_slash	7	advance_on_keypress_SLASH	140	stimuli_distractor_trianglediamonds.svg	stimuli_distractor_diamondtriangles.svg	36	no	57	0	374	0	0			0	0			1				0	
6.6.1	mac	2023-07-09	19:39:51	19:47:18	426932	61474f07f4cfbc50cb3b2f1e	3	1	main_slash	7	main_slash	141	stimuli_distractor_diamondtriangles.svg	stimuli_distractor_diamondtriangles.svg	40	no	0	1	2000	0	0			0	0			1				0	
6.6.1	mac	2023-07-09	19:39:51	19:47:18	426932	61474f07f4cfbc50cb3b2f1e	3	1	main_slash	7	advance_on_keypress_SLASH	142	stimuli_distractor_diamondtriangles.svg	stimuli_distractor_diamondtriangles.svg	40	no	57	0	548	0	0			0	0			1				0	
6.6.1	mac	2023-07-09	19:39:51	19:47:22	430115	61474f07f4cfbc50cb3b2f1e	3	1	main_slash	7	main_slash	143	stimuli_distractor_trianglediamonds.svg	stimuli_distractor_trianglediamonds.svg	34	no	0	1	2000	0	0			0	0			1				0	
6.6.1	mac	2023-07-09	19:39:51	19:47:22	430115	61474f07f4cfbc50cb3b2f1e	3	1	main_slash	7	advance_on_keypress_SLASH	144	stimuli_distractor_trianglediamonds.svg	stimuli_distractor_trianglediamonds.svg	34	no	57	0	364	0	0			0	0			1				0	
6.6.1	mac	2023-07-09	19:39:51	19:47:23	431713	61474f07f4cfbc50cb3b2f1e	3	1	main_slash	7	main_slash	145	stimuli_target_squarediamonds.svg	stimuli_distractor_trianglediamonds.svg	4	yes	53	1	594	0	0			0	0			1				0	
6.6.1	mac	2023-07-09	19:39:51	19:47:23	431713	61474f07f4cfbc50cb3b2f1e	3	1	main_slash	7	advance_on_keypress_SLASH	146	stimuli_target_squarediamonds.svg	stimuli_distractor_trianglediamonds.svg	4	yes	57	0	326	0	0			0	0			1				0	
6.6.1	mac	2023-07-09	19:39:51	19:47:25	433371	61474f07f4cfbc50cb3b2f1e	3	1	main_slash	7	main_slash	147	stimuli_distractor_diamondtriangles.svg	stimuli_target_trianglerectangles.svg	29	yes	53	1	703	0	0			0	0			1				0	
6.6.1	mac	2023-07-09	19:39:51	19:47:25	433371	61474f07f4cfbc50cb3b2f1e	3	1	main_slash	7	advance_on_keypress_SLASH	148	stimuli_distractor_diamondtriangles.svg	stimuli_target_trianglerectangles.svg	29	yes	57	0	251	0	0			0	0			1				0	
6.6.1	mac	2023-07-09	19:39:51	19:47:28	436250	61474f07f4cfbc50cb3b2f1e	3	1	main_slash	7	main_slash	149	stimuli_target_diamondrectangles.svg	stimuli_distractor_trianglediamonds.svg	19	yes	0	0	2000	0	0			0	0			1				0	
6.6.1	mac	2023-07-09	19:39:51	19:47:28	436250	61474f07f4cfbc50cb3b2f1e	3	1	main_slash	7	advance_on_keypress_SLASH	150	stimuli_target_diamondrectangles.svg	stimuli_distractor_trianglediamonds.svg	19	yes	57	0	495	0	0			0	0			1				0	
6.6.1	mac	2023-07-09	19:39:51	19:47:29	438063	61474f07f4cfbc50cb3b2f1e	3	1	main_slash	7	main_slash	151	stimuli_distractor_trianglediamonds.svg	stimuli_target_trianglerectangles.svg	25	yes	53	1	693	0	0			0	0			1				0	
6.6.1	mac	2023-07-09	19:39:51	19:47:29	438063	61474f07f4cfbc50cb3b2f1e	3	1	main_slash	7	advance_on_keypress_SLASH	152	stimuli_distractor_trianglediamonds.svg	stimuli_target_trianglerectangles.svg	25	yes	57	0	300	0	0			0	0			1				0	
6.6.1	mac	2023-07-09	19:39:51	19:47:31	439708	61474f07f4cfbc50cb3b2f1e	3	1	main_slash	7	main_slash	153	stimuli_target_diamondsquares.svg	stimuli_distractor_diamondtriangles.svg	24	yes	53	1	703	0	0			0	0			1				0	
6.6.1	mac	2023-07-09	19:39:51	19:47:31	439708	61474f07f4cfbc50cb3b2f1e	3	1	main_slash	7	advance_on_keypress_SLASH	154	stimuli_target_diamondsquares.svg	stimuli_distractor_diamondtriangles.svg	24	yes	57	0	263	0	0			0	0			1				0	
6.6.1	mac	2023-07-09	19:39:51	19:47:33	441647	61474f07f4cfbc50cb3b2f1e	3	1	main_slash	7	main_slash	155	stimuli_distractor_diamondtriangles.svg	stimuli_target_squarediamonds.svg	16	yes	53	1	1039	0	0			0	0			1				0	
6.6.1	mac	2023-07-09	19:39:51	19:47:33	441647	61474f07f4cfbc50cb3b2f1e	3	1	main_slash	7	advance_on_keypress_SLASH	156	stimuli_distractor_diamondtriangles.svg	stimuli_target_squarediamonds.svg	16	yes	57	0	213	0	0			0	0			1				0	
6.6.1	mac	2023-07-09	19:39:51	19:47:35	443149	61474f07f4cfbc50cb3b2f1e	3	1	main_slash	7	main_slash	157	stimuli_target_squaretriangles.svg	stimuli_distractor_diamondtriangles.svg	7	yes	53	1	657	0	0			0	0			1				0	
6.6.1	mac	2023-07-09	19:39:51	19:47:35	443149	61474f07f4cfbc50cb3b2f1e	3	1	main_slash	7	advance_on_keypress_SLASH	158	stimuli_target_squaretriangles.svg	stimuli_distractor_diamondtriangles.svg	7	yes	57	0	170	0	0			0	0			1				0	
6.6.1	mac	2023-07-09	19:39:51	19:47:36	444628	61474f07f4cfbc50cb3b2f1e	3	1	main_slash	7	main_slash	159	stimuli_target_rectanglediamonds.svg	stimuli_distractor_diamondtriangles.svg	6	yes	53	1	671	0	0			0	0			1				0	
6.6.1	mac	2023-07-09	19:39:51	19:47:36	444628	61474f07f4cfbc50cb3b2f1e	3	1	main_slash	7	advance_on_keypress_SLASH	160	stimuli_target_rectanglediamonds.svg	stimuli_distractor_diamondtriangles.svg	6	yes	57	0	189	0	0			0	0			1				0	
6.6.1	mac	2023-07-09	19:39:51	19:48:04	472329	61474f07f4cfbc50cb3b2f1e	3	1	practice_z	9	practice_z	1	stimuli_distractor_trianglediamonds.svg	stimuli_target_diamondrectangles.svg	12	yes	0	0	2000	0	0			0	0			1				0	
6.6.1	mac	2023-07-09	19:39:51	19:48:04	472329	61474f07f4cfbc50cb3b2f1e	3	1	practice_z	9	advance_on_keypress_ZEE	2	stimuli_distractor_trianglediamonds.svg	stimuli_target_diamondrectangles.svg	12	yes	57	0	983	0	0			0	0			1				0	
6.6.1	mac	2023-07-09	19:39:51	19:48:07	475636	61474f07f4cfbc50cb3b2f1e	3	1	practice_z	9	practice_z	3	stimuli_distractor_trianglediamonds.svg	stimuli_target_rectanglediamonds.svg	10	yes	44	1	686	0	0			0	0			1				0	
6.6.1	mac	2023-07-09	19:39:51	19:48:07	475636	61474f07f4cfbc50cb3b2f1e	3	1	practice_z	9	advance_on_keypress_ZEE	4	stimuli_distractor_trianglediamonds.svg	stimuli_target_rectanglediamonds.svg	10	yes	57	0	775	0	0			0	0			1				0	
6.6.1	mac	2023-07-09	19:39:51	19:48:11	479144	61474f07f4cfbc50cb3b2f1e	3	1	practice_z	9	practice_z	5	stimuli_target_diamondsquares.svg	stimuli_distractor_trianglediamonds.svg	6	yes	44	1	1092	0	0			0	0			1				0	
6.6.1	mac	2023-07-09	19:39:51	19:48:11	479144	61474f07f4cfbc50cb3b2f1e	3	1	practice_z	9	advance_on_keypress_ZEE	6	stimuli_target_diamondsquares.svg	stimuli_distractor_trianglediamonds.svg	6	yes	57	0	378	0	0			0	0			1				0	
6.6.1	mac	2023-07-09	19:39:51	19:48:15	483157	61474f07f4cfbc50cb3b2f1e	3	1	practice_z	9	practice_z	7	stimuli_distractor_trianglediamonds.svg	stimuli_distractor_trianglediamonds.svg	15	no	0	1	2000	0	0			0	0			1				0	
6.6.1	mac	2023-07-09	19:39:51	19:48:15	483157	61474f07f4cfbc50cb3b2f1e	3	1	practice_z	9	advance_on_keypress_ZEE	8	stimuli_distractor_trianglediamonds.svg	stimuli_distractor_trianglediamonds.svg	15	no	57	0	864	0	0			0	0			1				0	
6.6.1	mac	2023-07-09	19:39:51	19:48:18	486333	61474f07f4cfbc50cb3b2f1e	3	1	practice_z	9	practice_z	9	stimuli_target_diamondsquares.svg	stimuli_distractor_diamondtriangles.svg	3	yes	44	1	673	0	0			0	0			1				0	
6.6.1	mac	2023-07-09	19:39:51	19:48:18	486333	61474f07f4cfbc50cb3b2f1e	3	1	practice_z	9	advance_on_keypress_ZEE	10	stimuli_target_diamondsquares.svg	stimuli_distractor_diamondtriangles.svg	3	yes	57	0	879	0	0			0	0			1				0	
6.6.1	mac	2023-07-09	19:39:51	19:48:21	489789	61474f07f4cfbc50cb3b2f1e	3	1	practice_z	9	practice_z	11	stimuli_distractor_diamondtriangles.svg	stimuli_target_rectangletriangles.svg	7	yes	44	1	946	0	0			0	0			1				0	
6.6.1	mac	2023-07-09	19:39:51	19:48:21	489789	61474f07f4cfbc50cb3b2f1e	3	1	practice_z	9	advance_on_keypress_ZEE	12	stimuli_distractor_diamondtriangles.svg	stimuli_target_rectangletriangles.svg	7	yes	57	0	468	0	0			0	0			1				0	
6.6.1	mac	2023-07-09	19:39:51	19:48:24	492605	61474f07f4cfbc50cb3b2f1e	3	1	practice_z	9	practice_z	13	stimuli_target_squarediamonds.svg	stimuli_distractor_diamondtriangles.svg	2	yes	44	1	706	0	0			0	0			1				0	
6.6.1	mac	2023-07-09	19:39:51	19:48:24	492605	61474f07f4cfbc50cb3b2f1e	3	1	practice_z	9	advance_on_keypress_ZEE	14	stimuli_target_squarediamonds.svg	stimuli_distractor_diamondtriangles.svg	2	yes	57	0	501	0	0			0	0			1				0	
6.6.1	mac	2023-07-09	19:39:51	19:48:27	495215	61474f07f4cfbc50cb3b2f1e	3	1	practice_z	9	practice_z	15	stimuli_target_rectanglediamonds.svg	stimuli_distractor_trianglediamonds.svg	4	yes	44	1	469	0	0			0	0			1				0	
6.6.1	mac	2023-07-09	19:39:51	19:48:27	495215	61474f07f4cfbc50cb3b2f1e	3	1	practice_z	9	advance_on_keypress_ZEE	16	stimuli_target_rectanglediamonds.svg	stimuli_distractor_trianglediamonds.svg	4	yes	57	0	466	0	0			0	0			1				0	
6.6.1	mac	2023-07-09	19:39:51	19:48:31	499318	61474f07f4cfbc50cb3b2f1e	3	1	practice_z	9	practice_z	17	stimuli_distractor_diamondtriangles.svg	stimuli_distractor_diamondtriangles.svg	13	no	0	1	2000	0	0			0	0			1				0	
6.6.1	mac	2023-07-09	19:39:51	19:48:31	499318	61474f07f4cfbc50cb3b2f1e	3	1	practice_z	9	advance_on_keypress_ZEE	18	stimuli_distractor_diamondtriangles.svg	stimuli_distractor_diamondtriangles.svg	13	no	57	0	728	0	0			0	0			1				0	
6.6.1	mac	2023-07-09	19:39:51	19:48:34	502430	61474f07f4cfbc50cb3b2f1e	3	1	practice_z	9	practice_z	19	stimuli_target_rectanglediamonds.svg	stimuli_distractor_diamondtriangles.svg	1	yes	44	1	742	0	0			0	0			1				0	
6.6.1	mac	2023-07-09	19:39:51	19:48:34	502430	61474f07f4cfbc50cb3b2f1e	3	1	practice_z	9	advance_on_keypress_ZEE	20	stimuli_target_rectanglediamonds.svg	stimuli_distractor_diamondtriangles.svg	1	yes	57	0	505	0	0			0	0			1				0	
6.6.1	mac	2023-07-09	19:39:51	19:48:38	506571	61474f07f4cfbc50cb3b2f1e	3	1	practice_z	9	practice_z	21	stimuli_distractor_trianglediamonds.svg	stimuli_distractor_diamondtriangles.svg	16	no	0	1	2000	0	0			0	0			1				0	
6.6.1	mac	2023-07-09	19:39:51	19:48:38	506571	61474f07f4cfbc50cb3b2f1e	3	1	practice_z	9	advance_on_keypress_ZEE	22	stimuli_distractor_trianglediamonds.svg	stimuli_distractor_diamondtriangles.svg	16	no	57	0	935	0	0			0	0			1				0	
6.6.1	mac	2023-07-09	19:39:51	19:48:41	509877	61474f07f4cfbc50cb3b2f1e	3	1	practice_z	9	practice_z	23	stimuli_distractor_trianglediamonds.svg	stimuli_target_squarediamonds.svg	11	yes	44	1	738	0	0			0	0			1				0	
6.6.1	mac	2023-07-09	19:39:51	19:48:41	509877	61474f07f4cfbc50cb3b2f1e	3	1	practice_z	9	advance_on_keypress_ZEE	24	stimuli_distractor_trianglediamonds.svg	stimuli_target_squarediamonds.svg	11	yes	57	0	449	0	0			0	0			1				0	
6.6.1	mac	2023-07-09	19:39:51	19:48:45	513961	61474f07f4cfbc50cb3b2f1e	3	1	practice_z	9	practice_z	25	stimuli_distractor_diamondtriangles.svg	stimuli_distractor_trianglediamonds.svg	14	no	0	1	2000	0	0			0	0			1				0	
6.6.1	mac	2023-07-09	19:39:51	19:48:45	513961	61474f07f4cfbc50cb3b2f1e	3	1	practice_z	9	advance_on_keypress_ZEE	26	stimuli_distractor_diamondtriangles.svg	stimuli_distractor_trianglediamonds.svg	14	no	57	0	878	0	0			0	0			1				0	
6.6.1	mac	2023-07-09	19:39:51	19:48:49	517100	61474f07f4cfbc50cb3b2f1e	3	1	practice_z	9	practice_z	27	stimuli_distractor_diamondtriangles.svg	stimuli_target_diamondrectangles.svg	8	yes	44	1	635	0	0			0	0			1				0	
6.6.1	mac	2023-07-09	19:39:51	19:48:49	517100	61474f07f4cfbc50cb3b2f1e	3	1	practice_z	9	advance_on_keypress_ZEE	28	stimuli_distractor_diamondtriangles.svg	stimuli_target_diamondrectangles.svg	8	yes	57	0	392	0	0			0	0			1				0	
6.6.1	mac	2023-07-09	19:39:51	19:48:51	519899	61474f07f4cfbc50cb3b2f1e	3	1	practice_z	9	practice_z	29	stimuli_distractor_diamondtriangles.svg	stimuli_target_trianglerectangles.svg	9	yes	44	1	767	0	0			0	0			1				0	
6.6.1	mac	2023-07-09	19:39:51	19:48:51	519899	61474f07f4cfbc50cb3b2f1e	3	1	practice_z	9	advance_on_keypress_ZEE	30	stimuli_distractor_diamondtriangles.svg	stimuli_target_trianglerectangles.svg	9	yes	57	0	358	0	0			0	0			1				0	
6.6.1	mac	2023-07-09	19:39:51	19:48:54	522464	61474f07f4cfbc50cb3b2f1e	3	1	practice_z	9	practice_z	31	stimuli_target_squarediamonds.svg	stimuli_distractor_trianglediamonds.svg	5	yes	44	1	581	0	0			0	0			1				0	
6.6.1	mac	2023-07-09	19:39:51	19:48:54	522464	61474f07f4cfbc50cb3b2f1e	3	1	practice_z	9	advance_on_keypress_ZEE	32	stimuli_target_squarediamonds.svg	stimuli_distractor_trianglediamonds.svg	5	yes	57	0	437	0	0			0	0			1				0	
6.6.1	mac	2023-07-09	19:39:51	19:49:01	529836	61474f07f4cfbc50cb3b2f1e	3	1	main_z	11	main_z	1	stimuli_distractor_trianglediamonds.svg	stimuli_distractor_trianglediamonds.svg	33	no	0	1	2000	0	0			0	0			1				0	
6.6.1	mac	2023-07-09	19:39:51	19:49:01	529836	61474f07f4cfbc50cb3b2f1e	3	1	main_z	11	advance_on_keypress_ZEE	2	stimuli_distractor_trianglediamonds.svg	stimuli_distractor_trianglediamonds.svg	33	no	57	0	1034	0	0			0	0			1				0	
6.6.1	mac	2023-07-09	19:39:51	19:49:04	532561	61474f07f4cfbc50cb3b2f1e	3	1	main_z	11	main_z	3	stimuli_distractor_diamondtriangles.svg	stimuli_distractor_trianglediamonds.svg	37	no	44	0	1037	0	0			0	0			1				0	
6.6.1	mac	2023-07-09	19:39:51	19:49:04	532561	61474f07f4cfbc50cb3b2f1e	3	1	main_z	11	advance_on_keypress_ZEE	4	stimuli_distractor_diamondtriangles.svg	stimuli_distractor_trianglediamonds.svg	37	no	57	0	606	0	0			0	0			1				0	
6.6.1	mac	2023-07-09	19:39:51	19:49:06	534507	61474f07f4cfbc50cb3b2f1e	3	1	main_z	11	main_z	5	stimuli_distractor_diamondtriangles.svg	stimuli_target_diamondsquares.svg	32	yes	44	1	700	0	0			0	0			1				0	
6.6.1	mac	2023-07-09	19:39:51	19:49:06	534507	61474f07f4cfbc50cb3b2f1e	3	1	main_z	11	advance_on_keypress_ZEE	6	stimuli_distractor_diamondtriangles.svg	stimuli_target_diamondsquares.svg	32	yes	57	0	476	0	0			0	0			1				0	
6.6.1	mac	2023-07-09	19:39:51	19:49:09	537610	61474f07f4cfbc50cb3b2f1e	3	1	main_z	11	main_z	7	stimuli_distractor_trianglediamonds.svg	stimuli_distractor_diamondtriangles.svg	36	no	0	1	2000	0	0			0	0			1				0	
6.6.1	mac	2023-07-09	19:39:51	19:49:09	537610	61474f07f4cfbc50cb3b2f1e	3	1	main_z	11	advance_on_keypress_ZEE	8	stimuli_distractor_trianglediamonds.svg	stimuli_distractor_diamondtriangles.svg	36	no	57	0	365	0	0			0	0			1				0	
6.6.1	mac	2023-07-09	19:39:51	19:49:11	539309	61474f07f4cfbc50cb3b2f1e	3	1	main_z	11	main_z	9	stimuli_target_rectangletriangles.svg	stimuli_distractor_diamondtriangles.svg	5	yes	44	1	700	0	0			0	0			1				0	
6.6.1	mac	2023-07-09	19:39:51	19:49:11	539309	61474f07f4cfbc50cb3b2f1e	3	1	main_z	11	advance_on_keypress_ZEE	10	stimuli_target_rectangletriangles.svg	stimuli_distractor_diamondtriangles.svg	5	yes	57	0	718	0	0			0	0			1				0	
6.6.1	mac	2023-07-09	19:39:51	19:49:13	541460	61474f07f4cfbc50cb3b2f1e	3	1	main_z	11	main_z	11	stimuli_target_trianglerectangles.svg	stimuli_distractor_diamondtriangles.svg	21	yes	44	1	796	0	0			0	0			1				0	
6.6.1	mac	2023-07-09	19:39:51	19:49:13	541460	61474f07f4cfbc50cb3b2f1e	3	1	main_z	11	advance_on_keypress_ZEE	12	stimuli_target_trianglerectangles.svg	stimuli_distractor_diamondtriangles.svg	21	yes	57	0	387	0	0			0	0			1				0	
6.6.1	mac	2023-07-09	19:39:51	19:49:15	543311	61474f07f4cfbc50cb3b2f1e	3	1	main_z	11	main_z	13	stimuli_distractor_trianglediamonds.svg	stimuli_target_diamondsquares.svg	28	yes	44	1	831	0	0			0	0			1				0	
6.6.1	mac	2023-07-09	19:39:51	19:49:15	543311	61474f07f4cfbc50cb3b2f1e	3	1	main_z	11	advance_on_keypress_ZEE	14	stimuli_distractor_trianglediamonds.svg	stimuli_target_diamondsquares.svg	28	yes	57	0	307	0	0			0	0			1				0	
6.6.1	mac	2023-07-09	19:39:51	19:49:17	545123	61474f07f4cfbc50cb3b2f1e	3	1	main_z	11	main_z	15	stimuli_distractor_trianglediamonds.svg	stimuli_target_squarediamonds.svg	12	yes	44	1	877	0	0			0	0			1				0	
6.6.1	mac	2023-07-09	19:39:51	19:49:17	545123	61474f07f4cfbc50cb3b2f1e	3	1	main_z	11	advance_on_keypress_ZEE	16	stimuli_distractor_trianglediamonds.svg	stimuli_target_squarediamonds.svg	12	yes	57	0	318	0	0			0	0			1				0	
6.6.1	mac	2023-07-09	19:39:51	19:49:18	546810	61474f07f4cfbc50cb3b2f1e	3	1	main_z	11	main_z	17	stimuli_target_diamondsquares.svg	stimuli_distractor_trianglediamonds.svg	20	yes	44	1	727	0	0			0	0			1				0	
6.6.1	mac	2023-07-09	19:39:51	19:49:18	546810	61474f07f4cfbc50cb3b2f1e	3	1	main_z	11	advance_on_keypress_ZEE	18	stimuli_target_diamondsquares.svg	stimuli_distractor_trianglediamonds.svg	20	yes	57	0	278	0	0			0	0			1				0	
6.6.1	mac	2023-07-09	19:39:51	19:49:20	548556	61474f07f4cfbc50cb3b2f1e	3	1	main_z	11	main_z	19	stimuli_target_diamondrectangles.svg	stimuli_distractor_trianglediamonds.svg	19	yes	44	1	821	0	0			0	0			1				0	
6.6.1	mac	2023-07-09	19:39:51	19:49:20	548556	61474f07f4cfbc50cb3b2f1e	3	1	main_z	11	advance_on_keypress_ZEE	20	stimuli_target_diamondrectangles.svg	stimuli_distractor_trianglediamonds.svg	19	yes	57	0	236	0	0			0	0			1				0	
6.6.1	mac	2023-07-09	19:39:51	19:49:22	550307	61474f07f4cfbc50cb3b2f1e	3	1	main_z	11	main_z	21	stimuli_distractor_trianglediamonds.svg	stimuli_target_rectangletriangles.svg	9	yes	44	1	874	0	0			0	0			1				0	
6.6.1	mac	2023-07-09	19:39:51	19:49:22	550307	61474f07f4cfbc50cb3b2f1e	3	1	main_z	11	advance_on_keypress_ZEE	22	stimuli_distractor_trianglediamonds.svg	stimuli_target_rectangletriangles.svg	9	yes	57	0	292	0	0			0	0			1				0	
6.6.1	mac	2023-07-09	19:39:51	19:49:24	552109	61474f07f4cfbc50cb3b2f1e	3	1	main_z	11	main_z	23	stimuli_target_trianglesquares.svg	stimuli_distractor_trianglediamonds.svg	18	yes	44	1	873	0	0			0	0			1				0	
6.6.1	mac	2023-07-09	19:39:51	19:49:24	552109	61474f07f4cfbc50cb3b2f1e	3	1	main_z	11	advance_on_keypress_ZEE	24	stimuli_target_trianglesquares.svg	stimuli_distractor_trianglediamonds.svg	18	yes	57	0	270	0	0			0	0			1				0	
6.6.1	mac	2023-07-09	19:39:51	19:49:25	553936	61474f07f4cfbc50cb3b2f1e	3	1	main_z	11	main_z	25	stimuli_target_squaretriangles.svg	stimuli_distractor_diamondtriangles.svg	7	yes	44	1	916	0	0			0	0			1				0	
6.6.1	mac	2023-07-09	19:39:51	19:49:25	553936	61474f07f4cfbc50cb3b2f1e	3	1	main_z	11	advance_on_keypress_ZEE	26	stimuli_target_squaretriangles.svg	stimuli_distractor_diamondtriangles.svg	7	yes	57	0	244	0	0			0	0			1				0	
6.6.1	mac	2023-07-09	19:39:51	19:49:27	555827	61474f07f4cfbc50cb3b2f1e	3	1	main_z	11	main_z	27	stimuli_distractor_trianglediamonds.svg	stimuli_target_squaretriangles.svg	11	yes	44	1	1020	0	0			0	0			1				0	
6.6.1	mac	2023-07-09	19:39:51	19:49:27	555827	61474f07f4cfbc50cb3b2f1e	3	1	main_z	11	advance_on_keypress_ZEE	28	stimuli_distractor_trianglediamonds.svg	stimuli_target_squaretriangles.svg	11	yes	57	0	293	0	0			0	0			1				0	
6.6.1	mac	2023-07-09	19:39:51	19:49:29	557577	61474f07f4cfbc50cb3b2f1e	3	1	main_z	11	main_z	29	stimuli_distractor_diamondtriangles.svg	stimuli_target_diamondrectangles.svg	31	yes	44	1	820	0	0			0	0			1				0	
6.6.1	mac	2023-07-09	19:39:51	19:49:29	557577	61474f07f4cfbc50cb3b2f1e	3	1	main_z	11	advance_on_keypress_ZEE	30	stimuli_distractor_diamondtriangles.svg	stimuli_target_diamondrectangles.svg	31	yes	57	0	220	0	0			0	0			1				0	
6.6.1	mac	2023-07-09	19:39:51	19:49:31	559240	61474f07f4cfbc50cb3b2f1e	3	1	main_z	11	main_z	31	stimuli_target_squarediamonds.svg	stimuli_distractor_trianglediamonds.svg	4	yes	44	1	801	0	0			0	0			1				0	
6.6.1	mac	2023-07-09	19:39:51	19:49:31	559240	61474f07f4cfbc50cb3b2f1e	3	1	main_z	11	advance_on_keypress_ZEE	32	stimuli_target_squarediamonds.svg	stimuli_distractor_trianglediamonds.svg	4	yes	57	0	253	0	0			0	0			1				0	
6.6.1	mac	2023-07-09	19:39:51	19:49:32	560935	61474f07f4cfbc50cb3b2f1e	3	1	main_z	11	main_z	33	stimuli_distractor_trianglediamonds.svg	stimuli_target_trianglesquares.svg	26	yes	44	1	808	0	0			0	0			1				0	
6.6.1	mac	2023-07-09	19:39:51	19:49:32	560935	61474f07f4cfbc50cb3b2f1e	3	1	main_z	11	advance_on_keypress_ZEE	34	stimuli_distractor_trianglediamonds.svg	stimuli_target_trianglesquares.svg	26	yes	57	0	274	0	0			0	0			1				0	
6.6.1	mac	2023-07-09	19:39:51	19:49:34	562848	61474f07f4cfbc50cb3b2f1e	3	1	main_z	11	main_z	35	stimuli_target_diamondsquares.svg	stimuli_distractor_diamondtriangles.svg	24	yes	44	1	1005	0	0			0	0			1				0	
6.6.1	mac	2023-07-09	19:39:51	19:49:34	562848	61474f07f4cfbc50cb3b2f1e	3	1	main_z	11	advance_on_keypress_ZEE	36	stimuli_target_diamondsquares.svg	stimuli_distractor_diamondtriangles.svg	24	yes	57	0	204	0	0			0	0			1				0	
6.6.1	mac	2023-07-09	19:39:51	19:49:36	564981	61474f07f4cfbc50cb3b2f1e	3	1	main_z	11	main_z	37	stimuli_target_rectangletriangles.svg	stimuli_distractor_trianglediamonds.svg	1	yes	44	1	1288	0	0			0	0			1				0	
6.6.1	mac	2023-07-09	19:39:51	19:49:36	564981	61474f07f4cfbc50cb3b2f1e	3	1	main_z	11	advance_on_keypress_ZEE	38	stimuli_target_rectangletriangles.svg	stimuli_distractor_trianglediamonds.svg	1	yes	57	0	181	0	0			0	0			1				0	
6.6.1	mac	2023-07-09	19:39:51	19:49:39	567797	61474f07f4cfbc50cb3b2f1e	3	1	main_z	11	main_z	39	stimuli_distractor_diamondtriangles.svg	stimuli_distractor_diamondtriangles.svg	40	no	0	1	2000	0	0			0	0			1				0	
6.6.1	mac	2023-07-09	19:39:51	19:49:39	567797	61474f07f4cfbc50cb3b2f1e	3	1	main_z	11	advance_on_keypress_ZEE	40	stimuli_distractor_diamondtriangles.svg	stimuli_distractor_diamondtriangles.svg	40	no	57	0	485	0	0			0	0			1				0	
6.6.1	mac	2023-07-09	19:39:51	19:49:42	570913	61474f07f4cfbc50cb3b2f1e	3	1	main_z	11	main_z	41	stimuli_target_squarediamonds.svg	stimuli_distractor_diamondtriangles.svg	8	yes	0	0	2000	0	0			0	0			1				0	
6.6.1	mac	2023-07-09	19:39:51	19:49:42	570913	61474f07f4cfbc50cb3b2f1e	3	1	main_z	11	advance_on_keypress_ZEE	42	stimuli_target_squarediamonds.svg	stimuli_distractor_diamondtriangles.svg	8	yes	57	0	562	0	0			0	0			1				0	
6.6.1	mac	2023-07-09	19:39:51	19:49:44	572876	61474f07f4cfbc50cb3b2f1e	3	1	main_z	11	main_z	43	stimuli_distractor_diamondtriangles.svg	stimuli_target_rectanglediamonds.svg	14	yes	44	1	759	0	0			0	0			1				0	
6.6.1	mac	2023-07-09	19:39:51	19:49:44	572876	61474f07f4cfbc50cb3b2f1e	3	1	main_z	11	advance_on_keypress_ZEE	44	stimuli_distractor_diamondtriangles.svg	stimuli_target_rectanglediamonds.svg	14	yes	57	0	453	0	0			0	0			1				0	
6.6.1	mac	2023-07-09	19:39:51	19:49:46	574786	61474f07f4cfbc50cb3b2f1e	3	1	main_z	11	main_z	45	stimuli_distractor_diamondtriangles.svg	stimuli_target_trianglesquares.svg	30	yes	44	1	819	0	0			0	0			1				0	
6.6.1	mac	2023-07-09	19:39:51	19:49:46	574786	61474f07f4cfbc50cb3b2f1e	3	1	main_z	11	advance_on_keypress_ZEE	46	stimuli_distractor_diamondtriangles.svg	stimuli_target_trianglesquares.svg	30	yes	57	0	282	0	0			0	0			1				0	
6.6.1	mac	2023-07-09	19:39:51	19:49:48	576634	61474f07f4cfbc50cb3b2f1e	3	1	main_z	11	main_z	47	stimuli_distractor_diamondtriangles.svg	stimuli_target_squaretriangles.svg	15	yes	44	1	930	0	0			0	0			1				0	
6.6.1	mac	2023-07-09	19:39:51	19:49:48	576634	61474f07f4cfbc50cb3b2f1e	3	1	main_z	11	advance_on_keypress_ZEE	48	stimuli_distractor_diamondtriangles.svg	stimuli_target_squaretriangles.svg	15	yes	57	0	218	0	0			0	0			1				0	
6.6.1	mac	2023-07-09	19:39:51	19:49:51	579487	61474f07f4cfbc50cb3b2f1e	3	1	main_z	11	main_z	49	stimuli_distractor_trianglediamonds.svg	stimuli_distractor_trianglediamonds.svg	34	no	0	1	2000	0	0			0	0			1				0	
6.6.1	mac	2023-07-09	19:39:51	19:49:51	579487	61474f07f4cfbc50cb3b2f1e	3	1	main_z	11	advance_on_keypress_ZEE	50	stimuli_distractor_trianglediamonds.svg	stimuli_distractor_trianglediamonds.svg	34	no	57	0	369	0	0			0	0			1				0	
6.6.1	mac	2023-07-09	19:39:51	19:49:53	581243	61474f07f4cfbc50cb3b2f1e	3	1	main_z	11	main_z	51	stimuli_distractor_diamondtriangles.svg	stimuli_distractor_trianglediamonds.svg	38	no	44	0	753	0	0			0	0			1				0	
6.6.1	mac	2023-07-09	19:39:51	19:49:53	581243	61474f07f4cfbc50cb3b2f1e	3	1	main_z	11	advance_on_keypress_ZEE	52	stimuli_distractor_diamondtriangles.svg	stimuli_distractor_trianglediamonds.svg	38	no	57	0	492	0	0			0	0			1				0	
6.6.1	mac	2023-07-09	19:39:51	19:49:54	582933	61474f07f4cfbc50cb3b2f1e	3	1	main_z	11	main_z	53	stimuli_distractor_diamondtriangles.svg	stimuli_target_rectangletriangles.svg	13	yes	44	1	560	0	0			0	0			1				0	
6.6.1	mac	2023-07-09	19:39:51	19:49:54	582933	61474f07f4cfbc50cb3b2f1e	3	1	main_z	11	advance_on_keypress_ZEE	54	stimuli_distractor_diamondtriangles.svg	stimuli_target_rectangletriangles.svg	13	yes	57	0	244	0	0			0	0			1				0	
6.6.1	mac	2023-07-09	19:39:51	19:49:56	584527	61474f07f4cfbc50cb3b2f1e	3	1	main_z	11	main_z	55	stimuli_distractor_trianglediamonds.svg	stimuli_target_trianglerectangles.svg	25	yes	44	1	719	0	0			0	0			1				0	
6.6.1	mac	2023-07-09	19:39:51	19:49:56	584527	61474f07f4cfbc50cb3b2f1e	3	1	main_z	11	advance_on_keypress_ZEE	56	stimuli_distractor_trianglediamonds.svg	stimuli_target_trianglerectangles.svg	25	yes	57	0	247	0	0			0	0			1				0	
6.6.1	mac	2023-07-09	19:39:51	19:49:58	586123	61474f07f4cfbc50cb3b2f1e	3	1	main_z	11	main_z	57	stimuli_target_trianglesquares.svg	stimuli_distractor_diamondtriangles.svg	22	yes	44	1	712	0	0			0	0			1				0	
6.6.1	mac	2023-07-09	19:39:51	19:49:58	586123	61474f07f4cfbc50cb3b2f1e	3	1	main_z	11	advance_on_keypress_ZEE	58	stimuli_target_trianglesquares.svg	stimuli_distractor_diamondtriangles.svg	22	yes	57	0	255	0	0			0	0			1				0	
6.6.1	mac	2023-07-09	19:39:51	19:50:00	589012	61474f07f4cfbc50cb3b2f1e	3	1	main_z	11	main_z	59	stimuli_distractor_diamondtriangles.svg	stimuli_distractor_diamondtriangles.svg	39	no	0	1	2000	0	0			0	0			1				0	
6.6.1	mac	2023-07-09	19:39:51	19:50:00	589012	61474f07f4cfbc50cb3b2f1e	3	1	main_z	11	advance_on_keypress_ZEE	60	stimuli_distractor_diamondtriangles.svg	stimuli_distractor_diamondtriangles.svg	39	no	57	0	512	0	0			0	0			1				0	
6.6.1	mac	2023-07-09	19:39:51	19:50:02	590670	61474f07f4cfbc50cb3b2f1e	3	1	main_z	11	main_z	61	stimuli_target_trianglerectangles.svg	stimuli_distractor_trianglediamonds.svg	17	yes	44	1	504	0	0			0	0			1				0	
6.6.1	mac	2023-07-09	19:39:51	19:50:02	590670	61474f07f4cfbc50cb3b2f1e	3	1	main_z	11	advance_on_keypress_ZEE	62	stimuli_target_trianglerectangles.svg	stimuli_distractor_trianglediamonds.svg	17	yes	57	0	283	0	0			0	0			1				0	
6.6.1	mac	2023-07-09	19:39:51	19:50:05	593599	61474f07f4cfbc50cb3b2f1e	3	1	main_z	11	main_z	63	stimuli_target_diamondrectangles.svg	stimuli_distractor_diamondtriangles.svg	23	yes	0	0	2000	0	0			0	0			1				0	
6.6.1	mac	2023-07-09	19:39:51	19:50:05	593599	61474f07f4cfbc50cb3b2f1e	3	1	main_z	11	advance_on_keypress_ZEE	64	stimuli_target_diamondrectangles.svg	stimuli_distractor_diamondtriangles.svg	23	yes	57	0	351	0	0			0	0			1				0	
6.6.1	mac	2023-07-09	19:39:51	19:50:07	595090	61474f07f4cfbc50cb3b2f1e	3	1	main_z	11	main_z	65	stimuli_distractor_trianglediamonds.svg	stimuli_target_rectanglediamonds.svg	10	yes	44	1	510	0	0			0	0			1				0	
6.6.1	mac	2023-07-09	19:39:51	19:50:07	595090	61474f07f4cfbc50cb3b2f1e	3	1	main_z	11	advance_on_keypress_ZEE	66	stimuli_distractor_trianglediamonds.svg	stimuli_target_rectanglediamonds.svg	10	yes	57	0	502	0	0			0	0			1				0	
6.6.1	mac	2023-07-09	19:39:51	19:50:08	596911	61474f07f4cfbc50cb3b2f1e	3	1	main_z	11	main_z	67	stimuli_target_squaretriangles.svg	stimuli_distractor_trianglediamonds.svg	3	yes	44	1	660	0	0			0	0			1				0	
6.6.1	mac	2023-07-09	19:39:51	19:50:08	596911	61474f07f4cfbc50cb3b2f1e	3	1	main_z	11	advance_on_keypress_ZEE	68	stimuli_target_squaretriangles.svg	stimuli_distractor_trianglediamonds.svg	3	yes	57	0	299	0	0			0	0			1				0	
6.6.1	mac	2023-07-09	19:39:51	19:50:10	598830	61474f07f4cfbc50cb3b2f1e	3	1	main_z	11	main_z	69	stimuli_distractor_trianglediamonds.svg	stimuli_target_diamondrectangles.svg	27	yes	44	1	980	0	0			0	0			1				0	
6.6.1	mac	2023-07-09	19:39:51	19:50:10	598830	61474f07f4cfbc50cb3b2f1e	3	1	main_z	11	advance_on_keypress_ZEE	70	stimuli_distractor_trianglediamonds.svg	stimuli_target_diamondrectangles.svg	27	yes	57	0	393	0	0			0	0			1				0	
6.6.1	mac	2023-07-09	19:39:51	19:50:12	600609	61474f07f4cfbc50cb3b2f1e	3	1	main_z	11	main_z	71	stimuli_target_rectanglediamonds.svg	stimuli_distractor_trianglediamonds.svg	2	yes	44	1	753	0	0			0	0			1				0	
6.6.1	mac	2023-07-09	19:39:51	19:50:12	600609	61474f07f4cfbc50cb3b2f1e	3	1	main_z	11	advance_on_keypress_ZEE	72	stimuli_target_rectanglediamonds.svg	stimuli_distractor_trianglediamonds.svg	2	yes	57	0	233	0	0			0	0			1				0	
6.6.1	mac	2023-07-09	19:39:51	19:50:14	602378	61474f07f4cfbc50cb3b2f1e	3	1	main_z	11	main_z	73	stimuli_target_rectanglediamonds.svg	stimuli_distractor_diamondtriangles.svg	6	yes	44	1	906	0	0			0	0			1				0	
6.6.1	mac	2023-07-09	19:39:51	19:50:14	602378	61474f07f4cfbc50cb3b2f1e	3	1	main_z	11	advance_on_keypress_ZEE	74	stimuli_target_rectanglediamonds.svg	stimuli_distractor_diamondtriangles.svg	6	yes	57	0	190	0	0			0	0			1				0	
6.6.1	mac	2023-07-09	19:39:51	19:50:16	604215	61474f07f4cfbc50cb3b2f1e	3	1	main_z	11	main_z	75	stimuli_distractor_diamondtriangles.svg	stimuli_target_trianglerectangles.svg	29	yes	44	1	1009	0	0			0	0			1				0	
6.6.1	mac	2023-07-09	19:39:51	19:50:16	604215	61474f07f4cfbc50cb3b2f1e	3	1	main_z	11	advance_on_keypress_ZEE	76	stimuli_distractor_diamondtriangles.svg	stimuli_target_trianglerectangles.svg	29	yes	57	0	156	0	0			0	0			1				0	
6.6.1	mac	2023-07-09	19:39:51	19:50:18	607009	61474f07f4cfbc50cb3b2f1e	3	1	main_z	11	main_z	77	stimuli_distractor_trianglediamonds.svg	stimuli_distractor_diamondtriangles.svg	35	no	0	1	2000	0	0			0	0			1				0	
6.6.1	mac	2023-07-09	19:39:51	19:50:18	607009	61474f07f4cfbc50cb3b2f1e	3	1	main_z	11	advance_on_keypress_ZEE	78	stimuli_distractor_trianglediamonds.svg	stimuli_distractor_diamondtriangles.svg	35	no	57	0	537	0	0			0	0			1				0	
6.6.1	mac	2023-07-09	19:39:51	19:50:20	608793	61474f07f4cfbc50cb3b2f1e	3	1	main_z	11	main_z	79	stimuli_distractor_diamondtriangles.svg	stimuli_target_squarediamonds.svg	16	yes	44	1	617	0	0			0	0			1				0	
6.6.1	mac	2023-07-09	19:39:51	19:50:20	608793	61474f07f4cfbc50cb3b2f1e	3	1	main_z	11	advance_on_keypress_ZEE	80	stimuli_distractor_diamondtriangles.svg	stimuli_target_squarediamonds.svg	16	yes	57	0	290	0	0			0	0			1				0	
6.6.1	mac	2023-07-09	19:39:51	19:50:22	610375	61474f07f4cfbc50cb3b2f1e	3	1	main_z	11	main_z	81	stimuli_target_squarediamonds.svg	stimuli_distractor_diamondtriangles.svg	8	yes	44	1	664	0	0			0	0			1				0	
6.6.1	mac	2023-07-09	19:39:51	19:50:22	610375	61474f07f4cfbc50cb3b2f1e	3	1	main_z	11	advance_on_keypress_ZEE	82	stimuli_target_squarediamonds.svg	stimuli_distractor_diamondtriangles.svg	8	yes	57	0	406	0	0			0	0			1				0	
6.6.1	mac	2023-07-09	19:39:51	19:50:23	612074	61474f07f4cfbc50cb3b2f1e	3	1	main_z	11	main_z	83	stimuli_target_diamondrectangles.svg	stimuli_distractor_trianglediamonds.svg	19	yes	44	1	661	0	0			0	0			1				0	
6.6.1	mac	2023-07-09	19:39:51	19:50:23	612074	61474f07f4cfbc50cb3b2f1e	3	1	main_z	11	advance_on_keypress_ZEE	84	stimuli_target_diamondrectangles.svg	stimuli_distractor_trianglediamonds.svg	19	yes	57	0	233	0	0			0	0			1				0	
6.6.1	mac	2023-07-09	19:39:51	19:50:26	614946	61474f07f4cfbc50cb3b2f1e	3	1	main_z	11	main_z	85	stimuli_distractor_diamondtriangles.svg	stimuli_distractor_trianglediamonds.svg	38	no	0	1	2000	0	0			0	0			1				0	
6.6.1	mac	2023-07-09	19:39:51	19:50:26	614946	61474f07f4cfbc50cb3b2f1e	3	1	main_z	11	advance_on_keypress_ZEE	86	stimuli_distractor_diamondtriangles.svg	stimuli_distractor_trianglediamonds.svg	38	no	57	0	369	0	0			0	0			1				0	
6.6.1	mac	2023-07-09	19:39:51	19:50:28	616498	61474f07f4cfbc50cb3b2f1e	3	1	main_z	11	main_z	87	stimuli_distractor_trianglediamonds.svg	stimuli_target_rectangletriangles.svg	9	yes	44	1	548	0	0			0	0			1				0	
6.6.1	mac	2023-07-09	19:39:51	19:50:28	616498	61474f07f4cfbc50cb3b2f1e	3	1	main_z	11	advance_on_keypress_ZEE	88	stimuli_distractor_trianglediamonds.svg	stimuli_target_rectangletriangles.svg	9	yes	57	0	422	0	0			0	0			1				0	
6.6.1	mac	2023-07-09	19:39:51	19:50:30	618108	61474f07f4cfbc50cb3b2f1e	3	1	main_z	11	main_z	89	stimuli_target_rectangletriangles.svg	stimuli_distractor_diamondtriangles.svg	5	yes	44	1	559	0	0			0	0			1				0	
6.6.1	mac	2023-07-09	19:39:51	19:50:30	618108	61474f07f4cfbc50cb3b2f1e	3	1	main_z	11	advance_on_keypress_ZEE	90	stimuli_target_rectangletriangles.svg	stimuli_distractor_diamondtriangles.svg	5	yes	57	0	179	0	0			0	0			1				0	
6.6.1	mac	2023-07-09	19:39:51	19:50:31	619833	61474f07f4cfbc50cb3b2f1e	3	1	main_z	11	main_z	91	stimuli_target_trianglerectangles.svg	stimuli_distractor_trianglediamonds.svg	17	yes	44	1	900	0	0			0	0			1				0	
6.6.1	mac	2023-07-09	19:39:51	19:50:31	619833	61474f07f4cfbc50cb3b2f1e	3	1	main_z	11	advance_on_keypress_ZEE	92	stimuli_target_trianglerectangles.svg	stimuli_distractor_trianglediamonds.svg	17	yes	57	0	191	0	0			0	0			1				0	
6.6.1	mac	2023-07-09	19:39:51	19:50:33	621625	61474f07f4cfbc50cb3b2f1e	3	1	main_z	11	main_z	93	stimuli_distractor_diamondtriangles.svg	stimuli_target_rectanglediamonds.svg	14	yes	44	1	972	0	0			0	0			1				0	
6.6.1	mac	2023-07-09	19:39:51	19:50:33	621625	61474f07f4cfbc50cb3b2f1e	3	1	main_z	11	advance_on_keypress_ZEE	94	stimuli_distractor_diamondtriangles.svg	stimuli_target_rectanglediamonds.svg	14	yes	57	0	200	0	0			0	0			1				0	
6.6.1	mac	2023-07-09	19:39:51	19:50:35	623583	61474f07f4cfbc50cb3b2f1e	3	1	main_z	11	main_z	95	stimuli_distractor_trianglediamonds.svg	stimuli_distractor_diamondtriangles.svg	36	no	44	0	1131	0	0			0	0			1				0	
6.6.1	mac	2023-07-09	19:39:51	19:50:35	623583	61474f07f4cfbc50cb3b2f1e	3	1	main_z	11	advance_on_keypress_ZEE	96	stimuli_distractor_trianglediamonds.svg	stimuli_distractor_diamondtriangles.svg	36	no	57	0	177	0	0			0	0			1				0	
6.6.1	mac	2023-07-09	19:39:51	19:50:37	625271	61474f07f4cfbc50cb3b2f1e	3	1	main_z	11	main_z	97	stimuli_distractor_trianglediamonds.svg	stimuli_target_squarediamonds.svg	12	yes	44	1	886	0	0			0	0			1				0	
6.6.1	mac	2023-07-09	19:39:51	19:50:37	625271	61474f07f4cfbc50cb3b2f1e	3	1	main_z	11	advance_on_keypress_ZEE	98	stimuli_distractor_trianglediamonds.svg	stimuli_target_squarediamonds.svg	12	yes	57	0	215	0	0			0	0			1				0	
6.6.1	mac	2023-07-09	19:39:51	19:50:38	626973	61474f07f4cfbc50cb3b2f1e	3	1	main_z	11	main_z	99	stimuli_distractor_trianglediamonds.svg	stimuli_target_trianglerectangles.svg	25	yes	44	1	850	0	0			0	0			1				0	
6.6.1	mac	2023-07-09	19:39:51	19:50:38	626973	61474f07f4cfbc50cb3b2f1e	3	1	main_z	11	advance_on_keypress_ZEE	100	stimuli_distractor_trianglediamonds.svg	stimuli_target_trianglerectangles.svg	25	yes	57	0	201	0	0			0	0			1				0	
6.6.1	mac	2023-07-09	19:39:51	19:50:40	628812	61474f07f4cfbc50cb3b2f1e	3	1	main_z	11	main_z	101	stimuli_distractor_diamondtriangles.svg	stimuli_distractor_trianglediamonds.svg	37	no	44	0	1007	0	0			0	0			1				0	
6.6.1	mac	2023-07-09	19:39:51	19:50:40	628812	61474f07f4cfbc50cb3b2f1e	3	1	main_z	11	advance_on_keypress_ZEE	102	stimuli_distractor_diamondtriangles.svg	stimuli_distractor_trianglediamonds.svg	37	no	57	0	164	0	0			0	0			1				0	
6.6.1	mac	2023-07-09	19:39:51	19:50:42	630341	61474f07f4cfbc50cb3b2f1e	3	1	main_z	11	main_z	103	stimuli_distractor_diamondtriangles.svg	stimuli_target_trianglesquares.svg	30	yes	44	1	735	0	0			0	0			1				0	
6.6.1	mac	2023-07-09	19:39:51	19:50:42	630341	61474f07f4cfbc50cb3b2f1e	3	1	main_z	11	advance_on_keypress_ZEE	104	stimuli_distractor_diamondtriangles.svg	stimuli_target_trianglesquares.svg	30	yes	57	0	172	0	0			0	0			1				0	
6.6.1	mac	2023-07-09	19:39:51	19:50:43	631810	61474f07f4cfbc50cb3b2f1e	3	1	main_z	11	main_z	105	stimuli_target_diamondsquares.svg	stimuli_distractor_diamondtriangles.svg	24	yes	44	1	667	0	0			0	0			1				0	
6.6.1	mac	2023-07-09	19:39:51	19:50:43	631810	61474f07f4cfbc50cb3b2f1e	3	1	main_z	11	advance_on_keypress_ZEE	106	stimuli_target_diamondsquares.svg	stimuli_distractor_diamondtriangles.svg	24	yes	57	0	249	0	0			0	0			1				0	
6.6.1	mac	2023-07-09	19:39:51	19:50:45	633545	61474f07f4cfbc50cb3b2f1e	3	1	main_z	11	main_z	107	stimuli_distractor_diamondtriangles.svg	stimuli_distractor_diamondtriangles.svg	39	no	44	0	852	0	0			0	0			1				0	
6.6.1	mac	2023-07-09	19:39:51	19:50:45	633545	61474f07f4cfbc50cb3b2f1e	3	1	main_z	11	advance_on_keypress_ZEE	108	stimuli_distractor_diamondtriangles.svg	stimuli_distractor_diamondtriangles.svg	39	no	57	0	180	0	0			0	0			1				0	
6.6.1	mac	2023-07-09	19:39:51	19:50:46	635075	61474f07f4cfbc50cb3b2f1e	3	1	main_z	11	main_z	109	stimuli_distractor_trianglediamonds.svg	stimuli_target_trianglesquares.svg	26	yes	44	1	715	0	0			0	0			1				0	
6.6.1	mac	2023-07-09	19:39:51	19:50:46	635075	61474f07f4cfbc50cb3b2f1e	3	1	main_z	11	advance_on_keypress_ZEE	110	stimuli_distractor_trianglediamonds.svg	stimuli_target_trianglesquares.svg	26	yes	57	0	129	0	0			0	0			1				0	
6.6.1	mac	2023-07-09	19:39:51	19:50:48	636619	61474f07f4cfbc50cb3b2f1e	3	1	main_z	11	main_z	111	stimuli_distractor_diamondtriangles.svg	stimuli_target_trianglerectangles.svg	29	yes	44	1	772	0	0			0	0			1				0	
6.6.1	mac	2023-07-09	19:39:51	19:50:48	636619	61474f07f4cfbc50cb3b2f1e	3	1	main_z	11	advance_on_keypress_ZEE	112	stimuli_distractor_diamondtriangles.svg	stimuli_target_trianglerectangles.svg	29	yes	57	0	226	0	0			0	0			1				0	
6.6.1	mac	2023-07-09	19:39:51	19:50:50	638357	61474f07f4cfbc50cb3b2f1e	3	1	main_z	11	main_z	113	stimuli_target_rectangletriangles.svg	stimuli_distractor_trianglediamonds.svg	1	yes	44	1	876	0	0			0	0			1				0	
6.6.1	mac	2023-07-09	19:39:51	19:50:50	638357	61474f07f4cfbc50cb3b2f1e	3	1	main_z	11	advance_on_keypress_ZEE	114	stimuli_target_rectangletriangles.svg	stimuli_distractor_trianglediamonds.svg	1	yes	57	0	194	0	0			0	0			1				0	
6.6.1	mac	2023-07-09	19:39:51	19:50:52	640523	61474f07f4cfbc50cb3b2f1e	3	1	main_z	11	main_z	115	stimuli_target_trianglerectangles.svg	stimuli_distractor_diamondtriangles.svg	21	yes	44	1	1343	0	0			0	0			1				0	
6.6.1	mac	2023-07-09	19:39:51	19:50:52	640523	61474f07f4cfbc50cb3b2f1e	3	1	main_z	11	advance_on_keypress_ZEE	116	stimuli_target_trianglerectangles.svg	stimuli_distractor_diamondtriangles.svg	21	yes	57	0	127	0	0			0	0			1				0	
6.6.1	mac	2023-07-09	19:39:51	19:50:55	643284	61474f07f4cfbc50cb3b2f1e	3	1	main_z	11	main_z	117	stimuli_distractor_trianglediamonds.svg	stimuli_target_diamondsquares.svg	28	yes	0	0	2000	0	0			0	0			1				0	
6.6.1	mac	2023-07-09	19:39:51	19:50:55	643284	61474f07f4cfbc50cb3b2f1e	3	1	main_z	11	advance_on_keypress_ZEE	118	stimuli_distractor_trianglediamonds.svg	stimuli_target_diamondsquares.svg	28	yes	57	0	707	0	0			0	0			1				0	
6.6.1	mac	2023-07-09	19:39:51	19:50:56	645026	61474f07f4cfbc50cb3b2f1e	3	1	main_z	11	main_z	119	stimuli_target_rectanglediamonds.svg	stimuli_distractor_diamondtriangles.svg	6	yes	44	1	410	0	0			0	0			1				0	
6.6.1	mac	2023-07-09	19:39:51	19:50:56	645026	61474f07f4cfbc50cb3b2f1e	3	1	main_z	11	advance_on_keypress_ZEE	120	stimuli_target_rectanglediamonds.svg	stimuli_distractor_diamondtriangles.svg	6	yes	57	0	393	0	0			0	0			1				0	
6.6.1	mac	2023-07-09	19:39:51	19:50:59	648055	61474f07f4cfbc50cb3b2f1e	3	1	main_z	11	main_z	121	stimuli_distractor_trianglediamonds.svg	stimuli_distractor_trianglediamonds.svg	33	no	0	1	2000	0	0			0	0			1				0	
6.6.1	mac	2023-07-09	19:39:51	19:50:59	648055	61474f07f4cfbc50cb3b2f1e	3	1	main_z	11	advance_on_keypress_ZEE	122	stimuli_distractor_trianglediamonds.svg	stimuli_distractor_trianglediamonds.svg	33	no	57	0	371	0	0			0	0			1				0	
6.6.1	mac	2023-07-09	19:39:51	19:51:01	650001	61474f07f4cfbc50cb3b2f1e	3	1	main_z	11	main_z	123	stimuli_target_squaretriangles.svg	stimuli_distractor_diamondtriangles.svg	7	yes	44	1	929	0	0			0	0			1				0	
6.6.1	mac	2023-07-09	19:39:51	19:51:01	650001	61474f07f4cfbc50cb3b2f1e	3	1	main_z	11	advance_on_keypress_ZEE	124	stimuli_target_squaretriangles.svg	stimuli_distractor_diamondtriangles.svg	7	yes	57	0	334	0	0			0	0			1				0	
6.6.1	mac	2023-07-09	19:39:51	19:51:03	651721	61474f07f4cfbc50cb3b2f1e	3	1	main_z	11	main_z	125	stimuli_distractor_diamondtriangles.svg	stimuli_target_rectangletriangles.svg	13	yes	44	1	746	0	0			0	0			1				0	
6.6.1	mac	2023-07-09	19:39:51	19:51:03	651721	61474f07f4cfbc50cb3b2f1e	3	1	main_z	11	advance_on_keypress_ZEE	126	stimuli_distractor_diamondtriangles.svg	stimuli_target_rectangletriangles.svg	13	yes	57	0	214	0	0			0	0			1				0	
6.6.1	mac	2023-07-09	19:39:51	19:51:06	654574	61474f07f4cfbc50cb3b2f1e	3	1	main_z	11	main_z	127	stimuli_distractor_trianglediamonds.svg	stimuli_distractor_trianglediamonds.svg	34	no	0	1	2000	0	0			0	0			1				0	
6.6.1	mac	2023-07-09	19:39:51	19:51:06	654574	61474f07f4cfbc50cb3b2f1e	3	1	main_z	11	advance_on_keypress_ZEE	128	stimuli_distractor_trianglediamonds.svg	stimuli_distractor_trianglediamonds.svg	34	no	57	0	380	0	0			0	0			1				0	
6.6.1	mac	2023-07-09	19:39:51	19:51:08	656419	61474f07f4cfbc50cb3b2f1e	3	1	main_z	11	main_z	129	stimuli_distractor_trianglediamonds.svg	stimuli_target_rectanglediamonds.svg	10	yes	44	1	825	0	0			0	0			1				0	
6.6.1	mac	2023-07-09	19:39:51	19:51:08	656419	61474f07f4cfbc50cb3b2f1e	3	1	main_z	11	advance_on_keypress_ZEE	130	stimuli_distractor_trianglediamonds.svg	stimuli_target_rectanglediamonds.svg	10	yes	57	0	200	0	0			0	0			1				0	
6.6.1	mac	2023-07-09	19:39:51	19:51:10	658794	61474f07f4cfbc50cb3b2f1e	3	1	main_z	11	main_z	131	stimuli_distractor_trianglediamonds.svg	stimuli_distractor_diamondtriangles.svg	35	no	44	0	1551	0	0			0	0			1				0	
6.6.1	mac	2023-07-09	19:39:51	19:51:10	658794	61474f07f4cfbc50cb3b2f1e	3	1	main_z	11	advance_on_keypress_ZEE	132	stimuli_distractor_trianglediamonds.svg	stimuli_distractor_diamondtriangles.svg	35	no	57	0	232	0	0			0	0			1				0	
6.6.1	mac	2023-07-09	19:39:51	19:51:13	661659	61474f07f4cfbc50cb3b2f1e	3	1	main_z	11	main_z	133	stimuli_distractor_diamondtriangles.svg	stimuli_target_diamondrectangles.svg	31	yes	0	0	2000	0	0			0	0			1				0	
6.6.1	mac	2023-07-09	19:39:51	19:51:13	661659	61474f07f4cfbc50cb3b2f1e	3	1	main_z	11	advance_on_keypress_ZEE	134	stimuli_distractor_diamondtriangles.svg	stimuli_target_diamondrectangles.svg	31	yes	57	0	449	0	0			0	0			1				0	
6.6.1	mac	2023-07-09	19:39:51	19:51:15	663244	61474f07f4cfbc50cb3b2f1e	3	1	main_z	11	main_z	135	stimuli_target_squarediamonds.svg	stimuli_distractor_trianglediamonds.svg	4	yes	44	1	496	0	0			0	0			1				0	
6.6.1	mac	2023-07-09	19:39:51	19:51:15	663244	61474f07f4cfbc50cb3b2f1e	3	1	main_z	11	advance_on_keypress_ZEE	136	stimuli_target_squarediamonds.svg	stimuli_distractor_trianglediamonds.svg	4	yes	57	0	204	0	0			0	0			1				0	
6.6.1	mac	2023-07-09	19:39:51	19:51:16	664745	61474f07f4cfbc50cb3b2f1e	3	1	main_z	11	main_z	137	stimuli_target_squaretriangles.svg	stimuli_distractor_trianglediamonds.svg	3	yes	44	1	663	0	0			0	0			1				0	
6.6.1	mac	2023-07-09	19:39:51	19:51:16	664745	61474f07f4cfbc50cb3b2f1e	3	1	main_z	11	advance_on_keypress_ZEE	138	stimuli_target_squaretriangles.svg	stimuli_distractor_trianglediamonds.svg	3	yes	57	0	100	0	0			0	0			1				0	
6.6.1	mac	2023-07-09	19:39:51	19:51:19	667483	61474f07f4cfbc50cb3b2f1e	3	1	main_z	11	main_z	139	stimuli_distractor_diamondtriangles.svg	stimuli_distractor_diamondtriangles.svg	40	no	0	1	2000	0	0			0	0			1				0	
6.6.1	mac	2023-07-09	19:39:51	19:51:19	667483	61474f07f4cfbc50cb3b2f1e	3	1	main_z	11	advance_on_keypress_ZEE	140	stimuli_distractor_diamondtriangles.svg	stimuli_distractor_diamondtriangles.svg	40	no	57	0	531	0	0			0	0			1				0	
6.6.1	mac	2023-07-09	19:39:51	19:51:22	670651	61474f07f4cfbc50cb3b2f1e	3	1	main_z	11	main_z	141	stimuli_distractor_trianglediamonds.svg	stimuli_target_diamondrectangles.svg	27	yes	0	0	2000	0	0			0	0			1				0	
6.6.1	mac	2023-07-09	19:39:51	19:51:22	670651	61474f07f4cfbc50cb3b2f1e	3	1	main_z	11	advance_on_keypress_ZEE	142	stimuli_distractor_trianglediamonds.svg	stimuli_target_diamondrectangles.svg	27	yes	57	0	677	0	0			0	0			1				0	
6.6.1	mac	2023-07-09	19:39:51	19:51:25	673954	61474f07f4cfbc50cb3b2f1e	3	1	main_z	11	main_z	143	stimuli_distractor_trianglediamonds.svg	stimuli_target_squaretriangles.svg	11	yes	0	0	2000	0	0			0	0			1				0	
6.6.1	mac	2023-07-09	19:39:51	19:51:25	673954	61474f07f4cfbc50cb3b2f1e	3	1	main_z	11	advance_on_keypress_ZEE	144	stimuli_distractor_trianglediamonds.svg	stimuli_target_squaretriangles.svg	11	yes	57	0	1461	0	0			0	0			1				0	
6.6.1	mac	2023-07-09	19:39:51	19:51:28	677035	61474f07f4cfbc50cb3b2f1e	3	1	main_z	11	main_z	145	stimuli_target_trianglesquares.svg	stimuli_distractor_trianglediamonds.svg	18	yes	44	1	993	0	0			0	0			1				0	
6.6.1	mac	2023-07-09	19:39:51	19:51:28	677035	61474f07f4cfbc50cb3b2f1e	3	1	main_z	11	advance_on_keypress_ZEE	146	stimuli_target_trianglesquares.svg	stimuli_distractor_trianglediamonds.svg	18	yes	57	0	446	0	0			0	0			1				0	
6.6.1	mac	2023-07-09	19:39:51	19:51:32	680125	61474f07f4cfbc50cb3b2f1e	3	1	main_z	11	main_z	147	stimuli_distractor_diamondtriangles.svg	stimuli_target_diamondsquares.svg	32	yes	0	0	2000	0	0			0	0			1				0	
6.6.1	mac	2023-07-09	19:39:51	19:51:32	680125	61474f07f4cfbc50cb3b2f1e	3	1	main_z	11	advance_on_keypress_ZEE	148	stimuli_distractor_diamondtriangles.svg	stimuli_target_diamondsquares.svg	32	yes	57	0	419	0	0			0	0			1				0	
6.6.1	mac	2023-07-09	19:39:51	19:51:33	681658	61474f07f4cfbc50cb3b2f1e	3	1	main_z	11	main_z	149	stimuli_distractor_diamondtriangles.svg	stimuli_target_squarediamonds.svg	16	yes	44	1	479	0	0			0	0			1				0	
6.6.1	mac	2023-07-09	19:39:51	19:51:33	681658	61474f07f4cfbc50cb3b2f1e	3	1	main_z	11	advance_on_keypress_ZEE	150	stimuli_distractor_diamondtriangles.svg	stimuli_target_squarediamonds.svg	16	yes	57	0	3713	0	0			0	0			1				0	
6.6.1	mac	2023-07-09	19:39:51	19:51:38	686846	61474f07f4cfbc50cb3b2f1e	3	1	main_z	11	main_z	151	stimuli_target_diamondsquares.svg	stimuli_distractor_trianglediamonds.svg	20	yes	44	1	847	0	0			0	0			1				0	
6.6.1	mac	2023-07-09	19:39:51	19:51:38	686846	61474f07f4cfbc50cb3b2f1e	3	1	main_z	11	advance_on_keypress_ZEE	152	stimuli_target_diamondsquares.svg	stimuli_distractor_trianglediamonds.svg	20	yes	57	0	260	0	0			0	0			1				0	
6.6.1	mac	2023-07-09	19:39:51	19:51:40	688306	61474f07f4cfbc50cb3b2f1e	3	1	main_z	11	main_z	153	stimuli_target_trianglesquares.svg	stimuli_distractor_diamondtriangles.svg	22	yes	44	1	577	0	0			0	0			1				0	
6.6.1	mac	2023-07-09	19:39:51	19:51:40	688306	61474f07f4cfbc50cb3b2f1e	3	1	main_z	11	advance_on_keypress_ZEE	154	stimuli_target_trianglesquares.svg	stimuli_distractor_diamondtriangles.svg	22	yes	57	0	172	0	0			0	0			1				0	
6.6.1	mac	2023-07-09	19:39:51	19:51:41	689770	61474f07f4cfbc50cb3b2f1e	3	1	main_z	11	main_z	155	stimuli_target_rectanglediamonds.svg	stimuli_distractor_trianglediamonds.svg	2	yes	44	1	655	0	0			0	0			1				0	
6.6.1	mac	2023-07-09	19:39:51	19:51:41	689770	61474f07f4cfbc50cb3b2f1e	3	1	main_z	11	advance_on_keypress_ZEE	156	stimuli_target_rectanglediamonds.svg	stimuli_distractor_trianglediamonds.svg	2	yes	57	0	301	0	0			0	0			1				0	
6.6.1	mac	2023-07-09	19:39:51	19:51:43	691396	61474f07f4cfbc50cb3b2f1e	3	1	main_z	11	main_z	157	stimuli_distractor_diamondtriangles.svg	stimuli_target_squaretriangles.svg	15	yes	44	1	679	0	0			0	0			1				0	
6.6.1	mac	2023-07-09	19:39:51	19:51:43	691396	61474f07f4cfbc50cb3b2f1e	3	1	main_z	11	advance_on_keypress_ZEE	158	stimuli_distractor_diamondtriangles.svg	stimuli_target_squaretriangles.svg	15	yes	57	0	292	0	0			0	0			1				0	
6.6.1	mac	2023-07-09	19:39:51	19:51:44	692961	61474f07f4cfbc50cb3b2f1e	3	1	main_z	11	main_z	159	stimuli_target_diamondrectangles.svg	stimuli_distractor_diamondtriangles.svg	23	yes	44	1	643	0	0			0	0			1				0	
6.6.1	mac	2023-07-09	19:39:51	19:51:44	692961	61474f07f4cfbc50cb3b2f1e	3	1	main_z	11	advance_on_keypress_ZEE	160	stimuli_target_diamondrectangles.svg	stimuli_distractor_diamondtriangles.svg	23	yes	57	0	213	0	0			0	0			1				0	
6.6.1	mac	2023-07-09	19:39:51	19:51:44	692961	61474f07f4cfbc50cb3b2f1e	3	1	headphonecheck_calibration	14	headphonecheck_calibrationIntro	1	stimuli_target_diamondrectangles.svg	stimuli_distractor_diamondtriangles.svg	23	yes	calibrationButton	0	3743	0	0			0	0			1				0	
6.6.1	mac	2023-07-09	19:39:51	19:51:44	692961	61474f07f4cfbc50cb3b2f1e	3	1	headphonecheck_testphase	15	test_collectResponse	3	stimuli_target_diamondrectangles.svg	stimuli_distractor_diamondtriangles.svg	23	yes	third	0	1296	1	3	antiphase_hc_soi.wav	1	0	0			1				0	
6.6.1	mac	2023-07-09	19:39:51	19:51:44	692961	61474f07f4cfbc50cb3b2f1e	3	1	headphonecheck_testphase	15	test_collectResponse	6	stimuli_target_diamondrectangles.svg	stimuli_distractor_diamondtriangles.svg	23	yes	third	1	739	2	2	antiphase_hc_ios.wav	3	0	0			1				0	
6.6.1	mac	2023-07-09	19:39:51	19:51:44	692961	61474f07f4cfbc50cb3b2f1e	3	1	headphonecheck_testphase	15	test_collectResponse	9	stimuli_target_diamondrectangles.svg	stimuli_distractor_diamondtriangles.svg	23	yes	third	1	686	3	6	antiphase_hc_ois.wav	3	0	0			1				0	
6.6.1	mac	2023-07-09	19:39:51	19:51:44	692961	61474f07f4cfbc50cb3b2f1e	3	1	headphonecheck_testphase	15	test_collectResponse	12	stimuli_target_diamondrectangles.svg	stimuli_distractor_diamondtriangles.svg	23	yes	second	0	942	4	4	antiphase_hc_sio.wav	1	0	0			1				0	
6.6.1	mac	2023-07-09	19:39:51	19:51:44	692961	61474f07f4cfbc50cb3b2f1e	3	1	headphonecheck_testphase	15	test_collectResponse	15	stimuli_target_diamondrectangles.svg	stimuli_distractor_diamondtriangles.svg	23	yes	second	1	383	5	1	antiphase_hc_iso.wav	2	0	0			1				0	
6.6.1	mac	2023-07-09	19:39:51	19:51:44	692961	61474f07f4cfbc50cb3b2f1e	3	1	headphonecheck_testphase	15	test_collectResponse	18	stimuli_target_diamondrectangles.svg	stimuli_distractor_diamondtriangles.svg	23	yes	second	1	610	6	5	antiphase_hc_osi.wav	2	0	0			1				0	
6.6.1	mac	2023-07-09	19:39:51	19:51:44	692961	61474f07f4cfbc50cb3b2f1e	3	1	stereocheck_calibration	17	stereocheck_calibrationIntro	1	stimuli_target_diamondrectangles.svg	stimuli_distractor_diamondtriangles.svg	23	yes	stereocheck_calibrationButton	0	7804	6	5	antiphase_hc_osi.wav	2	0	0			1				0	
6.6.1	mac	2023-07-09	19:39:51	19:51:44	692961	61474f07f4cfbc50cb3b2f1e	3	1	stereocheck_testphase	18	stereocheck_test_collectResponse	3	stimuli_target_diamondrectangles.svg	stimuli_distractor_diamondtriangles.svg	23	yes	stereocheck_left	1	2241	6	5	antiphase_hc_osi.wav	2	1	1	noise_calib_stim_LEFT.wav	1	1				0	
6.6.1	mac	2023-07-09	19:39:51	19:51:44	692961	61474f07f4cfbc50cb3b2f1e	3	1	stereocheck_testphase	18	stereocheck_test_collectResponse	6	stimuli_target_diamondrectangles.svg	stimuli_distractor_diamondtriangles.svg	23	yes	stereocheck_right	1	649	6	5	antiphase_hc_osi.wav	2	2	5	noise_calib_stim_RIGHT.wav	2	1				0	
6.6.1	mac	2023-07-09	19:39:51	19:51:44	692961	61474f07f4cfbc50cb3b2f1e	3	1	stereocheck_testphase	18	stereocheck_test_collectResponse	9	stimuli_target_diamondrectangles.svg	stimuli_distractor_diamondtriangles.svg	23	yes	stereocheck_left	1	533	6	5	antiphase_hc_osi.wav	2	3	2	noise_calib_stim_LEFT.wav	1	1				0	
6.6.1	mac	2023-07-09	19:39:51	19:51:44	692961	61474f07f4cfbc50cb3b2f1e	3	1	stereocheck_testphase	18	stereocheck_test_collectResponse	12	stimuli_target_diamondrectangles.svg	stimuli_distractor_diamondtriangles.svg	23	yes	stereocheck_right	1	434	6	5	antiphase_hc_osi.wav	2	4	4	noise_calib_stim_RIGHT.wav	2	1				0	
6.6.1	mac	2023-07-09	19:39:51	19:51:44	692961	61474f07f4cfbc50cb3b2f1e	3	1	stereocheck_testphase	18	stereocheck_test_collectResponse	15	stimuli_target_diamondrectangles.svg	stimuli_distractor_diamondtriangles.svg	23	yes	stereocheck_left	1	313	6	5	antiphase_hc_osi.wav	2	5	3	noise_calib_stim_LEFT.wav	1	1				0	
6.6.1	mac	2023-07-09	19:39:51	19:51:44	692961	61474f07f4cfbc50cb3b2f1e	3	1	stereocheck_testphase	18	stereocheck_test_collectResponse	18	stimuli_target_diamondrectangles.svg	stimuli_distractor_diamondtriangles.svg	23	yes	stereocheck_right	1	391	6	5	antiphase_hc_osi.wav	2	6	6	noise_calib_stim_RIGHT.wav	2	1				0	
6.6.1	mac	2023-07-09	19:39:51	19:51:44	692961	61474f07f4cfbc50cb3b2f1e	3	1	DL_practice	21	DL_practice	2	stimuli_target_diamondrectangles.svg	stimuli_distractor_diamondtriangles.svg	23	yes	ta	1	1613	6	5	antiphase_hc_osi.wav	2	6	6	noise_calib_stim_RIGHT.wav	2	36	blb_dichoticlistening_ta-ta.mp3	ta	ta	0	left
6.6.1	mac	2023-07-09	19:39:51	19:51:44	692961	61474f07f4cfbc50cb3b2f1e	3	1	DL_practice	21	DL_practice	3	stimuli_target_diamondrectangles.svg	stimuli_distractor_diamondtriangles.svg	23	yes	ka	1	1034	6	5	antiphase_hc_osi.wav	2	6	6	noise_calib_stim_RIGHT.wav	2	22	blb_dichoticlistening_ka-ka.mp3	ka	ka	0	left
6.6.1	mac	2023-07-09	19:39:51	19:51:44	692961	61474f07f4cfbc50cb3b2f1e	3	1	DL_practice	21	DL_practice	4	stimuli_target_diamondrectangles.svg	stimuli_distractor_diamondtriangles.svg	23	yes	ba	1	1469	6	5	antiphase_hc_osi.wav	2	6	6	noise_calib_stim_RIGHT.wav	2	1	blb_dichoticlistening_ba-ba.mp3	ba	ba	0	left
6.6.1	mac	2023-07-09	19:39:51	19:51:44	692961	61474f07f4cfbc50cb3b2f1e	3	1	DL_practice	21	DL_practice	5	stimuli_target_diamondrectangles.svg	stimuli_distractor_diamondtriangles.svg	23	yes	ka	1	1216	6	5	antiphase_hc_osi.wav	2	6	6	noise_calib_stim_RIGHT.wav	2	23	blb_dichoticlistening_ka-pa.mp3	ka	pa	1	left
6.6.1	mac	2023-07-09	19:39:51	19:51:44	692961	61474f07f4cfbc50cb3b2f1e	3	1	DL_practice	21	DL_practice	6	stimuli_target_diamondrectangles.svg	stimuli_distractor_diamondtriangles.svg	23	yes	pa	1	903	6	5	antiphase_hc_osi.wav	2	6	6	noise_calib_stim_RIGHT.wav	2	29	blb_dichoticlistening_pa-pa.mp3	pa	pa	0	left
6.6.1	mac	2023-07-09	19:39:51	19:51:44	692961	61474f07f4cfbc50cb3b2f1e	3	1	DL_practice	21	DL_practice	7	stimuli_target_diamondrectangles.svg	stimuli_distractor_diamondtriangles.svg	23	yes	ga	1	961	6	5	antiphase_hc_osi.wav	2	6	6	noise_calib_stim_RIGHT.wav	2	15	blb_dichoticlistening_ga-ga.mp3	ga	ga	0	left
6.6.1	mac	2023-07-09	19:39:51	19:51:44	692961	61474f07f4cfbc50cb3b2f1e	3	1	DL_practice	21	DL_practice	8	stimuli_target_diamondrectangles.svg	stimuli_distractor_diamondtriangles.svg	23	yes	da	1	1067	6	5	antiphase_hc_osi.wav	2	6	6	noise_calib_stim_RIGHT.wav	2	7	blb_dichoticlistening_da-ba.mp3	da	ba	1	left
6.6.1	mac	2023-07-09	19:39:51	19:51:44	692961	61474f07f4cfbc50cb3b2f1e	3	1	DL_practice	21	DL_practice	9	stimuli_target_diamondrectangles.svg	stimuli_distractor_diamondtriangles.svg	23	yes	da	1	611	6	5	antiphase_hc_osi.wav	2	6	6	noise_calib_stim_RIGHT.wav	2	8	blb_dichoticlistening_da-da.mp3	da	da	0	left
6.6.1	mac	2023-07-09	19:39:51	19:51:44	692961	61474f07f4cfbc50cb3b2f1e	3	1	DL_practice	21	DL_practice	10	stimuli_target_diamondrectangles.svg	stimuli_distractor_diamondtriangles.svg	23	yes	ga	1	1013	6	5	antiphase_hc_osi.wav	2	6	6	noise_calib_stim_RIGHT.wav	2	18	blb_dichoticlistening_ga-ta.mp3	ga	ta	1	left
6.6.1	mac	2023-07-09	19:39:51	19:51:44	692961	61474f07f4cfbc50cb3b2f1e	3	1	DL_test	23	DL_test	1	stimuli_target_diamondrectangles.svg	stimuli_distractor_diamondtriangles.svg	23	yes	ba	1	1584	6	5	antiphase_hc_osi.wav	2	6	6	noise_calib_stim_RIGHT.wav	2	13	blb_dichoticlistening_ga-ba.mp3	ga	ba	1	right
6.6.1	mac	2023-07-09	19:39:51	19:51:44	692961	61474f07f4cfbc50cb3b2f1e	3	1	DL_test	23	DL_test	2	stimuli_target_diamondrectangles.svg	stimuli_distractor_diamondtriangles.svg	23	yes	ba	1	1167	6	5	antiphase_hc_osi.wav	2	6	6	noise_calib_stim_RIGHT.wav	2	3	blb_dichoticlistening_ba-ga.mp3	ba	ga	1	left
6.6.1	mac	2023-07-09	19:39:51	19:51:44	692961	61474f07f4cfbc50cb3b2f1e	3	1	DL_test	23	DL_test	3	stimuli_target_diamondrectangles.svg	stimuli_distractor_diamondtriangles.svg	23	yes	ga	1	853	6	5	antiphase_hc_osi.wav	2	6	6	noise_calib_stim_RIGHT.wav	2	18	blb_dichoticlistening_ga-ta.mp3	ga	ta	1	left
6.6.1	mac	2023-07-09	19:39:51	19:51:44	692961	61474f07f4cfbc50cb3b2f1e	3	1	DL_test	23	DL_test	4	stimuli_target_diamondrectangles.svg	stimuli_distractor_diamondtriangles.svg	23	yes	pa	1	1125	6	5	antiphase_hc_osi.wav	2	6	6	noise_calib_stim_RIGHT.wav	2	29	blb_dichoticlistening_pa-pa.mp3	pa	pa	0	left
6.6.1	mac	2023-07-09	19:39:51	19:51:44	692961	61474f07f4cfbc50cb3b2f1e	3	1	DL_test	23	DL_test	5	stimuli_target_diamondrectangles.svg	stimuli_distractor_diamondtriangles.svg	23	yes	da	1	1134	6	5	antiphase_hc_osi.wav	2	6	6	noise_calib_stim_RIGHT.wav	2	32	blb_dichoticlistening_ta-da.mp3	ta	da	1	right
6.6.1	mac	2023-07-09	19:39:51	19:51:44	692961	61474f07f4cfbc50cb3b2f1e	3	1	DL_test	23	DL_test	6	stimuli_target_diamondrectangles.svg	stimuli_distractor_diamondtriangles.svg	23	yes	ka	1	974	6	5	antiphase_hc_osi.wav	2	6	6	noise_calib_stim_RIGHT.wav	2	24	blb_dichoticlistening_ka-ta.mp3	ka	ta	1	left
6.6.1	mac	2023-07-09	19:39:51	19:51:44	692961	61474f07f4cfbc50cb3b2f1e	3	1	DL_test	23	DL_test	7	stimuli_target_diamondrectangles.svg	stimuli_distractor_diamondtriangles.svg	23	yes	ga	1	981	6	5	antiphase_hc_osi.wav	2	6	6	noise_calib_stim_RIGHT.wav	2	9	blb_dichoticlistening_da-ga.mp3	da	ga	1	right
6.6.1	mac	2023-07-09	19:39:51	19:51:44	692961	61474f07f4cfbc50cb3b2f1e	3	1	DL_test	23	DL_test	8	stimuli_target_diamondrectangles.svg	stimuli_distractor_diamondtriangles.svg	23	yes	pa	0	1292	6	5	antiphase_hc_osi.wav	2	6	6	noise_calib_stim_RIGHT.wav	2	31	blb_dichoticlistening_ta-ba.mp3	ta	ba	1	other
6.6.1	mac	2023-07-09	19:39:51	19:51:44	692961	61474f07f4cfbc50cb3b2f1e	3	1	DL_test	23	DL_test	9	stimuli_target_diamondrectangles.svg	stimuli_distractor_diamondtriangles.svg	23	yes	ba	1	1141	6	5	antiphase_hc_osi.wav	2	6	6	noise_calib_stim_RIGHT.wav	2	2	blb_dichoticlistening_ba-da.mp3	ba	da	1	left
6.6.1	mac	2023-07-09	19:39:51	19:51:44	692961	61474f07f4cfbc50cb3b2f1e	3	1	DL_test	23	DL_test	10	stimuli_target_diamondrectangles.svg	stimuli_distractor_diamondtriangles.svg	23	yes	ga	1	879	6	5	antiphase_hc_osi.wav	2	6	6	noise_calib_stim_RIGHT.wav	2	14	blb_dichoticlistening_ga-da.mp3	ga	da	1	left
6.6.1	mac	2023-07-09	19:39:51	19:51:44	692961	61474f07f4cfbc50cb3b2f1e	3	1	DL_test	23	DL_test	11	stimuli_target_diamondrectangles.svg	stimuli_distractor_diamondtriangles.svg	23	yes	ga	0	907	6	5	antiphase_hc_osi.wav	2	6	6	noise_calib_stim_RIGHT.wav	2	26	blb_dichoticlistening_pa-da.mp3	pa	da	1	other
6.6.1	mac	2023-07-09	19:39:51	19:51:44	692961	61474f07f4cfbc50cb3b2f1e	3	1	DL_test	23	DL_test	12	stimuli_target_diamondrectangles.svg	stimuli_distractor_diamondtriangles.svg	23	yes	ka	1	884	6	5	antiphase_hc_osi.wav	2	6	6	noise_calib_stim_RIGHT.wav	2	23	blb_dichoticlistening_ka-pa.mp3	ka	pa	1	left
6.6.1	mac	2023-07-09	19:39:51	19:51:44	692961	61474f07f4cfbc50cb3b2f1e	3	1	DL_test	23	DL_test	13	stimuli_target_diamondrectangles.svg	stimuli_distractor_diamondtriangles.svg	23	yes	ta	1	994	6	5	antiphase_hc_osi.wav	2	6	6	noise_calib_stim_RIGHT.wav	2	30	blb_dichoticlistening_pa-ta.mp3	pa	ta	1	right
6.6.1	mac	2023-07-09	19:39:51	19:51:44	692961	61474f07f4cfbc50cb3b2f1e	3	1	DL_test	23	DL_test	14	stimuli_target_diamondrectangles.svg	stimuli_distractor_diamondtriangles.svg	23	yes	ba	1	1067	6	5	antiphase_hc_osi.wav	2	6	6	noise_calib_stim_RIGHT.wav	2	1	blb_dichoticlistening_ba-ba.mp3	ba	ba	0	left
6.6.1	mac	2023-07-09	19:39:51	19:51:44	692961	61474f07f4cfbc50cb3b2f1e	3	1	DL_test	23	DL_test	15	stimuli_target_diamondrectangles.svg	stimuli_distractor_diamondtriangles.svg	23	yes	ga	1	909	6	5	antiphase_hc_osi.wav	2	6	6	noise_calib_stim_RIGHT.wav	2	17	blb_dichoticlistening_ga-pa.mp3	ga	pa	1	left
6.6.1	mac	2023-07-09	19:39:51	19:51:44	692961	61474f07f4cfbc50cb3b2f1e	3	1	DL_test	23	DL_test	16	stimuli_target_diamondrectangles.svg	stimuli_distractor_diamondtriangles.svg	23	yes	ba	1	905	6	5	antiphase_hc_osi.wav	2	6	6	noise_calib_stim_RIGHT.wav	2	25	blb_dichoticlistening_pa-ba.mp3	pa	ba	1	right
6.6.1	mac	2023-07-09	19:39:51	19:51:44	692961	61474f07f4cfbc50cb3b2f1e	3	1	DL_test	23	DL_test	17	stimuli_target_diamondrectangles.svg	stimuli_distractor_diamondtriangles.svg	23	yes	da	1	853	6	5	antiphase_hc_osi.wav	2	6	6	noise_calib_stim_RIGHT.wav	2	8	blb_dichoticlistening_da-da.mp3	da	da	0	left
6.6.1	mac	2023-07-09	19:39:51	19:51:44	692961	61474f07f4cfbc50cb3b2f1e	3	1	DL_test	23	DL_test	18	stimuli_target_diamondrectangles.svg	stimuli_distractor_diamondtriangles.svg	23	yes	ga	1	717	6	5	antiphase_hc_osi.wav	2	6	6	noise_calib_stim_RIGHT.wav	2	15	blb_dichoticlistening_ga-ga.mp3	ga	ga	0	left
6.6.1	mac	2023-07-09	19:39:51	19:51:44	692961	61474f07f4cfbc50cb3b2f1e	3	1	DL_test	23	DL_test	19	stimuli_target_diamondrectangles.svg	stimuli_distractor_diamondtriangles.svg	23	yes	da	1	1998	6	5	antiphase_hc_osi.wav	2	6	6	noise_calib_stim_RIGHT.wav	2	12	blb_dichoticlistening_da-ta.mp3	da	ta	1	left
6.6.1	mac	2023-07-09	19:39:51	19:51:44	692961	61474f07f4cfbc50cb3b2f1e	3	1	DL_test	23	DL_test	20	stimuli_target_diamondrectangles.svg	stimuli_distractor_diamondtriangles.svg	23	yes	ga	1	1173	6	5	antiphase_hc_osi.wav	2	6	6	noise_calib_stim_RIGHT.wav	2	27	blb_dichoticlistening_pa-ga.mp3	pa	ga	1	right
6.6.1	mac	2023-07-09	19:39:51	19:51:44	692961	61474f07f4cfbc50cb3b2f1e	3	1	DL_test	23	DL_test	21	stimuli_target_diamondrectangles.svg	stimuli_distractor_diamondtriangles.svg	23	yes	ka	1	2094	6	5	antiphase_hc_osi.wav	2	6	6	noise_calib_stim_RIGHT.wav	2	19	blb_dichoticlistening_ka-ba.mp3	ka	ba	1	left
6.6.1	mac	2023-07-09	19:39:51	19:51:44	692961	61474f07f4cfbc50cb3b2f1e	3	1	DL_test	23	DL_test	22	stimuli_target_diamondrectangles.svg	stimuli_distractor_diamondtriangles.svg	23	yes	ba	1	1270	6	5	antiphase_hc_osi.wav	2	6	6	noise_calib_stim_RIGHT.wav	2	6	blb_dichoticlistening_ba-ta.mp3	ba	ta	1	left
6.6.1	mac	2023-07-09	19:39:51	19:51:44	692961	61474f07f4cfbc50cb3b2f1e	3	1	DL_test	23	DL_test	23	stimuli_target_diamondrectangles.svg	stimuli_distractor_diamondtriangles.svg	23	yes	ga	1	804	6	5	antiphase_hc_osi.wav	2	6	6	noise_calib_stim_RIGHT.wav	2	33	blb_dichoticlistening_ta-ga.mp3	ta	ga	1	right
6.6.1	mac	2023-07-09	19:39:51	19:51:44	692961	61474f07f4cfbc50cb3b2f1e	3	1	DL_test	23	DL_test	24	stimuli_target_diamondrectangles.svg	stimuli_distractor_diamondtriangles.svg	23	yes	ka	1	1041	6	5	antiphase_hc_osi.wav	2	6	6	noise_calib_stim_RIGHT.wav	2	34	blb_dichoticlistening_ta-ka.mp3	ta	ka	1	right
6.6.1	mac	2023-07-09	19:39:51	19:51:44	692961	61474f07f4cfbc50cb3b2f1e	3	1	DL_test	23	DL_test	25	stimuli_target_diamondrectangles.svg	stimuli_distractor_diamondtriangles.svg	23	yes	ba	1	1253	6	5	antiphase_hc_osi.wav	2	6	6	noise_calib_stim_RIGHT.wav	2	4	blb_dichoticlistening_ba-ka.mp3	ba	ka	1	left
6.6.1	mac	2023-07-09	19:39:51	19:51:44	692961	61474f07f4cfbc50cb3b2f1e	3	1	DL_test	23	DL_test	26	stimuli_target_diamondrectangles.svg	stimuli_distractor_diamondtriangles.svg	23	yes	ta	1	1059	6	5	antiphase_hc_osi.wav	2	6	6	noise_calib_stim_RIGHT.wav	2	36	blb_dichoticlistening_ta-ta.mp3	ta	ta	0	left
