build	computer.platform	date	time	timestamp	time_elapsed_ms	subject	group	session	blockcode	blocknum	trialcode	trialnum	stimulus_left	stimulus_right	stim_index	target_present	response	correct	latency	headphonecheck_countTestTrials	headphonecheck_index	headphonecheck_testSound	headphonecheck_correctResponse	stereocheck_countTestTrials	stereocheck_index	stereocheck_testSound	stereocheck_correctResponse	DL_index	DL_soundfile	DL_leftSound	DL_rightSound	DL_dualSound	DL_choice
6.6.1	and	2023-07-14	07:36:48	07:40:56	224936	5b87cdc34dc3210001904196	3	1	practice_slash	5	practice_slash	1	stimuli_target_diamondsquares.svg	stimuli_distractor_trianglediamonds.svg	6	yes	0	0	2000	0	0			0	0			1				0	
6.6.1	and	2023-07-14	07:36:48	07:40:56	224936	5b87cdc34dc3210001904196	3	1	practice_slash	5	advance_on_keypress_SLASH	2	stimuli_target_diamondsquares.svg	stimuli_distractor_trianglediamonds.svg	6	yes	57	0	2205	0	0			0	0			1				0	
6.6.1	and	2023-07-14	07:36:48	07:41:02	230779	5b87cdc34dc3210001904196	3	1	practice_slash	5	practice_slash	3	stimuli_distractor_diamondtriangles.svg	stimuli_target_trianglerectangles.svg	9	yes	0	0	2000	0	0			0	0			1				0	
6.6.1	and	2023-07-14	07:36:48	07:41:02	230779	5b87cdc34dc3210001904196	3	1	practice_slash	5	advance_on_keypress_SLASH	4	stimuli_distractor_diamondtriangles.svg	stimuli_target_trianglerectangles.svg	9	yes	57	0	3091	0	0			0	0			1				0	
6.6.1	and	2023-07-14	07:36:48	07:41:07	236611	5b87cdc34dc3210001904196	3	1	practice_slash	5	practice_slash	5	stimuli_distractor_diamondtriangles.svg	stimuli_target_diamondrectangles.svg	8	yes	53	1	1104	0	0			0	0			1				0	
6.6.1	and	2023-07-14	07:36:48	07:41:07	236611	5b87cdc34dc3210001904196	3	1	practice_slash	5	advance_on_keypress_SLASH	6	stimuli_distractor_diamondtriangles.svg	stimuli_target_diamondrectangles.svg	8	yes	57	0	1133	0	0			0	0			1				0	
6.6.1	and	2023-07-14	07:36:48	07:41:11	239778	5b87cdc34dc3210001904196	3	1	practice_slash	5	practice_slash	7	stimuli_distractor_trianglediamonds.svg	stimuli_target_rectanglediamonds.svg	10	yes	53	1	411	0	0			0	0			1				0	
6.6.1	and	2023-07-14	07:36:48	07:41:11	239778	5b87cdc34dc3210001904196	3	1	practice_slash	5	advance_on_keypress_SLASH	8	stimuli_distractor_trianglediamonds.svg	stimuli_target_rectanglediamonds.svg	10	yes	57	0	760	0	0			0	0			1				0	
6.6.1	and	2023-07-14	07:36:48	07:41:14	243006	5b87cdc34dc3210001904196	3	1	practice_slash	5	practice_slash	9	stimuli_distractor_trianglediamonds.svg	stimuli_target_diamondrectangles.svg	12	yes	53	1	822	0	0			0	0			1				0	
6.6.1	and	2023-07-14	07:36:48	07:41:14	243006	5b87cdc34dc3210001904196	3	1	practice_slash	5	advance_on_keypress_SLASH	10	stimuli_distractor_trianglediamonds.svg	stimuli_target_diamondrectangles.svg	12	yes	57	0	876	0	0			0	0			1				0	
6.6.1	and	2023-07-14	07:36:48	07:41:18	247515	5b87cdc34dc3210001904196	3	1	practice_slash	5	practice_slash	11	stimuli_distractor_trianglediamonds.svg	stimuli_distractor_trianglediamonds.svg	15	no	0	1	2000	0	0			0	0			1				0	
6.6.1	and	2023-07-14	07:36:48	07:41:18	247515	5b87cdc34dc3210001904196	3	1	practice_slash	5	advance_on_keypress_SLASH	12	stimuli_distractor_trianglediamonds.svg	stimuli_distractor_trianglediamonds.svg	15	no	57	0	725	0	0			0	0			1				0	
6.6.1	and	2023-07-14	07:36:48	07:41:21	250749	5b87cdc34dc3210001904196	3	1	practice_slash	5	practice_slash	13	stimuli_target_squarediamonds.svg	stimuli_distractor_diamondtriangles.svg	2	yes	53	1	872	0	0			0	0			1				0	
6.6.1	and	2023-07-14	07:36:48	07:41:21	250749	5b87cdc34dc3210001904196	3	1	practice_slash	5	advance_on_keypress_SLASH	14	stimuli_target_squarediamonds.svg	stimuli_distractor_diamondtriangles.svg	2	yes	57	0	487	0	0			0	0			1				0	
6.6.1	and	2023-07-14	07:36:48	07:41:26	254858	5b87cdc34dc3210001904196	3	1	practice_slash	5	practice_slash	15	stimuli_distractor_diamondtriangles.svg	stimuli_distractor_trianglediamonds.svg	14	no	0	1	2000	0	0			0	0			1				0	
6.6.1	and	2023-07-14	07:36:48	07:41:26	254858	5b87cdc34dc3210001904196	3	1	practice_slash	5	advance_on_keypress_SLASH	16	stimuli_distractor_diamondtriangles.svg	stimuli_distractor_trianglediamonds.svg	14	no	57	0	620	0	0			0	0			1				0	
6.6.1	and	2023-07-14	07:36:48	07:41:30	259105	5b87cdc34dc3210001904196	3	1	practice_slash	5	practice_slash	17	stimuli_distractor_diamondtriangles.svg	stimuli_distractor_diamondtriangles.svg	13	no	0	1	2000	0	0			0	0			1				0	
6.6.1	and	2023-07-14	07:36:48	07:41:30	259105	5b87cdc34dc3210001904196	3	1	practice_slash	5	advance_on_keypress_SLASH	18	stimuli_distractor_diamondtriangles.svg	stimuli_distractor_diamondtriangles.svg	13	no	57	0	617	0	0			0	0			1				0	
6.6.1	and	2023-07-14	07:36:48	07:41:33	262265	5b87cdc34dc3210001904196	3	1	practice_slash	5	practice_slash	19	stimuli_target_squarediamonds.svg	stimuli_distractor_trianglediamonds.svg	5	yes	53	1	913	0	0			0	0			1				0	
6.6.1	and	2023-07-14	07:36:48	07:41:33	262265	5b87cdc34dc3210001904196	3	1	practice_slash	5	advance_on_keypress_SLASH	20	stimuli_target_squarediamonds.svg	stimuli_distractor_trianglediamonds.svg	5	yes	57	0	1719	0	0			0	0			1				0	
6.6.1	and	2023-07-14	07:36:48	07:41:37	266532	5b87cdc34dc3210001904196	3	1	practice_slash	5	practice_slash	21	stimuli_distractor_trianglediamonds.svg	stimuli_target_squarediamonds.svg	11	yes	53	1	918	0	0			0	0			1				0	
6.6.1	and	2023-07-14	07:36:48	07:41:37	266532	5b87cdc34dc3210001904196	3	1	practice_slash	5	advance_on_keypress_SLASH	22	stimuli_distractor_trianglediamonds.svg	stimuli_target_squarediamonds.svg	11	yes	57	0	426	0	0			0	0			1				0	
6.6.1	and	2023-07-14	07:36:48	07:41:40	269329	5b87cdc34dc3210001904196	3	1	practice_slash	5	practice_slash	23	stimuli_distractor_diamondtriangles.svg	stimuli_target_rectangletriangles.svg	7	yes	53	1	734	0	0			0	0			1				0	
6.6.1	and	2023-07-14	07:36:48	07:41:40	269329	5b87cdc34dc3210001904196	3	1	practice_slash	5	advance_on_keypress_SLASH	24	stimuli_distractor_diamondtriangles.svg	stimuli_target_rectangletriangles.svg	7	yes	57	0	476	0	0			0	0			1				0	
6.6.1	and	2023-07-14	07:36:48	07:41:44	273425	5b87cdc34dc3210001904196	3	1	practice_slash	5	practice_slash	25	stimuli_target_diamondsquares.svg	stimuli_distractor_diamondtriangles.svg	3	yes	0	0	2000	0	0			0	0			1				0	
6.6.1	and	2023-07-14	07:36:48	07:41:44	273425	5b87cdc34dc3210001904196	3	1	practice_slash	5	advance_on_keypress_SLASH	26	stimuli_target_diamondsquares.svg	stimuli_distractor_diamondtriangles.svg	3	yes	57	0	1465	0	0			0	0			1				0	
6.6.1	and	2023-07-14	07:36:48	07:41:48	277469	5b87cdc34dc3210001904196	3	1	practice_slash	5	practice_slash	27	stimuli_target_rectanglediamonds.svg	stimuli_distractor_trianglediamonds.svg	4	yes	53	1	948	0	0			0	0			1				0	
6.6.1	and	2023-07-14	07:36:48	07:41:48	277469	5b87cdc34dc3210001904196	3	1	practice_slash	5	advance_on_keypress_SLASH	28	stimuli_target_rectanglediamonds.svg	stimuli_distractor_trianglediamonds.svg	4	yes	57	0	571	0	0			0	0			1				0	
6.6.1	and	2023-07-14	07:36:48	07:41:51	280536	5b87cdc34dc3210001904196	3	1	practice_slash	5	practice_slash	29	stimuli_target_rectanglediamonds.svg	stimuli_distractor_diamondtriangles.svg	1	yes	53	1	868	0	0			0	0			1				0	
6.6.1	and	2023-07-14	07:36:48	07:41:51	280536	5b87cdc34dc3210001904196	3	1	practice_slash	5	advance_on_keypress_SLASH	30	stimuli_target_rectanglediamonds.svg	stimuli_distractor_diamondtriangles.svg	1	yes	57	0	483	0	0			0	0			1				0	
6.6.1	and	2023-07-14	07:36:48	07:41:55	283889	5b87cdc34dc3210001904196	3	1	practice_slash	5	practice_slash	31	stimuli_distractor_trianglediamonds.svg	stimuli_distractor_diamondtriangles.svg	16	no	53	0	1240	0	0			0	0			1				0	
6.6.1	and	2023-07-14	07:36:48	07:41:55	283889	5b87cdc34dc3210001904196	3	1	practice_slash	5	advance_on_keypress_SLASH	32	stimuli_distractor_trianglediamonds.svg	stimuli_distractor_diamondtriangles.svg	16	no	57	0	220	0	0			0	0			1				0	
6.6.1	and	2023-07-14	07:36:48	07:42:06	295649	5b87cdc34dc3210001904196	3	1	main_slash	7	main_slash	1	stimuli_distractor_trianglediamonds.svg	stimuli_target_rectanglediamonds.svg	10	yes	53	1	982	0	0			0	0			1				0	
6.6.1	and	2023-07-14	07:36:48	07:42:06	295649	5b87cdc34dc3210001904196	3	1	main_slash	7	advance_on_keypress_SLASH	2	stimuli_distractor_trianglediamonds.svg	stimuli_target_rectanglediamonds.svg	10	yes	57	0	1152	0	0			0	0			1				0	
6.6.1	and	2023-07-14	07:36:48	07:42:09	298503	5b87cdc34dc3210001904196	3	1	main_slash	7	main_slash	3	stimuli_target_trianglerectangles.svg	stimuli_distractor_trianglediamonds.svg	17	yes	53	1	1070	0	0			0	0			1				0	
6.6.1	and	2023-07-14	07:36:48	07:42:09	298503	5b87cdc34dc3210001904196	3	1	main_slash	7	advance_on_keypress_SLASH	4	stimuli_target_trianglerectangles.svg	stimuli_distractor_trianglediamonds.svg	17	yes	57	0	1182	0	0			0	0			1				0	
6.6.1	and	2023-07-14	07:36:48	07:42:12	301480	5b87cdc34dc3210001904196	3	1	main_slash	7	main_slash	5	stimuli_distractor_diamondtriangles.svg	stimuli_target_trianglesquares.svg	30	yes	53	1	1166	0	0			0	0			1				0	
6.6.1	and	2023-07-14	07:36:48	07:42:12	301480	5b87cdc34dc3210001904196	3	1	main_slash	7	advance_on_keypress_SLASH	6	stimuli_distractor_diamondtriangles.svg	stimuli_target_trianglesquares.svg	30	yes	57	0	1671	0	0			0	0			1				0	
6.6.1	and	2023-07-14	07:36:48	07:42:16	304790	5b87cdc34dc3210001904196	3	1	main_slash	7	main_slash	7	stimuli_distractor_trianglediamonds.svg	stimuli_target_trianglerectangles.svg	25	yes	53	1	1013	0	0			0	0			1				0	
6.6.1	and	2023-07-14	07:36:48	07:42:16	304790	5b87cdc34dc3210001904196	3	1	main_slash	7	advance_on_keypress_SLASH	8	stimuli_distractor_trianglediamonds.svg	stimuli_target_trianglerectangles.svg	25	yes	57	0	1280	0	0			0	0			1				0	
6.6.1	and	2023-07-14	07:36:48	07:42:19	308174	5b87cdc34dc3210001904196	3	1	main_slash	7	main_slash	9	stimuli_distractor_trianglediamonds.svg	stimuli_target_squarediamonds.svg	12	yes	53	1	1466	0	0			0	0			1				0	
6.6.1	and	2023-07-14	07:36:48	07:42:19	308174	5b87cdc34dc3210001904196	3	1	main_slash	7	advance_on_keypress_SLASH	10	stimuli_distractor_trianglediamonds.svg	stimuli_target_squarediamonds.svg	12	yes	57	0	1951	0	0			0	0			1				0	
6.6.1	and	2023-07-14	07:36:48	07:42:22	311719	5b87cdc34dc3210001904196	3	1	main_slash	7	main_slash	11	stimuli_target_rectanglediamonds.svg	stimuli_distractor_diamondtriangles.svg	6	yes	53	1	965	0	0			0	0			1				0	
6.6.1	and	2023-07-14	07:36:48	07:42:22	311719	5b87cdc34dc3210001904196	3	1	main_slash	7	advance_on_keypress_SLASH	12	stimuli_target_rectanglediamonds.svg	stimuli_distractor_diamondtriangles.svg	6	yes	57	0	867	0	0			0	0			1				0	
6.6.1	and	2023-07-14	07:36:48	07:42:26	315218	5b87cdc34dc3210001904196	3	1	main_slash	7	main_slash	13	stimuli_distractor_trianglediamonds.svg	stimuli_distractor_diamondtriangles.svg	35	no	0	1	2000	0	0			0	0			1				0	
6.6.1	and	2023-07-14	07:36:48	07:42:26	315218	5b87cdc34dc3210001904196	3	1	main_slash	7	advance_on_keypress_SLASH	14	stimuli_distractor_trianglediamonds.svg	stimuli_distractor_diamondtriangles.svg	35	no	57	0	765	0	0			0	0			1				0	
6.6.1	and	2023-07-14	07:36:48	07:42:28	317707	5b87cdc34dc3210001904196	3	1	main_slash	7	main_slash	15	stimuli_distractor_diamondtriangles.svg	stimuli_target_squarediamonds.svg	16	yes	53	1	1091	0	0			0	0			1				0	
6.6.1	and	2023-07-14	07:36:48	07:42:28	317707	5b87cdc34dc3210001904196	3	1	main_slash	7	advance_on_keypress_SLASH	16	stimuli_distractor_diamondtriangles.svg	stimuli_target_squarediamonds.svg	16	yes	57	0	1102	0	0			0	0			1				0	
6.6.1	and	2023-07-14	07:36:48	07:42:32	321430	5b87cdc34dc3210001904196	3	1	main_slash	7	main_slash	17	stimuli_distractor_diamondtriangles.svg	stimuli_distractor_trianglediamonds.svg	37	no	0	1	2000	0	0			0	0			1				0	
6.6.1	and	2023-07-14	07:36:48	07:42:32	321430	5b87cdc34dc3210001904196	3	1	main_slash	7	advance_on_keypress_SLASH	18	stimuli_distractor_diamondtriangles.svg	stimuli_distractor_trianglediamonds.svg	37	no	57	0	594	0	0			0	0			1				0	
6.6.1	and	2023-07-14	07:36:48	07:42:35	323772	5b87cdc34dc3210001904196	3	1	main_slash	7	main_slash	19	stimuli_distractor_trianglediamonds.svg	stimuli_target_squaretriangles.svg	11	yes	53	1	1112	0	0			0	0			1				0	
6.6.1	and	2023-07-14	07:36:48	07:42:35	323772	5b87cdc34dc3210001904196	3	1	main_slash	7	advance_on_keypress_SLASH	20	stimuli_distractor_trianglediamonds.svg	stimuli_target_squaretriangles.svg	11	yes	57	0	751	0	0			0	0			1				0	
6.6.1	and	2023-07-14	07:36:48	07:42:38	327158	5b87cdc34dc3210001904196	3	1	main_slash	7	main_slash	21	stimuli_distractor_trianglediamonds.svg	stimuli_distractor_trianglediamonds.svg	34	no	0	1	2000	0	0			0	0			1				0	
6.6.1	and	2023-07-14	07:36:48	07:42:38	327158	5b87cdc34dc3210001904196	3	1	main_slash	7	advance_on_keypress_SLASH	22	stimuli_distractor_trianglediamonds.svg	stimuli_distractor_trianglediamonds.svg	34	no	57	0	580	0	0			0	0			1				0	
6.6.1	and	2023-07-14	07:36:48	07:42:40	329312	5b87cdc34dc3210001904196	3	1	main_slash	7	main_slash	23	stimuli_target_diamondrectangles.svg	stimuli_distractor_trianglediamonds.svg	19	yes	53	1	939	0	0			0	0			1				0	
6.6.1	and	2023-07-14	07:36:48	07:42:40	329312	5b87cdc34dc3210001904196	3	1	main_slash	7	advance_on_keypress_SLASH	24	stimuli_target_diamondrectangles.svg	stimuli_distractor_trianglediamonds.svg	19	yes	57	0	1332	0	0			0	0			1				0	
6.6.1	and	2023-07-14	07:36:48	07:42:43	332202	5b87cdc34dc3210001904196	3	1	main_slash	7	main_slash	25	stimuli_target_diamondrectangles.svg	stimuli_distractor_diamondtriangles.svg	23	yes	53	1	932	0	0			0	0			1				0	
6.6.1	and	2023-07-14	07:36:48	07:42:43	332202	5b87cdc34dc3210001904196	3	1	main_slash	7	advance_on_keypress_SLASH	26	stimuli_target_diamondrectangles.svg	stimuli_distractor_diamondtriangles.svg	23	yes	57	0	860	0	0			0	0			1				0	
6.6.1	and	2023-07-14	07:36:48	07:42:45	334637	5b87cdc34dc3210001904196	3	1	main_slash	7	main_slash	27	stimuli_distractor_trianglediamonds.svg	stimuli_target_diamondrectangles.svg	27	yes	53	1	936	0	0			0	0			1				0	
6.6.1	and	2023-07-14	07:36:48	07:42:45	334637	5b87cdc34dc3210001904196	3	1	main_slash	7	advance_on_keypress_SLASH	28	stimuli_distractor_trianglediamonds.svg	stimuli_target_diamondrectangles.svg	27	yes	57	0	694	0	0			0	0			1				0	
6.6.1	and	2023-07-14	07:36:48	07:42:49	337965	5b87cdc34dc3210001904196	3	1	main_slash	7	main_slash	29	stimuli_distractor_trianglediamonds.svg	stimuli_distractor_trianglediamonds.svg	33	no	0	1	2000	0	0			0	0			1				0	
6.6.1	and	2023-07-14	07:36:48	07:42:49	337965	5b87cdc34dc3210001904196	3	1	main_slash	7	advance_on_keypress_SLASH	30	stimuli_distractor_trianglediamonds.svg	stimuli_distractor_trianglediamonds.svg	33	no	57	0	1527	0	0			0	0			1				0	
6.6.1	and	2023-07-14	07:36:48	07:42:53	342128	5b87cdc34dc3210001904196	3	1	main_slash	7	main_slash	31	stimuli_distractor_diamondtriangles.svg	stimuli_distractor_trianglediamonds.svg	38	no	0	1	2000	0	0			0	0			1				0	
6.6.1	and	2023-07-14	07:36:48	07:42:53	342128	5b87cdc34dc3210001904196	3	1	main_slash	7	advance_on_keypress_SLASH	32	stimuli_distractor_diamondtriangles.svg	stimuli_distractor_trianglediamonds.svg	38	no	57	0	500	0	0			0	0			1				0	
6.6.1	and	2023-07-14	07:36:48	07:42:55	344159	5b87cdc34dc3210001904196	3	1	main_slash	7	main_slash	33	stimuli_target_trianglesquares.svg	stimuli_distractor_trianglediamonds.svg	18	yes	53	1	901	0	0			0	0			1				0	
6.6.1	and	2023-07-14	07:36:48	07:42:55	344159	5b87cdc34dc3210001904196	3	1	main_slash	7	advance_on_keypress_SLASH	34	stimuli_target_trianglesquares.svg	stimuli_distractor_trianglediamonds.svg	18	yes	57	0	755	0	0			0	0			1				0	
6.6.1	and	2023-07-14	07:36:48	07:42:57	346629	5b87cdc34dc3210001904196	3	1	main_slash	7	main_slash	35	stimuli_distractor_trianglediamonds.svg	stimuli_target_rectangletriangles.svg	9	yes	53	1	1089	0	0			0	0			1				0	
6.6.1	and	2023-07-14	07:36:48	07:42:57	346629	5b87cdc34dc3210001904196	3	1	main_slash	7	advance_on_keypress_SLASH	36	stimuli_distractor_trianglediamonds.svg	stimuli_target_rectangletriangles.svg	9	yes	57	0	354	0	0			0	0			1				0	
6.6.1	and	2023-07-14	07:36:48	07:42:59	348338	5b87cdc34dc3210001904196	3	1	main_slash	7	main_slash	37	stimuli_distractor_diamondtriangles.svg	stimuli_target_trianglerectangles.svg	29	yes	53	1	733	0	0			0	0			1				0	
6.6.1	and	2023-07-14	07:36:48	07:42:59	348338	5b87cdc34dc3210001904196	3	1	main_slash	7	advance_on_keypress_SLASH	38	stimuli_distractor_diamondtriangles.svg	stimuli_target_trianglerectangles.svg	29	yes	57	0	476	0	0			0	0			1				0	
6.6.1	and	2023-07-14	07:36:48	07:43:02	350789	5b87cdc34dc3210001904196	3	1	main_slash	7	main_slash	39	stimuli_distractor_diamondtriangles.svg	stimuli_target_diamondsquares.svg	32	yes	53	1	1352	0	0			0	0			1				0	
6.6.1	and	2023-07-14	07:36:48	07:43:02	350789	5b87cdc34dc3210001904196	3	1	main_slash	7	advance_on_keypress_SLASH	40	stimuli_distractor_diamondtriangles.svg	stimuli_target_diamondsquares.svg	32	yes	57	0	257	0	0			0	0			1				0	
6.6.1	and	2023-07-14	07:36:48	07:43:03	352531	5b87cdc34dc3210001904196	3	1	main_slash	7	main_slash	41	stimuli_distractor_trianglediamonds.svg	stimuli_target_trianglesquares.svg	26	yes	53	1	864	0	0			0	0			1				0	
6.6.1	and	2023-07-14	07:36:48	07:43:03	352531	5b87cdc34dc3210001904196	3	1	main_slash	7	advance_on_keypress_SLASH	42	stimuli_distractor_trianglediamonds.svg	stimuli_target_trianglesquares.svg	26	yes	57	0	747	0	0			0	0			1				0	
6.6.1	and	2023-07-14	07:36:48	07:43:07	355916	5b87cdc34dc3210001904196	3	1	main_slash	7	main_slash	43	stimuli_distractor_trianglediamonds.svg	stimuli_distractor_diamondtriangles.svg	36	no	0	1	2000	0	0			0	0			1				0	
6.6.1	and	2023-07-14	07:36:48	07:43:07	355916	5b87cdc34dc3210001904196	3	1	main_slash	7	advance_on_keypress_SLASH	44	stimuli_distractor_trianglediamonds.svg	stimuli_distractor_diamondtriangles.svg	36	no	57	0	359	0	0			0	0			1				0	
6.6.1	and	2023-07-14	07:36:48	07:43:10	358897	5b87cdc34dc3210001904196	3	1	main_slash	7	main_slash	45	stimuli_distractor_diamondtriangles.svg	stimuli_distractor_diamondtriangles.svg	39	no	0	1	2000	0	0			0	0			1				0	
6.6.1	and	2023-07-14	07:36:48	07:43:10	358897	5b87cdc34dc3210001904196	3	1	main_slash	7	advance_on_keypress_SLASH	46	stimuli_distractor_diamondtriangles.svg	stimuli_distractor_diamondtriangles.svg	39	no	57	0	378	0	0			0	0			1				0	
6.6.1	and	2023-07-14	07:36:48	07:43:11	360688	5b87cdc34dc3210001904196	3	1	main_slash	7	main_slash	47	stimuli_target_trianglerectangles.svg	stimuli_distractor_diamondtriangles.svg	21	yes	53	1	776	0	0			0	0			1				0	
6.6.1	and	2023-07-14	07:36:48	07:43:11	360688	5b87cdc34dc3210001904196	3	1	main_slash	7	advance_on_keypress_SLASH	48	stimuli_target_trianglerectangles.svg	stimuli_distractor_diamondtriangles.svg	21	yes	57	0	865	0	0			0	0			1				0	
6.6.1	and	2023-07-14	07:36:48	07:43:15	363867	5b87cdc34dc3210001904196	3	1	main_slash	7	main_slash	49	stimuli_target_squaretriangles.svg	stimuli_distractor_trianglediamonds.svg	3	yes	53	1	1676	0	0			0	0			1				0	
6.6.1	and	2023-07-14	07:36:48	07:43:15	363867	5b87cdc34dc3210001904196	3	1	main_slash	7	advance_on_keypress_SLASH	50	stimuli_target_squaretriangles.svg	stimuli_distractor_trianglediamonds.svg	3	yes	57	0	437	0	0			0	0			1				0	
6.6.1	and	2023-07-14	07:36:48	07:43:18	366940	5b87cdc34dc3210001904196	3	1	main_slash	7	main_slash	51	stimuli_target_rectangletriangles.svg	stimuli_distractor_trianglediamonds.svg	1	yes	0	0	2000	0	0			0	0			1				0	
6.6.1	and	2023-07-14	07:36:48	07:43:18	366940	5b87cdc34dc3210001904196	3	1	main_slash	7	advance_on_keypress_SLASH	52	stimuli_target_rectangletriangles.svg	stimuli_distractor_trianglediamonds.svg	1	yes	57	0	778	0	0			0	0			1				0	
6.6.1	and	2023-07-14	07:36:48	07:43:21	370353	5b87cdc34dc3210001904196	3	1	main_slash	7	main_slash	53	stimuli_distractor_diamondtriangles.svg	stimuli_distractor_diamondtriangles.svg	40	no	0	1	2000	0	0			0	0			1				0	
6.6.1	and	2023-07-14	07:36:48	07:43:21	370353	5b87cdc34dc3210001904196	3	1	main_slash	7	advance_on_keypress_SLASH	54	stimuli_distractor_diamondtriangles.svg	stimuli_distractor_diamondtriangles.svg	40	no	57	0	650	0	0			0	0			1				0	
6.6.1	and	2023-07-14	07:36:48	07:43:24	373634	5b87cdc34dc3210001904196	3	1	main_slash	7	main_slash	55	stimuli_target_squaretriangles.svg	stimuli_distractor_diamondtriangles.svg	7	yes	0	0	2000	0	0			0	0			1				0	
6.6.1	and	2023-07-14	07:36:48	07:43:24	373634	5b87cdc34dc3210001904196	3	1	main_slash	7	advance_on_keypress_SLASH	56	stimuli_target_squaretriangles.svg	stimuli_distractor_diamondtriangles.svg	7	yes	57	0	536	0	0			0	0			1				0	
6.6.1	and	2023-07-14	07:36:48	07:43:27	375846	5b87cdc34dc3210001904196	3	1	main_slash	7	main_slash	57	stimuli_distractor_diamondtriangles.svg	stimuli_target_squaretriangles.svg	15	yes	53	1	1048	0	0			0	0			1				0	
6.6.1	and	2023-07-14	07:36:48	07:43:27	375846	5b87cdc34dc3210001904196	3	1	main_slash	7	advance_on_keypress_SLASH	58	stimuli_distractor_diamondtriangles.svg	stimuli_target_squaretriangles.svg	15	yes	57	0	593	0	0			0	0			1				0	
6.6.1	and	2023-07-14	07:36:48	07:43:29	378340	5b87cdc34dc3210001904196	3	1	main_slash	7	main_slash	59	stimuli_target_trianglesquares.svg	stimuli_distractor_diamondtriangles.svg	22	yes	53	1	1278	0	0			0	0			1				0	
6.6.1	and	2023-07-14	07:36:48	07:43:29	378340	5b87cdc34dc3210001904196	3	1	main_slash	7	advance_on_keypress_SLASH	60	stimuli_target_trianglesquares.svg	stimuli_distractor_diamondtriangles.svg	22	yes	57	0	566	0	0			0	0			1				0	
6.6.1	and	2023-07-14	07:36:48	07:43:32	381543	5b87cdc34dc3210001904196	3	1	main_slash	7	main_slash	61	stimuli_target_squarediamonds.svg	stimuli_distractor_diamondtriangles.svg	8	yes	0	0	2000	0	0			0	0			1				0	
6.6.1	and	2023-07-14	07:36:48	07:43:32	381543	5b87cdc34dc3210001904196	3	1	main_slash	7	advance_on_keypress_SLASH	62	stimuli_target_squarediamonds.svg	stimuli_distractor_diamondtriangles.svg	8	yes	57	0	1029	0	0			0	0			1				0	
6.6.1	and	2023-07-14	07:36:48	07:43:35	384159	5b87cdc34dc3210001904196	3	1	main_slash	7	main_slash	63	stimuli_target_squarediamonds.svg	stimuli_distractor_trianglediamonds.svg	4	yes	53	1	952	0	0			0	0			1				0	
6.6.1	and	2023-07-14	07:36:48	07:43:35	384159	5b87cdc34dc3210001904196	3	1	main_slash	7	advance_on_keypress_SLASH	64	stimuli_target_squarediamonds.svg	stimuli_distractor_trianglediamonds.svg	4	yes	57	0	3335	0	0			0	0			1				0	
6.6.1	and	2023-07-14	07:36:48	07:43:40	389022	5b87cdc34dc3210001904196	3	1	main_slash	7	main_slash	65	stimuli_distractor_diamondtriangles.svg	stimuli_target_rectangletriangles.svg	13	yes	53	1	903	0	0			0	0			1				0	
6.6.1	and	2023-07-14	07:36:48	07:43:40	389022	5b87cdc34dc3210001904196	3	1	main_slash	7	advance_on_keypress_SLASH	66	stimuli_distractor_diamondtriangles.svg	stimuli_target_rectangletriangles.svg	13	yes	57	0	767	0	0			0	0			1				0	
6.6.1	and	2023-07-14	07:36:48	07:43:42	391371	5b87cdc34dc3210001904196	3	1	main_slash	7	main_slash	67	stimuli_distractor_diamondtriangles.svg	stimuli_target_diamondrectangles.svg	31	yes	53	1	954	0	0			0	0			1				0	
6.6.1	and	2023-07-14	07:36:48	07:43:42	391371	5b87cdc34dc3210001904196	3	1	main_slash	7	advance_on_keypress_SLASH	68	stimuli_distractor_diamondtriangles.svg	stimuli_target_diamondrectangles.svg	31	yes	57	0	751	0	0			0	0			1				0	
6.6.1	and	2023-07-14	07:36:48	07:43:44	393746	5b87cdc34dc3210001904196	3	1	main_slash	7	main_slash	69	stimuli_target_rectangletriangles.svg	stimuli_distractor_diamondtriangles.svg	5	yes	53	1	997	0	0			0	0			1				0	
6.6.1	and	2023-07-14	07:36:48	07:43:44	393746	5b87cdc34dc3210001904196	3	1	main_slash	7	advance_on_keypress_SLASH	70	stimuli_target_rectangletriangles.svg	stimuli_distractor_diamondtriangles.svg	5	yes	57	0	327	0	0			0	0			1				0	
6.6.1	and	2023-07-14	07:36:48	07:43:47	396010	5b87cdc34dc3210001904196	3	1	main_slash	7	main_slash	71	stimuli_target_diamondsquares.svg	stimuli_distractor_trianglediamonds.svg	20	yes	53	1	1313	0	0			0	0			1				0	
6.6.1	and	2023-07-14	07:36:48	07:43:47	396010	5b87cdc34dc3210001904196	3	1	main_slash	7	advance_on_keypress_SLASH	72	stimuli_target_diamondsquares.svg	stimuli_distractor_trianglediamonds.svg	20	yes	57	0	464	0	0			0	0			1				0	
6.6.1	and	2023-07-14	07:36:48	07:43:49	398184	5b87cdc34dc3210001904196	3	1	main_slash	7	main_slash	73	stimuli_target_rectanglediamonds.svg	stimuli_distractor_trianglediamonds.svg	2	yes	53	1	1073	0	0			0	0			1				0	
6.6.1	and	2023-07-14	07:36:48	07:43:49	398184	5b87cdc34dc3210001904196	3	1	main_slash	7	advance_on_keypress_SLASH	74	stimuli_target_rectanglediamonds.svg	stimuli_distractor_trianglediamonds.svg	2	yes	57	0	671	0	0			0	0			1				0	
6.6.1	and	2023-07-14	07:36:48	07:43:51	400552	5b87cdc34dc3210001904196	3	1	main_slash	7	main_slash	75	stimuli_distractor_trianglediamonds.svg	stimuli_target_diamondsquares.svg	28	yes	53	1	1076	0	0			0	0			1				0	
6.6.1	and	2023-07-14	07:36:48	07:43:51	400552	5b87cdc34dc3210001904196	3	1	main_slash	7	advance_on_keypress_SLASH	76	stimuli_distractor_trianglediamonds.svg	stimuli_target_diamondsquares.svg	28	yes	57	0	511	0	0			0	0			1				0	
6.6.1	and	2023-07-14	07:36:48	07:43:54	402902	5b87cdc34dc3210001904196	3	1	main_slash	7	main_slash	77	stimuli_distractor_diamondtriangles.svg	stimuli_target_rectanglediamonds.svg	14	yes	53	1	1194	0	0			0	0			1				0	
6.6.1	and	2023-07-14	07:36:48	07:43:54	402902	5b87cdc34dc3210001904196	3	1	main_slash	7	advance_on_keypress_SLASH	78	stimuli_distractor_diamondtriangles.svg	stimuli_target_rectanglediamonds.svg	14	yes	57	0	249	0	0			0	0			1				0	
6.6.1	and	2023-07-14	07:36:48	07:43:57	405789	5b87cdc34dc3210001904196	3	1	main_slash	7	main_slash	79	stimuli_target_diamondsquares.svg	stimuli_distractor_diamondtriangles.svg	24	yes	0	0	2000	0	0			0	0			1				0	
6.6.1	and	2023-07-14	07:36:48	07:43:57	405789	5b87cdc34dc3210001904196	3	1	main_slash	7	advance_on_keypress_SLASH	80	stimuli_target_diamondsquares.svg	stimuli_distractor_diamondtriangles.svg	24	yes	57	0	709	0	0			0	0			1				0	
6.6.1	and	2023-07-14	07:36:48	07:43:59	408277	5b87cdc34dc3210001904196	3	1	main_slash	7	main_slash	81	stimuli_target_trianglesquares.svg	stimuli_distractor_trianglediamonds.svg	18	yes	53	1	1158	0	0			0	0			1				0	
6.6.1	and	2023-07-14	07:36:48	07:43:59	408277	5b87cdc34dc3210001904196	3	1	main_slash	7	advance_on_keypress_SLASH	82	stimuli_target_trianglesquares.svg	stimuli_distractor_trianglediamonds.svg	18	yes	57	0	394	0	0			0	0			1				0	
6.6.1	and	2023-07-14	07:36:48	07:44:01	410442	5b87cdc34dc3210001904196	3	1	main_slash	7	main_slash	83	stimuli_distractor_diamondtriangles.svg	stimuli_target_trianglerectangles.svg	29	yes	53	1	1141	0	0			0	0			1				0	
6.6.1	and	2023-07-14	07:36:48	07:44:01	410442	5b87cdc34dc3210001904196	3	1	main_slash	7	advance_on_keypress_SLASH	84	stimuli_distractor_diamondtriangles.svg	stimuli_target_trianglerectangles.svg	29	yes	57	0	264	0	0			0	0			1				0	
6.6.1	and	2023-07-14	07:36:48	07:44:03	412307	5b87cdc34dc3210001904196	3	1	main_slash	7	main_slash	85	stimuli_target_rectangletriangles.svg	stimuli_distractor_diamondtriangles.svg	5	yes	53	1	975	0	0			0	0			1				0	
6.6.1	and	2023-07-14	07:36:48	07:44:03	412307	5b87cdc34dc3210001904196	3	1	main_slash	7	advance_on_keypress_SLASH	86	stimuli_target_rectangletriangles.svg	stimuli_distractor_diamondtriangles.svg	5	yes	57	0	282	0	0			0	0			1				0	
6.6.1	and	2023-07-14	07:36:48	07:44:05	414124	5b87cdc34dc3210001904196	3	1	main_slash	7	main_slash	87	stimuli_target_squaretriangles.svg	stimuli_distractor_diamondtriangles.svg	7	yes	53	1	893	0	0			0	0			1				0	
6.6.1	and	2023-07-14	07:36:48	07:44:05	414124	5b87cdc34dc3210001904196	3	1	main_slash	7	advance_on_keypress_SLASH	88	stimuli_target_squaretriangles.svg	stimuli_distractor_diamondtriangles.svg	7	yes	57	0	485	0	0			0	0			1				0	
6.6.1	and	2023-07-14	07:36:48	07:44:07	416283	5b87cdc34dc3210001904196	3	1	main_slash	7	main_slash	89	stimuli_target_trianglerectangles.svg	stimuli_distractor_trianglediamonds.svg	17	yes	53	1	1037	0	0			0	0			1				0	
6.6.1	and	2023-07-14	07:36:48	07:44:07	416283	5b87cdc34dc3210001904196	3	1	main_slash	7	advance_on_keypress_SLASH	90	stimuli_target_trianglerectangles.svg	stimuli_distractor_trianglediamonds.svg	17	yes	57	0	233	0	0			0	0			1				0	
6.6.1	and	2023-07-14	07:36:48	07:44:09	418509	5b87cdc34dc3210001904196	3	1	main_slash	7	main_slash	91	stimuli_distractor_trianglediamonds.svg	stimuli_target_diamondsquares.svg	28	yes	53	1	1365	0	0			0	0			1				0	
6.6.1	and	2023-07-14	07:36:48	07:44:09	418509	5b87cdc34dc3210001904196	3	1	main_slash	7	advance_on_keypress_SLASH	92	stimuli_distractor_trianglediamonds.svg	stimuli_target_diamondsquares.svg	28	yes	57	0	207	0	0			0	0			1				0	
6.6.1	and	2023-07-14	07:36:48	07:44:11	420337	5b87cdc34dc3210001904196	3	1	main_slash	7	main_slash	93	stimuli_distractor_diamondtriangles.svg	stimuli_target_diamondsquares.svg	32	yes	53	1	995	0	0			0	0			1				0	
6.6.1	and	2023-07-14	07:36:48	07:44:11	420337	5b87cdc34dc3210001904196	3	1	main_slash	7	advance_on_keypress_SLASH	94	stimuli_distractor_diamondtriangles.svg	stimuli_target_diamondsquares.svg	32	yes	57	0	255	0	0			0	0			1				0	
6.6.1	and	2023-07-14	07:36:48	07:44:13	422175	5b87cdc34dc3210001904196	3	1	main_slash	7	main_slash	95	stimuli_distractor_diamondtriangles.svg	stimuli_target_rectangletriangles.svg	13	yes	53	1	951	0	0			0	0			1				0	
6.6.1	and	2023-07-14	07:36:48	07:44:13	422175	5b87cdc34dc3210001904196	3	1	main_slash	7	advance_on_keypress_SLASH	96	stimuli_distractor_diamondtriangles.svg	stimuli_target_rectangletriangles.svg	13	yes	57	0	271	0	0			0	0			1				0	
6.6.1	and	2023-07-14	07:36:48	07:44:15	423865	5b87cdc34dc3210001904196	3	1	main_slash	7	main_slash	97	stimuli_distractor_trianglediamonds.svg	stimuli_target_squarediamonds.svg	12	yes	53	1	793	0	0			0	0			1				0	
6.6.1	and	2023-07-14	07:36:48	07:44:15	423865	5b87cdc34dc3210001904196	3	1	main_slash	7	advance_on_keypress_SLASH	98	stimuli_distractor_trianglediamonds.svg	stimuli_target_squarediamonds.svg	12	yes	57	0	292	0	0			0	0			1				0	
6.6.1	and	2023-07-14	07:36:48	07:44:18	426804	5b87cdc34dc3210001904196	3	1	main_slash	7	main_slash	99	stimuli_distractor_diamondtriangles.svg	stimuli_distractor_diamondtriangles.svg	39	no	0	1	2000	0	0			0	0			1				0	
6.6.1	and	2023-07-14	07:36:48	07:44:18	426804	5b87cdc34dc3210001904196	3	1	main_slash	7	advance_on_keypress_SLASH	100	stimuli_distractor_diamondtriangles.svg	stimuli_distractor_diamondtriangles.svg	39	no	57	0	515	0	0			0	0			1				0	
6.6.1	and	2023-07-14	07:36:48	07:44:20	429047	5b87cdc34dc3210001904196	3	1	main_slash	7	main_slash	101	stimuli_target_diamondrectangles.svg	stimuli_distractor_trianglediamonds.svg	19	yes	53	1	1096	0	0			0	0			1				0	
6.6.1	and	2023-07-14	07:36:48	07:44:20	429047	5b87cdc34dc3210001904196	3	1	main_slash	7	advance_on_keypress_SLASH	102	stimuli_target_diamondrectangles.svg	stimuli_distractor_trianglediamonds.svg	19	yes	57	0	219	0	0			0	0			1				0	
6.6.1	and	2023-07-14	07:36:48	07:44:22	431055	5b87cdc34dc3210001904196	3	1	main_slash	7	main_slash	103	stimuli_distractor_trianglediamonds.svg	stimuli_target_diamondrectangles.svg	27	yes	53	1	1155	0	0			0	0			1				0	
6.6.1	and	2023-07-14	07:36:48	07:44:22	431055	5b87cdc34dc3210001904196	3	1	main_slash	7	advance_on_keypress_SLASH	104	stimuli_distractor_trianglediamonds.svg	stimuli_target_diamondrectangles.svg	27	yes	57	0	306	0	0			0	0			1				0	
6.6.1	and	2023-07-14	07:36:48	07:44:24	432972	5b87cdc34dc3210001904196	3	1	main_slash	7	main_slash	105	stimuli_target_diamondsquares.svg	stimuli_distractor_trianglediamonds.svg	20	yes	53	1	992	0	0			0	0			1				0	
6.6.1	and	2023-07-14	07:36:48	07:44:24	432972	5b87cdc34dc3210001904196	3	1	main_slash	7	advance_on_keypress_SLASH	106	stimuli_target_diamondsquares.svg	stimuli_distractor_trianglediamonds.svg	20	yes	57	0	270	0	0			0	0			1				0	
6.6.1	and	2023-07-14	07:36:48	07:44:26	434841	5b87cdc34dc3210001904196	3	1	main_slash	7	main_slash	107	stimuli_distractor_diamondtriangles.svg	stimuli_target_rectanglediamonds.svg	14	yes	53	1	978	0	0			0	0			1				0	
6.6.1	and	2023-07-14	07:36:48	07:44:26	434841	5b87cdc34dc3210001904196	3	1	main_slash	7	advance_on_keypress_SLASH	108	stimuli_distractor_diamondtriangles.svg	stimuli_target_rectanglediamonds.svg	14	yes	57	0	264	0	0			0	0			1				0	
6.6.1	and	2023-07-14	07:36:48	07:44:28	437744	5b87cdc34dc3210001904196	3	1	main_slash	7	main_slash	109	stimuli_distractor_trianglediamonds.svg	stimuli_distractor_diamondtriangles.svg	36	no	0	1	2000	0	0			0	0			1				0	
6.6.1	and	2023-07-14	07:36:48	07:44:28	437744	5b87cdc34dc3210001904196	3	1	main_slash	7	advance_on_keypress_SLASH	110	stimuli_distractor_trianglediamonds.svg	stimuli_distractor_diamondtriangles.svg	36	no	57	0	445	0	0			0	0			1				0	
6.6.1	and	2023-07-14	07:36:48	07:44:30	439700	5b87cdc34dc3210001904196	3	1	main_slash	7	main_slash	111	stimuli_distractor_trianglediamonds.svg	stimuli_target_rectanglediamonds.svg	10	yes	53	1	875	0	0			0	0			1				0	
6.6.1	and	2023-07-14	07:36:48	07:44:30	439700	5b87cdc34dc3210001904196	3	1	main_slash	7	advance_on_keypress_SLASH	112	stimuli_distractor_trianglediamonds.svg	stimuli_target_rectanglediamonds.svg	10	yes	57	0	277	0	0			0	0			1				0	
6.6.1	and	2023-07-14	07:36:48	07:44:33	442607	5b87cdc34dc3210001904196	3	1	main_slash	7	main_slash	113	stimuli_distractor_diamondtriangles.svg	stimuli_target_squaretriangles.svg	15	yes	0	0	2000	0	0			0	0			1				0	
6.6.1	and	2023-07-14	07:36:48	07:44:33	442607	5b87cdc34dc3210001904196	3	1	main_slash	7	advance_on_keypress_SLASH	114	stimuli_distractor_diamondtriangles.svg	stimuli_target_squaretriangles.svg	15	yes	57	0	596	0	0			0	0			1				0	
6.6.1	and	2023-07-14	07:36:48	07:44:37	445838	5b87cdc34dc3210001904196	3	1	main_slash	7	main_slash	115	stimuli_distractor_trianglediamonds.svg	stimuli_distractor_trianglediamonds.svg	33	no	0	1	2000	0	0			0	0			1				0	
6.6.1	and	2023-07-14	07:36:48	07:44:37	445838	5b87cdc34dc3210001904196	3	1	main_slash	7	advance_on_keypress_SLASH	116	stimuli_distractor_trianglediamonds.svg	stimuli_distractor_trianglediamonds.svg	33	no	57	0	479	0	0			0	0			1				0	
6.6.1	and	2023-07-14	07:36:48	07:44:40	448951	5b87cdc34dc3210001904196	3	1	main_slash	7	main_slash	117	stimuli_distractor_diamondtriangles.svg	stimuli_distractor_trianglediamonds.svg	37	no	0	1	2000	0	0			0	0			1				0	
6.6.1	and	2023-07-14	07:36:48	07:44:40	448951	5b87cdc34dc3210001904196	3	1	main_slash	7	advance_on_keypress_SLASH	118	stimuli_distractor_diamondtriangles.svg	stimuli_distractor_trianglediamonds.svg	37	no	57	0	544	0	0			0	0			1				0	
6.6.1	and	2023-07-14	07:36:48	07:44:42	450836	5b87cdc34dc3210001904196	3	1	main_slash	7	main_slash	119	stimuli_distractor_trianglediamonds.svg	stimuli_target_rectangletriangles.svg	9	yes	53	1	705	0	0			0	0			1				0	
6.6.1	and	2023-07-14	07:36:48	07:44:42	450836	5b87cdc34dc3210001904196	3	1	main_slash	7	advance_on_keypress_SLASH	120	stimuli_distractor_trianglediamonds.svg	stimuli_target_rectangletriangles.svg	9	yes	57	0	526	0	0			0	0			1				0	
6.6.1	and	2023-07-14	07:36:48	07:44:44	453160	5b87cdc34dc3210001904196	3	1	main_slash	7	main_slash	121	stimuli_distractor_trianglediamonds.svg	stimuli_target_squaretriangles.svg	11	yes	53	1	1163	0	0			0	0			1				0	
6.6.1	and	2023-07-14	07:36:48	07:44:44	453160	5b87cdc34dc3210001904196	3	1	main_slash	7	advance_on_keypress_SLASH	122	stimuli_distractor_trianglediamonds.svg	stimuli_target_squaretriangles.svg	11	yes	57	0	273	0	0			0	0			1				0	
6.6.1	and	2023-07-14	07:36:48	07:44:47	456061	5b87cdc34dc3210001904196	3	1	main_slash	7	main_slash	123	stimuli_target_trianglerectangles.svg	stimuli_distractor_diamondtriangles.svg	21	yes	0	0	2000	0	0			0	0			1				0	
6.6.1	and	2023-07-14	07:36:48	07:44:47	456061	5b87cdc34dc3210001904196	3	1	main_slash	7	advance_on_keypress_SLASH	124	stimuli_target_trianglerectangles.svg	stimuli_distractor_diamondtriangles.svg	21	yes	57	0	743	0	0			0	0			1				0	
6.6.1	and	2023-07-14	07:36:48	07:44:49	458334	5b87cdc34dc3210001904196	3	1	main_slash	7	main_slash	125	stimuli_target_diamondrectangles.svg	stimuli_distractor_diamondtriangles.svg	23	yes	53	1	892	0	0			0	0			1				0	
6.6.1	and	2023-07-14	07:36:48	07:44:49	458334	5b87cdc34dc3210001904196	3	1	main_slash	7	advance_on_keypress_SLASH	126	stimuli_target_diamondrectangles.svg	stimuli_distractor_diamondtriangles.svg	23	yes	57	0	285	0	0			0	0			1				0	
6.6.1	and	2023-07-14	07:36:48	07:44:52	461240	5b87cdc34dc3210001904196	3	1	main_slash	7	main_slash	127	stimuli_distractor_trianglediamonds.svg	stimuli_distractor_diamondtriangles.svg	35	no	0	1	2000	0	0			0	0			1				0	
6.6.1	and	2023-07-14	07:36:48	07:44:52	461240	5b87cdc34dc3210001904196	3	1	main_slash	7	advance_on_keypress_SLASH	128	stimuli_distractor_trianglediamonds.svg	stimuli_distractor_diamondtriangles.svg	35	no	57	0	481	0	0			0	0			1				0	
6.6.1	and	2023-07-14	07:36:48	07:44:54	463196	5b87cdc34dc3210001904196	3	1	main_slash	7	main_slash	129	stimuli_target_squarediamonds.svg	stimuli_distractor_diamondtriangles.svg	8	yes	53	1	842	0	0			0	0			1				0	
6.6.1	and	2023-07-14	07:36:48	07:44:54	463196	5b87cdc34dc3210001904196	3	1	main_slash	7	advance_on_keypress_SLASH	130	stimuli_target_squarediamonds.svg	stimuli_distractor_diamondtriangles.svg	8	yes	57	0	326	0	0			0	0			1				0	
6.6.1	and	2023-07-14	07:36:48	07:44:57	466153	5b87cdc34dc3210001904196	3	1	main_slash	7	main_slash	131	stimuli_distractor_trianglediamonds.svg	stimuli_distractor_trianglediamonds.svg	34	no	0	1	2000	0	0			0	0			1				0	
6.6.1	and	2023-07-14	07:36:48	07:44:57	466153	5b87cdc34dc3210001904196	3	1	main_slash	7	advance_on_keypress_SLASH	132	stimuli_distractor_trianglediamonds.svg	stimuli_distractor_trianglediamonds.svg	34	no	57	0	598	0	0			0	0			1				0	
6.6.1	and	2023-07-14	07:36:48	07:45:00	469383	5b87cdc34dc3210001904196	3	1	main_slash	7	main_slash	133	stimuli_distractor_diamondtriangles.svg	stimuli_distractor_trianglediamonds.svg	38	no	0	1	2000	0	0			0	0			1				0	
6.6.1	and	2023-07-14	07:36:48	07:45:00	469383	5b87cdc34dc3210001904196	3	1	main_slash	7	advance_on_keypress_SLASH	134	stimuli_distractor_diamondtriangles.svg	stimuli_distractor_trianglediamonds.svg	38	no	57	0	831	0	0			0	0			1				0	
6.6.1	and	2023-07-14	07:36:48	07:45:02	471758	5b87cdc34dc3210001904196	3	1	main_slash	7	main_slash	135	stimuli_distractor_trianglediamonds.svg	stimuli_target_trianglesquares.svg	26	yes	53	1	911	0	0			0	0			1				0	
6.6.1	and	2023-07-14	07:36:48	07:45:02	471758	5b87cdc34dc3210001904196	3	1	main_slash	7	advance_on_keypress_SLASH	136	stimuli_distractor_trianglediamonds.svg	stimuli_target_trianglesquares.svg	26	yes	57	0	566	0	0			0	0			1				0	
6.6.1	and	2023-07-14	07:36:48	07:45:05	474280	5b87cdc34dc3210001904196	3	1	main_slash	7	main_slash	137	stimuli_distractor_diamondtriangles.svg	stimuli_target_diamondrectangles.svg	31	yes	53	1	1318	0	0			0	0			1				0	
6.6.1	and	2023-07-14	07:36:48	07:45:05	474280	5b87cdc34dc3210001904196	3	1	main_slash	7	advance_on_keypress_SLASH	138	stimuli_distractor_diamondtriangles.svg	stimuli_target_diamondrectangles.svg	31	yes	57	0	947	0	0			0	0			1				0	
6.6.1	and	2023-07-14	07:36:48	07:45:08	476884	5b87cdc34dc3210001904196	3	1	main_slash	7	main_slash	139	stimuli_target_rectangletriangles.svg	stimuli_distractor_trianglediamonds.svg	1	yes	53	1	1025	0	0			0	0			1				0	
6.6.1	and	2023-07-14	07:36:48	07:45:08	476884	5b87cdc34dc3210001904196	3	1	main_slash	7	advance_on_keypress_SLASH	140	stimuli_target_rectangletriangles.svg	stimuli_distractor_trianglediamonds.svg	1	yes	57	0	364	0	0			0	0			1				0	
6.6.1	and	2023-07-14	07:36:48	07:45:10	478924	5b87cdc34dc3210001904196	3	1	main_slash	7	main_slash	141	stimuli_target_rectanglediamonds.svg	stimuli_distractor_trianglediamonds.svg	2	yes	53	1	1050	0	0			0	0			1				0	
6.6.1	and	2023-07-14	07:36:48	07:45:10	478924	5b87cdc34dc3210001904196	3	1	main_slash	7	advance_on_keypress_SLASH	142	stimuli_target_rectanglediamonds.svg	stimuli_distractor_trianglediamonds.svg	2	yes	57	0	292	0	0			0	0			1				0	
6.6.1	and	2023-07-14	07:36:48	07:45:12	481481	5b87cdc34dc3210001904196	3	1	main_slash	7	main_slash	143	stimuli_distractor_trianglediamonds.svg	stimuli_target_trianglerectangles.svg	25	yes	53	1	1643	0	0			0	0			1				0	
6.6.1	and	2023-07-14	07:36:48	07:45:12	481481	5b87cdc34dc3210001904196	3	1	main_slash	7	advance_on_keypress_SLASH	144	stimuli_distractor_trianglediamonds.svg	stimuli_target_trianglerectangles.svg	25	yes	57	0	779	0	0			0	0			1				0	
6.6.1	and	2023-07-14	07:36:48	07:45:16	484903	5b87cdc34dc3210001904196	3	1	main_slash	7	main_slash	145	stimuli_distractor_diamondtriangles.svg	stimuli_distractor_diamondtriangles.svg	40	no	0	1	2000	0	0			0	0			1				0	
6.6.1	and	2023-07-14	07:36:48	07:45:16	484903	5b87cdc34dc3210001904196	3	1	main_slash	7	advance_on_keypress_SLASH	146	stimuli_distractor_diamondtriangles.svg	stimuli_distractor_diamondtriangles.svg	40	no	57	0	653	0	0			0	0			1				0	
6.6.1	and	2023-07-14	07:36:48	07:45:18	487190	5b87cdc34dc3210001904196	3	1	main_slash	7	main_slash	147	stimuli_distractor_diamondtriangles.svg	stimuli_target_squarediamonds.svg	16	yes	53	1	1007	0	0			0	0			1				0	
6.6.1	and	2023-07-14	07:36:48	07:45:18	487190	5b87cdc34dc3210001904196	3	1	main_slash	7	advance_on_keypress_SLASH	148	stimuli_distractor_diamondtriangles.svg	stimuli_target_squarediamonds.svg	16	yes	57	0	292	0	0			0	0			1				0	
6.6.1	and	2023-07-14	07:36:48	07:45:20	489045	5b87cdc34dc3210001904196	3	1	main_slash	7	main_slash	149	stimuli_target_rectanglediamonds.svg	stimuli_distractor_diamondtriangles.svg	6	yes	53	1	930	0	0			0	0			1				0	
6.6.1	and	2023-07-14	07:36:48	07:45:20	489045	5b87cdc34dc3210001904196	3	1	main_slash	7	advance_on_keypress_SLASH	150	stimuli_target_rectanglediamonds.svg	stimuli_distractor_diamondtriangles.svg	6	yes	57	0	293	0	0			0	0			1				0	
6.6.1	and	2023-07-14	07:36:48	07:45:22	490865	5b87cdc34dc3210001904196	3	1	main_slash	7	main_slash	151	stimuli_target_squarediamonds.svg	stimuli_distractor_trianglediamonds.svg	4	yes	53	1	886	0	0			0	0			1				0	
6.6.1	and	2023-07-14	07:36:48	07:45:22	490865	5b87cdc34dc3210001904196	3	1	main_slash	7	advance_on_keypress_SLASH	152	stimuli_target_squarediamonds.svg	stimuli_distractor_trianglediamonds.svg	4	yes	57	0	430	0	0			0	0			1				0	
6.6.1	and	2023-07-14	07:36:48	07:45:25	493928	5b87cdc34dc3210001904196	3	1	main_slash	7	main_slash	153	stimuli_target_squaretriangles.svg	stimuli_distractor_trianglediamonds.svg	3	yes	0	0	2000	0	0			0	0			1				0	
6.6.1	and	2023-07-14	07:36:48	07:45:25	493928	5b87cdc34dc3210001904196	3	1	main_slash	7	advance_on_keypress_SLASH	154	stimuli_target_squaretriangles.svg	stimuli_distractor_trianglediamonds.svg	3	yes	57	0	886	0	0			0	0			1				0	
6.6.1	and	2023-07-14	07:36:48	07:45:27	496363	5b87cdc34dc3210001904196	3	1	main_slash	7	main_slash	155	stimuli_target_trianglesquares.svg	stimuli_distractor_diamondtriangles.svg	22	yes	53	1	922	0	0			0	0			1				0	
6.6.1	and	2023-07-14	07:36:48	07:45:27	496363	5b87cdc34dc3210001904196	3	1	main_slash	7	advance_on_keypress_SLASH	156	stimuli_target_trianglesquares.svg	stimuli_distractor_diamondtriangles.svg	22	yes	57	0	475	0	0			0	0			1				0	
6.6.1	and	2023-07-14	07:36:48	07:45:29	498510	5b87cdc34dc3210001904196	3	1	main_slash	7	main_slash	157	stimuli_target_diamondsquares.svg	stimuli_distractor_diamondtriangles.svg	24	yes	53	1	1054	0	0			0	0			1				0	
6.6.1	and	2023-07-14	07:36:48	07:45:29	498510	5b87cdc34dc3210001904196	3	1	main_slash	7	advance_on_keypress_SLASH	158	stimuli_target_diamondsquares.svg	stimuli_distractor_diamondtriangles.svg	24	yes	57	0	381	0	0			0	0			1				0	
6.6.1	and	2023-07-14	07:36:48	07:45:31	500583	5b87cdc34dc3210001904196	3	1	main_slash	7	main_slash	159	stimuli_distractor_diamondtriangles.svg	stimuli_target_trianglesquares.svg	30	yes	53	1	1062	0	0			0	0			1				0	
6.6.1	and	2023-07-14	07:36:48	07:45:31	500583	5b87cdc34dc3210001904196	3	1	main_slash	7	advance_on_keypress_SLASH	160	stimuli_distractor_diamondtriangles.svg	stimuli_target_trianglesquares.svg	30	yes	57	0	409	0	0			0	0			1				0	
6.6.1	and	2023-07-14	07:36:48	07:45:57	525799	5b87cdc34dc3210001904196	3	1	practice_z	9	practice_z	1	stimuli_distractor_trianglediamonds.svg	stimuli_target_diamondrectangles.svg	12	yes	44	1	1029	0	0			0	0			1				0	
6.6.1	and	2023-07-14	07:36:48	07:45:57	525799	5b87cdc34dc3210001904196	3	1	practice_z	9	advance_on_keypress_ZEE	2	stimuli_distractor_trianglediamonds.svg	stimuli_target_diamondrectangles.svg	12	yes	57	0	741	0	0			0	0			1				0	
6.6.1	and	2023-07-14	07:36:48	07:46:01	530166	5b87cdc34dc3210001904196	3	1	practice_z	9	practice_z	3	stimuli_distractor_diamondtriangles.svg	stimuli_distractor_diamondtriangles.svg	13	no	0	1	2000	0	0			0	0			1				0	
6.6.1	and	2023-07-14	07:36:48	07:46:01	530166	5b87cdc34dc3210001904196	3	1	practice_z	9	advance_on_keypress_ZEE	4	stimuli_distractor_diamondtriangles.svg	stimuli_distractor_diamondtriangles.svg	13	no	57	0	654	0	0			0	0			1				0	
6.6.1	and	2023-07-14	07:36:48	07:46:04	533371	5b87cdc34dc3210001904196	3	1	practice_z	9	practice_z	5	stimuli_target_diamondsquares.svg	stimuli_distractor_trianglediamonds.svg	6	yes	44	1	926	0	0			0	0			1				0	
6.6.1	and	2023-07-14	07:36:48	07:46:04	533371	5b87cdc34dc3210001904196	3	1	practice_z	9	advance_on_keypress_ZEE	6	stimuli_target_diamondsquares.svg	stimuli_distractor_trianglediamonds.svg	6	yes	57	0	884	0	0			0	0			1				0	
6.6.1	and	2023-07-14	07:36:48	07:46:08	536781	5b87cdc34dc3210001904196	3	1	practice_z	9	practice_z	7	stimuli_distractor_diamondtriangles.svg	stimuli_target_trianglerectangles.svg	9	yes	44	1	889	0	0			0	0			1				0	
6.6.1	and	2023-07-14	07:36:48	07:46:08	536781	5b87cdc34dc3210001904196	3	1	practice_z	9	advance_on_keypress_ZEE	8	stimuli_distractor_diamondtriangles.svg	stimuli_target_trianglerectangles.svg	9	yes	57	0	683	0	0			0	0			1				0	
6.6.1	and	2023-07-14	07:36:48	07:46:11	540106	5b87cdc34dc3210001904196	3	1	practice_z	9	practice_z	9	stimuli_distractor_diamondtriangles.svg	stimuli_target_rectangletriangles.svg	7	yes	44	1	1001	0	0			0	0			1				0	
6.6.1	and	2023-07-14	07:36:48	07:46:11	540106	5b87cdc34dc3210001904196	3	1	practice_z	9	advance_on_keypress_ZEE	10	stimuli_distractor_diamondtriangles.svg	stimuli_target_rectangletriangles.svg	7	yes	57	0	479	0	0			0	0			1				0	
6.6.1	and	2023-07-14	07:36:48	07:46:14	543178	5b87cdc34dc3210001904196	3	1	practice_z	9	practice_z	11	stimuli_target_squarediamonds.svg	stimuli_distractor_trianglediamonds.svg	5	yes	44	1	959	0	0			0	0			1				0	
6.6.1	and	2023-07-14	07:36:48	07:46:14	543178	5b87cdc34dc3210001904196	3	1	practice_z	9	advance_on_keypress_ZEE	12	stimuli_target_squarediamonds.svg	stimuli_distractor_trianglediamonds.svg	5	yes	57	0	616	0	0			0	0			1				0	
6.6.1	and	2023-07-14	07:36:48	07:46:17	546383	5b87cdc34dc3210001904196	3	1	practice_z	9	practice_z	13	stimuli_distractor_trianglediamonds.svg	stimuli_target_squarediamonds.svg	11	yes	44	1	949	0	0			0	0			1				0	
6.6.1	and	2023-07-14	07:36:48	07:46:17	546383	5b87cdc34dc3210001904196	3	1	practice_z	9	advance_on_keypress_ZEE	14	stimuli_distractor_trianglediamonds.svg	stimuli_target_squarediamonds.svg	11	yes	57	0	647	0	0			0	0			1				0	
6.6.1	and	2023-07-14	07:36:48	07:46:20	549580	5b87cdc34dc3210001904196	3	1	practice_z	9	practice_z	15	stimuli_target_rectanglediamonds.svg	stimuli_distractor_diamondtriangles.svg	1	yes	44	1	916	0	0			0	0			1				0	
6.6.1	and	2023-07-14	07:36:48	07:46:20	549580	5b87cdc34dc3210001904196	3	1	practice_z	9	advance_on_keypress_ZEE	16	stimuli_target_rectanglediamonds.svg	stimuli_distractor_diamondtriangles.svg	1	yes	57	0	1074	0	0			0	0			1				0	
6.6.1	and	2023-07-14	07:36:48	07:46:24	553238	5b87cdc34dc3210001904196	3	1	practice_z	9	practice_z	17	stimuli_distractor_diamondtriangles.svg	stimuli_target_diamondrectangles.svg	8	yes	44	1	960	0	0			0	0			1				0	
6.6.1	and	2023-07-14	07:36:48	07:46:24	553238	5b87cdc34dc3210001904196	3	1	practice_z	9	advance_on_keypress_ZEE	18	stimuli_distractor_diamondtriangles.svg	stimuli_target_diamondrectangles.svg	8	yes	57	0	928	0	0			0	0			1				0	
6.6.1	and	2023-07-14	07:36:48	07:46:29	557808	5b87cdc34dc3210001904196	3	1	practice_z	9	practice_z	19	stimuli_distractor_diamondtriangles.svg	stimuli_distractor_trianglediamonds.svg	14	no	0	1	2000	0	0			0	0			1				0	
6.6.1	and	2023-07-14	07:36:48	07:46:29	557808	5b87cdc34dc3210001904196	3	1	practice_z	9	advance_on_keypress_ZEE	20	stimuli_distractor_diamondtriangles.svg	stimuli_distractor_trianglediamonds.svg	14	no	57	0	769	0	0			0	0			1				0	
6.6.1	and	2023-07-14	07:36:48	07:46:32	561198	5b87cdc34dc3210001904196	3	1	practice_z	9	practice_z	21	stimuli_target_diamondsquares.svg	stimuli_distractor_diamondtriangles.svg	3	yes	44	1	994	0	0			0	0			1				0	
6.6.1	and	2023-07-14	07:36:48	07:46:32	561198	5b87cdc34dc3210001904196	3	1	practice_z	9	advance_on_keypress_ZEE	22	stimuli_target_diamondsquares.svg	stimuli_distractor_diamondtriangles.svg	3	yes	57	0	803	0	0			0	0			1				0	
6.6.1	and	2023-07-14	07:36:48	07:46:36	565634	5b87cdc34dc3210001904196	3	1	practice_z	9	practice_z	23	stimuli_distractor_trianglediamonds.svg	stimuli_distractor_trianglediamonds.svg	15	no	0	1	2000	0	0			0	0			1				0	
6.6.1	and	2023-07-14	07:36:48	07:46:36	565634	5b87cdc34dc3210001904196	3	1	practice_z	9	advance_on_keypress_ZEE	24	stimuli_distractor_trianglediamonds.svg	stimuli_distractor_trianglediamonds.svg	15	no	57	0	2304	0	0			0	0			1				0	
6.6.1	and	2023-07-14	07:36:48	07:46:41	570160	5b87cdc34dc3210001904196	3	1	practice_z	9	practice_z	25	stimuli_distractor_trianglediamonds.svg	stimuli_target_rectanglediamonds.svg	10	yes	44	1	598	0	0			0	0			1				0	
6.6.1	and	2023-07-14	07:36:48	07:46:41	570160	5b87cdc34dc3210001904196	3	1	practice_z	9	advance_on_keypress_ZEE	26	stimuli_distractor_trianglediamonds.svg	stimuli_target_rectanglediamonds.svg	10	yes	57	0	539	0	0			0	0			1				0	
6.6.1	and	2023-07-14	07:36:48	07:46:45	574327	5b87cdc34dc3210001904196	3	1	practice_z	9	practice_z	27	stimuli_distractor_trianglediamonds.svg	stimuli_distractor_diamondtriangles.svg	16	no	0	1	2000	0	0			0	0			1				0	
6.6.1	and	2023-07-14	07:36:48	07:46:45	574327	5b87cdc34dc3210001904196	3	1	practice_z	9	advance_on_keypress_ZEE	28	stimuli_distractor_trianglediamonds.svg	stimuli_distractor_diamondtriangles.svg	16	no	57	0	601	0	0			0	0			1				0	
6.6.1	and	2023-07-14	07:36:48	07:46:48	577686	5b87cdc34dc3210001904196	3	1	practice_z	9	practice_z	29	stimuli_target_rectanglediamonds.svg	stimuli_distractor_trianglediamonds.svg	4	yes	44	1	1130	0	0			0	0			1				0	
6.6.1	and	2023-07-14	07:36:48	07:46:48	577686	5b87cdc34dc3210001904196	3	1	practice_z	9	advance_on_keypress_ZEE	30	stimuli_target_rectanglediamonds.svg	stimuli_distractor_trianglediamonds.svg	4	yes	57	0	549	0	0			0	0			1				0	
6.6.1	and	2023-07-14	07:36:48	07:46:52	581255	5b87cdc34dc3210001904196	3	1	practice_z	9	practice_z	31	stimuli_target_squarediamonds.svg	stimuli_distractor_diamondtriangles.svg	2	yes	44	1	1385	0	0			0	0			1				0	
6.6.1	and	2023-07-14	07:36:48	07:46:52	581255	5b87cdc34dc3210001904196	3	1	practice_z	9	advance_on_keypress_ZEE	32	stimuli_target_squarediamonds.svg	stimuli_distractor_diamondtriangles.svg	2	yes	57	0	610	0	0			0	0			1				0	
6.6.1	and	2023-07-14	07:36:48	07:47:20	609733	5b87cdc34dc3210001904196	3	1	main_z	11	main_z	1	stimuli_target_trianglerectangles.svg	stimuli_distractor_trianglediamonds.svg	17	yes	44	1	875	0	0			0	0			1				0	
6.6.1	and	2023-07-14	07:36:48	07:47:20	609733	5b87cdc34dc3210001904196	3	1	main_z	11	advance_on_keypress_ZEE	2	stimuli_target_trianglerectangles.svg	stimuli_distractor_trianglediamonds.svg	17	yes	57	0	759	0	0			0	0			1				0	
6.6.1	and	2023-07-14	07:36:48	07:47:23	611828	5b87cdc34dc3210001904196	3	1	main_z	11	main_z	3	stimuli_target_rectangletriangles.svg	stimuli_distractor_trianglediamonds.svg	1	yes	44	1	705	0	0			0	0			1				0	
6.6.1	and	2023-07-14	07:36:48	07:47:23	611828	5b87cdc34dc3210001904196	3	1	main_z	11	advance_on_keypress_ZEE	4	stimuli_target_rectangletriangles.svg	stimuli_distractor_trianglediamonds.svg	1	yes	57	0	571	0	0			0	0			1				0	
6.6.1	and	2023-07-14	07:36:48	07:47:26	615021	5b87cdc34dc3210001904196	3	1	main_z	11	main_z	5	stimuli_target_squarediamonds.svg	stimuli_distractor_trianglediamonds.svg	4	yes	0	0	2000	0	0			0	0			1				0	
6.6.1	and	2023-07-14	07:36:48	07:47:26	615021	5b87cdc34dc3210001904196	3	1	main_z	11	advance_on_keypress_ZEE	6	stimuli_target_squarediamonds.svg	stimuli_distractor_trianglediamonds.svg	4	yes	57	0	799	0	0			0	0			1				0	
6.6.1	and	2023-07-14	07:36:48	07:47:29	618451	5b87cdc34dc3210001904196	3	1	main_z	11	main_z	7	stimuli_distractor_trianglediamonds.svg	stimuli_distractor_trianglediamonds.svg	33	no	0	1	2000	0	0			0	0			1				0	
6.6.1	and	2023-07-14	07:36:48	07:47:29	618451	5b87cdc34dc3210001904196	3	1	main_z	11	advance_on_keypress_ZEE	8	stimuli_distractor_trianglediamonds.svg	stimuli_distractor_trianglediamonds.svg	33	no	57	0	413	0	0			0	0			1				0	
6.6.1	and	2023-07-14	07:36:48	07:47:31	620546	5b87cdc34dc3210001904196	3	1	main_z	11	main_z	9	stimuli_distractor_trianglediamonds.svg	stimuli_target_diamondrectangles.svg	27	yes	44	1	1047	0	0			0	0			1				0	
6.6.1	and	2023-07-14	07:36:48	07:47:31	620546	5b87cdc34dc3210001904196	3	1	main_z	11	advance_on_keypress_ZEE	10	stimuli_distractor_trianglediamonds.svg	stimuli_target_diamondrectangles.svg	27	yes	57	0	675	0	0			0	0			1				0	
6.6.1	and	2023-07-14	07:36:48	07:47:34	622975	5b87cdc34dc3210001904196	3	1	main_z	11	main_z	11	stimuli_target_squarediamonds.svg	stimuli_distractor_diamondtriangles.svg	8	yes	44	1	1129	0	0			0	0			1				0	
6.6.1	and	2023-07-14	07:36:48	07:47:34	622975	5b87cdc34dc3210001904196	3	1	main_z	11	advance_on_keypress_ZEE	12	stimuli_target_squarediamonds.svg	stimuli_distractor_diamondtriangles.svg	8	yes	57	0	654	0	0			0	0			1				0	
6.6.1	and	2023-07-14	07:36:48	07:47:36	625253	5b87cdc34dc3210001904196	3	1	main_z	11	main_z	13	stimuli_distractor_trianglediamonds.svg	stimuli_target_squaretriangles.svg	11	yes	44	1	991	0	0			0	0			1				0	
6.6.1	and	2023-07-14	07:36:48	07:47:36	625253	5b87cdc34dc3210001904196	3	1	main_z	11	advance_on_keypress_ZEE	14	stimuli_distractor_trianglediamonds.svg	stimuli_target_squaretriangles.svg	11	yes	57	0	471	0	0			0	0			1				0	
6.6.1	and	2023-07-14	07:36:48	07:47:38	627438	5b87cdc34dc3210001904196	3	1	main_z	11	main_z	15	stimuli_distractor_trianglediamonds.svg	stimuli_target_rectanglediamonds.svg	10	yes	44	1	1095	0	0			0	0			1				0	
6.6.1	and	2023-07-14	07:36:48	07:47:38	627438	5b87cdc34dc3210001904196	3	1	main_z	11	advance_on_keypress_ZEE	16	stimuli_distractor_trianglediamonds.svg	stimuli_target_rectanglediamonds.svg	10	yes	57	0	524	0	0			0	0			1				0	
6.6.1	and	2023-07-14	07:36:48	07:47:41	630279	5b87cdc34dc3210001904196	3	1	main_z	11	main_z	17	stimuli_distractor_diamondtriangles.svg	stimuli_distractor_trianglediamonds.svg	37	no	44	0	1688	0	0			0	0			1				0	
6.6.1	and	2023-07-14	07:36:48	07:47:41	630279	5b87cdc34dc3210001904196	3	1	main_z	11	advance_on_keypress_ZEE	18	stimuli_distractor_diamondtriangles.svg	stimuli_distractor_trianglediamonds.svg	37	no	57	0	531	0	0			0	0			1				0	
6.6.1	and	2023-07-14	07:36:48	07:47:43	632429	5b87cdc34dc3210001904196	3	1	main_z	11	main_z	19	stimuli_distractor_diamondtriangles.svg	stimuli_target_squaretriangles.svg	15	yes	44	1	990	0	0			0	0			1				0	
6.6.1	and	2023-07-14	07:36:48	07:47:43	632429	5b87cdc34dc3210001904196	3	1	main_z	11	advance_on_keypress_ZEE	20	stimuli_distractor_diamondtriangles.svg	stimuli_target_squaretriangles.svg	15	yes	57	0	632	0	0			0	0			1				0	
6.6.1	and	2023-07-14	07:36:48	07:47:45	634609	5b87cdc34dc3210001904196	3	1	main_z	11	main_z	21	stimuli_target_trianglerectangles.svg	stimuli_distractor_diamondtriangles.svg	21	yes	44	1	923	0	0			0	0			1				0	
6.6.1	and	2023-07-14	07:36:48	07:47:45	634609	5b87cdc34dc3210001904196	3	1	main_z	11	advance_on_keypress_ZEE	22	stimuli_target_trianglerectangles.svg	stimuli_distractor_diamondtriangles.svg	21	yes	57	0	444	0	0			0	0			1				0	
6.6.1	and	2023-07-14	07:36:48	07:47:48	636916	5b87cdc34dc3210001904196	3	1	main_z	11	main_z	23	stimuli_target_rectanglediamonds.svg	stimuli_distractor_diamondtriangles.svg	6	yes	44	1	1231	0	0			0	0			1				0	
6.6.1	and	2023-07-14	07:36:48	07:47:48	636916	5b87cdc34dc3210001904196	3	1	main_z	11	advance_on_keypress_ZEE	24	stimuli_target_rectanglediamonds.svg	stimuli_distractor_diamondtriangles.svg	6	yes	57	0	594	0	0			0	0			1				0	
6.6.1	and	2023-07-14	07:36:48	07:47:51	640149	5b87cdc34dc3210001904196	3	1	main_z	11	main_z	25	stimuli_distractor_diamondtriangles.svg	stimuli_distractor_diamondtriangles.svg	40	no	0	1	2000	0	0			0	0			1				0	
6.6.1	and	2023-07-14	07:36:48	07:47:51	640149	5b87cdc34dc3210001904196	3	1	main_z	11	advance_on_keypress_ZEE	26	stimuli_distractor_diamondtriangles.svg	stimuli_distractor_diamondtriangles.svg	40	no	57	0	2896	0	0			0	0			1				0	
6.6.1	and	2023-07-14	07:36:48	07:47:55	644580	5b87cdc34dc3210001904196	3	1	main_z	11	main_z	27	stimuli_distractor_diamondtriangles.svg	stimuli_target_rectanglediamonds.svg	14	yes	44	1	903	0	0			0	0			1				0	
6.6.1	and	2023-07-14	07:36:48	07:47:55	644580	5b87cdc34dc3210001904196	3	1	main_z	11	advance_on_keypress_ZEE	28	stimuli_distractor_diamondtriangles.svg	stimuli_target_rectanglediamonds.svg	14	yes	57	0	464	0	0			0	0			1				0	
6.6.1	and	2023-07-14	07:36:48	07:47:58	646846	5b87cdc34dc3210001904196	3	1	main_z	11	main_z	29	stimuli_target_rectanglediamonds.svg	stimuli_distractor_trianglediamonds.svg	2	yes	44	1	1170	0	0			0	0			1				0	
6.6.1	and	2023-07-14	07:36:48	07:47:58	646846	5b87cdc34dc3210001904196	3	1	main_z	11	advance_on_keypress_ZEE	30	stimuli_target_rectanglediamonds.svg	stimuli_distractor_trianglediamonds.svg	2	yes	57	0	658	0	0			0	0			1				0	
6.6.1	and	2023-07-14	07:36:48	07:48:00	648951	5b87cdc34dc3210001904196	3	1	main_z	11	main_z	31	stimuli_target_trianglesquares.svg	stimuli_distractor_diamondtriangles.svg	22	yes	44	1	827	0	0			0	0			1				0	
6.6.1	and	2023-07-14	07:36:48	07:48:00	648951	5b87cdc34dc3210001904196	3	1	main_z	11	advance_on_keypress_ZEE	32	stimuli_target_trianglesquares.svg	stimuli_distractor_diamondtriangles.svg	22	yes	57	0	389	0	0			0	0			1				0	
6.6.1	and	2023-07-14	07:36:48	07:48:01	650757	5b87cdc34dc3210001904196	3	1	main_z	11	main_z	33	stimuli_target_diamondsquares.svg	stimuli_distractor_diamondtriangles.svg	24	yes	44	1	785	0	0			0	0			1				0	
6.6.1	and	2023-07-14	07:36:48	07:48:01	650757	5b87cdc34dc3210001904196	3	1	main_z	11	advance_on_keypress_ZEE	34	stimuli_target_diamondsquares.svg	stimuli_distractor_diamondtriangles.svg	24	yes	57	0	337	0	0			0	0			1				0	
6.6.1	and	2023-07-14	07:36:48	07:48:03	652586	5b87cdc34dc3210001904196	3	1	main_z	11	main_z	35	stimuli_target_squaretriangles.svg	stimuli_distractor_trianglediamonds.svg	3	yes	44	1	865	0	0			0	0			1				0	
6.6.1	and	2023-07-14	07:36:48	07:48:03	652586	5b87cdc34dc3210001904196	3	1	main_z	11	advance_on_keypress_ZEE	36	stimuli_target_squaretriangles.svg	stimuli_distractor_trianglediamonds.svg	3	yes	57	0	222	0	0			0	0			1				0	
6.6.1	and	2023-07-14	07:36:48	07:48:06	655143	5b87cdc34dc3210001904196	3	1	main_z	11	main_z	37	stimuli_target_trianglesquares.svg	stimuli_distractor_trianglediamonds.svg	18	yes	44	1	1707	0	0			0	0			1				0	
6.6.1	and	2023-07-14	07:36:48	07:48:06	655143	5b87cdc34dc3210001904196	3	1	main_z	11	advance_on_keypress_ZEE	38	stimuli_target_trianglesquares.svg	stimuli_distractor_trianglediamonds.svg	18	yes	57	0	643	0	0			0	0			1				0	
6.6.1	and	2023-07-14	07:36:48	07:48:09	658416	5b87cdc34dc3210001904196	3	1	main_z	11	main_z	39	stimuli_distractor_trianglediamonds.svg	stimuli_distractor_diamondtriangles.svg	35	no	0	1	2000	0	0			0	0			1				0	
6.6.1	and	2023-07-14	07:36:48	07:48:09	658416	5b87cdc34dc3210001904196	3	1	main_z	11	advance_on_keypress_ZEE	40	stimuli_distractor_trianglediamonds.svg	stimuli_distractor_diamondtriangles.svg	35	no	57	0	1083	0	0			0	0			1				0	
6.6.1	and	2023-07-14	07:36:48	07:48:12	661044	5b87cdc34dc3210001904196	3	1	main_z	11	main_z	41	stimuli_distractor_diamondtriangles.svg	stimuli_target_diamondrectangles.svg	31	yes	44	1	914	0	0			0	0			1				0	
6.6.1	and	2023-07-14	07:36:48	07:48:12	661044	5b87cdc34dc3210001904196	3	1	main_z	11	advance_on_keypress_ZEE	42	stimuli_distractor_diamondtriangles.svg	stimuli_target_diamondrectangles.svg	31	yes	57	0	366	0	0			0	0			1				0	
6.6.1	and	2023-07-14	07:36:48	07:48:14	663033	5b87cdc34dc3210001904196	3	1	main_z	11	main_z	43	stimuli_distractor_diamondtriangles.svg	stimuli_target_diamondsquares.svg	32	yes	44	1	989	0	0			0	0			1				0	
6.6.1	and	2023-07-14	07:36:48	07:48:14	663033	5b87cdc34dc3210001904196	3	1	main_z	11	advance_on_keypress_ZEE	44	stimuli_distractor_diamondtriangles.svg	stimuli_target_diamondsquares.svg	32	yes	57	0	398	0	0			0	0			1				0	
6.6.1	and	2023-07-14	07:36:48	07:48:16	664966	5b87cdc34dc3210001904196	3	1	main_z	11	main_z	45	stimuli_target_diamondsquares.svg	stimuli_distractor_trianglediamonds.svg	20	yes	44	1	906	0	0			0	0			1				0	
6.6.1	and	2023-07-14	07:36:48	07:48:16	664966	5b87cdc34dc3210001904196	3	1	main_z	11	advance_on_keypress_ZEE	46	stimuli_target_diamondsquares.svg	stimuli_distractor_trianglediamonds.svg	20	yes	57	0	362	0	0			0	0			1				0	
6.6.1	and	2023-07-14	07:36:48	07:48:19	667958	5b87cdc34dc3210001904196	3	1	main_z	11	main_z	47	stimuli_distractor_trianglediamonds.svg	stimuli_distractor_trianglediamonds.svg	34	no	0	1	2000	0	0			0	0			1				0	
6.6.1	and	2023-07-14	07:36:48	07:48:19	667958	5b87cdc34dc3210001904196	3	1	main_z	11	advance_on_keypress_ZEE	48	stimuli_distractor_trianglediamonds.svg	stimuli_distractor_trianglediamonds.svg	34	no	57	0	906	0	0			0	0			1				0	
6.6.1	and	2023-07-14	07:36:48	07:48:21	670413	5b87cdc34dc3210001904196	3	1	main_z	11	main_z	49	stimuli_target_diamondrectangles.svg	stimuli_distractor_diamondtriangles.svg	23	yes	44	1	925	0	0			0	0			1				0	
6.6.1	and	2023-07-14	07:36:48	07:48:21	670413	5b87cdc34dc3210001904196	3	1	main_z	11	advance_on_keypress_ZEE	50	stimuli_target_diamondrectangles.svg	stimuli_distractor_diamondtriangles.svg	23	yes	57	0	407	0	0			0	0			1				0	
6.6.1	and	2023-07-14	07:36:48	07:48:24	673436	5b87cdc34dc3210001904196	3	1	main_z	11	main_z	51	stimuli_distractor_diamondtriangles.svg	stimuli_distractor_trianglediamonds.svg	38	no	0	1	2000	0	0			0	0			1				0	
6.6.1	and	2023-07-14	07:36:48	07:48:24	673436	5b87cdc34dc3210001904196	3	1	main_z	11	advance_on_keypress_ZEE	52	stimuli_distractor_diamondtriangles.svg	stimuli_distractor_trianglediamonds.svg	38	no	57	0	1053	0	0			0	0			1				0	
6.6.1	and	2023-07-14	07:36:48	07:48:27	676060	5b87cdc34dc3210001904196	3	1	main_z	11	main_z	53	stimuli_target_rectangletriangles.svg	stimuli_distractor_diamondtriangles.svg	5	yes	44	1	943	0	0			0	0			1				0	
6.6.1	and	2023-07-14	07:36:48	07:48:27	676060	5b87cdc34dc3210001904196	3	1	main_z	11	advance_on_keypress_ZEE	54	stimuli_target_rectangletriangles.svg	stimuli_distractor_diamondtriangles.svg	5	yes	57	0	456	0	0			0	0			1				0	
6.6.1	and	2023-07-14	07:36:48	07:48:29	678088	5b87cdc34dc3210001904196	3	1	main_z	11	main_z	55	stimuli_target_diamondrectangles.svg	stimuli_distractor_trianglediamonds.svg	19	yes	44	1	940	0	0			0	0			1				0	
6.6.1	and	2023-07-14	07:36:48	07:48:29	678088	5b87cdc34dc3210001904196	3	1	main_z	11	advance_on_keypress_ZEE	56	stimuli_target_diamondrectangles.svg	stimuli_distractor_trianglediamonds.svg	19	yes	57	0	383	0	0			0	0			1				0	
6.6.1	and	2023-07-14	07:36:48	07:48:31	679983	5b87cdc34dc3210001904196	3	1	main_z	11	main_z	57	stimuli_distractor_trianglediamonds.svg	stimuli_target_trianglesquares.svg	26	yes	44	1	886	0	0			0	0			1				0	
6.6.1	and	2023-07-14	07:36:48	07:48:31	679983	5b87cdc34dc3210001904196	3	1	main_z	11	advance_on_keypress_ZEE	58	stimuli_distractor_trianglediamonds.svg	stimuli_target_trianglesquares.svg	26	yes	57	0	311	0	0			0	0			1				0	
6.6.1	and	2023-07-14	07:36:48	07:48:33	681862	5b87cdc34dc3210001904196	3	1	main_z	11	main_z	59	stimuli_distractor_diamondtriangles.svg	stimuli_target_squarediamonds.svg	16	yes	44	1	934	0	0			0	0			1				0	
6.6.1	and	2023-07-14	07:36:48	07:48:33	681862	5b87cdc34dc3210001904196	3	1	main_z	11	advance_on_keypress_ZEE	60	stimuli_distractor_diamondtriangles.svg	stimuli_target_squarediamonds.svg	16	yes	57	0	387	0	0			0	0			1				0	
6.6.1	and	2023-07-14	07:36:48	07:48:35	683844	5b87cdc34dc3210001904196	3	1	main_z	11	main_z	61	stimuli_distractor_diamondtriangles.svg	stimuli_target_trianglesquares.svg	30	yes	44	1	967	0	0			0	0			1				0	
6.6.1	and	2023-07-14	07:36:48	07:48:35	683844	5b87cdc34dc3210001904196	3	1	main_z	11	advance_on_keypress_ZEE	62	stimuli_distractor_diamondtriangles.svg	stimuli_target_trianglesquares.svg	30	yes	57	0	328	0	0			0	0			1				0	
6.6.1	and	2023-07-14	07:36:48	07:48:38	686808	5b87cdc34dc3210001904196	3	1	main_z	11	main_z	63	stimuli_distractor_diamondtriangles.svg	stimuli_distractor_diamondtriangles.svg	39	no	0	1	2000	0	0			0	0			1				0	
6.6.1	and	2023-07-14	07:36:48	07:48:38	686808	5b87cdc34dc3210001904196	3	1	main_z	11	advance_on_keypress_ZEE	64	stimuli_distractor_diamondtriangles.svg	stimuli_distractor_diamondtriangles.svg	39	no	57	0	939	0	0			0	0			1				0	
6.6.1	and	2023-07-14	07:36:48	07:48:40	689395	5b87cdc34dc3210001904196	3	1	main_z	11	main_z	65	stimuli_distractor_trianglediamonds.svg	stimuli_target_trianglerectangles.svg	25	yes	44	1	1024	0	0			0	0			1				0	
6.6.1	and	2023-07-14	07:36:48	07:48:40	689395	5b87cdc34dc3210001904196	3	1	main_z	11	advance_on_keypress_ZEE	66	stimuli_distractor_trianglediamonds.svg	stimuli_target_trianglerectangles.svg	25	yes	57	0	386	0	0			0	0			1				0	
6.6.1	and	2023-07-14	07:36:48	07:48:42	691272	5b87cdc34dc3210001904196	3	1	main_z	11	main_z	67	stimuli_target_squaretriangles.svg	stimuli_distractor_diamondtriangles.svg	7	yes	44	1	869	0	0			0	0			1				0	
6.6.1	and	2023-07-14	07:36:48	07:48:42	691272	5b87cdc34dc3210001904196	3	1	main_z	11	advance_on_keypress_ZEE	68	stimuli_target_squaretriangles.svg	stimuli_distractor_diamondtriangles.svg	7	yes	57	0	259	0	0			0	0			1				0	
6.6.1	and	2023-07-14	07:36:48	07:48:44	693420	5b87cdc34dc3210001904196	3	1	main_z	11	main_z	69	stimuli_distractor_diamondtriangles.svg	stimuli_target_trianglerectangles.svg	29	yes	44	1	1269	0	0			0	0			1				0	
6.6.1	and	2023-07-14	07:36:48	07:48:44	693420	5b87cdc34dc3210001904196	3	1	main_z	11	advance_on_keypress_ZEE	70	stimuli_distractor_diamondtriangles.svg	stimuli_target_trianglerectangles.svg	29	yes	57	0	255	0	0			0	0			1				0	
6.6.1	and	2023-07-14	07:36:48	07:48:46	695209	5b87cdc34dc3210001904196	3	1	main_z	11	main_z	71	stimuli_distractor_trianglediamonds.svg	stimuli_target_diamondsquares.svg	28	yes	44	1	910	0	0			0	0			1				0	
6.6.1	and	2023-07-14	07:36:48	07:48:46	695209	5b87cdc34dc3210001904196	3	1	main_z	11	advance_on_keypress_ZEE	72	stimuli_distractor_trianglediamonds.svg	stimuli_target_diamondsquares.svg	28	yes	57	0	326	0	0			0	0			1				0	
6.6.1	and	2023-07-14	07:36:48	07:48:48	697053	5b87cdc34dc3210001904196	3	1	main_z	11	main_z	73	stimuli_distractor_diamondtriangles.svg	stimuli_target_rectangletriangles.svg	13	yes	44	1	872	0	0			0	0			1				0	
6.6.1	and	2023-07-14	07:36:48	07:48:48	697053	5b87cdc34dc3210001904196	3	1	main_z	11	advance_on_keypress_ZEE	74	stimuli_distractor_diamondtriangles.svg	stimuli_target_rectangletriangles.svg	13	yes	57	0	282	0	0			0	0			1				0	
6.6.1	and	2023-07-14	07:36:48	07:48:50	698884	5b87cdc34dc3210001904196	3	1	main_z	11	main_z	75	stimuli_distractor_trianglediamonds.svg	stimuli_target_rectangletriangles.svg	9	yes	44	1	922	0	0			0	0			1				0	
6.6.1	and	2023-07-14	07:36:48	07:48:50	698884	5b87cdc34dc3210001904196	3	1	main_z	11	advance_on_keypress_ZEE	76	stimuli_distractor_trianglediamonds.svg	stimuli_target_rectangletriangles.svg	9	yes	57	0	324	0	0			0	0			1				0	
6.6.1	and	2023-07-14	07:36:48	07:48:53	701828	5b87cdc34dc3210001904196	3	1	main_z	11	main_z	77	stimuli_distractor_trianglediamonds.svg	stimuli_distractor_diamondtriangles.svg	36	no	0	1	2000	0	0			0	0			1				0	
6.6.1	and	2023-07-14	07:36:48	07:48:53	701828	5b87cdc34dc3210001904196	3	1	main_z	11	advance_on_keypress_ZEE	78	stimuli_distractor_trianglediamonds.svg	stimuli_distractor_diamondtriangles.svg	36	no	57	0	667	0	0			0	0			1				0	
6.6.1	and	2023-07-14	07:36:48	07:48:55	704019	5b87cdc34dc3210001904196	3	1	main_z	11	main_z	79	stimuli_distractor_trianglediamonds.svg	stimuli_target_squarediamonds.svg	12	yes	44	1	894	0	0			0	0			1				0	
6.6.1	and	2023-07-14	07:36:48	07:48:55	704019	5b87cdc34dc3210001904196	3	1	main_z	11	advance_on_keypress_ZEE	80	stimuli_distractor_trianglediamonds.svg	stimuli_target_squarediamonds.svg	12	yes	57	0	245	0	0			0	0			1				0	
6.6.1	and	2023-07-14	07:36:48	07:48:56	705703	5b87cdc34dc3210001904196	3	1	main_z	11	main_z	81	stimuli_distractor_diamondtriangles.svg	stimuli_target_squaretriangles.svg	15	yes	44	1	797	0	0			0	0			1				0	
6.6.1	and	2023-07-14	07:36:48	07:48:56	705703	5b87cdc34dc3210001904196	3	1	main_z	11	advance_on_keypress_ZEE	82	stimuli_distractor_diamondtriangles.svg	stimuli_target_squaretriangles.svg	15	yes	57	0	300	0	0			0	0			1				0	
6.6.1	and	2023-07-14	07:36:48	07:48:58	707357	5b87cdc34dc3210001904196	3	1	main_z	11	main_z	83	stimuli_target_rectangletriangles.svg	stimuli_distractor_trianglediamonds.svg	1	yes	44	1	718	0	0			0	0			1				0	
6.6.1	and	2023-07-14	07:36:48	07:48:58	707357	5b87cdc34dc3210001904196	3	1	main_z	11	advance_on_keypress_ZEE	84	stimuli_target_rectangletriangles.svg	stimuli_distractor_trianglediamonds.svg	1	yes	57	0	298	0	0			0	0			1				0	
6.6.1	and	2023-07-14	07:36:48	07:49:00	709099	5b87cdc34dc3210001904196	3	1	main_z	11	main_z	85	stimuli_target_rectangletriangles.svg	stimuli_distractor_diamondtriangles.svg	5	yes	44	1	811	0	0			0	0			1				0	
6.6.1	and	2023-07-14	07:36:48	07:49:00	709099	5b87cdc34dc3210001904196	3	1	main_z	11	advance_on_keypress_ZEE	86	stimuli_target_rectangletriangles.svg	stimuli_distractor_diamondtriangles.svg	5	yes	57	0	276	0	0			0	0			1				0	
6.6.1	and	2023-07-14	07:36:48	07:49:03	712002	5b87cdc34dc3210001904196	3	1	main_z	11	main_z	87	stimuli_target_squaretriangles.svg	stimuli_distractor_diamondtriangles.svg	7	yes	0	0	2000	0	0			0	0			1				0	
6.6.1	and	2023-07-14	07:36:48	07:49:03	712002	5b87cdc34dc3210001904196	3	1	main_z	11	advance_on_keypress_ZEE	88	stimuli_target_squaretriangles.svg	stimuli_distractor_diamondtriangles.svg	7	yes	57	0	1931	0	0			0	0			1				0	
6.6.1	and	2023-07-14	07:36:48	07:49:06	715278	5b87cdc34dc3210001904196	3	1	main_z	11	main_z	89	stimuli_target_rectanglediamonds.svg	stimuli_distractor_trianglediamonds.svg	2	yes	44	1	712	0	0			0	0			1				0	
6.6.1	and	2023-07-14	07:36:48	07:49:06	715278	5b87cdc34dc3210001904196	3	1	main_z	11	advance_on_keypress_ZEE	90	stimuli_target_rectanglediamonds.svg	stimuli_distractor_trianglediamonds.svg	2	yes	57	0	327	0	0			0	0			1				0	
6.6.1	and	2023-07-14	07:36:48	07:49:08	717156	5b87cdc34dc3210001904196	3	1	main_z	11	main_z	91	stimuli_distractor_diamondtriangles.svg	stimuli_target_rectanglediamonds.svg	14	yes	44	1	910	0	0			0	0			1				0	
6.6.1	and	2023-07-14	07:36:48	07:49:08	717156	5b87cdc34dc3210001904196	3	1	main_z	11	advance_on_keypress_ZEE	92	stimuli_distractor_diamondtriangles.svg	stimuli_target_rectanglediamonds.svg	14	yes	57	0	303	0	0			0	0			1				0	
6.6.1	and	2023-07-14	07:36:48	07:49:10	718926	5b87cdc34dc3210001904196	3	1	main_z	11	main_z	93	stimuli_distractor_diamondtriangles.svg	stimuli_target_squarediamonds.svg	16	yes	44	1	831	0	0			0	0			1				0	
6.6.1	and	2023-07-14	07:36:48	07:49:10	718926	5b87cdc34dc3210001904196	3	1	main_z	11	advance_on_keypress_ZEE	94	stimuli_distractor_diamondtriangles.svg	stimuli_target_squarediamonds.svg	16	yes	57	0	323	0	0			0	0			1				0	
6.6.1	and	2023-07-14	07:36:48	07:49:12	720781	5b87cdc34dc3210001904196	3	1	main_z	11	main_z	95	stimuli_distractor_diamondtriangles.svg	stimuli_target_diamondrectangles.svg	31	yes	44	1	904	0	0			0	0			1				0	
6.6.1	and	2023-07-14	07:36:48	07:49:12	720781	5b87cdc34dc3210001904196	3	1	main_z	11	advance_on_keypress_ZEE	96	stimuli_distractor_diamondtriangles.svg	stimuli_target_diamondrectangles.svg	31	yes	57	0	288	0	0			0	0			1				0	
6.6.1	and	2023-07-14	07:36:48	07:49:14	723692	5b87cdc34dc3210001904196	3	1	main_z	11	main_z	97	stimuli_distractor_trianglediamonds.svg	stimuli_distractor_trianglediamonds.svg	33	no	0	1	2000	0	0			0	0			1				0	
6.6.1	and	2023-07-14	07:36:48	07:49:14	723692	5b87cdc34dc3210001904196	3	1	main_z	11	advance_on_keypress_ZEE	98	stimuli_distractor_trianglediamonds.svg	stimuli_distractor_trianglediamonds.svg	33	no	57	0	2304	0	0			0	0			1				0	
6.6.1	and	2023-07-14	07:36:48	07:49:18	727523	5b87cdc34dc3210001904196	3	1	main_z	11	main_z	99	stimuli_distractor_trianglediamonds.svg	stimuli_target_trianglerectangles.svg	25	yes	44	1	902	0	0			0	0			1				0	
6.6.1	and	2023-07-14	07:36:48	07:49:18	727523	5b87cdc34dc3210001904196	3	1	main_z	11	advance_on_keypress_ZEE	100	stimuli_distractor_trianglediamonds.svg	stimuli_target_trianglerectangles.svg	25	yes	57	0	298	0	0			0	0			1				0	
6.6.1	and	2023-07-14	07:36:48	07:49:21	730453	5b87cdc34dc3210001904196	3	1	main_z	11	main_z	101	stimuli_distractor_trianglediamonds.svg	stimuli_distractor_diamondtriangles.svg	36	no	0	1	2000	0	0			0	0			1				0	
6.6.1	and	2023-07-14	07:36:48	07:49:21	730453	5b87cdc34dc3210001904196	3	1	main_z	11	advance_on_keypress_ZEE	102	stimuli_distractor_trianglediamonds.svg	stimuli_distractor_diamondtriangles.svg	36	no	57	0	601	0	0			0	0			1				0	
6.6.1	and	2023-07-14	07:36:48	07:49:23	732592	5b87cdc34dc3210001904196	3	1	main_z	11	main_z	103	stimuli_distractor_trianglediamonds.svg	stimuli_target_squarediamonds.svg	12	yes	44	1	909	0	0			0	0			1				0	
6.6.1	and	2023-07-14	07:36:48	07:49:23	732592	5b87cdc34dc3210001904196	3	1	main_z	11	advance_on_keypress_ZEE	104	stimuli_distractor_trianglediamonds.svg	stimuli_target_squarediamonds.svg	12	yes	57	0	284	0	0			0	0			1				0	
6.6.1	and	2023-07-14	07:36:48	07:49:26	735515	5b87cdc34dc3210001904196	3	1	main_z	11	main_z	105	stimuli_target_diamondrectangles.svg	stimuli_distractor_diamondtriangles.svg	23	yes	0	0	2000	0	0			0	0			1				0	
6.6.1	and	2023-07-14	07:36:48	07:49:26	735515	5b87cdc34dc3210001904196	3	1	main_z	11	advance_on_keypress_ZEE	106	stimuli_target_diamondrectangles.svg	stimuli_distractor_diamondtriangles.svg	23	yes	57	0	474	0	0			0	0			1				0	
6.6.1	and	2023-07-14	07:36:48	07:49:28	737569	5b87cdc34dc3210001904196	3	1	main_z	11	main_z	107	stimuli_target_trianglesquares.svg	stimuli_distractor_trianglediamonds.svg	18	yes	44	1	956	0	0			0	0			1				0	
6.6.1	and	2023-07-14	07:36:48	07:49:28	737569	5b87cdc34dc3210001904196	3	1	main_z	11	advance_on_keypress_ZEE	108	stimuli_target_trianglesquares.svg	stimuli_distractor_trianglediamonds.svg	18	yes	57	0	318	0	0			0	0			1				0	
6.6.1	and	2023-07-14	07:36:48	07:49:30	739679	5b87cdc34dc3210001904196	3	1	main_z	11	main_z	109	stimuli_target_squarediamonds.svg	stimuli_distractor_trianglediamonds.svg	4	yes	44	1	1169	0	0			0	0			1				0	
6.6.1	and	2023-07-14	07:36:48	07:49:30	739679	5b87cdc34dc3210001904196	3	1	main_z	11	advance_on_keypress_ZEE	110	stimuli_target_squarediamonds.svg	stimuli_distractor_trianglediamonds.svg	4	yes	57	0	349	0	0			0	0			1				0	
6.6.1	and	2023-07-14	07:36:48	07:49:32	741615	5b87cdc34dc3210001904196	3	1	main_z	11	main_z	111	stimuli_target_trianglerectangles.svg	stimuli_distractor_diamondtriangles.svg	21	yes	44	1	956	0	0			0	0			1				0	
6.6.1	and	2023-07-14	07:36:48	07:49:32	741615	5b87cdc34dc3210001904196	3	1	main_z	11	advance_on_keypress_ZEE	112	stimuli_target_trianglerectangles.svg	stimuli_distractor_diamondtriangles.svg	21	yes	57	0	261	0	0			0	0			1				0	
6.6.1	and	2023-07-14	07:36:48	07:49:35	744507	5b87cdc34dc3210001904196	3	1	main_z	11	main_z	113	stimuli_distractor_diamondtriangles.svg	stimuli_distractor_diamondtriangles.svg	40	no	0	1	2000	0	0			0	0			1				0	
6.6.1	and	2023-07-14	07:36:48	07:49:35	744507	5b87cdc34dc3210001904196	3	1	main_z	11	advance_on_keypress_ZEE	114	stimuli_distractor_diamondtriangles.svg	stimuli_distractor_diamondtriangles.svg	40	no	57	0	351	0	0			0	0			1				0	
6.6.1	and	2023-07-14	07:36:48	07:49:37	746295	5b87cdc34dc3210001904196	3	1	main_z	11	main_z	115	stimuli_distractor_diamondtriangles.svg	stimuli_target_rectangletriangles.svg	13	yes	44	1	808	0	0			0	0			1				0	
6.6.1	and	2023-07-14	07:36:48	07:49:37	746295	5b87cdc34dc3210001904196	3	1	main_z	11	advance_on_keypress_ZEE	116	stimuli_distractor_diamondtriangles.svg	stimuli_target_rectangletriangles.svg	13	yes	57	0	321	0	0			0	0			1				0	
6.6.1	and	2023-07-14	07:36:48	07:49:40	749236	5b87cdc34dc3210001904196	3	1	main_z	11	main_z	117	stimuli_distractor_diamondtriangles.svg	stimuli_distractor_trianglediamonds.svg	37	no	0	1	2000	0	0			0	0			1				0	
6.6.1	and	2023-07-14	07:36:48	07:49:40	749236	5b87cdc34dc3210001904196	3	1	main_z	11	advance_on_keypress_ZEE	118	stimuli_distractor_diamondtriangles.svg	stimuli_distractor_trianglediamonds.svg	37	no	57	0	522	0	0			0	0			1				0	
6.6.1	and	2023-07-14	07:36:48	07:49:42	751208	5b87cdc34dc3210001904196	3	1	main_z	11	main_z	119	stimuli_target_diamondsquares.svg	stimuli_distractor_diamondtriangles.svg	24	yes	44	1	825	0	0			0	0			1				0	
6.6.1	and	2023-07-14	07:36:48	07:49:42	751208	5b87cdc34dc3210001904196	3	1	main_z	11	advance_on_keypress_ZEE	120	stimuli_target_diamondsquares.svg	stimuli_distractor_diamondtriangles.svg	24	yes	57	0	285	0	0			0	0			1				0	
6.6.1	and	2023-07-14	07:36:48	07:49:44	753001	5b87cdc34dc3210001904196	3	1	main_z	11	main_z	121	stimuli_target_trianglerectangles.svg	stimuli_distractor_trianglediamonds.svg	17	yes	44	1	885	0	0			0	0			1				0	
6.6.1	and	2023-07-14	07:36:48	07:49:44	753001	5b87cdc34dc3210001904196	3	1	main_z	11	advance_on_keypress_ZEE	122	stimuli_target_trianglerectangles.svg	stimuli_distractor_trianglediamonds.svg	17	yes	57	0	330	0	0			0	0			1				0	
6.6.1	and	2023-07-14	07:36:48	07:49:46	754884	5b87cdc34dc3210001904196	3	1	main_z	11	main_z	123	stimuli_distractor_trianglediamonds.svg	stimuli_target_rectangletriangles.svg	9	yes	44	1	920	0	0			0	0			1				0	
6.6.1	and	2023-07-14	07:36:48	07:49:46	754884	5b87cdc34dc3210001904196	3	1	main_z	11	advance_on_keypress_ZEE	124	stimuli_distractor_trianglediamonds.svg	stimuli_target_rectangletriangles.svg	9	yes	57	0	257	0	0			0	0			1				0	
6.6.1	and	2023-07-14	07:36:48	07:49:47	756641	5b87cdc34dc3210001904196	3	1	main_z	11	main_z	125	stimuli_distractor_diamondtriangles.svg	stimuli_target_diamondsquares.svg	32	yes	44	1	879	0	0			0	0			1				0	
6.6.1	and	2023-07-14	07:36:48	07:49:47	756641	5b87cdc34dc3210001904196	3	1	main_z	11	advance_on_keypress_ZEE	126	stimuli_distractor_diamondtriangles.svg	stimuli_target_diamondsquares.svg	32	yes	57	0	276	0	0			0	0			1				0	
6.6.1	and	2023-07-14	07:36:48	07:49:50	759544	5b87cdc34dc3210001904196	3	1	main_z	11	main_z	127	stimuli_distractor_diamondtriangles.svg	stimuli_distractor_trianglediamonds.svg	38	no	0	1	2000	0	0			0	0			1				0	
6.6.1	and	2023-07-14	07:36:48	07:49:50	759544	5b87cdc34dc3210001904196	3	1	main_z	11	advance_on_keypress_ZEE	128	stimuli_distractor_diamondtriangles.svg	stimuli_distractor_trianglediamonds.svg	38	no	57	0	548	0	0			0	0			1				0	
6.6.1	and	2023-07-14	07:36:48	07:49:52	761628	5b87cdc34dc3210001904196	3	1	main_z	11	main_z	129	stimuli_target_rectanglediamonds.svg	stimuli_distractor_diamondtriangles.svg	6	yes	44	1	903	0	0			0	0			1				0	
6.6.1	and	2023-07-14	07:36:48	07:49:52	761628	5b87cdc34dc3210001904196	3	1	main_z	11	advance_on_keypress_ZEE	130	stimuli_target_rectanglediamonds.svg	stimuli_distractor_diamondtriangles.svg	6	yes	57	0	264	0	0			0	0			1				0	
6.6.1	and	2023-07-14	07:36:48	07:49:54	763554	5b87cdc34dc3210001904196	3	1	main_z	11	main_z	131	stimuli_target_squaretriangles.svg	stimuli_distractor_trianglediamonds.svg	3	yes	44	1	1031	0	0			0	0			1				0	
6.6.1	and	2023-07-14	07:36:48	07:49:54	763554	5b87cdc34dc3210001904196	3	1	main_z	11	advance_on_keypress_ZEE	132	stimuli_target_squaretriangles.svg	stimuli_distractor_trianglediamonds.svg	3	yes	57	0	337	0	0			0	0			1				0	
6.6.1	and	2023-07-14	07:36:48	07:49:56	765478	5b87cdc34dc3210001904196	3	1	main_z	11	main_z	133	stimuli_distractor_trianglediamonds.svg	stimuli_target_squaretriangles.svg	11	yes	44	1	958	0	0			0	0			1				0	
6.6.1	and	2023-07-14	07:36:48	07:49:56	765478	5b87cdc34dc3210001904196	3	1	main_z	11	advance_on_keypress_ZEE	134	stimuli_distractor_trianglediamonds.svg	stimuli_target_squaretriangles.svg	11	yes	57	0	322	0	0			0	0			1				0	
6.6.1	and	2023-07-14	07:36:48	07:49:58	767370	5b87cdc34dc3210001904196	3	1	main_z	11	main_z	135	stimuli_target_diamondsquares.svg	stimuli_distractor_trianglediamonds.svg	20	yes	44	1	950	0	0			0	0			1				0	
6.6.1	and	2023-07-14	07:36:48	07:49:58	767370	5b87cdc34dc3210001904196	3	1	main_z	11	advance_on_keypress_ZEE	136	stimuli_target_diamondsquares.svg	stimuli_distractor_trianglediamonds.svg	20	yes	57	0	269	0	0			0	0			1				0	
6.6.1	and	2023-07-14	07:36:48	07:50:00	769098	5b87cdc34dc3210001904196	3	1	main_z	11	main_z	137	stimuli_distractor_trianglediamonds.svg	stimuli_target_rectanglediamonds.svg	10	yes	44	1	831	0	0			0	0			1				0	
6.6.1	and	2023-07-14	07:36:48	07:50:00	769098	5b87cdc34dc3210001904196	3	1	main_z	11	advance_on_keypress_ZEE	138	stimuli_distractor_trianglediamonds.svg	stimuli_target_rectanglediamonds.svg	10	yes	57	0	336	0	0			0	0			1				0	
6.6.1	and	2023-07-14	07:36:48	07:50:02	771440	5b87cdc34dc3210001904196	3	1	main_z	11	main_z	139	stimuli_distractor_trianglediamonds.svg	stimuli_target_trianglesquares.svg	26	yes	44	1	1375	0	0			0	0			1				0	
6.6.1	and	2023-07-14	07:36:48	07:50:02	771440	5b87cdc34dc3210001904196	3	1	main_z	11	advance_on_keypress_ZEE	140	stimuli_distractor_trianglediamonds.svg	stimuli_target_trianglesquares.svg	26	yes	57	0	1462	0	0			0	0			1				0	
6.6.1	and	2023-07-14	07:36:48	07:50:05	774515	5b87cdc34dc3210001904196	3	1	main_z	11	main_z	141	stimuli_target_squarediamonds.svg	stimuli_distractor_diamondtriangles.svg	8	yes	44	1	986	0	0			0	0			1				0	
6.6.1	and	2023-07-14	07:36:48	07:50:05	774515	5b87cdc34dc3210001904196	3	1	main_z	11	advance_on_keypress_ZEE	142	stimuli_target_squarediamonds.svg	stimuli_distractor_diamondtriangles.svg	8	yes	57	0	364	0	0			0	0			1				0	
6.6.1	and	2023-07-14	07:36:48	07:50:07	776428	5b87cdc34dc3210001904196	3	1	main_z	11	main_z	143	stimuli_distractor_trianglediamonds.svg	stimuli_target_diamondrectangles.svg	27	yes	44	1	916	0	0			0	0			1				0	
6.6.1	and	2023-07-14	07:36:48	07:50:07	776428	5b87cdc34dc3210001904196	3	1	main_z	11	advance_on_keypress_ZEE	144	stimuli_distractor_trianglediamonds.svg	stimuli_target_diamondrectangles.svg	27	yes	57	0	539	0	0			0	0			1				0	
6.6.1	and	2023-07-14	07:36:48	07:50:09	778562	5b87cdc34dc3210001904196	3	1	main_z	11	main_z	145	stimuli_target_trianglesquares.svg	stimuli_distractor_diamondtriangles.svg	22	yes	44	1	968	0	0			0	0			1				0	
6.6.1	and	2023-07-14	07:36:48	07:50:09	778562	5b87cdc34dc3210001904196	3	1	main_z	11	advance_on_keypress_ZEE	146	stimuli_target_trianglesquares.svg	stimuli_distractor_diamondtriangles.svg	22	yes	57	0	352	0	0			0	0			1				0	
6.6.1	and	2023-07-14	07:36:48	07:50:12	781540	5b87cdc34dc3210001904196	3	1	main_z	11	main_z	147	stimuli_distractor_trianglediamonds.svg	stimuli_distractor_trianglediamonds.svg	34	no	0	1	2000	0	0			0	0			1				0	
6.6.1	and	2023-07-14	07:36:48	07:50:12	781540	5b87cdc34dc3210001904196	3	1	main_z	11	advance_on_keypress_ZEE	148	stimuli_distractor_trianglediamonds.svg	stimuli_distractor_trianglediamonds.svg	34	no	57	0	7109	0	0			0	0			1				0	
6.6.1	and	2023-07-14	07:36:48	07:50:22	791282	5b87cdc34dc3210001904196	3	1	main_z	11	main_z	149	stimuli_distractor_trianglediamonds.svg	stimuli_distractor_diamondtriangles.svg	35	no	0	1	2000	0	0			0	0			1				0	
6.6.1	and	2023-07-14	07:36:48	07:50:22	791282	5b87cdc34dc3210001904196	3	1	main_z	11	advance_on_keypress_ZEE	150	stimuli_distractor_trianglediamonds.svg	stimuli_distractor_diamondtriangles.svg	35	no	57	0	824	0	0			0	0			1				0	
6.6.1	and	2023-07-14	07:36:48	07:50:24	793431	5b87cdc34dc3210001904196	3	1	main_z	11	main_z	151	stimuli_target_diamondrectangles.svg	stimuli_distractor_trianglediamonds.svg	19	yes	44	1	702	0	0			0	0			1				0	
6.6.1	and	2023-07-14	07:36:48	07:50:24	793431	5b87cdc34dc3210001904196	3	1	main_z	11	advance_on_keypress_ZEE	152	stimuli_target_diamondrectangles.svg	stimuli_distractor_trianglediamonds.svg	19	yes	57	0	401	0	0			0	0			1				0	
6.6.1	and	2023-07-14	07:36:48	07:50:27	796461	5b87cdc34dc3210001904196	3	1	main_z	11	main_z	153	stimuli_distractor_diamondtriangles.svg	stimuli_distractor_diamondtriangles.svg	39	no	0	1	2000	0	0			0	0			1				0	
6.6.1	and	2023-07-14	07:36:48	07:50:27	796461	5b87cdc34dc3210001904196	3	1	main_z	11	advance_on_keypress_ZEE	154	stimuli_distractor_diamondtriangles.svg	stimuli_distractor_diamondtriangles.svg	39	no	57	0	547	0	0			0	0			1				0	
6.6.1	and	2023-07-14	07:36:48	07:50:29	798468	5b87cdc34dc3210001904196	3	1	main_z	11	main_z	155	stimuli_distractor_trianglediamonds.svg	stimuli_target_diamondsquares.svg	28	yes	44	1	826	0	0			0	0			1				0	
6.6.1	and	2023-07-14	07:36:48	07:50:29	798468	5b87cdc34dc3210001904196	3	1	main_z	11	advance_on_keypress_ZEE	156	stimuli_distractor_trianglediamonds.svg	stimuli_target_diamondsquares.svg	28	yes	57	0	350	0	0			0	0			1				0	
6.6.1	and	2023-07-14	07:36:48	07:50:31	800290	5b87cdc34dc3210001904196	3	1	main_z	11	main_z	157	stimuli_distractor_diamondtriangles.svg	stimuli_target_trianglerectangles.svg	29	yes	44	1	834	0	0			0	0			1				0	
6.6.1	and	2023-07-14	07:36:48	07:50:31	800290	5b87cdc34dc3210001904196	3	1	main_z	11	advance_on_keypress_ZEE	158	stimuli_distractor_diamondtriangles.svg	stimuli_target_trianglerectangles.svg	29	yes	57	0	350	0	0			0	0			1				0	
6.6.1	and	2023-07-14	07:36:48	07:50:33	802201	5b87cdc34dc3210001904196	3	1	main_z	11	main_z	159	stimuli_distractor_diamondtriangles.svg	stimuli_target_trianglesquares.svg	30	yes	44	1	929	0	0			0	0			1				0	
6.6.1	and	2023-07-14	07:36:48	07:50:33	802201	5b87cdc34dc3210001904196	3	1	main_z	11	advance_on_keypress_ZEE	160	stimuli_distractor_diamondtriangles.svg	stimuli_target_trianglesquares.svg	30	yes	57	0	353	0	0			0	0			1				0	
6.6.1	and	2023-07-14	07:36:48	07:50:33	802201	5b87cdc34dc3210001904196	3	1	headphonecheck_calibration	14	headphonecheck_calibrationIntro	1	stimuli_distractor_diamondtriangles.svg	stimuli_target_trianglesquares.svg	30	yes	calibrationButton	0	4591	0	0			0	0			1				0	
6.6.1	and	2023-07-14	07:36:48	07:50:33	802201	5b87cdc34dc3210001904196	3	1	headphonecheck_testphase	15	test_collectResponse	3	stimuli_distractor_diamondtriangles.svg	stimuli_target_trianglesquares.svg	30	yes	second	1	670	1	1	antiphase_hc_iso.wav	2	0	0			1				0	
6.6.1	and	2023-07-14	07:36:48	07:50:33	802201	5b87cdc34dc3210001904196	3	1	headphonecheck_testphase	15	test_collectResponse	6	stimuli_distractor_diamondtriangles.svg	stimuli_target_trianglesquares.svg	30	yes	second	1	978	2	5	antiphase_hc_osi.wav	2	0	0			1				0	
6.6.1	and	2023-07-14	07:36:48	07:50:33	802201	5b87cdc34dc3210001904196	3	1	headphonecheck_testphase	15	test_collectResponse	9	stimuli_distractor_diamondtriangles.svg	stimuli_target_trianglesquares.svg	30	yes	third	1	632	3	2	antiphase_hc_ios.wav	3	0	0			1				0	
6.6.1	and	2023-07-14	07:36:48	07:50:33	802201	5b87cdc34dc3210001904196	3	1	headphonecheck_testphase	15	test_collectResponse	12	stimuli_distractor_diamondtriangles.svg	stimuli_target_trianglesquares.svg	30	yes	first	1	645	4	4	antiphase_hc_sio.wav	1	0	0			1				0	
6.6.1	and	2023-07-14	07:36:48	07:50:33	802201	5b87cdc34dc3210001904196	3	1	headphonecheck_testphase	15	test_collectResponse	15	stimuli_distractor_diamondtriangles.svg	stimuli_target_trianglesquares.svg	30	yes	third	0	2835	5	3	antiphase_hc_soi.wav	1	0	0			1				0	
6.6.1	and	2023-07-14	07:36:48	07:50:33	802201	5b87cdc34dc3210001904196	3	1	headphonecheck_testphase	15	test_collectResponse	18	stimuli_distractor_diamondtriangles.svg	stimuli_target_trianglesquares.svg	30	yes	third	1	585	6	6	antiphase_hc_ois.wav	3	0	0			1				0	
6.6.1	and	2023-07-14	07:36:48	07:50:33	802201	5b87cdc34dc3210001904196	3	1	stereocheck_calibration	17	stereocheck_calibrationIntro	1	stimuli_distractor_diamondtriangles.svg	stimuli_target_trianglesquares.svg	30	yes	stereocheck_calibrationButton	0	31039	6	6	antiphase_hc_ois.wav	3	0	0			1				0	
6.6.1	and	2023-07-14	07:36:48	07:50:33	802201	5b87cdc34dc3210001904196	3	1	stereocheck_testphase	18	stereocheck_test_collectResponse	3	stimuli_distractor_diamondtriangles.svg	stimuli_target_trianglesquares.svg	30	yes	stereocheck_right	1	2852	6	6	antiphase_hc_ois.wav	3	1	4	noise_calib_stim_RIGHT.wav	2	1				0	
6.6.1	and	2023-07-14	07:36:48	07:50:33	802201	5b87cdc34dc3210001904196	3	1	stereocheck_testphase	18	stereocheck_test_collectResponse	6	stimuli_distractor_diamondtriangles.svg	stimuli_target_trianglesquares.svg	30	yes	stereocheck_left	1	518	6	6	antiphase_hc_ois.wav	3	2	3	noise_calib_stim_LEFT.wav	1	1				0	
6.6.1	and	2023-07-14	07:36:48	07:50:33	802201	5b87cdc34dc3210001904196	3	1	stereocheck_testphase	18	stereocheck_test_collectResponse	9	stimuli_distractor_diamondtriangles.svg	stimuli_target_trianglesquares.svg	30	yes	stereocheck_right	1	521	6	6	antiphase_hc_ois.wav	3	3	6	noise_calib_stim_RIGHT.wav	2	1				0	
6.6.1	and	2023-07-14	07:36:48	07:50:33	802201	5b87cdc34dc3210001904196	3	1	stereocheck_testphase	18	stereocheck_test_collectResponse	12	stimuli_distractor_diamondtriangles.svg	stimuli_target_trianglesquares.svg	30	yes	stereocheck_right	1	534	6	6	antiphase_hc_ois.wav	3	4	5	noise_calib_stim_RIGHT.wav	2	1				0	
6.6.1	and	2023-07-14	07:36:48	07:50:33	802201	5b87cdc34dc3210001904196	3	1	stereocheck_testphase	18	stereocheck_test_collectResponse	15	stimuli_distractor_diamondtriangles.svg	stimuli_target_trianglesquares.svg	30	yes	stereocheck_left	1	420	6	6	antiphase_hc_ois.wav	3	5	1	noise_calib_stim_LEFT.wav	1	1				0	
6.6.1	and	2023-07-14	07:36:48	07:50:33	802201	5b87cdc34dc3210001904196	3	1	stereocheck_testphase	18	stereocheck_test_collectResponse	18	stimuli_distractor_diamondtriangles.svg	stimuli_target_trianglesquares.svg	30	yes	stereocheck_left	1	403	6	6	antiphase_hc_ois.wav	3	6	2	noise_calib_stim_LEFT.wav	1	1				0	
6.6.1	and	2023-07-14	07:36:48	07:50:33	802201	5b87cdc34dc3210001904196	3	1	DL_practice	21	DL_practice	2	stimuli_distractor_diamondtriangles.svg	stimuli_target_trianglesquares.svg	30	yes	ka	0	1825	6	6	antiphase_hc_ois.wav	3	6	2	noise_calib_stim_LEFT.wav	1	18	blb_dichoticlistening_ga-ta.mp3	ga	ta	1	other
6.6.1	and	2023-07-14	07:36:48	07:50:33	802201	5b87cdc34dc3210001904196	3	1	DL_practice	21	DL_practice	3	stimuli_distractor_diamondtriangles.svg	stimuli_target_trianglesquares.svg	30	yes	da	1	1419	6	6	antiphase_hc_ois.wav	3	6	2	noise_calib_stim_LEFT.wav	1	7	blb_dichoticlistening_da-ba.mp3	da	ba	1	left
6.6.1	and	2023-07-14	07:36:48	07:50:33	802201	5b87cdc34dc3210001904196	3	1	DL_practice	21	DL_practice	4	stimuli_distractor_diamondtriangles.svg	stimuli_target_trianglesquares.svg	30	yes	ga	1	1248	6	6	antiphase_hc_ois.wav	3	6	2	noise_calib_stim_LEFT.wav	1	15	blb_dichoticlistening_ga-ga.mp3	ga	ga	0	left
6.6.1	and	2023-07-14	07:36:48	07:50:33	802201	5b87cdc34dc3210001904196	3	1	DL_practice	21	DL_practice	5	stimuli_distractor_diamondtriangles.svg	stimuli_target_trianglesquares.svg	30	yes	ta	1	1524	6	6	antiphase_hc_ois.wav	3	6	2	noise_calib_stim_LEFT.wav	1	36	blb_dichoticlistening_ta-ta.mp3	ta	ta	0	left
6.6.1	and	2023-07-14	07:36:48	07:50:33	802201	5b87cdc34dc3210001904196	3	1	DL_practice	21	DL_practice	6	stimuli_distractor_diamondtriangles.svg	stimuli_target_trianglesquares.svg	30	yes	pa	1	1058	6	6	antiphase_hc_ois.wav	3	6	2	noise_calib_stim_LEFT.wav	1	29	blb_dichoticlistening_pa-pa.mp3	pa	pa	0	left
6.6.1	and	2023-07-14	07:36:48	07:50:33	802201	5b87cdc34dc3210001904196	3	1	DL_practice	21	DL_practice	7	stimuli_distractor_diamondtriangles.svg	stimuli_target_trianglesquares.svg	30	yes	ba	1	2786	6	6	antiphase_hc_ois.wav	3	6	2	noise_calib_stim_LEFT.wav	1	1	blb_dichoticlistening_ba-ba.mp3	ba	ba	0	left
6.6.1	and	2023-07-14	07:36:48	07:50:33	802201	5b87cdc34dc3210001904196	3	1	DL_practice	21	DL_practice	8	stimuli_distractor_diamondtriangles.svg	stimuli_target_trianglesquares.svg	30	yes	pa	1	1831	6	6	antiphase_hc_ois.wav	3	6	2	noise_calib_stim_LEFT.wav	1	23	blb_dichoticlistening_ka-pa.mp3	ka	pa	1	right
6.6.1	and	2023-07-14	07:36:48	07:50:33	802201	5b87cdc34dc3210001904196	3	1	DL_practice	21	DL_practice	9	stimuli_distractor_diamondtriangles.svg	stimuli_target_trianglesquares.svg	30	yes	da	1	1216	6	6	antiphase_hc_ois.wav	3	6	2	noise_calib_stim_LEFT.wav	1	8	blb_dichoticlistening_da-da.mp3	da	da	0	left
6.6.1	and	2023-07-14	07:36:48	07:50:33	802201	5b87cdc34dc3210001904196	3	1	DL_practice	21	DL_practice	10	stimuli_distractor_diamondtriangles.svg	stimuli_target_trianglesquares.svg	30	yes	ka	1	1275	6	6	antiphase_hc_ois.wav	3	6	2	noise_calib_stim_LEFT.wav	1	22	blb_dichoticlistening_ka-ka.mp3	ka	ka	0	left
6.6.1	and	2023-07-14	07:36:48	07:50:33	802201	5b87cdc34dc3210001904196	3	1	DL_test	23	DL_test	1	stimuli_distractor_diamondtriangles.svg	stimuli_target_trianglesquares.svg	30	yes	ga	1	1502	6	6	antiphase_hc_ois.wav	3	6	2	noise_calib_stim_LEFT.wav	1	3	blb_dichoticlistening_ba-ga.mp3	ba	ga	1	right
6.6.1	and	2023-07-14	07:36:48	07:50:33	802201	5b87cdc34dc3210001904196	3	1	DL_test	23	DL_test	2	stimuli_distractor_diamondtriangles.svg	stimuli_target_trianglesquares.svg	30	yes	ka	1	1176	6	6	antiphase_hc_ois.wav	3	6	2	noise_calib_stim_LEFT.wav	1	23	blb_dichoticlistening_ka-pa.mp3	ka	pa	1	left
6.6.1	and	2023-07-14	07:36:48	07:50:33	802201	5b87cdc34dc3210001904196	3	1	DL_test	23	DL_test	3	stimuli_distractor_diamondtriangles.svg	stimuli_target_trianglesquares.svg	30	yes	ta	1	1749	6	6	antiphase_hc_ois.wav	3	6	2	noise_calib_stim_LEFT.wav	1	30	blb_dichoticlistening_pa-ta.mp3	pa	ta	1	right
6.6.1	and	2023-07-14	07:36:48	07:50:33	802201	5b87cdc34dc3210001904196	3	1	DL_test	23	DL_test	4	stimuli_distractor_diamondtriangles.svg	stimuli_target_trianglesquares.svg	30	yes	ta	0	1865	6	6	antiphase_hc_ois.wav	3	6	2	noise_calib_stim_LEFT.wav	1	11	blb_dichoticlistening_da-pa.mp3	da	pa	1	other
6.6.1	and	2023-07-14	07:36:48	07:50:33	802201	5b87cdc34dc3210001904196	3	1	DL_test	23	DL_test	5	stimuli_distractor_diamondtriangles.svg	stimuli_target_trianglesquares.svg	30	yes	pa	0	1745	6	6	antiphase_hc_ois.wav	3	6	2	noise_calib_stim_LEFT.wav	1	10	blb_dichoticlistening_da-ka.mp3	da	ka	1	other
6.6.1	and	2023-07-14	07:36:48	07:50:33	802201	5b87cdc34dc3210001904196	3	1	DL_test	23	DL_test	6	stimuli_distractor_diamondtriangles.svg	stimuli_target_trianglesquares.svg	30	yes	da	1	1571	6	6	antiphase_hc_ois.wav	3	6	2	noise_calib_stim_LEFT.wav	1	7	blb_dichoticlistening_da-ba.mp3	da	ba	1	left
6.6.1	and	2023-07-14	07:36:48	07:50:33	802201	5b87cdc34dc3210001904196	3	1	DL_test	23	DL_test	7	stimuli_distractor_diamondtriangles.svg	stimuli_target_trianglesquares.svg	30	yes	ka	0	1464	6	6	antiphase_hc_ois.wav	3	6	2	noise_calib_stim_LEFT.wav	1	17	blb_dichoticlistening_ga-pa.mp3	ga	pa	1	other
6.6.1	and	2023-07-14	07:36:48	07:50:33	802201	5b87cdc34dc3210001904196	3	1	DL_test	23	DL_test	8	stimuli_distractor_diamondtriangles.svg	stimuli_target_trianglesquares.svg	30	yes	ka	1	1533	6	6	antiphase_hc_ois.wav	3	6	2	noise_calib_stim_LEFT.wav	1	28	blb_dichoticlistening_pa-ka.mp3	pa	ka	1	right
6.6.1	and	2023-07-14	07:36:48	07:50:33	802201	5b87cdc34dc3210001904196	3	1	DL_test	23	DL_test	9	stimuli_distractor_diamondtriangles.svg	stimuli_target_trianglesquares.svg	30	yes	ka	1	1336	6	6	antiphase_hc_ois.wav	3	6	2	noise_calib_stim_LEFT.wav	1	20	blb_dichoticlistening_ka-da.mp3	ka	da	1	left
6.6.1	and	2023-07-14	07:36:48	07:50:33	802201	5b87cdc34dc3210001904196	3	1	DL_test	23	DL_test	10	stimuli_distractor_diamondtriangles.svg	stimuli_target_trianglesquares.svg	30	yes	pa	0	1189	6	6	antiphase_hc_ois.wav	3	6	2	noise_calib_stim_LEFT.wav	1	19	blb_dichoticlistening_ka-ba.mp3	ka	ba	1	other
6.6.1	and	2023-07-14	07:36:48	07:50:33	802201	5b87cdc34dc3210001904196	3	1	DL_test	23	DL_test	11	stimuli_distractor_diamondtriangles.svg	stimuli_target_trianglesquares.svg	30	yes	pa	1	1185	6	6	antiphase_hc_ois.wav	3	6	2	noise_calib_stim_LEFT.wav	1	25	blb_dichoticlistening_pa-ba.mp3	pa	ba	1	left
6.6.1	and	2023-07-14	07:36:48	07:50:33	802201	5b87cdc34dc3210001904196	3	1	DL_test	23	DL_test	12	stimuli_distractor_diamondtriangles.svg	stimuli_target_trianglesquares.svg	30	yes	pa	1	2197	6	6	antiphase_hc_ois.wav	3	6	2	noise_calib_stim_LEFT.wav	1	27	blb_dichoticlistening_pa-ga.mp3	pa	ga	1	left
6.6.1	and	2023-07-14	07:36:48	07:50:33	802201	5b87cdc34dc3210001904196	3	1	DL_test	23	DL_test	13	stimuli_distractor_diamondtriangles.svg	stimuli_target_trianglesquares.svg	30	yes	ta	1	2534	6	6	antiphase_hc_ois.wav	3	6	2	noise_calib_stim_LEFT.wav	1	31	blb_dichoticlistening_ta-ba.mp3	ta	ba	1	left
6.6.1	and	2023-07-14	07:36:48	07:50:33	802201	5b87cdc34dc3210001904196	3	1	DL_test	23	DL_test	14	stimuli_distractor_diamondtriangles.svg	stimuli_target_trianglesquares.svg	30	yes	ta	1	1466	6	6	antiphase_hc_ois.wav	3	6	2	noise_calib_stim_LEFT.wav	1	12	blb_dichoticlistening_da-ta.mp3	da	ta	1	right
6.6.1	and	2023-07-14	07:36:48	07:50:33	802201	5b87cdc34dc3210001904196	3	1	DL_test	23	DL_test	15	stimuli_distractor_diamondtriangles.svg	stimuli_target_trianglesquares.svg	30	yes	da	1	1687	6	6	antiphase_hc_ois.wav	3	6	2	noise_calib_stim_LEFT.wav	1	32	blb_dichoticlistening_ta-da.mp3	ta	da	1	right
6.6.1	and	2023-07-14	07:36:48	07:50:33	802201	5b87cdc34dc3210001904196	3	1	DL_test	23	DL_test	16	stimuli_distractor_diamondtriangles.svg	stimuli_target_trianglesquares.svg	30	yes	ta	1	2083	6	6	antiphase_hc_ois.wav	3	6	2	noise_calib_stim_LEFT.wav	1	36	blb_dichoticlistening_ta-ta.mp3	ta	ta	0	left
6.6.1	and	2023-07-14	07:36:48	07:50:33	802201	5b87cdc34dc3210001904196	3	1	DL_test	23	DL_test	17	stimuli_distractor_diamondtriangles.svg	stimuli_target_trianglesquares.svg	30	yes	da	1	1286	6	6	antiphase_hc_ois.wav	3	6	2	noise_calib_stim_LEFT.wav	1	2	blb_dichoticlistening_ba-da.mp3	ba	da	1	right
6.6.1	and	2023-07-14	07:36:48	07:50:33	802201	5b87cdc34dc3210001904196	3	1	DL_test	23	DL_test	18	stimuli_distractor_diamondtriangles.svg	stimuli_target_trianglesquares.svg	30	yes	ka	1	1323	6	6	antiphase_hc_ois.wav	3	6	2	noise_calib_stim_LEFT.wav	1	16	blb_dichoticlistening_ga-ka.mp3	ga	ka	1	right
6.6.1	and	2023-07-14	07:36:48	07:50:33	802201	5b87cdc34dc3210001904196	3	1	DL_test	23	DL_test	19	stimuli_distractor_diamondtriangles.svg	stimuli_target_trianglesquares.svg	30	yes	ka	0	2935	6	6	antiphase_hc_ois.wav	3	6	2	noise_calib_stim_LEFT.wav	1	35	blb_dichoticlistening_ta-pa.mp3	ta	pa	1	other
6.6.1	and	2023-07-14	07:36:48	07:50:33	802201	5b87cdc34dc3210001904196	3	1	DL_test	23	DL_test	20	stimuli_distractor_diamondtriangles.svg	stimuli_target_trianglesquares.svg	30	yes	ga	1	1620	6	6	antiphase_hc_ois.wav	3	6	2	noise_calib_stim_LEFT.wav	1	33	blb_dichoticlistening_ta-ga.mp3	ta	ga	1	right
6.6.1	and	2023-07-14	07:36:48	07:50:33	802201	5b87cdc34dc3210001904196	3	1	DL_test	23	DL_test	21	stimuli_distractor_diamondtriangles.svg	stimuli_target_trianglesquares.svg	30	yes	da	1	1042	6	6	antiphase_hc_ois.wav	3	6	2	noise_calib_stim_LEFT.wav	1	8	blb_dichoticlistening_da-da.mp3	da	da	0	left
6.6.1	and	2023-07-14	07:36:48	07:50:33	802201	5b87cdc34dc3210001904196	3	1	DL_test	23	DL_test	22	stimuli_distractor_diamondtriangles.svg	stimuli_target_trianglesquares.svg	30	yes	ta	1	1987	6	6	antiphase_hc_ois.wav	3	6	2	noise_calib_stim_LEFT.wav	1	6	blb_dichoticlistening_ba-ta.mp3	ba	ta	1	right
6.6.1	and	2023-07-14	07:36:48	07:50:33	802201	5b87cdc34dc3210001904196	3	1	DL_test	23	DL_test	23	stimuli_distractor_diamondtriangles.svg	stimuli_target_trianglesquares.svg	30	yes	da	1	1194	6	6	antiphase_hc_ois.wav	3	6	2	noise_calib_stim_LEFT.wav	1	14	blb_dichoticlistening_ga-da.mp3	ga	da	1	right
6.6.1	and	2023-07-14	07:36:48	07:50:33	802201	5b87cdc34dc3210001904196	3	1	DL_test	23	DL_test	24	stimuli_distractor_diamondtriangles.svg	stimuli_target_trianglesquares.svg	30	yes	ka	0	1399	6	6	antiphase_hc_ois.wav	3	6	2	noise_calib_stim_LEFT.wav	1	18	blb_dichoticlistening_ga-ta.mp3	ga	ta	1	other
6.6.1	and	2023-07-14	07:36:48	07:50:33	802201	5b87cdc34dc3210001904196	3	1	DL_test	23	DL_test	25	stimuli_distractor_diamondtriangles.svg	stimuli_target_trianglesquares.svg	30	yes	ka	1	1395	6	6	antiphase_hc_ois.wav	3	6	2	noise_calib_stim_LEFT.wav	1	34	blb_dichoticlistening_ta-ka.mp3	ta	ka	1	right
6.6.1	and	2023-07-14	07:36:48	07:50:33	802201	5b87cdc34dc3210001904196	3	1	DL_test	23	DL_test	26	stimuli_distractor_diamondtriangles.svg	stimuli_target_trianglesquares.svg	30	yes	ka	1	1391	6	6	antiphase_hc_ois.wav	3	6	2	noise_calib_stim_LEFT.wav	1	21	blb_dichoticlistening_ka-ga.mp3	ka	ga	1	left
