build	computer.platform	date	time	timestamp	time_elapsed_ms	subject	group	session	blockcode	blocknum	trialcode	trialnum	stimulus_left	stimulus_right	stim_index	target_present	response	correct	latency	headphonecheck_countTestTrials	headphonecheck_index	headphonecheck_testSound	headphonecheck_correctResponse	stereocheck_countTestTrials	stereocheck_index	stereocheck_testSound	stereocheck_correctResponse	DL_index	DL_soundfile	DL_leftSound	DL_rightSound	DL_dualSound	DL_choice
6.6.1	win	2023-06-02	03:28:06	03:30:18	130227	5cc93ce7627fc30013fc22aa	4	1	practice_z	5	practice_z	1	stimuli_target_diamondsquares.svg	stimuli_distractor_trianglediamonds.svg	6	yes	0	0	2003	0	0			0	0			1				0	
6.6.1	win	2023-06-02	03:28:06	03:30:18	130227	5cc93ce7627fc30013fc22aa	4	1	practice_z	5	advance_on_keypress_ZEE	2	stimuli_target_diamondsquares.svg	stimuli_distractor_trianglediamonds.svg	6	yes	57	0	1078	0	0			0	0			1				0	
6.6.1	win	2023-06-02	03:28:06	03:30:23	134933	5cc93ce7627fc30013fc22aa	4	1	practice_z	5	practice_z	3	stimuli_distractor_trianglediamonds.svg	stimuli_distractor_trianglediamonds.svg	15	no	0	1	2003	0	0			0	0			1				0	
6.6.1	win	2023-06-02	03:28:06	03:30:23	134933	5cc93ce7627fc30013fc22aa	4	1	practice_z	5	advance_on_keypress_ZEE	4	stimuli_distractor_trianglediamonds.svg	stimuli_distractor_trianglediamonds.svg	15	no	57	0	747	0	0			0	0			1				0	
6.6.1	win	2023-06-02	03:28:06	03:30:26	137968	5cc93ce7627fc30013fc22aa	4	1	practice_z	5	practice_z	5	stimuli_distractor_trianglediamonds.svg	stimuli_target_diamondrectangles.svg	12	yes	44	1	665	0	0			0	0			1				0	
6.6.1	win	2023-06-02	03:28:06	03:30:26	137968	5cc93ce7627fc30013fc22aa	4	1	practice_z	5	advance_on_keypress_ZEE	6	stimuli_distractor_trianglediamonds.svg	stimuli_target_diamondrectangles.svg	12	yes	57	0	484	0	0			0	0			1				0	
6.6.1	win	2023-06-02	03:28:06	03:30:30	142072	5cc93ce7627fc30013fc22aa	4	1	practice_z	5	practice_z	7	stimuli_target_squarediamonds.svg	stimuli_distractor_trianglediamonds.svg	5	yes	0	0	2003	0	0			0	0			1				0	
6.6.1	win	2023-06-02	03:28:06	03:30:30	142072	5cc93ce7627fc30013fc22aa	4	1	practice_z	5	advance_on_keypress_ZEE	8	stimuli_target_squarediamonds.svg	stimuli_distractor_trianglediamonds.svg	5	yes	57	0	495	0	0			0	0			1				0	
6.6.1	win	2023-06-02	03:28:06	03:30:33	145264	5cc93ce7627fc30013fc22aa	4	1	practice_z	5	practice_z	9	stimuli_target_squarediamonds.svg	stimuli_distractor_diamondtriangles.svg	2	yes	44	1	1080	0	0			0	0			1				0	
6.6.1	win	2023-06-02	03:28:06	03:30:33	145264	5cc93ce7627fc30013fc22aa	4	1	practice_z	5	advance_on_keypress_ZEE	10	stimuli_target_squarediamonds.svg	stimuli_distractor_diamondtriangles.svg	2	yes	57	0	377	0	0			0	0			1				0	
6.6.1	win	2023-06-02	03:28:06	03:30:36	148135	5cc93ce7627fc30013fc22aa	4	1	practice_z	5	practice_z	11	stimuli_distractor_diamondtriangles.svg	stimuli_target_diamondrectangles.svg	8	yes	44	1	878	0	0			0	0			1				0	
6.6.1	win	2023-06-02	03:28:06	03:30:36	148135	5cc93ce7627fc30013fc22aa	4	1	practice_z	5	advance_on_keypress_ZEE	12	stimuli_distractor_diamondtriangles.svg	stimuli_target_diamondrectangles.svg	8	yes	57	0	235	0	0			0	0			1				0	
6.6.1	win	2023-06-02	03:28:06	03:30:39	150991	5cc93ce7627fc30013fc22aa	4	1	practice_z	5	practice_z	13	stimuli_target_rectanglediamonds.svg	stimuli_distractor_diamondtriangles.svg	1	yes	44	1	1002	0	0			0	0			1				0	
6.6.1	win	2023-06-02	03:28:06	03:30:39	150991	5cc93ce7627fc30013fc22aa	4	1	practice_z	5	advance_on_keypress_ZEE	14	stimuli_target_rectanglediamonds.svg	stimuli_distractor_diamondtriangles.svg	1	yes	57	0	257	0	0			0	0			1				0	
6.6.1	win	2023-06-02	03:28:06	03:30:42	153832	5cc93ce7627fc30013fc22aa	4	1	practice_z	5	practice_z	15	stimuli_distractor_diamondtriangles.svg	stimuli_distractor_trianglediamonds.svg	14	no	44	0	965	0	0			0	0			1				0	
6.6.1	win	2023-06-02	03:28:06	03:30:42	153832	5cc93ce7627fc30013fc22aa	4	1	practice_z	5	advance_on_keypress_ZEE	16	stimuli_distractor_diamondtriangles.svg	stimuli_distractor_trianglediamonds.svg	14	no	57	0	302	0	0			0	0			1				0	
6.6.1	win	2023-06-02	03:28:06	03:30:45	156656	5cc93ce7627fc30013fc22aa	4	1	practice_z	5	practice_z	17	stimuli_distractor_trianglediamonds.svg	stimuli_target_squarediamonds.svg	11	yes	44	1	911	0	0			0	0			1				0	
6.6.1	win	2023-06-02	03:28:06	03:30:45	156656	5cc93ce7627fc30013fc22aa	4	1	practice_z	5	advance_on_keypress_ZEE	18	stimuli_distractor_trianglediamonds.svg	stimuli_target_squarediamonds.svg	11	yes	57	0	279	0	0			0	0			1				0	
6.6.1	win	2023-06-02	03:28:06	03:30:49	160556	5cc93ce7627fc30013fc22aa	4	1	practice_z	5	practice_z	19	stimuli_distractor_diamondtriangles.svg	stimuli_distractor_diamondtriangles.svg	13	no	0	1	2003	0	0			0	0			1				0	
6.6.1	win	2023-06-02	03:28:06	03:30:49	160556	5cc93ce7627fc30013fc22aa	4	1	practice_z	5	advance_on_keypress_ZEE	20	stimuli_distractor_diamondtriangles.svg	stimuli_distractor_diamondtriangles.svg	13	no	57	0	389	0	0			0	0			1				0	
6.6.1	win	2023-06-02	03:28:06	03:30:52	163439	5cc93ce7627fc30013fc22aa	4	1	practice_z	5	practice_z	21	stimuli_distractor_diamondtriangles.svg	stimuli_target_rectangletriangles.svg	7	yes	44	1	876	0	0			0	0			1				0	
6.6.1	win	2023-06-02	03:28:06	03:30:52	163439	5cc93ce7627fc30013fc22aa	4	1	practice_z	5	advance_on_keypress_ZEE	22	stimuli_distractor_diamondtriangles.svg	stimuli_target_rectangletriangles.svg	7	yes	57	0	272	0	0			0	0			1				0	
6.6.1	win	2023-06-02	03:28:06	03:30:55	166416	5cc93ce7627fc30013fc22aa	4	1	practice_z	5	practice_z	23	stimuli_target_diamondsquares.svg	stimuli_distractor_diamondtriangles.svg	3	yes	44	1	1085	0	0			0	0			1				0	
6.6.1	win	2023-06-02	03:28:06	03:30:55	166416	5cc93ce7627fc30013fc22aa	4	1	practice_z	5	advance_on_keypress_ZEE	24	stimuli_target_diamondsquares.svg	stimuli_distractor_diamondtriangles.svg	3	yes	57	0	272	0	0			0	0			1				0	
6.6.1	win	2023-06-02	03:28:06	03:30:59	170309	5cc93ce7627fc30013fc22aa	4	1	practice_z	5	practice_z	25	stimuli_distractor_trianglediamonds.svg	stimuli_distractor_diamondtriangles.svg	16	no	0	1	2003	0	0			0	0			1				0	
6.6.1	win	2023-06-02	03:28:06	03:30:59	170309	5cc93ce7627fc30013fc22aa	4	1	practice_z	5	advance_on_keypress_ZEE	26	stimuli_distractor_trianglediamonds.svg	stimuli_distractor_diamondtriangles.svg	16	no	57	0	275	0	0			0	0			1				0	
6.6.1	win	2023-06-02	03:28:06	03:31:01	173240	5cc93ce7627fc30013fc22aa	4	1	practice_z	5	practice_z	27	stimuli_target_rectanglediamonds.svg	stimuli_distractor_trianglediamonds.svg	4	yes	44	1	1042	0	0			0	0			1				0	
6.6.1	win	2023-06-02	03:28:06	03:31:01	173240	5cc93ce7627fc30013fc22aa	4	1	practice_z	5	advance_on_keypress_ZEE	28	stimuli_target_rectanglediamonds.svg	stimuli_distractor_trianglediamonds.svg	4	yes	57	0	357	0	0			0	0			1				0	
6.6.1	win	2023-06-02	03:28:06	03:31:04	176184	5cc93ce7627fc30013fc22aa	4	1	practice_z	5	practice_z	29	stimuli_distractor_diamondtriangles.svg	stimuli_target_trianglerectangles.svg	9	yes	44	1	975	0	0			0	0			1				0	
6.6.1	win	2023-06-02	03:28:06	03:31:04	176184	5cc93ce7627fc30013fc22aa	4	1	practice_z	5	advance_on_keypress_ZEE	30	stimuli_distractor_diamondtriangles.svg	stimuli_target_trianglerectangles.svg	9	yes	57	0	282	0	0			0	0			1				0	
6.6.1	win	2023-06-02	03:28:06	03:31:07	179024	5cc93ce7627fc30013fc22aa	4	1	practice_z	5	practice_z	31	stimuli_distractor_trianglediamonds.svg	stimuli_target_rectanglediamonds.svg	10	yes	44	1	945	0	0			0	0			1				0	
6.6.1	win	2023-06-02	03:28:06	03:31:07	179024	5cc93ce7627fc30013fc22aa	4	1	practice_z	5	advance_on_keypress_ZEE	32	stimuli_distractor_trianglediamonds.svg	stimuli_target_rectanglediamonds.svg	10	yes	57	0	318	0	0			0	0			1				0	
6.6.1	win	2023-06-02	03:28:06	03:31:13	184295	5cc93ce7627fc30013fc22aa	4	1	main_z	7	main_z	1	stimuli_target_trianglesquares.svg	stimuli_distractor_diamondtriangles.svg	22	yes	44	1	960	0	0			0	0			1				0	
6.6.1	win	2023-06-02	03:28:06	03:31:13	184295	5cc93ce7627fc30013fc22aa	4	1	main_z	7	advance_on_keypress_ZEE	2	stimuli_target_trianglesquares.svg	stimuli_distractor_diamondtriangles.svg	22	yes	57	0	993	0	0			0	0			1				0	
6.6.1	win	2023-06-02	03:28:06	03:31:15	187223	5cc93ce7627fc30013fc22aa	4	1	main_z	7	main_z	3	stimuli_distractor_diamondtriangles.svg	stimuli_distractor_trianglediamonds.svg	38	no	44	0	1316	0	0			0	0			1				0	
6.6.1	win	2023-06-02	03:28:06	03:31:15	187223	5cc93ce7627fc30013fc22aa	4	1	main_z	7	advance_on_keypress_ZEE	4	stimuli_distractor_diamondtriangles.svg	stimuli_distractor_trianglediamonds.svg	38	no	57	0	539	0	0			0	0			1				0	
6.6.1	win	2023-06-02	03:28:06	03:31:19	190378	5cc93ce7627fc30013fc22aa	4	1	main_z	7	main_z	5	stimuli_distractor_trianglediamonds.svg	stimuli_distractor_diamondtriangles.svg	35	no	0	1	2003	0	0			0	0			1				0	
6.6.1	win	2023-06-02	03:28:06	03:31:19	190378	5cc93ce7627fc30013fc22aa	4	1	main_z	7	advance_on_keypress_ZEE	6	stimuli_distractor_trianglediamonds.svg	stimuli_distractor_diamondtriangles.svg	35	no	57	0	439	0	0			0	0			1				0	
6.6.1	win	2023-06-02	03:28:06	03:31:21	192567	5cc93ce7627fc30013fc22aa	4	1	main_z	7	main_z	7	stimuli_target_diamondrectangles.svg	stimuli_distractor_diamondtriangles.svg	23	yes	44	1	1134	0	0			0	0			1				0	
6.6.1	win	2023-06-02	03:28:06	03:31:21	192567	5cc93ce7627fc30013fc22aa	4	1	main_z	7	advance_on_keypress_ZEE	8	stimuli_target_diamondrectangles.svg	stimuli_distractor_diamondtriangles.svg	23	yes	57	0	441	0	0			0	0			1				0	
6.6.1	win	2023-06-02	03:28:06	03:31:23	194567	5cc93ce7627fc30013fc22aa	4	1	main_z	7	main_z	9	stimuli_target_trianglerectangles.svg	stimuli_distractor_trianglediamonds.svg	17	yes	44	1	944	0	0			0	0			1				0	
6.6.1	win	2023-06-02	03:28:06	03:31:23	194567	5cc93ce7627fc30013fc22aa	4	1	main_z	7	advance_on_keypress_ZEE	10	stimuli_target_trianglerectangles.svg	stimuli_distractor_trianglediamonds.svg	17	yes	57	0	383	0	0			0	0			1				0	
6.6.1	win	2023-06-02	03:28:06	03:31:25	196471	5cc93ce7627fc30013fc22aa	4	1	main_z	7	main_z	11	stimuli_target_rectanglediamonds.svg	stimuli_distractor_diamondtriangles.svg	6	yes	44	1	902	0	0			0	0			1				0	
6.6.1	win	2023-06-02	03:28:06	03:31:25	196471	5cc93ce7627fc30013fc22aa	4	1	main_z	7	advance_on_keypress_ZEE	12	stimuli_target_rectanglediamonds.svg	stimuli_distractor_diamondtriangles.svg	6	yes	57	0	398	0	0			0	0			1				0	
6.6.1	win	2023-06-02	03:28:06	03:31:28	199484	5cc93ce7627fc30013fc22aa	4	1	main_z	7	main_z	13	stimuli_distractor_diamondtriangles.svg	stimuli_distractor_diamondtriangles.svg	39	no	0	1	2003	0	0			0	0			1				0	
6.6.1	win	2023-06-02	03:28:06	03:31:28	199484	5cc93ce7627fc30013fc22aa	4	1	main_z	7	advance_on_keypress_ZEE	14	stimuli_distractor_diamondtriangles.svg	stimuli_distractor_diamondtriangles.svg	39	no	57	0	381	0	0			0	0			1				0	
6.6.1	win	2023-06-02	03:28:06	03:31:30	201415	5cc93ce7627fc30013fc22aa	4	1	main_z	7	main_z	15	stimuli_target_diamondsquares.svg	stimuli_distractor_diamondtriangles.svg	24	yes	44	1	938	0	0			0	0			1				0	
6.6.1	win	2023-06-02	03:28:06	03:31:30	201415	5cc93ce7627fc30013fc22aa	4	1	main_z	7	advance_on_keypress_ZEE	16	stimuli_target_diamondsquares.svg	stimuli_distractor_diamondtriangles.svg	24	yes	57	0	368	0	0			0	0			1				0	
6.6.1	win	2023-06-02	03:28:06	03:31:31	203247	5cc93ce7627fc30013fc22aa	4	1	main_z	7	main_z	17	stimuli_distractor_diamondtriangles.svg	stimuli_target_trianglerectangles.svg	29	yes	44	1	845	0	0			0	0			1				0	
6.6.1	win	2023-06-02	03:28:06	03:31:31	203247	5cc93ce7627fc30013fc22aa	4	1	main_z	7	advance_on_keypress_ZEE	18	stimuli_distractor_diamondtriangles.svg	stimuli_target_trianglerectangles.svg	29	yes	57	0	388	0	0			0	0			1				0	
6.6.1	win	2023-06-02	03:28:06	03:31:33	205247	5cc93ce7627fc30013fc22aa	4	1	main_z	7	main_z	19	stimuli_target_squaretriangles.svg	stimuli_distractor_trianglediamonds.svg	3	yes	44	1	996	0	0			0	0			1				0	
6.6.1	win	2023-06-02	03:28:06	03:31:33	205247	5cc93ce7627fc30013fc22aa	4	1	main_z	7	advance_on_keypress_ZEE	20	stimuli_target_squaretriangles.svg	stimuli_distractor_trianglediamonds.svg	3	yes	57	0	426	0	0			0	0			1				0	
6.6.1	win	2023-06-02	03:28:06	03:31:35	207183	5cc93ce7627fc30013fc22aa	4	1	main_z	7	main_z	21	stimuli_distractor_trianglediamonds.svg	stimuli_target_diamondrectangles.svg	27	yes	44	1	895	0	0			0	0			1				0	
6.6.1	win	2023-06-02	03:28:06	03:31:35	207183	5cc93ce7627fc30013fc22aa	4	1	main_z	7	advance_on_keypress_ZEE	22	stimuli_distractor_trianglediamonds.svg	stimuli_target_diamondrectangles.svg	27	yes	57	0	342	0	0			0	0			1				0	
6.6.1	win	2023-06-02	03:28:06	03:31:37	209103	5cc93ce7627fc30013fc22aa	4	1	main_z	7	main_z	23	stimuli_target_trianglesquares.svg	stimuli_distractor_trianglediamonds.svg	18	yes	44	1	966	0	0			0	0			1				0	
6.6.1	win	2023-06-02	03:28:06	03:31:37	209103	5cc93ce7627fc30013fc22aa	4	1	main_z	7	advance_on_keypress_ZEE	24	stimuli_target_trianglesquares.svg	stimuli_distractor_trianglediamonds.svg	18	yes	57	0	336	0	0			0	0			1				0	
6.6.1	win	2023-06-02	03:28:06	03:31:39	211215	5cc93ce7627fc30013fc22aa	4	1	main_z	7	main_z	25	stimuli_target_trianglerectangles.svg	stimuli_distractor_diamondtriangles.svg	21	yes	44	1	1159	0	0			0	0			1				0	
6.6.1	win	2023-06-02	03:28:06	03:31:39	211215	5cc93ce7627fc30013fc22aa	4	1	main_z	7	advance_on_keypress_ZEE	26	stimuli_target_trianglerectangles.svg	stimuli_distractor_diamondtriangles.svg	21	yes	57	0	398	0	0			0	0			1				0	
6.6.1	win	2023-06-02	03:28:06	03:31:41	213231	5cc93ce7627fc30013fc22aa	4	1	main_z	7	main_z	27	stimuli_distractor_trianglediamonds.svg	stimuli_target_rectangletriangles.svg	9	yes	44	1	1006	0	0			0	0			1				0	
6.6.1	win	2023-06-02	03:28:06	03:31:41	213231	5cc93ce7627fc30013fc22aa	4	1	main_z	7	advance_on_keypress_ZEE	28	stimuli_distractor_trianglediamonds.svg	stimuli_target_rectangletriangles.svg	9	yes	57	0	334	0	0			0	0			1				0	
6.6.1	win	2023-06-02	03:28:06	03:31:43	215127	5cc93ce7627fc30013fc22aa	4	1	main_z	7	main_z	29	stimuli_distractor_diamondtriangles.svg	stimuli_target_diamondsquares.svg	32	yes	44	1	949	0	0			0	0			1				0	
6.6.1	win	2023-06-02	03:28:06	03:31:43	215127	5cc93ce7627fc30013fc22aa	4	1	main_z	7	advance_on_keypress_ZEE	30	stimuli_distractor_diamondtriangles.svg	stimuli_target_diamondsquares.svg	32	yes	57	0	332	0	0			0	0			1				0	
6.6.1	win	2023-06-02	03:28:06	03:31:45	216983	5cc93ce7627fc30013fc22aa	4	1	main_z	7	main_z	31	stimuli_target_squaretriangles.svg	stimuli_distractor_diamondtriangles.svg	7	yes	44	1	914	0	0			0	0			1				0	
6.6.1	win	2023-06-02	03:28:06	03:31:45	216983	5cc93ce7627fc30013fc22aa	4	1	main_z	7	advance_on_keypress_ZEE	32	stimuli_target_squaretriangles.svg	stimuli_distractor_diamondtriangles.svg	7	yes	57	0	396	0	0			0	0			1				0	
6.6.1	win	2023-06-02	03:28:06	03:31:47	218999	5cc93ce7627fc30013fc22aa	4	1	main_z	7	main_z	33	stimuli_target_diamondsquares.svg	stimuli_distractor_trianglediamonds.svg	20	yes	44	1	1005	0	0			0	0			1				0	
6.6.1	win	2023-06-02	03:28:06	03:31:47	218999	5cc93ce7627fc30013fc22aa	4	1	main_z	7	advance_on_keypress_ZEE	34	stimuli_target_diamondsquares.svg	stimuli_distractor_trianglediamonds.svg	20	yes	57	0	300	0	0			0	0			1				0	
6.6.1	win	2023-06-02	03:28:06	03:31:50	221917	5cc93ce7627fc30013fc22aa	4	1	main_z	7	main_z	35	stimuli_distractor_diamondtriangles.svg	stimuli_target_squaretriangles.svg	15	yes	0	0	2003	0	0			0	0			1				0	
6.6.1	win	2023-06-02	03:28:06	03:31:50	221917	5cc93ce7627fc30013fc22aa	4	1	main_z	7	advance_on_keypress_ZEE	36	stimuli_distractor_diamondtriangles.svg	stimuli_target_squaretriangles.svg	15	yes	57	0	284	0	0			0	0			1				0	
6.6.1	win	2023-06-02	03:28:06	03:31:52	223679	5cc93ce7627fc30013fc22aa	4	1	main_z	7	main_z	37	stimuli_distractor_diamondtriangles.svg	stimuli_target_trianglesquares.svg	30	yes	44	1	860	0	0			0	0			1				0	
6.6.1	win	2023-06-02	03:28:06	03:31:52	223679	5cc93ce7627fc30013fc22aa	4	1	main_z	7	advance_on_keypress_ZEE	38	stimuli_distractor_diamondtriangles.svg	stimuli_target_trianglesquares.svg	30	yes	57	0	662	0	0			0	0			1				0	
6.6.1	win	2023-06-02	03:28:06	03:31:54	225759	5cc93ce7627fc30013fc22aa	4	1	main_z	7	main_z	39	stimuli_distractor_diamondtriangles.svg	stimuli_target_rectangletriangles.svg	13	yes	44	1	806	0	0			0	0			1				0	
6.6.1	win	2023-06-02	03:28:06	03:31:54	225759	5cc93ce7627fc30013fc22aa	4	1	main_z	7	advance_on_keypress_ZEE	40	stimuli_distractor_diamondtriangles.svg	stimuli_target_rectangletriangles.svg	13	yes	57	0	528	0	0			0	0			1				0	
6.6.1	win	2023-06-02	03:28:06	03:31:56	227831	5cc93ce7627fc30013fc22aa	4	1	main_z	7	main_z	41	stimuli_target_rectanglediamonds.svg	stimuli_distractor_trianglediamonds.svg	2	yes	44	1	925	0	0			0	0			1				0	
6.6.1	win	2023-06-02	03:28:06	03:31:56	227831	5cc93ce7627fc30013fc22aa	4	1	main_z	7	advance_on_keypress_ZEE	42	stimuli_target_rectanglediamonds.svg	stimuli_distractor_trianglediamonds.svg	2	yes	57	0	425	0	0			0	0			1				0	
6.6.1	win	2023-06-02	03:28:06	03:31:58	229719	5cc93ce7627fc30013fc22aa	4	1	main_z	7	main_z	43	stimuli_target_rectangletriangles.svg	stimuli_distractor_diamondtriangles.svg	5	yes	44	1	846	0	0			0	0			1				0	
6.6.1	win	2023-06-02	03:28:06	03:31:58	229719	5cc93ce7627fc30013fc22aa	4	1	main_z	7	advance_on_keypress_ZEE	44	stimuli_target_rectangletriangles.svg	stimuli_distractor_diamondtriangles.svg	5	yes	57	0	541	0	0			0	0			1				0	
6.6.1	win	2023-06-02	03:28:06	03:32:00	231607	5cc93ce7627fc30013fc22aa	4	1	main_z	7	main_z	45	stimuli_target_squarediamonds.svg	stimuli_distractor_diamondtriangles.svg	8	yes	44	1	739	0	0			0	0			1				0	
6.6.1	win	2023-06-02	03:28:06	03:32:00	231607	5cc93ce7627fc30013fc22aa	4	1	main_z	7	advance_on_keypress_ZEE	46	stimuli_target_squarediamonds.svg	stimuli_distractor_diamondtriangles.svg	8	yes	57	0	346	0	0			0	0			1				0	
6.6.1	win	2023-06-02	03:28:06	03:32:02	233471	5cc93ce7627fc30013fc22aa	4	1	main_z	7	main_z	47	stimuli_distractor_trianglediamonds.svg	stimuli_target_squarediamonds.svg	12	yes	44	1	907	0	0			0	0			1				0	
6.6.1	win	2023-06-02	03:28:06	03:32:02	233471	5cc93ce7627fc30013fc22aa	4	1	main_z	7	advance_on_keypress_ZEE	48	stimuli_distractor_trianglediamonds.svg	stimuli_target_squarediamonds.svg	12	yes	57	0	435	0	0			0	0			1				0	
6.6.1	win	2023-06-02	03:28:06	03:32:05	236522	5cc93ce7627fc30013fc22aa	4	1	main_z	7	main_z	49	stimuli_distractor_trianglediamonds.svg	stimuli_distractor_trianglediamonds.svg	34	no	0	1	2003	0	0			0	0			1				0	
6.6.1	win	2023-06-02	03:28:06	03:32:05	236522	5cc93ce7627fc30013fc22aa	4	1	main_z	7	advance_on_keypress_ZEE	50	stimuli_distractor_trianglediamonds.svg	stimuli_distractor_trianglediamonds.svg	34	no	57	0	264	0	0			0	0			1				0	
6.6.1	win	2023-06-02	03:28:06	03:32:07	238319	5cc93ce7627fc30013fc22aa	4	1	main_z	7	main_z	51	stimuli_target_rectangletriangles.svg	stimuli_distractor_trianglediamonds.svg	1	yes	44	1	916	0	0			0	0			1				0	
6.6.1	win	2023-06-02	03:28:06	03:32:07	238319	5cc93ce7627fc30013fc22aa	4	1	main_z	7	advance_on_keypress_ZEE	52	stimuli_target_rectangletriangles.svg	stimuli_distractor_trianglediamonds.svg	1	yes	57	0	454	0	0			0	0			1				0	
6.6.1	win	2023-06-02	03:28:06	03:32:10	241388	5cc93ce7627fc30013fc22aa	4	1	main_z	7	main_z	53	stimuli_target_diamondrectangles.svg	stimuli_distractor_trianglediamonds.svg	19	yes	0	0	2003	0	0			0	0			1				0	
6.6.1	win	2023-06-02	03:28:06	03:32:10	241388	5cc93ce7627fc30013fc22aa	4	1	main_z	7	advance_on_keypress_ZEE	54	stimuli_target_diamondrectangles.svg	stimuli_distractor_trianglediamonds.svg	19	yes	57	0	414	0	0			0	0			1				0	
6.6.1	win	2023-06-02	03:28:06	03:32:12	243351	5cc93ce7627fc30013fc22aa	4	1	main_z	7	main_z	55	stimuli_distractor_trianglediamonds.svg	stimuli_target_rectanglediamonds.svg	10	yes	44	1	936	0	0			0	0			1				0	
6.6.1	win	2023-06-02	03:28:06	03:32:12	243351	5cc93ce7627fc30013fc22aa	4	1	main_z	7	advance_on_keypress_ZEE	56	stimuli_distractor_trianglediamonds.svg	stimuli_target_rectanglediamonds.svg	10	yes	57	0	413	0	0			0	0			1				0	
6.6.1	win	2023-06-02	03:28:06	03:32:14	245295	5cc93ce7627fc30013fc22aa	4	1	main_z	7	main_z	57	stimuli_distractor_diamondtriangles.svg	stimuli_target_rectanglediamonds.svg	14	yes	44	1	920	0	0			0	0			1				0	
6.6.1	win	2023-06-02	03:28:06	03:32:14	245295	5cc93ce7627fc30013fc22aa	4	1	main_z	7	advance_on_keypress_ZEE	58	stimuli_distractor_diamondtriangles.svg	stimuli_target_rectanglediamonds.svg	14	yes	57	0	307	0	0			0	0			1				0	
6.6.1	win	2023-06-02	03:28:06	03:32:15	247055	5cc93ce7627fc30013fc22aa	4	1	main_z	7	main_z	59	stimuli_target_squarediamonds.svg	stimuli_distractor_trianglediamonds.svg	4	yes	44	1	838	0	0			0	0			1				0	
6.6.1	win	2023-06-02	03:28:06	03:32:15	247055	5cc93ce7627fc30013fc22aa	4	1	main_z	7	advance_on_keypress_ZEE	60	stimuli_target_squarediamonds.svg	stimuli_distractor_trianglediamonds.svg	4	yes	57	0	284	0	0			0	0			1				0	
6.6.1	win	2023-06-02	03:28:06	03:32:18	249959	5cc93ce7627fc30013fc22aa	4	1	main_z	7	main_z	61	stimuli_distractor_trianglediamonds.svg	stimuli_distractor_trianglediamonds.svg	33	no	0	1	2003	0	0			0	0			1				0	
6.6.1	win	2023-06-02	03:28:06	03:32:18	249959	5cc93ce7627fc30013fc22aa	4	1	main_z	7	advance_on_keypress_ZEE	62	stimuli_distractor_trianglediamonds.svg	stimuli_distractor_trianglediamonds.svg	33	no	57	0	306	0	0			0	0			1				0	
6.6.1	win	2023-06-02	03:28:06	03:32:20	251751	5cc93ce7627fc30013fc22aa	4	1	main_z	7	main_z	63	stimuli_distractor_diamondtriangles.svg	stimuli_target_squarediamonds.svg	16	yes	44	1	869	0	0			0	0			1				0	
6.6.1	win	2023-06-02	03:28:06	03:32:20	251751	5cc93ce7627fc30013fc22aa	4	1	main_z	7	advance_on_keypress_ZEE	64	stimuli_distractor_diamondtriangles.svg	stimuli_target_squarediamonds.svg	16	yes	57	0	321	0	0			0	0			1				0	
6.6.1	win	2023-06-02	03:28:06	03:32:22	253599	5cc93ce7627fc30013fc22aa	4	1	main_z	7	main_z	65	stimuli_distractor_diamondtriangles.svg	stimuli_target_diamondrectangles.svg	31	yes	44	1	910	0	0			0	0			1				0	
6.6.1	win	2023-06-02	03:28:06	03:32:22	253599	5cc93ce7627fc30013fc22aa	4	1	main_z	7	advance_on_keypress_ZEE	66	stimuli_distractor_diamondtriangles.svg	stimuli_target_diamondrectangles.svg	31	yes	57	0	352	0	0			0	0			1				0	
6.6.1	win	2023-06-02	03:28:06	03:32:24	255520	5cc93ce7627fc30013fc22aa	4	1	main_z	7	main_z	67	stimuli_distractor_trianglediamonds.svg	stimuli_target_trianglesquares.svg	26	yes	44	1	953	0	0			0	0			1				0	
6.6.1	win	2023-06-02	03:28:06	03:32:24	255520	5cc93ce7627fc30013fc22aa	4	1	main_z	7	advance_on_keypress_ZEE	68	stimuli_distractor_trianglediamonds.svg	stimuli_target_trianglesquares.svg	26	yes	57	0	281	0	0			0	0			1				0	
6.6.1	win	2023-06-02	03:28:06	03:32:27	258419	5cc93ce7627fc30013fc22aa	4	1	main_z	7	main_z	69	stimuli_distractor_trianglediamonds.svg	stimuli_distractor_diamondtriangles.svg	36	no	0	1	2003	0	0			0	0			1				0	
6.6.1	win	2023-06-02	03:28:06	03:32:27	258419	5cc93ce7627fc30013fc22aa	4	1	main_z	7	advance_on_keypress_ZEE	70	stimuli_distractor_trianglediamonds.svg	stimuli_distractor_diamondtriangles.svg	36	no	57	0	327	0	0			0	0			1				0	
6.6.1	win	2023-06-02	03:28:06	03:32:28	260135	5cc93ce7627fc30013fc22aa	4	1	main_z	7	main_z	71	stimuli_distractor_trianglediamonds.svg	stimuli_target_diamondsquares.svg	28	yes	44	1	773	0	0			0	0			1				0	
6.6.1	win	2023-06-02	03:28:06	03:32:28	260135	5cc93ce7627fc30013fc22aa	4	1	main_z	7	advance_on_keypress_ZEE	72	stimuli_distractor_trianglediamonds.svg	stimuli_target_diamondsquares.svg	28	yes	57	0	306	0	0			0	0			1				0	
6.6.1	win	2023-06-02	03:28:06	03:32:30	262159	5cc93ce7627fc30013fc22aa	4	1	main_z	7	main_z	73	stimuli_distractor_trianglediamonds.svg	stimuli_target_trianglerectangles.svg	25	yes	44	1	1100	0	0			0	0			1				0	
6.6.1	win	2023-06-02	03:28:06	03:32:30	262159	5cc93ce7627fc30013fc22aa	4	1	main_z	7	advance_on_keypress_ZEE	74	stimuli_distractor_trianglediamonds.svg	stimuli_target_trianglerectangles.svg	25	yes	57	0	275	0	0			0	0			1				0	
6.6.1	win	2023-06-02	03:28:06	03:32:33	265050	5cc93ce7627fc30013fc22aa	4	1	main_z	7	main_z	75	stimuli_distractor_diamondtriangles.svg	stimuli_distractor_diamondtriangles.svg	40	no	0	1	2003	0	0			0	0			1				0	
6.6.1	win	2023-06-02	03:28:06	03:32:33	265050	5cc93ce7627fc30013fc22aa	4	1	main_z	7	advance_on_keypress_ZEE	76	stimuli_distractor_diamondtriangles.svg	stimuli_distractor_diamondtriangles.svg	40	no	57	0	479	0	0			0	0			1				0	
6.6.1	win	2023-06-02	03:28:06	03:32:35	267023	5cc93ce7627fc30013fc22aa	4	1	main_z	7	main_z	77	stimuli_distractor_trianglediamonds.svg	stimuli_target_squaretriangles.svg	11	yes	44	1	876	0	0			0	0			1				0	
6.6.1	win	2023-06-02	03:28:06	03:32:35	267023	5cc93ce7627fc30013fc22aa	4	1	main_z	7	advance_on_keypress_ZEE	78	stimuli_distractor_trianglediamonds.svg	stimuli_target_squaretriangles.svg	11	yes	57	0	369	0	0			0	0			1				0	
6.6.1	win	2023-06-02	03:28:06	03:32:38	270014	5cc93ce7627fc30013fc22aa	4	1	main_z	7	main_z	79	stimuli_distractor_diamondtriangles.svg	stimuli_distractor_trianglediamonds.svg	37	no	0	1	2003	0	0			0	0			1				0	
6.6.1	win	2023-06-02	03:28:06	03:32:38	270014	5cc93ce7627fc30013fc22aa	4	1	main_z	7	advance_on_keypress_ZEE	80	stimuli_distractor_diamondtriangles.svg	stimuli_distractor_trianglediamonds.svg	37	no	57	0	412	0	0			0	0			1				0	
6.6.1	win	2023-06-02	03:28:06	03:32:40	271951	5cc93ce7627fc30013fc22aa	4	1	main_z	7	main_z	81	stimuli_target_rectangletriangles.svg	stimuli_distractor_diamondtriangles.svg	5	yes	44	1	910	0	0			0	0			1				0	
6.6.1	win	2023-06-02	03:28:06	03:32:40	271951	5cc93ce7627fc30013fc22aa	4	1	main_z	7	advance_on_keypress_ZEE	82	stimuli_target_rectangletriangles.svg	stimuli_distractor_diamondtriangles.svg	5	yes	57	0	408	0	0			0	0			1				0	
6.6.1	win	2023-06-02	03:28:06	03:32:42	273919	5cc93ce7627fc30013fc22aa	4	1	main_z	7	main_z	83	stimuli_distractor_diamondtriangles.svg	stimuli_target_rectanglediamonds.svg	14	yes	44	1	946	0	0			0	0			1				0	
6.6.1	win	2023-06-02	03:28:06	03:32:42	273919	5cc93ce7627fc30013fc22aa	4	1	main_z	7	advance_on_keypress_ZEE	84	stimuli_distractor_diamondtriangles.svg	stimuli_target_rectanglediamonds.svg	14	yes	57	0	425	0	0			0	0			1				0	
6.6.1	win	2023-06-02	03:28:06	03:32:45	276965	5cc93ce7627fc30013fc22aa	4	1	main_z	7	main_z	85	stimuli_distractor_trianglediamonds.svg	stimuli_distractor_trianglediamonds.svg	33	no	0	1	2003	0	0			0	0			1				0	
6.6.1	win	2023-06-02	03:28:06	03:32:45	276965	5cc93ce7627fc30013fc22aa	4	1	main_z	7	advance_on_keypress_ZEE	86	stimuli_distractor_trianglediamonds.svg	stimuli_distractor_trianglediamonds.svg	33	no	57	0	468	0	0			0	0			1				0	
6.6.1	win	2023-06-02	03:28:06	03:32:47	278823	5cc93ce7627fc30013fc22aa	4	1	main_z	7	main_z	87	stimuli_distractor_diamondtriangles.svg	stimuli_target_diamondsquares.svg	32	yes	44	1	775	0	0			0	0			1				0	
6.6.1	win	2023-06-02	03:28:06	03:32:47	278823	5cc93ce7627fc30013fc22aa	4	1	main_z	7	advance_on_keypress_ZEE	88	stimuli_distractor_diamondtriangles.svg	stimuli_target_diamondsquares.svg	32	yes	57	0	388	0	0			0	0			1				0	
6.6.1	win	2023-06-02	03:28:06	03:32:49	280727	5cc93ce7627fc30013fc22aa	4	1	main_z	7	main_z	89	stimuli_distractor_diamondtriangles.svg	stimuli_target_squarediamonds.svg	16	yes	44	1	900	0	0			0	0			1				0	
6.6.1	win	2023-06-02	03:28:06	03:32:49	280727	5cc93ce7627fc30013fc22aa	4	1	main_z	7	advance_on_keypress_ZEE	90	stimuli_distractor_diamondtriangles.svg	stimuli_target_squarediamonds.svg	16	yes	57	0	259	0	0			0	0			1				0	
6.6.1	win	2023-06-02	03:28:06	03:32:51	282519	5cc93ce7627fc30013fc22aa	4	1	main_z	7	main_z	91	stimuli_distractor_trianglediamonds.svg	stimuli_target_diamondrectangles.svg	27	yes	44	1	919	0	0			0	0			1				0	
6.6.1	win	2023-06-02	03:28:06	03:32:51	282519	5cc93ce7627fc30013fc22aa	4	1	main_z	7	advance_on_keypress_ZEE	92	stimuli_distractor_trianglediamonds.svg	stimuli_target_diamondrectangles.svg	27	yes	57	0	306	0	0			0	0			1				0	
6.6.1	win	2023-06-02	03:28:06	03:32:53	284327	5cc93ce7627fc30013fc22aa	4	1	main_z	7	main_z	93	stimuli_target_diamondsquares.svg	stimuli_distractor_trianglediamonds.svg	20	yes	44	1	885	0	0			0	0			1				0	
6.6.1	win	2023-06-02	03:28:06	03:32:53	284327	5cc93ce7627fc30013fc22aa	4	1	main_z	7	advance_on_keypress_ZEE	94	stimuli_target_diamondsquares.svg	stimuli_distractor_trianglediamonds.svg	20	yes	57	0	275	0	0			0	0			1				0	
6.6.1	win	2023-06-02	03:28:06	03:32:54	286055	5cc93ce7627fc30013fc22aa	4	1	main_z	7	main_z	95	stimuli_distractor_diamondtriangles.svg	stimuli_target_squaretriangles.svg	15	yes	44	1	840	0	0			0	0			1				0	
6.6.1	win	2023-06-02	03:28:06	03:32:54	286055	5cc93ce7627fc30013fc22aa	4	1	main_z	7	advance_on_keypress_ZEE	96	stimuli_distractor_diamondtriangles.svg	stimuli_target_squaretriangles.svg	15	yes	57	0	232	0	0			0	0			1				0	
6.6.1	win	2023-06-02	03:28:06	03:32:56	287751	5cc93ce7627fc30013fc22aa	4	1	main_z	7	main_z	97	stimuli_distractor_trianglediamonds.svg	stimuli_target_diamondsquares.svg	28	yes	44	1	847	0	0			0	0			1				0	
6.6.1	win	2023-06-02	03:28:06	03:32:56	287751	5cc93ce7627fc30013fc22aa	4	1	main_z	7	advance_on_keypress_ZEE	98	stimuli_distractor_trianglediamonds.svg	stimuli_target_diamondsquares.svg	28	yes	57	0	255	0	0			0	0			1				0	
6.6.1	win	2023-06-02	03:28:06	03:32:59	290618	5cc93ce7627fc30013fc22aa	4	1	main_z	7	main_z	99	stimuli_distractor_trianglediamonds.svg	stimuli_distractor_trianglediamonds.svg	34	no	0	1	2003	0	0			0	0			1				0	
6.6.1	win	2023-06-02	03:28:06	03:32:59	290618	5cc93ce7627fc30013fc22aa	4	1	main_z	7	advance_on_keypress_ZEE	100	stimuli_distractor_trianglediamonds.svg	stimuli_distractor_trianglediamonds.svg	34	no	57	0	304	0	0			0	0			1				0	
6.6.1	win	2023-06-02	03:28:06	03:33:00	292191	5cc93ce7627fc30013fc22aa	4	1	main_z	7	main_z	101	stimuli_target_squaretriangles.svg	stimuli_distractor_diamondtriangles.svg	7	yes	44	1	658	0	0			0	0			1				0	
6.6.1	win	2023-06-02	03:28:06	03:33:00	292191	5cc93ce7627fc30013fc22aa	4	1	main_z	7	advance_on_keypress_ZEE	102	stimuli_target_squaretriangles.svg	stimuli_distractor_diamondtriangles.svg	7	yes	57	0	301	0	0			0	0			1				0	
6.6.1	win	2023-06-02	03:28:06	03:33:02	293727	5cc93ce7627fc30013fc22aa	4	1	main_z	7	main_z	103	stimuli_distractor_diamondtriangles.svg	stimuli_target_trianglesquares.svg	30	yes	44	1	623	0	0			0	0			1				0	
6.6.1	win	2023-06-02	03:28:06	03:33:02	293727	5cc93ce7627fc30013fc22aa	4	1	main_z	7	advance_on_keypress_ZEE	104	stimuli_distractor_diamondtriangles.svg	stimuli_target_trianglesquares.svg	30	yes	57	0	276	0	0			0	0			1				0	
6.6.1	win	2023-06-02	03:28:06	03:33:04	295447	5cc93ce7627fc30013fc22aa	4	1	main_z	7	main_z	105	stimuli_target_squaretriangles.svg	stimuli_distractor_trianglediamonds.svg	3	yes	44	1	834	0	0			0	0			1				0	
6.6.1	win	2023-06-02	03:28:06	03:33:04	295447	5cc93ce7627fc30013fc22aa	4	1	main_z	7	advance_on_keypress_ZEE	106	stimuli_target_squaretriangles.svg	stimuli_distractor_trianglediamonds.svg	3	yes	57	0	248	0	0			0	0			1				0	
6.6.1	win	2023-06-02	03:28:06	03:33:05	297023	5cc93ce7627fc30013fc22aa	4	1	main_z	7	main_z	107	stimuli_distractor_trianglediamonds.svg	stimuli_target_trianglerectangles.svg	25	yes	44	1	714	0	0			0	0			1				0	
6.6.1	win	2023-06-02	03:28:06	03:33:05	297023	5cc93ce7627fc30013fc22aa	4	1	main_z	7	advance_on_keypress_ZEE	108	stimuli_distractor_trianglediamonds.svg	stimuli_target_trianglerectangles.svg	25	yes	57	0	245	0	0			0	0			1				0	
6.6.1	win	2023-06-02	03:28:06	03:33:07	299039	5cc93ce7627fc30013fc22aa	4	1	main_z	7	main_z	109	stimuli_target_trianglerectangles.svg	stimuli_distractor_trianglediamonds.svg	17	yes	44	1	1159	0	0			0	0			1				0	
6.6.1	win	2023-06-02	03:28:06	03:33:07	299039	5cc93ce7627fc30013fc22aa	4	1	main_z	7	advance_on_keypress_ZEE	110	stimuli_target_trianglerectangles.svg	stimuli_distractor_trianglediamonds.svg	17	yes	57	0	373	0	0			0	0			1				0	
6.6.1	win	2023-06-02	03:28:06	03:33:09	300864	5cc93ce7627fc30013fc22aa	4	1	main_z	7	main_z	111	stimuli_target_squarediamonds.svg	stimuli_distractor_trianglediamonds.svg	4	yes	44	1	842	0	0			0	0			1				0	
6.6.1	win	2023-06-02	03:28:06	03:33:09	300864	5cc93ce7627fc30013fc22aa	4	1	main_z	7	advance_on_keypress_ZEE	112	stimuli_target_squarediamonds.svg	stimuli_distractor_trianglediamonds.svg	4	yes	57	0	625	0	0			0	0			1				0	
6.6.1	win	2023-06-02	03:28:06	03:33:12	304110	5cc93ce7627fc30013fc22aa	4	1	main_z	7	main_z	113	stimuli_distractor_diamondtriangles.svg	stimuli_distractor_trianglediamonds.svg	37	no	0	1	2003	0	0			0	0			1				0	
6.6.1	win	2023-06-02	03:28:06	03:33:12	304110	5cc93ce7627fc30013fc22aa	4	1	main_z	7	advance_on_keypress_ZEE	114	stimuli_distractor_diamondtriangles.svg	stimuli_distractor_trianglediamonds.svg	37	no	57	0	435	0	0			0	0			1				0	
6.6.1	win	2023-06-02	03:28:06	03:33:15	307162	5cc93ce7627fc30013fc22aa	4	1	main_z	7	main_z	115	stimuli_distractor_trianglediamonds.svg	stimuli_distractor_diamondtriangles.svg	36	no	0	1	2003	0	0			0	0			1				0	
6.6.1	win	2023-06-02	03:28:06	03:33:15	307162	5cc93ce7627fc30013fc22aa	4	1	main_z	7	advance_on_keypress_ZEE	116	stimuli_distractor_trianglediamonds.svg	stimuli_distractor_diamondtriangles.svg	36	no	57	0	231	0	0			0	0			1				0	
6.6.1	win	2023-06-02	03:28:06	03:33:17	308863	5cc93ce7627fc30013fc22aa	4	1	main_z	7	main_z	117	stimuli_target_diamondrectangles.svg	stimuli_distractor_diamondtriangles.svg	23	yes	44	1	855	0	0			0	0			1				0	
6.6.1	win	2023-06-02	03:28:06	03:33:17	308863	5cc93ce7627fc30013fc22aa	4	1	main_z	7	advance_on_keypress_ZEE	118	stimuli_target_diamondrectangles.svg	stimuli_distractor_diamondtriangles.svg	23	yes	57	0	296	0	0			0	0			1				0	
6.6.1	win	2023-06-02	03:28:06	03:33:19	310543	5cc93ce7627fc30013fc22aa	4	1	main_z	7	main_z	119	stimuli_target_rectanglediamonds.svg	stimuli_distractor_diamondtriangles.svg	6	yes	44	1	769	0	0			0	0			1				0	
6.6.1	win	2023-06-02	03:28:06	03:33:19	310543	5cc93ce7627fc30013fc22aa	4	1	main_z	7	advance_on_keypress_ZEE	120	stimuli_target_rectanglediamonds.svg	stimuli_distractor_diamondtriangles.svg	6	yes	57	0	285	0	0			0	0			1				0	
6.6.1	win	2023-06-02	03:28:06	03:33:22	313446	5cc93ce7627fc30013fc22aa	4	1	main_z	7	main_z	121	stimuli_distractor_trianglediamonds.svg	stimuli_target_squaretriangles.svg	11	yes	0	0	2003	0	0			0	0			1				0	
6.6.1	win	2023-06-02	03:28:06	03:33:22	313446	5cc93ce7627fc30013fc22aa	4	1	main_z	7	advance_on_keypress_ZEE	122	stimuli_distractor_trianglediamonds.svg	stimuli_target_squaretriangles.svg	11	yes	57	0	299	0	0			0	0			1				0	
6.6.1	win	2023-06-02	03:28:06	03:33:23	315095	5cc93ce7627fc30013fc22aa	4	1	main_z	7	main_z	123	stimuli_distractor_diamondtriangles.svg	stimuli_target_diamondrectangles.svg	31	yes	44	1	733	0	0			0	0			1				0	
6.6.1	win	2023-06-02	03:28:06	03:33:23	315095	5cc93ce7627fc30013fc22aa	4	1	main_z	7	advance_on_keypress_ZEE	124	stimuli_distractor_diamondtriangles.svg	stimuli_target_diamondrectangles.svg	31	yes	57	0	292	0	0			0	0			1				0	
6.6.1	win	2023-06-02	03:28:06	03:33:25	316735	5cc93ce7627fc30013fc22aa	4	1	main_z	7	main_z	125	stimuli_distractor_diamondtriangles.svg	stimuli_target_trianglerectangles.svg	29	yes	44	1	733	0	0			0	0			1				0	
6.6.1	win	2023-06-02	03:28:06	03:33:25	316735	5cc93ce7627fc30013fc22aa	4	1	main_z	7	advance_on_keypress_ZEE	126	stimuli_distractor_diamondtriangles.svg	stimuli_target_trianglerectangles.svg	29	yes	57	0	235	0	0			0	0			1				0	
6.6.1	win	2023-06-02	03:28:06	03:33:28	319591	5cc93ce7627fc30013fc22aa	4	1	main_z	7	main_z	127	stimuli_distractor_trianglediamonds.svg	stimuli_distractor_diamondtriangles.svg	35	no	0	1	2003	0	0			0	0			1				0	
6.6.1	win	2023-06-02	03:28:06	03:33:28	319591	5cc93ce7627fc30013fc22aa	4	1	main_z	7	advance_on_keypress_ZEE	128	stimuli_distractor_trianglediamonds.svg	stimuli_distractor_diamondtriangles.svg	35	no	57	0	306	0	0			0	0			1				0	
6.6.1	win	2023-06-02	03:28:06	03:33:29	321015	5cc93ce7627fc30013fc22aa	4	1	main_z	7	main_z	129	stimuli_target_squarediamonds.svg	stimuli_distractor_diamondtriangles.svg	8	yes	44	1	501	0	0			0	0			1				0	
6.6.1	win	2023-06-02	03:28:06	03:33:29	321015	5cc93ce7627fc30013fc22aa	4	1	main_z	7	advance_on_keypress_ZEE	130	stimuli_target_squarediamonds.svg	stimuli_distractor_diamondtriangles.svg	8	yes	57	0	337	0	0			0	0			1				0	
6.6.1	win	2023-06-02	03:28:06	03:33:31	322487	5cc93ce7627fc30013fc22aa	4	1	main_z	7	main_z	131	stimuli_distractor_trianglediamonds.svg	stimuli_target_rectanglediamonds.svg	10	yes	44	1	520	0	0			0	0			1				0	
6.6.1	win	2023-06-02	03:28:06	03:33:31	322487	5cc93ce7627fc30013fc22aa	4	1	main_z	7	advance_on_keypress_ZEE	132	stimuli_distractor_trianglediamonds.svg	stimuli_target_rectanglediamonds.svg	10	yes	57	0	262	0	0			0	0			1				0	
6.6.1	win	2023-06-02	03:28:06	03:33:32	323943	5cc93ce7627fc30013fc22aa	4	1	main_z	7	main_z	133	stimuli_distractor_trianglediamonds.svg	stimuli_target_squarediamonds.svg	12	yes	44	1	586	0	0			0	0			1				0	
6.6.1	win	2023-06-02	03:28:06	03:33:32	323943	5cc93ce7627fc30013fc22aa	4	1	main_z	7	advance_on_keypress_ZEE	134	stimuli_distractor_trianglediamonds.svg	stimuli_target_squarediamonds.svg	12	yes	57	0	259	0	0			0	0			1				0	
6.6.1	win	2023-06-02	03:28:06	03:33:34	325375	5cc93ce7627fc30013fc22aa	4	1	main_z	7	main_z	135	stimuli_target_rectanglediamonds.svg	stimuli_distractor_trianglediamonds.svg	2	yes	44	1	558	0	0			0	0			1				0	
6.6.1	win	2023-06-02	03:28:06	03:33:34	325375	5cc93ce7627fc30013fc22aa	4	1	main_z	7	advance_on_keypress_ZEE	136	stimuli_target_rectanglediamonds.svg	stimuli_distractor_trianglediamonds.svg	2	yes	57	0	211	0	0			0	0			1				0	
6.6.1	win	2023-06-02	03:28:06	03:33:35	326687	5cc93ce7627fc30013fc22aa	4	1	main_z	7	main_z	137	stimuli_distractor_diamondtriangles.svg	stimuli_target_rectangletriangles.svg	13	yes	44	1	487	0	0			0	0			1				0	
6.6.1	win	2023-06-02	03:28:06	03:33:35	326687	5cc93ce7627fc30013fc22aa	4	1	main_z	7	advance_on_keypress_ZEE	138	stimuli_distractor_diamondtriangles.svg	stimuli_target_rectangletriangles.svg	13	yes	57	0	249	0	0			0	0			1				0	
6.6.1	win	2023-06-02	03:28:06	03:33:38	329552	5cc93ce7627fc30013fc22aa	4	1	main_z	7	main_z	139	stimuli_distractor_diamondtriangles.svg	stimuli_distractor_diamondtriangles.svg	40	no	0	1	2003	0	0			0	0			1				0	
6.6.1	win	2023-06-02	03:28:06	03:33:38	329552	5cc93ce7627fc30013fc22aa	4	1	main_z	7	advance_on_keypress_ZEE	140	stimuli_distractor_diamondtriangles.svg	stimuli_distractor_diamondtriangles.svg	40	no	57	0	313	0	0			0	0			1				0	
6.6.1	win	2023-06-02	03:28:06	03:33:39	331207	5cc93ce7627fc30013fc22aa	4	1	main_z	7	main_z	141	stimuli_target_diamondrectangles.svg	stimuli_distractor_trianglediamonds.svg	19	yes	44	1	725	0	0			0	0			1				0	
6.6.1	win	2023-06-02	03:28:06	03:33:39	331207	5cc93ce7627fc30013fc22aa	4	1	main_z	7	advance_on_keypress_ZEE	142	stimuli_target_diamondrectangles.svg	stimuli_distractor_trianglediamonds.svg	19	yes	57	0	498	0	0			0	0			1				0	
6.6.1	win	2023-06-02	03:28:06	03:33:41	332919	5cc93ce7627fc30013fc22aa	4	1	main_z	7	main_z	143	stimuli_target_diamondsquares.svg	stimuli_distractor_diamondtriangles.svg	24	yes	44	1	602	0	0			0	0			1				0	
6.6.1	win	2023-06-02	03:28:06	03:33:41	332919	5cc93ce7627fc30013fc22aa	4	1	main_z	7	advance_on_keypress_ZEE	144	stimuli_target_diamondsquares.svg	stimuli_distractor_diamondtriangles.svg	24	yes	57	0	212	0	0			0	0			1				0	
6.6.1	win	2023-06-02	03:28:06	03:33:44	335746	5cc93ce7627fc30013fc22aa	4	1	main_z	7	main_z	145	stimuli_distractor_diamondtriangles.svg	stimuli_distractor_trianglediamonds.svg	38	no	0	1	2003	0	0			0	0			1				0	
6.6.1	win	2023-06-02	03:28:06	03:33:44	335746	5cc93ce7627fc30013fc22aa	4	1	main_z	7	advance_on_keypress_ZEE	146	stimuli_distractor_diamondtriangles.svg	stimuli_distractor_trianglediamonds.svg	38	no	57	0	351	0	0			0	0			1				0	
6.6.1	win	2023-06-02	03:28:06	03:33:47	338715	5cc93ce7627fc30013fc22aa	4	1	main_z	7	main_z	147	stimuli_distractor_diamondtriangles.svg	stimuli_distractor_diamondtriangles.svg	39	no	0	1	2003	0	0			0	0			1				0	
6.6.1	win	2023-06-02	03:28:06	03:33:47	338715	5cc93ce7627fc30013fc22aa	4	1	main_z	7	advance_on_keypress_ZEE	148	stimuli_distractor_diamondtriangles.svg	stimuli_distractor_diamondtriangles.svg	39	no	57	0	295	0	0			0	0			1				0	
6.6.1	win	2023-06-02	03:28:06	03:33:48	340200	5cc93ce7627fc30013fc22aa	4	1	main_z	7	main_z	149	stimuli_target_trianglesquares.svg	stimuli_distractor_trianglediamonds.svg	18	yes	44	1	576	0	0			0	0			1				0	
6.6.1	win	2023-06-02	03:28:06	03:33:48	340200	5cc93ce7627fc30013fc22aa	4	1	main_z	7	advance_on_keypress_ZEE	150	stimuli_target_trianglesquares.svg	stimuli_distractor_trianglediamonds.svg	18	yes	57	0	406	0	0			0	0			1				0	
6.6.1	win	2023-06-02	03:28:06	03:33:50	341751	5cc93ce7627fc30013fc22aa	4	1	main_z	7	main_z	151	stimuli_distractor_trianglediamonds.svg	stimuli_target_trianglesquares.svg	26	yes	44	1	536	0	0			0	0			1				0	
6.6.1	win	2023-06-02	03:28:06	03:33:50	341751	5cc93ce7627fc30013fc22aa	4	1	main_z	7	advance_on_keypress_ZEE	152	stimuli_distractor_trianglediamonds.svg	stimuli_target_trianglesquares.svg	26	yes	57	0	241	0	0			0	0			1				0	
6.6.1	win	2023-06-02	03:28:06	03:33:51	343223	5cc93ce7627fc30013fc22aa	4	1	main_z	7	main_z	153	stimuli_target_rectangletriangles.svg	stimuli_distractor_trianglediamonds.svg	1	yes	44	1	618	0	0			0	0			1				0	
6.6.1	win	2023-06-02	03:28:06	03:33:51	343223	5cc93ce7627fc30013fc22aa	4	1	main_z	7	advance_on_keypress_ZEE	154	stimuli_target_rectangletriangles.svg	stimuli_distractor_trianglediamonds.svg	1	yes	57	0	230	0	0			0	0			1				0	
6.6.1	win	2023-06-02	03:28:06	03:33:53	344567	5cc93ce7627fc30013fc22aa	4	1	main_z	7	main_z	155	stimuli_target_trianglesquares.svg	stimuli_distractor_diamondtriangles.svg	22	yes	44	1	502	0	0			0	0			1				0	
6.6.1	win	2023-06-02	03:28:06	03:33:53	344567	5cc93ce7627fc30013fc22aa	4	1	main_z	7	advance_on_keypress_ZEE	156	stimuli_target_trianglesquares.svg	stimuli_distractor_diamondtriangles.svg	22	yes	57	0	290	0	0			0	0			1				0	
6.6.1	win	2023-06-02	03:28:06	03:33:54	345967	5cc93ce7627fc30013fc22aa	4	1	main_z	7	main_z	157	stimuli_target_trianglerectangles.svg	stimuli_distractor_diamondtriangles.svg	21	yes	44	1	498	0	0			0	0			1				0	
6.6.1	win	2023-06-02	03:28:06	03:33:54	345967	5cc93ce7627fc30013fc22aa	4	1	main_z	7	advance_on_keypress_ZEE	158	stimuli_target_trianglerectangles.svg	stimuli_distractor_diamondtriangles.svg	21	yes	57	0	276	0	0			0	0			1				0	
6.6.1	win	2023-06-02	03:28:06	03:33:56	347559	5cc93ce7627fc30013fc22aa	4	1	main_z	7	main_z	159	stimuli_distractor_trianglediamonds.svg	stimuli_target_rectangletriangles.svg	9	yes	44	1	706	0	0			0	0			1				0	
6.6.1	win	2023-06-02	03:28:06	03:33:56	347559	5cc93ce7627fc30013fc22aa	4	1	main_z	7	advance_on_keypress_ZEE	160	stimuli_distractor_trianglediamonds.svg	stimuli_target_rectangletriangles.svg	9	yes	57	0	277	0	0			0	0			1				0	
6.6.1	win	2023-06-02	03:28:06	03:34:11	362791	5cc93ce7627fc30013fc22aa	4	1	practice_slash	9	practice_slash	1	stimuli_target_squarediamonds.svg	stimuli_distractor_diamondtriangles.svg	2	yes	53	1	375	0	0			0	0			1				0	
6.6.1	win	2023-06-02	03:28:06	03:34:11	362791	5cc93ce7627fc30013fc22aa	4	1	practice_slash	9	advance_on_keypress_SLASH	2	stimuli_target_squarediamonds.svg	stimuli_distractor_diamondtriangles.svg	2	yes	57	0	431	0	0			0	0			1				0	
6.6.1	win	2023-06-02	03:28:06	03:34:13	365271	5cc93ce7627fc30013fc22aa	4	1	practice_slash	9	practice_slash	3	stimuli_target_rectanglediamonds.svg	stimuli_distractor_trianglediamonds.svg	4	yes	53	1	429	0	0			0	0			1				0	
6.6.1	win	2023-06-02	03:28:06	03:34:13	365271	5cc93ce7627fc30013fc22aa	4	1	practice_slash	9	advance_on_keypress_SLASH	4	stimuli_target_rectanglediamonds.svg	stimuli_distractor_trianglediamonds.svg	4	yes	57	0	412	0	0			0	0			1				0	
6.6.1	win	2023-06-02	03:28:06	03:34:18	369300	5cc93ce7627fc30013fc22aa	4	1	practice_slash	9	practice_slash	5	stimuli_distractor_diamondtriangles.svg	stimuli_distractor_diamondtriangles.svg	13	no	0	1	2003	0	0			0	0			1				0	
6.6.1	win	2023-06-02	03:28:06	03:34:18	369300	5cc93ce7627fc30013fc22aa	4	1	practice_slash	9	advance_on_keypress_SLASH	6	stimuli_distractor_diamondtriangles.svg	stimuli_distractor_diamondtriangles.svg	13	no	57	0	181	0	0			0	0			1				0	
6.6.1	win	2023-06-02	03:28:06	03:34:20	371704	5cc93ce7627fc30013fc22aa	4	1	practice_slash	9	practice_slash	7	stimuli_target_diamondsquares.svg	stimuli_distractor_trianglediamonds.svg	6	yes	53	1	605	0	0			0	0			1				0	
6.6.1	win	2023-06-02	03:28:06	03:34:20	371704	5cc93ce7627fc30013fc22aa	4	1	practice_slash	9	advance_on_keypress_SLASH	8	stimuli_target_diamondsquares.svg	stimuli_distractor_trianglediamonds.svg	6	yes	57	0	271	0	0			0	0			1				0	
6.6.1	win	2023-06-02	03:28:06	03:34:22	374096	5cc93ce7627fc30013fc22aa	4	1	practice_slash	9	practice_slash	9	stimuli_target_diamondsquares.svg	stimuli_distractor_diamondtriangles.svg	3	yes	53	1	501	0	0			0	0			1				0	
6.6.1	win	2023-06-02	03:28:06	03:34:22	374096	5cc93ce7627fc30013fc22aa	4	1	practice_slash	9	advance_on_keypress_SLASH	10	stimuli_target_diamondsquares.svg	stimuli_distractor_diamondtriangles.svg	3	yes	57	0	232	0	0			0	0			1				0	
6.6.1	win	2023-06-02	03:28:06	03:34:25	376341	5cc93ce7627fc30013fc22aa	4	1	practice_slash	9	practice_slash	11	stimuli_target_squarediamonds.svg	stimuli_distractor_trianglediamonds.svg	5	yes	53	1	392	0	0			0	0			1				0	
6.6.1	win	2023-06-02	03:28:06	03:34:25	376341	5cc93ce7627fc30013fc22aa	4	1	practice_slash	9	advance_on_keypress_SLASH	12	stimuli_target_squarediamonds.svg	stimuli_distractor_trianglediamonds.svg	5	yes	57	0	251	0	0			0	0			1				0	
6.6.1	win	2023-06-02	03:28:06	03:34:27	378944	5cc93ce7627fc30013fc22aa	4	1	practice_slash	9	practice_slash	13	stimuli_distractor_diamondtriangles.svg	stimuli_target_diamondrectangles.svg	8	yes	53	1	733	0	0			0	0			1				0	
6.6.1	win	2023-06-02	03:28:06	03:34:27	378944	5cc93ce7627fc30013fc22aa	4	1	practice_slash	9	advance_on_keypress_SLASH	14	stimuli_distractor_diamondtriangles.svg	stimuli_target_diamondrectangles.svg	8	yes	57	0	259	0	0			0	0			1				0	
6.6.1	win	2023-06-02	03:28:06	03:34:30	381392	5cc93ce7627fc30013fc22aa	4	1	practice_slash	9	practice_slash	15	stimuli_distractor_trianglediamonds.svg	stimuli_target_rectanglediamonds.svg	10	yes	53	1	575	0	0			0	0			1				0	
6.6.1	win	2023-06-02	03:28:06	03:34:30	381392	5cc93ce7627fc30013fc22aa	4	1	practice_slash	9	advance_on_keypress_SLASH	16	stimuli_distractor_trianglediamonds.svg	stimuli_target_rectanglediamonds.svg	10	yes	57	0	196	0	0			0	0			1				0	
6.6.1	win	2023-06-02	03:28:06	03:34:33	385205	5cc93ce7627fc30013fc22aa	4	1	practice_slash	9	practice_slash	17	stimuli_distractor_diamondtriangles.svg	stimuli_target_rectangletriangles.svg	7	yes	0	0	2003	0	0			0	0			1				0	
6.6.1	win	2023-06-02	03:28:06	03:34:33	385205	5cc93ce7627fc30013fc22aa	4	1	practice_slash	9	advance_on_keypress_SLASH	18	stimuli_distractor_diamondtriangles.svg	stimuli_target_rectangletriangles.svg	7	yes	57	0	620	0	0			0	0			1				0	
6.6.1	win	2023-06-02	03:28:06	03:34:36	388048	5cc93ce7627fc30013fc22aa	4	1	practice_slash	9	practice_slash	19	stimuli_distractor_trianglediamonds.svg	stimuli_target_squarediamonds.svg	11	yes	53	1	606	0	0			0	0			1				0	
6.6.1	win	2023-06-02	03:28:06	03:34:36	388048	5cc93ce7627fc30013fc22aa	4	1	practice_slash	9	advance_on_keypress_SLASH	20	stimuli_distractor_trianglediamonds.svg	stimuli_target_squarediamonds.svg	11	yes	57	0	361	0	0			0	0			1				0	
6.6.1	win	2023-06-02	03:28:06	03:34:39	390503	5cc93ce7627fc30013fc22aa	4	1	practice_slash	9	practice_slash	21	stimuli_target_rectanglediamonds.svg	stimuli_distractor_diamondtriangles.svg	1	yes	53	1	476	0	0			0	0			1				0	
6.6.1	win	2023-06-02	03:28:06	03:34:39	390503	5cc93ce7627fc30013fc22aa	4	1	practice_slash	9	advance_on_keypress_SLASH	22	stimuli_target_rectanglediamonds.svg	stimuli_distractor_diamondtriangles.svg	1	yes	57	0	291	0	0			0	0			1				0	
6.6.1	win	2023-06-02	03:28:06	03:34:41	392960	5cc93ce7627fc30013fc22aa	4	1	practice_slash	9	practice_slash	23	stimuli_distractor_trianglediamonds.svg	stimuli_target_diamondrectangles.svg	12	yes	53	1	548	0	0			0	0			1				0	
6.6.1	win	2023-06-02	03:28:06	03:34:41	392960	5cc93ce7627fc30013fc22aa	4	1	practice_slash	9	advance_on_keypress_SLASH	24	stimuli_distractor_trianglediamonds.svg	stimuli_target_diamondrectangles.svg	12	yes	57	0	301	0	0			0	0			1				0	
6.6.1	win	2023-06-02	03:28:06	03:34:45	396877	5cc93ce7627fc30013fc22aa	4	1	practice_slash	9	practice_slash	25	stimuli_distractor_trianglediamonds.svg	stimuli_distractor_diamondtriangles.svg	16	no	0	1	2003	0	0			0	0			1				0	
6.6.1	win	2023-06-02	03:28:06	03:34:45	396877	5cc93ce7627fc30013fc22aa	4	1	practice_slash	9	advance_on_keypress_SLASH	26	stimuli_distractor_trianglediamonds.svg	stimuli_distractor_diamondtriangles.svg	16	no	57	0	252	0	0			0	0			1				0	
6.6.1	win	2023-06-02	03:28:06	03:34:49	400749	5cc93ce7627fc30013fc22aa	4	1	practice_slash	9	practice_slash	27	stimuli_distractor_diamondtriangles.svg	stimuli_distractor_trianglediamonds.svg	14	no	0	1	2003	0	0			0	0			1				0	
6.6.1	win	2023-06-02	03:28:06	03:34:49	400749	5cc93ce7627fc30013fc22aa	4	1	practice_slash	9	advance_on_keypress_SLASH	28	stimuli_distractor_diamondtriangles.svg	stimuli_distractor_trianglediamonds.svg	14	no	57	0	292	0	0			0	0			1				0	
6.6.1	win	2023-06-02	03:28:06	03:34:53	404662	5cc93ce7627fc30013fc22aa	4	1	practice_slash	9	practice_slash	29	stimuli_distractor_trianglediamonds.svg	stimuli_distractor_trianglediamonds.svg	15	no	0	1	2003	0	0			0	0			1				0	
6.6.1	win	2023-06-02	03:28:06	03:34:53	404662	5cc93ce7627fc30013fc22aa	4	1	practice_slash	9	advance_on_keypress_SLASH	30	stimuli_distractor_trianglediamonds.svg	stimuli_distractor_trianglediamonds.svg	15	no	57	0	411	0	0			0	0			1				0	
6.6.1	win	2023-06-02	03:28:06	03:34:56	407600	5cc93ce7627fc30013fc22aa	4	1	practice_slash	9	practice_slash	31	stimuli_distractor_diamondtriangles.svg	stimuli_target_trianglerectangles.svg	9	yes	53	1	909	0	0			0	0			1				0	
6.6.1	win	2023-06-02	03:28:06	03:34:56	407600	5cc93ce7627fc30013fc22aa	4	1	practice_slash	9	advance_on_keypress_SLASH	32	stimuli_distractor_diamondtriangles.svg	stimuli_target_trianglerectangles.svg	9	yes	57	0	269	0	0			0	0			1				0	
6.6.1	win	2023-06-02	03:28:06	03:35:00	412066	5cc93ce7627fc30013fc22aa	4	1	main_slash	11	main_slash	1	stimuli_distractor_diamondtriangles.svg	stimuli_distractor_diamondtriangles.svg	40	no	0	1	2003	0	0			0	0			1				0	
6.6.1	win	2023-06-02	03:28:06	03:35:00	412066	5cc93ce7627fc30013fc22aa	4	1	main_slash	11	advance_on_keypress_SLASH	2	stimuli_distractor_diamondtriangles.svg	stimuli_distractor_diamondtriangles.svg	40	no	57	0	471	0	0			0	0			1				0	
6.6.1	win	2023-06-02	03:28:06	03:35:02	413655	5cc93ce7627fc30013fc22aa	4	1	main_slash	11	main_slash	3	stimuli_distractor_trianglediamonds.svg	stimuli_target_diamondrectangles.svg	27	yes	53	1	500	0	0			0	0			1				0	
6.6.1	win	2023-06-02	03:28:06	03:35:02	413655	5cc93ce7627fc30013fc22aa	4	1	main_slash	11	advance_on_keypress_SLASH	4	stimuli_distractor_trianglediamonds.svg	stimuli_target_diamondrectangles.svg	27	yes	57	0	400	0	0			0	0			1				0	
6.6.1	win	2023-06-02	03:28:06	03:35:03	415127	5cc93ce7627fc30013fc22aa	4	1	main_slash	11	main_slash	5	stimuli_target_squarediamonds.svg	stimuli_distractor_trianglediamonds.svg	4	yes	53	1	456	0	0			0	0			1				0	
6.6.1	win	2023-06-02	03:28:06	03:35:03	415127	5cc93ce7627fc30013fc22aa	4	1	main_slash	11	advance_on_keypress_SLASH	6	stimuli_target_squarediamonds.svg	stimuli_distractor_trianglediamonds.svg	4	yes	57	0	325	0	0			0	0			1				0	
6.6.1	win	2023-06-02	03:28:06	03:35:05	416672	5cc93ce7627fc30013fc22aa	4	1	main_slash	11	main_slash	7	stimuli_target_diamondsquares.svg	stimuli_distractor_diamondtriangles.svg	24	yes	53	1	603	0	0			0	0			1				0	
6.6.1	win	2023-06-02	03:28:06	03:35:05	416672	5cc93ce7627fc30013fc22aa	4	1	main_slash	11	advance_on_keypress_SLASH	8	stimuli_target_diamondsquares.svg	stimuli_distractor_diamondtriangles.svg	24	yes	57	0	294	0	0			0	0			1				0	
6.6.1	win	2023-06-02	03:28:06	03:35:06	417943	5cc93ce7627fc30013fc22aa	4	1	main_slash	11	main_slash	9	stimuli_distractor_diamondtriangles.svg	stimuli_target_trianglesquares.svg	30	yes	53	1	366	0	0			0	0			1				0	
6.6.1	win	2023-06-02	03:28:06	03:35:06	417943	5cc93ce7627fc30013fc22aa	4	1	main_slash	11	advance_on_keypress_SLASH	10	stimuli_distractor_diamondtriangles.svg	stimuli_target_trianglesquares.svg	30	yes	57	0	278	0	0			0	0			1				0	
6.6.1	win	2023-06-02	03:28:06	03:35:08	419311	5cc93ce7627fc30013fc22aa	4	1	main_slash	11	main_slash	11	stimuli_target_rectangletriangles.svg	stimuli_distractor_trianglediamonds.svg	1	yes	53	1	476	0	0			0	0			1				0	
6.6.1	win	2023-06-02	03:28:06	03:35:08	419311	5cc93ce7627fc30013fc22aa	4	1	main_slash	11	advance_on_keypress_SLASH	12	stimuli_target_rectangletriangles.svg	stimuli_distractor_trianglediamonds.svg	1	yes	57	0	292	0	0			0	0			1				0	
6.6.1	win	2023-06-02	03:28:06	03:35:09	420679	5cc93ce7627fc30013fc22aa	4	1	main_slash	11	main_slash	13	stimuli_target_rectanglediamonds.svg	stimuli_distractor_diamondtriangles.svg	6	yes	53	1	461	0	0			0	0			1				0	
6.6.1	win	2023-06-02	03:28:06	03:35:09	420679	5cc93ce7627fc30013fc22aa	4	1	main_slash	11	advance_on_keypress_SLASH	14	stimuli_target_rectanglediamonds.svg	stimuli_distractor_diamondtriangles.svg	6	yes	57	0	307	0	0			0	0			1				0	
6.6.1	win	2023-06-02	03:28:06	03:35:10	421999	5cc93ce7627fc30013fc22aa	4	1	main_slash	11	main_slash	15	stimuli_distractor_diamondtriangles.svg	stimuli_target_squarediamonds.svg	16	yes	53	1	390	0	0			0	0			1				0	
6.6.1	win	2023-06-02	03:28:06	03:35:10	421999	5cc93ce7627fc30013fc22aa	4	1	main_slash	11	advance_on_keypress_SLASH	16	stimuli_distractor_diamondtriangles.svg	stimuli_target_squarediamonds.svg	16	yes	57	0	258	0	0			0	0			1				0	
6.6.1	win	2023-06-02	03:28:06	03:35:12	423440	5cc93ce7627fc30013fc22aa	4	1	main_slash	11	main_slash	17	stimuli_target_squaretriangles.svg	stimuli_distractor_trianglediamonds.svg	3	yes	53	1	566	0	0			0	0			1				0	
6.6.1	win	2023-06-02	03:28:06	03:35:12	423440	5cc93ce7627fc30013fc22aa	4	1	main_slash	11	advance_on_keypress_SLASH	18	stimuli_target_squaretriangles.svg	stimuli_distractor_trianglediamonds.svg	3	yes	57	0	275	0	0			0	0			1				0	
6.6.1	win	2023-06-02	03:28:06	03:35:13	424727	5cc93ce7627fc30013fc22aa	4	1	main_slash	11	main_slash	19	stimuli_target_rectangletriangles.svg	stimuli_distractor_diamondtriangles.svg	5	yes	53	1	401	0	0			0	0			1				0	
6.6.1	win	2023-06-02	03:28:06	03:35:13	424727	5cc93ce7627fc30013fc22aa	4	1	main_slash	11	advance_on_keypress_SLASH	20	stimuli_target_rectangletriangles.svg	stimuli_distractor_diamondtriangles.svg	5	yes	57	0	277	0	0			0	0			1				0	
6.6.1	win	2023-06-02	03:28:06	03:35:14	426008	5cc93ce7627fc30013fc22aa	4	1	main_slash	11	main_slash	21	stimuli_distractor_trianglediamonds.svg	stimuli_target_rectangletriangles.svg	9	yes	53	1	388	0	0			0	0			1				0	
6.6.1	win	2023-06-02	03:28:06	03:35:14	426008	5cc93ce7627fc30013fc22aa	4	1	main_slash	11	advance_on_keypress_SLASH	22	stimuli_distractor_trianglediamonds.svg	stimuli_target_rectangletriangles.svg	9	yes	57	0	238	0	0			0	0			1				0	
6.6.1	win	2023-06-02	03:28:06	03:35:15	427255	5cc93ce7627fc30013fc22aa	4	1	main_slash	11	main_slash	23	stimuli_target_trianglesquares.svg	stimuli_distractor_trianglediamonds.svg	18	yes	53	1	398	0	0			0	0			1				0	
6.6.1	win	2023-06-02	03:28:06	03:35:15	427255	5cc93ce7627fc30013fc22aa	4	1	main_slash	11	advance_on_keypress_SLASH	24	stimuli_target_trianglesquares.svg	stimuli_distractor_trianglediamonds.svg	18	yes	57	0	251	0	0			0	0			1				0	
6.6.1	win	2023-06-02	03:28:06	03:35:17	428520	5cc93ce7627fc30013fc22aa	4	1	main_slash	11	main_slash	25	stimuli_target_trianglerectangles.svg	stimuli_distractor_diamondtriangles.svg	21	yes	53	1	389	0	0			0	0			1				0	
6.6.1	win	2023-06-02	03:28:06	03:35:17	428520	5cc93ce7627fc30013fc22aa	4	1	main_slash	11	advance_on_keypress_SLASH	26	stimuli_target_trianglerectangles.svg	stimuli_distractor_diamondtriangles.svg	21	yes	57	0	249	0	0			0	0			1				0	
6.6.1	win	2023-06-02	03:28:06	03:35:18	429743	5cc93ce7627fc30013fc22aa	4	1	main_slash	11	main_slash	27	stimuli_target_trianglesquares.svg	stimuli_distractor_diamondtriangles.svg	22	yes	53	1	356	0	0			0	0			1				0	
6.6.1	win	2023-06-02	03:28:06	03:35:18	429743	5cc93ce7627fc30013fc22aa	4	1	main_slash	11	advance_on_keypress_SLASH	28	stimuli_target_trianglesquares.svg	stimuli_distractor_diamondtriangles.svg	22	yes	57	0	266	0	0			0	0			1				0	
6.6.1	win	2023-06-02	03:28:06	03:35:19	430991	5cc93ce7627fc30013fc22aa	4	1	main_slash	11	main_slash	29	stimuli_target_rectanglediamonds.svg	stimuli_distractor_trianglediamonds.svg	2	yes	53	1	367	0	0			0	0			1				0	
6.6.1	win	2023-06-02	03:28:06	03:35:19	430991	5cc93ce7627fc30013fc22aa	4	1	main_slash	11	advance_on_keypress_SLASH	30	stimuli_target_rectanglediamonds.svg	stimuli_distractor_trianglediamonds.svg	2	yes	57	0	262	0	0			0	0			1				0	
6.6.1	win	2023-06-02	03:28:06	03:35:21	432311	5cc93ce7627fc30013fc22aa	4	1	main_slash	11	main_slash	31	stimuli_target_squarediamonds.svg	stimuli_distractor_diamondtriangles.svg	8	yes	53	1	449	0	0			0	0			1				0	
6.6.1	win	2023-06-02	03:28:06	03:35:21	432311	5cc93ce7627fc30013fc22aa	4	1	main_slash	11	advance_on_keypress_SLASH	32	stimuli_target_squarediamonds.svg	stimuli_distractor_diamondtriangles.svg	8	yes	57	0	245	0	0			0	0			1				0	
6.6.1	win	2023-06-02	03:28:06	03:35:23	434544	5cc93ce7627fc30013fc22aa	4	1	main_slash	11	main_slash	33	stimuli_distractor_trianglediamonds.svg	stimuli_target_trianglerectangles.svg	25	yes	53	1	1375	0	0			0	0			1				0	
6.6.1	win	2023-06-02	03:28:06	03:35:23	434544	5cc93ce7627fc30013fc22aa	4	1	main_slash	11	advance_on_keypress_SLASH	34	stimuli_distractor_trianglediamonds.svg	stimuli_target_trianglerectangles.svg	25	yes	57	0	398	0	0			0	0			1				0	
6.6.1	win	2023-06-02	03:28:06	03:35:26	437557	5cc93ce7627fc30013fc22aa	4	1	main_slash	11	main_slash	35	stimuli_distractor_trianglediamonds.svg	stimuli_target_squarediamonds.svg	12	yes	0	0	2003	0	0			0	0			1				0	
6.6.1	win	2023-06-02	03:28:06	03:35:26	437557	5cc93ce7627fc30013fc22aa	4	1	main_slash	11	advance_on_keypress_SLASH	36	stimuli_distractor_trianglediamonds.svg	stimuli_target_squarediamonds.svg	12	yes	57	0	805	0	0			0	0			1				0	
6.6.1	win	2023-06-02	03:28:06	03:35:28	439544	5cc93ce7627fc30013fc22aa	4	1	main_slash	11	main_slash	37	stimuli_distractor_trianglediamonds.svg	stimuli_target_rectanglediamonds.svg	10	yes	53	1	570	0	0			0	0			1				0	
6.6.1	win	2023-06-02	03:28:06	03:35:28	439544	5cc93ce7627fc30013fc22aa	4	1	main_slash	11	advance_on_keypress_SLASH	38	stimuli_distractor_trianglediamonds.svg	stimuli_target_rectanglediamonds.svg	10	yes	57	0	344	0	0			0	0			1				0	
6.6.1	win	2023-06-02	03:28:06	03:35:29	441127	5cc93ce7627fc30013fc22aa	4	1	main_slash	11	main_slash	39	stimuli_distractor_diamondtriangles.svg	stimuli_target_diamondrectangles.svg	31	yes	53	1	625	0	0			0	0			1				0	
6.6.1	win	2023-06-02	03:28:06	03:35:29	441127	5cc93ce7627fc30013fc22aa	4	1	main_slash	11	advance_on_keypress_SLASH	40	stimuli_distractor_diamondtriangles.svg	stimuli_target_diamondrectangles.svg	31	yes	57	0	263	0	0			0	0			1				0	
6.6.1	win	2023-06-02	03:28:06	03:35:32	444001	5cc93ce7627fc30013fc22aa	4	1	main_slash	11	main_slash	41	stimuli_distractor_diamondtriangles.svg	stimuli_distractor_diamondtriangles.svg	39	no	0	1	2003	0	0			0	0			1				0	
6.6.1	win	2023-06-02	03:28:06	03:35:32	444001	5cc93ce7627fc30013fc22aa	4	1	main_slash	11	advance_on_keypress_SLASH	42	stimuli_distractor_diamondtriangles.svg	stimuli_distractor_diamondtriangles.svg	39	no	57	0	289	0	0			0	0			1				0	
6.6.1	win	2023-06-02	03:28:06	03:35:35	446906	5cc93ce7627fc30013fc22aa	4	1	main_slash	11	main_slash	43	stimuli_distractor_trianglediamonds.svg	stimuli_distractor_trianglediamonds.svg	34	no	0	1	2003	0	0			0	0			1				0	
6.6.1	win	2023-06-02	03:28:06	03:35:35	446906	5cc93ce7627fc30013fc22aa	4	1	main_slash	11	advance_on_keypress_SLASH	44	stimuli_distractor_trianglediamonds.svg	stimuli_distractor_trianglediamonds.svg	34	no	57	0	287	0	0			0	0			1				0	
6.6.1	win	2023-06-02	03:28:06	03:35:38	449812	5cc93ce7627fc30013fc22aa	4	1	main_slash	11	main_slash	45	stimuli_distractor_diamondtriangles.svg	stimuli_distractor_trianglediamonds.svg	38	no	0	1	2003	0	0			0	0			1				0	
6.6.1	win	2023-06-02	03:28:06	03:35:38	449812	5cc93ce7627fc30013fc22aa	4	1	main_slash	11	advance_on_keypress_SLASH	46	stimuli_distractor_diamondtriangles.svg	stimuli_distractor_trianglediamonds.svg	38	no	57	0	245	0	0			0	0			1				0	
6.6.1	win	2023-06-02	03:28:06	03:35:40	451327	5cc93ce7627fc30013fc22aa	4	1	main_slash	11	main_slash	47	stimuli_distractor_diamondtriangles.svg	stimuli_target_rectanglediamonds.svg	14	yes	53	1	655	0	0			0	0			1				0	
6.6.1	win	2023-06-02	03:28:06	03:35:40	451327	5cc93ce7627fc30013fc22aa	4	1	main_slash	11	advance_on_keypress_SLASH	48	stimuli_distractor_diamondtriangles.svg	stimuli_target_rectanglediamonds.svg	14	yes	57	0	418	0	0			0	0			1				0	
6.6.1	win	2023-06-02	03:28:06	03:35:41	452808	5cc93ce7627fc30013fc22aa	4	1	main_slash	11	main_slash	49	stimuli_distractor_diamondtriangles.svg	stimuli_target_rectangletriangles.svg	13	yes	53	1	446	0	0			0	0			1				0	
6.6.1	win	2023-06-02	03:28:06	03:35:41	452808	5cc93ce7627fc30013fc22aa	4	1	main_slash	11	advance_on_keypress_SLASH	50	stimuli_distractor_diamondtriangles.svg	stimuli_target_rectangletriangles.svg	13	yes	57	0	297	0	0			0	0			1				0	
6.6.1	win	2023-06-02	03:28:06	03:35:44	455728	5cc93ce7627fc30013fc22aa	4	1	main_slash	11	main_slash	51	stimuli_distractor_trianglediamonds.svg	stimuli_distractor_diamondtriangles.svg	36	no	0	1	2003	0	0			0	0			1				0	
6.6.1	win	2023-06-02	03:28:06	03:35:44	455728	5cc93ce7627fc30013fc22aa	4	1	main_slash	11	advance_on_keypress_SLASH	52	stimuli_distractor_trianglediamonds.svg	stimuli_distractor_diamondtriangles.svg	36	no	57	0	266	0	0			0	0			1				0	
6.6.1	win	2023-06-02	03:28:06	03:35:46	457295	5cc93ce7627fc30013fc22aa	4	1	main_slash	11	main_slash	53	stimuli_distractor_trianglediamonds.svg	stimuli_target_squaretriangles.svg	11	yes	53	1	686	0	0			0	0			1				0	
6.6.1	win	2023-06-02	03:28:06	03:35:46	457295	5cc93ce7627fc30013fc22aa	4	1	main_slash	11	advance_on_keypress_SLASH	54	stimuli_distractor_trianglediamonds.svg	stimuli_target_squaretriangles.svg	11	yes	57	0	358	0	0			0	0			1				0	
6.6.1	win	2023-06-02	03:28:06	03:35:48	460267	5cc93ce7627fc30013fc22aa	4	1	main_slash	11	main_slash	55	stimuli_distractor_trianglediamonds.svg	stimuli_distractor_trianglediamonds.svg	33	no	0	1	2003	0	0			0	0			1				0	
6.6.1	win	2023-06-02	03:28:06	03:35:48	460267	5cc93ce7627fc30013fc22aa	4	1	main_slash	11	advance_on_keypress_SLASH	56	stimuli_distractor_trianglediamonds.svg	stimuli_distractor_trianglediamonds.svg	33	no	57	0	294	0	0			0	0			1				0	
6.6.1	win	2023-06-02	03:28:06	03:35:50	461832	5cc93ce7627fc30013fc22aa	4	1	main_slash	11	main_slash	57	stimuli_target_diamondsquares.svg	stimuli_distractor_trianglediamonds.svg	20	yes	53	1	655	0	0			0	0			1				0	
6.6.1	win	2023-06-02	03:28:06	03:35:50	461832	5cc93ce7627fc30013fc22aa	4	1	main_slash	11	advance_on_keypress_SLASH	58	stimuli_target_diamondsquares.svg	stimuli_distractor_trianglediamonds.svg	20	yes	57	0	354	0	0			0	0			1				0	
6.6.1	win	2023-06-02	03:28:06	03:35:51	463223	5cc93ce7627fc30013fc22aa	4	1	main_slash	11	main_slash	59	stimuli_distractor_trianglediamonds.svg	stimuli_target_diamondsquares.svg	28	yes	53	1	421	0	0			0	0			1				0	
6.6.1	win	2023-06-02	03:28:06	03:35:51	463223	5cc93ce7627fc30013fc22aa	4	1	main_slash	11	advance_on_keypress_SLASH	60	stimuli_distractor_trianglediamonds.svg	stimuli_target_diamondsquares.svg	28	yes	57	0	276	0	0			0	0			1				0	
6.6.1	win	2023-06-02	03:28:06	03:35:54	466113	5cc93ce7627fc30013fc22aa	4	1	main_slash	11	main_slash	61	stimuli_distractor_trianglediamonds.svg	stimuli_distractor_diamondtriangles.svg	35	no	0	1	2003	0	0			0	0			1				0	
6.6.1	win	2023-06-02	03:28:06	03:35:54	466113	5cc93ce7627fc30013fc22aa	4	1	main_slash	11	advance_on_keypress_SLASH	62	stimuli_distractor_trianglediamonds.svg	stimuli_distractor_diamondtriangles.svg	35	no	57	0	272	0	0			0	0			1				0	
6.6.1	win	2023-06-02	03:28:06	03:35:56	467463	5cc93ce7627fc30013fc22aa	4	1	main_slash	11	main_slash	63	stimuli_distractor_diamondtriangles.svg	stimuli_target_diamondsquares.svg	32	yes	53	1	462	0	0			0	0			1				0	
6.6.1	win	2023-06-02	03:28:06	03:35:56	467463	5cc93ce7627fc30013fc22aa	4	1	main_slash	11	advance_on_keypress_SLASH	64	stimuli_distractor_diamondtriangles.svg	stimuli_target_diamondsquares.svg	32	yes	57	0	284	0	0			0	0			1				0	
6.6.1	win	2023-06-02	03:28:06	03:35:57	469127	5cc93ce7627fc30013fc22aa	4	1	main_slash	11	main_slash	65	stimuli_target_diamondrectangles.svg	stimuli_distractor_diamondtriangles.svg	23	yes	53	1	763	0	0			0	0			1				0	
6.6.1	win	2023-06-02	03:28:06	03:35:57	469127	5cc93ce7627fc30013fc22aa	4	1	main_slash	11	advance_on_keypress_SLASH	66	stimuli_target_diamondrectangles.svg	stimuli_distractor_diamondtriangles.svg	23	yes	57	0	318	0	0			0	0			1				0	
6.6.1	win	2023-06-02	03:28:06	03:35:59	470887	5cc93ce7627fc30013fc22aa	4	1	main_slash	11	main_slash	67	stimuli_distractor_diamondtriangles.svg	stimuli_target_trianglerectangles.svg	29	yes	53	1	827	0	0			0	0			1				0	
6.6.1	win	2023-06-02	03:28:06	03:35:59	470887	5cc93ce7627fc30013fc22aa	4	1	main_slash	11	advance_on_keypress_SLASH	68	stimuli_distractor_diamondtriangles.svg	stimuli_target_trianglerectangles.svg	29	yes	57	0	281	0	0			0	0			1				0	
6.6.1	win	2023-06-02	03:28:06	03:36:01	472480	5cc93ce7627fc30013fc22aa	4	1	main_slash	11	main_slash	69	stimuli_target_squaretriangles.svg	stimuli_distractor_diamondtriangles.svg	7	yes	53	1	695	0	0			0	0			1				0	
6.6.1	win	2023-06-02	03:28:06	03:36:01	472480	5cc93ce7627fc30013fc22aa	4	1	main_slash	11	advance_on_keypress_SLASH	70	stimuli_target_squaretriangles.svg	stimuli_distractor_diamondtriangles.svg	7	yes	57	0	273	0	0			0	0			1				0	
6.6.1	win	2023-06-02	03:28:06	03:36:04	475373	5cc93ce7627fc30013fc22aa	4	1	main_slash	11	main_slash	71	stimuli_distractor_diamondtriangles.svg	stimuli_distractor_trianglediamonds.svg	37	no	0	1	2003	0	0			0	0			1				0	
6.6.1	win	2023-06-02	03:28:06	03:36:04	475373	5cc93ce7627fc30013fc22aa	4	1	main_slash	11	advance_on_keypress_SLASH	72	stimuli_distractor_diamondtriangles.svg	stimuli_distractor_trianglediamonds.svg	37	no	57	0	229	0	0			0	0			1				0	
6.6.1	win	2023-06-02	03:28:06	03:36:05	476736	5cc93ce7627fc30013fc22aa	4	1	main_slash	11	main_slash	73	stimuli_target_diamondrectangles.svg	stimuli_distractor_trianglediamonds.svg	19	yes	53	1	516	0	0			0	0			1				0	
6.6.1	win	2023-06-02	03:28:06	03:36:05	476736	5cc93ce7627fc30013fc22aa	4	1	main_slash	11	advance_on_keypress_SLASH	74	stimuli_target_diamondrectangles.svg	stimuli_distractor_trianglediamonds.svg	19	yes	57	0	338	0	0			0	0			1				0	
6.6.1	win	2023-06-02	03:28:06	03:36:07	478295	5cc93ce7627fc30013fc22aa	4	1	main_slash	11	main_slash	75	stimuli_distractor_diamondtriangles.svg	stimuli_target_squaretriangles.svg	15	yes	53	1	610	0	0			0	0			1				0	
6.6.1	win	2023-06-02	03:28:06	03:36:07	478295	5cc93ce7627fc30013fc22aa	4	1	main_slash	11	advance_on_keypress_SLASH	76	stimuli_distractor_diamondtriangles.svg	stimuli_target_squaretriangles.svg	15	yes	57	0	285	0	0			0	0			1				0	
6.6.1	win	2023-06-02	03:28:06	03:36:08	479927	5cc93ce7627fc30013fc22aa	4	1	main_slash	11	main_slash	77	stimuli_target_trianglerectangles.svg	stimuli_distractor_trianglediamonds.svg	17	yes	53	1	733	0	0			0	0			1				0	
6.6.1	win	2023-06-02	03:28:06	03:36:08	479927	5cc93ce7627fc30013fc22aa	4	1	main_slash	11	advance_on_keypress_SLASH	78	stimuli_target_trianglerectangles.svg	stimuli_distractor_trianglediamonds.svg	17	yes	57	0	268	0	0			0	0			1				0	
6.6.1	win	2023-06-02	03:28:06	03:36:09	481223	5cc93ce7627fc30013fc22aa	4	1	main_slash	11	main_slash	79	stimuli_distractor_trianglediamonds.svg	stimuli_target_trianglesquares.svg	26	yes	53	1	416	0	0			0	0			1				0	
6.6.1	win	2023-06-02	03:28:06	03:36:09	481223	5cc93ce7627fc30013fc22aa	4	1	main_slash	11	advance_on_keypress_SLASH	80	stimuli_distractor_trianglediamonds.svg	stimuli_target_trianglesquares.svg	26	yes	57	0	264	0	0			0	0			1				0	
6.6.1	win	2023-06-02	03:28:06	03:36:12	483712	5cc93ce7627fc30013fc22aa	4	1	main_slash	11	main_slash	81	stimuli_distractor_diamondtriangles.svg	stimuli_target_squarediamonds.svg	16	yes	53	1	1605	0	0			0	0			1				0	
6.6.1	win	2023-06-02	03:28:06	03:36:12	483712	5cc93ce7627fc30013fc22aa	4	1	main_slash	11	advance_on_keypress_SLASH	82	stimuli_distractor_diamondtriangles.svg	stimuli_target_squarediamonds.svg	16	yes	57	0	511	0	0			0	0			1				0	
6.6.1	win	2023-06-02	03:28:06	03:36:14	485408	5cc93ce7627fc30013fc22aa	4	1	main_slash	11	main_slash	83	stimuli_target_trianglesquares.svg	stimuli_distractor_diamondtriangles.svg	22	yes	53	1	569	0	0			0	0			1				0	
6.6.1	win	2023-06-02	03:28:06	03:36:14	485408	5cc93ce7627fc30013fc22aa	4	1	main_slash	11	advance_on_keypress_SLASH	84	stimuli_target_trianglesquares.svg	stimuli_distractor_diamondtriangles.svg	22	yes	57	0	342	0	0			0	0			1				0	
6.6.1	win	2023-06-02	03:28:06	03:36:15	486864	5cc93ce7627fc30013fc22aa	4	1	main_slash	11	main_slash	85	stimuli_distractor_diamondtriangles.svg	stimuli_target_trianglesquares.svg	30	yes	53	1	502	0	0			0	0			1				0	
6.6.1	win	2023-06-02	03:28:06	03:36:15	486864	5cc93ce7627fc30013fc22aa	4	1	main_slash	11	advance_on_keypress_SLASH	86	stimuli_distractor_diamondtriangles.svg	stimuli_target_trianglesquares.svg	30	yes	57	0	266	0	0			0	0			1				0	
6.6.1	win	2023-06-02	03:28:06	03:36:17	488304	5cc93ce7627fc30013fc22aa	4	1	main_slash	11	main_slash	87	stimuli_distractor_trianglediamonds.svg	stimuli_target_diamondsquares.svg	28	yes	53	1	559	0	0			0	0			1				0	
6.6.1	win	2023-06-02	03:28:06	03:36:17	488304	5cc93ce7627fc30013fc22aa	4	1	main_slash	11	advance_on_keypress_SLASH	88	stimuli_distractor_trianglediamonds.svg	stimuli_target_diamondsquares.svg	28	yes	57	0	283	0	0			0	0			1				0	
6.6.1	win	2023-06-02	03:28:06	03:36:18	490088	5cc93ce7627fc30013fc22aa	4	1	main_slash	11	main_slash	89	stimuli_distractor_trianglediamonds.svg	stimuli_target_squaretriangles.svg	11	yes	53	1	890	0	0			0	0			1				0	
6.6.1	win	2023-06-02	03:28:06	03:36:18	490088	5cc93ce7627fc30013fc22aa	4	1	main_slash	11	advance_on_keypress_SLASH	90	stimuli_distractor_trianglediamonds.svg	stimuli_target_squaretriangles.svg	11	yes	57	0	257	0	0			0	0			1				0	
6.6.1	win	2023-06-02	03:28:06	03:36:21	492966	5cc93ce7627fc30013fc22aa	4	1	main_slash	11	main_slash	91	stimuli_distractor_diamondtriangles.svg	stimuli_distractor_trianglediamonds.svg	37	no	0	1	2003	0	0			0	0			1				0	
6.6.1	win	2023-06-02	03:28:06	03:36:21	492966	5cc93ce7627fc30013fc22aa	4	1	main_slash	11	advance_on_keypress_SLASH	92	stimuli_distractor_diamondtriangles.svg	stimuli_distractor_trianglediamonds.svg	37	no	57	0	1235	0	0			0	0			1				0	
6.6.1	win	2023-06-02	03:28:06	03:36:24	495376	5cc93ce7627fc30013fc22aa	4	1	main_slash	11	main_slash	93	stimuli_distractor_trianglediamonds.svg	stimuli_target_squarediamonds.svg	12	yes	53	1	561	0	0			0	0			1				0	
6.6.1	win	2023-06-02	03:28:06	03:36:24	495376	5cc93ce7627fc30013fc22aa	4	1	main_slash	11	advance_on_keypress_SLASH	94	stimuli_distractor_trianglediamonds.svg	stimuli_target_squarediamonds.svg	12	yes	57	0	334	0	0			0	0			1				0	
6.6.1	win	2023-06-02	03:28:06	03:36:25	496799	5cc93ce7627fc30013fc22aa	4	1	main_slash	11	main_slash	95	stimuli_distractor_trianglediamonds.svg	stimuli_target_trianglerectangles.svg	25	yes	53	1	477	0	0			0	0			1				0	
6.6.1	win	2023-06-02	03:28:06	03:36:25	496799	5cc93ce7627fc30013fc22aa	4	1	main_slash	11	advance_on_keypress_SLASH	96	stimuli_distractor_trianglediamonds.svg	stimuli_target_trianglerectangles.svg	25	yes	57	0	277	0	0			0	0			1				0	
6.6.1	win	2023-06-02	03:28:06	03:36:26	498200	5cc93ce7627fc30013fc22aa	4	1	main_slash	11	main_slash	97	stimuli_distractor_diamondtriangles.svg	stimuli_target_diamondsquares.svg	32	yes	53	1	507	0	0			0	0			1				0	
6.6.1	win	2023-06-02	03:28:06	03:36:26	498200	5cc93ce7627fc30013fc22aa	4	1	main_slash	11	advance_on_keypress_SLASH	98	stimuli_distractor_diamondtriangles.svg	stimuli_target_diamondsquares.svg	32	yes	57	0	256	0	0			0	0			1				0	
6.6.1	win	2023-06-02	03:28:06	03:36:28	499655	5cc93ce7627fc30013fc22aa	4	1	main_slash	11	main_slash	99	stimuli_distractor_diamondtriangles.svg	stimuli_target_squaretriangles.svg	15	yes	53	1	580	0	0			0	0			1				0	
6.6.1	win	2023-06-02	03:28:06	03:36:28	499655	5cc93ce7627fc30013fc22aa	4	1	main_slash	11	advance_on_keypress_SLASH	100	stimuli_distractor_diamondtriangles.svg	stimuli_target_squaretriangles.svg	15	yes	57	0	252	0	0			0	0			1				0	
6.6.1	win	2023-06-02	03:28:06	03:36:29	501050	5cc93ce7627fc30013fc22aa	4	1	main_slash	11	main_slash	101	stimuli_distractor_diamondtriangles.svg	stimuli_target_trianglerectangles.svg	29	yes	53	1	526	0	0			0	0			1				0	
6.6.1	win	2023-06-02	03:28:06	03:36:29	501050	5cc93ce7627fc30013fc22aa	4	1	main_slash	11	advance_on_keypress_SLASH	102	stimuli_distractor_diamondtriangles.svg	stimuli_target_trianglerectangles.svg	29	yes	57	0	254	0	0			0	0			1				0	
6.6.1	win	2023-06-02	03:28:06	03:36:31	502512	5cc93ce7627fc30013fc22aa	4	1	main_slash	11	main_slash	103	stimuli_target_diamondrectangles.svg	stimuli_distractor_trianglediamonds.svg	19	yes	53	1	593	0	0			0	0			1				0	
6.6.1	win	2023-06-02	03:28:06	03:36:31	502512	5cc93ce7627fc30013fc22aa	4	1	main_slash	11	advance_on_keypress_SLASH	104	stimuli_target_diamondrectangles.svg	stimuli_distractor_trianglediamonds.svg	19	yes	57	0	475	0	0			0	0			1				0	
6.6.1	win	2023-06-02	03:28:06	03:36:32	504048	5cc93ce7627fc30013fc22aa	4	1	main_slash	11	main_slash	105	stimuli_target_diamondrectangles.svg	stimuli_distractor_diamondtriangles.svg	23	yes	53	1	447	0	0			0	0			1				0	
6.6.1	win	2023-06-02	03:28:06	03:36:32	504048	5cc93ce7627fc30013fc22aa	4	1	main_slash	11	advance_on_keypress_SLASH	106	stimuli_target_diamondrectangles.svg	stimuli_distractor_diamondtriangles.svg	23	yes	57	0	282	0	0			0	0			1				0	
6.6.1	win	2023-06-02	03:28:06	03:36:34	505456	5cc93ce7627fc30013fc22aa	4	1	main_slash	11	main_slash	107	stimuli_distractor_diamondtriangles.svg	stimuli_target_rectangletriangles.svg	13	yes	53	1	513	0	0			0	0			1				0	
6.6.1	win	2023-06-02	03:28:06	03:36:34	505456	5cc93ce7627fc30013fc22aa	4	1	main_slash	11	advance_on_keypress_SLASH	108	stimuli_distractor_diamondtriangles.svg	stimuli_target_rectangletriangles.svg	13	yes	57	0	286	0	0			0	0			1				0	
6.6.1	win	2023-06-02	03:28:06	03:36:35	506856	5cc93ce7627fc30013fc22aa	4	1	main_slash	11	main_slash	109	stimuli_distractor_trianglediamonds.svg	stimuli_target_diamondrectangles.svg	27	yes	53	1	502	0	0			0	0			1				0	
6.6.1	win	2023-06-02	03:28:06	03:36:35	506856	5cc93ce7627fc30013fc22aa	4	1	main_slash	11	advance_on_keypress_SLASH	110	stimuli_distractor_trianglediamonds.svg	stimuli_target_diamondrectangles.svg	27	yes	57	0	298	0	0			0	0			1				0	
6.6.1	win	2023-06-02	03:28:06	03:36:37	508464	5cc93ce7627fc30013fc22aa	4	1	main_slash	11	main_slash	111	stimuli_target_rectangletriangles.svg	stimuli_distractor_trianglediamonds.svg	1	yes	53	1	692	0	0			0	0			1				0	
6.6.1	win	2023-06-02	03:28:06	03:36:37	508464	5cc93ce7627fc30013fc22aa	4	1	main_slash	11	advance_on_keypress_SLASH	112	stimuli_target_rectangletriangles.svg	stimuli_distractor_trianglediamonds.svg	1	yes	57	0	396	0	0			0	0			1				0	
6.6.1	win	2023-06-02	03:28:06	03:36:39	510456	5cc93ce7627fc30013fc22aa	4	1	main_slash	11	main_slash	113	stimuli_target_trianglerectangles.svg	stimuli_distractor_trianglediamonds.svg	17	yes	53	1	981	0	0			0	0			1				0	
6.6.1	win	2023-06-02	03:28:06	03:36:39	510456	5cc93ce7627fc30013fc22aa	4	1	main_slash	11	advance_on_keypress_SLASH	114	stimuli_target_trianglerectangles.svg	stimuli_distractor_trianglediamonds.svg	17	yes	57	0	337	0	0			0	0			1				0	
6.6.1	win	2023-06-02	03:28:06	03:36:42	513411	5cc93ce7627fc30013fc22aa	4	1	main_slash	11	main_slash	115	stimuli_distractor_diamondtriangles.svg	stimuli_distractor_diamondtriangles.svg	40	no	0	1	2003	0	0			0	0			1				0	
6.6.1	win	2023-06-02	03:28:06	03:36:42	513411	5cc93ce7627fc30013fc22aa	4	1	main_slash	11	advance_on_keypress_SLASH	116	stimuli_distractor_diamondtriangles.svg	stimuli_distractor_diamondtriangles.svg	40	no	57	0	663	0	0			0	0			1				0	
6.6.1	win	2023-06-02	03:28:06	03:36:44	515312	5cc93ce7627fc30013fc22aa	4	1	main_slash	11	main_slash	117	stimuli_target_squarediamonds.svg	stimuli_distractor_diamondtriangles.svg	8	yes	53	1	623	0	0			0	0			1				0	
6.6.1	win	2023-06-02	03:28:06	03:36:44	515312	5cc93ce7627fc30013fc22aa	4	1	main_slash	11	advance_on_keypress_SLASH	118	stimuli_target_squarediamonds.svg	stimuli_distractor_diamondtriangles.svg	8	yes	57	0	277	0	0			0	0			1				0	
6.6.1	win	2023-06-02	03:28:06	03:36:45	516703	5cc93ce7627fc30013fc22aa	4	1	main_slash	11	main_slash	119	stimuli_target_squaretriangles.svg	stimuli_distractor_diamondtriangles.svg	7	yes	53	1	500	0	0			0	0			1				0	
6.6.1	win	2023-06-02	03:28:06	03:36:45	516703	5cc93ce7627fc30013fc22aa	4	1	main_slash	11	advance_on_keypress_SLASH	120	stimuli_target_squaretriangles.svg	stimuli_distractor_diamondtriangles.svg	7	yes	57	0	264	0	0			0	0			1				0	
6.6.1	win	2023-06-02	03:28:06	03:36:46	518256	5cc93ce7627fc30013fc22aa	4	1	main_slash	11	main_slash	121	stimuli_target_trianglerectangles.svg	stimuli_distractor_diamondtriangles.svg	21	yes	53	1	668	0	0			0	0			1				0	
6.6.1	win	2023-06-02	03:28:06	03:36:46	518256	5cc93ce7627fc30013fc22aa	4	1	main_slash	11	advance_on_keypress_SLASH	122	stimuli_target_trianglerectangles.svg	stimuli_distractor_diamondtriangles.svg	21	yes	57	0	306	0	0			0	0			1				0	
6.6.1	win	2023-06-02	03:28:06	03:36:49	521182	5cc93ce7627fc30013fc22aa	4	1	main_slash	11	main_slash	123	stimuli_distractor_trianglediamonds.svg	stimuli_distractor_trianglediamonds.svg	33	no	0	1	2003	0	0			0	0			1				0	
6.6.1	win	2023-06-02	03:28:06	03:36:49	521182	5cc93ce7627fc30013fc22aa	4	1	main_slash	11	advance_on_keypress_SLASH	124	stimuli_distractor_trianglediamonds.svg	stimuli_distractor_trianglediamonds.svg	33	no	57	0	531	0	0			0	0			1				0	
6.6.1	win	2023-06-02	03:28:06	03:36:51	522992	5cc93ce7627fc30013fc22aa	4	1	main_slash	11	main_slash	125	stimuli_distractor_diamondtriangles.svg	stimuli_target_diamondrectangles.svg	31	yes	53	1	664	0	0			0	0			1				0	
6.6.1	win	2023-06-02	03:28:06	03:36:51	522992	5cc93ce7627fc30013fc22aa	4	1	main_slash	11	advance_on_keypress_SLASH	126	stimuli_distractor_diamondtriangles.svg	stimuli_target_diamondrectangles.svg	31	yes	57	0	364	0	0			0	0			1				0	
6.6.1	win	2023-06-02	03:28:06	03:36:53	524608	5cc93ce7627fc30013fc22aa	4	1	main_slash	11	main_slash	127	stimuli_distractor_trianglediamonds.svg	stimuli_target_rectangletriangles.svg	9	yes	53	1	639	0	0			0	0			1				0	
6.6.1	win	2023-06-02	03:28:06	03:36:53	524608	5cc93ce7627fc30013fc22aa	4	1	main_slash	11	advance_on_keypress_SLASH	128	stimuli_distractor_trianglediamonds.svg	stimuli_target_rectangletriangles.svg	9	yes	57	0	296	0	0			0	0			1				0	
6.6.1	win	2023-06-02	03:28:06	03:36:56	527522	5cc93ce7627fc30013fc22aa	4	1	main_slash	11	main_slash	129	stimuli_distractor_diamondtriangles.svg	stimuli_distractor_trianglediamonds.svg	38	no	0	1	2003	0	0			0	0			1				0	
6.6.1	win	2023-06-02	03:28:06	03:36:56	527522	5cc93ce7627fc30013fc22aa	4	1	main_slash	11	advance_on_keypress_SLASH	130	stimuli_distractor_diamondtriangles.svg	stimuli_distractor_trianglediamonds.svg	38	no	57	0	391	0	0			0	0			1				0	
6.6.1	win	2023-06-02	03:28:06	03:36:57	529016	5cc93ce7627fc30013fc22aa	4	1	main_slash	11	main_slash	131	stimuli_target_squaretriangles.svg	stimuli_distractor_trianglediamonds.svg	3	yes	53	1	487	0	0			0	0			1				0	
6.6.1	win	2023-06-02	03:28:06	03:36:57	529016	5cc93ce7627fc30013fc22aa	4	1	main_slash	11	advance_on_keypress_SLASH	132	stimuli_target_squaretriangles.svg	stimuli_distractor_trianglediamonds.svg	3	yes	57	0	265	0	0			0	0			1				0	
6.6.1	win	2023-06-02	03:28:06	03:37:00	531901	5cc93ce7627fc30013fc22aa	4	1	main_slash	11	main_slash	133	stimuli_distractor_diamondtriangles.svg	stimuli_distractor_diamondtriangles.svg	39	no	0	1	2003	0	0			0	0			1				0	
6.6.1	win	2023-06-02	03:28:06	03:37:00	531901	5cc93ce7627fc30013fc22aa	4	1	main_slash	11	advance_on_keypress_SLASH	134	stimuli_distractor_diamondtriangles.svg	stimuli_distractor_diamondtriangles.svg	39	no	57	0	300	0	0			0	0			1				0	
6.6.1	win	2023-06-02	03:28:06	03:37:03	534821	5cc93ce7627fc30013fc22aa	4	1	main_slash	11	main_slash	135	stimuli_distractor_trianglediamonds.svg	stimuli_distractor_diamondtriangles.svg	35	no	0	1	2003	0	0			0	0			1				0	
6.6.1	win	2023-06-02	03:28:06	03:37:03	534821	5cc93ce7627fc30013fc22aa	4	1	main_slash	11	advance_on_keypress_SLASH	136	stimuli_distractor_trianglediamonds.svg	stimuli_distractor_diamondtriangles.svg	35	no	57	0	252	0	0			0	0			1				0	
6.6.1	win	2023-06-02	03:28:06	03:37:06	537692	5cc93ce7627fc30013fc22aa	4	1	main_slash	11	main_slash	137	stimuli_distractor_trianglediamonds.svg	stimuli_distractor_diamondtriangles.svg	36	no	0	1	2003	0	0			0	0			1				0	
6.6.1	win	2023-06-02	03:28:06	03:37:06	537692	5cc93ce7627fc30013fc22aa	4	1	main_slash	11	advance_on_keypress_SLASH	138	stimuli_distractor_trianglediamonds.svg	stimuli_distractor_diamondtriangles.svg	36	no	57	0	237	0	0			0	0			1				0	
6.6.1	win	2023-06-02	03:28:06	03:37:07	539168	5cc93ce7627fc30013fc22aa	4	1	main_slash	11	main_slash	139	stimuli_target_squarediamonds.svg	stimuli_distractor_trianglediamonds.svg	4	yes	53	1	622	0	0			0	0			1				0	
6.6.1	win	2023-06-02	03:28:06	03:37:07	539168	5cc93ce7627fc30013fc22aa	4	1	main_slash	11	advance_on_keypress_SLASH	140	stimuli_target_squarediamonds.svg	stimuli_distractor_trianglediamonds.svg	4	yes	57	0	300	0	0			0	0			1				0	
6.6.1	win	2023-06-02	03:28:06	03:37:09	540728	5cc93ce7627fc30013fc22aa	4	1	main_slash	11	main_slash	141	stimuli_target_diamondsquares.svg	stimuli_distractor_diamondtriangles.svg	24	yes	53	1	646	0	0			0	0			1				0	
6.6.1	win	2023-06-02	03:28:06	03:37:09	540728	5cc93ce7627fc30013fc22aa	4	1	main_slash	11	advance_on_keypress_SLASH	142	stimuli_target_diamondsquares.svg	stimuli_distractor_diamondtriangles.svg	24	yes	57	0	232	0	0			0	0			1				0	
6.6.1	win	2023-06-02	03:28:06	03:37:10	542199	5cc93ce7627fc30013fc22aa	4	1	main_slash	11	main_slash	143	stimuli_distractor_trianglediamonds.svg	stimuli_target_rectanglediamonds.svg	10	yes	53	1	623	0	0			0	0			1				0	
6.6.1	win	2023-06-02	03:28:06	03:37:10	542199	5cc93ce7627fc30013fc22aa	4	1	main_slash	11	advance_on_keypress_SLASH	144	stimuli_distractor_trianglediamonds.svg	stimuli_target_rectanglediamonds.svg	10	yes	57	0	221	0	0			0	0			1				0	
6.6.1	win	2023-06-02	03:28:06	03:37:12	543552	5cc93ce7627fc30013fc22aa	4	1	main_slash	11	main_slash	145	stimuli_target_rectanglediamonds.svg	stimuli_distractor_diamondtriangles.svg	6	yes	53	1	515	0	0			0	0			1				0	
6.6.1	win	2023-06-02	03:28:06	03:37:12	543552	5cc93ce7627fc30013fc22aa	4	1	main_slash	11	advance_on_keypress_SLASH	146	stimuli_target_rectanglediamonds.svg	stimuli_distractor_diamondtriangles.svg	6	yes	57	0	217	0	0			0	0			1				0	
6.6.1	win	2023-06-02	03:28:06	03:37:13	545128	5cc93ce7627fc30013fc22aa	4	1	main_slash	11	main_slash	147	stimuli_target_trianglesquares.svg	stimuli_distractor_trianglediamonds.svg	18	yes	53	1	743	0	0			0	0			1				0	
6.6.1	win	2023-06-02	03:28:06	03:37:13	545128	5cc93ce7627fc30013fc22aa	4	1	main_slash	11	advance_on_keypress_SLASH	148	stimuli_target_trianglesquares.svg	stimuli_distractor_trianglediamonds.svg	18	yes	57	0	223	0	0			0	0			1				0	
6.6.1	win	2023-06-02	03:28:06	03:37:15	546457	5cc93ce7627fc30013fc22aa	4	1	main_slash	11	main_slash	149	stimuli_target_diamondsquares.svg	stimuli_distractor_trianglediamonds.svg	20	yes	53	1	493	0	0			0	0			1				0	
6.6.1	win	2023-06-02	03:28:06	03:37:15	546457	5cc93ce7627fc30013fc22aa	4	1	main_slash	11	advance_on_keypress_SLASH	150	stimuli_target_diamondsquares.svg	stimuli_distractor_trianglediamonds.svg	20	yes	57	0	192	0	0			0	0			1				0	
6.6.1	win	2023-06-02	03:28:06	03:37:16	547824	5cc93ce7627fc30013fc22aa	4	1	main_slash	11	main_slash	151	stimuli_target_rectangletriangles.svg	stimuli_distractor_diamondtriangles.svg	5	yes	53	1	561	0	0			0	0			1				0	
6.6.1	win	2023-06-02	03:28:06	03:37:16	547824	5cc93ce7627fc30013fc22aa	4	1	main_slash	11	advance_on_keypress_SLASH	152	stimuli_target_rectangletriangles.svg	stimuli_distractor_diamondtriangles.svg	5	yes	57	0	205	0	0			0	0			1				0	
6.6.1	win	2023-06-02	03:28:06	03:37:17	549088	5cc93ce7627fc30013fc22aa	4	1	main_slash	11	main_slash	153	stimuli_target_rectanglediamonds.svg	stimuli_distractor_trianglediamonds.svg	2	yes	53	1	449	0	0			0	0			1				0	
6.6.1	win	2023-06-02	03:28:06	03:37:17	549088	5cc93ce7627fc30013fc22aa	4	1	main_slash	11	advance_on_keypress_SLASH	154	stimuli_target_rectanglediamonds.svg	stimuli_distractor_trianglediamonds.svg	2	yes	57	0	212	0	0			0	0			1				0	
6.6.1	win	2023-06-02	03:28:06	03:37:20	551914	5cc93ce7627fc30013fc22aa	4	1	main_slash	11	main_slash	155	stimuli_distractor_trianglediamonds.svg	stimuli_distractor_trianglediamonds.svg	34	no	0	1	2003	0	0			0	0			1				0	
6.6.1	win	2023-06-02	03:28:06	03:37:20	551914	5cc93ce7627fc30013fc22aa	4	1	main_slash	11	advance_on_keypress_SLASH	156	stimuli_distractor_trianglediamonds.svg	stimuli_distractor_trianglediamonds.svg	34	no	57	0	359	0	0			0	0			1				0	
6.6.1	win	2023-06-02	03:28:06	03:37:22	553336	5cc93ce7627fc30013fc22aa	4	1	main_slash	11	main_slash	157	stimuli_distractor_diamondtriangles.svg	stimuli_target_rectanglediamonds.svg	14	yes	53	1	449	0	0			0	0			1				0	
6.6.1	win	2023-06-02	03:28:06	03:37:22	553336	5cc93ce7627fc30013fc22aa	4	1	main_slash	11	advance_on_keypress_SLASH	158	stimuli_distractor_diamondtriangles.svg	stimuli_target_rectanglediamonds.svg	14	yes	57	0	293	0	0			0	0			1				0	
6.6.1	win	2023-06-02	03:28:06	03:37:23	554704	5cc93ce7627fc30013fc22aa	4	1	main_slash	11	main_slash	159	stimuli_distractor_trianglediamonds.svg	stimuli_target_trianglesquares.svg	26	yes	53	1	462	0	0			0	0			1				0	
6.6.1	win	2023-06-02	03:28:06	03:37:23	554704	5cc93ce7627fc30013fc22aa	4	1	main_slash	11	advance_on_keypress_SLASH	160	stimuli_distractor_trianglediamonds.svg	stimuli_target_trianglesquares.svg	26	yes	57	0	219	0	0			0	0			1				0	
6.6.1	win	2023-06-02	03:28:06	03:37:23	554704	5cc93ce7627fc30013fc22aa	4	1	headphonecheck_calibration	14	headphonecheck_calibrationIntro	1	stimuli_distractor_trianglediamonds.svg	stimuli_target_trianglesquares.svg	26	yes	calibrationButton	0	2584	0	0			0	0			1				0	
6.6.1	win	2023-06-02	03:28:06	03:37:23	554704	5cc93ce7627fc30013fc22aa	4	1	headphonecheck_testphase	15	test_collectResponse	3	stimuli_distractor_trianglediamonds.svg	stimuli_target_trianglesquares.svg	26	yes	third	0	2728	1	3	antiphase_hc_soi.wav	1	0	0			1				0	
6.6.1	win	2023-06-02	03:28:06	03:37:23	554704	5cc93ce7627fc30013fc22aa	4	1	headphonecheck_testphase	15	test_collectResponse	6	stimuli_distractor_trianglediamonds.svg	stimuli_target_trianglesquares.svg	26	yes	third	0	457	2	1	antiphase_hc_iso.wav	2	0	0			1				0	
6.6.1	win	2023-06-02	03:28:06	03:37:23	554704	5cc93ce7627fc30013fc22aa	4	1	headphonecheck_testphase	15	test_collectResponse	9	stimuli_distractor_trianglediamonds.svg	stimuli_target_trianglesquares.svg	26	yes	second	0	307	3	2	antiphase_hc_ios.wav	3	0	0			1				0	
6.6.1	win	2023-06-02	03:28:06	03:37:23	554704	5cc93ce7627fc30013fc22aa	4	1	headphonecheck_testphase	15	test_collectResponse	12	stimuli_distractor_trianglediamonds.svg	stimuli_target_trianglesquares.svg	26	yes	second	0	292	4	6	antiphase_hc_ois.wav	3	0	0			1				0	
6.6.1	win	2023-06-02	03:28:06	03:37:23	554704	5cc93ce7627fc30013fc22aa	4	1	headphonecheck_testphase	15	test_collectResponse	15	stimuli_distractor_trianglediamonds.svg	stimuli_target_trianglesquares.svg	26	yes	third	0	475	5	5	antiphase_hc_osi.wav	2	0	0			1				0	
6.6.1	win	2023-06-02	03:28:06	03:37:23	554704	5cc93ce7627fc30013fc22aa	4	1	headphonecheck_testphase	15	test_collectResponse	18	stimuli_distractor_trianglediamonds.svg	stimuli_target_trianglesquares.svg	26	yes	third	0	164	6	4	antiphase_hc_sio.wav	1	0	0			1				0	
6.6.1	win	2023-06-02	03:28:06	03:37:23	554704	5cc93ce7627fc30013fc22aa	4	1	stereocheck_calibration	17	stereocheck_calibrationIntro	1	stimuli_distractor_trianglediamonds.svg	stimuli_target_trianglesquares.svg	26	yes	stereocheck_calibrationButton	0	2152	6	4	antiphase_hc_sio.wav	1	0	0			1				0	
6.6.1	win	2023-06-02	03:28:06	03:37:23	554704	5cc93ce7627fc30013fc22aa	4	1	stereocheck_testphase	18	stereocheck_test_collectResponse	3	stimuli_distractor_trianglediamonds.svg	stimuli_target_trianglesquares.svg	26	yes	stereocheck_left	1	3521	6	4	antiphase_hc_sio.wav	1	1	2	noise_calib_stim_LEFT.wav	1	1				0	
6.6.1	win	2023-06-02	03:28:06	03:37:23	554704	5cc93ce7627fc30013fc22aa	4	1	stereocheck_testphase	18	stereocheck_test_collectResponse	6	stimuli_distractor_trianglediamonds.svg	stimuli_target_trianglesquares.svg	26	yes	stereocheck_left	1	746	6	4	antiphase_hc_sio.wav	1	2	1	noise_calib_stim_LEFT.wav	1	1				0	
6.6.1	win	2023-06-02	03:28:06	03:37:23	554704	5cc93ce7627fc30013fc22aa	4	1	stereocheck_testphase	18	stereocheck_test_collectResponse	9	stimuli_distractor_trianglediamonds.svg	stimuli_target_trianglesquares.svg	26	yes	stereocheck_right	1	287	6	4	antiphase_hc_sio.wav	1	3	5	noise_calib_stim_RIGHT.wav	2	1				0	
6.6.1	win	2023-06-02	03:28:06	03:37:23	554704	5cc93ce7627fc30013fc22aa	4	1	stereocheck_testphase	18	stereocheck_test_collectResponse	12	stimuli_distractor_trianglediamonds.svg	stimuli_target_trianglesquares.svg	26	yes	stereocheck_left	1	242	6	4	antiphase_hc_sio.wav	1	4	3	noise_calib_stim_LEFT.wav	1	1				0	
6.6.1	win	2023-06-02	03:28:06	03:37:23	554704	5cc93ce7627fc30013fc22aa	4	1	stereocheck_testphase	18	stereocheck_test_collectResponse	15	stimuli_distractor_trianglediamonds.svg	stimuli_target_trianglesquares.svg	26	yes	stereocheck_right	1	442	6	4	antiphase_hc_sio.wav	1	5	6	noise_calib_stim_RIGHT.wav	2	1				0	
6.6.1	win	2023-06-02	03:28:06	03:37:23	554704	5cc93ce7627fc30013fc22aa	4	1	stereocheck_testphase	18	stereocheck_test_collectResponse	18	stimuli_distractor_trianglediamonds.svg	stimuli_target_trianglesquares.svg	26	yes	stereocheck_right	1	235	6	4	antiphase_hc_sio.wav	1	6	4	noise_calib_stim_RIGHT.wav	2	1				0	
6.6.1	win	2023-06-02	03:28:06	03:37:23	554704	5cc93ce7627fc30013fc22aa	4	1	DL_practice	21	DL_practice	2	stimuli_distractor_trianglediamonds.svg	stimuli_target_trianglesquares.svg	26	yes	ba	1	4093	6	4	antiphase_hc_sio.wav	1	6	4	noise_calib_stim_RIGHT.wav	2	7	blb_dichoticlistening_da-ba.mp3	da	ba	1	right
6.6.1	win	2023-06-02	03:28:06	03:37:23	554704	5cc93ce7627fc30013fc22aa	4	1	DL_practice	21	DL_practice	3	stimuli_distractor_trianglediamonds.svg	stimuli_target_trianglesquares.svg	26	yes	da	1	917	6	4	antiphase_hc_sio.wav	1	6	4	noise_calib_stim_RIGHT.wav	2	8	blb_dichoticlistening_da-da.mp3	da	da	0	left
6.6.1	win	2023-06-02	03:28:06	03:37:23	554704	5cc93ce7627fc30013fc22aa	4	1	DL_practice	21	DL_practice	4	stimuli_distractor_trianglediamonds.svg	stimuli_target_trianglesquares.svg	26	yes	pa	1	1098	6	4	antiphase_hc_sio.wav	1	6	4	noise_calib_stim_RIGHT.wav	2	29	blb_dichoticlistening_pa-pa.mp3	pa	pa	0	left
6.6.1	win	2023-06-02	03:28:06	03:37:23	554704	5cc93ce7627fc30013fc22aa	4	1	DL_practice	21	DL_practice	5	stimuli_distractor_trianglediamonds.svg	stimuli_target_trianglesquares.svg	26	yes	ta	1	1128	6	4	antiphase_hc_sio.wav	1	6	4	noise_calib_stim_RIGHT.wav	2	36	blb_dichoticlistening_ta-ta.mp3	ta	ta	0	left
6.6.1	win	2023-06-02	03:28:06	03:37:23	554704	5cc93ce7627fc30013fc22aa	4	1	DL_practice	21	DL_practice	6	stimuli_distractor_trianglediamonds.svg	stimuli_target_trianglesquares.svg	26	yes	ka	1	904	6	4	antiphase_hc_sio.wav	1	6	4	noise_calib_stim_RIGHT.wav	2	23	blb_dichoticlistening_ka-pa.mp3	ka	pa	1	left
6.6.1	win	2023-06-02	03:28:06	03:37:23	554704	5cc93ce7627fc30013fc22aa	4	1	DL_practice	21	DL_practice	7	stimuli_distractor_trianglediamonds.svg	stimuli_target_trianglesquares.svg	26	yes	ta	1	1568	6	4	antiphase_hc_sio.wav	1	6	4	noise_calib_stim_RIGHT.wav	2	18	blb_dichoticlistening_ga-ta.mp3	ga	ta	1	right
6.6.1	win	2023-06-02	03:28:06	03:37:23	554704	5cc93ce7627fc30013fc22aa	4	1	DL_practice	21	DL_practice	8	stimuli_distractor_trianglediamonds.svg	stimuli_target_trianglesquares.svg	26	yes	ka	1	845	6	4	antiphase_hc_sio.wav	1	6	4	noise_calib_stim_RIGHT.wav	2	22	blb_dichoticlistening_ka-ka.mp3	ka	ka	0	left
6.6.1	win	2023-06-02	03:28:06	03:37:23	554704	5cc93ce7627fc30013fc22aa	4	1	DL_practice	21	DL_practice	9	stimuli_distractor_trianglediamonds.svg	stimuli_target_trianglesquares.svg	26	yes	ga	1	836	6	4	antiphase_hc_sio.wav	1	6	4	noise_calib_stim_RIGHT.wav	2	15	blb_dichoticlistening_ga-ga.mp3	ga	ga	0	left
6.6.1	win	2023-06-02	03:28:06	03:37:23	554704	5cc93ce7627fc30013fc22aa	4	1	DL_practice	21	DL_practice	10	stimuli_distractor_trianglediamonds.svg	stimuli_target_trianglesquares.svg	26	yes	ba	1	939	6	4	antiphase_hc_sio.wav	1	6	4	noise_calib_stim_RIGHT.wav	2	1	blb_dichoticlistening_ba-ba.mp3	ba	ba	0	left
6.6.1	win	2023-06-02	03:28:06	03:37:23	554704	5cc93ce7627fc30013fc22aa	4	1	DL_test	23	DL_test	1	stimuli_distractor_trianglediamonds.svg	stimuli_target_trianglesquares.svg	26	yes	da	0	744	6	4	antiphase_hc_sio.wav	1	6	4	noise_calib_stim_RIGHT.wav	2	15	blb_dichoticlistening_ga-ga.mp3	ga	ga	0	other
6.6.1	win	2023-06-02	03:28:06	03:37:23	554704	5cc93ce7627fc30013fc22aa	4	1	DL_test	23	DL_test	2	stimuli_distractor_trianglediamonds.svg	stimuli_target_trianglesquares.svg	26	yes	da	1	594	6	4	antiphase_hc_sio.wav	1	6	4	noise_calib_stim_RIGHT.wav	2	14	blb_dichoticlistening_ga-da.mp3	ga	da	1	right
6.6.1	win	2023-06-02	03:28:06	03:37:23	554704	5cc93ce7627fc30013fc22aa	4	1	DL_test	23	DL_test	3	stimuli_distractor_trianglediamonds.svg	stimuli_target_trianglesquares.svg	26	yes	pa	0	3456	6	4	antiphase_hc_sio.wav	1	6	4	noise_calib_stim_RIGHT.wav	2	4	blb_dichoticlistening_ba-ka.mp3	ba	ka	1	other
6.6.1	win	2023-06-02	03:28:06	03:37:23	554704	5cc93ce7627fc30013fc22aa	4	1	DL_test	23	DL_test	4	stimuli_distractor_trianglediamonds.svg	stimuli_target_trianglesquares.svg	26	yes	ga	1	1627	6	4	antiphase_hc_sio.wav	1	6	4	noise_calib_stim_RIGHT.wav	2	18	blb_dichoticlistening_ga-ta.mp3	ga	ta	1	left
6.6.1	win	2023-06-02	03:28:06	03:37:23	554704	5cc93ce7627fc30013fc22aa	4	1	DL_test	23	DL_test	5	stimuli_distractor_trianglediamonds.svg	stimuli_target_trianglesquares.svg	26	yes	ka	1	973	6	4	antiphase_hc_sio.wav	1	6	4	noise_calib_stim_RIGHT.wav	2	28	blb_dichoticlistening_pa-ka.mp3	pa	ka	1	right
6.6.1	win	2023-06-02	03:28:06	03:37:23	554704	5cc93ce7627fc30013fc22aa	4	1	DL_test	23	DL_test	6	stimuli_distractor_trianglediamonds.svg	stimuli_target_trianglesquares.svg	26	yes	ga	1	687	6	4	antiphase_hc_sio.wav	1	6	4	noise_calib_stim_RIGHT.wav	2	3	blb_dichoticlistening_ba-ga.mp3	ba	ga	1	right
6.6.1	win	2023-06-02	03:28:06	03:37:23	554704	5cc93ce7627fc30013fc22aa	4	1	DL_test	23	DL_test	7	stimuli_distractor_trianglediamonds.svg	stimuli_target_trianglesquares.svg	26	yes	ka	1	2043	6	4	antiphase_hc_sio.wav	1	6	4	noise_calib_stim_RIGHT.wav	2	19	blb_dichoticlistening_ka-ba.mp3	ka	ba	1	left
6.6.1	win	2023-06-02	03:28:06	03:37:23	554704	5cc93ce7627fc30013fc22aa	4	1	DL_test	23	DL_test	8	stimuli_distractor_trianglediamonds.svg	stimuli_target_trianglesquares.svg	26	yes	da	1	854	6	4	antiphase_hc_sio.wav	1	6	4	noise_calib_stim_RIGHT.wav	2	8	blb_dichoticlistening_da-da.mp3	da	da	0	left
6.6.1	win	2023-06-02	03:28:06	03:37:23	554704	5cc93ce7627fc30013fc22aa	4	1	DL_test	23	DL_test	9	stimuli_distractor_trianglediamonds.svg	stimuli_target_trianglesquares.svg	26	yes	ba	1	879	6	4	antiphase_hc_sio.wav	1	6	4	noise_calib_stim_RIGHT.wav	2	5	blb_dichoticlistening_ba-pa.mp3	ba	pa	1	left
6.6.1	win	2023-06-02	03:28:06	03:37:23	554704	5cc93ce7627fc30013fc22aa	4	1	DL_test	23	DL_test	10	stimuli_distractor_trianglediamonds.svg	stimuli_target_trianglesquares.svg	26	yes	ga	1	758	6	4	antiphase_hc_sio.wav	1	6	4	noise_calib_stim_RIGHT.wav	2	13	blb_dichoticlistening_ga-ba.mp3	ga	ba	1	left
6.6.1	win	2023-06-02	03:28:06	03:37:23	554704	5cc93ce7627fc30013fc22aa	4	1	DL_test	23	DL_test	11	stimuli_distractor_trianglediamonds.svg	stimuli_target_trianglesquares.svg	26	yes	ka	1	1195	6	4	antiphase_hc_sio.wav	1	6	4	noise_calib_stim_RIGHT.wav	2	21	blb_dichoticlistening_ka-ga.mp3	ka	ga	1	left
6.6.1	win	2023-06-02	03:28:06	03:37:23	554704	5cc93ce7627fc30013fc22aa	4	1	DL_test	23	DL_test	12	stimuli_distractor_trianglediamonds.svg	stimuli_target_trianglesquares.svg	26	yes	ba	1	1090	6	4	antiphase_hc_sio.wav	1	6	4	noise_calib_stim_RIGHT.wav	2	1	blb_dichoticlistening_ba-ba.mp3	ba	ba	0	left
6.6.1	win	2023-06-02	03:28:06	03:37:23	554704	5cc93ce7627fc30013fc22aa	4	1	DL_test	23	DL_test	13	stimuli_distractor_trianglediamonds.svg	stimuli_target_trianglesquares.svg	26	yes	pa	1	1211	6	4	antiphase_hc_sio.wav	1	6	4	noise_calib_stim_RIGHT.wav	2	29	blb_dichoticlistening_pa-pa.mp3	pa	pa	0	left
6.6.1	win	2023-06-02	03:28:06	03:37:23	554704	5cc93ce7627fc30013fc22aa	4	1	DL_test	23	DL_test	14	stimuli_distractor_trianglediamonds.svg	stimuli_target_trianglesquares.svg	26	yes	pa	1	1950	6	4	antiphase_hc_sio.wav	1	6	4	noise_calib_stim_RIGHT.wav	2	27	blb_dichoticlistening_pa-ga.mp3	pa	ga	1	left
6.6.1	win	2023-06-02	03:28:06	03:37:23	554704	5cc93ce7627fc30013fc22aa	4	1	DL_test	23	DL_test	15	stimuli_distractor_trianglediamonds.svg	stimuli_target_trianglesquares.svg	26	yes	pa	1	885	6	4	antiphase_hc_sio.wav	1	6	4	noise_calib_stim_RIGHT.wav	2	25	blb_dichoticlistening_pa-ba.mp3	pa	ba	1	left
6.6.1	win	2023-06-02	03:28:06	03:37:23	554704	5cc93ce7627fc30013fc22aa	4	1	DL_test	23	DL_test	16	stimuli_distractor_trianglediamonds.svg	stimuli_target_trianglesquares.svg	26	yes	ga	1	762	6	4	antiphase_hc_sio.wav	1	6	4	noise_calib_stim_RIGHT.wav	2	17	blb_dichoticlistening_ga-pa.mp3	ga	pa	1	left
6.6.1	win	2023-06-02	03:28:06	03:37:23	554704	5cc93ce7627fc30013fc22aa	4	1	DL_test	23	DL_test	17	stimuli_distractor_trianglediamonds.svg	stimuli_target_trianglesquares.svg	26	yes	ka	1	939	6	4	antiphase_hc_sio.wav	1	6	4	noise_calib_stim_RIGHT.wav	2	24	blb_dichoticlistening_ka-ta.mp3	ka	ta	1	left
6.6.1	win	2023-06-02	03:28:06	03:37:23	554704	5cc93ce7627fc30013fc22aa	4	1	DL_test	23	DL_test	18	stimuli_distractor_trianglediamonds.svg	stimuli_target_trianglesquares.svg	26	yes	ka	1	980	6	4	antiphase_hc_sio.wav	1	6	4	noise_calib_stim_RIGHT.wav	2	20	blb_dichoticlistening_ka-da.mp3	ka	da	1	left
6.6.1	win	2023-06-02	03:28:06	03:37:23	554704	5cc93ce7627fc30013fc22aa	4	1	DL_test	23	DL_test	19	stimuli_distractor_trianglediamonds.svg	stimuli_target_trianglesquares.svg	26	yes	ka	1	629	6	4	antiphase_hc_sio.wav	1	6	4	noise_calib_stim_RIGHT.wav	2	34	blb_dichoticlistening_ta-ka.mp3	ta	ka	1	right
6.6.1	win	2023-06-02	03:28:06	03:37:23	554704	5cc93ce7627fc30013fc22aa	4	1	DL_test	23	DL_test	20	stimuli_distractor_trianglediamonds.svg	stimuli_target_trianglesquares.svg	26	yes	ka	1	542	6	4	antiphase_hc_sio.wav	1	6	4	noise_calib_stim_RIGHT.wav	2	22	blb_dichoticlistening_ka-ka.mp3	ka	ka	0	left
6.6.1	win	2023-06-02	03:28:06	03:37:23	554704	5cc93ce7627fc30013fc22aa	4	1	DL_test	23	DL_test	21	stimuli_distractor_trianglediamonds.svg	stimuli_target_trianglesquares.svg	26	yes	ta	1	1169	6	4	antiphase_hc_sio.wav	1	6	4	noise_calib_stim_RIGHT.wav	2	35	blb_dichoticlistening_ta-pa.mp3	ta	pa	1	left
6.6.1	win	2023-06-02	03:28:06	03:37:23	554704	5cc93ce7627fc30013fc22aa	4	1	DL_test	23	DL_test	22	stimuli_distractor_trianglediamonds.svg	stimuli_target_trianglesquares.svg	26	yes	ta	1	3158	6	4	antiphase_hc_sio.wav	1	6	4	noise_calib_stim_RIGHT.wav	2	30	blb_dichoticlistening_pa-ta.mp3	pa	ta	1	right
6.6.1	win	2023-06-02	03:28:06	03:37:23	554704	5cc93ce7627fc30013fc22aa	4	1	DL_test	23	DL_test	23	stimuli_distractor_trianglediamonds.svg	stimuli_target_trianglesquares.svg	26	yes	ta	1	822	6	4	antiphase_hc_sio.wav	1	6	4	noise_calib_stim_RIGHT.wav	2	36	blb_dichoticlistening_ta-ta.mp3	ta	ta	0	left
6.6.1	win	2023-06-02	03:28:06	03:37:23	554704	5cc93ce7627fc30013fc22aa	4	1	DL_test	23	DL_test	24	stimuli_distractor_trianglediamonds.svg	stimuli_target_trianglesquares.svg	26	yes	da	1	1230	6	4	antiphase_hc_sio.wav	1	6	4	noise_calib_stim_RIGHT.wav	2	12	blb_dichoticlistening_da-ta.mp3	da	ta	1	left
6.6.1	win	2023-06-02	03:28:06	03:37:23	554704	5cc93ce7627fc30013fc22aa	4	1	DL_test	23	DL_test	25	stimuli_distractor_trianglediamonds.svg	stimuli_target_trianglesquares.svg	26	yes	ta	1	1244	6	4	antiphase_hc_sio.wav	1	6	4	noise_calib_stim_RIGHT.wav	2	31	blb_dichoticlistening_ta-ba.mp3	ta	ba	1	left
6.6.1	win	2023-06-02	03:28:06	03:37:23	554704	5cc93ce7627fc30013fc22aa	4	1	DL_test	23	DL_test	26	stimuli_distractor_trianglediamonds.svg	stimuli_target_trianglesquares.svg	26	yes	da	1	730	6	4	antiphase_hc_sio.wav	1	6	4	noise_calib_stim_RIGHT.wav	2	11	blb_dichoticlistening_da-pa.mp3	da	pa	1	left
