build	computer.platform	date	time	timestamp	time_elapsed_ms	subject	group	session	blockcode	blocknum	trialcode	trialnum	stimulus_left	stimulus_right	stim_index	target_present	response	correct	latency	headphonecheck_countTestTrials	headphonecheck_index	headphonecheck_testSound	headphonecheck_correctResponse	stereocheck_countTestTrials	stereocheck_index	stereocheck_testSound	stereocheck_correctResponse	DL_index	DL_soundfile	DL_leftSound	DL_rightSound	DL_dualSound	DL_choice
6.6.1	mac	2023-06-12	16:45:42	16:47:46	121389	60fed81a020a69e3bbb6017d	4	1	practice_z	5	practice_z	1	stimuli_distractor_diamondtriangles.svg	stimuli_distractor_trianglediamonds.svg	14	no	44	0	1433	0	0			0	0			1				0	
6.6.1	mac	2023-06-12	16:45:42	16:47:46	121389	60fed81a020a69e3bbb6017d	4	1	practice_z	5	advance_on_keypress_ZEE	2	stimuli_distractor_diamondtriangles.svg	stimuli_distractor_trianglediamonds.svg	14	no	57	0	1211	0	0			0	0			1				0	
6.6.1	mac	2023-06-12	16:45:42	16:47:50	125541	60fed81a020a69e3bbb6017d	4	1	practice_z	5	practice_z	3	stimuli_distractor_diamondtriangles.svg	stimuli_target_rectangletriangles.svg	7	yes	44	1	1278	0	0			0	0			1				0	
6.6.1	mac	2023-06-12	16:45:42	16:47:50	125541	60fed81a020a69e3bbb6017d	4	1	practice_z	5	advance_on_keypress_ZEE	4	stimuli_distractor_diamondtriangles.svg	stimuli_target_rectangletriangles.svg	7	yes	57	0	652	0	0			0	0			1				0	
6.6.1	mac	2023-06-12	16:45:42	16:47:53	128931	60fed81a020a69e3bbb6017d	4	1	practice_z	5	practice_z	5	stimuli_target_squarediamonds.svg	stimuli_distractor_trianglediamonds.svg	5	yes	44	1	1095	0	0			0	0			1				0	
6.6.1	mac	2023-06-12	16:45:42	16:47:53	128931	60fed81a020a69e3bbb6017d	4	1	practice_z	5	advance_on_keypress_ZEE	6	stimuli_target_squarediamonds.svg	stimuli_distractor_trianglediamonds.svg	5	yes	57	0	540	0	0			0	0			1				0	
6.6.1	mac	2023-06-12	16:45:42	16:47:57	132136	60fed81a020a69e3bbb6017d	4	1	practice_z	5	practice_z	7	stimuli_target_squarediamonds.svg	stimuli_distractor_diamondtriangles.svg	2	yes	44	1	1031	0	0			0	0			1				0	
6.6.1	mac	2023-06-12	16:45:42	16:47:57	132136	60fed81a020a69e3bbb6017d	4	1	practice_z	5	advance_on_keypress_ZEE	8	stimuli_target_squarediamonds.svg	stimuli_distractor_diamondtriangles.svg	2	yes	57	0	503	0	0			0	0			1				0	
6.6.1	mac	2023-06-12	16:45:42	16:48:01	136296	60fed81a020a69e3bbb6017d	4	1	practice_z	5	practice_z	9	stimuli_distractor_diamondtriangles.svg	stimuli_target_trianglerectangles.svg	9	yes	0	0	2000	0	0			0	0			1				0	
6.6.1	mac	2023-06-12	16:45:42	16:48:01	136296	60fed81a020a69e3bbb6017d	4	1	practice_z	5	advance_on_keypress_ZEE	10	stimuli_distractor_diamondtriangles.svg	stimuli_target_trianglerectangles.svg	9	yes	57	0	671	0	0			0	0			1				0	
6.6.1	mac	2023-06-12	16:45:42	16:48:05	140611	60fed81a020a69e3bbb6017d	4	1	practice_z	5	practice_z	11	stimuli_distractor_diamondtriangles.svg	stimuli_distractor_diamondtriangles.svg	13	no	0	1	2000	0	0			0	0			1				0	
6.6.1	mac	2023-06-12	16:45:42	16:48:05	140611	60fed81a020a69e3bbb6017d	4	1	practice_z	5	advance_on_keypress_ZEE	12	stimuli_distractor_diamondtriangles.svg	stimuli_distractor_diamondtriangles.svg	13	no	57	0	733	0	0			0	0			1				0	
6.6.1	mac	2023-06-12	16:45:42	16:48:09	144305	60fed81a020a69e3bbb6017d	4	1	practice_z	5	practice_z	13	stimuli_target_diamondsquares.svg	stimuli_distractor_trianglediamonds.svg	6	yes	44	1	1325	0	0			0	0			1				0	
6.6.1	mac	2023-06-12	16:45:42	16:48:09	144305	60fed81a020a69e3bbb6017d	4	1	practice_z	5	advance_on_keypress_ZEE	14	stimuli_target_diamondsquares.svg	stimuli_distractor_trianglediamonds.svg	6	yes	57	0	545	0	0			0	0			1				0	
6.6.1	mac	2023-06-12	16:45:42	16:48:12	147789	60fed81a020a69e3bbb6017d	4	1	practice_z	5	practice_z	15	stimuli_distractor_diamondtriangles.svg	stimuli_target_diamondrectangles.svg	8	yes	44	1	1290	0	0			0	0			1				0	
6.6.1	mac	2023-06-12	16:45:42	16:48:12	147789	60fed81a020a69e3bbb6017d	4	1	practice_z	5	advance_on_keypress_ZEE	16	stimuli_distractor_diamondtriangles.svg	stimuli_target_diamondrectangles.svg	8	yes	57	0	506	0	0			0	0			1				0	
6.6.1	mac	2023-06-12	16:45:42	16:48:16	151942	60fed81a020a69e3bbb6017d	4	1	practice_z	5	practice_z	17	stimuli_distractor_trianglediamonds.svg	stimuli_distractor_trianglediamonds.svg	15	no	0	1	2000	0	0			0	0			1				0	
6.6.1	mac	2023-06-12	16:45:42	16:48:16	151942	60fed81a020a69e3bbb6017d	4	1	practice_z	5	advance_on_keypress_ZEE	18	stimuli_distractor_trianglediamonds.svg	stimuli_distractor_trianglediamonds.svg	15	no	57	0	480	0	0			0	0			1				0	
6.6.1	mac	2023-06-12	16:45:42	16:48:20	155232	60fed81a020a69e3bbb6017d	4	1	practice_z	5	practice_z	19	stimuli_target_rectanglediamonds.svg	stimuli_distractor_diamondtriangles.svg	1	yes	44	1	1164	0	0			0	0			1				0	
6.6.1	mac	2023-06-12	16:45:42	16:48:20	155232	60fed81a020a69e3bbb6017d	4	1	practice_z	5	advance_on_keypress_ZEE	20	stimuli_target_rectanglediamonds.svg	stimuli_distractor_diamondtriangles.svg	1	yes	57	0	451	0	0			0	0			1				0	
6.6.1	mac	2023-06-12	16:45:42	16:48:24	159324	60fed81a020a69e3bbb6017d	4	1	practice_z	5	practice_z	21	stimuli_distractor_trianglediamonds.svg	stimuli_target_rectanglediamonds.svg	10	yes	0	0	2000	0	0			0	0			1				0	
6.6.1	mac	2023-06-12	16:45:42	16:48:24	159324	60fed81a020a69e3bbb6017d	4	1	practice_z	5	advance_on_keypress_ZEE	22	stimuli_distractor_trianglediamonds.svg	stimuli_target_rectanglediamonds.svg	10	yes	57	0	428	0	0			0	0			1				0	
6.6.1	mac	2023-06-12	16:45:42	16:48:28	163402	60fed81a020a69e3bbb6017d	4	1	practice_z	5	practice_z	23	stimuli_distractor_trianglediamonds.svg	stimuli_distractor_diamondtriangles.svg	16	no	0	1	2000	0	0			0	0			1				0	
6.6.1	mac	2023-06-12	16:45:42	16:48:28	163402	60fed81a020a69e3bbb6017d	4	1	practice_z	5	advance_on_keypress_ZEE	24	stimuli_distractor_trianglediamonds.svg	stimuli_distractor_diamondtriangles.svg	16	no	57	0	314	0	0			0	0			1				0	
6.6.1	mac	2023-06-12	16:45:42	16:48:31	166514	60fed81a020a69e3bbb6017d	4	1	practice_z	5	practice_z	25	stimuli_target_diamondsquares.svg	stimuli_distractor_diamondtriangles.svg	3	yes	44	1	1158	0	0			0	0			1				0	
6.6.1	mac	2023-06-12	16:45:42	16:48:31	166514	60fed81a020a69e3bbb6017d	4	1	practice_z	5	advance_on_keypress_ZEE	26	stimuli_target_diamondsquares.svg	stimuli_distractor_diamondtriangles.svg	3	yes	57	0	437	0	0			0	0			1				0	
6.6.1	mac	2023-06-12	16:45:42	16:48:34	169570	60fed81a020a69e3bbb6017d	4	1	practice_z	5	practice_z	27	stimuli_target_rectanglediamonds.svg	stimuli_distractor_trianglediamonds.svg	4	yes	44	1	982	0	0			0	0			1				0	
6.6.1	mac	2023-06-12	16:45:42	16:48:34	169570	60fed81a020a69e3bbb6017d	4	1	practice_z	5	advance_on_keypress_ZEE	28	stimuli_target_rectanglediamonds.svg	stimuli_distractor_trianglediamonds.svg	4	yes	57	0	460	0	0			0	0			1				0	
6.6.1	mac	2023-06-12	16:45:42	16:48:37	172624	60fed81a020a69e3bbb6017d	4	1	practice_z	5	practice_z	29	stimuli_distractor_trianglediamonds.svg	stimuli_target_diamondrectangles.svg	12	yes	44	1	945	0	0			0	0			1				0	
6.6.1	mac	2023-06-12	16:45:42	16:48:37	172624	60fed81a020a69e3bbb6017d	4	1	practice_z	5	advance_on_keypress_ZEE	30	stimuli_distractor_trianglediamonds.svg	stimuli_target_diamondrectangles.svg	12	yes	57	0	430	0	0			0	0			1				0	
6.6.1	mac	2023-06-12	16:45:42	16:48:41	176354	60fed81a020a69e3bbb6017d	4	1	practice_z	5	practice_z	31	stimuli_distractor_trianglediamonds.svg	stimuli_target_squarediamonds.svg	11	yes	44	1	1653	0	0			0	0			1				0	
6.6.1	mac	2023-06-12	16:45:42	16:48:41	176354	60fed81a020a69e3bbb6017d	4	1	practice_z	5	advance_on_keypress_ZEE	32	stimuli_distractor_trianglediamonds.svg	stimuli_target_squarediamonds.svg	11	yes	57	0	432	0	0			0	0			1				0	
6.6.1	mac	2023-06-12	16:45:42	16:48:53	188210	60fed81a020a69e3bbb6017d	4	1	main_z	7	main_z	1	stimuli_distractor_trianglediamonds.svg	stimuli_distractor_trianglediamonds.svg	33	no	44	0	1185	0	0			0	0			1				0	
6.6.1	mac	2023-06-12	16:45:42	16:48:53	188210	60fed81a020a69e3bbb6017d	4	1	main_z	7	advance_on_keypress_ZEE	2	stimuli_distractor_trianglediamonds.svg	stimuli_distractor_trianglediamonds.svg	33	no	57	0	2938	0	0			0	0			1				0	
6.6.1	mac	2023-06-12	16:45:42	16:48:57	192629	60fed81a020a69e3bbb6017d	4	1	main_z	7	main_z	3	stimuli_target_diamondsquares.svg	stimuli_distractor_diamondtriangles.svg	24	yes	44	1	829	0	0			0	0			1				0	
6.6.1	mac	2023-06-12	16:45:42	16:48:57	192629	60fed81a020a69e3bbb6017d	4	1	main_z	7	advance_on_keypress_ZEE	4	stimuli_target_diamondsquares.svg	stimuli_distractor_diamondtriangles.svg	24	yes	57	0	1523	0	0			0	0			1				0	
6.6.1	mac	2023-06-12	16:45:42	16:49:01	196784	60fed81a020a69e3bbb6017d	4	1	main_z	7	main_z	5	stimuli_distractor_trianglediamonds.svg	stimuli_target_squarediamonds.svg	12	yes	0	0	2000	0	0			0	0			1				0	
6.6.1	mac	2023-06-12	16:45:42	16:49:01	196784	60fed81a020a69e3bbb6017d	4	1	main_z	7	advance_on_keypress_ZEE	6	stimuli_distractor_trianglediamonds.svg	stimuli_target_squarediamonds.svg	12	yes	57	0	845	0	0			0	0			1				0	
6.6.1	mac	2023-06-12	16:45:42	16:49:05	200256	60fed81a020a69e3bbb6017d	4	1	main_z	7	main_z	7	stimuli_distractor_trianglediamonds.svg	stimuli_distractor_diamondtriangles.svg	36	no	0	1	2000	0	0			0	0			1				0	
6.6.1	mac	2023-06-12	16:45:42	16:49:05	200256	60fed81a020a69e3bbb6017d	4	1	main_z	7	advance_on_keypress_ZEE	8	stimuli_distractor_trianglediamonds.svg	stimuli_distractor_diamondtriangles.svg	36	no	57	0	629	0	0			0	0			1				0	
6.6.1	mac	2023-06-12	16:45:42	16:49:07	202491	60fed81a020a69e3bbb6017d	4	1	main_z	7	main_z	9	stimuli_distractor_diamondtriangles.svg	stimuli_target_trianglerectangles.svg	29	yes	44	1	986	0	0			0	0			1				0	
6.6.1	mac	2023-06-12	16:45:42	16:49:07	202491	60fed81a020a69e3bbb6017d	4	1	main_z	7	advance_on_keypress_ZEE	10	stimuli_distractor_diamondtriangles.svg	stimuli_target_trianglerectangles.svg	29	yes	57	0	1251	0	0			0	0			1				0	
6.6.1	mac	2023-06-12	16:45:42	16:49:10	205221	60fed81a020a69e3bbb6017d	4	1	main_z	7	main_z	11	stimuli_distractor_trianglediamonds.svg	stimuli_target_diamondrectangles.svg	27	yes	44	1	850	0	0			0	0			1				0	
6.6.1	mac	2023-06-12	16:45:42	16:49:10	205221	60fed81a020a69e3bbb6017d	4	1	main_z	7	advance_on_keypress_ZEE	12	stimuli_distractor_trianglediamonds.svg	stimuli_target_diamondrectangles.svg	27	yes	57	0	1193	0	0			0	0			1				0	
6.6.1	mac	2023-06-12	16:45:42	16:49:13	208374	60fed81a020a69e3bbb6017d	4	1	main_z	7	main_z	13	stimuli_distractor_diamondtriangles.svg	stimuli_distractor_trianglediamonds.svg	38	no	44	0	1320	0	0			0	0			1				0	
6.6.1	mac	2023-06-12	16:45:42	16:49:13	208374	60fed81a020a69e3bbb6017d	4	1	main_z	7	advance_on_keypress_ZEE	14	stimuli_distractor_diamondtriangles.svg	stimuli_distractor_trianglediamonds.svg	38	no	57	0	1184	0	0			0	0			1				0	
6.6.1	mac	2023-06-12	16:45:42	16:49:15	211069	60fed81a020a69e3bbb6017d	4	1	main_z	7	main_z	15	stimuli_target_trianglerectangles.svg	stimuli_distractor_diamondtriangles.svg	21	yes	44	1	884	0	0			0	0			1				0	
6.6.1	mac	2023-06-12	16:45:42	16:49:15	211069	60fed81a020a69e3bbb6017d	4	1	main_z	7	advance_on_keypress_ZEE	16	stimuli_target_trianglerectangles.svg	stimuli_distractor_diamondtriangles.svg	21	yes	57	0	792	0	0			0	0			1				0	
6.6.1	mac	2023-06-12	16:45:42	16:49:18	213582	60fed81a020a69e3bbb6017d	4	1	main_z	7	main_z	17	stimuli_target_squarediamonds.svg	stimuli_distractor_trianglediamonds.svg	4	yes	44	1	1086	0	0			0	0			1				0	
6.6.1	mac	2023-06-12	16:45:42	16:49:18	213582	60fed81a020a69e3bbb6017d	4	1	main_z	7	advance_on_keypress_ZEE	18	stimuli_target_squarediamonds.svg	stimuli_distractor_trianglediamonds.svg	4	yes	57	0	3073	0	0			0	0			1				0	
6.6.1	mac	2023-06-12	16:45:42	16:49:23	218373	60fed81a020a69e3bbb6017d	4	1	main_z	7	main_z	19	stimuli_distractor_trianglediamonds.svg	stimuli_target_squaretriangles.svg	11	yes	44	1	1079	0	0			0	0			1				0	
6.6.1	mac	2023-06-12	16:45:42	16:49:23	218373	60fed81a020a69e3bbb6017d	4	1	main_z	7	advance_on_keypress_ZEE	20	stimuli_distractor_trianglediamonds.svg	stimuli_target_squaretriangles.svg	11	yes	57	0	3472	0	0			0	0			1				0	
6.6.1	mac	2023-06-12	16:45:42	16:49:28	223192	60fed81a020a69e3bbb6017d	4	1	main_z	7	main_z	21	stimuli_target_rectangletriangles.svg	stimuli_distractor_diamondtriangles.svg	5	yes	44	1	709	0	0			0	0			1				0	
6.6.1	mac	2023-06-12	16:45:42	16:49:28	223192	60fed81a020a69e3bbb6017d	4	1	main_z	7	advance_on_keypress_ZEE	22	stimuli_target_rectangletriangles.svg	stimuli_distractor_diamondtriangles.svg	5	yes	57	0	3467	0	0			0	0			1				0	
6.6.1	mac	2023-06-12	16:45:42	16:49:33	228270	60fed81a020a69e3bbb6017d	4	1	main_z	7	main_z	23	stimuli_distractor_trianglediamonds.svg	stimuli_distractor_trianglediamonds.svg	34	no	44	0	974	0	0			0	0			1				0	
6.6.1	mac	2023-06-12	16:45:42	16:49:33	228270	60fed81a020a69e3bbb6017d	4	1	main_z	7	advance_on_keypress_ZEE	24	stimuli_distractor_trianglediamonds.svg	stimuli_distractor_trianglediamonds.svg	34	no	57	0	4093	0	0			0	0			1				0	
6.6.1	mac	2023-06-12	16:45:42	16:49:39	234987	60fed81a020a69e3bbb6017d	4	1	main_z	7	main_z	25	stimuli_distractor_trianglediamonds.svg	stimuli_distractor_diamondtriangles.svg	35	no	0	1	2000	0	0			0	0			1				0	
6.6.1	mac	2023-06-12	16:45:42	16:49:39	234987	60fed81a020a69e3bbb6017d	4	1	main_z	7	advance_on_keypress_ZEE	26	stimuli_distractor_trianglediamonds.svg	stimuli_distractor_diamondtriangles.svg	35	no	57	0	763	0	0			0	0			1				0	
6.6.1	mac	2023-06-12	16:45:42	16:49:42	237377	60fed81a020a69e3bbb6017d	4	1	main_z	7	main_z	27	stimuli_target_trianglesquares.svg	stimuli_distractor_diamondtriangles.svg	22	yes	44	1	992	0	0			0	0			1				0	
6.6.1	mac	2023-06-12	16:45:42	16:49:42	237377	60fed81a020a69e3bbb6017d	4	1	main_z	7	advance_on_keypress_ZEE	28	stimuli_target_trianglesquares.svg	stimuli_distractor_diamondtriangles.svg	22	yes	57	0	1098	0	0			0	0			1				0	
6.6.1	mac	2023-06-12	16:45:42	16:49:44	240090	60fed81a020a69e3bbb6017d	4	1	main_z	7	main_z	29	stimuli_distractor_diamondtriangles.svg	stimuli_target_diamondsquares.svg	32	yes	44	1	978	0	0			0	0			1				0	
6.6.1	mac	2023-06-12	16:45:42	16:49:44	240090	60fed81a020a69e3bbb6017d	4	1	main_z	7	advance_on_keypress_ZEE	30	stimuli_distractor_diamondtriangles.svg	stimuli_target_diamondsquares.svg	32	yes	57	0	485	0	0			0	0			1				0	
6.6.1	mac	2023-06-12	16:45:42	16:49:47	242148	60fed81a020a69e3bbb6017d	4	1	main_z	7	main_z	31	stimuli_distractor_diamondtriangles.svg	stimuli_target_diamondrectangles.svg	31	yes	44	1	941	0	0			0	0			1				0	
6.6.1	mac	2023-06-12	16:45:42	16:49:47	242148	60fed81a020a69e3bbb6017d	4	1	main_z	7	advance_on_keypress_ZEE	32	stimuli_distractor_diamondtriangles.svg	stimuli_target_diamondrectangles.svg	31	yes	57	0	436	0	0			0	0			1				0	
6.6.1	mac	2023-06-12	16:45:42	16:49:49	244190	60fed81a020a69e3bbb6017d	4	1	main_z	7	main_z	33	stimuli_distractor_diamondtriangles.svg	stimuli_target_squarediamonds.svg	16	yes	44	1	966	0	0			0	0			1				0	
6.6.1	mac	2023-06-12	16:45:42	16:49:49	244190	60fed81a020a69e3bbb6017d	4	1	main_z	7	advance_on_keypress_ZEE	34	stimuli_distractor_diamondtriangles.svg	stimuli_target_squarediamonds.svg	16	yes	57	0	657	0	0			0	0			1				0	
6.6.1	mac	2023-06-12	16:45:42	16:49:52	247504	60fed81a020a69e3bbb6017d	4	1	main_z	7	main_z	35	stimuli_distractor_diamondtriangles.svg	stimuli_target_squaretriangles.svg	15	yes	0	0	2000	0	0			0	0			1				0	
6.6.1	mac	2023-06-12	16:45:42	16:49:52	247504	60fed81a020a69e3bbb6017d	4	1	main_z	7	advance_on_keypress_ZEE	36	stimuli_distractor_diamondtriangles.svg	stimuli_target_squaretriangles.svg	15	yes	57	0	431	0	0			0	0			1				0	
6.6.1	mac	2023-06-12	16:45:42	16:49:55	250571	60fed81a020a69e3bbb6017d	4	1	main_z	7	main_z	37	stimuli_distractor_diamondtriangles.svg	stimuli_distractor_diamondtriangles.svg	40	no	0	1	2000	0	0			0	0			1				0	
6.6.1	mac	2023-06-12	16:45:42	16:49:55	250571	60fed81a020a69e3bbb6017d	4	1	main_z	7	advance_on_keypress_ZEE	38	stimuli_distractor_diamondtriangles.svg	stimuli_distractor_diamondtriangles.svg	40	no	57	0	502	0	0			0	0			1				0	
6.6.1	mac	2023-06-12	16:45:42	16:49:57	252640	60fed81a020a69e3bbb6017d	4	1	main_z	7	main_z	39	stimuli_target_rectanglediamonds.svg	stimuli_distractor_diamondtriangles.svg	6	yes	44	1	933	0	0			0	0			1				0	
6.6.1	mac	2023-06-12	16:45:42	16:49:57	252640	60fed81a020a69e3bbb6017d	4	1	main_z	7	advance_on_keypress_ZEE	40	stimuli_target_rectanglediamonds.svg	stimuli_distractor_diamondtriangles.svg	6	yes	57	0	509	0	0			0	0			1				0	
6.6.1	mac	2023-06-12	16:45:42	16:49:59	254677	60fed81a020a69e3bbb6017d	4	1	main_z	7	main_z	41	stimuli_distractor_trianglediamonds.svg	stimuli_target_diamondsquares.svg	28	yes	44	1	890	0	0			0	0			1				0	
6.6.1	mac	2023-06-12	16:45:42	16:49:59	254677	60fed81a020a69e3bbb6017d	4	1	main_z	7	advance_on_keypress_ZEE	42	stimuli_distractor_trianglediamonds.svg	stimuli_target_diamondsquares.svg	28	yes	57	0	450	0	0			0	0			1				0	
6.6.1	mac	2023-06-12	16:45:42	16:50:01	256660	60fed81a020a69e3bbb6017d	4	1	main_z	7	main_z	43	stimuli_target_diamondsquares.svg	stimuli_distractor_trianglediamonds.svg	20	yes	44	1	887	0	0			0	0			1				0	
6.6.1	mac	2023-06-12	16:45:42	16:50:01	256660	60fed81a020a69e3bbb6017d	4	1	main_z	7	advance_on_keypress_ZEE	44	stimuli_target_diamondsquares.svg	stimuli_distractor_trianglediamonds.svg	20	yes	57	0	597	0	0			0	0			1				0	
6.6.1	mac	2023-06-12	16:45:42	16:50:04	259132	60fed81a020a69e3bbb6017d	4	1	main_z	7	main_z	45	stimuli_distractor_diamondtriangles.svg	stimuli_target_rectangletriangles.svg	13	yes	44	1	1241	0	0			0	0			1				0	
6.6.1	mac	2023-06-12	16:45:42	16:50:04	259132	60fed81a020a69e3bbb6017d	4	1	main_z	7	advance_on_keypress_ZEE	46	stimuli_distractor_diamondtriangles.svg	stimuli_target_rectangletriangles.svg	13	yes	57	0	559	0	0			0	0			1				0	
6.6.1	mac	2023-06-12	16:45:42	16:50:06	261271	60fed81a020a69e3bbb6017d	4	1	main_z	7	main_z	47	stimuli_distractor_diamondtriangles.svg	stimuli_target_rectanglediamonds.svg	14	yes	44	1	942	0	0			0	0			1				0	
6.6.1	mac	2023-06-12	16:45:42	16:50:06	261271	60fed81a020a69e3bbb6017d	4	1	main_z	7	advance_on_keypress_ZEE	48	stimuli_distractor_diamondtriangles.svg	stimuli_target_rectanglediamonds.svg	14	yes	57	0	396	0	0			0	0			1				0	
6.6.1	mac	2023-06-12	16:45:42	16:50:08	263260	60fed81a020a69e3bbb6017d	4	1	main_z	7	main_z	49	stimuli_target_squaretriangles.svg	stimuli_distractor_trianglediamonds.svg	3	yes	44	1	949	0	0			0	0			1				0	
6.6.1	mac	2023-06-12	16:45:42	16:50:08	263260	60fed81a020a69e3bbb6017d	4	1	main_z	7	advance_on_keypress_ZEE	50	stimuli_target_squaretriangles.svg	stimuli_distractor_trianglediamonds.svg	3	yes	57	0	368	0	0			0	0			1				0	
6.6.1	mac	2023-06-12	16:45:42	16:50:10	265323	60fed81a020a69e3bbb6017d	4	1	main_z	7	main_z	51	stimuli_target_rectangletriangles.svg	stimuli_distractor_trianglediamonds.svg	1	yes	44	1	1061	0	0			0	0			1				0	
6.6.1	mac	2023-06-12	16:45:42	16:50:10	265323	60fed81a020a69e3bbb6017d	4	1	main_z	7	advance_on_keypress_ZEE	52	stimuli_target_rectangletriangles.svg	stimuli_distractor_trianglediamonds.svg	1	yes	57	0	494	0	0			0	0			1				0	
6.6.1	mac	2023-06-12	16:45:42	16:50:12	267670	60fed81a020a69e3bbb6017d	4	1	main_z	7	main_z	53	stimuli_distractor_trianglediamonds.svg	stimuli_target_rectangletriangles.svg	9	yes	44	1	1221	0	0			0	0			1				0	
6.6.1	mac	2023-06-12	16:45:42	16:50:12	267670	60fed81a020a69e3bbb6017d	4	1	main_z	7	advance_on_keypress_ZEE	54	stimuli_distractor_trianglediamonds.svg	stimuli_target_rectangletriangles.svg	9	yes	57	0	826	0	0			0	0			1				0	
6.6.1	mac	2023-06-12	16:45:42	16:50:15	271121	60fed81a020a69e3bbb6017d	4	1	main_z	7	main_z	55	stimuli_distractor_diamondtriangles.svg	stimuli_distractor_diamondtriangles.svg	39	no	0	1	2000	0	0			0	0			1				0	
6.6.1	mac	2023-06-12	16:45:42	16:50:15	271121	60fed81a020a69e3bbb6017d	4	1	main_z	7	advance_on_keypress_ZEE	56	stimuli_distractor_diamondtriangles.svg	stimuli_distractor_diamondtriangles.svg	39	no	57	0	469	0	0			0	0			1				0	
6.6.1	mac	2023-06-12	16:45:42	16:50:18	273199	60fed81a020a69e3bbb6017d	4	1	main_z	7	main_z	57	stimuli_distractor_trianglediamonds.svg	stimuli_target_trianglesquares.svg	26	yes	44	1	971	0	0			0	0			1				0	
6.6.1	mac	2023-06-12	16:45:42	16:50:18	273199	60fed81a020a69e3bbb6017d	4	1	main_z	7	advance_on_keypress_ZEE	58	stimuli_distractor_trianglediamonds.svg	stimuli_target_trianglesquares.svg	26	yes	57	0	365	0	0			0	0			1				0	
6.6.1	mac	2023-06-12	16:45:42	16:50:20	275206	60fed81a020a69e3bbb6017d	4	1	main_z	7	main_z	59	stimuli_distractor_trianglediamonds.svg	stimuli_target_trianglerectangles.svg	25	yes	44	1	1001	0	0			0	0			1				0	
6.6.1	mac	2023-06-12	16:45:42	16:50:20	275206	60fed81a020a69e3bbb6017d	4	1	main_z	7	advance_on_keypress_ZEE	60	stimuli_distractor_trianglediamonds.svg	stimuli_target_trianglerectangles.svg	25	yes	57	0	344	0	0			0	0			1				0	
6.6.1	mac	2023-06-12	16:45:42	16:50:22	277175	60fed81a020a69e3bbb6017d	4	1	main_z	7	main_z	61	stimuli_target_diamondrectangles.svg	stimuli_distractor_diamondtriangles.svg	23	yes	44	1	1001	0	0			0	0			1				0	
6.6.1	mac	2023-06-12	16:45:42	16:50:22	277175	60fed81a020a69e3bbb6017d	4	1	main_z	7	advance_on_keypress_ZEE	62	stimuli_target_diamondrectangles.svg	stimuli_distractor_diamondtriangles.svg	23	yes	57	0	359	0	0			0	0			1				0	
6.6.1	mac	2023-06-12	16:45:42	16:50:23	279096	60fed81a020a69e3bbb6017d	4	1	main_z	7	main_z	63	stimuli_target_squaretriangles.svg	stimuli_distractor_diamondtriangles.svg	7	yes	44	1	939	0	0			0	0			1				0	
6.6.1	mac	2023-06-12	16:45:42	16:50:23	279096	60fed81a020a69e3bbb6017d	4	1	main_z	7	advance_on_keypress_ZEE	64	stimuli_target_squaretriangles.svg	stimuli_distractor_diamondtriangles.svg	7	yes	57	0	305	0	0			0	0			1				0	
6.6.1	mac	2023-06-12	16:45:42	16:50:25	281080	60fed81a020a69e3bbb6017d	4	1	main_z	7	main_z	65	stimuli_target_trianglerectangles.svg	stimuli_distractor_trianglediamonds.svg	17	yes	44	1	1036	0	0			0	0			1				0	
6.6.1	mac	2023-06-12	16:45:42	16:50:25	281080	60fed81a020a69e3bbb6017d	4	1	main_z	7	advance_on_keypress_ZEE	66	stimuli_target_trianglerectangles.svg	stimuli_distractor_trianglediamonds.svg	17	yes	57	0	270	0	0			0	0			1				0	
6.6.1	mac	2023-06-12	16:45:42	16:50:27	282946	60fed81a020a69e3bbb6017d	4	1	main_z	7	main_z	67	stimuli_target_trianglesquares.svg	stimuli_distractor_trianglediamonds.svg	18	yes	44	1	964	0	0			0	0			1				0	
6.6.1	mac	2023-06-12	16:45:42	16:50:27	282946	60fed81a020a69e3bbb6017d	4	1	main_z	7	advance_on_keypress_ZEE	68	stimuli_target_trianglesquares.svg	stimuli_distractor_trianglediamonds.svg	18	yes	57	0	285	0	0			0	0			1				0	
6.6.1	mac	2023-06-12	16:45:42	16:50:29	285093	60fed81a020a69e3bbb6017d	4	1	main_z	7	main_z	69	stimuli_distractor_trianglediamonds.svg	stimuli_target_rectanglediamonds.svg	10	yes	44	1	1227	0	0			0	0			1				0	
6.6.1	mac	2023-06-12	16:45:42	16:50:29	285093	60fed81a020a69e3bbb6017d	4	1	main_z	7	advance_on_keypress_ZEE	70	stimuli_distractor_trianglediamonds.svg	stimuli_target_rectanglediamonds.svg	10	yes	57	0	211	0	0			0	0			1				0	
6.6.1	mac	2023-06-12	16:45:42	16:50:32	287951	60fed81a020a69e3bbb6017d	4	1	main_z	7	main_z	71	stimuli_distractor_diamondtriangles.svg	stimuli_distractor_trianglediamonds.svg	37	no	0	1	2000	0	0			0	0			1				0	
6.6.1	mac	2023-06-12	16:45:42	16:50:32	287951	60fed81a020a69e3bbb6017d	4	1	main_z	7	advance_on_keypress_ZEE	72	stimuli_distractor_diamondtriangles.svg	stimuli_distractor_trianglediamonds.svg	37	no	57	0	441	0	0			0	0			1				0	
6.6.1	mac	2023-06-12	16:45:42	16:50:34	289922	60fed81a020a69e3bbb6017d	4	1	main_z	7	main_z	73	stimuli_target_rectanglediamonds.svg	stimuli_distractor_trianglediamonds.svg	2	yes	44	1	893	0	0			0	0			1				0	
6.6.1	mac	2023-06-12	16:45:42	16:50:34	289922	60fed81a020a69e3bbb6017d	4	1	main_z	7	advance_on_keypress_ZEE	74	stimuli_target_rectanglediamonds.svg	stimuli_distractor_trianglediamonds.svg	2	yes	57	0	221	0	0			0	0			1				0	
6.6.1	mac	2023-06-12	16:45:42	16:50:36	291671	60fed81a020a69e3bbb6017d	4	1	main_z	7	main_z	75	stimuli_target_squarediamonds.svg	stimuli_distractor_diamondtriangles.svg	8	yes	44	1	901	0	0			0	0			1				0	
6.6.1	mac	2023-06-12	16:45:42	16:50:36	291671	60fed81a020a69e3bbb6017d	4	1	main_z	7	advance_on_keypress_ZEE	76	stimuli_target_squarediamonds.svg	stimuli_distractor_diamondtriangles.svg	8	yes	57	0	334	0	0			0	0			1				0	
6.6.1	mac	2023-06-12	16:45:42	16:50:38	293539	60fed81a020a69e3bbb6017d	4	1	main_z	7	main_z	77	stimuli_target_diamondrectangles.svg	stimuli_distractor_trianglediamonds.svg	19	yes	44	1	899	0	0			0	0			1				0	
6.6.1	mac	2023-06-12	16:45:42	16:50:38	293539	60fed81a020a69e3bbb6017d	4	1	main_z	7	advance_on_keypress_ZEE	78	stimuli_target_diamondrectangles.svg	stimuli_distractor_trianglediamonds.svg	19	yes	57	0	269	0	0			0	0			1				0	
6.6.1	mac	2023-06-12	16:45:42	16:50:40	295405	60fed81a020a69e3bbb6017d	4	1	main_z	7	main_z	79	stimuli_distractor_diamondtriangles.svg	stimuli_target_trianglesquares.svg	30	yes	44	1	965	0	0			0	0			1				0	
6.6.1	mac	2023-06-12	16:45:42	16:50:40	295405	60fed81a020a69e3bbb6017d	4	1	main_z	7	advance_on_keypress_ZEE	80	stimuli_distractor_diamondtriangles.svg	stimuli_target_trianglesquares.svg	30	yes	57	0	231	0	0			0	0			1				0	
6.6.1	mac	2023-06-12	16:45:42	16:50:42	297179	60fed81a020a69e3bbb6017d	4	1	main_z	7	main_z	81	stimuli_target_squaretriangles.svg	stimuli_distractor_trianglediamonds.svg	3	yes	44	1	903	0	0			0	0			1				0	
6.6.1	mac	2023-06-12	16:45:42	16:50:42	297179	60fed81a020a69e3bbb6017d	4	1	main_z	7	advance_on_keypress_ZEE	82	stimuli_target_squaretriangles.svg	stimuli_distractor_trianglediamonds.svg	3	yes	57	0	195	0	0			0	0			1				0	
6.6.1	mac	2023-06-12	16:45:42	16:50:43	298985	60fed81a020a69e3bbb6017d	4	1	main_z	7	main_z	83	stimuli_distractor_diamondtriangles.svg	stimuli_target_rectanglediamonds.svg	14	yes	44	1	976	0	0			0	0			1				0	
6.6.1	mac	2023-06-12	16:45:42	16:50:43	298985	60fed81a020a69e3bbb6017d	4	1	main_z	7	advance_on_keypress_ZEE	84	stimuli_distractor_diamondtriangles.svg	stimuli_target_rectanglediamonds.svg	14	yes	57	0	190	0	0			0	0			1				0	
6.6.1	mac	2023-06-12	16:45:42	16:50:45	300876	60fed81a020a69e3bbb6017d	4	1	main_z	7	main_z	85	stimuli_target_diamondrectangles.svg	stimuli_distractor_trianglediamonds.svg	19	yes	44	1	1065	0	0			0	0			1				0	
6.6.1	mac	2023-06-12	16:45:42	16:50:45	300876	60fed81a020a69e3bbb6017d	4	1	main_z	7	advance_on_keypress_ZEE	86	stimuli_target_diamondrectangles.svg	stimuli_distractor_trianglediamonds.svg	19	yes	57	0	224	0	0			0	0			1				0	
6.6.1	mac	2023-06-12	16:45:42	16:50:48	303727	60fed81a020a69e3bbb6017d	4	1	main_z	7	main_z	87	stimuli_distractor_diamondtriangles.svg	stimuli_distractor_diamondtriangles.svg	39	no	0	1	2000	0	0			0	0			1				0	
6.6.1	mac	2023-06-12	16:45:42	16:50:48	303727	60fed81a020a69e3bbb6017d	4	1	main_z	7	advance_on_keypress_ZEE	88	stimuli_distractor_diamondtriangles.svg	stimuli_distractor_diamondtriangles.svg	39	no	57	0	2871	0	0			0	0			1				0	
6.6.1	mac	2023-06-12	16:45:42	16:50:52	308026	60fed81a020a69e3bbb6017d	4	1	main_z	7	main_z	89	stimuli_distractor_diamondtriangles.svg	stimuli_target_diamondrectangles.svg	31	yes	44	1	803	0	0			0	0			1				0	
6.6.1	mac	2023-06-12	16:45:42	16:50:52	308026	60fed81a020a69e3bbb6017d	4	1	main_z	7	advance_on_keypress_ZEE	90	stimuli_distractor_diamondtriangles.svg	stimuli_target_diamondrectangles.svg	31	yes	57	0	149	0	0			0	0			1				0	
6.6.1	mac	2023-06-12	16:45:42	16:50:54	309632	60fed81a020a69e3bbb6017d	4	1	main_z	7	main_z	91	stimuli_distractor_trianglediamonds.svg	stimuli_target_diamondrectangles.svg	27	yes	44	1	818	0	0			0	0			1				0	
6.6.1	mac	2023-06-12	16:45:42	16:50:54	309632	60fed81a020a69e3bbb6017d	4	1	main_z	7	advance_on_keypress_ZEE	92	stimuli_distractor_trianglediamonds.svg	stimuli_target_diamondrectangles.svg	27	yes	57	0	213	0	0			0	0			1				0	
6.6.1	mac	2023-06-12	16:45:42	16:50:56	311332	60fed81a020a69e3bbb6017d	4	1	main_z	7	main_z	93	stimuli_distractor_diamondtriangles.svg	stimuli_target_squaretriangles.svg	15	yes	44	1	852	0	0			0	0			1				0	
6.6.1	mac	2023-06-12	16:45:42	16:50:56	311332	60fed81a020a69e3bbb6017d	4	1	main_z	7	advance_on_keypress_ZEE	94	stimuli_distractor_diamondtriangles.svg	stimuli_target_squaretriangles.svg	15	yes	57	0	259	0	0			0	0			1				0	
6.6.1	mac	2023-06-12	16:45:42	16:50:58	313237	60fed81a020a69e3bbb6017d	4	1	main_z	7	main_z	95	stimuli_target_trianglerectangles.svg	stimuli_distractor_diamondtriangles.svg	21	yes	44	1	1021	0	0			0	0			1				0	
6.6.1	mac	2023-06-12	16:45:42	16:50:58	313237	60fed81a020a69e3bbb6017d	4	1	main_z	7	advance_on_keypress_ZEE	96	stimuli_target_trianglerectangles.svg	stimuli_distractor_diamondtriangles.svg	21	yes	57	0	291	0	0			0	0			1				0	
6.6.1	mac	2023-06-12	16:45:42	16:51:00	315470	60fed81a020a69e3bbb6017d	4	1	main_z	7	main_z	97	stimuli_distractor_diamondtriangles.svg	stimuli_target_rectangletriangles.svg	13	yes	44	1	1318	0	0			0	0			1				0	
6.6.1	mac	2023-06-12	16:45:42	16:51:00	315470	60fed81a020a69e3bbb6017d	4	1	main_z	7	advance_on_keypress_ZEE	98	stimuli_distractor_diamondtriangles.svg	stimuli_target_rectangletriangles.svg	13	yes	57	0	455	0	0			0	0			1				0	
6.6.1	mac	2023-06-12	16:45:42	16:51:03	318556	60fed81a020a69e3bbb6017d	4	1	main_z	7	main_z	99	stimuli_distractor_diamondtriangles.svg	stimuli_distractor_diamondtriangles.svg	40	no	0	1	2000	0	0			0	0			1				0	
6.6.1	mac	2023-06-12	16:45:42	16:51:03	318556	60fed81a020a69e3bbb6017d	4	1	main_z	7	advance_on_keypress_ZEE	100	stimuli_distractor_diamondtriangles.svg	stimuli_distractor_diamondtriangles.svg	40	no	57	0	432	0	0			0	0			1				0	
6.6.1	mac	2023-06-12	16:45:42	16:51:05	320543	60fed81a020a69e3bbb6017d	4	1	main_z	7	main_z	101	stimuli_distractor_trianglediamonds.svg	stimuli_target_trianglerectangles.svg	25	yes	44	1	908	0	0			0	0			1				0	
6.6.1	mac	2023-06-12	16:45:42	16:51:05	320543	60fed81a020a69e3bbb6017d	4	1	main_z	7	advance_on_keypress_ZEE	102	stimuli_distractor_trianglediamonds.svg	stimuli_target_trianglerectangles.svg	25	yes	57	0	288	0	0			0	0			1				0	
6.6.1	mac	2023-06-12	16:45:42	16:51:07	322530	60fed81a020a69e3bbb6017d	4	1	main_z	7	main_z	103	stimuli_distractor_trianglediamonds.svg	stimuli_distractor_trianglediamonds.svg	33	no	44	0	1059	0	0			0	0			1				0	
6.6.1	mac	2023-06-12	16:45:42	16:51:07	322530	60fed81a020a69e3bbb6017d	4	1	main_z	7	advance_on_keypress_ZEE	104	stimuli_distractor_trianglediamonds.svg	stimuli_distractor_trianglediamonds.svg	33	no	57	0	200	0	0			0	0			1				0	
6.6.1	mac	2023-06-12	16:45:42	16:51:09	324437	60fed81a020a69e3bbb6017d	4	1	main_z	7	main_z	105	stimuli_target_rectanglediamonds.svg	stimuli_distractor_diamondtriangles.svg	6	yes	44	1	1064	0	0			0	0			1				0	
6.6.1	mac	2023-06-12	16:45:42	16:51:09	324437	60fed81a020a69e3bbb6017d	4	1	main_z	7	advance_on_keypress_ZEE	106	stimuli_target_rectanglediamonds.svg	stimuli_distractor_diamondtriangles.svg	6	yes	57	0	227	0	0			0	0			1				0	
6.6.1	mac	2023-06-12	16:45:42	16:51:11	326263	60fed81a020a69e3bbb6017d	4	1	main_z	7	main_z	107	stimuli_distractor_diamondtriangles.svg	stimuli_target_trianglesquares.svg	30	yes	44	1	973	0	0			0	0			1				0	
6.6.1	mac	2023-06-12	16:45:42	16:51:11	326263	60fed81a020a69e3bbb6017d	4	1	main_z	7	advance_on_keypress_ZEE	108	stimuli_distractor_diamondtriangles.svg	stimuli_target_trianglesquares.svg	30	yes	57	0	207	0	0			0	0			1				0	
6.6.1	mac	2023-06-12	16:45:42	16:51:12	328036	60fed81a020a69e3bbb6017d	4	1	main_z	7	main_z	109	stimuli_target_squarediamonds.svg	stimuli_distractor_diamondtriangles.svg	8	yes	44	1	928	0	0			0	0			1				0	
6.6.1	mac	2023-06-12	16:45:42	16:51:12	328036	60fed81a020a69e3bbb6017d	4	1	main_z	7	advance_on_keypress_ZEE	110	stimuli_target_squarediamonds.svg	stimuli_distractor_diamondtriangles.svg	8	yes	57	0	337	0	0			0	0			1				0	
6.6.1	mac	2023-06-12	16:45:42	16:51:14	329931	60fed81a020a69e3bbb6017d	4	1	main_z	7	main_z	111	stimuli_target_rectangletriangles.svg	stimuli_distractor_diamondtriangles.svg	5	yes	44	1	921	0	0			0	0			1				0	
6.6.1	mac	2023-06-12	16:45:42	16:51:14	329931	60fed81a020a69e3bbb6017d	4	1	main_z	7	advance_on_keypress_ZEE	112	stimuli_target_rectangletriangles.svg	stimuli_distractor_diamondtriangles.svg	5	yes	57	0	235	0	0			0	0			1				0	
6.6.1	mac	2023-06-12	16:45:42	16:51:16	331510	60fed81a020a69e3bbb6017d	4	1	main_z	7	main_z	113	stimuli_target_trianglerectangles.svg	stimuli_distractor_trianglediamonds.svg	17	yes	44	1	703	0	0			0	0			1				0	
6.6.1	mac	2023-06-12	16:45:42	16:51:16	331510	60fed81a020a69e3bbb6017d	4	1	main_z	7	advance_on_keypress_ZEE	114	stimuli_target_trianglerectangles.svg	stimuli_distractor_trianglediamonds.svg	17	yes	57	0	397	0	0			0	0			1				0	
6.6.1	mac	2023-06-12	16:45:42	16:51:18	333532	60fed81a020a69e3bbb6017d	4	1	main_z	7	main_z	115	stimuli_distractor_diamondtriangles.svg	stimuli_distractor_trianglediamonds.svg	38	no	44	0	976	0	0			0	0			1				0	
6.6.1	mac	2023-06-12	16:45:42	16:51:18	333532	60fed81a020a69e3bbb6017d	4	1	main_z	7	advance_on_keypress_ZEE	116	stimuli_distractor_diamondtriangles.svg	stimuli_distractor_trianglediamonds.svg	38	no	57	0	357	0	0			0	0			1				0	
6.6.1	mac	2023-06-12	16:45:42	16:51:20	335580	60fed81a020a69e3bbb6017d	4	1	main_z	7	main_z	117	stimuli_distractor_diamondtriangles.svg	stimuli_distractor_trianglediamonds.svg	37	no	44	0	1053	0	0			0	0			1				0	
6.6.1	mac	2023-06-12	16:45:42	16:51:20	335580	60fed81a020a69e3bbb6017d	4	1	main_z	7	advance_on_keypress_ZEE	118	stimuli_distractor_diamondtriangles.svg	stimuli_distractor_trianglediamonds.svg	37	no	57	0	196	0	0			0	0			1				0	
6.6.1	mac	2023-06-12	16:45:42	16:51:22	337575	60fed81a020a69e3bbb6017d	4	1	main_z	7	main_z	119	stimuli_distractor_trianglediamonds.svg	stimuli_target_rectanglediamonds.svg	10	yes	44	1	1162	0	0			0	0			1				0	
6.6.1	mac	2023-06-12	16:45:42	16:51:22	337575	60fed81a020a69e3bbb6017d	4	1	main_z	7	advance_on_keypress_ZEE	120	stimuli_distractor_trianglediamonds.svg	stimuli_target_rectanglediamonds.svg	10	yes	57	0	218	0	0			0	0			1				0	
6.6.1	mac	2023-06-12	16:45:42	16:51:24	339407	60fed81a020a69e3bbb6017d	4	1	main_z	7	main_z	121	stimuli_distractor_trianglediamonds.svg	stimuli_target_squarediamonds.svg	12	yes	44	1	974	0	0			0	0			1				0	
6.6.1	mac	2023-06-12	16:45:42	16:51:24	339407	60fed81a020a69e3bbb6017d	4	1	main_z	7	advance_on_keypress_ZEE	122	stimuli_distractor_trianglediamonds.svg	stimuli_target_squarediamonds.svg	12	yes	57	0	253	0	0			0	0			1				0	
6.6.1	mac	2023-06-12	16:45:42	16:51:26	341221	60fed81a020a69e3bbb6017d	4	1	main_z	7	main_z	123	stimuli_distractor_diamondtriangles.svg	stimuli_target_squarediamonds.svg	16	yes	44	1	921	0	0			0	0			1				0	
6.6.1	mac	2023-06-12	16:45:42	16:51:26	341221	60fed81a020a69e3bbb6017d	4	1	main_z	7	advance_on_keypress_ZEE	124	stimuli_distractor_diamondtriangles.svg	stimuli_target_squarediamonds.svg	16	yes	57	0	344	0	0			0	0			1				0	
6.6.1	mac	2023-06-12	16:45:42	16:51:28	343397	60fed81a020a69e3bbb6017d	4	1	main_z	7	main_z	125	stimuli_distractor_trianglediamonds.svg	stimuli_distractor_diamondtriangles.svg	36	no	44	0	1212	0	0			0	0			1				0	
6.6.1	mac	2023-06-12	16:45:42	16:51:28	343397	60fed81a020a69e3bbb6017d	4	1	main_z	7	advance_on_keypress_ZEE	126	stimuli_distractor_trianglediamonds.svg	stimuli_distractor_diamondtriangles.svg	36	no	57	0	202	0	0			0	0			1				0	
6.6.1	mac	2023-06-12	16:45:42	16:51:30	345359	60fed81a020a69e3bbb6017d	4	1	main_z	7	main_z	127	stimuli_target_rectangletriangles.svg	stimuli_distractor_trianglediamonds.svg	1	yes	44	1	1121	0	0			0	0			1				0	
6.6.1	mac	2023-06-12	16:45:42	16:51:30	345359	60fed81a020a69e3bbb6017d	4	1	main_z	7	advance_on_keypress_ZEE	128	stimuli_target_rectangletriangles.svg	stimuli_distractor_trianglediamonds.svg	1	yes	57	0	227	0	0			0	0			1				0	
6.6.1	mac	2023-06-12	16:45:42	16:51:32	347174	60fed81a020a69e3bbb6017d	4	1	main_z	7	main_z	129	stimuli_distractor_trianglediamonds.svg	stimuli_target_diamondsquares.svg	28	yes	44	1	968	0	0			0	0			1				0	
6.6.1	mac	2023-06-12	16:45:42	16:51:32	347174	60fed81a020a69e3bbb6017d	4	1	main_z	7	advance_on_keypress_ZEE	130	stimuli_distractor_trianglediamonds.svg	stimuli_target_diamondsquares.svg	28	yes	57	0	296	0	0			0	0			1				0	
6.6.1	mac	2023-06-12	16:45:42	16:51:33	349042	60fed81a020a69e3bbb6017d	4	1	main_z	7	main_z	131	stimuli_target_diamondsquares.svg	stimuli_distractor_trianglediamonds.svg	20	yes	44	1	936	0	0			0	0			1				0	
6.6.1	mac	2023-06-12	16:45:42	16:51:33	349042	60fed81a020a69e3bbb6017d	4	1	main_z	7	advance_on_keypress_ZEE	132	stimuli_target_diamondsquares.svg	stimuli_distractor_trianglediamonds.svg	20	yes	57	0	274	0	0			0	0			1				0	
6.6.1	mac	2023-06-12	16:45:42	16:51:36	351939	60fed81a020a69e3bbb6017d	4	1	main_z	7	main_z	133	stimuli_distractor_trianglediamonds.svg	stimuli_distractor_diamondtriangles.svg	35	no	0	1	2000	0	0			0	0			1				0	
6.6.1	mac	2023-06-12	16:45:42	16:51:36	351939	60fed81a020a69e3bbb6017d	4	1	main_z	7	advance_on_keypress_ZEE	134	stimuli_distractor_trianglediamonds.svg	stimuli_distractor_diamondtriangles.svg	35	no	57	0	547	0	0			0	0			1				0	
6.6.1	mac	2023-06-12	16:45:42	16:51:38	354067	60fed81a020a69e3bbb6017d	4	1	main_z	7	main_z	135	stimuli_distractor_diamondtriangles.svg	stimuli_target_diamondsquares.svg	32	yes	44	1	961	0	0			0	0			1				0	
6.6.1	mac	2023-06-12	16:45:42	16:51:38	354067	60fed81a020a69e3bbb6017d	4	1	main_z	7	advance_on_keypress_ZEE	136	stimuli_distractor_diamondtriangles.svg	stimuli_target_diamondsquares.svg	32	yes	57	0	275	0	0			0	0			1				0	
6.6.1	mac	2023-06-12	16:45:42	16:51:40	356024	60fed81a020a69e3bbb6017d	4	1	main_z	7	main_z	137	stimuli_target_diamondrectangles.svg	stimuli_distractor_diamondtriangles.svg	23	yes	44	1	1047	0	0			0	0			1				0	
6.6.1	mac	2023-06-12	16:45:42	16:51:40	356024	60fed81a020a69e3bbb6017d	4	1	main_z	7	advance_on_keypress_ZEE	138	stimuli_target_diamondrectangles.svg	stimuli_distractor_diamondtriangles.svg	23	yes	57	0	311	0	0			0	0			1				0	
6.6.1	mac	2023-06-12	16:45:42	16:51:42	358073	60fed81a020a69e3bbb6017d	4	1	main_z	7	main_z	139	stimuli_distractor_trianglediamonds.svg	stimuli_distractor_trianglediamonds.svg	34	no	44	0	1107	0	0			0	0			1				0	
6.6.1	mac	2023-06-12	16:45:42	16:51:42	358073	60fed81a020a69e3bbb6017d	4	1	main_z	7	advance_on_keypress_ZEE	140	stimuli_distractor_trianglediamonds.svg	stimuli_distractor_trianglediamonds.svg	34	no	57	0	252	0	0			0	0			1				0	
6.6.1	mac	2023-06-12	16:45:42	16:51:44	359941	60fed81a020a69e3bbb6017d	4	1	main_z	7	main_z	141	stimuli_target_trianglesquares.svg	stimuli_distractor_diamondtriangles.svg	22	yes	44	1	975	0	0			0	0			1				0	
6.6.1	mac	2023-06-12	16:45:42	16:51:44	359941	60fed81a020a69e3bbb6017d	4	1	main_z	7	advance_on_keypress_ZEE	142	stimuli_target_trianglesquares.svg	stimuli_distractor_diamondtriangles.svg	22	yes	57	0	232	0	0			0	0			1				0	
6.6.1	mac	2023-06-12	16:45:42	16:51:46	361687	60fed81a020a69e3bbb6017d	4	1	main_z	7	main_z	143	stimuli_distractor_trianglediamonds.svg	stimuli_target_trianglesquares.svg	26	yes	44	1	870	0	0			0	0			1				0	
6.6.1	mac	2023-06-12	16:45:42	16:51:46	361687	60fed81a020a69e3bbb6017d	4	1	main_z	7	advance_on_keypress_ZEE	144	stimuli_distractor_trianglediamonds.svg	stimuli_target_trianglesquares.svg	26	yes	57	0	216	0	0			0	0			1				0	
6.6.1	mac	2023-06-12	16:45:42	16:51:48	363506	60fed81a020a69e3bbb6017d	4	1	main_z	7	main_z	145	stimuli_target_trianglesquares.svg	stimuli_distractor_trianglediamonds.svg	18	yes	44	1	973	0	0			0	0			1				0	
6.6.1	mac	2023-06-12	16:45:42	16:51:48	363506	60fed81a020a69e3bbb6017d	4	1	main_z	7	advance_on_keypress_ZEE	146	stimuli_target_trianglesquares.svg	stimuli_distractor_trianglediamonds.svg	18	yes	57	0	308	0	0			0	0			1				0	
6.6.1	mac	2023-06-12	16:45:42	16:51:50	365269	60fed81a020a69e3bbb6017d	4	1	main_z	7	main_z	147	stimuli_target_rectanglediamonds.svg	stimuli_distractor_trianglediamonds.svg	2	yes	44	1	816	0	0			0	0			1				0	
6.6.1	mac	2023-06-12	16:45:42	16:51:50	365269	60fed81a020a69e3bbb6017d	4	1	main_z	7	advance_on_keypress_ZEE	148	stimuli_target_rectanglediamonds.svg	stimuli_distractor_trianglediamonds.svg	2	yes	57	0	810	0	0			0	0			1				0	
6.6.1	mac	2023-06-12	16:45:42	16:51:52	367730	60fed81a020a69e3bbb6017d	4	1	main_z	7	main_z	149	stimuli_distractor_diamondtriangles.svg	stimuli_target_trianglerectangles.svg	29	yes	44	1	1023	0	0			0	0			1				0	
6.6.1	mac	2023-06-12	16:45:42	16:51:52	367730	60fed81a020a69e3bbb6017d	4	1	main_z	7	advance_on_keypress_ZEE	150	stimuli_distractor_diamondtriangles.svg	stimuli_target_trianglerectangles.svg	29	yes	57	0	248	0	0			0	0			1				0	
6.6.1	mac	2023-06-12	16:45:42	16:51:54	369636	60fed81a020a69e3bbb6017d	4	1	main_z	7	main_z	151	stimuli_target_squaretriangles.svg	stimuli_distractor_diamondtriangles.svg	7	yes	44	1	1014	0	0			0	0			1				0	
6.6.1	mac	2023-06-12	16:45:42	16:51:54	369636	60fed81a020a69e3bbb6017d	4	1	main_z	7	advance_on_keypress_ZEE	152	stimuli_target_squaretriangles.svg	stimuli_distractor_diamondtriangles.svg	7	yes	57	0	242	0	0			0	0			1				0	
6.6.1	mac	2023-06-12	16:45:42	16:51:56	371495	60fed81a020a69e3bbb6017d	4	1	main_z	7	main_z	153	stimuli_target_diamondsquares.svg	stimuli_distractor_diamondtriangles.svg	24	yes	44	1	991	0	0			0	0			1				0	
6.6.1	mac	2023-06-12	16:45:42	16:51:56	371495	60fed81a020a69e3bbb6017d	4	1	main_z	7	advance_on_keypress_ZEE	154	stimuli_target_diamondsquares.svg	stimuli_distractor_diamondtriangles.svg	24	yes	57	0	228	0	0			0	0			1				0	
6.6.1	mac	2023-06-12	16:45:42	16:51:58	373573	60fed81a020a69e3bbb6017d	4	1	main_z	7	main_z	155	stimuli_distractor_trianglediamonds.svg	stimuli_target_squaretriangles.svg	11	yes	44	1	1201	0	0			0	0			1				0	
6.6.1	mac	2023-06-12	16:45:42	16:51:58	373573	60fed81a020a69e3bbb6017d	4	1	main_z	7	advance_on_keypress_ZEE	156	stimuli_distractor_trianglediamonds.svg	stimuli_target_squaretriangles.svg	11	yes	57	0	188	0	0			0	0			1				0	
6.6.1	mac	2023-06-12	16:45:42	16:52:00	375372	60fed81a020a69e3bbb6017d	4	1	main_z	7	main_z	157	stimuli_distractor_trianglediamonds.svg	stimuli_target_rectangletriangles.svg	9	yes	44	1	982	0	0			0	0			1				0	
6.6.1	mac	2023-06-12	16:45:42	16:52:00	375372	60fed81a020a69e3bbb6017d	4	1	main_z	7	advance_on_keypress_ZEE	158	stimuli_distractor_trianglediamonds.svg	stimuli_target_rectangletriangles.svg	9	yes	57	0	276	0	0			0	0			1				0	
6.6.1	mac	2023-06-12	16:45:42	16:52:02	377226	60fed81a020a69e3bbb6017d	4	1	main_z	7	main_z	159	stimuli_target_squarediamonds.svg	stimuli_distractor_trianglediamonds.svg	4	yes	44	1	951	0	0			0	0			1				0	
6.6.1	mac	2023-06-12	16:45:42	16:52:02	377226	60fed81a020a69e3bbb6017d	4	1	main_z	7	advance_on_keypress_ZEE	160	stimuli_target_squarediamonds.svg	stimuli_distractor_trianglediamonds.svg	4	yes	57	0	231	0	0			0	0			1				0	
6.6.1	mac	2023-06-12	16:45:42	16:52:20	395467	60fed81a020a69e3bbb6017d	4	1	practice_slash	9	practice_slash	1	stimuli_distractor_diamondtriangles.svg	stimuli_target_rectangletriangles.svg	7	yes	53	1	787	0	0			0	0			1				0	
6.6.1	mac	2023-06-12	16:45:42	16:52:20	395467	60fed81a020a69e3bbb6017d	4	1	practice_slash	9	advance_on_keypress_SLASH	2	stimuli_distractor_diamondtriangles.svg	stimuli_target_rectangletriangles.svg	7	yes	57	0	403	0	0			0	0			1				0	
6.6.1	mac	2023-06-12	16:45:42	16:52:23	398149	60fed81a020a69e3bbb6017d	4	1	practice_slash	9	practice_slash	3	stimuli_target_rectanglediamonds.svg	stimuli_distractor_diamondtriangles.svg	1	yes	53	1	643	0	0			0	0			1				0	
6.6.1	mac	2023-06-12	16:45:42	16:52:23	398149	60fed81a020a69e3bbb6017d	4	1	practice_slash	9	advance_on_keypress_SLASH	4	stimuli_target_rectanglediamonds.svg	stimuli_distractor_diamondtriangles.svg	1	yes	57	0	505	0	0			0	0			1				0	
6.6.1	mac	2023-06-12	16:45:42	16:52:26	401218	60fed81a020a69e3bbb6017d	4	1	practice_slash	9	practice_slash	5	stimuli_distractor_diamondtriangles.svg	stimuli_target_diamondrectangles.svg	8	yes	53	1	920	0	0			0	0			1				0	
6.6.1	mac	2023-06-12	16:45:42	16:52:26	401218	60fed81a020a69e3bbb6017d	4	1	practice_slash	9	advance_on_keypress_SLASH	6	stimuli_distractor_diamondtriangles.svg	stimuli_target_diamondrectangles.svg	8	yes	57	0	392	0	0			0	0			1				0	
6.6.1	mac	2023-06-12	16:45:42	16:52:29	404566	60fed81a020a69e3bbb6017d	4	1	practice_slash	9	practice_slash	7	stimuli_distractor_trianglediamonds.svg	stimuli_distractor_trianglediamonds.svg	15	no	53	0	1327	0	0			0	0			1				0	
6.6.1	mac	2023-06-12	16:45:42	16:52:29	404566	60fed81a020a69e3bbb6017d	4	1	practice_slash	9	advance_on_keypress_SLASH	8	stimuli_distractor_trianglediamonds.svg	stimuli_distractor_trianglediamonds.svg	15	no	57	0	1039	0	0			0	0			1				0	
6.6.1	mac	2023-06-12	16:45:42	16:52:33	408385	60fed81a020a69e3bbb6017d	4	1	practice_slash	9	practice_slash	9	stimuli_distractor_trianglediamonds.svg	stimuli_target_diamondrectangles.svg	12	yes	53	1	1149	0	0			0	0			1				0	
6.6.1	mac	2023-06-12	16:45:42	16:52:33	408385	60fed81a020a69e3bbb6017d	4	1	practice_slash	9	advance_on_keypress_SLASH	10	stimuli_distractor_trianglediamonds.svg	stimuli_target_diamondrectangles.svg	12	yes	57	0	269	0	0			0	0			1				0	
6.6.1	mac	2023-06-12	16:45:42	16:52:36	411240	60fed81a020a69e3bbb6017d	4	1	practice_slash	9	practice_slash	11	stimuli_target_diamondsquares.svg	stimuli_distractor_diamondtriangles.svg	3	yes	53	1	957	0	0			0	0			1				0	
6.6.1	mac	2023-06-12	16:45:42	16:52:36	411240	60fed81a020a69e3bbb6017d	4	1	practice_slash	9	advance_on_keypress_SLASH	12	stimuli_target_diamondsquares.svg	stimuli_distractor_diamondtriangles.svg	3	yes	57	0	456	0	0			0	0			1				0	
6.6.1	mac	2023-06-12	16:45:42	16:52:40	415335	60fed81a020a69e3bbb6017d	4	1	practice_slash	9	practice_slash	13	stimuli_distractor_diamondtriangles.svg	stimuli_distractor_diamondtriangles.svg	13	no	0	1	2000	0	0			0	0			1				0	
6.6.1	mac	2023-06-12	16:45:42	16:52:40	415335	60fed81a020a69e3bbb6017d	4	1	practice_slash	9	advance_on_keypress_SLASH	14	stimuli_distractor_diamondtriangles.svg	stimuli_distractor_diamondtriangles.svg	13	no	57	0	1680	0	0			0	0			1				0	
6.6.1	mac	2023-06-12	16:45:42	16:52:45	420313	60fed81a020a69e3bbb6017d	4	1	practice_slash	9	practice_slash	15	stimuli_distractor_trianglediamonds.svg	stimuli_distractor_diamondtriangles.svg	16	no	53	0	1643	0	0			0	0			1				0	
6.6.1	mac	2023-06-12	16:45:42	16:52:45	420313	60fed81a020a69e3bbb6017d	4	1	practice_slash	9	advance_on_keypress_SLASH	16	stimuli_distractor_trianglediamonds.svg	stimuli_distractor_diamondtriangles.svg	16	no	57	0	523	0	0			0	0			1				0	
6.6.1	mac	2023-06-12	16:45:42	16:52:48	423379	60fed81a020a69e3bbb6017d	4	1	practice_slash	9	practice_slash	17	stimuli_target_rectanglediamonds.svg	stimuli_distractor_trianglediamonds.svg	4	yes	53	1	920	0	0			0	0			1				0	
6.6.1	mac	2023-06-12	16:45:42	16:52:48	423379	60fed81a020a69e3bbb6017d	4	1	practice_slash	9	advance_on_keypress_SLASH	18	stimuli_target_rectanglediamonds.svg	stimuli_distractor_trianglediamonds.svg	4	yes	57	0	334	0	0			0	0			1				0	
6.6.1	mac	2023-06-12	16:45:42	16:52:51	426332	60fed81a020a69e3bbb6017d	4	1	practice_slash	9	practice_slash	19	stimuli_distractor_diamondtriangles.svg	stimuli_target_trianglerectangles.svg	9	yes	53	1	986	0	0			0	0			1				0	
6.6.1	mac	2023-06-12	16:45:42	16:52:51	426332	60fed81a020a69e3bbb6017d	4	1	practice_slash	9	advance_on_keypress_SLASH	20	stimuli_distractor_diamondtriangles.svg	stimuli_target_trianglerectangles.svg	9	yes	57	0	609	0	0			0	0			1				0	
6.6.1	mac	2023-06-12	16:45:42	16:52:54	429287	60fed81a020a69e3bbb6017d	4	1	practice_slash	9	practice_slash	21	stimuli_target_squarediamonds.svg	stimuli_distractor_diamondtriangles.svg	2	yes	53	1	716	0	0			0	0			1				0	
6.6.1	mac	2023-06-12	16:45:42	16:52:54	429287	60fed81a020a69e3bbb6017d	4	1	practice_slash	9	advance_on_keypress_SLASH	22	stimuli_target_squarediamonds.svg	stimuli_distractor_diamondtriangles.svg	2	yes	57	0	461	0	0			0	0			1				0	
6.6.1	mac	2023-06-12	16:45:42	16:52:57	432271	60fed81a020a69e3bbb6017d	4	1	practice_slash	9	practice_slash	23	stimuli_target_diamondsquares.svg	stimuli_distractor_trianglediamonds.svg	6	yes	53	1	884	0	0			0	0			1				0	
6.6.1	mac	2023-06-12	16:45:42	16:52:57	432271	60fed81a020a69e3bbb6017d	4	1	practice_slash	9	advance_on_keypress_SLASH	24	stimuli_target_diamondsquares.svg	stimuli_distractor_trianglediamonds.svg	6	yes	57	0	449	0	0			0	0			1				0	
6.6.1	mac	2023-06-12	16:45:42	16:53:00	435703	60fed81a020a69e3bbb6017d	4	1	practice_slash	9	practice_slash	25	stimuli_distractor_diamondtriangles.svg	stimuli_distractor_trianglediamonds.svg	14	no	53	0	1342	0	0			0	0			1				0	
6.6.1	mac	2023-06-12	16:45:42	16:53:00	435703	60fed81a020a69e3bbb6017d	4	1	practice_slash	9	advance_on_keypress_SLASH	26	stimuli_distractor_diamondtriangles.svg	stimuli_distractor_trianglediamonds.svg	14	no	57	0	571	0	0			0	0			1				0	
6.6.1	mac	2023-06-12	16:45:42	16:53:03	438976	60fed81a020a69e3bbb6017d	4	1	practice_slash	9	practice_slash	27	stimuli_distractor_trianglediamonds.svg	stimuli_target_rectanglediamonds.svg	10	yes	53	1	1074	0	0			0	0			1				0	
6.6.1	mac	2023-06-12	16:45:42	16:53:03	438976	60fed81a020a69e3bbb6017d	4	1	practice_slash	9	advance_on_keypress_SLASH	28	stimuli_distractor_trianglediamonds.svg	stimuli_target_rectanglediamonds.svg	10	yes	57	0	336	0	0			0	0			1				0	
6.6.1	mac	2023-06-12	16:45:42	16:53:06	441654	60fed81a020a69e3bbb6017d	4	1	practice_slash	9	practice_slash	29	stimuli_target_squarediamonds.svg	stimuli_distractor_trianglediamonds.svg	5	yes	53	1	703	0	0			0	0			1				0	
6.6.1	mac	2023-06-12	16:45:42	16:53:06	441654	60fed81a020a69e3bbb6017d	4	1	practice_slash	9	advance_on_keypress_SLASH	30	stimuli_target_squarediamonds.svg	stimuli_distractor_trianglediamonds.svg	5	yes	57	0	270	0	0			0	0			1				0	
6.6.1	mac	2023-06-12	16:45:42	16:53:09	444249	60fed81a020a69e3bbb6017d	4	1	practice_slash	9	practice_slash	31	stimuli_distractor_trianglediamonds.svg	stimuli_target_squarediamonds.svg	11	yes	53	1	688	0	0			0	0			1				0	
6.6.1	mac	2023-06-12	16:45:42	16:53:09	444249	60fed81a020a69e3bbb6017d	4	1	practice_slash	9	advance_on_keypress_SLASH	32	stimuli_distractor_trianglediamonds.svg	stimuli_target_squarediamonds.svg	11	yes	57	0	372	0	0			0	0			1				0	
6.6.1	mac	2023-06-12	16:45:42	16:53:13	448287	60fed81a020a69e3bbb6017d	4	1	main_slash	11	main_slash	1	stimuli_distractor_trianglediamonds.svg	stimuli_target_rectanglediamonds.svg	10	yes	53	1	925	0	0			0	0			1				0	
6.6.1	mac	2023-06-12	16:45:42	16:53:13	448287	60fed81a020a69e3bbb6017d	4	1	main_slash	11	advance_on_keypress_SLASH	2	stimuli_distractor_trianglediamonds.svg	stimuli_target_rectanglediamonds.svg	10	yes	57	0	552	0	0			0	0			1				0	
6.6.1	mac	2023-06-12	16:45:42	16:53:15	450848	60fed81a020a69e3bbb6017d	4	1	main_slash	11	main_slash	3	stimuli_distractor_trianglediamonds.svg	stimuli_distractor_trianglediamonds.svg	34	no	53	0	1363	0	0			0	0			1				0	
6.6.1	mac	2023-06-12	16:45:42	16:53:15	450848	60fed81a020a69e3bbb6017d	4	1	main_slash	11	advance_on_keypress_SLASH	4	stimuli_distractor_trianglediamonds.svg	stimuli_distractor_trianglediamonds.svg	34	no	57	0	616	0	0			0	0			1				0	
6.6.1	mac	2023-06-12	16:45:42	16:53:17	453075	60fed81a020a69e3bbb6017d	4	1	main_slash	11	main_slash	5	stimuli_target_rectanglediamonds.svg	stimuli_distractor_diamondtriangles.svg	6	yes	53	1	983	0	0			0	0			1				0	
6.6.1	mac	2023-06-12	16:45:42	16:53:17	453075	60fed81a020a69e3bbb6017d	4	1	main_slash	11	advance_on_keypress_SLASH	6	stimuli_target_rectanglediamonds.svg	stimuli_distractor_diamondtriangles.svg	6	yes	57	0	390	0	0			0	0			1				0	
6.6.1	mac	2023-06-12	16:45:42	16:53:20	456102	60fed81a020a69e3bbb6017d	4	1	main_slash	11	main_slash	7	stimuli_distractor_trianglediamonds.svg	stimuli_distractor_diamondtriangles.svg	35	no	0	1	2000	0	0			0	0			1				0	
6.6.1	mac	2023-06-12	16:45:42	16:53:20	456102	60fed81a020a69e3bbb6017d	4	1	main_slash	11	advance_on_keypress_SLASH	8	stimuli_distractor_trianglediamonds.svg	stimuli_distractor_diamondtriangles.svg	35	no	57	0	545	0	0			0	0			1				0	
6.6.1	mac	2023-06-12	16:45:42	16:53:23	458164	60fed81a020a69e3bbb6017d	4	1	main_slash	11	main_slash	9	stimuli_distractor_diamondtriangles.svg	stimuli_target_squaretriangles.svg	15	yes	53	1	897	0	0			0	0			1				0	
6.6.1	mac	2023-06-12	16:45:42	16:53:23	458164	60fed81a020a69e3bbb6017d	4	1	main_slash	11	advance_on_keypress_SLASH	10	stimuli_distractor_diamondtriangles.svg	stimuli_target_squaretriangles.svg	15	yes	57	0	321	0	0			0	0			1				0	
6.6.1	mac	2023-06-12	16:45:42	16:53:25	460151	60fed81a020a69e3bbb6017d	4	1	main_slash	11	main_slash	11	stimuli_distractor_trianglediamonds.svg	stimuli_distractor_trianglediamonds.svg	33	no	53	0	1032	0	0			0	0			1				0	
6.6.1	mac	2023-06-12	16:45:42	16:53:25	460151	60fed81a020a69e3bbb6017d	4	1	main_slash	11	advance_on_keypress_SLASH	12	stimuli_distractor_trianglediamonds.svg	stimuli_distractor_trianglediamonds.svg	33	no	57	0	344	0	0			0	0			1				0	
6.6.1	mac	2023-06-12	16:45:42	16:53:27	462178	60fed81a020a69e3bbb6017d	4	1	main_slash	11	main_slash	13	stimuli_target_trianglerectangles.svg	stimuli_distractor_trianglediamonds.svg	17	yes	53	1	1055	0	0			0	0			1				0	
6.6.1	mac	2023-06-12	16:45:42	16:53:27	462178	60fed81a020a69e3bbb6017d	4	1	main_slash	11	advance_on_keypress_SLASH	14	stimuli_target_trianglerectangles.svg	stimuli_distractor_trianglediamonds.svg	17	yes	57	0	378	0	0			0	0			1				0	
6.6.1	mac	2023-06-12	16:45:42	16:53:29	464236	60fed81a020a69e3bbb6017d	4	1	main_slash	11	main_slash	15	stimuli_target_rectanglediamonds.svg	stimuli_distractor_trianglediamonds.svg	2	yes	53	1	1050	0	0			0	0			1				0	
6.6.1	mac	2023-06-12	16:45:42	16:53:29	464236	60fed81a020a69e3bbb6017d	4	1	main_slash	11	advance_on_keypress_SLASH	16	stimuli_target_rectanglediamonds.svg	stimuli_distractor_trianglediamonds.svg	2	yes	57	0	296	0	0			0	0			1				0	
6.6.1	mac	2023-06-12	16:45:42	16:53:31	466678	60fed81a020a69e3bbb6017d	4	1	main_slash	11	main_slash	17	stimuli_distractor_diamondtriangles.svg	stimuli_target_rectangletriangles.svg	13	yes	53	1	1506	0	0			0	0			1				0	
6.6.1	mac	2023-06-12	16:45:42	16:53:31	466678	60fed81a020a69e3bbb6017d	4	1	main_slash	11	advance_on_keypress_SLASH	18	stimuli_distractor_diamondtriangles.svg	stimuli_target_rectangletriangles.svg	13	yes	57	0	428	0	0			0	0			1				0	
6.6.1	mac	2023-06-12	16:45:42	16:53:33	468792	60fed81a020a69e3bbb6017d	4	1	main_slash	11	main_slash	19	stimuli_target_trianglesquares.svg	stimuli_distractor_trianglediamonds.svg	18	yes	53	1	1064	0	0			0	0			1				0	
6.6.1	mac	2023-06-12	16:45:42	16:53:33	468792	60fed81a020a69e3bbb6017d	4	1	main_slash	11	advance_on_keypress_SLASH	20	stimuli_target_trianglesquares.svg	stimuli_distractor_trianglediamonds.svg	18	yes	57	0	343	0	0			0	0			1				0	
6.6.1	mac	2023-06-12	16:45:42	16:53:35	470857	60fed81a020a69e3bbb6017d	4	1	main_slash	11	main_slash	21	stimuli_distractor_trianglediamonds.svg	stimuli_target_squarediamonds.svg	12	yes	53	1	1098	0	0			0	0			1				0	
6.6.1	mac	2023-06-12	16:45:42	16:53:35	470857	60fed81a020a69e3bbb6017d	4	1	main_slash	11	advance_on_keypress_SLASH	22	stimuli_distractor_trianglediamonds.svg	stimuli_target_squarediamonds.svg	12	yes	57	0	256	0	0			0	0			1				0	
6.6.1	mac	2023-06-12	16:45:42	16:53:38	473257	60fed81a020a69e3bbb6017d	4	1	main_slash	11	main_slash	23	stimuli_distractor_trianglediamonds.svg	stimuli_target_diamondsquares.svg	28	yes	53	1	1515	0	0			0	0			1				0	
6.6.1	mac	2023-06-12	16:45:42	16:53:38	473257	60fed81a020a69e3bbb6017d	4	1	main_slash	11	advance_on_keypress_SLASH	24	stimuli_distractor_trianglediamonds.svg	stimuli_target_diamondsquares.svg	28	yes	57	0	331	0	0			0	0			1				0	
6.6.1	mac	2023-06-12	16:45:42	16:53:40	475483	60fed81a020a69e3bbb6017d	4	1	main_slash	11	main_slash	25	stimuli_distractor_diamondtriangles.svg	stimuli_distractor_diamondtriangles.svg	39	no	53	0	1250	0	0			0	0			1				0	
6.6.1	mac	2023-06-12	16:45:42	16:53:40	475483	60fed81a020a69e3bbb6017d	4	1	main_slash	11	advance_on_keypress_SLASH	26	stimuli_distractor_diamondtriangles.svg	stimuli_distractor_diamondtriangles.svg	39	no	57	0	286	0	0			0	0			1				0	
6.6.1	mac	2023-06-12	16:45:42	16:53:42	477449	60fed81a020a69e3bbb6017d	4	1	main_slash	11	main_slash	27	stimuli_target_diamondsquares.svg	stimuli_distractor_diamondtriangles.svg	24	yes	53	1	1051	0	0			0	0			1				0	
6.6.1	mac	2023-06-12	16:45:42	16:53:42	477449	60fed81a020a69e3bbb6017d	4	1	main_slash	11	advance_on_keypress_SLASH	28	stimuli_target_diamondsquares.svg	stimuli_distractor_diamondtriangles.svg	24	yes	57	0	283	0	0			0	0			1				0	
6.6.1	mac	2023-06-12	16:45:42	16:53:44	479412	60fed81a020a69e3bbb6017d	4	1	main_slash	11	main_slash	29	stimuli_target_rectangletriangles.svg	stimuli_distractor_diamondtriangles.svg	5	yes	53	1	1048	0	0			0	0			1				0	
6.6.1	mac	2023-06-12	16:45:42	16:53:44	479412	60fed81a020a69e3bbb6017d	4	1	main_slash	11	advance_on_keypress_SLASH	30	stimuli_target_rectangletriangles.svg	stimuli_distractor_diamondtriangles.svg	5	yes	57	0	281	0	0			0	0			1				0	
6.6.1	mac	2023-06-12	16:45:42	16:53:46	481328	60fed81a020a69e3bbb6017d	4	1	main_slash	11	main_slash	31	stimuli_target_diamondrectangles.svg	stimuli_distractor_trianglediamonds.svg	19	yes	53	1	996	0	0			0	0			1				0	
6.6.1	mac	2023-06-12	16:45:42	16:53:46	481328	60fed81a020a69e3bbb6017d	4	1	main_slash	11	advance_on_keypress_SLASH	32	stimuli_target_diamondrectangles.svg	stimuli_distractor_trianglediamonds.svg	19	yes	57	0	327	0	0			0	0			1				0	
6.6.1	mac	2023-06-12	16:45:42	16:53:48	483265	60fed81a020a69e3bbb6017d	4	1	main_slash	11	main_slash	33	stimuli_distractor_diamondtriangles.svg	stimuli_target_squarediamonds.svg	16	yes	53	1	978	0	0			0	0			1				0	
6.6.1	mac	2023-06-12	16:45:42	16:53:48	483265	60fed81a020a69e3bbb6017d	4	1	main_slash	11	advance_on_keypress_SLASH	34	stimuli_distractor_diamondtriangles.svg	stimuli_target_squarediamonds.svg	16	yes	57	0	280	0	0			0	0			1				0	
6.6.1	mac	2023-06-12	16:45:42	16:53:50	485207	60fed81a020a69e3bbb6017d	4	1	main_slash	11	main_slash	35	stimuli_target_squaretriangles.svg	stimuli_distractor_trianglediamonds.svg	3	yes	53	1	1019	0	0			0	0			1				0	
6.6.1	mac	2023-06-12	16:45:42	16:53:50	485207	60fed81a020a69e3bbb6017d	4	1	main_slash	11	advance_on_keypress_SLASH	36	stimuli_target_squaretriangles.svg	stimuli_distractor_trianglediamonds.svg	3	yes	57	0	248	0	0			0	0			1				0	
6.6.1	mac	2023-06-12	16:45:42	16:53:51	487065	60fed81a020a69e3bbb6017d	4	1	main_slash	11	main_slash	37	stimuli_target_rectangletriangles.svg	stimuli_distractor_trianglediamonds.svg	1	yes	53	1	975	0	0			0	0			1				0	
6.6.1	mac	2023-06-12	16:45:42	16:53:51	487065	60fed81a020a69e3bbb6017d	4	1	main_slash	11	advance_on_keypress_SLASH	38	stimuli_target_rectangletriangles.svg	stimuli_distractor_trianglediamonds.svg	1	yes	57	0	244	0	0			0	0			1				0	
6.6.1	mac	2023-06-12	16:45:42	16:53:54	489937	60fed81a020a69e3bbb6017d	4	1	main_slash	11	main_slash	39	stimuli_distractor_diamondtriangles.svg	stimuli_distractor_trianglediamonds.svg	37	no	0	1	2000	0	0			0	0			1				0	
6.6.1	mac	2023-06-12	16:45:42	16:53:54	489937	60fed81a020a69e3bbb6017d	4	1	main_slash	11	advance_on_keypress_SLASH	40	stimuli_distractor_diamondtriangles.svg	stimuli_distractor_trianglediamonds.svg	37	no	57	0	831	0	0			0	0			1				0	
6.6.1	mac	2023-06-12	16:45:42	16:53:57	492427	60fed81a020a69e3bbb6017d	4	1	main_slash	11	main_slash	41	stimuli_target_diamondrectangles.svg	stimuli_distractor_diamondtriangles.svg	23	yes	53	1	1034	0	0			0	0			1				0	
6.6.1	mac	2023-06-12	16:45:42	16:53:57	492427	60fed81a020a69e3bbb6017d	4	1	main_slash	11	advance_on_keypress_SLASH	42	stimuli_target_diamondrectangles.svg	stimuli_distractor_diamondtriangles.svg	23	yes	57	0	338	0	0			0	0			1				0	
6.6.1	mac	2023-06-12	16:45:42	16:53:59	494416	60fed81a020a69e3bbb6017d	4	1	main_slash	11	main_slash	43	stimuli_target_squaretriangles.svg	stimuli_distractor_diamondtriangles.svg	7	yes	53	1	1022	0	0			0	0			1				0	
6.6.1	mac	2023-06-12	16:45:42	16:53:59	494416	60fed81a020a69e3bbb6017d	4	1	main_slash	11	advance_on_keypress_SLASH	44	stimuli_target_squaretriangles.svg	stimuli_distractor_diamondtriangles.svg	7	yes	57	0	301	0	0			0	0			1				0	
6.6.1	mac	2023-06-12	16:45:42	16:54:01	496791	60fed81a020a69e3bbb6017d	4	1	main_slash	11	main_slash	45	stimuli_distractor_diamondtriangles.svg	stimuli_target_trianglerectangles.svg	29	yes	53	1	1429	0	0			0	0			1				0	
6.6.1	mac	2023-06-12	16:45:42	16:54:01	496791	60fed81a020a69e3bbb6017d	4	1	main_slash	11	advance_on_keypress_SLASH	46	stimuli_distractor_diamondtriangles.svg	stimuli_target_trianglerectangles.svg	29	yes	57	0	272	0	0			0	0			1				0	
6.6.1	mac	2023-06-12	16:45:42	16:54:04	499699	60fed81a020a69e3bbb6017d	4	1	main_slash	11	main_slash	47	stimuli_distractor_diamondtriangles.svg	stimuli_distractor_diamondtriangles.svg	40	no	0	1	2000	0	0			0	0			1				0	
6.6.1	mac	2023-06-12	16:45:42	16:54:04	499699	60fed81a020a69e3bbb6017d	4	1	main_slash	11	advance_on_keypress_SLASH	48	stimuli_distractor_diamondtriangles.svg	stimuli_distractor_diamondtriangles.svg	40	no	57	0	645	0	0			0	0			1				0	
6.6.1	mac	2023-06-12	16:45:42	16:54:07	502978	60fed81a020a69e3bbb6017d	4	1	main_slash	11	main_slash	49	stimuli_distractor_trianglediamonds.svg	stimuli_distractor_diamondtriangles.svg	36	no	0	1	2000	0	0			0	0			1				0	
6.6.1	mac	2023-06-12	16:45:42	16:54:07	502978	60fed81a020a69e3bbb6017d	4	1	main_slash	11	advance_on_keypress_SLASH	50	stimuli_distractor_trianglediamonds.svg	stimuli_distractor_diamondtriangles.svg	36	no	57	0	296	0	0			0	0			1				0	
6.6.1	mac	2023-06-12	16:45:42	16:54:09	504772	60fed81a020a69e3bbb6017d	4	1	main_slash	11	main_slash	51	stimuli_distractor_trianglediamonds.svg	stimuli_target_trianglesquares.svg	26	yes	53	1	873	0	0			0	0			1				0	
6.6.1	mac	2023-06-12	16:45:42	16:54:09	504772	60fed81a020a69e3bbb6017d	4	1	main_slash	11	advance_on_keypress_SLASH	52	stimuli_distractor_trianglediamonds.svg	stimuli_target_trianglesquares.svg	26	yes	57	0	434	0	0			0	0			1				0	
6.6.1	mac	2023-06-12	16:45:42	16:54:11	506808	60fed81a020a69e3bbb6017d	4	1	main_slash	11	main_slash	53	stimuli_distractor_diamondtriangles.svg	stimuli_target_trianglesquares.svg	30	yes	53	1	970	0	0			0	0			1				0	
6.6.1	mac	2023-06-12	16:45:42	16:54:11	506808	60fed81a020a69e3bbb6017d	4	1	main_slash	11	advance_on_keypress_SLASH	54	stimuli_distractor_diamondtriangles.svg	stimuli_target_trianglesquares.svg	30	yes	57	0	336	0	0			0	0			1				0	
6.6.1	mac	2023-06-12	16:45:42	16:54:13	508899	60fed81a020a69e3bbb6017d	4	1	main_slash	11	main_slash	55	stimuli_target_trianglerectangles.svg	stimuli_distractor_diamondtriangles.svg	21	yes	53	1	1124	0	0			0	0			1				0	
6.6.1	mac	2023-06-12	16:45:42	16:54:13	508899	60fed81a020a69e3bbb6017d	4	1	main_slash	11	advance_on_keypress_SLASH	56	stimuli_target_trianglerectangles.svg	stimuli_distractor_diamondtriangles.svg	21	yes	57	0	260	0	0			0	0			1				0	
6.6.1	mac	2023-06-12	16:45:42	16:54:15	510825	60fed81a020a69e3bbb6017d	4	1	main_slash	11	main_slash	57	stimuli_distractor_diamondtriangles.svg	stimuli_target_diamondsquares.svg	32	yes	53	1	1017	0	0			0	0			1				0	
6.6.1	mac	2023-06-12	16:45:42	16:54:15	510825	60fed81a020a69e3bbb6017d	4	1	main_slash	11	advance_on_keypress_SLASH	58	stimuli_distractor_diamondtriangles.svg	stimuli_target_diamondsquares.svg	32	yes	57	0	357	0	0			0	0			1				0	
6.6.1	mac	2023-06-12	16:45:42	16:54:18	513809	60fed81a020a69e3bbb6017d	4	1	main_slash	11	main_slash	59	stimuli_distractor_trianglediamonds.svg	stimuli_target_squaretriangles.svg	11	yes	0	0	2000	0	0			0	0			1				0	
6.6.1	mac	2023-06-12	16:45:42	16:54:18	513809	60fed81a020a69e3bbb6017d	4	1	main_slash	11	advance_on_keypress_SLASH	60	stimuli_distractor_trianglediamonds.svg	stimuli_target_squaretriangles.svg	11	yes	57	0	615	0	0			0	0			1				0	
6.6.1	mac	2023-06-12	16:45:42	16:54:21	516174	60fed81a020a69e3bbb6017d	4	1	main_slash	11	main_slash	61	stimuli_distractor_diamondtriangles.svg	stimuli_target_rectanglediamonds.svg	14	yes	53	1	1131	0	0			0	0			1				0	
6.6.1	mac	2023-06-12	16:45:42	16:54:21	516174	60fed81a020a69e3bbb6017d	4	1	main_slash	11	advance_on_keypress_SLASH	62	stimuli_distractor_diamondtriangles.svg	stimuli_target_rectanglediamonds.svg	14	yes	57	0	345	0	0			0	0			1				0	
6.6.1	mac	2023-06-12	16:45:42	16:54:22	518109	60fed81a020a69e3bbb6017d	4	1	main_slash	11	main_slash	63	stimuli_distractor_trianglediamonds.svg	stimuli_target_rectangletriangles.svg	9	yes	53	1	945	0	0			0	0			1				0	
6.6.1	mac	2023-06-12	16:45:42	16:54:22	518109	60fed81a020a69e3bbb6017d	4	1	main_slash	11	advance_on_keypress_SLASH	64	stimuli_distractor_trianglediamonds.svg	stimuli_target_rectangletriangles.svg	9	yes	57	0	324	0	0			0	0			1				0	
6.6.1	mac	2023-06-12	16:45:42	16:54:24	520095	60fed81a020a69e3bbb6017d	4	1	main_slash	11	main_slash	65	stimuli_distractor_diamondtriangles.svg	stimuli_target_diamondrectangles.svg	31	yes	53	1	1032	0	0			0	0			1				0	
6.6.1	mac	2023-06-12	16:45:42	16:54:24	520095	60fed81a020a69e3bbb6017d	4	1	main_slash	11	advance_on_keypress_SLASH	66	stimuli_distractor_diamondtriangles.svg	stimuli_target_diamondrectangles.svg	31	yes	57	0	314	0	0			0	0			1				0	
6.6.1	mac	2023-06-12	16:45:42	16:54:26	521953	60fed81a020a69e3bbb6017d	4	1	main_slash	11	main_slash	67	stimuli_distractor_trianglediamonds.svg	stimuli_target_diamondrectangles.svg	27	yes	53	1	904	0	0			0	0			1				0	
6.6.1	mac	2023-06-12	16:45:42	16:54:26	521953	60fed81a020a69e3bbb6017d	4	1	main_slash	11	advance_on_keypress_SLASH	68	stimuli_distractor_trianglediamonds.svg	stimuli_target_diamondrectangles.svg	27	yes	57	0	310	0	0			0	0			1				0	
6.6.1	mac	2023-06-12	16:45:42	16:54:28	523741	60fed81a020a69e3bbb6017d	4	1	main_slash	11	main_slash	69	stimuli_target_squarediamonds.svg	stimuli_distractor_trianglediamonds.svg	4	yes	53	1	843	0	0			0	0			1				0	
6.6.1	mac	2023-06-12	16:45:42	16:54:28	523741	60fed81a020a69e3bbb6017d	4	1	main_slash	11	advance_on_keypress_SLASH	70	stimuli_target_squarediamonds.svg	stimuli_distractor_trianglediamonds.svg	4	yes	57	0	325	0	0			0	0			1				0	
6.6.1	mac	2023-06-12	16:45:42	16:54:30	525631	60fed81a020a69e3bbb6017d	4	1	main_slash	11	main_slash	71	stimuli_target_diamondsquares.svg	stimuli_distractor_trianglediamonds.svg	20	yes	53	1	930	0	0			0	0			1				0	
6.6.1	mac	2023-06-12	16:45:42	16:54:30	525631	60fed81a020a69e3bbb6017d	4	1	main_slash	11	advance_on_keypress_SLASH	72	stimuli_target_diamondsquares.svg	stimuli_distractor_trianglediamonds.svg	20	yes	57	0	341	0	0			0	0			1				0	
6.6.1	mac	2023-06-12	16:45:42	16:54:32	527514	60fed81a020a69e3bbb6017d	4	1	main_slash	11	main_slash	73	stimuli_target_trianglesquares.svg	stimuli_distractor_diamondtriangles.svg	22	yes	53	1	912	0	0			0	0			1				0	
6.6.1	mac	2023-06-12	16:45:42	16:54:32	527514	60fed81a020a69e3bbb6017d	4	1	main_slash	11	advance_on_keypress_SLASH	74	stimuli_target_trianglesquares.svg	stimuli_distractor_diamondtriangles.svg	22	yes	57	0	317	0	0			0	0			1				0	
6.6.1	mac	2023-06-12	16:45:42	16:54:34	529387	60fed81a020a69e3bbb6017d	4	1	main_slash	11	main_slash	75	stimuli_distractor_trianglediamonds.svg	stimuli_target_trianglerectangles.svg	25	yes	53	1	917	0	0			0	0			1				0	
6.6.1	mac	2023-06-12	16:45:42	16:54:34	529387	60fed81a020a69e3bbb6017d	4	1	main_slash	11	advance_on_keypress_SLASH	76	stimuli_distractor_trianglediamonds.svg	stimuli_target_trianglerectangles.svg	25	yes	57	0	290	0	0			0	0			1				0	
6.6.1	mac	2023-06-12	16:45:42	16:54:36	531745	60fed81a020a69e3bbb6017d	4	1	main_slash	11	main_slash	77	stimuli_target_squarediamonds.svg	stimuli_distractor_diamondtriangles.svg	8	yes	53	1	1440	0	0			0	0			1				0	
6.6.1	mac	2023-06-12	16:45:42	16:54:36	531745	60fed81a020a69e3bbb6017d	4	1	main_slash	11	advance_on_keypress_SLASH	78	stimuli_target_squarediamonds.svg	stimuli_distractor_diamondtriangles.svg	8	yes	57	0	245	0	0			0	0			1				0	
6.6.1	mac	2023-06-12	16:45:42	16:54:38	533756	60fed81a020a69e3bbb6017d	4	1	main_slash	11	main_slash	79	stimuli_distractor_diamondtriangles.svg	stimuli_distractor_trianglediamonds.svg	38	no	53	0	1145	0	0			0	0			1				0	
6.6.1	mac	2023-06-12	16:45:42	16:54:38	533756	60fed81a020a69e3bbb6017d	4	1	main_slash	11	advance_on_keypress_SLASH	80	stimuli_distractor_diamondtriangles.svg	stimuli_distractor_trianglediamonds.svg	38	no	57	0	287	0	0			0	0			1				0	
6.6.1	mac	2023-06-12	16:45:42	16:54:41	536675	60fed81a020a69e3bbb6017d	4	1	main_slash	11	main_slash	81	stimuli_distractor_trianglediamonds.svg	stimuli_target_rectanglediamonds.svg	10	yes	0	0	2000	0	0			0	0			1				0	
6.6.1	mac	2023-06-12	16:45:42	16:54:41	536675	60fed81a020a69e3bbb6017d	4	1	main_slash	11	advance_on_keypress_SLASH	82	stimuli_distractor_trianglediamonds.svg	stimuli_target_rectanglediamonds.svg	10	yes	57	0	454	0	0			0	0			1				0	
6.6.1	mac	2023-06-12	16:45:42	16:54:43	538672	60fed81a020a69e3bbb6017d	4	1	main_slash	11	main_slash	83	stimuli_distractor_diamondtriangles.svg	stimuli_target_diamondrectangles.svg	31	yes	53	1	897	0	0			0	0			1				0	
6.6.1	mac	2023-06-12	16:45:42	16:54:43	538672	60fed81a020a69e3bbb6017d	4	1	main_slash	11	advance_on_keypress_SLASH	84	stimuli_distractor_diamondtriangles.svg	stimuli_target_diamondrectangles.svg	31	yes	57	0	268	0	0			0	0			1				0	
6.6.1	mac	2023-06-12	16:45:42	16:54:45	540636	60fed81a020a69e3bbb6017d	4	1	main_slash	11	main_slash	85	stimuli_distractor_trianglediamonds.svg	stimuli_distractor_trianglediamonds.svg	33	no	53	0	1058	0	0			0	0			1				0	
6.6.1	mac	2023-06-12	16:45:42	16:54:45	540636	60fed81a020a69e3bbb6017d	4	1	main_slash	11	advance_on_keypress_SLASH	86	stimuli_distractor_trianglediamonds.svg	stimuli_distractor_trianglediamonds.svg	33	no	57	0	241	0	0			0	0			1				0	
6.6.1	mac	2023-06-12	16:45:42	16:54:47	542438	60fed81a020a69e3bbb6017d	4	1	main_slash	11	main_slash	87	stimuli_distractor_diamondtriangles.svg	stimuli_target_trianglesquares.svg	30	yes	53	1	926	0	0			0	0			1				0	
6.6.1	mac	2023-06-12	16:45:42	16:54:47	542438	60fed81a020a69e3bbb6017d	4	1	main_slash	11	advance_on_keypress_SLASH	88	stimuli_distractor_diamondtriangles.svg	stimuli_target_trianglesquares.svg	30	yes	57	0	265	0	0			0	0			1				0	
6.6.1	mac	2023-06-12	16:45:42	16:54:49	544141	60fed81a020a69e3bbb6017d	4	1	main_slash	11	main_slash	89	stimuli_target_diamondsquares.svg	stimuli_distractor_diamondtriangles.svg	24	yes	53	1	795	0	0			0	0			1				0	
6.6.1	mac	2023-06-12	16:45:42	16:54:49	544141	60fed81a020a69e3bbb6017d	4	1	main_slash	11	advance_on_keypress_SLASH	90	stimuli_target_diamondsquares.svg	stimuli_distractor_diamondtriangles.svg	24	yes	57	0	313	0	0			0	0			1				0	
6.6.1	mac	2023-06-12	16:45:42	16:54:51	547099	60fed81a020a69e3bbb6017d	4	1	main_slash	11	main_slash	91	stimuli_distractor_trianglediamonds.svg	stimuli_distractor_diamondtriangles.svg	35	no	0	1	2000	0	0			0	0			1				0	
6.6.1	mac	2023-06-12	16:45:42	16:54:51	547099	60fed81a020a69e3bbb6017d	4	1	main_slash	11	advance_on_keypress_SLASH	92	stimuli_distractor_trianglediamonds.svg	stimuli_distractor_diamondtriangles.svg	35	no	57	0	598	0	0			0	0			1				0	
6.6.1	mac	2023-06-12	16:45:42	16:54:55	550336	60fed81a020a69e3bbb6017d	4	1	main_slash	11	main_slash	93	stimuli_distractor_diamondtriangles.svg	stimuli_target_squaretriangles.svg	15	yes	0	0	2000	0	0			0	0			1				0	
6.6.1	mac	2023-06-12	16:45:42	16:54:55	550336	60fed81a020a69e3bbb6017d	4	1	main_slash	11	advance_on_keypress_SLASH	94	stimuli_distractor_diamondtriangles.svg	stimuli_target_squaretriangles.svg	15	yes	57	0	261	0	0			0	0			1				0	
6.6.1	mac	2023-06-12	16:45:42	16:54:58	553216	60fed81a020a69e3bbb6017d	4	1	main_slash	11	main_slash	95	stimuli_distractor_diamondtriangles.svg	stimuli_distractor_trianglediamonds.svg	37	no	0	1	2000	0	0			0	0			1				0	
6.6.1	mac	2023-06-12	16:45:42	16:54:58	553216	60fed81a020a69e3bbb6017d	4	1	main_slash	11	advance_on_keypress_SLASH	96	stimuli_distractor_diamondtriangles.svg	stimuli_distractor_trianglediamonds.svg	37	no	57	0	389	0	0			0	0			1				0	
6.6.1	mac	2023-06-12	16:45:42	16:54:59	555087	60fed81a020a69e3bbb6017d	4	1	main_slash	11	main_slash	97	stimuli_target_rectanglediamonds.svg	stimuli_distractor_trianglediamonds.svg	2	yes	53	1	850	0	0			0	0			1				0	
6.6.1	mac	2023-06-12	16:45:42	16:54:59	555087	60fed81a020a69e3bbb6017d	4	1	main_slash	11	advance_on_keypress_SLASH	98	stimuli_target_rectanglediamonds.svg	stimuli_distractor_trianglediamonds.svg	2	yes	57	0	295	0	0			0	0			1				0	
6.6.1	mac	2023-06-12	16:45:42	16:55:02	557537	60fed81a020a69e3bbb6017d	4	1	main_slash	11	main_slash	99	stimuli_distractor_diamondtriangles.svg	stimuli_target_trianglerectangles.svg	29	yes	53	1	1515	0	0			0	0			1				0	
6.6.1	mac	2023-06-12	16:45:42	16:55:02	557537	60fed81a020a69e3bbb6017d	4	1	main_slash	11	advance_on_keypress_SLASH	100	stimuli_distractor_diamondtriangles.svg	stimuli_target_trianglerectangles.svg	29	yes	57	0	487	0	0			0	0			1				0	
6.6.1	mac	2023-06-12	16:45:42	16:55:04	559763	60fed81a020a69e3bbb6017d	4	1	main_slash	11	main_slash	101	stimuli_distractor_diamondtriangles.svg	stimuli_target_rectangletriangles.svg	13	yes	53	1	1096	0	0			0	0			1				0	
6.6.1	mac	2023-06-12	16:45:42	16:55:04	559763	60fed81a020a69e3bbb6017d	4	1	main_slash	11	advance_on_keypress_SLASH	102	stimuli_distractor_diamondtriangles.svg	stimuli_target_rectangletriangles.svg	13	yes	57	0	395	0	0			0	0			1				0	
6.6.1	mac	2023-06-12	16:45:42	16:55:06	561794	60fed81a020a69e3bbb6017d	4	1	main_slash	11	main_slash	103	stimuli_target_trianglesquares.svg	stimuli_distractor_trianglediamonds.svg	18	yes	53	1	997	0	0			0	0			1				0	
6.6.1	mac	2023-06-12	16:45:42	16:55:06	561794	60fed81a020a69e3bbb6017d	4	1	main_slash	11	advance_on_keypress_SLASH	104	stimuli_target_trianglesquares.svg	stimuli_distractor_trianglediamonds.svg	18	yes	57	0	414	0	0			0	0			1				0	
6.6.1	mac	2023-06-12	16:45:42	16:55:08	563709	60fed81a020a69e3bbb6017d	4	1	main_slash	11	main_slash	105	stimuli_distractor_trianglediamonds.svg	stimuli_target_trianglerectangles.svg	25	yes	53	1	881	0	0			0	0			1				0	
6.6.1	mac	2023-06-12	16:45:42	16:55:08	563709	60fed81a020a69e3bbb6017d	4	1	main_slash	11	advance_on_keypress_SLASH	106	stimuli_distractor_trianglediamonds.svg	stimuli_target_trianglerectangles.svg	25	yes	57	0	307	0	0			0	0			1				0	
6.6.1	mac	2023-06-12	16:45:42	16:55:10	565487	60fed81a020a69e3bbb6017d	4	1	main_slash	11	main_slash	107	stimuli_distractor_diamondtriangles.svg	stimuli_target_rectanglediamonds.svg	14	yes	53	1	844	0	0			0	0			1				0	
6.6.1	mac	2023-06-12	16:45:42	16:55:10	565487	60fed81a020a69e3bbb6017d	4	1	main_slash	11	advance_on_keypress_SLASH	108	stimuli_distractor_diamondtriangles.svg	stimuli_target_rectanglediamonds.svg	14	yes	57	0	243	0	0			0	0			1				0	
6.6.1	mac	2023-06-12	16:45:42	16:55:11	567098	60fed81a020a69e3bbb6017d	4	1	main_slash	11	main_slash	109	stimuli_distractor_diamondtriangles.svg	stimuli_target_diamondsquares.svg	32	yes	53	1	733	0	0			0	0			1				0	
6.6.1	mac	2023-06-12	16:45:42	16:55:11	567098	60fed81a020a69e3bbb6017d	4	1	main_slash	11	advance_on_keypress_SLASH	110	stimuli_distractor_diamondtriangles.svg	stimuli_target_diamondsquares.svg	32	yes	57	0	336	0	0			0	0			1				0	
6.6.1	mac	2023-06-12	16:45:42	16:55:13	568985	60fed81a020a69e3bbb6017d	4	1	main_slash	11	main_slash	111	stimuli_target_squaretriangles.svg	stimuli_distractor_diamondtriangles.svg	7	yes	53	1	918	0	0			0	0			1				0	
6.6.1	mac	2023-06-12	16:45:42	16:55:13	568985	60fed81a020a69e3bbb6017d	4	1	main_slash	11	advance_on_keypress_SLASH	112	stimuli_target_squaretriangles.svg	stimuli_distractor_diamondtriangles.svg	7	yes	57	0	283	0	0			0	0			1				0	
6.6.1	mac	2023-06-12	16:45:42	16:55:15	570694	60fed81a020a69e3bbb6017d	4	1	main_slash	11	main_slash	113	stimuli_distractor_trianglediamonds.svg	stimuli_target_rectangletriangles.svg	9	yes	53	1	792	0	0			0	0			1				0	
6.6.1	mac	2023-06-12	16:45:42	16:55:15	570694	60fed81a020a69e3bbb6017d	4	1	main_slash	11	advance_on_keypress_SLASH	114	stimuli_distractor_trianglediamonds.svg	stimuli_target_rectangletriangles.svg	9	yes	57	0	313	0	0			0	0			1				0	
6.6.1	mac	2023-06-12	16:45:42	16:55:17	572569	60fed81a020a69e3bbb6017d	4	1	main_slash	11	main_slash	115	stimuli_distractor_trianglediamonds.svg	stimuli_target_squarediamonds.svg	12	yes	53	1	917	0	0			0	0			1				0	
6.6.1	mac	2023-06-12	16:45:42	16:55:17	572569	60fed81a020a69e3bbb6017d	4	1	main_slash	11	advance_on_keypress_SLASH	116	stimuli_distractor_trianglediamonds.svg	stimuli_target_squarediamonds.svg	12	yes	57	0	260	0	0			0	0			1				0	
6.6.1	mac	2023-06-12	16:45:42	16:55:19	574375	60fed81a020a69e3bbb6017d	4	1	main_slash	11	main_slash	117	stimuli_target_diamondsquares.svg	stimuli_distractor_trianglediamonds.svg	20	yes	53	1	922	0	0			0	0			1				0	
6.6.1	mac	2023-06-12	16:45:42	16:55:19	574375	60fed81a020a69e3bbb6017d	4	1	main_slash	11	advance_on_keypress_SLASH	118	stimuli_target_diamondsquares.svg	stimuli_distractor_trianglediamonds.svg	20	yes	57	0	291	0	0			0	0			1				0	
6.6.1	mac	2023-06-12	16:45:42	16:55:21	576173	60fed81a020a69e3bbb6017d	4	1	main_slash	11	main_slash	119	stimuli_target_squaretriangles.svg	stimuli_distractor_trianglediamonds.svg	3	yes	53	1	884	0	0			0	0			1				0	
6.6.1	mac	2023-06-12	16:45:42	16:55:21	576173	60fed81a020a69e3bbb6017d	4	1	main_slash	11	advance_on_keypress_SLASH	120	stimuli_target_squaretriangles.svg	stimuli_distractor_trianglediamonds.svg	3	yes	57	0	323	0	0			0	0			1				0	
6.6.1	mac	2023-06-12	16:45:42	16:55:22	578090	60fed81a020a69e3bbb6017d	4	1	main_slash	11	main_slash	121	stimuli_target_squarediamonds.svg	stimuli_distractor_trianglediamonds.svg	4	yes	53	1	966	0	0			0	0			1				0	
6.6.1	mac	2023-06-12	16:45:42	16:55:22	578090	60fed81a020a69e3bbb6017d	4	1	main_slash	11	advance_on_keypress_SLASH	122	stimuli_target_squarediamonds.svg	stimuli_distractor_trianglediamonds.svg	4	yes	57	0	411	0	0			0	0			1				0	
6.6.1	mac	2023-06-12	16:45:42	16:55:24	579984	60fed81a020a69e3bbb6017d	4	1	main_slash	11	main_slash	123	stimuli_distractor_diamondtriangles.svg	stimuli_target_squarediamonds.svg	16	yes	53	1	858	0	0			0	0			1				0	
6.6.1	mac	2023-06-12	16:45:42	16:55:24	579984	60fed81a020a69e3bbb6017d	4	1	main_slash	11	advance_on_keypress_SLASH	124	stimuli_distractor_diamondtriangles.svg	stimuli_target_squarediamonds.svg	16	yes	57	0	278	0	0			0	0			1				0	
6.6.1	mac	2023-06-12	16:45:42	16:55:26	581730	60fed81a020a69e3bbb6017d	4	1	main_slash	11	main_slash	125	stimuli_target_rectanglediamonds.svg	stimuli_distractor_diamondtriangles.svg	6	yes	53	1	832	0	0			0	0			1				0	
6.6.1	mac	2023-06-12	16:45:42	16:55:26	581730	60fed81a020a69e3bbb6017d	4	1	main_slash	11	advance_on_keypress_SLASH	126	stimuli_target_rectanglediamonds.svg	stimuli_distractor_diamondtriangles.svg	6	yes	57	0	294	0	0			0	0			1				0	
6.6.1	mac	2023-06-12	16:45:42	16:55:28	583551	60fed81a020a69e3bbb6017d	4	1	main_slash	11	main_slash	127	stimuli_distractor_trianglediamonds.svg	stimuli_distractor_trianglediamonds.svg	34	no	53	0	900	0	0			0	0			1				0	
6.6.1	mac	2023-06-12	16:45:42	16:55:28	583551	60fed81a020a69e3bbb6017d	4	1	main_slash	11	advance_on_keypress_SLASH	128	stimuli_distractor_trianglediamonds.svg	stimuli_distractor_trianglediamonds.svg	34	no	57	0	297	0	0			0	0			1				0	
6.6.1	mac	2023-06-12	16:45:42	16:55:30	585568	60fed81a020a69e3bbb6017d	4	1	main_slash	11	main_slash	129	stimuli_distractor_trianglediamonds.svg	stimuli_target_squaretriangles.svg	11	yes	53	1	1082	0	0			0	0			1				0	
6.6.1	mac	2023-06-12	16:45:42	16:55:30	585568	60fed81a020a69e3bbb6017d	4	1	main_slash	11	advance_on_keypress_SLASH	130	stimuli_distractor_trianglediamonds.svg	stimuli_target_squaretriangles.svg	11	yes	57	0	232	0	0			0	0			1				0	
6.6.1	mac	2023-06-12	16:45:42	16:55:32	587365	60fed81a020a69e3bbb6017d	4	1	main_slash	11	main_slash	131	stimuli_target_trianglesquares.svg	stimuli_distractor_diamondtriangles.svg	22	yes	53	1	926	0	0			0	0			1				0	
6.6.1	mac	2023-06-12	16:45:42	16:55:32	587365	60fed81a020a69e3bbb6017d	4	1	main_slash	11	advance_on_keypress_SLASH	132	stimuli_target_trianglesquares.svg	stimuli_distractor_diamondtriangles.svg	22	yes	57	0	259	0	0			0	0			1				0	
6.6.1	mac	2023-06-12	16:45:42	16:55:33	589050	60fed81a020a69e3bbb6017d	4	1	main_slash	11	main_slash	133	stimuli_distractor_trianglediamonds.svg	stimuli_target_diamondsquares.svg	28	yes	53	1	792	0	0			0	0			1				0	
6.6.1	mac	2023-06-12	16:45:42	16:55:33	589050	60fed81a020a69e3bbb6017d	4	1	main_slash	11	advance_on_keypress_SLASH	134	stimuli_distractor_trianglediamonds.svg	stimuli_target_diamondsquares.svg	28	yes	57	0	448	0	0			0	0			1				0	
6.6.1	mac	2023-06-12	16:45:42	16:55:36	591184	60fed81a020a69e3bbb6017d	4	1	main_slash	11	main_slash	135	stimuli_distractor_trianglediamonds.svg	stimuli_distractor_diamondtriangles.svg	36	no	53	0	1040	0	0			0	0			1				0	
6.6.1	mac	2023-06-12	16:45:42	16:55:36	591184	60fed81a020a69e3bbb6017d	4	1	main_slash	11	advance_on_keypress_SLASH	136	stimuli_distractor_trianglediamonds.svg	stimuli_distractor_diamondtriangles.svg	36	no	57	0	217	0	0			0	0			1				0	
6.6.1	mac	2023-06-12	16:45:42	16:55:38	593284	60fed81a020a69e3bbb6017d	4	1	main_slash	11	main_slash	137	stimuli_target_diamondrectangles.svg	stimuli_distractor_trianglediamonds.svg	19	yes	53	1	1239	0	0			0	0			1				0	
6.6.1	mac	2023-06-12	16:45:42	16:55:38	593284	60fed81a020a69e3bbb6017d	4	1	main_slash	11	advance_on_keypress_SLASH	138	stimuli_target_diamondrectangles.svg	stimuli_distractor_trianglediamonds.svg	19	yes	57	0	303	0	0			0	0			1				0	
6.6.1	mac	2023-06-12	16:45:42	16:55:39	595099	60fed81a020a69e3bbb6017d	4	1	main_slash	11	main_slash	139	stimuli_distractor_trianglediamonds.svg	stimuli_target_diamondrectangles.svg	27	yes	53	1	883	0	0			0	0			1				0	
6.6.1	mac	2023-06-12	16:45:42	16:55:39	595099	60fed81a020a69e3bbb6017d	4	1	main_slash	11	advance_on_keypress_SLASH	140	stimuli_distractor_trianglediamonds.svg	stimuli_target_diamondrectangles.svg	27	yes	57	0	285	0	0			0	0			1				0	
6.6.1	mac	2023-06-12	16:45:42	16:55:42	598011	60fed81a020a69e3bbb6017d	4	1	main_slash	11	main_slash	141	stimuli_distractor_diamondtriangles.svg	stimuli_distractor_diamondtriangles.svg	40	no	0	1	2000	0	0			0	0			1				0	
6.6.1	mac	2023-06-12	16:45:42	16:55:42	598011	60fed81a020a69e3bbb6017d	4	1	main_slash	11	advance_on_keypress_SLASH	142	stimuli_distractor_diamondtriangles.svg	stimuli_distractor_diamondtriangles.svg	40	no	57	0	918	0	0			0	0			1				0	
6.6.1	mac	2023-06-12	16:45:42	16:55:45	600542	60fed81a020a69e3bbb6017d	4	1	main_slash	11	main_slash	143	stimuli_target_rectangletriangles.svg	stimuli_distractor_trianglediamonds.svg	1	yes	53	1	990	0	0			0	0			1				0	
6.6.1	mac	2023-06-12	16:45:42	16:55:45	600542	60fed81a020a69e3bbb6017d	4	1	main_slash	11	advance_on_keypress_SLASH	144	stimuli_target_rectangletriangles.svg	stimuli_distractor_trianglediamonds.svg	1	yes	57	0	252	0	0			0	0			1				0	
6.6.1	mac	2023-06-12	16:45:42	16:55:48	603432	60fed81a020a69e3bbb6017d	4	1	main_slash	11	main_slash	145	stimuli_distractor_diamondtriangles.svg	stimuli_distractor_diamondtriangles.svg	39	no	0	1	2000	0	0			0	0			1				0	
6.6.1	mac	2023-06-12	16:45:42	16:55:48	603432	60fed81a020a69e3bbb6017d	4	1	main_slash	11	advance_on_keypress_SLASH	146	stimuli_distractor_diamondtriangles.svg	stimuli_distractor_diamondtriangles.svg	39	no	57	0	761	0	0			0	0			1				0	
6.6.1	mac	2023-06-12	16:45:42	16:55:50	605936	60fed81a020a69e3bbb6017d	4	1	main_slash	11	main_slash	147	stimuli_target_trianglerectangles.svg	stimuli_distractor_trianglediamonds.svg	17	yes	53	1	1116	0	0			0	0			1				0	
6.6.1	mac	2023-06-12	16:45:42	16:55:50	605936	60fed81a020a69e3bbb6017d	4	1	main_slash	11	advance_on_keypress_SLASH	148	stimuli_target_trianglerectangles.svg	stimuli_distractor_trianglediamonds.svg	17	yes	57	0	305	0	0			0	0			1				0	
6.6.1	mac	2023-06-12	16:45:42	16:55:52	607839	60fed81a020a69e3bbb6017d	4	1	main_slash	11	main_slash	149	stimuli_target_diamondrectangles.svg	stimuli_distractor_diamondtriangles.svg	23	yes	53	1	969	0	0			0	0			1				0	
6.6.1	mac	2023-06-12	16:45:42	16:55:52	607839	60fed81a020a69e3bbb6017d	4	1	main_slash	11	advance_on_keypress_SLASH	150	stimuli_target_diamondrectangles.svg	stimuli_distractor_diamondtriangles.svg	23	yes	57	0	266	0	0			0	0			1				0	
6.6.1	mac	2023-06-12	16:45:42	16:55:54	609873	60fed81a020a69e3bbb6017d	4	1	main_slash	11	main_slash	151	stimuli_target_trianglerectangles.svg	stimuli_distractor_diamondtriangles.svg	21	yes	53	1	1135	0	0			0	0			1				0	
6.6.1	mac	2023-06-12	16:45:42	16:55:54	609873	60fed81a020a69e3bbb6017d	4	1	main_slash	11	advance_on_keypress_SLASH	152	stimuli_target_trianglerectangles.svg	stimuli_distractor_diamondtriangles.svg	21	yes	57	0	209	0	0			0	0			1				0	
6.6.1	mac	2023-06-12	16:45:42	16:55:56	611744	60fed81a020a69e3bbb6017d	4	1	main_slash	11	main_slash	153	stimuli_target_squarediamonds.svg	stimuli_distractor_diamondtriangles.svg	8	yes	53	1	1036	0	0			0	0			1				0	
6.6.1	mac	2023-06-12	16:45:42	16:55:56	611744	60fed81a020a69e3bbb6017d	4	1	main_slash	11	advance_on_keypress_SLASH	154	stimuli_target_squarediamonds.svg	stimuli_distractor_diamondtriangles.svg	8	yes	57	0	297	0	0			0	0			1				0	
6.6.1	mac	2023-06-12	16:45:42	16:55:58	613532	60fed81a020a69e3bbb6017d	4	1	main_slash	11	main_slash	155	stimuli_target_rectangletriangles.svg	stimuli_distractor_diamondtriangles.svg	5	yes	53	1	856	0	0			0	0			1				0	
6.6.1	mac	2023-06-12	16:45:42	16:55:58	613532	60fed81a020a69e3bbb6017d	4	1	main_slash	11	advance_on_keypress_SLASH	156	stimuli_target_rectangletriangles.svg	stimuli_distractor_diamondtriangles.svg	5	yes	57	0	330	0	0			0	0			1				0	
6.6.1	mac	2023-06-12	16:45:42	16:56:01	616507	60fed81a020a69e3bbb6017d	4	1	main_slash	11	main_slash	157	stimuli_distractor_diamondtriangles.svg	stimuli_distractor_trianglediamonds.svg	38	no	0	1	2000	0	0			0	0			1				0	
6.6.1	mac	2023-06-12	16:45:42	16:56:01	616507	60fed81a020a69e3bbb6017d	4	1	main_slash	11	advance_on_keypress_SLASH	158	stimuli_distractor_diamondtriangles.svg	stimuli_distractor_trianglediamonds.svg	38	no	57	0	439	0	0			0	0			1				0	
6.6.1	mac	2023-06-12	16:45:42	16:56:03	618287	60fed81a020a69e3bbb6017d	4	1	main_slash	11	main_slash	159	stimuli_distractor_trianglediamonds.svg	stimuli_target_trianglesquares.svg	26	yes	53	1	712	0	0			0	0			1				0	
6.6.1	mac	2023-06-12	16:45:42	16:56:03	618287	60fed81a020a69e3bbb6017d	4	1	main_slash	11	advance_on_keypress_SLASH	160	stimuli_distractor_trianglediamonds.svg	stimuli_target_trianglesquares.svg	26	yes	57	0	329	0	0			0	0			1				0	
6.6.1	mac	2023-06-12	16:45:42	16:56:03	618287	60fed81a020a69e3bbb6017d	4	1	headphonecheck_calibration	14	headphonecheck_calibrationIntro	1	stimuli_distractor_trianglediamonds.svg	stimuli_target_trianglesquares.svg	26	yes	calibrationButton	0	1244	0	0			0	0			1				0	
6.6.1	mac	2023-06-12	16:45:42	16:56:03	618287	60fed81a020a69e3bbb6017d	4	1	headphonecheck_testphase	15	test_collectResponse	3	stimuli_distractor_trianglediamonds.svg	stimuli_target_trianglesquares.svg	26	yes	second	1	12277	1	5	antiphase_hc_osi.wav	2	0	0			1				0	
6.6.1	mac	2023-06-12	16:45:42	16:56:03	618287	60fed81a020a69e3bbb6017d	4	1	headphonecheck_testphase	15	test_collectResponse	6	stimuli_distractor_trianglediamonds.svg	stimuli_target_trianglesquares.svg	26	yes	third	1	477	2	2	antiphase_hc_ios.wav	3	0	0			1				0	
6.6.1	mac	2023-06-12	16:45:42	16:56:03	618287	60fed81a020a69e3bbb6017d	4	1	headphonecheck_testphase	15	test_collectResponse	9	stimuli_distractor_trianglediamonds.svg	stimuli_target_trianglesquares.svg	26	yes	first	1	400	3	3	antiphase_hc_soi.wav	1	0	0			1				0	
6.6.1	mac	2023-06-12	16:45:42	16:56:03	618287	60fed81a020a69e3bbb6017d	4	1	headphonecheck_testphase	15	test_collectResponse	12	stimuli_distractor_trianglediamonds.svg	stimuli_target_trianglesquares.svg	26	yes	third	1	380	4	6	antiphase_hc_ois.wav	3	0	0			1				0	
6.6.1	mac	2023-06-12	16:45:42	16:56:03	618287	60fed81a020a69e3bbb6017d	4	1	headphonecheck_testphase	15	test_collectResponse	15	stimuli_distractor_trianglediamonds.svg	stimuli_target_trianglesquares.svg	26	yes	first	1	614	5	4	antiphase_hc_sio.wav	1	0	0			1				0	
6.6.1	mac	2023-06-12	16:45:42	16:56:03	618287	60fed81a020a69e3bbb6017d	4	1	headphonecheck_testphase	15	test_collectResponse	18	stimuli_distractor_trianglediamonds.svg	stimuli_target_trianglesquares.svg	26	yes	second	1	425	6	1	antiphase_hc_iso.wav	2	0	0			1				0	
6.6.1	mac	2023-06-12	16:45:42	16:56:03	618287	60fed81a020a69e3bbb6017d	4	1	stereocheck_calibration	17	stereocheck_calibrationIntro	1	stimuli_distractor_trianglediamonds.svg	stimuli_target_trianglesquares.svg	26	yes	stereocheck_calibrationButton	0	3624	6	1	antiphase_hc_iso.wav	2	0	0			1				0	
6.6.1	mac	2023-06-12	16:45:42	16:56:03	618287	60fed81a020a69e3bbb6017d	4	1	stereocheck_testphase	18	stereocheck_test_collectResponse	3	stimuli_distractor_trianglediamonds.svg	stimuli_target_trianglesquares.svg	26	yes	stereocheck_right	1	806	6	1	antiphase_hc_iso.wav	2	1	4	noise_calib_stim_RIGHT.wav	2	1				0	
6.6.1	mac	2023-06-12	16:45:42	16:56:03	618287	60fed81a020a69e3bbb6017d	4	1	stereocheck_testphase	18	stereocheck_test_collectResponse	6	stimuli_distractor_trianglediamonds.svg	stimuli_target_trianglesquares.svg	26	yes	stereocheck_left	1	520	6	1	antiphase_hc_iso.wav	2	2	3	noise_calib_stim_LEFT.wav	1	1				0	
6.6.1	mac	2023-06-12	16:45:42	16:56:03	618287	60fed81a020a69e3bbb6017d	4	1	stereocheck_testphase	18	stereocheck_test_collectResponse	9	stimuli_distractor_trianglediamonds.svg	stimuli_target_trianglesquares.svg	26	yes	stereocheck_left	1	386	6	1	antiphase_hc_iso.wav	2	3	1	noise_calib_stim_LEFT.wav	1	1				0	
6.6.1	mac	2023-06-12	16:45:42	16:56:03	618287	60fed81a020a69e3bbb6017d	4	1	stereocheck_testphase	18	stereocheck_test_collectResponse	12	stimuli_distractor_trianglediamonds.svg	stimuli_target_trianglesquares.svg	26	yes	stereocheck_right	1	317	6	1	antiphase_hc_iso.wav	2	4	5	noise_calib_stim_RIGHT.wav	2	1				0	
6.6.1	mac	2023-06-12	16:45:42	16:56:03	618287	60fed81a020a69e3bbb6017d	4	1	stereocheck_testphase	18	stereocheck_test_collectResponse	15	stimuli_distractor_trianglediamonds.svg	stimuli_target_trianglesquares.svg	26	yes	stereocheck_right	1	290	6	1	antiphase_hc_iso.wav	2	5	6	noise_calib_stim_RIGHT.wav	2	1				0	
6.6.1	mac	2023-06-12	16:45:42	16:56:03	618287	60fed81a020a69e3bbb6017d	4	1	stereocheck_testphase	18	stereocheck_test_collectResponse	18	stimuli_distractor_trianglediamonds.svg	stimuli_target_trianglesquares.svg	26	yes	stereocheck_left	1	318	6	1	antiphase_hc_iso.wav	2	6	2	noise_calib_stim_LEFT.wav	1	1				0	
6.6.1	mac	2023-06-12	16:45:42	16:56:03	618287	60fed81a020a69e3bbb6017d	4	1	DL_practice	21	DL_practice	2	stimuli_distractor_trianglediamonds.svg	stimuli_target_trianglesquares.svg	26	yes	ta	1	1356	6	1	antiphase_hc_iso.wav	2	6	2	noise_calib_stim_LEFT.wav	1	36	blb_dichoticlistening_ta-ta.mp3	ta	ta	0	left
6.6.1	mac	2023-06-12	16:45:42	16:56:03	618287	60fed81a020a69e3bbb6017d	4	1	DL_practice	21	DL_practice	3	stimuli_distractor_trianglediamonds.svg	stimuli_target_trianglesquares.svg	26	yes	pa	0	1082	6	1	antiphase_hc_iso.wav	2	6	2	noise_calib_stim_LEFT.wav	1	1	blb_dichoticlistening_ba-ba.mp3	ba	ba	0	other
6.6.1	mac	2023-06-12	16:45:42	16:56:03	618287	60fed81a020a69e3bbb6017d	4	1	DL_practice	21	DL_practice	4	stimuli_distractor_trianglediamonds.svg	stimuli_target_trianglesquares.svg	26	yes	ga	1	1122	6	1	antiphase_hc_iso.wav	2	6	2	noise_calib_stim_LEFT.wav	1	18	blb_dichoticlistening_ga-ta.mp3	ga	ta	1	left
6.6.1	mac	2023-06-12	16:45:42	16:56:03	618287	60fed81a020a69e3bbb6017d	4	1	DL_practice	21	DL_practice	5	stimuli_distractor_trianglediamonds.svg	stimuli_target_trianglesquares.svg	26	yes	da	1	946	6	1	antiphase_hc_iso.wav	2	6	2	noise_calib_stim_LEFT.wav	1	8	blb_dichoticlistening_da-da.mp3	da	da	0	left
6.6.1	mac	2023-06-12	16:45:42	16:56:03	618287	60fed81a020a69e3bbb6017d	4	1	DL_practice	21	DL_practice	6	stimuli_distractor_trianglediamonds.svg	stimuli_target_trianglesquares.svg	26	yes	da	1	2588	6	1	antiphase_hc_iso.wav	2	6	2	noise_calib_stim_LEFT.wav	1	7	blb_dichoticlistening_da-ba.mp3	da	ba	1	left
6.6.1	mac	2023-06-12	16:45:42	16:56:03	618287	60fed81a020a69e3bbb6017d	4	1	DL_practice	21	DL_practice	7	stimuli_distractor_trianglediamonds.svg	stimuli_target_trianglesquares.svg	26	yes	ka	1	967	6	1	antiphase_hc_iso.wav	2	6	2	noise_calib_stim_LEFT.wav	1	22	blb_dichoticlistening_ka-ka.mp3	ka	ka	0	left
6.6.1	mac	2023-06-12	16:45:42	16:56:03	618287	60fed81a020a69e3bbb6017d	4	1	DL_practice	21	DL_practice	8	stimuli_distractor_trianglediamonds.svg	stimuli_target_trianglesquares.svg	26	yes	ga	1	1363	6	1	antiphase_hc_iso.wav	2	6	2	noise_calib_stim_LEFT.wav	1	15	blb_dichoticlistening_ga-ga.mp3	ga	ga	0	left
6.6.1	mac	2023-06-12	16:45:42	16:56:03	618287	60fed81a020a69e3bbb6017d	4	1	DL_practice	21	DL_practice	9	stimuli_distractor_trianglediamonds.svg	stimuli_target_trianglesquares.svg	26	yes	ka	1	1130	6	1	antiphase_hc_iso.wav	2	6	2	noise_calib_stim_LEFT.wav	1	23	blb_dichoticlistening_ka-pa.mp3	ka	pa	1	left
6.6.1	mac	2023-06-12	16:45:42	16:56:03	618287	60fed81a020a69e3bbb6017d	4	1	DL_practice	21	DL_practice	10	stimuli_distractor_trianglediamonds.svg	stimuli_target_trianglesquares.svg	26	yes	pa	1	1308	6	1	antiphase_hc_iso.wav	2	6	2	noise_calib_stim_LEFT.wav	1	29	blb_dichoticlistening_pa-pa.mp3	pa	pa	0	left
6.6.1	mac	2023-06-12	16:45:42	16:56:03	618287	60fed81a020a69e3bbb6017d	4	1	DL_test	23	DL_test	1	stimuli_distractor_trianglediamonds.svg	stimuli_target_trianglesquares.svg	26	yes	ta	1	1444	6	1	antiphase_hc_iso.wav	2	6	2	noise_calib_stim_LEFT.wav	1	30	blb_dichoticlistening_pa-ta.mp3	pa	ta	1	right
6.6.1	mac	2023-06-12	16:45:42	16:56:03	618287	60fed81a020a69e3bbb6017d	4	1	DL_test	23	DL_test	2	stimuli_distractor_trianglediamonds.svg	stimuli_target_trianglesquares.svg	26	yes	ta	1	1235	6	1	antiphase_hc_iso.wav	2	6	2	noise_calib_stim_LEFT.wav	1	31	blb_dichoticlistening_ta-ba.mp3	ta	ba	1	left
6.6.1	mac	2023-06-12	16:45:42	16:56:03	618287	60fed81a020a69e3bbb6017d	4	1	DL_test	23	DL_test	3	stimuli_distractor_trianglediamonds.svg	stimuli_target_trianglesquares.svg	26	yes	ka	1	1289	6	1	antiphase_hc_iso.wav	2	6	2	noise_calib_stim_LEFT.wav	1	20	blb_dichoticlistening_ka-da.mp3	ka	da	1	left
6.6.1	mac	2023-06-12	16:45:42	16:56:03	618287	60fed81a020a69e3bbb6017d	4	1	DL_test	23	DL_test	4	stimuli_distractor_trianglediamonds.svg	stimuli_target_trianglesquares.svg	26	yes	pa	1	1079	6	1	antiphase_hc_iso.wav	2	6	2	noise_calib_stim_LEFT.wav	1	5	blb_dichoticlistening_ba-pa.mp3	ba	pa	1	right
6.6.1	mac	2023-06-12	16:45:42	16:56:03	618287	60fed81a020a69e3bbb6017d	4	1	DL_test	23	DL_test	5	stimuli_distractor_trianglediamonds.svg	stimuli_target_trianglesquares.svg	26	yes	ta	0	1422	6	1	antiphase_hc_iso.wav	2	6	2	noise_calib_stim_LEFT.wav	1	26	blb_dichoticlistening_pa-da.mp3	pa	da	1	other
6.6.1	mac	2023-06-12	16:45:42	16:56:03	618287	60fed81a020a69e3bbb6017d	4	1	DL_test	23	DL_test	6	stimuli_distractor_trianglediamonds.svg	stimuli_target_trianglesquares.svg	26	yes	ga	1	997	6	1	antiphase_hc_iso.wav	2	6	2	noise_calib_stim_LEFT.wav	1	14	blb_dichoticlistening_ga-da.mp3	ga	da	1	left
6.6.1	mac	2023-06-12	16:45:42	16:56:03	618287	60fed81a020a69e3bbb6017d	4	1	DL_test	23	DL_test	7	stimuli_distractor_trianglediamonds.svg	stimuli_target_trianglesquares.svg	26	yes	pa	1	1033	6	1	antiphase_hc_iso.wav	2	6	2	noise_calib_stim_LEFT.wav	1	29	blb_dichoticlistening_pa-pa.mp3	pa	pa	0	left
6.6.1	mac	2023-06-12	16:45:42	16:56:03	618287	60fed81a020a69e3bbb6017d	4	1	DL_test	23	DL_test	8	stimuli_distractor_trianglediamonds.svg	stimuli_target_trianglesquares.svg	26	yes	ta	1	1209	6	1	antiphase_hc_iso.wav	2	6	2	noise_calib_stim_LEFT.wav	1	6	blb_dichoticlistening_ba-ta.mp3	ba	ta	1	right
6.6.1	mac	2023-06-12	16:45:42	16:56:03	618287	60fed81a020a69e3bbb6017d	4	1	DL_test	23	DL_test	9	stimuli_distractor_trianglediamonds.svg	stimuli_target_trianglesquares.svg	26	yes	da	1	1142	6	1	antiphase_hc_iso.wav	2	6	2	noise_calib_stim_LEFT.wav	1	2	blb_dichoticlistening_ba-da.mp3	ba	da	1	right
6.6.1	mac	2023-06-12	16:45:42	16:56:03	618287	60fed81a020a69e3bbb6017d	4	1	DL_test	23	DL_test	10	stimuli_distractor_trianglediamonds.svg	stimuli_target_trianglesquares.svg	26	yes	pa	1	1011	6	1	antiphase_hc_iso.wav	2	6	2	noise_calib_stim_LEFT.wav	1	17	blb_dichoticlistening_ga-pa.mp3	ga	pa	1	right
6.6.1	mac	2023-06-12	16:45:42	16:56:03	618287	60fed81a020a69e3bbb6017d	4	1	DL_test	23	DL_test	11	stimuli_distractor_trianglediamonds.svg	stimuli_target_trianglesquares.svg	26	yes	ba	1	1323	6	1	antiphase_hc_iso.wav	2	6	2	noise_calib_stim_LEFT.wav	1	7	blb_dichoticlistening_da-ba.mp3	da	ba	1	right
6.6.1	mac	2023-06-12	16:45:42	16:56:03	618287	60fed81a020a69e3bbb6017d	4	1	DL_test	23	DL_test	12	stimuli_distractor_trianglediamonds.svg	stimuli_target_trianglesquares.svg	26	yes	ba	1	1168	6	1	antiphase_hc_iso.wav	2	6	2	noise_calib_stim_LEFT.wav	1	1	blb_dichoticlistening_ba-ba.mp3	ba	ba	0	left
6.6.1	mac	2023-06-12	16:45:42	16:56:03	618287	60fed81a020a69e3bbb6017d	4	1	DL_test	23	DL_test	13	stimuli_distractor_trianglediamonds.svg	stimuli_target_trianglesquares.svg	26	yes	ka	1	965	6	1	antiphase_hc_iso.wav	2	6	2	noise_calib_stim_LEFT.wav	1	21	blb_dichoticlistening_ka-ga.mp3	ka	ga	1	left
6.6.1	mac	2023-06-12	16:45:42	16:56:03	618287	60fed81a020a69e3bbb6017d	4	1	DL_test	23	DL_test	14	stimuli_distractor_trianglediamonds.svg	stimuli_target_trianglesquares.svg	26	yes	ka	1	720	6	1	antiphase_hc_iso.wav	2	6	2	noise_calib_stim_LEFT.wav	1	22	blb_dichoticlistening_ka-ka.mp3	ka	ka	0	left
6.6.1	mac	2023-06-12	16:45:42	16:56:03	618287	60fed81a020a69e3bbb6017d	4	1	DL_test	23	DL_test	15	stimuli_distractor_trianglediamonds.svg	stimuli_target_trianglesquares.svg	26	yes	ta	1	1252	6	1	antiphase_hc_iso.wav	2	6	2	noise_calib_stim_LEFT.wav	1	32	blb_dichoticlistening_ta-da.mp3	ta	da	1	left
6.6.1	mac	2023-06-12	16:45:42	16:56:03	618287	60fed81a020a69e3bbb6017d	4	1	DL_test	23	DL_test	16	stimuli_distractor_trianglediamonds.svg	stimuli_target_trianglesquares.svg	26	yes	ka	1	900	6	1	antiphase_hc_iso.wav	2	6	2	noise_calib_stim_LEFT.wav	1	4	blb_dichoticlistening_ba-ka.mp3	ba	ka	1	right
6.6.1	mac	2023-06-12	16:45:42	16:56:03	618287	60fed81a020a69e3bbb6017d	4	1	DL_test	23	DL_test	17	stimuli_distractor_trianglediamonds.svg	stimuli_target_trianglesquares.svg	26	yes	ta	1	1045	6	1	antiphase_hc_iso.wav	2	6	2	noise_calib_stim_LEFT.wav	1	34	blb_dichoticlistening_ta-ka.mp3	ta	ka	1	left
6.6.1	mac	2023-06-12	16:45:42	16:56:03	618287	60fed81a020a69e3bbb6017d	4	1	DL_test	23	DL_test	18	stimuli_distractor_trianglediamonds.svg	stimuli_target_trianglesquares.svg	26	yes	ga	1	823	6	1	antiphase_hc_iso.wav	2	6	2	noise_calib_stim_LEFT.wav	1	15	blb_dichoticlistening_ga-ga.mp3	ga	ga	0	left
6.6.1	mac	2023-06-12	16:45:42	16:56:03	618287	60fed81a020a69e3bbb6017d	4	1	DL_test	23	DL_test	19	stimuli_distractor_trianglediamonds.svg	stimuli_target_trianglesquares.svg	26	yes	pa	1	1423	6	1	antiphase_hc_iso.wav	2	6	2	noise_calib_stim_LEFT.wav	1	35	blb_dichoticlistening_ta-pa.mp3	ta	pa	1	right
6.6.1	mac	2023-06-12	16:45:42	16:56:03	618287	60fed81a020a69e3bbb6017d	4	1	DL_test	23	DL_test	20	stimuli_distractor_trianglediamonds.svg	stimuli_target_trianglesquares.svg	26	yes	ta	1	1069	6	1	antiphase_hc_iso.wav	2	6	2	noise_calib_stim_LEFT.wav	1	24	blb_dichoticlistening_ka-ta.mp3	ka	ta	1	right
6.6.1	mac	2023-06-12	16:45:42	16:56:03	618287	60fed81a020a69e3bbb6017d	4	1	DL_test	23	DL_test	21	stimuli_distractor_trianglediamonds.svg	stimuli_target_trianglesquares.svg	26	yes	ba	1	1147	6	1	antiphase_hc_iso.wav	2	6	2	noise_calib_stim_LEFT.wav	1	13	blb_dichoticlistening_ga-ba.mp3	ga	ba	1	right
6.6.1	mac	2023-06-12	16:45:42	16:56:03	618287	60fed81a020a69e3bbb6017d	4	1	DL_test	23	DL_test	22	stimuli_distractor_trianglediamonds.svg	stimuli_target_trianglesquares.svg	26	yes	ka	1	1188	6	1	antiphase_hc_iso.wav	2	6	2	noise_calib_stim_LEFT.wav	1	16	blb_dichoticlistening_ga-ka.mp3	ga	ka	1	right
6.6.1	mac	2023-06-12	16:45:42	16:56:03	618287	60fed81a020a69e3bbb6017d	4	1	DL_test	23	DL_test	23	stimuli_distractor_trianglediamonds.svg	stimuli_target_trianglesquares.svg	26	yes	ta	1	1287	6	1	antiphase_hc_iso.wav	2	6	2	noise_calib_stim_LEFT.wav	1	12	blb_dichoticlistening_da-ta.mp3	da	ta	1	right
6.6.1	mac	2023-06-12	16:45:42	16:56:03	618287	60fed81a020a69e3bbb6017d	4	1	DL_test	23	DL_test	24	stimuli_distractor_trianglediamonds.svg	stimuli_target_trianglesquares.svg	26	yes	da	1	878	6	1	antiphase_hc_iso.wav	2	6	2	noise_calib_stim_LEFT.wav	1	9	blb_dichoticlistening_da-ga.mp3	da	ga	1	left
6.6.1	mac	2023-06-12	16:45:42	16:56:03	618287	60fed81a020a69e3bbb6017d	4	1	DL_test	23	DL_test	25	stimuli_distractor_trianglediamonds.svg	stimuli_target_trianglesquares.svg	26	yes	pa	0	954	6	1	antiphase_hc_iso.wav	2	6	2	noise_calib_stim_LEFT.wav	1	10	blb_dichoticlistening_da-ka.mp3	da	ka	1	other
6.6.1	mac	2023-06-12	16:45:42	16:56:03	618287	60fed81a020a69e3bbb6017d	4	1	DL_test	23	DL_test	26	stimuli_distractor_trianglediamonds.svg	stimuli_target_trianglesquares.svg	26	yes	ka	1	877	6	1	antiphase_hc_iso.wav	2	6	2	noise_calib_stim_LEFT.wav	1	19	blb_dichoticlistening_ka-ba.mp3	ka	ba	1	left
