build	computer.platform	date	time	timestamp	time_elapsed_ms	subject	group	session	blockcode	blocknum	trialcode	trialnum	stimulus_left	stimulus_right	stim_index	target_present	response	correct	latency	headphonecheck_countTestTrials	headphonecheck_index	headphonecheck_testSound	headphonecheck_correctResponse	stereocheck_countTestTrials	stereocheck_index	stereocheck_testSound	stereocheck_correctResponse	DL_index	DL_soundfile	DL_leftSound	DL_rightSound	DL_dualSound	DL_choice
6.6.1	win	2023-06-12	21:18:10	0	0	64017b47c83e917541f7c592	2	1	headphonecheck_calibration	4	headphonecheck_calibrationIntro	1			0		calibrationButton	0	6283	0	0			0	0			1				0	
6.6.1	win	2023-06-12	21:18:10	0	0	64017b47c83e917541f7c592	2	1	headphonecheck_testphase	5	test_collectResponse	3			0		first	1	2792	1	3	antiphase_hc_soi.wav	1	0	0			1				0	
6.6.1	win	2023-06-12	21:18:10	0	0	64017b47c83e917541f7c592	2	1	headphonecheck_testphase	5	test_collectResponse	6			0		third	0	2389	2	4	antiphase_hc_sio.wav	1	0	0			1				0	
6.6.1	win	2023-06-12	21:18:10	0	0	64017b47c83e917541f7c592	2	1	headphonecheck_testphase	5	test_collectResponse	9			0		first	0	8492	3	6	antiphase_hc_ois.wav	3	0	0			1				0	
6.6.1	win	2023-06-12	21:18:10	0	0	64017b47c83e917541f7c592	2	1	headphonecheck_testphase	5	test_collectResponse	12			0		third	1	737	4	2	antiphase_hc_ios.wav	3	0	0			1				0	
6.6.1	win	2023-06-12	21:18:10	0	0	64017b47c83e917541f7c592	2	1	headphonecheck_testphase	5	test_collectResponse	15			0		second	1	745	5	5	antiphase_hc_osi.wav	2	0	0			1				0	
6.6.1	win	2023-06-12	21:18:10	0	0	64017b47c83e917541f7c592	2	1	headphonecheck_testphase	5	test_collectResponse	18			0		third	0	1015	6	1	antiphase_hc_iso.wav	2	0	0			1				0	
6.6.1	win	2023-06-12	21:18:10	0	0	64017b47c83e917541f7c592	2	1	stereocheck_calibration	7	stereocheck_calibrationIntro	1			0		stereocheck_calibrationButton	0	5436	6	1	antiphase_hc_iso.wav	2	0	0			1				0	
6.6.1	win	2023-06-12	21:18:10	0	0	64017b47c83e917541f7c592	2	1	stereocheck_testphase	8	stereocheck_test_collectResponse	3			0		stereocheck_right	1	1439	6	1	antiphase_hc_iso.wav	2	1	5	noise_calib_stim_RIGHT.wav	2	1				0	
6.6.1	win	2023-06-12	21:18:10	0	0	64017b47c83e917541f7c592	2	1	stereocheck_testphase	8	stereocheck_test_collectResponse	6			0		stereocheck_right	1	696	6	1	antiphase_hc_iso.wav	2	2	4	noise_calib_stim_RIGHT.wav	2	1				0	
6.6.1	win	2023-06-12	21:18:10	0	0	64017b47c83e917541f7c592	2	1	stereocheck_testphase	8	stereocheck_test_collectResponse	9			0		stereocheck_left	1	267	6	1	antiphase_hc_iso.wav	2	3	2	noise_calib_stim_LEFT.wav	1	1				0	
6.6.1	win	2023-06-12	21:18:10	0	0	64017b47c83e917541f7c592	2	1	stereocheck_testphase	8	stereocheck_test_collectResponse	12			0		stereocheck_left	1	282	6	1	antiphase_hc_iso.wav	2	4	3	noise_calib_stim_LEFT.wav	1	1				0	
6.6.1	win	2023-06-12	21:18:10	0	0	64017b47c83e917541f7c592	2	1	stereocheck_testphase	8	stereocheck_test_collectResponse	15			0		stereocheck_left	1	297	6	1	antiphase_hc_iso.wav	2	5	1	noise_calib_stim_LEFT.wav	1	1				0	
6.6.1	win	2023-06-12	21:18:10	0	0	64017b47c83e917541f7c592	2	1	stereocheck_testphase	8	stereocheck_test_collectResponse	18			0		stereocheck_right	1	275	6	1	antiphase_hc_iso.wav	2	6	6	noise_calib_stim_RIGHT.wav	2	1				0	
6.6.1	win	2023-06-12	21:18:10	0	0	64017b47c83e917541f7c592	2	1	DL_practice	11	DL_practice	2			0		ta	1	2361	6	1	antiphase_hc_iso.wav	2	6	6	noise_calib_stim_RIGHT.wav	2	36	blb_dichoticlistening_ta-ta.mp3	ta	ta	0	left
6.6.1	win	2023-06-12	21:18:10	0	0	64017b47c83e917541f7c592	2	1	DL_practice	11	DL_practice	3			0		ka	1	1413	6	1	antiphase_hc_iso.wav	2	6	6	noise_calib_stim_RIGHT.wav	2	23	blb_dichoticlistening_ka-pa.mp3	ka	pa	1	left
6.6.1	win	2023-06-12	21:18:10	0	0	64017b47c83e917541f7c592	2	1	DL_practice	11	DL_practice	4			0		ga	1	1263	6	1	antiphase_hc_iso.wav	2	6	6	noise_calib_stim_RIGHT.wav	2	18	blb_dichoticlistening_ga-ta.mp3	ga	ta	1	left
6.6.1	win	2023-06-12	21:18:10	0	0	64017b47c83e917541f7c592	2	1	DL_practice	11	DL_practice	5			0		ga	1	2037	6	1	antiphase_hc_iso.wav	2	6	6	noise_calib_stim_RIGHT.wav	2	15	blb_dichoticlistening_ga-ga.mp3	ga	ga	0	left
6.6.1	win	2023-06-12	21:18:10	0	0	64017b47c83e917541f7c592	2	1	DL_practice	11	DL_practice	6			0		pa	1	1492	6	1	antiphase_hc_iso.wav	2	6	6	noise_calib_stim_RIGHT.wav	2	29	blb_dichoticlistening_pa-pa.mp3	pa	pa	0	left
6.6.1	win	2023-06-12	21:18:10	0	0	64017b47c83e917541f7c592	2	1	DL_practice	11	DL_practice	7			0		da	1	1701	6	1	antiphase_hc_iso.wav	2	6	6	noise_calib_stim_RIGHT.wav	2	7	blb_dichoticlistening_da-ba.mp3	da	ba	1	left
6.6.1	win	2023-06-12	21:18:10	0	0	64017b47c83e917541f7c592	2	1	DL_practice	11	DL_practice	8			0		ka	1	1260	6	1	antiphase_hc_iso.wav	2	6	6	noise_calib_stim_RIGHT.wav	2	22	blb_dichoticlistening_ka-ka.mp3	ka	ka	0	left
6.6.1	win	2023-06-12	21:18:10	0	0	64017b47c83e917541f7c592	2	1	DL_practice	11	DL_practice	9			0		ba	1	1622	6	1	antiphase_hc_iso.wav	2	6	6	noise_calib_stim_RIGHT.wav	2	1	blb_dichoticlistening_ba-ba.mp3	ba	ba	0	left
6.6.1	win	2023-06-12	21:18:10	0	0	64017b47c83e917541f7c592	2	1	DL_practice	11	DL_practice	10			0		da	1	1019	6	1	antiphase_hc_iso.wav	2	6	6	noise_calib_stim_RIGHT.wav	2	8	blb_dichoticlistening_da-da.mp3	da	da	0	left
6.6.1	win	2023-06-12	21:18:10	0	0	64017b47c83e917541f7c592	2	1	DL_test	13	DL_test	1			0		ka	1	2237	6	1	antiphase_hc_iso.wav	2	6	6	noise_calib_stim_RIGHT.wav	2	22	blb_dichoticlistening_ka-ka.mp3	ka	ka	0	left
6.6.1	win	2023-06-12	21:18:10	0	0	64017b47c83e917541f7c592	2	1	DL_test	13	DL_test	2			0		da	1	1695	6	1	antiphase_hc_iso.wav	2	6	6	noise_calib_stim_RIGHT.wav	2	2	blb_dichoticlistening_ba-da.mp3	ba	da	1	right
6.6.1	win	2023-06-12	21:18:10	0	0	64017b47c83e917541f7c592	2	1	DL_test	13	DL_test	3			0		ga	1	1060	6	1	antiphase_hc_iso.wav	2	6	6	noise_calib_stim_RIGHT.wav	2	15	blb_dichoticlistening_ga-ga.mp3	ga	ga	0	left
6.6.1	win	2023-06-12	21:18:10	0	0	64017b47c83e917541f7c592	2	1	DL_test	13	DL_test	4			0		ka	1	3582	6	1	antiphase_hc_iso.wav	2	6	6	noise_calib_stim_RIGHT.wav	2	16	blb_dichoticlistening_ga-ka.mp3	ga	ka	1	right
6.6.1	win	2023-06-12	21:18:10	0	0	64017b47c83e917541f7c592	2	1	DL_test	13	DL_test	5			0		ka	1	2550	6	1	antiphase_hc_iso.wav	2	6	6	noise_calib_stim_RIGHT.wav	2	19	blb_dichoticlistening_ka-ba.mp3	ka	ba	1	left
6.6.1	win	2023-06-12	21:18:10	0	0	64017b47c83e917541f7c592	2	1	DL_test	13	DL_test	6			0		ga	1	1744	6	1	antiphase_hc_iso.wav	2	6	6	noise_calib_stim_RIGHT.wav	2	27	blb_dichoticlistening_pa-ga.mp3	pa	ga	1	right
6.6.1	win	2023-06-12	21:18:10	0	0	64017b47c83e917541f7c592	2	1	DL_test	13	DL_test	7			0		da	1	1646	6	1	antiphase_hc_iso.wav	2	6	6	noise_calib_stim_RIGHT.wav	2	10	blb_dichoticlistening_da-ka.mp3	da	ka	1	left
6.6.1	win	2023-06-12	21:18:10	0	0	64017b47c83e917541f7c592	2	1	DL_test	13	DL_test	8			0		ta	1	1681	6	1	antiphase_hc_iso.wav	2	6	6	noise_calib_stim_RIGHT.wav	2	12	blb_dichoticlistening_da-ta.mp3	da	ta	1	right
6.6.1	win	2023-06-12	21:18:10	0	0	64017b47c83e917541f7c592	2	1	DL_test	13	DL_test	9			0		da	1	1212	6	1	antiphase_hc_iso.wav	2	6	6	noise_calib_stim_RIGHT.wav	2	14	blb_dichoticlistening_ga-da.mp3	ga	da	1	right
6.6.1	win	2023-06-12	21:18:10	0	0	64017b47c83e917541f7c592	2	1	DL_test	13	DL_test	10			0		pa	1	1941	6	1	antiphase_hc_iso.wav	2	6	6	noise_calib_stim_RIGHT.wav	2	25	blb_dichoticlistening_pa-ba.mp3	pa	ba	1	left
6.6.1	win	2023-06-12	21:18:10	0	0	64017b47c83e917541f7c592	2	1	DL_test	13	DL_test	11			0		da	1	1411	6	1	antiphase_hc_iso.wav	2	6	6	noise_calib_stim_RIGHT.wav	2	8	blb_dichoticlistening_da-da.mp3	da	da	0	left
6.6.1	win	2023-06-12	21:18:10	0	0	64017b47c83e917541f7c592	2	1	DL_test	13	DL_test	12			0		ka	1	1929	6	1	antiphase_hc_iso.wav	2	6	6	noise_calib_stim_RIGHT.wav	2	23	blb_dichoticlistening_ka-pa.mp3	ka	pa	1	left
6.6.1	win	2023-06-12	21:18:10	0	0	64017b47c83e917541f7c592	2	1	DL_test	13	DL_test	13			0		pa	1	1172	6	1	antiphase_hc_iso.wav	2	6	6	noise_calib_stim_RIGHT.wav	2	5	blb_dichoticlistening_ba-pa.mp3	ba	pa	1	right
6.6.1	win	2023-06-12	21:18:10	0	0	64017b47c83e917541f7c592	2	1	DL_test	13	DL_test	14			0		ka	1	2352	6	1	antiphase_hc_iso.wav	2	6	6	noise_calib_stim_RIGHT.wav	2	20	blb_dichoticlistening_ka-da.mp3	ka	da	1	left
6.6.1	win	2023-06-12	21:18:10	0	0	64017b47c83e917541f7c592	2	1	DL_test	13	DL_test	15			0		ta	1	3135	6	1	antiphase_hc_iso.wav	2	6	6	noise_calib_stim_RIGHT.wav	2	31	blb_dichoticlistening_ta-ba.mp3	ta	ba	1	left
6.6.1	win	2023-06-12	21:18:10	0	0	64017b47c83e917541f7c592	2	1	DL_test	13	DL_test	16			0		ga	1	2282	6	1	antiphase_hc_iso.wav	2	6	6	noise_calib_stim_RIGHT.wav	2	18	blb_dichoticlistening_ga-ta.mp3	ga	ta	1	left
6.6.1	win	2023-06-12	21:18:10	0	0	64017b47c83e917541f7c592	2	1	DL_test	13	DL_test	17			0		ga	1	1353	6	1	antiphase_hc_iso.wav	2	6	6	noise_calib_stim_RIGHT.wav	2	3	blb_dichoticlistening_ba-ga.mp3	ba	ga	1	right
6.6.1	win	2023-06-12	21:18:10	0	0	64017b47c83e917541f7c592	2	1	DL_test	13	DL_test	18			0		ta	1	2433	6	1	antiphase_hc_iso.wav	2	6	6	noise_calib_stim_RIGHT.wav	2	35	blb_dichoticlistening_ta-pa.mp3	ta	pa	1	left
6.6.1	win	2023-06-12	21:18:10	0	0	64017b47c83e917541f7c592	2	1	DL_test	13	DL_test	19			0		ka	1	1353	6	1	antiphase_hc_iso.wav	2	6	6	noise_calib_stim_RIGHT.wav	2	21	blb_dichoticlistening_ka-ga.mp3	ka	ga	1	left
6.6.1	win	2023-06-12	21:18:10	0	0	64017b47c83e917541f7c592	2	1	DL_test	13	DL_test	20			0		ta	1	3016	6	1	antiphase_hc_iso.wav	2	6	6	noise_calib_stim_RIGHT.wav	2	6	blb_dichoticlistening_ba-ta.mp3	ba	ta	1	right
6.6.1	win	2023-06-12	21:18:10	0	0	64017b47c83e917541f7c592	2	1	DL_test	13	DL_test	21			0		ga	1	1707	6	1	antiphase_hc_iso.wav	2	6	6	noise_calib_stim_RIGHT.wav	2	17	blb_dichoticlistening_ga-pa.mp3	ga	pa	1	left
6.6.1	win	2023-06-12	21:18:10	0	0	64017b47c83e917541f7c592	2	1	DL_test	13	DL_test	22			0		ta	1	1878	6	1	antiphase_hc_iso.wav	2	6	6	noise_calib_stim_RIGHT.wav	2	30	blb_dichoticlistening_pa-ta.mp3	pa	ta	1	right
6.6.1	win	2023-06-12	21:18:10	0	0	64017b47c83e917541f7c592	2	1	DL_test	13	DL_test	23			0		pa	1	1014	6	1	antiphase_hc_iso.wav	2	6	6	noise_calib_stim_RIGHT.wav	2	29	blb_dichoticlistening_pa-pa.mp3	pa	pa	0	left
6.6.1	win	2023-06-12	21:18:10	0	0	64017b47c83e917541f7c592	2	1	DL_test	13	DL_test	24			0		da	1	1442	6	1	antiphase_hc_iso.wav	2	6	6	noise_calib_stim_RIGHT.wav	2	32	blb_dichoticlistening_ta-da.mp3	ta	da	1	right
6.6.1	win	2023-06-12	21:18:10	0	0	64017b47c83e917541f7c592	2	1	DL_test	13	DL_test	25			0		da	1	1273	6	1	antiphase_hc_iso.wav	2	6	6	noise_calib_stim_RIGHT.wav	2	11	blb_dichoticlistening_da-pa.mp3	da	pa	1	left
6.6.1	win	2023-06-12	21:18:10	0	0	64017b47c83e917541f7c592	2	1	DL_test	13	DL_test	26			0		ka	1	1423	6	1	antiphase_hc_iso.wav	2	6	6	noise_calib_stim_RIGHT.wav	2	34	blb_dichoticlistening_ta-ka.mp3	ta	ka	1	right
6.6.1	win	2023-06-12	21:18:10	0	0	64017b47c83e917541f7c592	2	1	DL_test	13	DL_test	27			0		ga	1	2001	6	1	antiphase_hc_iso.wav	2	6	6	noise_calib_stim_RIGHT.wav	2	9	blb_dichoticlistening_da-ga.mp3	da	ga	1	right
6.6.1	win	2023-06-12	21:18:10	0	0	64017b47c83e917541f7c592	2	1	DL_test	13	DL_test	28			0		ga	1	1178	6	1	antiphase_hc_iso.wav	2	6	6	noise_calib_stim_RIGHT.wav	2	33	blb_dichoticlistening_ta-ga.mp3	ta	ga	1	right
6.6.1	win	2023-06-12	21:18:10	0	0	64017b47c83e917541f7c592	2	1	DL_test	13	DL_test	29			0		ka	1	1190	6	1	antiphase_hc_iso.wav	2	6	6	noise_calib_stim_RIGHT.wav	2	28	blb_dichoticlistening_pa-ka.mp3	pa	ka	1	right
6.6.1	win	2023-06-12	21:18:10	0	0	64017b47c83e917541f7c592	2	1	DL_test	13	DL_test	30			0		da	0	1292	6	1	antiphase_hc_iso.wav	2	6	6	noise_calib_stim_RIGHT.wav	2	13	blb_dichoticlistening_ga-ba.mp3	ga	ba	1	other
6.6.1	win	2023-06-12	21:18:10	0	0	64017b47c83e917541f7c592	2	1	DL_test	13	DL_test	31			0		ka	1	1391	6	1	antiphase_hc_iso.wav	2	6	6	noise_calib_stim_RIGHT.wav	2	4	blb_dichoticlistening_ba-ka.mp3	ba	ka	1	right
6.6.1	win	2023-06-12	21:18:10	0	0	64017b47c83e917541f7c592	2	1	DL_test	13	DL_test	32			0		ka	1	860	6	1	antiphase_hc_iso.wav	2	6	6	noise_calib_stim_RIGHT.wav	2	24	blb_dichoticlistening_ka-ta.mp3	ka	ta	1	left
6.6.1	win	2023-06-12	21:18:10	0	0	64017b47c83e917541f7c592	2	1	DL_test	13	DL_test	33			0		da	1	1500	6	1	antiphase_hc_iso.wav	2	6	6	noise_calib_stim_RIGHT.wav	2	7	blb_dichoticlistening_da-ba.mp3	da	ba	1	left
6.6.1	win	2023-06-12	21:18:10	0	0	64017b47c83e917541f7c592	2	1	DL_test	13	DL_test	34			0		ba	1	869	6	1	antiphase_hc_iso.wav	2	6	6	noise_calib_stim_RIGHT.wav	2	1	blb_dichoticlistening_ba-ba.mp3	ba	ba	0	left
6.6.1	win	2023-06-12	21:18:10	0	0	64017b47c83e917541f7c592	2	1	DL_test	13	DL_test	35			0		ta	1	1656	6	1	antiphase_hc_iso.wav	2	6	6	noise_calib_stim_RIGHT.wav	2	36	blb_dichoticlistening_ta-ta.mp3	ta	ta	0	left
6.6.1	win	2023-06-12	21:18:10	0	0	64017b47c83e917541f7c592	2	1	DL_test	13	DL_test	36			0		da	1	1516	6	1	antiphase_hc_iso.wav	2	6	6	noise_calib_stim_RIGHT.wav	2	26	blb_dichoticlistening_pa-da.mp3	pa	da	1	right
6.6.1	win	2023-06-12	21:18:10	0	0	64017b47c83e917541f7c592	2	1	DL_test	14	DL_test	1			0		ka	0	3508	6	1	antiphase_hc_iso.wav	2	6	6	noise_calib_stim_RIGHT.wav	2	17	blb_dichoticlistening_ga-pa.mp3	ga	pa	1	other
6.6.1	win	2023-06-12	21:18:10	0	0	64017b47c83e917541f7c592	2	1	DL_test	14	DL_test	2			0		da	1	1750	6	1	antiphase_hc_iso.wav	2	6	6	noise_calib_stim_RIGHT.wav	2	26	blb_dichoticlistening_pa-da.mp3	pa	da	1	right
6.6.1	win	2023-06-12	21:18:10	0	0	64017b47c83e917541f7c592	2	1	DL_test	14	DL_test	3			0		ga	1	1390	6	1	antiphase_hc_iso.wav	2	6	6	noise_calib_stim_RIGHT.wav	2	18	blb_dichoticlistening_ga-ta.mp3	ga	ta	1	left
6.6.1	win	2023-06-12	21:18:10	0	0	64017b47c83e917541f7c592	2	1	DL_test	14	DL_test	4			0		ta	1	1243	6	1	antiphase_hc_iso.wav	2	6	6	noise_calib_stim_RIGHT.wav	2	36	blb_dichoticlistening_ta-ta.mp3	ta	ta	0	left
6.6.1	win	2023-06-12	21:18:10	0	0	64017b47c83e917541f7c592	2	1	DL_test	14	DL_test	5			0		ta	0	3259	6	1	antiphase_hc_iso.wav	2	6	6	noise_calib_stim_RIGHT.wav	2	20	blb_dichoticlistening_ka-da.mp3	ka	da	1	other
6.6.1	win	2023-06-12	21:18:10	0	0	64017b47c83e917541f7c592	2	1	DL_test	14	DL_test	6			0		pa	1	1435	6	1	antiphase_hc_iso.wav	2	6	6	noise_calib_stim_RIGHT.wav	2	29	blb_dichoticlistening_pa-pa.mp3	pa	pa	0	left
6.6.1	win	2023-06-12	21:18:10	0	0	64017b47c83e917541f7c592	2	1	DL_test	14	DL_test	7			0		ba	1	1542	6	1	antiphase_hc_iso.wav	2	6	6	noise_calib_stim_RIGHT.wav	2	25	blb_dichoticlistening_pa-ba.mp3	pa	ba	1	right
6.6.1	win	2023-06-12	21:18:10	0	0	64017b47c83e917541f7c592	2	1	DL_test	14	DL_test	8			0		da	0	1132	6	1	antiphase_hc_iso.wav	2	6	6	noise_calib_stim_RIGHT.wav	2	3	blb_dichoticlistening_ba-ga.mp3	ba	ga	1	other
6.6.1	win	2023-06-12	21:18:10	0	0	64017b47c83e917541f7c592	2	1	DL_test	14	DL_test	9			0		ga	1	1243	6	1	antiphase_hc_iso.wav	2	6	6	noise_calib_stim_RIGHT.wav	2	33	blb_dichoticlistening_ta-ga.mp3	ta	ga	1	right
6.6.1	win	2023-06-12	21:18:10	0	0	64017b47c83e917541f7c592	2	1	DL_test	14	DL_test	10			0		ba	1	1282	6	1	antiphase_hc_iso.wav	2	6	6	noise_calib_stim_RIGHT.wav	2	1	blb_dichoticlistening_ba-ba.mp3	ba	ba	0	left
6.6.1	win	2023-06-12	21:18:10	0	0	64017b47c83e917541f7c592	2	1	DL_test	14	DL_test	11			0		ta	1	1389	6	1	antiphase_hc_iso.wav	2	6	6	noise_calib_stim_RIGHT.wav	2	6	blb_dichoticlistening_ba-ta.mp3	ba	ta	1	right
6.6.1	win	2023-06-12	21:18:10	0	0	64017b47c83e917541f7c592	2	1	DL_test	14	DL_test	12			0		ga	1	1584	6	1	antiphase_hc_iso.wav	2	6	6	noise_calib_stim_RIGHT.wav	2	15	blb_dichoticlistening_ga-ga.mp3	ga	ga	0	left
6.6.1	win	2023-06-12	21:18:10	0	0	64017b47c83e917541f7c592	2	1	DL_test	14	DL_test	13			0		pa	1	1425	6	1	antiphase_hc_iso.wav	2	6	6	noise_calib_stim_RIGHT.wav	2	5	blb_dichoticlistening_ba-pa.mp3	ba	pa	1	right
6.6.1	win	2023-06-12	21:18:10	0	0	64017b47c83e917541f7c592	2	1	DL_test	14	DL_test	14			0		ka	1	1328	6	1	antiphase_hc_iso.wav	2	6	6	noise_calib_stim_RIGHT.wav	2	23	blb_dichoticlistening_ka-pa.mp3	ka	pa	1	left
6.6.1	win	2023-06-12	21:18:10	0	0	64017b47c83e917541f7c592	2	1	DL_test	14	DL_test	15			0		ga	1	1052	6	1	antiphase_hc_iso.wav	2	6	6	noise_calib_stim_RIGHT.wav	2	27	blb_dichoticlistening_pa-ga.mp3	pa	ga	1	right
6.6.1	win	2023-06-12	21:18:10	0	0	64017b47c83e917541f7c592	2	1	DL_test	14	DL_test	16			0		ta	1	1478	6	1	antiphase_hc_iso.wav	2	6	6	noise_calib_stim_RIGHT.wav	2	35	blb_dichoticlistening_ta-pa.mp3	ta	pa	1	left
6.6.1	win	2023-06-12	21:18:10	0	0	64017b47c83e917541f7c592	2	1	DL_test	14	DL_test	17			0		da	1	1249	6	1	antiphase_hc_iso.wav	2	6	6	noise_calib_stim_RIGHT.wav	2	9	blb_dichoticlistening_da-ga.mp3	da	ga	1	left
6.6.1	win	2023-06-12	21:18:10	0	0	64017b47c83e917541f7c592	2	1	DL_test	14	DL_test	18			0		ta	1	1369	6	1	antiphase_hc_iso.wav	2	6	6	noise_calib_stim_RIGHT.wav	2	30	blb_dichoticlistening_pa-ta.mp3	pa	ta	1	right
6.6.1	win	2023-06-12	21:18:10	0	0	64017b47c83e917541f7c592	2	1	DL_test	14	DL_test	19			0		da	1	1636	6	1	antiphase_hc_iso.wav	2	6	6	noise_calib_stim_RIGHT.wav	2	2	blb_dichoticlistening_ba-da.mp3	ba	da	1	right
6.6.1	win	2023-06-12	21:18:10	0	0	64017b47c83e917541f7c592	2	1	DL_test	14	DL_test	20			0		da	1	1160	6	1	antiphase_hc_iso.wav	2	6	6	noise_calib_stim_RIGHT.wav	2	32	blb_dichoticlistening_ta-da.mp3	ta	da	1	right
6.6.1	win	2023-06-12	21:18:10	0	0	64017b47c83e917541f7c592	2	1	DL_test	14	DL_test	21			0		pa	0	1394	6	1	antiphase_hc_iso.wav	2	6	6	noise_calib_stim_RIGHT.wav	2	31	blb_dichoticlistening_ta-ba.mp3	ta	ba	1	other
6.6.1	win	2023-06-12	21:18:10	0	0	64017b47c83e917541f7c592	2	1	DL_test	14	DL_test	22			0		ga	1	1147	6	1	antiphase_hc_iso.wav	2	6	6	noise_calib_stim_RIGHT.wav	2	16	blb_dichoticlistening_ga-ka.mp3	ga	ka	1	left
6.6.1	win	2023-06-12	21:18:10	0	0	64017b47c83e917541f7c592	2	1	DL_test	14	DL_test	23			0		ka	1	1377	6	1	antiphase_hc_iso.wav	2	6	6	noise_calib_stim_RIGHT.wav	2	34	blb_dichoticlistening_ta-ka.mp3	ta	ka	1	right
6.6.1	win	2023-06-12	21:18:10	0	0	64017b47c83e917541f7c592	2	1	DL_test	14	DL_test	24			0		da	1	1079	6	1	antiphase_hc_iso.wav	2	6	6	noise_calib_stim_RIGHT.wav	2	8	blb_dichoticlistening_da-da.mp3	da	da	0	left
6.6.1	win	2023-06-12	21:18:10	0	0	64017b47c83e917541f7c592	2	1	DL_test	14	DL_test	25			0		ka	1	1171	6	1	antiphase_hc_iso.wav	2	6	6	noise_calib_stim_RIGHT.wav	2	28	blb_dichoticlistening_pa-ka.mp3	pa	ka	1	right
6.6.1	win	2023-06-12	21:18:10	0	0	64017b47c83e917541f7c592	2	1	DL_test	14	DL_test	26			0		da	1	1118	6	1	antiphase_hc_iso.wav	2	6	6	noise_calib_stim_RIGHT.wav	2	12	blb_dichoticlistening_da-ta.mp3	da	ta	1	left
6.6.1	win	2023-06-12	21:18:10	0	0	64017b47c83e917541f7c592	2	1	DL_test	14	DL_test	27			0		ka	1	1305	6	1	antiphase_hc_iso.wav	2	6	6	noise_calib_stim_RIGHT.wav	2	4	blb_dichoticlistening_ba-ka.mp3	ba	ka	1	right
6.6.1	win	2023-06-12	21:18:10	0	0	64017b47c83e917541f7c592	2	1	DL_test	14	DL_test	28			0		ka	1	801	6	1	antiphase_hc_iso.wav	2	6	6	noise_calib_stim_RIGHT.wav	2	22	blb_dichoticlistening_ka-ka.mp3	ka	ka	0	left
6.6.1	win	2023-06-12	21:18:10	0	0	64017b47c83e917541f7c592	2	1	DL_test	14	DL_test	29			0		ga	1	1068	6	1	antiphase_hc_iso.wav	2	6	6	noise_calib_stim_RIGHT.wav	2	21	blb_dichoticlistening_ka-ga.mp3	ka	ga	1	right
6.6.1	win	2023-06-12	21:18:10	0	0	64017b47c83e917541f7c592	2	1	DL_test	14	DL_test	30			0		ta	0	3310	6	1	antiphase_hc_iso.wav	2	6	6	noise_calib_stim_RIGHT.wav	2	10	blb_dichoticlistening_da-ka.mp3	da	ka	1	other
6.6.1	win	2023-06-12	21:18:10	0	0	64017b47c83e917541f7c592	2	1	DL_test	14	DL_test	31			0		da	1	1291	6	1	antiphase_hc_iso.wav	2	6	6	noise_calib_stim_RIGHT.wav	2	14	blb_dichoticlistening_ga-da.mp3	ga	da	1	right
6.6.1	win	2023-06-12	21:18:10	0	0	64017b47c83e917541f7c592	2	1	DL_test	14	DL_test	32			0		ba	1	1992	6	1	antiphase_hc_iso.wav	2	6	6	noise_calib_stim_RIGHT.wav	2	7	blb_dichoticlistening_da-ba.mp3	da	ba	1	right
6.6.1	win	2023-06-12	21:18:10	0	0	64017b47c83e917541f7c592	2	1	DL_test	14	DL_test	33			0		ka	1	1458	6	1	antiphase_hc_iso.wav	2	6	6	noise_calib_stim_RIGHT.wav	2	24	blb_dichoticlistening_ka-ta.mp3	ka	ta	1	left
6.6.1	win	2023-06-12	21:18:10	0	0	64017b47c83e917541f7c592	2	1	DL_test	14	DL_test	34			0		ba	1	1591	6	1	antiphase_hc_iso.wav	2	6	6	noise_calib_stim_RIGHT.wav	2	13	blb_dichoticlistening_ga-ba.mp3	ga	ba	1	right
6.6.1	win	2023-06-12	21:18:10	0	0	64017b47c83e917541f7c592	2	1	DL_test	14	DL_test	35			0		ka	1	1194	6	1	antiphase_hc_iso.wav	2	6	6	noise_calib_stim_RIGHT.wav	2	19	blb_dichoticlistening_ka-ba.mp3	ka	ba	1	left
6.6.1	win	2023-06-12	21:18:10	0	0	64017b47c83e917541f7c592	2	1	DL_test	14	DL_test	36			0		da	1	2110	6	1	antiphase_hc_iso.wav	2	6	6	noise_calib_stim_RIGHT.wav	2	11	blb_dichoticlistening_da-pa.mp3	da	pa	1	left
6.6.1	win	2023-06-12	21:18:10	0	0	64017b47c83e917541f7c592	2	1	DL_test	15	DL_test	1			0		da	1	1234	6	1	antiphase_hc_iso.wav	2	6	6	noise_calib_stim_RIGHT.wav	2	2	blb_dichoticlistening_ba-da.mp3	ba	da	1	right
6.6.1	win	2023-06-12	21:18:10	0	0	64017b47c83e917541f7c592	2	1	DL_test	15	DL_test	2			0		pa	0	2887	6	1	antiphase_hc_iso.wav	2	6	6	noise_calib_stim_RIGHT.wav	2	10	blb_dichoticlistening_da-ka.mp3	da	ka	1	other
6.6.1	win	2023-06-12	21:18:10	0	0	64017b47c83e917541f7c592	2	1	DL_test	15	DL_test	3			0		ka	1	1079	6	1	antiphase_hc_iso.wav	2	6	6	noise_calib_stim_RIGHT.wav	2	4	blb_dichoticlistening_ba-ka.mp3	ba	ka	1	right
6.6.1	win	2023-06-12	21:18:10	0	0	64017b47c83e917541f7c592	2	1	DL_test	15	DL_test	4			0		ga	1	1361	6	1	antiphase_hc_iso.wav	2	6	6	noise_calib_stim_RIGHT.wav	2	21	blb_dichoticlistening_ka-ga.mp3	ka	ga	1	right
6.6.1	win	2023-06-12	21:18:10	0	0	64017b47c83e917541f7c592	2	1	DL_test	15	DL_test	5			0		ta	1	1368	6	1	antiphase_hc_iso.wav	2	6	6	noise_calib_stim_RIGHT.wav	2	6	blb_dichoticlistening_ba-ta.mp3	ba	ta	1	right
6.6.1	win	2023-06-12	21:18:10	0	0	64017b47c83e917541f7c592	2	1	DL_test	15	DL_test	6			0		da	1	1436	6	1	antiphase_hc_iso.wav	2	6	6	noise_calib_stim_RIGHT.wav	2	11	blb_dichoticlistening_da-pa.mp3	da	pa	1	left
6.6.1	win	2023-06-12	21:18:10	0	0	64017b47c83e917541f7c592	2	1	DL_test	15	DL_test	7			0		ga	1	1340	6	1	antiphase_hc_iso.wav	2	6	6	noise_calib_stim_RIGHT.wav	2	17	blb_dichoticlistening_ga-pa.mp3	ga	pa	1	left
6.6.1	win	2023-06-12	21:18:10	0	0	64017b47c83e917541f7c592	2	1	DL_test	15	DL_test	8			0		pa	1	1300	6	1	antiphase_hc_iso.wav	2	6	6	noise_calib_stim_RIGHT.wav	2	25	blb_dichoticlistening_pa-ba.mp3	pa	ba	1	left
6.6.1	win	2023-06-12	21:18:10	0	0	64017b47c83e917541f7c592	2	1	DL_test	15	DL_test	9			0		ka	1	1048	6	1	antiphase_hc_iso.wav	2	6	6	noise_calib_stim_RIGHT.wav	2	16	blb_dichoticlistening_ga-ka.mp3	ga	ka	1	right
6.6.1	win	2023-06-12	21:18:10	0	0	64017b47c83e917541f7c592	2	1	DL_test	15	DL_test	10			0		ba	1	1526	6	1	antiphase_hc_iso.wav	2	6	6	noise_calib_stim_RIGHT.wav	2	13	blb_dichoticlistening_ga-ba.mp3	ga	ba	1	right
6.6.1	win	2023-06-12	21:18:10	0	0	64017b47c83e917541f7c592	2	1	DL_test	15	DL_test	11			0		ka	1	1267	6	1	antiphase_hc_iso.wav	2	6	6	noise_calib_stim_RIGHT.wav	2	19	blb_dichoticlistening_ka-ba.mp3	ka	ba	1	left
6.6.1	win	2023-06-12	21:18:10	0	0	64017b47c83e917541f7c592	2	1	DL_test	15	DL_test	12			0		da	0	1265	6	1	antiphase_hc_iso.wav	2	6	6	noise_calib_stim_RIGHT.wav	2	15	blb_dichoticlistening_ga-ga.mp3	ga	ga	0	other
6.6.1	win	2023-06-12	21:18:10	0	0	64017b47c83e917541f7c592	2	1	DL_test	15	DL_test	13			0		ka	1	1035	6	1	antiphase_hc_iso.wav	2	6	6	noise_calib_stim_RIGHT.wav	2	22	blb_dichoticlistening_ka-ka.mp3	ka	ka	0	left
6.6.1	win	2023-06-12	21:18:10	0	0	64017b47c83e917541f7c592	2	1	DL_test	15	DL_test	14			0		da	1	1352	6	1	antiphase_hc_iso.wav	2	6	6	noise_calib_stim_RIGHT.wav	2	26	blb_dichoticlistening_pa-da.mp3	pa	da	1	right
6.6.1	win	2023-06-12	21:18:10	0	0	64017b47c83e917541f7c592	2	1	DL_test	15	DL_test	15			0		da	1	844	6	1	antiphase_hc_iso.wav	2	6	6	noise_calib_stim_RIGHT.wav	2	9	blb_dichoticlistening_da-ga.mp3	da	ga	1	left
6.6.1	win	2023-06-12	21:18:10	0	0	64017b47c83e917541f7c592	2	1	DL_test	15	DL_test	16			0		da	1	763	6	1	antiphase_hc_iso.wav	2	6	6	noise_calib_stim_RIGHT.wav	2	32	blb_dichoticlistening_ta-da.mp3	ta	da	1	right
6.6.1	win	2023-06-12	21:18:10	0	0	64017b47c83e917541f7c592	2	1	DL_test	15	DL_test	17			0		ka	1	1144	6	1	antiphase_hc_iso.wav	2	6	6	noise_calib_stim_RIGHT.wav	2	24	blb_dichoticlistening_ka-ta.mp3	ka	ta	1	left
6.6.1	win	2023-06-12	21:18:10	0	0	64017b47c83e917541f7c592	2	1	DL_test	15	DL_test	18			0		ba	1	1200	6	1	antiphase_hc_iso.wav	2	6	6	noise_calib_stim_RIGHT.wav	2	1	blb_dichoticlistening_ba-ba.mp3	ba	ba	0	left
6.6.1	win	2023-06-12	21:18:10	0	0	64017b47c83e917541f7c592	2	1	DL_test	15	DL_test	19			0		da	1	1298	6	1	antiphase_hc_iso.wav	2	6	6	noise_calib_stim_RIGHT.wav	2	12	blb_dichoticlistening_da-ta.mp3	da	ta	1	left
6.6.1	win	2023-06-12	21:18:10	0	0	64017b47c83e917541f7c592	2	1	DL_test	15	DL_test	20			0		pa	0	1604	6	1	antiphase_hc_iso.wav	2	6	6	noise_calib_stim_RIGHT.wav	2	31	blb_dichoticlistening_ta-ba.mp3	ta	ba	1	other
6.6.1	win	2023-06-12	21:18:10	0	0	64017b47c83e917541f7c592	2	1	DL_test	15	DL_test	21			0		ka	1	1361	6	1	antiphase_hc_iso.wav	2	6	6	noise_calib_stim_RIGHT.wav	2	20	blb_dichoticlistening_ka-da.mp3	ka	da	1	left
6.6.1	win	2023-06-12	21:18:10	0	0	64017b47c83e917541f7c592	2	1	DL_test	15	DL_test	22			0		pa	1	1521	6	1	antiphase_hc_iso.wav	2	6	6	noise_calib_stim_RIGHT.wav	2	29	blb_dichoticlistening_pa-pa.mp3	pa	pa	0	left
6.6.1	win	2023-06-12	21:18:10	0	0	64017b47c83e917541f7c592	2	1	DL_test	15	DL_test	23			0		da	1	995	6	1	antiphase_hc_iso.wav	2	6	6	noise_calib_stim_RIGHT.wav	2	14	blb_dichoticlistening_ga-da.mp3	ga	da	1	right
6.6.1	win	2023-06-12	21:18:10	0	0	64017b47c83e917541f7c592	2	1	DL_test	15	DL_test	24			0		ka	1	1451	6	1	antiphase_hc_iso.wav	2	6	6	noise_calib_stim_RIGHT.wav	2	28	blb_dichoticlistening_pa-ka.mp3	pa	ka	1	right
6.6.1	win	2023-06-12	21:18:10	0	0	64017b47c83e917541f7c592	2	1	DL_test	15	DL_test	25			0		ta	1	1366	6	1	antiphase_hc_iso.wav	2	6	6	noise_calib_stim_RIGHT.wav	2	30	blb_dichoticlistening_pa-ta.mp3	pa	ta	1	right
6.6.1	win	2023-06-12	21:18:10	0	0	64017b47c83e917541f7c592	2	1	DL_test	15	DL_test	26			0		ta	1	1013	6	1	antiphase_hc_iso.wav	2	6	6	noise_calib_stim_RIGHT.wav	2	36	blb_dichoticlistening_ta-ta.mp3	ta	ta	0	left
6.6.1	win	2023-06-12	21:18:10	0	0	64017b47c83e917541f7c592	2	1	DL_test	15	DL_test	27			0		da	1	1425	6	1	antiphase_hc_iso.wav	2	6	6	noise_calib_stim_RIGHT.wav	2	8	blb_dichoticlistening_da-da.mp3	da	da	0	left
6.6.1	win	2023-06-12	21:18:10	0	0	64017b47c83e917541f7c592	2	1	DL_test	15	DL_test	28			0		ga	1	1321	6	1	antiphase_hc_iso.wav	2	6	6	noise_calib_stim_RIGHT.wav	2	27	blb_dichoticlistening_pa-ga.mp3	pa	ga	1	right
6.6.1	win	2023-06-12	21:18:10	0	0	64017b47c83e917541f7c592	2	1	DL_test	15	DL_test	29			0		pa	1	1206	6	1	antiphase_hc_iso.wav	2	6	6	noise_calib_stim_RIGHT.wav	2	5	blb_dichoticlistening_ba-pa.mp3	ba	pa	1	right
6.6.1	win	2023-06-12	21:18:10	0	0	64017b47c83e917541f7c592	2	1	DL_test	15	DL_test	30			0		ta	1	1393	6	1	antiphase_hc_iso.wav	2	6	6	noise_calib_stim_RIGHT.wav	2	34	blb_dichoticlistening_ta-ka.mp3	ta	ka	1	left
6.6.1	win	2023-06-12	21:18:10	0	0	64017b47c83e917541f7c592	2	1	DL_test	15	DL_test	31			0		ka	1	1152	6	1	antiphase_hc_iso.wav	2	6	6	noise_calib_stim_RIGHT.wav	2	23	blb_dichoticlistening_ka-pa.mp3	ka	pa	1	left
6.6.1	win	2023-06-12	21:18:10	0	0	64017b47c83e917541f7c592	2	1	DL_test	15	DL_test	32			0		ga	1	1239	6	1	antiphase_hc_iso.wav	2	6	6	noise_calib_stim_RIGHT.wav	2	18	blb_dichoticlistening_ga-ta.mp3	ga	ta	1	left
6.6.1	win	2023-06-12	21:18:10	0	0	64017b47c83e917541f7c592	2	1	DL_test	15	DL_test	33			0		ga	1	1691	6	1	antiphase_hc_iso.wav	2	6	6	noise_calib_stim_RIGHT.wav	2	33	blb_dichoticlistening_ta-ga.mp3	ta	ga	1	right
6.6.1	win	2023-06-12	21:18:10	0	0	64017b47c83e917541f7c592	2	1	DL_test	15	DL_test	34			0		da	1	1693	6	1	antiphase_hc_iso.wav	2	6	6	noise_calib_stim_RIGHT.wav	2	7	blb_dichoticlistening_da-ba.mp3	da	ba	1	left
6.6.1	win	2023-06-12	21:18:10	0	0	64017b47c83e917541f7c592	2	1	DL_test	15	DL_test	35			0		pa	1	1510	6	1	antiphase_hc_iso.wav	2	6	6	noise_calib_stim_RIGHT.wav	2	35	blb_dichoticlistening_ta-pa.mp3	ta	pa	1	right
6.6.1	win	2023-06-12	21:18:10	0	0	64017b47c83e917541f7c592	2	1	DL_test	15	DL_test	36			0		da	0	1216	6	1	antiphase_hc_iso.wav	2	6	6	noise_calib_stim_RIGHT.wav	2	3	blb_dichoticlistening_ba-ga.mp3	ba	ga	1	other
6.6.1	win	2023-06-12	21:18:10	0	0	64017b47c83e917541f7c592	2	1	DL_test	16	DL_test	1			0		da	0	1325	6	1	antiphase_hc_iso.wav	2	6	6	noise_calib_stim_RIGHT.wav	2	3	blb_dichoticlistening_ba-ga.mp3	ba	ga	1	other
6.6.1	win	2023-06-12	21:18:10	0	0	64017b47c83e917541f7c592	2	1	DL_test	16	DL_test	2			0		da	1	735	6	1	antiphase_hc_iso.wav	2	6	6	noise_calib_stim_RIGHT.wav	2	9	blb_dichoticlistening_da-ga.mp3	da	ga	1	left
6.6.1	win	2023-06-12	21:18:10	0	0	64017b47c83e917541f7c592	2	1	DL_test	16	DL_test	3			0		ka	1	1159	6	1	antiphase_hc_iso.wav	2	6	6	noise_calib_stim_RIGHT.wav	2	4	blb_dichoticlistening_ba-ka.mp3	ba	ka	1	right
6.6.1	win	2023-06-12	21:18:10	0	0	64017b47c83e917541f7c592	2	1	DL_test	16	DL_test	4			0		da	1	1874	6	1	antiphase_hc_iso.wav	2	6	6	noise_calib_stim_RIGHT.wav	2	32	blb_dichoticlistening_ta-da.mp3	ta	da	1	right
6.6.1	win	2023-06-12	21:18:10	0	0	64017b47c83e917541f7c592	2	1	DL_test	16	DL_test	5			0		ka	1	1064	6	1	antiphase_hc_iso.wav	2	6	6	noise_calib_stim_RIGHT.wav	2	22	blb_dichoticlistening_ka-ka.mp3	ka	ka	0	left
6.6.1	win	2023-06-12	21:18:10	0	0	64017b47c83e917541f7c592	2	1	DL_test	16	DL_test	6			0		ga	1	1135	6	1	antiphase_hc_iso.wav	2	6	6	noise_calib_stim_RIGHT.wav	2	27	blb_dichoticlistening_pa-ga.mp3	pa	ga	1	right
6.6.1	win	2023-06-12	21:18:10	0	0	64017b47c83e917541f7c592	2	1	DL_test	16	DL_test	7			0		ka	1	1157	6	1	antiphase_hc_iso.wav	2	6	6	noise_calib_stim_RIGHT.wav	2	34	blb_dichoticlistening_ta-ka.mp3	ta	ka	1	right
6.6.1	win	2023-06-12	21:18:10	0	0	64017b47c83e917541f7c592	2	1	DL_test	16	DL_test	8			0		ta	1	1433	6	1	antiphase_hc_iso.wav	2	6	6	noise_calib_stim_RIGHT.wav	2	36	blb_dichoticlistening_ta-ta.mp3	ta	ta	0	left
6.6.1	win	2023-06-12	21:18:10	0	0	64017b47c83e917541f7c592	2	1	DL_test	16	DL_test	9			0		ga	1	1281	6	1	antiphase_hc_iso.wav	2	6	6	noise_calib_stim_RIGHT.wav	2	33	blb_dichoticlistening_ta-ga.mp3	ta	ga	1	right
6.6.1	win	2023-06-12	21:18:10	0	0	64017b47c83e917541f7c592	2	1	DL_test	16	DL_test	10			0		ta	1	1459	6	1	antiphase_hc_iso.wav	2	6	6	noise_calib_stim_RIGHT.wav	2	30	blb_dichoticlistening_pa-ta.mp3	pa	ta	1	right
6.6.1	win	2023-06-12	21:18:10	0	0	64017b47c83e917541f7c592	2	1	DL_test	16	DL_test	11			0		ka	1	1061	6	1	antiphase_hc_iso.wav	2	6	6	noise_calib_stim_RIGHT.wav	2	21	blb_dichoticlistening_ka-ga.mp3	ka	ga	1	left
6.6.1	win	2023-06-12	21:18:10	0	0	64017b47c83e917541f7c592	2	1	DL_test	16	DL_test	12			0		da	1	1465	6	1	antiphase_hc_iso.wav	2	6	6	noise_calib_stim_RIGHT.wav	2	26	blb_dichoticlistening_pa-da.mp3	pa	da	1	right
6.6.1	win	2023-06-12	21:18:10	0	0	64017b47c83e917541f7c592	2	1	DL_test	16	DL_test	13			0		pa	1	1204	6	1	antiphase_hc_iso.wav	2	6	6	noise_calib_stim_RIGHT.wav	2	35	blb_dichoticlistening_ta-pa.mp3	ta	pa	1	right
6.6.1	win	2023-06-12	21:18:10	0	0	64017b47c83e917541f7c592	2	1	DL_test	16	DL_test	14			0		ba	1	1739	6	1	antiphase_hc_iso.wav	2	6	6	noise_calib_stim_RIGHT.wav	2	7	blb_dichoticlistening_da-ba.mp3	da	ba	1	right
6.6.1	win	2023-06-12	21:18:10	0	0	64017b47c83e917541f7c592	2	1	DL_test	16	DL_test	15			0		pa	1	1238	6	1	antiphase_hc_iso.wav	2	6	6	noise_calib_stim_RIGHT.wav	2	29	blb_dichoticlistening_pa-pa.mp3	pa	pa	0	left
6.6.1	win	2023-06-12	21:18:10	0	0	64017b47c83e917541f7c592	2	1	DL_test	16	DL_test	16			0		ta	1	2805	6	1	antiphase_hc_iso.wav	2	6	6	noise_calib_stim_RIGHT.wav	2	12	blb_dichoticlistening_da-ta.mp3	da	ta	1	right
6.6.1	win	2023-06-12	21:18:10	0	0	64017b47c83e917541f7c592	2	1	DL_test	16	DL_test	17			0		ka	1	1509	6	1	antiphase_hc_iso.wav	2	6	6	noise_calib_stim_RIGHT.wav	2	28	blb_dichoticlistening_pa-ka.mp3	pa	ka	1	right
6.6.1	win	2023-06-12	21:18:10	0	0	64017b47c83e917541f7c592	2	1	DL_test	16	DL_test	18			0		da	1	2697	6	1	antiphase_hc_iso.wav	2	6	6	noise_calib_stim_RIGHT.wav	2	10	blb_dichoticlistening_da-ka.mp3	da	ka	1	left
6.6.1	win	2023-06-12	21:18:10	0	0	64017b47c83e917541f7c592	2	1	DL_test	16	DL_test	19			0		ba	1	2201	6	1	antiphase_hc_iso.wav	2	6	6	noise_calib_stim_RIGHT.wav	2	1	blb_dichoticlistening_ba-ba.mp3	ba	ba	0	left
6.6.1	win	2023-06-12	21:18:10	0	0	64017b47c83e917541f7c592	2	1	DL_test	16	DL_test	20			0		pa	1	1441	6	1	antiphase_hc_iso.wav	2	6	6	noise_calib_stim_RIGHT.wav	2	25	blb_dichoticlistening_pa-ba.mp3	pa	ba	1	left
6.6.1	win	2023-06-12	21:18:10	0	0	64017b47c83e917541f7c592	2	1	DL_test	16	DL_test	21			0		ga	1	1354	6	1	antiphase_hc_iso.wav	2	6	6	noise_calib_stim_RIGHT.wav	2	13	blb_dichoticlistening_ga-ba.mp3	ga	ba	1	left
6.6.1	win	2023-06-12	21:18:10	0	0	64017b47c83e917541f7c592	2	1	DL_test	16	DL_test	22			0		pa	0	1393	6	1	antiphase_hc_iso.wav	2	6	6	noise_calib_stim_RIGHT.wav	2	31	blb_dichoticlistening_ta-ba.mp3	ta	ba	1	other
6.6.1	win	2023-06-12	21:18:10	0	0	64017b47c83e917541f7c592	2	1	DL_test	16	DL_test	23			0		ga	1	1258	6	1	antiphase_hc_iso.wav	2	6	6	noise_calib_stim_RIGHT.wav	2	15	blb_dichoticlistening_ga-ga.mp3	ga	ga	0	left
6.6.1	win	2023-06-12	21:18:10	0	0	64017b47c83e917541f7c592	2	1	DL_test	16	DL_test	24			0		pa	1	1779	6	1	antiphase_hc_iso.wav	2	6	6	noise_calib_stim_RIGHT.wav	2	17	blb_dichoticlistening_ga-pa.mp3	ga	pa	1	right
6.6.1	win	2023-06-12	21:18:10	0	0	64017b47c83e917541f7c592	2	1	DL_test	16	DL_test	25			0		ga	1	1517	6	1	antiphase_hc_iso.wav	2	6	6	noise_calib_stim_RIGHT.wav	2	18	blb_dichoticlistening_ga-ta.mp3	ga	ta	1	left
6.6.1	win	2023-06-12	21:18:10	0	0	64017b47c83e917541f7c592	2	1	DL_test	16	DL_test	26			0		da	1	989	6	1	antiphase_hc_iso.wav	2	6	6	noise_calib_stim_RIGHT.wav	2	8	blb_dichoticlistening_da-da.mp3	da	da	0	left
6.6.1	win	2023-06-12	21:18:10	0	0	64017b47c83e917541f7c592	2	1	DL_test	16	DL_test	27			0		da	1	831	6	1	antiphase_hc_iso.wav	2	6	6	noise_calib_stim_RIGHT.wav	2	14	blb_dichoticlistening_ga-da.mp3	ga	da	1	right
6.6.1	win	2023-06-12	21:18:10	0	0	64017b47c83e917541f7c592	2	1	DL_test	16	DL_test	28			0		da	1	943	6	1	antiphase_hc_iso.wav	2	6	6	noise_calib_stim_RIGHT.wav	2	11	blb_dichoticlistening_da-pa.mp3	da	pa	1	left
6.6.1	win	2023-06-12	21:18:10	0	0	64017b47c83e917541f7c592	2	1	DL_test	16	DL_test	29			0		da	0	884	6	1	antiphase_hc_iso.wav	2	6	6	noise_calib_stim_RIGHT.wav	2	6	blb_dichoticlistening_ba-ta.mp3	ba	ta	1	other
6.6.1	win	2023-06-12	21:18:10	0	0	64017b47c83e917541f7c592	2	1	DL_test	16	DL_test	30			0		pa	0	2120	6	1	antiphase_hc_iso.wav	2	6	6	noise_calib_stim_RIGHT.wav	2	19	blb_dichoticlistening_ka-ba.mp3	ka	ba	1	other
6.6.1	win	2023-06-12	21:18:10	0	0	64017b47c83e917541f7c592	2	1	DL_test	16	DL_test	31			0		ka	1	1191	6	1	antiphase_hc_iso.wav	2	6	6	noise_calib_stim_RIGHT.wav	2	24	blb_dichoticlistening_ka-ta.mp3	ka	ta	1	left
6.6.1	win	2023-06-12	21:18:10	0	0	64017b47c83e917541f7c592	2	1	DL_test	16	DL_test	32			0		da	1	1448	6	1	antiphase_hc_iso.wav	2	6	6	noise_calib_stim_RIGHT.wav	2	2	blb_dichoticlistening_ba-da.mp3	ba	da	1	right
6.6.1	win	2023-06-12	21:18:10	0	0	64017b47c83e917541f7c592	2	1	DL_test	16	DL_test	33			0		ka	1	1255	6	1	antiphase_hc_iso.wav	2	6	6	noise_calib_stim_RIGHT.wav	2	23	blb_dichoticlistening_ka-pa.mp3	ka	pa	1	left
6.6.1	win	2023-06-12	21:18:10	0	0	64017b47c83e917541f7c592	2	1	DL_test	16	DL_test	34			0		pa	1	1138	6	1	antiphase_hc_iso.wav	2	6	6	noise_calib_stim_RIGHT.wav	2	5	blb_dichoticlistening_ba-pa.mp3	ba	pa	1	right
6.6.1	win	2023-06-12	21:18:10	0	0	64017b47c83e917541f7c592	2	1	DL_test	16	DL_test	35			0		ka	1	1034	6	1	antiphase_hc_iso.wav	2	6	6	noise_calib_stim_RIGHT.wav	2	16	blb_dichoticlistening_ga-ka.mp3	ga	ka	1	right
6.6.1	win	2023-06-12	21:18:10	0	0	64017b47c83e917541f7c592	2	1	DL_test	16	DL_test	36			0		ka	1	845	6	1	antiphase_hc_iso.wav	2	6	6	noise_calib_stim_RIGHT.wav	2	20	blb_dichoticlistening_ka-da.mp3	ka	da	1	left
6.6.1	win	2023-06-12	21:18:10	21:34:44	990181	64017b47c83e917541f7c592	2	1	practice_z	22	practice_z	1	stimuli_distractor_diamondtriangles.svg	stimuli_target_rectangletriangles.svg	7	yes	0	0	2000	6	1	antiphase_hc_iso.wav	2	6	6	noise_calib_stim_RIGHT.wav	2	20	blb_dichoticlistening_ka-da.mp3	ka	da	1	left
6.6.1	win	2023-06-12	21:18:10	21:34:44	990181	64017b47c83e917541f7c592	2	1	practice_z	22	advance_on_keypress_ZEE	2	stimuli_distractor_diamondtriangles.svg	stimuli_target_rectangletriangles.svg	7	yes	57	0	2150	6	1	antiphase_hc_iso.wav	2	6	6	noise_calib_stim_RIGHT.wav	2	20	blb_dichoticlistening_ka-da.mp3	ka	da	1	left
6.6.1	win	2023-06-12	21:18:10	21:34:50	995979	64017b47c83e917541f7c592	2	1	practice_z	22	practice_z	3	stimuli_distractor_diamondtriangles.svg	stimuli_distractor_trianglediamonds.svg	14	no	0	1	2000	6	1	antiphase_hc_iso.wav	2	6	6	noise_calib_stim_RIGHT.wav	2	20	blb_dichoticlistening_ka-da.mp3	ka	da	1	left
6.6.1	win	2023-06-12	21:18:10	21:34:50	995979	64017b47c83e917541f7c592	2	1	practice_z	22	advance_on_keypress_ZEE	4	stimuli_distractor_diamondtriangles.svg	stimuli_distractor_trianglediamonds.svg	14	no	57	0	1528	6	1	antiphase_hc_iso.wav	2	6	6	noise_calib_stim_RIGHT.wav	2	20	blb_dichoticlistening_ka-da.mp3	ka	da	1	left
6.6.1	win	2023-06-12	21:18:10	21:34:54	1000210	64017b47c83e917541f7c592	2	1	practice_z	22	practice_z	5	stimuli_distractor_diamondtriangles.svg	stimuli_target_diamondrectangles.svg	8	yes	44	1	1046	6	1	antiphase_hc_iso.wav	2	6	6	noise_calib_stim_RIGHT.wav	2	20	blb_dichoticlistening_ka-da.mp3	ka	da	1	left
6.6.1	win	2023-06-12	21:18:10	21:34:54	1000210	64017b47c83e917541f7c592	2	1	practice_z	22	advance_on_keypress_ZEE	6	stimuli_distractor_diamondtriangles.svg	stimuli_target_diamondrectangles.svg	8	yes	57	0	661	6	1	antiphase_hc_iso.wav	2	6	6	noise_calib_stim_RIGHT.wav	2	20	blb_dichoticlistening_ka-da.mp3	ka	da	1	left
6.6.1	win	2023-06-12	21:18:10	21:34:57	1003616	64017b47c83e917541f7c592	2	1	practice_z	22	practice_z	7	stimuli_target_squarediamonds.svg	stimuli_distractor_trianglediamonds.svg	5	yes	44	1	1088	6	1	antiphase_hc_iso.wav	2	6	6	noise_calib_stim_RIGHT.wav	2	20	blb_dichoticlistening_ka-da.mp3	ka	da	1	left
6.6.1	win	2023-06-12	21:18:10	21:34:57	1003616	64017b47c83e917541f7c592	2	1	practice_z	22	advance_on_keypress_ZEE	8	stimuli_target_squarediamonds.svg	stimuli_distractor_trianglediamonds.svg	5	yes	57	0	734	6	1	antiphase_hc_iso.wav	2	6	6	noise_calib_stim_RIGHT.wav	2	20	blb_dichoticlistening_ka-da.mp3	ka	da	1	left
6.6.1	win	2023-06-12	21:18:10	21:35:01	1006866	64017b47c83e917541f7c592	2	1	practice_z	22	practice_z	9	stimuli_target_squarediamonds.svg	stimuli_distractor_diamondtriangles.svg	2	yes	44	1	873	6	1	antiphase_hc_iso.wav	2	6	6	noise_calib_stim_RIGHT.wav	2	20	blb_dichoticlistening_ka-da.mp3	ka	da	1	left
6.6.1	win	2023-06-12	21:18:10	21:35:01	1006866	64017b47c83e917541f7c592	2	1	practice_z	22	advance_on_keypress_ZEE	10	stimuli_target_squarediamonds.svg	stimuli_distractor_diamondtriangles.svg	2	yes	57	0	1115	6	1	antiphase_hc_iso.wav	2	6	6	noise_calib_stim_RIGHT.wav	2	20	blb_dichoticlistening_ka-da.mp3	ka	da	1	left
6.6.1	win	2023-06-12	21:18:10	21:35:05	1011624	64017b47c83e917541f7c592	2	1	practice_z	22	practice_z	11	stimuli_distractor_trianglediamonds.svg	stimuli_distractor_trianglediamonds.svg	15	no	0	1	2000	6	1	antiphase_hc_iso.wav	2	6	6	noise_calib_stim_RIGHT.wav	2	20	blb_dichoticlistening_ka-da.mp3	ka	da	1	left
6.6.1	win	2023-06-12	21:18:10	21:35:05	1011624	64017b47c83e917541f7c592	2	1	practice_z	22	advance_on_keypress_ZEE	12	stimuli_distractor_trianglediamonds.svg	stimuli_distractor_trianglediamonds.svg	15	no	57	0	604	6	1	antiphase_hc_iso.wav	2	6	6	noise_calib_stim_RIGHT.wav	2	20	blb_dichoticlistening_ka-da.mp3	ka	da	1	left
6.6.1	win	2023-06-12	21:18:10	21:35:10	1015874	64017b47c83e917541f7c592	2	1	practice_z	22	practice_z	13	stimuli_target_diamondsquares.svg	stimuli_distractor_trianglediamonds.svg	6	yes	0	0	2000	6	1	antiphase_hc_iso.wav	2	6	6	noise_calib_stim_RIGHT.wav	2	20	blb_dichoticlistening_ka-da.mp3	ka	da	1	left
6.6.1	win	2023-06-12	21:18:10	21:35:10	1015874	64017b47c83e917541f7c592	2	1	practice_z	22	advance_on_keypress_ZEE	14	stimuli_target_diamondsquares.svg	stimuli_distractor_trianglediamonds.svg	6	yes	57	0	529	6	1	antiphase_hc_iso.wav	2	6	6	noise_calib_stim_RIGHT.wav	2	20	blb_dichoticlistening_ka-da.mp3	ka	da	1	left
6.6.1	win	2023-06-12	21:18:10	21:35:14	1020056	64017b47c83e917541f7c592	2	1	practice_z	22	practice_z	15	stimuli_distractor_diamondtriangles.svg	stimuli_distractor_diamondtriangles.svg	13	no	0	1	2000	6	1	antiphase_hc_iso.wav	2	6	6	noise_calib_stim_RIGHT.wav	2	20	blb_dichoticlistening_ka-da.mp3	ka	da	1	left
6.6.1	win	2023-06-12	21:18:10	21:35:14	1020056	64017b47c83e917541f7c592	2	1	practice_z	22	advance_on_keypress_ZEE	16	stimuli_distractor_diamondtriangles.svg	stimuli_distractor_diamondtriangles.svg	13	no	57	0	373	6	1	antiphase_hc_iso.wav	2	6	6	noise_calib_stim_RIGHT.wav	2	20	blb_dichoticlistening_ka-da.mp3	ka	da	1	left
6.6.1	win	2023-06-12	21:18:10	21:35:17	1023186	64017b47c83e917541f7c592	2	1	practice_z	22	practice_z	17	stimuli_distractor_trianglediamonds.svg	stimuli_distractor_diamondtriangles.svg	16	no	44	0	1114	6	1	antiphase_hc_iso.wav	2	6	6	noise_calib_stim_RIGHT.wav	2	20	blb_dichoticlistening_ka-da.mp3	ka	da	1	left
6.6.1	win	2023-06-12	21:18:10	21:35:17	1023186	64017b47c83e917541f7c592	2	1	practice_z	22	advance_on_keypress_ZEE	18	stimuli_distractor_trianglediamonds.svg	stimuli_distractor_diamondtriangles.svg	16	no	57	0	618	6	1	antiphase_hc_iso.wav	2	6	6	noise_calib_stim_RIGHT.wav	2	20	blb_dichoticlistening_ka-da.mp3	ka	da	1	left
6.6.1	win	2023-06-12	21:18:10	21:35:20	1026270	64017b47c83e917541f7c592	2	1	practice_z	22	practice_z	19	stimuli_distractor_trianglediamonds.svg	stimuli_target_squarediamonds.svg	11	yes	44	1	816	6	1	antiphase_hc_iso.wav	2	6	6	noise_calib_stim_RIGHT.wav	2	20	blb_dichoticlistening_ka-da.mp3	ka	da	1	left
6.6.1	win	2023-06-12	21:18:10	21:35:20	1026270	64017b47c83e917541f7c592	2	1	practice_z	22	advance_on_keypress_ZEE	20	stimuli_distractor_trianglediamonds.svg	stimuli_target_squarediamonds.svg	11	yes	57	0	545	6	1	antiphase_hc_iso.wav	2	6	6	noise_calib_stim_RIGHT.wav	2	20	blb_dichoticlistening_ka-da.mp3	ka	da	1	left
6.6.1	win	2023-06-12	21:18:10	21:35:24	1030018	64017b47c83e917541f7c592	2	1	practice_z	22	practice_z	21	stimuli_distractor_trianglediamonds.svg	stimuli_target_diamondrectangles.svg	12	yes	44	1	1548	6	1	antiphase_hc_iso.wav	2	6	6	noise_calib_stim_RIGHT.wav	2	20	blb_dichoticlistening_ka-da.mp3	ka	da	1	left
6.6.1	win	2023-06-12	21:18:10	21:35:24	1030018	64017b47c83e917541f7c592	2	1	practice_z	22	advance_on_keypress_ZEE	22	stimuli_distractor_trianglediamonds.svg	stimuli_target_diamondrectangles.svg	12	yes	57	0	539	6	1	antiphase_hc_iso.wav	2	6	6	noise_calib_stim_RIGHT.wav	2	20	blb_dichoticlistening_ka-da.mp3	ka	da	1	left
6.6.1	win	2023-06-12	21:18:10	21:35:27	1033393	64017b47c83e917541f7c592	2	1	practice_z	22	practice_z	23	stimuli_target_diamondsquares.svg	stimuli_distractor_diamondtriangles.svg	3	yes	44	1	1192	6	1	antiphase_hc_iso.wav	2	6	6	noise_calib_stim_RIGHT.wav	2	20	blb_dichoticlistening_ka-da.mp3	ka	da	1	left
6.6.1	win	2023-06-12	21:18:10	21:35:27	1033393	64017b47c83e917541f7c592	2	1	practice_z	22	advance_on_keypress_ZEE	24	stimuli_target_diamondsquares.svg	stimuli_distractor_diamondtriangles.svg	3	yes	57	0	418	6	1	antiphase_hc_iso.wav	2	6	6	noise_calib_stim_RIGHT.wav	2	20	blb_dichoticlistening_ka-da.mp3	ka	da	1	left
6.6.1	win	2023-06-12	21:18:10	21:35:30	1036194	64017b47c83e917541f7c592	2	1	practice_z	22	practice_z	25	stimuli_target_rectanglediamonds.svg	stimuli_distractor_trianglediamonds.svg	4	yes	44	1	742	6	1	antiphase_hc_iso.wav	2	6	6	noise_calib_stim_RIGHT.wav	2	20	blb_dichoticlistening_ka-da.mp3	ka	da	1	left
6.6.1	win	2023-06-12	21:18:10	21:35:30	1036194	64017b47c83e917541f7c592	2	1	practice_z	22	advance_on_keypress_ZEE	26	stimuli_target_rectanglediamonds.svg	stimuli_distractor_trianglediamonds.svg	4	yes	57	0	325	6	1	antiphase_hc_iso.wav	2	6	6	noise_calib_stim_RIGHT.wav	2	20	blb_dichoticlistening_ka-da.mp3	ka	da	1	left
6.6.1	win	2023-06-12	21:18:10	21:35:33	1038870	64017b47c83e917541f7c592	2	1	practice_z	22	practice_z	27	stimuli_distractor_trianglediamonds.svg	stimuli_target_rectanglediamonds.svg	10	yes	44	1	687	6	1	antiphase_hc_iso.wav	2	6	6	noise_calib_stim_RIGHT.wav	2	20	blb_dichoticlistening_ka-da.mp3	ka	da	1	left
6.6.1	win	2023-06-12	21:18:10	21:35:33	1038870	64017b47c83e917541f7c592	2	1	practice_z	22	advance_on_keypress_ZEE	28	stimuli_distractor_trianglediamonds.svg	stimuli_target_rectanglediamonds.svg	10	yes	57	0	399	6	1	antiphase_hc_iso.wav	2	6	6	noise_calib_stim_RIGHT.wav	2	20	blb_dichoticlistening_ka-da.mp3	ka	da	1	left
6.6.1	win	2023-06-12	21:18:10	21:35:35	1041641	64017b47c83e917541f7c592	2	1	practice_z	22	practice_z	29	stimuli_target_rectanglediamonds.svg	stimuli_distractor_diamondtriangles.svg	1	yes	44	1	724	6	1	antiphase_hc_iso.wav	2	6	6	noise_calib_stim_RIGHT.wav	2	20	blb_dichoticlistening_ka-da.mp3	ka	da	1	left
6.6.1	win	2023-06-12	21:18:10	21:35:35	1041641	64017b47c83e917541f7c592	2	1	practice_z	22	advance_on_keypress_ZEE	30	stimuli_target_rectanglediamonds.svg	stimuli_distractor_diamondtriangles.svg	1	yes	57	0	478	6	1	antiphase_hc_iso.wav	2	6	6	noise_calib_stim_RIGHT.wav	2	20	blb_dichoticlistening_ka-da.mp3	ka	da	1	left
6.6.1	win	2023-06-12	21:18:10	21:35:39	1045611	64017b47c83e917541f7c592	2	1	practice_z	22	practice_z	31	stimuli_distractor_diamondtriangles.svg	stimuli_target_trianglerectangles.svg	9	yes	44	1	1845	6	1	antiphase_hc_iso.wav	2	6	6	noise_calib_stim_RIGHT.wav	2	20	blb_dichoticlistening_ka-da.mp3	ka	da	1	left
6.6.1	win	2023-06-12	21:18:10	21:35:39	1045611	64017b47c83e917541f7c592	2	1	practice_z	22	advance_on_keypress_ZEE	32	stimuli_distractor_diamondtriangles.svg	stimuli_target_trianglerectangles.svg	9	yes	57	0	453	6	1	antiphase_hc_iso.wav	2	6	6	noise_calib_stim_RIGHT.wav	2	20	blb_dichoticlistening_ka-da.mp3	ka	da	1	left
6.6.1	win	2023-06-12	21:18:10	21:35:48	1054475	64017b47c83e917541f7c592	2	1	main_z	24	main_z	1	stimuli_target_rectangletriangles.svg	stimuli_distractor_trianglediamonds.svg	1	yes	44	1	647	6	1	antiphase_hc_iso.wav	2	6	6	noise_calib_stim_RIGHT.wav	2	20	blb_dichoticlistening_ka-da.mp3	ka	da	1	left
6.6.1	win	2023-06-12	21:18:10	21:35:48	1054475	64017b47c83e917541f7c592	2	1	main_z	24	advance_on_keypress_ZEE	2	stimuli_target_rectangletriangles.svg	stimuli_distractor_trianglediamonds.svg	1	yes	57	0	1011	6	1	antiphase_hc_iso.wav	2	6	6	noise_calib_stim_RIGHT.wav	2	20	blb_dichoticlistening_ka-da.mp3	ka	da	1	left
6.6.1	win	2023-06-12	21:18:10	21:35:51	1057187	64017b47c83e917541f7c592	2	1	main_z	24	main_z	3	stimuli_target_diamondrectangles.svg	stimuli_distractor_diamondtriangles.svg	23	yes	44	1	1044	6	1	antiphase_hc_iso.wav	2	6	6	noise_calib_stim_RIGHT.wav	2	20	blb_dichoticlistening_ka-da.mp3	ka	da	1	left
6.6.1	win	2023-06-12	21:18:10	21:35:51	1057187	64017b47c83e917541f7c592	2	1	main_z	24	advance_on_keypress_ZEE	4	stimuli_target_diamondrectangles.svg	stimuli_distractor_diamondtriangles.svg	23	yes	57	0	696	6	1	antiphase_hc_iso.wav	2	6	6	noise_calib_stim_RIGHT.wav	2	20	blb_dichoticlistening_ka-da.mp3	ka	da	1	left
6.6.1	win	2023-06-12	21:18:10	21:35:54	1060526	64017b47c83e917541f7c592	2	1	main_z	24	main_z	5	stimuli_distractor_diamondtriangles.svg	stimuli_distractor_diamondtriangles.svg	39	no	0	1	2000	6	1	antiphase_hc_iso.wav	2	6	6	noise_calib_stim_RIGHT.wav	2	20	blb_dichoticlistening_ka-da.mp3	ka	da	1	left
6.6.1	win	2023-06-12	21:18:10	21:35:54	1060526	64017b47c83e917541f7c592	2	1	main_z	24	advance_on_keypress_ZEE	6	stimuli_distractor_diamondtriangles.svg	stimuli_distractor_diamondtriangles.svg	39	no	57	0	516	6	1	antiphase_hc_iso.wav	2	6	6	noise_calib_stim_RIGHT.wav	2	20	blb_dichoticlistening_ka-da.mp3	ka	da	1	left
6.6.1	win	2023-06-12	21:18:10	21:35:57	1062796	64017b47c83e917541f7c592	2	1	main_z	24	main_z	7	stimuli_distractor_diamondtriangles.svg	stimuli_distractor_trianglediamonds.svg	38	no	44	0	1103	6	1	antiphase_hc_iso.wav	2	6	6	noise_calib_stim_RIGHT.wav	2	20	blb_dichoticlistening_ka-da.mp3	ka	da	1	left
6.6.1	win	2023-06-12	21:18:10	21:35:57	1062796	64017b47c83e917541f7c592	2	1	main_z	24	advance_on_keypress_ZEE	8	stimuli_distractor_diamondtriangles.svg	stimuli_distractor_trianglediamonds.svg	38	no	57	0	1031	6	1	antiphase_hc_iso.wav	2	6	6	noise_calib_stim_RIGHT.wav	2	20	blb_dichoticlistening_ka-da.mp3	ka	da	1	left
6.6.1	win	2023-06-12	21:18:10	21:35:59	1065330	64017b47c83e917541f7c592	2	1	main_z	24	main_z	9	stimuli_distractor_diamondtriangles.svg	stimuli_target_diamondsquares.svg	32	yes	44	1	856	6	1	antiphase_hc_iso.wav	2	6	6	noise_calib_stim_RIGHT.wav	2	20	blb_dichoticlistening_ka-da.mp3	ka	da	1	left
6.6.1	win	2023-06-12	21:18:10	21:35:59	1065330	64017b47c83e917541f7c592	2	1	main_z	24	advance_on_keypress_ZEE	10	stimuli_distractor_diamondtriangles.svg	stimuli_target_diamondsquares.svg	32	yes	57	0	445	6	1	antiphase_hc_iso.wav	2	6	6	noise_calib_stim_RIGHT.wav	2	20	blb_dichoticlistening_ka-da.mp3	ka	da	1	left
6.6.1	win	2023-06-12	21:18:10	21:36:01	1067270	64017b47c83e917541f7c592	2	1	main_z	24	main_z	11	stimuli_distractor_trianglediamonds.svg	stimuli_target_rectangletriangles.svg	9	yes	44	1	846	6	1	antiphase_hc_iso.wav	2	6	6	noise_calib_stim_RIGHT.wav	2	20	blb_dichoticlistening_ka-da.mp3	ka	da	1	left
6.6.1	win	2023-06-12	21:18:10	21:36:01	1067270	64017b47c83e917541f7c592	2	1	main_z	24	advance_on_keypress_ZEE	12	stimuli_distractor_trianglediamonds.svg	stimuli_target_rectangletriangles.svg	9	yes	57	0	450	6	1	antiphase_hc_iso.wav	2	6	6	noise_calib_stim_RIGHT.wav	2	20	blb_dichoticlistening_ka-da.mp3	ka	da	1	left
6.6.1	win	2023-06-12	21:18:10	21:36:03	1069298	64017b47c83e917541f7c592	2	1	main_z	24	main_z	13	stimuli_distractor_trianglediamonds.svg	stimuli_target_rectanglediamonds.svg	10	yes	44	1	924	6	1	antiphase_hc_iso.wav	2	6	6	noise_calib_stim_RIGHT.wav	2	20	blb_dichoticlistening_ka-da.mp3	ka	da	1	left
6.6.1	win	2023-06-12	21:18:10	21:36:03	1069298	64017b47c83e917541f7c592	2	1	main_z	24	advance_on_keypress_ZEE	14	stimuli_distractor_trianglediamonds.svg	stimuli_target_rectanglediamonds.svg	10	yes	57	0	421	6	1	antiphase_hc_iso.wav	2	6	6	noise_calib_stim_RIGHT.wav	2	20	blb_dichoticlistening_ka-da.mp3	ka	da	1	left
6.6.1	win	2023-06-12	21:18:10	21:36:06	1072356	64017b47c83e917541f7c592	2	1	main_z	24	main_z	15	stimuli_distractor_trianglediamonds.svg	stimuli_distractor_trianglediamonds.svg	34	no	0	1	2000	6	1	antiphase_hc_iso.wav	2	6	6	noise_calib_stim_RIGHT.wav	2	20	blb_dichoticlistening_ka-da.mp3	ka	da	1	left
6.6.1	win	2023-06-12	21:18:10	21:36:06	1072356	64017b47c83e917541f7c592	2	1	main_z	24	advance_on_keypress_ZEE	16	stimuli_distractor_trianglediamonds.svg	stimuli_distractor_trianglediamonds.svg	34	no	57	0	566	6	1	antiphase_hc_iso.wav	2	6	6	noise_calib_stim_RIGHT.wav	2	20	blb_dichoticlistening_ka-da.mp3	ka	da	1	left
6.6.1	win	2023-06-12	21:18:10	21:36:08	1074279	64017b47c83e917541f7c592	2	1	main_z	24	main_z	17	stimuli_distractor_diamondtriangles.svg	stimuli_target_rectangletriangles.svg	13	yes	44	1	706	6	1	antiphase_hc_iso.wav	2	6	6	noise_calib_stim_RIGHT.wav	2	20	blb_dichoticlistening_ka-da.mp3	ka	da	1	left
6.6.1	win	2023-06-12	21:18:10	21:36:08	1074279	64017b47c83e917541f7c592	2	1	main_z	24	advance_on_keypress_ZEE	18	stimuli_distractor_diamondtriangles.svg	stimuli_target_rectangletriangles.svg	13	yes	57	0	402	6	1	antiphase_hc_iso.wav	2	6	6	noise_calib_stim_RIGHT.wav	2	20	blb_dichoticlistening_ka-da.mp3	ka	da	1	left
6.6.1	win	2023-06-12	21:18:10	21:36:10	1076455	64017b47c83e917541f7c592	2	1	main_z	24	main_z	19	stimuli_target_trianglerectangles.svg	stimuli_distractor_trianglediamonds.svg	17	yes	44	1	1134	6	1	antiphase_hc_iso.wav	2	6	6	noise_calib_stim_RIGHT.wav	2	20	blb_dichoticlistening_ka-da.mp3	ka	da	1	left
6.6.1	win	2023-06-12	21:18:10	21:36:10	1076455	64017b47c83e917541f7c592	2	1	main_z	24	advance_on_keypress_ZEE	20	stimuli_target_trianglerectangles.svg	stimuli_distractor_trianglediamonds.svg	17	yes	57	0	405	6	1	antiphase_hc_iso.wav	2	6	6	noise_calib_stim_RIGHT.wav	2	20	blb_dichoticlistening_ka-da.mp3	ka	da	1	left
6.6.1	win	2023-06-12	21:18:10	21:36:12	1078605	64017b47c83e917541f7c592	2	1	main_z	24	main_z	21	stimuli_distractor_trianglediamonds.svg	stimuli_target_diamondsquares.svg	28	yes	44	1	1101	6	1	antiphase_hc_iso.wav	2	6	6	noise_calib_stim_RIGHT.wav	2	20	blb_dichoticlistening_ka-da.mp3	ka	da	1	left
6.6.1	win	2023-06-12	21:18:10	21:36:12	1078605	64017b47c83e917541f7c592	2	1	main_z	24	advance_on_keypress_ZEE	22	stimuli_distractor_trianglediamonds.svg	stimuli_target_diamondsquares.svg	28	yes	57	0	598	6	1	antiphase_hc_iso.wav	2	6	6	noise_calib_stim_RIGHT.wav	2	20	blb_dichoticlistening_ka-da.mp3	ka	da	1	left
6.6.1	win	2023-06-12	21:18:10	21:36:15	1080899	64017b47c83e917541f7c592	2	1	main_z	24	main_z	23	stimuli_target_squarediamonds.svg	stimuli_distractor_diamondtriangles.svg	8	yes	44	1	1046	6	1	antiphase_hc_iso.wav	2	6	6	noise_calib_stim_RIGHT.wav	2	20	blb_dichoticlistening_ka-da.mp3	ka	da	1	left
6.6.1	win	2023-06-12	21:18:10	21:36:15	1080899	64017b47c83e917541f7c592	2	1	main_z	24	advance_on_keypress_ZEE	24	stimuli_target_squarediamonds.svg	stimuli_distractor_diamondtriangles.svg	8	yes	57	0	432	6	1	antiphase_hc_iso.wav	2	6	6	noise_calib_stim_RIGHT.wav	2	20	blb_dichoticlistening_ka-da.mp3	ka	da	1	left
6.6.1	win	2023-06-12	21:18:10	21:36:17	1082963	64017b47c83e917541f7c592	2	1	main_z	24	main_z	25	stimuli_target_diamondrectangles.svg	stimuli_distractor_trianglediamonds.svg	19	yes	44	1	977	6	1	antiphase_hc_iso.wav	2	6	6	noise_calib_stim_RIGHT.wav	2	20	blb_dichoticlistening_ka-da.mp3	ka	da	1	left
6.6.1	win	2023-06-12	21:18:10	21:36:17	1082963	64017b47c83e917541f7c592	2	1	main_z	24	advance_on_keypress_ZEE	26	stimuli_target_diamondrectangles.svg	stimuli_distractor_trianglediamonds.svg	19	yes	57	0	425	6	1	antiphase_hc_iso.wav	2	6	6	noise_calib_stim_RIGHT.wav	2	20	blb_dichoticlistening_ka-da.mp3	ka	da	1	left
6.6.1	win	2023-06-12	21:18:10	21:36:19	1084905	64017b47c83e917541f7c592	2	1	main_z	24	main_z	27	stimuli_distractor_diamondtriangles.svg	stimuli_target_squaretriangles.svg	15	yes	44	1	886	6	1	antiphase_hc_iso.wav	2	6	6	noise_calib_stim_RIGHT.wav	2	20	blb_dichoticlistening_ka-da.mp3	ka	da	1	left
6.6.1	win	2023-06-12	21:18:10	21:36:19	1084905	64017b47c83e917541f7c592	2	1	main_z	24	advance_on_keypress_ZEE	28	stimuli_distractor_diamondtriangles.svg	stimuli_target_squaretriangles.svg	15	yes	57	0	318	6	1	antiphase_hc_iso.wav	2	6	6	noise_calib_stim_RIGHT.wav	2	20	blb_dichoticlistening_ka-da.mp3	ka	da	1	left
6.6.1	win	2023-06-12	21:18:10	21:36:21	1087367	64017b47c83e917541f7c592	2	1	main_z	24	main_z	29	stimuli_distractor_diamondtriangles.svg	stimuli_target_diamondrectangles.svg	31	yes	44	1	1498	6	1	antiphase_hc_iso.wav	2	6	6	noise_calib_stim_RIGHT.wav	2	20	blb_dichoticlistening_ka-da.mp3	ka	da	1	left
6.6.1	win	2023-06-12	21:18:10	21:36:21	1087367	64017b47c83e917541f7c592	2	1	main_z	24	advance_on_keypress_ZEE	30	stimuli_distractor_diamondtriangles.svg	stimuli_target_diamondrectangles.svg	31	yes	57	0	355	6	1	antiphase_hc_iso.wav	2	6	6	noise_calib_stim_RIGHT.wav	2	20	blb_dichoticlistening_ka-da.mp3	ka	da	1	left
6.6.1	win	2023-06-12	21:18:10	21:36:24	1090367	64017b47c83e917541f7c592	2	1	main_z	24	main_z	31	stimuli_distractor_diamondtriangles.svg	stimuli_target_trianglerectangles.svg	29	yes	0	0	2000	6	1	antiphase_hc_iso.wav	2	6	6	noise_calib_stim_RIGHT.wav	2	20	blb_dichoticlistening_ka-da.mp3	ka	da	1	left
6.6.1	win	2023-06-12	21:18:10	21:36:24	1090367	64017b47c83e917541f7c592	2	1	main_z	24	advance_on_keypress_ZEE	32	stimuli_distractor_diamondtriangles.svg	stimuli_target_trianglerectangles.svg	29	yes	57	0	718	6	1	antiphase_hc_iso.wav	2	6	6	noise_calib_stim_RIGHT.wav	2	20	blb_dichoticlistening_ka-da.mp3	ka	da	1	left
6.6.1	win	2023-06-12	21:18:10	21:36:26	1092568	64017b47c83e917541f7c592	2	1	main_z	24	main_z	33	stimuli_distractor_trianglediamonds.svg	stimuli_target_squarediamonds.svg	12	yes	44	1	835	6	1	antiphase_hc_iso.wav	2	6	6	noise_calib_stim_RIGHT.wav	2	20	blb_dichoticlistening_ka-da.mp3	ka	da	1	left
6.6.1	win	2023-06-12	21:18:10	21:36:26	1092568	64017b47c83e917541f7c592	2	1	main_z	24	advance_on_keypress_ZEE	34	stimuli_distractor_trianglediamonds.svg	stimuli_target_squarediamonds.svg	12	yes	57	0	387	6	1	antiphase_hc_iso.wav	2	6	6	noise_calib_stim_RIGHT.wav	2	20	blb_dichoticlistening_ka-da.mp3	ka	da	1	left
6.6.1	win	2023-06-12	21:18:10	21:36:28	1094261	64017b47c83e917541f7c592	2	1	main_z	24	main_z	35	stimuli_target_rectanglediamonds.svg	stimuli_distractor_trianglediamonds.svg	2	yes	44	1	661	6	1	antiphase_hc_iso.wav	2	6	6	noise_calib_stim_RIGHT.wav	2	20	blb_dichoticlistening_ka-da.mp3	ka	da	1	left
6.6.1	win	2023-06-12	21:18:10	21:36:28	1094261	64017b47c83e917541f7c592	2	1	main_z	24	advance_on_keypress_ZEE	36	stimuli_target_rectanglediamonds.svg	stimuli_distractor_trianglediamonds.svg	2	yes	57	0	378	6	1	antiphase_hc_iso.wav	2	6	6	noise_calib_stim_RIGHT.wav	2	20	blb_dichoticlistening_ka-da.mp3	ka	da	1	left
6.6.1	win	2023-06-12	21:18:10	21:36:30	1096452	64017b47c83e917541f7c592	2	1	main_z	24	main_z	37	stimuli_distractor_diamondtriangles.svg	stimuli_target_trianglesquares.svg	30	yes	44	1	1153	6	1	antiphase_hc_iso.wav	2	6	6	noise_calib_stim_RIGHT.wav	2	20	blb_dichoticlistening_ka-da.mp3	ka	da	1	left
6.6.1	win	2023-06-12	21:18:10	21:36:30	1096452	64017b47c83e917541f7c592	2	1	main_z	24	advance_on_keypress_ZEE	38	stimuli_distractor_diamondtriangles.svg	stimuli_target_trianglesquares.svg	30	yes	57	0	309	6	1	antiphase_hc_iso.wav	2	6	6	noise_calib_stim_RIGHT.wav	2	20	blb_dichoticlistening_ka-da.mp3	ka	da	1	left
6.6.1	win	2023-06-12	21:18:10	21:36:33	1098728	64017b47c83e917541f7c592	2	1	main_z	24	main_z	39	stimuli_distractor_trianglediamonds.svg	stimuli_target_trianglesquares.svg	26	yes	44	1	1330	6	1	antiphase_hc_iso.wav	2	6	6	noise_calib_stim_RIGHT.wav	2	20	blb_dichoticlistening_ka-da.mp3	ka	da	1	left
6.6.1	win	2023-06-12	21:18:10	21:36:33	1098728	64017b47c83e917541f7c592	2	1	main_z	24	advance_on_keypress_ZEE	40	stimuli_distractor_trianglediamonds.svg	stimuli_target_trianglesquares.svg	26	yes	57	0	395	6	1	antiphase_hc_iso.wav	2	6	6	noise_calib_stim_RIGHT.wav	2	20	blb_dichoticlistening_ka-da.mp3	ka	da	1	left
6.6.1	win	2023-06-12	21:18:10	21:36:36	1101781	64017b47c83e917541f7c592	2	1	main_z	24	main_z	41	stimuli_distractor_trianglediamonds.svg	stimuli_distractor_diamondtriangles.svg	35	no	0	1	2000	6	1	antiphase_hc_iso.wav	2	6	6	noise_calib_stim_RIGHT.wav	2	20	blb_dichoticlistening_ka-da.mp3	ka	da	1	left
6.6.1	win	2023-06-12	21:18:10	21:36:36	1101781	64017b47c83e917541f7c592	2	1	main_z	24	advance_on_keypress_ZEE	42	stimuli_distractor_trianglediamonds.svg	stimuli_distractor_diamondtriangles.svg	35	no	57	0	464	6	1	antiphase_hc_iso.wav	2	6	6	noise_calib_stim_RIGHT.wav	2	20	blb_dichoticlistening_ka-da.mp3	ka	da	1	left
6.6.1	win	2023-06-12	21:18:10	21:36:39	1104897	64017b47c83e917541f7c592	2	1	main_z	24	main_z	43	stimuli_distractor_trianglediamonds.svg	stimuli_distractor_trianglediamonds.svg	33	no	0	1	2000	6	1	antiphase_hc_iso.wav	2	6	6	noise_calib_stim_RIGHT.wav	2	20	blb_dichoticlistening_ka-da.mp3	ka	da	1	left
6.6.1	win	2023-06-12	21:18:10	21:36:39	1104897	64017b47c83e917541f7c592	2	1	main_z	24	advance_on_keypress_ZEE	44	stimuli_distractor_trianglediamonds.svg	stimuli_distractor_trianglediamonds.svg	33	no	57	0	332	6	1	antiphase_hc_iso.wav	2	6	6	noise_calib_stim_RIGHT.wav	2	20	blb_dichoticlistening_ka-da.mp3	ka	da	1	left
6.6.1	win	2023-06-12	21:18:10	21:36:41	1106727	64017b47c83e917541f7c592	2	1	main_z	24	main_z	45	stimuli_distractor_trianglediamonds.svg	stimuli_target_trianglerectangles.svg	25	yes	44	1	848	6	1	antiphase_hc_iso.wav	2	6	6	noise_calib_stim_RIGHT.wav	2	20	blb_dichoticlistening_ka-da.mp3	ka	da	1	left
6.6.1	win	2023-06-12	21:18:10	21:36:41	1106727	64017b47c83e917541f7c592	2	1	main_z	24	advance_on_keypress_ZEE	46	stimuli_distractor_trianglediamonds.svg	stimuli_target_trianglerectangles.svg	25	yes	57	0	380	6	1	antiphase_hc_iso.wav	2	6	6	noise_calib_stim_RIGHT.wav	2	20	blb_dichoticlistening_ka-da.mp3	ka	da	1	left
6.6.1	win	2023-06-12	21:18:10	21:36:42	1108596	64017b47c83e917541f7c592	2	1	main_z	24	main_z	47	stimuli_target_diamondsquares.svg	stimuli_distractor_diamondtriangles.svg	24	yes	44	1	834	6	1	antiphase_hc_iso.wav	2	6	6	noise_calib_stim_RIGHT.wav	2	20	blb_dichoticlistening_ka-da.mp3	ka	da	1	left
6.6.1	win	2023-06-12	21:18:10	21:36:42	1108596	64017b47c83e917541f7c592	2	1	main_z	24	advance_on_keypress_ZEE	48	stimuli_target_diamondsquares.svg	stimuli_distractor_diamondtriangles.svg	24	yes	57	0	329	6	1	antiphase_hc_iso.wav	2	6	6	noise_calib_stim_RIGHT.wav	2	20	blb_dichoticlistening_ka-da.mp3	ka	da	1	left
6.6.1	win	2023-06-12	21:18:10	21:36:44	1110381	64017b47c83e917541f7c592	2	1	main_z	24	main_z	49	stimuli_target_trianglerectangles.svg	stimuli_distractor_diamondtriangles.svg	21	yes	44	1	803	6	1	antiphase_hc_iso.wav	2	6	6	noise_calib_stim_RIGHT.wav	2	20	blb_dichoticlistening_ka-da.mp3	ka	da	1	left
6.6.1	win	2023-06-12	21:18:10	21:36:44	1110381	64017b47c83e917541f7c592	2	1	main_z	24	advance_on_keypress_ZEE	50	stimuli_target_trianglerectangles.svg	stimuli_distractor_diamondtriangles.svg	21	yes	57	0	438	6	1	antiphase_hc_iso.wav	2	6	6	noise_calib_stim_RIGHT.wav	2	20	blb_dichoticlistening_ka-da.mp3	ka	da	1	left
6.6.1	win	2023-06-12	21:18:10	21:36:47	1113461	64017b47c83e917541f7c592	2	1	main_z	24	main_z	51	stimuli_distractor_diamondtriangles.svg	stimuli_distractor_diamondtriangles.svg	40	no	0	1	2000	6	1	antiphase_hc_iso.wav	2	6	6	noise_calib_stim_RIGHT.wav	2	20	blb_dichoticlistening_ka-da.mp3	ka	da	1	left
6.6.1	win	2023-06-12	21:18:10	21:36:47	1113461	64017b47c83e917541f7c592	2	1	main_z	24	advance_on_keypress_ZEE	52	stimuli_distractor_diamondtriangles.svg	stimuli_distractor_diamondtriangles.svg	40	no	57	0	606	6	1	antiphase_hc_iso.wav	2	6	6	noise_calib_stim_RIGHT.wav	2	20	blb_dichoticlistening_ka-da.mp3	ka	da	1	left
6.6.1	win	2023-06-12	21:18:10	21:36:49	1115173	64017b47c83e917541f7c592	2	1	main_z	24	main_z	53	stimuli_distractor_diamondtriangles.svg	stimuli_target_rectanglediamonds.svg	14	yes	44	1	463	6	1	antiphase_hc_iso.wav	2	6	6	noise_calib_stim_RIGHT.wav	2	20	blb_dichoticlistening_ka-da.mp3	ka	da	1	left
6.6.1	win	2023-06-12	21:18:10	21:36:49	1115173	64017b47c83e917541f7c592	2	1	main_z	24	advance_on_keypress_ZEE	54	stimuli_distractor_diamondtriangles.svg	stimuli_target_rectanglediamonds.svg	14	yes	57	0	348	6	1	antiphase_hc_iso.wav	2	6	6	noise_calib_stim_RIGHT.wav	2	20	blb_dichoticlistening_ka-da.mp3	ka	da	1	left
6.6.1	win	2023-06-12	21:18:10	21:36:51	1117249	64017b47c83e917541f7c592	2	1	main_z	24	main_z	55	stimuli_target_trianglesquares.svg	stimuli_distractor_diamondtriangles.svg	22	yes	44	1	1071	6	1	antiphase_hc_iso.wav	2	6	6	noise_calib_stim_RIGHT.wav	2	20	blb_dichoticlistening_ka-da.mp3	ka	da	1	left
6.6.1	win	2023-06-12	21:18:10	21:36:51	1117249	64017b47c83e917541f7c592	2	1	main_z	24	advance_on_keypress_ZEE	56	stimuli_target_trianglesquares.svg	stimuli_distractor_diamondtriangles.svg	22	yes	57	0	336	6	1	antiphase_hc_iso.wav	2	6	6	noise_calib_stim_RIGHT.wav	2	20	blb_dichoticlistening_ka-da.mp3	ka	da	1	left
6.6.1	win	2023-06-12	21:18:10	21:36:53	1119135	64017b47c83e917541f7c592	2	1	main_z	24	main_z	57	stimuli_target_squaretriangles.svg	stimuli_distractor_trianglediamonds.svg	3	yes	44	1	909	6	1	antiphase_hc_iso.wav	2	6	6	noise_calib_stim_RIGHT.wav	2	20	blb_dichoticlistening_ka-da.mp3	ka	da	1	left
6.6.1	win	2023-06-12	21:18:10	21:36:53	1119135	64017b47c83e917541f7c592	2	1	main_z	24	advance_on_keypress_ZEE	58	stimuli_target_squaretriangles.svg	stimuli_distractor_trianglediamonds.svg	3	yes	57	0	295	6	1	antiphase_hc_iso.wav	2	6	6	noise_calib_stim_RIGHT.wav	2	20	blb_dichoticlistening_ka-da.mp3	ka	da	1	left
6.6.1	win	2023-06-12	21:18:10	21:36:55	1120923	64017b47c83e917541f7c592	2	1	main_z	24	main_z	59	stimuli_distractor_trianglediamonds.svg	stimuli_target_squaretriangles.svg	11	yes	44	1	848	6	1	antiphase_hc_iso.wav	2	6	6	noise_calib_stim_RIGHT.wav	2	20	blb_dichoticlistening_ka-da.mp3	ka	da	1	left
6.6.1	win	2023-06-12	21:18:10	21:36:55	1120923	64017b47c83e917541f7c592	2	1	main_z	24	advance_on_keypress_ZEE	60	stimuli_distractor_trianglediamonds.svg	stimuli_target_squaretriangles.svg	11	yes	57	0	308	6	1	antiphase_hc_iso.wav	2	6	6	noise_calib_stim_RIGHT.wav	2	20	blb_dichoticlistening_ka-da.mp3	ka	da	1	left
6.6.1	win	2023-06-12	21:18:10	21:36:56	1122583	64017b47c83e917541f7c592	2	1	main_z	24	main_z	61	stimuli_distractor_diamondtriangles.svg	stimuli_target_squarediamonds.svg	16	yes	44	1	708	6	1	antiphase_hc_iso.wav	2	6	6	noise_calib_stim_RIGHT.wav	2	20	blb_dichoticlistening_ka-da.mp3	ka	da	1	left
6.6.1	win	2023-06-12	21:18:10	21:36:56	1122583	64017b47c83e917541f7c592	2	1	main_z	24	advance_on_keypress_ZEE	62	stimuli_distractor_diamondtriangles.svg	stimuli_target_squarediamonds.svg	16	yes	57	0	311	6	1	antiphase_hc_iso.wav	2	6	6	noise_calib_stim_RIGHT.wav	2	20	blb_dichoticlistening_ka-da.mp3	ka	da	1	left
6.6.1	win	2023-06-12	21:18:10	21:36:59	1125524	64017b47c83e917541f7c592	2	1	main_z	24	main_z	63	stimuli_distractor_diamondtriangles.svg	stimuli_distractor_trianglediamonds.svg	37	no	0	1	2000	6	1	antiphase_hc_iso.wav	2	6	6	noise_calib_stim_RIGHT.wav	2	20	blb_dichoticlistening_ka-da.mp3	ka	da	1	left
6.6.1	win	2023-06-12	21:18:10	21:36:59	1125524	64017b47c83e917541f7c592	2	1	main_z	24	advance_on_keypress_ZEE	64	stimuli_distractor_diamondtriangles.svg	stimuli_distractor_trianglediamonds.svg	37	no	57	0	682	6	1	antiphase_hc_iso.wav	2	6	6	noise_calib_stim_RIGHT.wav	2	20	blb_dichoticlistening_ka-da.mp3	ka	da	1	left
6.6.1	win	2023-06-12	21:18:10	21:37:03	1128857	64017b47c83e917541f7c592	2	1	main_z	24	main_z	65	stimuli_target_squaretriangles.svg	stimuli_distractor_diamondtriangles.svg	7	yes	0	0	2000	6	1	antiphase_hc_iso.wav	2	6	6	noise_calib_stim_RIGHT.wav	2	20	blb_dichoticlistening_ka-da.mp3	ka	da	1	left
6.6.1	win	2023-06-12	21:18:10	21:37:03	1128857	64017b47c83e917541f7c592	2	1	main_z	24	advance_on_keypress_ZEE	66	stimuli_target_squaretriangles.svg	stimuli_distractor_diamondtriangles.svg	7	yes	57	0	451	6	1	antiphase_hc_iso.wav	2	6	6	noise_calib_stim_RIGHT.wav	2	20	blb_dichoticlistening_ka-da.mp3	ka	da	1	left
6.6.1	win	2023-06-12	21:18:10	21:37:06	1131956	64017b47c83e917541f7c592	2	1	main_z	24	main_z	67	stimuli_distractor_trianglediamonds.svg	stimuli_distractor_diamondtriangles.svg	36	no	0	1	2000	6	1	antiphase_hc_iso.wav	2	6	6	noise_calib_stim_RIGHT.wav	2	20	blb_dichoticlistening_ka-da.mp3	ka	da	1	left
6.6.1	win	2023-06-12	21:18:10	21:37:06	1131956	64017b47c83e917541f7c592	2	1	main_z	24	advance_on_keypress_ZEE	68	stimuli_distractor_trianglediamonds.svg	stimuli_distractor_diamondtriangles.svg	36	no	57	0	414	6	1	antiphase_hc_iso.wav	2	6	6	noise_calib_stim_RIGHT.wav	2	20	blb_dichoticlistening_ka-da.mp3	ka	da	1	left
6.6.1	win	2023-06-12	21:18:10	21:37:08	1134033	64017b47c83e917541f7c592	2	1	main_z	24	main_z	69	stimuli_target_diamondsquares.svg	stimuli_distractor_trianglediamonds.svg	20	yes	44	1	1011	6	1	antiphase_hc_iso.wav	2	6	6	noise_calib_stim_RIGHT.wav	2	20	blb_dichoticlistening_ka-da.mp3	ka	da	1	left
6.6.1	win	2023-06-12	21:18:10	21:37:08	1134033	64017b47c83e917541f7c592	2	1	main_z	24	advance_on_keypress_ZEE	70	stimuli_target_diamondsquares.svg	stimuli_distractor_trianglediamonds.svg	20	yes	57	0	399	6	1	antiphase_hc_iso.wav	2	6	6	noise_calib_stim_RIGHT.wav	2	20	blb_dichoticlistening_ka-da.mp3	ka	da	1	left
6.6.1	win	2023-06-12	21:18:10	21:37:10	1135764	64017b47c83e917541f7c592	2	1	main_z	24	main_z	71	stimuli_target_squarediamonds.svg	stimuli_distractor_trianglediamonds.svg	4	yes	44	1	676	6	1	antiphase_hc_iso.wav	2	6	6	noise_calib_stim_RIGHT.wav	2	20	blb_dichoticlistening_ka-da.mp3	ka	da	1	left
6.6.1	win	2023-06-12	21:18:10	21:37:10	1135764	64017b47c83e917541f7c592	2	1	main_z	24	advance_on_keypress_ZEE	72	stimuli_target_squarediamonds.svg	stimuli_distractor_trianglediamonds.svg	4	yes	57	0	293	6	1	antiphase_hc_iso.wav	2	6	6	noise_calib_stim_RIGHT.wav	2	20	blb_dichoticlistening_ka-da.mp3	ka	da	1	left
6.6.1	win	2023-06-12	21:18:10	21:37:11	1137648	64017b47c83e917541f7c592	2	1	main_z	24	main_z	73	stimuli_target_trianglesquares.svg	stimuli_distractor_trianglediamonds.svg	18	yes	44	1	961	6	1	antiphase_hc_iso.wav	2	6	6	noise_calib_stim_RIGHT.wav	2	20	blb_dichoticlistening_ka-da.mp3	ka	da	1	left
6.6.1	win	2023-06-12	21:18:10	21:37:11	1137648	64017b47c83e917541f7c592	2	1	main_z	24	advance_on_keypress_ZEE	74	stimuli_target_trianglesquares.svg	stimuli_distractor_trianglediamonds.svg	18	yes	57	0	232	6	1	antiphase_hc_iso.wav	2	6	6	noise_calib_stim_RIGHT.wav	2	20	blb_dichoticlistening_ka-da.mp3	ka	da	1	left
6.6.1	win	2023-06-12	21:18:10	21:37:13	1139625	64017b47c83e917541f7c592	2	1	main_z	24	main_z	75	stimuli_distractor_trianglediamonds.svg	stimuli_target_diamondrectangles.svg	27	yes	44	1	1087	6	1	antiphase_hc_iso.wav	2	6	6	noise_calib_stim_RIGHT.wav	2	20	blb_dichoticlistening_ka-da.mp3	ka	da	1	left
6.6.1	win	2023-06-12	21:18:10	21:37:13	1139625	64017b47c83e917541f7c592	2	1	main_z	24	advance_on_keypress_ZEE	76	stimuli_distractor_trianglediamonds.svg	stimuli_target_diamondrectangles.svg	27	yes	57	0	255	6	1	antiphase_hc_iso.wav	2	6	6	noise_calib_stim_RIGHT.wav	2	20	blb_dichoticlistening_ka-da.mp3	ka	da	1	left
6.6.1	win	2023-06-12	21:18:10	21:37:16	1142519	64017b47c83e917541f7c592	2	1	main_z	24	main_z	77	stimuli_target_rectangletriangles.svg	stimuli_distractor_diamondtriangles.svg	5	yes	0	0	2000	6	1	antiphase_hc_iso.wav	2	6	6	noise_calib_stim_RIGHT.wav	2	20	blb_dichoticlistening_ka-da.mp3	ka	da	1	left
6.6.1	win	2023-06-12	21:18:10	21:37:16	1142519	64017b47c83e917541f7c592	2	1	main_z	24	advance_on_keypress_ZEE	78	stimuli_target_rectangletriangles.svg	stimuli_distractor_diamondtriangles.svg	5	yes	57	0	332	6	1	antiphase_hc_iso.wav	2	6	6	noise_calib_stim_RIGHT.wav	2	20	blb_dichoticlistening_ka-da.mp3	ka	da	1	left
6.6.1	win	2023-06-12	21:18:10	21:37:18	1144232	64017b47c83e917541f7c592	2	1	main_z	24	main_z	79	stimuli_target_rectanglediamonds.svg	stimuli_distractor_diamondtriangles.svg	6	yes	44	1	730	6	1	antiphase_hc_iso.wav	2	6	6	noise_calib_stim_RIGHT.wav	2	20	blb_dichoticlistening_ka-da.mp3	ka	da	1	left
6.6.1	win	2023-06-12	21:18:10	21:37:18	1144232	64017b47c83e917541f7c592	2	1	main_z	24	advance_on_keypress_ZEE	80	stimuli_target_rectanglediamonds.svg	stimuli_distractor_diamondtriangles.svg	6	yes	57	0	295	6	1	antiphase_hc_iso.wav	2	6	6	noise_calib_stim_RIGHT.wav	2	20	blb_dichoticlistening_ka-da.mp3	ka	da	1	left
6.6.1	win	2023-06-12	21:18:10	21:37:20	1146152	64017b47c83e917541f7c592	2	1	main_z	24	main_z	81	stimuli_distractor_diamondtriangles.svg	stimuli_target_trianglesquares.svg	30	yes	44	1	968	6	1	antiphase_hc_iso.wav	2	6	6	noise_calib_stim_RIGHT.wav	2	20	blb_dichoticlistening_ka-da.mp3	ka	da	1	left
6.6.1	win	2023-06-12	21:18:10	21:37:20	1146152	64017b47c83e917541f7c592	2	1	main_z	24	advance_on_keypress_ZEE	82	stimuli_distractor_diamondtriangles.svg	stimuli_target_trianglesquares.svg	30	yes	57	0	310	6	1	antiphase_hc_iso.wav	2	6	6	noise_calib_stim_RIGHT.wav	2	20	blb_dichoticlistening_ka-da.mp3	ka	da	1	left
6.6.1	win	2023-06-12	21:18:10	21:37:23	1149101	64017b47c83e917541f7c592	2	1	main_z	24	main_z	83	stimuli_distractor_diamondtriangles.svg	stimuli_distractor_diamondtriangles.svg	39	no	0	1	2000	6	1	antiphase_hc_iso.wav	2	6	6	noise_calib_stim_RIGHT.wav	2	20	blb_dichoticlistening_ka-da.mp3	ka	da	1	left
6.6.1	win	2023-06-12	21:18:10	21:37:23	1149101	64017b47c83e917541f7c592	2	1	main_z	24	advance_on_keypress_ZEE	84	stimuli_distractor_diamondtriangles.svg	stimuli_distractor_diamondtriangles.svg	39	no	57	0	367	6	1	antiphase_hc_iso.wav	2	6	6	noise_calib_stim_RIGHT.wav	2	20	blb_dichoticlistening_ka-da.mp3	ka	da	1	left
6.6.1	win	2023-06-12	21:18:10	21:37:25	1150880	64017b47c83e917541f7c592	2	1	main_z	24	main_z	85	stimuli_target_squaretriangles.svg	stimuli_distractor_trianglediamonds.svg	3	yes	44	1	763	6	1	antiphase_hc_iso.wav	2	6	6	noise_calib_stim_RIGHT.wav	2	20	blb_dichoticlistening_ka-da.mp3	ka	da	1	left
6.6.1	win	2023-06-12	21:18:10	21:37:25	1150880	64017b47c83e917541f7c592	2	1	main_z	24	advance_on_keypress_ZEE	86	stimuli_target_squaretriangles.svg	stimuli_distractor_trianglediamonds.svg	3	yes	57	0	298	6	1	antiphase_hc_iso.wav	2	6	6	noise_calib_stim_RIGHT.wav	2	20	blb_dichoticlistening_ka-da.mp3	ka	da	1	left
6.6.1	win	2023-06-12	21:18:10	21:37:26	1152534	64017b47c83e917541f7c592	2	1	main_z	24	main_z	87	stimuli_distractor_diamondtriangles.svg	stimuli_target_rectangletriangles.svg	13	yes	44	1	701	6	1	antiphase_hc_iso.wav	2	6	6	noise_calib_stim_RIGHT.wav	2	20	blb_dichoticlistening_ka-da.mp3	ka	da	1	left
6.6.1	win	2023-06-12	21:18:10	21:37:26	1152534	64017b47c83e917541f7c592	2	1	main_z	24	advance_on_keypress_ZEE	88	stimuli_distractor_diamondtriangles.svg	stimuli_target_rectangletriangles.svg	13	yes	57	0	294	6	1	antiphase_hc_iso.wav	2	6	6	noise_calib_stim_RIGHT.wav	2	20	blb_dichoticlistening_ka-da.mp3	ka	da	1	left
6.6.1	win	2023-06-12	21:18:10	21:37:28	1154159	64017b47c83e917541f7c592	2	1	main_z	24	main_z	89	stimuli_target_rectangletriangles.svg	stimuli_distractor_trianglediamonds.svg	1	yes	44	1	676	6	1	antiphase_hc_iso.wav	2	6	6	noise_calib_stim_RIGHT.wav	2	20	blb_dichoticlistening_ka-da.mp3	ka	da	1	left
6.6.1	win	2023-06-12	21:18:10	21:37:28	1154159	64017b47c83e917541f7c592	2	1	main_z	24	advance_on_keypress_ZEE	90	stimuli_target_rectangletriangles.svg	stimuli_distractor_trianglediamonds.svg	1	yes	57	0	321	6	1	antiphase_hc_iso.wav	2	6	6	noise_calib_stim_RIGHT.wav	2	20	blb_dichoticlistening_ka-da.mp3	ka	da	1	left
6.6.1	win	2023-06-12	21:18:10	21:37:30	1155880	64017b47c83e917541f7c592	2	1	main_z	24	main_z	91	stimuli_distractor_diamondtriangles.svg	stimuli_target_rectanglediamonds.svg	14	yes	44	1	765	6	1	antiphase_hc_iso.wav	2	6	6	noise_calib_stim_RIGHT.wav	2	20	blb_dichoticlistening_ka-da.mp3	ka	da	1	left
6.6.1	win	2023-06-12	21:18:10	21:37:30	1155880	64017b47c83e917541f7c592	2	1	main_z	24	advance_on_keypress_ZEE	92	stimuli_distractor_diamondtriangles.svg	stimuli_target_rectanglediamonds.svg	14	yes	57	0	290	6	1	antiphase_hc_iso.wav	2	6	6	noise_calib_stim_RIGHT.wav	2	20	blb_dichoticlistening_ka-da.mp3	ka	da	1	left
6.6.1	win	2023-06-12	21:18:10	21:37:32	1157833	64017b47c83e917541f7c592	2	1	main_z	24	main_z	93	stimuli_distractor_trianglediamonds.svg	stimuli_target_diamondrectangles.svg	27	yes	44	1	1018	6	1	antiphase_hc_iso.wav	2	6	6	noise_calib_stim_RIGHT.wav	2	20	blb_dichoticlistening_ka-da.mp3	ka	da	1	left
6.6.1	win	2023-06-12	21:18:10	21:37:32	1157833	64017b47c83e917541f7c592	2	1	main_z	24	advance_on_keypress_ZEE	94	stimuli_distractor_trianglediamonds.svg	stimuli_target_diamondrectangles.svg	27	yes	57	0	376	6	1	antiphase_hc_iso.wav	2	6	6	noise_calib_stim_RIGHT.wav	2	20	blb_dichoticlistening_ka-da.mp3	ka	da	1	left
6.6.1	win	2023-06-12	21:18:10	21:37:34	1159747	64017b47c83e917541f7c592	2	1	main_z	24	main_z	95	stimuli_target_trianglesquares.svg	stimuli_distractor_trianglediamonds.svg	18	yes	44	1	899	6	1	antiphase_hc_iso.wav	2	6	6	noise_calib_stim_RIGHT.wav	2	20	blb_dichoticlistening_ka-da.mp3	ka	da	1	left
6.6.1	win	2023-06-12	21:18:10	21:37:34	1159747	64017b47c83e917541f7c592	2	1	main_z	24	advance_on_keypress_ZEE	96	stimuli_target_trianglesquares.svg	stimuli_distractor_trianglediamonds.svg	18	yes	57	0	259	6	1	antiphase_hc_iso.wav	2	6	6	noise_calib_stim_RIGHT.wav	2	20	blb_dichoticlistening_ka-da.mp3	ka	da	1	left
6.6.1	win	2023-06-12	21:18:10	21:37:35	1161462	64017b47c83e917541f7c592	2	1	main_z	24	main_z	97	stimuli_target_diamondsquares.svg	stimuli_distractor_trianglediamonds.svg	20	yes	44	1	815	6	1	antiphase_hc_iso.wav	2	6	6	noise_calib_stim_RIGHT.wav	2	20	blb_dichoticlistening_ka-da.mp3	ka	da	1	left
6.6.1	win	2023-06-12	21:18:10	21:37:35	1161462	64017b47c83e917541f7c592	2	1	main_z	24	advance_on_keypress_ZEE	98	stimuli_target_diamondsquares.svg	stimuli_distractor_trianglediamonds.svg	20	yes	57	0	274	6	1	antiphase_hc_iso.wav	2	6	6	noise_calib_stim_RIGHT.wav	2	20	blb_dichoticlistening_ka-da.mp3	ka	da	1	left
6.6.1	win	2023-06-12	21:18:10	21:37:37	1163489	64017b47c83e917541f7c592	2	1	main_z	24	main_z	99	stimuli_distractor_diamondtriangles.svg	stimuli_target_squaretriangles.svg	15	yes	44	1	1110	6	1	antiphase_hc_iso.wav	2	6	6	noise_calib_stim_RIGHT.wav	2	20	blb_dichoticlistening_ka-da.mp3	ka	da	1	left
6.6.1	win	2023-06-12	21:18:10	21:37:37	1163489	64017b47c83e917541f7c592	2	1	main_z	24	advance_on_keypress_ZEE	100	stimuli_distractor_diamondtriangles.svg	stimuli_target_squaretriangles.svg	15	yes	57	0	258	6	1	antiphase_hc_iso.wav	2	6	6	noise_calib_stim_RIGHT.wav	2	20	blb_dichoticlistening_ka-da.mp3	ka	da	1	left
6.6.1	win	2023-06-12	21:18:10	21:37:40	1166379	64017b47c83e917541f7c592	2	1	main_z	24	main_z	101	stimuli_distractor_diamondtriangles.svg	stimuli_distractor_diamondtriangles.svg	40	no	0	1	2000	6	1	antiphase_hc_iso.wav	2	6	6	noise_calib_stim_RIGHT.wav	2	20	blb_dichoticlistening_ka-da.mp3	ka	da	1	left
6.6.1	win	2023-06-12	21:18:10	21:37:40	1166379	64017b47c83e917541f7c592	2	1	main_z	24	advance_on_keypress_ZEE	102	stimuli_distractor_diamondtriangles.svg	stimuli_distractor_diamondtriangles.svg	40	no	57	0	270	6	1	antiphase_hc_iso.wav	2	6	6	noise_calib_stim_RIGHT.wav	2	20	blb_dichoticlistening_ka-da.mp3	ka	da	1	left
6.6.1	win	2023-06-12	21:18:10	21:37:42	1168185	64017b47c83e917541f7c592	2	1	main_z	24	main_z	103	stimuli_target_squaretriangles.svg	stimuli_distractor_diamondtriangles.svg	7	yes	44	1	890	6	1	antiphase_hc_iso.wav	2	6	6	noise_calib_stim_RIGHT.wav	2	20	blb_dichoticlistening_ka-da.mp3	ka	da	1	left
6.6.1	win	2023-06-12	21:18:10	21:37:42	1168185	64017b47c83e917541f7c592	2	1	main_z	24	advance_on_keypress_ZEE	104	stimuli_target_squaretriangles.svg	stimuli_distractor_diamondtriangles.svg	7	yes	57	0	193	6	1	antiphase_hc_iso.wav	2	6	6	noise_calib_stim_RIGHT.wav	2	20	blb_dichoticlistening_ka-da.mp3	ka	da	1	left
6.6.1	win	2023-06-12	21:18:10	21:37:43	1169681	64017b47c83e917541f7c592	2	1	main_z	24	main_z	105	stimuli_target_squarediamonds.svg	stimuli_distractor_diamondtriangles.svg	8	yes	44	1	669	6	1	antiphase_hc_iso.wav	2	6	6	noise_calib_stim_RIGHT.wav	2	20	blb_dichoticlistening_ka-da.mp3	ka	da	1	left
6.6.1	win	2023-06-12	21:18:10	21:37:43	1169681	64017b47c83e917541f7c592	2	1	main_z	24	advance_on_keypress_ZEE	106	stimuli_target_squarediamonds.svg	stimuli_distractor_diamondtriangles.svg	8	yes	57	0	176	6	1	antiphase_hc_iso.wav	2	6	6	noise_calib_stim_RIGHT.wav	2	20	blb_dichoticlistening_ka-da.mp3	ka	da	1	left
6.6.1	win	2023-06-12	21:18:10	21:37:45	1171670	64017b47c83e917541f7c592	2	1	main_z	24	main_z	107	stimuli_distractor_diamondtriangles.svg	stimuli_distractor_trianglediamonds.svg	38	no	44	0	1176	6	1	antiphase_hc_iso.wav	2	6	6	noise_calib_stim_RIGHT.wav	2	20	blb_dichoticlistening_ka-da.mp3	ka	da	1	left
6.6.1	win	2023-06-12	21:18:10	21:37:45	1171670	64017b47c83e917541f7c592	2	1	main_z	24	advance_on_keypress_ZEE	108	stimuli_distractor_diamondtriangles.svg	stimuli_distractor_trianglediamonds.svg	38	no	57	0	148	6	1	antiphase_hc_iso.wav	2	6	6	noise_calib_stim_RIGHT.wav	2	20	blb_dichoticlistening_ka-da.mp3	ka	da	1	left
6.6.1	win	2023-06-12	21:18:10	21:37:47	1173437	64017b47c83e917541f7c592	2	1	main_z	24	main_z	109	stimuli_distractor_trianglediamonds.svg	stimuli_target_squarediamonds.svg	12	yes	44	1	976	6	1	antiphase_hc_iso.wav	2	6	6	noise_calib_stim_RIGHT.wav	2	20	blb_dichoticlistening_ka-da.mp3	ka	da	1	left
6.6.1	win	2023-06-12	21:18:10	21:37:47	1173437	64017b47c83e917541f7c592	2	1	main_z	24	advance_on_keypress_ZEE	110	stimuli_distractor_trianglediamonds.svg	stimuli_target_squarediamonds.svg	12	yes	57	0	189	6	1	antiphase_hc_iso.wav	2	6	6	noise_calib_stim_RIGHT.wav	2	20	blb_dichoticlistening_ka-da.mp3	ka	da	1	left
6.6.1	win	2023-06-12	21:18:10	21:37:50	1176260	64017b47c83e917541f7c592	2	1	main_z	24	main_z	111	stimuli_distractor_diamondtriangles.svg	stimuli_distractor_trianglediamonds.svg	37	no	0	1	2000	6	1	antiphase_hc_iso.wav	2	6	6	noise_calib_stim_RIGHT.wav	2	20	blb_dichoticlistening_ka-da.mp3	ka	da	1	left
6.6.1	win	2023-06-12	21:18:10	21:37:50	1176260	64017b47c83e917541f7c592	2	1	main_z	24	advance_on_keypress_ZEE	112	stimuli_distractor_diamondtriangles.svg	stimuli_distractor_trianglediamonds.svg	37	no	57	0	507	6	1	antiphase_hc_iso.wav	2	6	6	noise_calib_stim_RIGHT.wav	2	20	blb_dichoticlistening_ka-da.mp3	ka	da	1	left
6.6.1	win	2023-06-12	21:18:10	21:37:52	1178283	64017b47c83e917541f7c592	2	1	main_z	24	main_z	113	stimuli_target_trianglerectangles.svg	stimuli_distractor_trianglediamonds.svg	17	yes	44	1	874	6	1	antiphase_hc_iso.wav	2	6	6	noise_calib_stim_RIGHT.wav	2	20	blb_dichoticlistening_ka-da.mp3	ka	da	1	left
6.6.1	win	2023-06-12	21:18:10	21:37:52	1178283	64017b47c83e917541f7c592	2	1	main_z	24	advance_on_keypress_ZEE	114	stimuli_target_trianglerectangles.svg	stimuli_distractor_trianglediamonds.svg	17	yes	57	0	190	6	1	antiphase_hc_iso.wav	2	6	6	noise_calib_stim_RIGHT.wav	2	20	blb_dichoticlistening_ka-da.mp3	ka	da	1	left
6.6.1	win	2023-06-12	21:18:10	21:37:54	1180116	64017b47c83e917541f7c592	2	1	main_z	24	main_z	115	stimuli_distractor_trianglediamonds.svg	stimuli_distractor_trianglediamonds.svg	34	no	44	0	1008	6	1	antiphase_hc_iso.wav	2	6	6	noise_calib_stim_RIGHT.wav	2	20	blb_dichoticlistening_ka-da.mp3	ka	da	1	left
6.6.1	win	2023-06-12	21:18:10	21:37:54	1180116	64017b47c83e917541f7c592	2	1	main_z	24	advance_on_keypress_ZEE	116	stimuli_distractor_trianglediamonds.svg	stimuli_distractor_trianglediamonds.svg	34	no	57	0	161	6	1	antiphase_hc_iso.wav	2	6	6	noise_calib_stim_RIGHT.wav	2	20	blb_dichoticlistening_ka-da.mp3	ka	da	1	left
6.6.1	win	2023-06-12	21:18:10	21:37:56	1181762	64017b47c83e917541f7c592	2	1	main_z	24	main_z	117	stimuli_target_diamondrectangles.svg	stimuli_distractor_diamondtriangles.svg	23	yes	44	1	837	6	1	antiphase_hc_iso.wav	2	6	6	noise_calib_stim_RIGHT.wav	2	20	blb_dichoticlistening_ka-da.mp3	ka	da	1	left
6.6.1	win	2023-06-12	21:18:10	21:37:56	1181762	64017b47c83e917541f7c592	2	1	main_z	24	advance_on_keypress_ZEE	118	stimuli_target_diamondrectangles.svg	stimuli_distractor_diamondtriangles.svg	23	yes	57	0	165	6	1	antiphase_hc_iso.wav	2	6	6	noise_calib_stim_RIGHT.wav	2	20	blb_dichoticlistening_ka-da.mp3	ka	da	1	left
6.6.1	win	2023-06-12	21:18:10	21:37:57	1183508	64017b47c83e917541f7c592	2	1	main_z	24	main_z	119	stimuli_distractor_trianglediamonds.svg	stimuli_target_trianglerectangles.svg	25	yes	44	1	934	6	1	antiphase_hc_iso.wav	2	6	6	noise_calib_stim_RIGHT.wav	2	20	blb_dichoticlistening_ka-da.mp3	ka	da	1	left
6.6.1	win	2023-06-12	21:18:10	21:37:57	1183508	64017b47c83e917541f7c592	2	1	main_z	24	advance_on_keypress_ZEE	120	stimuli_distractor_trianglediamonds.svg	stimuli_target_trianglerectangles.svg	25	yes	57	0	169	6	1	antiphase_hc_iso.wav	2	6	6	noise_calib_stim_RIGHT.wav	2	20	blb_dichoticlistening_ka-da.mp3	ka	da	1	left
6.6.1	win	2023-06-12	21:18:10	21:37:59	1185119	64017b47c83e917541f7c592	2	1	main_z	24	main_z	121	stimuli_distractor_trianglediamonds.svg	stimuli_target_rectangletriangles.svg	9	yes	44	1	795	6	1	antiphase_hc_iso.wav	2	6	6	noise_calib_stim_RIGHT.wav	2	20	blb_dichoticlistening_ka-da.mp3	ka	da	1	left
6.6.1	win	2023-06-12	21:18:10	21:37:59	1185119	64017b47c83e917541f7c592	2	1	main_z	24	advance_on_keypress_ZEE	122	stimuli_distractor_trianglediamonds.svg	stimuli_target_rectangletriangles.svg	9	yes	57	0	266	6	1	antiphase_hc_iso.wav	2	6	6	noise_calib_stim_RIGHT.wav	2	20	blb_dichoticlistening_ka-da.mp3	ka	da	1	left
6.6.1	win	2023-06-12	21:18:10	21:38:01	1186747	64017b47c83e917541f7c592	2	1	main_z	24	main_z	123	stimuli_distractor_diamondtriangles.svg	stimuli_target_squarediamonds.svg	16	yes	44	1	707	6	1	antiphase_hc_iso.wav	2	6	6	noise_calib_stim_RIGHT.wav	2	20	blb_dichoticlistening_ka-da.mp3	ka	da	1	left
6.6.1	win	2023-06-12	21:18:10	21:38:01	1186747	64017b47c83e917541f7c592	2	1	main_z	24	advance_on_keypress_ZEE	124	stimuli_distractor_diamondtriangles.svg	stimuli_target_squarediamonds.svg	16	yes	57	0	277	6	1	antiphase_hc_iso.wav	2	6	6	noise_calib_stim_RIGHT.wav	2	20	blb_dichoticlistening_ka-da.mp3	ka	da	1	left
6.6.1	win	2023-06-12	21:18:10	21:38:02	1188346	64017b47c83e917541f7c592	2	1	main_z	24	main_z	125	stimuli_target_rectanglediamonds.svg	stimuli_distractor_diamondtriangles.svg	6	yes	44	1	690	6	1	antiphase_hc_iso.wav	2	6	6	noise_calib_stim_RIGHT.wav	2	20	blb_dichoticlistening_ka-da.mp3	ka	da	1	left
6.6.1	win	2023-06-12	21:18:10	21:38:02	1188346	64017b47c83e917541f7c592	2	1	main_z	24	advance_on_keypress_ZEE	126	stimuli_target_rectanglediamonds.svg	stimuli_distractor_diamondtriangles.svg	6	yes	57	0	250	6	1	antiphase_hc_iso.wav	2	6	6	noise_calib_stim_RIGHT.wav	2	20	blb_dichoticlistening_ka-da.mp3	ka	da	1	left
6.6.1	win	2023-06-12	21:18:10	21:38:04	1189994	64017b47c83e917541f7c592	2	1	main_z	24	main_z	127	stimuli_target_diamondrectangles.svg	stimuli_distractor_trianglediamonds.svg	19	yes	44	1	756	6	1	antiphase_hc_iso.wav	2	6	6	noise_calib_stim_RIGHT.wav	2	20	blb_dichoticlistening_ka-da.mp3	ka	da	1	left
6.6.1	win	2023-06-12	21:18:10	21:38:04	1189994	64017b47c83e917541f7c592	2	1	main_z	24	advance_on_keypress_ZEE	128	stimuli_target_diamondrectangles.svg	stimuli_distractor_trianglediamonds.svg	19	yes	57	0	277	6	1	antiphase_hc_iso.wav	2	6	6	noise_calib_stim_RIGHT.wav	2	20	blb_dichoticlistening_ka-da.mp3	ka	da	1	left
6.6.1	win	2023-06-12	21:18:10	21:38:05	1191695	64017b47c83e917541f7c592	2	1	main_z	24	main_z	129	stimuli_target_trianglerectangles.svg	stimuli_distractor_diamondtriangles.svg	21	yes	44	1	790	6	1	antiphase_hc_iso.wav	2	6	6	noise_calib_stim_RIGHT.wav	2	20	blb_dichoticlistening_ka-da.mp3	ka	da	1	left
6.6.1	win	2023-06-12	21:18:10	21:38:05	1191695	64017b47c83e917541f7c592	2	1	main_z	24	advance_on_keypress_ZEE	130	stimuli_target_trianglerectangles.svg	stimuli_distractor_diamondtriangles.svg	21	yes	57	0	245	6	1	antiphase_hc_iso.wav	2	6	6	noise_calib_stim_RIGHT.wav	2	20	blb_dichoticlistening_ka-da.mp3	ka	da	1	left
6.6.1	win	2023-06-12	21:18:10	21:38:08	1194086	64017b47c83e917541f7c592	2	1	main_z	24	main_z	131	stimuli_distractor_trianglediamonds.svg	stimuli_target_diamondsquares.svg	28	yes	44	1	1498	6	1	antiphase_hc_iso.wav	2	6	6	noise_calib_stim_RIGHT.wav	2	20	blb_dichoticlistening_ka-da.mp3	ka	da	1	left
6.6.1	win	2023-06-12	21:18:10	21:38:08	1194086	64017b47c83e917541f7c592	2	1	main_z	24	advance_on_keypress_ZEE	132	stimuli_distractor_trianglediamonds.svg	stimuli_target_diamondsquares.svg	28	yes	57	0	153	6	1	antiphase_hc_iso.wav	2	6	6	noise_calib_stim_RIGHT.wav	2	20	blb_dichoticlistening_ka-da.mp3	ka	da	1	left
6.6.1	win	2023-06-12	21:18:10	21:38:11	1196887	64017b47c83e917541f7c592	2	1	main_z	24	main_z	133	stimuli_target_rectangletriangles.svg	stimuli_distractor_diamondtriangles.svg	5	yes	0	0	2000	6	1	antiphase_hc_iso.wav	2	6	6	noise_calib_stim_RIGHT.wav	2	20	blb_dichoticlistening_ka-da.mp3	ka	da	1	left
6.6.1	win	2023-06-12	21:18:10	21:38:11	1196887	64017b47c83e917541f7c592	2	1	main_z	24	advance_on_keypress_ZEE	134	stimuli_target_rectangletriangles.svg	stimuli_distractor_diamondtriangles.svg	5	yes	57	0	372	6	1	antiphase_hc_iso.wav	2	6	6	noise_calib_stim_RIGHT.wav	2	20	blb_dichoticlistening_ka-da.mp3	ka	da	1	left
6.6.1	win	2023-06-12	21:18:10	21:38:13	1198728	64017b47c83e917541f7c592	2	1	main_z	24	main_z	135	stimuli_target_trianglesquares.svg	stimuli_distractor_diamondtriangles.svg	22	yes	44	1	825	6	1	antiphase_hc_iso.wav	2	6	6	noise_calib_stim_RIGHT.wav	2	20	blb_dichoticlistening_ka-da.mp3	ka	da	1	left
6.6.1	win	2023-06-12	21:18:10	21:38:13	1198728	64017b47c83e917541f7c592	2	1	main_z	24	advance_on_keypress_ZEE	136	stimuli_target_trianglesquares.svg	stimuli_distractor_diamondtriangles.svg	22	yes	57	0	196	6	1	antiphase_hc_iso.wav	2	6	6	noise_calib_stim_RIGHT.wav	2	20	blb_dichoticlistening_ka-da.mp3	ka	da	1	left
6.6.1	win	2023-06-12	21:18:10	21:38:14	1200458	64017b47c83e917541f7c592	2	1	main_z	24	main_z	137	stimuli_distractor_trianglediamonds.svg	stimuli_target_rectanglediamonds.svg	10	yes	44	1	887	6	1	antiphase_hc_iso.wav	2	6	6	noise_calib_stim_RIGHT.wav	2	20	blb_dichoticlistening_ka-da.mp3	ka	da	1	left
6.6.1	win	2023-06-12	21:18:10	21:38:14	1200458	64017b47c83e917541f7c592	2	1	main_z	24	advance_on_keypress_ZEE	138	stimuli_distractor_trianglediamonds.svg	stimuli_target_rectanglediamonds.svg	10	yes	57	0	206	6	1	antiphase_hc_iso.wav	2	6	6	noise_calib_stim_RIGHT.wav	2	20	blb_dichoticlistening_ka-da.mp3	ka	da	1	left
6.6.1	win	2023-06-12	21:18:10	21:38:16	1202642	64017b47c83e917541f7c592	2	1	main_z	24	main_z	139	stimuli_distractor_diamondtriangles.svg	stimuli_target_trianglerectangles.svg	29	yes	44	1	1340	6	1	antiphase_hc_iso.wav	2	6	6	noise_calib_stim_RIGHT.wav	2	20	blb_dichoticlistening_ka-da.mp3	ka	da	1	left
6.6.1	win	2023-06-12	21:18:10	21:38:16	1202642	64017b47c83e917541f7c592	2	1	main_z	24	advance_on_keypress_ZEE	140	stimuli_distractor_diamondtriangles.svg	stimuli_target_trianglerectangles.svg	29	yes	57	0	198	6	1	antiphase_hc_iso.wav	2	6	6	noise_calib_stim_RIGHT.wav	2	20	blb_dichoticlistening_ka-da.mp3	ka	da	1	left
6.6.1	win	2023-06-12	21:18:10	21:38:19	1205485	64017b47c83e917541f7c592	2	1	main_z	24	main_z	141	stimuli_distractor_trianglediamonds.svg	stimuli_distractor_trianglediamonds.svg	33	no	0	1	2000	6	1	antiphase_hc_iso.wav	2	6	6	noise_calib_stim_RIGHT.wav	2	20	blb_dichoticlistening_ka-da.mp3	ka	da	1	left
6.6.1	win	2023-06-12	21:18:10	21:38:19	1205485	64017b47c83e917541f7c592	2	1	main_z	24	advance_on_keypress_ZEE	142	stimuli_distractor_trianglediamonds.svg	stimuli_distractor_trianglediamonds.svg	33	no	57	0	582	6	1	antiphase_hc_iso.wav	2	6	6	noise_calib_stim_RIGHT.wav	2	20	blb_dichoticlistening_ka-da.mp3	ka	da	1	left
6.6.1	win	2023-06-12	21:18:10	21:38:23	1208717	64017b47c83e917541f7c592	2	1	main_z	24	main_z	143	stimuli_distractor_trianglediamonds.svg	stimuli_distractor_diamondtriangles.svg	35	no	0	1	2000	6	1	antiphase_hc_iso.wav	2	6	6	noise_calib_stim_RIGHT.wav	2	20	blb_dichoticlistening_ka-da.mp3	ka	da	1	left
6.6.1	win	2023-06-12	21:18:10	21:38:23	1208717	64017b47c83e917541f7c592	2	1	main_z	24	advance_on_keypress_ZEE	144	stimuli_distractor_trianglediamonds.svg	stimuli_distractor_diamondtriangles.svg	35	no	57	0	484	6	1	antiphase_hc_iso.wav	2	6	6	noise_calib_stim_RIGHT.wav	2	20	blb_dichoticlistening_ka-da.mp3	ka	da	1	left
6.6.1	win	2023-06-12	21:18:10	21:38:25	1210965	64017b47c83e917541f7c592	2	1	main_z	24	main_z	145	stimuli_distractor_diamondtriangles.svg	stimuli_target_diamondsquares.svg	32	yes	44	1	1115	6	1	antiphase_hc_iso.wav	2	6	6	noise_calib_stim_RIGHT.wav	2	20	blb_dichoticlistening_ka-da.mp3	ka	da	1	left
6.6.1	win	2023-06-12	21:18:10	21:38:25	1210965	64017b47c83e917541f7c592	2	1	main_z	24	advance_on_keypress_ZEE	146	stimuli_distractor_diamondtriangles.svg	stimuli_target_diamondsquares.svg	32	yes	57	0	168	6	1	antiphase_hc_iso.wav	2	6	6	noise_calib_stim_RIGHT.wav	2	20	blb_dichoticlistening_ka-da.mp3	ka	da	1	left
6.6.1	win	2023-06-12	21:18:10	21:38:27	1212711	64017b47c83e917541f7c592	2	1	main_z	24	main_z	147	stimuli_target_diamondsquares.svg	stimuli_distractor_diamondtriangles.svg	24	yes	44	1	928	6	1	antiphase_hc_iso.wav	2	6	6	noise_calib_stim_RIGHT.wav	2	20	blb_dichoticlistening_ka-da.mp3	ka	da	1	left
6.6.1	win	2023-06-12	21:18:10	21:38:27	1212711	64017b47c83e917541f7c592	2	1	main_z	24	advance_on_keypress_ZEE	148	stimuli_target_diamondsquares.svg	stimuli_distractor_diamondtriangles.svg	24	yes	57	0	179	6	1	antiphase_hc_iso.wav	2	6	6	noise_calib_stim_RIGHT.wav	2	20	blb_dichoticlistening_ka-da.mp3	ka	da	1	left
6.6.1	win	2023-06-12	21:18:10	21:38:28	1214542	64017b47c83e917541f7c592	2	1	main_z	24	main_z	149	stimuli_distractor_trianglediamonds.svg	stimuli_target_squaretriangles.svg	11	yes	44	1	993	6	1	antiphase_hc_iso.wav	2	6	6	noise_calib_stim_RIGHT.wav	2	20	blb_dichoticlistening_ka-da.mp3	ka	da	1	left
6.6.1	win	2023-06-12	21:18:10	21:38:28	1214542	64017b47c83e917541f7c592	2	1	main_z	24	advance_on_keypress_ZEE	150	stimuli_distractor_trianglediamonds.svg	stimuli_target_squaretriangles.svg	11	yes	57	0	171	6	1	antiphase_hc_iso.wav	2	6	6	noise_calib_stim_RIGHT.wav	2	20	blb_dichoticlistening_ka-da.mp3	ka	da	1	left
6.6.1	win	2023-06-12	21:18:10	21:38:30	1216560	64017b47c83e917541f7c592	2	1	main_z	24	main_z	151	stimuli_target_squarediamonds.svg	stimuli_distractor_trianglediamonds.svg	4	yes	44	1	1212	6	1	antiphase_hc_iso.wav	2	6	6	noise_calib_stim_RIGHT.wav	2	20	blb_dichoticlistening_ka-da.mp3	ka	da	1	left
6.6.1	win	2023-06-12	21:18:10	21:38:30	1216560	64017b47c83e917541f7c592	2	1	main_z	24	advance_on_keypress_ZEE	152	stimuli_target_squarediamonds.svg	stimuli_distractor_trianglediamonds.svg	4	yes	57	0	177	6	1	antiphase_hc_iso.wav	2	6	6	noise_calib_stim_RIGHT.wav	2	20	blb_dichoticlistening_ka-da.mp3	ka	da	1	left
6.6.1	win	2023-06-12	21:18:10	21:38:32	1218163	64017b47c83e917541f7c592	2	1	main_z	24	main_z	153	stimuli_target_rectanglediamonds.svg	stimuli_distractor_trianglediamonds.svg	2	yes	44	1	782	6	1	antiphase_hc_iso.wav	2	6	6	noise_calib_stim_RIGHT.wav	2	20	blb_dichoticlistening_ka-da.mp3	ka	da	1	left
6.6.1	win	2023-06-12	21:18:10	21:38:32	1218163	64017b47c83e917541f7c592	2	1	main_z	24	advance_on_keypress_ZEE	154	stimuli_target_rectanglediamonds.svg	stimuli_distractor_trianglediamonds.svg	2	yes	57	0	154	6	1	antiphase_hc_iso.wav	2	6	6	noise_calib_stim_RIGHT.wav	2	20	blb_dichoticlistening_ka-da.mp3	ka	da	1	left
6.6.1	win	2023-06-12	21:18:10	21:38:34	1219808	64017b47c83e917541f7c592	2	1	main_z	24	main_z	155	stimuli_distractor_trianglediamonds.svg	stimuli_target_trianglesquares.svg	26	yes	44	1	844	6	1	antiphase_hc_iso.wav	2	6	6	noise_calib_stim_RIGHT.wav	2	20	blb_dichoticlistening_ka-da.mp3	ka	da	1	left
6.6.1	win	2023-06-12	21:18:10	21:38:34	1219808	64017b47c83e917541f7c592	2	1	main_z	24	advance_on_keypress_ZEE	156	stimuli_distractor_trianglediamonds.svg	stimuli_target_trianglesquares.svg	26	yes	57	0	163	6	1	antiphase_hc_iso.wav	2	6	6	noise_calib_stim_RIGHT.wav	2	20	blb_dichoticlistening_ka-da.mp3	ka	da	1	left
6.6.1	win	2023-06-12	21:18:10	21:38:36	1222613	64017b47c83e917541f7c592	2	1	main_z	24	main_z	157	stimuli_distractor_trianglediamonds.svg	stimuli_distractor_diamondtriangles.svg	36	no	0	1	2000	6	1	antiphase_hc_iso.wav	2	6	6	noise_calib_stim_RIGHT.wav	2	20	blb_dichoticlistening_ka-da.mp3	ka	da	1	left
6.6.1	win	2023-06-12	21:18:10	21:38:36	1222613	64017b47c83e917541f7c592	2	1	main_z	24	advance_on_keypress_ZEE	158	stimuli_distractor_trianglediamonds.svg	stimuli_distractor_diamondtriangles.svg	36	no	57	0	462	6	1	antiphase_hc_iso.wav	2	6	6	noise_calib_stim_RIGHT.wav	2	20	blb_dichoticlistening_ka-da.mp3	ka	da	1	left
6.6.1	win	2023-06-12	21:18:10	21:38:38	1224652	64017b47c83e917541f7c592	2	1	main_z	24	main_z	159	stimuli_distractor_diamondtriangles.svg	stimuli_target_diamondrectangles.svg	31	yes	44	1	923	6	1	antiphase_hc_iso.wav	2	6	6	noise_calib_stim_RIGHT.wav	2	20	blb_dichoticlistening_ka-da.mp3	ka	da	1	left
6.6.1	win	2023-06-12	21:18:10	21:38:38	1224652	64017b47c83e917541f7c592	2	1	main_z	24	advance_on_keypress_ZEE	160	stimuli_distractor_diamondtriangles.svg	stimuli_target_diamondrectangles.svg	31	yes	57	0	150	6	1	antiphase_hc_iso.wav	2	6	6	noise_calib_stim_RIGHT.wav	2	20	blb_dichoticlistening_ka-da.mp3	ka	da	1	left
6.6.1	win	2023-06-12	21:18:10	21:39:08	1254029	64017b47c83e917541f7c592	2	1	practice_slash	26	practice_slash	1	stimuli_distractor_diamondtriangles.svg	stimuli_target_diamondrectangles.svg	8	yes	53	1	690	6	1	antiphase_hc_iso.wav	2	6	6	noise_calib_stim_RIGHT.wav	2	20	blb_dichoticlistening_ka-da.mp3	ka	da	1	left
6.6.1	win	2023-06-12	21:18:10	21:39:08	1254029	64017b47c83e917541f7c592	2	1	practice_slash	26	advance_on_keypress_SLASH	2	stimuli_distractor_diamondtriangles.svg	stimuli_target_diamondrectangles.svg	8	yes	57	0	652	6	1	antiphase_hc_iso.wav	2	6	6	noise_calib_stim_RIGHT.wav	2	20	blb_dichoticlistening_ka-da.mp3	ka	da	1	left
6.6.1	win	2023-06-12	21:18:10	21:39:11	1256984	64017b47c83e917541f7c592	2	1	practice_slash	26	practice_slash	3	stimuli_target_diamondsquares.svg	stimuli_distractor_trianglediamonds.svg	6	yes	53	1	645	6	1	antiphase_hc_iso.wav	2	6	6	noise_calib_stim_RIGHT.wav	2	20	blb_dichoticlistening_ka-da.mp3	ka	da	1	left
6.6.1	win	2023-06-12	21:18:10	21:39:11	1256984	64017b47c83e917541f7c592	2	1	practice_slash	26	advance_on_keypress_SLASH	4	stimuli_target_diamondsquares.svg	stimuli_distractor_trianglediamonds.svg	6	yes	57	0	307	6	1	antiphase_hc_iso.wav	2	6	6	noise_calib_stim_RIGHT.wav	2	20	blb_dichoticlistening_ka-da.mp3	ka	da	1	left
6.6.1	win	2023-06-12	21:18:10	21:39:15	1260937	64017b47c83e917541f7c592	2	1	practice_slash	26	practice_slash	5	stimuli_distractor_trianglediamonds.svg	stimuli_distractor_diamondtriangles.svg	16	no	0	1	2000	6	1	antiphase_hc_iso.wav	2	6	6	noise_calib_stim_RIGHT.wav	2	20	blb_dichoticlistening_ka-da.mp3	ka	da	1	left
6.6.1	win	2023-06-12	21:18:10	21:39:15	1260937	64017b47c83e917541f7c592	2	1	practice_slash	26	advance_on_keypress_SLASH	6	stimuli_distractor_trianglediamonds.svg	stimuli_distractor_diamondtriangles.svg	16	no	57	0	1530	6	1	antiphase_hc_iso.wav	2	6	6	noise_calib_stim_RIGHT.wav	2	20	blb_dichoticlistening_ka-da.mp3	ka	da	1	left
6.6.1	win	2023-06-12	21:18:10	21:39:19	1264779	64017b47c83e917541f7c592	2	1	practice_slash	26	practice_slash	7	stimuli_target_diamondsquares.svg	stimuli_distractor_diamondtriangles.svg	3	yes	53	1	659	6	1	antiphase_hc_iso.wav	2	6	6	noise_calib_stim_RIGHT.wav	2	20	blb_dichoticlistening_ka-da.mp3	ka	da	1	left
6.6.1	win	2023-06-12	21:18:10	21:39:19	1264779	64017b47c83e917541f7c592	2	1	practice_slash	26	advance_on_keypress_SLASH	8	stimuli_target_diamondsquares.svg	stimuli_distractor_diamondtriangles.svg	3	yes	57	0	297	6	1	antiphase_hc_iso.wav	2	6	6	noise_calib_stim_RIGHT.wav	2	20	blb_dichoticlistening_ka-da.mp3	ka	da	1	left
6.6.1	win	2023-06-12	21:18:10	21:39:21	1267535	64017b47c83e917541f7c592	2	1	practice_slash	26	practice_slash	9	stimuli_target_squarediamonds.svg	stimuli_distractor_diamondtriangles.svg	2	yes	53	1	799	6	1	antiphase_hc_iso.wav	2	6	6	noise_calib_stim_RIGHT.wav	2	20	blb_dichoticlistening_ka-da.mp3	ka	da	1	left
6.6.1	win	2023-06-12	21:18:10	21:39:21	1267535	64017b47c83e917541f7c592	2	1	practice_slash	26	advance_on_keypress_SLASH	10	stimuli_target_squarediamonds.svg	stimuli_distractor_diamondtriangles.svg	2	yes	57	0	131	6	1	antiphase_hc_iso.wav	2	6	6	noise_calib_stim_RIGHT.wav	2	20	blb_dichoticlistening_ka-da.mp3	ka	da	1	left
6.6.1	win	2023-06-12	21:18:10	21:39:25	1271319	64017b47c83e917541f7c592	2	1	practice_slash	26	practice_slash	11	stimuli_distractor_trianglediamonds.svg	stimuli_distractor_trianglediamonds.svg	15	no	0	1	2000	6	1	antiphase_hc_iso.wav	2	6	6	noise_calib_stim_RIGHT.wav	2	20	blb_dichoticlistening_ka-da.mp3	ka	da	1	left
6.6.1	win	2023-06-12	21:18:10	21:39:25	1271319	64017b47c83e917541f7c592	2	1	practice_slash	26	advance_on_keypress_SLASH	12	stimuli_distractor_trianglediamonds.svg	stimuli_distractor_trianglediamonds.svg	15	no	57	0	273	6	1	antiphase_hc_iso.wav	2	6	6	noise_calib_stim_RIGHT.wav	2	20	blb_dichoticlistening_ka-da.mp3	ka	da	1	left
6.6.1	win	2023-06-12	21:18:10	21:39:28	1273945	64017b47c83e917541f7c592	2	1	practice_slash	26	practice_slash	13	stimuli_distractor_trianglediamonds.svg	stimuli_target_squarediamonds.svg	11	yes	53	1	712	6	1	antiphase_hc_iso.wav	2	6	6	noise_calib_stim_RIGHT.wav	2	20	blb_dichoticlistening_ka-da.mp3	ka	da	1	left
6.6.1	win	2023-06-12	21:18:10	21:39:28	1273945	64017b47c83e917541f7c592	2	1	practice_slash	26	advance_on_keypress_SLASH	14	stimuli_distractor_trianglediamonds.svg	stimuli_target_squarediamonds.svg	11	yes	57	0	227	6	1	antiphase_hc_iso.wav	2	6	6	noise_calib_stim_RIGHT.wav	2	20	blb_dichoticlistening_ka-da.mp3	ka	da	1	left
6.6.1	win	2023-06-12	21:18:10	21:39:30	1276512	64017b47c83e917541f7c592	2	1	practice_slash	26	practice_slash	15	stimuli_target_rectanglediamonds.svg	stimuli_distractor_trianglediamonds.svg	4	yes	53	1	679	6	1	antiphase_hc_iso.wav	2	6	6	noise_calib_stim_RIGHT.wav	2	20	blb_dichoticlistening_ka-da.mp3	ka	da	1	left
6.6.1	win	2023-06-12	21:18:10	21:39:30	1276512	64017b47c83e917541f7c592	2	1	practice_slash	26	advance_on_keypress_SLASH	16	stimuli_target_rectanglediamonds.svg	stimuli_distractor_trianglediamonds.svg	4	yes	57	0	269	6	1	antiphase_hc_iso.wav	2	6	6	noise_calib_stim_RIGHT.wav	2	20	blb_dichoticlistening_ka-da.mp3	ka	da	1	left
6.6.1	win	2023-06-12	21:18:10	21:39:33	1279122	64017b47c83e917541f7c592	2	1	practice_slash	26	practice_slash	17	stimuli_target_squarediamonds.svg	stimuli_distractor_trianglediamonds.svg	5	yes	53	1	689	6	1	antiphase_hc_iso.wav	2	6	6	noise_calib_stim_RIGHT.wav	2	20	blb_dichoticlistening_ka-da.mp3	ka	da	1	left
6.6.1	win	2023-06-12	21:18:10	21:39:33	1279122	64017b47c83e917541f7c592	2	1	practice_slash	26	advance_on_keypress_SLASH	18	stimuli_target_squarediamonds.svg	stimuli_distractor_trianglediamonds.svg	5	yes	57	0	231	6	1	antiphase_hc_iso.wav	2	6	6	noise_calib_stim_RIGHT.wav	2	20	blb_dichoticlistening_ka-da.mp3	ka	da	1	left
