build	computer.platform	date	time	timestamp	time_elapsed_ms	subject	group	session	blockcode	blocknum	trialcode	trialnum	stimulus_left	stimulus_right	stim_index	target_present	response	correct	latency	headphonecheck_countTestTrials	headphonecheck_index	headphonecheck_testSound	headphonecheck_correctResponse	stereocheck_countTestTrials	stereocheck_index	stereocheck_testSound	stereocheck_correctResponse	DL_index	DL_soundfile	DL_leftSound	DL_rightSound	DL_dualSound	DL_choice
6.6.1	win	2023-06-27	10:52:41	10:55:05	128158	60c29201092d523e3b08a603	4	1	practice_z	5	practice_z	1	stimuli_distractor_diamondtriangles.svg	stimuli_target_rectangletriangles.svg	7	yes	44	1	842	0	0			0	0			1				0	
6.6.1	win	2023-06-27	10:52:41	10:55:05	128158	60c29201092d523e3b08a603	4	1	practice_z	5	advance_on_keypress_ZEE	2	stimuli_distractor_diamondtriangles.svg	stimuli_target_rectangletriangles.svg	7	yes	57	0	810	0	0			0	0			1				0	
6.6.1	win	2023-06-27	10:52:41	10:55:08	131142	60c29201092d523e3b08a603	4	1	practice_z	5	practice_z	3	stimuli_target_squarediamonds.svg	stimuli_distractor_trianglediamonds.svg	5	yes	44	1	524	0	0			0	0			1				0	
6.6.1	win	2023-06-27	10:52:41	10:55:08	131142	60c29201092d523e3b08a603	4	1	practice_z	5	advance_on_keypress_ZEE	4	stimuli_target_squarediamonds.svg	stimuli_distractor_trianglediamonds.svg	5	yes	57	0	619	0	0			0	0			1				0	
6.6.1	win	2023-06-27	10:52:41	10:55:12	135417	60c29201092d523e3b08a603	4	1	practice_z	5	practice_z	5	stimuli_distractor_trianglediamonds.svg	stimuli_distractor_diamondtriangles.svg	16	no	0	1	2000	0	0			0	0			1				0	
6.6.1	win	2023-06-27	10:52:41	10:55:12	135417	60c29201092d523e3b08a603	4	1	practice_z	5	advance_on_keypress_ZEE	6	stimuli_distractor_trianglediamonds.svg	stimuli_distractor_diamondtriangles.svg	16	no	57	0	841	0	0			0	0			1				0	
6.6.1	win	2023-06-27	10:52:41	10:55:16	138686	60c29201092d523e3b08a603	4	1	practice_z	5	practice_z	7	stimuli_target_rectanglediamonds.svg	stimuli_distractor_diamondtriangles.svg	1	yes	44	1	777	0	0			0	0			1				0	
6.6.1	win	2023-06-27	10:52:41	10:55:16	138686	60c29201092d523e3b08a603	4	1	practice_z	5	advance_on_keypress_ZEE	8	stimuli_target_rectanglediamonds.svg	stimuli_distractor_diamondtriangles.svg	1	yes	57	0	1069	0	0			0	0			1				0	
6.6.1	win	2023-06-27	10:52:41	10:55:20	143411	60c29201092d523e3b08a603	4	1	practice_z	5	practice_z	9	stimuli_distractor_diamondtriangles.svg	stimuli_distractor_diamondtriangles.svg	13	no	0	1	2000	0	0			0	0			1				0	
6.6.1	win	2023-06-27	10:52:41	10:55:20	143411	60c29201092d523e3b08a603	4	1	practice_z	5	advance_on_keypress_ZEE	10	stimuli_distractor_diamondtriangles.svg	stimuli_distractor_diamondtriangles.svg	13	no	57	0	783	0	0			0	0			1				0	
6.6.1	win	2023-06-27	10:52:41	10:55:24	146671	60c29201092d523e3b08a603	4	1	practice_z	5	practice_z	11	stimuli_target_squarediamonds.svg	stimuli_distractor_diamondtriangles.svg	2	yes	44	1	850	0	0			0	0			1				0	
6.6.1	win	2023-06-27	10:52:41	10:55:24	146671	60c29201092d523e3b08a603	4	1	practice_z	5	advance_on_keypress_ZEE	12	stimuli_target_squarediamonds.svg	stimuli_distractor_diamondtriangles.svg	2	yes	57	0	618	0	0			0	0			1				0	
6.6.1	win	2023-06-27	10:52:41	10:55:28	150937	60c29201092d523e3b08a603	4	1	practice_z	5	practice_z	13	stimuli_distractor_diamondtriangles.svg	stimuli_target_diamondrectangles.svg	8	yes	0	0	2000	0	0			0	0			1				0	
6.6.1	win	2023-06-27	10:52:41	10:55:28	150937	60c29201092d523e3b08a603	4	1	practice_z	5	advance_on_keypress_ZEE	14	stimuli_distractor_diamondtriangles.svg	stimuli_target_diamondrectangles.svg	8	yes	57	0	472	0	0			0	0			1				0	
6.6.1	win	2023-06-27	10:52:41	10:55:31	153837	60c29201092d523e3b08a603	4	1	practice_z	5	practice_z	15	stimuli_distractor_trianglediamonds.svg	stimuli_target_rectanglediamonds.svg	10	yes	44	1	778	0	0			0	0			1				0	
6.6.1	win	2023-06-27	10:52:41	10:55:31	153837	60c29201092d523e3b08a603	4	1	practice_z	5	advance_on_keypress_ZEE	16	stimuli_distractor_trianglediamonds.svg	stimuli_target_rectanglediamonds.svg	10	yes	57	0	957	0	0			0	0			1				0	
6.6.1	win	2023-06-27	10:52:41	10:55:35	158446	60c29201092d523e3b08a603	4	1	practice_z	5	practice_z	17	stimuli_distractor_trianglediamonds.svg	stimuli_target_diamondrectangles.svg	12	yes	0	0	2000	0	0			0	0			1				0	
6.6.1	win	2023-06-27	10:52:41	10:55:35	158446	60c29201092d523e3b08a603	4	1	practice_z	5	advance_on_keypress_ZEE	18	stimuli_distractor_trianglediamonds.svg	stimuli_target_diamondrectangles.svg	12	yes	57	0	396	0	0			0	0			1				0	
6.6.1	win	2023-06-27	10:52:41	10:55:38	161197	60c29201092d523e3b08a603	4	1	practice_z	5	practice_z	19	stimuli_distractor_trianglediamonds.svg	stimuli_target_squarediamonds.svg	11	yes	44	1	713	0	0			0	0			1				0	
6.6.1	win	2023-06-27	10:52:41	10:55:38	161197	60c29201092d523e3b08a603	4	1	practice_z	5	advance_on_keypress_ZEE	20	stimuli_distractor_trianglediamonds.svg	stimuli_target_squarediamonds.svg	11	yes	57	0	967	0	0			0	0			1				0	
6.6.1	win	2023-06-27	10:52:41	10:55:41	164358	60c29201092d523e3b08a603	4	1	practice_z	5	practice_z	21	stimuli_target_rectanglediamonds.svg	stimuli_distractor_trianglediamonds.svg	4	yes	44	1	554	0	0			0	0			1				0	
6.6.1	win	2023-06-27	10:52:41	10:55:41	164358	60c29201092d523e3b08a603	4	1	practice_z	5	advance_on_keypress_ZEE	22	stimuli_target_rectanglediamonds.svg	stimuli_distractor_trianglediamonds.svg	4	yes	57	0	280	0	0			0	0			1				0	
6.6.1	win	2023-06-27	10:52:41	10:55:44	167054	60c29201092d523e3b08a603	4	1	practice_z	5	practice_z	23	stimuli_target_diamondsquares.svg	stimuli_distractor_diamondtriangles.svg	3	yes	44	1	769	0	0			0	0			1				0	
6.6.1	win	2023-06-27	10:52:41	10:55:44	167054	60c29201092d523e3b08a603	4	1	practice_z	5	advance_on_keypress_ZEE	24	stimuli_target_diamondsquares.svg	stimuli_distractor_diamondtriangles.svg	3	yes	57	0	357	0	0			0	0			1				0	
6.6.1	win	2023-06-27	10:52:41	10:55:48	170990	60c29201092d523e3b08a603	4	1	practice_z	5	practice_z	25	stimuli_distractor_trianglediamonds.svg	stimuli_distractor_trianglediamonds.svg	15	no	44	0	1940	0	0			0	0			1				0	
6.6.1	win	2023-06-27	10:52:41	10:55:48	170990	60c29201092d523e3b08a603	4	1	practice_z	5	advance_on_keypress_ZEE	26	stimuli_distractor_trianglediamonds.svg	stimuli_distractor_trianglediamonds.svg	15	no	57	0	555	0	0			0	0			1				0	
6.6.1	win	2023-06-27	10:52:41	10:55:52	175189	60c29201092d523e3b08a603	4	1	practice_z	5	practice_z	27	stimuli_distractor_diamondtriangles.svg	stimuli_distractor_trianglediamonds.svg	14	no	0	1	2000	0	0			0	0			1				0	
6.6.1	win	2023-06-27	10:52:41	10:55:52	175189	60c29201092d523e3b08a603	4	1	practice_z	5	advance_on_keypress_ZEE	28	stimuli_distractor_diamondtriangles.svg	stimuli_distractor_trianglediamonds.svg	14	no	57	0	148	0	0			0	0			1				0	
6.6.1	win	2023-06-27	10:52:41	10:55:55	177542	60c29201092d523e3b08a603	4	1	practice_z	5	practice_z	29	stimuli_target_diamondsquares.svg	stimuli_distractor_trianglediamonds.svg	6	yes	44	1	564	0	0			0	0			1				0	
6.6.1	win	2023-06-27	10:52:41	10:55:55	177542	60c29201092d523e3b08a603	4	1	practice_z	5	advance_on_keypress_ZEE	30	stimuli_target_diamondsquares.svg	stimuli_distractor_trianglediamonds.svg	6	yes	57	0	257	0	0			0	0			1				0	
6.6.1	win	2023-06-27	10:52:41	10:55:57	180110	60c29201092d523e3b08a603	4	1	practice_z	5	practice_z	31	stimuli_distractor_diamondtriangles.svg	stimuli_target_trianglerectangles.svg	9	yes	44	1	668	0	0			0	0			1				0	
6.6.1	win	2023-06-27	10:52:41	10:55:57	180110	60c29201092d523e3b08a603	4	1	practice_z	5	advance_on_keypress_ZEE	32	stimuli_distractor_diamondtriangles.svg	stimuli_target_trianglerectangles.svg	9	yes	57	0	229	0	0			0	0			1				0	
6.6.1	win	2023-06-27	10:52:41	10:56:04	186981	60c29201092d523e3b08a603	4	1	main_z	7	main_z	1	stimuli_target_squaretriangles.svg	stimuli_distractor_diamondtriangles.svg	7	yes	44	1	495	0	0			0	0			1				0	
6.6.1	win	2023-06-27	10:52:41	10:56:04	186981	60c29201092d523e3b08a603	4	1	main_z	7	advance_on_keypress_ZEE	2	stimuli_target_squaretriangles.svg	stimuli_distractor_diamondtriangles.svg	7	yes	57	0	685	0	0			0	0			1				0	
6.6.1	win	2023-06-27	10:52:41	10:56:06	189037	60c29201092d523e3b08a603	4	1	main_z	7	main_z	3	stimuli_distractor_diamondtriangles.svg	stimuli_target_rectangletriangles.svg	13	yes	44	1	724	0	0			0	0			1				0	
6.6.1	win	2023-06-27	10:52:41	10:56:06	189037	60c29201092d523e3b08a603	4	1	main_z	7	advance_on_keypress_ZEE	4	stimuli_distractor_diamondtriangles.svg	stimuli_target_rectangletriangles.svg	13	yes	57	0	559	0	0			0	0			1				0	
6.6.1	win	2023-06-27	10:52:41	10:56:08	190869	60c29201092d523e3b08a603	4	1	main_z	7	main_z	5	stimuli_distractor_diamondtriangles.svg	stimuli_target_diamondrectangles.svg	31	yes	44	1	629	0	0			0	0			1				0	
6.6.1	win	2023-06-27	10:52:41	10:56:08	190869	60c29201092d523e3b08a603	4	1	main_z	7	advance_on_keypress_ZEE	6	stimuli_distractor_diamondtriangles.svg	stimuli_target_diamondrectangles.svg	31	yes	57	0	452	0	0			0	0			1				0	
6.6.1	win	2023-06-27	10:52:41	10:56:10	192677	60c29201092d523e3b08a603	4	1	main_z	7	main_z	7	stimuli_distractor_diamondtriangles.svg	stimuli_target_rectanglediamonds.svg	14	yes	44	1	710	0	0			0	0			1				0	
6.6.1	win	2023-06-27	10:52:41	10:56:10	192677	60c29201092d523e3b08a603	4	1	main_z	7	advance_on_keypress_ZEE	8	stimuli_distractor_diamondtriangles.svg	stimuli_target_rectanglediamonds.svg	14	yes	57	0	442	0	0			0	0			1				0	
6.6.1	win	2023-06-27	10:52:41	10:56:11	194213	60c29201092d523e3b08a603	4	1	main_z	7	main_z	9	stimuli_target_rectangletriangles.svg	stimuli_distractor_diamondtriangles.svg	5	yes	44	1	453	0	0			0	0			1				0	
6.6.1	win	2023-06-27	10:52:41	10:56:11	194213	60c29201092d523e3b08a603	4	1	main_z	7	advance_on_keypress_ZEE	10	stimuli_target_rectangletriangles.svg	stimuli_distractor_diamondtriangles.svg	5	yes	57	0	413	0	0			0	0			1				0	
6.6.1	win	2023-06-27	10:52:41	10:56:13	195669	60c29201092d523e3b08a603	4	1	main_z	7	main_z	11	stimuli_target_rectanglediamonds.svg	stimuli_distractor_diamondtriangles.svg	6	yes	44	1	417	0	0			0	0			1				0	
6.6.1	win	2023-06-27	10:52:41	10:56:13	195669	60c29201092d523e3b08a603	4	1	main_z	7	advance_on_keypress_ZEE	12	stimuli_target_rectanglediamonds.svg	stimuli_distractor_diamondtriangles.svg	6	yes	57	0	355	0	0			0	0			1				0	
6.6.1	win	2023-06-27	10:52:41	10:56:16	198660	60c29201092d523e3b08a603	4	1	main_z	7	main_z	13	stimuli_target_diamondsquares.svg	stimuli_distractor_trianglediamonds.svg	20	yes	0	0	2000	0	0			0	0			1				0	
6.6.1	win	2023-06-27	10:52:41	10:56:16	198660	60c29201092d523e3b08a603	4	1	main_z	7	advance_on_keypress_ZEE	14	stimuli_target_diamondsquares.svg	stimuli_distractor_trianglediamonds.svg	20	yes	57	0	491	0	0			0	0			1				0	
6.6.1	win	2023-06-27	10:52:41	10:56:17	200205	60c29201092d523e3b08a603	4	1	main_z	7	main_z	15	stimuli_distractor_trianglediamonds.svg	stimuli_target_squaretriangles.svg	11	yes	44	1	411	0	0			0	0			1				0	
6.6.1	win	2023-06-27	10:52:41	10:56:17	200205	60c29201092d523e3b08a603	4	1	main_z	7	advance_on_keypress_ZEE	16	stimuli_distractor_trianglediamonds.svg	stimuli_target_squaretriangles.svg	11	yes	57	0	445	0	0			0	0			1				0	
6.6.1	win	2023-06-27	10:52:41	10:56:20	203286	60c29201092d523e3b08a603	4	1	main_z	7	main_z	17	stimuli_distractor_trianglediamonds.svg	stimuli_target_trianglerectangles.svg	25	yes	0	0	2000	0	0			0	0			1				0	
6.6.1	win	2023-06-27	10:52:41	10:56:20	203286	60c29201092d523e3b08a603	4	1	main_z	7	advance_on_keypress_ZEE	18	stimuli_distractor_trianglediamonds.svg	stimuli_target_trianglerectangles.svg	25	yes	57	0	697	0	0			0	0			1				0	
6.6.1	win	2023-06-27	10:52:41	10:56:22	205333	60c29201092d523e3b08a603	4	1	main_z	7	main_z	19	stimuli_distractor_diamondtriangles.svg	stimuli_target_trianglesquares.svg	30	yes	44	1	712	0	0			0	0			1				0	
6.6.1	win	2023-06-27	10:52:41	10:56:22	205333	60c29201092d523e3b08a603	4	1	main_z	7	advance_on_keypress_ZEE	20	stimuli_distractor_diamondtriangles.svg	stimuli_target_trianglesquares.svg	30	yes	57	0	372	0	0			0	0			1				0	
6.6.1	win	2023-06-27	10:52:41	10:56:24	207205	60c29201092d523e3b08a603	4	1	main_z	7	main_z	21	stimuli_target_squarediamonds.svg	stimuli_distractor_diamondtriangles.svg	8	yes	44	1	857	0	0			0	0			1				0	
6.6.1	win	2023-06-27	10:52:41	10:56:24	207205	60c29201092d523e3b08a603	4	1	main_z	7	advance_on_keypress_ZEE	22	stimuli_target_squarediamonds.svg	stimuli_distractor_diamondtriangles.svg	8	yes	57	0	423	0	0			0	0			1				0	
6.6.1	win	2023-06-27	10:52:41	10:56:27	210275	60c29201092d523e3b08a603	4	1	main_z	7	main_z	23	stimuli_target_trianglerectangles.svg	stimuli_distractor_diamondtriangles.svg	21	yes	0	0	2000	0	0			0	0			1				0	
6.6.1	win	2023-06-27	10:52:41	10:56:27	210275	60c29201092d523e3b08a603	4	1	main_z	7	advance_on_keypress_ZEE	24	stimuli_target_trianglerectangles.svg	stimuli_distractor_diamondtriangles.svg	21	yes	57	0	427	0	0			0	0			1				0	
6.6.1	win	2023-06-27	10:52:41	10:56:29	211821	60c29201092d523e3b08a603	4	1	main_z	7	main_z	25	stimuli_distractor_diamondtriangles.svg	stimuli_target_squarediamonds.svg	16	yes	44	1	479	0	0			0	0			1				0	
6.6.1	win	2023-06-27	10:52:41	10:56:29	211821	60c29201092d523e3b08a603	4	1	main_z	7	advance_on_keypress_ZEE	26	stimuli_distractor_diamondtriangles.svg	stimuli_target_squarediamonds.svg	16	yes	57	0	333	0	0			0	0			1				0	
6.6.1	win	2023-06-27	10:52:41	10:56:30	213325	60c29201092d523e3b08a603	4	1	main_z	7	main_z	27	stimuli_distractor_trianglediamonds.svg	stimuli_target_rectanglediamonds.svg	10	yes	44	1	525	0	0			0	0			1				0	
6.6.1	win	2023-06-27	10:52:41	10:56:30	213325	60c29201092d523e3b08a603	4	1	main_z	7	advance_on_keypress_ZEE	28	stimuli_distractor_trianglediamonds.svg	stimuli_target_rectanglediamonds.svg	10	yes	57	0	345	0	0			0	0			1				0	
6.6.1	win	2023-06-27	10:52:41	10:56:32	215389	60c29201092d523e3b08a603	4	1	main_z	7	main_z	29	stimuli_target_trianglerectangles.svg	stimuli_distractor_trianglediamonds.svg	17	yes	44	1	1080	0	0			0	0			1				0	
6.6.1	win	2023-06-27	10:52:41	10:56:32	215389	60c29201092d523e3b08a603	4	1	main_z	7	advance_on_keypress_ZEE	30	stimuli_target_trianglerectangles.svg	stimuli_distractor_trianglediamonds.svg	17	yes	57	0	347	0	0			0	0			1				0	
6.6.1	win	2023-06-27	10:52:41	10:56:34	217117	60c29201092d523e3b08a603	4	1	main_z	7	main_z	31	stimuli_target_trianglesquares.svg	stimuli_distractor_trianglediamonds.svg	18	yes	44	1	747	0	0			0	0			1				0	
6.6.1	win	2023-06-27	10:52:41	10:56:34	217117	60c29201092d523e3b08a603	4	1	main_z	7	advance_on_keypress_ZEE	32	stimuli_target_trianglesquares.svg	stimuli_distractor_trianglediamonds.svg	18	yes	57	0	445	0	0			0	0			1				0	
6.6.1	win	2023-06-27	10:52:41	10:56:36	218741	60c29201092d523e3b08a603	4	1	main_z	7	main_z	33	stimuli_target_squarediamonds.svg	stimuli_distractor_trianglediamonds.svg	4	yes	44	1	544	0	0			0	0			1				0	
6.6.1	win	2023-06-27	10:52:41	10:56:36	218741	60c29201092d523e3b08a603	4	1	main_z	7	advance_on_keypress_ZEE	34	stimuli_target_squarediamonds.svg	stimuli_distractor_trianglediamonds.svg	4	yes	57	0	259	0	0			0	0			1				0	
6.6.1	win	2023-06-27	10:52:41	10:56:37	220333	60c29201092d523e3b08a603	4	1	main_z	7	main_z	35	stimuli_target_diamondrectangles.svg	stimuli_distractor_diamondtriangles.svg	23	yes	44	1	694	0	0			0	0			1				0	
6.6.1	win	2023-06-27	10:52:41	10:56:37	220333	60c29201092d523e3b08a603	4	1	main_z	7	advance_on_keypress_ZEE	36	stimuli_target_diamondrectangles.svg	stimuli_distractor_diamondtriangles.svg	23	yes	57	0	315	0	0			0	0			1				0	
6.6.1	win	2023-06-27	10:52:41	10:56:39	221805	60c29201092d523e3b08a603	4	1	main_z	7	main_z	37	stimuli_target_rectangletriangles.svg	stimuli_distractor_trianglediamonds.svg	1	yes	44	1	524	0	0			0	0			1				0	
6.6.1	win	2023-06-27	10:52:41	10:56:39	221805	60c29201092d523e3b08a603	4	1	main_z	7	advance_on_keypress_ZEE	38	stimuli_target_rectangletriangles.svg	stimuli_distractor_trianglediamonds.svg	1	yes	57	0	256	0	0			0	0			1				0	
6.6.1	win	2023-06-27	10:52:41	10:56:40	223293	60c29201092d523e3b08a603	4	1	main_z	7	main_z	39	stimuli_distractor_diamondtriangles.svg	stimuli_target_squaretriangles.svg	15	yes	44	1	587	0	0			0	0			1				0	
6.6.1	win	2023-06-27	10:52:41	10:56:40	223293	60c29201092d523e3b08a603	4	1	main_z	7	advance_on_keypress_ZEE	40	stimuli_distractor_diamondtriangles.svg	stimuli_target_squaretriangles.svg	15	yes	57	0	309	0	0			0	0			1				0	
6.6.1	win	2023-06-27	10:52:41	10:56:42	224765	60c29201092d523e3b08a603	4	1	main_z	7	main_z	41	stimuli_distractor_trianglediamonds.svg	stimuli_target_rectangletriangles.svg	9	yes	44	1	534	0	0			0	0			1				0	
6.6.1	win	2023-06-27	10:52:41	10:56:42	224765	60c29201092d523e3b08a603	4	1	main_z	7	advance_on_keypress_ZEE	42	stimuli_distractor_trianglediamonds.svg	stimuli_target_rectangletriangles.svg	9	yes	57	0	314	0	0			0	0			1				0	
6.6.1	win	2023-06-27	10:52:41	10:56:45	227706	60c29201092d523e3b08a603	4	1	main_z	7	main_z	43	stimuli_distractor_diamondtriangles.svg	stimuli_distractor_diamondtriangles.svg	40	no	0	1	2000	0	0			0	0			1				0	
6.6.1	win	2023-06-27	10:52:41	10:56:45	227706	60c29201092d523e3b08a603	4	1	main_z	7	advance_on_keypress_ZEE	44	stimuli_distractor_diamondtriangles.svg	stimuli_distractor_diamondtriangles.svg	40	no	57	0	436	0	0			0	0			1				0	
6.6.1	win	2023-06-27	10:52:41	10:56:47	229509	60c29201092d523e3b08a603	4	1	main_z	7	main_z	45	stimuli_distractor_diamondtriangles.svg	stimuli_target_diamondsquares.svg	32	yes	44	1	719	0	0			0	0			1				0	
6.6.1	win	2023-06-27	10:52:41	10:56:47	229509	60c29201092d523e3b08a603	4	1	main_z	7	advance_on_keypress_ZEE	46	stimuli_distractor_diamondtriangles.svg	stimuli_target_diamondsquares.svg	32	yes	57	0	379	0	0			0	0			1				0	
6.6.1	win	2023-06-27	10:52:41	10:56:48	231141	60c29201092d523e3b08a603	4	1	main_z	7	main_z	47	stimuli_distractor_diamondtriangles.svg	stimuli_target_trianglerectangles.svg	29	yes	44	1	625	0	0			0	0			1				0	
6.6.1	win	2023-06-27	10:52:41	10:56:48	231141	60c29201092d523e3b08a603	4	1	main_z	7	advance_on_keypress_ZEE	48	stimuli_distractor_diamondtriangles.svg	stimuli_target_trianglerectangles.svg	29	yes	57	0	328	0	0			0	0			1				0	
6.6.1	win	2023-06-27	10:52:41	10:56:50	232645	60c29201092d523e3b08a603	4	1	main_z	7	main_z	49	stimuli_target_rectanglediamonds.svg	stimuli_distractor_trianglediamonds.svg	2	yes	44	1	536	0	0			0	0			1				0	
6.6.1	win	2023-06-27	10:52:41	10:56:50	232645	60c29201092d523e3b08a603	4	1	main_z	7	advance_on_keypress_ZEE	50	stimuli_target_rectanglediamonds.svg	stimuli_distractor_trianglediamonds.svg	2	yes	57	0	300	0	0			0	0			1				0	
6.6.1	win	2023-06-27	10:52:41	10:56:51	234277	60c29201092d523e3b08a603	4	1	main_z	7	main_z	51	stimuli_distractor_trianglediamonds.svg	stimuli_target_diamondsquares.svg	28	yes	44	1	693	0	0			0	0			1				0	
6.6.1	win	2023-06-27	10:52:41	10:56:51	234277	60c29201092d523e3b08a603	4	1	main_z	7	advance_on_keypress_ZEE	52	stimuli_distractor_trianglediamonds.svg	stimuli_target_diamondsquares.svg	28	yes	57	0	354	0	0			0	0			1				0	
6.6.1	win	2023-06-27	10:52:41	10:56:53	235877	60c29201092d523e3b08a603	4	1	main_z	7	main_z	53	stimuli_target_trianglesquares.svg	stimuli_distractor_diamondtriangles.svg	22	yes	44	1	600	0	0			0	0			1				0	
6.6.1	win	2023-06-27	10:52:41	10:56:53	235877	60c29201092d523e3b08a603	4	1	main_z	7	advance_on_keypress_ZEE	54	stimuli_target_trianglesquares.svg	stimuli_distractor_diamondtriangles.svg	22	yes	57	0	322	0	0			0	0			1				0	
6.6.1	win	2023-06-27	10:52:41	10:56:54	237437	60c29201092d523e3b08a603	4	1	main_z	7	main_z	55	stimuli_distractor_trianglediamonds.svg	stimuli_target_trianglesquares.svg	26	yes	44	1	602	0	0			0	0			1				0	
6.6.1	win	2023-06-27	10:52:41	10:56:54	237437	60c29201092d523e3b08a603	4	1	main_z	7	advance_on_keypress_ZEE	56	stimuli_distractor_trianglediamonds.svg	stimuli_target_trianglesquares.svg	26	yes	57	0	323	0	0			0	0			1				0	
6.6.1	win	2023-06-27	10:52:41	10:56:56	239021	60c29201092d523e3b08a603	4	1	main_z	7	main_z	57	stimuli_distractor_trianglediamonds.svg	stimuli_distractor_trianglediamonds.svg	33	no	44	0	627	0	0			0	0			1				0	
6.6.1	win	2023-06-27	10:52:41	10:56:56	239021	60c29201092d523e3b08a603	4	1	main_z	7	advance_on_keypress_ZEE	58	stimuli_distractor_trianglediamonds.svg	stimuli_distractor_trianglediamonds.svg	33	no	57	0	243	0	0			0	0			1				0	
6.6.1	win	2023-06-27	10:52:41	10:56:58	240525	60c29201092d523e3b08a603	4	1	main_z	7	main_z	59	stimuli_target_diamondsquares.svg	stimuli_distractor_diamondtriangles.svg	24	yes	44	1	623	0	0			0	0			1				0	
6.6.1	win	2023-06-27	10:52:41	10:56:58	240525	60c29201092d523e3b08a603	4	1	main_z	7	advance_on_keypress_ZEE	60	stimuli_target_diamondsquares.svg	stimuli_distractor_diamondtriangles.svg	24	yes	57	0	270	0	0			0	0			1				0	
6.6.1	win	2023-06-27	10:52:41	10:56:59	241893	60c29201092d523e3b08a603	4	1	main_z	7	main_z	61	stimuli_target_diamondrectangles.svg	stimuli_distractor_trianglediamonds.svg	19	yes	44	1	448	0	0			0	0			1				0	
6.6.1	win	2023-06-27	10:52:41	10:56:59	241893	60c29201092d523e3b08a603	4	1	main_z	7	advance_on_keypress_ZEE	62	stimuli_target_diamondrectangles.svg	stimuli_distractor_trianglediamonds.svg	19	yes	57	0	305	0	0			0	0			1				0	
6.6.1	win	2023-06-27	10:52:41	10:57:02	244835	60c29201092d523e3b08a603	4	1	main_z	7	main_z	63	stimuli_distractor_diamondtriangles.svg	stimuli_distractor_trianglediamonds.svg	38	no	0	1	2000	0	0			0	0			1				0	
6.6.1	win	2023-06-27	10:52:41	10:57:02	244835	60c29201092d523e3b08a603	4	1	main_z	7	advance_on_keypress_ZEE	64	stimuli_distractor_diamondtriangles.svg	stimuli_distractor_trianglediamonds.svg	38	no	57	0	579	0	0			0	0			1				0	
6.6.1	win	2023-06-27	10:52:41	10:57:04	246821	60c29201092d523e3b08a603	4	1	main_z	7	main_z	65	stimuli_target_squaretriangles.svg	stimuli_distractor_trianglediamonds.svg	3	yes	44	1	767	0	0			0	0			1				0	
6.6.1	win	2023-06-27	10:52:41	10:57:04	246821	60c29201092d523e3b08a603	4	1	main_z	7	advance_on_keypress_ZEE	66	stimuli_target_squaretriangles.svg	stimuli_distractor_trianglediamonds.svg	3	yes	57	0	345	0	0			0	0			1				0	
6.6.1	win	2023-06-27	10:52:41	10:57:05	248469	60c29201092d523e3b08a603	4	1	main_z	7	main_z	67	stimuli_distractor_trianglediamonds.svg	stimuli_target_diamondrectangles.svg	27	yes	44	1	672	0	0			0	0			1				0	
6.6.1	win	2023-06-27	10:52:41	10:57:05	248469	60c29201092d523e3b08a603	4	1	main_z	7	advance_on_keypress_ZEE	68	stimuli_distractor_trianglediamonds.svg	stimuli_target_diamondrectangles.svg	27	yes	57	0	293	0	0			0	0			1				0	
6.6.1	win	2023-06-27	10:52:41	10:57:08	251406	60c29201092d523e3b08a603	4	1	main_z	7	main_z	69	stimuli_distractor_diamondtriangles.svg	stimuli_distractor_trianglediamonds.svg	37	no	0	1	2000	0	0			0	0			1				0	
6.6.1	win	2023-06-27	10:52:41	10:57:08	251406	60c29201092d523e3b08a603	4	1	main_z	7	advance_on_keypress_ZEE	70	stimuli_distractor_diamondtriangles.svg	stimuli_distractor_trianglediamonds.svg	37	no	57	0	608	0	0			0	0			1				0	
6.6.1	win	2023-06-27	10:52:41	10:57:12	254657	60c29201092d523e3b08a603	4	1	main_z	7	main_z	71	stimuli_distractor_diamondtriangles.svg	stimuli_distractor_diamondtriangles.svg	39	no	0	1	2000	0	0			0	0			1				0	
6.6.1	win	2023-06-27	10:52:41	10:57:12	254657	60c29201092d523e3b08a603	4	1	main_z	7	advance_on_keypress_ZEE	72	stimuli_distractor_diamondtriangles.svg	stimuli_distractor_diamondtriangles.svg	39	no	57	0	445	0	0			0	0			1				0	
6.6.1	win	2023-06-27	10:52:41	10:57:14	257053	60c29201092d523e3b08a603	4	1	main_z	7	main_z	73	stimuli_distractor_trianglediamonds.svg	stimuli_distractor_trianglediamonds.svg	34	no	44	0	1312	0	0			0	0			1				0	
6.6.1	win	2023-06-27	10:52:41	10:57:14	257053	60c29201092d523e3b08a603	4	1	main_z	7	advance_on_keypress_ZEE	74	stimuli_distractor_trianglediamonds.svg	stimuli_distractor_trianglediamonds.svg	34	no	57	0	416	0	0			0	0			1				0	
6.6.1	win	2023-06-27	10:52:41	10:57:17	260105	60c29201092d523e3b08a603	4	1	main_z	7	main_z	75	stimuli_distractor_trianglediamonds.svg	stimuli_distractor_diamondtriangles.svg	36	no	0	1	2000	0	0			0	0			1				0	
6.6.1	win	2023-06-27	10:52:41	10:57:17	260105	60c29201092d523e3b08a603	4	1	main_z	7	advance_on_keypress_ZEE	76	stimuli_distractor_trianglediamonds.svg	stimuli_distractor_diamondtriangles.svg	36	no	57	0	286	0	0			0	0			1				0	
6.6.1	win	2023-06-27	10:52:41	10:57:19	261597	60c29201092d523e3b08a603	4	1	main_z	7	main_z	77	stimuli_distractor_trianglediamonds.svg	stimuli_target_squarediamonds.svg	12	yes	44	1	559	0	0			0	0			1				0	
6.6.1	win	2023-06-27	10:52:41	10:57:19	261597	60c29201092d523e3b08a603	4	1	main_z	7	advance_on_keypress_ZEE	78	stimuli_distractor_trianglediamonds.svg	stimuli_target_squarediamonds.svg	12	yes	57	0	306	0	0			0	0			1				0	
6.6.1	win	2023-06-27	10:52:41	10:57:21	263805	60c29201092d523e3b08a603	4	1	main_z	7	main_z	79	stimuli_distractor_trianglediamonds.svg	stimuli_distractor_diamondtriangles.svg	35	no	44	0	1259	0	0			0	0			1				0	
6.6.1	win	2023-06-27	10:52:41	10:57:21	263805	60c29201092d523e3b08a603	4	1	main_z	7	advance_on_keypress_ZEE	80	stimuli_distractor_trianglediamonds.svg	stimuli_distractor_diamondtriangles.svg	35	no	57	0	365	0	0			0	0			1				0	
6.6.1	win	2023-06-27	10:52:41	10:57:23	265613	60c29201092d523e3b08a603	4	1	main_z	7	main_z	81	stimuli_distractor_trianglediamonds.svg	stimuli_distractor_trianglediamonds.svg	34	no	44	0	804	0	0			0	0			1				0	
6.6.1	win	2023-06-27	10:52:41	10:57:23	265613	60c29201092d523e3b08a603	4	1	main_z	7	advance_on_keypress_ZEE	82	stimuli_distractor_trianglediamonds.svg	stimuli_distractor_trianglediamonds.svg	34	no	57	0	236	0	0			0	0			1				0	
6.6.1	win	2023-06-27	10:52:41	10:57:24	266965	60c29201092d523e3b08a603	4	1	main_z	7	main_z	83	stimuli_target_trianglesquares.svg	stimuli_distractor_trianglediamonds.svg	18	yes	44	1	480	0	0			0	0			1				0	
6.6.1	win	2023-06-27	10:52:41	10:57:24	266965	60c29201092d523e3b08a603	4	1	main_z	7	advance_on_keypress_ZEE	84	stimuli_target_trianglesquares.svg	stimuli_distractor_trianglediamonds.svg	18	yes	57	0	246	0	0			0	0			1				0	
6.6.1	win	2023-06-27	10:52:41	10:57:25	268301	60c29201092d523e3b08a603	4	1	main_z	7	main_z	85	stimuli_distractor_trianglediamonds.svg	stimuli_target_diamondrectangles.svg	27	yes	44	1	458	0	0			0	0			1				0	
6.6.1	win	2023-06-27	10:52:41	10:57:25	268301	60c29201092d523e3b08a603	4	1	main_z	7	advance_on_keypress_ZEE	86	stimuli_distractor_trianglediamonds.svg	stimuli_target_diamondrectangles.svg	27	yes	57	0	201	0	0			0	0			1				0	
6.6.1	win	2023-06-27	10:52:41	10:57:27	269637	60c29201092d523e3b08a603	4	1	main_z	7	main_z	87	stimuli_distractor_diamondtriangles.svg	stimuli_target_trianglerectangles.svg	29	yes	44	1	487	0	0			0	0			1				0	
6.6.1	win	2023-06-27	10:52:41	10:57:27	269637	60c29201092d523e3b08a603	4	1	main_z	7	advance_on_keypress_ZEE	88	stimuli_distractor_diamondtriangles.svg	stimuli_target_trianglerectangles.svg	29	yes	57	0	125	0	0			0	0			1				0	
6.6.1	win	2023-06-27	10:52:41	10:57:28	270829	60c29201092d523e3b08a603	4	1	main_z	7	main_z	89	stimuli_distractor_diamondtriangles.svg	stimuli_target_rectanglediamonds.svg	14	yes	44	1	422	0	0			0	0			1				0	
6.6.1	win	2023-06-27	10:52:41	10:57:28	270829	60c29201092d523e3b08a603	4	1	main_z	7	advance_on_keypress_ZEE	90	stimuli_distractor_diamondtriangles.svg	stimuli_target_rectanglediamonds.svg	14	yes	57	0	143	0	0			0	0			1				0	
6.6.1	win	2023-06-27	10:52:41	10:57:31	273614	60c29201092d523e3b08a603	4	1	main_z	7	main_z	91	stimuli_distractor_diamondtriangles.svg	stimuli_distractor_trianglediamonds.svg	37	no	0	1	2000	0	0			0	0			1				0	
6.6.1	win	2023-06-27	10:52:41	10:57:31	273614	60c29201092d523e3b08a603	4	1	main_z	7	advance_on_keypress_ZEE	92	stimuli_distractor_diamondtriangles.svg	stimuli_distractor_trianglediamonds.svg	37	no	57	0	288	0	0			0	0			1				0	
6.6.1	win	2023-06-27	10:52:41	10:57:32	274988	60c29201092d523e3b08a603	4	1	main_z	7	main_z	93	stimuli_target_diamondrectangles.svg	stimuli_distractor_diamondtriangles.svg	23	yes	44	1	442	0	0			0	0			1				0	
6.6.1	win	2023-06-27	10:52:41	10:57:32	274988	60c29201092d523e3b08a603	4	1	main_z	7	advance_on_keypress_ZEE	94	stimuli_target_diamondrectangles.svg	stimuli_distractor_diamondtriangles.svg	23	yes	57	0	210	0	0			0	0			1				0	
6.6.1	win	2023-06-27	10:52:41	10:57:35	277837	60c29201092d523e3b08a603	4	1	main_z	7	main_z	95	stimuli_distractor_diamondtriangles.svg	stimuli_distractor_diamondtriangles.svg	40	no	0	1	2000	0	0			0	0			1				0	
6.6.1	win	2023-06-27	10:52:41	10:57:35	277837	60c29201092d523e3b08a603	4	1	main_z	7	advance_on_keypress_ZEE	96	stimuli_distractor_diamondtriangles.svg	stimuli_distractor_diamondtriangles.svg	40	no	57	0	497	0	0			0	0			1				0	
6.6.1	win	2023-06-27	10:52:41	10:57:37	279533	60c29201092d523e3b08a603	4	1	main_z	7	main_z	97	stimuli_distractor_trianglediamonds.svg	stimuli_target_trianglesquares.svg	26	yes	44	1	561	0	0			0	0			1				0	
6.6.1	win	2023-06-27	10:52:41	10:57:37	279533	60c29201092d523e3b08a603	4	1	main_z	7	advance_on_keypress_ZEE	98	stimuli_distractor_trianglediamonds.svg	stimuli_target_trianglesquares.svg	26	yes	57	0	228	0	0			0	0			1				0	
6.6.1	win	2023-06-27	10:52:41	10:57:38	281045	60c29201092d523e3b08a603	4	1	main_z	7	main_z	99	stimuli_distractor_diamondtriangles.svg	stimuli_target_squaretriangles.svg	15	yes	44	1	649	0	0			0	0			1				0	
6.6.1	win	2023-06-27	10:52:41	10:57:38	281045	60c29201092d523e3b08a603	4	1	main_z	7	advance_on_keypress_ZEE	100	stimuli_distractor_diamondtriangles.svg	stimuli_target_squaretriangles.svg	15	yes	57	0	255	0	0			0	0			1				0	
6.6.1	win	2023-06-27	10:52:41	10:57:40	282725	60c29201092d523e3b08a603	4	1	main_z	7	main_z	101	stimuli_distractor_trianglediamonds.svg	stimuli_target_rectangletriangles.svg	9	yes	44	1	786	0	0			0	0			1				0	
6.6.1	win	2023-06-27	10:52:41	10:57:40	282725	60c29201092d523e3b08a603	4	1	main_z	7	advance_on_keypress_ZEE	102	stimuli_distractor_trianglediamonds.svg	stimuli_target_rectangletriangles.svg	9	yes	57	0	195	0	0			0	0			1				0	
6.6.1	win	2023-06-27	10:52:41	10:57:41	284149	60c29201092d523e3b08a603	4	1	main_z	7	main_z	103	stimuli_distractor_trianglediamonds.svg	stimuli_target_squarediamonds.svg	12	yes	44	1	601	0	0			0	0			1				0	
6.6.1	win	2023-06-27	10:52:41	10:57:41	284149	60c29201092d523e3b08a603	4	1	main_z	7	advance_on_keypress_ZEE	104	stimuli_distractor_trianglediamonds.svg	stimuli_target_squarediamonds.svg	12	yes	57	0	91	0	0			0	0			1				0	
6.6.1	win	2023-06-27	10:52:41	10:57:43	285661	60c29201092d523e3b08a603	4	1	main_z	7	main_z	105	stimuli_target_diamondsquares.svg	stimuli_distractor_trianglediamonds.svg	20	yes	44	1	789	0	0			0	0			1				0	
6.6.1	win	2023-06-27	10:52:41	10:57:43	285661	60c29201092d523e3b08a603	4	1	main_z	7	advance_on_keypress_ZEE	106	stimuli_target_diamondsquares.svg	stimuli_distractor_trianglediamonds.svg	20	yes	57	0	429	0	0			0	0			1				0	
6.6.1	win	2023-06-27	10:52:41	10:57:44	287293	60c29201092d523e3b08a603	4	1	main_z	7	main_z	107	stimuli_target_rectanglediamonds.svg	stimuli_distractor_trianglediamonds.svg	2	yes	44	1	561	0	0			0	0			1				0	
6.6.1	win	2023-06-27	10:52:41	10:57:44	287293	60c29201092d523e3b08a603	4	1	main_z	7	advance_on_keypress_ZEE	108	stimuli_target_rectanglediamonds.svg	stimuli_distractor_trianglediamonds.svg	2	yes	57	0	132	0	0			0	0			1				0	
6.6.1	win	2023-06-27	10:52:41	10:57:47	290056	60c29201092d523e3b08a603	4	1	main_z	7	main_z	109	stimuli_distractor_trianglediamonds.svg	stimuli_distractor_diamondtriangles.svg	35	no	0	1	2000	0	0			0	0			1				0	
6.6.1	win	2023-06-27	10:52:41	10:57:47	290056	60c29201092d523e3b08a603	4	1	main_z	7	advance_on_keypress_ZEE	110	stimuli_distractor_trianglediamonds.svg	stimuli_distractor_diamondtriangles.svg	35	no	57	0	438	0	0			0	0			1				0	
6.6.1	win	2023-06-27	10:52:41	10:57:50	293140	60c29201092d523e3b08a603	4	1	main_z	7	main_z	111	stimuli_distractor_diamondtriangles.svg	stimuli_distractor_diamondtriangles.svg	39	no	0	1	2000	0	0			0	0			1				0	
6.6.1	win	2023-06-27	10:52:41	10:57:50	293140	60c29201092d523e3b08a603	4	1	main_z	7	advance_on_keypress_ZEE	112	stimuli_distractor_diamondtriangles.svg	stimuli_distractor_diamondtriangles.svg	39	no	57	0	234	0	0			0	0			1				0	
6.6.1	win	2023-06-27	10:52:41	10:57:51	294437	60c29201092d523e3b08a603	4	1	main_z	7	main_z	113	stimuli_target_squaretriangles.svg	stimuli_distractor_diamondtriangles.svg	7	yes	44	1	414	0	0			0	0			1				0	
6.6.1	win	2023-06-27	10:52:41	10:57:51	294437	60c29201092d523e3b08a603	4	1	main_z	7	advance_on_keypress_ZEE	114	stimuli_target_squaretriangles.svg	stimuli_distractor_diamondtriangles.svg	7	yes	57	0	271	0	0			0	0			1				0	
6.6.1	win	2023-06-27	10:52:41	10:57:53	295853	60c29201092d523e3b08a603	4	1	main_z	7	main_z	115	stimuli_target_diamondsquares.svg	stimuli_distractor_diamondtriangles.svg	24	yes	44	1	506	0	0			0	0			1				0	
6.6.1	win	2023-06-27	10:52:41	10:57:53	295853	60c29201092d523e3b08a603	4	1	main_z	7	advance_on_keypress_ZEE	116	stimuli_target_diamondsquares.svg	stimuli_distractor_diamondtriangles.svg	24	yes	57	0	135	0	0			0	0			1				0	
6.6.1	win	2023-06-27	10:52:41	10:57:54	297189	60c29201092d523e3b08a603	4	1	main_z	7	main_z	117	stimuli_distractor_trianglediamonds.svg	stimuli_target_trianglerectangles.svg	25	yes	44	1	551	0	0			0	0			1				0	
6.6.1	win	2023-06-27	10:52:41	10:57:54	297189	60c29201092d523e3b08a603	4	1	main_z	7	advance_on_keypress_ZEE	118	stimuli_distractor_trianglediamonds.svg	stimuli_target_trianglerectangles.svg	25	yes	57	0	195	0	0			0	0			1				0	
6.6.1	win	2023-06-27	10:52:41	10:57:57	300012	60c29201092d523e3b08a603	4	1	main_z	7	main_z	119	stimuli_distractor_trianglediamonds.svg	stimuli_distractor_diamondtriangles.svg	36	no	0	1	2000	0	0			0	0			1				0	
6.6.1	win	2023-06-27	10:52:41	10:57:57	300012	60c29201092d523e3b08a603	4	1	main_z	7	advance_on_keypress_ZEE	120	stimuli_distractor_trianglediamonds.svg	stimuli_distractor_diamondtriangles.svg	36	no	57	0	418	0	0			0	0			1				0	
6.6.1	win	2023-06-27	10:52:41	10:57:59	301573	60c29201092d523e3b08a603	4	1	main_z	7	main_z	121	stimuli_target_diamondrectangles.svg	stimuli_distractor_trianglediamonds.svg	19	yes	44	1	494	0	0			0	0			1				0	
6.6.1	win	2023-06-27	10:52:41	10:57:59	301573	60c29201092d523e3b08a603	4	1	main_z	7	advance_on_keypress_ZEE	122	stimuli_target_diamondrectangles.svg	stimuli_distractor_trianglediamonds.svg	19	yes	57	0	163	0	0			0	0			1				0	
6.6.1	win	2023-06-27	10:52:41	10:58:00	302877	60c29201092d523e3b08a603	4	1	main_z	7	main_z	123	stimuli_distractor_trianglediamonds.svg	stimuli_target_rectanglediamonds.svg	10	yes	44	1	507	0	0			0	0			1				0	
6.6.1	win	2023-06-27	10:52:41	10:58:00	302877	60c29201092d523e3b08a603	4	1	main_z	7	advance_on_keypress_ZEE	124	stimuli_distractor_trianglediamonds.svg	stimuli_target_rectanglediamonds.svg	10	yes	57	0	168	0	0			0	0			1				0	
6.6.1	win	2023-06-27	10:52:41	10:58:01	304269	60c29201092d523e3b08a603	4	1	main_z	7	main_z	125	stimuli_distractor_diamondtriangles.svg	stimuli_target_diamondsquares.svg	32	yes	44	1	575	0	0			0	0			1				0	
6.6.1	win	2023-06-27	10:52:41	10:58:01	304269	60c29201092d523e3b08a603	4	1	main_z	7	advance_on_keypress_ZEE	126	stimuli_distractor_diamondtriangles.svg	stimuli_target_diamondsquares.svg	32	yes	57	0	233	0	0			0	0			1				0	
6.6.1	win	2023-06-27	10:52:41	10:58:03	305621	60c29201092d523e3b08a603	4	1	main_z	7	main_z	127	stimuli_distractor_trianglediamonds.svg	stimuli_target_squaretriangles.svg	11	yes	44	1	469	0	0			0	0			1				0	
6.6.1	win	2023-06-27	10:52:41	10:58:03	305621	60c29201092d523e3b08a603	4	1	main_z	7	advance_on_keypress_ZEE	128	stimuli_distractor_trianglediamonds.svg	stimuli_target_squaretriangles.svg	11	yes	57	0	156	0	0			0	0			1				0	
6.6.1	win	2023-06-27	10:52:41	10:58:05	307709	60c29201092d523e3b08a603	4	1	main_z	7	main_z	129	stimuli_target_rectangletriangles.svg	stimuli_distractor_diamondtriangles.svg	5	yes	44	1	1300	0	0			0	0			1				0	
6.6.1	win	2023-06-27	10:52:41	10:58:05	307709	60c29201092d523e3b08a603	4	1	main_z	7	advance_on_keypress_ZEE	130	stimuli_target_rectangletriangles.svg	stimuli_distractor_diamondtriangles.svg	5	yes	57	0	245	0	0			0	0			1				0	
6.6.1	win	2023-06-27	10:52:41	10:58:06	309029	60c29201092d523e3b08a603	4	1	main_z	7	main_z	131	stimuli_distractor_diamondtriangles.svg	stimuli_target_rectangletriangles.svg	13	yes	44	1	441	0	0			0	0			1				0	
6.6.1	win	2023-06-27	10:52:41	10:58:06	309029	60c29201092d523e3b08a603	4	1	main_z	7	advance_on_keypress_ZEE	132	stimuli_distractor_diamondtriangles.svg	stimuli_target_rectangletriangles.svg	13	yes	57	0	129	0	0			0	0			1				0	
6.6.1	win	2023-06-27	10:52:41	10:58:07	310181	60c29201092d523e3b08a603	4	1	main_z	7	main_z	133	stimuli_target_squaretriangles.svg	stimuli_distractor_trianglediamonds.svg	3	yes	44	1	386	0	0			0	0			1				0	
6.6.1	win	2023-06-27	10:52:41	10:58:07	310181	60c29201092d523e3b08a603	4	1	main_z	7	advance_on_keypress_ZEE	134	stimuli_target_squaretriangles.svg	stimuli_distractor_trianglediamonds.svg	3	yes	57	0	117	0	0			0	0			1				0	
6.6.1	win	2023-06-27	10:52:41	10:58:08	311301	60c29201092d523e3b08a603	4	1	main_z	7	main_z	135	stimuli_target_rectanglediamonds.svg	stimuli_distractor_diamondtriangles.svg	6	yes	44	1	366	0	0			0	0			1				0	
6.6.1	win	2023-06-27	10:52:41	10:58:08	311301	60c29201092d523e3b08a603	4	1	main_z	7	advance_on_keypress_ZEE	136	stimuli_target_rectanglediamonds.svg	stimuli_distractor_diamondtriangles.svg	6	yes	57	0	138	0	0			0	0			1				0	
6.6.1	win	2023-06-27	10:52:41	10:58:10	312525	60c29201092d523e3b08a603	4	1	main_z	7	main_z	137	stimuli_distractor_diamondtriangles.svg	stimuli_target_trianglesquares.svg	30	yes	44	1	451	0	0			0	0			1				0	
6.6.1	win	2023-06-27	10:52:41	10:58:10	312525	60c29201092d523e3b08a603	4	1	main_z	7	advance_on_keypress_ZEE	138	stimuli_distractor_diamondtriangles.svg	stimuli_target_trianglesquares.svg	30	yes	57	0	155	0	0			0	0			1				0	
6.6.1	win	2023-06-27	10:52:41	10:58:11	313749	60c29201092d523e3b08a603	4	1	main_z	7	main_z	139	stimuli_distractor_diamondtriangles.svg	stimuli_target_diamondrectangles.svg	31	yes	44	1	434	0	0			0	0			1				0	
6.6.1	win	2023-06-27	10:52:41	10:58:11	313749	60c29201092d523e3b08a603	4	1	main_z	7	advance_on_keypress_ZEE	140	stimuli_distractor_diamondtriangles.svg	stimuli_target_diamondrectangles.svg	31	yes	57	0	107	0	0			0	0			1				0	
6.6.1	win	2023-06-27	10:52:41	10:58:12	314948	60c29201092d523e3b08a603	4	1	main_z	7	main_z	141	stimuli_distractor_diamondtriangles.svg	stimuli_distractor_trianglediamonds.svg	38	no	44	0	461	0	0			0	0			1				0	
6.6.1	win	2023-06-27	10:52:41	10:58:12	314948	60c29201092d523e3b08a603	4	1	main_z	7	advance_on_keypress_ZEE	142	stimuli_distractor_diamondtriangles.svg	stimuli_distractor_trianglediamonds.svg	38	no	57	0	148	0	0			0	0			1				0	
6.6.1	win	2023-06-27	10:52:41	10:58:13	316234	60c29201092d523e3b08a603	4	1	main_z	7	main_z	143	stimuli_target_rectangletriangles.svg	stimuli_distractor_trianglediamonds.svg	1	yes	44	1	501	0	0			0	0			1				0	
6.6.1	win	2023-06-27	10:52:41	10:58:13	316234	60c29201092d523e3b08a603	4	1	main_z	7	advance_on_keypress_ZEE	144	stimuli_target_rectangletriangles.svg	stimuli_distractor_trianglediamonds.svg	1	yes	57	0	98	0	0			0	0			1				0	
6.6.1	win	2023-06-27	10:52:41	10:58:14	317356	60c29201092d523e3b08a603	4	1	main_z	7	main_z	145	stimuli_target_trianglerectangles.svg	stimuli_distractor_trianglediamonds.svg	17	yes	44	1	389	0	0			0	0			1				0	
6.6.1	win	2023-06-27	10:52:41	10:58:14	317356	60c29201092d523e3b08a603	4	1	main_z	7	advance_on_keypress_ZEE	146	stimuli_target_trianglerectangles.svg	stimuli_distractor_trianglediamonds.svg	17	yes	57	0	167	0	0			0	0			1				0	
6.6.1	win	2023-06-27	10:52:41	10:58:16	318629	60c29201092d523e3b08a603	4	1	main_z	7	main_z	147	stimuli_distractor_trianglediamonds.svg	stimuli_distractor_trianglediamonds.svg	33	no	44	0	454	0	0			0	0			1				0	
6.6.1	win	2023-06-27	10:52:41	10:58:16	318629	60c29201092d523e3b08a603	4	1	main_z	7	advance_on_keypress_ZEE	148	stimuli_distractor_trianglediamonds.svg	stimuli_distractor_trianglediamonds.svg	33	no	57	0	149	0	0			0	0			1				0	
6.6.1	win	2023-06-27	10:52:41	10:58:17	319884	60c29201092d523e3b08a603	4	1	main_z	7	main_z	149	stimuli_target_trianglesquares.svg	stimuli_distractor_diamondtriangles.svg	22	yes	44	1	453	0	0			0	0			1				0	
6.6.1	win	2023-06-27	10:52:41	10:58:17	319884	60c29201092d523e3b08a603	4	1	main_z	7	advance_on_keypress_ZEE	150	stimuli_target_trianglesquares.svg	stimuli_distractor_diamondtriangles.svg	22	yes	57	0	93	0	0			0	0			1				0	
6.6.1	win	2023-06-27	10:52:41	10:58:18	320988	60c29201092d523e3b08a603	4	1	main_z	7	main_z	151	stimuli_target_squarediamonds.svg	stimuli_distractor_trianglediamonds.svg	4	yes	44	1	383	0	0			0	0			1				0	
6.6.1	win	2023-06-27	10:52:41	10:58:18	320988	60c29201092d523e3b08a603	4	1	main_z	7	advance_on_keypress_ZEE	152	stimuli_target_squarediamonds.svg	stimuli_distractor_trianglediamonds.svg	4	yes	57	0	162	0	0			0	0			1				0	
6.6.1	win	2023-06-27	10:52:41	10:58:19	322205	60c29201092d523e3b08a603	4	1	main_z	7	main_z	153	stimuli_distractor_trianglediamonds.svg	stimuli_target_diamondsquares.svg	28	yes	44	1	426	0	0			0	0			1				0	
6.6.1	win	2023-06-27	10:52:41	10:58:19	322205	60c29201092d523e3b08a603	4	1	main_z	7	advance_on_keypress_ZEE	154	stimuli_distractor_trianglediamonds.svg	stimuli_target_diamondsquares.svg	28	yes	57	0	139	0	0			0	0			1				0	
6.6.1	win	2023-06-27	10:52:41	10:58:20	323357	60c29201092d523e3b08a603	4	1	main_z	7	main_z	155	stimuli_distractor_diamondtriangles.svg	stimuli_target_squarediamonds.svg	16	yes	44	1	371	0	0			0	0			1				0	
6.6.1	win	2023-06-27	10:52:41	10:58:20	323357	60c29201092d523e3b08a603	4	1	main_z	7	advance_on_keypress_ZEE	156	stimuli_distractor_diamondtriangles.svg	stimuli_target_squarediamonds.svg	16	yes	57	0	110	0	0			0	0			1				0	
6.6.1	win	2023-06-27	10:52:41	10:58:22	324765	60c29201092d523e3b08a603	4	1	main_z	7	main_z	157	stimuli_target_trianglerectangles.svg	stimuli_distractor_diamondtriangles.svg	21	yes	44	1	656	0	0			0	0			1				0	
6.6.1	win	2023-06-27	10:52:41	10:58:22	324765	60c29201092d523e3b08a603	4	1	main_z	7	advance_on_keypress_ZEE	158	stimuli_target_trianglerectangles.svg	stimuli_distractor_diamondtriangles.svg	21	yes	57	0	87	0	0			0	0			1				0	
6.6.1	win	2023-06-27	10:52:41	10:58:23	325909	60c29201092d523e3b08a603	4	1	main_z	7	main_z	159	stimuli_target_squarediamonds.svg	stimuli_distractor_diamondtriangles.svg	8	yes	44	1	409	0	0			0	0			1				0	
6.6.1	win	2023-06-27	10:52:41	10:58:23	325909	60c29201092d523e3b08a603	4	1	main_z	7	advance_on_keypress_ZEE	160	stimuli_target_squarediamonds.svg	stimuli_distractor_diamondtriangles.svg	8	yes	57	0	139	0	0			0	0			1				0	
6.6.1	win	2023-06-27	10:52:41	10:58:37	340357	60c29201092d523e3b08a603	4	1	practice_slash	9	practice_slash	1	stimuli_distractor_diamondtriangles.svg	stimuli_target_trianglerectangles.svg	9	yes	53	1	516	0	0			0	0			1				0	
6.6.1	win	2023-06-27	10:52:41	10:58:37	340357	60c29201092d523e3b08a603	4	1	practice_slash	9	advance_on_keypress_SLASH	2	stimuli_distractor_diamondtriangles.svg	stimuli_target_trianglerectangles.svg	9	yes	57	0	555	0	0			0	0			1				0	
6.6.1	win	2023-06-27	10:52:41	10:58:40	342997	60c29201092d523e3b08a603	4	1	practice_slash	9	practice_slash	3	stimuli_target_squarediamonds.svg	stimuli_distractor_diamondtriangles.svg	2	yes	53	1	440	0	0			0	0			1				0	
6.6.1	win	2023-06-27	10:52:41	10:58:40	342997	60c29201092d523e3b08a603	4	1	practice_slash	9	advance_on_keypress_SLASH	4	stimuli_target_squarediamonds.svg	stimuli_distractor_diamondtriangles.svg	2	yes	57	0	388	0	0			0	0			1				0	
6.6.1	win	2023-06-27	10:52:41	10:58:43	345589	60c29201092d523e3b08a603	4	1	practice_slash	9	practice_slash	5	stimuli_distractor_diamondtriangles.svg	stimuli_distractor_trianglediamonds.svg	14	no	53	0	569	0	0			0	0			1				0	
6.6.1	win	2023-06-27	10:52:41	10:58:43	345589	60c29201092d523e3b08a603	4	1	practice_slash	9	advance_on_keypress_SLASH	6	stimuli_distractor_diamondtriangles.svg	stimuli_distractor_trianglediamonds.svg	14	no	57	0	406	0	0			0	0			1				0	
6.6.1	win	2023-06-27	10:52:41	10:58:47	349636	60c29201092d523e3b08a603	4	1	practice_slash	9	practice_slash	7	stimuli_distractor_trianglediamonds.svg	stimuli_distractor_trianglediamonds.svg	15	no	0	1	2000	0	0			0	0			1				0	
6.6.1	win	2023-06-27	10:52:41	10:58:47	349636	60c29201092d523e3b08a603	4	1	practice_slash	9	advance_on_keypress_SLASH	8	stimuli_distractor_trianglediamonds.svg	stimuli_distractor_trianglediamonds.svg	15	no	57	0	358	0	0			0	0			1				0	
6.6.1	win	2023-06-27	10:52:41	10:58:49	352061	60c29201092d523e3b08a603	4	1	practice_slash	9	practice_slash	9	stimuli_target_rectanglediamonds.svg	stimuli_distractor_diamondtriangles.svg	1	yes	53	1	420	0	0			0	0			1				0	
6.6.1	win	2023-06-27	10:52:41	10:58:49	352061	60c29201092d523e3b08a603	4	1	practice_slash	9	advance_on_keypress_SLASH	10	stimuli_target_rectanglediamonds.svg	stimuli_distractor_diamondtriangles.svg	1	yes	57	0	208	0	0			0	0			1				0	
6.6.1	win	2023-06-27	10:52:41	10:58:52	354957	60c29201092d523e3b08a603	4	1	practice_slash	9	practice_slash	11	stimuli_distractor_trianglediamonds.svg	stimuli_target_diamondrectangles.svg	12	yes	53	1	1053	0	0			0	0			1				0	
6.6.1	win	2023-06-27	10:52:41	10:58:52	354957	60c29201092d523e3b08a603	4	1	practice_slash	9	advance_on_keypress_SLASH	12	stimuli_distractor_trianglediamonds.svg	stimuli_target_diamondrectangles.svg	12	yes	57	0	684	0	0			0	0			1				0	
6.6.1	win	2023-06-27	10:52:41	10:58:55	357941	60c29201092d523e3b08a603	4	1	practice_slash	9	practice_slash	13	stimuli_distractor_trianglediamonds.svg	stimuli_target_rectanglediamonds.svg	10	yes	53	1	652	0	0			0	0			1				0	
6.6.1	win	2023-06-27	10:52:41	10:58:55	357941	60c29201092d523e3b08a603	4	1	practice_slash	9	advance_on_keypress_SLASH	14	stimuli_distractor_trianglediamonds.svg	stimuli_target_rectanglediamonds.svg	10	yes	57	0	709	0	0			0	0			1				0	
6.6.1	win	2023-06-27	10:52:41	10:58:58	361037	60c29201092d523e3b08a603	4	1	practice_slash	9	practice_slash	15	stimuli_distractor_diamondtriangles.svg	stimuli_target_diamondrectangles.svg	8	yes	53	1	748	0	0			0	0			1				0	
6.6.1	win	2023-06-27	10:52:41	10:58:58	361037	60c29201092d523e3b08a603	4	1	practice_slash	9	advance_on_keypress_SLASH	16	stimuli_distractor_diamondtriangles.svg	stimuli_target_diamondrectangles.svg	8	yes	57	0	728	0	0			0	0			1				0	
6.6.1	win	2023-06-27	10:52:41	10:59:01	364053	60c29201092d523e3b08a603	4	1	practice_slash	9	practice_slash	17	stimuli_target_rectanglediamonds.svg	stimuli_distractor_trianglediamonds.svg	4	yes	53	1	646	0	0			0	0			1				0	
6.6.1	win	2023-06-27	10:52:41	10:59:01	364053	60c29201092d523e3b08a603	4	1	practice_slash	9	advance_on_keypress_SLASH	18	stimuli_target_rectanglediamonds.svg	stimuli_distractor_trianglediamonds.svg	4	yes	57	0	567	0	0			0	0			1				0	
6.6.1	win	2023-06-27	10:52:41	10:59:04	366861	60c29201092d523e3b08a603	4	1	practice_slash	9	practice_slash	19	stimuli_target_diamondsquares.svg	stimuli_distractor_diamondtriangles.svg	3	yes	53	1	588	0	0			0	0			1				0	
6.6.1	win	2023-06-27	10:52:41	10:59:04	366861	60c29201092d523e3b08a603	4	1	practice_slash	9	advance_on_keypress_SLASH	20	stimuli_target_diamondsquares.svg	stimuli_distractor_diamondtriangles.svg	3	yes	57	0	480	0	0			0	0			1				0	
6.6.1	win	2023-06-27	10:52:41	10:59:07	369501	60c29201092d523e3b08a603	4	1	practice_slash	9	practice_slash	21	stimuli_target_squarediamonds.svg	stimuli_distractor_trianglediamonds.svg	5	yes	53	1	530	0	0			0	0			1				0	
6.6.1	win	2023-06-27	10:52:41	10:59:07	369501	60c29201092d523e3b08a603	4	1	practice_slash	9	advance_on_keypress_SLASH	22	stimuli_target_squarediamonds.svg	stimuli_distractor_trianglediamonds.svg	5	yes	57	0	1176	0	0			0	0			1				0	
6.6.1	win	2023-06-27	10:52:41	10:59:11	374324	60c29201092d523e3b08a603	4	1	practice_slash	9	practice_slash	23	stimuli_target_diamondsquares.svg	stimuli_distractor_trianglediamonds.svg	6	yes	0	0	2000	0	0			0	0			1				0	
6.6.1	win	2023-06-27	10:52:41	10:59:11	374324	60c29201092d523e3b08a603	4	1	practice_slash	9	advance_on_keypress_SLASH	24	stimuli_target_diamondsquares.svg	stimuli_distractor_trianglediamonds.svg	6	yes	57	0	605	0	0			0	0			1				0	
6.6.1	win	2023-06-27	10:52:41	10:59:16	378582	60c29201092d523e3b08a603	4	1	practice_slash	9	practice_slash	25	stimuli_distractor_diamondtriangles.svg	stimuli_distractor_diamondtriangles.svg	13	no	0	1	2000	0	0			0	0			1				0	
6.6.1	win	2023-06-27	10:52:41	10:59:16	378582	60c29201092d523e3b08a603	4	1	practice_slash	9	advance_on_keypress_SLASH	26	stimuli_distractor_diamondtriangles.svg	stimuli_distractor_diamondtriangles.svg	13	no	57	0	492	0	0			0	0			1				0	
6.6.1	win	2023-06-27	10:52:41	10:59:18	381286	60c29201092d523e3b08a603	4	1	practice_slash	9	practice_slash	27	stimuli_distractor_trianglediamonds.svg	stimuli_target_squarediamonds.svg	11	yes	53	1	564	0	0			0	0			1				0	
6.6.1	win	2023-06-27	10:52:41	10:59:18	381286	60c29201092d523e3b08a603	4	1	practice_slash	9	advance_on_keypress_SLASH	28	stimuli_distractor_trianglediamonds.svg	stimuli_target_squarediamonds.svg	11	yes	57	0	1057	0	0			0	0			1				0	
6.6.1	win	2023-06-27	10:52:41	10:59:22	384613	60c29201092d523e3b08a603	4	1	practice_slash	9	practice_slash	29	stimuli_distractor_trianglediamonds.svg	stimuli_distractor_diamondtriangles.svg	16	no	53	0	624	0	0			0	0			1				0	
6.6.1	win	2023-06-27	10:52:41	10:59:22	384613	60c29201092d523e3b08a603	4	1	practice_slash	9	advance_on_keypress_SLASH	30	stimuli_distractor_trianglediamonds.svg	stimuli_distractor_diamondtriangles.svg	16	no	57	0	443	0	0			0	0			1				0	
6.6.1	win	2023-06-27	10:52:41	10:59:25	387518	60c29201092d523e3b08a603	4	1	practice_slash	9	practice_slash	31	stimuli_distractor_diamondtriangles.svg	stimuli_target_rectangletriangles.svg	7	yes	53	1	829	0	0			0	0			1				0	
6.6.1	win	2023-06-27	10:52:41	10:59:25	387518	60c29201092d523e3b08a603	4	1	practice_slash	9	advance_on_keypress_SLASH	32	stimuli_distractor_diamondtriangles.svg	stimuli_target_rectangletriangles.svg	7	yes	57	0	606	0	0			0	0			1				0	
6.6.1	win	2023-06-27	10:52:41	10:59:29	392148	60c29201092d523e3b08a603	4	1	main_slash	11	main_slash	1	stimuli_distractor_trianglediamonds.svg	stimuli_target_diamondsquares.svg	28	yes	53	1	1031	0	0			0	0			1				0	
6.6.1	win	2023-06-27	10:52:41	10:59:29	392148	60c29201092d523e3b08a603	4	1	main_slash	11	advance_on_keypress_SLASH	2	stimuli_distractor_trianglediamonds.svg	stimuli_target_diamondsquares.svg	28	yes	57	0	516	0	0			0	0			1				0	
6.6.1	win	2023-06-27	10:52:41	10:59:31	393765	60c29201092d523e3b08a603	4	1	main_slash	11	main_slash	3	stimuli_distractor_diamondtriangles.svg	stimuli_target_diamondsquares.svg	32	yes	53	1	468	0	0			0	0			1				0	
6.6.1	win	2023-06-27	10:52:41	10:59:31	393765	60c29201092d523e3b08a603	4	1	main_slash	11	advance_on_keypress_SLASH	4	stimuli_distractor_diamondtriangles.svg	stimuli_target_diamondsquares.svg	32	yes	57	0	643	0	0			0	0			1				0	
6.6.1	win	2023-06-27	10:52:41	10:59:32	395435	60c29201092d523e3b08a603	4	1	main_slash	11	main_slash	5	stimuli_distractor_diamondtriangles.svg	stimuli_target_squarediamonds.svg	16	yes	53	1	364	0	0			0	0			1				0	
6.6.1	win	2023-06-27	10:52:41	10:59:32	395435	60c29201092d523e3b08a603	4	1	main_slash	11	advance_on_keypress_SLASH	6	stimuli_distractor_diamondtriangles.svg	stimuli_target_squarediamonds.svg	16	yes	57	0	519	0	0			0	0			1				0	
6.6.1	win	2023-06-27	10:52:41	10:59:36	398609	60c29201092d523e3b08a603	4	1	main_slash	11	main_slash	7	stimuli_target_trianglerectangles.svg	stimuli_distractor_diamondtriangles.svg	21	yes	0	0	2000	0	0			0	0			1				0	
6.6.1	win	2023-06-27	10:52:41	10:59:36	398609	60c29201092d523e3b08a603	4	1	main_slash	11	advance_on_keypress_SLASH	8	stimuli_target_trianglerectangles.svg	stimuli_distractor_diamondtriangles.svg	21	yes	57	0	399	0	0			0	0			1				0	
6.6.1	win	2023-06-27	10:52:41	10:59:38	400764	60c29201092d523e3b08a603	4	1	main_slash	11	main_slash	9	stimuli_distractor_diamondtriangles.svg	stimuli_target_trianglerectangles.svg	29	yes	53	1	1116	0	0			0	0			1				0	
6.6.1	win	2023-06-27	10:52:41	10:59:38	400764	60c29201092d523e3b08a603	4	1	main_slash	11	advance_on_keypress_SLASH	10	stimuli_distractor_diamondtriangles.svg	stimuli_target_trianglerectangles.svg	29	yes	57	0	765	0	0			0	0			1				0	
6.6.1	win	2023-06-27	10:52:41	10:59:40	402812	60c29201092d523e3b08a603	4	1	main_slash	11	main_slash	11	stimuli_target_rectangletriangles.svg	stimuli_distractor_trianglediamonds.svg	1	yes	53	1	650	0	0			0	0			1				0	
6.6.1	win	2023-06-27	10:52:41	10:59:40	402812	60c29201092d523e3b08a603	4	1	main_slash	11	advance_on_keypress_SLASH	12	stimuli_target_rectangletriangles.svg	stimuli_distractor_trianglediamonds.svg	1	yes	57	0	984	0	0			0	0			1				0	
6.6.1	win	2023-06-27	10:52:41	10:59:42	404901	60c29201092d523e3b08a603	4	1	main_slash	11	main_slash	13	stimuli_target_rectangletriangles.svg	stimuli_distractor_diamondtriangles.svg	5	yes	53	1	475	0	0			0	0			1				0	
6.6.1	win	2023-06-27	10:52:41	10:59:42	404901	60c29201092d523e3b08a603	4	1	main_slash	11	advance_on_keypress_SLASH	14	stimuli_target_rectangletriangles.svg	stimuli_distractor_diamondtriangles.svg	5	yes	57	0	457	0	0			0	0			1				0	
6.6.1	win	2023-06-27	10:52:41	10:59:44	406829	60c29201092d523e3b08a603	4	1	main_slash	11	main_slash	15	stimuli_distractor_diamondtriangles.svg	stimuli_distractor_trianglediamonds.svg	38	no	53	0	827	0	0			0	0			1				0	
6.6.1	win	2023-06-27	10:52:41	10:59:44	406829	60c29201092d523e3b08a603	4	1	main_slash	11	advance_on_keypress_SLASH	16	stimuli_distractor_diamondtriangles.svg	stimuli_distractor_trianglediamonds.svg	38	no	57	0	362	0	0			0	0			1				0	
6.6.1	win	2023-06-27	10:52:41	10:59:45	408404	60c29201092d523e3b08a603	4	1	main_slash	11	main_slash	17	stimuli_target_diamondsquares.svg	stimuli_distractor_diamondtriangles.svg	24	yes	53	1	576	0	0			0	0			1				0	
6.6.1	win	2023-06-27	10:52:41	10:59:45	408404	60c29201092d523e3b08a603	4	1	main_slash	11	advance_on_keypress_SLASH	18	stimuli_target_diamondsquares.svg	stimuli_distractor_diamondtriangles.svg	24	yes	57	0	330	0	0			0	0			1				0	
6.6.1	win	2023-06-27	10:52:41	10:59:47	409812	60c29201092d523e3b08a603	4	1	main_slash	11	main_slash	19	stimuli_target_diamondrectangles.svg	stimuli_distractor_trianglediamonds.svg	19	yes	53	1	442	0	0			0	0			1				0	
6.6.1	win	2023-06-27	10:52:41	10:59:47	409812	60c29201092d523e3b08a603	4	1	main_slash	11	advance_on_keypress_SLASH	20	stimuli_target_diamondrectangles.svg	stimuli_distractor_trianglediamonds.svg	19	yes	57	0	218	0	0			0	0			1				0	
6.6.1	win	2023-06-27	10:52:41	10:59:48	411052	60c29201092d523e3b08a603	4	1	main_slash	11	main_slash	21	stimuli_target_trianglerectangles.svg	stimuli_distractor_trianglediamonds.svg	17	yes	53	1	375	0	0			0	0			1				0	
6.6.1	win	2023-06-27	10:52:41	10:59:48	411052	60c29201092d523e3b08a603	4	1	main_slash	11	advance_on_keypress_SLASH	22	stimuli_target_trianglerectangles.svg	stimuli_distractor_trianglediamonds.svg	17	yes	57	0	146	0	0			0	0			1				0	
6.6.1	win	2023-06-27	10:52:41	10:59:49	412244	60c29201092d523e3b08a603	4	1	main_slash	11	main_slash	23	stimuli_target_rectanglediamonds.svg	stimuli_distractor_trianglediamonds.svg	2	yes	53	1	411	0	0			0	0			1				0	
6.6.1	win	2023-06-27	10:52:41	10:59:49	412244	60c29201092d523e3b08a603	4	1	main_slash	11	advance_on_keypress_SLASH	24	stimuli_target_rectanglediamonds.svg	stimuli_distractor_trianglediamonds.svg	2	yes	57	0	180	0	0			0	0			1				0	
6.6.1	win	2023-06-27	10:52:41	10:59:50	413477	60c29201092d523e3b08a603	4	1	main_slash	11	main_slash	25	stimuli_distractor_trianglediamonds.svg	stimuli_target_rectangletriangles.svg	9	yes	53	1	419	0	0			0	0			1				0	
6.6.1	win	2023-06-27	10:52:41	10:59:50	413477	60c29201092d523e3b08a603	4	1	main_slash	11	advance_on_keypress_SLASH	26	stimuli_distractor_trianglediamonds.svg	stimuli_target_rectangletriangles.svg	9	yes	57	0	181	0	0			0	0			1				0	
6.6.1	win	2023-06-27	10:52:41	10:59:52	414732	60c29201092d523e3b08a603	4	1	main_slash	11	main_slash	27	stimuli_distractor_diamondtriangles.svg	stimuli_target_trianglesquares.svg	30	yes	53	1	452	0	0			0	0			1				0	
6.6.1	win	2023-06-27	10:52:41	10:59:52	414732	60c29201092d523e3b08a603	4	1	main_slash	11	advance_on_keypress_SLASH	28	stimuli_distractor_diamondtriangles.svg	stimuli_target_trianglesquares.svg	30	yes	57	0	132	0	0			0	0			1				0	
6.6.1	win	2023-06-27	10:52:41	10:59:53	415868	60c29201092d523e3b08a603	4	1	main_slash	11	main_slash	29	stimuli_distractor_diamondtriangles.svg	stimuli_distractor_diamondtriangles.svg	39	no	53	0	381	0	0			0	0			1				0	
6.6.1	win	2023-06-27	10:52:41	10:59:53	415868	60c29201092d523e3b08a603	4	1	main_slash	11	advance_on_keypress_SLASH	30	stimuli_distractor_diamondtriangles.svg	stimuli_distractor_diamondtriangles.svg	39	no	57	0	496	0	0			0	0			1				0	
6.6.1	win	2023-06-27	10:52:41	10:59:54	417436	60c29201092d523e3b08a603	4	1	main_slash	11	main_slash	31	stimuli_distractor_diamondtriangles.svg	stimuli_target_rectangletriangles.svg	13	yes	53	1	440	0	0			0	0			1				0	
6.6.1	win	2023-06-27	10:52:41	10:59:54	417436	60c29201092d523e3b08a603	4	1	main_slash	11	advance_on_keypress_SLASH	32	stimuli_distractor_diamondtriangles.svg	stimuli_target_rectangletriangles.svg	13	yes	57	0	144	0	0			0	0			1				0	
6.6.1	win	2023-06-27	10:52:41	10:59:56	418620	60c29201092d523e3b08a603	4	1	main_slash	11	main_slash	33	stimuli_distractor_trianglediamonds.svg	stimuli_target_squarediamonds.svg	12	yes	53	1	401	0	0			0	0			1				0	
6.6.1	win	2023-06-27	10:52:41	10:59:56	418620	60c29201092d523e3b08a603	4	1	main_slash	11	advance_on_keypress_SLASH	34	stimuli_distractor_trianglediamonds.svg	stimuli_target_squarediamonds.svg	12	yes	57	0	115	0	0			0	0			1				0	
6.6.1	win	2023-06-27	10:52:41	10:59:57	419756	60c29201092d523e3b08a603	4	1	main_slash	11	main_slash	35	stimuli_target_rectanglediamonds.svg	stimuli_distractor_diamondtriangles.svg	6	yes	53	1	397	0	0			0	0			1				0	
6.6.1	win	2023-06-27	10:52:41	10:59:57	419756	60c29201092d523e3b08a603	4	1	main_slash	11	advance_on_keypress_SLASH	36	stimuli_target_rectanglediamonds.svg	stimuli_distractor_diamondtriangles.svg	6	yes	57	0	87	0	0			0	0			1				0	
6.6.1	win	2023-06-27	10:52:41	10:59:58	420916	60c29201092d523e3b08a603	4	1	main_slash	11	main_slash	37	stimuli_target_squaretriangles.svg	stimuli_distractor_trianglediamonds.svg	3	yes	53	1	434	0	0			0	0			1				0	
6.6.1	win	2023-06-27	10:52:41	10:59:58	420916	60c29201092d523e3b08a603	4	1	main_slash	11	advance_on_keypress_SLASH	38	stimuli_target_squaretriangles.svg	stimuli_distractor_trianglediamonds.svg	3	yes	57	0	91	0	0			0	0			1				0	
6.6.1	win	2023-06-27	10:52:41	10:59:59	422085	60c29201092d523e3b08a603	4	1	main_slash	11	main_slash	39	stimuli_target_diamondrectangles.svg	stimuli_distractor_diamondtriangles.svg	23	yes	53	1	446	0	0			0	0			1				0	
6.6.1	win	2023-06-27	10:52:41	10:59:59	422085	60c29201092d523e3b08a603	4	1	main_slash	11	advance_on_keypress_SLASH	40	stimuli_target_diamondrectangles.svg	stimuli_distractor_diamondtriangles.svg	23	yes	57	0	86	0	0			0	0			1				0	
6.6.1	win	2023-06-27	10:52:41	11:00:00	423300	60c29201092d523e3b08a603	4	1	main_slash	11	main_slash	41	stimuli_distractor_diamondtriangles.svg	stimuli_target_rectanglediamonds.svg	14	yes	53	1	487	0	0			0	0			1				0	
6.6.1	win	2023-06-27	10:52:41	11:00:00	423300	60c29201092d523e3b08a603	4	1	main_slash	11	advance_on_keypress_SLASH	42	stimuli_distractor_diamondtriangles.svg	stimuli_target_rectanglediamonds.svg	14	yes	57	0	70	0	0			0	0			1				0	
6.6.1	win	2023-06-27	10:52:41	11:00:01	424461	60c29201092d523e3b08a603	4	1	main_slash	11	main_slash	43	stimuli_target_squarediamonds.svg	stimuli_distractor_diamondtriangles.svg	8	yes	53	1	442	0	0			0	0			1				0	
6.6.1	win	2023-06-27	10:52:41	11:00:01	424461	60c29201092d523e3b08a603	4	1	main_slash	11	advance_on_keypress_SLASH	44	stimuli_target_squarediamonds.svg	stimuli_distractor_diamondtriangles.svg	8	yes	57	0	58	0	0			0	0			1				0	
6.6.1	win	2023-06-27	10:52:41	11:00:03	425621	60c29201092d523e3b08a603	4	1	main_slash	11	main_slash	45	stimuli_distractor_trianglediamonds.svg	stimuli_target_rectanglediamonds.svg	10	yes	53	1	462	0	0			0	0			1				0	
6.6.1	win	2023-06-27	10:52:41	11:00:03	425621	60c29201092d523e3b08a603	4	1	main_slash	11	advance_on_keypress_SLASH	46	stimuli_distractor_trianglediamonds.svg	stimuli_target_rectanglediamonds.svg	10	yes	57	0	93	0	0			0	0			1				0	
6.6.1	win	2023-06-27	10:52:41	11:00:04	426996	60c29201092d523e3b08a603	4	1	main_slash	11	main_slash	47	stimuli_distractor_diamondtriangles.svg	stimuli_target_diamondrectangles.svg	31	yes	53	1	647	0	0			0	0			1				0	
6.6.1	win	2023-06-27	10:52:41	11:00:04	426996	60c29201092d523e3b08a603	4	1	main_slash	11	advance_on_keypress_SLASH	48	stimuli_distractor_diamondtriangles.svg	stimuli_target_diamondrectangles.svg	31	yes	57	0	63	0	0			0	0			1				0	
6.6.1	win	2023-06-27	10:52:41	11:00:05	428284	60c29201092d523e3b08a603	4	1	main_slash	11	main_slash	49	stimuli_distractor_trianglediamonds.svg	stimuli_target_diamondrectangles.svg	27	yes	53	1	595	0	0			0	0			1				0	
6.6.1	win	2023-06-27	10:52:41	11:00:05	428284	60c29201092d523e3b08a603	4	1	main_slash	11	advance_on_keypress_SLASH	50	stimuli_distractor_trianglediamonds.svg	stimuli_target_diamondrectangles.svg	27	yes	57	0	84	0	0			0	0			1				0	
6.6.1	win	2023-06-27	10:52:41	11:00:07	429532	60c29201092d523e3b08a603	4	1	main_slash	11	main_slash	51	stimuli_target_trianglesquares.svg	stimuli_distractor_diamondtriangles.svg	22	yes	53	1	519	0	0			0	0			1				0	
6.6.1	win	2023-06-27	10:52:41	11:00:07	429532	60c29201092d523e3b08a603	4	1	main_slash	11	advance_on_keypress_SLASH	52	stimuli_target_trianglesquares.svg	stimuli_distractor_diamondtriangles.svg	22	yes	57	0	76	0	0			0	0			1				0	
6.6.1	win	2023-06-27	10:52:41	11:00:09	432238	60c29201092d523e3b08a603	4	1	main_slash	11	main_slash	53	stimuli_distractor_trianglediamonds.svg	stimuli_distractor_trianglediamonds.svg	33	no	0	1	2000	0	0			0	0			1				0	
6.6.1	win	2023-06-27	10:52:41	11:00:09	432238	60c29201092d523e3b08a603	4	1	main_slash	11	advance_on_keypress_SLASH	54	stimuli_distractor_trianglediamonds.svg	stimuli_distractor_trianglediamonds.svg	33	no	57	0	480	0	0			0	0			1				0	
6.6.1	win	2023-06-27	10:52:41	11:00:11	433836	60c29201092d523e3b08a603	4	1	main_slash	11	main_slash	55	stimuli_target_squaretriangles.svg	stimuli_distractor_diamondtriangles.svg	7	yes	53	1	482	0	0			0	0			1				0	
6.6.1	win	2023-06-27	10:52:41	11:00:11	433836	60c29201092d523e3b08a603	4	1	main_slash	11	advance_on_keypress_SLASH	56	stimuli_target_squaretriangles.svg	stimuli_distractor_diamondtriangles.svg	7	yes	57	0	111	0	0			0	0			1				0	
6.6.1	win	2023-06-27	10:52:41	11:00:14	436579	60c29201092d523e3b08a603	4	1	main_slash	11	main_slash	57	stimuli_distractor_trianglediamonds.svg	stimuli_distractor_trianglediamonds.svg	34	no	0	1	2000	0	0			0	0			1				0	
6.6.1	win	2023-06-27	10:52:41	11:00:14	436579	60c29201092d523e3b08a603	4	1	main_slash	11	advance_on_keypress_SLASH	58	stimuli_distractor_trianglediamonds.svg	stimuli_distractor_trianglediamonds.svg	34	no	57	0	474	0	0			0	0			1				0	
6.6.1	win	2023-06-27	10:52:41	11:00:15	438308	60c29201092d523e3b08a603	4	1	main_slash	11	main_slash	59	stimuli_distractor_trianglediamonds.svg	stimuli_target_trianglerectangles.svg	25	yes	53	1	613	0	0			0	0			1				0	
6.6.1	win	2023-06-27	10:52:41	11:00:15	438308	60c29201092d523e3b08a603	4	1	main_slash	11	advance_on_keypress_SLASH	60	stimuli_distractor_trianglediamonds.svg	stimuli_target_trianglerectangles.svg	25	yes	57	0	93	0	0			0	0			1				0	
6.6.1	win	2023-06-27	10:52:41	11:00:16	439468	60c29201092d523e3b08a603	4	1	main_slash	11	main_slash	61	stimuli_distractor_diamondtriangles.svg	stimuli_target_squaretriangles.svg	15	yes	53	1	432	0	0			0	0			1				0	
6.6.1	win	2023-06-27	10:52:41	11:00:16	439468	60c29201092d523e3b08a603	4	1	main_slash	11	advance_on_keypress_SLASH	62	stimuli_distractor_diamondtriangles.svg	stimuli_target_squaretriangles.svg	15	yes	57	0	73	0	0			0	0			1				0	
6.6.1	win	2023-06-27	10:52:41	11:00:19	442177	60c29201092d523e3b08a603	4	1	main_slash	11	main_slash	63	stimuli_distractor_diamondtriangles.svg	stimuli_distractor_trianglediamonds.svg	37	no	0	1	2000	0	0			0	0			1				0	
6.6.1	win	2023-06-27	10:52:41	11:00:19	442177	60c29201092d523e3b08a603	4	1	main_slash	11	advance_on_keypress_SLASH	64	stimuli_distractor_diamondtriangles.svg	stimuli_distractor_trianglediamonds.svg	37	no	57	0	596	0	0			0	0			1				0	
6.6.1	win	2023-06-27	10:52:41	11:00:21	443988	60c29201092d523e3b08a603	4	1	main_slash	11	main_slash	65	stimuli_distractor_trianglediamonds.svg	stimuli_target_trianglesquares.svg	26	yes	53	1	576	0	0			0	0			1				0	
6.6.1	win	2023-06-27	10:52:41	11:00:21	443988	60c29201092d523e3b08a603	4	1	main_slash	11	advance_on_keypress_SLASH	66	stimuli_distractor_trianglediamonds.svg	stimuli_target_trianglesquares.svg	26	yes	57	0	115	0	0			0	0			1				0	
6.6.1	win	2023-06-27	10:52:41	11:00:24	446736	60c29201092d523e3b08a603	4	1	main_slash	11	main_slash	67	stimuli_distractor_trianglediamonds.svg	stimuli_distractor_diamondtriangles.svg	36	no	0	1	2000	0	0			0	0			1				0	
6.6.1	win	2023-06-27	10:52:41	11:00:24	446736	60c29201092d523e3b08a603	4	1	main_slash	11	advance_on_keypress_SLASH	68	stimuli_distractor_trianglediamonds.svg	stimuli_distractor_diamondtriangles.svg	36	no	57	0	502	0	0			0	0			1				0	
6.6.1	win	2023-06-27	10:52:41	11:00:27	449887	60c29201092d523e3b08a603	4	1	main_slash	11	main_slash	69	stimuli_distractor_trianglediamonds.svg	stimuli_distractor_diamondtriangles.svg	35	no	0	1	2000	0	0			0	0			1				0	
6.6.1	win	2023-06-27	10:52:41	11:00:27	449887	60c29201092d523e3b08a603	4	1	main_slash	11	advance_on_keypress_SLASH	70	stimuli_distractor_trianglediamonds.svg	stimuli_distractor_diamondtriangles.svg	35	no	57	0	415	0	0			0	0			1				0	
6.6.1	win	2023-06-27	10:52:41	11:00:28	451396	60c29201092d523e3b08a603	4	1	main_slash	11	main_slash	71	stimuli_target_squarediamonds.svg	stimuli_distractor_trianglediamonds.svg	4	yes	53	1	460	0	0			0	0			1				0	
6.6.1	win	2023-06-27	10:52:41	11:00:28	451396	60c29201092d523e3b08a603	4	1	main_slash	11	advance_on_keypress_SLASH	72	stimuli_target_squarediamonds.svg	stimuli_distractor_trianglediamonds.svg	4	yes	57	0	138	0	0			0	0			1				0	
6.6.1	win	2023-06-27	10:52:41	11:00:30	453212	60c29201092d523e3b08a603	4	1	main_slash	11	main_slash	73	stimuli_target_trianglesquares.svg	stimuli_distractor_trianglediamonds.svg	18	yes	53	1	1035	0	0			0	0			1				0	
6.6.1	win	2023-06-27	10:52:41	11:00:30	453212	60c29201092d523e3b08a603	4	1	main_slash	11	advance_on_keypress_SLASH	74	stimuli_target_trianglesquares.svg	stimuli_distractor_trianglediamonds.svg	18	yes	57	0	145	0	0			0	0			1				0	
6.6.1	win	2023-06-27	10:52:41	11:00:32	454756	60c29201092d523e3b08a603	4	1	main_slash	11	main_slash	75	stimuli_target_diamondsquares.svg	stimuli_distractor_trianglediamonds.svg	20	yes	53	1	768	0	0			0	0			1				0	
6.6.1	win	2023-06-27	10:52:41	11:00:32	454756	60c29201092d523e3b08a603	4	1	main_slash	11	advance_on_keypress_SLASH	76	stimuli_target_diamondsquares.svg	stimuli_distractor_trianglediamonds.svg	20	yes	57	0	131	0	0			0	0			1				0	
6.6.1	win	2023-06-27	10:52:41	11:00:34	456860	60c29201092d523e3b08a603	4	1	main_slash	11	main_slash	77	stimuli_distractor_diamondtriangles.svg	stimuli_distractor_diamondtriangles.svg	40	no	53	0	1347	0	0			0	0			1				0	
6.6.1	win	2023-06-27	10:52:41	11:00:34	456860	60c29201092d523e3b08a603	4	1	main_slash	11	advance_on_keypress_SLASH	78	stimuli_distractor_diamondtriangles.svg	stimuli_distractor_diamondtriangles.svg	40	no	57	0	114	0	0			0	0			1				0	
6.6.1	win	2023-06-27	10:52:41	11:00:35	458228	60c29201092d523e3b08a603	4	1	main_slash	11	main_slash	79	stimuli_distractor_trianglediamonds.svg	stimuli_target_squaretriangles.svg	11	yes	53	1	620	0	0			0	0			1				0	
6.6.1	win	2023-06-27	10:52:41	11:00:35	458228	60c29201092d523e3b08a603	4	1	main_slash	11	advance_on_keypress_SLASH	80	stimuli_distractor_trianglediamonds.svg	stimuli_target_squaretriangles.svg	11	yes	57	0	93	0	0			0	0			1				0	
6.6.1	win	2023-06-27	10:52:41	11:00:37	459564	60c29201092d523e3b08a603	4	1	main_slash	11	main_slash	81	stimuli_distractor_diamondtriangles.svg	stimuli_target_diamondsquares.svg	32	yes	53	1	615	0	0			0	0			1				0	
6.6.1	win	2023-06-27	10:52:41	11:00:37	459564	60c29201092d523e3b08a603	4	1	main_slash	11	advance_on_keypress_SLASH	82	stimuli_distractor_diamondtriangles.svg	stimuli_target_diamondsquares.svg	32	yes	57	0	111	0	0			0	0			1				0	
6.6.1	win	2023-06-27	10:52:41	11:00:38	461044	60c29201092d523e3b08a603	4	1	main_slash	11	main_slash	83	stimuli_distractor_diamondtriangles.svg	stimuli_target_trianglerectangles.svg	29	yes	53	1	737	0	0			0	0			1				0	
6.6.1	win	2023-06-27	10:52:41	11:00:38	461044	60c29201092d523e3b08a603	4	1	main_slash	11	advance_on_keypress_SLASH	84	stimuli_distractor_diamondtriangles.svg	stimuli_target_trianglerectangles.svg	29	yes	57	0	133	0	0			0	0			1				0	
6.6.1	win	2023-06-27	10:52:41	11:00:39	462332	60c29201092d523e3b08a603	4	1	main_slash	11	main_slash	85	stimuli_distractor_trianglediamonds.svg	stimuli_target_rectangletriangles.svg	9	yes	53	1	518	0	0			0	0			1				0	
6.6.1	win	2023-06-27	10:52:41	11:00:39	462332	60c29201092d523e3b08a603	4	1	main_slash	11	advance_on_keypress_SLASH	86	stimuli_distractor_trianglediamonds.svg	stimuli_target_rectangletriangles.svg	9	yes	57	0	186	0	0			0	0			1				0	
6.6.1	win	2023-06-27	10:52:41	11:00:42	465156	60c29201092d523e3b08a603	4	1	main_slash	11	main_slash	87	stimuli_distractor_diamondtriangles.svg	stimuli_distractor_trianglediamonds.svg	38	no	0	1	2000	0	0			0	0			1				0	
6.6.1	win	2023-06-27	10:52:41	11:00:42	465156	60c29201092d523e3b08a603	4	1	main_slash	11	advance_on_keypress_SLASH	88	stimuli_distractor_diamondtriangles.svg	stimuli_distractor_trianglediamonds.svg	38	no	57	0	473	0	0			0	0			1				0	
6.6.1	win	2023-06-27	10:52:41	11:00:44	466692	60c29201092d523e3b08a603	4	1	main_slash	11	main_slash	89	stimuli_target_rectanglediamonds.svg	stimuli_distractor_trianglediamonds.svg	2	yes	53	1	419	0	0			0	0			1				0	
6.6.1	win	2023-06-27	10:52:41	11:00:44	466692	60c29201092d523e3b08a603	4	1	main_slash	11	advance_on_keypress_SLASH	90	stimuli_target_rectanglediamonds.svg	stimuli_distractor_trianglediamonds.svg	2	yes	57	0	108	0	0			0	0			1				0	
6.6.1	win	2023-06-27	10:52:41	11:00:45	468028	60c29201092d523e3b08a603	4	1	main_slash	11	main_slash	91	stimuli_distractor_trianglediamonds.svg	stimuli_target_trianglerectangles.svg	25	yes	53	1	598	0	0			0	0			1				0	
6.6.1	win	2023-06-27	10:52:41	11:00:45	468028	60c29201092d523e3b08a603	4	1	main_slash	11	advance_on_keypress_SLASH	92	stimuli_distractor_trianglediamonds.svg	stimuli_target_trianglerectangles.svg	25	yes	57	0	119	0	0			0	0			1				0	
6.6.1	win	2023-06-27	10:52:41	11:00:46	469236	60c29201092d523e3b08a603	4	1	main_slash	11	main_slash	93	stimuli_distractor_diamondtriangles.svg	stimuli_target_rectangletriangles.svg	13	yes	53	1	450	0	0			0	0			1				0	
6.6.1	win	2023-06-27	10:52:41	11:00:46	469236	60c29201092d523e3b08a603	4	1	main_slash	11	advance_on_keypress_SLASH	94	stimuli_distractor_diamondtriangles.svg	stimuli_target_rectangletriangles.svg	13	yes	57	0	113	0	0			0	0			1				0	
6.6.1	win	2023-06-27	10:52:41	11:00:48	470540	60c29201092d523e3b08a603	4	1	main_slash	11	main_slash	95	stimuli_distractor_trianglediamonds.svg	stimuli_target_diamondrectangles.svg	27	yes	53	1	563	0	0			0	0			1				0	
6.6.1	win	2023-06-27	10:52:41	11:00:48	470540	60c29201092d523e3b08a603	4	1	main_slash	11	advance_on_keypress_SLASH	96	stimuli_distractor_trianglediamonds.svg	stimuli_target_diamondrectangles.svg	27	yes	57	0	61	0	0			0	0			1				0	
6.6.1	win	2023-06-27	10:52:41	11:00:49	471652	60c29201092d523e3b08a603	4	1	main_slash	11	main_slash	97	stimuli_target_squaretriangles.svg	stimuli_distractor_diamondtriangles.svg	7	yes	53	1	417	0	0			0	0			1				0	
6.6.1	win	2023-06-27	10:52:41	11:00:49	471652	60c29201092d523e3b08a603	4	1	main_slash	11	advance_on_keypress_SLASH	98	stimuli_target_squaretriangles.svg	stimuli_distractor_diamondtriangles.svg	7	yes	57	0	115	0	0			0	0			1				0	
6.6.1	win	2023-06-27	10:52:41	11:00:51	474408	60c29201092d523e3b08a603	4	1	main_slash	11	main_slash	99	stimuli_distractor_diamondtriangles.svg	stimuli_distractor_diamondtriangles.svg	39	no	0	1	2000	0	0			0	0			1				0	
6.6.1	win	2023-06-27	10:52:41	11:00:51	474408	60c29201092d523e3b08a603	4	1	main_slash	11	advance_on_keypress_SLASH	100	stimuli_distractor_diamondtriangles.svg	stimuli_distractor_diamondtriangles.svg	39	no	57	0	470	0	0			0	0			1				0	
6.6.1	win	2023-06-27	10:52:41	11:00:55	477525	60c29201092d523e3b08a603	4	1	main_slash	11	main_slash	101	stimuli_distractor_diamondtriangles.svg	stimuli_distractor_diamondtriangles.svg	40	no	0	1	2000	0	0			0	0			1				0	
6.6.1	win	2023-06-27	10:52:41	11:00:55	477525	60c29201092d523e3b08a603	4	1	main_slash	11	advance_on_keypress_SLASH	102	stimuli_distractor_diamondtriangles.svg	stimuli_distractor_diamondtriangles.svg	40	no	57	0	392	0	0			0	0			1				0	
6.6.1	win	2023-06-27	10:52:41	11:00:56	479164	60c29201092d523e3b08a603	4	1	main_slash	11	main_slash	103	stimuli_distractor_trianglediamonds.svg	stimuli_target_rectanglediamonds.svg	10	yes	53	1	605	0	0			0	0			1				0	
6.6.1	win	2023-06-27	10:52:41	11:00:56	479164	60c29201092d523e3b08a603	4	1	main_slash	11	advance_on_keypress_SLASH	104	stimuli_distractor_trianglediamonds.svg	stimuli_target_rectanglediamonds.svg	10	yes	57	0	493	0	0			0	0			1				0	
6.6.1	win	2023-06-27	10:52:41	11:00:58	480948	60c29201092d523e3b08a603	4	1	main_slash	11	main_slash	105	stimuli_distractor_trianglediamonds.svg	stimuli_target_trianglesquares.svg	26	yes	53	1	646	0	0			0	0			1				0	
6.6.1	win	2023-06-27	10:52:41	11:00:58	480948	60c29201092d523e3b08a603	4	1	main_slash	11	advance_on_keypress_SLASH	106	stimuli_distractor_trianglediamonds.svg	stimuli_target_trianglesquares.svg	26	yes	57	0	333	0	0			0	0			1				0	
6.6.1	win	2023-06-27	10:52:41	11:01:00	482500	60c29201092d523e3b08a603	4	1	main_slash	11	main_slash	107	stimuli_target_diamondrectangles.svg	stimuli_distractor_diamondtriangles.svg	23	yes	53	1	572	0	0			0	0			1				0	
6.6.1	win	2023-06-27	10:52:41	11:01:00	482500	60c29201092d523e3b08a603	4	1	main_slash	11	advance_on_keypress_SLASH	108	stimuli_target_diamondrectangles.svg	stimuli_distractor_diamondtriangles.svg	23	yes	57	0	310	0	0			0	0			1				0	
6.6.1	win	2023-06-27	10:52:41	11:01:01	483900	60c29201092d523e3b08a603	4	1	main_slash	11	main_slash	109	stimuli_target_rectanglediamonds.svg	stimuli_distractor_diamondtriangles.svg	6	yes	53	1	447	0	0			0	0			1				0	
6.6.1	win	2023-06-27	10:52:41	11:01:01	483900	60c29201092d523e3b08a603	4	1	main_slash	11	advance_on_keypress_SLASH	110	stimuli_target_rectanglediamonds.svg	stimuli_distractor_diamondtriangles.svg	6	yes	57	0	287	0	0			0	0			1				0	
6.6.1	win	2023-06-27	10:52:41	11:01:02	485293	60c29201092d523e3b08a603	4	1	main_slash	11	main_slash	111	stimuli_target_diamondsquares.svg	stimuli_distractor_trianglediamonds.svg	20	yes	53	1	466	0	0			0	0			1				0	
6.6.1	win	2023-06-27	10:52:41	11:01:02	485293	60c29201092d523e3b08a603	4	1	main_slash	11	advance_on_keypress_SLASH	112	stimuli_target_diamondsquares.svg	stimuli_distractor_trianglediamonds.svg	20	yes	57	0	240	0	0			0	0			1				0	
6.6.1	win	2023-06-27	10:52:41	11:01:04	486620	60c29201092d523e3b08a603	4	1	main_slash	11	main_slash	113	stimuli_target_trianglesquares.svg	stimuli_distractor_trianglediamonds.svg	18	yes	53	1	452	0	0			0	0			1				0	
6.6.1	win	2023-06-27	10:52:41	11:01:04	486620	60c29201092d523e3b08a603	4	1	main_slash	11	advance_on_keypress_SLASH	114	stimuli_target_trianglesquares.svg	stimuli_distractor_trianglediamonds.svg	18	yes	57	0	284	0	0			0	0			1				0	
6.6.1	win	2023-06-27	10:52:41	11:01:05	487980	60c29201092d523e3b08a603	4	1	main_slash	11	main_slash	115	stimuli_target_rectangletriangles.svg	stimuli_distractor_trianglediamonds.svg	1	yes	53	1	437	0	0			0	0			1				0	
6.6.1	win	2023-06-27	10:52:41	11:01:05	487980	60c29201092d523e3b08a603	4	1	main_slash	11	advance_on_keypress_SLASH	116	stimuli_target_rectangletriangles.svg	stimuli_distractor_trianglediamonds.svg	1	yes	57	0	189	0	0			0	0			1				0	
6.6.1	win	2023-06-27	10:52:41	11:01:06	489228	60c29201092d523e3b08a603	4	1	main_slash	11	main_slash	117	stimuli_target_squaretriangles.svg	stimuli_distractor_trianglediamonds.svg	3	yes	53	1	411	0	0			0	0			1				0	
6.6.1	win	2023-06-27	10:52:41	11:01:06	489228	60c29201092d523e3b08a603	4	1	main_slash	11	advance_on_keypress_SLASH	118	stimuli_target_squaretriangles.svg	stimuli_distractor_trianglediamonds.svg	3	yes	57	0	165	0	0			0	0			1				0	
6.6.1	win	2023-06-27	10:52:41	11:01:07	490444	60c29201092d523e3b08a603	4	1	main_slash	11	main_slash	119	stimuli_target_squarediamonds.svg	stimuli_distractor_trianglediamonds.svg	4	yes	53	1	404	0	0			0	0			1				0	
6.6.1	win	2023-06-27	10:52:41	11:01:07	490444	60c29201092d523e3b08a603	4	1	main_slash	11	advance_on_keypress_SLASH	120	stimuli_target_squarediamonds.svg	stimuli_distractor_trianglediamonds.svg	4	yes	57	0	165	0	0			0	0			1				0	
6.6.1	win	2023-06-27	10:52:41	11:01:09	491693	60c29201092d523e3b08a603	4	1	main_slash	11	main_slash	121	stimuli_target_diamondsquares.svg	stimuli_distractor_diamondtriangles.svg	24	yes	53	1	429	0	0			0	0			1				0	
6.6.1	win	2023-06-27	10:52:41	11:01:09	491693	60c29201092d523e3b08a603	4	1	main_slash	11	advance_on_keypress_SLASH	122	stimuli_target_diamondsquares.svg	stimuli_distractor_diamondtriangles.svg	24	yes	57	0	173	0	0			0	0			1				0	
6.6.1	win	2023-06-27	10:52:41	11:01:12	494504	60c29201092d523e3b08a603	4	1	main_slash	11	main_slash	123	stimuli_distractor_diamondtriangles.svg	stimuli_distractor_trianglediamonds.svg	37	no	0	1	2000	0	0			0	0			1				0	
6.6.1	win	2023-06-27	10:52:41	11:01:12	494504	60c29201092d523e3b08a603	4	1	main_slash	11	advance_on_keypress_SLASH	124	stimuli_distractor_diamondtriangles.svg	stimuli_distractor_trianglediamonds.svg	37	no	57	0	421	0	0			0	0			1				0	
6.6.1	win	2023-06-27	10:52:41	11:01:13	496140	60c29201092d523e3b08a603	4	1	main_slash	11	main_slash	125	stimuli_target_diamondrectangles.svg	stimuli_distractor_trianglediamonds.svg	19	yes	53	1	569	0	0			0	0			1				0	
6.6.1	win	2023-06-27	10:52:41	11:01:13	496140	60c29201092d523e3b08a603	4	1	main_slash	11	advance_on_keypress_SLASH	126	stimuli_target_diamondrectangles.svg	stimuli_distractor_trianglediamonds.svg	19	yes	57	0	243	0	0			0	0			1				0	
6.6.1	win	2023-06-27	10:52:41	11:01:15	497540	60c29201092d523e3b08a603	4	1	main_slash	11	main_slash	127	stimuli_distractor_diamondtriangles.svg	stimuli_target_diamondrectangles.svg	31	yes	53	1	527	0	0			0	0			1				0	
6.6.1	win	2023-06-27	10:52:41	11:01:15	497540	60c29201092d523e3b08a603	4	1	main_slash	11	advance_on_keypress_SLASH	128	stimuli_distractor_diamondtriangles.svg	stimuli_target_diamondrectangles.svg	31	yes	57	0	172	0	0			0	0			1				0	
6.6.1	win	2023-06-27	10:52:41	11:01:16	498828	60c29201092d523e3b08a603	4	1	main_slash	11	main_slash	129	stimuli_target_trianglerectangles.svg	stimuli_distractor_diamondtriangles.svg	21	yes	53	1	475	0	0			0	0			1				0	
6.6.1	win	2023-06-27	10:52:41	11:01:16	498828	60c29201092d523e3b08a603	4	1	main_slash	11	advance_on_keypress_SLASH	130	stimuli_target_trianglerectangles.svg	stimuli_distractor_diamondtriangles.svg	21	yes	57	0	169	0	0			0	0			1				0	
6.6.1	win	2023-06-27	10:52:41	11:01:19	501644	60c29201092d523e3b08a603	4	1	main_slash	11	main_slash	131	stimuli_distractor_trianglediamonds.svg	stimuli_distractor_diamondtriangles.svg	35	no	0	1	2000	0	0			0	0			1				0	
6.6.1	win	2023-06-27	10:52:41	11:01:19	501644	60c29201092d523e3b08a603	4	1	main_slash	11	advance_on_keypress_SLASH	132	stimuli_distractor_trianglediamonds.svg	stimuli_distractor_diamondtriangles.svg	35	no	57	0	385	0	0			0	0			1				0	
6.6.1	win	2023-06-27	10:52:41	11:01:20	503228	60c29201092d523e3b08a603	4	1	main_slash	11	main_slash	133	stimuli_distractor_trianglediamonds.svg	stimuli_target_squaretriangles.svg	11	yes	53	1	550	0	0			0	0			1				0	
6.6.1	win	2023-06-27	10:52:41	11:01:20	503228	60c29201092d523e3b08a603	4	1	main_slash	11	advance_on_keypress_SLASH	134	stimuli_distractor_trianglediamonds.svg	stimuli_target_squaretriangles.svg	11	yes	57	0	130	0	0			0	0			1				0	
6.6.1	win	2023-06-27	10:52:41	11:01:22	504493	60c29201092d523e3b08a603	4	1	main_slash	11	main_slash	135	stimuli_target_trianglerectangles.svg	stimuli_distractor_trianglediamonds.svg	17	yes	53	1	508	0	0			0	0			1				0	
6.6.1	win	2023-06-27	10:52:41	11:01:22	504493	60c29201092d523e3b08a603	4	1	main_slash	11	advance_on_keypress_SLASH	136	stimuli_target_trianglerectangles.svg	stimuli_distractor_trianglediamonds.svg	17	yes	57	0	185	0	0			0	0			1				0	
6.6.1	win	2023-06-27	10:52:41	11:01:23	505884	60c29201092d523e3b08a603	4	1	main_slash	11	main_slash	137	stimuli_distractor_trianglediamonds.svg	stimuli_target_diamondsquares.svg	28	yes	53	1	558	0	0			0	0			1				0	
6.6.1	win	2023-06-27	10:52:41	11:01:23	505884	60c29201092d523e3b08a603	4	1	main_slash	11	advance_on_keypress_SLASH	138	stimuli_distractor_trianglediamonds.svg	stimuli_target_diamondsquares.svg	28	yes	57	0	137	0	0			0	0			1				0	
6.6.1	win	2023-06-27	10:52:41	11:01:24	507084	60c29201092d523e3b08a603	4	1	main_slash	11	main_slash	139	stimuli_distractor_diamondtriangles.svg	stimuli_target_squaretriangles.svg	15	yes	53	1	417	0	0			0	0			1				0	
6.6.1	win	2023-06-27	10:52:41	11:01:24	507084	60c29201092d523e3b08a603	4	1	main_slash	11	advance_on_keypress_SLASH	140	stimuli_distractor_diamondtriangles.svg	stimuli_target_squaretriangles.svg	15	yes	57	0	139	0	0			0	0			1				0	
6.6.1	win	2023-06-27	10:52:41	11:01:27	509857	60c29201092d523e3b08a603	4	1	main_slash	11	main_slash	141	stimuli_distractor_trianglediamonds.svg	stimuli_distractor_diamondtriangles.svg	36	no	0	1	2000	0	0			0	0			1				0	
6.6.1	win	2023-06-27	10:52:41	11:01:27	509857	60c29201092d523e3b08a603	4	1	main_slash	11	advance_on_keypress_SLASH	142	stimuli_distractor_trianglediamonds.svg	stimuli_distractor_diamondtriangles.svg	36	no	57	0	404	0	0			0	0			1				0	
6.6.1	win	2023-06-27	10:52:41	11:01:28	511332	60c29201092d523e3b08a603	4	1	main_slash	11	main_slash	143	stimuli_target_squarediamonds.svg	stimuli_distractor_diamondtriangles.svg	8	yes	53	1	425	0	0			0	0			1				0	
6.6.1	win	2023-06-27	10:52:41	11:01:28	511332	60c29201092d523e3b08a603	4	1	main_slash	11	advance_on_keypress_SLASH	144	stimuli_target_squarediamonds.svg	stimuli_distractor_diamondtriangles.svg	8	yes	57	0	121	0	0			0	0			1				0	
6.6.1	win	2023-06-27	10:52:41	11:01:30	512540	60c29201092d523e3b08a603	4	1	main_slash	11	main_slash	145	stimuli_distractor_trianglediamonds.svg	stimuli_target_squarediamonds.svg	12	yes	53	1	443	0	0			0	0			1				0	
6.6.1	win	2023-06-27	10:52:41	11:01:30	512540	60c29201092d523e3b08a603	4	1	main_slash	11	advance_on_keypress_SLASH	146	stimuli_distractor_trianglediamonds.svg	stimuli_target_squarediamonds.svg	12	yes	57	0	99	0	0			0	0			1				0	
6.6.1	win	2023-06-27	10:52:41	11:01:31	513740	60c29201092d523e3b08a603	4	1	main_slash	11	main_slash	147	stimuli_target_trianglesquares.svg	stimuli_distractor_diamondtriangles.svg	22	yes	53	1	453	0	0			0	0			1				0	
6.6.1	win	2023-06-27	10:52:41	11:01:31	513740	60c29201092d523e3b08a603	4	1	main_slash	11	advance_on_keypress_SLASH	148	stimuli_target_trianglesquares.svg	stimuli_distractor_diamondtriangles.svg	22	yes	57	0	117	0	0			0	0			1				0	
6.6.1	win	2023-06-27	10:52:41	11:01:34	516494	60c29201092d523e3b08a603	4	1	main_slash	11	main_slash	149	stimuli_distractor_trianglediamonds.svg	stimuli_distractor_trianglediamonds.svg	33	no	0	1	2000	0	0			0	0			1				0	
6.6.1	win	2023-06-27	10:52:41	11:01:34	516494	60c29201092d523e3b08a603	4	1	main_slash	11	advance_on_keypress_SLASH	150	stimuli_distractor_trianglediamonds.svg	stimuli_distractor_trianglediamonds.svg	33	no	57	0	575	0	0			0	0			1				0	
6.6.1	win	2023-06-27	10:52:41	11:01:37	519712	60c29201092d523e3b08a603	4	1	main_slash	11	main_slash	151	stimuli_distractor_trianglediamonds.svg	stimuli_distractor_trianglediamonds.svg	34	no	0	1	2000	0	0			0	0			1				0	
6.6.1	win	2023-06-27	10:52:41	11:01:37	519712	60c29201092d523e3b08a603	4	1	main_slash	11	advance_on_keypress_SLASH	152	stimuli_distractor_trianglediamonds.svg	stimuli_distractor_trianglediamonds.svg	34	no	57	0	437	0	0			0	0			1				0	
6.6.1	win	2023-06-27	10:52:41	11:01:38	521348	60c29201092d523e3b08a603	4	1	main_slash	11	main_slash	153	stimuli_distractor_diamondtriangles.svg	stimuli_target_squarediamonds.svg	16	yes	53	1	552	0	0			0	0			1				0	
6.6.1	win	2023-06-27	10:52:41	11:01:38	521348	60c29201092d523e3b08a603	4	1	main_slash	11	advance_on_keypress_SLASH	154	stimuli_distractor_diamondtriangles.svg	stimuli_target_squarediamonds.svg	16	yes	57	0	147	0	0			0	0			1				0	
6.6.1	win	2023-06-27	10:52:41	11:01:40	522748	60c29201092d523e3b08a603	4	1	main_slash	11	main_slash	155	stimuli_distractor_diamondtriangles.svg	stimuli_target_rectanglediamonds.svg	14	yes	53	1	628	0	0			0	0			1				0	
6.6.1	win	2023-06-27	10:52:41	11:01:40	522748	60c29201092d523e3b08a603	4	1	main_slash	11	advance_on_keypress_SLASH	156	stimuli_distractor_diamondtriangles.svg	stimuli_target_rectanglediamonds.svg	14	yes	57	0	123	0	0			0	0			1				0	
6.6.1	win	2023-06-27	10:52:41	11:01:41	524020	60c29201092d523e3b08a603	4	1	main_slash	11	main_slash	157	stimuli_distractor_diamondtriangles.svg	stimuli_target_trianglesquares.svg	30	yes	53	1	509	0	0			0	0			1				0	
6.6.1	win	2023-06-27	10:52:41	11:01:41	524020	60c29201092d523e3b08a603	4	1	main_slash	11	advance_on_keypress_SLASH	158	stimuli_distractor_diamondtriangles.svg	stimuli_target_trianglesquares.svg	30	yes	57	0	90	0	0			0	0			1				0	
6.6.1	win	2023-06-27	10:52:41	11:01:44	526751	60c29201092d523e3b08a603	4	1	main_slash	11	main_slash	159	stimuli_target_rectangletriangles.svg	stimuli_distractor_diamondtriangles.svg	5	yes	0	0	2000	0	0			0	0			1				0	
6.6.1	win	2023-06-27	10:52:41	11:01:44	526751	60c29201092d523e3b08a603	4	1	main_slash	11	advance_on_keypress_SLASH	160	stimuli_target_rectangletriangles.svg	stimuli_distractor_diamondtriangles.svg	5	yes	57	0	470	0	0			0	0			1				0	
6.6.1	win	2023-06-27	10:52:41	11:01:44	526751	60c29201092d523e3b08a603	4	1	headphonecheck_calibration	14	headphonecheck_calibrationIntro	1	stimuli_target_rectangletriangles.svg	stimuli_distractor_diamondtriangles.svg	5	yes	calibrationButton	0	923	0	0			0	0			1				0	
6.6.1	win	2023-06-27	10:52:41	11:01:44	526751	60c29201092d523e3b08a603	4	1	headphonecheck_testphase	15	test_collectResponse	3	stimuli_target_rectangletriangles.svg	stimuli_distractor_diamondtriangles.svg	5	yes	first	1	746	1	4	antiphase_hc_sio.wav	1	0	0			1				0	
6.6.1	win	2023-06-27	10:52:41	11:01:44	526751	60c29201092d523e3b08a603	4	1	headphonecheck_testphase	15	test_collectResponse	6	stimuli_target_rectangletriangles.svg	stimuli_distractor_diamondtriangles.svg	5	yes	second	1	3472	2	5	antiphase_hc_osi.wav	2	0	0			1				0	
6.6.1	win	2023-06-27	10:52:41	11:01:44	526751	60c29201092d523e3b08a603	4	1	headphonecheck_testphase	15	test_collectResponse	9	stimuli_target_rectangletriangles.svg	stimuli_distractor_diamondtriangles.svg	5	yes	first	1	682	3	3	antiphase_hc_soi.wav	1	0	0			1				0	
6.6.1	win	2023-06-27	10:52:41	11:01:44	526751	60c29201092d523e3b08a603	4	1	headphonecheck_testphase	15	test_collectResponse	12	stimuli_target_rectangletriangles.svg	stimuli_distractor_diamondtriangles.svg	5	yes	third	1	332	4	6	antiphase_hc_ois.wav	3	0	0			1				0	
6.6.1	win	2023-06-27	10:52:41	11:01:44	526751	60c29201092d523e3b08a603	4	1	headphonecheck_testphase	15	test_collectResponse	15	stimuli_target_rectangletriangles.svg	stimuli_distractor_diamondtriangles.svg	5	yes	third	1	362	5	2	antiphase_hc_ios.wav	3	0	0			1				0	
6.6.1	win	2023-06-27	10:52:41	11:01:44	526751	60c29201092d523e3b08a603	4	1	headphonecheck_testphase	15	test_collectResponse	18	stimuli_target_rectangletriangles.svg	stimuli_distractor_diamondtriangles.svg	5	yes	third	0	2003	6	1	antiphase_hc_iso.wav	2	0	0			1				0	
6.6.1	win	2023-06-27	10:52:41	11:01:44	526751	60c29201092d523e3b08a603	4	1	stereocheck_calibration	17	stereocheck_calibrationIntro	1	stimuli_target_rectangletriangles.svg	stimuli_distractor_diamondtriangles.svg	5	yes	stereocheck_calibrationButton	0	1206	6	1	antiphase_hc_iso.wav	2	0	0			1				0	
6.6.1	win	2023-06-27	10:52:41	11:01:44	526751	60c29201092d523e3b08a603	4	1	stereocheck_testphase	18	stereocheck_test_collectResponse	3	stimuli_target_rectangletriangles.svg	stimuli_distractor_diamondtriangles.svg	5	yes	stereocheck_left	1	263	6	1	antiphase_hc_iso.wav	2	1	3	noise_calib_stim_LEFT.wav	1	1				0	
6.6.1	win	2023-06-27	10:52:41	11:01:44	526751	60c29201092d523e3b08a603	4	1	stereocheck_testphase	18	stereocheck_test_collectResponse	6	stimuli_target_rectangletriangles.svg	stimuli_distractor_diamondtriangles.svg	5	yes	stereocheck_right	1	192	6	1	antiphase_hc_iso.wav	2	2	6	noise_calib_stim_RIGHT.wav	2	1				0	
6.6.1	win	2023-06-27	10:52:41	11:01:44	526751	60c29201092d523e3b08a603	4	1	stereocheck_testphase	18	stereocheck_test_collectResponse	9	stimuli_target_rectangletriangles.svg	stimuli_distractor_diamondtriangles.svg	5	yes	stereocheck_left	1	161	6	1	antiphase_hc_iso.wav	2	3	1	noise_calib_stim_LEFT.wav	1	1				0	
6.6.1	win	2023-06-27	10:52:41	11:01:44	526751	60c29201092d523e3b08a603	4	1	stereocheck_testphase	18	stereocheck_test_collectResponse	12	stimuli_target_rectangletriangles.svg	stimuli_distractor_diamondtriangles.svg	5	yes	stereocheck_left	1	74	6	1	antiphase_hc_iso.wav	2	4	2	noise_calib_stim_LEFT.wav	1	1				0	
6.6.1	win	2023-06-27	10:52:41	11:01:44	526751	60c29201092d523e3b08a603	4	1	stereocheck_testphase	18	stereocheck_test_collectResponse	15	stimuli_target_rectangletriangles.svg	stimuli_distractor_diamondtriangles.svg	5	yes	stereocheck_right	1	540	6	1	antiphase_hc_iso.wav	2	5	4	noise_calib_stim_RIGHT.wav	2	1				0	
6.6.1	win	2023-06-27	10:52:41	11:01:44	526751	60c29201092d523e3b08a603	4	1	stereocheck_testphase	18	stereocheck_test_collectResponse	18	stimuli_target_rectangletriangles.svg	stimuli_distractor_diamondtriangles.svg	5	yes	stereocheck_right	1	152	6	1	antiphase_hc_iso.wav	2	6	5	noise_calib_stim_RIGHT.wav	2	1				0	
6.6.1	win	2023-06-27	10:52:41	11:01:44	526751	60c29201092d523e3b08a603	4	1	DL_practice	21	DL_practice	2	stimuli_target_rectangletriangles.svg	stimuli_distractor_diamondtriangles.svg	5	yes	ga	1	937	6	1	antiphase_hc_iso.wav	2	6	5	noise_calib_stim_RIGHT.wav	2	15	blb_dichoticlistening_ga-ga.mp3	ga	ga	0	left
6.6.1	win	2023-06-27	10:52:41	11:01:44	526751	60c29201092d523e3b08a603	4	1	DL_practice	21	DL_practice	3	stimuli_target_rectangletriangles.svg	stimuli_distractor_diamondtriangles.svg	5	yes	ka	1	689	6	1	antiphase_hc_iso.wav	2	6	5	noise_calib_stim_RIGHT.wav	2	22	blb_dichoticlistening_ka-ka.mp3	ka	ka	0	left
6.6.1	win	2023-06-27	10:52:41	11:01:44	526751	60c29201092d523e3b08a603	4	1	DL_practice	21	DL_practice	4	stimuli_target_rectangletriangles.svg	stimuli_distractor_diamondtriangles.svg	5	yes	ta	1	1074	6	1	antiphase_hc_iso.wav	2	6	5	noise_calib_stim_RIGHT.wav	2	36	blb_dichoticlistening_ta-ta.mp3	ta	ta	0	left
6.6.1	win	2023-06-27	10:52:41	11:01:44	526751	60c29201092d523e3b08a603	4	1	DL_practice	21	DL_practice	5	stimuli_target_rectangletriangles.svg	stimuli_distractor_diamondtriangles.svg	5	yes	pa	1	1431	6	1	antiphase_hc_iso.wav	2	6	5	noise_calib_stim_RIGHT.wav	2	23	blb_dichoticlistening_ka-pa.mp3	ka	pa	1	right
6.6.1	win	2023-06-27	10:52:41	11:01:44	526751	60c29201092d523e3b08a603	4	1	DL_practice	21	DL_practice	6	stimuli_target_rectangletriangles.svg	stimuli_distractor_diamondtriangles.svg	5	yes	da	1	1234	6	1	antiphase_hc_iso.wav	2	6	5	noise_calib_stim_RIGHT.wav	2	8	blb_dichoticlistening_da-da.mp3	da	da	0	left
6.6.1	win	2023-06-27	10:52:41	11:01:44	526751	60c29201092d523e3b08a603	4	1	DL_practice	21	DL_practice	7	stimuli_target_rectangletriangles.svg	stimuli_distractor_diamondtriangles.svg	5	yes	ka	0	2200	6	1	antiphase_hc_iso.wav	2	6	5	noise_calib_stim_RIGHT.wav	2	18	blb_dichoticlistening_ga-ta.mp3	ga	ta	1	other
6.6.1	win	2023-06-27	10:52:41	11:01:44	526751	60c29201092d523e3b08a603	4	1	DL_practice	21	DL_practice	8	stimuli_target_rectangletriangles.svg	stimuli_distractor_diamondtriangles.svg	5	yes	ba	1	1604	6	1	antiphase_hc_iso.wav	2	6	5	noise_calib_stim_RIGHT.wav	2	1	blb_dichoticlistening_ba-ba.mp3	ba	ba	0	left
6.6.1	win	2023-06-27	10:52:41	11:01:44	526751	60c29201092d523e3b08a603	4	1	DL_practice	21	DL_practice	9	stimuli_target_rectangletriangles.svg	stimuli_distractor_diamondtriangles.svg	5	yes	da	1	1092	6	1	antiphase_hc_iso.wav	2	6	5	noise_calib_stim_RIGHT.wav	2	7	blb_dichoticlistening_da-ba.mp3	da	ba	1	left
6.6.1	win	2023-06-27	10:52:41	11:01:44	526751	60c29201092d523e3b08a603	4	1	DL_practice	21	DL_practice	10	stimuli_target_rectangletriangles.svg	stimuli_distractor_diamondtriangles.svg	5	yes	pa	1	1090	6	1	antiphase_hc_iso.wav	2	6	5	noise_calib_stim_RIGHT.wav	2	29	blb_dichoticlistening_pa-pa.mp3	pa	pa	0	left
6.6.1	win	2023-06-27	10:52:41	11:01:44	526751	60c29201092d523e3b08a603	4	1	DL_test	23	DL_test	1	stimuli_target_rectangletriangles.svg	stimuli_distractor_diamondtriangles.svg	5	yes	ka	1	784	6	1	antiphase_hc_iso.wav	2	6	5	noise_calib_stim_RIGHT.wav	2	24	blb_dichoticlistening_ka-ta.mp3	ka	ta	1	left
6.6.1	win	2023-06-27	10:52:41	11:01:44	526751	60c29201092d523e3b08a603	4	1	DL_test	23	DL_test	2	stimuli_target_rectangletriangles.svg	stimuli_distractor_diamondtriangles.svg	5	yes	pa	1	1303	6	1	antiphase_hc_iso.wav	2	6	5	noise_calib_stim_RIGHT.wav	2	11	blb_dichoticlistening_da-pa.mp3	da	pa	1	right
6.6.1	win	2023-06-27	10:52:41	11:01:44	526751	60c29201092d523e3b08a603	4	1	DL_test	23	DL_test	3	stimuli_target_rectangletriangles.svg	stimuli_distractor_diamondtriangles.svg	5	yes	ba	1	1855	6	1	antiphase_hc_iso.wav	2	6	5	noise_calib_stim_RIGHT.wav	2	19	blb_dichoticlistening_ka-ba.mp3	ka	ba	1	right
6.6.1	win	2023-06-27	10:52:41	11:01:44	526751	60c29201092d523e3b08a603	4	1	DL_test	23	DL_test	4	stimuli_target_rectangletriangles.svg	stimuli_distractor_diamondtriangles.svg	5	yes	ka	1	830	6	1	antiphase_hc_iso.wav	2	6	5	noise_calib_stim_RIGHT.wav	2	16	blb_dichoticlistening_ga-ka.mp3	ga	ka	1	right
6.6.1	win	2023-06-27	10:52:41	11:01:44	526751	60c29201092d523e3b08a603	4	1	DL_test	23	DL_test	5	stimuli_target_rectangletriangles.svg	stimuli_distractor_diamondtriangles.svg	5	yes	da	0	2228	6	1	antiphase_hc_iso.wav	2	6	5	noise_calib_stim_RIGHT.wav	2	33	blb_dichoticlistening_ta-ga.mp3	ta	ga	1	other
6.6.1	win	2023-06-27	10:52:41	11:01:44	526751	60c29201092d523e3b08a603	4	1	DL_test	23	DL_test	6	stimuli_target_rectangletriangles.svg	stimuli_distractor_diamondtriangles.svg	5	yes	ba	1	2346	6	1	antiphase_hc_iso.wav	2	6	5	noise_calib_stim_RIGHT.wav	2	31	blb_dichoticlistening_ta-ba.mp3	ta	ba	1	right
6.6.1	win	2023-06-27	10:52:41	11:01:44	526751	60c29201092d523e3b08a603	4	1	DL_test	23	DL_test	7	stimuli_target_rectangletriangles.svg	stimuli_distractor_diamondtriangles.svg	5	yes	ka	0	1632	6	1	antiphase_hc_iso.wav	2	6	5	noise_calib_stim_RIGHT.wav	2	32	blb_dichoticlistening_ta-da.mp3	ta	da	1	other
6.6.1	win	2023-06-27	10:52:41	11:01:44	526751	60c29201092d523e3b08a603	4	1	DL_test	23	DL_test	8	stimuli_target_rectangletriangles.svg	stimuli_distractor_diamondtriangles.svg	5	yes	pa	0	1054	6	1	antiphase_hc_iso.wav	2	6	5	noise_calib_stim_RIGHT.wav	2	10	blb_dichoticlistening_da-ka.mp3	da	ka	1	other
6.6.1	win	2023-06-27	10:52:41	11:01:44	526751	60c29201092d523e3b08a603	4	1	DL_test	23	DL_test	9	stimuli_target_rectangletriangles.svg	stimuli_distractor_diamondtriangles.svg	5	yes	ka	1	3161	6	1	antiphase_hc_iso.wav	2	6	5	noise_calib_stim_RIGHT.wav	2	20	blb_dichoticlistening_ka-da.mp3	ka	da	1	left
6.6.1	win	2023-06-27	10:52:41	11:01:44	526751	60c29201092d523e3b08a603	4	1	DL_test	23	DL_test	10	stimuli_target_rectangletriangles.svg	stimuli_distractor_diamondtriangles.svg	5	yes	ta	1	1179	6	1	antiphase_hc_iso.wav	2	6	5	noise_calib_stim_RIGHT.wav	2	36	blb_dichoticlistening_ta-ta.mp3	ta	ta	0	left
6.6.1	win	2023-06-27	10:52:41	11:01:44	526751	60c29201092d523e3b08a603	4	1	DL_test	23	DL_test	11	stimuli_target_rectangletriangles.svg	stimuli_distractor_diamondtriangles.svg	5	yes	ga	1	744	6	1	antiphase_hc_iso.wav	2	6	5	noise_calib_stim_RIGHT.wav	2	9	blb_dichoticlistening_da-ga.mp3	da	ga	1	right
6.6.1	win	2023-06-27	10:52:41	11:01:44	526751	60c29201092d523e3b08a603	4	1	DL_test	23	DL_test	12	stimuli_target_rectangletriangles.svg	stimuli_distractor_diamondtriangles.svg	5	yes	ga	0	4091	6	1	antiphase_hc_iso.wav	2	6	5	noise_calib_stim_RIGHT.wav	2	28	blb_dichoticlistening_pa-ka.mp3	pa	ka	1	other
6.6.1	win	2023-06-27	10:52:41	11:01:44	526751	60c29201092d523e3b08a603	4	1	DL_test	23	DL_test	13	stimuli_target_rectangletriangles.svg	stimuli_distractor_diamondtriangles.svg	5	yes	ka	1	762	6	1	antiphase_hc_iso.wav	2	6	5	noise_calib_stim_RIGHT.wav	2	22	blb_dichoticlistening_ka-ka.mp3	ka	ka	0	left
6.6.1	win	2023-06-27	10:52:41	11:01:44	526751	60c29201092d523e3b08a603	4	1	DL_test	23	DL_test	14	stimuli_target_rectangletriangles.svg	stimuli_distractor_diamondtriangles.svg	5	yes	pa	1	3045	6	1	antiphase_hc_iso.wav	2	6	5	noise_calib_stim_RIGHT.wav	2	17	blb_dichoticlistening_ga-pa.mp3	ga	pa	1	right
6.6.1	win	2023-06-27	10:52:41	11:01:44	526751	60c29201092d523e3b08a603	4	1	DL_test	23	DL_test	15	stimuli_target_rectangletriangles.svg	stimuli_distractor_diamondtriangles.svg	5	yes	ta	1	1051	6	1	antiphase_hc_iso.wav	2	6	5	noise_calib_stim_RIGHT.wav	2	12	blb_dichoticlistening_da-ta.mp3	da	ta	1	right
6.6.1	win	2023-06-27	10:52:41	11:01:44	526751	60c29201092d523e3b08a603	4	1	DL_test	23	DL_test	16	stimuli_target_rectangletriangles.svg	stimuli_distractor_diamondtriangles.svg	5	yes	ka	1	1758	6	1	antiphase_hc_iso.wav	2	6	5	noise_calib_stim_RIGHT.wav	2	4	blb_dichoticlistening_ba-ka.mp3	ba	ka	1	right
6.6.1	win	2023-06-27	10:52:41	11:01:44	526751	60c29201092d523e3b08a603	4	1	DL_test	23	DL_test	17	stimuli_target_rectangletriangles.svg	stimuli_distractor_diamondtriangles.svg	5	yes	pa	1	1809	6	1	antiphase_hc_iso.wav	2	6	5	noise_calib_stim_RIGHT.wav	2	23	blb_dichoticlistening_ka-pa.mp3	ka	pa	1	right
6.6.1	win	2023-06-27	10:52:41	11:01:44	526751	60c29201092d523e3b08a603	4	1	DL_test	23	DL_test	18	stimuli_target_rectangletriangles.svg	stimuli_distractor_diamondtriangles.svg	5	yes	da	1	1605	6	1	antiphase_hc_iso.wav	2	6	5	noise_calib_stim_RIGHT.wav	2	26	blb_dichoticlistening_pa-da.mp3	pa	da	1	right
6.6.1	win	2023-06-27	10:52:41	11:01:44	526751	60c29201092d523e3b08a603	4	1	DL_test	23	DL_test	19	stimuli_target_rectangletriangles.svg	stimuli_distractor_diamondtriangles.svg	5	yes	ba	1	1545	6	1	antiphase_hc_iso.wav	2	6	5	noise_calib_stim_RIGHT.wav	2	13	blb_dichoticlistening_ga-ba.mp3	ga	ba	1	right
6.6.1	win	2023-06-27	10:52:41	11:01:44	526751	60c29201092d523e3b08a603	4	1	DL_test	23	DL_test	20	stimuli_target_rectangletriangles.svg	stimuli_distractor_diamondtriangles.svg	5	yes	ta	1	1760	6	1	antiphase_hc_iso.wav	2	6	5	noise_calib_stim_RIGHT.wav	2	30	blb_dichoticlistening_pa-ta.mp3	pa	ta	1	right
6.6.1	win	2023-06-27	10:52:41	11:01:44	526751	60c29201092d523e3b08a603	4	1	DL_test	23	DL_test	21	stimuli_target_rectangletriangles.svg	stimuli_distractor_diamondtriangles.svg	5	yes	ka	1	1151	6	1	antiphase_hc_iso.wav	2	6	5	noise_calib_stim_RIGHT.wav	2	34	blb_dichoticlistening_ta-ka.mp3	ta	ka	1	right
6.6.1	win	2023-06-27	10:52:41	11:01:44	526751	60c29201092d523e3b08a603	4	1	DL_test	23	DL_test	22	stimuli_target_rectangletriangles.svg	stimuli_distractor_diamondtriangles.svg	5	yes	pa	1	780	6	1	antiphase_hc_iso.wav	2	6	5	noise_calib_stim_RIGHT.wav	2	29	blb_dichoticlistening_pa-pa.mp3	pa	pa	0	left
6.6.1	win	2023-06-27	10:52:41	11:01:44	526751	60c29201092d523e3b08a603	4	1	DL_test	23	DL_test	23	stimuli_target_rectangletriangles.svg	stimuli_distractor_diamondtriangles.svg	5	yes	da	0	1744	6	1	antiphase_hc_iso.wav	2	6	5	noise_calib_stim_RIGHT.wav	2	27	blb_dichoticlistening_pa-ga.mp3	pa	ga	1	other
6.6.1	win	2023-06-27	10:52:41	11:01:44	526751	60c29201092d523e3b08a603	4	1	DL_test	23	DL_test	24	stimuli_target_rectangletriangles.svg	stimuli_distractor_diamondtriangles.svg	5	yes	ta	1	1291	6	1	antiphase_hc_iso.wav	2	6	5	noise_calib_stim_RIGHT.wav	2	6	blb_dichoticlistening_ba-ta.mp3	ba	ta	1	right
6.6.1	win	2023-06-27	10:52:41	11:01:44	526751	60c29201092d523e3b08a603	4	1	DL_test	23	DL_test	25	stimuli_target_rectangletriangles.svg	stimuli_distractor_diamondtriangles.svg	5	yes	ba	1	1968	6	1	antiphase_hc_iso.wav	2	6	5	noise_calib_stim_RIGHT.wav	2	1	blb_dichoticlistening_ba-ba.mp3	ba	ba	0	left
6.6.1	win	2023-06-27	10:52:41	11:01:44	526751	60c29201092d523e3b08a603	4	1	DL_test	23	DL_test	26	stimuli_target_rectangletriangles.svg	stimuli_distractor_diamondtriangles.svg	5	yes	pa	1	1658	6	1	antiphase_hc_iso.wav	2	6	5	noise_calib_stim_RIGHT.wav	2	5	blb_dichoticlistening_ba-pa.mp3	ba	pa	1	right
