build	computer.platform	date	time	timestamp	time_elapsed_ms	subject	group	session	blockcode	blocknum	trialcode	trialnum	stimulus_left	stimulus_right	stim_index	target_present	response	correct	latency	headphonecheck_countTestTrials	headphonecheck_index	headphonecheck_testSound	headphonecheck_correctResponse	stereocheck_countTestTrials	stereocheck_index	stereocheck_testSound	stereocheck_correctResponse	DL_index	DL_soundfile	DL_leftSound	DL_rightSound	DL_dualSound	DL_choice
6.6.1	win	2023-06-23	15:20:56	15:24:16	196204	6125653f9d984b6fd3d68983	4	1	practice_z	5	practice_z	1	stimuli_target_rectanglediamonds.svg	stimuli_distractor_trianglediamonds.svg	4	yes	44	1	443	0	0			0	0			1				0	
6.6.1	win	2023-06-23	15:20:56	15:24:16	196204	6125653f9d984b6fd3d68983	4	1	practice_z	5	advance_on_keypress_ZEE	2	stimuli_target_rectanglediamonds.svg	stimuli_distractor_trianglediamonds.svg	4	yes	57	0	859	0	0			0	0			1				0	
6.6.1	win	2023-06-23	15:20:56	15:24:18	199011	6125653f9d984b6fd3d68983	4	1	practice_z	5	practice_z	3	stimuli_distractor_trianglediamonds.svg	stimuli_target_diamondrectangles.svg	12	yes	44	1	320	0	0			0	0			1				0	
6.6.1	win	2023-06-23	15:20:56	15:24:18	199011	6125653f9d984b6fd3d68983	4	1	practice_z	5	advance_on_keypress_ZEE	4	stimuli_distractor_trianglediamonds.svg	stimuli_target_diamondrectangles.svg	12	yes	57	0	2393	0	0			0	0			1				0	
6.6.1	win	2023-06-23	15:20:56	15:24:23	203323	6125653f9d984b6fd3d68983	4	1	practice_z	5	practice_z	5	stimuli_distractor_trianglediamonds.svg	stimuli_target_rectanglediamonds.svg	10	yes	44	1	298	0	0			0	0			1				0	
6.6.1	win	2023-06-23	15:20:56	15:24:23	203323	6125653f9d984b6fd3d68983	4	1	practice_z	5	advance_on_keypress_ZEE	6	stimuli_distractor_trianglediamonds.svg	stimuli_target_rectanglediamonds.svg	10	yes	57	0	1138	0	0			0	0			1				0	
6.6.1	win	2023-06-23	15:20:56	15:24:26	206450	6125653f9d984b6fd3d68983	4	1	practice_z	5	practice_z	7	stimuli_target_diamondsquares.svg	stimuli_distractor_trianglediamonds.svg	6	yes	44	1	371	0	0			0	0			1				0	
6.6.1	win	2023-06-23	15:20:56	15:24:26	206450	6125653f9d984b6fd3d68983	4	1	practice_z	5	advance_on_keypress_ZEE	8	stimuli_target_diamondsquares.svg	stimuli_distractor_trianglediamonds.svg	6	yes	57	0	781	0	0			0	0			1				0	
6.6.1	win	2023-06-23	15:20:56	15:24:30	210854	6125653f9d984b6fd3d68983	4	1	practice_z	5	practice_z	9	stimuli_distractor_diamondtriangles.svg	stimuli_distractor_diamondtriangles.svg	13	no	0	1	2003	0	0			0	0			1				0	
6.6.1	win	2023-06-23	15:20:56	15:24:30	210854	6125653f9d984b6fd3d68983	4	1	practice_z	5	advance_on_keypress_ZEE	10	stimuli_distractor_diamondtriangles.svg	stimuli_distractor_diamondtriangles.svg	13	no	57	0	1604	0	0			0	0			1				0	
6.6.1	win	2023-06-23	15:20:56	15:24:34	214482	6125653f9d984b6fd3d68983	4	1	practice_z	5	practice_z	11	stimuli_distractor_diamondtriangles.svg	stimuli_distractor_trianglediamonds.svg	14	no	44	0	402	0	0			0	0			1				0	
6.6.1	win	2023-06-23	15:20:56	15:24:34	214482	6125653f9d984b6fd3d68983	4	1	practice_z	5	advance_on_keypress_ZEE	12	stimuli_distractor_diamondtriangles.svg	stimuli_distractor_trianglediamonds.svg	14	no	57	0	598	0	0			0	0			1				0	
6.6.1	win	2023-06-23	15:20:56	15:24:38	218701	6125653f9d984b6fd3d68983	4	1	practice_z	5	practice_z	13	stimuli_distractor_trianglediamonds.svg	stimuli_distractor_trianglediamonds.svg	15	no	0	1	2003	0	0			0	0			1				0	
6.6.1	win	2023-06-23	15:20:56	15:24:38	218701	6125653f9d984b6fd3d68983	4	1	practice_z	5	advance_on_keypress_ZEE	14	stimuli_distractor_trianglediamonds.svg	stimuli_distractor_trianglediamonds.svg	15	no	57	0	1068	0	0			0	0			1				0	
6.6.1	win	2023-06-23	15:20:56	15:24:41	221874	6125653f9d984b6fd3d68983	4	1	practice_z	5	practice_z	15	stimuli_target_squarediamonds.svg	stimuli_distractor_trianglediamonds.svg	5	yes	44	1	482	0	0			0	0			1				0	
6.6.1	win	2023-06-23	15:20:56	15:24:41	221874	6125653f9d984b6fd3d68983	4	1	practice_z	5	advance_on_keypress_ZEE	16	stimuli_target_squarediamonds.svg	stimuli_distractor_trianglediamonds.svg	5	yes	57	0	559	0	0			0	0			1				0	
6.6.1	win	2023-06-23	15:20:56	15:24:46	226056	6125653f9d984b6fd3d68983	4	1	practice_z	5	practice_z	17	stimuli_distractor_trianglediamonds.svg	stimuli_distractor_diamondtriangles.svg	16	no	0	1	2003	0	0			0	0			1				0	
6.6.1	win	2023-06-23	15:20:56	15:24:46	226056	6125653f9d984b6fd3d68983	4	1	practice_z	5	advance_on_keypress_ZEE	18	stimuli_distractor_trianglediamonds.svg	stimuli_distractor_diamondtriangles.svg	16	no	57	0	432	0	0			0	0			1				0	
6.6.1	win	2023-06-23	15:20:56	15:24:48	228511	6125653f9d984b6fd3d68983	4	1	practice_z	5	practice_z	19	stimuli_target_squarediamonds.svg	stimuli_distractor_diamondtriangles.svg	2	yes	44	1	403	0	0			0	0			1				0	
6.6.1	win	2023-06-23	15:20:56	15:24:48	228511	6125653f9d984b6fd3d68983	4	1	practice_z	5	advance_on_keypress_ZEE	20	stimuli_target_squarediamonds.svg	stimuli_distractor_diamondtriangles.svg	2	yes	57	0	579	0	0			0	0			1				0	
6.6.1	win	2023-06-23	15:20:56	15:24:51	231128	6125653f9d984b6fd3d68983	4	1	practice_z	5	practice_z	21	stimuli_distractor_diamondtriangles.svg	stimuli_target_rectangletriangles.svg	7	yes	44	1	423	0	0			0	0			1				0	
6.6.1	win	2023-06-23	15:20:56	15:24:51	231128	6125653f9d984b6fd3d68983	4	1	practice_z	5	advance_on_keypress_ZEE	22	stimuli_distractor_diamondtriangles.svg	stimuli_target_rectangletriangles.svg	7	yes	57	0	397	0	0			0	0			1				0	
6.6.1	win	2023-06-23	15:20:56	15:24:53	233685	6125653f9d984b6fd3d68983	4	1	practice_z	5	practice_z	23	stimuli_target_diamondsquares.svg	stimuli_distractor_diamondtriangles.svg	3	yes	44	1	543	0	0			0	0			1				0	
6.6.1	win	2023-06-23	15:20:56	15:24:53	233685	6125653f9d984b6fd3d68983	4	1	practice_z	5	advance_on_keypress_ZEE	24	stimuli_target_diamondsquares.svg	stimuli_distractor_diamondtriangles.svg	3	yes	57	0	438	0	0			0	0			1				0	
6.6.1	win	2023-06-23	15:20:56	15:24:56	236173	6125653f9d984b6fd3d68983	4	1	practice_z	5	practice_z	25	stimuli_distractor_diamondtriangles.svg	stimuli_target_diamondrectangles.svg	8	yes	44	1	432	0	0			0	0			1				0	
6.6.1	win	2023-06-23	15:20:56	15:24:56	236173	6125653f9d984b6fd3d68983	4	1	practice_z	5	advance_on_keypress_ZEE	26	stimuli_distractor_diamondtriangles.svg	stimuli_target_diamondrectangles.svg	8	yes	57	0	382	0	0			0	0			1				0	
6.6.1	win	2023-06-23	15:20:56	15:24:58	238669	6125653f9d984b6fd3d68983	4	1	practice_z	5	practice_z	27	stimuli_target_rectanglediamonds.svg	stimuli_distractor_diamondtriangles.svg	1	yes	44	1	492	0	0			0	0			1				0	
6.6.1	win	2023-06-23	15:20:56	15:24:58	238669	6125653f9d984b6fd3d68983	4	1	practice_z	5	advance_on_keypress_ZEE	28	stimuli_target_rectanglediamonds.svg	stimuli_distractor_diamondtriangles.svg	1	yes	57	0	396	0	0			0	0			1				0	
6.6.1	win	2023-06-23	15:20:56	15:25:01	241196	6125653f9d984b6fd3d68983	4	1	practice_z	5	practice_z	29	stimuli_distractor_diamondtriangles.svg	stimuli_target_trianglerectangles.svg	9	yes	44	1	512	0	0			0	0			1				0	
6.6.1	win	2023-06-23	15:20:56	15:25:01	241196	6125653f9d984b6fd3d68983	4	1	practice_z	5	advance_on_keypress_ZEE	30	stimuli_distractor_diamondtriangles.svg	stimuli_target_trianglerectangles.svg	9	yes	57	0	425	0	0			0	0			1				0	
6.6.1	win	2023-06-23	15:20:56	15:25:03	243853	6125653f9d984b6fd3d68983	4	1	practice_z	5	practice_z	31	stimuli_distractor_trianglediamonds.svg	stimuli_target_squarediamonds.svg	11	yes	44	1	613	0	0			0	0			1				0	
6.6.1	win	2023-06-23	15:20:56	15:25:03	243853	6125653f9d984b6fd3d68983	4	1	practice_z	5	advance_on_keypress_ZEE	32	stimuli_distractor_trianglediamonds.svg	stimuli_target_squarediamonds.svg	11	yes	57	0	318	0	0			0	0			1				0	
6.6.1	win	2023-06-23	15:20:56	15:25:11	251374	6125653f9d984b6fd3d68983	4	1	main_z	7	main_z	1	stimuli_target_trianglesquares.svg	stimuli_distractor_trianglediamonds.svg	18	yes	44	1	921	0	0			0	0			1				0	
6.6.1	win	2023-06-23	15:20:56	15:25:11	251374	6125653f9d984b6fd3d68983	4	1	main_z	7	advance_on_keypress_ZEE	2	stimuli_target_trianglesquares.svg	stimuli_distractor_trianglediamonds.svg	18	yes	57	0	1103	0	0			0	0			1				0	
6.6.1	win	2023-06-23	15:20:56	15:25:13	253530	6125653f9d984b6fd3d68983	4	1	main_z	7	main_z	3	stimuli_target_rectangletriangles.svg	stimuli_distractor_trianglediamonds.svg	1	yes	44	1	431	0	0			0	0			1				0	
6.6.1	win	2023-06-23	15:20:56	15:25:13	253530	6125653f9d984b6fd3d68983	4	1	main_z	7	advance_on_keypress_ZEE	4	stimuli_target_rectangletriangles.svg	stimuli_distractor_trianglediamonds.svg	1	yes	57	0	505	0	0			0	0			1				0	
6.6.1	win	2023-06-23	15:20:56	15:25:15	255086	6125653f9d984b6fd3d68983	4	1	main_z	7	main_z	5	stimuli_target_squarediamonds.svg	stimuli_distractor_diamondtriangles.svg	8	yes	44	1	431	0	0			0	0			1				0	
6.6.1	win	2023-06-23	15:20:56	15:25:15	255086	6125653f9d984b6fd3d68983	4	1	main_z	7	advance_on_keypress_ZEE	6	stimuli_target_squarediamonds.svg	stimuli_distractor_diamondtriangles.svg	8	yes	57	0	374	0	0			0	0			1				0	
6.6.1	win	2023-06-23	15:20:56	15:25:17	257432	6125653f9d984b6fd3d68983	4	1	main_z	7	main_z	7	stimuli_target_trianglerectangles.svg	stimuli_distractor_trianglediamonds.svg	17	yes	44	1	1354	0	0			0	0			1				0	
6.6.1	win	2023-06-23	15:20:56	15:25:17	257432	6125653f9d984b6fd3d68983	4	1	main_z	7	advance_on_keypress_ZEE	8	stimuli_target_trianglerectangles.svg	stimuli_distractor_trianglediamonds.svg	17	yes	57	0	815	0	0			0	0			1				0	
6.6.1	win	2023-06-23	15:20:56	15:25:19	259391	6125653f9d984b6fd3d68983	4	1	main_z	7	main_z	9	stimuli_target_trianglerectangles.svg	stimuli_distractor_diamondtriangles.svg	21	yes	44	1	524	0	0			0	0			1				0	
6.6.1	win	2023-06-23	15:20:56	15:25:19	259391	6125653f9d984b6fd3d68983	4	1	main_z	7	advance_on_keypress_ZEE	10	stimuli_target_trianglerectangles.svg	stimuli_distractor_diamondtriangles.svg	21	yes	57	0	461	0	0			0	0			1				0	
6.6.1	win	2023-06-23	15:20:56	15:25:20	260962	6125653f9d984b6fd3d68983	4	1	main_z	7	main_z	11	stimuli_distractor_trianglediamonds.svg	stimuli_target_squaretriangles.svg	11	yes	44	1	494	0	0			0	0			1				0	
6.6.1	win	2023-06-23	15:20:56	15:25:20	260962	6125653f9d984b6fd3d68983	4	1	main_z	7	advance_on_keypress_ZEE	12	stimuli_distractor_trianglediamonds.svg	stimuli_target_squaretriangles.svg	11	yes	57	0	365	0	0			0	0			1				0	
6.6.1	win	2023-06-23	15:20:56	15:25:22	262345	6125653f9d984b6fd3d68983	4	1	main_z	7	main_z	13	stimuli_distractor_diamondtriangles.svg	stimuli_target_squarediamonds.svg	16	yes	44	1	399	0	0			0	0			1				0	
6.6.1	win	2023-06-23	15:20:56	15:25:22	262345	6125653f9d984b6fd3d68983	4	1	main_z	7	advance_on_keypress_ZEE	14	stimuli_distractor_diamondtriangles.svg	stimuli_target_squarediamonds.svg	16	yes	57	0	377	0	0			0	0			1				0	
6.6.1	win	2023-06-23	15:20:56	15:25:25	265338	6125653f9d984b6fd3d68983	4	1	main_z	7	main_z	15	stimuli_distractor_diamondtriangles.svg	stimuli_distractor_diamondtriangles.svg	39	no	0	1	2003	0	0			0	0			1				0	
6.6.1	win	2023-06-23	15:20:56	15:25:25	265338	6125653f9d984b6fd3d68983	4	1	main_z	7	advance_on_keypress_ZEE	16	stimuli_distractor_diamondtriangles.svg	stimuli_distractor_diamondtriangles.svg	39	no	57	0	427	0	0			0	0			1				0	
6.6.1	win	2023-06-23	15:20:56	15:25:26	266742	6125653f9d984b6fd3d68983	4	1	main_z	7	main_z	17	stimuli_target_rectanglediamonds.svg	stimuli_distractor_trianglediamonds.svg	2	yes	44	1	365	0	0			0	0			1				0	
6.6.1	win	2023-06-23	15:20:56	15:25:26	266742	6125653f9d984b6fd3d68983	4	1	main_z	7	advance_on_keypress_ZEE	18	stimuli_target_rectanglediamonds.svg	stimuli_distractor_trianglediamonds.svg	2	yes	57	0	371	0	0			0	0			1				0	
6.6.1	win	2023-06-23	15:20:56	15:25:28	268107	6125653f9d984b6fd3d68983	4	1	main_z	7	main_z	19	stimuli_distractor_trianglediamonds.svg	stimuli_target_trianglesquares.svg	26	yes	44	1	375	0	0			0	0			1				0	
6.6.1	win	2023-06-23	15:20:56	15:25:28	268107	6125653f9d984b6fd3d68983	4	1	main_z	7	advance_on_keypress_ZEE	20	stimuli_distractor_trianglediamonds.svg	stimuli_target_trianglesquares.svg	26	yes	57	0	374	0	0			0	0			1				0	
6.6.1	win	2023-06-23	15:20:56	15:25:29	269681	6125653f9d984b6fd3d68983	4	1	main_z	7	main_z	21	stimuli_target_diamondsquares.svg	stimuli_distractor_diamondtriangles.svg	24	yes	44	1	581	0	0			0	0			1				0	
6.6.1	win	2023-06-23	15:20:56	15:25:29	269681	6125653f9d984b6fd3d68983	4	1	main_z	7	advance_on_keypress_ZEE	22	stimuli_target_diamondsquares.svg	stimuli_distractor_diamondtriangles.svg	24	yes	57	0	352	0	0			0	0			1				0	
6.6.1	win	2023-06-23	15:20:56	15:25:31	271085	6125653f9d984b6fd3d68983	4	1	main_z	7	main_z	23	stimuli_distractor_trianglediamonds.svg	stimuli_target_rectanglediamonds.svg	10	yes	44	1	430	0	0			0	0			1				0	
6.6.1	win	2023-06-23	15:20:56	15:25:31	271085	6125653f9d984b6fd3d68983	4	1	main_z	7	advance_on_keypress_ZEE	24	stimuli_distractor_trianglediamonds.svg	stimuli_target_rectanglediamonds.svg	10	yes	57	0	343	0	0			0	0			1				0	
6.6.1	win	2023-06-23	15:20:56	15:25:32	272358	6125653f9d984b6fd3d68983	4	1	main_z	7	main_z	25	stimuli_distractor_diamondtriangles.svg	stimuli_target_squaretriangles.svg	15	yes	44	1	314	0	0			0	0			1				0	
6.6.1	win	2023-06-23	15:20:56	15:25:32	272358	6125653f9d984b6fd3d68983	4	1	main_z	7	advance_on_keypress_ZEE	26	stimuli_distractor_diamondtriangles.svg	stimuli_target_squaretriangles.svg	15	yes	57	0	375	0	0			0	0			1				0	
6.6.1	win	2023-06-23	15:20:56	15:25:33	273772	6125653f9d984b6fd3d68983	4	1	main_z	7	main_z	27	stimuli_target_diamondsquares.svg	stimuli_distractor_trianglediamonds.svg	20	yes	44	1	422	0	0			0	0			1				0	
6.6.1	win	2023-06-23	15:20:56	15:25:33	273772	6125653f9d984b6fd3d68983	4	1	main_z	7	advance_on_keypress_ZEE	28	stimuli_target_diamondsquares.svg	stimuli_distractor_trianglediamonds.svg	20	yes	57	0	384	0	0			0	0			1				0	
6.6.1	win	2023-06-23	15:20:56	15:25:35	275106	6125653f9d984b6fd3d68983	4	1	main_z	7	main_z	29	stimuli_distractor_trianglediamonds.svg	stimuli_distractor_diamondtriangles.svg	36	no	44	0	333	0	0			0	0			1				0	
6.6.1	win	2023-06-23	15:20:56	15:25:35	275106	6125653f9d984b6fd3d68983	4	1	main_z	7	advance_on_keypress_ZEE	30	stimuli_distractor_trianglediamonds.svg	stimuli_distractor_diamondtriangles.svg	36	no	57	0	895	0	0			0	0			1				0	
6.6.1	win	2023-06-23	15:20:56	15:25:36	276941	6125653f9d984b6fd3d68983	4	1	main_z	7	main_z	31	stimuli_distractor_trianglediamonds.svg	stimuli_target_rectangletriangles.svg	9	yes	44	1	320	0	0			0	0			1				0	
6.6.1	win	2023-06-23	15:20:56	15:25:36	276941	6125653f9d984b6fd3d68983	4	1	main_z	7	advance_on_keypress_ZEE	32	stimuli_distractor_trianglediamonds.svg	stimuli_target_rectangletriangles.svg	9	yes	57	0	345	0	0			0	0			1				0	
6.6.1	win	2023-06-23	15:20:56	15:25:38	278254	6125653f9d984b6fd3d68983	4	1	main_z	7	main_z	33	stimuli_distractor_trianglediamonds.svg	stimuli_distractor_diamondtriangles.svg	35	no	44	0	349	0	0			0	0			1				0	
6.6.1	win	2023-06-23	15:20:56	15:25:38	278254	6125653f9d984b6fd3d68983	4	1	main_z	7	advance_on_keypress_ZEE	34	stimuli_distractor_trianglediamonds.svg	stimuli_distractor_diamondtriangles.svg	35	no	57	0	578	0	0			0	0			1				0	
6.6.1	win	2023-06-23	15:20:56	15:25:39	279779	6125653f9d984b6fd3d68983	4	1	main_z	7	main_z	35	stimuli_distractor_diamondtriangles.svg	stimuli_target_diamondrectangles.svg	31	yes	44	1	332	0	0			0	0			1				0	
6.6.1	win	2023-06-23	15:20:56	15:25:39	279779	6125653f9d984b6fd3d68983	4	1	main_z	7	advance_on_keypress_ZEE	36	stimuli_distractor_diamondtriangles.svg	stimuli_target_diamondrectangles.svg	31	yes	57	0	318	0	0			0	0			1				0	
6.6.1	win	2023-06-23	15:20:56	15:25:41	281128	6125653f9d984b6fd3d68983	4	1	main_z	7	main_z	37	stimuli_target_squarediamonds.svg	stimuli_distractor_trianglediamonds.svg	4	yes	44	1	410	0	0			0	0			1				0	
6.6.1	win	2023-06-23	15:20:56	15:25:41	281128	6125653f9d984b6fd3d68983	4	1	main_z	7	advance_on_keypress_ZEE	38	stimuli_target_squarediamonds.svg	stimuli_distractor_trianglediamonds.svg	4	yes	57	0	345	0	0			0	0			1				0	
6.6.1	win	2023-06-23	15:20:56	15:25:42	282512	6125653f9d984b6fd3d68983	4	1	main_z	7	main_z	39	stimuli_distractor_diamondtriangles.svg	stimuli_target_rectangletriangles.svg	13	yes	44	1	419	0	0			0	0			1				0	
6.6.1	win	2023-06-23	15:20:56	15:25:42	282512	6125653f9d984b6fd3d68983	4	1	main_z	7	advance_on_keypress_ZEE	40	stimuli_distractor_diamondtriangles.svg	stimuli_target_rectangletriangles.svg	13	yes	57	0	357	0	0			0	0			1				0	
6.6.1	win	2023-06-23	15:20:56	15:25:44	284297	6125653f9d984b6fd3d68983	4	1	main_z	7	main_z	41	stimuli_distractor_diamondtriangles.svg	stimuli_distractor_diamondtriangles.svg	40	no	44	0	815	0	0			0	0			1				0	
6.6.1	win	2023-06-23	15:20:56	15:25:44	284297	6125653f9d984b6fd3d68983	4	1	main_z	7	advance_on_keypress_ZEE	42	stimuli_distractor_diamondtriangles.svg	stimuli_distractor_diamondtriangles.svg	40	no	57	0	477	0	0			0	0			1				0	
6.6.1	win	2023-06-23	15:20:56	15:25:47	287394	6125653f9d984b6fd3d68983	4	1	main_z	7	main_z	43	stimuli_distractor_trianglediamonds.svg	stimuli_distractor_trianglediamonds.svg	33	no	0	1	2003	0	0			0	0			1				0	
6.6.1	win	2023-06-23	15:20:56	15:25:47	287394	6125653f9d984b6fd3d68983	4	1	main_z	7	advance_on_keypress_ZEE	44	stimuli_distractor_trianglediamonds.svg	stimuli_distractor_trianglediamonds.svg	33	no	57	0	509	0	0			0	0			1				0	
6.6.1	win	2023-06-23	15:20:56	15:25:48	288890	6125653f9d984b6fd3d68983	4	1	main_z	7	main_z	45	stimuli_distractor_diamondtriangles.svg	stimuli_target_diamondsquares.svg	32	yes	44	1	374	0	0			0	0			1				0	
6.6.1	win	2023-06-23	15:20:56	15:25:48	288890	6125653f9d984b6fd3d68983	4	1	main_z	7	advance_on_keypress_ZEE	46	stimuli_distractor_diamondtriangles.svg	stimuli_target_diamondsquares.svg	32	yes	57	0	293	0	0			0	0			1				0	
6.6.1	win	2023-06-23	15:20:56	15:25:50	290173	6125653f9d984b6fd3d68983	4	1	main_z	7	main_z	47	stimuli_distractor_trianglediamonds.svg	stimuli_target_diamondsquares.svg	28	yes	44	1	373	0	0			0	0			1				0	
6.6.1	win	2023-06-23	15:20:56	15:25:50	290173	6125653f9d984b6fd3d68983	4	1	main_z	7	advance_on_keypress_ZEE	48	stimuli_distractor_trianglediamonds.svg	stimuli_target_diamondsquares.svg	28	yes	57	0	311	0	0			0	0			1				0	
6.6.1	win	2023-06-23	15:20:56	15:25:51	291657	6125653f9d984b6fd3d68983	4	1	main_z	7	main_z	49	stimuli_target_diamondrectangles.svg	stimuli_distractor_trianglediamonds.svg	19	yes	44	1	551	0	0			0	0			1				0	
6.6.1	win	2023-06-23	15:20:56	15:25:51	291657	6125653f9d984b6fd3d68983	4	1	main_z	7	advance_on_keypress_ZEE	50	stimuli_target_diamondrectangles.svg	stimuli_distractor_trianglediamonds.svg	19	yes	57	0	367	0	0			0	0			1				0	
6.6.1	win	2023-06-23	15:20:56	15:25:52	292981	6125653f9d984b6fd3d68983	4	1	main_z	7	main_z	51	stimuli_target_trianglesquares.svg	stimuli_distractor_diamondtriangles.svg	22	yes	44	1	341	0	0			0	0			1				0	
6.6.1	win	2023-06-23	15:20:56	15:25:52	292981	6125653f9d984b6fd3d68983	4	1	main_z	7	advance_on_keypress_ZEE	52	stimuli_target_trianglesquares.svg	stimuli_distractor_diamondtriangles.svg	22	yes	57	0	353	0	0			0	0			1				0	
6.6.1	win	2023-06-23	15:20:56	15:25:54	294426	6125653f9d984b6fd3d68983	4	1	main_z	7	main_z	53	stimuli_target_rectangletriangles.svg	stimuli_distractor_diamondtriangles.svg	5	yes	44	1	472	0	0			0	0			1				0	
6.6.1	win	2023-06-23	15:20:56	15:25:54	294426	6125653f9d984b6fd3d68983	4	1	main_z	7	advance_on_keypress_ZEE	54	stimuli_target_rectangletriangles.svg	stimuli_distractor_diamondtriangles.svg	5	yes	57	0	294	0	0			0	0			1				0	
6.6.1	win	2023-06-23	15:20:56	15:25:55	295937	6125653f9d984b6fd3d68983	4	1	main_z	7	main_z	55	stimuli_distractor_trianglediamonds.svg	stimuli_target_diamondrectangles.svg	27	yes	44	1	601	0	0			0	0			1				0	
6.6.1	win	2023-06-23	15:20:56	15:25:55	295937	6125653f9d984b6fd3d68983	4	1	main_z	7	advance_on_keypress_ZEE	56	stimuli_distractor_trianglediamonds.svg	stimuli_target_diamondrectangles.svg	27	yes	57	0	325	0	0			0	0			1				0	
6.6.1	win	2023-06-23	15:20:56	15:25:58	298887	6125653f9d984b6fd3d68983	4	1	main_z	7	main_z	57	stimuli_distractor_trianglediamonds.svg	stimuli_distractor_trianglediamonds.svg	34	no	0	1	2003	0	0			0	0			1				0	
6.6.1	win	2023-06-23	15:20:56	15:25:58	298887	6125653f9d984b6fd3d68983	4	1	main_z	7	advance_on_keypress_ZEE	58	stimuli_distractor_trianglediamonds.svg	stimuli_distractor_trianglediamonds.svg	34	no	57	0	510	0	0			0	0			1				0	
6.6.1	win	2023-06-23	15:20:56	15:26:00	300513	6125653f9d984b6fd3d68983	4	1	main_z	7	main_z	59	stimuli_distractor_diamondtriangles.svg	stimuli_target_trianglerectangles.svg	29	yes	44	1	504	0	0			0	0			1				0	
6.6.1	win	2023-06-23	15:20:56	15:26:00	300513	6125653f9d984b6fd3d68983	4	1	main_z	7	advance_on_keypress_ZEE	60	stimuli_distractor_diamondtriangles.svg	stimuli_target_trianglerectangles.svg	29	yes	57	0	369	0	0			0	0			1				0	
6.6.1	win	2023-06-23	15:20:56	15:26:01	301891	6125653f9d984b6fd3d68983	4	1	main_z	7	main_z	61	stimuli_target_squaretriangles.svg	stimuli_distractor_diamondtriangles.svg	7	yes	44	1	392	0	0			0	0			1				0	
6.6.1	win	2023-06-23	15:20:56	15:26:01	301891	6125653f9d984b6fd3d68983	4	1	main_z	7	advance_on_keypress_ZEE	62	stimuli_target_squaretriangles.svg	stimuli_distractor_diamondtriangles.svg	7	yes	57	0	380	0	0			0	0			1				0	
6.6.1	win	2023-06-23	15:20:56	15:26:03	303542	6125653f9d984b6fd3d68983	4	1	main_z	7	main_z	63	stimuli_target_diamondrectangles.svg	stimuli_distractor_diamondtriangles.svg	23	yes	44	1	651	0	0			0	0			1				0	
6.6.1	win	2023-06-23	15:20:56	15:26:03	303542	6125653f9d984b6fd3d68983	4	1	main_z	7	advance_on_keypress_ZEE	64	stimuli_target_diamondrectangles.svg	stimuli_distractor_diamondtriangles.svg	23	yes	57	0	363	0	0			0	0			1				0	
6.6.1	win	2023-06-23	15:20:56	15:26:04	304876	6125653f9d984b6fd3d68983	4	1	main_z	7	main_z	65	stimuli_target_squaretriangles.svg	stimuli_distractor_trianglediamonds.svg	3	yes	44	1	353	0	0			0	0			1				0	
6.6.1	win	2023-06-23	15:20:56	15:26:04	304876	6125653f9d984b6fd3d68983	4	1	main_z	7	advance_on_keypress_ZEE	66	stimuli_target_squaretriangles.svg	stimuli_distractor_trianglediamonds.svg	3	yes	57	0	263	0	0			0	0			1				0	
6.6.1	win	2023-06-23	15:20:56	15:26:06	306120	6125653f9d984b6fd3d68983	4	1	main_z	7	main_z	67	stimuli_distractor_diamondtriangles.svg	stimuli_target_trianglesquares.svg	30	yes	44	1	361	0	0			0	0			1				0	
6.6.1	win	2023-06-23	15:20:56	15:26:06	306120	6125653f9d984b6fd3d68983	4	1	main_z	7	advance_on_keypress_ZEE	68	stimuli_distractor_diamondtriangles.svg	stimuli_target_trianglesquares.svg	30	yes	57	0	314	0	0			0	0			1				0	
6.6.1	win	2023-06-23	15:20:56	15:26:07	307447	6125653f9d984b6fd3d68983	4	1	main_z	7	main_z	69	stimuli_distractor_diamondtriangles.svg	stimuli_target_rectanglediamonds.svg	14	yes	44	1	393	0	0			0	0			1				0	
6.6.1	win	2023-06-23	15:20:56	15:26:07	307447	6125653f9d984b6fd3d68983	4	1	main_z	7	advance_on_keypress_ZEE	70	stimuli_distractor_diamondtriangles.svg	stimuli_target_rectanglediamonds.svg	14	yes	57	0	250	0	0			0	0			1				0	
6.6.1	win	2023-06-23	15:20:56	15:26:08	308647	6125653f9d984b6fd3d68983	4	1	main_z	7	main_z	71	stimuli_distractor_diamondtriangles.svg	stimuli_distractor_trianglediamonds.svg	38	no	44	0	332	0	0			0	0			1				0	
6.6.1	win	2023-06-23	15:20:56	15:26:08	308647	6125653f9d984b6fd3d68983	4	1	main_z	7	advance_on_keypress_ZEE	72	stimuli_distractor_diamondtriangles.svg	stimuli_distractor_trianglediamonds.svg	38	no	57	0	734	0	0			0	0			1				0	
6.6.1	win	2023-06-23	15:20:56	15:26:10	310502	6125653f9d984b6fd3d68983	4	1	main_z	7	main_z	73	stimuli_distractor_trianglediamonds.svg	stimuli_target_trianglerectangles.svg	25	yes	44	1	500	0	0			0	0			1				0	
6.6.1	win	2023-06-23	15:20:56	15:26:10	310502	6125653f9d984b6fd3d68983	4	1	main_z	7	advance_on_keypress_ZEE	74	stimuli_distractor_trianglediamonds.svg	stimuli_target_trianglerectangles.svg	25	yes	57	0	344	0	0			0	0			1				0	
6.6.1	win	2023-06-23	15:20:56	15:26:11	311866	6125653f9d984b6fd3d68983	4	1	main_z	7	main_z	75	stimuli_distractor_trianglediamonds.svg	stimuli_target_squarediamonds.svg	12	yes	44	1	398	0	0			0	0			1				0	
6.6.1	win	2023-06-23	15:20:56	15:26:11	311866	6125653f9d984b6fd3d68983	4	1	main_z	7	advance_on_keypress_ZEE	76	stimuli_distractor_trianglediamonds.svg	stimuli_target_squarediamonds.svg	12	yes	57	0	437	0	0			0	0			1				0	
6.6.1	win	2023-06-23	15:20:56	15:26:14	314922	6125653f9d984b6fd3d68983	4	1	main_z	7	main_z	77	stimuli_distractor_diamondtriangles.svg	stimuli_distractor_trianglediamonds.svg	37	no	0	1	2003	0	0			0	0			1				0	
6.6.1	win	2023-06-23	15:20:56	15:26:14	314922	6125653f9d984b6fd3d68983	4	1	main_z	7	advance_on_keypress_ZEE	78	stimuli_distractor_diamondtriangles.svg	stimuli_distractor_trianglediamonds.svg	37	no	57	0	572	0	0			0	0			1				0	
6.6.1	win	2023-06-23	15:20:56	15:26:16	316471	6125653f9d984b6fd3d68983	4	1	main_z	7	main_z	79	stimuli_target_rectanglediamonds.svg	stimuli_distractor_diamondtriangles.svg	6	yes	44	1	364	0	0			0	0			1				0	
6.6.1	win	2023-06-23	15:20:56	15:26:16	316471	6125653f9d984b6fd3d68983	4	1	main_z	7	advance_on_keypress_ZEE	80	stimuli_target_rectanglediamonds.svg	stimuli_distractor_diamondtriangles.svg	6	yes	57	0	277	0	0			0	0			1				0	
6.6.1	win	2023-06-23	15:20:56	15:26:17	317795	6125653f9d984b6fd3d68983	4	1	main_z	7	main_z	81	stimuli_distractor_diamondtriangles.svg	stimuli_target_rectangletriangles.svg	13	yes	44	1	431	0	0			0	0			1				0	
6.6.1	win	2023-06-23	15:20:56	15:26:17	317795	6125653f9d984b6fd3d68983	4	1	main_z	7	advance_on_keypress_ZEE	82	stimuli_distractor_diamondtriangles.svg	stimuli_target_rectangletriangles.svg	13	yes	57	0	265	0	0			0	0			1				0	
6.6.1	win	2023-06-23	15:20:56	15:26:19	319189	6125653f9d984b6fd3d68983	4	1	main_z	7	main_z	83	stimuli_distractor_diamondtriangles.svg	stimuli_distractor_trianglediamonds.svg	37	no	44	0	513	0	0			0	0			1				0	
6.6.1	win	2023-06-23	15:20:56	15:26:19	319189	6125653f9d984b6fd3d68983	4	1	main_z	7	advance_on_keypress_ZEE	84	stimuli_distractor_diamondtriangles.svg	stimuli_distractor_trianglediamonds.svg	37	no	57	0	283	0	0			0	0			1				0	
6.6.1	win	2023-06-23	15:20:56	15:26:22	322096	6125653f9d984b6fd3d68983	4	1	main_z	7	main_z	85	stimuli_distractor_trianglediamonds.svg	stimuli_distractor_trianglediamonds.svg	33	no	0	1	2003	0	0			0	0			1				0	
6.6.1	win	2023-06-23	15:20:56	15:26:22	322096	6125653f9d984b6fd3d68983	4	1	main_z	7	advance_on_keypress_ZEE	86	stimuli_distractor_trianglediamonds.svg	stimuli_distractor_trianglediamonds.svg	33	no	57	0	399	0	0			0	0			1				0	
6.6.1	win	2023-06-23	15:20:56	15:26:23	323502	6125653f9d984b6fd3d68983	4	1	main_z	7	main_z	87	stimuli_distractor_trianglediamonds.svg	stimuli_target_trianglerectangles.svg	25	yes	44	1	395	0	0			0	0			1				0	
6.6.1	win	2023-06-23	15:20:56	15:26:23	323502	6125653f9d984b6fd3d68983	4	1	main_z	7	advance_on_keypress_ZEE	88	stimuli_distractor_trianglediamonds.svg	stimuli_target_trianglerectangles.svg	25	yes	57	0	263	0	0			0	0			1				0	
6.6.1	win	2023-06-23	15:20:56	15:26:24	324755	6125653f9d984b6fd3d68983	4	1	main_z	7	main_z	89	stimuli_target_trianglerectangles.svg	stimuli_distractor_diamondtriangles.svg	21	yes	44	1	371	0	0			0	0			1				0	
6.6.1	win	2023-06-23	15:20:56	15:26:24	324755	6125653f9d984b6fd3d68983	4	1	main_z	7	advance_on_keypress_ZEE	90	stimuli_target_trianglerectangles.svg	stimuli_distractor_diamondtriangles.svg	21	yes	57	0	237	0	0			0	0			1				0	
6.6.1	win	2023-06-23	15:20:56	15:26:27	327610	6125653f9d984b6fd3d68983	4	1	main_z	7	main_z	91	stimuli_distractor_diamondtriangles.svg	stimuli_distractor_diamondtriangles.svg	40	no	0	1	2003	0	0			0	0			1				0	
6.6.1	win	2023-06-23	15:20:56	15:26:27	327610	6125653f9d984b6fd3d68983	4	1	main_z	7	advance_on_keypress_ZEE	92	stimuli_distractor_diamondtriangles.svg	stimuli_distractor_diamondtriangles.svg	40	no	57	0	671	0	0			0	0			1				0	
6.6.1	win	2023-06-23	15:20:56	15:26:29	329358	6125653f9d984b6fd3d68983	4	1	main_z	7	main_z	93	stimuli_target_rectanglediamonds.svg	stimuli_distractor_diamondtriangles.svg	6	yes	44	1	460	0	0			0	0			1				0	
6.6.1	win	2023-06-23	15:20:56	15:26:29	329358	6125653f9d984b6fd3d68983	4	1	main_z	7	advance_on_keypress_ZEE	94	stimuli_target_rectanglediamonds.svg	stimuli_distractor_diamondtriangles.svg	6	yes	57	0	245	0	0			0	0			1				0	
6.6.1	win	2023-06-23	15:20:56	15:26:30	330613	6125653f9d984b6fd3d68983	4	1	main_z	7	main_z	95	stimuli_distractor_trianglediamonds.svg	stimuli_target_trianglesquares.svg	26	yes	44	1	393	0	0			0	0			1				0	
6.6.1	win	2023-06-23	15:20:56	15:26:30	330613	6125653f9d984b6fd3d68983	4	1	main_z	7	advance_on_keypress_ZEE	96	stimuli_distractor_trianglediamonds.svg	stimuli_target_trianglesquares.svg	26	yes	57	0	221	0	0			0	0			1				0	
6.6.1	win	2023-06-23	15:20:56	15:26:31	331835	6125653f9d984b6fd3d68983	4	1	main_z	7	main_z	97	stimuli_distractor_diamondtriangles.svg	stimuli_target_rectanglediamonds.svg	14	yes	44	1	381	0	0			0	0			1				0	
6.6.1	win	2023-06-23	15:20:56	15:26:31	331835	6125653f9d984b6fd3d68983	4	1	main_z	7	advance_on_keypress_ZEE	98	stimuli_distractor_diamondtriangles.svg	stimuli_target_rectanglediamonds.svg	14	yes	57	0	333	0	0			0	0			1				0	
6.6.1	win	2023-06-23	15:20:56	15:26:33	333119	6125653f9d984b6fd3d68983	4	1	main_z	7	main_z	99	stimuli_target_trianglesquares.svg	stimuli_distractor_diamondtriangles.svg	22	yes	44	1	332	0	0			0	0			1				0	
6.6.1	win	2023-06-23	15:20:56	15:26:33	333119	6125653f9d984b6fd3d68983	4	1	main_z	7	advance_on_keypress_ZEE	100	stimuli_target_trianglesquares.svg	stimuli_distractor_diamondtriangles.svg	22	yes	57	0	202	0	0			0	0			1				0	
6.6.1	win	2023-06-23	15:20:56	15:26:34	334272	6125653f9d984b6fd3d68983	4	1	main_z	7	main_z	101	stimuli_distractor_trianglediamonds.svg	stimuli_target_squaretriangles.svg	11	yes	44	1	332	0	0			0	0			1				0	
6.6.1	win	2023-06-23	15:20:56	15:26:34	334272	6125653f9d984b6fd3d68983	4	1	main_z	7	advance_on_keypress_ZEE	102	stimuli_distractor_trianglediamonds.svg	stimuli_target_squaretriangles.svg	11	yes	57	0	253	0	0			0	0			1				0	
6.6.1	win	2023-06-23	15:20:56	15:26:35	335526	6125653f9d984b6fd3d68983	4	1	main_z	7	main_z	103	stimuli_target_trianglesquares.svg	stimuli_distractor_trianglediamonds.svg	18	yes	44	1	385	0	0			0	0			1				0	
6.6.1	win	2023-06-23	15:20:56	15:26:35	335526	6125653f9d984b6fd3d68983	4	1	main_z	7	advance_on_keypress_ZEE	104	stimuli_target_trianglesquares.svg	stimuli_distractor_trianglediamonds.svg	18	yes	57	0	217	0	0			0	0			1				0	
6.6.1	win	2023-06-23	15:20:56	15:26:36	336669	6125653f9d984b6fd3d68983	4	1	main_z	7	main_z	105	stimuli_target_diamondrectangles.svg	stimuli_distractor_diamondtriangles.svg	23	yes	44	1	313	0	0			0	0			1				0	
6.6.1	win	2023-06-23	15:20:56	15:26:36	336669	6125653f9d984b6fd3d68983	4	1	main_z	7	advance_on_keypress_ZEE	106	stimuli_target_diamondrectangles.svg	stimuli_distractor_diamondtriangles.svg	23	yes	57	0	244	0	0			0	0			1				0	
6.6.1	win	2023-06-23	15:20:56	15:26:37	337883	6125653f9d984b6fd3d68983	4	1	main_z	7	main_z	107	stimuli_distractor_trianglediamonds.svg	stimuli_distractor_diamondtriangles.svg	35	no	44	0	353	0	0			0	0			1				0	
6.6.1	win	2023-06-23	15:20:56	15:26:37	337883	6125653f9d984b6fd3d68983	4	1	main_z	7	advance_on_keypress_ZEE	108	stimuli_distractor_trianglediamonds.svg	stimuli_distractor_diamondtriangles.svg	35	no	57	0	924	0	0			0	0			1				0	
6.6.1	win	2023-06-23	15:20:56	15:26:39	339919	6125653f9d984b6fd3d68983	4	1	main_z	7	main_z	109	stimuli_target_rectangletriangles.svg	stimuli_distractor_trianglediamonds.svg	1	yes	44	1	493	0	0			0	0			1				0	
6.6.1	win	2023-06-23	15:20:56	15:26:39	339919	6125653f9d984b6fd3d68983	4	1	main_z	7	advance_on_keypress_ZEE	110	stimuli_target_rectangletriangles.svg	stimuli_distractor_trianglediamonds.svg	1	yes	57	0	294	0	0			0	0			1				0	
6.6.1	win	2023-06-23	15:20:56	15:26:41	341362	6125653f9d984b6fd3d68983	4	1	main_z	7	main_z	111	stimuli_distractor_diamondtriangles.svg	stimuli_target_trianglerectangles.svg	29	yes	44	1	534	0	0			0	0			1				0	
6.6.1	win	2023-06-23	15:20:56	15:26:41	341362	6125653f9d984b6fd3d68983	4	1	main_z	7	advance_on_keypress_ZEE	112	stimuli_distractor_diamondtriangles.svg	stimuli_target_trianglerectangles.svg	29	yes	57	0	313	0	0			0	0			1				0	
6.6.1	win	2023-06-23	15:20:56	15:26:42	342696	6125653f9d984b6fd3d68983	4	1	main_z	7	main_z	113	stimuli_distractor_diamondtriangles.svg	stimuli_target_diamondrectangles.svg	31	yes	44	1	403	0	0			0	0			1				0	
6.6.1	win	2023-06-23	15:20:56	15:26:42	342696	6125653f9d984b6fd3d68983	4	1	main_z	7	advance_on_keypress_ZEE	114	stimuli_distractor_diamondtriangles.svg	stimuli_target_diamondrectangles.svg	31	yes	57	0	244	0	0			0	0			1				0	
6.6.1	win	2023-06-23	15:20:56	15:26:43	343910	6125653f9d984b6fd3d68983	4	1	main_z	7	main_z	115	stimuli_distractor_diamondtriangles.svg	stimuli_target_trianglesquares.svg	30	yes	44	1	352	0	0			0	0			1				0	
6.6.1	win	2023-06-23	15:20:56	15:26:43	343910	6125653f9d984b6fd3d68983	4	1	main_z	7	advance_on_keypress_ZEE	116	stimuli_distractor_diamondtriangles.svg	stimuli_target_trianglesquares.svg	30	yes	57	0	192	0	0			0	0			1				0	
6.6.1	win	2023-06-23	15:20:56	15:26:45	345173	6125653f9d984b6fd3d68983	4	1	main_z	7	main_z	117	stimuli_target_diamondrectangles.svg	stimuli_distractor_trianglediamonds.svg	19	yes	44	1	449	0	0			0	0			1				0	
6.6.1	win	2023-06-23	15:20:56	15:26:45	345173	6125653f9d984b6fd3d68983	4	1	main_z	7	advance_on_keypress_ZEE	118	stimuli_target_diamondrectangles.svg	stimuli_distractor_trianglediamonds.svg	19	yes	57	0	181	0	0			0	0			1				0	
6.6.1	win	2023-06-23	15:20:56	15:26:46	346370	6125653f9d984b6fd3d68983	4	1	main_z	7	main_z	119	stimuli_target_rectanglediamonds.svg	stimuli_distractor_trianglediamonds.svg	2	yes	44	1	392	0	0			0	0			1				0	
6.6.1	win	2023-06-23	15:20:56	15:26:46	346370	6125653f9d984b6fd3d68983	4	1	main_z	7	advance_on_keypress_ZEE	120	stimuli_target_rectanglediamonds.svg	stimuli_distractor_trianglediamonds.svg	2	yes	57	0	240	0	0			0	0			1				0	
6.6.1	win	2023-06-23	15:20:56	15:26:47	347627	6125653f9d984b6fd3d68983	4	1	main_z	7	main_z	121	stimuli_distractor_trianglediamonds.svg	stimuli_target_rectangletriangles.svg	9	yes	44	1	389	0	0			0	0			1				0	
6.6.1	win	2023-06-23	15:20:56	15:26:47	347627	6125653f9d984b6fd3d68983	4	1	main_z	7	advance_on_keypress_ZEE	122	stimuli_distractor_trianglediamonds.svg	stimuli_target_rectangletriangles.svg	9	yes	57	0	168	0	0			0	0			1				0	
6.6.1	win	2023-06-23	15:20:56	15:26:48	348764	6125653f9d984b6fd3d68983	4	1	main_z	7	main_z	123	stimuli_distractor_trianglediamonds.svg	stimuli_target_diamondrectangles.svg	27	yes	44	1	352	0	0			0	0			1				0	
6.6.1	win	2023-06-23	15:20:56	15:26:48	348764	6125653f9d984b6fd3d68983	4	1	main_z	7	advance_on_keypress_ZEE	124	stimuli_distractor_trianglediamonds.svg	stimuli_target_diamondrectangles.svg	27	yes	57	0	232	0	0			0	0			1				0	
6.6.1	win	2023-06-23	15:20:56	15:26:49	350027	6125653f9d984b6fd3d68983	4	1	main_z	7	main_z	125	stimuli_distractor_trianglediamonds.svg	stimuli_target_squarediamonds.svg	12	yes	44	1	414	0	0			0	0			1				0	
6.6.1	win	2023-06-23	15:20:56	15:26:49	350027	6125653f9d984b6fd3d68983	4	1	main_z	7	advance_on_keypress_ZEE	126	stimuli_distractor_trianglediamonds.svg	stimuli_target_squarediamonds.svg	12	yes	57	0	211	0	0			0	0			1				0	
6.6.1	win	2023-06-23	15:20:56	15:26:51	351252	6125653f9d984b6fd3d68983	4	1	main_z	7	main_z	127	stimuli_distractor_diamondtriangles.svg	stimuli_distractor_trianglediamonds.svg	38	no	44	0	395	0	0			0	0			1				0	
6.6.1	win	2023-06-23	15:20:56	15:26:51	351252	6125653f9d984b6fd3d68983	4	1	main_z	7	advance_on_keypress_ZEE	128	stimuli_distractor_diamondtriangles.svg	stimuli_distractor_trianglediamonds.svg	38	no	57	0	193	0	0			0	0			1				0	
6.6.1	win	2023-06-23	15:20:56	15:26:52	352635	6125653f9d984b6fd3d68983	4	1	main_z	7	main_z	129	stimuli_distractor_diamondtriangles.svg	stimuli_target_diamondsquares.svg	32	yes	44	1	571	0	0			0	0			1				0	
6.6.1	win	2023-06-23	15:20:56	15:26:52	352635	6125653f9d984b6fd3d68983	4	1	main_z	7	advance_on_keypress_ZEE	130	stimuli_distractor_diamondtriangles.svg	stimuli_target_diamondsquares.svg	32	yes	57	0	115	0	0			0	0			1				0	
6.6.1	win	2023-06-23	15:20:56	15:26:53	353839	6125653f9d984b6fd3d68983	4	1	main_z	7	main_z	131	stimuli_target_trianglerectangles.svg	stimuli_distractor_trianglediamonds.svg	17	yes	44	1	475	0	0			0	0			1				0	
6.6.1	win	2023-06-23	15:20:56	15:26:53	353839	6125653f9d984b6fd3d68983	4	1	main_z	7	advance_on_keypress_ZEE	132	stimuli_target_trianglerectangles.svg	stimuli_distractor_trianglediamonds.svg	17	yes	57	0	156	0	0			0	0			1				0	
6.6.1	win	2023-06-23	15:20:56	15:26:54	354993	6125653f9d984b6fd3d68983	4	1	main_z	7	main_z	133	stimuli_target_squarediamonds.svg	stimuli_distractor_trianglediamonds.svg	4	yes	44	1	386	0	0			0	0			1				0	
6.6.1	win	2023-06-23	15:20:56	15:26:54	354993	6125653f9d984b6fd3d68983	4	1	main_z	7	advance_on_keypress_ZEE	134	stimuli_target_squarediamonds.svg	stimuli_distractor_trianglediamonds.svg	4	yes	57	0	161	0	0			0	0			1				0	
6.6.1	win	2023-06-23	15:20:56	15:26:56	356186	6125653f9d984b6fd3d68983	4	1	main_z	7	main_z	135	stimuli_target_diamondsquares.svg	stimuli_distractor_diamondtriangles.svg	24	yes	44	1	413	0	0			0	0			1				0	
6.6.1	win	2023-06-23	15:20:56	15:26:56	356186	6125653f9d984b6fd3d68983	4	1	main_z	7	advance_on_keypress_ZEE	136	stimuli_target_diamondsquares.svg	stimuli_distractor_diamondtriangles.svg	24	yes	57	0	77	0	0			0	0			1				0	
6.6.1	win	2023-06-23	15:20:56	15:26:58	358880	6125653f9d984b6fd3d68983	4	1	main_z	7	main_z	137	stimuli_distractor_diamondtriangles.svg	stimuli_distractor_diamondtriangles.svg	39	no	0	1	2003	0	0			0	0			1				0	
6.6.1	win	2023-06-23	15:20:56	15:26:58	358880	6125653f9d984b6fd3d68983	4	1	main_z	7	advance_on_keypress_ZEE	138	stimuli_distractor_diamondtriangles.svg	stimuli_distractor_diamondtriangles.svg	39	no	57	0	672	0	0			0	0			1				0	
6.6.1	win	2023-06-23	15:20:56	15:27:00	360608	6125653f9d984b6fd3d68983	4	1	main_z	7	main_z	139	stimuli_distractor_diamondtriangles.svg	stimuli_target_squaretriangles.svg	15	yes	44	1	440	0	0			0	0			1				0	
6.6.1	win	2023-06-23	15:20:56	15:27:00	360608	6125653f9d984b6fd3d68983	4	1	main_z	7	advance_on_keypress_ZEE	140	stimuli_distractor_diamondtriangles.svg	stimuli_target_squaretriangles.svg	15	yes	57	0	436	0	0			0	0			1				0	
6.6.1	win	2023-06-23	15:20:56	15:27:01	362013	6125653f9d984b6fd3d68983	4	1	main_z	7	main_z	141	stimuli_distractor_diamondtriangles.svg	stimuli_target_squarediamonds.svg	16	yes	44	1	351	0	0			0	0			1				0	
6.6.1	win	2023-06-23	15:20:56	15:27:01	362013	6125653f9d984b6fd3d68983	4	1	main_z	7	advance_on_keypress_ZEE	142	stimuli_distractor_diamondtriangles.svg	stimuli_target_squarediamonds.svg	16	yes	57	0	181	0	0			0	0			1				0	
6.6.1	win	2023-06-23	15:20:56	15:27:04	364818	6125653f9d984b6fd3d68983	4	1	main_z	7	main_z	143	stimuli_distractor_trianglediamonds.svg	stimuli_distractor_trianglediamonds.svg	34	no	0	1	2003	0	0			0	0			1				0	
6.6.1	win	2023-06-23	15:20:56	15:27:04	364818	6125653f9d984b6fd3d68983	4	1	main_z	7	advance_on_keypress_ZEE	144	stimuli_distractor_trianglediamonds.svg	stimuli_distractor_trianglediamonds.svg	34	no	57	0	57104	0	0			0	0			1				0	
6.6.1	win	2023-06-23	15:20:56	15:28:02	422868	6125653f9d984b6fd3d68983	4	1	main_z	7	main_z	145	stimuli_target_rectangletriangles.svg	stimuli_distractor_diamondtriangles.svg	5	yes	44	1	331	0	0			0	0			1				0	
6.6.1	win	2023-06-23	15:20:56	15:28:02	422868	6125653f9d984b6fd3d68983	4	1	main_z	7	advance_on_keypress_ZEE	146	stimuli_target_rectangletriangles.svg	stimuli_distractor_diamondtriangles.svg	5	yes	57	0	312	0	0			0	0			1				0	
6.6.1	win	2023-06-23	15:20:56	15:28:04	424237	6125653f9d984b6fd3d68983	4	1	main_z	7	main_z	147	stimuli_distractor_trianglediamonds.svg	stimuli_target_diamondsquares.svg	28	yes	44	1	436	0	0			0	0			1				0	
6.6.1	win	2023-06-23	15:20:56	15:28:04	424237	6125653f9d984b6fd3d68983	4	1	main_z	7	advance_on_keypress_ZEE	148	stimuli_distractor_trianglediamonds.svg	stimuli_target_diamondsquares.svg	28	yes	57	0	252	0	0			0	0			1				0	
6.6.1	win	2023-06-23	15:20:56	15:28:05	425431	6125653f9d984b6fd3d68983	4	1	main_z	7	main_z	149	stimuli_distractor_trianglediamonds.svg	stimuli_target_rectanglediamonds.svg	10	yes	44	1	325	0	0			0	0			1				0	
6.6.1	win	2023-06-23	15:20:56	15:28:05	425431	6125653f9d984b6fd3d68983	4	1	main_z	7	advance_on_keypress_ZEE	150	stimuli_distractor_trianglediamonds.svg	stimuli_target_rectanglediamonds.svg	10	yes	57	0	162	0	0			0	0			1				0	
6.6.1	win	2023-06-23	15:20:56	15:28:06	426514	6125653f9d984b6fd3d68983	4	1	main_z	7	main_z	151	stimuli_distractor_trianglediamonds.svg	stimuli_distractor_diamondtriangles.svg	36	no	44	0	303	0	0			0	0			1				0	
6.6.1	win	2023-06-23	15:20:56	15:28:06	426514	6125653f9d984b6fd3d68983	4	1	main_z	7	advance_on_keypress_ZEE	152	stimuli_distractor_trianglediamonds.svg	stimuli_distractor_diamondtriangles.svg	36	no	57	0	413	0	0			0	0			1				0	
6.6.1	win	2023-06-23	15:20:56	15:28:07	427978	6125653f9d984b6fd3d68983	4	1	main_z	7	main_z	153	stimuli_target_squarediamonds.svg	stimuli_distractor_diamondtriangles.svg	8	yes	44	1	435	0	0			0	0			1				0	
6.6.1	win	2023-06-23	15:20:56	15:28:07	427978	6125653f9d984b6fd3d68983	4	1	main_z	7	advance_on_keypress_ZEE	154	stimuli_target_squarediamonds.svg	stimuli_distractor_diamondtriangles.svg	8	yes	57	0	197	0	0			0	0			1				0	
6.6.1	win	2023-06-23	15:20:56	15:28:09	429202	6125653f9d984b6fd3d68983	4	1	main_z	7	main_z	155	stimuli_target_squaretriangles.svg	stimuli_distractor_trianglediamonds.svg	3	yes	44	1	415	0	0			0	0			1				0	
6.6.1	win	2023-06-23	15:20:56	15:28:09	429202	6125653f9d984b6fd3d68983	4	1	main_z	7	advance_on_keypress_ZEE	156	stimuli_target_squaretriangles.svg	stimuli_distractor_trianglediamonds.svg	3	yes	57	0	131	0	0			0	0			1				0	
6.6.1	win	2023-06-23	15:20:56	15:28:10	430354	6125653f9d984b6fd3d68983	4	1	main_z	7	main_z	157	stimuli_target_diamondsquares.svg	stimuli_distractor_trianglediamonds.svg	20	yes	44	1	401	0	0			0	0			1				0	
6.6.1	win	2023-06-23	15:20:56	15:28:10	430354	6125653f9d984b6fd3d68983	4	1	main_z	7	advance_on_keypress_ZEE	158	stimuli_target_diamondsquares.svg	stimuli_distractor_trianglediamonds.svg	20	yes	57	0	172	0	0			0	0			1				0	
6.6.1	win	2023-06-23	15:20:56	15:28:11	431598	6125653f9d984b6fd3d68983	4	1	main_z	7	main_z	159	stimuli_target_squaretriangles.svg	stimuli_distractor_diamondtriangles.svg	7	yes	44	1	451	0	0			0	0			1				0	
6.6.1	win	2023-06-23	15:20:56	15:28:11	431598	6125653f9d984b6fd3d68983	4	1	main_z	7	advance_on_keypress_ZEE	160	stimuli_target_squaretriangles.svg	stimuli_distractor_diamondtriangles.svg	7	yes	57	0	163	0	0			0	0			1				0	
6.6.1	win	2023-06-23	15:20:56	15:28:24	444386	6125653f9d984b6fd3d68983	4	1	practice_slash	9	practice_slash	1	stimuli_target_squarediamonds.svg	stimuli_distractor_diamondtriangles.svg	2	yes	53	1	382	0	0			0	0			1				0	
6.6.1	win	2023-06-23	15:20:56	15:28:24	444386	6125653f9d984b6fd3d68983	4	1	practice_slash	9	advance_on_keypress_SLASH	2	stimuli_target_squarediamonds.svg	stimuli_distractor_diamondtriangles.svg	2	yes	57	0	451	0	0			0	0			1				0	
6.6.1	win	2023-06-23	15:20:56	15:28:26	446913	6125653f9d984b6fd3d68983	4	1	practice_slash	9	practice_slash	3	stimuli_distractor_trianglediamonds.svg	stimuli_target_squarediamonds.svg	11	yes	53	1	451	0	0			0	0			1				0	
6.6.1	win	2023-06-23	15:20:56	15:28:26	446913	6125653f9d984b6fd3d68983	4	1	practice_slash	9	advance_on_keypress_SLASH	4	stimuli_distractor_trianglediamonds.svg	stimuli_target_squarediamonds.svg	11	yes	57	0	356	0	0			0	0			1				0	
6.6.1	win	2023-06-23	15:20:56	15:28:29	449289	6125653f9d984b6fd3d68983	4	1	practice_slash	9	practice_slash	5	stimuli_distractor_trianglediamonds.svg	stimuli_target_diamondrectangles.svg	12	yes	53	1	404	0	0			0	0			1				0	
6.6.1	win	2023-06-23	15:20:56	15:28:29	449289	6125653f9d984b6fd3d68983	4	1	practice_slash	9	advance_on_keypress_SLASH	6	stimuli_distractor_trianglediamonds.svg	stimuli_target_diamondrectangles.svg	12	yes	57	0	297	0	0			0	0			1				0	
6.6.1	win	2023-06-23	15:20:56	15:28:33	453208	6125653f9d984b6fd3d68983	4	1	practice_slash	9	practice_slash	7	stimuli_distractor_diamondtriangles.svg	stimuli_distractor_diamondtriangles.svg	13	no	0	1	2003	0	0			0	0			1				0	
6.6.1	win	2023-06-23	15:20:56	15:28:33	453208	6125653f9d984b6fd3d68983	4	1	practice_slash	9	advance_on_keypress_SLASH	8	stimuli_distractor_diamondtriangles.svg	stimuli_distractor_diamondtriangles.svg	13	no	57	0	437	0	0			0	0			1				0	
6.6.1	win	2023-06-23	15:20:56	15:28:35	455678	6125653f9d984b6fd3d68983	4	1	practice_slash	9	practice_slash	9	stimuli_target_rectanglediamonds.svg	stimuli_distractor_trianglediamonds.svg	4	yes	53	1	411	0	0			0	0			1				0	
6.6.1	win	2023-06-23	15:20:56	15:28:35	455678	6125653f9d984b6fd3d68983	4	1	practice_slash	9	advance_on_keypress_SLASH	10	stimuli_target_rectanglediamonds.svg	stimuli_distractor_trianglediamonds.svg	4	yes	57	0	379	0	0			0	0			1				0	
6.6.1	win	2023-06-23	15:20:56	15:28:37	458026	6125653f9d984b6fd3d68983	4	1	practice_slash	9	practice_slash	11	stimuli_target_squarediamonds.svg	stimuli_distractor_trianglediamonds.svg	5	yes	53	1	349	0	0			0	0			1				0	
6.6.1	win	2023-06-23	15:20:56	15:28:37	458026	6125653f9d984b6fd3d68983	4	1	practice_slash	9	advance_on_keypress_SLASH	12	stimuli_target_squarediamonds.svg	stimuli_distractor_trianglediamonds.svg	5	yes	57	0	339	0	0			0	0			1				0	
6.6.1	win	2023-06-23	15:20:56	15:28:41	461986	6125653f9d984b6fd3d68983	4	1	practice_slash	9	practice_slash	13	stimuli_distractor_trianglediamonds.svg	stimuli_distractor_diamondtriangles.svg	16	no	0	1	2003	0	0			0	0			1				0	
6.6.1	win	2023-06-23	15:20:56	15:28:41	461986	6125653f9d984b6fd3d68983	4	1	practice_slash	9	advance_on_keypress_SLASH	14	stimuli_distractor_trianglediamonds.svg	stimuli_distractor_diamondtriangles.svg	16	no	57	0	2009	0	0			0	0			1				0	
6.6.1	win	2023-06-23	15:20:56	15:28:47	467618	6125653f9d984b6fd3d68983	4	1	practice_slash	9	practice_slash	15	stimuli_distractor_trianglediamonds.svg	stimuli_distractor_trianglediamonds.svg	15	no	0	1	2003	0	0			0	0			1				0	
6.6.1	win	2023-06-23	15:20:56	15:28:47	467618	6125653f9d984b6fd3d68983	4	1	practice_slash	9	advance_on_keypress_SLASH	16	stimuli_distractor_trianglediamonds.svg	stimuli_distractor_trianglediamonds.svg	15	no	57	0	419	0	0			0	0			1				0	
6.6.1	win	2023-06-23	15:20:56	15:28:51	471667	6125653f9d984b6fd3d68983	4	1	practice_slash	9	practice_slash	17	stimuli_distractor_diamondtriangles.svg	stimuli_distractor_trianglediamonds.svg	14	no	0	1	2003	0	0			0	0			1				0	
6.6.1	win	2023-06-23	15:20:56	15:28:51	471667	6125653f9d984b6fd3d68983	4	1	practice_slash	9	advance_on_keypress_SLASH	18	stimuli_distractor_diamondtriangles.svg	stimuli_distractor_trianglediamonds.svg	14	no	57	0	513	0	0			0	0			1				0	
6.6.1	win	2023-06-23	15:20:56	15:28:54	474329	6125653f9d984b6fd3d68983	4	1	practice_slash	9	practice_slash	19	stimuli_distractor_diamondtriangles.svg	stimuli_target_rectangletriangles.svg	7	yes	53	1	524	0	0			0	0			1				0	
6.6.1	win	2023-06-23	15:20:56	15:28:54	474329	6125653f9d984b6fd3d68983	4	1	practice_slash	9	advance_on_keypress_SLASH	20	stimuli_distractor_diamondtriangles.svg	stimuli_target_rectangletriangles.svg	7	yes	57	0	282	0	0			0	0			1				0	
6.6.1	win	2023-06-23	15:20:56	15:28:56	476832	6125653f9d984b6fd3d68983	4	1	practice_slash	9	practice_slash	21	stimuli_target_diamondsquares.svg	stimuli_distractor_trianglediamonds.svg	6	yes	53	1	599	0	0			0	0			1				0	
6.6.1	win	2023-06-23	15:20:56	15:28:56	476832	6125653f9d984b6fd3d68983	4	1	practice_slash	9	advance_on_keypress_SLASH	22	stimuli_target_diamondsquares.svg	stimuli_distractor_trianglediamonds.svg	6	yes	57	0	229	0	0			0	0			1				0	
6.6.1	win	2023-06-23	15:20:56	15:28:59	479119	6125653f9d984b6fd3d68983	4	1	practice_slash	9	practice_slash	23	stimuli_target_diamondsquares.svg	stimuli_distractor_diamondtriangles.svg	3	yes	53	1	442	0	0			0	0			1				0	
6.6.1	win	2023-06-23	15:20:56	15:28:59	479119	6125653f9d984b6fd3d68983	4	1	practice_slash	9	advance_on_keypress_SLASH	24	stimuli_target_diamondsquares.svg	stimuli_distractor_diamondtriangles.svg	3	yes	57	0	374	0	0			0	0			1				0	
6.6.1	win	2023-06-23	15:20:56	15:29:01	481476	6125653f9d984b6fd3d68983	4	1	practice_slash	9	practice_slash	25	stimuli_distractor_diamondtriangles.svg	stimuli_target_diamondrectangles.svg	8	yes	53	1	361	0	0			0	0			1				0	
6.6.1	win	2023-06-23	15:20:56	15:29:01	481476	6125653f9d984b6fd3d68983	4	1	practice_slash	9	advance_on_keypress_SLASH	26	stimuli_distractor_diamondtriangles.svg	stimuli_target_diamondrectangles.svg	8	yes	57	0	377	0	0			0	0			1				0	
6.6.1	win	2023-06-23	15:20:56	15:29:03	483974	6125653f9d984b6fd3d68983	4	1	practice_slash	9	practice_slash	27	stimuli_distractor_trianglediamonds.svg	stimuli_target_rectanglediamonds.svg	10	yes	53	1	505	0	0			0	0			1				0	
6.6.1	win	2023-06-23	15:20:56	15:29:03	483974	6125653f9d984b6fd3d68983	4	1	practice_slash	9	advance_on_keypress_SLASH	28	stimuli_distractor_trianglediamonds.svg	stimuli_target_rectanglediamonds.svg	10	yes	57	0	334	0	0			0	0			1				0	
6.6.1	win	2023-06-23	15:20:56	15:29:06	486371	6125653f9d984b6fd3d68983	4	1	practice_slash	9	practice_slash	29	stimuli_target_rectanglediamonds.svg	stimuli_distractor_diamondtriangles.svg	1	yes	53	1	444	0	0			0	0			1				0	
6.6.1	win	2023-06-23	15:20:56	15:29:06	486371	6125653f9d984b6fd3d68983	4	1	practice_slash	9	advance_on_keypress_SLASH	30	stimuli_target_rectanglediamonds.svg	stimuli_distractor_diamondtriangles.svg	1	yes	57	0	337	0	0			0	0			1				0	
6.6.1	win	2023-06-23	15:20:56	15:29:08	488758	6125653f9d984b6fd3d68983	4	1	practice_slash	9	practice_slash	31	stimuli_distractor_diamondtriangles.svg	stimuli_target_trianglerectangles.svg	9	yes	53	1	435	0	0			0	0			1				0	
6.6.1	win	2023-06-23	15:20:56	15:29:08	488758	6125653f9d984b6fd3d68983	4	1	practice_slash	9	advance_on_keypress_SLASH	32	stimuli_distractor_diamondtriangles.svg	stimuli_target_trianglerectangles.svg	9	yes	57	0	365	0	0			0	0			1				0	
6.6.1	win	2023-06-23	15:20:56	15:29:14	494607	6125653f9d984b6fd3d68983	4	1	main_slash	11	main_slash	1	stimuli_target_diamondrectangles.svg	stimuli_distractor_trianglediamonds.svg	19	yes	53	1	411	0	0			0	0			1				0	
6.6.1	win	2023-06-23	15:20:56	15:29:14	494607	6125653f9d984b6fd3d68983	4	1	main_slash	11	advance_on_keypress_SLASH	2	stimuli_target_diamondrectangles.svg	stimuli_distractor_trianglediamonds.svg	19	yes	57	0	525	0	0			0	0			1				0	
6.6.1	win	2023-06-23	15:20:56	15:29:16	496122	6125653f9d984b6fd3d68983	4	1	main_slash	11	main_slash	3	stimuli_target_rectangletriangles.svg	stimuli_distractor_diamondtriangles.svg	5	yes	53	1	369	0	0			0	0			1				0	
6.6.1	win	2023-06-23	15:20:56	15:29:16	496122	6125653f9d984b6fd3d68983	4	1	main_slash	11	advance_on_keypress_SLASH	4	stimuli_target_rectangletriangles.svg	stimuli_distractor_diamondtriangles.svg	5	yes	57	0	537	0	0			0	0			1				0	
6.6.1	win	2023-06-23	15:20:56	15:29:17	497616	6125653f9d984b6fd3d68983	4	1	main_slash	11	main_slash	5	stimuli_distractor_trianglediamonds.svg	stimuli_target_diamondrectangles.svg	27	yes	53	1	344	0	0			0	0			1				0	
6.6.1	win	2023-06-23	15:20:56	15:29:17	497616	6125653f9d984b6fd3d68983	4	1	main_slash	11	advance_on_keypress_SLASH	6	stimuli_distractor_trianglediamonds.svg	stimuli_target_diamondrectangles.svg	27	yes	57	0	478	0	0			0	0			1				0	
6.6.1	win	2023-06-23	15:20:56	15:29:18	499010	6125653f9d984b6fd3d68983	4	1	main_slash	11	main_slash	7	stimuli_distractor_trianglediamonds.svg	stimuli_target_rectangletriangles.svg	9	yes	53	1	299	0	0			0	0			1				0	
6.6.1	win	2023-06-23	15:20:56	15:29:18	499010	6125653f9d984b6fd3d68983	4	1	main_slash	11	advance_on_keypress_SLASH	8	stimuli_distractor_trianglediamonds.svg	stimuli_target_rectangletriangles.svg	9	yes	57	0	376	0	0			0	0			1				0	
6.6.1	win	2023-06-23	15:20:56	15:29:20	500334	6125653f9d984b6fd3d68983	4	1	main_slash	11	main_slash	9	stimuli_target_squarediamonds.svg	stimuli_distractor_trianglediamonds.svg	4	yes	53	1	332	0	0			0	0			1				0	
6.6.1	win	2023-06-23	15:20:56	15:29:20	500334	6125653f9d984b6fd3d68983	4	1	main_slash	11	advance_on_keypress_SLASH	10	stimuli_target_squarediamonds.svg	stimuli_distractor_trianglediamonds.svg	4	yes	57	0	362	0	0			0	0			1				0	
6.6.1	win	2023-06-23	15:20:56	15:29:21	501649	6125653f9d984b6fd3d68983	4	1	main_slash	11	main_slash	11	stimuli_distractor_trianglediamonds.svg	stimuli_target_diamondsquares.svg	28	yes	53	1	334	0	0			0	0			1				0	
6.6.1	win	2023-06-23	15:20:56	15:29:21	501649	6125653f9d984b6fd3d68983	4	1	main_slash	11	advance_on_keypress_SLASH	12	stimuli_distractor_trianglediamonds.svg	stimuli_target_diamondsquares.svg	28	yes	57	0	465	0	0			0	0			1				0	
6.6.1	win	2023-06-23	15:20:56	15:29:23	503203	6125653f9d984b6fd3d68983	4	1	main_slash	11	main_slash	13	stimuli_target_diamondsquares.svg	stimuli_distractor_trianglediamonds.svg	20	yes	53	1	471	0	0			0	0			1				0	
6.6.1	win	2023-06-23	15:20:56	15:29:23	503203	6125653f9d984b6fd3d68983	4	1	main_slash	11	advance_on_keypress_SLASH	14	stimuli_target_diamondsquares.svg	stimuli_distractor_trianglediamonds.svg	20	yes	57	0	313	0	0			0	0			1				0	
6.6.1	win	2023-06-23	15:20:56	15:29:24	504547	6125653f9d984b6fd3d68983	4	1	main_slash	11	main_slash	15	stimuli_target_trianglerectangles.svg	stimuli_distractor_trianglediamonds.svg	17	yes	53	1	413	0	0			0	0			1				0	
6.6.1	win	2023-06-23	15:20:56	15:29:24	504547	6125653f9d984b6fd3d68983	4	1	main_slash	11	advance_on_keypress_SLASH	16	stimuli_target_trianglerectangles.svg	stimuli_distractor_trianglediamonds.svg	17	yes	57	0	397	0	0			0	0			1				0	
6.6.1	win	2023-06-23	15:20:56	15:29:25	505881	6125653f9d984b6fd3d68983	4	1	main_slash	11	main_slash	17	stimuli_target_trianglesquares.svg	stimuli_distractor_trianglediamonds.svg	18	yes	53	1	323	0	0			0	0			1				0	
6.6.1	win	2023-06-23	15:20:56	15:29:25	505881	6125653f9d984b6fd3d68983	4	1	main_slash	11	advance_on_keypress_SLASH	18	stimuli_target_trianglesquares.svg	stimuli_distractor_trianglediamonds.svg	18	yes	57	0	409	0	0			0	0			1				0	
6.6.1	win	2023-06-23	15:20:56	15:29:27	507276	6125653f9d984b6fd3d68983	4	1	main_slash	11	main_slash	19	stimuli_target_squaretriangles.svg	stimuli_distractor_diamondtriangles.svg	7	yes	53	1	371	0	0			0	0			1				0	
6.6.1	win	2023-06-23	15:20:56	15:29:27	507276	6125653f9d984b6fd3d68983	4	1	main_slash	11	advance_on_keypress_SLASH	20	stimuli_target_squaretriangles.svg	stimuli_distractor_diamondtriangles.svg	7	yes	57	0	398	0	0			0	0			1				0	
6.6.1	win	2023-06-23	15:20:56	15:29:28	508599	6125653f9d984b6fd3d68983	4	1	main_slash	11	main_slash	21	stimuli_distractor_diamondtriangles.svg	stimuli_target_squarediamonds.svg	16	yes	53	1	313	0	0			0	0			1				0	
6.6.1	win	2023-06-23	15:20:56	15:29:28	508599	6125653f9d984b6fd3d68983	4	1	main_slash	11	advance_on_keypress_SLASH	22	stimuli_distractor_diamondtriangles.svg	stimuli_target_squarediamonds.svg	16	yes	57	0	314	0	0			0	0			1				0	
6.6.1	win	2023-06-23	15:20:56	15:29:29	509842	6125653f9d984b6fd3d68983	4	1	main_slash	11	main_slash	23	stimuli_distractor_diamondtriangles.svg	stimuli_target_rectangletriangles.svg	13	yes	53	1	313	0	0			0	0			1				0	
6.6.1	win	2023-06-23	15:20:56	15:29:29	509842	6125653f9d984b6fd3d68983	4	1	main_slash	11	advance_on_keypress_SLASH	24	stimuli_distractor_diamondtriangles.svg	stimuli_target_rectangletriangles.svg	13	yes	57	0	294	0	0			0	0			1				0	
6.6.1	win	2023-06-23	15:20:56	15:29:31	511087	6125653f9d984b6fd3d68983	4	1	main_slash	11	main_slash	25	stimuli_target_rectanglediamonds.svg	stimuli_distractor_trianglediamonds.svg	2	yes	53	1	335	0	0			0	0			1				0	
6.6.1	win	2023-06-23	15:20:56	15:29:31	511087	6125653f9d984b6fd3d68983	4	1	main_slash	11	advance_on_keypress_SLASH	26	stimuli_target_rectanglediamonds.svg	stimuli_distractor_trianglediamonds.svg	2	yes	57	0	285	0	0			0	0			1				0	
6.6.1	win	2023-06-23	15:20:56	15:29:32	512311	6125653f9d984b6fd3d68983	4	1	main_slash	11	main_slash	27	stimuli_distractor_trianglediamonds.svg	stimuli_target_rectanglediamonds.svg	10	yes	53	1	322	0	0			0	0			1				0	
6.6.1	win	2023-06-23	15:20:56	15:29:32	512311	6125653f9d984b6fd3d68983	4	1	main_slash	11	advance_on_keypress_SLASH	28	stimuli_distractor_trianglediamonds.svg	stimuli_target_rectanglediamonds.svg	10	yes	57	0	266	0	0			0	0			1				0	
6.6.1	win	2023-06-23	15:20:56	15:29:33	513494	6125653f9d984b6fd3d68983	4	1	main_slash	11	main_slash	29	stimuli_distractor_diamondtriangles.svg	stimuli_target_diamondrectangles.svg	31	yes	53	1	304	0	0			0	0			1				0	
6.6.1	win	2023-06-23	15:20:56	15:29:33	513494	6125653f9d984b6fd3d68983	4	1	main_slash	11	advance_on_keypress_SLASH	30	stimuli_distractor_diamondtriangles.svg	stimuli_target_diamondrectangles.svg	31	yes	57	0	333	0	0			0	0			1				0	
6.6.1	win	2023-06-23	15:20:56	15:29:36	516450	6125653f9d984b6fd3d68983	4	1	main_slash	11	main_slash	31	stimuli_distractor_trianglediamonds.svg	stimuli_distractor_trianglediamonds.svg	33	no	0	1	2003	0	0			0	0			1				0	
6.6.1	win	2023-06-23	15:20:56	15:29:36	516450	6125653f9d984b6fd3d68983	4	1	main_slash	11	advance_on_keypress_SLASH	32	stimuli_distractor_trianglediamonds.svg	stimuli_distractor_trianglediamonds.svg	33	no	57	0	331	0	0			0	0			1				0	
6.6.1	win	2023-06-23	15:20:56	15:29:37	517859	6125653f9d984b6fd3d68983	4	1	main_slash	11	main_slash	33	stimuli_distractor_trianglediamonds.svg	stimuli_distractor_diamondtriangles.svg	36	no	53	0	461	0	0			0	0			1				0	
6.6.1	win	2023-06-23	15:20:56	15:29:37	517859	6125653f9d984b6fd3d68983	4	1	main_slash	11	advance_on_keypress_SLASH	34	stimuli_distractor_trianglediamonds.svg	stimuli_distractor_diamondtriangles.svg	36	no	57	0	706	0	0			0	0			1				0	
6.6.1	win	2023-06-23	15:20:56	15:29:39	519473	6125653f9d984b6fd3d68983	4	1	main_slash	11	main_slash	35	stimuli_distractor_trianglediamonds.svg	stimuli_target_squarediamonds.svg	12	yes	53	1	290	0	0			0	0			1				0	
6.6.1	win	2023-06-23	15:20:56	15:29:39	519473	6125653f9d984b6fd3d68983	4	1	main_slash	11	advance_on_keypress_SLASH	36	stimuli_distractor_trianglediamonds.svg	stimuli_target_squarediamonds.svg	12	yes	57	0	332	0	0			0	0			1				0	
6.6.1	win	2023-06-23	15:20:56	15:29:40	520807	6125653f9d984b6fd3d68983	4	1	main_slash	11	main_slash	37	stimuli_target_rectangletriangles.svg	stimuli_distractor_trianglediamonds.svg	1	yes	53	1	381	0	0			0	0			1				0	
6.6.1	win	2023-06-23	15:20:56	15:29:40	520807	6125653f9d984b6fd3d68983	4	1	main_slash	11	advance_on_keypress_SLASH	38	stimuli_target_rectangletriangles.svg	stimuli_distractor_trianglediamonds.svg	1	yes	57	0	374	0	0			0	0			1				0	
6.6.1	win	2023-06-23	15:20:56	15:29:42	522281	6125653f9d984b6fd3d68983	4	1	main_slash	11	main_slash	39	stimuli_target_trianglerectangles.svg	stimuli_distractor_diamondtriangles.svg	21	yes	53	1	481	0	0			0	0			1				0	
6.6.1	win	2023-06-23	15:20:56	15:29:42	522281	6125653f9d984b6fd3d68983	4	1	main_slash	11	advance_on_keypress_SLASH	40	stimuli_target_trianglerectangles.svg	stimuli_distractor_diamondtriangles.svg	21	yes	57	0	396	0	0			0	0			1				0	
6.6.1	win	2023-06-23	15:20:56	15:29:43	523605	6125653f9d984b6fd3d68983	4	1	main_slash	11	main_slash	41	stimuli_distractor_diamondtriangles.svg	stimuli_distractor_diamondtriangles.svg	40	no	53	0	312	0	0			0	0			1				0	
6.6.1	win	2023-06-23	15:20:56	15:29:43	523605	6125653f9d984b6fd3d68983	4	1	main_slash	11	advance_on_keypress_SLASH	42	stimuli_distractor_diamondtriangles.svg	stimuli_distractor_diamondtriangles.svg	40	no	57	0	955	0	0			0	0			1				0	
6.6.1	win	2023-06-23	15:20:56	15:29:45	525691	6125653f9d984b6fd3d68983	4	1	main_slash	11	main_slash	43	stimuli_distractor_diamondtriangles.svg	stimuli_target_trianglerectangles.svg	29	yes	53	1	516	0	0			0	0			1				0	
6.6.1	win	2023-06-23	15:20:56	15:29:45	525691	6125653f9d984b6fd3d68983	4	1	main_slash	11	advance_on_keypress_SLASH	44	stimuli_distractor_diamondtriangles.svg	stimuli_target_trianglerectangles.svg	29	yes	57	0	958	0	0			0	0			1				0	
6.6.1	win	2023-06-23	15:20:56	15:29:47	527878	6125653f9d984b6fd3d68983	4	1	main_slash	11	main_slash	45	stimuli_target_rectanglediamonds.svg	stimuli_distractor_diamondtriangles.svg	6	yes	53	1	613	0	0			0	0			1				0	
6.6.1	win	2023-06-23	15:20:56	15:29:47	527878	6125653f9d984b6fd3d68983	4	1	main_slash	11	advance_on_keypress_SLASH	46	stimuli_target_rectanglediamonds.svg	stimuli_distractor_diamondtriangles.svg	6	yes	57	0	466	0	0			0	0			1				0	
6.6.1	win	2023-06-23	15:20:56	15:29:50	530964	6125653f9d984b6fd3d68983	4	1	main_slash	11	main_slash	47	stimuli_distractor_diamondtriangles.svg	stimuli_distractor_trianglediamonds.svg	37	no	0	1	2003	0	0			0	0			1				0	
6.6.1	win	2023-06-23	15:20:56	15:29:50	530964	6125653f9d984b6fd3d68983	4	1	main_slash	11	advance_on_keypress_SLASH	48	stimuli_distractor_diamondtriangles.svg	stimuli_distractor_trianglediamonds.svg	37	no	57	0	361	0	0			0	0			1				0	
6.6.1	win	2023-06-23	15:20:56	15:29:52	532311	6125653f9d984b6fd3d68983	4	1	main_slash	11	main_slash	49	stimuli_distractor_trianglediamonds.svg	stimuli_target_trianglesquares.svg	26	yes	53	1	372	0	0			0	0			1				0	
6.6.1	win	2023-06-23	15:20:56	15:29:52	532311	6125653f9d984b6fd3d68983	4	1	main_slash	11	advance_on_keypress_SLASH	50	stimuli_distractor_trianglediamonds.svg	stimuli_target_trianglesquares.svg	26	yes	57	0	298	0	0			0	0			1				0	
6.6.1	win	2023-06-23	15:20:56	15:29:55	535228	6125653f9d984b6fd3d68983	4	1	main_slash	11	main_slash	51	stimuli_distractor_diamondtriangles.svg	stimuli_distractor_trianglediamonds.svg	38	no	0	1	2003	0	0			0	0			1				0	
6.6.1	win	2023-06-23	15:20:56	15:29:55	535228	6125653f9d984b6fd3d68983	4	1	main_slash	11	advance_on_keypress_SLASH	52	stimuli_distractor_diamondtriangles.svg	stimuli_distractor_trianglediamonds.svg	38	no	57	0	450	0	0			0	0			1				0	
6.6.1	win	2023-06-23	15:20:56	15:29:58	538297	6125653f9d984b6fd3d68983	4	1	main_slash	11	main_slash	53	stimuli_distractor_trianglediamonds.svg	stimuli_distractor_trianglediamonds.svg	34	no	0	1	2003	0	0			0	0			1				0	
6.6.1	win	2023-06-23	15:20:56	15:29:58	538297	6125653f9d984b6fd3d68983	4	1	main_slash	11	advance_on_keypress_SLASH	54	stimuli_distractor_trianglediamonds.svg	stimuli_distractor_trianglediamonds.svg	34	no	57	0	550	0	0			0	0			1				0	
6.6.1	win	2023-06-23	15:20:56	15:29:59	539924	6125653f9d984b6fd3d68983	4	1	main_slash	11	main_slash	55	stimuli_distractor_diamondtriangles.svg	stimuli_target_squaretriangles.svg	15	yes	53	1	464	0	0			0	0			1				0	
6.6.1	win	2023-06-23	15:20:56	15:29:59	539924	6125653f9d984b6fd3d68983	4	1	main_slash	11	advance_on_keypress_SLASH	56	stimuli_distractor_diamondtriangles.svg	stimuli_target_squaretriangles.svg	15	yes	57	0	584	0	0			0	0			1				0	
6.6.1	win	2023-06-23	15:20:56	15:30:01	541523	6125653f9d984b6fd3d68983	4	1	main_slash	11	main_slash	57	stimuli_distractor_diamondtriangles.svg	stimuli_target_rectanglediamonds.svg	14	yes	53	1	392	0	0			0	0			1				0	
6.6.1	win	2023-06-23	15:20:56	15:30:01	541523	6125653f9d984b6fd3d68983	4	1	main_slash	11	advance_on_keypress_SLASH	58	stimuli_distractor_diamondtriangles.svg	stimuli_target_rectanglediamonds.svg	14	yes	57	0	331	0	0			0	0			1				0	
6.6.1	win	2023-06-23	15:20:56	15:30:02	542995	6125653f9d984b6fd3d68983	4	1	main_slash	11	main_slash	59	stimuli_target_diamondrectangles.svg	stimuli_distractor_diamondtriangles.svg	23	yes	53	1	526	0	0			0	0			1				0	
6.6.1	win	2023-06-23	15:20:56	15:30:02	542995	6125653f9d984b6fd3d68983	4	1	main_slash	11	advance_on_keypress_SLASH	60	stimuli_target_diamondrectangles.svg	stimuli_distractor_diamondtriangles.svg	23	yes	57	0	333	0	0			0	0			1				0	
6.6.1	win	2023-06-23	15:20:56	15:30:04	544347	6125653f9d984b6fd3d68983	4	1	main_slash	11	main_slash	61	stimuli_target_squarediamonds.svg	stimuli_distractor_diamondtriangles.svg	8	yes	53	1	401	0	0			0	0			1				0	
6.6.1	win	2023-06-23	15:20:56	15:30:04	544347	6125653f9d984b6fd3d68983	4	1	main_slash	11	advance_on_keypress_SLASH	62	stimuli_target_squarediamonds.svg	stimuli_distractor_diamondtriangles.svg	8	yes	57	0	322	0	0			0	0			1				0	
6.6.1	win	2023-06-23	15:20:56	15:30:05	545832	6125653f9d984b6fd3d68983	4	1	main_slash	11	main_slash	63	stimuli_distractor_diamondtriangles.svg	stimuli_target_diamondsquares.svg	32	yes	53	1	546	0	0			0	0			1				0	
6.6.1	win	2023-06-23	15:20:56	15:30:05	545832	6125653f9d984b6fd3d68983	4	1	main_slash	11	advance_on_keypress_SLASH	64	stimuli_distractor_diamondtriangles.svg	stimuli_target_diamondsquares.svg	32	yes	57	0	337	0	0			0	0			1				0	
6.6.1	win	2023-06-23	15:20:56	15:30:07	547106	6125653f9d984b6fd3d68983	4	1	main_slash	11	main_slash	65	stimuli_distractor_diamondtriangles.svg	stimuli_target_trianglesquares.svg	30	yes	53	1	319	0	0			0	0			1				0	
6.6.1	win	2023-06-23	15:20:56	15:30:07	547106	6125653f9d984b6fd3d68983	4	1	main_slash	11	advance_on_keypress_SLASH	66	stimuli_distractor_diamondtriangles.svg	stimuli_target_trianglesquares.svg	30	yes	57	0	303	0	0			0	0			1				0	
6.6.1	win	2023-06-23	15:20:56	15:30:08	548520	6125653f9d984b6fd3d68983	4	1	main_slash	11	main_slash	67	stimuli_target_diamondsquares.svg	stimuli_distractor_diamondtriangles.svg	24	yes	53	1	490	0	0			0	0			1				0	
6.6.1	win	2023-06-23	15:20:56	15:30:08	548520	6125653f9d984b6fd3d68983	4	1	main_slash	11	advance_on_keypress_SLASH	68	stimuli_target_diamondsquares.svg	stimuli_distractor_diamondtriangles.svg	24	yes	57	0	312	0	0			0	0			1				0	
6.6.1	win	2023-06-23	15:20:56	15:30:09	549824	6125653f9d984b6fd3d68983	4	1	main_slash	11	main_slash	69	stimuli_distractor_trianglediamonds.svg	stimuli_target_squaretriangles.svg	11	yes	53	1	371	0	0			0	0			1				0	
6.6.1	win	2023-06-23	15:20:56	15:30:09	549824	6125653f9d984b6fd3d68983	4	1	main_slash	11	advance_on_keypress_SLASH	70	stimuli_distractor_trianglediamonds.svg	stimuli_target_squaretriangles.svg	11	yes	57	0	257	0	0			0	0			1				0	
6.6.1	win	2023-06-23	15:20:56	15:30:10	551018	6125653f9d984b6fd3d68983	4	1	main_slash	11	main_slash	71	stimuli_distractor_diamondtriangles.svg	stimuli_distractor_diamondtriangles.svg	39	no	53	0	321	0	0			0	0			1				0	
6.6.1	win	2023-06-23	15:20:56	15:30:10	551018	6125653f9d984b6fd3d68983	4	1	main_slash	11	advance_on_keypress_SLASH	72	stimuli_distractor_diamondtriangles.svg	stimuli_distractor_diamondtriangles.svg	39	no	57	0	808	0	0			0	0			1				0	
6.6.1	win	2023-06-23	15:20:56	15:30:12	553024	6125653f9d984b6fd3d68983	4	1	main_slash	11	main_slash	73	stimuli_distractor_trianglediamonds.svg	stimuli_target_trianglerectangles.svg	25	yes	53	1	584	0	0			0	0			1				0	
6.6.1	win	2023-06-23	15:20:56	15:30:12	553024	6125653f9d984b6fd3d68983	4	1	main_slash	11	advance_on_keypress_SLASH	74	stimuli_distractor_trianglediamonds.svg	stimuli_target_trianglerectangles.svg	25	yes	57	0	415	0	0			0	0			1				0	
6.6.1	win	2023-06-23	15:20:56	15:30:16	556061	6125653f9d984b6fd3d68983	4	1	main_slash	11	main_slash	75	stimuli_distractor_trianglediamonds.svg	stimuli_distractor_diamondtriangles.svg	35	no	0	1	2003	0	0			0	0			1				0	
6.6.1	win	2023-06-23	15:20:56	15:30:16	556061	6125653f9d984b6fd3d68983	4	1	main_slash	11	advance_on_keypress_SLASH	76	stimuli_distractor_trianglediamonds.svg	stimuli_distractor_diamondtriangles.svg	35	no	57	0	461	0	0			0	0			1				0	
6.6.1	win	2023-06-23	15:20:56	15:30:17	557589	6125653f9d984b6fd3d68983	4	1	main_slash	11	main_slash	77	stimuli_target_trianglesquares.svg	stimuli_distractor_diamondtriangles.svg	22	yes	53	1	455	0	0			0	0			1				0	
6.6.1	win	2023-06-23	15:20:56	15:30:17	557589	6125653f9d984b6fd3d68983	4	1	main_slash	11	advance_on_keypress_SLASH	78	stimuli_target_trianglesquares.svg	stimuli_distractor_diamondtriangles.svg	22	yes	57	0	316	0	0			0	0			1				0	
6.6.1	win	2023-06-23	15:20:56	15:30:18	559003	6125653f9d984b6fd3d68983	4	1	main_slash	11	main_slash	79	stimuli_target_squaretriangles.svg	stimuli_distractor_trianglediamonds.svg	3	yes	53	1	480	0	0			0	0			1				0	
6.6.1	win	2023-06-23	15:20:56	15:30:18	559003	6125653f9d984b6fd3d68983	4	1	main_slash	11	advance_on_keypress_SLASH	80	stimuli_target_squaretriangles.svg	stimuli_distractor_trianglediamonds.svg	3	yes	57	0	365	0	0			0	0			1				0	
6.6.1	win	2023-06-23	15:20:56	15:30:20	560497	6125653f9d984b6fd3d68983	4	1	main_slash	11	main_slash	81	stimuli_target_diamondrectangles.svg	stimuli_distractor_trianglediamonds.svg	19	yes	53	1	508	0	0			0	0			1				0	
6.6.1	win	2023-06-23	15:20:56	15:30:20	560497	6125653f9d984b6fd3d68983	4	1	main_slash	11	advance_on_keypress_SLASH	82	stimuli_target_diamondrectangles.svg	stimuli_distractor_trianglediamonds.svg	19	yes	57	0	296	0	0			0	0			1				0	
6.6.1	win	2023-06-23	15:20:56	15:30:21	561781	6125653f9d984b6fd3d68983	4	1	main_slash	11	main_slash	83	stimuli_target_rectanglediamonds.svg	stimuli_distractor_trianglediamonds.svg	2	yes	53	1	370	0	0			0	0			1				0	
6.6.1	win	2023-06-23	15:20:56	15:30:21	561781	6125653f9d984b6fd3d68983	4	1	main_slash	11	advance_on_keypress_SLASH	84	stimuli_target_rectanglediamonds.svg	stimuli_distractor_trianglediamonds.svg	2	yes	57	0	245	0	0			0	0			1				0	
6.6.1	win	2023-06-23	15:20:56	15:30:23	563065	6125653f9d984b6fd3d68983	4	1	main_slash	11	main_slash	85	stimuli_target_rectangletriangles.svg	stimuli_distractor_diamondtriangles.svg	5	yes	53	1	423	0	0			0	0			1				0	
6.6.1	win	2023-06-23	15:20:56	15:30:23	563065	6125653f9d984b6fd3d68983	4	1	main_slash	11	advance_on_keypress_SLASH	86	stimuli_target_rectangletriangles.svg	stimuli_distractor_diamondtriangles.svg	5	yes	57	0	284	0	0			0	0			1				0	
6.6.1	win	2023-06-23	15:20:56	15:30:24	564409	6125653f9d984b6fd3d68983	4	1	main_slash	11	main_slash	87	stimuli_distractor_trianglediamonds.svg	stimuli_target_rectangletriangles.svg	9	yes	53	1	441	0	0			0	0			1				0	
6.6.1	win	2023-06-23	15:20:56	15:30:24	564409	6125653f9d984b6fd3d68983	4	1	main_slash	11	advance_on_keypress_SLASH	88	stimuli_distractor_trianglediamonds.svg	stimuli_target_rectangletriangles.svg	9	yes	57	0	278	0	0			0	0			1				0	
6.6.1	win	2023-06-23	15:20:56	15:30:25	565793	6125653f9d984b6fd3d68983	4	1	main_slash	11	main_slash	89	stimuli_distractor_diamondtriangles.svg	stimuli_target_rectanglediamonds.svg	14	yes	53	1	493	0	0			0	0			1				0	
6.6.1	win	2023-06-23	15:20:56	15:30:25	565793	6125653f9d984b6fd3d68983	4	1	main_slash	11	advance_on_keypress_SLASH	90	stimuli_distractor_diamondtriangles.svg	stimuli_target_rectanglediamonds.svg	14	yes	57	0	313	0	0			0	0			1				0	
6.6.1	win	2023-06-23	15:20:56	15:30:27	567107	6125653f9d984b6fd3d68983	4	1	main_slash	11	main_slash	91	stimuli_distractor_trianglediamonds.svg	stimuli_target_trianglesquares.svg	26	yes	53	1	382	0	0			0	0			1				0	
6.6.1	win	2023-06-23	15:20:56	15:30:27	567107	6125653f9d984b6fd3d68983	4	1	main_slash	11	advance_on_keypress_SLASH	92	stimuli_distractor_trianglediamonds.svg	stimuli_target_trianglesquares.svg	26	yes	57	0	245	0	0			0	0			1				0	
6.6.1	win	2023-06-23	15:20:56	15:30:28	568521	6125653f9d984b6fd3d68983	4	1	main_slash	11	main_slash	93	stimuli_distractor_diamondtriangles.svg	stimuli_target_diamondrectangles.svg	31	yes	53	1	554	0	0			0	0			1				0	
6.6.1	win	2023-06-23	15:20:56	15:30:28	568521	6125653f9d984b6fd3d68983	4	1	main_slash	11	advance_on_keypress_SLASH	94	stimuli_distractor_diamondtriangles.svg	stimuli_target_diamondrectangles.svg	31	yes	57	0	303	0	0			0	0			1				0	
6.6.1	win	2023-06-23	15:20:56	15:30:29	569825	6125653f9d984b6fd3d68983	4	1	main_slash	11	main_slash	95	stimuli_target_rectanglediamonds.svg	stimuli_distractor_diamondtriangles.svg	6	yes	53	1	379	0	0			0	0			1				0	
6.6.1	win	2023-06-23	15:20:56	15:30:29	569825	6125653f9d984b6fd3d68983	4	1	main_slash	11	advance_on_keypress_SLASH	96	stimuli_target_rectanglediamonds.svg	stimuli_distractor_diamondtriangles.svg	6	yes	57	0	217	0	0			0	0			1				0	
6.6.1	win	2023-06-23	15:20:56	15:30:30	570959	6125653f9d984b6fd3d68983	4	1	main_slash	11	main_slash	97	stimuli_distractor_diamondtriangles.svg	stimuli_target_rectangletriangles.svg	13	yes	53	1	304	0	0			0	0			1				0	
6.6.1	win	2023-06-23	15:20:56	15:30:30	570959	6125653f9d984b6fd3d68983	4	1	main_slash	11	advance_on_keypress_SLASH	98	stimuli_distractor_diamondtriangles.svg	stimuli_target_rectangletriangles.svg	13	yes	57	0	262	0	0			0	0			1				0	
6.6.1	win	2023-06-23	15:20:56	15:30:32	572193	6125653f9d984b6fd3d68983	4	1	main_slash	11	main_slash	99	stimuli_distractor_trianglediamonds.svg	stimuli_target_trianglerectangles.svg	25	yes	53	1	350	0	0			0	0			1				0	
6.6.1	win	2023-06-23	15:20:56	15:30:32	572193	6125653f9d984b6fd3d68983	4	1	main_slash	11	advance_on_keypress_SLASH	100	stimuli_distractor_trianglediamonds.svg	stimuli_target_trianglerectangles.svg	25	yes	57	0	277	0	0			0	0			1				0	
6.6.1	win	2023-06-23	15:20:56	15:30:33	573417	6125653f9d984b6fd3d68983	4	1	main_slash	11	main_slash	101	stimuli_distractor_trianglediamonds.svg	stimuli_target_rectanglediamonds.svg	10	yes	53	1	331	0	0			0	0			1				0	
6.6.1	win	2023-06-23	15:20:56	15:30:33	573417	6125653f9d984b6fd3d68983	4	1	main_slash	11	advance_on_keypress_SLASH	102	stimuli_distractor_trianglediamonds.svg	stimuli_target_rectanglediamonds.svg	10	yes	57	0	201	0	0			0	0			1				0	
6.6.1	win	2023-06-23	15:20:56	15:30:34	574550	6125653f9d984b6fd3d68983	4	1	main_slash	11	main_slash	103	stimuli_distractor_diamondtriangles.svg	stimuli_target_squarediamonds.svg	16	yes	53	1	311	0	0			0	0			1				0	
6.6.1	win	2023-06-23	15:20:56	15:30:34	574550	6125653f9d984b6fd3d68983	4	1	main_slash	11	advance_on_keypress_SLASH	104	stimuli_distractor_diamondtriangles.svg	stimuli_target_squarediamonds.svg	16	yes	57	0	213	0	0			0	0			1				0	
6.6.1	win	2023-06-23	15:20:56	15:30:35	575695	6125653f9d984b6fd3d68983	4	1	main_slash	11	main_slash	105	stimuli_target_diamondsquares.svg	stimuli_distractor_diamondtriangles.svg	24	yes	53	1	311	0	0			0	0			1				0	
6.6.1	win	2023-06-23	15:20:56	15:30:35	575695	6125653f9d984b6fd3d68983	4	1	main_slash	11	advance_on_keypress_SLASH	106	stimuli_target_diamondsquares.svg	stimuli_distractor_diamondtriangles.svg	24	yes	57	0	332	0	0			0	0			1				0	
6.6.1	win	2023-06-23	15:20:56	15:30:36	577009	6125653f9d984b6fd3d68983	4	1	main_slash	11	main_slash	107	stimuli_distractor_trianglediamonds.svg	stimuli_target_squarediamonds.svg	12	yes	53	1	361	0	0			0	0			1				0	
6.6.1	win	2023-06-23	15:20:56	15:30:36	577009	6125653f9d984b6fd3d68983	4	1	main_slash	11	advance_on_keypress_SLASH	108	stimuli_distractor_trianglediamonds.svg	stimuli_target_squarediamonds.svg	12	yes	57	0	232	0	0			0	0			1				0	
6.6.1	win	2023-06-23	15:20:56	15:30:38	578213	6125653f9d984b6fd3d68983	4	1	main_slash	11	main_slash	109	stimuli_distractor_diamondtriangles.svg	stimuli_target_trianglerectangles.svg	29	yes	53	1	349	0	0			0	0			1				0	
6.6.1	win	2023-06-23	15:20:56	15:30:38	578213	6125653f9d984b6fd3d68983	4	1	main_slash	11	advance_on_keypress_SLASH	110	stimuli_distractor_diamondtriangles.svg	stimuli_target_trianglerectangles.svg	29	yes	57	0	276	0	0			0	0			1				0	
6.6.1	win	2023-06-23	15:20:56	15:30:39	579727	6125653f9d984b6fd3d68983	4	1	main_slash	11	main_slash	111	stimuli_distractor_trianglediamonds.svg	stimuli_distractor_diamondtriangles.svg	35	no	53	0	620	0	0			0	0			1				0	
6.6.1	win	2023-06-23	15:20:56	15:30:39	579727	6125653f9d984b6fd3d68983	4	1	main_slash	11	advance_on_keypress_SLASH	112	stimuli_distractor_trianglediamonds.svg	stimuli_distractor_diamondtriangles.svg	35	no	57	0	557	0	0			0	0			1				0	
6.6.1	win	2023-06-23	15:20:56	15:30:41	581426	6125653f9d984b6fd3d68983	4	1	main_slash	11	main_slash	113	stimuli_target_trianglesquares.svg	stimuli_distractor_diamondtriangles.svg	22	yes	53	1	525	0	0			0	0			1				0	
6.6.1	win	2023-06-23	15:20:56	15:30:41	581426	6125653f9d984b6fd3d68983	4	1	main_slash	11	advance_on_keypress_SLASH	114	stimuli_target_trianglesquares.svg	stimuli_distractor_diamondtriangles.svg	22	yes	57	0	280	0	0			0	0			1				0	
6.6.1	win	2023-06-23	15:20:56	15:30:44	584324	6125653f9d984b6fd3d68983	4	1	main_slash	11	main_slash	115	stimuli_distractor_diamondtriangles.svg	stimuli_distractor_trianglediamonds.svg	38	no	0	1	2003	0	0			0	0			1				0	
6.6.1	win	2023-06-23	15:20:56	15:30:44	584324	6125653f9d984b6fd3d68983	4	1	main_slash	11	advance_on_keypress_SLASH	116	stimuli_distractor_diamondtriangles.svg	stimuli_distractor_trianglediamonds.svg	38	no	57	0	775	0	0			0	0			1				0	
6.6.1	win	2023-06-23	15:20:56	15:30:46	586136	6125653f9d984b6fd3d68983	4	1	main_slash	11	main_slash	117	stimuli_distractor_diamondtriangles.svg	stimuli_target_trianglesquares.svg	30	yes	53	1	426	0	0			0	0			1				0	
6.6.1	win	2023-06-23	15:20:56	15:30:46	586136	6125653f9d984b6fd3d68983	4	1	main_slash	11	advance_on_keypress_SLASH	118	stimuli_distractor_diamondtriangles.svg	stimuli_target_trianglesquares.svg	30	yes	57	0	277	0	0			0	0			1				0	
6.6.1	win	2023-06-23	15:20:56	15:30:48	589033	6125653f9d984b6fd3d68983	4	1	main_slash	11	main_slash	119	stimuli_distractor_diamondtriangles.svg	stimuli_distractor_diamondtriangles.svg	40	no	0	1	2003	0	0			0	0			1				0	
6.6.1	win	2023-06-23	15:20:56	15:30:48	589033	6125653f9d984b6fd3d68983	4	1	main_slash	11	advance_on_keypress_SLASH	120	stimuli_distractor_diamondtriangles.svg	stimuli_distractor_diamondtriangles.svg	40	no	57	0	400	0	0			0	0			1				0	
6.6.1	win	2023-06-23	15:20:56	15:30:50	590430	6125653f9d984b6fd3d68983	4	1	main_slash	11	main_slash	121	stimuli_distractor_trianglediamonds.svg	stimuli_target_diamondsquares.svg	28	yes	53	1	386	0	0			0	0			1				0	
6.6.1	win	2023-06-23	15:20:56	15:30:50	590430	6125653f9d984b6fd3d68983	4	1	main_slash	11	advance_on_keypress_SLASH	122	stimuli_distractor_trianglediamonds.svg	stimuli_target_diamondsquares.svg	28	yes	57	0	261	0	0			0	0			1				0	
6.6.1	win	2023-06-23	15:20:56	15:30:51	591723	6125653f9d984b6fd3d68983	4	1	main_slash	11	main_slash	123	stimuli_target_trianglesquares.svg	stimuli_distractor_trianglediamonds.svg	18	yes	53	1	416	0	0			0	0			1				0	
6.6.1	win	2023-06-23	15:20:56	15:30:51	591723	6125653f9d984b6fd3d68983	4	1	main_slash	11	advance_on_keypress_SLASH	124	stimuli_target_trianglesquares.svg	stimuli_distractor_trianglediamonds.svg	18	yes	57	0	243	0	0			0	0			1				0	
6.6.1	win	2023-06-23	15:20:56	15:30:52	592917	6125653f9d984b6fd3d68983	4	1	main_slash	11	main_slash	125	stimuli_target_diamondrectangles.svg	stimuli_distractor_diamondtriangles.svg	23	yes	53	1	331	0	0			0	0			1				0	
6.6.1	win	2023-06-23	15:20:56	15:30:52	592917	6125653f9d984b6fd3d68983	4	1	main_slash	11	advance_on_keypress_SLASH	126	stimuli_target_diamondrectangles.svg	stimuli_distractor_diamondtriangles.svg	23	yes	57	0	273	0	0			0	0			1				0	
6.6.1	win	2023-06-23	15:20:56	15:30:54	594151	6125653f9d984b6fd3d68983	4	1	main_slash	11	main_slash	127	stimuli_distractor_trianglediamonds.svg	stimuli_target_squaretriangles.svg	11	yes	53	1	343	0	0			0	0			1				0	
6.6.1	win	2023-06-23	15:20:56	15:30:54	594151	6125653f9d984b6fd3d68983	4	1	main_slash	11	advance_on_keypress_SLASH	128	stimuli_distractor_trianglediamonds.svg	stimuli_target_squaretriangles.svg	11	yes	57	0	208	0	0			0	0			1				0	
6.6.1	win	2023-06-23	15:20:56	15:30:55	595405	6125653f9d984b6fd3d68983	4	1	main_slash	11	main_slash	129	stimuli_distractor_diamondtriangles.svg	stimuli_distractor_trianglediamonds.svg	37	no	53	0	430	0	0			0	0			1				0	
6.6.1	win	2023-06-23	15:20:56	15:30:55	595405	6125653f9d984b6fd3d68983	4	1	main_slash	11	advance_on_keypress_SLASH	130	stimuli_distractor_diamondtriangles.svg	stimuli_distractor_trianglediamonds.svg	37	no	57	0	635	0	0			0	0			1				0	
6.6.1	win	2023-06-23	15:20:56	15:30:58	598658	6125653f9d984b6fd3d68983	4	1	main_slash	11	main_slash	131	stimuli_distractor_trianglediamonds.svg	stimuli_distractor_diamondtriangles.svg	36	no	0	1	2003	0	0			0	0			1				0	
6.6.1	win	2023-06-23	15:20:56	15:30:58	598658	6125653f9d984b6fd3d68983	4	1	main_slash	11	advance_on_keypress_SLASH	132	stimuli_distractor_trianglediamonds.svg	stimuli_distractor_diamondtriangles.svg	36	no	57	0	385	0	0			0	0			1				0	
6.6.1	win	2023-06-23	15:20:56	15:31:00	600521	6125653f9d984b6fd3d68983	4	1	main_slash	11	main_slash	133	stimuli_target_trianglerectangles.svg	stimuli_distractor_trianglediamonds.svg	17	yes	53	1	866	0	0			0	0			1				0	
6.6.1	win	2023-06-23	15:20:56	15:31:00	600521	6125653f9d984b6fd3d68983	4	1	main_slash	11	advance_on_keypress_SLASH	134	stimuli_target_trianglerectangles.svg	stimuli_distractor_trianglediamonds.svg	17	yes	57	0	453	0	0			0	0			1				0	
6.6.1	win	2023-06-23	15:20:56	15:31:03	603596	6125653f9d984b6fd3d68983	4	1	main_slash	11	main_slash	135	stimuli_distractor_diamondtriangles.svg	stimuli_distractor_diamondtriangles.svg	39	no	0	1	2003	0	0			0	0			1				0	
6.6.1	win	2023-06-23	15:20:56	15:31:03	603596	6125653f9d984b6fd3d68983	4	1	main_slash	11	advance_on_keypress_SLASH	136	stimuli_distractor_diamondtriangles.svg	stimuli_distractor_diamondtriangles.svg	39	no	57	0	373	0	0			0	0			1				0	
6.6.1	win	2023-06-23	15:20:56	15:31:04	605004	6125653f9d984b6fd3d68983	4	1	main_slash	11	main_slash	137	stimuli_target_squaretriangles.svg	stimuli_distractor_diamondtriangles.svg	7	yes	53	1	419	0	0			0	0			1				0	
6.6.1	win	2023-06-23	15:20:56	15:31:04	605004	6125653f9d984b6fd3d68983	4	1	main_slash	11	advance_on_keypress_SLASH	138	stimuli_target_squaretriangles.svg	stimuli_distractor_diamondtriangles.svg	7	yes	57	0	337	0	0			0	0			1				0	
6.6.1	win	2023-06-23	15:20:56	15:31:06	606369	6125653f9d984b6fd3d68983	4	1	main_slash	11	main_slash	139	stimuli_target_trianglerectangles.svg	stimuli_distractor_diamondtriangles.svg	21	yes	53	1	415	0	0			0	0			1				0	
6.6.1	win	2023-06-23	15:20:56	15:31:06	606369	6125653f9d984b6fd3d68983	4	1	main_slash	11	advance_on_keypress_SLASH	140	stimuli_target_trianglerectangles.svg	stimuli_distractor_diamondtriangles.svg	21	yes	57	0	257	0	0			0	0			1				0	
6.6.1	win	2023-06-23	15:20:56	15:31:09	609248	6125653f9d984b6fd3d68983	4	1	main_slash	11	main_slash	141	stimuli_distractor_trianglediamonds.svg	stimuli_distractor_trianglediamonds.svg	33	no	0	1	2003	0	0			0	0			1				0	
6.6.1	win	2023-06-23	15:20:56	15:31:09	609248	6125653f9d984b6fd3d68983	4	1	main_slash	11	advance_on_keypress_SLASH	142	stimuli_distractor_trianglediamonds.svg	stimuli_distractor_trianglediamonds.svg	33	no	57	0	412	0	0			0	0			1				0	
6.6.1	win	2023-06-23	15:20:56	15:31:12	612276	6125653f9d984b6fd3d68983	4	1	main_slash	11	main_slash	143	stimuli_distractor_trianglediamonds.svg	stimuli_distractor_trianglediamonds.svg	34	no	0	1	2003	0	0			0	0			1				0	
6.6.1	win	2023-06-23	15:20:56	15:31:12	612276	6125653f9d984b6fd3d68983	4	1	main_slash	11	advance_on_keypress_SLASH	144	stimuli_distractor_trianglediamonds.svg	stimuli_distractor_trianglediamonds.svg	34	no	57	0	424	0	0			0	0			1				0	
6.6.1	win	2023-06-23	15:20:56	15:31:13	613696	6125653f9d984b6fd3d68983	4	1	main_slash	11	main_slash	145	stimuli_target_squarediamonds.svg	stimuli_distractor_diamondtriangles.svg	8	yes	53	1	381	0	0			0	0			1				0	
6.6.1	win	2023-06-23	15:20:56	15:31:13	613696	6125653f9d984b6fd3d68983	4	1	main_slash	11	advance_on_keypress_SLASH	146	stimuli_target_squarediamonds.svg	stimuli_distractor_diamondtriangles.svg	8	yes	57	0	314	0	0			0	0			1				0	
6.6.1	win	2023-06-23	15:20:56	15:31:14	615041	6125653f9d984b6fd3d68983	4	1	main_slash	11	main_slash	147	stimuli_distractor_diamondtriangles.svg	stimuli_target_squaretriangles.svg	15	yes	53	1	415	0	0			0	0			1				0	
6.6.1	win	2023-06-23	15:20:56	15:31:14	615041	6125653f9d984b6fd3d68983	4	1	main_slash	11	advance_on_keypress_SLASH	148	stimuli_distractor_diamondtriangles.svg	stimuli_target_squaretriangles.svg	15	yes	57	0	339	0	0			0	0			1				0	
6.6.1	win	2023-06-23	15:20:56	15:31:16	616556	6125653f9d984b6fd3d68983	4	1	main_slash	11	main_slash	149	stimuli_distractor_diamondtriangles.svg	stimuli_target_diamondsquares.svg	32	yes	53	1	561	0	0			0	0			1				0	
6.6.1	win	2023-06-23	15:20:56	15:31:16	616556	6125653f9d984b6fd3d68983	4	1	main_slash	11	advance_on_keypress_SLASH	150	stimuli_distractor_diamondtriangles.svg	stimuli_target_diamondsquares.svg	32	yes	57	0	373	0	0			0	0			1				0	
6.6.1	win	2023-06-23	15:20:56	15:31:17	617980	6125653f9d984b6fd3d68983	4	1	main_slash	11	main_slash	151	stimuli_distractor_trianglediamonds.svg	stimuli_target_diamondrectangles.svg	27	yes	53	1	429	0	0			0	0			1				0	
6.6.1	win	2023-06-23	15:20:56	15:31:17	617980	6125653f9d984b6fd3d68983	4	1	main_slash	11	advance_on_keypress_SLASH	152	stimuli_distractor_trianglediamonds.svg	stimuli_target_diamondrectangles.svg	27	yes	57	0	292	0	0			0	0			1				0	
6.6.1	win	2023-06-23	15:20:56	15:31:19	619335	6125653f9d984b6fd3d68983	4	1	main_slash	11	main_slash	153	stimuli_target_rectangletriangles.svg	stimuli_distractor_trianglediamonds.svg	1	yes	53	1	444	0	0			0	0			1				0	
6.6.1	win	2023-06-23	15:20:56	15:31:19	619335	6125653f9d984b6fd3d68983	4	1	main_slash	11	advance_on_keypress_SLASH	154	stimuli_target_rectangletriangles.svg	stimuli_distractor_trianglediamonds.svg	1	yes	57	0	292	0	0			0	0			1				0	
6.6.1	win	2023-06-23	15:20:56	15:31:20	620709	6125653f9d984b6fd3d68983	4	1	main_slash	11	main_slash	155	stimuli_target_squarediamonds.svg	stimuli_distractor_trianglediamonds.svg	4	yes	53	1	463	0	0			0	0			1				0	
6.6.1	win	2023-06-23	15:20:56	15:31:20	620709	6125653f9d984b6fd3d68983	4	1	main_slash	11	advance_on_keypress_SLASH	156	stimuli_target_squarediamonds.svg	stimuli_distractor_trianglediamonds.svg	4	yes	57	0	313	0	0			0	0			1				0	
6.6.1	win	2023-06-23	15:20:56	15:31:22	622173	6125653f9d984b6fd3d68983	4	1	main_slash	11	main_slash	157	stimuli_target_diamondsquares.svg	stimuli_distractor_trianglediamonds.svg	20	yes	53	1	533	0	0			0	0			1				0	
6.6.1	win	2023-06-23	15:20:56	15:31:22	622173	6125653f9d984b6fd3d68983	4	1	main_slash	11	advance_on_keypress_SLASH	158	stimuli_target_diamondsquares.svg	stimuli_distractor_trianglediamonds.svg	20	yes	57	0	379	0	0			0	0			1				0	
6.6.1	win	2023-06-23	15:20:56	15:31:23	623578	6125653f9d984b6fd3d68983	4	1	main_slash	11	main_slash	159	stimuli_target_squaretriangles.svg	stimuli_distractor_trianglediamonds.svg	3	yes	53	1	416	0	0			0	0			1				0	
6.6.1	win	2023-06-23	15:20:56	15:31:23	623578	6125653f9d984b6fd3d68983	4	1	main_slash	11	advance_on_keypress_SLASH	160	stimuli_target_squaretriangles.svg	stimuli_distractor_trianglediamonds.svg	3	yes	57	0	333	0	0			0	0			1				0	
6.6.1	win	2023-06-23	15:20:56	15:31:23	623578	6125653f9d984b6fd3d68983	4	1	headphonecheck_calibration	14	headphonecheck_calibrationIntro	1	stimuli_target_squaretriangles.svg	stimuli_distractor_trianglediamonds.svg	3	yes	calibrationButton	0	1925	0	0			0	0			1				0	
6.6.1	win	2023-06-23	15:20:56	15:31:23	623578	6125653f9d984b6fd3d68983	4	1	headphonecheck_testphase	15	test_collectResponse	3	stimuli_target_squaretriangles.svg	stimuli_distractor_trianglediamonds.svg	3	yes	second	1	931	1	5	antiphase_hc_osi.wav	2	0	0			1				0	
6.6.1	win	2023-06-23	15:20:56	15:31:23	623578	6125653f9d984b6fd3d68983	4	1	headphonecheck_testphase	15	test_collectResponse	6	stimuli_target_squaretriangles.svg	stimuli_distractor_trianglediamonds.svg	3	yes	second	1	711	2	1	antiphase_hc_iso.wav	2	0	0			1				0	
6.6.1	win	2023-06-23	15:20:56	15:31:23	623578	6125653f9d984b6fd3d68983	4	1	headphonecheck_testphase	15	test_collectResponse	9	stimuli_target_squaretriangles.svg	stimuli_distractor_trianglediamonds.svg	3	yes	first	1	657	3	3	antiphase_hc_soi.wav	1	0	0			1				0	
6.6.1	win	2023-06-23	15:20:56	15:31:23	623578	6125653f9d984b6fd3d68983	4	1	headphonecheck_testphase	15	test_collectResponse	12	stimuli_target_squaretriangles.svg	stimuli_distractor_trianglediamonds.svg	3	yes	third	1	956	4	6	antiphase_hc_ois.wav	3	0	0			1				0	
6.6.1	win	2023-06-23	15:20:56	15:31:23	623578	6125653f9d984b6fd3d68983	4	1	headphonecheck_testphase	15	test_collectResponse	15	stimuli_target_squaretriangles.svg	stimuli_distractor_trianglediamonds.svg	3	yes	third	0	1223	5	4	antiphase_hc_sio.wav	1	0	0			1				0	
6.6.1	win	2023-06-23	15:20:56	15:31:23	623578	6125653f9d984b6fd3d68983	4	1	headphonecheck_testphase	15	test_collectResponse	18	stimuli_target_squaretriangles.svg	stimuli_distractor_trianglediamonds.svg	3	yes	third	1	546	6	2	antiphase_hc_ios.wav	3	0	0			1				0	
6.6.1	win	2023-06-23	15:20:56	15:31:23	623578	6125653f9d984b6fd3d68983	4	1	stereocheck_calibration	17	stereocheck_calibrationIntro	1	stimuli_target_squaretriangles.svg	stimuli_distractor_trianglediamonds.svg	3	yes	stereocheck_calibrationButton	0	4028	6	2	antiphase_hc_ios.wav	3	0	0			1				0	
6.6.1	win	2023-06-23	15:20:56	15:31:23	623578	6125653f9d984b6fd3d68983	4	1	stereocheck_testphase	18	stereocheck_test_collectResponse	3	stimuli_target_squaretriangles.svg	stimuli_distractor_trianglediamonds.svg	3	yes	stereocheck_right	1	1941	6	2	antiphase_hc_ios.wav	3	1	6	noise_calib_stim_RIGHT.wav	2	1				0	
6.6.1	win	2023-06-23	15:20:56	15:31:23	623578	6125653f9d984b6fd3d68983	4	1	stereocheck_testphase	18	stereocheck_test_collectResponse	6	stimuli_target_squaretriangles.svg	stimuli_distractor_trianglediamonds.svg	3	yes	stereocheck_right	1	1003	6	2	antiphase_hc_ios.wav	3	2	4	noise_calib_stim_RIGHT.wav	2	1				0	
6.6.1	win	2023-06-23	15:20:56	15:31:23	623578	6125653f9d984b6fd3d68983	4	1	stereocheck_testphase	18	stereocheck_test_collectResponse	9	stimuli_target_squaretriangles.svg	stimuli_distractor_trianglediamonds.svg	3	yes	stereocheck_left	1	399	6	2	antiphase_hc_ios.wav	3	3	3	noise_calib_stim_LEFT.wav	1	1				0	
6.6.1	win	2023-06-23	15:20:56	15:31:23	623578	6125653f9d984b6fd3d68983	4	1	stereocheck_testphase	18	stereocheck_test_collectResponse	12	stimuli_target_squaretriangles.svg	stimuli_distractor_trianglediamonds.svg	3	yes	stereocheck_left	1	499	6	2	antiphase_hc_ios.wav	3	4	1	noise_calib_stim_LEFT.wav	1	1				0	
6.6.1	win	2023-06-23	15:20:56	15:31:23	623578	6125653f9d984b6fd3d68983	4	1	stereocheck_testphase	18	stereocheck_test_collectResponse	15	stimuli_target_squaretriangles.svg	stimuli_distractor_trianglediamonds.svg	3	yes	stereocheck_right	1	966	6	2	antiphase_hc_ios.wav	3	5	5	noise_calib_stim_RIGHT.wav	2	1				0	
6.6.1	win	2023-06-23	15:20:56	15:31:23	623578	6125653f9d984b6fd3d68983	4	1	stereocheck_testphase	18	stereocheck_test_collectResponse	18	stimuli_target_squaretriangles.svg	stimuli_distractor_trianglediamonds.svg	3	yes	stereocheck_left	1	1025	6	2	antiphase_hc_ios.wav	3	6	2	noise_calib_stim_LEFT.wav	1	1				0	
6.6.1	win	2023-06-23	15:20:56	15:31:23	623578	6125653f9d984b6fd3d68983	4	1	DL_practice	21	DL_practice	2	stimuli_target_squaretriangles.svg	stimuli_distractor_trianglediamonds.svg	3	yes	ga	1	1557	6	2	antiphase_hc_ios.wav	3	6	2	noise_calib_stim_LEFT.wav	1	15	blb_dichoticlistening_ga-ga.mp3	ga	ga	0	left
6.6.1	win	2023-06-23	15:20:56	15:31:23	623578	6125653f9d984b6fd3d68983	4	1	DL_practice	21	DL_practice	3	stimuli_target_squaretriangles.svg	stimuli_distractor_trianglediamonds.svg	3	yes	ka	1	1198	6	2	antiphase_hc_ios.wav	3	6	2	noise_calib_stim_LEFT.wav	1	22	blb_dichoticlistening_ka-ka.mp3	ka	ka	0	left
6.6.1	win	2023-06-23	15:20:56	15:31:23	623578	6125653f9d984b6fd3d68983	4	1	DL_practice	21	DL_practice	4	stimuli_target_squaretriangles.svg	stimuli_distractor_trianglediamonds.svg	3	yes	ka	0	4089	6	2	antiphase_hc_ios.wav	3	6	2	noise_calib_stim_LEFT.wav	1	18	blb_dichoticlistening_ga-ta.mp3	ga	ta	1	other
6.6.1	win	2023-06-23	15:20:56	15:31:23	623578	6125653f9d984b6fd3d68983	4	1	DL_practice	21	DL_practice	5	stimuli_target_squaretriangles.svg	stimuli_distractor_trianglediamonds.svg	3	yes	ka	1	1632	6	2	antiphase_hc_ios.wav	3	6	2	noise_calib_stim_LEFT.wav	1	23	blb_dichoticlistening_ka-pa.mp3	ka	pa	1	left
6.6.1	win	2023-06-23	15:20:56	15:31:23	623578	6125653f9d984b6fd3d68983	4	1	DL_practice	21	DL_practice	6	stimuli_target_squaretriangles.svg	stimuli_distractor_trianglediamonds.svg	3	yes	da	1	1454	6	2	antiphase_hc_ios.wav	3	6	2	noise_calib_stim_LEFT.wav	1	8	blb_dichoticlistening_da-da.mp3	da	da	0	left
6.6.1	win	2023-06-23	15:20:56	15:31:23	623578	6125653f9d984b6fd3d68983	4	1	DL_practice	21	DL_practice	7	stimuli_target_squaretriangles.svg	stimuli_distractor_trianglediamonds.svg	3	yes	pa	1	1938	6	2	antiphase_hc_ios.wav	3	6	2	noise_calib_stim_LEFT.wav	1	29	blb_dichoticlistening_pa-pa.mp3	pa	pa	0	left
6.6.1	win	2023-06-23	15:20:56	15:31:23	623578	6125653f9d984b6fd3d68983	4	1	DL_practice	21	DL_practice	8	stimuli_target_squaretriangles.svg	stimuli_distractor_trianglediamonds.svg	3	yes	ta	1	1628	6	2	antiphase_hc_ios.wav	3	6	2	noise_calib_stim_LEFT.wav	1	36	blb_dichoticlistening_ta-ta.mp3	ta	ta	0	left
6.6.1	win	2023-06-23	15:20:56	15:31:23	623578	6125653f9d984b6fd3d68983	4	1	DL_practice	21	DL_practice	9	stimuli_target_squaretriangles.svg	stimuli_distractor_trianglediamonds.svg	3	yes	ba	1	1775	6	2	antiphase_hc_ios.wav	3	6	2	noise_calib_stim_LEFT.wav	1	7	blb_dichoticlistening_da-ba.mp3	da	ba	1	right
6.6.1	win	2023-06-23	15:20:56	15:31:23	623578	6125653f9d984b6fd3d68983	4	1	DL_practice	21	DL_practice	10	stimuli_target_squaretriangles.svg	stimuli_distractor_trianglediamonds.svg	3	yes	ba	1	1106	6	2	antiphase_hc_ios.wav	3	6	2	noise_calib_stim_LEFT.wav	1	1	blb_dichoticlistening_ba-ba.mp3	ba	ba	0	left
6.6.1	win	2023-06-23	15:20:56	15:31:23	623578	6125653f9d984b6fd3d68983	4	1	DL_test	23	DL_test	1	stimuli_target_squaretriangles.svg	stimuli_distractor_trianglediamonds.svg	3	yes	ka	1	1419	6	2	antiphase_hc_ios.wav	3	6	2	noise_calib_stim_LEFT.wav	1	19	blb_dichoticlistening_ka-ba.mp3	ka	ba	1	left
6.6.1	win	2023-06-23	15:20:56	15:31:23	623578	6125653f9d984b6fd3d68983	4	1	DL_test	23	DL_test	2	stimuli_target_squaretriangles.svg	stimuli_distractor_trianglediamonds.svg	3	yes	da	1	1117	6	2	antiphase_hc_ios.wav	3	6	2	noise_calib_stim_LEFT.wav	1	7	blb_dichoticlistening_da-ba.mp3	da	ba	1	left
6.6.1	win	2023-06-23	15:20:56	15:31:23	623578	6125653f9d984b6fd3d68983	4	1	DL_test	23	DL_test	3	stimuli_target_squaretriangles.svg	stimuli_distractor_trianglediamonds.svg	3	yes	ba	1	1478	6	2	antiphase_hc_ios.wav	3	6	2	noise_calib_stim_LEFT.wav	1	1	blb_dichoticlistening_ba-ba.mp3	ba	ba	0	left
6.6.1	win	2023-06-23	15:20:56	15:31:23	623578	6125653f9d984b6fd3d68983	4	1	DL_test	23	DL_test	4	stimuli_target_squaretriangles.svg	stimuli_distractor_trianglediamonds.svg	3	yes	ta	0	2001	6	2	antiphase_hc_ios.wav	3	6	2	noise_calib_stim_LEFT.wav	1	11	blb_dichoticlistening_da-pa.mp3	da	pa	1	other
6.6.1	win	2023-06-23	15:20:56	15:31:23	623578	6125653f9d984b6fd3d68983	4	1	DL_test	23	DL_test	5	stimuli_target_squaretriangles.svg	stimuli_distractor_trianglediamonds.svg	3	yes	da	1	2247	6	2	antiphase_hc_ios.wav	3	6	2	noise_calib_stim_LEFT.wav	1	26	blb_dichoticlistening_pa-da.mp3	pa	da	1	right
6.6.1	win	2023-06-23	15:20:56	15:31:23	623578	6125653f9d984b6fd3d68983	4	1	DL_test	23	DL_test	6	stimuli_target_squaretriangles.svg	stimuli_distractor_trianglediamonds.svg	3	yes	ka	1	1197	6	2	antiphase_hc_ios.wav	3	6	2	noise_calib_stim_LEFT.wav	1	22	blb_dichoticlistening_ka-ka.mp3	ka	ka	0	left
6.6.1	win	2023-06-23	15:20:56	15:31:23	623578	6125653f9d984b6fd3d68983	4	1	DL_test	23	DL_test	7	stimuli_target_squaretriangles.svg	stimuli_distractor_trianglediamonds.svg	3	yes	ga	1	1277	6	2	antiphase_hc_ios.wav	3	6	2	noise_calib_stim_LEFT.wav	1	21	blb_dichoticlistening_ka-ga.mp3	ka	ga	1	right
6.6.1	win	2023-06-23	15:20:56	15:31:23	623578	6125653f9d984b6fd3d68983	4	1	DL_test	23	DL_test	8	stimuli_target_squaretriangles.svg	stimuli_distractor_trianglediamonds.svg	3	yes	ta	1	2387	6	2	antiphase_hc_ios.wav	3	6	2	noise_calib_stim_LEFT.wav	1	32	blb_dichoticlistening_ta-da.mp3	ta	da	1	left
6.6.1	win	2023-06-23	15:20:56	15:31:23	623578	6125653f9d984b6fd3d68983	4	1	DL_test	23	DL_test	9	stimuli_target_squaretriangles.svg	stimuli_distractor_trianglediamonds.svg	3	yes	ka	1	991	6	2	antiphase_hc_ios.wav	3	6	2	noise_calib_stim_LEFT.wav	1	4	blb_dichoticlistening_ba-ka.mp3	ba	ka	1	right
6.6.1	win	2023-06-23	15:20:56	15:31:23	623578	6125653f9d984b6fd3d68983	4	1	DL_test	23	DL_test	10	stimuli_target_squaretriangles.svg	stimuli_distractor_trianglediamonds.svg	3	yes	ta	1	1262	6	2	antiphase_hc_ios.wav	3	6	2	noise_calib_stim_LEFT.wav	1	30	blb_dichoticlistening_pa-ta.mp3	pa	ta	1	right
6.6.1	win	2023-06-23	15:20:56	15:31:23	623578	6125653f9d984b6fd3d68983	4	1	DL_test	23	DL_test	11	stimuli_target_squaretriangles.svg	stimuli_distractor_trianglediamonds.svg	3	yes	da	1	1199	6	2	antiphase_hc_ios.wav	3	6	2	noise_calib_stim_LEFT.wav	1	2	blb_dichoticlistening_ba-da.mp3	ba	da	1	right
6.6.1	win	2023-06-23	15:20:56	15:31:23	623578	6125653f9d984b6fd3d68983	4	1	DL_test	23	DL_test	12	stimuli_target_squaretriangles.svg	stimuli_distractor_trianglediamonds.svg	3	yes	da	1	874	6	2	antiphase_hc_ios.wav	3	6	2	noise_calib_stim_LEFT.wav	1	8	blb_dichoticlistening_da-da.mp3	da	da	0	left
6.6.1	win	2023-06-23	15:20:56	15:31:23	623578	6125653f9d984b6fd3d68983	4	1	DL_test	23	DL_test	13	stimuli_target_squaretriangles.svg	stimuli_distractor_trianglediamonds.svg	3	yes	ka	1	1053	6	2	antiphase_hc_ios.wav	3	6	2	noise_calib_stim_LEFT.wav	1	24	blb_dichoticlistening_ka-ta.mp3	ka	ta	1	left
6.6.1	win	2023-06-23	15:20:56	15:31:23	623578	6125653f9d984b6fd3d68983	4	1	DL_test	23	DL_test	14	stimuli_target_squaretriangles.svg	stimuli_distractor_trianglediamonds.svg	3	yes	pa	1	983	6	2	antiphase_hc_ios.wav	3	6	2	noise_calib_stim_LEFT.wav	1	25	blb_dichoticlistening_pa-ba.mp3	pa	ba	1	left
6.6.1	win	2023-06-23	15:20:56	15:31:23	623578	6125653f9d984b6fd3d68983	4	1	DL_test	23	DL_test	15	stimuli_target_squaretriangles.svg	stimuli_distractor_trianglediamonds.svg	3	yes	ka	1	1320	6	2	antiphase_hc_ios.wav	3	6	2	noise_calib_stim_LEFT.wav	1	28	blb_dichoticlistening_pa-ka.mp3	pa	ka	1	right
6.6.1	win	2023-06-23	15:20:56	15:31:23	623578	6125653f9d984b6fd3d68983	4	1	DL_test	23	DL_test	16	stimuli_target_squaretriangles.svg	stimuli_distractor_trianglediamonds.svg	3	yes	ka	1	936	6	2	antiphase_hc_ios.wav	3	6	2	noise_calib_stim_LEFT.wav	1	34	blb_dichoticlistening_ta-ka.mp3	ta	ka	1	right
6.6.1	win	2023-06-23	15:20:56	15:31:23	623578	6125653f9d984b6fd3d68983	4	1	DL_test	23	DL_test	17	stimuli_target_squaretriangles.svg	stimuli_distractor_trianglediamonds.svg	3	yes	ta	1	2065	6	2	antiphase_hc_ios.wav	3	6	2	noise_calib_stim_LEFT.wav	1	12	blb_dichoticlistening_da-ta.mp3	da	ta	1	right
6.6.1	win	2023-06-23	15:20:56	15:31:23	623578	6125653f9d984b6fd3d68983	4	1	DL_test	23	DL_test	18	stimuli_target_squaretriangles.svg	stimuli_distractor_trianglediamonds.svg	3	yes	ta	1	1742	6	2	antiphase_hc_ios.wav	3	6	2	noise_calib_stim_LEFT.wav	1	35	blb_dichoticlistening_ta-pa.mp3	ta	pa	1	left
6.6.1	win	2023-06-23	15:20:56	15:31:23	623578	6125653f9d984b6fd3d68983	4	1	DL_test	23	DL_test	19	stimuli_target_squaretriangles.svg	stimuli_distractor_trianglediamonds.svg	3	yes	da	1	1265	6	2	antiphase_hc_ios.wav	3	6	2	noise_calib_stim_LEFT.wav	1	14	blb_dichoticlistening_ga-da.mp3	ga	da	1	right
6.6.1	win	2023-06-23	15:20:56	15:31:23	623578	6125653f9d984b6fd3d68983	4	1	DL_test	23	DL_test	20	stimuli_target_squaretriangles.svg	stimuli_distractor_trianglediamonds.svg	3	yes	ga	1	1955	6	2	antiphase_hc_ios.wav	3	6	2	noise_calib_stim_LEFT.wav	1	33	blb_dichoticlistening_ta-ga.mp3	ta	ga	1	right
6.6.1	win	2023-06-23	15:20:56	15:31:23	623578	6125653f9d984b6fd3d68983	4	1	DL_test	23	DL_test	21	stimuli_target_squaretriangles.svg	stimuli_distractor_trianglediamonds.svg	3	yes	pa	1	1892	6	2	antiphase_hc_ios.wav	3	6	2	noise_calib_stim_LEFT.wav	1	5	blb_dichoticlistening_ba-pa.mp3	ba	pa	1	right
6.6.1	win	2023-06-23	15:20:56	15:31:23	623578	6125653f9d984b6fd3d68983	4	1	DL_test	23	DL_test	22	stimuli_target_squaretriangles.svg	stimuli_distractor_trianglediamonds.svg	3	yes	ka	0	2595	6	2	antiphase_hc_ios.wav	3	6	2	noise_calib_stim_LEFT.wav	1	6	blb_dichoticlistening_ba-ta.mp3	ba	ta	1	other
6.6.1	win	2023-06-23	15:20:56	15:31:23	623578	6125653f9d984b6fd3d68983	4	1	DL_test	23	DL_test	23	stimuli_target_squaretriangles.svg	stimuli_distractor_trianglediamonds.svg	3	yes	ka	0	1529	6	2	antiphase_hc_ios.wav	3	6	2	noise_calib_stim_LEFT.wav	1	31	blb_dichoticlistening_ta-ba.mp3	ta	ba	1	other
6.6.1	win	2023-06-23	15:20:56	15:31:23	623578	6125653f9d984b6fd3d68983	4	1	DL_test	23	DL_test	24	stimuli_target_squaretriangles.svg	stimuli_distractor_trianglediamonds.svg	3	yes	pa	0	1773	6	2	antiphase_hc_ios.wav	3	6	2	noise_calib_stim_LEFT.wav	1	10	blb_dichoticlistening_da-ka.mp3	da	ka	1	other
6.6.1	win	2023-06-23	15:20:56	15:31:23	623578	6125653f9d984b6fd3d68983	4	1	DL_test	23	DL_test	25	stimuli_target_squaretriangles.svg	stimuli_distractor_trianglediamonds.svg	3	yes	ga	1	1934	6	2	antiphase_hc_ios.wav	3	6	2	noise_calib_stim_LEFT.wav	1	18	blb_dichoticlistening_ga-ta.mp3	ga	ta	1	left
6.6.1	win	2023-06-23	15:20:56	15:31:23	623578	6125653f9d984b6fd3d68983	4	1	DL_test	23	DL_test	26	stimuli_target_squaretriangles.svg	stimuli_distractor_trianglediamonds.svg	3	yes	ba	1	1616	6	2	antiphase_hc_ios.wav	3	6	2	noise_calib_stim_LEFT.wav	1	13	blb_dichoticlistening_ga-ba.mp3	ga	ba	1	right
