build	computer.platform	date	time	timestamp	time_elapsed_ms	subject	group	session	blockcode	blocknum	trialcode	trialnum	stimulus_left	stimulus_right	stim_index	target_present	response	correct	latency	headphonecheck_countTestTrials	headphonecheck_index	headphonecheck_testSound	headphonecheck_correctResponse	stereocheck_countTestTrials	stereocheck_index	stereocheck_testSound	stereocheck_correctResponse	DL_index	DL_soundfile	DL_leftSound	DL_rightSound	DL_dualSound	DL_choice
6.6.1	win	2023-06-28	12:33:50	12:39:00	305520	550c3ed5fdf99b3039d68894	4	1	practice_z	5	practice_z	1	stimuli_target_squarediamonds.svg	stimuli_distractor_trianglediamonds.svg	5	yes	44	1	1548	0	0			0	0			1				0	
6.6.1	win	2023-06-28	12:33:50	12:39:00	305520	550c3ed5fdf99b3039d68894	4	1	practice_z	5	advance_on_keypress_ZEE	2	stimuli_target_squarediamonds.svg	stimuli_distractor_trianglediamonds.svg	5	yes	57	0	929	0	0			0	0			1				0	
6.6.1	win	2023-06-28	12:33:50	12:39:04	308765	550c3ed5fdf99b3039d68894	4	1	practice_z	5	practice_z	3	stimuli_target_rectanglediamonds.svg	stimuli_distractor_trianglediamonds.svg	4	yes	44	1	660	0	0			0	0			1				0	
6.6.1	win	2023-06-28	12:33:50	12:39:04	308765	550c3ed5fdf99b3039d68894	4	1	practice_z	5	advance_on_keypress_ZEE	4	stimuli_target_rectanglediamonds.svg	stimuli_distractor_trianglediamonds.svg	4	yes	57	0	433	0	0			0	0			1				0	
6.6.1	win	2023-06-28	12:33:50	12:39:07	311943	550c3ed5fdf99b3039d68894	4	1	practice_z	5	practice_z	5	stimuli_target_diamondsquares.svg	stimuli_distractor_diamondtriangles.svg	3	yes	44	1	1104	0	0			0	0			1				0	
6.6.1	win	2023-06-28	12:33:50	12:39:07	311943	550c3ed5fdf99b3039d68894	4	1	practice_z	5	advance_on_keypress_ZEE	6	stimuli_target_diamondsquares.svg	stimuli_distractor_diamondtriangles.svg	3	yes	57	0	374	0	0			0	0			1				0	
6.6.1	win	2023-06-28	12:33:50	12:39:11	315955	550c3ed5fdf99b3039d68894	4	1	practice_z	5	practice_z	7	stimuli_distractor_diamondtriangles.svg	stimuli_distractor_diamondtriangles.svg	13	no	0	1	2000	0	0			0	0			1				0	
6.6.1	win	2023-06-28	12:33:50	12:39:11	315955	550c3ed5fdf99b3039d68894	4	1	practice_z	5	advance_on_keypress_ZEE	8	stimuli_distractor_diamondtriangles.svg	stimuli_distractor_diamondtriangles.svg	13	no	57	0	1428	0	0			0	0			1				0	
6.6.1	win	2023-06-28	12:33:50	12:39:16	320908	550c3ed5fdf99b3039d68894	4	1	practice_z	5	practice_z	9	stimuli_target_rectanglediamonds.svg	stimuli_distractor_diamondtriangles.svg	1	yes	44	1	1886	0	0			0	0			1				0	
6.6.1	win	2023-06-28	12:33:50	12:39:16	320908	550c3ed5fdf99b3039d68894	4	1	practice_z	5	advance_on_keypress_ZEE	10	stimuli_target_rectanglediamonds.svg	stimuli_distractor_diamondtriangles.svg	1	yes	57	0	526	0	0			0	0			1				0	
6.6.1	win	2023-06-28	12:33:50	12:39:20	325072	550c3ed5fdf99b3039d68894	4	1	practice_z	5	practice_z	11	stimuli_distractor_trianglediamonds.svg	stimuli_distractor_diamondtriangles.svg	16	no	0	1	2000	0	0			0	0			1				0	
6.6.1	win	2023-06-28	12:33:50	12:39:20	325072	550c3ed5fdf99b3039d68894	4	1	practice_z	5	advance_on_keypress_ZEE	12	stimuli_distractor_trianglediamonds.svg	stimuli_distractor_diamondtriangles.svg	16	no	57	0	439	0	0			0	0			1				0	
6.6.1	win	2023-06-28	12:33:50	12:39:23	328310	550c3ed5fdf99b3039d68894	4	1	practice_z	5	practice_z	13	stimuli_distractor_trianglediamonds.svg	stimuli_target_squarediamonds.svg	11	yes	44	1	1154	0	0			0	0			1				0	
6.6.1	win	2023-06-28	12:33:50	12:39:23	328310	550c3ed5fdf99b3039d68894	4	1	practice_z	5	advance_on_keypress_ZEE	14	stimuli_distractor_trianglediamonds.svg	stimuli_target_squarediamonds.svg	11	yes	57	0	473	0	0			0	0			1				0	
6.6.1	win	2023-06-28	12:33:50	12:39:26	331588	550c3ed5fdf99b3039d68894	4	1	practice_z	5	practice_z	15	stimuli_target_diamondsquares.svg	stimuli_distractor_trianglediamonds.svg	6	yes	44	1	1166	0	0			0	0			1				0	
6.6.1	win	2023-06-28	12:33:50	12:39:26	331588	550c3ed5fdf99b3039d68894	4	1	practice_z	5	advance_on_keypress_ZEE	16	stimuli_target_diamondsquares.svg	stimuli_distractor_trianglediamonds.svg	6	yes	57	0	423	0	0			0	0			1				0	
6.6.1	win	2023-06-28	12:33:50	12:39:29	334635	550c3ed5fdf99b3039d68894	4	1	practice_z	5	practice_z	17	stimuli_target_squarediamonds.svg	stimuli_distractor_diamondtriangles.svg	2	yes	44	1	979	0	0			0	0			1				0	
6.6.1	win	2023-06-28	12:33:50	12:39:29	334635	550c3ed5fdf99b3039d68894	4	1	practice_z	5	advance_on_keypress_ZEE	18	stimuli_target_squarediamonds.svg	stimuli_distractor_diamondtriangles.svg	2	yes	57	0	343	0	0			0	0			1				0	
6.6.1	win	2023-06-28	12:33:50	12:39:33	338622	550c3ed5fdf99b3039d68894	4	1	practice_z	5	practice_z	19	stimuli_distractor_diamondtriangles.svg	stimuli_distractor_trianglediamonds.svg	14	no	0	1	2000	0	0			0	0			1				0	
6.6.1	win	2023-06-28	12:33:50	12:39:33	338622	550c3ed5fdf99b3039d68894	4	1	practice_z	5	advance_on_keypress_ZEE	20	stimuli_distractor_diamondtriangles.svg	stimuli_distractor_trianglediamonds.svg	14	no	57	0	407	0	0			0	0			1				0	
6.6.1	win	2023-06-28	12:33:50	12:39:36	341663	550c3ed5fdf99b3039d68894	4	1	practice_z	5	practice_z	21	stimuli_distractor_diamondtriangles.svg	stimuli_target_trianglerectangles.svg	9	yes	44	1	991	0	0			0	0			1				0	
6.6.1	win	2023-06-28	12:33:50	12:39:36	341663	550c3ed5fdf99b3039d68894	4	1	practice_z	5	advance_on_keypress_ZEE	22	stimuli_distractor_diamondtriangles.svg	stimuli_target_trianglerectangles.svg	9	yes	57	0	420	0	0			0	0			1				0	
6.6.1	win	2023-06-28	12:33:50	12:39:39	344666	550c3ed5fdf99b3039d68894	4	1	practice_z	5	practice_z	23	stimuli_distractor_trianglediamonds.svg	stimuli_target_diamondrectangles.svg	12	yes	44	1	943	0	0			0	0			1				0	
6.6.1	win	2023-06-28	12:33:50	12:39:39	344666	550c3ed5fdf99b3039d68894	4	1	practice_z	5	advance_on_keypress_ZEE	24	stimuli_distractor_trianglediamonds.svg	stimuli_target_diamondrectangles.svg	12	yes	57	0	555	0	0			0	0			1				0	
6.6.1	win	2023-06-28	12:33:50	12:39:43	347845	550c3ed5fdf99b3039d68894	4	1	practice_z	5	practice_z	25	stimuli_distractor_trianglediamonds.svg	stimuli_target_rectanglediamonds.svg	10	yes	44	1	989	0	0			0	0			1				0	
6.6.1	win	2023-06-28	12:33:50	12:39:43	347845	550c3ed5fdf99b3039d68894	4	1	practice_z	5	advance_on_keypress_ZEE	26	stimuli_distractor_trianglediamonds.svg	stimuli_target_rectanglediamonds.svg	10	yes	57	0	463	0	0			0	0			1				0	
6.6.1	win	2023-06-28	12:33:50	12:39:46	350881	550c3ed5fdf99b3039d68894	4	1	practice_z	5	practice_z	27	stimuli_distractor_diamondtriangles.svg	stimuli_target_diamondrectangles.svg	8	yes	44	1	925	0	0			0	0			1				0	
6.6.1	win	2023-06-28	12:33:50	12:39:46	350881	550c3ed5fdf99b3039d68894	4	1	practice_z	5	advance_on_keypress_ZEE	28	stimuli_distractor_diamondtriangles.svg	stimuli_target_diamondrectangles.svg	8	yes	57	0	431	0	0			0	0			1				0	
6.6.1	win	2023-06-28	12:33:50	12:39:49	353894	550c3ed5fdf99b3039d68894	4	1	practice_z	5	practice_z	29	stimuli_distractor_diamondtriangles.svg	stimuli_target_rectangletriangles.svg	7	yes	44	1	938	0	0			0	0			1				0	
6.6.1	win	2023-06-28	12:33:50	12:39:49	353894	550c3ed5fdf99b3039d68894	4	1	practice_z	5	advance_on_keypress_ZEE	30	stimuli_distractor_diamondtriangles.svg	stimuli_target_rectangletriangles.svg	7	yes	57	0	527	0	0			0	0			1				0	
6.6.1	win	2023-06-28	12:33:50	12:39:53	358056	550c3ed5fdf99b3039d68894	4	1	practice_z	5	practice_z	31	stimuli_distractor_trianglediamonds.svg	stimuli_distractor_trianglediamonds.svg	15	no	0	1	2000	0	0			0	0			1				0	
6.6.1	win	2023-06-28	12:33:50	12:39:53	358056	550c3ed5fdf99b3039d68894	4	1	practice_z	5	advance_on_keypress_ZEE	32	stimuli_distractor_trianglediamonds.svg	stimuli_distractor_trianglediamonds.svg	15	no	57	0	409	0	0			0	0			1				0	
6.6.1	win	2023-06-28	12:33:50	12:39:59	364740	550c3ed5fdf99b3039d68894	4	1	main_z	7	main_z	1	stimuli_distractor_diamondtriangles.svg	stimuli_target_rectanglediamonds.svg	14	yes	44	1	618	0	0			0	0			1				0	
6.6.1	win	2023-06-28	12:33:50	12:39:59	364740	550c3ed5fdf99b3039d68894	4	1	main_z	7	advance_on_keypress_ZEE	2	stimuli_distractor_diamondtriangles.svg	stimuli_target_rectanglediamonds.svg	14	yes	57	0	1447	0	0			0	0			1				0	
6.6.1	win	2023-06-28	12:33:50	12:40:02	367676	550c3ed5fdf99b3039d68894	4	1	main_z	7	main_z	3	stimuli_target_squaretriangles.svg	stimuli_distractor_diamondtriangles.svg	7	yes	44	1	837	0	0			0	0			1				0	
6.6.1	win	2023-06-28	12:33:50	12:40:02	367676	550c3ed5fdf99b3039d68894	4	1	main_z	7	advance_on_keypress_ZEE	4	stimuli_target_squaretriangles.svg	stimuli_distractor_diamondtriangles.svg	7	yes	57	0	1175	0	0			0	0			1				0	
6.6.1	win	2023-06-28	12:33:50	12:40:05	370459	550c3ed5fdf99b3039d68894	4	1	main_z	7	main_z	5	stimuli_distractor_diamondtriangles.svg	stimuli_target_diamondsquares.svg	32	yes	44	1	970	0	0			0	0			1				0	
6.6.1	win	2023-06-28	12:33:50	12:40:05	370459	550c3ed5fdf99b3039d68894	4	1	main_z	7	advance_on_keypress_ZEE	6	stimuli_distractor_diamondtriangles.svg	stimuli_target_diamondsquares.svg	32	yes	57	0	668	0	0			0	0			1				0	
6.6.1	win	2023-06-28	12:33:50	12:40:09	373772	550c3ed5fdf99b3039d68894	4	1	main_z	7	main_z	7	stimuli_distractor_diamondtriangles.svg	stimuli_distractor_trianglediamonds.svg	37	no	0	1	2000	0	0			0	0			1				0	
6.6.1	win	2023-06-28	12:33:50	12:40:09	373772	550c3ed5fdf99b3039d68894	4	1	main_z	7	advance_on_keypress_ZEE	8	stimuli_distractor_diamondtriangles.svg	stimuli_distractor_trianglediamonds.svg	37	no	57	0	531	0	0			0	0			1				0	
6.6.1	win	2023-06-28	12:33:50	12:40:11	375970	550c3ed5fdf99b3039d68894	4	1	main_z	7	main_z	9	stimuli_target_rectangletriangles.svg	stimuli_distractor_diamondtriangles.svg	5	yes	44	1	1014	0	0			0	0			1				0	
6.6.1	win	2023-06-28	12:33:50	12:40:11	375970	550c3ed5fdf99b3039d68894	4	1	main_z	7	advance_on_keypress_ZEE	10	stimuli_target_rectangletriangles.svg	stimuli_distractor_diamondtriangles.svg	5	yes	57	0	1377	0	0			0	0			1				0	
6.6.1	win	2023-06-28	12:33:50	12:40:14	379160	550c3ed5fdf99b3039d68894	4	1	main_z	7	main_z	11	stimuli_target_trianglesquares.svg	stimuli_distractor_trianglediamonds.svg	18	yes	44	1	1171	0	0			0	0			1				0	
6.6.1	win	2023-06-28	12:33:50	12:40:14	379160	550c3ed5fdf99b3039d68894	4	1	main_z	7	advance_on_keypress_ZEE	12	stimuli_target_trianglesquares.svg	stimuli_distractor_trianglediamonds.svg	18	yes	57	0	723	0	0			0	0			1				0	
6.6.1	win	2023-06-28	12:33:50	12:40:17	382522	550c3ed5fdf99b3039d68894	4	1	main_z	7	main_z	13	stimuli_distractor_diamondtriangles.svg	stimuli_distractor_trianglediamonds.svg	38	no	0	1	2000	0	0			0	0			1				0	
6.6.1	win	2023-06-28	12:33:50	12:40:17	382522	550c3ed5fdf99b3039d68894	4	1	main_z	7	advance_on_keypress_ZEE	14	stimuli_distractor_diamondtriangles.svg	stimuli_distractor_trianglediamonds.svg	38	no	57	0	843	0	0			0	0			1				0	
6.6.1	win	2023-06-28	12:33:50	12:40:20	384989	550c3ed5fdf99b3039d68894	4	1	main_z	7	main_z	15	stimuli_distractor_trianglediamonds.svg	stimuli_target_trianglesquares.svg	26	yes	44	1	983	0	0			0	0			1				0	
6.6.1	win	2023-06-28	12:33:50	12:40:20	384989	550c3ed5fdf99b3039d68894	4	1	main_z	7	advance_on_keypress_ZEE	16	stimuli_distractor_trianglediamonds.svg	stimuli_target_trianglesquares.svg	26	yes	57	0	599	0	0			0	0			1				0	
6.6.1	win	2023-06-28	12:33:50	12:40:23	388239	550c3ed5fdf99b3039d68894	4	1	main_z	7	main_z	17	stimuli_distractor_diamondtriangles.svg	stimuli_distractor_diamondtriangles.svg	40	no	0	1	2000	0	0			0	0			1				0	
6.6.1	win	2023-06-28	12:33:50	12:40:23	388239	550c3ed5fdf99b3039d68894	4	1	main_z	7	advance_on_keypress_ZEE	18	stimuli_distractor_diamondtriangles.svg	stimuli_distractor_diamondtriangles.svg	40	no	57	0	461	0	0			0	0			1				0	
6.6.1	win	2023-06-28	12:33:50	12:40:25	390390	550c3ed5fdf99b3039d68894	4	1	main_z	7	main_z	19	stimuli_target_trianglerectangles.svg	stimuli_distractor_trianglediamonds.svg	17	yes	44	1	1050	0	0			0	0			1				0	
6.6.1	win	2023-06-28	12:33:50	12:40:25	390390	550c3ed5fdf99b3039d68894	4	1	main_z	7	advance_on_keypress_ZEE	20	stimuli_target_trianglerectangles.svg	stimuli_distractor_trianglediamonds.svg	17	yes	57	0	1006	0	0			0	0			1				0	
6.6.1	win	2023-06-28	12:33:50	12:40:28	392986	550c3ed5fdf99b3039d68894	4	1	main_z	7	main_z	21	stimuli_distractor_trianglediamonds.svg	stimuli_target_squaretriangles.svg	11	yes	44	1	946	0	0			0	0			1				0	
6.6.1	win	2023-06-28	12:33:50	12:40:28	392986	550c3ed5fdf99b3039d68894	4	1	main_z	7	advance_on_keypress_ZEE	22	stimuli_distractor_trianglediamonds.svg	stimuli_target_squaretriangles.svg	11	yes	57	0	469	0	0			0	0			1				0	
6.6.1	win	2023-06-28	12:33:50	12:40:30	395174	550c3ed5fdf99b3039d68894	4	1	main_z	7	main_z	23	stimuli_distractor_trianglediamonds.svg	stimuli_target_diamondrectangles.svg	27	yes	44	1	1084	0	0			0	0			1				0	
6.6.1	win	2023-06-28	12:33:50	12:40:30	395174	550c3ed5fdf99b3039d68894	4	1	main_z	7	advance_on_keypress_ZEE	24	stimuli_distractor_trianglediamonds.svg	stimuli_target_diamondrectangles.svg	27	yes	57	0	623	0	0			0	0			1				0	
6.6.1	win	2023-06-28	12:33:50	12:40:32	397374	550c3ed5fdf99b3039d68894	4	1	main_z	7	main_z	25	stimuli_target_trianglesquares.svg	stimuli_distractor_diamondtriangles.svg	22	yes	44	1	934	0	0			0	0			1				0	
6.6.1	win	2023-06-28	12:33:50	12:40:32	397374	550c3ed5fdf99b3039d68894	4	1	main_z	7	advance_on_keypress_ZEE	26	stimuli_target_trianglesquares.svg	stimuli_distractor_diamondtriangles.svg	22	yes	57	0	600	0	0			0	0			1				0	
6.6.1	win	2023-06-28	12:33:50	12:40:34	399618	550c3ed5fdf99b3039d68894	4	1	main_z	7	main_z	27	stimuli_target_trianglerectangles.svg	stimuli_distractor_diamondtriangles.svg	21	yes	44	1	994	0	0			0	0			1				0	
6.6.1	win	2023-06-28	12:33:50	12:40:34	399618	550c3ed5fdf99b3039d68894	4	1	main_z	7	advance_on_keypress_ZEE	28	stimuli_target_trianglerectangles.svg	stimuli_distractor_diamondtriangles.svg	21	yes	57	0	578	0	0			0	0			1				0	
6.6.1	win	2023-06-28	12:33:50	12:40:37	401895	550c3ed5fdf99b3039d68894	4	1	main_z	7	main_z	29	stimuli_distractor_diamondtriangles.svg	stimuli_target_squaretriangles.svg	15	yes	44	1	1071	0	0			0	0			1				0	
6.6.1	win	2023-06-28	12:33:50	12:40:37	401895	550c3ed5fdf99b3039d68894	4	1	main_z	7	advance_on_keypress_ZEE	30	stimuli_distractor_diamondtriangles.svg	stimuli_target_squaretriangles.svg	15	yes	57	0	472	0	0			0	0			1				0	
6.6.1	win	2023-06-28	12:33:50	12:40:39	403831	550c3ed5fdf99b3039d68894	4	1	main_z	7	main_z	31	stimuli_distractor_diamondtriangles.svg	stimuli_target_squarediamonds.svg	16	yes	44	1	824	0	0			0	0			1				0	
6.6.1	win	2023-06-28	12:33:50	12:40:39	403831	550c3ed5fdf99b3039d68894	4	1	main_z	7	advance_on_keypress_ZEE	32	stimuli_distractor_diamondtriangles.svg	stimuli_target_squarediamonds.svg	16	yes	57	0	476	0	0			0	0			1				0	
6.6.1	win	2023-06-28	12:33:50	12:40:42	406940	550c3ed5fdf99b3039d68894	4	1	main_z	7	main_z	33	stimuli_distractor_trianglediamonds.svg	stimuli_target_diamondsquares.svg	28	yes	0	0	2000	0	0			0	0			1				0	
6.6.1	win	2023-06-28	12:33:50	12:40:42	406940	550c3ed5fdf99b3039d68894	4	1	main_z	7	advance_on_keypress_ZEE	34	stimuli_distractor_trianglediamonds.svg	stimuli_target_diamondsquares.svg	28	yes	57	0	581	0	0			0	0			1				0	
6.6.1	win	2023-06-28	12:33:50	12:40:44	409143	550c3ed5fdf99b3039d68894	4	1	main_z	7	main_z	35	stimuli_target_diamondrectangles.svg	stimuli_distractor_trianglediamonds.svg	19	yes	44	1	969	0	0			0	0			1				0	
6.6.1	win	2023-06-28	12:33:50	12:40:44	409143	550c3ed5fdf99b3039d68894	4	1	main_z	7	advance_on_keypress_ZEE	36	stimuli_target_diamondrectangles.svg	stimuli_distractor_trianglediamonds.svg	19	yes	57	0	492	0	0			0	0			1				0	
6.6.1	win	2023-06-28	12:33:50	12:40:46	411277	550c3ed5fdf99b3039d68894	4	1	main_z	7	main_z	37	stimuli_target_squarediamonds.svg	stimuli_distractor_trianglediamonds.svg	4	yes	44	1	1003	0	0			0	0			1				0	
6.6.1	win	2023-06-28	12:33:50	12:40:46	411277	550c3ed5fdf99b3039d68894	4	1	main_z	7	advance_on_keypress_ZEE	38	stimuli_target_squarediamonds.svg	stimuli_distractor_trianglediamonds.svg	4	yes	57	0	746	0	0			0	0			1				0	
6.6.1	win	2023-06-28	12:33:50	12:40:49	414657	550c3ed5fdf99b3039d68894	4	1	main_z	7	main_z	39	stimuli_distractor_trianglediamonds.svg	stimuli_distractor_trianglediamonds.svg	33	no	0	1	2000	0	0			0	0			1				0	
6.6.1	win	2023-06-28	12:33:50	12:40:49	414657	550c3ed5fdf99b3039d68894	4	1	main_z	7	advance_on_keypress_ZEE	40	stimuli_distractor_trianglediamonds.svg	stimuli_distractor_trianglediamonds.svg	33	no	57	0	1410	0	0			0	0			1				0	
6.6.1	win	2023-06-28	12:33:50	12:40:52	417360	550c3ed5fdf99b3039d68894	4	1	main_z	7	main_z	41	stimuli_distractor_trianglediamonds.svg	stimuli_target_trianglerectangles.svg	25	yes	44	1	653	0	0			0	0			1				0	
6.6.1	win	2023-06-28	12:33:50	12:40:52	417360	550c3ed5fdf99b3039d68894	4	1	main_z	7	advance_on_keypress_ZEE	42	stimuli_distractor_trianglediamonds.svg	stimuli_target_trianglerectangles.svg	25	yes	57	0	921	0	0			0	0			1				0	
6.6.1	win	2023-06-28	12:33:50	12:40:56	420923	550c3ed5fdf99b3039d68894	4	1	main_z	7	main_z	43	stimuli_distractor_trianglediamonds.svg	stimuli_distractor_diamondtriangles.svg	35	no	0	1	2000	0	0			0	0			1				0	
6.6.1	win	2023-06-28	12:33:50	12:40:56	420923	550c3ed5fdf99b3039d68894	4	1	main_z	7	advance_on_keypress_ZEE	44	stimuli_distractor_trianglediamonds.svg	stimuli_distractor_diamondtriangles.svg	35	no	57	0	687	0	0			0	0			1				0	
6.6.1	win	2023-06-28	12:33:50	12:40:58	423124	550c3ed5fdf99b3039d68894	4	1	main_z	7	main_z	45	stimuli_distractor_trianglediamonds.svg	stimuli_target_rectanglediamonds.svg	10	yes	44	1	867	0	0			0	0			1				0	
6.6.1	win	2023-06-28	12:33:50	12:40:58	423124	550c3ed5fdf99b3039d68894	4	1	main_z	7	advance_on_keypress_ZEE	46	stimuli_distractor_trianglediamonds.svg	stimuli_target_rectanglediamonds.svg	10	yes	57	0	412	0	0			0	0			1				0	
6.6.1	win	2023-06-28	12:33:50	12:41:01	425829	550c3ed5fdf99b3039d68894	4	1	main_z	7	main_z	47	stimuli_distractor_diamondtriangles.svg	stimuli_distractor_diamondtriangles.svg	39	no	44	0	1655	0	0			0	0			1				0	
6.6.1	win	2023-06-28	12:33:50	12:41:01	425829	550c3ed5fdf99b3039d68894	4	1	main_z	7	advance_on_keypress_ZEE	48	stimuli_distractor_diamondtriangles.svg	stimuli_distractor_diamondtriangles.svg	39	no	57	0	593	0	0			0	0			1				0	
6.6.1	win	2023-06-28	12:33:50	12:41:03	428051	550c3ed5fdf99b3039d68894	4	1	main_z	7	main_z	49	stimuli_distractor_diamondtriangles.svg	stimuli_target_diamondrectangles.svg	31	yes	44	1	993	0	0			0	0			1				0	
6.6.1	win	2023-06-28	12:33:50	12:41:03	428051	550c3ed5fdf99b3039d68894	4	1	main_z	7	advance_on_keypress_ZEE	50	stimuli_distractor_diamondtriangles.svg	stimuli_target_diamondrectangles.svg	31	yes	57	0	378	0	0			0	0			1				0	
6.6.1	win	2023-06-28	12:33:50	12:41:06	431057	550c3ed5fdf99b3039d68894	4	1	main_z	7	main_z	51	stimuli_distractor_trianglediamonds.svg	stimuli_distractor_diamondtriangles.svg	36	no	0	1	2000	0	0			0	0			1				0	
6.6.1	win	2023-06-28	12:33:50	12:41:06	431057	550c3ed5fdf99b3039d68894	4	1	main_z	7	advance_on_keypress_ZEE	52	stimuli_distractor_trianglediamonds.svg	stimuli_distractor_diamondtriangles.svg	36	no	57	0	419	0	0			0	0			1				0	
6.6.1	win	2023-06-28	12:33:50	12:41:08	433100	550c3ed5fdf99b3039d68894	4	1	main_z	7	main_z	53	stimuli_target_rectanglediamonds.svg	stimuli_distractor_diamondtriangles.svg	6	yes	44	1	976	0	0			0	0			1				0	
6.6.1	win	2023-06-28	12:33:50	12:41:08	433100	550c3ed5fdf99b3039d68894	4	1	main_z	7	advance_on_keypress_ZEE	54	stimuli_target_rectanglediamonds.svg	stimuli_distractor_diamondtriangles.svg	6	yes	57	0	575	0	0			0	0			1				0	
6.6.1	win	2023-06-28	12:33:50	12:41:10	435421	550c3ed5fdf99b3039d68894	4	1	main_z	7	main_z	55	stimuli_target_diamondsquares.svg	stimuli_distractor_diamondtriangles.svg	24	yes	44	1	1113	0	0			0	0			1				0	
6.6.1	win	2023-06-28	12:33:50	12:41:10	435421	550c3ed5fdf99b3039d68894	4	1	main_z	7	advance_on_keypress_ZEE	56	stimuli_target_diamondsquares.svg	stimuli_distractor_diamondtriangles.svg	24	yes	57	0	1355	0	0			0	0			1				0	
6.6.1	win	2023-06-28	12:33:50	12:41:13	438292	550c3ed5fdf99b3039d68894	4	1	main_z	7	main_z	57	stimuli_distractor_trianglediamonds.svg	stimuli_target_squarediamonds.svg	12	yes	44	1	867	0	0			0	0			1				0	
6.6.1	win	2023-06-28	12:33:50	12:41:13	438292	550c3ed5fdf99b3039d68894	4	1	main_z	7	advance_on_keypress_ZEE	58	stimuli_distractor_trianglediamonds.svg	stimuli_target_squarediamonds.svg	12	yes	57	0	1974	0	0			0	0			1				0	
6.6.1	win	2023-06-28	12:33:50	12:41:18	442900	550c3ed5fdf99b3039d68894	4	1	main_z	7	main_z	59	stimuli_distractor_diamondtriangles.svg	stimuli_target_trianglerectangles.svg	29	yes	44	1	1992	0	0			0	0			1				0	
6.6.1	win	2023-06-28	12:33:50	12:41:18	442900	550c3ed5fdf99b3039d68894	4	1	main_z	7	advance_on_keypress_ZEE	60	stimuli_distractor_diamondtriangles.svg	stimuli_target_trianglerectangles.svg	29	yes	57	0	5492	0	0			0	0			1				0	
6.6.1	win	2023-06-28	12:33:50	12:41:24	449676	550c3ed5fdf99b3039d68894	4	1	main_z	7	main_z	61	stimuli_target_squaretriangles.svg	stimuli_distractor_trianglediamonds.svg	3	yes	44	1	651	0	0			0	0			1				0	
6.6.1	win	2023-06-28	12:33:50	12:41:24	449676	550c3ed5fdf99b3039d68894	4	1	main_z	7	advance_on_keypress_ZEE	62	stimuli_target_squaretriangles.svg	stimuli_distractor_trianglediamonds.svg	3	yes	57	0	524	0	0			0	0			1				0	
6.6.1	win	2023-06-28	12:33:50	12:41:26	451689	550c3ed5fdf99b3039d68894	4	1	main_z	7	main_z	63	stimuli_target_diamondsquares.svg	stimuli_distractor_trianglediamonds.svg	20	yes	44	1	847	0	0			0	0			1				0	
6.6.1	win	2023-06-28	12:33:50	12:41:26	451689	550c3ed5fdf99b3039d68894	4	1	main_z	7	advance_on_keypress_ZEE	64	stimuli_target_diamondsquares.svg	stimuli_distractor_trianglediamonds.svg	20	yes	57	0	706	0	0			0	0			1				0	
6.6.1	win	2023-06-28	12:33:50	12:41:28	453723	550c3ed5fdf99b3039d68894	4	1	main_z	7	main_z	65	stimuli_distractor_trianglediamonds.svg	stimuli_target_rectangletriangles.svg	9	yes	44	1	682	0	0			0	0			1				0	
6.6.1	win	2023-06-28	12:33:50	12:41:28	453723	550c3ed5fdf99b3039d68894	4	1	main_z	7	advance_on_keypress_ZEE	66	stimuli_distractor_trianglediamonds.svg	stimuli_target_rectangletriangles.svg	9	yes	57	0	619	0	0			0	0			1				0	
6.6.1	win	2023-06-28	12:33:50	12:41:32	456991	550c3ed5fdf99b3039d68894	4	1	main_z	7	main_z	67	stimuli_distractor_trianglediamonds.svg	stimuli_distractor_trianglediamonds.svg	34	no	0	1	2000	0	0			0	0			1				0	
6.6.1	win	2023-06-28	12:33:50	12:41:32	456991	550c3ed5fdf99b3039d68894	4	1	main_z	7	advance_on_keypress_ZEE	68	stimuli_distractor_trianglediamonds.svg	stimuli_distractor_trianglediamonds.svg	34	no	57	0	268	0	0			0	0			1				0	
6.6.1	win	2023-06-28	12:33:50	12:41:34	458827	550c3ed5fdf99b3039d68894	4	1	main_z	7	main_z	69	stimuli_target_rectanglediamonds.svg	stimuli_distractor_trianglediamonds.svg	2	yes	44	1	919	0	0			0	0			1				0	
6.6.1	win	2023-06-28	12:33:50	12:41:34	458827	550c3ed5fdf99b3039d68894	4	1	main_z	7	advance_on_keypress_ZEE	70	stimuli_target_rectanglediamonds.svg	stimuli_distractor_trianglediamonds.svg	2	yes	57	0	920	0	0			0	0			1				0	
6.6.1	win	2023-06-28	12:33:50	12:41:36	461346	550c3ed5fdf99b3039d68894	4	1	main_z	7	main_z	71	stimuli_target_diamondrectangles.svg	stimuli_distractor_diamondtriangles.svg	23	yes	44	1	954	0	0			0	0			1				0	
6.6.1	win	2023-06-28	12:33:50	12:41:36	461346	550c3ed5fdf99b3039d68894	4	1	main_z	7	advance_on_keypress_ZEE	72	stimuli_target_diamondrectangles.svg	stimuli_distractor_diamondtriangles.svg	23	yes	57	0	328	0	0			0	0			1				0	
6.6.1	win	2023-06-28	12:33:50	12:41:39	464308	550c3ed5fdf99b3039d68894	4	1	main_z	7	main_z	73	stimuli_target_squarediamonds.svg	stimuli_distractor_diamondtriangles.svg	8	yes	0	0	2000	0	0			0	0			1				0	
6.6.1	win	2023-06-28	12:33:50	12:41:39	464308	550c3ed5fdf99b3039d68894	4	1	main_z	7	advance_on_keypress_ZEE	74	stimuli_target_squarediamonds.svg	stimuli_distractor_diamondtriangles.svg	8	yes	57	0	651	0	0			0	0			1				0	
6.6.1	win	2023-06-28	12:33:50	12:41:41	466482	550c3ed5fdf99b3039d68894	4	1	main_z	7	main_z	75	stimuli_target_rectangletriangles.svg	stimuli_distractor_trianglediamonds.svg	1	yes	44	1	873	0	0			0	0			1				0	
6.6.1	win	2023-06-28	12:33:50	12:41:41	466482	550c3ed5fdf99b3039d68894	4	1	main_z	7	advance_on_keypress_ZEE	76	stimuli_target_rectangletriangles.svg	stimuli_distractor_trianglediamonds.svg	1	yes	57	0	419	0	0			0	0			1				0	
6.6.1	win	2023-06-28	12:33:50	12:41:43	468693	550c3ed5fdf99b3039d68894	4	1	main_z	7	main_z	77	stimuli_distractor_diamondtriangles.svg	stimuli_target_trianglesquares.svg	30	yes	44	1	1151	0	0			0	0			1				0	
6.6.1	win	2023-06-28	12:33:50	12:41:43	468693	550c3ed5fdf99b3039d68894	4	1	main_z	7	advance_on_keypress_ZEE	78	stimuli_distractor_diamondtriangles.svg	stimuli_target_trianglesquares.svg	30	yes	57	0	622	0	0			0	0			1				0	
6.6.1	win	2023-06-28	12:33:50	12:41:46	471344	550c3ed5fdf99b3039d68894	4	1	main_z	7	main_z	79	stimuli_distractor_diamondtriangles.svg	stimuli_target_rectangletriangles.svg	13	yes	44	1	1385	0	0			0	0			1				0	
6.6.1	win	2023-06-28	12:33:50	12:41:46	471344	550c3ed5fdf99b3039d68894	4	1	main_z	7	advance_on_keypress_ZEE	80	stimuli_distractor_diamondtriangles.svg	stimuli_target_rectangletriangles.svg	13	yes	57	0	601	0	0			0	0			1				0	
6.6.1	win	2023-06-28	12:33:50	12:41:48	473599	550c3ed5fdf99b3039d68894	4	1	main_z	7	main_z	81	stimuli_distractor_trianglediamonds.svg	stimuli_target_rectanglediamonds.svg	10	yes	44	1	1007	0	0			0	0			1				0	
6.6.1	win	2023-06-28	12:33:50	12:41:48	473599	550c3ed5fdf99b3039d68894	4	1	main_z	7	advance_on_keypress_ZEE	82	stimuli_distractor_trianglediamonds.svg	stimuli_target_rectanglediamonds.svg	10	yes	57	0	397	0	0			0	0			1				0	
6.6.1	win	2023-06-28	12:33:50	12:41:50	475744	550c3ed5fdf99b3039d68894	4	1	main_z	7	main_z	83	stimuli_target_trianglerectangles.svg	stimuli_distractor_trianglediamonds.svg	17	yes	44	1	1102	0	0			0	0			1				0	
6.6.1	win	2023-06-28	12:33:50	12:41:50	475744	550c3ed5fdf99b3039d68894	4	1	main_z	7	advance_on_keypress_ZEE	84	stimuli_target_trianglerectangles.svg	stimuli_distractor_trianglediamonds.svg	17	yes	57	0	414	0	0			0	0			1				0	
6.6.1	win	2023-06-28	12:33:50	12:41:54	478808	550c3ed5fdf99b3039d68894	4	1	main_z	7	main_z	85	stimuli_distractor_trianglediamonds.svg	stimuli_distractor_diamondtriangles.svg	35	no	0	1	2000	0	0			0	0			1				0	
6.6.1	win	2023-06-28	12:33:50	12:41:54	478808	550c3ed5fdf99b3039d68894	4	1	main_z	7	advance_on_keypress_ZEE	86	stimuli_distractor_trianglediamonds.svg	stimuli_distractor_diamondtriangles.svg	35	no	57	0	416	0	0			0	0			1				0	
6.6.1	win	2023-06-28	12:33:50	12:41:57	481875	550c3ed5fdf99b3039d68894	4	1	main_z	7	main_z	87	stimuli_distractor_diamondtriangles.svg	stimuli_distractor_diamondtriangles.svg	39	no	0	1	2000	0	0			0	0			1				0	
6.6.1	win	2023-06-28	12:33:50	12:41:57	481875	550c3ed5fdf99b3039d68894	4	1	main_z	7	advance_on_keypress_ZEE	88	stimuli_distractor_diamondtriangles.svg	stimuli_distractor_diamondtriangles.svg	39	no	57	0	406	0	0			0	0			1				0	
6.6.1	win	2023-06-28	12:33:50	12:41:59	483850	550c3ed5fdf99b3039d68894	4	1	main_z	7	main_z	89	stimuli_distractor_diamondtriangles.svg	stimuli_target_trianglesquares.svg	30	yes	44	1	924	0	0			0	0			1				0	
6.6.1	win	2023-06-28	12:33:50	12:41:59	483850	550c3ed5fdf99b3039d68894	4	1	main_z	7	advance_on_keypress_ZEE	90	stimuli_distractor_diamondtriangles.svg	stimuli_target_trianglesquares.svg	30	yes	57	0	794	0	0			0	0			1				0	
6.6.1	win	2023-06-28	12:33:50	12:42:01	486633	550c3ed5fdf99b3039d68894	4	1	main_z	7	main_z	91	stimuli_distractor_trianglediamonds.svg	stimuli_target_rectangletriangles.svg	9	yes	44	1	1357	0	0			0	0			1				0	
6.6.1	win	2023-06-28	12:33:50	12:42:01	486633	550c3ed5fdf99b3039d68894	4	1	main_z	7	advance_on_keypress_ZEE	92	stimuli_distractor_trianglediamonds.svg	stimuli_target_rectangletriangles.svg	9	yes	57	0	453	0	0			0	0			1				0	
6.6.1	win	2023-06-28	12:33:50	12:42:04	489581	550c3ed5fdf99b3039d68894	4	1	main_z	7	main_z	93	stimuli_distractor_diamondtriangles.svg	stimuli_distractor_trianglediamonds.svg	38	no	44	0	1855	0	0			0	0			1				0	
6.6.1	win	2023-06-28	12:33:50	12:42:04	489581	550c3ed5fdf99b3039d68894	4	1	main_z	7	advance_on_keypress_ZEE	94	stimuli_distractor_diamondtriangles.svg	stimuli_distractor_trianglediamonds.svg	38	no	57	0	296	0	0			0	0			1				0	
6.6.1	win	2023-06-28	12:33:50	12:42:07	491858	550c3ed5fdf99b3039d68894	4	1	main_z	7	main_z	95	stimuli_distractor_diamondtriangles.svg	stimuli_target_rectangletriangles.svg	13	yes	44	1	1349	0	0			0	0			1				0	
6.6.1	win	2023-06-28	12:33:50	12:42:07	491858	550c3ed5fdf99b3039d68894	4	1	main_z	7	advance_on_keypress_ZEE	96	stimuli_distractor_diamondtriangles.svg	stimuli_target_rectangletriangles.svg	13	yes	57	0	411	0	0			0	0			1				0	
6.6.1	win	2023-06-28	12:33:50	12:42:09	493815	550c3ed5fdf99b3039d68894	4	1	main_z	7	main_z	97	stimuli_target_rectangletriangles.svg	stimuli_distractor_diamondtriangles.svg	5	yes	44	1	905	0	0			0	0			1				0	
6.6.1	win	2023-06-28	12:33:50	12:42:09	493815	550c3ed5fdf99b3039d68894	4	1	main_z	7	advance_on_keypress_ZEE	98	stimuli_target_rectangletriangles.svg	stimuli_distractor_diamondtriangles.svg	5	yes	57	0	374	0	0			0	0			1				0	
6.6.1	win	2023-06-28	12:33:50	12:42:11	495961	550c3ed5fdf99b3039d68894	4	1	main_z	7	main_z	99	stimuli_target_trianglesquares.svg	stimuli_distractor_diamondtriangles.svg	22	yes	44	1	1135	0	0			0	0			1				0	
6.6.1	win	2023-06-28	12:33:50	12:42:11	495961	550c3ed5fdf99b3039d68894	4	1	main_z	7	advance_on_keypress_ZEE	100	stimuli_target_trianglesquares.svg	stimuli_distractor_diamondtriangles.svg	22	yes	57	0	314	0	0			0	0			1				0	
6.6.1	win	2023-06-28	12:33:50	12:42:14	498926	550c3ed5fdf99b3039d68894	4	1	main_z	7	main_z	101	stimuli_distractor_trianglediamonds.svg	stimuli_target_squaretriangles.svg	11	yes	0	0	2000	0	0			0	0			1				0	
6.6.1	win	2023-06-28	12:33:50	12:42:14	498926	550c3ed5fdf99b3039d68894	4	1	main_z	7	advance_on_keypress_ZEE	102	stimuli_distractor_trianglediamonds.svg	stimuli_target_squaretriangles.svg	11	yes	57	0	438	0	0			0	0			1				0	
6.6.1	win	2023-06-28	12:33:50	12:42:17	502009	550c3ed5fdf99b3039d68894	4	1	main_z	7	main_z	103	stimuli_distractor_diamondtriangles.svg	stimuli_distractor_trianglediamonds.svg	37	no	0	1	2000	0	0			0	0			1				0	
6.6.1	win	2023-06-28	12:33:50	12:42:17	502009	550c3ed5fdf99b3039d68894	4	1	main_z	7	advance_on_keypress_ZEE	104	stimuli_distractor_diamondtriangles.svg	stimuli_distractor_trianglediamonds.svg	37	no	57	0	655	0	0			0	0			1				0	
6.6.1	win	2023-06-28	12:33:50	12:42:19	504221	550c3ed5fdf99b3039d68894	4	1	main_z	7	main_z	105	stimuli_target_trianglerectangles.svg	stimuli_distractor_diamondtriangles.svg	21	yes	44	1	911	0	0			0	0			1				0	
6.6.1	win	2023-06-28	12:33:50	12:42:19	504221	550c3ed5fdf99b3039d68894	4	1	main_z	7	advance_on_keypress_ZEE	106	stimuli_target_trianglerectangles.svg	stimuli_distractor_diamondtriangles.svg	21	yes	57	0	325	0	0			0	0			1				0	
6.6.1	win	2023-06-28	12:33:50	12:42:21	506157	550c3ed5fdf99b3039d68894	4	1	main_z	7	main_z	107	stimuli_distractor_trianglediamonds.svg	stimuli_target_diamondsquares.svg	28	yes	44	1	980	0	0			0	0			1				0	
6.6.1	win	2023-06-28	12:33:50	12:42:21	506157	550c3ed5fdf99b3039d68894	4	1	main_z	7	advance_on_keypress_ZEE	108	stimuli_distractor_trianglediamonds.svg	stimuli_target_diamondsquares.svg	28	yes	57	0	355	0	0			0	0			1				0	
6.6.1	win	2023-06-28	12:33:50	12:42:23	507950	550c3ed5fdf99b3039d68894	4	1	main_z	7	main_z	109	stimuli_target_diamondsquares.svg	stimuli_distractor_diamondtriangles.svg	24	yes	44	1	790	0	0			0	0			1				0	
6.6.1	win	2023-06-28	12:33:50	12:42:23	507950	550c3ed5fdf99b3039d68894	4	1	main_z	7	advance_on_keypress_ZEE	110	stimuli_target_diamondsquares.svg	stimuli_distractor_diamondtriangles.svg	24	yes	57	0	374	0	0			0	0			1				0	
6.6.1	win	2023-06-28	12:33:50	12:42:25	509963	550c3ed5fdf99b3039d68894	4	1	main_z	7	main_z	111	stimuli_distractor_diamondtriangles.svg	stimuli_target_trianglerectangles.svg	29	yes	44	1	1003	0	0			0	0			1				0	
6.6.1	win	2023-06-28	12:33:50	12:42:25	509963	550c3ed5fdf99b3039d68894	4	1	main_z	7	advance_on_keypress_ZEE	112	stimuli_distractor_diamondtriangles.svg	stimuli_target_trianglerectangles.svg	29	yes	57	0	305	0	0			0	0			1				0	
6.6.1	win	2023-06-28	12:33:50	12:42:28	512909	550c3ed5fdf99b3039d68894	4	1	main_z	7	main_z	113	stimuli_distractor_diamondtriangles.svg	stimuli_distractor_diamondtriangles.svg	40	no	0	1	2000	0	0			0	0			1				0	
6.6.1	win	2023-06-28	12:33:50	12:42:28	512909	550c3ed5fdf99b3039d68894	4	1	main_z	7	advance_on_keypress_ZEE	114	stimuli_distractor_diamondtriangles.svg	stimuli_distractor_diamondtriangles.svg	40	no	57	0	2436	0	0			0	0			1				0	
6.6.1	win	2023-06-28	12:33:50	12:42:32	516903	550c3ed5fdf99b3039d68894	4	1	main_z	7	main_z	115	stimuli_distractor_trianglediamonds.svg	stimuli_target_trianglesquares.svg	26	yes	44	1	909	0	0			0	0			1				0	
6.6.1	win	2023-06-28	12:33:50	12:42:32	516903	550c3ed5fdf99b3039d68894	4	1	main_z	7	advance_on_keypress_ZEE	116	stimuli_distractor_trianglediamonds.svg	stimuli_target_trianglesquares.svg	26	yes	57	0	444	0	0			0	0			1				0	
6.6.1	win	2023-06-28	12:33:50	12:42:34	518817	550c3ed5fdf99b3039d68894	4	1	main_z	7	main_z	117	stimuli_target_rectanglediamonds.svg	stimuli_distractor_diamondtriangles.svg	6	yes	44	1	840	0	0			0	0			1				0	
6.6.1	win	2023-06-28	12:33:50	12:42:34	518817	550c3ed5fdf99b3039d68894	4	1	main_z	7	advance_on_keypress_ZEE	118	stimuli_target_rectanglediamonds.svg	stimuli_distractor_diamondtriangles.svg	6	yes	57	0	309	0	0			0	0			1				0	
6.6.1	win	2023-06-28	12:33:50	12:42:35	520566	550c3ed5fdf99b3039d68894	4	1	main_z	7	main_z	119	stimuli_target_diamondrectangles.svg	stimuli_distractor_trianglediamonds.svg	19	yes	44	1	806	0	0			0	0			1				0	
6.6.1	win	2023-06-28	12:33:50	12:42:35	520566	550c3ed5fdf99b3039d68894	4	1	main_z	7	advance_on_keypress_ZEE	120	stimuli_target_diamondrectangles.svg	stimuli_distractor_trianglediamonds.svg	19	yes	57	0	297	0	0			0	0			1				0	
6.6.1	win	2023-06-28	12:33:50	12:42:37	522325	550c3ed5fdf99b3039d68894	4	1	main_z	7	main_z	121	stimuli_distractor_diamondtriangles.svg	stimuli_target_rectanglediamonds.svg	14	yes	44	1	816	0	0			0	0			1				0	
6.6.1	win	2023-06-28	12:33:50	12:42:37	522325	550c3ed5fdf99b3039d68894	4	1	main_z	7	advance_on_keypress_ZEE	122	stimuli_distractor_diamondtriangles.svg	stimuli_target_rectanglediamonds.svg	14	yes	57	0	246	0	0			0	0			1				0	
6.6.1	win	2023-06-28	12:33:50	12:42:39	524163	550c3ed5fdf99b3039d68894	4	1	main_z	7	main_z	123	stimuli_target_squaretriangles.svg	stimuli_distractor_diamondtriangles.svg	7	yes	44	1	953	0	0			0	0			1				0	
6.6.1	win	2023-06-28	12:33:50	12:42:39	524163	550c3ed5fdf99b3039d68894	4	1	main_z	7	advance_on_keypress_ZEE	124	stimuli_target_squaretriangles.svg	stimuli_distractor_diamondtriangles.svg	7	yes	57	0	271	0	0			0	0			1				0	
6.6.1	win	2023-06-28	12:33:50	12:42:42	527077	550c3ed5fdf99b3039d68894	4	1	main_z	7	main_z	125	stimuli_distractor_trianglediamonds.svg	stimuli_distractor_diamondtriangles.svg	36	no	0	1	2000	0	0			0	0			1				0	
6.6.1	win	2023-06-28	12:33:50	12:42:42	527077	550c3ed5fdf99b3039d68894	4	1	main_z	7	advance_on_keypress_ZEE	126	stimuli_distractor_trianglediamonds.svg	stimuli_distractor_diamondtriangles.svg	36	no	57	0	753	0	0			0	0			1				0	
6.6.1	win	2023-06-28	12:33:50	12:42:44	529706	550c3ed5fdf99b3039d68894	4	1	main_z	7	main_z	127	stimuli_target_rectangletriangles.svg	stimuli_distractor_trianglediamonds.svg	1	yes	44	1	1229	0	0			0	0			1				0	
6.6.1	win	2023-06-28	12:33:50	12:42:44	529706	550c3ed5fdf99b3039d68894	4	1	main_z	7	advance_on_keypress_ZEE	128	stimuli_target_rectangletriangles.svg	stimuli_distractor_trianglediamonds.svg	1	yes	57	0	336	0	0			0	0			1				0	
6.6.1	win	2023-06-28	12:33:50	12:42:46	531499	550c3ed5fdf99b3039d68894	4	1	main_z	7	main_z	129	stimuli_distractor_trianglediamonds.svg	stimuli_target_trianglerectangles.svg	25	yes	44	1	822	0	0			0	0			1				0	
6.6.1	win	2023-06-28	12:33:50	12:42:46	531499	550c3ed5fdf99b3039d68894	4	1	main_z	7	advance_on_keypress_ZEE	130	stimuli_distractor_trianglediamonds.svg	stimuli_target_trianglerectangles.svg	25	yes	57	0	439	0	0			0	0			1				0	
6.6.1	win	2023-06-28	12:33:50	12:42:48	533512	550c3ed5fdf99b3039d68894	4	1	main_z	7	main_z	131	stimuli_distractor_trianglediamonds.svg	stimuli_target_diamondrectangles.svg	27	yes	44	1	935	0	0			0	0			1				0	
6.6.1	win	2023-06-28	12:33:50	12:42:48	533512	550c3ed5fdf99b3039d68894	4	1	main_z	7	advance_on_keypress_ZEE	132	stimuli_distractor_trianglediamonds.svg	stimuli_target_diamondrectangles.svg	27	yes	57	0	282	0	0			0	0			1				0	
6.6.1	win	2023-06-28	12:33:50	12:42:50	535250	550c3ed5fdf99b3039d68894	4	1	main_z	7	main_z	133	stimuli_distractor_diamondtriangles.svg	stimuli_target_diamondrectangles.svg	31	yes	44	1	806	0	0			0	0			1				0	
6.6.1	win	2023-06-28	12:33:50	12:42:50	535250	550c3ed5fdf99b3039d68894	4	1	main_z	7	advance_on_keypress_ZEE	134	stimuli_distractor_diamondtriangles.svg	stimuli_target_diamondrectangles.svg	31	yes	57	0	297	0	0			0	0			1				0	
6.6.1	win	2023-06-28	12:33:50	12:42:53	538194	550c3ed5fdf99b3039d68894	4	1	main_z	7	main_z	135	stimuli_distractor_trianglediamonds.svg	stimuli_distractor_trianglediamonds.svg	33	no	0	1	2000	0	0			0	0			1				0	
6.6.1	win	2023-06-28	12:33:50	12:42:53	538194	550c3ed5fdf99b3039d68894	4	1	main_z	7	advance_on_keypress_ZEE	136	stimuli_distractor_trianglediamonds.svg	stimuli_distractor_trianglediamonds.svg	33	no	57	0	492	0	0			0	0			1				0	
6.6.1	win	2023-06-28	12:33:50	12:42:55	540309	550c3ed5fdf99b3039d68894	4	1	main_z	7	main_z	137	stimuli_target_squarediamonds.svg	stimuli_distractor_trianglediamonds.svg	4	yes	44	1	981	0	0			0	0			1				0	
6.6.1	win	2023-06-28	12:33:50	12:42:55	540309	550c3ed5fdf99b3039d68894	4	1	main_z	7	advance_on_keypress_ZEE	138	stimuli_target_squarediamonds.svg	stimuli_distractor_trianglediamonds.svg	4	yes	57	0	267	0	0			0	0			1				0	
6.6.1	win	2023-06-28	12:33:50	12:42:57	541937	550c3ed5fdf99b3039d68894	4	1	main_z	7	main_z	139	stimuli_distractor_diamondtriangles.svg	stimuli_target_squaretriangles.svg	15	yes	44	1	709	0	0			0	0			1				0	
6.6.1	win	2023-06-28	12:33:50	12:42:57	541937	550c3ed5fdf99b3039d68894	4	1	main_z	7	advance_on_keypress_ZEE	140	stimuli_distractor_diamondtriangles.svg	stimuli_target_squaretriangles.svg	15	yes	57	0	268	0	0			0	0			1				0	
6.6.1	win	2023-06-28	12:33:50	12:42:59	544665	550c3ed5fdf99b3039d68894	4	1	main_z	7	main_z	141	stimuli_target_trianglesquares.svg	stimuli_distractor_trianglediamonds.svg	18	yes	44	1	1822	0	0			0	0			1				0	
6.6.1	win	2023-06-28	12:33:50	12:42:59	544665	550c3ed5fdf99b3039d68894	4	1	main_z	7	advance_on_keypress_ZEE	142	stimuli_target_trianglesquares.svg	stimuli_distractor_trianglediamonds.svg	18	yes	57	0	273	0	0			0	0			1				0	
6.6.1	win	2023-06-28	12:33:50	12:43:02	547577	550c3ed5fdf99b3039d68894	4	1	main_z	7	main_z	143	stimuli_distractor_trianglediamonds.svg	stimuli_target_squarediamonds.svg	12	yes	0	0	2000	0	0			0	0			1				0	
6.6.1	win	2023-06-28	12:33:50	12:43:02	547577	550c3ed5fdf99b3039d68894	4	1	main_z	7	advance_on_keypress_ZEE	144	stimuli_distractor_trianglediamonds.svg	stimuli_target_squarediamonds.svg	12	yes	57	0	811	0	0			0	0			1				0	
6.6.1	win	2023-06-28	12:33:50	12:43:05	550121	550c3ed5fdf99b3039d68894	4	1	main_z	7	main_z	145	stimuli_distractor_diamondtriangles.svg	stimuli_target_squarediamonds.svg	16	yes	44	1	1094	0	0			0	0			1				0	
6.6.1	win	2023-06-28	12:33:50	12:43:05	550121	550c3ed5fdf99b3039d68894	4	1	main_z	7	advance_on_keypress_ZEE	146	stimuli_distractor_diamondtriangles.svg	stimuli_target_squarediamonds.svg	16	yes	57	0	268	0	0			0	0			1				0	
6.6.1	win	2023-06-28	12:33:50	12:43:08	553027	550c3ed5fdf99b3039d68894	4	1	main_z	7	main_z	147	stimuli_distractor_trianglediamonds.svg	stimuli_distractor_trianglediamonds.svg	34	no	0	1	2000	0	0			0	0			1				0	
6.6.1	win	2023-06-28	12:33:50	12:43:08	553027	550c3ed5fdf99b3039d68894	4	1	main_z	7	advance_on_keypress_ZEE	148	stimuli_distractor_trianglediamonds.svg	stimuli_distractor_trianglediamonds.svg	34	no	57	0	575	0	0			0	0			1				0	
6.6.1	win	2023-06-28	12:33:50	12:43:10	555070	550c3ed5fdf99b3039d68894	4	1	main_z	7	main_z	149	stimuli_target_diamondsquares.svg	stimuli_distractor_trianglediamonds.svg	20	yes	44	1	825	0	0			0	0			1				0	
6.6.1	win	2023-06-28	12:33:50	12:43:10	555070	550c3ed5fdf99b3039d68894	4	1	main_z	7	advance_on_keypress_ZEE	150	stimuli_target_diamondsquares.svg	stimuli_distractor_trianglediamonds.svg	20	yes	57	0	422	0	0			0	0			1				0	
6.6.1	win	2023-06-28	12:33:50	12:43:12	556973	550c3ed5fdf99b3039d68894	4	1	main_z	7	main_z	151	stimuli_target_rectanglediamonds.svg	stimuli_distractor_trianglediamonds.svg	2	yes	44	1	845	0	0			0	0			1				0	
6.6.1	win	2023-06-28	12:33:50	12:43:12	556973	550c3ed5fdf99b3039d68894	4	1	main_z	7	advance_on_keypress_ZEE	152	stimuli_target_rectanglediamonds.svg	stimuli_distractor_trianglediamonds.svg	2	yes	57	0	303	0	0			0	0			1				0	
6.6.1	win	2023-06-28	12:33:50	12:43:14	558799	550c3ed5fdf99b3039d68894	4	1	main_z	7	main_z	153	stimuli_target_squarediamonds.svg	stimuli_distractor_diamondtriangles.svg	8	yes	44	1	888	0	0			0	0			1				0	
6.6.1	win	2023-06-28	12:33:50	12:43:14	558799	550c3ed5fdf99b3039d68894	4	1	main_z	7	advance_on_keypress_ZEE	154	stimuli_target_squarediamonds.svg	stimuli_distractor_diamondtriangles.svg	8	yes	57	0	251	0	0			0	0			1				0	
6.6.1	win	2023-06-28	12:33:50	12:43:16	560768	550c3ed5fdf99b3039d68894	4	1	main_z	7	main_z	155	stimuli_target_diamondrectangles.svg	stimuli_distractor_diamondtriangles.svg	23	yes	44	1	1073	0	0			0	0			1				0	
6.6.1	win	2023-06-28	12:33:50	12:43:16	560768	550c3ed5fdf99b3039d68894	4	1	main_z	7	advance_on_keypress_ZEE	156	stimuli_target_diamondrectangles.svg	stimuli_distractor_diamondtriangles.svg	23	yes	57	0	320	0	0			0	0			1				0	
6.6.1	win	2023-06-28	12:33:50	12:43:18	563728	550c3ed5fdf99b3039d68894	4	1	main_z	7	main_z	157	stimuli_target_squaretriangles.svg	stimuli_distractor_trianglediamonds.svg	3	yes	0	0	2000	0	0			0	0			1				0	
6.6.1	win	2023-06-28	12:33:50	12:43:18	563728	550c3ed5fdf99b3039d68894	4	1	main_z	7	advance_on_keypress_ZEE	158	stimuli_target_squaretriangles.svg	stimuli_distractor_trianglediamonds.svg	3	yes	57	0	643	0	0			0	0			1				0	
6.6.1	win	2023-06-28	12:33:50	12:43:21	565993	550c3ed5fdf99b3039d68894	4	1	main_z	7	main_z	159	stimuli_distractor_diamondtriangles.svg	stimuli_target_diamondsquares.svg	32	yes	44	1	981	0	0			0	0			1				0	
6.6.1	win	2023-06-28	12:33:50	12:43:21	565993	550c3ed5fdf99b3039d68894	4	1	main_z	7	advance_on_keypress_ZEE	160	stimuli_distractor_diamondtriangles.svg	stimuli_target_diamondsquares.svg	32	yes	57	0	388	0	0			0	0			1				0	
6.6.1	win	2023-06-28	12:33:50	12:44:12	616981	550c3ed5fdf99b3039d68894	4	1	practice_slash	9	practice_slash	1	stimuli_distractor_trianglediamonds.svg	stimuli_distractor_trianglediamonds.svg	15	no	0	1	2000	0	0			0	0			1				0	
6.6.1	win	2023-06-28	12:33:50	12:44:12	616981	550c3ed5fdf99b3039d68894	4	1	practice_slash	9	advance_on_keypress_SLASH	2	stimuli_distractor_trianglediamonds.svg	stimuli_distractor_trianglediamonds.svg	15	no	57	0	1628	0	0			0	0			1				0	
6.6.1	win	2023-06-28	12:33:50	12:44:16	621286	550c3ed5fdf99b3039d68894	4	1	practice_slash	9	practice_slash	3	stimuli_target_rectanglediamonds.svg	stimuli_distractor_trianglediamonds.svg	4	yes	53	1	1038	0	0			0	0			1				0	
6.6.1	win	2023-06-28	12:33:50	12:44:16	621286	550c3ed5fdf99b3039d68894	4	1	practice_slash	9	advance_on_keypress_SLASH	4	stimuli_target_rectanglediamonds.svg	stimuli_distractor_trianglediamonds.svg	4	yes	57	0	308	0	0			0	0			1				0	
6.6.1	win	2023-06-28	12:33:50	12:44:19	624167	550c3ed5fdf99b3039d68894	4	1	practice_slash	9	practice_slash	5	stimuli_target_squarediamonds.svg	stimuli_distractor_diamondtriangles.svg	2	yes	53	1	937	0	0			0	0			1				0	
6.6.1	win	2023-06-28	12:33:50	12:44:19	624167	550c3ed5fdf99b3039d68894	4	1	practice_slash	9	advance_on_keypress_SLASH	6	stimuli_target_squarediamonds.svg	stimuli_distractor_diamondtriangles.svg	2	yes	57	0	230	0	0			0	0			1				0	
6.6.1	win	2023-06-28	12:33:50	12:44:22	626774	550c3ed5fdf99b3039d68894	4	1	practice_slash	9	practice_slash	7	stimuli_distractor_diamondtriangles.svg	stimuli_target_rectangletriangles.svg	7	yes	53	1	726	0	0			0	0			1				0	
6.6.1	win	2023-06-28	12:33:50	12:44:22	626774	550c3ed5fdf99b3039d68894	4	1	practice_slash	9	advance_on_keypress_SLASH	8	stimuli_distractor_diamondtriangles.svg	stimuli_target_rectangletriangles.svg	7	yes	57	0	357	0	0			0	0			1				0	
6.6.1	win	2023-06-28	12:33:50	12:44:24	629447	550c3ed5fdf99b3039d68894	4	1	practice_slash	9	practice_slash	9	stimuli_target_rectanglediamonds.svg	stimuli_distractor_diamondtriangles.svg	1	yes	53	1	684	0	0			0	0			1				0	
6.6.1	win	2023-06-28	12:33:50	12:44:24	629447	550c3ed5fdf99b3039d68894	4	1	practice_slash	9	advance_on_keypress_SLASH	10	stimuli_target_rectanglediamonds.svg	stimuli_distractor_diamondtriangles.svg	1	yes	57	0	302	0	0			0	0			1				0	
6.6.1	win	2023-06-28	12:33:50	12:44:27	632164	550c3ed5fdf99b3039d68894	4	1	practice_slash	9	practice_slash	11	stimuli_target_squarediamonds.svg	stimuli_distractor_trianglediamonds.svg	5	yes	53	1	767	0	0			0	0			1				0	
6.6.1	win	2023-06-28	12:33:50	12:44:27	632164	550c3ed5fdf99b3039d68894	4	1	practice_slash	9	advance_on_keypress_SLASH	12	stimuli_target_squarediamonds.svg	stimuli_distractor_trianglediamonds.svg	5	yes	57	0	226	0	0			0	0			1				0	
6.6.1	win	2023-06-28	12:33:50	12:44:30	634959	550c3ed5fdf99b3039d68894	4	1	practice_slash	9	practice_slash	13	stimuli_distractor_trianglediamonds.svg	stimuli_target_diamondrectangles.svg	12	yes	53	1	928	0	0			0	0			1				0	
6.6.1	win	2023-06-28	12:33:50	12:44:30	634959	550c3ed5fdf99b3039d68894	4	1	practice_slash	9	advance_on_keypress_SLASH	14	stimuli_distractor_trianglediamonds.svg	stimuli_target_diamondrectangles.svg	12	yes	57	0	248	0	0			0	0			1				0	
6.6.1	win	2023-06-28	12:33:50	12:44:34	638848	550c3ed5fdf99b3039d68894	4	1	practice_slash	9	practice_slash	15	stimuli_distractor_diamondtriangles.svg	stimuli_target_trianglerectangles.svg	9	yes	0	0	2000	0	0			0	0			1				0	
6.6.1	win	2023-06-28	12:33:50	12:44:34	638848	550c3ed5fdf99b3039d68894	4	1	practice_slash	9	advance_on_keypress_SLASH	16	stimuli_distractor_diamondtriangles.svg	stimuli_target_trianglerectangles.svg	9	yes	57	0	450	0	0			0	0			1				0	
6.6.1	win	2023-06-28	12:33:50	12:44:37	641910	550c3ed5fdf99b3039d68894	4	1	practice_slash	9	practice_slash	17	stimuli_target_diamondsquares.svg	stimuli_distractor_diamondtriangles.svg	3	yes	53	1	962	0	0			0	0			1				0	
6.6.1	win	2023-06-28	12:33:50	12:44:37	641910	550c3ed5fdf99b3039d68894	4	1	practice_slash	9	advance_on_keypress_SLASH	18	stimuli_target_diamondsquares.svg	stimuli_distractor_diamondtriangles.svg	3	yes	57	0	270	0	0			0	0			1				0	
6.6.1	win	2023-06-28	12:33:50	12:44:39	644704	550c3ed5fdf99b3039d68894	4	1	practice_slash	9	practice_slash	19	stimuli_distractor_diamondtriangles.svg	stimuli_target_diamondrectangles.svg	8	yes	53	1	888	0	0			0	0			1				0	
6.6.1	win	2023-06-28	12:33:50	12:44:39	644704	550c3ed5fdf99b3039d68894	4	1	practice_slash	9	advance_on_keypress_SLASH	20	stimuli_distractor_diamondtriangles.svg	stimuli_target_diamondrectangles.svg	8	yes	57	0	353	0	0			0	0			1				0	
6.6.1	win	2023-06-28	12:33:50	12:44:43	647893	550c3ed5fdf99b3039d68894	4	1	practice_slash	9	practice_slash	21	stimuli_distractor_trianglediamonds.svg	stimuli_distractor_diamondtriangles.svg	16	no	53	0	1196	0	0			0	0			1				0	
6.6.1	win	2023-06-28	12:33:50	12:44:43	647893	550c3ed5fdf99b3039d68894	4	1	practice_slash	9	advance_on_keypress_SLASH	22	stimuli_distractor_trianglediamonds.svg	stimuli_distractor_diamondtriangles.svg	16	no	57	0	382	0	0			0	0			1				0	
6.6.1	win	2023-06-28	12:33:50	12:44:47	651914	550c3ed5fdf99b3039d68894	4	1	practice_slash	9	practice_slash	23	stimuli_distractor_diamondtriangles.svg	stimuli_distractor_trianglediamonds.svg	14	no	0	1	2000	0	0			0	0			1				0	
6.6.1	win	2023-06-28	12:33:50	12:44:47	651914	550c3ed5fdf99b3039d68894	4	1	practice_slash	9	advance_on_keypress_SLASH	24	stimuli_distractor_diamondtriangles.svg	stimuli_distractor_trianglediamonds.svg	14	no	57	0	417	0	0			0	0			1				0	
6.6.1	win	2023-06-28	12:33:50	12:44:50	655516	550c3ed5fdf99b3039d68894	4	1	practice_slash	9	practice_slash	25	stimuli_distractor_diamondtriangles.svg	stimuli_distractor_diamondtriangles.svg	13	no	53	0	1533	0	0			0	0			1				0	
6.6.1	win	2023-06-28	12:33:50	12:44:50	655516	550c3ed5fdf99b3039d68894	4	1	practice_slash	9	advance_on_keypress_SLASH	26	stimuli_distractor_diamondtriangles.svg	stimuli_distractor_diamondtriangles.svg	13	no	57	0	348	0	0			0	0			1				0	
6.6.1	win	2023-06-28	12:33:50	12:44:53	658420	550c3ed5fdf99b3039d68894	4	1	practice_slash	9	practice_slash	27	stimuli_distractor_trianglediamonds.svg	stimuli_target_squarediamonds.svg	11	yes	53	1	905	0	0			0	0			1				0	
6.6.1	win	2023-06-28	12:33:50	12:44:53	658420	550c3ed5fdf99b3039d68894	4	1	practice_slash	9	advance_on_keypress_SLASH	28	stimuli_distractor_trianglediamonds.svg	stimuli_target_squarediamonds.svg	11	yes	57	0	286	0	0			0	0			1				0	
6.6.1	win	2023-06-28	12:33:50	12:44:56	661246	550c3ed5fdf99b3039d68894	4	1	practice_slash	9	practice_slash	29	stimuli_distractor_trianglediamonds.svg	stimuli_target_rectanglediamonds.svg	10	yes	53	1	897	0	0			0	0			1				0	
6.6.1	win	2023-06-28	12:33:50	12:44:56	661246	550c3ed5fdf99b3039d68894	4	1	practice_slash	9	advance_on_keypress_SLASH	30	stimuli_distractor_trianglediamonds.svg	stimuli_target_rectanglediamonds.svg	10	yes	57	0	367	0	0			0	0			1				0	
6.6.1	win	2023-06-28	12:33:50	12:44:59	664150	550c3ed5fdf99b3039d68894	4	1	practice_slash	9	practice_slash	31	stimuli_target_diamondsquares.svg	stimuli_distractor_trianglediamonds.svg	6	yes	53	1	886	0	0			0	0			1				0	
6.6.1	win	2023-06-28	12:33:50	12:44:59	664150	550c3ed5fdf99b3039d68894	4	1	practice_slash	9	advance_on_keypress_SLASH	32	stimuli_target_diamondsquares.svg	stimuli_distractor_trianglediamonds.svg	6	yes	57	0	251	0	0			0	0			1				0	
6.6.1	win	2023-06-28	12:33:50	12:45:10	675490	550c3ed5fdf99b3039d68894	4	1	main_slash	11	main_slash	1	stimuli_distractor_trianglediamonds.svg	stimuli_target_rectanglediamonds.svg	10	yes	53	1	709	0	0			0	0			1				0	
6.6.1	win	2023-06-28	12:33:50	12:45:10	675490	550c3ed5fdf99b3039d68894	4	1	main_slash	11	advance_on_keypress_SLASH	2	stimuli_distractor_trianglediamonds.svg	stimuli_target_rectanglediamonds.svg	10	yes	57	0	872	0	0			0	0			1				0	
6.6.1	win	2023-06-28	12:33:50	12:45:12	677426	550c3ed5fdf99b3039d68894	4	1	main_slash	11	main_slash	3	stimuli_distractor_trianglediamonds.svg	stimuli_target_squaretriangles.svg	11	yes	53	1	428	0	0			0	0			1				0	
6.6.1	win	2023-06-28	12:33:50	12:45:12	677426	550c3ed5fdf99b3039d68894	4	1	main_slash	11	advance_on_keypress_SLASH	4	stimuli_distractor_trianglediamonds.svg	stimuli_target_squaretriangles.svg	11	yes	57	0	412	0	0			0	0			1				0	
6.6.1	win	2023-06-28	12:33:50	12:45:15	680464	550c3ed5fdf99b3039d68894	4	1	main_slash	11	main_slash	5	stimuli_distractor_diamondtriangles.svg	stimuli_distractor_diamondtriangles.svg	39	no	0	1	2000	0	0			0	0			1				0	
6.6.1	win	2023-06-28	12:33:50	12:45:15	680464	550c3ed5fdf99b3039d68894	4	1	main_slash	11	advance_on_keypress_SLASH	6	stimuli_distractor_diamondtriangles.svg	stimuli_distractor_diamondtriangles.svg	39	no	57	0	728	0	0			0	0			1				0	
6.6.1	win	2023-06-28	12:33:50	12:45:17	682507	550c3ed5fdf99b3039d68894	4	1	main_slash	11	main_slash	7	stimuli_distractor_trianglediamonds.svg	stimuli_target_squarediamonds.svg	12	yes	53	1	676	0	0			0	0			1				0	
6.6.1	win	2023-06-28	12:33:50	12:45:17	682507	550c3ed5fdf99b3039d68894	4	1	main_slash	11	advance_on_keypress_SLASH	8	stimuli_distractor_trianglediamonds.svg	stimuli_target_squarediamonds.svg	12	yes	57	0	751	0	0			0	0			1				0	
6.6.1	win	2023-06-28	12:33:50	12:45:19	684344	550c3ed5fdf99b3039d68894	4	1	main_slash	11	main_slash	9	stimuli_distractor_trianglediamonds.svg	stimuli_target_rectangletriangles.svg	9	yes	53	1	446	0	0			0	0			1				0	
6.6.1	win	2023-06-28	12:33:50	12:45:19	684344	550c3ed5fdf99b3039d68894	4	1	main_slash	11	advance_on_keypress_SLASH	10	stimuli_distractor_trianglediamonds.svg	stimuli_target_rectangletriangles.svg	9	yes	57	0	338	0	0			0	0			1				0	
6.6.1	win	2023-06-28	12:33:50	12:45:21	685851	550c3ed5fdf99b3039d68894	4	1	main_slash	11	main_slash	11	stimuli_target_rectangletriangles.svg	stimuli_distractor_trianglediamonds.svg	1	yes	53	1	536	0	0			0	0			1				0	
6.6.1	win	2023-06-28	12:33:50	12:45:21	685851	550c3ed5fdf99b3039d68894	4	1	main_slash	11	advance_on_keypress_SLASH	12	stimuli_target_rectangletriangles.svg	stimuli_distractor_trianglediamonds.svg	1	yes	57	0	372	0	0			0	0			1				0	
6.6.1	win	2023-06-28	12:33:50	12:45:22	687699	550c3ed5fdf99b3039d68894	4	1	main_slash	11	main_slash	13	stimuli_distractor_trianglediamonds.svg	stimuli_target_trianglesquares.svg	26	yes	53	1	835	0	0			0	0			1				0	
6.6.1	win	2023-06-28	12:33:50	12:45:22	687699	550c3ed5fdf99b3039d68894	4	1	main_slash	11	advance_on_keypress_SLASH	14	stimuli_distractor_trianglediamonds.svg	stimuli_target_trianglesquares.svg	26	yes	57	0	337	0	0			0	0			1				0	
6.6.1	win	2023-06-28	12:33:50	12:45:24	689085	550c3ed5fdf99b3039d68894	4	1	main_slash	11	main_slash	15	stimuli_distractor_trianglediamonds.svg	stimuli_target_diamondrectangles.svg	27	yes	53	1	403	0	0			0	0			1				0	
6.6.1	win	2023-06-28	12:33:50	12:45:24	689085	550c3ed5fdf99b3039d68894	4	1	main_slash	11	advance_on_keypress_SLASH	16	stimuli_distractor_trianglediamonds.svg	stimuli_target_diamondrectangles.svg	27	yes	57	0	328	0	0			0	0			1				0	
6.6.1	win	2023-06-28	12:33:50	12:45:27	692048	550c3ed5fdf99b3039d68894	4	1	main_slash	11	main_slash	17	stimuli_distractor_trianglediamonds.svg	stimuli_distractor_diamondtriangles.svg	36	no	0	1	2000	0	0			0	0			1				0	
6.6.1	win	2023-06-28	12:33:50	12:45:27	692048	550c3ed5fdf99b3039d68894	4	1	main_slash	11	advance_on_keypress_SLASH	18	stimuli_distractor_trianglediamonds.svg	stimuli_distractor_diamondtriangles.svg	36	no	57	0	442	0	0			0	0			1				0	
6.6.1	win	2023-06-28	12:33:50	12:45:28	693650	550c3ed5fdf99b3039d68894	4	1	main_slash	11	main_slash	19	stimuli_distractor_diamondtriangles.svg	stimuli_target_diamondsquares.svg	32	yes	53	1	518	0	0			0	0			1				0	
6.6.1	win	2023-06-28	12:33:50	12:45:28	693650	550c3ed5fdf99b3039d68894	4	1	main_slash	11	advance_on_keypress_SLASH	20	stimuli_distractor_diamondtriangles.svg	stimuli_target_diamondsquares.svg	32	yes	57	0	415	0	0			0	0			1				0	
6.6.1	win	2023-06-28	12:33:50	12:45:30	695575	550c3ed5fdf99b3039d68894	4	1	main_slash	11	main_slash	21	stimuli_target_squaretriangles.svg	stimuli_distractor_diamondtriangles.svg	7	yes	53	1	861	0	0			0	0			1				0	
6.6.1	win	2023-06-28	12:33:50	12:45:30	695575	550c3ed5fdf99b3039d68894	4	1	main_slash	11	advance_on_keypress_SLASH	22	stimuli_target_squaretriangles.svg	stimuli_distractor_diamondtriangles.svg	7	yes	57	0	311	0	0			0	0			1				0	
6.6.1	win	2023-06-28	12:33:50	12:45:32	696971	550c3ed5fdf99b3039d68894	4	1	main_slash	11	main_slash	23	stimuli_distractor_diamondtriangles.svg	stimuli_target_rectangletriangles.svg	13	yes	53	1	457	0	0			0	0			1				0	
6.6.1	win	2023-06-28	12:33:50	12:45:32	696971	550c3ed5fdf99b3039d68894	4	1	main_slash	11	advance_on_keypress_SLASH	24	stimuli_distractor_diamondtriangles.svg	stimuli_target_rectangletriangles.svg	13	yes	57	0	330	0	0			0	0			1				0	
6.6.1	win	2023-06-28	12:33:50	12:45:33	698379	550c3ed5fdf99b3039d68894	4	1	main_slash	11	main_slash	25	stimuli_distractor_diamondtriangles.svg	stimuli_target_squaretriangles.svg	15	yes	53	1	430	0	0			0	0			1				0	
6.6.1	win	2023-06-28	12:33:50	12:45:33	698379	550c3ed5fdf99b3039d68894	4	1	main_slash	11	advance_on_keypress_SLASH	26	stimuli_distractor_diamondtriangles.svg	stimuli_target_squaretriangles.svg	15	yes	57	0	354	0	0			0	0			1				0	
6.6.1	win	2023-06-28	12:33:50	12:45:36	701382	550c3ed5fdf99b3039d68894	4	1	main_slash	11	main_slash	27	stimuli_distractor_trianglediamonds.svg	stimuli_distractor_diamondtriangles.svg	35	no	0	1	2000	0	0			0	0			1				0	
6.6.1	win	2023-06-28	12:33:50	12:45:36	701382	550c3ed5fdf99b3039d68894	4	1	main_slash	11	advance_on_keypress_SLASH	28	stimuli_distractor_trianglediamonds.svg	stimuli_distractor_diamondtriangles.svg	35	no	57	0	335	0	0			0	0			1				0	
6.6.1	win	2023-06-28	12:33:50	12:45:38	702812	550c3ed5fdf99b3039d68894	4	1	main_slash	11	main_slash	29	stimuli_distractor_diamondtriangles.svg	stimuli_target_rectanglediamonds.svg	14	yes	53	1	446	0	0			0	0			1				0	
6.6.1	win	2023-06-28	12:33:50	12:45:38	702812	550c3ed5fdf99b3039d68894	4	1	main_slash	11	advance_on_keypress_SLASH	30	stimuli_distractor_diamondtriangles.svg	stimuli_target_rectanglediamonds.svg	14	yes	57	0	436	0	0			0	0			1				0	
6.6.1	win	2023-06-28	12:33:50	12:45:39	704220	550c3ed5fdf99b3039d68894	4	1	main_slash	11	main_slash	31	stimuli_target_squaretriangles.svg	stimuli_distractor_trianglediamonds.svg	3	yes	53	1	338	0	0			0	0			1				0	
6.6.1	win	2023-06-28	12:33:50	12:45:39	704220	550c3ed5fdf99b3039d68894	4	1	main_slash	11	advance_on_keypress_SLASH	32	stimuli_target_squaretriangles.svg	stimuli_distractor_trianglediamonds.svg	3	yes	57	0	484	0	0			0	0			1				0	
6.6.1	win	2023-06-28	12:33:50	12:45:41	706453	550c3ed5fdf99b3039d68894	4	1	main_slash	11	main_slash	33	stimuli_distractor_trianglediamonds.svg	stimuli_target_trianglerectangles.svg	25	yes	53	1	1105	0	0			0	0			1				0	
6.6.1	win	2023-06-28	12:33:50	12:45:41	706453	550c3ed5fdf99b3039d68894	4	1	main_slash	11	advance_on_keypress_SLASH	34	stimuli_distractor_trianglediamonds.svg	stimuli_target_trianglerectangles.svg	25	yes	57	0	449	0	0			0	0			1				0	
6.6.1	win	2023-06-28	12:33:50	12:45:43	708366	550c3ed5fdf99b3039d68894	4	1	main_slash	11	main_slash	35	stimuli_distractor_diamondtriangles.svg	stimuli_target_squarediamonds.svg	16	yes	53	1	817	0	0			0	0			1				0	
6.6.1	win	2023-06-28	12:33:50	12:45:43	708366	550c3ed5fdf99b3039d68894	4	1	main_slash	11	advance_on_keypress_SLASH	36	stimuli_distractor_diamondtriangles.svg	stimuli_target_squarediamonds.svg	16	yes	57	0	346	0	0			0	0			1				0	
6.6.1	win	2023-06-28	12:33:50	12:45:44	709719	550c3ed5fdf99b3039d68894	4	1	main_slash	11	main_slash	37	stimuli_target_rectanglediamonds.svg	stimuli_distractor_diamondtriangles.svg	6	yes	53	1	354	0	0			0	0			1				0	
6.6.1	win	2023-06-28	12:33:50	12:45:44	709719	550c3ed5fdf99b3039d68894	4	1	main_slash	11	advance_on_keypress_SLASH	38	stimuli_target_rectanglediamonds.svg	stimuli_distractor_diamondtriangles.svg	6	yes	57	0	483	0	0			0	0			1				0	
6.6.1	win	2023-06-28	12:33:50	12:45:48	712849	550c3ed5fdf99b3039d68894	4	1	main_slash	11	main_slash	39	stimuli_distractor_trianglediamonds.svg	stimuli_distractor_trianglediamonds.svg	33	no	0	1	2000	0	0			0	0			1				0	
6.6.1	win	2023-06-28	12:33:50	12:45:48	712849	550c3ed5fdf99b3039d68894	4	1	main_slash	11	advance_on_keypress_SLASH	40	stimuli_distractor_trianglediamonds.svg	stimuli_distractor_trianglediamonds.svg	33	no	57	0	341	0	0			0	0			1				0	
6.6.1	win	2023-06-28	12:33:50	12:45:49	714427	550c3ed5fdf99b3039d68894	4	1	main_slash	11	main_slash	41	stimuli_target_squarediamonds.svg	stimuli_distractor_diamondtriangles.svg	8	yes	53	1	595	0	0			0	0			1				0	
6.6.1	win	2023-06-28	12:33:50	12:45:49	714427	550c3ed5fdf99b3039d68894	4	1	main_slash	11	advance_on_keypress_SLASH	42	stimuli_target_squarediamonds.svg	stimuli_distractor_diamondtriangles.svg	8	yes	57	0	324	0	0			0	0			1				0	
6.6.1	win	2023-06-28	12:33:50	12:45:52	717382	550c3ed5fdf99b3039d68894	4	1	main_slash	11	main_slash	43	stimuli_distractor_diamondtriangles.svg	stimuli_target_trianglesquares.svg	30	yes	0	0	2000	0	0			0	0			1				0	
6.6.1	win	2023-06-28	12:33:50	12:45:52	717382	550c3ed5fdf99b3039d68894	4	1	main_slash	11	advance_on_keypress_SLASH	44	stimuli_distractor_diamondtriangles.svg	stimuli_target_trianglesquares.svg	30	yes	57	0	538	0	0			0	0			1				0	
6.6.1	win	2023-06-28	12:33:50	12:45:54	719443	550c3ed5fdf99b3039d68894	4	1	main_slash	11	main_slash	45	stimuli_distractor_diamondtriangles.svg	stimuli_target_diamondrectangles.svg	31	yes	53	1	878	0	0			0	0			1				0	
6.6.1	win	2023-06-28	12:33:50	12:45:54	719443	550c3ed5fdf99b3039d68894	4	1	main_slash	11	advance_on_keypress_SLASH	46	stimuli_distractor_diamondtriangles.svg	stimuli_target_diamondrectangles.svg	31	yes	57	0	391	0	0			0	0			1				0	
6.6.1	win	2023-06-28	12:33:50	12:45:56	721148	550c3ed5fdf99b3039d68894	4	1	main_slash	11	main_slash	47	stimuli_target_trianglesquares.svg	stimuli_distractor_trianglediamonds.svg	18	yes	53	1	683	0	0			0	0			1				0	
6.6.1	win	2023-06-28	12:33:50	12:45:56	721148	550c3ed5fdf99b3039d68894	4	1	main_slash	11	advance_on_keypress_SLASH	48	stimuli_target_trianglesquares.svg	stimuli_distractor_trianglediamonds.svg	18	yes	57	0	291	0	0			0	0			1				0	
6.6.1	win	2023-06-28	12:33:50	12:45:57	722445	550c3ed5fdf99b3039d68894	4	1	main_slash	11	main_slash	49	stimuli_target_diamondrectangles.svg	stimuli_distractor_diamondtriangles.svg	23	yes	53	1	363	0	0			0	0			1				0	
6.6.1	win	2023-06-28	12:33:50	12:45:57	722445	550c3ed5fdf99b3039d68894	4	1	main_slash	11	advance_on_keypress_SLASH	50	stimuli_target_diamondrectangles.svg	stimuli_distractor_diamondtriangles.svg	23	yes	57	0	392	0	0			0	0			1				0	
6.6.1	win	2023-06-28	12:33:50	12:45:59	724117	550c3ed5fdf99b3039d68894	4	1	main_slash	11	main_slash	51	stimuli_distractor_diamondtriangles.svg	stimuli_target_trianglerectangles.svg	29	yes	53	1	652	0	0			0	0			1				0	
6.6.1	win	2023-06-28	12:33:50	12:45:59	724117	550c3ed5fdf99b3039d68894	4	1	main_slash	11	advance_on_keypress_SLASH	52	stimuli_distractor_diamondtriangles.svg	stimuli_target_trianglerectangles.svg	29	yes	57	0	359	0	0			0	0			1				0	
6.6.1	win	2023-06-28	12:33:50	12:46:01	726559	550c3ed5fdf99b3039d68894	4	1	main_slash	11	main_slash	53	stimuli_target_rectangletriangles.svg	stimuli_distractor_diamondtriangles.svg	5	yes	53	1	1443	0	0			0	0			1				0	
6.6.1	win	2023-06-28	12:33:50	12:46:01	726559	550c3ed5fdf99b3039d68894	4	1	main_slash	11	advance_on_keypress_SLASH	54	stimuli_target_rectangletriangles.svg	stimuli_distractor_diamondtriangles.svg	5	yes	57	0	433	0	0			0	0			1				0	
6.6.1	win	2023-06-28	12:33:50	12:46:04	729632	550c3ed5fdf99b3039d68894	4	1	main_slash	11	main_slash	55	stimuli_target_trianglerectangles.svg	stimuli_distractor_diamondtriangles.svg	21	yes	0	0	2000	0	0			0	0			1				0	
6.6.1	win	2023-06-28	12:33:50	12:46:04	729632	550c3ed5fdf99b3039d68894	4	1	main_slash	11	advance_on_keypress_SLASH	56	stimuli_target_trianglerectangles.svg	stimuli_distractor_diamondtriangles.svg	21	yes	57	0	528	0	0			0	0			1				0	
6.6.1	win	2023-06-28	12:33:50	12:46:08	732799	550c3ed5fdf99b3039d68894	4	1	main_slash	11	main_slash	57	stimuli_distractor_diamondtriangles.svg	stimuli_distractor_trianglediamonds.svg	37	no	0	1	2000	0	0			0	0			1				0	
6.6.1	win	2023-06-28	12:33:50	12:46:08	732799	550c3ed5fdf99b3039d68894	4	1	main_slash	11	advance_on_keypress_SLASH	58	stimuli_distractor_diamondtriangles.svg	stimuli_distractor_trianglediamonds.svg	37	no	57	0	663	0	0			0	0			1				0	
6.6.1	win	2023-06-28	12:33:50	12:46:11	736099	550c3ed5fdf99b3039d68894	4	1	main_slash	11	main_slash	59	stimuli_distractor_trianglediamonds.svg	stimuli_distractor_trianglediamonds.svg	34	no	0	1	2000	0	0			0	0			1				0	
6.6.1	win	2023-06-28	12:33:50	12:46:11	736099	550c3ed5fdf99b3039d68894	4	1	main_slash	11	advance_on_keypress_SLASH	60	stimuli_distractor_trianglediamonds.svg	stimuli_distractor_trianglediamonds.svg	34	no	57	0	310	0	0			0	0			1				0	
6.6.1	win	2023-06-28	12:33:50	12:46:13	737966	550c3ed5fdf99b3039d68894	4	1	main_slash	11	main_slash	61	stimuli_target_diamondrectangles.svg	stimuli_distractor_trianglediamonds.svg	19	yes	53	1	917	0	0			0	0			1				0	
6.6.1	win	2023-06-28	12:33:50	12:46:13	737966	550c3ed5fdf99b3039d68894	4	1	main_slash	11	advance_on_keypress_SLASH	62	stimuli_target_diamondrectangles.svg	stimuli_distractor_trianglediamonds.svg	19	yes	57	0	610	0	0			0	0			1				0	
6.6.1	win	2023-06-28	12:33:50	12:46:15	740033	550c3ed5fdf99b3039d68894	4	1	main_slash	11	main_slash	63	stimuli_target_trianglerectangles.svg	stimuli_distractor_trianglediamonds.svg	17	yes	53	1	816	0	0			0	0			1				0	
6.6.1	win	2023-06-28	12:33:50	12:46:15	740033	550c3ed5fdf99b3039d68894	4	1	main_slash	11	advance_on_keypress_SLASH	64	stimuli_target_trianglerectangles.svg	stimuli_distractor_trianglediamonds.svg	17	yes	57	0	291	0	0			0	0			1				0	
6.6.1	win	2023-06-28	12:33:50	12:46:17	741958	550c3ed5fdf99b3039d68894	4	1	main_slash	11	main_slash	65	stimuli_target_squarediamonds.svg	stimuli_distractor_trianglediamonds.svg	4	yes	53	1	992	0	0			0	0			1				0	
6.6.1	win	2023-06-28	12:33:50	12:46:17	741958	550c3ed5fdf99b3039d68894	4	1	main_slash	11	advance_on_keypress_SLASH	66	stimuli_target_squarediamonds.svg	stimuli_distractor_trianglediamonds.svg	4	yes	57	0	288	0	0			0	0			1				0	
6.6.1	win	2023-06-28	12:33:50	12:46:19	743806	550c3ed5fdf99b3039d68894	4	1	main_slash	11	main_slash	67	stimuli_target_diamondsquares.svg	stimuli_distractor_diamondtriangles.svg	24	yes	53	1	924	0	0			0	0			1				0	
6.6.1	win	2023-06-28	12:33:50	12:46:19	743806	550c3ed5fdf99b3039d68894	4	1	main_slash	11	advance_on_keypress_SLASH	68	stimuli_target_diamondsquares.svg	stimuli_distractor_diamondtriangles.svg	24	yes	57	0	342	0	0			0	0			1				0	
6.6.1	win	2023-06-28	12:33:50	12:46:20	745500	550c3ed5fdf99b3039d68894	4	1	main_slash	11	main_slash	69	stimuli_distractor_trianglediamonds.svg	stimuli_target_diamondsquares.svg	28	yes	53	1	716	0	0			0	0			1				0	
6.6.1	win	2023-06-28	12:33:50	12:46:20	745500	550c3ed5fdf99b3039d68894	4	1	main_slash	11	advance_on_keypress_SLASH	70	stimuli_distractor_trianglediamonds.svg	stimuli_target_diamondsquares.svg	28	yes	57	0	336	0	0			0	0			1				0	
6.6.1	win	2023-06-28	12:33:50	12:46:23	748483	550c3ed5fdf99b3039d68894	4	1	main_slash	11	main_slash	71	stimuli_distractor_diamondtriangles.svg	stimuli_distractor_diamondtriangles.svg	40	no	0	1	2000	0	0			0	0			1				0	
6.6.1	win	2023-06-28	12:33:50	12:46:23	748483	550c3ed5fdf99b3039d68894	4	1	main_slash	11	advance_on_keypress_SLASH	72	stimuli_distractor_diamondtriangles.svg	stimuli_distractor_diamondtriangles.svg	40	no	57	0	378	0	0			0	0			1				0	
6.6.1	win	2023-06-28	12:33:50	12:46:25	750087	550c3ed5fdf99b3039d68894	4	1	main_slash	11	main_slash	73	stimuli_target_trianglesquares.svg	stimuli_distractor_diamondtriangles.svg	22	yes	53	1	588	0	0			0	0			1				0	
6.6.1	win	2023-06-28	12:33:50	12:46:25	750087	550c3ed5fdf99b3039d68894	4	1	main_slash	11	advance_on_keypress_SLASH	74	stimuli_target_trianglesquares.svg	stimuli_distractor_diamondtriangles.svg	22	yes	57	0	351	0	0			0	0			1				0	
6.6.1	win	2023-06-28	12:33:50	12:46:27	751924	550c3ed5fdf99b3039d68894	4	1	main_slash	11	main_slash	75	stimuli_target_rectanglediamonds.svg	stimuli_distractor_trianglediamonds.svg	2	yes	53	1	840	0	0			0	0			1				0	
6.6.1	win	2023-06-28	12:33:50	12:46:27	751924	550c3ed5fdf99b3039d68894	4	1	main_slash	11	advance_on_keypress_SLASH	76	stimuli_target_rectanglediamonds.svg	stimuli_distractor_trianglediamonds.svg	2	yes	57	0	320	0	0			0	0			1				0	
6.6.1	win	2023-06-28	12:33:50	12:46:29	754036	550c3ed5fdf99b3039d68894	4	1	main_slash	11	main_slash	77	stimuli_target_diamondsquares.svg	stimuli_distractor_trianglediamonds.svg	20	yes	53	1	1152	0	0			0	0			1				0	
6.6.1	win	2023-06-28	12:33:50	12:46:29	754036	550c3ed5fdf99b3039d68894	4	1	main_slash	11	advance_on_keypress_SLASH	78	stimuli_target_diamondsquares.svg	stimuli_distractor_trianglediamonds.svg	20	yes	57	0	293	0	0			0	0			1				0	
6.6.1	win	2023-06-28	12:33:50	12:46:32	756967	550c3ed5fdf99b3039d68894	4	1	main_slash	11	main_slash	79	stimuli_distractor_diamondtriangles.svg	stimuli_distractor_trianglediamonds.svg	38	no	0	1	2000	0	0			0	0			1				0	
6.6.1	win	2023-06-28	12:33:50	12:46:32	756967	550c3ed5fdf99b3039d68894	4	1	main_slash	11	advance_on_keypress_SLASH	80	stimuli_distractor_diamondtriangles.svg	stimuli_distractor_trianglediamonds.svg	38	no	57	0	286	0	0			0	0			1				0	
6.6.1	win	2023-06-28	12:33:50	12:46:33	758644	550c3ed5fdf99b3039d68894	4	1	main_slash	11	main_slash	81	stimuli_target_squarediamonds.svg	stimuli_distractor_diamondtriangles.svg	8	yes	53	1	744	0	0			0	0			1				0	
6.6.1	win	2023-06-28	12:33:50	12:46:33	758644	550c3ed5fdf99b3039d68894	4	1	main_slash	11	advance_on_keypress_SLASH	82	stimuli_target_squarediamonds.svg	stimuli_distractor_diamondtriangles.svg	8	yes	57	0	325	0	0			0	0			1				0	
6.6.1	win	2023-06-28	12:33:50	12:46:35	760062	550c3ed5fdf99b3039d68894	4	1	main_slash	11	main_slash	83	stimuli_target_squarediamonds.svg	stimuli_distractor_trianglediamonds.svg	4	yes	53	1	463	0	0			0	0			1				0	
6.6.1	win	2023-06-28	12:33:50	12:46:35	760062	550c3ed5fdf99b3039d68894	4	1	main_slash	11	advance_on_keypress_SLASH	84	stimuli_target_squarediamonds.svg	stimuli_distractor_trianglediamonds.svg	4	yes	57	0	349	0	0			0	0			1				0	
6.6.1	win	2023-06-28	12:33:50	12:46:36	761548	550c3ed5fdf99b3039d68894	4	1	main_slash	11	main_slash	85	stimuli_distractor_diamondtriangles.svg	stimuli_target_squarediamonds.svg	16	yes	53	1	498	0	0			0	0			1				0	
6.6.1	win	2023-06-28	12:33:50	12:46:36	761548	550c3ed5fdf99b3039d68894	4	1	main_slash	11	advance_on_keypress_SLASH	86	stimuli_distractor_diamondtriangles.svg	stimuli_target_squarediamonds.svg	16	yes	57	0	311	0	0			0	0			1				0	
6.6.1	win	2023-06-28	12:33:50	12:46:39	764500	550c3ed5fdf99b3039d68894	4	1	main_slash	11	main_slash	87	stimuli_distractor_trianglediamonds.svg	stimuli_distractor_trianglediamonds.svg	33	no	0	1	2000	0	0			0	0			1				0	
6.6.1	win	2023-06-28	12:33:50	12:46:39	764500	550c3ed5fdf99b3039d68894	4	1	main_slash	11	advance_on_keypress_SLASH	88	stimuli_distractor_trianglediamonds.svg	stimuli_distractor_trianglediamonds.svg	33	no	57	0	431	0	0			0	0			1				0	
6.6.1	win	2023-06-28	12:33:50	12:46:41	766322	550c3ed5fdf99b3039d68894	4	1	main_slash	11	main_slash	89	stimuli_distractor_trianglediamonds.svg	stimuli_target_diamondrectangles.svg	27	yes	53	1	738	0	0			0	0			1				0	
6.6.1	win	2023-06-28	12:33:50	12:46:41	766322	550c3ed5fdf99b3039d68894	4	1	main_slash	11	advance_on_keypress_SLASH	90	stimuli_distractor_trianglediamonds.svg	stimuli_target_diamondrectangles.svg	27	yes	57	0	286	0	0			0	0			1				0	
6.6.1	win	2023-06-28	12:33:50	12:46:44	769250	550c3ed5fdf99b3039d68894	4	1	main_slash	11	main_slash	91	stimuli_distractor_diamondtriangles.svg	stimuli_distractor_trianglediamonds.svg	38	no	0	1	2000	0	0			0	0			1				0	
6.6.1	win	2023-06-28	12:33:50	12:46:44	769250	550c3ed5fdf99b3039d68894	4	1	main_slash	11	advance_on_keypress_SLASH	92	stimuli_distractor_diamondtriangles.svg	stimuli_distractor_trianglediamonds.svg	38	no	57	0	585	0	0			0	0			1				0	
6.6.1	win	2023-06-28	12:33:50	12:46:46	771392	550c3ed5fdf99b3039d68894	4	1	main_slash	11	main_slash	93	stimuli_distractor_trianglediamonds.svg	stimuli_target_trianglesquares.svg	26	yes	53	1	909	0	0			0	0			1				0	
6.6.1	win	2023-06-28	12:33:50	12:46:46	771392	550c3ed5fdf99b3039d68894	4	1	main_slash	11	advance_on_keypress_SLASH	94	stimuli_distractor_trianglediamonds.svg	stimuli_target_trianglesquares.svg	26	yes	57	0	344	0	0			0	0			1				0	
6.6.1	win	2023-06-28	12:33:50	12:46:48	773240	550c3ed5fdf99b3039d68894	4	1	main_slash	11	main_slash	95	stimuli_target_rectanglediamonds.svg	stimuli_distractor_diamondtriangles.svg	6	yes	53	1	873	0	0			0	0			1				0	
6.6.1	win	2023-06-28	12:33:50	12:46:48	773240	550c3ed5fdf99b3039d68894	4	1	main_slash	11	advance_on_keypress_SLASH	96	stimuli_target_rectanglediamonds.svg	stimuli_distractor_diamondtriangles.svg	6	yes	57	0	309	0	0			0	0			1				0	
6.6.1	win	2023-06-28	12:33:50	12:46:50	775022	550c3ed5fdf99b3039d68894	4	1	main_slash	11	main_slash	97	stimuli_target_diamondrectangles.svg	stimuli_distractor_diamondtriangles.svg	23	yes	53	1	839	0	0			0	0			1				0	
6.6.1	win	2023-06-28	12:33:50	12:46:50	775022	550c3ed5fdf99b3039d68894	4	1	main_slash	11	advance_on_keypress_SLASH	98	stimuli_target_diamondrectangles.svg	stimuli_distractor_diamondtriangles.svg	23	yes	57	0	297	0	0			0	0			1				0	
6.6.1	win	2023-06-28	12:33:50	12:46:52	776793	550c3ed5fdf99b3039d68894	4	1	main_slash	11	main_slash	99	stimuli_target_trianglesquares.svg	stimuli_distractor_diamondtriangles.svg	22	yes	53	1	843	0	0			0	0			1				0	
6.6.1	win	2023-06-28	12:33:50	12:46:52	776793	550c3ed5fdf99b3039d68894	4	1	main_slash	11	advance_on_keypress_SLASH	100	stimuli_target_trianglesquares.svg	stimuli_distractor_diamondtriangles.svg	22	yes	57	0	312	0	0			0	0			1				0	
6.6.1	win	2023-06-28	12:33:50	12:46:54	778894	550c3ed5fdf99b3039d68894	4	1	main_slash	11	main_slash	101	stimuli_distractor_trianglediamonds.svg	stimuli_distractor_diamondtriangles.svg	36	no	53	0	1161	0	0			0	0			1				0	
6.6.1	win	2023-06-28	12:33:50	12:46:54	778894	550c3ed5fdf99b3039d68894	4	1	main_slash	11	advance_on_keypress_SLASH	102	stimuli_distractor_trianglediamonds.svg	stimuli_distractor_diamondtriangles.svg	36	no	57	0	357	0	0			0	0			1				0	
6.6.1	win	2023-06-28	12:33:50	12:46:56	781159	550c3ed5fdf99b3039d68894	4	1	main_slash	11	main_slash	103	stimuli_target_trianglerectangles.svg	stimuli_distractor_trianglediamonds.svg	17	yes	53	1	1275	0	0			0	0			1				0	
6.6.1	win	2023-06-28	12:33:50	12:46:56	781159	550c3ed5fdf99b3039d68894	4	1	main_slash	11	advance_on_keypress_SLASH	104	stimuli_target_trianglerectangles.svg	stimuli_distractor_trianglediamonds.svg	17	yes	57	0	321	0	0			0	0			1				0	
6.6.1	win	2023-06-28	12:33:50	12:46:59	784117	550c3ed5fdf99b3039d68894	4	1	main_slash	11	main_slash	105	stimuli_distractor_diamondtriangles.svg	stimuli_distractor_diamondtriangles.svg	39	no	0	1	2000	0	0			0	0			1				0	
6.6.1	win	2023-06-28	12:33:50	12:46:59	784117	550c3ed5fdf99b3039d68894	4	1	main_slash	11	advance_on_keypress_SLASH	106	stimuli_distractor_diamondtriangles.svg	stimuli_distractor_diamondtriangles.svg	39	no	57	0	2580	0	0			0	0			1				0	
6.6.1	win	2023-06-28	12:33:50	12:47:03	787814	550c3ed5fdf99b3039d68894	4	1	main_slash	11	main_slash	107	stimuli_target_diamondsquares.svg	stimuli_distractor_trianglediamonds.svg	20	yes	53	1	480	0	0			0	0			1				0	
6.6.1	win	2023-06-28	12:33:50	12:47:03	787814	550c3ed5fdf99b3039d68894	4	1	main_slash	11	advance_on_keypress_SLASH	108	stimuli_target_diamondsquares.svg	stimuli_distractor_trianglediamonds.svg	20	yes	57	0	371	0	0			0	0			1				0	
6.6.1	win	2023-06-28	12:33:50	12:47:04	789376	550c3ed5fdf99b3039d68894	4	1	main_slash	11	main_slash	109	stimuli_target_diamondrectangles.svg	stimuli_distractor_trianglediamonds.svg	19	yes	53	1	559	0	0			0	0			1				0	
6.6.1	win	2023-06-28	12:33:50	12:47:04	789376	550c3ed5fdf99b3039d68894	4	1	main_slash	11	advance_on_keypress_SLASH	110	stimuli_target_diamondrectangles.svg	stimuli_distractor_trianglediamonds.svg	19	yes	57	0	454	0	0			0	0			1				0	
6.6.1	win	2023-06-28	12:33:50	12:47:07	792468	550c3ed5fdf99b3039d68894	4	1	main_slash	11	main_slash	111	stimuli_distractor_diamondtriangles.svg	stimuli_distractor_trianglediamonds.svg	37	no	0	1	2000	0	0			0	0			1				0	
6.6.1	win	2023-06-28	12:33:50	12:47:07	792468	550c3ed5fdf99b3039d68894	4	1	main_slash	11	advance_on_keypress_SLASH	112	stimuli_distractor_diamondtriangles.svg	stimuli_distractor_trianglediamonds.svg	37	no	57	0	467	0	0			0	0			1				0	
6.6.1	win	2023-06-28	12:33:50	12:47:09	794238	550c3ed5fdf99b3039d68894	4	1	main_slash	11	main_slash	113	stimuli_distractor_diamondtriangles.svg	stimuli_target_trianglesquares.svg	30	yes	53	1	654	0	0			0	0			1				0	
6.6.1	win	2023-06-28	12:33:50	12:47:09	794238	550c3ed5fdf99b3039d68894	4	1	main_slash	11	advance_on_keypress_SLASH	114	stimuli_distractor_diamondtriangles.svg	stimuli_target_trianglesquares.svg	30	yes	57	0	382	0	0			0	0			1				0	
6.6.1	win	2023-06-28	12:33:50	12:47:11	796415	550c3ed5fdf99b3039d68894	4	1	main_slash	11	main_slash	115	stimuli_target_diamondsquares.svg	stimuli_distractor_diamondtriangles.svg	24	yes	53	1	1148	0	0			0	0			1				0	
6.6.1	win	2023-06-28	12:33:50	12:47:11	796415	550c3ed5fdf99b3039d68894	4	1	main_slash	11	advance_on_keypress_SLASH	116	stimuli_target_diamondsquares.svg	stimuli_distractor_diamondtriangles.svg	24	yes	57	0	960	0	0			0	0			1				0	
6.6.1	win	2023-06-28	12:33:50	12:47:13	798472	550c3ed5fdf99b3039d68894	4	1	main_slash	11	main_slash	117	stimuli_distractor_diamondtriangles.svg	stimuli_target_diamondsquares.svg	32	yes	53	1	455	0	0			0	0			1				0	
6.6.1	win	2023-06-28	12:33:50	12:47:13	798472	550c3ed5fdf99b3039d68894	4	1	main_slash	11	advance_on_keypress_SLASH	118	stimuli_distractor_diamondtriangles.svg	stimuli_target_diamondsquares.svg	32	yes	57	0	351	0	0			0	0			1				0	
6.6.1	win	2023-06-28	12:33:50	12:47:15	800375	550c3ed5fdf99b3039d68894	4	1	main_slash	11	main_slash	119	stimuli_target_rectangletriangles.svg	stimuli_distractor_diamondtriangles.svg	5	yes	53	1	908	0	0			0	0			1				0	
6.6.1	win	2023-06-28	12:33:50	12:47:15	800375	550c3ed5fdf99b3039d68894	4	1	main_slash	11	advance_on_keypress_SLASH	120	stimuli_target_rectangletriangles.svg	stimuli_distractor_diamondtriangles.svg	5	yes	57	0	343	0	0			0	0			1				0	
6.6.1	win	2023-06-28	12:33:50	12:47:18	803351	550c3ed5fdf99b3039d68894	4	1	main_slash	11	main_slash	121	stimuli_distractor_diamondtriangles.svg	stimuli_distractor_diamondtriangles.svg	40	no	0	1	2000	0	0			0	0			1				0	
6.6.1	win	2023-06-28	12:33:50	12:47:18	803351	550c3ed5fdf99b3039d68894	4	1	main_slash	11	advance_on_keypress_SLASH	122	stimuli_distractor_diamondtriangles.svg	stimuli_distractor_diamondtriangles.svg	40	no	57	0	319	0	0			0	0			1				0	
6.6.1	win	2023-06-28	12:33:50	12:47:20	805083	550c3ed5fdf99b3039d68894	4	1	main_slash	11	main_slash	123	stimuli_target_rectanglediamonds.svg	stimuli_distractor_trianglediamonds.svg	2	yes	53	1	765	0	0			0	0			1				0	
6.6.1	win	2023-06-28	12:33:50	12:47:20	805083	550c3ed5fdf99b3039d68894	4	1	main_slash	11	advance_on_keypress_SLASH	124	stimuli_target_rectanglediamonds.svg	stimuli_distractor_trianglediamonds.svg	2	yes	57	0	433	0	0			0	0			1				0	
6.6.1	win	2023-06-28	12:33:50	12:47:22	806986	550c3ed5fdf99b3039d68894	4	1	main_slash	11	main_slash	125	stimuli_distractor_diamondtriangles.svg	stimuli_target_trianglerectangles.svg	29	yes	53	1	818	0	0			0	0			1				0	
6.6.1	win	2023-06-28	12:33:50	12:47:22	806986	550c3ed5fdf99b3039d68894	4	1	main_slash	11	advance_on_keypress_SLASH	126	stimuli_distractor_diamondtriangles.svg	stimuli_target_trianglerectangles.svg	29	yes	57	0	370	0	0			0	0			1				0	
6.6.1	win	2023-06-28	12:33:50	12:47:24	808856	550c3ed5fdf99b3039d68894	4	1	main_slash	11	main_slash	127	stimuli_distractor_trianglediamonds.svg	stimuli_target_rectangletriangles.svg	9	yes	53	1	855	0	0			0	0			1				0	
6.6.1	win	2023-06-28	12:33:50	12:47:24	808856	550c3ed5fdf99b3039d68894	4	1	main_slash	11	advance_on_keypress_SLASH	128	stimuli_distractor_trianglediamonds.svg	stimuli_target_rectangletriangles.svg	9	yes	57	0	318	0	0			0	0			1				0	
6.6.1	win	2023-06-28	12:33:50	12:47:25	810516	550c3ed5fdf99b3039d68894	4	1	main_slash	11	main_slash	129	stimuli_target_squaretriangles.svg	stimuli_distractor_trianglediamonds.svg	3	yes	53	1	698	0	0			0	0			1				0	
6.6.1	win	2023-06-28	12:33:50	12:47:25	810516	550c3ed5fdf99b3039d68894	4	1	main_slash	11	advance_on_keypress_SLASH	130	stimuli_target_squaretriangles.svg	stimuli_distractor_trianglediamonds.svg	3	yes	57	0	390	0	0			0	0			1				0	
6.6.1	win	2023-06-28	12:33:50	12:47:27	812441	550c3ed5fdf99b3039d68894	4	1	main_slash	11	main_slash	131	stimuli_distractor_trianglediamonds.svg	stimuli_target_squaretriangles.svg	11	yes	53	1	890	0	0			0	0			1				0	
6.6.1	win	2023-06-28	12:33:50	12:47:27	812441	550c3ed5fdf99b3039d68894	4	1	main_slash	11	advance_on_keypress_SLASH	132	stimuli_distractor_trianglediamonds.svg	stimuli_target_squaretriangles.svg	11	yes	57	0	386	0	0			0	0			1				0	
6.6.1	win	2023-06-28	12:33:50	12:47:29	814278	550c3ed5fdf99b3039d68894	4	1	main_slash	11	main_slash	133	stimuli_distractor_trianglediamonds.svg	stimuli_target_squarediamonds.svg	12	yes	53	1	810	0	0			0	0			1				0	
6.6.1	win	2023-06-28	12:33:50	12:47:29	814278	550c3ed5fdf99b3039d68894	4	1	main_slash	11	advance_on_keypress_SLASH	134	stimuli_distractor_trianglediamonds.svg	stimuli_target_squarediamonds.svg	12	yes	57	0	466	0	0			0	0			1				0	
6.6.1	win	2023-06-28	12:33:50	12:47:32	817385	550c3ed5fdf99b3039d68894	4	1	main_slash	11	main_slash	135	stimuli_distractor_trianglediamonds.svg	stimuli_distractor_trianglediamonds.svg	34	no	0	1	2000	0	0			0	0			1				0	
6.6.1	win	2023-06-28	12:33:50	12:47:32	817385	550c3ed5fdf99b3039d68894	4	1	main_slash	11	advance_on_keypress_SLASH	136	stimuli_distractor_trianglediamonds.svg	stimuli_distractor_trianglediamonds.svg	34	no	57	0	518	0	0			0	0			1				0	
6.6.1	win	2023-06-28	12:33:50	12:47:35	820552	550c3ed5fdf99b3039d68894	4	1	main_slash	11	main_slash	137	stimuli_distractor_trianglediamonds.svg	stimuli_distractor_diamondtriangles.svg	35	no	0	1	2000	0	0			0	0			1				0	
6.6.1	win	2023-06-28	12:33:50	12:47:35	820552	550c3ed5fdf99b3039d68894	4	1	main_slash	11	advance_on_keypress_SLASH	138	stimuli_distractor_trianglediamonds.svg	stimuli_distractor_diamondtriangles.svg	35	no	57	0	376	0	0			0	0			1				0	
6.6.1	win	2023-06-28	12:33:50	12:47:37	822561	550c3ed5fdf99b3039d68894	4	1	main_slash	11	main_slash	139	stimuli_distractor_diamondtriangles.svg	stimuli_target_diamondrectangles.svg	31	yes	53	1	993	0	0			0	0			1				0	
6.6.1	win	2023-06-28	12:33:50	12:47:37	822561	550c3ed5fdf99b3039d68894	4	1	main_slash	11	advance_on_keypress_SLASH	140	stimuli_distractor_diamondtriangles.svg	stimuli_target_diamondrectangles.svg	31	yes	57	0	389	0	0			0	0			1				0	
6.6.1	win	2023-06-28	12:33:50	12:47:39	824574	550c3ed5fdf99b3039d68894	4	1	main_slash	11	main_slash	141	stimuli_target_rectangletriangles.svg	stimuli_distractor_trianglediamonds.svg	1	yes	53	1	989	0	0			0	0			1				0	
6.6.1	win	2023-06-28	12:33:50	12:47:39	824574	550c3ed5fdf99b3039d68894	4	1	main_slash	11	advance_on_keypress_SLASH	142	stimuli_target_rectangletriangles.svg	stimuli_distractor_trianglediamonds.svg	1	yes	57	0	318	0	0			0	0			1				0	
6.6.1	win	2023-06-28	12:33:50	12:47:42	827535	550c3ed5fdf99b3039d68894	4	1	main_slash	11	main_slash	143	stimuli_target_trianglerectangles.svg	stimuli_distractor_diamondtriangles.svg	21	yes	0	0	2000	0	0			0	0			1				0	
6.6.1	win	2023-06-28	12:33:50	12:47:42	827535	550c3ed5fdf99b3039d68894	4	1	main_slash	11	advance_on_keypress_SLASH	144	stimuli_target_trianglerectangles.svg	stimuli_distractor_diamondtriangles.svg	21	yes	57	0	662	0	0			0	0			1				0	
6.6.1	win	2023-06-28	12:33:50	12:47:45	829930	550c3ed5fdf99b3039d68894	4	1	main_slash	11	main_slash	145	stimuli_distractor_trianglediamonds.svg	stimuli_target_diamondsquares.svg	28	yes	53	1	1095	0	0			0	0			1				0	
6.6.1	win	2023-06-28	12:33:50	12:47:45	829930	550c3ed5fdf99b3039d68894	4	1	main_slash	11	advance_on_keypress_SLASH	146	stimuli_distractor_trianglediamonds.svg	stimuli_target_diamondsquares.svg	28	yes	57	0	347	0	0			0	0			1				0	
6.6.1	win	2023-06-28	12:33:50	12:47:47	831899	550c3ed5fdf99b3039d68894	4	1	main_slash	11	main_slash	147	stimuli_target_trianglesquares.svg	stimuli_distractor_trianglediamonds.svg	18	yes	53	1	997	0	0			0	0			1				0	
6.6.1	win	2023-06-28	12:33:50	12:47:47	831899	550c3ed5fdf99b3039d68894	4	1	main_slash	11	advance_on_keypress_SLASH	148	stimuli_target_trianglesquares.svg	stimuli_distractor_trianglediamonds.svg	18	yes	57	0	344	0	0			0	0			1				0	
6.6.1	win	2023-06-28	12:33:50	12:47:50	834885	550c3ed5fdf99b3039d68894	4	1	main_slash	11	main_slash	149	stimuli_distractor_trianglediamonds.svg	stimuli_target_rectanglediamonds.svg	10	yes	0	0	2000	0	0			0	0			1				0	
6.6.1	win	2023-06-28	12:33:50	12:47:50	834885	550c3ed5fdf99b3039d68894	4	1	main_slash	11	advance_on_keypress_SLASH	150	stimuli_distractor_trianglediamonds.svg	stimuli_target_rectanglediamonds.svg	10	yes	57	0	968	0	0			0	0			1				0	
6.6.1	win	2023-06-28	12:33:50	12:47:52	837212	550c3ed5fdf99b3039d68894	4	1	main_slash	11	main_slash	151	stimuli_distractor_diamondtriangles.svg	stimuli_target_rectangletriangles.svg	13	yes	53	1	710	0	0			0	0			1				0	
6.6.1	win	2023-06-28	12:33:50	12:47:52	837212	550c3ed5fdf99b3039d68894	4	1	main_slash	11	advance_on_keypress_SLASH	152	stimuli_distractor_diamondtriangles.svg	stimuli_target_rectangletriangles.svg	13	yes	57	0	288	0	0			0	0			1				0	
6.6.1	win	2023-06-28	12:33:50	12:47:53	838663	550c3ed5fdf99b3039d68894	4	1	main_slash	11	main_slash	153	stimuli_target_squaretriangles.svg	stimuli_distractor_diamondtriangles.svg	7	yes	53	1	528	0	0			0	0			1				0	
6.6.1	win	2023-06-28	12:33:50	12:47:53	838663	550c3ed5fdf99b3039d68894	4	1	main_slash	11	advance_on_keypress_SLASH	154	stimuli_target_squaretriangles.svg	stimuli_distractor_diamondtriangles.svg	7	yes	57	0	336	0	0			0	0			1				0	
6.6.1	win	2023-06-28	12:33:50	12:47:55	840258	550c3ed5fdf99b3039d68894	4	1	main_slash	11	main_slash	155	stimuli_distractor_diamondtriangles.svg	stimuli_target_rectanglediamonds.svg	14	yes	53	1	623	0	0			0	0			1				0	
6.6.1	win	2023-06-28	12:33:50	12:47:55	840258	550c3ed5fdf99b3039d68894	4	1	main_slash	11	advance_on_keypress_SLASH	156	stimuli_distractor_diamondtriangles.svg	stimuli_target_rectanglediamonds.svg	14	yes	57	0	275	0	0			0	0			1				0	
6.6.1	win	2023-06-28	12:33:50	12:47:57	842370	550c3ed5fdf99b3039d68894	4	1	main_slash	11	main_slash	157	stimuli_distractor_trianglediamonds.svg	stimuli_target_trianglerectangles.svg	25	yes	53	1	1201	0	0			0	0			1				0	
6.6.1	win	2023-06-28	12:33:50	12:47:57	842370	550c3ed5fdf99b3039d68894	4	1	main_slash	11	advance_on_keypress_SLASH	158	stimuli_distractor_trianglediamonds.svg	stimuli_target_trianglerectangles.svg	25	yes	57	0	326	0	0			0	0			1				0	
6.6.1	win	2023-06-28	12:33:50	12:47:59	844636	550c3ed5fdf99b3039d68894	4	1	main_slash	11	main_slash	159	stimuli_distractor_diamondtriangles.svg	stimuli_target_squaretriangles.svg	15	yes	53	1	1301	0	0			0	0			1				0	
6.6.1	win	2023-06-28	12:33:50	12:47:59	844636	550c3ed5fdf99b3039d68894	4	1	main_slash	11	advance_on_keypress_SLASH	160	stimuli_distractor_diamondtriangles.svg	stimuli_target_squaretriangles.svg	15	yes	57	0	335	0	0			0	0			1				0	
6.6.1	win	2023-06-28	12:33:50	12:47:59	844636	550c3ed5fdf99b3039d68894	4	1	headphonecheck_calibration	14	headphonecheck_calibrationIntro	1	stimuli_distractor_diamondtriangles.svg	stimuli_target_squaretriangles.svg	15	yes	calibrationButton	0	4628	0	0			0	0			1				0	
6.6.1	win	2023-06-28	12:33:50	12:47:59	844636	550c3ed5fdf99b3039d68894	4	1	headphonecheck_testphase	15	test_collectResponse	3	stimuli_distractor_diamondtriangles.svg	stimuli_target_squaretriangles.svg	15	yes	second	0	8845	1	2	antiphase_hc_ios.wav	3	0	0			1				0	
6.6.1	win	2023-06-28	12:33:50	12:47:59	844636	550c3ed5fdf99b3039d68894	4	1	headphonecheck_testphase	15	test_collectResponse	6	stimuli_distractor_diamondtriangles.svg	stimuli_target_squaretriangles.svg	15	yes	third	0	4802	2	4	antiphase_hc_sio.wav	1	0	0			1				0	
6.6.1	win	2023-06-28	12:33:50	12:47:59	844636	550c3ed5fdf99b3039d68894	4	1	headphonecheck_testphase	15	test_collectResponse	9	stimuli_distractor_diamondtriangles.svg	stimuli_target_squaretriangles.svg	15	yes	first	0	2577	3	5	antiphase_hc_osi.wav	2	0	0			1				0	
6.6.1	win	2023-06-28	12:33:50	12:47:59	844636	550c3ed5fdf99b3039d68894	4	1	headphonecheck_testphase	15	test_collectResponse	12	stimuli_distractor_diamondtriangles.svg	stimuli_target_squaretriangles.svg	15	yes	second	1	862	4	1	antiphase_hc_iso.wav	2	0	0			1				0	
6.6.1	win	2023-06-28	12:33:50	12:47:59	844636	550c3ed5fdf99b3039d68894	4	1	headphonecheck_testphase	15	test_collectResponse	15	stimuli_distractor_diamondtriangles.svg	stimuli_target_squaretriangles.svg	15	yes	second	0	174	5	3	antiphase_hc_soi.wav	1	0	0			1				0	
6.6.1	win	2023-06-28	12:33:50	12:47:59	844636	550c3ed5fdf99b3039d68894	4	1	headphonecheck_testphase	15	test_collectResponse	18	stimuli_distractor_diamondtriangles.svg	stimuli_target_squaretriangles.svg	15	yes	second	0	1859	6	6	antiphase_hc_ois.wav	3	0	0			1				0	
6.6.1	win	2023-06-28	12:33:50	12:47:59	844636	550c3ed5fdf99b3039d68894	4	1	stereocheck_calibration	17	stereocheck_calibrationIntro	1	stimuli_distractor_diamondtriangles.svg	stimuli_target_squaretriangles.svg	15	yes	stereocheck_calibrationButton	0	3360	6	6	antiphase_hc_ois.wav	3	0	0			1				0	
6.6.1	win	2023-06-28	12:33:50	12:47:59	844636	550c3ed5fdf99b3039d68894	4	1	stereocheck_testphase	18	stereocheck_test_collectResponse	3	stimuli_distractor_diamondtriangles.svg	stimuli_target_squaretriangles.svg	15	yes	stereocheck_left	0	985	6	6	antiphase_hc_ois.wav	3	1	6	noise_calib_stim_RIGHT.wav	2	1				0	
6.6.1	win	2023-06-28	12:33:50	12:47:59	844636	550c3ed5fdf99b3039d68894	4	1	stereocheck_testphase	18	stereocheck_test_collectResponse	6	stimuli_distractor_diamondtriangles.svg	stimuli_target_squaretriangles.svg	15	yes	stereocheck_left	0	320	6	6	antiphase_hc_ois.wav	3	2	5	noise_calib_stim_RIGHT.wav	2	1				0	
6.6.1	win	2023-06-28	12:33:50	12:47:59	844636	550c3ed5fdf99b3039d68894	4	1	stereocheck_testphase	18	stereocheck_test_collectResponse	9	stimuli_distractor_diamondtriangles.svg	stimuli_target_squaretriangles.svg	15	yes	stereocheck_left	1	198	6	6	antiphase_hc_ois.wav	3	3	3	noise_calib_stim_LEFT.wav	1	1				0	
6.6.1	win	2023-06-28	12:33:50	12:47:59	844636	550c3ed5fdf99b3039d68894	4	1	stereocheck_testphase	18	stereocheck_test_collectResponse	12	stimuli_distractor_diamondtriangles.svg	stimuli_target_squaretriangles.svg	15	yes	stereocheck_left	1	456	6	6	antiphase_hc_ois.wav	3	4	2	noise_calib_stim_LEFT.wav	1	1				0	
6.6.1	win	2023-06-28	12:33:50	12:47:59	844636	550c3ed5fdf99b3039d68894	4	1	stereocheck_testphase	18	stereocheck_test_collectResponse	15	stimuli_distractor_diamondtriangles.svg	stimuli_target_squaretriangles.svg	15	yes	stereocheck_left	1	365	6	6	antiphase_hc_ois.wav	3	5	1	noise_calib_stim_LEFT.wav	1	1				0	
6.6.1	win	2023-06-28	12:33:50	12:47:59	844636	550c3ed5fdf99b3039d68894	4	1	stereocheck_testphase	18	stereocheck_test_collectResponse	18	stimuli_distractor_diamondtriangles.svg	stimuli_target_squaretriangles.svg	15	yes	stereocheck_left	0	390	6	6	antiphase_hc_ois.wav	3	6	4	noise_calib_stim_RIGHT.wav	2	1				0	
6.6.1	win	2023-06-28	12:33:50	12:47:59	844636	550c3ed5fdf99b3039d68894	4	1	DL_practice	21	DL_practice	2	stimuli_distractor_diamondtriangles.svg	stimuli_target_squaretriangles.svg	15	yes	ga	1	1354	6	6	antiphase_hc_ois.wav	3	6	4	noise_calib_stim_RIGHT.wav	2	15	blb_dichoticlistening_ga-ga.mp3	ga	ga	0	left
6.6.1	win	2023-06-28	12:33:50	12:47:59	844636	550c3ed5fdf99b3039d68894	4	1	DL_practice	21	DL_practice	3	stimuli_distractor_diamondtriangles.svg	stimuli_target_squaretriangles.svg	15	yes	pa	1	1063	6	6	antiphase_hc_ois.wav	3	6	4	noise_calib_stim_RIGHT.wav	2	29	blb_dichoticlistening_pa-pa.mp3	pa	pa	0	left
6.6.1	win	2023-06-28	12:33:50	12:47:59	844636	550c3ed5fdf99b3039d68894	4	1	DL_practice	21	DL_practice	4	stimuli_distractor_diamondtriangles.svg	stimuli_target_squaretriangles.svg	15	yes	ta	0	2679	6	6	antiphase_hc_ois.wav	3	6	4	noise_calib_stim_RIGHT.wav	2	7	blb_dichoticlistening_da-ba.mp3	da	ba	1	other
6.6.1	win	2023-06-28	12:33:50	12:47:59	844636	550c3ed5fdf99b3039d68894	4	1	DL_practice	21	DL_practice	5	stimuli_distractor_diamondtriangles.svg	stimuli_target_squaretriangles.svg	15	yes	ka	1	1375	6	6	antiphase_hc_ois.wav	3	6	4	noise_calib_stim_RIGHT.wav	2	23	blb_dichoticlistening_ka-pa.mp3	ka	pa	1	left
6.6.1	win	2023-06-28	12:33:50	12:47:59	844636	550c3ed5fdf99b3039d68894	4	1	DL_practice	21	DL_practice	6	stimuli_distractor_diamondtriangles.svg	stimuli_target_squaretriangles.svg	15	yes	ba	1	1453	6	6	antiphase_hc_ois.wav	3	6	4	noise_calib_stim_RIGHT.wav	2	1	blb_dichoticlistening_ba-ba.mp3	ba	ba	0	left
6.6.1	win	2023-06-28	12:33:50	12:47:59	844636	550c3ed5fdf99b3039d68894	4	1	DL_practice	21	DL_practice	7	stimuli_distractor_diamondtriangles.svg	stimuli_target_squaretriangles.svg	15	yes	ta	1	1060	6	6	antiphase_hc_ois.wav	3	6	4	noise_calib_stim_RIGHT.wav	2	36	blb_dichoticlistening_ta-ta.mp3	ta	ta	0	left
6.6.1	win	2023-06-28	12:33:50	12:47:59	844636	550c3ed5fdf99b3039d68894	4	1	DL_practice	21	DL_practice	8	stimuli_distractor_diamondtriangles.svg	stimuli_target_squaretriangles.svg	15	yes	ka	1	856	6	6	antiphase_hc_ois.wav	3	6	4	noise_calib_stim_RIGHT.wav	2	22	blb_dichoticlistening_ka-ka.mp3	ka	ka	0	left
6.6.1	win	2023-06-28	12:33:50	12:47:59	844636	550c3ed5fdf99b3039d68894	4	1	DL_practice	21	DL_practice	9	stimuli_distractor_diamondtriangles.svg	stimuli_target_squaretriangles.svg	15	yes	ga	1	753	6	6	antiphase_hc_ois.wav	3	6	4	noise_calib_stim_RIGHT.wav	2	18	blb_dichoticlistening_ga-ta.mp3	ga	ta	1	left
6.6.1	win	2023-06-28	12:33:50	12:47:59	844636	550c3ed5fdf99b3039d68894	4	1	DL_practice	21	DL_practice	10	stimuli_distractor_diamondtriangles.svg	stimuli_target_squaretriangles.svg	15	yes	da	1	935	6	6	antiphase_hc_ois.wav	3	6	4	noise_calib_stim_RIGHT.wav	2	8	blb_dichoticlistening_da-da.mp3	da	da	0	left
6.6.1	win	2023-06-28	12:33:50	12:47:59	844636	550c3ed5fdf99b3039d68894	4	1	DL_test	23	DL_test	1	stimuli_distractor_diamondtriangles.svg	stimuli_target_squaretriangles.svg	15	yes	da	1	1061	6	6	antiphase_hc_ois.wav	3	6	4	noise_calib_stim_RIGHT.wav	2	10	blb_dichoticlistening_da-ka.mp3	da	ka	1	left
6.6.1	win	2023-06-28	12:33:50	12:47:59	844636	550c3ed5fdf99b3039d68894	4	1	DL_test	23	DL_test	2	stimuli_distractor_diamondtriangles.svg	stimuli_target_squaretriangles.svg	15	yes	ka	1	994	6	6	antiphase_hc_ois.wav	3	6	4	noise_calib_stim_RIGHT.wav	2	23	blb_dichoticlistening_ka-pa.mp3	ka	pa	1	left
6.6.1	win	2023-06-28	12:33:50	12:47:59	844636	550c3ed5fdf99b3039d68894	4	1	DL_test	23	DL_test	3	stimuli_distractor_diamondtriangles.svg	stimuli_target_squaretriangles.svg	15	yes	ta	1	958	6	6	antiphase_hc_ois.wav	3	6	4	noise_calib_stim_RIGHT.wav	2	35	blb_dichoticlistening_ta-pa.mp3	ta	pa	1	left
6.6.1	win	2023-06-28	12:33:50	12:47:59	844636	550c3ed5fdf99b3039d68894	4	1	DL_test	23	DL_test	4	stimuli_distractor_diamondtriangles.svg	stimuli_target_squaretriangles.svg	15	yes	ka	1	1127	6	6	antiphase_hc_ois.wav	3	6	4	noise_calib_stim_RIGHT.wav	2	20	blb_dichoticlistening_ka-da.mp3	ka	da	1	left
6.6.1	win	2023-06-28	12:33:50	12:47:59	844636	550c3ed5fdf99b3039d68894	4	1	DL_test	23	DL_test	5	stimuli_distractor_diamondtriangles.svg	stimuli_target_squaretriangles.svg	15	yes	ga	1	842	6	6	antiphase_hc_ois.wav	3	6	4	noise_calib_stim_RIGHT.wav	2	21	blb_dichoticlistening_ka-ga.mp3	ka	ga	1	right
6.6.1	win	2023-06-28	12:33:50	12:47:59	844636	550c3ed5fdf99b3039d68894	4	1	DL_test	23	DL_test	6	stimuli_distractor_diamondtriangles.svg	stimuli_target_squaretriangles.svg	15	yes	ba	1	924	6	6	antiphase_hc_ois.wav	3	6	4	noise_calib_stim_RIGHT.wav	2	13	blb_dichoticlistening_ga-ba.mp3	ga	ba	1	right
6.6.1	win	2023-06-28	12:33:50	12:47:59	844636	550c3ed5fdf99b3039d68894	4	1	DL_test	23	DL_test	7	stimuli_distractor_diamondtriangles.svg	stimuli_target_squaretriangles.svg	15	yes	pa	0	966	6	6	antiphase_hc_ois.wav	3	6	4	noise_calib_stim_RIGHT.wav	2	6	blb_dichoticlistening_ba-ta.mp3	ba	ta	1	other
6.6.1	win	2023-06-28	12:33:50	12:47:59	844636	550c3ed5fdf99b3039d68894	4	1	DL_test	23	DL_test	8	stimuli_distractor_diamondtriangles.svg	stimuli_target_squaretriangles.svg	15	yes	ba	1	1415	6	6	antiphase_hc_ois.wav	3	6	4	noise_calib_stim_RIGHT.wav	2	3	blb_dichoticlistening_ba-ga.mp3	ba	ga	1	left
6.6.1	win	2023-06-28	12:33:50	12:47:59	844636	550c3ed5fdf99b3039d68894	4	1	DL_test	23	DL_test	9	stimuli_distractor_diamondtriangles.svg	stimuli_target_squaretriangles.svg	15	yes	da	1	784	6	6	antiphase_hc_ois.wav	3	6	4	noise_calib_stim_RIGHT.wav	2	14	blb_dichoticlistening_ga-da.mp3	ga	da	1	right
6.6.1	win	2023-06-28	12:33:50	12:47:59	844636	550c3ed5fdf99b3039d68894	4	1	DL_test	23	DL_test	10	stimuli_distractor_diamondtriangles.svg	stimuli_target_squaretriangles.svg	15	yes	da	1	741	6	6	antiphase_hc_ois.wav	3	6	4	noise_calib_stim_RIGHT.wav	2	26	blb_dichoticlistening_pa-da.mp3	pa	da	1	right
6.6.1	win	2023-06-28	12:33:50	12:47:59	844636	550c3ed5fdf99b3039d68894	4	1	DL_test	23	DL_test	11	stimuli_distractor_diamondtriangles.svg	stimuli_target_squaretriangles.svg	15	yes	da	1	819	6	6	antiphase_hc_ois.wav	3	6	4	noise_calib_stim_RIGHT.wav	2	8	blb_dichoticlistening_da-da.mp3	da	da	0	left
6.6.1	win	2023-06-28	12:33:50	12:47:59	844636	550c3ed5fdf99b3039d68894	4	1	DL_test	23	DL_test	12	stimuli_distractor_diamondtriangles.svg	stimuli_target_squaretriangles.svg	15	yes	ta	1	1501	6	6	antiphase_hc_ois.wav	3	6	4	noise_calib_stim_RIGHT.wav	2	30	blb_dichoticlistening_pa-ta.mp3	pa	ta	1	right
6.6.1	win	2023-06-28	12:33:50	12:47:59	844636	550c3ed5fdf99b3039d68894	4	1	DL_test	23	DL_test	13	stimuli_distractor_diamondtriangles.svg	stimuli_target_squaretriangles.svg	15	yes	pa	0	1932	6	6	antiphase_hc_ois.wav	3	6	4	noise_calib_stim_RIGHT.wav	2	1	blb_dichoticlistening_ba-ba.mp3	ba	ba	0	other
6.6.1	win	2023-06-28	12:33:50	12:47:59	844636	550c3ed5fdf99b3039d68894	4	1	DL_test	23	DL_test	14	stimuli_distractor_diamondtriangles.svg	stimuli_target_squaretriangles.svg	15	yes	ga	1	1196	6	6	antiphase_hc_ois.wav	3	6	4	noise_calib_stim_RIGHT.wav	2	33	blb_dichoticlistening_ta-ga.mp3	ta	ga	1	right
6.6.1	win	2023-06-28	12:33:50	12:47:59	844636	550c3ed5fdf99b3039d68894	4	1	DL_test	23	DL_test	15	stimuli_distractor_diamondtriangles.svg	stimuli_target_squaretriangles.svg	15	yes	ta	1	946	6	6	antiphase_hc_ois.wav	3	6	4	noise_calib_stim_RIGHT.wav	2	36	blb_dichoticlistening_ta-ta.mp3	ta	ta	0	left
6.6.1	win	2023-06-28	12:33:50	12:47:59	844636	550c3ed5fdf99b3039d68894	4	1	DL_test	23	DL_test	16	stimuli_distractor_diamondtriangles.svg	stimuli_target_squaretriangles.svg	15	yes	da	1	1222	6	6	antiphase_hc_ois.wav	3	6	4	noise_calib_stim_RIGHT.wav	2	9	blb_dichoticlistening_da-ga.mp3	da	ga	1	left
6.6.1	win	2023-06-28	12:33:50	12:47:59	844636	550c3ed5fdf99b3039d68894	4	1	DL_test	23	DL_test	17	stimuli_distractor_diamondtriangles.svg	stimuli_target_squaretriangles.svg	15	yes	da	1	2365	6	6	antiphase_hc_ois.wav	3	6	4	noise_calib_stim_RIGHT.wav	2	7	blb_dichoticlistening_da-ba.mp3	da	ba	1	left
6.6.1	win	2023-06-28	12:33:50	12:47:59	844636	550c3ed5fdf99b3039d68894	4	1	DL_test	23	DL_test	18	stimuli_distractor_diamondtriangles.svg	stimuli_target_squaretriangles.svg	15	yes	da	1	829	6	6	antiphase_hc_ois.wav	3	6	4	noise_calib_stim_RIGHT.wav	2	32	blb_dichoticlistening_ta-da.mp3	ta	da	1	right
6.6.1	win	2023-06-28	12:33:50	12:47:59	844636	550c3ed5fdf99b3039d68894	4	1	DL_test	23	DL_test	19	stimuli_distractor_diamondtriangles.svg	stimuli_target_squaretriangles.svg	15	yes	ga	1	1346	6	6	antiphase_hc_ois.wav	3	6	4	noise_calib_stim_RIGHT.wav	2	18	blb_dichoticlistening_ga-ta.mp3	ga	ta	1	left
6.6.1	win	2023-06-28	12:33:50	12:47:59	844636	550c3ed5fdf99b3039d68894	4	1	DL_test	23	DL_test	20	stimuli_distractor_diamondtriangles.svg	stimuli_target_squaretriangles.svg	15	yes	ka	1	1171	6	6	antiphase_hc_ois.wav	3	6	4	noise_calib_stim_RIGHT.wav	2	16	blb_dichoticlistening_ga-ka.mp3	ga	ka	1	right
6.6.1	win	2023-06-28	12:33:50	12:47:59	844636	550c3ed5fdf99b3039d68894	4	1	DL_test	23	DL_test	21	stimuli_distractor_diamondtriangles.svg	stimuli_target_squaretriangles.svg	15	yes	ga	1	1319	6	6	antiphase_hc_ois.wav	3	6	4	noise_calib_stim_RIGHT.wav	2	15	blb_dichoticlistening_ga-ga.mp3	ga	ga	0	left
6.6.1	win	2023-06-28	12:33:50	12:47:59	844636	550c3ed5fdf99b3039d68894	4	1	DL_test	23	DL_test	22	stimuli_distractor_diamondtriangles.svg	stimuli_target_squaretriangles.svg	15	yes	ka	1	974	6	6	antiphase_hc_ois.wav	3	6	4	noise_calib_stim_RIGHT.wav	2	28	blb_dichoticlistening_pa-ka.mp3	pa	ka	1	right
6.6.1	win	2023-06-28	12:33:50	12:47:59	844636	550c3ed5fdf99b3039d68894	4	1	DL_test	23	DL_test	23	stimuli_distractor_diamondtriangles.svg	stimuli_target_squaretriangles.svg	15	yes	ka	1	842	6	6	antiphase_hc_ois.wav	3	6	4	noise_calib_stim_RIGHT.wav	2	24	blb_dichoticlistening_ka-ta.mp3	ka	ta	1	left
6.6.1	win	2023-06-28	12:33:50	12:47:59	844636	550c3ed5fdf99b3039d68894	4	1	DL_test	23	DL_test	24	stimuli_distractor_diamondtriangles.svg	stimuli_target_squaretriangles.svg	15	yes	ka	1	2537	6	6	antiphase_hc_ois.wav	3	6	4	noise_calib_stim_RIGHT.wav	2	4	blb_dichoticlistening_ba-ka.mp3	ba	ka	1	right
6.6.1	win	2023-06-28	12:33:50	12:47:59	844636	550c3ed5fdf99b3039d68894	4	1	DL_test	23	DL_test	25	stimuli_distractor_diamondtriangles.svg	stimuli_target_squaretriangles.svg	15	yes	ga	1	874	6	6	antiphase_hc_ois.wav	3	6	4	noise_calib_stim_RIGHT.wav	2	27	blb_dichoticlistening_pa-ga.mp3	pa	ga	1	right
6.6.1	win	2023-06-28	12:33:50	12:47:59	844636	550c3ed5fdf99b3039d68894	4	1	DL_test	23	DL_test	26	stimuli_distractor_diamondtriangles.svg	stimuli_target_squaretriangles.svg	15	yes	ga	1	692	6	6	antiphase_hc_ois.wav	3	6	4	noise_calib_stim_RIGHT.wav	2	17	blb_dichoticlistening_ga-pa.mp3	ga	pa	1	left
