build	computer.platform	date	time	timestamp	time_elapsed_ms	subject	group	session	blockcode	blocknum	trialcode	trialnum	stimulus_left	stimulus_right	stim_index	target_present	response	correct	latency	headphonecheck_countTestTrials	headphonecheck_index	headphonecheck_testSound	headphonecheck_correctResponse	stereocheck_countTestTrials	stereocheck_index	stereocheck_testSound	stereocheck_correctResponse	DL_index	DL_soundfile	DL_leftSound	DL_rightSound	DL_dualSound	DL_choice
6.6.1	mac	2023-06-19	16:43:41	16:45:32	109597	5ec06f59c4ceb1481f225bbd	3	1	practice_slash	5	practice_slash	1	stimuli_distractor_diamondtriangles.svg	stimuli_target_rectangletriangles.svg	7	yes	0	0	2000	0	0			0	0			1				0	
6.6.1	mac	2023-06-19	16:43:41	16:45:32	109597	5ec06f59c4ceb1481f225bbd	3	1	practice_slash	5	advance_on_keypress_SLASH	2	stimuli_distractor_diamondtriangles.svg	stimuli_target_rectangletriangles.svg	7	yes	57	0	1322	0	0			0	0			1				0	
6.6.1	mac	2023-06-19	16:43:41	16:45:36	113533	5ec06f59c4ceb1481f225bbd	3	1	practice_slash	5	practice_slash	3	stimuli_distractor_diamondtriangles.svg	stimuli_target_diamondrectangles.svg	8	yes	53	1	969	0	0			0	0			1				0	
6.6.1	mac	2023-06-19	16:43:41	16:45:36	113533	5ec06f59c4ceb1481f225bbd	3	1	practice_slash	5	advance_on_keypress_SLASH	4	stimuli_distractor_diamondtriangles.svg	stimuli_target_diamondrectangles.svg	8	yes	57	0	1070	0	0			0	0			1				0	
6.6.1	mac	2023-06-19	16:43:41	16:45:40	116965	5ec06f59c4ceb1481f225bbd	3	1	practice_slash	5	practice_slash	5	stimuli_distractor_diamondtriangles.svg	stimuli_target_trianglerectangles.svg	9	yes	53	1	700	0	0			0	0			1				0	
6.6.1	mac	2023-06-19	16:43:41	16:45:40	116965	5ec06f59c4ceb1481f225bbd	3	1	practice_slash	5	advance_on_keypress_SLASH	6	stimuli_distractor_diamondtriangles.svg	stimuli_target_trianglerectangles.svg	9	yes	57	0	766	0	0			0	0			1				0	
6.6.1	mac	2023-06-19	16:43:41	16:45:43	120559	5ec06f59c4ceb1481f225bbd	3	1	practice_slash	5	practice_slash	7	stimuli_distractor_diamondtriangles.svg	stimuli_distractor_diamondtriangles.svg	13	no	53	0	1195	0	0			0	0			1				0	
6.6.1	mac	2023-06-19	16:43:41	16:45:43	120559	5ec06f59c4ceb1481f225bbd	3	1	practice_slash	5	advance_on_keypress_SLASH	8	stimuli_distractor_diamondtriangles.svg	stimuli_distractor_diamondtriangles.svg	13	no	57	0	719	0	0			0	0			1				0	
6.6.1	mac	2023-06-19	16:43:41	16:45:48	124914	5ec06f59c4ceb1481f225bbd	3	1	practice_slash	5	practice_slash	9	stimuli_distractor_trianglediamonds.svg	stimuli_target_rectanglediamonds.svg	10	yes	0	0	2000	0	0			0	0			1				0	
6.6.1	mac	2023-06-19	16:43:41	16:45:48	124914	5ec06f59c4ceb1481f225bbd	3	1	practice_slash	5	advance_on_keypress_SLASH	10	stimuli_distractor_trianglediamonds.svg	stimuli_target_rectanglediamonds.svg	10	yes	57	0	826	0	0			0	0			1				0	
6.6.1	mac	2023-06-19	16:43:41	16:45:52	129364	5ec06f59c4ceb1481f225bbd	3	1	practice_slash	5	practice_slash	11	stimuli_distractor_trianglediamonds.svg	stimuli_distractor_diamondtriangles.svg	16	no	0	1	2000	0	0			0	0			1				0	
6.6.1	mac	2023-06-19	16:43:41	16:45:52	129364	5ec06f59c4ceb1481f225bbd	3	1	practice_slash	5	advance_on_keypress_SLASH	12	stimuli_distractor_trianglediamonds.svg	stimuli_distractor_diamondtriangles.svg	16	no	57	0	630	0	0			0	0			1				0	
6.6.1	mac	2023-06-19	16:43:41	16:45:56	133631	5ec06f59c4ceb1481f225bbd	3	1	practice_slash	5	practice_slash	13	stimuli_distractor_trianglediamonds.svg	stimuli_target_squarediamonds.svg	11	yes	0	0	2000	0	0			0	0			1				0	
6.6.1	mac	2023-06-19	16:43:41	16:45:56	133631	5ec06f59c4ceb1481f225bbd	3	1	practice_slash	5	advance_on_keypress_SLASH	14	stimuli_distractor_trianglediamonds.svg	stimuli_target_squarediamonds.svg	11	yes	57	0	1042	0	0			0	0			1				0	
6.6.1	mac	2023-06-19	16:43:41	16:46:01	138315	5ec06f59c4ceb1481f225bbd	3	1	practice_slash	5	practice_slash	15	stimuli_target_rectanglediamonds.svg	stimuli_distractor_diamondtriangles.svg	1	yes	0	0	2000	0	0			0	0			1				0	
6.6.1	mac	2023-06-19	16:43:41	16:46:01	138315	5ec06f59c4ceb1481f225bbd	3	1	practice_slash	5	advance_on_keypress_SLASH	16	stimuli_target_rectanglediamonds.svg	stimuli_distractor_diamondtriangles.svg	1	yes	57	0	555	0	0			0	0			1				0	
6.6.1	mac	2023-06-19	16:43:41	16:46:04	141317	5ec06f59c4ceb1481f225bbd	3	1	practice_slash	5	practice_slash	17	stimuli_target_squarediamonds.svg	stimuli_distractor_trianglediamonds.svg	5	yes	53	1	802	0	0			0	0			1				0	
6.6.1	mac	2023-06-19	16:43:41	16:46:04	141317	5ec06f59c4ceb1481f225bbd	3	1	practice_slash	5	advance_on_keypress_SLASH	18	stimuli_target_squarediamonds.svg	stimuli_distractor_trianglediamonds.svg	5	yes	57	0	461	0	0			0	0			1				0	
6.6.1	mac	2023-06-19	16:43:41	16:46:08	145414	5ec06f59c4ceb1481f225bbd	3	1	practice_slash	5	practice_slash	19	stimuli_target_diamondsquares.svg	stimuli_distractor_trianglediamonds.svg	6	yes	0	0	2000	0	0			0	0			1				0	
6.6.1	mac	2023-06-19	16:43:41	16:46:08	145414	5ec06f59c4ceb1481f225bbd	3	1	practice_slash	5	advance_on_keypress_SLASH	20	stimuli_target_diamondsquares.svg	stimuli_distractor_trianglediamonds.svg	6	yes	57	0	297	0	0			0	0			1				0	
6.6.1	mac	2023-06-19	16:43:41	16:46:12	149346	5ec06f59c4ceb1481f225bbd	3	1	practice_slash	5	practice_slash	21	stimuli_distractor_diamondtriangles.svg	stimuli_distractor_trianglediamonds.svg	14	no	0	1	2000	0	0			0	0			1				0	
6.6.1	mac	2023-06-19	16:43:41	16:46:12	149346	5ec06f59c4ceb1481f225bbd	3	1	practice_slash	5	advance_on_keypress_SLASH	22	stimuli_distractor_diamondtriangles.svg	stimuli_distractor_trianglediamonds.svg	14	no	57	0	313	0	0			0	0			1				0	
6.6.1	mac	2023-06-19	16:43:41	16:46:15	152153	5ec06f59c4ceb1481f225bbd	3	1	practice_slash	5	practice_slash	23	stimuli_target_squarediamonds.svg	stimuli_distractor_diamondtriangles.svg	2	yes	53	1	855	0	0			0	0			1				0	
6.6.1	mac	2023-06-19	16:43:41	16:46:15	152153	5ec06f59c4ceb1481f225bbd	3	1	practice_slash	5	advance_on_keypress_SLASH	24	stimuli_target_squarediamonds.svg	stimuli_distractor_diamondtriangles.svg	2	yes	57	0	280	0	0			0	0			1				0	
6.6.1	mac	2023-06-19	16:43:41	16:46:18	155012	5ec06f59c4ceb1481f225bbd	3	1	practice_slash	5	practice_slash	25	stimuli_target_rectanglediamonds.svg	stimuli_distractor_trianglediamonds.svg	4	yes	53	1	947	0	0			0	0			1				0	
6.6.1	mac	2023-06-19	16:43:41	16:46:18	155012	5ec06f59c4ceb1481f225bbd	3	1	practice_slash	5	advance_on_keypress_SLASH	26	stimuli_target_rectanglediamonds.svg	stimuli_distractor_trianglediamonds.svg	4	yes	57	0	254	0	0			0	0			1				0	
6.6.1	mac	2023-06-19	16:43:41	16:46:21	157814	5ec06f59c4ceb1481f225bbd	3	1	practice_slash	5	practice_slash	27	stimuli_target_diamondsquares.svg	stimuli_distractor_diamondtriangles.svg	3	yes	53	1	915	0	0			0	0			1				0	
6.6.1	mac	2023-06-19	16:43:41	16:46:21	157814	5ec06f59c4ceb1481f225bbd	3	1	practice_slash	5	advance_on_keypress_SLASH	28	stimuli_target_diamondsquares.svg	stimuli_distractor_diamondtriangles.svg	3	yes	57	0	191	0	0			0	0			1				0	
6.6.1	mac	2023-06-19	16:43:41	16:46:23	160721	5ec06f59c4ceb1481f225bbd	3	1	practice_slash	5	practice_slash	29	stimuli_distractor_trianglediamonds.svg	stimuli_distractor_trianglediamonds.svg	15	no	53	0	1090	0	0			0	0			1				0	
6.6.1	mac	2023-06-19	16:43:41	16:46:23	160721	5ec06f59c4ceb1481f225bbd	3	1	practice_slash	5	advance_on_keypress_SLASH	30	stimuli_distractor_trianglediamonds.svg	stimuli_distractor_trianglediamonds.svg	15	no	57	0	281	0	0			0	0			1				0	
6.6.1	mac	2023-06-19	16:43:41	16:46:26	163448	5ec06f59c4ceb1481f225bbd	3	1	practice_slash	5	practice_slash	31	stimuli_distractor_trianglediamonds.svg	stimuli_target_diamondrectangles.svg	12	yes	53	1	816	0	0			0	0			1				0	
6.6.1	mac	2023-06-19	16:43:41	16:46:26	163448	5ec06f59c4ceb1481f225bbd	3	1	practice_slash	5	advance_on_keypress_SLASH	32	stimuli_distractor_trianglediamonds.svg	stimuli_target_diamondrectangles.svg	12	yes	57	0	225	0	0			0	0			1				0	
6.6.1	mac	2023-06-19	16:43:41	16:46:30	167396	5ec06f59c4ceb1481f225bbd	3	1	main_slash	7	main_slash	1	stimuli_target_trianglesquares.svg	stimuli_distractor_trianglediamonds.svg	18	yes	53	1	682	0	0			0	0			1				0	
6.6.1	mac	2023-06-19	16:43:41	16:46:30	167396	5ec06f59c4ceb1481f225bbd	3	1	main_slash	7	advance_on_keypress_SLASH	2	stimuli_target_trianglesquares.svg	stimuli_distractor_trianglediamonds.svg	18	yes	57	0	941	0	0			0	0			1				0	
6.6.1	mac	2023-06-19	16:43:41	16:46:32	169653	5ec06f59c4ceb1481f225bbd	3	1	main_slash	7	main_slash	3	stimuli_distractor_diamondtriangles.svg	stimuli_target_trianglerectangles.svg	29	yes	53	1	690	0	0			0	0			1				0	
6.6.1	mac	2023-06-19	16:43:41	16:46:32	169653	5ec06f59c4ceb1481f225bbd	3	1	main_slash	7	advance_on_keypress_SLASH	4	stimuli_distractor_diamondtriangles.svg	stimuli_target_trianglerectangles.svg	29	yes	57	0	598	0	0			0	0			1				0	
6.6.1	mac	2023-06-19	16:43:41	16:46:34	171621	5ec06f59c4ceb1481f225bbd	3	1	main_slash	7	main_slash	5	stimuli_target_squaretriangles.svg	stimuli_distractor_trianglediamonds.svg	3	yes	53	1	742	0	0			0	0			1				0	
6.6.1	mac	2023-06-19	16:43:41	16:46:34	171621	5ec06f59c4ceb1481f225bbd	3	1	main_slash	7	advance_on_keypress_SLASH	6	stimuli_target_squaretriangles.svg	stimuli_distractor_trianglediamonds.svg	3	yes	57	0	640	0	0			0	0			1				0	
6.6.1	mac	2023-06-19	16:43:41	16:46:38	174878	5ec06f59c4ceb1481f225bbd	3	1	main_slash	7	main_slash	7	stimuli_distractor_trianglediamonds.svg	stimuli_distractor_diamondtriangles.svg	36	no	0	1	2000	0	0			0	0			1				0	
6.6.1	mac	2023-06-19	16:43:41	16:46:38	174878	5ec06f59c4ceb1481f225bbd	3	1	main_slash	7	advance_on_keypress_SLASH	8	stimuli_distractor_trianglediamonds.svg	stimuli_distractor_diamondtriangles.svg	36	no	57	0	555	0	0			0	0			1				0	
6.6.1	mac	2023-06-19	16:43:41	16:46:41	178062	5ec06f59c4ceb1481f225bbd	3	1	main_slash	7	main_slash	9	stimuli_distractor_trianglediamonds.svg	stimuli_distractor_diamondtriangles.svg	35	no	0	1	2000	0	0			0	0			1				0	
6.6.1	mac	2023-06-19	16:43:41	16:46:41	178062	5ec06f59c4ceb1481f225bbd	3	1	main_slash	7	advance_on_keypress_SLASH	10	stimuli_distractor_trianglediamonds.svg	stimuli_distractor_diamondtriangles.svg	35	no	57	0	451	0	0			0	0			1				0	
6.6.1	mac	2023-06-19	16:43:41	16:46:44	181146	5ec06f59c4ceb1481f225bbd	3	1	main_slash	7	main_slash	11	stimuli_distractor_diamondtriangles.svg	stimuli_distractor_diamondtriangles.svg	40	no	0	1	2000	0	0			0	0			1				0	
6.6.1	mac	2023-06-19	16:43:41	16:46:44	181146	5ec06f59c4ceb1481f225bbd	3	1	main_slash	7	advance_on_keypress_SLASH	12	stimuli_distractor_diamondtriangles.svg	stimuli_distractor_diamondtriangles.svg	40	no	57	0	1133	0	0			0	0			1				0	
6.6.1	mac	2023-06-19	16:43:41	16:46:48	184913	5ec06f59c4ceb1481f225bbd	3	1	main_slash	7	main_slash	13	stimuli_distractor_diamondtriangles.svg	stimuli_distractor_trianglediamonds.svg	38	no	0	1	2000	0	0			0	0			1				0	
6.6.1	mac	2023-06-19	16:43:41	16:46:48	184913	5ec06f59c4ceb1481f225bbd	3	1	main_slash	7	advance_on_keypress_SLASH	14	stimuli_distractor_diamondtriangles.svg	stimuli_distractor_trianglediamonds.svg	38	no	57	0	426	0	0			0	0			1				0	
6.6.1	mac	2023-06-19	16:43:41	16:46:50	187072	5ec06f59c4ceb1481f225bbd	3	1	main_slash	7	main_slash	15	stimuli_target_diamondrectangles.svg	stimuli_distractor_diamondtriangles.svg	23	yes	53	1	1108	0	0			0	0			1				0	
6.6.1	mac	2023-06-19	16:43:41	16:46:50	187072	5ec06f59c4ceb1481f225bbd	3	1	main_slash	7	advance_on_keypress_SLASH	16	stimuli_target_diamondrectangles.svg	stimuli_distractor_diamondtriangles.svg	23	yes	57	0	877	0	0			0	0			1				0	
6.6.1	mac	2023-06-19	16:43:41	16:46:52	189336	5ec06f59c4ceb1481f225bbd	3	1	main_slash	7	main_slash	17	stimuli_target_diamondsquares.svg	stimuli_distractor_diamondtriangles.svg	24	yes	53	1	772	0	0			0	0			1				0	
6.6.1	mac	2023-06-19	16:43:41	16:46:52	189336	5ec06f59c4ceb1481f225bbd	3	1	main_slash	7	advance_on_keypress_SLASH	18	stimuli_target_diamondsquares.svg	stimuli_distractor_diamondtriangles.svg	24	yes	57	0	597	0	0			0	0			1				0	
6.6.1	mac	2023-06-19	16:43:41	16:46:54	191476	5ec06f59c4ceb1481f225bbd	3	1	main_slash	7	main_slash	19	stimuli_target_rectanglediamonds.svg	stimuli_distractor_trianglediamonds.svg	2	yes	53	1	912	0	0			0	0			1				0	
6.6.1	mac	2023-06-19	16:43:41	16:46:54	191476	5ec06f59c4ceb1481f225bbd	3	1	main_slash	7	advance_on_keypress_SLASH	20	stimuli_target_rectanglediamonds.svg	stimuli_distractor_trianglediamonds.svg	2	yes	57	0	582	0	0			0	0			1				0	
6.6.1	mac	2023-06-19	16:43:41	16:46:56	193559	5ec06f59c4ceb1481f225bbd	3	1	main_slash	7	main_slash	21	stimuli_distractor_diamondtriangles.svg	stimuli_target_trianglesquares.svg	30	yes	53	1	863	0	0			0	0			1				0	
6.6.1	mac	2023-06-19	16:43:41	16:46:56	193559	5ec06f59c4ceb1481f225bbd	3	1	main_slash	7	advance_on_keypress_SLASH	22	stimuli_distractor_diamondtriangles.svg	stimuli_target_trianglesquares.svg	30	yes	57	0	570	0	0			0	0			1				0	
6.6.1	mac	2023-06-19	16:43:41	16:46:58	195686	5ec06f59c4ceb1481f225bbd	3	1	main_slash	7	main_slash	23	stimuli_distractor_diamondtriangles.svg	stimuli_target_squaretriangles.svg	15	yes	53	1	922	0	0			0	0			1				0	
6.6.1	mac	2023-06-19	16:43:41	16:46:58	195686	5ec06f59c4ceb1481f225bbd	3	1	main_slash	7	advance_on_keypress_SLASH	24	stimuli_distractor_diamondtriangles.svg	stimuli_target_squaretriangles.svg	15	yes	57	0	504	0	0			0	0			1				0	
6.6.1	mac	2023-06-19	16:43:41	16:47:01	197763	5ec06f59c4ceb1481f225bbd	3	1	main_slash	7	main_slash	25	stimuli_distractor_trianglediamonds.svg	stimuli_target_rectangletriangles.svg	9	yes	53	1	948	0	0			0	0			1				0	
6.6.1	mac	2023-06-19	16:43:41	16:47:01	197763	5ec06f59c4ceb1481f225bbd	3	1	main_slash	7	advance_on_keypress_SLASH	26	stimuli_distractor_trianglediamonds.svg	stimuli_target_rectangletriangles.svg	9	yes	57	0	524	0	0			0	0			1				0	
6.6.1	mac	2023-06-19	16:43:41	16:47:02	199658	5ec06f59c4ceb1481f225bbd	3	1	main_slash	7	main_slash	27	stimuli_target_rectanglediamonds.svg	stimuli_distractor_diamondtriangles.svg	6	yes	53	1	727	0	0			0	0			1				0	
6.6.1	mac	2023-06-19	16:43:41	16:47:02	199658	5ec06f59c4ceb1481f225bbd	3	1	main_slash	7	advance_on_keypress_SLASH	28	stimuli_target_rectanglediamonds.svg	stimuli_distractor_diamondtriangles.svg	6	yes	57	0	612	0	0			0	0			1				0	
6.6.1	mac	2023-06-19	16:43:41	16:47:04	201676	5ec06f59c4ceb1481f225bbd	3	1	main_slash	7	main_slash	29	stimuli_target_trianglesquares.svg	stimuli_distractor_diamondtriangles.svg	22	yes	53	1	762	0	0			0	0			1				0	
6.6.1	mac	2023-06-19	16:43:41	16:47:04	201676	5ec06f59c4ceb1481f225bbd	3	1	main_slash	7	advance_on_keypress_SLASH	30	stimuli_target_trianglesquares.svg	stimuli_distractor_diamondtriangles.svg	22	yes	57	0	720	0	0			0	0			1				0	
6.6.1	mac	2023-06-19	16:43:41	16:47:08	205029	5ec06f59c4ceb1481f225bbd	3	1	main_slash	7	main_slash	31	stimuli_distractor_diamondtriangles.svg	stimuli_distractor_trianglediamonds.svg	37	no	0	1	2000	0	0			0	0			1				0	
6.6.1	mac	2023-06-19	16:43:41	16:47:08	205029	5ec06f59c4ceb1481f225bbd	3	1	main_slash	7	advance_on_keypress_SLASH	32	stimuli_distractor_diamondtriangles.svg	stimuli_distractor_trianglediamonds.svg	37	no	57	0	424	0	0			0	0			1				0	
6.6.1	mac	2023-06-19	16:43:41	16:47:10	206996	5ec06f59c4ceb1481f225bbd	3	1	main_slash	7	main_slash	33	stimuli_distractor_diamondtriangles.svg	stimuli_target_rectangletriangles.svg	13	yes	53	1	915	0	0			0	0			1				0	
6.6.1	mac	2023-06-19	16:43:41	16:47:10	206996	5ec06f59c4ceb1481f225bbd	3	1	main_slash	7	advance_on_keypress_SLASH	34	stimuli_distractor_diamondtriangles.svg	stimuli_target_rectangletriangles.svg	13	yes	57	0	505	0	0			0	0			1				0	
6.6.1	mac	2023-06-19	16:43:41	16:47:12	208781	5ec06f59c4ceb1481f225bbd	3	1	main_slash	7	main_slash	35	stimuli_target_rectangletriangles.svg	stimuli_distractor_diamondtriangles.svg	5	yes	53	1	651	0	0			0	0			1				0	
6.6.1	mac	2023-06-19	16:43:41	16:47:12	208781	5ec06f59c4ceb1481f225bbd	3	1	main_slash	7	advance_on_keypress_SLASH	36	stimuli_target_rectangletriangles.svg	stimuli_distractor_diamondtriangles.svg	5	yes	57	0	517	0	0			0	0			1				0	
6.6.1	mac	2023-06-19	16:43:41	16:47:14	210887	5ec06f59c4ceb1481f225bbd	3	1	main_slash	7	main_slash	37	stimuli_target_squarediamonds.svg	stimuli_distractor_trianglediamonds.svg	4	yes	53	1	957	0	0			0	0			1				0	
6.6.1	mac	2023-06-19	16:43:41	16:47:14	210887	5ec06f59c4ceb1481f225bbd	3	1	main_slash	7	advance_on_keypress_SLASH	38	stimuli_target_squarediamonds.svg	stimuli_distractor_trianglediamonds.svg	4	yes	57	0	538	0	0			0	0			1				0	
6.6.1	mac	2023-06-19	16:43:41	16:47:16	213157	5ec06f59c4ceb1481f225bbd	3	1	main_slash	7	main_slash	39	stimuli_target_diamondrectangles.svg	stimuli_distractor_trianglediamonds.svg	19	yes	53	1	1111	0	0			0	0			1				0	
6.6.1	mac	2023-06-19	16:43:41	16:47:16	213157	5ec06f59c4ceb1481f225bbd	3	1	main_slash	7	advance_on_keypress_SLASH	40	stimuli_target_diamondrectangles.svg	stimuli_distractor_trianglediamonds.svg	19	yes	57	0	517	0	0			0	0			1				0	
6.6.1	mac	2023-06-19	16:43:41	16:47:18	215237	5ec06f59c4ceb1481f225bbd	3	1	main_slash	7	main_slash	41	stimuli_target_trianglerectangles.svg	stimuli_distractor_diamondtriangles.svg	21	yes	53	1	923	0	0			0	0			1				0	
6.6.1	mac	2023-06-19	16:43:41	16:47:18	215237	5ec06f59c4ceb1481f225bbd	3	1	main_slash	7	advance_on_keypress_SLASH	42	stimuli_target_trianglerectangles.svg	stimuli_distractor_diamondtriangles.svg	21	yes	57	0	500	0	0			0	0			1				0	
6.6.1	mac	2023-06-19	16:43:41	16:47:20	217215	5ec06f59c4ceb1481f225bbd	3	1	main_slash	7	main_slash	43	stimuli_target_diamondsquares.svg	stimuli_distractor_trianglediamonds.svg	20	yes	53	1	852	0	0			0	0			1				0	
6.6.1	mac	2023-06-19	16:43:41	16:47:20	217215	5ec06f59c4ceb1481f225bbd	3	1	main_slash	7	advance_on_keypress_SLASH	44	stimuli_target_diamondsquares.svg	stimuli_distractor_trianglediamonds.svg	20	yes	57	0	428	0	0			0	0			1				0	
6.6.1	mac	2023-06-19	16:43:41	16:47:22	219226	5ec06f59c4ceb1481f225bbd	3	1	main_slash	7	main_slash	45	stimuli_distractor_diamondtriangles.svg	stimuli_target_squarediamonds.svg	16	yes	53	1	945	0	0			0	0			1				0	
6.6.1	mac	2023-06-19	16:43:41	16:47:22	219226	5ec06f59c4ceb1481f225bbd	3	1	main_slash	7	advance_on_keypress_SLASH	46	stimuli_distractor_diamondtriangles.svg	stimuli_target_squarediamonds.svg	16	yes	57	0	522	0	0			0	0			1				0	
6.6.1	mac	2023-06-19	16:43:41	16:47:24	221196	5ec06f59c4ceb1481f225bbd	3	1	main_slash	7	main_slash	47	stimuli_distractor_diamondtriangles.svg	stimuli_target_diamondsquares.svg	32	yes	53	1	816	0	0			0	0			1				0	
6.6.1	mac	2023-06-19	16:43:41	16:47:24	221196	5ec06f59c4ceb1481f225bbd	3	1	main_slash	7	advance_on_keypress_SLASH	48	stimuli_distractor_diamondtriangles.svg	stimuli_target_diamondsquares.svg	32	yes	57	0	410	0	0			0	0			1				0	
6.6.1	mac	2023-06-19	16:43:41	16:47:26	223128	5ec06f59c4ceb1481f225bbd	3	1	main_slash	7	main_slash	49	stimuli_distractor_trianglediamonds.svg	stimuli_target_diamondsquares.svg	28	yes	53	1	898	0	0			0	0			1				0	
6.6.1	mac	2023-06-19	16:43:41	16:47:26	223128	5ec06f59c4ceb1481f225bbd	3	1	main_slash	7	advance_on_keypress_SLASH	50	stimuli_distractor_trianglediamonds.svg	stimuli_target_diamondsquares.svg	28	yes	57	0	582	0	0			0	0			1				0	
6.6.1	mac	2023-06-19	16:43:41	16:47:28	225182	5ec06f59c4ceb1481f225bbd	3	1	main_slash	7	main_slash	51	stimuli_distractor_trianglediamonds.svg	stimuli_target_squaretriangles.svg	11	yes	53	1	836	0	0			0	0			1				0	
6.6.1	mac	2023-06-19	16:43:41	16:47:28	225182	5ec06f59c4ceb1481f225bbd	3	1	main_slash	7	advance_on_keypress_SLASH	52	stimuli_distractor_trianglediamonds.svg	stimuli_target_squaretriangles.svg	11	yes	57	0	521	0	0			0	0			1				0	
6.6.1	mac	2023-06-19	16:43:41	16:47:30	227103	5ec06f59c4ceb1481f225bbd	3	1	main_slash	7	main_slash	53	stimuli_distractor_trianglediamonds.svg	stimuli_target_trianglesquares.svg	26	yes	53	1	773	0	0			0	0			1				0	
6.6.1	mac	2023-06-19	16:43:41	16:47:30	227103	5ec06f59c4ceb1481f225bbd	3	1	main_slash	7	advance_on_keypress_SLASH	54	stimuli_distractor_trianglediamonds.svg	stimuli_target_trianglesquares.svg	26	yes	57	0	509	0	0			0	0			1				0	
6.6.1	mac	2023-06-19	16:43:41	16:47:33	229891	5ec06f59c4ceb1481f225bbd	3	1	main_slash	7	main_slash	55	stimuli_distractor_diamondtriangles.svg	stimuli_target_rectanglediamonds.svg	14	yes	53	1	1659	0	0			0	0			1				0	
6.6.1	mac	2023-06-19	16:43:41	16:47:33	229891	5ec06f59c4ceb1481f225bbd	3	1	main_slash	7	advance_on_keypress_SLASH	56	stimuli_distractor_diamondtriangles.svg	stimuli_target_rectanglediamonds.svg	14	yes	57	0	511	0	0			0	0			1				0	
6.6.1	mac	2023-06-19	16:43:41	16:47:35	231860	5ec06f59c4ceb1481f225bbd	3	1	main_slash	7	main_slash	57	stimuli_distractor_trianglediamonds.svg	stimuli_target_rectanglediamonds.svg	10	yes	53	1	813	0	0			0	0			1				0	
6.6.1	mac	2023-06-19	16:43:41	16:47:35	231860	5ec06f59c4ceb1481f225bbd	3	1	main_slash	7	advance_on_keypress_SLASH	58	stimuli_distractor_trianglediamonds.svg	stimuli_target_rectanglediamonds.svg	10	yes	57	0	354	0	0			0	0			1				0	
6.6.1	mac	2023-06-19	16:43:41	16:47:37	233893	5ec06f59c4ceb1481f225bbd	3	1	main_slash	7	main_slash	59	stimuli_target_trianglerectangles.svg	stimuli_distractor_trianglediamonds.svg	17	yes	53	1	1047	0	0			0	0			1				0	
6.6.1	mac	2023-06-19	16:43:41	16:47:37	233893	5ec06f59c4ceb1481f225bbd	3	1	main_slash	7	advance_on_keypress_SLASH	60	stimuli_target_trianglerectangles.svg	stimuli_distractor_trianglediamonds.svg	17	yes	57	0	437	0	0			0	0			1				0	
6.6.1	mac	2023-06-19	16:43:41	16:47:39	236114	5ec06f59c4ceb1481f225bbd	3	1	main_slash	7	main_slash	61	stimuli_target_rectangletriangles.svg	stimuli_distractor_trianglediamonds.svg	1	yes	53	1	1151	0	0			0	0			1				0	
6.6.1	mac	2023-06-19	16:43:41	16:47:39	236114	5ec06f59c4ceb1481f225bbd	3	1	main_slash	7	advance_on_keypress_SLASH	62	stimuli_target_rectangletriangles.svg	stimuli_distractor_trianglediamonds.svg	1	yes	57	0	299	0	0			0	0			1				0	
6.6.1	mac	2023-06-19	16:43:41	16:47:41	237894	5ec06f59c4ceb1481f225bbd	3	1	main_slash	7	main_slash	63	stimuli_target_squaretriangles.svg	stimuli_distractor_diamondtriangles.svg	7	yes	53	1	848	0	0			0	0			1				0	
6.6.1	mac	2023-06-19	16:43:41	16:47:41	237894	5ec06f59c4ceb1481f225bbd	3	1	main_slash	7	advance_on_keypress_SLASH	64	stimuli_target_squaretriangles.svg	stimuli_distractor_diamondtriangles.svg	7	yes	57	0	248	0	0			0	0			1				0	
6.6.1	mac	2023-06-19	16:43:41	16:47:44	240778	5ec06f59c4ceb1481f225bbd	3	1	main_slash	7	main_slash	65	stimuli_distractor_trianglediamonds.svg	stimuli_distractor_trianglediamonds.svg	33	no	0	1	2000	0	0			0	0			1				0	
6.6.1	mac	2023-06-19	16:43:41	16:47:44	240778	5ec06f59c4ceb1481f225bbd	3	1	main_slash	7	advance_on_keypress_SLASH	66	stimuli_distractor_trianglediamonds.svg	stimuli_distractor_trianglediamonds.svg	33	no	57	0	452	0	0			0	0			1				0	
6.6.1	mac	2023-06-19	16:43:41	16:47:45	242713	5ec06f59c4ceb1481f225bbd	3	1	main_slash	7	main_slash	67	stimuli_distractor_trianglediamonds.svg	stimuli_target_diamondrectangles.svg	27	yes	53	1	850	0	0			0	0			1				0	
6.6.1	mac	2023-06-19	16:43:41	16:47:45	242713	5ec06f59c4ceb1481f225bbd	3	1	main_slash	7	advance_on_keypress_SLASH	68	stimuli_distractor_trianglediamonds.svg	stimuli_target_diamondrectangles.svg	27	yes	57	0	235	0	0			0	0			1				0	
6.6.1	mac	2023-06-19	16:43:41	16:47:48	245579	5ec06f59c4ceb1481f225bbd	3	1	main_slash	7	main_slash	69	stimuli_distractor_diamondtriangles.svg	stimuli_distractor_diamondtriangles.svg	39	no	0	1	2000	0	0			0	0			1				0	
6.6.1	mac	2023-06-19	16:43:41	16:47:48	245579	5ec06f59c4ceb1481f225bbd	3	1	main_slash	7	advance_on_keypress_SLASH	70	stimuli_distractor_diamondtriangles.svg	stimuli_distractor_diamondtriangles.svg	39	no	57	0	227	0	0			0	0			1				0	
6.6.1	mac	2023-06-19	16:43:41	16:47:50	247263	5ec06f59c4ceb1481f225bbd	3	1	main_slash	7	main_slash	71	stimuli_distractor_diamondtriangles.svg	stimuli_target_diamondrectangles.svg	31	yes	53	1	817	0	0			0	0			1				0	
6.6.1	mac	2023-06-19	16:43:41	16:47:50	247263	5ec06f59c4ceb1481f225bbd	3	1	main_slash	7	advance_on_keypress_SLASH	72	stimuli_distractor_diamondtriangles.svg	stimuli_target_diamondrectangles.svg	31	yes	57	0	239	0	0			0	0			1				0	
6.6.1	mac	2023-06-19	16:43:41	16:47:53	250129	5ec06f59c4ceb1481f225bbd	3	1	main_slash	7	main_slash	73	stimuli_distractor_trianglediamonds.svg	stimuli_distractor_trianglediamonds.svg	34	no	0	1	2000	0	0			0	0			1				0	
6.6.1	mac	2023-06-19	16:43:41	16:47:53	250129	5ec06f59c4ceb1481f225bbd	3	1	main_slash	7	advance_on_keypress_SLASH	74	stimuli_distractor_trianglediamonds.svg	stimuli_distractor_trianglediamonds.svg	34	no	57	0	337	0	0			0	0			1				0	
6.6.1	mac	2023-06-19	16:43:41	16:47:55	251813	5ec06f59c4ceb1481f225bbd	3	1	main_slash	7	main_slash	75	stimuli_distractor_trianglediamonds.svg	stimuli_target_trianglerectangles.svg	25	yes	53	1	718	0	0			0	0			1				0	
6.6.1	mac	2023-06-19	16:43:41	16:47:55	251813	5ec06f59c4ceb1481f225bbd	3	1	main_slash	7	advance_on_keypress_SLASH	76	stimuli_distractor_trianglediamonds.svg	stimuli_target_trianglerectangles.svg	25	yes	57	0	263	0	0			0	0			1				0	
6.6.1	mac	2023-06-19	16:43:41	16:47:56	253593	5ec06f59c4ceb1481f225bbd	3	1	main_slash	7	main_slash	77	stimuli_target_squarediamonds.svg	stimuli_distractor_diamondtriangles.svg	8	yes	53	1	880	0	0			0	0			1				0	
6.6.1	mac	2023-06-19	16:43:41	16:47:56	253593	5ec06f59c4ceb1481f225bbd	3	1	main_slash	7	advance_on_keypress_SLASH	78	stimuli_target_squarediamonds.svg	stimuli_distractor_diamondtriangles.svg	8	yes	57	0	361	0	0			0	0			1				0	
6.6.1	mac	2023-06-19	16:43:41	16:47:58	255279	5ec06f59c4ceb1481f225bbd	3	1	main_slash	7	main_slash	79	stimuli_distractor_trianglediamonds.svg	stimuli_target_squarediamonds.svg	12	yes	53	1	700	0	0			0	0			1				0	
6.6.1	mac	2023-06-19	16:43:41	16:47:58	255279	5ec06f59c4ceb1481f225bbd	3	1	main_slash	7	advance_on_keypress_SLASH	80	stimuli_distractor_trianglediamonds.svg	stimuli_target_squarediamonds.svg	12	yes	57	0	317	0	0			0	0			1				0	
6.6.1	mac	2023-06-19	16:43:41	16:48:01	258229	5ec06f59c4ceb1481f225bbd	3	1	main_slash	7	main_slash	81	stimuli_distractor_trianglediamonds.svg	stimuli_distractor_diamondtriangles.svg	36	no	0	1	2000	0	0			0	0			1				0	
6.6.1	mac	2023-06-19	16:43:41	16:48:01	258229	5ec06f59c4ceb1481f225bbd	3	1	main_slash	7	advance_on_keypress_SLASH	82	stimuli_distractor_trianglediamonds.svg	stimuli_distractor_diamondtriangles.svg	36	no	57	0	100	0	0			0	0			1				0	
6.6.1	mac	2023-06-19	16:43:41	16:48:02	259637	5ec06f59c4ceb1481f225bbd	3	1	main_slash	7	main_slash	83	stimuli_distractor_trianglediamonds.svg	stimuli_target_diamondrectangles.svg	27	yes	53	1	673	0	0			0	0			1				0	
6.6.1	mac	2023-06-19	16:43:41	16:48:02	259637	5ec06f59c4ceb1481f225bbd	3	1	main_slash	7	advance_on_keypress_SLASH	84	stimuli_distractor_trianglediamonds.svg	stimuli_target_diamondrectangles.svg	27	yes	57	0	245	0	0			0	0			1				0	
6.6.1	mac	2023-06-19	16:43:41	16:48:05	262512	5ec06f59c4ceb1481f225bbd	3	1	main_slash	7	main_slash	85	stimuli_distractor_trianglediamonds.svg	stimuli_distractor_trianglediamonds.svg	33	no	0	1	2000	0	0			0	0			1				0	
6.6.1	mac	2023-06-19	16:43:41	16:48:05	262512	5ec06f59c4ceb1481f225bbd	3	1	main_slash	7	advance_on_keypress_SLASH	86	stimuli_distractor_trianglediamonds.svg	stimuli_distractor_trianglediamonds.svg	33	no	57	0	273	0	0			0	0			1				0	
6.6.1	mac	2023-06-19	16:43:41	16:48:07	264250	5ec06f59c4ceb1481f225bbd	3	1	main_slash	7	main_slash	87	stimuli_target_rectanglediamonds.svg	stimuli_distractor_diamondtriangles.svg	6	yes	53	1	837	0	0			0	0			1				0	
6.6.1	mac	2023-06-19	16:43:41	16:48:07	264250	5ec06f59c4ceb1481f225bbd	3	1	main_slash	7	advance_on_keypress_SLASH	88	stimuli_target_rectanglediamonds.svg	stimuli_distractor_diamondtriangles.svg	6	yes	57	0	209	0	0			0	0			1				0	
6.6.1	mac	2023-06-19	16:43:41	16:48:09	265867	5ec06f59c4ceb1481f225bbd	3	1	main_slash	7	main_slash	89	stimuli_distractor_trianglediamonds.svg	stimuli_target_rectanglediamonds.svg	10	yes	53	1	787	0	0			0	0			1				0	
6.6.1	mac	2023-06-19	16:43:41	16:48:09	265867	5ec06f59c4ceb1481f225bbd	3	1	main_slash	7	advance_on_keypress_SLASH	90	stimuli_distractor_trianglediamonds.svg	stimuli_target_rectanglediamonds.svg	10	yes	57	0	245	0	0			0	0			1				0	
6.6.1	mac	2023-06-19	16:43:41	16:48:10	267469	5ec06f59c4ceb1481f225bbd	3	1	main_slash	7	main_slash	91	stimuli_distractor_trianglediamonds.svg	stimuli_target_squarediamonds.svg	12	yes	53	1	722	0	0			0	0			1				0	
6.6.1	mac	2023-06-19	16:43:41	16:48:10	267469	5ec06f59c4ceb1481f225bbd	3	1	main_slash	7	advance_on_keypress_SLASH	92	stimuli_distractor_trianglediamonds.svg	stimuli_target_squarediamonds.svg	12	yes	57	0	260	0	0			0	0			1				0	
6.6.1	mac	2023-06-19	16:43:41	16:48:12	269146	5ec06f59c4ceb1481f225bbd	3	1	main_slash	7	main_slash	93	stimuli_distractor_trianglediamonds.svg	stimuli_target_squaretriangles.svg	11	yes	53	1	783	0	0			0	0			1				0	
6.6.1	mac	2023-06-19	16:43:41	16:48:12	269146	5ec06f59c4ceb1481f225bbd	3	1	main_slash	7	advance_on_keypress_SLASH	94	stimuli_distractor_trianglediamonds.svg	stimuli_target_squaretriangles.svg	11	yes	57	0	279	0	0			0	0			1				0	
6.6.1	mac	2023-06-19	16:43:41	16:48:14	270946	5ec06f59c4ceb1481f225bbd	3	1	main_slash	7	main_slash	95	stimuli_distractor_trianglediamonds.svg	stimuli_target_trianglesquares.svg	26	yes	53	1	883	0	0			0	0			1				0	
6.6.1	mac	2023-06-19	16:43:41	16:48:14	270946	5ec06f59c4ceb1481f225bbd	3	1	main_slash	7	advance_on_keypress_SLASH	96	stimuli_distractor_trianglediamonds.svg	stimuli_target_trianglesquares.svg	26	yes	57	0	389	0	0			0	0			1				0	
6.6.1	mac	2023-06-19	16:43:41	16:48:16	272768	5ec06f59c4ceb1481f225bbd	3	1	main_slash	7	main_slash	97	stimuli_target_trianglesquares.svg	stimuli_distractor_diamondtriangles.svg	22	yes	53	1	805	0	0			0	0			1				0	
6.6.1	mac	2023-06-19	16:43:41	16:48:16	272768	5ec06f59c4ceb1481f225bbd	3	1	main_slash	7	advance_on_keypress_SLASH	98	stimuli_target_trianglesquares.svg	stimuli_distractor_diamondtriangles.svg	22	yes	57	0	347	0	0			0	0			1				0	
6.6.1	mac	2023-06-19	16:43:41	16:48:17	274565	5ec06f59c4ceb1481f225bbd	3	1	main_slash	7	main_slash	99	stimuli_target_rectanglediamonds.svg	stimuli_distractor_trianglediamonds.svg	2	yes	53	1	819	0	0			0	0			1				0	
6.6.1	mac	2023-06-19	16:43:41	16:48:17	274565	5ec06f59c4ceb1481f225bbd	3	1	main_slash	7	advance_on_keypress_SLASH	100	stimuli_target_rectanglediamonds.svg	stimuli_distractor_trianglediamonds.svg	2	yes	57	0	320	0	0			0	0			1				0	
6.6.1	mac	2023-06-19	16:43:41	16:48:19	276362	5ec06f59c4ceb1481f225bbd	3	1	main_slash	7	main_slash	101	stimuli_target_rectangletriangles.svg	stimuli_distractor_diamondtriangles.svg	5	yes	53	1	849	0	0			0	0			1				0	
6.6.1	mac	2023-06-19	16:43:41	16:48:19	276362	5ec06f59c4ceb1481f225bbd	3	1	main_slash	7	advance_on_keypress_SLASH	102	stimuli_target_rectangletriangles.svg	stimuli_distractor_diamondtriangles.svg	5	yes	57	0	345	0	0			0	0			1				0	
6.6.1	mac	2023-06-19	16:43:41	16:48:21	278187	5ec06f59c4ceb1481f225bbd	3	1	main_slash	7	main_slash	103	stimuli_target_diamondsquares.svg	stimuli_distractor_trianglediamonds.svg	20	yes	53	1	841	0	0			0	0			1				0	
6.6.1	mac	2023-06-19	16:43:41	16:48:21	278187	5ec06f59c4ceb1481f225bbd	3	1	main_slash	7	advance_on_keypress_SLASH	104	stimuli_target_diamondsquares.svg	stimuli_distractor_trianglediamonds.svg	20	yes	57	0	289	0	0			0	0			1				0	
6.6.1	mac	2023-06-19	16:43:41	16:48:23	279893	5ec06f59c4ceb1481f225bbd	3	1	main_slash	7	main_slash	105	stimuli_target_squaretriangles.svg	stimuli_distractor_diamondtriangles.svg	7	yes	53	1	798	0	0			0	0			1				0	
6.6.1	mac	2023-06-19	16:43:41	16:48:23	279893	5ec06f59c4ceb1481f225bbd	3	1	main_slash	7	advance_on_keypress_SLASH	106	stimuli_target_squaretriangles.svg	stimuli_distractor_diamondtriangles.svg	7	yes	57	0	272	0	0			0	0			1				0	
6.6.1	mac	2023-06-19	16:43:41	16:48:24	281647	5ec06f59c4ceb1481f225bbd	3	1	main_slash	7	main_slash	107	stimuli_distractor_diamondtriangles.svg	stimuli_target_rectangletriangles.svg	13	yes	53	1	851	0	0			0	0			1				0	
6.6.1	mac	2023-06-19	16:43:41	16:48:24	281647	5ec06f59c4ceb1481f225bbd	3	1	main_slash	7	advance_on_keypress_SLASH	108	stimuli_distractor_diamondtriangles.svg	stimuli_target_rectangletriangles.svg	13	yes	57	0	203	0	0			0	0			1				0	
6.6.1	mac	2023-06-19	16:43:41	16:48:27	284479	5ec06f59c4ceb1481f225bbd	3	1	main_slash	7	main_slash	109	stimuli_distractor_trianglediamonds.svg	stimuli_distractor_trianglediamonds.svg	34	no	0	1	2000	0	0			0	0			1				0	
6.6.1	mac	2023-06-19	16:43:41	16:48:27	284479	5ec06f59c4ceb1481f225bbd	3	1	main_slash	7	advance_on_keypress_SLASH	110	stimuli_distractor_trianglediamonds.svg	stimuli_distractor_trianglediamonds.svg	34	no	57	0	177	0	0			0	0			1				0	
6.6.1	mac	2023-06-19	16:43:41	16:48:29	286204	5ec06f59c4ceb1481f225bbd	3	1	main_slash	7	main_slash	111	stimuli_target_trianglerectangles.svg	stimuli_distractor_diamondtriangles.svg	21	yes	53	1	908	0	0			0	0			1				0	
6.6.1	mac	2023-06-19	16:43:41	16:48:29	286204	5ec06f59c4ceb1481f225bbd	3	1	main_slash	7	advance_on_keypress_SLASH	112	stimuli_target_trianglerectangles.svg	stimuli_distractor_diamondtriangles.svg	21	yes	57	0	224	0	0			0	0			1				0	
6.6.1	mac	2023-06-19	16:43:41	16:48:31	287795	5ec06f59c4ceb1481f225bbd	3	1	main_slash	7	main_slash	113	stimuli_distractor_diamondtriangles.svg	stimuli_target_trianglesquares.svg	30	yes	53	1	749	0	0			0	0			1				0	
6.6.1	mac	2023-06-19	16:43:41	16:48:31	287795	5ec06f59c4ceb1481f225bbd	3	1	main_slash	7	advance_on_keypress_SLASH	114	stimuli_distractor_diamondtriangles.svg	stimuli_target_trianglesquares.svg	30	yes	57	0	274	0	0			0	0			1				0	
6.6.1	mac	2023-06-19	16:43:41	16:48:32	289581	5ec06f59c4ceb1481f225bbd	3	1	main_slash	7	main_slash	115	stimuli_target_trianglesquares.svg	stimuli_distractor_trianglediamonds.svg	18	yes	53	1	885	0	0			0	0			1				0	
6.6.1	mac	2023-06-19	16:43:41	16:48:32	289581	5ec06f59c4ceb1481f225bbd	3	1	main_slash	7	advance_on_keypress_SLASH	116	stimuli_target_trianglesquares.svg	stimuli_distractor_trianglediamonds.svg	18	yes	57	0	256	0	0			0	0			1				0	
6.6.1	mac	2023-06-19	16:43:41	16:48:34	291474	5ec06f59c4ceb1481f225bbd	3	1	main_slash	7	main_slash	117	stimuli_distractor_diamondtriangles.svg	stimuli_target_squaretriangles.svg	15	yes	53	1	1011	0	0			0	0			1				0	
6.6.1	mac	2023-06-19	16:43:41	16:48:34	291474	5ec06f59c4ceb1481f225bbd	3	1	main_slash	7	advance_on_keypress_SLASH	118	stimuli_distractor_diamondtriangles.svg	stimuli_target_squaretriangles.svg	15	yes	57	0	404	0	0			0	0			1				0	
6.6.1	mac	2023-06-19	16:43:41	16:48:36	293239	5ec06f59c4ceb1481f225bbd	3	1	main_slash	7	main_slash	119	stimuli_target_trianglerectangles.svg	stimuli_distractor_trianglediamonds.svg	17	yes	53	1	726	0	0			0	0			1				0	
6.6.1	mac	2023-06-19	16:43:41	16:48:36	293239	5ec06f59c4ceb1481f225bbd	3	1	main_slash	7	advance_on_keypress_SLASH	120	stimuli_target_trianglerectangles.svg	stimuli_distractor_trianglediamonds.svg	17	yes	57	0	292	0	0			0	0			1				0	
6.6.1	mac	2023-06-19	16:43:41	16:48:38	294947	5ec06f59c4ceb1481f225bbd	3	1	main_slash	7	main_slash	121	stimuli_target_squarediamonds.svg	stimuli_distractor_diamondtriangles.svg	8	yes	53	1	801	0	0			0	0			1				0	
6.6.1	mac	2023-06-19	16:43:41	16:48:38	294947	5ec06f59c4ceb1481f225bbd	3	1	main_slash	7	advance_on_keypress_SLASH	122	stimuli_target_squarediamonds.svg	stimuli_distractor_diamondtriangles.svg	8	yes	57	0	269	0	0			0	0			1				0	
6.6.1	mac	2023-06-19	16:43:41	16:48:39	296738	5ec06f59c4ceb1481f225bbd	3	1	main_slash	7	main_slash	123	stimuli_target_diamondsquares.svg	stimuli_distractor_diamondtriangles.svg	24	yes	53	1	891	0	0			0	0			1				0	
6.6.1	mac	2023-06-19	16:43:41	16:48:39	296738	5ec06f59c4ceb1481f225bbd	3	1	main_slash	7	advance_on_keypress_SLASH	124	stimuli_target_diamondsquares.svg	stimuli_distractor_diamondtriangles.svg	24	yes	57	0	149	0	0			0	0			1				0	
6.6.1	mac	2023-06-19	16:43:41	16:48:41	298284	5ec06f59c4ceb1481f225bbd	3	1	main_slash	7	main_slash	125	stimuli_target_diamondrectangles.svg	stimuli_distractor_trianglediamonds.svg	19	yes	53	1	771	0	0			0	0			1				0	
6.6.1	mac	2023-06-19	16:43:41	16:48:41	298284	5ec06f59c4ceb1481f225bbd	3	1	main_slash	7	advance_on_keypress_SLASH	126	stimuli_target_diamondrectangles.svg	stimuli_distractor_trianglediamonds.svg	19	yes	57	0	244	0	0			0	0			1				0	
6.6.1	mac	2023-06-19	16:43:41	16:48:44	301162	5ec06f59c4ceb1481f225bbd	3	1	main_slash	7	main_slash	127	stimuli_distractor_diamondtriangles.svg	stimuli_distractor_trianglediamonds.svg	37	no	0	1	2000	0	0			0	0			1				0	
6.6.1	mac	2023-06-19	16:43:41	16:48:44	301162	5ec06f59c4ceb1481f225bbd	3	1	main_slash	7	advance_on_keypress_SLASH	128	stimuli_distractor_diamondtriangles.svg	stimuli_distractor_trianglediamonds.svg	37	no	57	0	210	0	0			0	0			1				0	
6.6.1	mac	2023-06-19	16:43:41	16:48:45	302715	5ec06f59c4ceb1481f225bbd	3	1	main_slash	7	main_slash	129	stimuli_distractor_diamondtriangles.svg	stimuli_target_diamondsquares.svg	32	yes	53	1	702	0	0			0	0			1				0	
6.6.1	mac	2023-06-19	16:43:41	16:48:45	302715	5ec06f59c4ceb1481f225bbd	3	1	main_slash	7	advance_on_keypress_SLASH	130	stimuli_distractor_diamondtriangles.svg	stimuli_target_diamondsquares.svg	32	yes	57	0	244	0	0			0	0			1				0	
6.6.1	mac	2023-06-19	16:43:41	16:48:48	305596	5ec06f59c4ceb1481f225bbd	3	1	main_slash	7	main_slash	131	stimuli_distractor_diamondtriangles.svg	stimuli_distractor_diamondtriangles.svg	40	no	0	1	2000	0	0			0	0			1				0	
6.6.1	mac	2023-06-19	16:43:41	16:48:48	305596	5ec06f59c4ceb1481f225bbd	3	1	main_slash	7	advance_on_keypress_SLASH	132	stimuli_distractor_diamondtriangles.svg	stimuli_distractor_diamondtriangles.svg	40	no	57	0	460	0	0			0	0			1				0	
6.6.1	mac	2023-06-19	16:43:41	16:48:50	307564	5ec06f59c4ceb1481f225bbd	3	1	main_slash	7	main_slash	133	stimuli_target_squarediamonds.svg	stimuli_distractor_trianglediamonds.svg	4	yes	53	1	868	0	0			0	0			1				0	
6.6.1	mac	2023-06-19	16:43:41	16:48:50	307564	5ec06f59c4ceb1481f225bbd	3	1	main_slash	7	advance_on_keypress_SLASH	134	stimuli_target_squarediamonds.svg	stimuli_distractor_trianglediamonds.svg	4	yes	57	0	188	0	0			0	0			1				0	
6.6.1	mac	2023-06-19	16:43:41	16:48:52	309045	5ec06f59c4ceb1481f225bbd	3	1	main_slash	7	main_slash	135	stimuli_distractor_trianglediamonds.svg	stimuli_target_diamondsquares.svg	28	yes	53	1	665	0	0			0	0			1				0	
6.6.1	mac	2023-06-19	16:43:41	16:48:52	309045	5ec06f59c4ceb1481f225bbd	3	1	main_slash	7	advance_on_keypress_SLASH	136	stimuli_distractor_trianglediamonds.svg	stimuli_target_diamondsquares.svg	28	yes	57	0	169	0	0			0	0			1				0	
6.6.1	mac	2023-06-19	16:43:41	16:48:53	310660	5ec06f59c4ceb1481f225bbd	3	1	main_slash	7	main_slash	137	stimuli_distractor_diamondtriangles.svg	stimuli_target_trianglerectangles.svg	29	yes	53	1	814	0	0			0	0			1				0	
6.6.1	mac	2023-06-19	16:43:41	16:48:53	310660	5ec06f59c4ceb1481f225bbd	3	1	main_slash	7	advance_on_keypress_SLASH	138	stimuli_distractor_diamondtriangles.svg	stimuli_target_trianglerectangles.svg	29	yes	57	0	90	0	0			0	0			1				0	
6.6.1	mac	2023-06-19	16:43:41	16:48:55	311964	5ec06f59c4ceb1481f225bbd	3	1	main_slash	7	main_slash	139	stimuli_distractor_trianglediamonds.svg	stimuli_target_trianglerectangles.svg	25	yes	53	1	584	0	0			0	0			1				0	
6.6.1	mac	2023-06-19	16:43:41	16:48:55	311964	5ec06f59c4ceb1481f225bbd	3	1	main_slash	7	advance_on_keypress_SLASH	140	stimuli_distractor_trianglediamonds.svg	stimuli_target_trianglerectangles.svg	25	yes	57	0	95	0	0			0	0			1				0	
6.6.1	mac	2023-06-19	16:43:41	16:48:57	314695	5ec06f59c4ceb1481f225bbd	3	1	main_slash	7	main_slash	141	stimuli_distractor_diamondtriangles.svg	stimuli_distractor_diamondtriangles.svg	39	no	0	1	2000	0	0			0	0			1				0	
6.6.1	mac	2023-06-19	16:43:41	16:48:57	314695	5ec06f59c4ceb1481f225bbd	3	1	main_slash	7	advance_on_keypress_SLASH	142	stimuli_distractor_diamondtriangles.svg	stimuli_distractor_diamondtriangles.svg	39	no	57	0	14	0	0			0	0			1				0	
6.6.1	mac	2023-06-19	16:43:41	16:48:59	315975	5ec06f59c4ceb1481f225bbd	3	1	main_slash	7	main_slash	143	stimuli_target_diamondrectangles.svg	stimuli_distractor_diamondtriangles.svg	23	yes	53	1	628	0	0			0	0			1				0	
6.6.1	mac	2023-06-19	16:43:41	16:48:59	315975	5ec06f59c4ceb1481f225bbd	3	1	main_slash	7	advance_on_keypress_SLASH	144	stimuli_target_diamondrectangles.svg	stimuli_distractor_diamondtriangles.svg	23	yes	57	0	94	0	0			0	0			1				0	
6.6.1	mac	2023-06-19	16:43:41	16:49:00	317265	5ec06f59c4ceb1481f225bbd	3	1	main_slash	7	main_slash	145	stimuli_distractor_trianglediamonds.svg	stimuli_target_rectangletriangles.svg	9	yes	53	1	569	0	0			0	0			1				0	
6.6.1	mac	2023-06-19	16:43:41	16:49:00	317265	5ec06f59c4ceb1481f225bbd	3	1	main_slash	7	advance_on_keypress_SLASH	146	stimuli_distractor_trianglediamonds.svg	stimuli_target_rectangletriangles.svg	9	yes	57	0	61	0	0			0	0			1				0	
6.6.1	mac	2023-06-19	16:43:41	16:49:01	318400	5ec06f59c4ceb1481f225bbd	3	1	main_slash	7	main_slash	147	stimuli_distractor_diamondtriangles.svg	stimuli_target_squarediamonds.svg	16	yes	53	1	455	0	0			0	0			1				0	
6.6.1	mac	2023-06-19	16:43:41	16:49:01	318400	5ec06f59c4ceb1481f225bbd	3	1	main_slash	7	advance_on_keypress_SLASH	148	stimuli_distractor_diamondtriangles.svg	stimuli_target_squarediamonds.svg	16	yes	57	0	43	0	0			0	0			1				0	
6.6.1	mac	2023-06-19	16:43:41	16:49:02	319568	5ec06f59c4ceb1481f225bbd	3	1	main_slash	7	main_slash	149	stimuli_distractor_diamondtriangles.svg	stimuli_target_rectanglediamonds.svg	14	yes	53	1	505	0	0			0	0			1				0	
6.6.1	mac	2023-06-19	16:43:41	16:49:02	319568	5ec06f59c4ceb1481f225bbd	3	1	main_slash	7	advance_on_keypress_SLASH	150	stimuli_distractor_diamondtriangles.svg	stimuli_target_rectanglediamonds.svg	14	yes	57	0	30	0	0			0	0			1				0	
6.6.1	mac	2023-06-19	16:43:41	16:49:04	320797	5ec06f59c4ceb1481f225bbd	3	1	main_slash	7	main_slash	151	stimuli_distractor_diamondtriangles.svg	stimuli_target_diamondrectangles.svg	31	yes	53	1	567	0	0			0	0			1				0	
6.6.1	mac	2023-06-19	16:43:41	16:49:04	320797	5ec06f59c4ceb1481f225bbd	3	1	main_slash	7	advance_on_keypress_SLASH	152	stimuli_distractor_diamondtriangles.svg	stimuli_target_diamondrectangles.svg	31	yes	57	0	30	0	0			0	0			1				0	
6.6.1	mac	2023-06-19	16:43:41	16:49:05	322099	5ec06f59c4ceb1481f225bbd	3	1	main_slash	7	main_slash	153	stimuli_target_rectangletriangles.svg	stimuli_distractor_trianglediamonds.svg	1	yes	53	1	637	0	0			0	0			1				0	
6.6.1	mac	2023-06-19	16:43:41	16:49:05	322099	5ec06f59c4ceb1481f225bbd	3	1	main_slash	7	advance_on_keypress_SLASH	154	stimuli_target_rectangletriangles.svg	stimuli_distractor_trianglediamonds.svg	1	yes	57	0	11	0	0			0	0			1				0	
6.6.1	mac	2023-06-19	16:43:41	16:49:07	324745	5ec06f59c4ceb1481f225bbd	3	1	main_slash	7	main_slash	155	stimuli_distractor_trianglediamonds.svg	stimuli_distractor_diamondtriangles.svg	35	no	0	1	2000	0	0			0	0			1				0	
6.6.1	mac	2023-06-19	16:43:41	16:49:07	324745	5ec06f59c4ceb1481f225bbd	3	1	main_slash	7	advance_on_keypress_SLASH	156	stimuli_distractor_trianglediamonds.svg	stimuli_distractor_diamondtriangles.svg	35	no	57	0	712	0	0			0	0			1				0	
6.6.1	mac	2023-06-19	16:43:41	16:49:11	328095	5ec06f59c4ceb1481f225bbd	3	1	main_slash	7	main_slash	157	stimuli_distractor_diamondtriangles.svg	stimuli_distractor_trianglediamonds.svg	38	no	0	1	2000	0	0			0	0			1				0	
6.6.1	mac	2023-06-19	16:43:41	16:49:11	328095	5ec06f59c4ceb1481f225bbd	3	1	main_slash	7	advance_on_keypress_SLASH	158	stimuli_distractor_diamondtriangles.svg	stimuli_distractor_trianglediamonds.svg	38	no	57	0	551	0	0			0	0			1				0	
6.6.1	mac	2023-06-19	16:43:41	16:49:13	329832	5ec06f59c4ceb1481f225bbd	3	1	main_slash	7	main_slash	159	stimuli_target_squaretriangles.svg	stimuli_distractor_trianglediamonds.svg	3	yes	53	1	552	0	0			0	0			1				0	
6.6.1	mac	2023-06-19	16:43:41	16:49:13	329832	5ec06f59c4ceb1481f225bbd	3	1	main_slash	7	advance_on_keypress_SLASH	160	stimuli_target_squaretriangles.svg	stimuli_distractor_trianglediamonds.svg	3	yes	57	0	67	0	0			0	0			1				0	
6.6.1	mac	2023-06-19	16:43:41	16:49:24	341644	5ec06f59c4ceb1481f225bbd	3	1	practice_z	9	practice_z	1	stimuli_distractor_diamondtriangles.svg	stimuli_target_diamondrectangles.svg	8	yes	44	1	1494	0	0			0	0			1				0	
6.6.1	mac	2023-06-19	16:43:41	16:49:24	341644	5ec06f59c4ceb1481f225bbd	3	1	practice_z	9	advance_on_keypress_ZEE	2	stimuli_distractor_diamondtriangles.svg	stimuli_target_diamondrectangles.svg	8	yes	57	0	609	0	0			0	0			1				0	
6.6.1	mac	2023-06-19	16:43:41	16:49:27	344423	5ec06f59c4ceb1481f225bbd	3	1	practice_z	9	practice_z	3	stimuli_distractor_diamondtriangles.svg	stimuli_target_trianglerectangles.svg	9	yes	44	1	526	0	0			0	0			1				0	
6.6.1	mac	2023-06-19	16:43:41	16:49:27	344423	5ec06f59c4ceb1481f225bbd	3	1	practice_z	9	advance_on_keypress_ZEE	4	stimuli_distractor_diamondtriangles.svg	stimuli_target_trianglerectangles.svg	9	yes	57	0	469	0	0			0	0			1				0	
6.6.1	mac	2023-06-19	16:43:41	16:49:30	347046	5ec06f59c4ceb1481f225bbd	3	1	practice_z	9	practice_z	5	stimuli_target_diamondsquares.svg	stimuli_distractor_diamondtriangles.svg	3	yes	44	1	534	0	0			0	0			1				0	
6.6.1	mac	2023-06-19	16:43:41	16:49:30	347046	5ec06f59c4ceb1481f225bbd	3	1	practice_z	9	advance_on_keypress_ZEE	6	stimuli_target_diamondsquares.svg	stimuli_distractor_diamondtriangles.svg	3	yes	57	0	250	0	0			0	0			1				0	
6.6.1	mac	2023-06-19	16:43:41	16:49:32	349461	5ec06f59c4ceb1481f225bbd	3	1	practice_z	9	practice_z	7	stimuli_target_rectanglediamonds.svg	stimuli_distractor_trianglediamonds.svg	4	yes	44	1	526	0	0			0	0			1				0	
6.6.1	mac	2023-06-19	16:43:41	16:49:32	349461	5ec06f59c4ceb1481f225bbd	3	1	practice_z	9	advance_on_keypress_ZEE	8	stimuli_target_rectanglediamonds.svg	stimuli_distractor_trianglediamonds.svg	4	yes	57	0	224	0	0			0	0			1				0	
6.6.1	mac	2023-06-19	16:43:41	16:49:36	353314	5ec06f59c4ceb1481f225bbd	3	1	practice_z	9	practice_z	9	stimuli_distractor_trianglediamonds.svg	stimuli_distractor_diamondtriangles.svg	16	no	0	1	2000	0	0			0	0			1				0	
6.6.1	mac	2023-06-19	16:43:41	16:49:36	353314	5ec06f59c4ceb1481f225bbd	3	1	practice_z	9	advance_on_keypress_ZEE	10	stimuli_distractor_trianglediamonds.svg	stimuli_distractor_diamondtriangles.svg	16	no	57	0	368	0	0			0	0			1				0	
6.6.1	mac	2023-06-19	16:43:41	16:49:40	357314	5ec06f59c4ceb1481f225bbd	3	1	practice_z	9	practice_z	11	stimuli_distractor_diamondtriangles.svg	stimuli_distractor_trianglediamonds.svg	14	no	0	1	2000	0	0			0	0			1				0	
6.6.1	mac	2023-06-19	16:43:41	16:49:40	357314	5ec06f59c4ceb1481f225bbd	3	1	practice_z	9	advance_on_keypress_ZEE	12	stimuli_distractor_diamondtriangles.svg	stimuli_distractor_trianglediamonds.svg	14	no	57	0	237	0	0			0	0			1				0	
6.6.1	mac	2023-06-19	16:43:41	16:49:43	359753	5ec06f59c4ceb1481f225bbd	3	1	practice_z	9	practice_z	13	stimuli_distractor_trianglediamonds.svg	stimuli_target_rectanglediamonds.svg	10	yes	44	1	573	0	0			0	0			1				0	
6.6.1	mac	2023-06-19	16:43:41	16:49:43	359753	5ec06f59c4ceb1481f225bbd	3	1	practice_z	9	advance_on_keypress_ZEE	14	stimuli_distractor_trianglediamonds.svg	stimuli_target_rectanglediamonds.svg	10	yes	57	0	480	0	0			0	0			1				0	
6.6.1	mac	2023-06-19	16:43:41	16:49:47	363863	5ec06f59c4ceb1481f225bbd	3	1	practice_z	9	practice_z	15	stimuli_distractor_trianglediamonds.svg	stimuli_distractor_trianglediamonds.svg	15	no	0	1	2000	0	0			0	0			1				0	
6.6.1	mac	2023-06-19	16:43:41	16:49:47	363863	5ec06f59c4ceb1481f225bbd	3	1	practice_z	9	advance_on_keypress_ZEE	16	stimuli_distractor_trianglediamonds.svg	stimuli_distractor_trianglediamonds.svg	15	no	57	0	103	0	0			0	0			1				0	
6.6.1	mac	2023-06-19	16:43:41	16:49:49	366100	5ec06f59c4ceb1481f225bbd	3	1	practice_z	9	practice_z	17	stimuli_distractor_trianglediamonds.svg	stimuli_target_squarediamonds.svg	11	yes	44	1	504	0	0			0	0			1				0	
6.6.1	mac	2023-06-19	16:43:41	16:49:49	366100	5ec06f59c4ceb1481f225bbd	3	1	practice_z	9	advance_on_keypress_ZEE	18	stimuli_distractor_trianglediamonds.svg	stimuli_target_squarediamonds.svg	11	yes	57	0	375	0	0			0	0			1				0	
6.6.1	mac	2023-06-19	16:43:41	16:49:51	368630	5ec06f59c4ceb1481f225bbd	3	1	practice_z	9	practice_z	19	stimuli_distractor_diamondtriangles.svg	stimuli_target_rectangletriangles.svg	7	yes	44	1	534	0	0			0	0			1				0	
6.6.1	mac	2023-06-19	16:43:41	16:49:51	368630	5ec06f59c4ceb1481f225bbd	3	1	practice_z	9	advance_on_keypress_ZEE	20	stimuli_distractor_diamondtriangles.svg	stimuli_target_rectangletriangles.svg	7	yes	57	0	389	0	0			0	0			1				0	
6.6.1	mac	2023-06-19	16:43:41	16:49:54	371076	5ec06f59c4ceb1481f225bbd	3	1	practice_z	9	practice_z	21	stimuli_target_rectanglediamonds.svg	stimuli_distractor_diamondtriangles.svg	1	yes	44	1	429	0	0			0	0			1				0	
6.6.1	mac	2023-06-19	16:43:41	16:49:54	371076	5ec06f59c4ceb1481f225bbd	3	1	practice_z	9	advance_on_keypress_ZEE	22	stimuli_target_rectanglediamonds.svg	stimuli_distractor_diamondtriangles.svg	1	yes	57	0	332	0	0			0	0			1				0	
6.6.1	mac	2023-06-19	16:43:41	16:49:56	373457	5ec06f59c4ceb1481f225bbd	3	1	practice_z	9	practice_z	23	stimuli_target_squarediamonds.svg	stimuli_distractor_trianglediamonds.svg	5	yes	44	1	410	0	0			0	0			1				0	
6.6.1	mac	2023-06-19	16:43:41	16:49:56	373457	5ec06f59c4ceb1481f225bbd	3	1	practice_z	9	advance_on_keypress_ZEE	24	stimuli_target_squarediamonds.svg	stimuli_distractor_trianglediamonds.svg	5	yes	57	0	251	0	0			0	0			1				0	
6.6.1	mac	2023-06-19	16:43:41	16:49:59	375774	5ec06f59c4ceb1481f225bbd	3	1	practice_z	9	practice_z	25	stimuli_distractor_trianglediamonds.svg	stimuli_target_diamondrectangles.svg	12	yes	44	1	425	0	0			0	0			1				0	
6.6.1	mac	2023-06-19	16:43:41	16:49:59	375774	5ec06f59c4ceb1481f225bbd	3	1	practice_z	9	advance_on_keypress_ZEE	26	stimuli_distractor_trianglediamonds.svg	stimuli_target_diamondrectangles.svg	12	yes	57	0	190	0	0			0	0			1				0	
6.6.1	mac	2023-06-19	16:43:41	16:50:01	377966	5ec06f59c4ceb1481f225bbd	3	1	practice_z	9	practice_z	27	stimuli_target_squarediamonds.svg	stimuli_distractor_diamondtriangles.svg	2	yes	44	1	369	0	0			0	0			1				0	
6.6.1	mac	2023-06-19	16:43:41	16:50:01	377966	5ec06f59c4ceb1481f225bbd	3	1	practice_z	9	advance_on_keypress_ZEE	28	stimuli_target_squarediamonds.svg	stimuli_distractor_diamondtriangles.svg	2	yes	57	0	213	0	0			0	0			1				0	
6.6.1	mac	2023-06-19	16:43:41	16:50:03	380107	5ec06f59c4ceb1481f225bbd	3	1	practice_z	9	practice_z	29	stimuli_target_diamondsquares.svg	stimuli_distractor_trianglediamonds.svg	6	yes	44	1	293	0	0			0	0			1				0	
6.6.1	mac	2023-06-19	16:43:41	16:50:03	380107	5ec06f59c4ceb1481f225bbd	3	1	practice_z	9	advance_on_keypress_ZEE	30	stimuli_target_diamondsquares.svg	stimuli_distractor_trianglediamonds.svg	6	yes	57	0	4	0	0			0	0			1				0	
6.6.1	mac	2023-06-19	16:43:41	16:50:06	383730	5ec06f59c4ceb1481f225bbd	3	1	practice_z	9	practice_z	31	stimuli_distractor_diamondtriangles.svg	stimuli_distractor_diamondtriangles.svg	13	no	0	1	2000	0	0			0	0			1				0	
6.6.1	mac	2023-06-19	16:43:41	16:50:06	383730	5ec06f59c4ceb1481f225bbd	3	1	practice_z	9	advance_on_keypress_ZEE	32	stimuli_distractor_diamondtriangles.svg	stimuli_distractor_diamondtriangles.svg	13	no	57	0	478	0	0			0	0			1				0	
6.6.1	mac	2023-06-19	16:43:41	16:50:09	386659	5ec06f59c4ceb1481f225bbd	3	1	main_z	11	main_z	1	stimuli_target_diamondsquares.svg	stimuli_distractor_diamondtriangles.svg	24	yes	44	1	462	0	0			0	0			1				0	
6.6.1	mac	2023-06-19	16:43:41	16:50:09	386659	5ec06f59c4ceb1481f225bbd	3	1	main_z	11	advance_on_keypress_ZEE	2	stimuli_target_diamondsquares.svg	stimuli_distractor_diamondtriangles.svg	24	yes	57	0	520	0	0			0	0			1				0	
6.6.1	mac	2023-06-19	16:43:41	16:50:11	388214	5ec06f59c4ceb1481f225bbd	3	1	main_z	11	main_z	3	stimuli_distractor_diamondtriangles.svg	stimuli_target_squaretriangles.svg	15	yes	44	1	402	0	0			0	0			1				0	
6.6.1	mac	2023-06-19	16:43:41	16:50:11	388214	5ec06f59c4ceb1481f225bbd	3	1	main_z	11	advance_on_keypress_ZEE	4	stimuli_distractor_diamondtriangles.svg	stimuli_target_squaretriangles.svg	15	yes	57	0	500	0	0			0	0			1				0	
6.6.1	mac	2023-06-19	16:43:41	16:50:13	389752	5ec06f59c4ceb1481f225bbd	3	1	main_z	11	main_z	5	stimuli_distractor_diamondtriangles.svg	stimuli_distractor_diamondtriangles.svg	39	no	44	0	406	0	0			0	0			1				0	
6.6.1	mac	2023-06-19	16:43:41	16:50:13	389752	5ec06f59c4ceb1481f225bbd	3	1	main_z	11	advance_on_keypress_ZEE	6	stimuli_distractor_diamondtriangles.svg	stimuli_distractor_diamondtriangles.svg	39	no	57	0	523	0	0			0	0			1				0	
6.6.1	mac	2023-06-19	16:43:41	16:50:14	391382	5ec06f59c4ceb1481f225bbd	3	1	main_z	11	main_z	7	stimuli_target_squarediamonds.svg	stimuli_distractor_trianglediamonds.svg	4	yes	44	1	469	0	0			0	0			1				0	
6.6.1	mac	2023-06-19	16:43:41	16:50:14	391382	5ec06f59c4ceb1481f225bbd	3	1	main_z	11	advance_on_keypress_ZEE	8	stimuli_target_squarediamonds.svg	stimuli_distractor_trianglediamonds.svg	4	yes	57	0	411	0	0			0	0			1				0	
6.6.1	mac	2023-06-19	16:43:41	16:50:16	392881	5ec06f59c4ceb1481f225bbd	3	1	main_z	11	main_z	9	stimuli_distractor_diamondtriangles.svg	stimuli_target_squarediamonds.svg	16	yes	44	1	451	0	0			0	0			1				0	
6.6.1	mac	2023-06-19	16:43:41	16:50:16	392881	5ec06f59c4ceb1481f225bbd	3	1	main_z	11	advance_on_keypress_ZEE	10	stimuli_distractor_diamondtriangles.svg	stimuli_target_squarediamonds.svg	16	yes	57	0	368	0	0			0	0			1				0	
6.6.1	mac	2023-06-19	16:43:41	16:50:18	394782	5ec06f59c4ceb1481f225bbd	3	1	main_z	11	main_z	11	stimuli_target_squaretriangles.svg	stimuli_distractor_diamondtriangles.svg	7	yes	44	1	903	0	0			0	0			1				0	
6.6.1	mac	2023-06-19	16:43:41	16:50:18	394782	5ec06f59c4ceb1481f225bbd	3	1	main_z	11	advance_on_keypress_ZEE	12	stimuli_target_squaretriangles.svg	stimuli_distractor_diamondtriangles.svg	7	yes	57	0	241	0	0			0	0			1				0	
6.6.1	mac	2023-06-19	16:43:41	16:50:19	396132	5ec06f59c4ceb1481f225bbd	3	1	main_z	11	main_z	13	stimuli_target_diamondrectangles.svg	stimuli_distractor_trianglediamonds.svg	19	yes	44	1	486	0	0			0	0			1				0	
6.6.1	mac	2023-06-19	16:43:41	16:50:19	396132	5ec06f59c4ceb1481f225bbd	3	1	main_z	11	advance_on_keypress_ZEE	14	stimuli_target_diamondrectangles.svg	stimuli_distractor_trianglediamonds.svg	19	yes	57	0	422	0	0			0	0			1				0	
6.6.1	mac	2023-06-19	16:43:41	16:50:20	397672	5ec06f59c4ceb1481f225bbd	3	1	main_z	11	main_z	15	stimuli_target_rectanglediamonds.svg	stimuli_distractor_diamondtriangles.svg	6	yes	44	1	493	0	0			0	0			1				0	
6.6.1	mac	2023-06-19	16:43:41	16:50:20	397672	5ec06f59c4ceb1481f225bbd	3	1	main_z	11	advance_on_keypress_ZEE	16	stimuli_target_rectanglediamonds.svg	stimuli_distractor_diamondtriangles.svg	6	yes	57	0	563	0	0			0	0			1				0	
6.6.1	mac	2023-06-19	16:43:41	16:50:22	399332	5ec06f59c4ceb1481f225bbd	3	1	main_z	11	main_z	17	stimuli_distractor_trianglediamonds.svg	stimuli_target_squarediamonds.svg	12	yes	44	1	469	0	0			0	0			1				0	
6.6.1	mac	2023-06-19	16:43:41	16:50:22	399332	5ec06f59c4ceb1481f225bbd	3	1	main_z	11	advance_on_keypress_ZEE	18	stimuli_distractor_trianglediamonds.svg	stimuli_target_squarediamonds.svg	12	yes	57	0	283	0	0			0	0			1				0	
6.6.1	mac	2023-06-19	16:43:41	16:50:23	400674	5ec06f59c4ceb1481f225bbd	3	1	main_z	11	main_z	19	stimuli_target_squaretriangles.svg	stimuli_distractor_trianglediamonds.svg	3	yes	44	1	427	0	0			0	0			1				0	
6.6.1	mac	2023-06-19	16:43:41	16:50:23	400674	5ec06f59c4ceb1481f225bbd	3	1	main_z	11	advance_on_keypress_ZEE	20	stimuli_target_squaretriangles.svg	stimuli_distractor_trianglediamonds.svg	3	yes	57	0	167	0	0			0	0			1				0	
6.6.1	mac	2023-06-19	16:43:41	16:50:26	403479	5ec06f59c4ceb1481f225bbd	3	1	main_z	11	main_z	21	stimuli_distractor_trianglediamonds.svg	stimuli_distractor_diamondtriangles.svg	36	no	0	1	2000	0	0			0	0			1				0	
6.6.1	mac	2023-06-19	16:43:41	16:50:26	403479	5ec06f59c4ceb1481f225bbd	3	1	main_z	11	advance_on_keypress_ZEE	22	stimuli_distractor_trianglediamonds.svg	stimuli_distractor_diamondtriangles.svg	36	no	57	0	268	0	0			0	0			1				0	
6.6.1	mac	2023-06-19	16:43:41	16:50:28	404795	5ec06f59c4ceb1481f225bbd	3	1	main_z	11	main_z	23	stimuli_target_rectangletriangles.svg	stimuli_distractor_diamondtriangles.svg	5	yes	44	1	414	0	0			0	0			1				0	
6.6.1	mac	2023-06-19	16:43:41	16:50:28	404795	5ec06f59c4ceb1481f225bbd	3	1	main_z	11	advance_on_keypress_ZEE	24	stimuli_target_rectangletriangles.svg	stimuli_distractor_diamondtriangles.svg	5	yes	57	0	129	0	0			0	0			1				0	
6.6.1	mac	2023-06-19	16:43:41	16:50:29	406589	5ec06f59c4ceb1481f225bbd	3	1	main_z	11	main_z	25	stimuli_target_trianglerectangles.svg	stimuli_distractor_trianglediamonds.svg	17	yes	44	1	1027	0	0			0	0			1				0	
6.6.1	mac	2023-06-19	16:43:41	16:50:29	406589	5ec06f59c4ceb1481f225bbd	3	1	main_z	11	advance_on_keypress_ZEE	26	stimuli_target_trianglerectangles.svg	stimuli_distractor_trianglediamonds.svg	17	yes	57	0	147	0	0			0	0			1				0	
6.6.1	mac	2023-06-19	16:43:41	16:50:32	409362	5ec06f59c4ceb1481f225bbd	3	1	main_z	11	main_z	27	stimuli_distractor_diamondtriangles.svg	stimuli_distractor_trianglediamonds.svg	37	no	0	1	2000	0	0			0	0			1				0	
6.6.1	mac	2023-06-19	16:43:41	16:50:32	409362	5ec06f59c4ceb1481f225bbd	3	1	main_z	11	advance_on_keypress_ZEE	28	stimuli_distractor_diamondtriangles.svg	stimuli_distractor_trianglediamonds.svg	37	no	57	0	428	0	0			0	0			1				0	
6.6.1	mac	2023-06-19	16:43:41	16:50:35	412428	5ec06f59c4ceb1481f225bbd	3	1	main_z	11	main_z	29	stimuli_distractor_trianglediamonds.svg	stimuli_distractor_trianglediamonds.svg	33	no	0	1	2000	0	0			0	0			1				0	
6.6.1	mac	2023-06-19	16:43:41	16:50:35	412428	5ec06f59c4ceb1481f225bbd	3	1	main_z	11	advance_on_keypress_ZEE	30	stimuli_distractor_trianglediamonds.svg	stimuli_distractor_trianglediamonds.svg	33	no	57	0	263	0	0			0	0			1				0	
6.6.1	mac	2023-06-19	16:43:41	16:50:37	413840	5ec06f59c4ceb1481f225bbd	3	1	main_z	11	main_z	31	stimuli_target_rectangletriangles.svg	stimuli_distractor_trianglediamonds.svg	1	yes	44	1	510	0	0			0	0			1				0	
6.6.1	mac	2023-06-19	16:43:41	16:50:37	413840	5ec06f59c4ceb1481f225bbd	3	1	main_z	11	advance_on_keypress_ZEE	32	stimuli_target_rectangletriangles.svg	stimuli_distractor_trianglediamonds.svg	1	yes	57	0	112	0	0			0	0			1				0	
6.6.1	mac	2023-06-19	16:43:41	16:50:38	415122	5ec06f59c4ceb1481f225bbd	3	1	main_z	11	main_z	33	stimuli_distractor_trianglediamonds.svg	stimuli_target_squaretriangles.svg	11	yes	44	1	525	0	0			0	0			1				0	
6.6.1	mac	2023-06-19	16:43:41	16:50:38	415122	5ec06f59c4ceb1481f225bbd	3	1	main_z	11	advance_on_keypress_ZEE	34	stimuli_distractor_trianglediamonds.svg	stimuli_target_squaretriangles.svg	11	yes	57	0	79	0	0			0	0			1				0	
6.6.1	mac	2023-06-19	16:43:41	16:50:41	417829	5ec06f59c4ceb1481f225bbd	3	1	main_z	11	main_z	35	stimuli_distractor_trianglediamonds.svg	stimuli_distractor_trianglediamonds.svg	34	no	0	1	2000	0	0			0	0			1				0	
6.6.1	mac	2023-06-19	16:43:41	16:50:41	417829	5ec06f59c4ceb1481f225bbd	3	1	main_z	11	advance_on_keypress_ZEE	36	stimuli_distractor_trianglediamonds.svg	stimuli_distractor_trianglediamonds.svg	34	no	57	0	236	0	0			0	0			1				0	
6.6.1	mac	2023-06-19	16:43:41	16:50:42	419070	5ec06f59c4ceb1481f225bbd	3	1	main_z	11	main_z	37	stimuli_target_squarediamonds.svg	stimuli_distractor_diamondtriangles.svg	8	yes	44	1	374	0	0			0	0			1				0	
6.6.1	mac	2023-06-19	16:43:41	16:50:42	419070	5ec06f59c4ceb1481f225bbd	3	1	main_z	11	advance_on_keypress_ZEE	38	stimuli_target_squarediamonds.svg	stimuli_distractor_diamondtriangles.svg	8	yes	57	0	93	0	0			0	0			1				0	
6.6.1	mac	2023-06-19	16:43:41	16:50:43	420702	5ec06f59c4ceb1481f225bbd	3	1	main_z	11	main_z	39	stimuli_distractor_diamondtriangles.svg	stimuli_target_diamondrectangles.svg	31	yes	44	1	922	0	0			0	0			1				0	
6.6.1	mac	2023-06-19	16:43:41	16:50:43	420702	5ec06f59c4ceb1481f225bbd	3	1	main_z	11	advance_on_keypress_ZEE	40	stimuli_distractor_diamondtriangles.svg	stimuli_target_diamondrectangles.svg	31	yes	57	0	80	0	0			0	0			1				0	
6.6.1	mac	2023-06-19	16:43:41	16:50:45	421998	5ec06f59c4ceb1481f225bbd	3	1	main_z	11	main_z	41	stimuli_distractor_trianglediamonds.svg	stimuli_target_trianglerectangles.svg	25	yes	44	1	585	0	0			0	0			1				0	
6.6.1	mac	2023-06-19	16:43:41	16:50:45	421998	5ec06f59c4ceb1481f225bbd	3	1	main_z	11	advance_on_keypress_ZEE	42	stimuli_distractor_trianglediamonds.svg	stimuli_target_trianglerectangles.svg	25	yes	57	0	72	0	0			0	0			1				0	
6.6.1	mac	2023-06-19	16:43:41	16:50:46	423101	5ec06f59c4ceb1481f225bbd	3	1	main_z	11	main_z	43	stimuli_target_diamondsquares.svg	stimuli_distractor_trianglediamonds.svg	20	yes	44	1	405	0	0			0	0			1				0	
6.6.1	mac	2023-06-19	16:43:41	16:50:46	423101	5ec06f59c4ceb1481f225bbd	3	1	main_z	11	advance_on_keypress_ZEE	44	stimuli_target_diamondsquares.svg	stimuli_distractor_trianglediamonds.svg	20	yes	57	0	77	0	0			0	0			1				0	
6.6.1	mac	2023-06-19	16:43:41	16:50:47	424144	5ec06f59c4ceb1481f225bbd	3	1	main_z	11	main_z	45	stimuli_target_diamondrectangles.svg	stimuli_distractor_diamondtriangles.svg	23	yes	44	1	331	0	0			0	0			1				0	
6.6.1	mac	2023-06-19	16:43:41	16:50:47	424144	5ec06f59c4ceb1481f225bbd	3	1	main_z	11	advance_on_keypress_ZEE	46	stimuli_target_diamondrectangles.svg	stimuli_distractor_diamondtriangles.svg	23	yes	57	0	88	0	0			0	0			1				0	
6.6.1	mac	2023-06-19	16:43:41	16:50:48	425465	5ec06f59c4ceb1481f225bbd	3	1	main_z	11	main_z	47	stimuli_distractor_diamondtriangles.svg	stimuli_target_rectanglediamonds.svg	14	yes	44	1	601	0	0			0	0			1				0	
6.6.1	mac	2023-06-19	16:43:41	16:50:48	425465	5ec06f59c4ceb1481f225bbd	3	1	main_z	11	advance_on_keypress_ZEE	48	stimuli_distractor_diamondtriangles.svg	stimuli_target_rectanglediamonds.svg	14	yes	57	0	63	0	0			0	0			1				0	
6.6.1	mac	2023-06-19	16:43:41	16:50:49	426703	5ec06f59c4ceb1481f225bbd	3	1	main_z	11	main_z	49	stimuli_distractor_trianglediamonds.svg	stimuli_target_trianglesquares.svg	26	yes	44	1	540	0	0			0	0			1				0	
6.6.1	mac	2023-06-19	16:43:41	16:50:49	426703	5ec06f59c4ceb1481f225bbd	3	1	main_z	11	advance_on_keypress_ZEE	50	stimuli_distractor_trianglediamonds.svg	stimuli_target_trianglesquares.svg	26	yes	57	0	62	0	0			0	0			1				0	
6.6.1	mac	2023-06-19	16:43:41	16:50:52	429396	5ec06f59c4ceb1481f225bbd	3	1	main_z	11	main_z	51	stimuli_distractor_trianglediamonds.svg	stimuli_distractor_diamondtriangles.svg	35	no	0	1	2000	0	0			0	0			1				0	
6.6.1	mac	2023-06-19	16:43:41	16:50:52	429396	5ec06f59c4ceb1481f225bbd	3	1	main_z	11	advance_on_keypress_ZEE	52	stimuli_distractor_trianglediamonds.svg	stimuli_distractor_diamondtriangles.svg	35	no	57	0	282	0	0			0	0			1				0	
6.6.1	mac	2023-06-19	16:43:41	16:50:54	430789	5ec06f59c4ceb1481f225bbd	3	1	main_z	11	main_z	53	stimuli_distractor_diamondtriangles.svg	stimuli_target_diamondsquares.svg	32	yes	44	1	476	0	0			0	0			1				0	
6.6.1	mac	2023-06-19	16:43:41	16:50:54	430789	5ec06f59c4ceb1481f225bbd	3	1	main_z	11	advance_on_keypress_ZEE	54	stimuli_distractor_diamondtriangles.svg	stimuli_target_diamondsquares.svg	32	yes	57	0	172	0	0			0	0			1				0	
6.6.1	mac	2023-06-19	16:43:41	16:50:55	431992	5ec06f59c4ceb1481f225bbd	3	1	main_z	11	main_z	55	stimuli_distractor_trianglediamonds.svg	stimuli_target_rectangletriangles.svg	9	yes	44	1	397	0	0			0	0			1				0	
6.6.1	mac	2023-06-19	16:43:41	16:50:55	431992	5ec06f59c4ceb1481f225bbd	3	1	main_z	11	advance_on_keypress_ZEE	56	stimuli_distractor_trianglediamonds.svg	stimuli_target_rectangletriangles.svg	9	yes	57	0	98	0	0			0	0			1				0	
6.6.1	mac	2023-06-19	16:43:41	16:50:57	434729	5ec06f59c4ceb1481f225bbd	3	1	main_z	11	main_z	57	stimuli_distractor_diamondtriangles.svg	stimuli_distractor_trianglediamonds.svg	38	no	0	1	2000	0	0			0	0			1				0	
6.6.1	mac	2023-06-19	16:43:41	16:50:57	434729	5ec06f59c4ceb1481f225bbd	3	1	main_z	11	advance_on_keypress_ZEE	58	stimuli_distractor_diamondtriangles.svg	stimuli_distractor_trianglediamonds.svg	38	no	57	0	275	0	0			0	0			1				0	
6.6.1	mac	2023-06-19	16:43:41	16:51:00	437629	5ec06f59c4ceb1481f225bbd	3	1	main_z	11	main_z	59	stimuli_distractor_diamondtriangles.svg	stimuli_distractor_diamondtriangles.svg	40	no	0	1	2000	0	0			0	0			1				0	
6.6.1	mac	2023-06-19	16:43:41	16:51:00	437629	5ec06f59c4ceb1481f225bbd	3	1	main_z	11	advance_on_keypress_ZEE	60	stimuli_distractor_diamondtriangles.svg	stimuli_distractor_diamondtriangles.svg	40	no	57	0	125	0	0			0	0			1				0	
6.6.1	mac	2023-06-19	16:43:41	16:51:02	438814	5ec06f59c4ceb1481f225bbd	3	1	main_z	11	main_z	61	stimuli_target_rectanglediamonds.svg	stimuli_distractor_trianglediamonds.svg	2	yes	44	1	434	0	0			0	0			1				0	
6.6.1	mac	2023-06-19	16:43:41	16:51:02	438814	5ec06f59c4ceb1481f225bbd	3	1	main_z	11	advance_on_keypress_ZEE	62	stimuli_target_rectanglediamonds.svg	stimuli_distractor_trianglediamonds.svg	2	yes	57	0	48	0	0			0	0			1				0	
6.6.1	mac	2023-06-19	16:43:41	16:51:03	439947	5ec06f59c4ceb1481f225bbd	3	1	main_z	11	main_z	63	stimuli_distractor_trianglediamonds.svg	stimuli_target_diamondrectangles.svg	27	yes	44	1	450	0	0			0	0			1				0	
6.6.1	mac	2023-06-19	16:43:41	16:51:03	439947	5ec06f59c4ceb1481f225bbd	3	1	main_z	11	advance_on_keypress_ZEE	64	stimuli_distractor_trianglediamonds.svg	stimuli_target_diamondrectangles.svg	27	yes	57	0	50	0	0			0	0			1				0	
6.6.1	mac	2023-06-19	16:43:41	16:51:04	441006	5ec06f59c4ceb1481f225bbd	3	1	main_z	11	main_z	65	stimuli_distractor_trianglediamonds.svg	stimuli_target_diamondsquares.svg	28	yes	44	1	377	0	0			0	0			1				0	
6.6.1	mac	2023-06-19	16:43:41	16:51:04	441006	5ec06f59c4ceb1481f225bbd	3	1	main_z	11	advance_on_keypress_ZEE	66	stimuli_distractor_trianglediamonds.svg	stimuli_target_diamondsquares.svg	28	yes	57	0	32	0	0			0	0			1				0	
6.6.1	mac	2023-06-19	16:43:41	16:51:05	442033	5ec06f59c4ceb1481f225bbd	3	1	main_z	11	main_z	67	stimuli_distractor_diamondtriangles.svg	stimuli_target_trianglesquares.svg	30	yes	44	1	353	0	0			0	0			1				0	
6.6.1	mac	2023-06-19	16:43:41	16:51:05	442033	5ec06f59c4ceb1481f225bbd	3	1	main_z	11	advance_on_keypress_ZEE	68	stimuli_distractor_diamondtriangles.svg	stimuli_target_trianglesquares.svg	30	yes	57	0	43	0	0			0	0			1				0	
6.6.1	mac	2023-06-19	16:43:41	16:51:06	443000	5ec06f59c4ceb1481f225bbd	3	1	main_z	11	main_z	69	stimuli_distractor_diamondtriangles.svg	stimuli_target_trianglerectangles.svg	29	yes	44	1	304	0	0			0	0			1				0	
6.6.1	mac	2023-06-19	16:43:41	16:51:06	443000	5ec06f59c4ceb1481f225bbd	3	1	main_z	11	advance_on_keypress_ZEE	70	stimuli_distractor_diamondtriangles.svg	stimuli_target_trianglerectangles.svg	29	yes	57	0	62	0	0			0	0			1				0	
6.6.1	mac	2023-06-19	16:43:41	16:51:07	444027	5ec06f59c4ceb1481f225bbd	3	1	main_z	11	main_z	71	stimuli_target_trianglerectangles.svg	stimuli_distractor_diamondtriangles.svg	21	yes	44	1	348	0	0			0	0			1				0	
6.6.1	mac	2023-06-19	16:43:41	16:51:07	444027	5ec06f59c4ceb1481f225bbd	3	1	main_z	11	advance_on_keypress_ZEE	72	stimuli_target_trianglerectangles.svg	stimuli_distractor_diamondtriangles.svg	21	yes	57	0	48	0	0			0	0			1				0	
6.6.1	mac	2023-06-19	16:43:41	16:51:08	445068	5ec06f59c4ceb1481f225bbd	3	1	main_z	11	main_z	73	stimuli_target_trianglesquares.svg	stimuli_distractor_trianglediamonds.svg	18	yes	44	1	355	0	0			0	0			1				0	
6.6.1	mac	2023-06-19	16:43:41	16:51:08	445068	5ec06f59c4ceb1481f225bbd	3	1	main_z	11	advance_on_keypress_ZEE	74	stimuli_target_trianglesquares.svg	stimuli_distractor_trianglediamonds.svg	18	yes	57	0	43	0	0			0	0			1				0	
6.6.1	mac	2023-06-19	16:43:41	16:51:09	445993	5ec06f59c4ceb1481f225bbd	3	1	main_z	11	main_z	75	stimuli_distractor_diamondtriangles.svg	stimuli_target_rectangletriangles.svg	13	yes	44	1	263	0	0			0	0			1				0	
6.6.1	mac	2023-06-19	16:43:41	16:51:09	445993	5ec06f59c4ceb1481f225bbd	3	1	main_z	11	advance_on_keypress_ZEE	76	stimuli_distractor_diamondtriangles.svg	stimuli_target_rectangletriangles.svg	13	yes	57	0	35	0	0			0	0			1				0	
6.6.1	mac	2023-06-19	16:43:41	16:51:10	447002	5ec06f59c4ceb1481f225bbd	3	1	main_z	11	main_z	77	stimuli_distractor_trianglediamonds.svg	stimuli_target_rectanglediamonds.svg	10	yes	44	1	339	0	0			0	0			1				0	
6.6.1	mac	2023-06-19	16:43:41	16:51:10	447002	5ec06f59c4ceb1481f225bbd	3	1	main_z	11	advance_on_keypress_ZEE	78	stimuli_distractor_trianglediamonds.svg	stimuli_target_rectanglediamonds.svg	10	yes	57	0	56	0	0			0	0			1				0	
6.6.1	mac	2023-06-19	16:43:41	16:51:11	447952	5ec06f59c4ceb1481f225bbd	3	1	main_z	11	main_z	79	stimuli_target_trianglesquares.svg	stimuli_distractor_diamondtriangles.svg	22	yes	44	1	272	0	0			0	0			1				0	
6.6.1	mac	2023-06-19	16:43:41	16:51:11	447952	5ec06f59c4ceb1481f225bbd	3	1	main_z	11	advance_on_keypress_ZEE	80	stimuli_target_trianglesquares.svg	stimuli_distractor_diamondtriangles.svg	22	yes	57	0	69	0	0			0	0			1				0	
6.6.1	mac	2023-06-19	16:43:41	16:51:12	448903	5ec06f59c4ceb1481f225bbd	3	1	main_z	11	main_z	81	stimuli_distractor_diamondtriangles.svg	stimuli_target_diamondsquares.svg	32	yes	44	1	256	0	0			0	0			1				0	
6.6.1	mac	2023-06-19	16:43:41	16:51:12	448903	5ec06f59c4ceb1481f225bbd	3	1	main_z	11	advance_on_keypress_ZEE	82	stimuli_distractor_diamondtriangles.svg	stimuli_target_diamondsquares.svg	32	yes	57	0	93	0	0			0	0			1				0	
6.6.1	mac	2023-06-19	16:43:41	16:51:13	449930	5ec06f59c4ceb1481f225bbd	3	1	main_z	11	main_z	83	stimuli_distractor_trianglediamonds.svg	stimuli_target_diamondrectangles.svg	27	yes	44	1	317	0	0			0	0			1				0	
6.6.1	mac	2023-06-19	16:43:41	16:51:13	449930	5ec06f59c4ceb1481f225bbd	3	1	main_z	11	advance_on_keypress_ZEE	84	stimuli_distractor_trianglediamonds.svg	stimuli_target_diamondrectangles.svg	27	yes	57	0	56	0	0			0	0			1				0	
6.6.1	mac	2023-06-19	16:43:41	16:51:14	450874	5ec06f59c4ceb1481f225bbd	3	1	main_z	11	main_z	85	stimuli_distractor_diamondtriangles.svg	stimuli_target_rectangletriangles.svg	13	yes	44	1	261	0	0			0	0			1				0	
6.6.1	mac	2023-06-19	16:43:41	16:51:14	450874	5ec06f59c4ceb1481f225bbd	3	1	main_z	11	advance_on_keypress_ZEE	86	stimuli_distractor_diamondtriangles.svg	stimuli_target_rectangletriangles.svg	13	yes	57	0	26	0	0			0	0			1				0	
6.6.1	mac	2023-06-19	16:43:41	16:51:15	451815	5ec06f59c4ceb1481f225bbd	3	1	main_z	11	main_z	87	stimuli_target_trianglerectangles.svg	stimuli_distractor_diamondtriangles.svg	21	yes	44	1	285	0	0			0	0			1				0	
6.6.1	mac	2023-06-19	16:43:41	16:51:15	451815	5ec06f59c4ceb1481f225bbd	3	1	main_z	11	advance_on_keypress_ZEE	88	stimuli_target_trianglerectangles.svg	stimuli_distractor_diamondtriangles.svg	21	yes	57	0	11	0	0			0	0			1				0	
6.6.1	mac	2023-06-19	16:43:41	16:51:16	453038	5ec06f59c4ceb1481f225bbd	3	1	main_z	11	main_z	89	stimuli_target_rectanglediamonds.svg	stimuli_distractor_trianglediamonds.svg	2	yes	44	1	558	0	0			0	0			1				0	
6.6.1	mac	2023-06-19	16:43:41	16:51:16	453038	5ec06f59c4ceb1481f225bbd	3	1	main_z	11	advance_on_keypress_ZEE	90	stimuli_target_rectanglediamonds.svg	stimuli_distractor_trianglediamonds.svg	2	yes	57	0	64	0	0			0	0			1				0	
6.6.1	mac	2023-06-19	16:43:41	16:51:17	454044	5ec06f59c4ceb1481f225bbd	3	1	main_z	11	main_z	91	stimuli_target_squarediamonds.svg	stimuli_distractor_trianglediamonds.svg	4	yes	44	1	315	0	0			0	0			1				0	
6.6.1	mac	2023-06-19	16:43:41	16:51:17	454044	5ec06f59c4ceb1481f225bbd	3	1	main_z	11	advance_on_keypress_ZEE	92	stimuli_target_squarediamonds.svg	stimuli_distractor_trianglediamonds.svg	4	yes	57	0	29	0	0			0	0			1				0	
6.6.1	mac	2023-06-19	16:43:41	16:51:18	455109	5ec06f59c4ceb1481f225bbd	3	1	main_z	11	main_z	93	stimuli_target_trianglerectangles.svg	stimuli_distractor_trianglediamonds.svg	17	yes	44	1	414	0	0			0	0			1				0	
6.6.1	mac	2023-06-19	16:43:41	16:51:18	455109	5ec06f59c4ceb1481f225bbd	3	1	main_z	11	advance_on_keypress_ZEE	94	stimuli_target_trianglerectangles.svg	stimuli_distractor_trianglediamonds.svg	17	yes	57	0	51	0	0			0	0			1				0	
6.6.1	mac	2023-06-19	16:43:41	16:51:20	456869	5ec06f59c4ceb1481f225bbd	3	1	main_z	11	main_z	95	stimuli_target_squarediamonds.svg	stimuli_distractor_diamondtriangles.svg	8	yes	44	1	1073	0	0			0	0			1				0	
6.6.1	mac	2023-06-19	16:43:41	16:51:20	456869	5ec06f59c4ceb1481f225bbd	3	1	main_z	11	advance_on_keypress_ZEE	96	stimuli_target_squarediamonds.svg	stimuli_distractor_diamondtriangles.svg	8	yes	57	0	91	0	0			0	0			1				0	
6.6.1	mac	2023-06-19	16:43:41	16:51:22	459579	5ec06f59c4ceb1481f225bbd	3	1	main_z	11	main_z	97	stimuli_distractor_diamondtriangles.svg	stimuli_distractor_diamondtriangles.svg	39	no	0	1	2000	0	0			0	0			1				0	
6.6.1	mac	2023-06-19	16:43:41	16:51:22	459579	5ec06f59c4ceb1481f225bbd	3	1	main_z	11	advance_on_keypress_ZEE	98	stimuli_distractor_diamondtriangles.svg	stimuli_distractor_diamondtriangles.svg	39	no	57	0	226	0	0			0	0			1				0	
6.6.1	mac	2023-06-19	16:43:41	16:51:24	460826	5ec06f59c4ceb1481f225bbd	3	1	main_z	11	main_z	99	stimuli_distractor_diamondtriangles.svg	stimuli_target_trianglesquares.svg	30	yes	44	1	396	0	0			0	0			1				0	
6.6.1	mac	2023-06-19	16:43:41	16:51:24	460826	5ec06f59c4ceb1481f225bbd	3	1	main_z	11	advance_on_keypress_ZEE	100	stimuli_distractor_diamondtriangles.svg	stimuli_target_trianglesquares.svg	30	yes	57	0	64	0	0			0	0			1				0	
6.6.1	mac	2023-06-19	16:43:41	16:51:25	461972	5ec06f59c4ceb1481f225bbd	3	1	main_z	11	main_z	101	stimuli_distractor_trianglediamonds.svg	stimuli_target_trianglerectangles.svg	25	yes	44	1	443	0	0			0	0			1				0	
6.6.1	mac	2023-06-19	16:43:41	16:51:25	461972	5ec06f59c4ceb1481f225bbd	3	1	main_z	11	advance_on_keypress_ZEE	102	stimuli_distractor_trianglediamonds.svg	stimuli_target_trianglerectangles.svg	25	yes	57	0	44	0	0			0	0			1				0	
6.6.1	mac	2023-06-19	16:43:41	16:51:26	462999	5ec06f59c4ceb1481f225bbd	3	1	main_z	11	main_z	103	stimuli_target_rectangletriangles.svg	stimuli_distractor_trianglediamonds.svg	1	yes	44	1	352	0	0			0	0			1				0	
6.6.1	mac	2023-06-19	16:43:41	16:51:26	462999	5ec06f59c4ceb1481f225bbd	3	1	main_z	11	advance_on_keypress_ZEE	104	stimuli_target_rectangletriangles.svg	stimuli_distractor_trianglediamonds.svg	1	yes	57	0	61	0	0			0	0			1				0	
6.6.1	mac	2023-06-19	16:43:41	16:51:27	464058	5ec06f59c4ceb1481f225bbd	3	1	main_z	11	main_z	105	stimuli_distractor_diamondtriangles.svg	stimuli_target_squarediamonds.svg	16	yes	44	1	378	0	0			0	0			1				0	
6.6.1	mac	2023-06-19	16:43:41	16:51:27	464058	5ec06f59c4ceb1481f225bbd	3	1	main_z	11	advance_on_keypress_ZEE	106	stimuli_distractor_diamondtriangles.svg	stimuli_target_squarediamonds.svg	16	yes	57	0	58	0	0			0	0			1				0	
6.6.1	mac	2023-06-19	16:43:41	16:51:28	465182	5ec06f59c4ceb1481f225bbd	3	1	main_z	11	main_z	107	stimuli_target_squaretriangles.svg	stimuli_distractor_diamondtriangles.svg	7	yes	44	1	435	0	0			0	0			1				0	
6.6.1	mac	2023-06-19	16:43:41	16:51:28	465182	5ec06f59c4ceb1481f225bbd	3	1	main_z	11	advance_on_keypress_ZEE	108	stimuli_target_squaretriangles.svg	stimuli_distractor_diamondtriangles.svg	7	yes	57	0	163	0	0			0	0			1				0	
6.6.1	mac	2023-06-19	16:43:41	16:51:29	466403	5ec06f59c4ceb1481f225bbd	3	1	main_z	11	main_z	109	stimuli_distractor_trianglediamonds.svg	stimuli_target_rectanglediamonds.svg	10	yes	44	1	423	0	0			0	0			1				0	
6.6.1	mac	2023-06-19	16:43:41	16:51:29	466403	5ec06f59c4ceb1481f225bbd	3	1	main_z	11	advance_on_keypress_ZEE	110	stimuli_distractor_trianglediamonds.svg	stimuli_target_rectanglediamonds.svg	10	yes	57	0	56	0	0			0	0			1				0	
6.6.1	mac	2023-06-19	16:43:41	16:51:30	467460	5ec06f59c4ceb1481f225bbd	3	1	main_z	11	main_z	111	stimuli_distractor_trianglediamonds.svg	stimuli_target_rectangletriangles.svg	9	yes	44	1	364	0	0			0	0			1				0	
6.6.1	mac	2023-06-19	16:43:41	16:51:30	467460	5ec06f59c4ceb1481f225bbd	3	1	main_z	11	advance_on_keypress_ZEE	112	stimuli_distractor_trianglediamonds.svg	stimuli_target_rectangletriangles.svg	9	yes	57	0	40	0	0			0	0			1				0	
6.6.1	mac	2023-06-19	16:43:41	16:51:31	468547	5ec06f59c4ceb1481f225bbd	3	1	main_z	11	main_z	113	stimuli_target_rectanglediamonds.svg	stimuli_distractor_diamondtriangles.svg	6	yes	44	1	418	0	0			0	0			1				0	
6.6.1	mac	2023-06-19	16:43:41	16:51:31	468547	5ec06f59c4ceb1481f225bbd	3	1	main_z	11	advance_on_keypress_ZEE	114	stimuli_target_rectanglediamonds.svg	stimuli_distractor_diamondtriangles.svg	6	yes	57	0	84	0	0			0	0			1				0	
6.6.1	mac	2023-06-19	16:43:41	16:51:32	469602	5ec06f59c4ceb1481f225bbd	3	1	main_z	11	main_z	115	stimuli_distractor_trianglediamonds.svg	stimuli_target_squaretriangles.svg	11	yes	44	1	339	0	0			0	0			1				0	
6.6.1	mac	2023-06-19	16:43:41	16:51:32	469602	5ec06f59c4ceb1481f225bbd	3	1	main_z	11	advance_on_keypress_ZEE	116	stimuli_distractor_trianglediamonds.svg	stimuli_target_squaretriangles.svg	11	yes	57	0	61	0	0			0	0			1				0	
6.6.1	mac	2023-06-19	16:43:41	16:51:33	470602	5ec06f59c4ceb1481f225bbd	3	1	main_z	11	main_z	117	stimuli_distractor_diamondtriangles.svg	stimuli_distractor_diamondtriangles.svg	40	no	44	0	322	0	0			0	0			1				0	
6.6.1	mac	2023-06-19	16:43:41	16:51:33	470602	5ec06f59c4ceb1481f225bbd	3	1	main_z	11	advance_on_keypress_ZEE	118	stimuli_distractor_diamondtriangles.svg	stimuli_distractor_diamondtriangles.svg	40	no	57	0	1612	0	0			0	0			1				0	
6.6.1	mac	2023-06-19	16:43:41	16:51:36	473269	5ec06f59c4ceb1481f225bbd	3	1	main_z	11	main_z	119	stimuli_distractor_diamondtriangles.svg	stimuli_target_diamondrectangles.svg	31	yes	44	1	421	0	0			0	0			1				0	
6.6.1	mac	2023-06-19	16:43:41	16:51:36	473269	5ec06f59c4ceb1481f225bbd	3	1	main_z	11	advance_on_keypress_ZEE	120	stimuli_distractor_diamondtriangles.svg	stimuli_target_diamondrectangles.svg	31	yes	57	0	47	0	0			0	0			1				0	
6.6.1	mac	2023-06-19	16:43:41	16:51:39	475945	5ec06f59c4ceb1481f225bbd	3	1	main_z	11	main_z	121	stimuli_distractor_trianglediamonds.svg	stimuli_distractor_diamondtriangles.svg	36	no	0	1	2000	0	0			0	0			1				0	
6.6.1	mac	2023-06-19	16:43:41	16:51:39	475945	5ec06f59c4ceb1481f225bbd	3	1	main_z	11	advance_on_keypress_ZEE	122	stimuli_distractor_trianglediamonds.svg	stimuli_distractor_diamondtriangles.svg	36	no	57	0	57	0	0			0	0			1				0	
6.6.1	mac	2023-06-19	16:43:41	16:51:41	478629	5ec06f59c4ceb1481f225bbd	3	1	main_z	11	main_z	123	stimuli_distractor_diamondtriangles.svg	stimuli_distractor_trianglediamonds.svg	38	no	0	1	2000	0	0			0	0			1				0	
6.6.1	mac	2023-06-19	16:43:41	16:51:41	478629	5ec06f59c4ceb1481f225bbd	3	1	main_z	11	advance_on_keypress_ZEE	124	stimuli_distractor_diamondtriangles.svg	stimuli_distractor_trianglediamonds.svg	38	no	57	0	198	0	0			0	0			1				0	
6.6.1	mac	2023-06-19	16:43:41	16:51:43	479953	5ec06f59c4ceb1481f225bbd	3	1	main_z	11	main_z	125	stimuli_target_squaretriangles.svg	stimuli_distractor_trianglediamonds.svg	3	yes	44	1	490	0	0			0	0			1				0	
6.6.1	mac	2023-06-19	16:43:41	16:51:43	479953	5ec06f59c4ceb1481f225bbd	3	1	main_z	11	advance_on_keypress_ZEE	126	stimuli_target_squaretriangles.svg	stimuli_distractor_trianglediamonds.svg	3	yes	57	0	68	0	0			0	0			1				0	
6.6.1	mac	2023-06-19	16:43:41	16:51:44	481040	5ec06f59c4ceb1481f225bbd	3	1	main_z	11	main_z	127	stimuli_distractor_trianglediamonds.svg	stimuli_target_squarediamonds.svg	12	yes	44	1	394	0	0			0	0			1				0	
6.6.1	mac	2023-06-19	16:43:41	16:51:44	481040	5ec06f59c4ceb1481f225bbd	3	1	main_z	11	advance_on_keypress_ZEE	128	stimuli_distractor_trianglediamonds.svg	stimuli_target_squarediamonds.svg	12	yes	57	0	78	0	0			0	0			1				0	
6.6.1	mac	2023-06-19	16:43:41	16:51:45	482259	5ec06f59c4ceb1481f225bbd	3	1	main_z	11	main_z	129	stimuli_target_diamondsquares.svg	stimuli_distractor_trianglediamonds.svg	20	yes	44	1	513	0	0			0	0			1				0	
6.6.1	mac	2023-06-19	16:43:41	16:51:45	482259	5ec06f59c4ceb1481f225bbd	3	1	main_z	11	advance_on_keypress_ZEE	130	stimuli_target_diamondsquares.svg	stimuli_distractor_trianglediamonds.svg	20	yes	57	0	35	0	0			0	0			1				0	
6.6.1	mac	2023-06-19	16:43:41	16:51:48	484929	5ec06f59c4ceb1481f225bbd	3	1	main_z	11	main_z	131	stimuli_distractor_diamondtriangles.svg	stimuli_distractor_trianglediamonds.svg	37	no	0	1	2000	0	0			0	0			1				0	
6.6.1	mac	2023-06-19	16:43:41	16:51:48	484929	5ec06f59c4ceb1481f225bbd	3	1	main_z	11	advance_on_keypress_ZEE	132	stimuli_distractor_diamondtriangles.svg	stimuli_distractor_trianglediamonds.svg	37	no	57	0	374	0	0			0	0			1				0	
6.6.1	mac	2023-06-19	16:43:41	16:51:49	486381	5ec06f59c4ceb1481f225bbd	3	1	main_z	11	main_z	133	stimuli_distractor_trianglediamonds.svg	stimuli_target_trianglesquares.svg	26	yes	44	1	450	0	0			0	0			1				0	
6.6.1	mac	2023-06-19	16:43:41	16:51:49	486381	5ec06f59c4ceb1481f225bbd	3	1	main_z	11	advance_on_keypress_ZEE	134	stimuli_distractor_trianglediamonds.svg	stimuli_target_trianglesquares.svg	26	yes	57	0	69	0	0			0	0			1				0	
6.6.1	mac	2023-06-19	16:43:41	16:51:50	487520	5ec06f59c4ceb1481f225bbd	3	1	main_z	11	main_z	135	stimuli_target_diamondsquares.svg	stimuli_distractor_diamondtriangles.svg	24	yes	44	1	440	0	0			0	0			1				0	
6.6.1	mac	2023-06-19	16:43:41	16:51:50	487520	5ec06f59c4ceb1481f225bbd	3	1	main_z	11	advance_on_keypress_ZEE	136	stimuli_target_diamondsquares.svg	stimuli_distractor_diamondtriangles.svg	24	yes	57	0	94	0	0			0	0			1				0	
6.6.1	mac	2023-06-19	16:43:41	16:51:51	488564	5ec06f59c4ceb1481f225bbd	3	1	main_z	11	main_z	137	stimuli_target_rectangletriangles.svg	stimuli_distractor_diamondtriangles.svg	5	yes	44	1	319	0	0			0	0			1				0	
6.6.1	mac	2023-06-19	16:43:41	16:51:51	488564	5ec06f59c4ceb1481f225bbd	3	1	main_z	11	advance_on_keypress_ZEE	138	stimuli_target_rectangletriangles.svg	stimuli_distractor_diamondtriangles.svg	5	yes	57	0	81	0	0			0	0			1				0	
6.6.1	mac	2023-06-19	16:43:41	16:51:52	489662	5ec06f59c4ceb1481f225bbd	3	1	main_z	11	main_z	139	stimuli_distractor_diamondtriangles.svg	stimuli_target_rectanglediamonds.svg	14	yes	44	1	383	0	0			0	0			1				0	
6.6.1	mac	2023-06-19	16:43:41	16:51:52	489662	5ec06f59c4ceb1481f225bbd	3	1	main_z	11	advance_on_keypress_ZEE	140	stimuli_distractor_diamondtriangles.svg	stimuli_target_rectanglediamonds.svg	14	yes	57	0	76	0	0			0	0			1				0	
6.6.1	mac	2023-06-19	16:43:41	16:51:53	490753	5ec06f59c4ceb1481f225bbd	3	1	main_z	11	main_z	141	stimuli_distractor_trianglediamonds.svg	stimuli_distractor_diamondtriangles.svg	35	no	44	0	391	0	0			0	0			1				0	
6.6.1	mac	2023-06-19	16:43:41	16:51:53	490753	5ec06f59c4ceb1481f225bbd	3	1	main_z	11	advance_on_keypress_ZEE	142	stimuli_distractor_trianglediamonds.svg	stimuli_distractor_diamondtriangles.svg	35	no	57	0	77	0	0			0	0			1				0	
6.6.1	mac	2023-06-19	16:43:41	16:51:55	492012	5ec06f59c4ceb1481f225bbd	3	1	main_z	11	main_z	143	stimuli_target_diamondrectangles.svg	stimuli_distractor_trianglediamonds.svg	19	yes	44	1	550	0	0			0	0			1				0	
6.6.1	mac	2023-06-19	16:43:41	16:51:55	492012	5ec06f59c4ceb1481f225bbd	3	1	main_z	11	advance_on_keypress_ZEE	144	stimuli_target_diamondrectangles.svg	stimuli_distractor_trianglediamonds.svg	19	yes	57	0	46	0	0			0	0			1				0	
6.6.1	mac	2023-06-19	16:43:41	16:51:56	493192	5ec06f59c4ceb1481f225bbd	3	1	main_z	11	main_z	145	stimuli_distractor_trianglediamonds.svg	stimuli_target_diamondsquares.svg	28	yes	44	1	494	0	0			0	0			1				0	
6.6.1	mac	2023-06-19	16:43:41	16:51:56	493192	5ec06f59c4ceb1481f225bbd	3	1	main_z	11	advance_on_keypress_ZEE	146	stimuli_distractor_trianglediamonds.svg	stimuli_target_diamondsquares.svg	28	yes	57	0	1020	0	0			0	0			1				0	
6.6.1	mac	2023-06-19	16:43:41	16:52:00	496846	5ec06f59c4ceb1481f225bbd	3	1	main_z	11	main_z	147	stimuli_distractor_trianglediamonds.svg	stimuli_distractor_trianglediamonds.svg	33	no	0	1	2000	0	0			0	0			1				0	
6.6.1	mac	2023-06-19	16:43:41	16:52:00	496846	5ec06f59c4ceb1481f225bbd	3	1	main_z	11	advance_on_keypress_ZEE	148	stimuli_distractor_trianglediamonds.svg	stimuli_distractor_trianglediamonds.svg	33	no	57	0	189	0	0			0	0			1				0	
6.6.1	mac	2023-06-19	16:43:41	16:52:01	498078	5ec06f59c4ceb1481f225bbd	3	1	main_z	11	main_z	149	stimuli_distractor_diamondtriangles.svg	stimuli_target_squaretriangles.svg	15	yes	44	1	415	0	0			0	0			1				0	
6.6.1	mac	2023-06-19	16:43:41	16:52:01	498078	5ec06f59c4ceb1481f225bbd	3	1	main_z	11	advance_on_keypress_ZEE	150	stimuli_distractor_diamondtriangles.svg	stimuli_target_squaretriangles.svg	15	yes	57	0	665	0	0			0	0			1				0	
6.6.1	mac	2023-06-19	16:43:41	16:52:03	499882	5ec06f59c4ceb1481f225bbd	3	1	main_z	11	main_z	151	stimuli_distractor_diamondtriangles.svg	stimuli_target_trianglerectangles.svg	29	yes	44	1	503	0	0			0	0			1				0	
6.6.1	mac	2023-06-19	16:43:41	16:52:03	499882	5ec06f59c4ceb1481f225bbd	3	1	main_z	11	advance_on_keypress_ZEE	152	stimuli_distractor_diamondtriangles.svg	stimuli_target_trianglerectangles.svg	29	yes	57	0	591	0	0			0	0			1				0	
6.6.1	mac	2023-06-19	16:43:41	16:52:04	501478	5ec06f59c4ceb1481f225bbd	3	1	main_z	11	main_z	153	stimuli_target_diamondrectangles.svg	stimuli_distractor_diamondtriangles.svg	23	yes	44	1	383	0	0			0	0			1				0	
6.6.1	mac	2023-06-19	16:43:41	16:52:04	501478	5ec06f59c4ceb1481f225bbd	3	1	main_z	11	advance_on_keypress_ZEE	154	stimuli_target_diamondrectangles.svg	stimuli_distractor_diamondtriangles.svg	23	yes	57	0	375	0	0			0	0			1				0	
6.6.1	mac	2023-06-19	16:43:41	16:52:07	504479	5ec06f59c4ceb1481f225bbd	3	1	main_z	11	main_z	155	stimuli_distractor_trianglediamonds.svg	stimuli_distractor_trianglediamonds.svg	34	no	0	1	2000	0	0			0	0			1				0	
6.6.1	mac	2023-06-19	16:43:41	16:52:07	504479	5ec06f59c4ceb1481f225bbd	3	1	main_z	11	advance_on_keypress_ZEE	156	stimuli_distractor_trianglediamonds.svg	stimuli_distractor_trianglediamonds.svg	34	no	57	0	167	0	0			0	0			1				0	
6.6.1	mac	2023-06-19	16:43:41	16:52:08	505714	5ec06f59c4ceb1481f225bbd	3	1	main_z	11	main_z	157	stimuli_target_trianglesquares.svg	stimuli_distractor_trianglediamonds.svg	18	yes	44	1	434	0	0			0	0			1				0	
6.6.1	mac	2023-06-19	16:43:41	16:52:08	505714	5ec06f59c4ceb1481f225bbd	3	1	main_z	11	advance_on_keypress_ZEE	158	stimuli_target_trianglesquares.svg	stimuli_distractor_trianglediamonds.svg	18	yes	57	0	476	0	0			0	0			1				0	
6.6.1	mac	2023-06-19	16:43:41	16:52:10	507226	5ec06f59c4ceb1481f225bbd	3	1	main_z	11	main_z	159	stimuli_target_trianglesquares.svg	stimuli_distractor_diamondtriangles.svg	22	yes	44	1	396	0	0			0	0			1				0	
6.6.1	mac	2023-06-19	16:43:41	16:52:10	507226	5ec06f59c4ceb1481f225bbd	3	1	main_z	11	advance_on_keypress_ZEE	160	stimuli_target_trianglesquares.svg	stimuli_distractor_diamondtriangles.svg	22	yes	57	0	329	0	0			0	0			1				0	
6.6.1	mac	2023-06-19	16:43:41	16:52:10	507226	5ec06f59c4ceb1481f225bbd	3	1	headphonecheck_calibration	14	headphonecheck_calibrationIntro	1	stimuli_target_trianglesquares.svg	stimuli_distractor_diamondtriangles.svg	22	yes	calibrationButton	0	2173	0	0			0	0			1				0	
6.6.1	mac	2023-06-19	16:43:41	16:52:10	507226	5ec06f59c4ceb1481f225bbd	3	1	headphonecheck_testphase	15	test_collectResponse	3	stimuli_target_trianglesquares.svg	stimuli_distractor_diamondtriangles.svg	22	yes	first	1	5937	1	4	antiphase_hc_sio.wav	1	0	0			1				0	
6.6.1	mac	2023-06-19	16:43:41	16:52:10	507226	5ec06f59c4ceb1481f225bbd	3	1	headphonecheck_testphase	15	test_collectResponse	6	stimuli_target_trianglesquares.svg	stimuli_distractor_diamondtriangles.svg	22	yes	first	0	538	2	5	antiphase_hc_osi.wav	2	0	0			1				0	
6.6.1	mac	2023-06-19	16:43:41	16:52:10	507226	5ec06f59c4ceb1481f225bbd	3	1	headphonecheck_testphase	15	test_collectResponse	9	stimuli_target_trianglesquares.svg	stimuli_distractor_diamondtriangles.svg	22	yes	third	1	465	3	2	antiphase_hc_ios.wav	3	0	0			1				0	
6.6.1	mac	2023-06-19	16:43:41	16:52:10	507226	5ec06f59c4ceb1481f225bbd	3	1	headphonecheck_testphase	15	test_collectResponse	12	stimuli_target_trianglesquares.svg	stimuli_distractor_diamondtriangles.svg	22	yes	third	1	554	4	6	antiphase_hc_ois.wav	3	0	0			1				0	
6.6.1	mac	2023-06-19	16:43:41	16:52:10	507226	5ec06f59c4ceb1481f225bbd	3	1	headphonecheck_testphase	15	test_collectResponse	15	stimuli_target_trianglesquares.svg	stimuli_distractor_diamondtriangles.svg	22	yes	second	0	465	5	3	antiphase_hc_soi.wav	1	0	0			1				0	
6.6.1	mac	2023-06-19	16:43:41	16:52:10	507226	5ec06f59c4ceb1481f225bbd	3	1	headphonecheck_testphase	15	test_collectResponse	18	stimuli_target_trianglesquares.svg	stimuli_distractor_diamondtriangles.svg	22	yes	third	0	485	6	1	antiphase_hc_iso.wav	2	0	0			1				0	
6.6.1	mac	2023-06-19	16:43:41	16:52:10	507226	5ec06f59c4ceb1481f225bbd	3	1	stereocheck_calibration	17	stereocheck_calibrationIntro	1	stimuli_target_trianglesquares.svg	stimuli_distractor_diamondtriangles.svg	22	yes	stereocheck_calibrationButton	0	4085	6	1	antiphase_hc_iso.wav	2	0	0			1				0	
6.6.1	mac	2023-06-19	16:43:41	16:52:10	507226	5ec06f59c4ceb1481f225bbd	3	1	stereocheck_testphase	18	stereocheck_test_collectResponse	3	stimuli_target_trianglesquares.svg	stimuli_distractor_diamondtriangles.svg	22	yes	stereocheck_right	1	318	6	1	antiphase_hc_iso.wav	2	1	4	noise_calib_stim_RIGHT.wav	2	1				0	
6.6.1	mac	2023-06-19	16:43:41	16:52:10	507226	5ec06f59c4ceb1481f225bbd	3	1	stereocheck_testphase	18	stereocheck_test_collectResponse	6	stimuli_target_trianglesquares.svg	stimuli_distractor_diamondtriangles.svg	22	yes	stereocheck_left	1	382	6	1	antiphase_hc_iso.wav	2	2	3	noise_calib_stim_LEFT.wav	1	1				0	
6.6.1	mac	2023-06-19	16:43:41	16:52:10	507226	5ec06f59c4ceb1481f225bbd	3	1	stereocheck_testphase	18	stereocheck_test_collectResponse	9	stimuli_target_trianglesquares.svg	stimuli_distractor_diamondtriangles.svg	22	yes	stereocheck_right	0	483	6	1	antiphase_hc_iso.wav	2	3	1	noise_calib_stim_LEFT.wav	1	1				0	
6.6.1	mac	2023-06-19	16:43:41	16:52:10	507226	5ec06f59c4ceb1481f225bbd	3	1	stereocheck_testphase	18	stereocheck_test_collectResponse	12	stimuli_target_trianglesquares.svg	stimuli_distractor_diamondtriangles.svg	22	yes	stereocheck_right	1	268	6	1	antiphase_hc_iso.wav	2	4	6	noise_calib_stim_RIGHT.wav	2	1				0	
6.6.1	mac	2023-06-19	16:43:41	16:52:10	507226	5ec06f59c4ceb1481f225bbd	3	1	stereocheck_testphase	18	stereocheck_test_collectResponse	15	stimuli_target_trianglesquares.svg	stimuli_distractor_diamondtriangles.svg	22	yes	stereocheck_left	1	334	6	1	antiphase_hc_iso.wav	2	5	2	noise_calib_stim_LEFT.wav	1	1				0	
6.6.1	mac	2023-06-19	16:43:41	16:52:10	507226	5ec06f59c4ceb1481f225bbd	3	1	stereocheck_testphase	18	stereocheck_test_collectResponse	18	stimuli_target_trianglesquares.svg	stimuli_distractor_diamondtriangles.svg	22	yes	stereocheck_right	1	301	6	1	antiphase_hc_iso.wav	2	6	5	noise_calib_stim_RIGHT.wav	2	1				0	
6.6.1	mac	2023-06-19	16:43:41	16:52:10	507226	5ec06f59c4ceb1481f225bbd	3	1	DL_practice	21	DL_practice	2	stimuli_target_trianglesquares.svg	stimuli_distractor_diamondtriangles.svg	22	yes	da	1	833	6	1	antiphase_hc_iso.wav	2	6	5	noise_calib_stim_RIGHT.wav	2	8	blb_dichoticlistening_da-da.mp3	da	da	0	left
6.6.1	mac	2023-06-19	16:43:41	16:52:10	507226	5ec06f59c4ceb1481f225bbd	3	1	DL_practice	21	DL_practice	3	stimuli_target_trianglesquares.svg	stimuli_distractor_diamondtriangles.svg	22	yes	ba	1	1200	6	1	antiphase_hc_iso.wav	2	6	5	noise_calib_stim_RIGHT.wav	2	1	blb_dichoticlistening_ba-ba.mp3	ba	ba	0	left
6.6.1	mac	2023-06-19	16:43:41	16:52:10	507226	5ec06f59c4ceb1481f225bbd	3	1	DL_practice	21	DL_practice	4	stimuli_target_trianglesquares.svg	stimuli_distractor_diamondtriangles.svg	22	yes	ta	1	1000	6	1	antiphase_hc_iso.wav	2	6	5	noise_calib_stim_RIGHT.wav	2	36	blb_dichoticlistening_ta-ta.mp3	ta	ta	0	left
6.6.1	mac	2023-06-19	16:43:41	16:52:10	507226	5ec06f59c4ceb1481f225bbd	3	1	DL_practice	21	DL_practice	5	stimuli_target_trianglesquares.svg	stimuli_distractor_diamondtriangles.svg	22	yes	ga	1	1116	6	1	antiphase_hc_iso.wav	2	6	5	noise_calib_stim_RIGHT.wav	2	18	blb_dichoticlistening_ga-ta.mp3	ga	ta	1	left
6.6.1	mac	2023-06-19	16:43:41	16:52:10	507226	5ec06f59c4ceb1481f225bbd	3	1	DL_practice	21	DL_practice	6	stimuli_target_trianglesquares.svg	stimuli_distractor_diamondtriangles.svg	22	yes	ga	1	683	6	1	antiphase_hc_iso.wav	2	6	5	noise_calib_stim_RIGHT.wav	2	15	blb_dichoticlistening_ga-ga.mp3	ga	ga	0	left
6.6.1	mac	2023-06-19	16:43:41	16:52:10	507226	5ec06f59c4ceb1481f225bbd	3	1	DL_practice	21	DL_practice	7	stimuli_target_trianglesquares.svg	stimuli_distractor_diamondtriangles.svg	22	yes	pa	1	883	6	1	antiphase_hc_iso.wav	2	6	5	noise_calib_stim_RIGHT.wav	2	29	blb_dichoticlistening_pa-pa.mp3	pa	pa	0	left
6.6.1	mac	2023-06-19	16:43:41	16:52:10	507226	5ec06f59c4ceb1481f225bbd	3	1	DL_practice	21	DL_practice	8	stimuli_target_trianglesquares.svg	stimuli_distractor_diamondtriangles.svg	22	yes	da	1	1000	6	1	antiphase_hc_iso.wav	2	6	5	noise_calib_stim_RIGHT.wav	2	7	blb_dichoticlistening_da-ba.mp3	da	ba	1	left
6.6.1	mac	2023-06-19	16:43:41	16:52:10	507226	5ec06f59c4ceb1481f225bbd	3	1	DL_practice	21	DL_practice	9	stimuli_target_trianglesquares.svg	stimuli_distractor_diamondtriangles.svg	22	yes	ka	1	866	6	1	antiphase_hc_iso.wav	2	6	5	noise_calib_stim_RIGHT.wav	2	22	blb_dichoticlistening_ka-ka.mp3	ka	ka	0	left
6.6.1	mac	2023-06-19	16:43:41	16:52:10	507226	5ec06f59c4ceb1481f225bbd	3	1	DL_practice	21	DL_practice	10	stimuli_target_trianglesquares.svg	stimuli_distractor_diamondtriangles.svg	22	yes	ka	1	799	6	1	antiphase_hc_iso.wav	2	6	5	noise_calib_stim_RIGHT.wav	2	23	blb_dichoticlistening_ka-pa.mp3	ka	pa	1	left
6.6.1	mac	2023-06-19	16:43:41	16:52:10	507226	5ec06f59c4ceb1481f225bbd	3	1	DL_test	23	DL_test	1	stimuli_target_trianglesquares.svg	stimuli_distractor_diamondtriangles.svg	22	yes	ga	1	699	6	1	antiphase_hc_iso.wav	2	6	5	noise_calib_stim_RIGHT.wav	2	27	blb_dichoticlistening_pa-ga.mp3	pa	ga	1	right
6.6.1	mac	2023-06-19	16:43:41	16:52:10	507226	5ec06f59c4ceb1481f225bbd	3	1	DL_test	23	DL_test	2	stimuli_target_trianglesquares.svg	stimuli_distractor_diamondtriangles.svg	22	yes	ga	1	583	6	1	antiphase_hc_iso.wav	2	6	5	noise_calib_stim_RIGHT.wav	2	9	blb_dichoticlistening_da-ga.mp3	da	ga	1	right
6.6.1	mac	2023-06-19	16:43:41	16:52:10	507226	5ec06f59c4ceb1481f225bbd	3	1	DL_test	23	DL_test	3	stimuli_target_trianglesquares.svg	stimuli_distractor_diamondtriangles.svg	22	yes	pa	0	1566	6	1	antiphase_hc_iso.wav	2	6	5	noise_calib_stim_RIGHT.wav	2	19	blb_dichoticlistening_ka-ba.mp3	ka	ba	1	other
6.6.1	mac	2023-06-19	16:43:41	16:52:10	507226	5ec06f59c4ceb1481f225bbd	3	1	DL_test	23	DL_test	4	stimuli_target_trianglesquares.svg	stimuli_distractor_diamondtriangles.svg	22	yes	ba	1	1549	6	1	antiphase_hc_iso.wav	2	6	5	noise_calib_stim_RIGHT.wav	2	25	blb_dichoticlistening_pa-ba.mp3	pa	ba	1	right
6.6.1	mac	2023-06-19	16:43:41	16:52:10	507226	5ec06f59c4ceb1481f225bbd	3	1	DL_test	23	DL_test	5	stimuli_target_trianglesquares.svg	stimuli_distractor_diamondtriangles.svg	22	yes	ba	1	799	6	1	antiphase_hc_iso.wav	2	6	5	noise_calib_stim_RIGHT.wav	2	6	blb_dichoticlistening_ba-ta.mp3	ba	ta	1	left
6.6.1	mac	2023-06-19	16:43:41	16:52:10	507226	5ec06f59c4ceb1481f225bbd	3	1	DL_test	23	DL_test	6	stimuli_target_trianglesquares.svg	stimuli_distractor_diamondtriangles.svg	22	yes	da	1	648	6	1	antiphase_hc_iso.wav	2	6	5	noise_calib_stim_RIGHT.wav	2	8	blb_dichoticlistening_da-da.mp3	da	da	0	left
6.6.1	mac	2023-06-19	16:43:41	16:52:10	507226	5ec06f59c4ceb1481f225bbd	3	1	DL_test	23	DL_test	7	stimuli_target_trianglesquares.svg	stimuli_distractor_diamondtriangles.svg	22	yes	ba	1	1282	6	1	antiphase_hc_iso.wav	2	6	5	noise_calib_stim_RIGHT.wav	2	4	blb_dichoticlistening_ba-ka.mp3	ba	ka	1	left
6.6.1	mac	2023-06-19	16:43:41	16:52:10	507226	5ec06f59c4ceb1481f225bbd	3	1	DL_test	23	DL_test	8	stimuli_target_trianglesquares.svg	stimuli_distractor_diamondtriangles.svg	22	yes	ka	1	815	6	1	antiphase_hc_iso.wav	2	6	5	noise_calib_stim_RIGHT.wav	2	22	blb_dichoticlistening_ka-ka.mp3	ka	ka	0	left
6.6.1	mac	2023-06-19	16:43:41	16:52:10	507226	5ec06f59c4ceb1481f225bbd	3	1	DL_test	23	DL_test	9	stimuli_target_trianglesquares.svg	stimuli_distractor_diamondtriangles.svg	22	yes	da	1	1048	6	1	antiphase_hc_iso.wav	2	6	5	noise_calib_stim_RIGHT.wav	2	12	blb_dichoticlistening_da-ta.mp3	da	ta	1	left
6.6.1	mac	2023-06-19	16:43:41	16:52:10	507226	5ec06f59c4ceb1481f225bbd	3	1	DL_test	23	DL_test	10	stimuli_target_trianglesquares.svg	stimuli_distractor_diamondtriangles.svg	22	yes	ga	1	598	6	1	antiphase_hc_iso.wav	2	6	5	noise_calib_stim_RIGHT.wav	2	17	blb_dichoticlistening_ga-pa.mp3	ga	pa	1	left
6.6.1	mac	2023-06-19	16:43:41	16:52:10	507226	5ec06f59c4ceb1481f225bbd	3	1	DL_test	23	DL_test	11	stimuli_target_trianglesquares.svg	stimuli_distractor_diamondtriangles.svg	22	yes	ga	1	732	6	1	antiphase_hc_iso.wav	2	6	5	noise_calib_stim_RIGHT.wav	2	21	blb_dichoticlistening_ka-ga.mp3	ka	ga	1	right
6.6.1	mac	2023-06-19	16:43:41	16:52:10	507226	5ec06f59c4ceb1481f225bbd	3	1	DL_test	23	DL_test	12	stimuli_target_trianglesquares.svg	stimuli_distractor_diamondtriangles.svg	22	yes	pa	1	881	6	1	antiphase_hc_iso.wav	2	6	5	noise_calib_stim_RIGHT.wav	2	29	blb_dichoticlistening_pa-pa.mp3	pa	pa	0	left
6.6.1	mac	2023-06-19	16:43:41	16:52:10	507226	5ec06f59c4ceb1481f225bbd	3	1	DL_test	23	DL_test	13	stimuli_target_trianglesquares.svg	stimuli_distractor_diamondtriangles.svg	22	yes	pa	0	1065	6	1	antiphase_hc_iso.wav	2	6	5	noise_calib_stim_RIGHT.wav	2	31	blb_dichoticlistening_ta-ba.mp3	ta	ba	1	other
6.6.1	mac	2023-06-19	16:43:41	16:52:10	507226	5ec06f59c4ceb1481f225bbd	3	1	DL_test	23	DL_test	14	stimuli_target_trianglesquares.svg	stimuli_distractor_diamondtriangles.svg	22	yes	ba	1	1448	6	1	antiphase_hc_iso.wav	2	6	5	noise_calib_stim_RIGHT.wav	2	13	blb_dichoticlistening_ga-ba.mp3	ga	ba	1	right
6.6.1	mac	2023-06-19	16:43:41	16:52:10	507226	5ec06f59c4ceb1481f225bbd	3	1	DL_test	23	DL_test	15	stimuli_target_trianglesquares.svg	stimuli_distractor_diamondtriangles.svg	22	yes	ga	1	865	6	1	antiphase_hc_iso.wav	2	6	5	noise_calib_stim_RIGHT.wav	2	15	blb_dichoticlistening_ga-ga.mp3	ga	ga	0	left
6.6.1	mac	2023-06-19	16:43:41	16:52:10	507226	5ec06f59c4ceb1481f225bbd	3	1	DL_test	23	DL_test	16	stimuli_target_trianglesquares.svg	stimuli_distractor_diamondtriangles.svg	22	yes	da	1	781	6	1	antiphase_hc_iso.wav	2	6	5	noise_calib_stim_RIGHT.wav	2	26	blb_dichoticlistening_pa-da.mp3	pa	da	1	right
6.6.1	mac	2023-06-19	16:43:41	16:52:10	507226	5ec06f59c4ceb1481f225bbd	3	1	DL_test	23	DL_test	17	stimuli_target_trianglesquares.svg	stimuli_distractor_diamondtriangles.svg	22	yes	da	1	531	6	1	antiphase_hc_iso.wav	2	6	5	noise_calib_stim_RIGHT.wav	2	32	blb_dichoticlistening_ta-da.mp3	ta	da	1	right
6.6.1	mac	2023-06-19	16:43:41	16:52:10	507226	5ec06f59c4ceb1481f225bbd	3	1	DL_test	23	DL_test	18	stimuli_target_trianglesquares.svg	stimuli_distractor_diamondtriangles.svg	22	yes	ka	1	881	6	1	antiphase_hc_iso.wav	2	6	5	noise_calib_stim_RIGHT.wav	2	24	blb_dichoticlistening_ka-ta.mp3	ka	ta	1	left
6.6.1	mac	2023-06-19	16:43:41	16:52:10	507226	5ec06f59c4ceb1481f225bbd	3	1	DL_test	23	DL_test	19	stimuli_target_trianglesquares.svg	stimuli_distractor_diamondtriangles.svg	22	yes	ga	1	681	6	1	antiphase_hc_iso.wav	2	6	5	noise_calib_stim_RIGHT.wav	2	14	blb_dichoticlistening_ga-da.mp3	ga	da	1	left
6.6.1	mac	2023-06-19	16:43:41	16:52:10	507226	5ec06f59c4ceb1481f225bbd	3	1	DL_test	23	DL_test	20	stimuli_target_trianglesquares.svg	stimuli_distractor_diamondtriangles.svg	22	yes	da	1	797	6	1	antiphase_hc_iso.wav	2	6	5	noise_calib_stim_RIGHT.wav	2	11	blb_dichoticlistening_da-pa.mp3	da	pa	1	left
6.6.1	mac	2023-06-19	16:43:41	16:52:10	507226	5ec06f59c4ceb1481f225bbd	3	1	DL_test	23	DL_test	21	stimuli_target_trianglesquares.svg	stimuli_distractor_diamondtriangles.svg	22	yes	ba	0	780	6	1	antiphase_hc_iso.wav	2	6	5	noise_calib_stim_RIGHT.wav	2	33	blb_dichoticlistening_ta-ga.mp3	ta	ga	1	other
6.6.1	mac	2023-06-19	16:43:41	16:52:10	507226	5ec06f59c4ceb1481f225bbd	3	1	DL_test	23	DL_test	22	stimuli_target_trianglesquares.svg	stimuli_distractor_diamondtriangles.svg	22	yes	ka	1	631	6	1	antiphase_hc_iso.wav	2	6	5	noise_calib_stim_RIGHT.wav	2	23	blb_dichoticlistening_ka-pa.mp3	ka	pa	1	left
6.6.1	mac	2023-06-19	16:43:41	16:52:10	507226	5ec06f59c4ceb1481f225bbd	3	1	DL_test	23	DL_test	23	stimuli_target_trianglesquares.svg	stimuli_distractor_diamondtriangles.svg	22	yes	ka	1	463	6	1	antiphase_hc_iso.wav	2	6	5	noise_calib_stim_RIGHT.wav	2	34	blb_dichoticlistening_ta-ka.mp3	ta	ka	1	right
6.6.1	mac	2023-06-19	16:43:41	16:52:10	507226	5ec06f59c4ceb1481f225bbd	3	1	DL_test	23	DL_test	24	stimuli_target_trianglesquares.svg	stimuli_distractor_diamondtriangles.svg	22	yes	ba	1	1447	6	1	antiphase_hc_iso.wav	2	6	5	noise_calib_stim_RIGHT.wav	2	2	blb_dichoticlistening_ba-da.mp3	ba	da	1	left
6.6.1	mac	2023-06-19	16:43:41	16:52:10	507226	5ec06f59c4ceb1481f225bbd	3	1	DL_test	23	DL_test	25	stimuli_target_trianglesquares.svg	stimuli_distractor_diamondtriangles.svg	22	yes	ta	1	1581	6	1	antiphase_hc_iso.wav	2	6	5	noise_calib_stim_RIGHT.wav	2	30	blb_dichoticlistening_pa-ta.mp3	pa	ta	1	right
6.6.1	mac	2023-06-19	16:43:41	16:52:10	507226	5ec06f59c4ceb1481f225bbd	3	1	DL_test	23	DL_test	26	stimuli_target_trianglesquares.svg	stimuli_distractor_diamondtriangles.svg	22	yes	ka	1	913	6	1	antiphase_hc_iso.wav	2	6	5	noise_calib_stim_RIGHT.wav	2	28	blb_dichoticlistening_pa-ka.mp3	pa	ka	1	right
