build	computer.platform	date	time	timestamp	time_elapsed_ms	subject	group	session	blockcode	blocknum	trialcode	trialnum	stimulus_left	stimulus_right	stim_index	target_present	response	correct	latency	headphonecheck_countTestTrials	headphonecheck_index	headphonecheck_testSound	headphonecheck_correctResponse	stereocheck_countTestTrials	stereocheck_index	stereocheck_testSound	stereocheck_correctResponse	DL_index	DL_soundfile	DL_leftSound	DL_rightSound	DL_dualSound	DL_choice
6.6.1	win	2023-06-27	11:19:16	11:22:17	177490	5717864c94d4fc001297198d	4	1	practice_z	5	practice_z	1	stimuli_distractor_diamondtriangles.svg	stimuli_target_rectangletriangles.svg	7	yes	0	0	2000	0	0			0	0			1				0	
6.6.1	win	2023-06-27	11:19:16	11:22:17	177490	5717864c94d4fc001297198d	4	1	practice_z	5	advance_on_keypress_ZEE	2	stimuli_distractor_diamondtriangles.svg	stimuli_target_rectangletriangles.svg	7	yes	57	0	1821	0	0			0	0			1				0	
6.6.1	win	2023-06-27	11:19:16	11:22:23	182956	5717864c94d4fc001297198d	4	1	practice_z	5	practice_z	3	stimuli_distractor_trianglediamonds.svg	stimuli_target_diamondrectangles.svg	12	yes	0	0	2000	0	0			0	0			1				0	
6.6.1	win	2023-06-27	11:19:16	11:22:23	182956	5717864c94d4fc001297198d	4	1	practice_z	5	advance_on_keypress_ZEE	4	stimuli_distractor_trianglediamonds.svg	stimuli_target_diamondrectangles.svg	12	yes	57	0	854	0	0			0	0			1				0	
6.6.1	win	2023-06-27	11:19:16	11:22:26	185792	5717864c94d4fc001297198d	4	1	practice_z	5	practice_z	5	stimuli_distractor_trianglediamonds.svg	stimuli_target_squarediamonds.svg	11	yes	44	1	336	0	0			0	0			1				0	
6.6.1	win	2023-06-27	11:19:16	11:22:26	185792	5717864c94d4fc001297198d	4	1	practice_z	5	advance_on_keypress_ZEE	6	stimuli_distractor_trianglediamonds.svg	stimuli_target_squarediamonds.svg	11	yes	57	0	1590	0	0			0	0			1				0	
6.6.1	win	2023-06-27	11:19:16	11:22:29	189325	5717864c94d4fc001297198d	4	1	practice_z	5	practice_z	7	stimuli_target_squarediamonds.svg	stimuli_distractor_trianglediamonds.svg	5	yes	44	1	302	0	0			0	0			1				0	
6.6.1	win	2023-06-27	11:19:16	11:22:29	189325	5717864c94d4fc001297198d	4	1	practice_z	5	advance_on_keypress_ZEE	8	stimuli_target_squarediamonds.svg	stimuli_distractor_trianglediamonds.svg	5	yes	57	0	722	0	0			0	0			1				0	
6.6.1	win	2023-06-27	11:19:16	11:22:32	191964	5717864c94d4fc001297198d	4	1	practice_z	5	practice_z	9	stimuli_target_diamondsquares.svg	stimuli_distractor_diamondtriangles.svg	3	yes	44	1	275	0	0			0	0			1				0	
6.6.1	win	2023-06-27	11:19:16	11:22:32	191964	5717864c94d4fc001297198d	4	1	practice_z	5	advance_on_keypress_ZEE	10	stimuli_target_diamondsquares.svg	stimuli_distractor_diamondtriangles.svg	3	yes	57	0	788	0	0			0	0			1				0	
6.6.1	win	2023-06-27	11:19:16	11:22:35	194727	5717864c94d4fc001297198d	4	1	practice_z	5	practice_z	11	stimuli_distractor_trianglediamonds.svg	stimuli_target_rectanglediamonds.svg	10	yes	44	1	338	0	0			0	0			1				0	
6.6.1	win	2023-06-27	11:19:16	11:22:35	194727	5717864c94d4fc001297198d	4	1	practice_z	5	advance_on_keypress_ZEE	12	stimuli_distractor_trianglediamonds.svg	stimuli_target_rectanglediamonds.svg	10	yes	57	0	1047	0	0			0	0			1				0	
6.6.1	win	2023-06-27	11:19:16	11:22:39	199422	5717864c94d4fc001297198d	4	1	practice_z	5	practice_z	13	stimuli_distractor_trianglediamonds.svg	stimuli_distractor_diamondtriangles.svg	16	no	0	1	2000	0	0			0	0			1				0	
6.6.1	win	2023-06-27	11:19:16	11:22:39	199422	5717864c94d4fc001297198d	4	1	practice_z	5	advance_on_keypress_ZEE	14	stimuli_distractor_trianglediamonds.svg	stimuli_distractor_diamondtriangles.svg	16	no	57	0	729	0	0			0	0			1				0	
6.6.1	win	2023-06-27	11:19:16	11:22:44	203806	5717864c94d4fc001297198d	4	1	practice_z	5	practice_z	15	stimuli_distractor_diamondtriangles.svg	stimuli_distractor_trianglediamonds.svg	14	no	0	1	2000	0	0			0	0			1				0	
6.6.1	win	2023-06-27	11:19:16	11:22:44	203806	5717864c94d4fc001297198d	4	1	practice_z	5	advance_on_keypress_ZEE	16	stimuli_distractor_diamondtriangles.svg	stimuli_distractor_trianglediamonds.svg	14	no	57	0	645	0	0			0	0			1				0	
6.6.1	win	2023-06-27	11:19:16	11:22:48	208106	5717864c94d4fc001297198d	4	1	practice_z	5	practice_z	17	stimuli_distractor_diamondtriangles.svg	stimuli_distractor_diamondtriangles.svg	13	no	0	1	2000	0	0			0	0			1				0	
6.6.1	win	2023-06-27	11:19:16	11:22:48	208106	5717864c94d4fc001297198d	4	1	practice_z	5	advance_on_keypress_ZEE	18	stimuli_distractor_diamondtriangles.svg	stimuli_distractor_diamondtriangles.svg	13	no	57	0	1693	0	0			0	0			1				0	
6.6.1	win	2023-06-27	11:19:16	11:22:52	212293	5717864c94d4fc001297198d	4	1	practice_z	5	practice_z	19	stimuli_target_rectanglediamonds.svg	stimuli_distractor_trianglediamonds.svg	4	yes	44	1	854	0	0			0	0			1				0	
6.6.1	win	2023-06-27	11:19:16	11:22:52	212293	5717864c94d4fc001297198d	4	1	practice_z	5	advance_on_keypress_ZEE	20	stimuli_target_rectanglediamonds.svg	stimuli_distractor_trianglediamonds.svg	4	yes	57	0	1232	0	0			0	0			1				0	
6.6.1	win	2023-06-27	11:19:16	11:22:57	217172	5717864c94d4fc001297198d	4	1	practice_z	5	practice_z	21	stimuli_distractor_trianglediamonds.svg	stimuli_distractor_trianglediamonds.svg	15	no	0	1	2000	0	0			0	0			1				0	
6.6.1	win	2023-06-27	11:19:16	11:22:57	217172	5717864c94d4fc001297198d	4	1	practice_z	5	advance_on_keypress_ZEE	22	stimuli_distractor_trianglediamonds.svg	stimuli_distractor_trianglediamonds.svg	15	no	57	0	420	0	0			0	0			1				0	
6.6.1	win	2023-06-27	11:19:16	11:23:01	221239	5717864c94d4fc001297198d	4	1	practice_z	5	practice_z	23	stimuli_distractor_diamondtriangles.svg	stimuli_target_trianglerectangles.svg	9	yes	0	0	2000	0	0			0	0			1				0	
6.6.1	win	2023-06-27	11:19:16	11:23:01	221239	5717864c94d4fc001297198d	4	1	practice_z	5	advance_on_keypress_ZEE	24	stimuli_distractor_diamondtriangles.svg	stimuli_target_trianglerectangles.svg	9	yes	57	0	440	0	0			0	0			1				0	
6.6.1	win	2023-06-27	11:19:16	11:23:05	225322	5717864c94d4fc001297198d	4	1	practice_z	5	practice_z	25	stimuli_target_diamondsquares.svg	stimuli_distractor_trianglediamonds.svg	6	yes	0	0	2000	0	0			0	0			1				0	
6.6.1	win	2023-06-27	11:19:16	11:23:05	225322	5717864c94d4fc001297198d	4	1	practice_z	5	advance_on_keypress_ZEE	26	stimuli_target_diamondsquares.svg	stimuli_distractor_trianglediamonds.svg	6	yes	57	0	581	0	0			0	0			1				0	
6.6.1	win	2023-06-27	11:19:16	11:23:08	228113	5717864c94d4fc001297198d	4	1	practice_z	5	practice_z	27	stimuli_target_squarediamonds.svg	stimuli_distractor_diamondtriangles.svg	2	yes	44	1	556	0	0			0	0			1				0	
6.6.1	win	2023-06-27	11:19:16	11:23:08	228113	5717864c94d4fc001297198d	4	1	practice_z	5	advance_on_keypress_ZEE	28	stimuli_target_squarediamonds.svg	stimuli_distractor_diamondtriangles.svg	2	yes	57	0	574	0	0			0	0			1				0	
6.6.1	win	2023-06-27	11:19:16	11:23:11	231235	5717864c94d4fc001297198d	4	1	practice_z	5	practice_z	29	stimuli_distractor_diamondtriangles.svg	stimuli_target_diamondrectangles.svg	8	yes	44	1	913	0	0			0	0			1				0	
6.6.1	win	2023-06-27	11:19:16	11:23:11	231235	5717864c94d4fc001297198d	4	1	practice_z	5	advance_on_keypress_ZEE	30	stimuli_distractor_diamondtriangles.svg	stimuli_target_diamondrectangles.svg	8	yes	57	0	490	0	0			0	0			1				0	
6.6.1	win	2023-06-27	11:19:16	11:23:14	234198	5717864c94d4fc001297198d	4	1	practice_z	5	practice_z	31	stimuli_target_rectanglediamonds.svg	stimuli_distractor_diamondtriangles.svg	1	yes	44	1	826	0	0			0	0			1				0	
6.6.1	win	2023-06-27	11:19:16	11:23:14	234198	5717864c94d4fc001297198d	4	1	practice_z	5	advance_on_keypress_ZEE	32	stimuli_target_rectanglediamonds.svg	stimuli_distractor_diamondtriangles.svg	1	yes	57	0	435	0	0			0	0			1				0	
6.6.1	win	2023-06-27	11:19:16	11:23:23	243169	5717864c94d4fc001297198d	4	1	main_z	7	main_z	1	stimuli_target_rectangletriangles.svg	stimuli_distractor_diamondtriangles.svg	5	yes	44	1	581	0	0			0	0			1				0	
6.6.1	win	2023-06-27	11:19:16	11:23:23	243169	5717864c94d4fc001297198d	4	1	main_z	7	advance_on_keypress_ZEE	2	stimuli_target_rectangletriangles.svg	stimuli_distractor_diamondtriangles.svg	5	yes	57	0	965	0	0			0	0			1				0	
6.6.1	win	2023-06-27	11:19:16	11:23:25	245504	5717864c94d4fc001297198d	4	1	main_z	7	main_z	3	stimuli_target_diamondrectangles.svg	stimuli_distractor_diamondtriangles.svg	23	yes	44	1	717	0	0			0	0			1				0	
6.6.1	win	2023-06-27	11:19:16	11:23:25	245504	5717864c94d4fc001297198d	4	1	main_z	7	advance_on_keypress_ZEE	4	stimuli_target_diamondrectangles.svg	stimuli_distractor_diamondtriangles.svg	23	yes	57	0	640	0	0			0	0			1				0	
6.6.1	win	2023-06-27	11:19:16	11:23:27	247154	5717864c94d4fc001297198d	4	1	main_z	7	main_z	5	stimuli_target_trianglesquares.svg	stimuli_distractor_diamondtriangles.svg	22	yes	44	1	366	0	0			0	0			1				0	
6.6.1	win	2023-06-27	11:19:16	11:23:27	247154	5717864c94d4fc001297198d	4	1	main_z	7	advance_on_keypress_ZEE	6	stimuli_target_trianglesquares.svg	stimuli_distractor_diamondtriangles.svg	22	yes	57	0	702	0	0			0	0			1				0	
6.6.1	win	2023-06-27	11:19:16	11:23:29	249190	5717864c94d4fc001297198d	4	1	main_z	7	main_z	7	stimuli_target_squaretriangles.svg	stimuli_distractor_trianglediamonds.svg	3	yes	44	1	686	0	0			0	0			1				0	
6.6.1	win	2023-06-27	11:19:16	11:23:29	249190	5717864c94d4fc001297198d	4	1	main_z	7	advance_on_keypress_ZEE	8	stimuli_target_squaretriangles.svg	stimuli_distractor_trianglediamonds.svg	3	yes	57	0	827	0	0			0	0			1				0	
6.6.1	win	2023-06-27	11:19:16	11:23:31	250928	5717864c94d4fc001297198d	4	1	main_z	7	main_z	9	stimuli_distractor_trianglediamonds.svg	stimuli_target_diamondrectangles.svg	27	yes	44	1	274	0	0			0	0			1				0	
6.6.1	win	2023-06-27	11:19:16	11:23:31	250928	5717864c94d4fc001297198d	4	1	main_z	7	advance_on_keypress_ZEE	10	stimuli_distractor_trianglediamonds.svg	stimuli_target_diamondrectangles.svg	27	yes	57	0	717	0	0			0	0			1				0	
6.6.1	win	2023-06-27	11:19:16	11:23:33	252858	5717864c94d4fc001297198d	4	1	main_z	7	main_z	11	stimuli_target_trianglerectangles.svg	stimuli_distractor_diamondtriangles.svg	21	yes	44	1	570	0	0			0	0			1				0	
6.6.1	win	2023-06-27	11:19:16	11:23:33	252858	5717864c94d4fc001297198d	4	1	main_z	7	advance_on_keypress_ZEE	12	stimuli_target_trianglerectangles.svg	stimuli_distractor_diamondtriangles.svg	21	yes	57	0	1909	0	0			0	0			1				0	
6.6.1	win	2023-06-27	11:19:16	11:23:37	257404	5717864c94d4fc001297198d	4	1	main_z	7	main_z	13	stimuli_distractor_trianglediamonds.svg	stimuli_target_trianglerectangles.svg	25	yes	0	0	2000	0	0			0	0			1				0	
6.6.1	win	2023-06-27	11:19:16	11:23:37	257404	5717864c94d4fc001297198d	4	1	main_z	7	advance_on_keypress_ZEE	14	stimuli_distractor_trianglediamonds.svg	stimuli_target_trianglerectangles.svg	25	yes	57	0	660	0	0			0	0			1				0	
6.6.1	win	2023-06-27	11:19:16	11:23:39	259247	5717864c94d4fc001297198d	4	1	main_z	7	main_z	15	stimuli_target_trianglerectangles.svg	stimuli_distractor_trianglediamonds.svg	17	yes	44	1	543	0	0			0	0			1				0	
6.6.1	win	2023-06-27	11:19:16	11:23:39	259247	5717864c94d4fc001297198d	4	1	main_z	7	advance_on_keypress_ZEE	16	stimuli_target_trianglerectangles.svg	stimuli_distractor_trianglediamonds.svg	17	yes	57	0	695	0	0			0	0			1				0	
6.6.1	win	2023-06-27	11:19:16	11:23:41	261217	5717864c94d4fc001297198d	4	1	main_z	7	main_z	17	stimuli_distractor_diamondtriangles.svg	stimuli_target_trianglesquares.svg	30	yes	44	1	648	0	0			0	0			1				0	
6.6.1	win	2023-06-27	11:19:16	11:23:41	261217	5717864c94d4fc001297198d	4	1	main_z	7	advance_on_keypress_ZEE	18	stimuli_distractor_diamondtriangles.svg	stimuli_target_trianglesquares.svg	30	yes	57	0	621	0	0			0	0			1				0	
6.6.1	win	2023-06-27	11:19:16	11:23:44	264487	5717864c94d4fc001297198d	4	1	main_z	7	main_z	19	stimuli_distractor_diamondtriangles.svg	stimuli_distractor_trianglediamonds.svg	37	no	0	1	2000	0	0			0	0			1				0	
6.6.1	win	2023-06-27	11:19:16	11:23:44	264487	5717864c94d4fc001297198d	4	1	main_z	7	advance_on_keypress_ZEE	20	stimuli_distractor_diamondtriangles.svg	stimuli_distractor_trianglediamonds.svg	37	no	57	0	464	0	0			0	0			1				0	
6.6.1	win	2023-06-27	11:19:16	11:23:48	267605	5717864c94d4fc001297198d	4	1	main_z	7	main_z	21	stimuli_distractor_trianglediamonds.svg	stimuli_distractor_diamondtriangles.svg	36	no	0	1	2000	0	0			0	0			1				0	
6.6.1	win	2023-06-27	11:19:16	11:23:48	267605	5717864c94d4fc001297198d	4	1	main_z	7	advance_on_keypress_ZEE	22	stimuli_distractor_trianglediamonds.svg	stimuli_distractor_diamondtriangles.svg	36	no	57	0	573	0	0			0	0			1				0	
6.6.1	win	2023-06-27	11:19:16	11:23:49	269337	5717864c94d4fc001297198d	4	1	main_z	7	main_z	23	stimuli_distractor_trianglediamonds.svg	stimuli_target_squarediamonds.svg	12	yes	44	1	511	0	0			0	0			1				0	
6.6.1	win	2023-06-27	11:19:16	11:23:49	269337	5717864c94d4fc001297198d	4	1	main_z	7	advance_on_keypress_ZEE	24	stimuli_distractor_trianglediamonds.svg	stimuli_target_squarediamonds.svg	12	yes	57	0	1814	0	0			0	0			1				0	
6.6.1	win	2023-06-27	11:19:16	11:23:52	272488	5717864c94d4fc001297198d	4	1	main_z	7	main_z	25	stimuli_distractor_diamondtriangles.svg	stimuli_target_diamondrectangles.svg	31	yes	44	1	684	0	0			0	0			1				0	
6.6.1	win	2023-06-27	11:19:16	11:23:52	272488	5717864c94d4fc001297198d	4	1	main_z	7	advance_on_keypress_ZEE	26	stimuli_distractor_diamondtriangles.svg	stimuli_target_diamondrectangles.svg	31	yes	57	0	553	0	0			0	0			1				0	
6.6.1	win	2023-06-27	11:19:16	11:23:54	274161	5717864c94d4fc001297198d	4	1	main_z	7	main_z	27	stimuli_distractor_trianglediamonds.svg	stimuli_target_rectangletriangles.svg	9	yes	44	1	474	0	0			0	0			1				0	
6.6.1	win	2023-06-27	11:19:16	11:23:54	274161	5717864c94d4fc001297198d	4	1	main_z	7	advance_on_keypress_ZEE	28	stimuli_distractor_trianglediamonds.svg	stimuli_target_rectangletriangles.svg	9	yes	57	0	615	0	0			0	0			1				0	
6.6.1	win	2023-06-27	11:19:16	11:23:56	275737	5717864c94d4fc001297198d	4	1	main_z	7	main_z	29	stimuli_target_squarediamonds.svg	stimuli_distractor_trianglediamonds.svg	4	yes	44	1	318	0	0			0	0			1				0	
6.6.1	win	2023-06-27	11:19:16	11:23:56	275737	5717864c94d4fc001297198d	4	1	main_z	7	advance_on_keypress_ZEE	30	stimuli_target_squarediamonds.svg	stimuli_distractor_trianglediamonds.svg	4	yes	57	0	550	0	0			0	0			1				0	
6.6.1	win	2023-06-27	11:19:16	11:23:59	278937	5717864c94d4fc001297198d	4	1	main_z	7	main_z	31	stimuli_distractor_trianglediamonds.svg	stimuli_distractor_diamondtriangles.svg	35	no	0	1	2000	0	0			0	0			1				0	
6.6.1	win	2023-06-27	11:19:16	11:23:59	278937	5717864c94d4fc001297198d	4	1	main_z	7	advance_on_keypress_ZEE	32	stimuli_distractor_trianglediamonds.svg	stimuli_distractor_diamondtriangles.svg	35	no	57	0	410	0	0			0	0			1				0	
6.6.1	win	2023-06-27	11:19:16	11:24:00	280271	5717864c94d4fc001297198d	4	1	main_z	7	main_z	33	stimuli_distractor_diamondtriangles.svg	stimuli_distractor_trianglediamonds.svg	38	no	44	0	283	0	0			0	0			1				0	
6.6.1	win	2023-06-27	11:19:16	11:24:00	280271	5717864c94d4fc001297198d	4	1	main_z	7	advance_on_keypress_ZEE	34	stimuli_distractor_diamondtriangles.svg	stimuli_distractor_trianglediamonds.svg	38	no	57	0	749	0	0			0	0			1				0	
6.6.1	win	2023-06-27	11:19:16	11:24:02	282150	5717864c94d4fc001297198d	4	1	main_z	7	main_z	35	stimuli_target_rectanglediamonds.svg	stimuli_distractor_diamondtriangles.svg	6	yes	44	1	480	0	0			0	0			1				0	
6.6.1	win	2023-06-27	11:19:16	11:24:02	282150	5717864c94d4fc001297198d	4	1	main_z	7	advance_on_keypress_ZEE	36	stimuli_target_rectanglediamonds.svg	stimuli_distractor_diamondtriangles.svg	6	yes	57	0	535	0	0			0	0			1				0	
6.6.1	win	2023-06-27	11:19:16	11:24:05	285337	5717864c94d4fc001297198d	4	1	main_z	7	main_z	37	stimuli_distractor_trianglediamonds.svg	stimuli_distractor_trianglediamonds.svg	33	no	0	1	2000	0	0			0	0			1				0	
6.6.1	win	2023-06-27	11:19:16	11:24:05	285337	5717864c94d4fc001297198d	4	1	main_z	7	advance_on_keypress_ZEE	38	stimuli_distractor_trianglediamonds.svg	stimuli_distractor_trianglediamonds.svg	33	no	57	0	841	0	0			0	0			1				0	
6.6.1	win	2023-06-27	11:19:16	11:24:07	287267	5717864c94d4fc001297198d	4	1	main_z	7	main_z	39	stimuli_distractor_trianglediamonds.svg	stimuli_target_rectanglediamonds.svg	10	yes	44	1	447	0	0			0	0			1				0	
6.6.1	win	2023-06-27	11:19:16	11:24:07	287267	5717864c94d4fc001297198d	4	1	main_z	7	advance_on_keypress_ZEE	40	stimuli_distractor_trianglediamonds.svg	stimuli_target_rectanglediamonds.svg	10	yes	57	0	648	0	0			0	0			1				0	
6.6.1	win	2023-06-27	11:19:16	11:24:09	289097	5717864c94d4fc001297198d	4	1	main_z	7	main_z	41	stimuli_distractor_trianglediamonds.svg	stimuli_target_squaretriangles.svg	11	yes	44	1	527	0	0			0	0			1				0	
6.6.1	win	2023-06-27	11:19:16	11:24:09	289097	5717864c94d4fc001297198d	4	1	main_z	7	advance_on_keypress_ZEE	42	stimuli_distractor_trianglediamonds.svg	stimuli_target_squaretriangles.svg	11	yes	57	0	504	0	0			0	0			1				0	
6.6.1	win	2023-06-27	11:19:16	11:24:11	290694	5717864c94d4fc001297198d	4	1	main_z	7	main_z	43	stimuli_distractor_diamondtriangles.svg	stimuli_target_rectangletriangles.svg	13	yes	44	1	457	0	0			0	0			1				0	
6.6.1	win	2023-06-27	11:19:16	11:24:11	290694	5717864c94d4fc001297198d	4	1	main_z	7	advance_on_keypress_ZEE	44	stimuli_distractor_diamondtriangles.svg	stimuli_target_rectangletriangles.svg	13	yes	57	0	461	0	0			0	0			1				0	
6.6.1	win	2023-06-27	11:19:16	11:24:14	293787	5717864c94d4fc001297198d	4	1	main_z	7	main_z	45	stimuli_distractor_diamondtriangles.svg	stimuli_distractor_diamondtriangles.svg	39	no	0	1	2000	0	0			0	0			1				0	
6.6.1	win	2023-06-27	11:19:16	11:24:14	293787	5717864c94d4fc001297198d	4	1	main_z	7	advance_on_keypress_ZEE	46	stimuli_distractor_diamondtriangles.svg	stimuli_distractor_diamondtriangles.svg	39	no	57	0	651	0	0			0	0			1				0	
6.6.1	win	2023-06-27	11:19:16	11:24:15	295381	5717864c94d4fc001297198d	4	1	main_z	7	main_z	47	stimuli_target_diamondsquares.svg	stimuli_distractor_trianglediamonds.svg	20	yes	44	1	295	0	0			0	0			1				0	
6.6.1	win	2023-06-27	11:19:16	11:24:15	295381	5717864c94d4fc001297198d	4	1	main_z	7	advance_on_keypress_ZEE	48	stimuli_target_diamondsquares.svg	stimuli_distractor_trianglediamonds.svg	20	yes	57	0	831	0	0			0	0			1				0	
6.6.1	win	2023-06-27	11:19:16	11:24:17	297369	5717864c94d4fc001297198d	4	1	main_z	7	main_z	49	stimuli_distractor_trianglediamonds.svg	stimuli_target_trianglesquares.svg	26	yes	44	1	503	0	0			0	0			1				0	
6.6.1	win	2023-06-27	11:19:16	11:24:17	297369	5717864c94d4fc001297198d	4	1	main_z	7	advance_on_keypress_ZEE	50	stimuli_distractor_trianglediamonds.svg	stimuli_target_trianglesquares.svg	26	yes	57	0	631	0	0			0	0			1				0	
6.6.1	win	2023-06-27	11:19:16	11:24:19	299036	5717864c94d4fc001297198d	4	1	main_z	7	main_z	51	stimuli_target_squarediamonds.svg	stimuli_distractor_diamondtriangles.svg	8	yes	44	1	372	0	0			0	0			1				0	
6.6.1	win	2023-06-27	11:19:16	11:24:19	299036	5717864c94d4fc001297198d	4	1	main_z	7	advance_on_keypress_ZEE	52	stimuli_target_squarediamonds.svg	stimuli_distractor_diamondtriangles.svg	8	yes	57	0	577	0	0			0	0			1				0	
6.6.1	win	2023-06-27	11:19:16	11:24:22	302253	5717864c94d4fc001297198d	4	1	main_z	7	main_z	53	stimuli_distractor_trianglediamonds.svg	stimuli_distractor_trianglediamonds.svg	34	no	0	1	2000	0	0			0	0			1				0	
6.6.1	win	2023-06-27	11:19:16	11:24:22	302253	5717864c94d4fc001297198d	4	1	main_z	7	advance_on_keypress_ZEE	54	stimuli_distractor_trianglediamonds.svg	stimuli_distractor_trianglediamonds.svg	34	no	57	0	452	0	0			0	0			1				0	
6.6.1	win	2023-06-27	11:19:16	11:24:24	303648	5717864c94d4fc001297198d	4	1	main_z	7	main_z	55	stimuli_target_diamondsquares.svg	stimuli_distractor_diamondtriangles.svg	24	yes	44	1	295	0	0			0	0			1				0	
6.6.1	win	2023-06-27	11:19:16	11:24:24	303648	5717864c94d4fc001297198d	4	1	main_z	7	advance_on_keypress_ZEE	56	stimuli_target_diamondsquares.svg	stimuli_distractor_diamondtriangles.svg	24	yes	57	0	685	0	0			0	0			1				0	
6.6.1	win	2023-06-27	11:19:16	11:24:25	305353	5717864c94d4fc001297198d	4	1	main_z	7	main_z	57	stimuli_target_diamondrectangles.svg	stimuli_distractor_trianglediamonds.svg	19	yes	44	1	371	0	0			0	0			1				0	
6.6.1	win	2023-06-27	11:19:16	11:24:25	305353	5717864c94d4fc001297198d	4	1	main_z	7	advance_on_keypress_ZEE	58	stimuli_target_diamondrectangles.svg	stimuli_distractor_trianglediamonds.svg	19	yes	57	0	506	0	0			0	0			1				0	
6.6.1	win	2023-06-27	11:19:16	11:24:28	308503	5717864c94d4fc001297198d	4	1	main_z	7	main_z	59	stimuli_distractor_diamondtriangles.svg	stimuli_target_squarediamonds.svg	16	yes	0	0	2000	0	0			0	0			1				0	
6.6.1	win	2023-06-27	11:19:16	11:24:28	308503	5717864c94d4fc001297198d	4	1	main_z	7	advance_on_keypress_ZEE	60	stimuli_distractor_diamondtriangles.svg	stimuli_target_squarediamonds.svg	16	yes	57	0	621	0	0			0	0			1				0	
6.6.1	win	2023-06-27	11:19:16	11:24:30	310108	5717864c94d4fc001297198d	4	1	main_z	7	main_z	61	stimuli_target_rectanglediamonds.svg	stimuli_distractor_trianglediamonds.svg	2	yes	44	1	338	0	0			0	0			1				0	
6.6.1	win	2023-06-27	11:19:16	11:24:30	310108	5717864c94d4fc001297198d	4	1	main_z	7	advance_on_keypress_ZEE	62	stimuli_target_rectanglediamonds.svg	stimuli_distractor_trianglediamonds.svg	2	yes	57	0	564	0	0			0	0			1				0	
6.6.1	win	2023-06-27	11:19:16	11:24:32	311642	5717864c94d4fc001297198d	4	1	main_z	7	main_z	63	stimuli_target_rectangletriangles.svg	stimuli_distractor_trianglediamonds.svg	1	yes	44	1	322	0	0			0	0			1				0	
6.6.1	win	2023-06-27	11:19:16	11:24:32	311642	5717864c94d4fc001297198d	4	1	main_z	7	advance_on_keypress_ZEE	64	stimuli_target_rectangletriangles.svg	stimuli_distractor_trianglediamonds.svg	1	yes	57	0	475	0	0			0	0			1				0	
6.6.1	win	2023-06-27	11:19:16	11:24:33	313399	5717864c94d4fc001297198d	4	1	main_z	7	main_z	65	stimuli_target_trianglesquares.svg	stimuli_distractor_trianglediamonds.svg	18	yes	44	1	646	0	0			0	0			1				0	
6.6.1	win	2023-06-27	11:19:16	11:24:33	313399	5717864c94d4fc001297198d	4	1	main_z	7	advance_on_keypress_ZEE	66	stimuli_target_trianglesquares.svg	stimuli_distractor_trianglediamonds.svg	18	yes	57	0	422	0	0			0	0			1				0	
6.6.1	win	2023-06-27	11:19:16	11:24:35	314922	5717864c94d4fc001297198d	4	1	main_z	7	main_z	67	stimuli_distractor_diamondtriangles.svg	stimuli_target_rectanglediamonds.svg	14	yes	44	1	453	0	0			0	0			1				0	
6.6.1	win	2023-06-27	11:19:16	11:24:35	314922	5717864c94d4fc001297198d	4	1	main_z	7	advance_on_keypress_ZEE	68	stimuli_distractor_diamondtriangles.svg	stimuli_target_rectanglediamonds.svg	14	yes	57	0	493	0	0			0	0			1				0	
6.6.1	win	2023-06-27	11:19:16	11:24:38	318053	5717864c94d4fc001297198d	4	1	main_z	7	main_z	69	stimuli_distractor_diamondtriangles.svg	stimuli_distractor_diamondtriangles.svg	40	no	0	1	2000	0	0			0	0			1				0	
6.6.1	win	2023-06-27	11:19:16	11:24:38	318053	5717864c94d4fc001297198d	4	1	main_z	7	advance_on_keypress_ZEE	70	stimuli_distractor_diamondtriangles.svg	stimuli_distractor_diamondtriangles.svg	40	no	57	0	444	0	0			0	0			1				0	
6.6.1	win	2023-06-27	11:19:16	11:24:40	319586	5717864c94d4fc001297198d	4	1	main_z	7	main_z	71	stimuli_target_squaretriangles.svg	stimuli_distractor_diamondtriangles.svg	7	yes	44	1	451	0	0			0	0			1				0	
6.6.1	win	2023-06-27	11:19:16	11:24:40	319586	5717864c94d4fc001297198d	4	1	main_z	7	advance_on_keypress_ZEE	72	stimuli_target_squaretriangles.svg	stimuli_distractor_diamondtriangles.svg	7	yes	57	0	775	0	0			0	0			1				0	
6.6.1	win	2023-06-27	11:19:16	11:24:43	323003	5717864c94d4fc001297198d	4	1	main_z	7	main_z	73	stimuli_distractor_diamondtriangles.svg	stimuli_target_diamondsquares.svg	32	yes	0	0	2000	0	0			0	0			1				0	
6.6.1	win	2023-06-27	11:19:16	11:24:43	323003	5717864c94d4fc001297198d	4	1	main_z	7	advance_on_keypress_ZEE	74	stimuli_distractor_diamondtriangles.svg	stimuli_target_diamondsquares.svg	32	yes	57	0	615	0	0			0	0			1				0	
6.6.1	win	2023-06-27	11:19:16	11:24:45	324686	5717864c94d4fc001297198d	4	1	main_z	7	main_z	75	stimuli_distractor_diamondtriangles.svg	stimuli_target_squaretriangles.svg	15	yes	44	1	416	0	0			0	0			1				0	
6.6.1	win	2023-06-27	11:19:16	11:24:45	324686	5717864c94d4fc001297198d	4	1	main_z	7	advance_on_keypress_ZEE	76	stimuli_distractor_diamondtriangles.svg	stimuli_target_squaretriangles.svg	15	yes	57	0	592	0	0			0	0			1				0	
6.6.1	win	2023-06-27	11:19:16	11:24:46	326194	5717864c94d4fc001297198d	4	1	main_z	7	main_z	77	stimuli_distractor_diamondtriangles.svg	stimuli_target_trianglerectangles.svg	29	yes	44	1	275	0	0			0	0			1				0	
6.6.1	win	2023-06-27	11:19:16	11:24:46	326194	5717864c94d4fc001297198d	4	1	main_z	7	advance_on_keypress_ZEE	78	stimuli_distractor_diamondtriangles.svg	stimuli_target_trianglerectangles.svg	29	yes	57	0	451	0	0			0	0			1				0	
6.6.1	win	2023-06-27	11:19:16	11:24:48	327610	5717864c94d4fc001297198d	4	1	main_z	7	main_z	79	stimuli_distractor_trianglediamonds.svg	stimuli_target_diamondsquares.svg	28	yes	44	1	324	0	0			0	0			1				0	
6.6.1	win	2023-06-27	11:19:16	11:24:48	327610	5717864c94d4fc001297198d	4	1	main_z	7	advance_on_keypress_ZEE	80	stimuli_distractor_trianglediamonds.svg	stimuli_target_diamondsquares.svg	28	yes	57	0	567	0	0			0	0			1				0	
6.6.1	win	2023-06-27	11:19:16	11:24:49	329073	5717864c94d4fc001297198d	4	1	main_z	7	main_z	81	stimuli_target_diamondrectangles.svg	stimuli_distractor_diamondtriangles.svg	23	yes	44	1	253	0	0			0	0			1				0	
6.6.1	win	2023-06-27	11:19:16	11:24:49	329073	5717864c94d4fc001297198d	4	1	main_z	7	advance_on_keypress_ZEE	82	stimuli_target_diamondrectangles.svg	stimuli_distractor_diamondtriangles.svg	23	yes	57	0	430	0	0			0	0			1				0	
6.6.1	win	2023-06-27	11:19:16	11:24:50	330410	5717864c94d4fc001297198d	4	1	main_z	7	main_z	83	stimuli_target_diamondrectangles.svg	stimuli_distractor_trianglediamonds.svg	19	yes	44	1	257	0	0			0	0			1				0	
6.6.1	win	2023-06-27	11:19:16	11:24:50	330410	5717864c94d4fc001297198d	4	1	main_z	7	advance_on_keypress_ZEE	84	stimuli_target_diamondrectangles.svg	stimuli_distractor_trianglediamonds.svg	19	yes	57	0	427	0	0			0	0			1				0	
6.6.1	win	2023-06-27	11:19:16	11:24:52	331752	5717864c94d4fc001297198d	4	1	main_z	7	main_z	85	stimuli_target_diamondsquares.svg	stimuli_distractor_diamondtriangles.svg	24	yes	44	1	284	0	0			0	0			1				0	
6.6.1	win	2023-06-27	11:19:16	11:24:52	331752	5717864c94d4fc001297198d	4	1	main_z	7	advance_on_keypress_ZEE	86	stimuli_target_diamondsquares.svg	stimuli_distractor_diamondtriangles.svg	24	yes	57	0	385	0	0			0	0			1				0	
6.6.1	win	2023-06-27	11:19:16	11:24:53	333100	5717864c94d4fc001297198d	4	1	main_z	7	main_z	87	stimuli_distractor_diamondtriangles.svg	stimuli_target_diamondsquares.svg	32	yes	44	1	314	0	0			0	0			1				0	
6.6.1	win	2023-06-27	11:19:16	11:24:53	333100	5717864c94d4fc001297198d	4	1	main_z	7	advance_on_keypress_ZEE	88	stimuli_distractor_diamondtriangles.svg	stimuli_target_diamondsquares.svg	32	yes	57	0	387	0	0			0	0			1				0	
6.6.1	win	2023-06-27	11:19:16	11:24:55	334633	5717864c94d4fc001297198d	4	1	main_z	7	main_z	89	stimuli_distractor_trianglediamonds.svg	stimuli_target_squaretriangles.svg	11	yes	44	1	497	0	0			0	0			1				0	
6.6.1	win	2023-06-27	11:19:16	11:24:55	334633	5717864c94d4fc001297198d	4	1	main_z	7	advance_on_keypress_ZEE	90	stimuli_distractor_trianglediamonds.svg	stimuli_target_squaretriangles.svg	11	yes	57	0	402	0	0			0	0			1				0	
6.6.1	win	2023-06-27	11:19:16	11:24:58	337686	5717864c94d4fc001297198d	4	1	main_z	7	main_z	91	stimuli_distractor_trianglediamonds.svg	stimuli_target_squarediamonds.svg	12	yes	0	0	2000	0	0			0	0			1				0	
6.6.1	win	2023-06-27	11:19:16	11:24:58	337686	5717864c94d4fc001297198d	4	1	main_z	7	advance_on_keypress_ZEE	92	stimuli_distractor_trianglediamonds.svg	stimuli_target_squarediamonds.svg	12	yes	57	0	527	0	0			0	0			1				0	
6.6.1	win	2023-06-27	11:19:16	11:24:59	339143	5717864c94d4fc001297198d	4	1	main_z	7	main_z	93	stimuli_target_squarediamonds.svg	stimuli_distractor_trianglediamonds.svg	4	yes	44	1	291	0	0			0	0			1				0	
6.6.1	win	2023-06-27	11:19:16	11:24:59	339143	5717864c94d4fc001297198d	4	1	main_z	7	advance_on_keypress_ZEE	94	stimuli_target_squarediamonds.svg	stimuli_distractor_trianglediamonds.svg	4	yes	57	0	506	0	0			0	0			1				0	
6.6.1	win	2023-06-27	11:19:16	11:25:00	340580	5717864c94d4fc001297198d	4	1	main_z	7	main_z	95	stimuli_distractor_trianglediamonds.svg	stimuli_distractor_trianglediamonds.svg	33	no	44	0	294	0	0			0	0			1				0	
6.6.1	win	2023-06-27	11:19:16	11:25:00	340580	5717864c94d4fc001297198d	4	1	main_z	7	advance_on_keypress_ZEE	96	stimuli_distractor_trianglediamonds.svg	stimuli_distractor_trianglediamonds.svg	33	no	57	0	425	0	0			0	0			1				0	
6.6.1	win	2023-06-27	11:19:16	11:25:02	341926	5717864c94d4fc001297198d	4	1	main_z	7	main_z	97	stimuli_distractor_trianglediamonds.svg	stimuli_target_rectanglediamonds.svg	10	yes	44	1	291	0	0			0	0			1				0	
6.6.1	win	2023-06-27	11:19:16	11:25:02	341926	5717864c94d4fc001297198d	4	1	main_z	7	advance_on_keypress_ZEE	98	stimuli_distractor_trianglediamonds.svg	stimuli_target_rectanglediamonds.svg	10	yes	57	0	462	0	0			0	0			1				0	
6.6.1	win	2023-06-27	11:19:16	11:25:03	343299	5717864c94d4fc001297198d	4	1	main_z	7	main_z	99	stimuli_distractor_diamondtriangles.svg	stimuli_target_diamondrectangles.svg	31	yes	44	1	280	0	0			0	0			1				0	
6.6.1	win	2023-06-27	11:19:16	11:25:03	343299	5717864c94d4fc001297198d	4	1	main_z	7	advance_on_keypress_ZEE	100	stimuli_distractor_diamondtriangles.svg	stimuli_target_diamondrectangles.svg	31	yes	57	0	398	0	0			0	0			1				0	
6.6.1	win	2023-06-27	11:19:16	11:25:05	344868	5717864c94d4fc001297198d	4	1	main_z	7	main_z	101	stimuli_target_trianglerectangles.svg	stimuli_distractor_trianglediamonds.svg	17	yes	44	1	504	0	0			0	0			1				0	
6.6.1	win	2023-06-27	11:19:16	11:25:05	344868	5717864c94d4fc001297198d	4	1	main_z	7	advance_on_keypress_ZEE	102	stimuli_target_trianglerectangles.svg	stimuli_distractor_trianglediamonds.svg	17	yes	57	0	403	0	0			0	0			1				0	
6.6.1	win	2023-06-27	11:19:16	11:25:08	347919	5717864c94d4fc001297198d	4	1	main_z	7	main_z	103	stimuli_distractor_trianglediamonds.svg	stimuli_distractor_trianglediamonds.svg	34	no	0	1	2000	0	0			0	0			1				0	
6.6.1	win	2023-06-27	11:19:16	11:25:08	347919	5717864c94d4fc001297198d	4	1	main_z	7	advance_on_keypress_ZEE	104	stimuli_distractor_trianglediamonds.svg	stimuli_distractor_trianglediamonds.svg	34	no	57	0	403	0	0			0	0			1				0	
6.6.1	win	2023-06-27	11:19:16	11:25:09	349232	5717864c94d4fc001297198d	4	1	main_z	7	main_z	105	stimuli_distractor_diamondtriangles.svg	stimuli_target_squaretriangles.svg	15	yes	44	1	263	0	0			0	0			1				0	
6.6.1	win	2023-06-27	11:19:16	11:25:09	349232	5717864c94d4fc001297198d	4	1	main_z	7	advance_on_keypress_ZEE	106	stimuli_distractor_diamondtriangles.svg	stimuli_target_squaretriangles.svg	15	yes	57	0	491	0	0			0	0			1				0	
6.6.1	win	2023-06-27	11:19:16	11:25:12	352369	5717864c94d4fc001297198d	4	1	main_z	7	main_z	107	stimuli_distractor_trianglediamonds.svg	stimuli_distractor_diamondtriangles.svg	35	no	0	1	2000	0	0			0	0			1				0	
6.6.1	win	2023-06-27	11:19:16	11:25:12	352369	5717864c94d4fc001297198d	4	1	main_z	7	advance_on_keypress_ZEE	108	stimuli_distractor_trianglediamonds.svg	stimuli_distractor_diamondtriangles.svg	35	no	57	0	441	0	0			0	0			1				0	
6.6.1	win	2023-06-27	11:19:16	11:25:14	354091	5717864c94d4fc001297198d	4	1	main_z	7	main_z	109	stimuli_target_trianglesquares.svg	stimuli_distractor_trianglediamonds.svg	18	yes	44	1	639	0	0			0	0			1				0	
6.6.1	win	2023-06-27	11:19:16	11:25:14	354091	5717864c94d4fc001297198d	4	1	main_z	7	advance_on_keypress_ZEE	110	stimuli_target_trianglesquares.svg	stimuli_distractor_trianglediamonds.svg	18	yes	57	0	465	0	0			0	0			1				0	
6.6.1	win	2023-06-27	11:19:16	11:25:17	357202	5717864c94d4fc001297198d	4	1	main_z	7	main_z	111	stimuli_target_trianglesquares.svg	stimuli_distractor_diamondtriangles.svg	22	yes	0	0	2000	0	0			0	0			1				0	
6.6.1	win	2023-06-27	11:19:16	11:25:17	357202	5717864c94d4fc001297198d	4	1	main_z	7	advance_on_keypress_ZEE	112	stimuli_target_trianglesquares.svg	stimuli_distractor_diamondtriangles.svg	22	yes	57	0	418	0	0			0	0			1				0	
6.6.1	win	2023-06-27	11:19:16	11:25:19	358869	5717864c94d4fc001297198d	4	1	main_z	7	main_z	113	stimuli_target_diamondsquares.svg	stimuli_distractor_trianglediamonds.svg	20	yes	44	1	600	0	0			0	0			1				0	
6.6.1	win	2023-06-27	11:19:16	11:25:19	358869	5717864c94d4fc001297198d	4	1	main_z	7	advance_on_keypress_ZEE	114	stimuli_target_diamondsquares.svg	stimuli_distractor_trianglediamonds.svg	20	yes	57	0	530	0	0			0	0			1				0	
6.6.1	win	2023-06-27	11:19:16	11:25:22	362035	5717864c94d4fc001297198d	4	1	main_z	7	main_z	115	stimuli_target_squaretriangles.svg	stimuli_distractor_diamondtriangles.svg	7	yes	0	0	2000	0	0			0	0			1				0	
6.6.1	win	2023-06-27	11:19:16	11:25:22	362035	5717864c94d4fc001297198d	4	1	main_z	7	advance_on_keypress_ZEE	116	stimuli_target_squaretriangles.svg	stimuli_distractor_diamondtriangles.svg	7	yes	57	0	447	0	0			0	0			1				0	
6.6.1	win	2023-06-27	11:19:16	11:25:25	365135	5717864c94d4fc001297198d	4	1	main_z	7	main_z	117	stimuli_distractor_diamondtriangles.svg	stimuli_target_trianglesquares.svg	30	yes	0	0	2000	0	0			0	0			1				0	
6.6.1	win	2023-06-27	11:19:16	11:25:25	365135	5717864c94d4fc001297198d	4	1	main_z	7	advance_on_keypress_ZEE	118	stimuli_distractor_diamondtriangles.svg	stimuli_target_trianglesquares.svg	30	yes	57	0	389	0	0			0	0			1				0	
6.6.1	win	2023-06-27	11:19:16	11:25:26	366431	5717864c94d4fc001297198d	4	1	main_z	7	main_z	119	stimuli_distractor_diamondtriangles.svg	stimuli_distractor_trianglediamonds.svg	38	no	44	0	263	0	0			0	0			1				0	
6.6.1	win	2023-06-27	11:19:16	11:25:26	366431	5717864c94d4fc001297198d	4	1	main_z	7	advance_on_keypress_ZEE	120	stimuli_distractor_diamondtriangles.svg	stimuli_distractor_trianglediamonds.svg	38	no	57	0	497	0	0			0	0			1				0	
6.6.1	win	2023-06-27	11:19:16	11:25:28	368005	5717864c94d4fc001297198d	4	1	main_z	7	main_z	121	stimuli_distractor_diamondtriangles.svg	stimuli_target_rectangletriangles.svg	13	yes	44	1	420	0	0			0	0			1				0	
6.6.1	win	2023-06-27	11:19:16	11:25:28	368005	5717864c94d4fc001297198d	4	1	main_z	7	advance_on_keypress_ZEE	122	stimuli_distractor_diamondtriangles.svg	stimuli_target_rectangletriangles.svg	13	yes	57	0	426	0	0			0	0			1				0	
6.6.1	win	2023-06-27	11:19:16	11:25:29	369433	5717864c94d4fc001297198d	4	1	main_z	7	main_z	123	stimuli_distractor_trianglediamonds.svg	stimuli_distractor_diamondtriangles.svg	36	no	44	0	364	0	0			0	0			1				0	
6.6.1	win	2023-06-27	11:19:16	11:25:29	369433	5717864c94d4fc001297198d	4	1	main_z	7	advance_on_keypress_ZEE	124	stimuli_distractor_trianglediamonds.svg	stimuli_distractor_diamondtriangles.svg	36	no	57	0	406	0	0			0	0			1				0	
6.6.1	win	2023-06-27	11:19:16	11:25:31	371060	5717864c94d4fc001297198d	4	1	main_z	7	main_z	125	stimuli_distractor_trianglediamonds.svg	stimuli_target_trianglerectangles.svg	25	yes	44	1	575	0	0			0	0			1				0	
6.6.1	win	2023-06-27	11:19:16	11:25:31	371060	5717864c94d4fc001297198d	4	1	main_z	7	advance_on_keypress_ZEE	126	stimuli_distractor_trianglediamonds.svg	stimuli_target_trianglerectangles.svg	25	yes	57	0	443	0	0			0	0			1				0	
6.6.1	win	2023-06-27	11:19:16	11:25:32	372442	5717864c94d4fc001297198d	4	1	main_z	7	main_z	127	stimuli_target_squarediamonds.svg	stimuli_distractor_diamondtriangles.svg	8	yes	44	1	307	0	0			0	0			1				0	
6.6.1	win	2023-06-27	11:19:16	11:25:32	372442	5717864c94d4fc001297198d	4	1	main_z	7	advance_on_keypress_ZEE	128	stimuli_target_squarediamonds.svg	stimuli_distractor_diamondtriangles.svg	8	yes	57	0	413	0	0			0	0			1				0	
6.6.1	win	2023-06-27	11:19:16	11:25:34	373796	5717864c94d4fc001297198d	4	1	main_z	7	main_z	129	stimuli_distractor_trianglediamonds.svg	stimuli_target_diamondsquares.svg	28	yes	44	1	294	0	0			0	0			1				0	
6.6.1	win	2023-06-27	11:19:16	11:25:34	373796	5717864c94d4fc001297198d	4	1	main_z	7	advance_on_keypress_ZEE	130	stimuli_distractor_trianglediamonds.svg	stimuli_target_diamondsquares.svg	28	yes	57	0	401	0	0			0	0			1				0	
6.6.1	win	2023-06-27	11:19:16	11:25:35	375177	5717864c94d4fc001297198d	4	1	main_z	7	main_z	131	stimuli_target_rectanglediamonds.svg	stimuli_distractor_trianglediamonds.svg	2	yes	44	1	343	0	0			0	0			1				0	
6.6.1	win	2023-06-27	11:19:16	11:25:35	375177	5717864c94d4fc001297198d	4	1	main_z	7	advance_on_keypress_ZEE	132	stimuli_target_rectanglediamonds.svg	stimuli_distractor_trianglediamonds.svg	2	yes	57	0	764	0	0			0	0			1				0	
6.6.1	win	2023-06-27	11:19:16	11:25:37	376808	5717864c94d4fc001297198d	4	1	main_z	7	main_z	133	stimuli_target_rectangletriangles.svg	stimuli_distractor_trianglediamonds.svg	1	yes	44	1	224	0	0			0	0			1				0	
6.6.1	win	2023-06-27	11:19:16	11:25:37	376808	5717864c94d4fc001297198d	4	1	main_z	7	advance_on_keypress_ZEE	134	stimuli_target_rectangletriangles.svg	stimuli_distractor_trianglediamonds.svg	1	yes	57	0	534	0	0			0	0			1				0	
6.6.1	win	2023-06-27	11:19:16	11:25:38	378248	5717864c94d4fc001297198d	4	1	main_z	7	main_z	135	stimuli_distractor_diamondtriangles.svg	stimuli_distractor_diamondtriangles.svg	40	no	44	0	264	0	0			0	0			1				0	
6.6.1	win	2023-06-27	11:19:16	11:25:38	378248	5717864c94d4fc001297198d	4	1	main_z	7	advance_on_keypress_ZEE	136	stimuli_distractor_diamondtriangles.svg	stimuli_distractor_diamondtriangles.svg	40	no	57	0	447	0	0			0	0			1				0	
6.6.1	win	2023-06-27	11:19:16	11:25:40	379672	5717864c94d4fc001297198d	4	1	main_z	7	main_z	137	stimuli_target_rectangletriangles.svg	stimuli_distractor_diamondtriangles.svg	5	yes	44	1	320	0	0			0	0			1				0	
6.6.1	win	2023-06-27	11:19:16	11:25:40	379672	5717864c94d4fc001297198d	4	1	main_z	7	advance_on_keypress_ZEE	138	stimuli_target_rectangletriangles.svg	stimuli_distractor_diamondtriangles.svg	5	yes	57	0	342	0	0			0	0			1				0	
6.6.1	win	2023-06-27	11:19:16	11:25:41	380938	5717864c94d4fc001297198d	4	1	main_z	7	main_z	139	stimuli_distractor_diamondtriangles.svg	stimuli_distractor_diamondtriangles.svg	39	no	44	0	286	0	0			0	0			1				0	
6.6.1	win	2023-06-27	11:19:16	11:25:41	380938	5717864c94d4fc001297198d	4	1	main_z	7	advance_on_keypress_ZEE	140	stimuli_distractor_diamondtriangles.svg	stimuli_distractor_diamondtriangles.svg	39	no	57	0	327	0	0			0	0			1				0	
6.6.1	win	2023-06-27	11:19:16	11:25:42	382382	5717864c94d4fc001297198d	4	1	main_z	7	main_z	141	stimuli_distractor_trianglediamonds.svg	stimuli_target_trianglesquares.svg	26	yes	44	1	480	0	0			0	0			1				0	
6.6.1	win	2023-06-27	11:19:16	11:25:42	382382	5717864c94d4fc001297198d	4	1	main_z	7	advance_on_keypress_ZEE	142	stimuli_distractor_trianglediamonds.svg	stimuli_target_trianglesquares.svg	26	yes	57	0	395	0	0			0	0			1				0	
6.6.1	win	2023-06-27	11:19:16	11:25:44	383776	5717864c94d4fc001297198d	4	1	main_z	7	main_z	143	stimuli_target_trianglerectangles.svg	stimuli_distractor_diamondtriangles.svg	21	yes	44	1	358	0	0			0	0			1				0	
6.6.1	win	2023-06-27	11:19:16	11:25:44	383776	5717864c94d4fc001297198d	4	1	main_z	7	advance_on_keypress_ZEE	144	stimuli_target_trianglerectangles.svg	stimuli_distractor_diamondtriangles.svg	21	yes	57	0	402	0	0			0	0			1				0	
6.6.1	win	2023-06-27	11:19:16	11:25:45	385107	5717864c94d4fc001297198d	4	1	main_z	7	main_z	145	stimuli_distractor_diamondtriangles.svg	stimuli_target_trianglerectangles.svg	29	yes	44	1	289	0	0			0	0			1				0	
6.6.1	win	2023-06-27	11:19:16	11:25:45	385107	5717864c94d4fc001297198d	4	1	main_z	7	advance_on_keypress_ZEE	146	stimuli_distractor_diamondtriangles.svg	stimuli_target_trianglerectangles.svg	29	yes	57	0	261	0	0			0	0			1				0	
6.6.1	win	2023-06-27	11:19:16	11:25:46	386517	5717864c94d4fc001297198d	4	1	main_z	7	main_z	147	stimuli_target_squaretriangles.svg	stimuli_distractor_trianglediamonds.svg	3	yes	44	1	514	0	0			0	0			1				0	
6.6.1	win	2023-06-27	11:19:16	11:25:46	386517	5717864c94d4fc001297198d	4	1	main_z	7	advance_on_keypress_ZEE	148	stimuli_target_squaretriangles.svg	stimuli_distractor_trianglediamonds.svg	3	yes	57	0	475	0	0			0	0			1				0	
6.6.1	win	2023-06-27	11:19:16	11:25:48	388167	5717864c94d4fc001297198d	4	1	main_z	7	main_z	149	stimuli_distractor_trianglediamonds.svg	stimuli_target_rectangletriangles.svg	9	yes	44	1	532	0	0			0	0			1				0	
6.6.1	win	2023-06-27	11:19:16	11:25:48	388167	5717864c94d4fc001297198d	4	1	main_z	7	advance_on_keypress_ZEE	150	stimuli_distractor_trianglediamonds.svg	stimuli_target_rectangletriangles.svg	9	yes	57	0	488	0	0			0	0			1				0	
6.6.1	win	2023-06-27	11:19:16	11:25:51	391301	5717864c94d4fc001297198d	4	1	main_z	7	main_z	151	stimuli_distractor_diamondtriangles.svg	stimuli_distractor_trianglediamonds.svg	37	no	0	1	2000	0	0			0	0			1				0	
6.6.1	win	2023-06-27	11:19:16	11:25:51	391301	5717864c94d4fc001297198d	4	1	main_z	7	advance_on_keypress_ZEE	152	stimuli_distractor_diamondtriangles.svg	stimuli_distractor_trianglediamonds.svg	37	no	57	0	433	0	0			0	0			1				0	
6.6.1	win	2023-06-27	11:19:16	11:25:53	392630	5717864c94d4fc001297198d	4	1	main_z	7	main_z	153	stimuli_target_rectanglediamonds.svg	stimuli_distractor_diamondtriangles.svg	6	yes	44	1	246	0	0			0	0			1				0	
6.6.1	win	2023-06-27	11:19:16	11:25:53	392630	5717864c94d4fc001297198d	4	1	main_z	7	advance_on_keypress_ZEE	154	stimuli_target_rectanglediamonds.svg	stimuli_distractor_diamondtriangles.svg	6	yes	57	0	422	0	0			0	0			1				0	
6.6.1	win	2023-06-27	11:19:16	11:25:54	393944	5717864c94d4fc001297198d	4	1	main_z	7	main_z	155	stimuli_distractor_diamondtriangles.svg	stimuli_target_squarediamonds.svg	16	yes	44	1	259	0	0			0	0			1				0	
6.6.1	win	2023-06-27	11:19:16	11:25:54	393944	5717864c94d4fc001297198d	4	1	main_z	7	advance_on_keypress_ZEE	156	stimuli_distractor_diamondtriangles.svg	stimuli_target_squarediamonds.svg	16	yes	57	0	412	0	0			0	0			1				0	
6.6.1	win	2023-06-27	11:19:16	11:25:55	395236	5717864c94d4fc001297198d	4	1	main_z	7	main_z	157	stimuli_distractor_trianglediamonds.svg	stimuli_target_diamondrectangles.svg	27	yes	44	1	251	0	0			0	0			1				0	
6.6.1	win	2023-06-27	11:19:16	11:25:55	395236	5717864c94d4fc001297198d	4	1	main_z	7	advance_on_keypress_ZEE	158	stimuli_distractor_trianglediamonds.svg	stimuli_target_diamondrectangles.svg	27	yes	57	0	365	0	0			0	0			1				0	
6.6.1	win	2023-06-27	11:19:16	11:25:56	396518	5717864c94d4fc001297198d	4	1	main_z	7	main_z	159	stimuli_distractor_diamondtriangles.svg	stimuli_target_rectanglediamonds.svg	14	yes	44	1	267	0	0			0	0			1				0	
6.6.1	win	2023-06-27	11:19:16	11:25:56	396518	5717864c94d4fc001297198d	4	1	main_z	7	advance_on_keypress_ZEE	160	stimuli_distractor_diamondtriangles.svg	stimuli_target_rectanglediamonds.svg	14	yes	57	0	387	0	0			0	0			1				0	
6.6.1	win	2023-06-27	11:19:16	11:26:22	421686	5717864c94d4fc001297198d	4	1	practice_slash	9	practice_slash	1	stimuli_distractor_diamondtriangles.svg	stimuli_distractor_trianglediamonds.svg	14	no	0	1	2000	0	0			0	0			1				0	
6.6.1	win	2023-06-27	11:19:16	11:26:22	421686	5717864c94d4fc001297198d	4	1	practice_slash	9	advance_on_keypress_SLASH	2	stimuli_distractor_diamondtriangles.svg	stimuli_distractor_trianglediamonds.svg	14	no	57	0	859	0	0			0	0			1				0	
6.6.1	win	2023-06-27	11:19:16	11:26:25	424856	5717864c94d4fc001297198d	4	1	practice_slash	9	practice_slash	3	stimuli_distractor_diamondtriangles.svg	stimuli_target_diamondrectangles.svg	8	yes	53	1	672	0	0			0	0			1				0	
6.6.1	win	2023-06-27	11:19:16	11:26:25	424856	5717864c94d4fc001297198d	4	1	practice_slash	9	advance_on_keypress_SLASH	4	stimuli_distractor_diamondtriangles.svg	stimuli_target_diamondrectangles.svg	8	yes	57	0	527	0	0			0	0			1				0	
6.6.1	win	2023-06-27	11:19:16	11:26:27	427311	5717864c94d4fc001297198d	4	1	practice_slash	9	practice_slash	5	stimuli_target_squarediamonds.svg	stimuli_distractor_trianglediamonds.svg	5	yes	53	1	291	0	0			0	0			1				0	
6.6.1	win	2023-06-27	11:19:16	11:26:27	427311	5717864c94d4fc001297198d	4	1	practice_slash	9	advance_on_keypress_SLASH	6	stimuli_target_squarediamonds.svg	stimuli_distractor_trianglediamonds.svg	5	yes	57	0	354	0	0			0	0			1				0	
6.6.1	win	2023-06-27	11:19:16	11:26:29	429540	5717864c94d4fc001297198d	4	1	practice_slash	9	practice_slash	7	stimuli_target_rectanglediamonds.svg	stimuli_distractor_diamondtriangles.svg	1	yes	53	1	238	0	0			0	0			1				0	
6.6.1	win	2023-06-27	11:19:16	11:26:29	429540	5717864c94d4fc001297198d	4	1	practice_slash	9	advance_on_keypress_SLASH	8	stimuli_target_rectanglediamonds.svg	stimuli_distractor_diamondtriangles.svg	1	yes	57	0	272	0	0			0	0			1				0	
6.6.1	win	2023-06-27	11:19:16	11:26:32	431774	5717864c94d4fc001297198d	4	1	practice_slash	9	practice_slash	9	stimuli_target_rectanglediamonds.svg	stimuli_distractor_trianglediamonds.svg	4	yes	53	1	322	0	0			0	0			1				0	
6.6.1	win	2023-06-27	11:19:16	11:26:32	431774	5717864c94d4fc001297198d	4	1	practice_slash	9	advance_on_keypress_SLASH	10	stimuli_target_rectanglediamonds.svg	stimuli_distractor_trianglediamonds.svg	4	yes	57	0	563	0	0			0	0			1				0	
6.6.1	win	2023-06-27	11:19:16	11:26:34	434219	5717864c94d4fc001297198d	4	1	practice_slash	9	practice_slash	11	stimuli_distractor_diamondtriangles.svg	stimuli_target_trianglerectangles.svg	9	yes	53	1	233	0	0			0	0			1				0	
6.6.1	win	2023-06-27	11:19:16	11:26:34	434219	5717864c94d4fc001297198d	4	1	practice_slash	9	advance_on_keypress_SLASH	12	stimuli_distractor_diamondtriangles.svg	stimuli_target_trianglerectangles.svg	9	yes	57	0	546	0	0			0	0			1				0	
6.6.1	win	2023-06-27	11:19:16	11:26:37	436624	5717864c94d4fc001297198d	4	1	practice_slash	9	practice_slash	13	stimuli_target_diamondsquares.svg	stimuli_distractor_trianglediamonds.svg	6	yes	53	1	206	0	0			0	0			1				0	
6.6.1	win	2023-06-27	11:19:16	11:26:37	436624	5717864c94d4fc001297198d	4	1	practice_slash	9	advance_on_keypress_SLASH	14	stimuli_target_diamondsquares.svg	stimuli_distractor_trianglediamonds.svg	6	yes	57	0	451	0	0			0	0			1				0	
6.6.1	win	2023-06-27	11:19:16	11:26:39	438974	5717864c94d4fc001297198d	4	1	practice_slash	9	practice_slash	15	stimuli_distractor_trianglediamonds.svg	stimuli_target_rectanglediamonds.svg	10	yes	53	1	256	0	0			0	0			1				0	
6.6.1	win	2023-06-27	11:19:16	11:26:39	438974	5717864c94d4fc001297198d	4	1	practice_slash	9	advance_on_keypress_SLASH	16	stimuli_distractor_trianglediamonds.svg	stimuli_target_rectanglediamonds.svg	10	yes	57	0	675	0	0			0	0			1				0	
6.6.1	win	2023-06-27	11:19:16	11:26:41	441578	5717864c94d4fc001297198d	4	1	practice_slash	9	practice_slash	17	stimuli_distractor_diamondtriangles.svg	stimuli_target_rectangletriangles.svg	7	yes	53	1	293	0	0			0	0			1				0	
6.6.1	win	2023-06-27	11:19:16	11:26:41	441578	5717864c94d4fc001297198d	4	1	practice_slash	9	advance_on_keypress_SLASH	18	stimuli_distractor_diamondtriangles.svg	stimuli_target_rectangletriangles.svg	7	yes	57	0	311	0	0			0	0			1				0	
6.6.1	win	2023-06-27	11:19:16	11:26:45	445518	5717864c94d4fc001297198d	4	1	practice_slash	9	practice_slash	19	stimuli_distractor_diamondtriangles.svg	stimuli_distractor_diamondtriangles.svg	13	no	0	1	2000	0	0			0	0			1				0	
6.6.1	win	2023-06-27	11:19:16	11:26:45	445518	5717864c94d4fc001297198d	4	1	practice_slash	9	advance_on_keypress_SLASH	20	stimuli_distractor_diamondtriangles.svg	stimuli_distractor_diamondtriangles.svg	13	no	57	0	2597	0	0			0	0			1				0	
6.6.1	win	2023-06-27	11:19:16	11:26:50	450244	5717864c94d4fc001297198d	4	1	practice_slash	9	practice_slash	21	stimuli_distractor_trianglediamonds.svg	stimuli_target_diamondrectangles.svg	12	yes	53	1	475	0	0			0	0			1				0	
6.6.1	win	2023-06-27	11:19:16	11:26:50	450244	5717864c94d4fc001297198d	4	1	practice_slash	9	advance_on_keypress_SLASH	22	stimuli_distractor_trianglediamonds.svg	stimuli_target_diamondrectangles.svg	12	yes	57	0	665	0	0			0	0			1				0	
6.6.1	win	2023-06-27	11:19:16	11:26:53	452799	5717864c94d4fc001297198d	4	1	practice_slash	9	practice_slash	23	stimuli_target_diamondsquares.svg	stimuli_distractor_diamondtriangles.svg	3	yes	53	1	248	0	0			0	0			1				0	
6.6.1	win	2023-06-27	11:19:16	11:26:53	452799	5717864c94d4fc001297198d	4	1	practice_slash	9	advance_on_keypress_SLASH	24	stimuli_target_diamondsquares.svg	stimuli_distractor_diamondtriangles.svg	3	yes	57	0	540	0	0			0	0			1				0	
6.6.1	win	2023-06-27	11:19:16	11:26:55	455320	5717864c94d4fc001297198d	4	1	practice_slash	9	practice_slash	25	stimuli_target_squarediamonds.svg	stimuli_distractor_diamondtriangles.svg	2	yes	53	1	335	0	0			0	0			1				0	
6.6.1	win	2023-06-27	11:19:16	11:26:55	455320	5717864c94d4fc001297198d	4	1	practice_slash	9	advance_on_keypress_SLASH	26	stimuli_target_squarediamonds.svg	stimuli_distractor_diamondtriangles.svg	2	yes	57	0	566	0	0			0	0			1				0	
6.6.1	win	2023-06-27	11:19:16	11:26:58	457833	5717864c94d4fc001297198d	4	1	practice_slash	9	practice_slash	27	stimuli_distractor_trianglediamonds.svg	stimuli_distractor_diamondtriangles.svg	16	no	53	0	298	0	0			0	0			1				0	
6.6.1	win	2023-06-27	11:19:16	11:26:58	457833	5717864c94d4fc001297198d	4	1	practice_slash	9	advance_on_keypress_SLASH	28	stimuli_distractor_trianglediamonds.svg	stimuli_distractor_diamondtriangles.svg	16	no	57	0	1073	0	0			0	0			1				0	
6.6.1	win	2023-06-27	11:19:16	11:27:01	460821	5717864c94d4fc001297198d	4	1	practice_slash	9	practice_slash	29	stimuli_distractor_trianglediamonds.svg	stimuli_distractor_trianglediamonds.svg	15	no	53	0	270	0	0			0	0			1				0	
6.6.1	win	2023-06-27	11:19:16	11:27:01	460821	5717864c94d4fc001297198d	4	1	practice_slash	9	advance_on_keypress_SLASH	30	stimuli_distractor_trianglediamonds.svg	stimuli_distractor_trianglediamonds.svg	15	no	57	0	620	0	0			0	0			1				0	
6.6.1	win	2023-06-27	11:19:16	11:27:03	463414	5717864c94d4fc001297198d	4	1	practice_slash	9	practice_slash	31	stimuli_distractor_trianglediamonds.svg	stimuli_target_squarediamonds.svg	11	yes	53	1	330	0	0			0	0			1				0	
6.6.1	win	2023-06-27	11:19:16	11:27:03	463414	5717864c94d4fc001297198d	4	1	practice_slash	9	advance_on_keypress_SLASH	32	stimuli_distractor_trianglediamonds.svg	stimuli_target_squarediamonds.svg	11	yes	57	0	569	0	0			0	0			1				0	
6.6.1	win	2023-06-27	11:19:16	11:27:15	475316	5717864c94d4fc001297198d	4	1	main_slash	11	main_slash	1	stimuli_target_trianglerectangles.svg	stimuli_distractor_diamondtriangles.svg	21	yes	53	1	369	0	0			0	0			1				0	
6.6.1	win	2023-06-27	11:19:16	11:27:15	475316	5717864c94d4fc001297198d	4	1	main_slash	11	advance_on_keypress_SLASH	2	stimuli_target_trianglerectangles.svg	stimuli_distractor_diamondtriangles.svg	21	yes	57	0	716	0	0			0	0			1				0	
6.6.1	win	2023-06-27	11:19:16	11:27:17	476907	5717864c94d4fc001297198d	4	1	main_slash	11	main_slash	3	stimuli_distractor_diamondtriangles.svg	stimuli_target_rectangletriangles.svg	13	yes	53	1	224	0	0			0	0			1				0	
6.6.1	win	2023-06-27	11:19:16	11:27:17	476907	5717864c94d4fc001297198d	4	1	main_slash	11	advance_on_keypress_SLASH	4	stimuli_distractor_diamondtriangles.svg	stimuli_target_rectangletriangles.svg	13	yes	57	0	621	0	0			0	0			1				0	
6.6.1	win	2023-06-27	11:19:16	11:27:18	478365	5717864c94d4fc001297198d	4	1	main_slash	11	main_slash	5	stimuli_target_trianglesquares.svg	stimuli_distractor_trianglediamonds.svg	18	yes	53	1	198	0	0			0	0			1				0	
6.6.1	win	2023-06-27	11:19:16	11:27:18	478365	5717864c94d4fc001297198d	4	1	main_slash	11	advance_on_keypress_SLASH	6	stimuli_target_trianglesquares.svg	stimuli_distractor_trianglediamonds.svg	18	yes	57	0	668	0	0			0	0			1				0	
6.6.1	win	2023-06-27	11:19:16	11:27:20	479901	5717864c94d4fc001297198d	4	1	main_slash	11	main_slash	7	stimuli_distractor_trianglediamonds.svg	stimuli_target_rectanglediamonds.svg	10	yes	53	1	218	0	0			0	0			1				0	
6.6.1	win	2023-06-27	11:19:16	11:27:20	479901	5717864c94d4fc001297198d	4	1	main_slash	11	advance_on_keypress_SLASH	8	stimuli_distractor_trianglediamonds.svg	stimuli_target_rectanglediamonds.svg	10	yes	57	0	591	0	0			0	0			1				0	
6.6.1	win	2023-06-27	11:19:16	11:27:21	481339	5717864c94d4fc001297198d	4	1	main_slash	11	main_slash	9	stimuli_distractor_diamondtriangles.svg	stimuli_target_diamondrectangles.svg	31	yes	53	1	206	0	0			0	0			1				0	
6.6.1	win	2023-06-27	11:19:16	11:27:21	481339	5717864c94d4fc001297198d	4	1	main_slash	11	advance_on_keypress_SLASH	10	stimuli_distractor_diamondtriangles.svg	stimuli_target_diamondrectangles.svg	31	yes	57	0	595	0	0			0	0			1				0	
6.6.1	win	2023-06-27	11:19:16	11:27:23	482789	5717864c94d4fc001297198d	4	1	main_slash	11	main_slash	11	stimuli_target_squaretriangles.svg	stimuli_distractor_diamondtriangles.svg	7	yes	53	1	223	0	0			0	0			1				0	
6.6.1	win	2023-06-27	11:19:16	11:27:23	482789	5717864c94d4fc001297198d	4	1	main_slash	11	advance_on_keypress_SLASH	12	stimuli_target_squaretriangles.svg	stimuli_distractor_diamondtriangles.svg	7	yes	57	0	570	0	0			0	0			1				0	
6.6.1	win	2023-06-27	11:19:16	11:27:24	484216	5717864c94d4fc001297198d	4	1	main_slash	11	main_slash	13	stimuli_distractor_diamondtriangles.svg	stimuli_target_diamondsquares.svg	32	yes	53	1	217	0	0			0	0			1				0	
6.6.1	win	2023-06-27	11:19:16	11:27:24	484216	5717864c94d4fc001297198d	4	1	main_slash	11	advance_on_keypress_SLASH	14	stimuli_distractor_diamondtriangles.svg	stimuli_target_diamondsquares.svg	32	yes	57	0	663	0	0			0	0			1				0	
6.6.1	win	2023-06-27	11:19:16	11:27:26	485916	5717864c94d4fc001297198d	4	1	main_slash	11	main_slash	15	stimuli_distractor_trianglediamonds.svg	stimuli_distractor_trianglediamonds.svg	34	no	53	0	370	0	0			0	0			1				0	
6.6.1	win	2023-06-27	11:19:16	11:27:26	485916	5717864c94d4fc001297198d	4	1	main_slash	11	advance_on_keypress_SLASH	16	stimuli_distractor_trianglediamonds.svg	stimuli_distractor_trianglediamonds.svg	34	no	57	0	611	0	0			0	0			1				0	
6.6.1	win	2023-06-27	11:19:16	11:27:28	487691	5717864c94d4fc001297198d	4	1	main_slash	11	main_slash	17	stimuli_target_rectangletriangles.svg	stimuli_distractor_diamondtriangles.svg	5	yes	53	1	526	0	0			0	0			1				0	
6.6.1	win	2023-06-27	11:19:16	11:27:28	487691	5717864c94d4fc001297198d	4	1	main_slash	11	advance_on_keypress_SLASH	18	stimuli_target_rectangletriangles.svg	stimuli_distractor_diamondtriangles.svg	5	yes	57	0	442	0	0			0	0			1				0	
6.6.1	win	2023-06-27	11:19:16	11:27:29	489055	5717864c94d4fc001297198d	4	1	main_slash	11	main_slash	19	stimuli_distractor_trianglediamonds.svg	stimuli_target_diamondrectangles.svg	27	yes	53	1	289	0	0			0	0			1				0	
6.6.1	win	2023-06-27	11:19:16	11:27:29	489055	5717864c94d4fc001297198d	4	1	main_slash	11	advance_on_keypress_SLASH	20	stimuli_distractor_trianglediamonds.svg	stimuli_target_diamondrectangles.svg	27	yes	57	0	379	0	0			0	0			1				0	
6.6.1	win	2023-06-27	11:19:16	11:27:30	490363	5717864c94d4fc001297198d	4	1	main_slash	11	main_slash	21	stimuli_distractor_trianglediamonds.svg	stimuli_distractor_trianglediamonds.svg	33	no	53	0	297	0	0			0	0			1				0	
6.6.1	win	2023-06-27	11:19:16	11:27:30	490363	5717864c94d4fc001297198d	4	1	main_slash	11	advance_on_keypress_SLASH	22	stimuli_distractor_trianglediamonds.svg	stimuli_distractor_trianglediamonds.svg	33	no	57	0	357	0	0			0	0			1				0	
6.6.1	win	2023-06-27	11:19:16	11:27:32	492054	5717864c94d4fc001297198d	4	1	main_slash	11	main_slash	23	stimuli_target_trianglerectangles.svg	stimuli_distractor_trianglediamonds.svg	17	yes	53	1	687	0	0			0	0			1				0	
6.6.1	win	2023-06-27	11:19:16	11:27:32	492054	5717864c94d4fc001297198d	4	1	main_slash	11	advance_on_keypress_SLASH	24	stimuli_target_trianglerectangles.svg	stimuli_distractor_trianglediamonds.svg	17	yes	57	0	784	0	0			0	0			1				0	
6.6.1	win	2023-06-27	11:19:16	11:27:34	493928	5717864c94d4fc001297198d	4	1	main_slash	11	main_slash	25	stimuli_distractor_diamondtriangles.svg	stimuli_target_rectanglediamonds.svg	14	yes	53	1	445	0	0			0	0			1				0	
6.6.1	win	2023-06-27	11:19:16	11:27:34	493928	5717864c94d4fc001297198d	4	1	main_slash	11	advance_on_keypress_SLASH	26	stimuli_distractor_diamondtriangles.svg	stimuli_target_rectanglediamonds.svg	14	yes	57	0	671	0	0			0	0			1				0	
6.6.1	win	2023-06-27	11:19:16	11:27:35	495563	5717864c94d4fc001297198d	4	1	main_slash	11	main_slash	27	stimuli_distractor_trianglediamonds.svg	stimuli_target_squaretriangles.svg	11	yes	53	1	330	0	0			0	0			1				0	
6.6.1	win	2023-06-27	11:19:16	11:27:35	495563	5717864c94d4fc001297198d	4	1	main_slash	11	advance_on_keypress_SLASH	28	stimuli_distractor_trianglediamonds.svg	stimuli_target_squaretriangles.svg	11	yes	57	0	461	0	0			0	0			1				0	
6.6.1	win	2023-06-27	11:19:16	11:27:37	496930	5717864c94d4fc001297198d	4	1	main_slash	11	main_slash	29	stimuli_target_diamondrectangles.svg	stimuli_distractor_diamondtriangles.svg	23	yes	53	1	265	0	0			0	0			1				0	
6.6.1	win	2023-06-27	11:19:16	11:27:37	496930	5717864c94d4fc001297198d	4	1	main_slash	11	advance_on_keypress_SLASH	30	stimuli_target_diamondrectangles.svg	stimuli_distractor_diamondtriangles.svg	23	yes	57	0	354	0	0			0	0			1				0	
6.6.1	win	2023-06-27	11:19:16	11:27:38	498237	5717864c94d4fc001297198d	4	1	main_slash	11	main_slash	31	stimuli_distractor_diamondtriangles.svg	stimuli_distractor_diamondtriangles.svg	39	no	53	0	304	0	0			0	0			1				0	
6.6.1	win	2023-06-27	11:19:16	11:27:38	498237	5717864c94d4fc001297198d	4	1	main_slash	11	advance_on_keypress_SLASH	32	stimuli_distractor_diamondtriangles.svg	stimuli_distractor_diamondtriangles.svg	39	no	57	0	334	0	0			0	0			1				0	
6.6.1	win	2023-06-27	11:19:16	11:27:40	499631	5717864c94d4fc001297198d	4	1	main_slash	11	main_slash	33	stimuli_target_rectanglediamonds.svg	stimuli_distractor_trianglediamonds.svg	2	yes	53	1	415	0	0			0	0			1				0	
6.6.1	win	2023-06-27	11:19:16	11:27:40	499631	5717864c94d4fc001297198d	4	1	main_slash	11	advance_on_keypress_SLASH	34	stimuli_target_rectanglediamonds.svg	stimuli_distractor_trianglediamonds.svg	2	yes	57	0	365	0	0			0	0			1				0	
6.6.1	win	2023-06-27	11:19:16	11:27:41	501032	5717864c94d4fc001297198d	4	1	main_slash	11	main_slash	35	stimuli_distractor_trianglediamonds.svg	stimuli_target_rectangletriangles.svg	9	yes	53	1	367	0	0			0	0			1				0	
6.6.1	win	2023-06-27	11:19:16	11:27:41	501032	5717864c94d4fc001297198d	4	1	main_slash	11	advance_on_keypress_SLASH	36	stimuli_distractor_trianglediamonds.svg	stimuli_target_rectangletriangles.svg	9	yes	57	0	534	0	0			0	0			1				0	
6.6.1	win	2023-06-27	11:19:16	11:27:43	502750	5717864c94d4fc001297198d	4	1	main_slash	11	main_slash	37	stimuli_distractor_diamondtriangles.svg	stimuli_distractor_trianglediamonds.svg	38	no	53	0	534	0	0			0	0			1				0	
6.6.1	win	2023-06-27	11:19:16	11:27:43	502750	5717864c94d4fc001297198d	4	1	main_slash	11	advance_on_keypress_SLASH	38	stimuli_distractor_diamondtriangles.svg	stimuli_distractor_trianglediamonds.svg	38	no	57	0	436	0	0			0	0			1				0	
6.6.1	win	2023-06-27	11:19:16	11:27:44	504092	5717864c94d4fc001297198d	4	1	main_slash	11	main_slash	39	stimuli_target_rectanglediamonds.svg	stimuli_distractor_diamondtriangles.svg	6	yes	53	1	260	0	0			0	0			1				0	
6.6.1	win	2023-06-27	11:19:16	11:27:44	504092	5717864c94d4fc001297198d	4	1	main_slash	11	advance_on_keypress_SLASH	40	stimuli_target_rectanglediamonds.svg	stimuli_distractor_diamondtriangles.svg	6	yes	57	0	393	0	0			0	0			1				0	
6.6.1	win	2023-06-27	11:19:16	11:27:45	505369	5717864c94d4fc001297198d	4	1	main_slash	11	main_slash	41	stimuli_distractor_trianglediamonds.svg	stimuli_distractor_diamondtriangles.svg	35	no	53	0	253	0	0			0	0			1				0	
6.6.1	win	2023-06-27	11:19:16	11:27:45	505369	5717864c94d4fc001297198d	4	1	main_slash	11	advance_on_keypress_SLASH	42	stimuli_distractor_trianglediamonds.svg	stimuli_distractor_diamondtriangles.svg	35	no	57	0	304	0	0			0	0			1				0	
6.6.1	win	2023-06-27	11:19:16	11:27:47	506642	5717864c94d4fc001297198d	4	1	main_slash	11	main_slash	43	stimuli_target_squaretriangles.svg	stimuli_distractor_trianglediamonds.svg	3	yes	53	1	326	0	0			0	0			1				0	
6.6.1	win	2023-06-27	11:19:16	11:27:47	506642	5717864c94d4fc001297198d	4	1	main_slash	11	advance_on_keypress_SLASH	44	stimuli_target_squaretriangles.svg	stimuli_distractor_trianglediamonds.svg	3	yes	57	0	316	0	0			0	0			1				0	
6.6.1	win	2023-06-27	11:19:16	11:27:48	507854	5717864c94d4fc001297198d	4	1	main_slash	11	main_slash	45	stimuli_distractor_diamondtriangles.svg	stimuli_target_squarediamonds.svg	16	yes	53	1	255	0	0			0	0			1				0	
6.6.1	win	2023-06-27	11:19:16	11:27:48	507854	5717864c94d4fc001297198d	4	1	main_slash	11	advance_on_keypress_SLASH	46	stimuli_distractor_diamondtriangles.svg	stimuli_target_squarediamonds.svg	16	yes	57	0	226	0	0			0	0			1				0	
6.6.1	win	2023-06-27	11:19:16	11:27:49	509108	5717864c94d4fc001297198d	4	1	main_slash	11	main_slash	47	stimuli_distractor_trianglediamonds.svg	stimuli_target_trianglesquares.svg	26	yes	53	1	393	0	0			0	0			1				0	
6.6.1	win	2023-06-27	11:19:16	11:27:49	509108	5717864c94d4fc001297198d	4	1	main_slash	11	advance_on_keypress_SLASH	48	stimuli_distractor_trianglediamonds.svg	stimuli_target_trianglesquares.svg	26	yes	57	0	304	0	0			0	0			1				0	
6.6.1	win	2023-06-27	11:19:16	11:27:50	510295	5717864c94d4fc001297198d	4	1	main_slash	11	main_slash	49	stimuli_distractor_diamondtriangles.svg	stimuli_target_trianglerectangles.svg	29	yes	53	1	245	0	0			0	0			1				0	
6.6.1	win	2023-06-27	11:19:16	11:27:50	510295	5717864c94d4fc001297198d	4	1	main_slash	11	advance_on_keypress_SLASH	50	stimuli_distractor_diamondtriangles.svg	stimuli_target_trianglerectangles.svg	29	yes	57	0	309	0	0			0	0			1				0	
6.6.1	win	2023-06-27	11:19:16	11:27:51	511572	5717864c94d4fc001297198d	4	1	main_slash	11	main_slash	51	stimuli_target_diamondrectangles.svg	stimuli_distractor_trianglediamonds.svg	19	yes	53	1	323	0	0			0	0			1				0	
6.6.1	win	2023-06-27	11:19:16	11:27:51	511572	5717864c94d4fc001297198d	4	1	main_slash	11	advance_on_keypress_SLASH	52	stimuli_target_diamondrectangles.svg	stimuli_distractor_trianglediamonds.svg	19	yes	57	0	319	0	0			0	0			1				0	
6.6.1	win	2023-06-27	11:19:16	11:27:53	512769	5717864c94d4fc001297198d	4	1	main_slash	11	main_slash	53	stimuli_distractor_trianglediamonds.svg	stimuli_target_trianglerectangles.svg	25	yes	53	1	236	0	0			0	0			1				0	
6.6.1	win	2023-06-27	11:19:16	11:27:53	512769	5717864c94d4fc001297198d	4	1	main_slash	11	advance_on_keypress_SLASH	54	stimuli_distractor_trianglediamonds.svg	stimuli_target_trianglerectangles.svg	25	yes	57	0	392	0	0			0	0			1				0	
6.6.1	win	2023-06-27	11:19:16	11:27:54	514152	5717864c94d4fc001297198d	4	1	main_slash	11	main_slash	55	stimuli_target_rectangletriangles.svg	stimuli_distractor_trianglediamonds.svg	1	yes	53	1	352	0	0			0	0			1				0	
6.6.1	win	2023-06-27	11:19:16	11:27:54	514152	5717864c94d4fc001297198d	4	1	main_slash	11	advance_on_keypress_SLASH	56	stimuli_target_rectangletriangles.svg	stimuli_distractor_trianglediamonds.svg	1	yes	57	0	402	0	0			0	0			1				0	
6.6.1	win	2023-06-27	11:19:16	11:27:55	515499	5717864c94d4fc001297198d	4	1	main_slash	11	main_slash	57	stimuli_distractor_diamondtriangles.svg	stimuli_target_squaretriangles.svg	15	yes	53	1	300	0	0			0	0			1				0	
6.6.1	win	2023-06-27	11:19:16	11:27:55	515499	5717864c94d4fc001297198d	4	1	main_slash	11	advance_on_keypress_SLASH	58	stimuli_distractor_diamondtriangles.svg	stimuli_target_squaretriangles.svg	15	yes	57	0	380	0	0			0	0			1				0	
6.6.1	win	2023-06-27	11:19:16	11:27:57	516849	5717864c94d4fc001297198d	4	1	main_slash	11	main_slash	59	stimuli_target_diamondsquares.svg	stimuli_distractor_trianglediamonds.svg	20	yes	53	1	316	0	0			0	0			1				0	
6.6.1	win	2023-06-27	11:19:16	11:27:57	516849	5717864c94d4fc001297198d	4	1	main_slash	11	advance_on_keypress_SLASH	60	stimuli_target_diamondsquares.svg	stimuli_distractor_trianglediamonds.svg	20	yes	57	0	337	0	0			0	0			1				0	
6.6.1	win	2023-06-27	11:19:16	11:27:58	518100	5717864c94d4fc001297198d	4	1	main_slash	11	main_slash	61	stimuli_distractor_trianglediamonds.svg	stimuli_distractor_diamondtriangles.svg	36	no	53	0	267	0	0			0	0			1				0	
6.6.1	win	2023-06-27	11:19:16	11:27:58	518100	5717864c94d4fc001297198d	4	1	main_slash	11	advance_on_keypress_SLASH	62	stimuli_distractor_trianglediamonds.svg	stimuli_distractor_diamondtriangles.svg	36	no	57	0	315	0	0			0	0			1				0	
6.6.1	win	2023-06-27	11:19:16	11:27:59	519351	5717864c94d4fc001297198d	4	1	main_slash	11	main_slash	63	stimuli_distractor_trianglediamonds.svg	stimuli_target_diamondsquares.svg	28	yes	53	1	286	0	0			0	0			1				0	
6.6.1	win	2023-06-27	11:19:16	11:27:59	519351	5717864c94d4fc001297198d	4	1	main_slash	11	advance_on_keypress_SLASH	64	stimuli_distractor_trianglediamonds.svg	stimuli_target_diamondsquares.svg	28	yes	57	0	377	0	0			0	0			1				0	
6.6.1	win	2023-06-27	11:19:16	11:28:01	520644	5717864c94d4fc001297198d	4	1	main_slash	11	main_slash	65	stimuli_target_diamondsquares.svg	stimuli_distractor_diamondtriangles.svg	24	yes	53	1	278	0	0			0	0			1				0	
6.6.1	win	2023-06-27	11:19:16	11:28:01	520644	5717864c94d4fc001297198d	4	1	main_slash	11	advance_on_keypress_SLASH	66	stimuli_target_diamondsquares.svg	stimuli_distractor_diamondtriangles.svg	24	yes	57	0	392	0	0			0	0			1				0	
6.6.1	win	2023-06-27	11:19:16	11:28:02	521903	5717864c94d4fc001297198d	4	1	main_slash	11	main_slash	67	stimuli_distractor_diamondtriangles.svg	stimuli_distractor_diamondtriangles.svg	40	no	53	0	237	0	0			0	0			1				0	
6.6.1	win	2023-06-27	11:19:16	11:28:02	521903	5717864c94d4fc001297198d	4	1	main_slash	11	advance_on_keypress_SLASH	68	stimuli_distractor_diamondtriangles.svg	stimuli_distractor_diamondtriangles.svg	40	no	57	0	358	0	0			0	0			1				0	
6.6.1	win	2023-06-27	11:19:16	11:28:03	523211	5717864c94d4fc001297198d	4	1	main_slash	11	main_slash	69	stimuli_target_trianglesquares.svg	stimuli_distractor_diamondtriangles.svg	22	yes	53	1	312	0	0			0	0			1				0	
6.6.1	win	2023-06-27	11:19:16	11:28:03	523211	5717864c94d4fc001297198d	4	1	main_slash	11	advance_on_keypress_SLASH	70	stimuli_target_trianglesquares.svg	stimuli_distractor_diamondtriangles.svg	22	yes	57	0	394	0	0			0	0			1				0	
6.6.1	win	2023-06-27	11:19:16	11:28:04	524523	5717864c94d4fc001297198d	4	1	main_slash	11	main_slash	71	stimuli_distractor_diamondtriangles.svg	stimuli_distractor_trianglediamonds.svg	37	no	53	0	290	0	0			0	0			1				0	
6.6.1	win	2023-06-27	11:19:16	11:28:04	524523	5717864c94d4fc001297198d	4	1	main_slash	11	advance_on_keypress_SLASH	72	stimuli_distractor_diamondtriangles.svg	stimuli_distractor_trianglediamonds.svg	37	no	57	0	464	0	0			0	0			1				0	
6.6.1	win	2023-06-27	11:19:16	11:28:06	525894	5717864c94d4fc001297198d	4	1	main_slash	11	main_slash	73	stimuli_distractor_trianglediamonds.svg	stimuli_target_squarediamonds.svg	12	yes	53	1	262	0	0			0	0			1				0	
6.6.1	win	2023-06-27	11:19:16	11:28:06	525894	5717864c94d4fc001297198d	4	1	main_slash	11	advance_on_keypress_SLASH	74	stimuli_distractor_trianglediamonds.svg	stimuli_target_squarediamonds.svg	12	yes	57	0	416	0	0			0	0			1				0	
6.6.1	win	2023-06-27	11:19:16	11:28:07	527352	5717864c94d4fc001297198d	4	1	main_slash	11	main_slash	75	stimuli_target_squarediamonds.svg	stimuli_distractor_diamondtriangles.svg	8	yes	53	1	403	0	0			0	0			1				0	
6.6.1	win	2023-06-27	11:19:16	11:28:07	527352	5717864c94d4fc001297198d	4	1	main_slash	11	advance_on_keypress_SLASH	76	stimuli_target_squarediamonds.svg	stimuli_distractor_diamondtriangles.svg	8	yes	57	0	427	0	0			0	0			1				0	
6.6.1	win	2023-06-27	11:19:16	11:28:09	528684	5717864c94d4fc001297198d	4	1	main_slash	11	main_slash	77	stimuli_target_squarediamonds.svg	stimuli_distractor_trianglediamonds.svg	4	yes	53	1	269	0	0			0	0			1				0	
6.6.1	win	2023-06-27	11:19:16	11:28:09	528684	5717864c94d4fc001297198d	4	1	main_slash	11	advance_on_keypress_SLASH	78	stimuli_target_squarediamonds.svg	stimuli_distractor_trianglediamonds.svg	4	yes	57	0	338	0	0			0	0			1				0	
6.6.1	win	2023-06-27	11:19:16	11:28:10	529894	5717864c94d4fc001297198d	4	1	main_slash	11	main_slash	79	stimuli_distractor_diamondtriangles.svg	stimuli_target_trianglesquares.svg	30	yes	53	1	228	0	0			0	0			1				0	
6.6.1	win	2023-06-27	11:19:16	11:28:10	529894	5717864c94d4fc001297198d	4	1	main_slash	11	advance_on_keypress_SLASH	80	stimuli_distractor_diamondtriangles.svg	stimuli_target_trianglesquares.svg	30	yes	57	0	329	0	0			0	0			1				0	
6.6.1	win	2023-06-27	11:19:16	11:28:11	531114	5717864c94d4fc001297198d	4	1	main_slash	11	main_slash	81	stimuli_distractor_diamondtriangles.svg	stimuli_target_squaretriangles.svg	15	yes	53	1	249	0	0			0	0			1				0	
6.6.1	win	2023-06-27	11:19:16	11:28:11	531114	5717864c94d4fc001297198d	4	1	main_slash	11	advance_on_keypress_SLASH	82	stimuli_distractor_diamondtriangles.svg	stimuli_target_squaretriangles.svg	15	yes	57	0	368	0	0			0	0			1				0	
6.6.1	win	2023-06-27	11:19:16	11:28:12	532427	5717864c94d4fc001297198d	4	1	main_slash	11	main_slash	83	stimuli_target_squarediamonds.svg	stimuli_distractor_trianglediamonds.svg	4	yes	53	1	294	0	0			0	0			1				0	
6.6.1	win	2023-06-27	11:19:16	11:28:12	532427	5717864c94d4fc001297198d	4	1	main_slash	11	advance_on_keypress_SLASH	84	stimuli_target_squarediamonds.svg	stimuli_distractor_trianglediamonds.svg	4	yes	57	0	421	0	0			0	0			1				0	
6.6.1	win	2023-06-27	11:19:16	11:28:14	533684	5717864c94d4fc001297198d	4	1	main_slash	11	main_slash	85	stimuli_target_trianglerectangles.svg	stimuli_distractor_trianglediamonds.svg	17	yes	53	1	201	0	0			0	0			1				0	
6.6.1	win	2023-06-27	11:19:16	11:28:14	533684	5717864c94d4fc001297198d	4	1	main_slash	11	advance_on_keypress_SLASH	86	stimuli_target_trianglerectangles.svg	stimuli_distractor_trianglediamonds.svg	17	yes	57	0	413	0	0			0	0			1				0	
6.6.1	win	2023-06-27	11:19:16	11:28:15	535038	5717864c94d4fc001297198d	4	1	main_slash	11	main_slash	87	stimuli_distractor_trianglediamonds.svg	stimuli_target_trianglesquares.svg	26	yes	53	1	289	0	0			0	0			1				0	
6.6.1	win	2023-06-27	11:19:16	11:28:15	535038	5717864c94d4fc001297198d	4	1	main_slash	11	advance_on_keypress_SLASH	88	stimuli_distractor_trianglediamonds.svg	stimuli_target_trianglesquares.svg	26	yes	57	0	404	0	0			0	0			1				0	
6.6.1	win	2023-06-27	11:19:16	11:28:16	536229	5717864c94d4fc001297198d	4	1	main_slash	11	main_slash	89	stimuli_distractor_diamondtriangles.svg	stimuli_target_trianglesquares.svg	30	yes	53	1	147	0	0			0	0			1				0	
6.6.1	win	2023-06-27	11:19:16	11:28:16	536229	5717864c94d4fc001297198d	4	1	main_slash	11	advance_on_keypress_SLASH	90	stimuli_distractor_diamondtriangles.svg	stimuli_target_trianglesquares.svg	30	yes	57	0	456	0	0			0	0			1				0	
6.6.1	win	2023-06-27	11:19:16	11:28:17	537561	5717864c94d4fc001297198d	4	1	main_slash	11	main_slash	91	stimuli_target_rectanglediamonds.svg	stimuli_distractor_diamondtriangles.svg	6	yes	53	1	229	0	0			0	0			1				0	
6.6.1	win	2023-06-27	11:19:16	11:28:17	537561	5717864c94d4fc001297198d	4	1	main_slash	11	advance_on_keypress_SLASH	92	stimuli_target_rectanglediamonds.svg	stimuli_distractor_diamondtriangles.svg	6	yes	57	0	386	0	0			0	0			1				0	
6.6.1	win	2023-06-27	11:19:16	11:28:19	539011	5717864c94d4fc001297198d	4	1	main_slash	11	main_slash	93	stimuli_target_trianglerectangles.svg	stimuli_distractor_diamondtriangles.svg	21	yes	53	1	429	0	0			0	0			1				0	
6.6.1	win	2023-06-27	11:19:16	11:28:19	539011	5717864c94d4fc001297198d	4	1	main_slash	11	advance_on_keypress_SLASH	94	stimuli_target_trianglerectangles.svg	stimuli_distractor_diamondtriangles.svg	21	yes	57	0	411	0	0			0	0			1				0	
6.6.1	win	2023-06-27	11:19:16	11:28:20	540142	5717864c94d4fc001297198d	4	1	main_slash	11	main_slash	95	stimuli_target_rectangletriangles.svg	stimuli_distractor_diamondtriangles.svg	5	yes	53	1	93	0	0			0	0			1				0	
6.6.1	win	2023-06-27	11:19:16	11:28:20	540142	5717864c94d4fc001297198d	4	1	main_slash	11	advance_on_keypress_SLASH	96	stimuli_target_rectangletriangles.svg	stimuli_distractor_diamondtriangles.svg	5	yes	57	0	348	0	0			0	0			1				0	
6.6.1	win	2023-06-27	11:19:16	11:28:21	541364	5717864c94d4fc001297198d	4	1	main_slash	11	main_slash	97	stimuli_distractor_diamondtriangles.svg	stimuli_distractor_trianglediamonds.svg	37	no	53	0	231	0	0			0	0			1				0	
6.6.1	win	2023-06-27	11:19:16	11:28:21	541364	5717864c94d4fc001297198d	4	1	main_slash	11	advance_on_keypress_SLASH	98	stimuli_distractor_diamondtriangles.svg	stimuli_distractor_trianglediamonds.svg	37	no	57	0	464	0	0			0	0			1				0	
6.6.1	win	2023-06-27	11:19:16	11:28:23	542727	5717864c94d4fc001297198d	4	1	main_slash	11	main_slash	99	stimuli_target_diamondrectangles.svg	stimuli_distractor_diamondtriangles.svg	23	yes	53	1	245	0	0			0	0			1				0	
6.6.1	win	2023-06-27	11:19:16	11:28:23	542727	5717864c94d4fc001297198d	4	1	main_slash	11	advance_on_keypress_SLASH	100	stimuli_target_diamondrectangles.svg	stimuli_distractor_diamondtriangles.svg	23	yes	57	0	491	0	0			0	0			1				0	
6.6.1	win	2023-06-27	11:19:16	11:28:24	544119	5717864c94d4fc001297198d	4	1	main_slash	11	main_slash	101	stimuli_distractor_diamondtriangles.svg	stimuli_distractor_diamondtriangles.svg	39	no	53	0	270	0	0			0	0			1				0	
6.6.1	win	2023-06-27	11:19:16	11:28:24	544119	5717864c94d4fc001297198d	4	1	main_slash	11	advance_on_keypress_SLASH	102	stimuli_distractor_diamondtriangles.svg	stimuli_distractor_diamondtriangles.svg	39	no	57	0	470	0	0			0	0			1				0	
6.6.1	win	2023-06-27	11:19:16	11:28:25	545552	5717864c94d4fc001297198d	4	1	main_slash	11	main_slash	103	stimuli_distractor_diamondtriangles.svg	stimuli_distractor_diamondtriangles.svg	40	no	53	0	320	0	0			0	0			1				0	
6.6.1	win	2023-06-27	11:19:16	11:28:25	545552	5717864c94d4fc001297198d	4	1	main_slash	11	advance_on_keypress_SLASH	104	stimuli_distractor_diamondtriangles.svg	stimuli_distractor_diamondtriangles.svg	40	no	57	0	448	0	0			0	0			1				0	
6.6.1	win	2023-06-27	11:19:16	11:28:27	546915	5717864c94d4fc001297198d	4	1	main_slash	11	main_slash	105	stimuli_distractor_diamondtriangles.svg	stimuli_target_diamondsquares.svg	32	yes	53	1	266	0	0			0	0			1				0	
6.6.1	win	2023-06-27	11:19:16	11:28:27	546915	5717864c94d4fc001297198d	4	1	main_slash	11	advance_on_keypress_SLASH	106	stimuli_distractor_diamondtriangles.svg	stimuli_target_diamondsquares.svg	32	yes	57	0	414	0	0			0	0			1				0	
6.6.1	win	2023-06-27	11:19:16	11:28:28	548147	5717864c94d4fc001297198d	4	1	main_slash	11	main_slash	107	stimuli_distractor_trianglediamonds.svg	stimuli_distractor_diamondtriangles.svg	35	no	53	0	165	0	0			0	0			1				0	
6.6.1	win	2023-06-27	11:19:16	11:28:28	548147	5717864c94d4fc001297198d	4	1	main_slash	11	advance_on_keypress_SLASH	108	stimuli_distractor_trianglediamonds.svg	stimuli_distractor_diamondtriangles.svg	35	no	57	0	448	0	0			0	0			1				0	
6.6.1	win	2023-06-27	11:19:16	11:28:29	549326	5717864c94d4fc001297198d	4	1	main_slash	11	main_slash	109	stimuli_distractor_diamondtriangles.svg	stimuli_target_rectanglediamonds.svg	14	yes	53	1	77	0	0			0	0			1				0	
6.6.1	win	2023-06-27	11:19:16	11:28:29	549326	5717864c94d4fc001297198d	4	1	main_slash	11	advance_on_keypress_SLASH	110	stimuli_distractor_diamondtriangles.svg	stimuli_target_rectanglediamonds.svg	14	yes	57	0	499	0	0			0	0			1				0	
6.6.1	win	2023-06-27	11:19:16	11:28:31	550847	5717864c94d4fc001297198d	4	1	main_slash	11	main_slash	111	stimuli_distractor_trianglediamonds.svg	stimuli_target_trianglerectangles.svg	25	yes	53	1	382	0	0			0	0			1				0	
6.6.1	win	2023-06-27	11:19:16	11:28:31	550847	5717864c94d4fc001297198d	4	1	main_slash	11	advance_on_keypress_SLASH	112	stimuli_distractor_trianglediamonds.svg	stimuli_target_trianglerectangles.svg	25	yes	57	0	319	0	0			0	0			1				0	
6.6.1	win	2023-06-27	11:19:16	11:28:32	552129	5717864c94d4fc001297198d	4	1	main_slash	11	main_slash	113	stimuli_distractor_trianglediamonds.svg	stimuli_distractor_trianglediamonds.svg	34	no	53	0	314	0	0			0	0			1				0	
6.6.1	win	2023-06-27	11:19:16	11:28:32	552129	5717864c94d4fc001297198d	4	1	main_slash	11	advance_on_keypress_SLASH	114	stimuli_distractor_trianglediamonds.svg	stimuli_distractor_trianglediamonds.svg	34	no	57	0	337	0	0			0	0			1				0	
6.6.1	win	2023-06-27	11:19:16	11:28:33	553402	5717864c94d4fc001297198d	4	1	main_slash	11	main_slash	115	stimuli_target_diamondsquares.svg	stimuli_distractor_diamondtriangles.svg	24	yes	53	1	287	0	0			0	0			1				0	
6.6.1	win	2023-06-27	11:19:16	11:28:33	553402	5717864c94d4fc001297198d	4	1	main_slash	11	advance_on_keypress_SLASH	116	stimuli_target_diamondsquares.svg	stimuli_distractor_diamondtriangles.svg	24	yes	57	0	365	0	0			0	0			1				0	
6.6.1	win	2023-06-27	11:19:16	11:28:35	554740	5717864c94d4fc001297198d	4	1	main_slash	11	main_slash	117	stimuli_distractor_trianglediamonds.svg	stimuli_distractor_diamondtriangles.svg	36	no	53	0	325	0	0			0	0			1				0	
6.6.1	win	2023-06-27	11:19:16	11:28:35	554740	5717864c94d4fc001297198d	4	1	main_slash	11	advance_on_keypress_SLASH	118	stimuli_distractor_trianglediamonds.svg	stimuli_distractor_diamondtriangles.svg	36	no	57	0	392	0	0			0	0			1				0	
6.6.1	win	2023-06-27	11:19:16	11:28:36	556095	5717864c94d4fc001297198d	4	1	main_slash	11	main_slash	119	stimuli_target_diamondrectangles.svg	stimuli_distractor_trianglediamonds.svg	19	yes	53	1	329	0	0			0	0			1				0	
6.6.1	win	2023-06-27	11:19:16	11:28:36	556095	5717864c94d4fc001297198d	4	1	main_slash	11	advance_on_keypress_SLASH	120	stimuli_target_diamondrectangles.svg	stimuli_distractor_trianglediamonds.svg	19	yes	57	0	323	0	0			0	0			1				0	
6.6.1	win	2023-06-27	11:19:16	11:28:37	557261	5717864c94d4fc001297198d	4	1	main_slash	11	main_slash	121	stimuli_distractor_diamondtriangles.svg	stimuli_target_squarediamonds.svg	16	yes	53	1	195	0	0			0	0			1				0	
6.6.1	win	2023-06-27	11:19:16	11:28:37	557261	5717864c94d4fc001297198d	4	1	main_slash	11	advance_on_keypress_SLASH	122	stimuli_distractor_diamondtriangles.svg	stimuli_target_squarediamonds.svg	16	yes	57	0	355	0	0			0	0			1				0	
6.6.1	win	2023-06-27	11:19:16	11:28:38	558478	5717864c94d4fc001297198d	4	1	main_slash	11	main_slash	123	stimuli_distractor_trianglediamonds.svg	stimuli_target_rectangletriangles.svg	9	yes	53	1	213	0	0			0	0			1				0	
6.6.1	win	2023-06-27	11:19:16	11:28:38	558478	5717864c94d4fc001297198d	4	1	main_slash	11	advance_on_keypress_SLASH	124	stimuli_distractor_trianglediamonds.svg	stimuli_target_rectangletriangles.svg	9	yes	57	0	231	0	0			0	0			1				0	
6.6.1	win	2023-06-27	11:19:16	11:28:40	559690	5717864c94d4fc001297198d	4	1	main_slash	11	main_slash	125	stimuli_distractor_trianglediamonds.svg	stimuli_target_rectanglediamonds.svg	10	yes	53	1	342	0	0			0	0			1				0	
6.6.1	win	2023-06-27	11:19:16	11:28:40	559690	5717864c94d4fc001297198d	4	1	main_slash	11	advance_on_keypress_SLASH	126	stimuli_distractor_trianglediamonds.svg	stimuli_target_rectanglediamonds.svg	10	yes	57	0	332	0	0			0	0			1				0	
6.6.1	win	2023-06-27	11:19:16	11:28:41	560926	5717864c94d4fc001297198d	4	1	main_slash	11	main_slash	127	stimuli_distractor_trianglediamonds.svg	stimuli_distractor_trianglediamonds.svg	33	no	53	0	261	0	0			0	0			1				0	
6.6.1	win	2023-06-27	11:19:16	11:28:41	560926	5717864c94d4fc001297198d	4	1	main_slash	11	advance_on_keypress_SLASH	128	stimuli_distractor_trianglediamonds.svg	stimuli_distractor_trianglediamonds.svg	33	no	57	0	470	0	0			0	0			1				0	
6.6.1	win	2023-06-27	11:19:16	11:28:42	562171	5717864c94d4fc001297198d	4	1	main_slash	11	main_slash	129	stimuli_distractor_diamondtriangles.svg	stimuli_distractor_trianglediamonds.svg	38	no	53	0	140	0	0			0	0			1				0	
6.6.1	win	2023-06-27	11:19:16	11:28:42	562171	5717864c94d4fc001297198d	4	1	main_slash	11	advance_on_keypress_SLASH	130	stimuli_distractor_diamondtriangles.svg	stimuli_distractor_trianglediamonds.svg	38	no	57	0	317	0	0			0	0			1				0	
6.6.1	win	2023-06-27	11:19:16	11:28:43	563401	5717864c94d4fc001297198d	4	1	main_slash	11	main_slash	131	stimuli_distractor_diamondtriangles.svg	stimuli_target_trianglerectangles.svg	29	yes	53	1	269	0	0			0	0			1				0	
6.6.1	win	2023-06-27	11:19:16	11:28:43	563401	5717864c94d4fc001297198d	4	1	main_slash	11	advance_on_keypress_SLASH	132	stimuli_distractor_diamondtriangles.svg	stimuli_target_trianglerectangles.svg	29	yes	57	0	457	0	0			0	0			1				0	
6.6.1	win	2023-06-27	11:19:16	11:28:45	564700	5717864c94d4fc001297198d	4	1	main_slash	11	main_slash	133	stimuli_target_rectangletriangles.svg	stimuli_distractor_trianglediamonds.svg	1	yes	53	1	203	0	0			0	0			1				0	
6.6.1	win	2023-06-27	11:19:16	11:28:45	564700	5717864c94d4fc001297198d	4	1	main_slash	11	advance_on_keypress_SLASH	134	stimuli_target_rectangletriangles.svg	stimuli_distractor_trianglediamonds.svg	1	yes	57	0	426	0	0			0	0			1				0	
6.6.1	win	2023-06-27	11:19:16	11:28:46	565846	5717864c94d4fc001297198d	4	1	main_slash	11	main_slash	135	stimuli_target_squaretriangles.svg	stimuli_distractor_diamondtriangles.svg	7	yes	53	1	81	0	0			0	0			1				0	
6.6.1	win	2023-06-27	11:19:16	11:28:46	565846	5717864c94d4fc001297198d	4	1	main_slash	11	advance_on_keypress_SLASH	136	stimuli_target_squaretriangles.svg	stimuli_distractor_diamondtriangles.svg	7	yes	57	0	357	0	0			0	0			1				0	
6.6.1	win	2023-06-27	11:19:16	11:28:47	567088	5717864c94d4fc001297198d	4	1	main_slash	11	main_slash	137	stimuli_distractor_diamondtriangles.svg	stimuli_target_diamondrectangles.svg	31	yes	53	1	240	0	0			0	0			1				0	
6.6.1	win	2023-06-27	11:19:16	11:28:47	567088	5717864c94d4fc001297198d	4	1	main_slash	11	advance_on_keypress_SLASH	138	stimuli_distractor_diamondtriangles.svg	stimuli_target_diamondrectangles.svg	31	yes	57	0	436	0	0			0	0			1				0	
6.6.1	win	2023-06-27	11:19:16	11:28:48	568390	5717864c94d4fc001297198d	4	1	main_slash	11	main_slash	139	stimuli_target_rectanglediamonds.svg	stimuli_distractor_trianglediamonds.svg	2	yes	53	1	226	0	0			0	0			1				0	
6.6.1	win	2023-06-27	11:19:16	11:28:48	568390	5717864c94d4fc001297198d	4	1	main_slash	11	advance_on_keypress_SLASH	140	stimuli_target_rectanglediamonds.svg	stimuli_distractor_trianglediamonds.svg	2	yes	57	0	453	0	0			0	0			1				0	
6.6.1	win	2023-06-27	11:19:16	11:28:50	569638	5717864c94d4fc001297198d	4	1	main_slash	11	main_slash	141	stimuli_target_diamondsquares.svg	stimuli_distractor_trianglediamonds.svg	20	yes	53	1	156	0	0			0	0			1				0	
6.6.1	win	2023-06-27	11:19:16	11:28:50	569638	5717864c94d4fc001297198d	4	1	main_slash	11	advance_on_keypress_SLASH	142	stimuli_target_diamondsquares.svg	stimuli_distractor_trianglediamonds.svg	20	yes	57	0	428	0	0			0	0			1				0	
6.6.1	win	2023-06-27	11:19:16	11:28:51	570831	5717864c94d4fc001297198d	4	1	main_slash	11	main_slash	143	stimuli_distractor_trianglediamonds.svg	stimuli_target_diamondrectangles.svg	27	yes	53	1	128	0	0			0	0			1				0	
6.6.1	win	2023-06-27	11:19:16	11:28:51	570831	5717864c94d4fc001297198d	4	1	main_slash	11	advance_on_keypress_SLASH	144	stimuli_distractor_trianglediamonds.svg	stimuli_target_diamondrectangles.svg	27	yes	57	0	434	0	0			0	0			1				0	
6.6.1	win	2023-06-27	11:19:16	11:28:54	573915	5717864c94d4fc001297198d	4	1	main_slash	11	main_slash	145	stimuli_distractor_trianglediamonds.svg	stimuli_target_squarediamonds.svg	12	yes	0	0	2000	0	0			0	0			1				0	
6.6.1	win	2023-06-27	11:19:16	11:28:54	573915	5717864c94d4fc001297198d	4	1	main_slash	11	advance_on_keypress_SLASH	146	stimuli_distractor_trianglediamonds.svg	stimuli_target_squarediamonds.svg	12	yes	57	0	285	0	0			0	0			1				0	
6.6.1	win	2023-06-27	11:19:16	11:28:55	575153	5717864c94d4fc001297198d	4	1	main_slash	11	main_slash	147	stimuli_target_trianglesquares.svg	stimuli_distractor_diamondtriangles.svg	22	yes	53	1	305	0	0			0	0			1				0	
6.6.1	win	2023-06-27	11:19:16	11:28:55	575153	5717864c94d4fc001297198d	4	1	main_slash	11	advance_on_keypress_SLASH	148	stimuli_target_trianglesquares.svg	stimuli_distractor_diamondtriangles.svg	22	yes	57	0	335	0	0			0	0			1				0	
6.6.1	win	2023-06-27	11:19:16	11:28:56	576371	5717864c94d4fc001297198d	4	1	main_slash	11	main_slash	149	stimuli_distractor_trianglediamonds.svg	stimuli_target_diamondsquares.svg	28	yes	53	1	240	0	0			0	0			1				0	
6.6.1	win	2023-06-27	11:19:16	11:28:56	576371	5717864c94d4fc001297198d	4	1	main_slash	11	advance_on_keypress_SLASH	150	stimuli_distractor_trianglediamonds.svg	stimuli_target_diamondsquares.svg	28	yes	57	0	392	0	0			0	0			1				0	
6.6.1	win	2023-06-27	11:19:16	11:28:58	577618	5717864c94d4fc001297198d	4	1	main_slash	11	main_slash	151	stimuli_target_squarediamonds.svg	stimuli_distractor_diamondtriangles.svg	8	yes	53	1	220	0	0			0	0			1				0	
6.6.1	win	2023-06-27	11:19:16	11:28:58	577618	5717864c94d4fc001297198d	4	1	main_slash	11	advance_on_keypress_SLASH	152	stimuli_target_squarediamonds.svg	stimuli_distractor_diamondtriangles.svg	8	yes	57	0	408	0	0			0	0			1				0	
6.6.1	win	2023-06-27	11:19:16	11:28:59	578906	5717864c94d4fc001297198d	4	1	main_slash	11	main_slash	153	stimuli_target_trianglesquares.svg	stimuli_distractor_trianglediamonds.svg	18	yes	53	1	241	0	0			0	0			1				0	
6.6.1	win	2023-06-27	11:19:16	11:28:59	578906	5717864c94d4fc001297198d	4	1	main_slash	11	advance_on_keypress_SLASH	154	stimuli_target_trianglesquares.svg	stimuli_distractor_trianglediamonds.svg	18	yes	57	0	443	0	0			0	0			1				0	
6.6.1	win	2023-06-27	11:19:16	11:29:00	580048	5717864c94d4fc001297198d	4	1	main_slash	11	main_slash	155	stimuli_distractor_diamondtriangles.svg	stimuli_target_rectangletriangles.svg	13	yes	53	1	67	0	0			0	0			1				0	
6.6.1	win	2023-06-27	11:19:16	11:29:00	580048	5717864c94d4fc001297198d	4	1	main_slash	11	advance_on_keypress_SLASH	156	stimuli_distractor_diamondtriangles.svg	stimuli_target_rectangletriangles.svg	13	yes	57	0	394	0	0			0	0			1				0	
6.6.1	win	2023-06-27	11:19:16	11:29:01	581250	5717864c94d4fc001297198d	4	1	main_slash	11	main_slash	157	stimuli_distractor_trianglediamonds.svg	stimuli_target_squaretriangles.svg	11	yes	53	1	168	0	0			0	0			1				0	
6.6.1	win	2023-06-27	11:19:16	11:29:01	581250	5717864c94d4fc001297198d	4	1	main_slash	11	advance_on_keypress_SLASH	158	stimuli_distractor_trianglediamonds.svg	stimuli_target_squaretriangles.svg	11	yes	57	0	376	0	0			0	0			1				0	
6.6.1	win	2023-06-27	11:19:16	11:29:02	582419	5717864c94d4fc001297198d	4	1	main_slash	11	main_slash	159	stimuli_target_squaretriangles.svg	stimuli_distractor_trianglediamonds.svg	3	yes	53	1	154	0	0			0	0			1				0	
6.6.1	win	2023-06-27	11:19:16	11:29:02	582419	5717864c94d4fc001297198d	4	1	main_slash	11	advance_on_keypress_SLASH	160	stimuli_target_squaretriangles.svg	stimuli_distractor_trianglediamonds.svg	3	yes	57	0	395	0	0			0	0			1				0	
6.6.1	win	2023-06-27	11:19:16	11:29:02	582419	5717864c94d4fc001297198d	4	1	headphonecheck_calibration	14	headphonecheck_calibrationIntro	1	stimuli_target_squaretriangles.svg	stimuli_distractor_trianglediamonds.svg	3	yes	calibrationButton	0	2932	0	0			0	0			1				0	
6.6.1	win	2023-06-27	11:19:16	11:29:02	582419	5717864c94d4fc001297198d	4	1	headphonecheck_testphase	15	test_collectResponse	3	stimuli_target_squaretriangles.svg	stimuli_distractor_trianglediamonds.svg	3	yes	first	1	1563	1	4	antiphase_hc_sio.wav	1	0	0			1				0	
6.6.1	win	2023-06-27	11:19:16	11:29:02	582419	5717864c94d4fc001297198d	4	1	headphonecheck_testphase	15	test_collectResponse	6	stimuli_target_squaretriangles.svg	stimuli_distractor_trianglediamonds.svg	3	yes	third	1	649	2	2	antiphase_hc_ios.wav	3	0	0			1				0	
6.6.1	win	2023-06-27	11:19:16	11:29:02	582419	5717864c94d4fc001297198d	4	1	headphonecheck_testphase	15	test_collectResponse	9	stimuli_target_squaretriangles.svg	stimuli_distractor_trianglediamonds.svg	3	yes	second	1	539	3	5	antiphase_hc_osi.wav	2	0	0			1				0	
6.6.1	win	2023-06-27	11:19:16	11:29:02	582419	5717864c94d4fc001297198d	4	1	headphonecheck_testphase	15	test_collectResponse	12	stimuli_target_squaretriangles.svg	stimuli_distractor_trianglediamonds.svg	3	yes	third	1	550	4	6	antiphase_hc_ois.wav	3	0	0			1				0	
6.6.1	win	2023-06-27	11:19:16	11:29:02	582419	5717864c94d4fc001297198d	4	1	headphonecheck_testphase	15	test_collectResponse	15	stimuli_target_squaretriangles.svg	stimuli_distractor_trianglediamonds.svg	3	yes	first	1	663	5	3	antiphase_hc_soi.wav	1	0	0			1				0	
6.6.1	win	2023-06-27	11:19:16	11:29:02	582419	5717864c94d4fc001297198d	4	1	headphonecheck_testphase	15	test_collectResponse	18	stimuli_target_squaretriangles.svg	stimuli_distractor_trianglediamonds.svg	3	yes	second	1	382	6	1	antiphase_hc_iso.wav	2	0	0			1				0	
6.6.1	win	2023-06-27	11:19:16	11:29:02	582419	5717864c94d4fc001297198d	4	1	stereocheck_calibration	17	stereocheck_calibrationIntro	1	stimuli_target_squaretriangles.svg	stimuli_distractor_trianglediamonds.svg	3	yes	stereocheck_calibrationButton	0	5447	6	1	antiphase_hc_iso.wav	2	0	0			1				0	
6.6.1	win	2023-06-27	11:19:16	11:29:02	582419	5717864c94d4fc001297198d	4	1	stereocheck_testphase	18	stereocheck_test_collectResponse	3	stimuli_target_squaretriangles.svg	stimuli_distractor_trianglediamonds.svg	3	yes	stereocheck_left	1	1315	6	1	antiphase_hc_iso.wav	2	1	2	noise_calib_stim_LEFT.wav	1	1				0	
6.6.1	win	2023-06-27	11:19:16	11:29:02	582419	5717864c94d4fc001297198d	4	1	stereocheck_testphase	18	stereocheck_test_collectResponse	6	stimuli_target_squaretriangles.svg	stimuli_distractor_trianglediamonds.svg	3	yes	stereocheck_left	1	375	6	1	antiphase_hc_iso.wav	2	2	3	noise_calib_stim_LEFT.wav	1	1				0	
6.6.1	win	2023-06-27	11:19:16	11:29:02	582419	5717864c94d4fc001297198d	4	1	stereocheck_testphase	18	stereocheck_test_collectResponse	9	stimuli_target_squaretriangles.svg	stimuli_distractor_trianglediamonds.svg	3	yes	stereocheck_right	1	332	6	1	antiphase_hc_iso.wav	2	3	6	noise_calib_stim_RIGHT.wav	2	1				0	
6.6.1	win	2023-06-27	11:19:16	11:29:02	582419	5717864c94d4fc001297198d	4	1	stereocheck_testphase	18	stereocheck_test_collectResponse	12	stimuli_target_squaretriangles.svg	stimuli_distractor_trianglediamonds.svg	3	yes	stereocheck_left	1	321	6	1	antiphase_hc_iso.wav	2	4	1	noise_calib_stim_LEFT.wav	1	1				0	
6.6.1	win	2023-06-27	11:19:16	11:29:02	582419	5717864c94d4fc001297198d	4	1	stereocheck_testphase	18	stereocheck_test_collectResponse	15	stimuli_target_squaretriangles.svg	stimuli_distractor_trianglediamonds.svg	3	yes	stereocheck_right	1	301	6	1	antiphase_hc_iso.wav	2	5	5	noise_calib_stim_RIGHT.wav	2	1				0	
6.6.1	win	2023-06-27	11:19:16	11:29:02	582419	5717864c94d4fc001297198d	4	1	stereocheck_testphase	18	stereocheck_test_collectResponse	18	stimuli_target_squaretriangles.svg	stimuli_distractor_trianglediamonds.svg	3	yes	stereocheck_right	1	286	6	1	antiphase_hc_iso.wav	2	6	4	noise_calib_stim_RIGHT.wav	2	1				0	
6.6.1	win	2023-06-27	11:19:16	11:29:02	582419	5717864c94d4fc001297198d	4	1	DL_practice	21	DL_practice	2	stimuli_target_squaretriangles.svg	stimuli_distractor_trianglediamonds.svg	3	yes	ta	1	2271	6	1	antiphase_hc_iso.wav	2	6	4	noise_calib_stim_RIGHT.wav	2	36	blb_dichoticlistening_ta-ta.mp3	ta	ta	0	left
6.6.1	win	2023-06-27	11:19:16	11:29:02	582419	5717864c94d4fc001297198d	4	1	DL_practice	21	DL_practice	3	stimuli_target_squaretriangles.svg	stimuli_distractor_trianglediamonds.svg	3	yes	ga	1	1143	6	1	antiphase_hc_iso.wav	2	6	4	noise_calib_stim_RIGHT.wav	2	18	blb_dichoticlistening_ga-ta.mp3	ga	ta	1	left
6.6.1	win	2023-06-27	11:19:16	11:29:02	582419	5717864c94d4fc001297198d	4	1	DL_practice	21	DL_practice	4	stimuli_target_squaretriangles.svg	stimuli_distractor_trianglediamonds.svg	3	yes	pa	1	1267	6	1	antiphase_hc_iso.wav	2	6	4	noise_calib_stim_RIGHT.wav	2	23	blb_dichoticlistening_ka-pa.mp3	ka	pa	1	right
6.6.1	win	2023-06-27	11:19:16	11:29:02	582419	5717864c94d4fc001297198d	4	1	DL_practice	21	DL_practice	5	stimuli_target_squaretriangles.svg	stimuli_distractor_trianglediamonds.svg	3	yes	da	1	1329	6	1	antiphase_hc_iso.wav	2	6	4	noise_calib_stim_RIGHT.wav	2	7	blb_dichoticlistening_da-ba.mp3	da	ba	1	left
6.6.1	win	2023-06-27	11:19:16	11:29:02	582419	5717864c94d4fc001297198d	4	1	DL_practice	21	DL_practice	6	stimuli_target_squaretriangles.svg	stimuli_distractor_trianglediamonds.svg	3	yes	ga	1	877	6	1	antiphase_hc_iso.wav	2	6	4	noise_calib_stim_RIGHT.wav	2	15	blb_dichoticlistening_ga-ga.mp3	ga	ga	0	left
6.6.1	win	2023-06-27	11:19:16	11:29:02	582419	5717864c94d4fc001297198d	4	1	DL_practice	21	DL_practice	7	stimuli_target_squaretriangles.svg	stimuli_distractor_trianglediamonds.svg	3	yes	ba	1	1772	6	1	antiphase_hc_iso.wav	2	6	4	noise_calib_stim_RIGHT.wav	2	1	blb_dichoticlistening_ba-ba.mp3	ba	ba	0	left
6.6.1	win	2023-06-27	11:19:16	11:29:02	582419	5717864c94d4fc001297198d	4	1	DL_practice	21	DL_practice	8	stimuli_target_squaretriangles.svg	stimuli_distractor_trianglediamonds.svg	3	yes	pa	1	1272	6	1	antiphase_hc_iso.wav	2	6	4	noise_calib_stim_RIGHT.wav	2	29	blb_dichoticlistening_pa-pa.mp3	pa	pa	0	left
6.6.1	win	2023-06-27	11:19:16	11:29:02	582419	5717864c94d4fc001297198d	4	1	DL_practice	21	DL_practice	9	stimuli_target_squaretriangles.svg	stimuli_distractor_trianglediamonds.svg	3	yes	da	1	1183	6	1	antiphase_hc_iso.wav	2	6	4	noise_calib_stim_RIGHT.wav	2	8	blb_dichoticlistening_da-da.mp3	da	da	0	left
6.6.1	win	2023-06-27	11:19:16	11:29:02	582419	5717864c94d4fc001297198d	4	1	DL_practice	21	DL_practice	10	stimuli_target_squaretriangles.svg	stimuli_distractor_trianglediamonds.svg	3	yes	ka	1	1284	6	1	antiphase_hc_iso.wav	2	6	4	noise_calib_stim_RIGHT.wav	2	22	blb_dichoticlistening_ka-ka.mp3	ka	ka	0	left
6.6.1	win	2023-06-27	11:19:16	11:29:02	582419	5717864c94d4fc001297198d	4	1	DL_test	23	DL_test	1	stimuli_target_squaretriangles.svg	stimuli_distractor_trianglediamonds.svg	3	yes	pa	1	1202	6	1	antiphase_hc_iso.wav	2	6	4	noise_calib_stim_RIGHT.wav	2	35	blb_dichoticlistening_ta-pa.mp3	ta	pa	1	right
6.6.1	win	2023-06-27	11:19:16	11:29:02	582419	5717864c94d4fc001297198d	4	1	DL_test	23	DL_test	2	stimuli_target_squaretriangles.svg	stimuli_distractor_trianglediamonds.svg	3	yes	ga	0	1246	6	1	antiphase_hc_iso.wav	2	6	4	noise_calib_stim_RIGHT.wav	2	12	blb_dichoticlistening_da-ta.mp3	da	ta	1	other
6.6.1	win	2023-06-27	11:19:16	11:29:02	582419	5717864c94d4fc001297198d	4	1	DL_test	23	DL_test	3	stimuli_target_squaretriangles.svg	stimuli_distractor_trianglediamonds.svg	3	yes	ka	1	1319	6	1	antiphase_hc_iso.wav	2	6	4	noise_calib_stim_RIGHT.wav	2	21	blb_dichoticlistening_ka-ga.mp3	ka	ga	1	left
6.6.1	win	2023-06-27	11:19:16	11:29:02	582419	5717864c94d4fc001297198d	4	1	DL_test	23	DL_test	4	stimuli_target_squaretriangles.svg	stimuli_distractor_trianglediamonds.svg	3	yes	pa	1	1167	6	1	antiphase_hc_iso.wav	2	6	4	noise_calib_stim_RIGHT.wav	2	5	blb_dichoticlistening_ba-pa.mp3	ba	pa	1	right
6.6.1	win	2023-06-27	11:19:16	11:29:02	582419	5717864c94d4fc001297198d	4	1	DL_test	23	DL_test	5	stimuli_target_squaretriangles.svg	stimuli_distractor_trianglediamonds.svg	3	yes	pa	0	1460	6	1	antiphase_hc_iso.wav	2	6	4	noise_calib_stim_RIGHT.wav	2	6	blb_dichoticlistening_ba-ta.mp3	ba	ta	1	other
6.6.1	win	2023-06-27	11:19:16	11:29:02	582419	5717864c94d4fc001297198d	4	1	DL_test	23	DL_test	6	stimuli_target_squaretriangles.svg	stimuli_distractor_trianglediamonds.svg	3	yes	ka	1	1219	6	1	antiphase_hc_iso.wav	2	6	4	noise_calib_stim_RIGHT.wav	2	22	blb_dichoticlistening_ka-ka.mp3	ka	ka	0	left
6.6.1	win	2023-06-27	11:19:16	11:29:02	582419	5717864c94d4fc001297198d	4	1	DL_test	23	DL_test	7	stimuli_target_squaretriangles.svg	stimuli_distractor_trianglediamonds.svg	3	yes	ka	1	1032	6	1	antiphase_hc_iso.wav	2	6	4	noise_calib_stim_RIGHT.wav	2	23	blb_dichoticlistening_ka-pa.mp3	ka	pa	1	left
6.6.1	win	2023-06-27	11:19:16	11:29:02	582419	5717864c94d4fc001297198d	4	1	DL_test	23	DL_test	8	stimuli_target_squaretriangles.svg	stimuli_distractor_trianglediamonds.svg	3	yes	pa	1	1048	6	1	antiphase_hc_iso.wav	2	6	4	noise_calib_stim_RIGHT.wav	2	28	blb_dichoticlistening_pa-ka.mp3	pa	ka	1	left
6.6.1	win	2023-06-27	11:19:16	11:29:02	582419	5717864c94d4fc001297198d	4	1	DL_test	23	DL_test	9	stimuli_target_squaretriangles.svg	stimuli_distractor_trianglediamonds.svg	3	yes	ka	1	935	6	1	antiphase_hc_iso.wav	2	6	4	noise_calib_stim_RIGHT.wav	2	16	blb_dichoticlistening_ga-ka.mp3	ga	ka	1	right
6.6.1	win	2023-06-27	11:19:16	11:29:02	582419	5717864c94d4fc001297198d	4	1	DL_test	23	DL_test	10	stimuli_target_squaretriangles.svg	stimuli_distractor_trianglediamonds.svg	3	yes	ka	0	1346	6	1	antiphase_hc_iso.wav	2	6	4	noise_calib_stim_RIGHT.wav	2	33	blb_dichoticlistening_ta-ga.mp3	ta	ga	1	other
6.6.1	win	2023-06-27	11:19:16	11:29:02	582419	5717864c94d4fc001297198d	4	1	DL_test	23	DL_test	11	stimuli_target_squaretriangles.svg	stimuli_distractor_trianglediamonds.svg	3	yes	pa	0	1015	6	1	antiphase_hc_iso.wav	2	6	4	noise_calib_stim_RIGHT.wav	2	4	blb_dichoticlistening_ba-ka.mp3	ba	ka	1	other
6.6.1	win	2023-06-27	11:19:16	11:29:02	582419	5717864c94d4fc001297198d	4	1	DL_test	23	DL_test	12	stimuli_target_squaretriangles.svg	stimuli_distractor_trianglediamonds.svg	3	yes	da	1	1078	6	1	antiphase_hc_iso.wav	2	6	4	noise_calib_stim_RIGHT.wav	2	7	blb_dichoticlistening_da-ba.mp3	da	ba	1	left
6.6.1	win	2023-06-27	11:19:16	11:29:02	582419	5717864c94d4fc001297198d	4	1	DL_test	23	DL_test	13	stimuli_target_squaretriangles.svg	stimuli_distractor_trianglediamonds.svg	3	yes	ba	1	1545	6	1	antiphase_hc_iso.wav	2	6	4	noise_calib_stim_RIGHT.wav	2	1	blb_dichoticlistening_ba-ba.mp3	ba	ba	0	left
6.6.1	win	2023-06-27	11:19:16	11:29:02	582419	5717864c94d4fc001297198d	4	1	DL_test	23	DL_test	14	stimuli_target_squaretriangles.svg	stimuli_distractor_trianglediamonds.svg	3	yes	ga	1	1056	6	1	antiphase_hc_iso.wav	2	6	4	noise_calib_stim_RIGHT.wav	2	15	blb_dichoticlistening_ga-ga.mp3	ga	ga	0	left
6.6.1	win	2023-06-27	11:19:16	11:29:02	582419	5717864c94d4fc001297198d	4	1	DL_test	23	DL_test	15	stimuli_target_squaretriangles.svg	stimuli_distractor_trianglediamonds.svg	3	yes	ka	1	1106	6	1	antiphase_hc_iso.wav	2	6	4	noise_calib_stim_RIGHT.wav	2	19	blb_dichoticlistening_ka-ba.mp3	ka	ba	1	left
6.6.1	win	2023-06-27	11:19:16	11:29:02	582419	5717864c94d4fc001297198d	4	1	DL_test	23	DL_test	16	stimuli_target_squaretriangles.svg	stimuli_distractor_trianglediamonds.svg	3	yes	ga	1	1368	6	1	antiphase_hc_iso.wav	2	6	4	noise_calib_stim_RIGHT.wav	2	9	blb_dichoticlistening_da-ga.mp3	da	ga	1	right
6.6.1	win	2023-06-27	11:19:16	11:29:02	582419	5717864c94d4fc001297198d	4	1	DL_test	23	DL_test	17	stimuli_target_squaretriangles.svg	stimuli_distractor_trianglediamonds.svg	3	yes	ba	1	1635	6	1	antiphase_hc_iso.wav	2	6	4	noise_calib_stim_RIGHT.wav	2	3	blb_dichoticlistening_ba-ga.mp3	ba	ga	1	left
6.6.1	win	2023-06-27	11:19:16	11:29:02	582419	5717864c94d4fc001297198d	4	1	DL_test	23	DL_test	18	stimuli_target_squaretriangles.svg	stimuli_distractor_trianglediamonds.svg	3	yes	ga	1	1496	6	1	antiphase_hc_iso.wav	2	6	4	noise_calib_stim_RIGHT.wav	2	14	blb_dichoticlistening_ga-da.mp3	ga	da	1	left
6.6.1	win	2023-06-27	11:19:16	11:29:02	582419	5717864c94d4fc001297198d	4	1	DL_test	23	DL_test	19	stimuli_target_squaretriangles.svg	stimuli_distractor_trianglediamonds.svg	3	yes	ga	1	970	6	1	antiphase_hc_iso.wav	2	6	4	noise_calib_stim_RIGHT.wav	2	13	blb_dichoticlistening_ga-ba.mp3	ga	ba	1	left
6.6.1	win	2023-06-27	11:19:16	11:29:02	582419	5717864c94d4fc001297198d	4	1	DL_test	23	DL_test	20	stimuli_target_squaretriangles.svg	stimuli_distractor_trianglediamonds.svg	3	yes	ka	0	1083	6	1	antiphase_hc_iso.wav	2	6	4	noise_calib_stim_RIGHT.wav	2	36	blb_dichoticlistening_ta-ta.mp3	ta	ta	0	other
6.6.1	win	2023-06-27	11:19:16	11:29:02	582419	5717864c94d4fc001297198d	4	1	DL_test	23	DL_test	21	stimuli_target_squaretriangles.svg	stimuli_distractor_trianglediamonds.svg	3	yes	pa	1	938	6	1	antiphase_hc_iso.wav	2	6	4	noise_calib_stim_RIGHT.wav	2	25	blb_dichoticlistening_pa-ba.mp3	pa	ba	1	left
6.6.1	win	2023-06-27	11:19:16	11:29:02	582419	5717864c94d4fc001297198d	4	1	DL_test	23	DL_test	22	stimuli_target_squaretriangles.svg	stimuli_distractor_trianglediamonds.svg	3	yes	ka	1	973	6	1	antiphase_hc_iso.wav	2	6	4	noise_calib_stim_RIGHT.wav	2	24	blb_dichoticlistening_ka-ta.mp3	ka	ta	1	left
6.6.1	win	2023-06-27	11:19:16	11:29:02	582419	5717864c94d4fc001297198d	4	1	DL_test	23	DL_test	23	stimuli_target_squaretriangles.svg	stimuli_distractor_trianglediamonds.svg	3	yes	ka	1	701	6	1	antiphase_hc_iso.wav	2	6	4	noise_calib_stim_RIGHT.wav	2	34	blb_dichoticlistening_ta-ka.mp3	ta	ka	1	right
6.6.1	win	2023-06-27	11:19:16	11:29:02	582419	5717864c94d4fc001297198d	4	1	DL_test	23	DL_test	24	stimuli_target_squaretriangles.svg	stimuli_distractor_trianglediamonds.svg	3	yes	pa	1	883	6	1	antiphase_hc_iso.wav	2	6	4	noise_calib_stim_RIGHT.wav	2	26	blb_dichoticlistening_pa-da.mp3	pa	da	1	left
6.6.1	win	2023-06-27	11:19:16	11:29:02	582419	5717864c94d4fc001297198d	4	1	DL_test	23	DL_test	25	stimuli_target_squaretriangles.svg	stimuli_distractor_trianglediamonds.svg	3	yes	pa	0	793	6	1	antiphase_hc_iso.wav	2	6	4	noise_calib_stim_RIGHT.wav	2	31	blb_dichoticlistening_ta-ba.mp3	ta	ba	1	other
6.6.1	win	2023-06-27	11:19:16	11:29:02	582419	5717864c94d4fc001297198d	4	1	DL_test	23	DL_test	26	stimuli_target_squaretriangles.svg	stimuli_distractor_trianglediamonds.svg	3	yes	pa	0	1022	6	1	antiphase_hc_iso.wav	2	6	4	noise_calib_stim_RIGHT.wav	2	10	blb_dichoticlistening_da-ka.mp3	da	ka	1	other
