build	computer.platform	date	time	timestamp	time_elapsed_ms	subject	group	session	blockcode	blocknum	trialcode	trialnum	stimulus_left	stimulus_right	stim_index	target_present	response	correct	latency	headphonecheck_countTestTrials	headphonecheck_index	headphonecheck_testSound	headphonecheck_correctResponse	stereocheck_countTestTrials	stereocheck_index	stereocheck_testSound	stereocheck_correctResponse	DL_index	DL_soundfile	DL_leftSound	DL_rightSound	DL_dualSound	DL_choice
6.6.1	mac	2023-06-27	16:52:35	0	0	597e1b3f9d51240001f1f71d	2	1	headphonecheck_calibration	4	headphonecheck_calibrationIntro	1			0		calibrationButton	0	2822	0	0			0	0			1				0	
6.6.1	mac	2023-06-27	16:52:35	0	0	597e1b3f9d51240001f1f71d	2	1	headphonecheck_testphase	5	test_collectResponse	3			0		third	1	1083	1	2	antiphase_hc_ios.wav	3	0	0			1				0	
6.6.1	mac	2023-06-27	16:52:35	0	0	597e1b3f9d51240001f1f71d	2	1	headphonecheck_testphase	5	test_collectResponse	6			0		third	1	624	2	6	antiphase_hc_ois.wav	3	0	0			1				0	
6.6.1	mac	2023-06-27	16:52:35	0	0	597e1b3f9d51240001f1f71d	2	1	headphonecheck_testphase	5	test_collectResponse	9			0		second	1	624	3	1	antiphase_hc_iso.wav	2	0	0			1				0	
6.6.1	mac	2023-06-27	16:52:35	0	0	597e1b3f9d51240001f1f71d	2	1	headphonecheck_testphase	5	test_collectResponse	12			0		second	1	351	4	5	antiphase_hc_osi.wav	2	0	0			1				0	
6.6.1	mac	2023-06-27	16:52:35	0	0	597e1b3f9d51240001f1f71d	2	1	headphonecheck_testphase	5	test_collectResponse	15			0		first	1	347	5	4	antiphase_hc_sio.wav	1	0	0			1				0	
6.6.1	mac	2023-06-27	16:52:35	0	0	597e1b3f9d51240001f1f71d	2	1	headphonecheck_testphase	5	test_collectResponse	18			0		first	1	141	6	3	antiphase_hc_soi.wav	1	0	0			1				0	
6.6.1	mac	2023-06-27	16:52:35	0	0	597e1b3f9d51240001f1f71d	2	1	stereocheck_calibration	7	stereocheck_calibrationIntro	1			0		stereocheck_calibrationButton	0	3757	6	3	antiphase_hc_soi.wav	1	0	0			1				0	
6.6.1	mac	2023-06-27	16:52:35	0	0	597e1b3f9d51240001f1f71d	2	1	stereocheck_testphase	8	stereocheck_test_collectResponse	3			0		stereocheck_right	1	1912	6	3	antiphase_hc_soi.wav	1	1	4	noise_calib_stim_RIGHT.wav	2	1				0	
6.6.1	mac	2023-06-27	16:52:35	0	0	597e1b3f9d51240001f1f71d	2	1	stereocheck_testphase	8	stereocheck_test_collectResponse	6			0		stereocheck_right	1	782	6	3	antiphase_hc_soi.wav	1	2	6	noise_calib_stim_RIGHT.wav	2	1				0	
6.6.1	mac	2023-06-27	16:52:35	0	0	597e1b3f9d51240001f1f71d	2	1	stereocheck_testphase	8	stereocheck_test_collectResponse	9			0		stereocheck_right	1	467	6	3	antiphase_hc_soi.wav	1	3	5	noise_calib_stim_RIGHT.wav	2	1				0	
6.6.1	mac	2023-06-27	16:52:35	0	0	597e1b3f9d51240001f1f71d	2	1	stereocheck_testphase	8	stereocheck_test_collectResponse	12			0		stereocheck_left	1	391	6	3	antiphase_hc_soi.wav	1	4	2	noise_calib_stim_LEFT.wav	1	1				0	
6.6.1	mac	2023-06-27	16:52:35	0	0	597e1b3f9d51240001f1f71d	2	1	stereocheck_testphase	8	stereocheck_test_collectResponse	15			0		stereocheck_left	1	373	6	3	antiphase_hc_soi.wav	1	5	3	noise_calib_stim_LEFT.wav	1	1				0	
6.6.1	mac	2023-06-27	16:52:35	0	0	597e1b3f9d51240001f1f71d	2	1	stereocheck_testphase	8	stereocheck_test_collectResponse	18			0		stereocheck_left	1	379	6	3	antiphase_hc_soi.wav	1	6	1	noise_calib_stim_LEFT.wav	1	1				0	
6.6.1	mac	2023-06-27	16:52:35	0	0	597e1b3f9d51240001f1f71d	2	1	DL_practice	11	DL_practice	2			0		da	1	1088	6	3	antiphase_hc_soi.wav	1	6	1	noise_calib_stim_LEFT.wav	1	8	blb_dichoticlistening_da-da.mp3	da	da	0	left
6.6.1	mac	2023-06-27	16:52:35	0	0	597e1b3f9d51240001f1f71d	2	1	DL_practice	11	DL_practice	3			0		ga	1	1051	6	3	antiphase_hc_soi.wav	1	6	1	noise_calib_stim_LEFT.wav	1	15	blb_dichoticlistening_ga-ga.mp3	ga	ga	0	left
6.6.1	mac	2023-06-27	16:52:35	0	0	597e1b3f9d51240001f1f71d	2	1	DL_practice	11	DL_practice	4			0		pa	0	1269	6	3	antiphase_hc_soi.wav	1	6	1	noise_calib_stim_LEFT.wav	1	1	blb_dichoticlistening_ba-ba.mp3	ba	ba	0	other
6.6.1	mac	2023-06-27	16:52:35	0	0	597e1b3f9d51240001f1f71d	2	1	DL_practice	11	DL_practice	5			0		ta	1	1400	6	3	antiphase_hc_soi.wav	1	6	1	noise_calib_stim_LEFT.wav	1	36	blb_dichoticlistening_ta-ta.mp3	ta	ta	0	left
6.6.1	mac	2023-06-27	16:52:35	0	0	597e1b3f9d51240001f1f71d	2	1	DL_practice	11	DL_practice	6			0		pa	1	1108	6	3	antiphase_hc_soi.wav	1	6	1	noise_calib_stim_LEFT.wav	1	29	blb_dichoticlistening_pa-pa.mp3	pa	pa	0	left
6.6.1	mac	2023-06-27	16:52:35	0	0	597e1b3f9d51240001f1f71d	2	1	DL_practice	11	DL_practice	7			0		pa	1	1038	6	3	antiphase_hc_soi.wav	1	6	1	noise_calib_stim_LEFT.wav	1	23	blb_dichoticlistening_ka-pa.mp3	ka	pa	1	right
6.6.1	mac	2023-06-27	16:52:35	0	0	597e1b3f9d51240001f1f71d	2	1	DL_practice	11	DL_practice	8			0		ka	0	1481	6	3	antiphase_hc_soi.wav	1	6	1	noise_calib_stim_LEFT.wav	1	18	blb_dichoticlistening_ga-ta.mp3	ga	ta	1	other
6.6.1	mac	2023-06-27	16:52:35	0	0	597e1b3f9d51240001f1f71d	2	1	DL_practice	11	DL_practice	9			0		ka	1	1111	6	3	antiphase_hc_soi.wav	1	6	1	noise_calib_stim_LEFT.wav	1	22	blb_dichoticlistening_ka-ka.mp3	ka	ka	0	left
6.6.1	mac	2023-06-27	16:52:35	0	0	597e1b3f9d51240001f1f71d	2	1	DL_practice	11	DL_practice	10			0		ba	1	1218	6	3	antiphase_hc_soi.wav	1	6	1	noise_calib_stim_LEFT.wav	1	7	blb_dichoticlistening_da-ba.mp3	da	ba	1	right
6.6.1	mac	2023-06-27	16:52:35	0	0	597e1b3f9d51240001f1f71d	2	1	DL_test	13	DL_test	1			0		ka	0	1407	6	3	antiphase_hc_soi.wav	1	6	1	noise_calib_stim_LEFT.wav	1	12	blb_dichoticlistening_da-ta.mp3	da	ta	1	other
6.6.1	mac	2023-06-27	16:52:35	0	0	597e1b3f9d51240001f1f71d	2	1	DL_test	13	DL_test	2			0		da	1	1140	6	3	antiphase_hc_soi.wav	1	6	1	noise_calib_stim_LEFT.wav	1	14	blb_dichoticlistening_ga-da.mp3	ga	da	1	right
6.6.1	mac	2023-06-27	16:52:35	0	0	597e1b3f9d51240001f1f71d	2	1	DL_test	13	DL_test	3			0		ka	1	1368	6	3	antiphase_hc_soi.wav	1	6	1	noise_calib_stim_LEFT.wav	1	20	blb_dichoticlistening_ka-da.mp3	ka	da	1	left
6.6.1	mac	2023-06-27	16:52:35	0	0	597e1b3f9d51240001f1f71d	2	1	DL_test	13	DL_test	4			0		pa	1	1128	6	3	antiphase_hc_soi.wav	1	6	1	noise_calib_stim_LEFT.wav	1	11	blb_dichoticlistening_da-pa.mp3	da	pa	1	right
6.6.1	mac	2023-06-27	16:52:35	0	0	597e1b3f9d51240001f1f71d	2	1	DL_test	13	DL_test	5			0		ba	1	1581	6	3	antiphase_hc_soi.wav	1	6	1	noise_calib_stim_LEFT.wav	1	7	blb_dichoticlistening_da-ba.mp3	da	ba	1	right
6.6.1	mac	2023-06-27	16:52:35	0	0	597e1b3f9d51240001f1f71d	2	1	DL_test	13	DL_test	6			0		ka	1	1413	6	3	antiphase_hc_soi.wav	1	6	1	noise_calib_stim_LEFT.wav	1	19	blb_dichoticlistening_ka-ba.mp3	ka	ba	1	left
6.6.1	mac	2023-06-27	16:52:35	0	0	597e1b3f9d51240001f1f71d	2	1	DL_test	13	DL_test	7			0		pa	1	1339	6	3	antiphase_hc_soi.wav	1	6	1	noise_calib_stim_LEFT.wav	1	35	blb_dichoticlistening_ta-pa.mp3	ta	pa	1	right
6.6.1	mac	2023-06-27	16:52:35	0	0	597e1b3f9d51240001f1f71d	2	1	DL_test	13	DL_test	8			0		da	1	1541	6	3	antiphase_hc_soi.wav	1	6	1	noise_calib_stim_LEFT.wav	1	8	blb_dichoticlistening_da-da.mp3	da	da	0	left
6.6.1	mac	2023-06-27	16:52:35	0	0	597e1b3f9d51240001f1f71d	2	1	DL_test	13	DL_test	9			0		pa	0	1312	6	3	antiphase_hc_soi.wav	1	6	1	noise_calib_stim_LEFT.wav	1	10	blb_dichoticlistening_da-ka.mp3	da	ka	1	other
6.6.1	mac	2023-06-27	16:52:35	0	0	597e1b3f9d51240001f1f71d	2	1	DL_test	13	DL_test	10			0		ga	1	1183	6	3	antiphase_hc_soi.wav	1	6	1	noise_calib_stim_LEFT.wav	1	27	blb_dichoticlistening_pa-ga.mp3	pa	ga	1	right
6.6.1	mac	2023-06-27	16:52:35	0	0	597e1b3f9d51240001f1f71d	2	1	DL_test	13	DL_test	11			0		ga	1	1036	6	3	antiphase_hc_soi.wav	1	6	1	noise_calib_stim_LEFT.wav	1	9	blb_dichoticlistening_da-ga.mp3	da	ga	1	right
6.6.1	mac	2023-06-27	16:52:35	0	0	597e1b3f9d51240001f1f71d	2	1	DL_test	13	DL_test	12			0		ka	1	1756	6	3	antiphase_hc_soi.wav	1	6	1	noise_calib_stim_LEFT.wav	1	16	blb_dichoticlistening_ga-ka.mp3	ga	ka	1	right
6.6.1	mac	2023-06-27	16:52:35	0	0	597e1b3f9d51240001f1f71d	2	1	DL_test	13	DL_test	13			0		pa	1	1210	6	3	antiphase_hc_soi.wav	1	6	1	noise_calib_stim_LEFT.wav	1	17	blb_dichoticlistening_ga-pa.mp3	ga	pa	1	right
6.6.1	mac	2023-06-27	16:52:35	0	0	597e1b3f9d51240001f1f71d	2	1	DL_test	13	DL_test	14			0		ga	1	2024	6	3	antiphase_hc_soi.wav	1	6	1	noise_calib_stim_LEFT.wav	1	3	blb_dichoticlistening_ba-ga.mp3	ba	ga	1	right
6.6.1	mac	2023-06-27	16:52:35	0	0	597e1b3f9d51240001f1f71d	2	1	DL_test	13	DL_test	15			0		ka	0	1280	6	3	antiphase_hc_soi.wav	1	6	1	noise_calib_stim_LEFT.wav	1	33	blb_dichoticlistening_ta-ga.mp3	ta	ga	1	other
6.6.1	mac	2023-06-27	16:52:35	0	0	597e1b3f9d51240001f1f71d	2	1	DL_test	13	DL_test	16			0		ka	1	974	6	3	antiphase_hc_soi.wav	1	6	1	noise_calib_stim_LEFT.wav	1	21	blb_dichoticlistening_ka-ga.mp3	ka	ga	1	left
6.6.1	mac	2023-06-27	16:52:35	0	0	597e1b3f9d51240001f1f71d	2	1	DL_test	13	DL_test	17			0		da	1	1431	6	3	antiphase_hc_soi.wav	1	6	1	noise_calib_stim_LEFT.wav	1	2	blb_dichoticlistening_ba-da.mp3	ba	da	1	right
6.6.1	mac	2023-06-27	16:52:35	0	0	597e1b3f9d51240001f1f71d	2	1	DL_test	13	DL_test	18			0		pa	1	1319	6	3	antiphase_hc_soi.wav	1	6	1	noise_calib_stim_LEFT.wav	1	29	blb_dichoticlistening_pa-pa.mp3	pa	pa	0	left
6.6.1	mac	2023-06-27	16:52:35	0	0	597e1b3f9d51240001f1f71d	2	1	DL_test	13	DL_test	19			0		ka	1	1522	6	3	antiphase_hc_soi.wav	1	6	1	noise_calib_stim_LEFT.wav	1	34	blb_dichoticlistening_ta-ka.mp3	ta	ka	1	right
6.6.1	mac	2023-06-27	16:52:35	0	0	597e1b3f9d51240001f1f71d	2	1	DL_test	13	DL_test	20			0		pa	1	2051	6	3	antiphase_hc_soi.wav	1	6	1	noise_calib_stim_LEFT.wav	1	26	blb_dichoticlistening_pa-da.mp3	pa	da	1	left
6.6.1	mac	2023-06-27	16:52:35	0	0	597e1b3f9d51240001f1f71d	2	1	DL_test	13	DL_test	21			0		ba	1	1923	6	3	antiphase_hc_soi.wav	1	6	1	noise_calib_stim_LEFT.wav	1	13	blb_dichoticlistening_ga-ba.mp3	ga	ba	1	right
6.6.1	mac	2023-06-27	16:52:35	0	0	597e1b3f9d51240001f1f71d	2	1	DL_test	13	DL_test	22			0		ta	1	1511	6	3	antiphase_hc_soi.wav	1	6	1	noise_calib_stim_LEFT.wav	1	30	blb_dichoticlistening_pa-ta.mp3	pa	ta	1	right
6.6.1	mac	2023-06-27	16:52:35	0	0	597e1b3f9d51240001f1f71d	2	1	DL_test	13	DL_test	23			0		ka	1	1323	6	3	antiphase_hc_soi.wav	1	6	1	noise_calib_stim_LEFT.wav	1	4	blb_dichoticlistening_ba-ka.mp3	ba	ka	1	right
6.6.1	mac	2023-06-27	16:52:35	0	0	597e1b3f9d51240001f1f71d	2	1	DL_test	13	DL_test	24			0		pa	1	1562	6	3	antiphase_hc_soi.wav	1	6	1	noise_calib_stim_LEFT.wav	1	23	blb_dichoticlistening_ka-pa.mp3	ka	pa	1	right
6.6.1	mac	2023-06-27	16:52:35	0	0	597e1b3f9d51240001f1f71d	2	1	DL_test	13	DL_test	25			0		pa	1	1040	6	3	antiphase_hc_soi.wav	1	6	1	noise_calib_stim_LEFT.wav	1	5	blb_dichoticlistening_ba-pa.mp3	ba	pa	1	right
6.6.1	mac	2023-06-27	16:52:35	0	0	597e1b3f9d51240001f1f71d	2	1	DL_test	13	DL_test	26			0		ka	1	1151	6	3	antiphase_hc_soi.wav	1	6	1	noise_calib_stim_LEFT.wav	1	28	blb_dichoticlistening_pa-ka.mp3	pa	ka	1	right
6.6.1	mac	2023-06-27	16:52:35	0	0	597e1b3f9d51240001f1f71d	2	1	DL_test	13	DL_test	27			0		ba	1	2062	6	3	antiphase_hc_soi.wav	1	6	1	noise_calib_stim_LEFT.wav	1	25	blb_dichoticlistening_pa-ba.mp3	pa	ba	1	right
6.6.1	mac	2023-06-27	16:52:35	0	0	597e1b3f9d51240001f1f71d	2	1	DL_test	13	DL_test	28			0		da	1	1265	6	3	antiphase_hc_soi.wav	1	6	1	noise_calib_stim_LEFT.wav	1	32	blb_dichoticlistening_ta-da.mp3	ta	da	1	right
6.6.1	mac	2023-06-27	16:52:35	0	0	597e1b3f9d51240001f1f71d	2	1	DL_test	13	DL_test	29			0		ta	1	1520	6	3	antiphase_hc_soi.wav	1	6	1	noise_calib_stim_LEFT.wav	1	36	blb_dichoticlistening_ta-ta.mp3	ta	ta	0	left
6.6.1	mac	2023-06-27	16:52:35	0	0	597e1b3f9d51240001f1f71d	2	1	DL_test	13	DL_test	30			0		da	0	1601	6	3	antiphase_hc_soi.wav	1	6	1	noise_calib_stim_LEFT.wav	1	31	blb_dichoticlistening_ta-ba.mp3	ta	ba	1	other
6.6.1	mac	2023-06-27	16:52:35	0	0	597e1b3f9d51240001f1f71d	2	1	DL_test	13	DL_test	31			0		ga	1	1301	6	3	antiphase_hc_soi.wav	1	6	1	noise_calib_stim_LEFT.wav	1	18	blb_dichoticlistening_ga-ta.mp3	ga	ta	1	left
6.6.1	mac	2023-06-27	16:52:35	0	0	597e1b3f9d51240001f1f71d	2	1	DL_test	13	DL_test	32			0		ga	1	913	6	3	antiphase_hc_soi.wav	1	6	1	noise_calib_stim_LEFT.wav	1	15	blb_dichoticlistening_ga-ga.mp3	ga	ga	0	left
6.6.1	mac	2023-06-27	16:52:35	0	0	597e1b3f9d51240001f1f71d	2	1	DL_test	13	DL_test	33			0		ka	0	1159	6	3	antiphase_hc_soi.wav	1	6	1	noise_calib_stim_LEFT.wav	1	6	blb_dichoticlistening_ba-ta.mp3	ba	ta	1	other
6.6.1	mac	2023-06-27	16:52:35	0	0	597e1b3f9d51240001f1f71d	2	1	DL_test	13	DL_test	34			0		ba	1	1466	6	3	antiphase_hc_soi.wav	1	6	1	noise_calib_stim_LEFT.wav	1	1	blb_dichoticlistening_ba-ba.mp3	ba	ba	0	left
6.6.1	mac	2023-06-27	16:52:35	0	0	597e1b3f9d51240001f1f71d	2	1	DL_test	13	DL_test	35			0		ka	1	1310	6	3	antiphase_hc_soi.wav	1	6	1	noise_calib_stim_LEFT.wav	1	24	blb_dichoticlistening_ka-ta.mp3	ka	ta	1	left
6.6.1	mac	2023-06-27	16:52:35	0	0	597e1b3f9d51240001f1f71d	2	1	DL_test	13	DL_test	36			0		ka	1	1084	6	3	antiphase_hc_soi.wav	1	6	1	noise_calib_stim_LEFT.wav	1	22	blb_dichoticlistening_ka-ka.mp3	ka	ka	0	left
6.6.1	mac	2023-06-27	16:52:35	0	0	597e1b3f9d51240001f1f71d	2	1	DL_test	14	DL_test	1			0		da	1	1687	6	3	antiphase_hc_soi.wav	1	6	1	noise_calib_stim_LEFT.wav	1	26	blb_dichoticlistening_pa-da.mp3	pa	da	1	right
6.6.1	mac	2023-06-27	16:52:35	0	0	597e1b3f9d51240001f1f71d	2	1	DL_test	14	DL_test	2			0		ka	1	1212	6	3	antiphase_hc_soi.wav	1	6	1	noise_calib_stim_LEFT.wav	1	23	blb_dichoticlistening_ka-pa.mp3	ka	pa	1	left
6.6.1	mac	2023-06-27	16:52:35	0	0	597e1b3f9d51240001f1f71d	2	1	DL_test	14	DL_test	3			0		ka	0	2325	6	3	antiphase_hc_soi.wav	1	6	1	noise_calib_stim_LEFT.wav	1	6	blb_dichoticlistening_ba-ta.mp3	ba	ta	1	other
6.6.1	mac	2023-06-27	16:52:35	0	0	597e1b3f9d51240001f1f71d	2	1	DL_test	14	DL_test	4			0		ga	1	1648	6	3	antiphase_hc_soi.wav	1	6	1	noise_calib_stim_LEFT.wav	1	33	blb_dichoticlistening_ta-ga.mp3	ta	ga	1	right
6.6.1	mac	2023-06-27	16:52:35	0	0	597e1b3f9d51240001f1f71d	2	1	DL_test	14	DL_test	5			0		ga	1	1906	6	3	antiphase_hc_soi.wav	1	6	1	noise_calib_stim_LEFT.wav	1	27	blb_dichoticlistening_pa-ga.mp3	pa	ga	1	right
6.6.1	mac	2023-06-27	16:52:35	0	0	597e1b3f9d51240001f1f71d	2	1	DL_test	14	DL_test	6			0		pa	1	1294	6	3	antiphase_hc_soi.wav	1	6	1	noise_calib_stim_LEFT.wav	1	11	blb_dichoticlistening_da-pa.mp3	da	pa	1	right
6.6.1	mac	2023-06-27	16:52:35	0	0	597e1b3f9d51240001f1f71d	2	1	DL_test	14	DL_test	7			0		ba	1	1580	6	3	antiphase_hc_soi.wav	1	6	1	noise_calib_stim_LEFT.wav	1	25	blb_dichoticlistening_pa-ba.mp3	pa	ba	1	right
6.6.1	mac	2023-06-27	16:52:35	0	0	597e1b3f9d51240001f1f71d	2	1	DL_test	14	DL_test	8			0		ka	1	1348	6	3	antiphase_hc_soi.wav	1	6	1	noise_calib_stim_LEFT.wav	1	22	blb_dichoticlistening_ka-ka.mp3	ka	ka	0	left
6.6.1	mac	2023-06-27	16:52:35	0	0	597e1b3f9d51240001f1f71d	2	1	DL_test	14	DL_test	9			0		da	1	1533	6	3	antiphase_hc_soi.wav	1	6	1	noise_calib_stim_LEFT.wav	1	32	blb_dichoticlistening_ta-da.mp3	ta	da	1	right
6.6.1	mac	2023-06-27	16:52:35	0	0	597e1b3f9d51240001f1f71d	2	1	DL_test	14	DL_test	10			0		ka	1	1720	6	3	antiphase_hc_soi.wav	1	6	1	noise_calib_stim_LEFT.wav	1	19	blb_dichoticlistening_ka-ba.mp3	ka	ba	1	left
6.6.1	mac	2023-06-27	16:52:35	0	0	597e1b3f9d51240001f1f71d	2	1	DL_test	14	DL_test	11			0		ba	1	1731	6	3	antiphase_hc_soi.wav	1	6	1	noise_calib_stim_LEFT.wav	1	7	blb_dichoticlistening_da-ba.mp3	da	ba	1	right
6.6.1	mac	2023-06-27	16:52:35	0	0	597e1b3f9d51240001f1f71d	2	1	DL_test	14	DL_test	12			0		ba	1	1289	6	3	antiphase_hc_soi.wav	1	6	1	noise_calib_stim_LEFT.wav	1	31	blb_dichoticlistening_ta-ba.mp3	ta	ba	1	right
6.6.1	mac	2023-06-27	16:52:35	0	0	597e1b3f9d51240001f1f71d	2	1	DL_test	14	DL_test	13			0		pa	1	1490	6	3	antiphase_hc_soi.wav	1	6	1	noise_calib_stim_LEFT.wav	1	35	blb_dichoticlistening_ta-pa.mp3	ta	pa	1	right
6.6.1	mac	2023-06-27	16:52:35	0	0	597e1b3f9d51240001f1f71d	2	1	DL_test	14	DL_test	14			0		pa	1	1809	6	3	antiphase_hc_soi.wav	1	6	1	noise_calib_stim_LEFT.wav	1	5	blb_dichoticlistening_ba-pa.mp3	ba	pa	1	right
6.6.1	mac	2023-06-27	16:52:35	0	0	597e1b3f9d51240001f1f71d	2	1	DL_test	14	DL_test	15			0		da	1	1594	6	3	antiphase_hc_soi.wav	1	6	1	noise_calib_stim_LEFT.wav	1	2	blb_dichoticlistening_ba-da.mp3	ba	da	1	right
6.6.1	mac	2023-06-27	16:52:35	0	0	597e1b3f9d51240001f1f71d	2	1	DL_test	14	DL_test	16			0		ta	1	1580	6	3	antiphase_hc_soi.wav	1	6	1	noise_calib_stim_LEFT.wav	1	30	blb_dichoticlistening_pa-ta.mp3	pa	ta	1	right
6.6.1	mac	2023-06-27	16:52:35	0	0	597e1b3f9d51240001f1f71d	2	1	DL_test	14	DL_test	17			0		ba	1	1522	6	3	antiphase_hc_soi.wav	1	6	1	noise_calib_stim_LEFT.wav	1	1	blb_dichoticlistening_ba-ba.mp3	ba	ba	0	left
6.6.1	mac	2023-06-27	16:52:35	0	0	597e1b3f9d51240001f1f71d	2	1	DL_test	14	DL_test	18			0		ba	1	1025	6	3	antiphase_hc_soi.wav	1	6	1	noise_calib_stim_LEFT.wav	1	13	blb_dichoticlistening_ga-ba.mp3	ga	ba	1	right
6.6.1	mac	2023-06-27	16:52:35	0	0	597e1b3f9d51240001f1f71d	2	1	DL_test	14	DL_test	19			0		ka	1	1159	6	3	antiphase_hc_soi.wav	1	6	1	noise_calib_stim_LEFT.wav	1	34	blb_dichoticlistening_ta-ka.mp3	ta	ka	1	right
6.6.1	mac	2023-06-27	16:52:35	0	0	597e1b3f9d51240001f1f71d	2	1	DL_test	14	DL_test	20			0		ka	1	1562	6	3	antiphase_hc_soi.wav	1	6	1	noise_calib_stim_LEFT.wav	1	21	blb_dichoticlistening_ka-ga.mp3	ka	ga	1	left
6.6.1	mac	2023-06-27	16:52:35	0	0	597e1b3f9d51240001f1f71d	2	1	DL_test	14	DL_test	21			0		da	1	1255	6	3	antiphase_hc_soi.wav	1	6	1	noise_calib_stim_LEFT.wav	1	14	blb_dichoticlistening_ga-da.mp3	ga	da	1	right
6.6.1	mac	2023-06-27	16:52:35	0	0	597e1b3f9d51240001f1f71d	2	1	DL_test	14	DL_test	22			0		ga	1	1020	6	3	antiphase_hc_soi.wav	1	6	1	noise_calib_stim_LEFT.wav	1	15	blb_dichoticlistening_ga-ga.mp3	ga	ga	0	left
6.6.1	mac	2023-06-27	16:52:35	0	0	597e1b3f9d51240001f1f71d	2	1	DL_test	14	DL_test	23			0		ka	0	1162	6	3	antiphase_hc_soi.wav	1	6	1	noise_calib_stim_LEFT.wav	1	18	blb_dichoticlistening_ga-ta.mp3	ga	ta	1	other
6.6.1	mac	2023-06-27	16:52:35	0	0	597e1b3f9d51240001f1f71d	2	1	DL_test	14	DL_test	24			0		ka	1	985	6	3	antiphase_hc_soi.wav	1	6	1	noise_calib_stim_LEFT.wav	1	4	blb_dichoticlistening_ba-ka.mp3	ba	ka	1	right
6.6.1	mac	2023-06-27	16:52:35	0	0	597e1b3f9d51240001f1f71d	2	1	DL_test	14	DL_test	25			0		ka	1	1169	6	3	antiphase_hc_soi.wav	1	6	1	noise_calib_stim_LEFT.wav	1	24	blb_dichoticlistening_ka-ta.mp3	ka	ta	1	left
6.6.1	mac	2023-06-27	16:52:35	0	0	597e1b3f9d51240001f1f71d	2	1	DL_test	14	DL_test	26			0		pa	1	1111	6	3	antiphase_hc_soi.wav	1	6	1	noise_calib_stim_LEFT.wav	1	29	blb_dichoticlistening_pa-pa.mp3	pa	pa	0	left
6.6.1	mac	2023-06-27	16:52:35	0	0	597e1b3f9d51240001f1f71d	2	1	DL_test	14	DL_test	27			0		da	1	1232	6	3	antiphase_hc_soi.wav	1	6	1	noise_calib_stim_LEFT.wav	1	8	blb_dichoticlistening_da-da.mp3	da	da	0	left
6.6.1	mac	2023-06-27	16:52:35	0	0	597e1b3f9d51240001f1f71d	2	1	DL_test	14	DL_test	28			0		ka	1	1355	6	3	antiphase_hc_soi.wav	1	6	1	noise_calib_stim_LEFT.wav	1	20	blb_dichoticlistening_ka-da.mp3	ka	da	1	left
6.6.1	mac	2023-06-27	16:52:35	0	0	597e1b3f9d51240001f1f71d	2	1	DL_test	14	DL_test	29			0		ta	1	1291	6	3	antiphase_hc_soi.wav	1	6	1	noise_calib_stim_LEFT.wav	1	12	blb_dichoticlistening_da-ta.mp3	da	ta	1	right
6.6.1	mac	2023-06-27	16:52:35	0	0	597e1b3f9d51240001f1f71d	2	1	DL_test	14	DL_test	30			0		ka	1	1133	6	3	antiphase_hc_soi.wav	1	6	1	noise_calib_stim_LEFT.wav	1	28	blb_dichoticlistening_pa-ka.mp3	pa	ka	1	right
6.6.1	mac	2023-06-27	16:52:35	0	0	597e1b3f9d51240001f1f71d	2	1	DL_test	14	DL_test	31			0		ka	1	990	6	3	antiphase_hc_soi.wav	1	6	1	noise_calib_stim_LEFT.wav	1	16	blb_dichoticlistening_ga-ka.mp3	ga	ka	1	right
6.6.1	mac	2023-06-27	16:52:35	0	0	597e1b3f9d51240001f1f71d	2	1	DL_test	14	DL_test	32			0		pa	1	1064	6	3	antiphase_hc_soi.wav	1	6	1	noise_calib_stim_LEFT.wav	1	17	blb_dichoticlistening_ga-pa.mp3	ga	pa	1	right
6.6.1	mac	2023-06-27	16:52:35	0	0	597e1b3f9d51240001f1f71d	2	1	DL_test	14	DL_test	33			0		ga	0	1765	6	3	antiphase_hc_soi.wav	1	6	1	noise_calib_stim_LEFT.wav	1	10	blb_dichoticlistening_da-ka.mp3	da	ka	1	other
6.6.1	mac	2023-06-27	16:52:35	0	0	597e1b3f9d51240001f1f71d	2	1	DL_test	14	DL_test	34			0		ta	1	1496	6	3	antiphase_hc_soi.wav	1	6	1	noise_calib_stim_LEFT.wav	1	36	blb_dichoticlistening_ta-ta.mp3	ta	ta	0	left
6.6.1	mac	2023-06-27	16:52:35	0	0	597e1b3f9d51240001f1f71d	2	1	DL_test	14	DL_test	35			0		da	1	1787	6	3	antiphase_hc_soi.wav	1	6	1	noise_calib_stim_LEFT.wav	1	9	blb_dichoticlistening_da-ga.mp3	da	ga	1	left
6.6.1	mac	2023-06-27	16:52:35	0	0	597e1b3f9d51240001f1f71d	2	1	DL_test	14	DL_test	36			0		ga	1	1058	6	3	antiphase_hc_soi.wav	1	6	1	noise_calib_stim_LEFT.wav	1	3	blb_dichoticlistening_ba-ga.mp3	ba	ga	1	right
6.6.1	mac	2023-06-27	16:52:35	0	0	597e1b3f9d51240001f1f71d	2	1	DL_test	15	DL_test	1			0		ka	0	1480	6	3	antiphase_hc_soi.wav	1	6	1	noise_calib_stim_LEFT.wav	1	33	blb_dichoticlistening_ta-ga.mp3	ta	ga	1	other
6.6.1	mac	2023-06-27	16:52:35	0	0	597e1b3f9d51240001f1f71d	2	1	DL_test	15	DL_test	2			0		ba	1	2265	6	3	antiphase_hc_soi.wav	1	6	1	noise_calib_stim_LEFT.wav	1	25	blb_dichoticlistening_pa-ba.mp3	pa	ba	1	right
6.6.1	mac	2023-06-27	16:52:35	0	0	597e1b3f9d51240001f1f71d	2	1	DL_test	15	DL_test	3			0		da	1	1716	6	3	antiphase_hc_soi.wav	1	6	1	noise_calib_stim_LEFT.wav	1	9	blb_dichoticlistening_da-ga.mp3	da	ga	1	left
6.6.1	mac	2023-06-27	16:52:35	0	0	597e1b3f9d51240001f1f71d	2	1	DL_test	15	DL_test	4			0		ga	1	1225	6	3	antiphase_hc_soi.wav	1	6	1	noise_calib_stim_LEFT.wav	1	3	blb_dichoticlistening_ba-ga.mp3	ba	ga	1	right
6.6.1	mac	2023-06-27	16:52:35	0	0	597e1b3f9d51240001f1f71d	2	1	DL_test	15	DL_test	5			0		ba	1	2040	6	3	antiphase_hc_soi.wav	1	6	1	noise_calib_stim_LEFT.wav	1	19	blb_dichoticlistening_ka-ba.mp3	ka	ba	1	right
6.6.1	mac	2023-06-27	16:52:35	0	0	597e1b3f9d51240001f1f71d	2	1	DL_test	15	DL_test	6			0		pa	1	1739	6	3	antiphase_hc_soi.wav	1	6	1	noise_calib_stim_LEFT.wav	1	11	blb_dichoticlistening_da-pa.mp3	da	pa	1	right
6.6.1	mac	2023-06-27	16:52:35	0	0	597e1b3f9d51240001f1f71d	2	1	DL_test	15	DL_test	7			0		ta	1	1506	6	3	antiphase_hc_soi.wav	1	6	1	noise_calib_stim_LEFT.wav	1	36	blb_dichoticlistening_ta-ta.mp3	ta	ta	0	left
6.6.1	mac	2023-06-27	16:52:35	0	0	597e1b3f9d51240001f1f71d	2	1	DL_test	15	DL_test	8			0		pa	1	1115	6	3	antiphase_hc_soi.wav	1	6	1	noise_calib_stim_LEFT.wav	1	5	blb_dichoticlistening_ba-pa.mp3	ba	pa	1	right
6.6.1	mac	2023-06-27	16:52:35	0	0	597e1b3f9d51240001f1f71d	2	1	DL_test	15	DL_test	9			0		pa	1	1044	6	3	antiphase_hc_soi.wav	1	6	1	noise_calib_stim_LEFT.wav	1	17	blb_dichoticlistening_ga-pa.mp3	ga	pa	1	right
6.6.1	mac	2023-06-27	16:52:35	0	0	597e1b3f9d51240001f1f71d	2	1	DL_test	15	DL_test	10			0		ka	1	1458	6	3	antiphase_hc_soi.wav	1	6	1	noise_calib_stim_LEFT.wav	1	28	blb_dichoticlistening_pa-ka.mp3	pa	ka	1	right
6.6.1	mac	2023-06-27	16:52:35	0	0	597e1b3f9d51240001f1f71d	2	1	DL_test	15	DL_test	11			0		ka	1	1143	6	3	antiphase_hc_soi.wav	1	6	1	noise_calib_stim_LEFT.wav	1	22	blb_dichoticlistening_ka-ka.mp3	ka	ka	0	left
6.6.1	mac	2023-06-27	16:52:35	0	0	597e1b3f9d51240001f1f71d	2	1	DL_test	15	DL_test	12			0		pa	1	1071	6	3	antiphase_hc_soi.wav	1	6	1	noise_calib_stim_LEFT.wav	1	29	blb_dichoticlistening_pa-pa.mp3	pa	pa	0	left
6.6.1	mac	2023-06-27	16:52:35	0	0	597e1b3f9d51240001f1f71d	2	1	DL_test	15	DL_test	13			0		ta	1	2740	6	3	antiphase_hc_soi.wav	1	6	1	noise_calib_stim_LEFT.wav	1	18	blb_dichoticlistening_ga-ta.mp3	ga	ta	1	right
6.6.1	mac	2023-06-27	16:52:35	0	0	597e1b3f9d51240001f1f71d	2	1	DL_test	15	DL_test	14			0		ga	1	1872	6	3	antiphase_hc_soi.wav	1	6	1	noise_calib_stim_LEFT.wav	1	21	blb_dichoticlistening_ka-ga.mp3	ka	ga	1	right
6.6.1	mac	2023-06-27	16:52:35	0	0	597e1b3f9d51240001f1f71d	2	1	DL_test	15	DL_test	15			0		ka	1	1002	6	3	antiphase_hc_soi.wav	1	6	1	noise_calib_stim_LEFT.wav	1	24	blb_dichoticlistening_ka-ta.mp3	ka	ta	1	left
6.6.1	mac	2023-06-27	16:52:35	0	0	597e1b3f9d51240001f1f71d	2	1	DL_test	15	DL_test	16			0		da	1	1207	6	3	antiphase_hc_soi.wav	1	6	1	noise_calib_stim_LEFT.wav	1	2	blb_dichoticlistening_ba-da.mp3	ba	da	1	right
6.6.1	mac	2023-06-27	16:52:35	0	0	597e1b3f9d51240001f1f71d	2	1	DL_test	15	DL_test	17			0		pa	0	1284	6	3	antiphase_hc_soi.wav	1	6	1	noise_calib_stim_LEFT.wav	1	10	blb_dichoticlistening_da-ka.mp3	da	ka	1	other
6.6.1	mac	2023-06-27	16:52:35	0	0	597e1b3f9d51240001f1f71d	2	1	DL_test	15	DL_test	18			0		ta	1	2181	6	3	antiphase_hc_soi.wav	1	6	1	noise_calib_stim_LEFT.wav	1	6	blb_dichoticlistening_ba-ta.mp3	ba	ta	1	right
6.6.1	mac	2023-06-27	16:52:35	0	0	597e1b3f9d51240001f1f71d	2	1	DL_test	15	DL_test	19			0		pa	1	1775	6	3	antiphase_hc_soi.wav	1	6	1	noise_calib_stim_LEFT.wav	1	23	blb_dichoticlistening_ka-pa.mp3	ka	pa	1	right
6.6.1	mac	2023-06-27	16:52:35	0	0	597e1b3f9d51240001f1f71d	2	1	DL_test	15	DL_test	20			0		ba	1	1394	6	3	antiphase_hc_soi.wav	1	6	1	noise_calib_stim_LEFT.wav	1	7	blb_dichoticlistening_da-ba.mp3	da	ba	1	right
6.6.1	mac	2023-06-27	16:52:35	0	0	597e1b3f9d51240001f1f71d	2	1	DL_test	15	DL_test	21			0		da	1	1534	6	3	antiphase_hc_soi.wav	1	6	1	noise_calib_stim_LEFT.wav	1	20	blb_dichoticlistening_ka-da.mp3	ka	da	1	right
6.6.1	mac	2023-06-27	16:52:35	0	0	597e1b3f9d51240001f1f71d	2	1	DL_test	15	DL_test	22			0		ta	1	2009	6	3	antiphase_hc_soi.wav	1	6	1	noise_calib_stim_LEFT.wav	1	30	blb_dichoticlistening_pa-ta.mp3	pa	ta	1	right
6.6.1	mac	2023-06-27	16:52:35	0	0	597e1b3f9d51240001f1f71d	2	1	DL_test	15	DL_test	23			0		ka	1	1170	6	3	antiphase_hc_soi.wav	1	6	1	noise_calib_stim_LEFT.wav	1	16	blb_dichoticlistening_ga-ka.mp3	ga	ka	1	right
6.6.1	mac	2023-06-27	16:52:35	0	0	597e1b3f9d51240001f1f71d	2	1	DL_test	15	DL_test	24			0		ga	1	1080	6	3	antiphase_hc_soi.wav	1	6	1	noise_calib_stim_LEFT.wav	1	15	blb_dichoticlistening_ga-ga.mp3	ga	ga	0	left
6.6.1	mac	2023-06-27	16:52:35	0	0	597e1b3f9d51240001f1f71d	2	1	DL_test	15	DL_test	25			0		da	1	1659	6	3	antiphase_hc_soi.wav	1	6	1	noise_calib_stim_LEFT.wav	1	32	blb_dichoticlistening_ta-da.mp3	ta	da	1	right
6.6.1	mac	2023-06-27	16:52:35	0	0	597e1b3f9d51240001f1f71d	2	1	DL_test	15	DL_test	26			0		ga	1	1051	6	3	antiphase_hc_soi.wav	1	6	1	noise_calib_stim_LEFT.wav	1	27	blb_dichoticlistening_pa-ga.mp3	pa	ga	1	right
6.6.1	mac	2023-06-27	16:52:35	0	0	597e1b3f9d51240001f1f71d	2	1	DL_test	15	DL_test	27			0		da	1	1207	6	3	antiphase_hc_soi.wav	1	6	1	noise_calib_stim_LEFT.wav	1	8	blb_dichoticlistening_da-da.mp3	da	da	0	left
6.6.1	mac	2023-06-27	16:52:35	0	0	597e1b3f9d51240001f1f71d	2	1	DL_test	15	DL_test	28			0		ta	1	1614	6	3	antiphase_hc_soi.wav	1	6	1	noise_calib_stim_LEFT.wav	1	12	blb_dichoticlistening_da-ta.mp3	da	ta	1	right
6.6.1	mac	2023-06-27	16:52:35	0	0	597e1b3f9d51240001f1f71d	2	1	DL_test	15	DL_test	29			0		ka	1	1087	6	3	antiphase_hc_soi.wav	1	6	1	noise_calib_stim_LEFT.wav	1	34	blb_dichoticlistening_ta-ka.mp3	ta	ka	1	right
6.6.1	mac	2023-06-27	16:52:35	0	0	597e1b3f9d51240001f1f71d	2	1	DL_test	15	DL_test	30			0		ka	1	983	6	3	antiphase_hc_soi.wav	1	6	1	noise_calib_stim_LEFT.wav	1	4	blb_dichoticlistening_ba-ka.mp3	ba	ka	1	right
6.6.1	mac	2023-06-27	16:52:35	0	0	597e1b3f9d51240001f1f71d	2	1	DL_test	15	DL_test	31			0		pa	1	1304	6	3	antiphase_hc_soi.wav	1	6	1	noise_calib_stim_LEFT.wav	1	35	blb_dichoticlistening_ta-pa.mp3	ta	pa	1	right
6.6.1	mac	2023-06-27	16:52:35	0	0	597e1b3f9d51240001f1f71d	2	1	DL_test	15	DL_test	32			0		ba	1	1592	6	3	antiphase_hc_soi.wav	1	6	1	noise_calib_stim_LEFT.wav	1	1	blb_dichoticlistening_ba-ba.mp3	ba	ba	0	left
6.6.1	mac	2023-06-27	16:52:35	0	0	597e1b3f9d51240001f1f71d	2	1	DL_test	15	DL_test	33			0		da	1	1166	6	3	antiphase_hc_soi.wav	1	6	1	noise_calib_stim_LEFT.wav	1	14	blb_dichoticlistening_ga-da.mp3	ga	da	1	right
6.6.1	mac	2023-06-27	16:52:35	0	0	597e1b3f9d51240001f1f71d	2	1	DL_test	15	DL_test	34			0		da	1	952	6	3	antiphase_hc_soi.wav	1	6	1	noise_calib_stim_LEFT.wav	1	26	blb_dichoticlistening_pa-da.mp3	pa	da	1	right
6.6.1	mac	2023-06-27	16:52:35	0	0	597e1b3f9d51240001f1f71d	2	1	DL_test	15	DL_test	35			0		ba	1	1940	6	3	antiphase_hc_soi.wav	1	6	1	noise_calib_stim_LEFT.wav	1	31	blb_dichoticlistening_ta-ba.mp3	ta	ba	1	right
6.6.1	mac	2023-06-27	16:52:35	0	0	597e1b3f9d51240001f1f71d	2	1	DL_test	15	DL_test	36			0		ba	1	1062	6	3	antiphase_hc_soi.wav	1	6	1	noise_calib_stim_LEFT.wav	1	13	blb_dichoticlistening_ga-ba.mp3	ga	ba	1	right
6.6.1	mac	2023-06-27	16:52:35	0	0	597e1b3f9d51240001f1f71d	2	1	DL_test	16	DL_test	1			0		ta	1	1438	6	3	antiphase_hc_soi.wav	1	6	1	noise_calib_stim_LEFT.wav	1	12	blb_dichoticlistening_da-ta.mp3	da	ta	1	right
6.6.1	mac	2023-06-27	16:52:35	0	0	597e1b3f9d51240001f1f71d	2	1	DL_test	16	DL_test	2			0		da	1	2654	6	3	antiphase_hc_soi.wav	1	6	1	noise_calib_stim_LEFT.wav	1	14	blb_dichoticlistening_ga-da.mp3	ga	da	1	right
6.6.1	mac	2023-06-27	16:52:35	0	0	597e1b3f9d51240001f1f71d	2	1	DL_test	16	DL_test	3			0		ga	1	1518	6	3	antiphase_hc_soi.wav	1	6	1	noise_calib_stim_LEFT.wav	1	27	blb_dichoticlistening_pa-ga.mp3	pa	ga	1	right
6.6.1	mac	2023-06-27	16:52:35	0	0	597e1b3f9d51240001f1f71d	2	1	DL_test	16	DL_test	4			0		ta	1	1120	6	3	antiphase_hc_soi.wav	1	6	1	noise_calib_stim_LEFT.wav	1	30	blb_dichoticlistening_pa-ta.mp3	pa	ta	1	right
6.6.1	mac	2023-06-27	16:52:35	0	0	597e1b3f9d51240001f1f71d	2	1	DL_test	16	DL_test	5			0		ba	1	1629	6	3	antiphase_hc_soi.wav	1	6	1	noise_calib_stim_LEFT.wav	1	25	blb_dichoticlistening_pa-ba.mp3	pa	ba	1	right
6.6.1	mac	2023-06-27	16:52:35	0	0	597e1b3f9d51240001f1f71d	2	1	DL_test	16	DL_test	6			0		ka	1	1323	6	3	antiphase_hc_soi.wav	1	6	1	noise_calib_stim_LEFT.wav	1	4	blb_dichoticlistening_ba-ka.mp3	ba	ka	1	right
6.6.1	mac	2023-06-27	16:52:35	0	0	597e1b3f9d51240001f1f71d	2	1	DL_test	16	DL_test	7			0		ta	1	1580	6	3	antiphase_hc_soi.wav	1	6	1	noise_calib_stim_LEFT.wav	1	24	blb_dichoticlistening_ka-ta.mp3	ka	ta	1	right
6.6.1	mac	2023-06-27	16:52:35	0	0	597e1b3f9d51240001f1f71d	2	1	DL_test	16	DL_test	8			0		da	1	1210	6	3	antiphase_hc_soi.wav	1	6	1	noise_calib_stim_LEFT.wav	1	2	blb_dichoticlistening_ba-da.mp3	ba	da	1	right
6.6.1	mac	2023-06-27	16:52:35	0	0	597e1b3f9d51240001f1f71d	2	1	DL_test	16	DL_test	9			0		ga	1	972	6	3	antiphase_hc_soi.wav	1	6	1	noise_calib_stim_LEFT.wav	1	9	blb_dichoticlistening_da-ga.mp3	da	ga	1	right
6.6.1	mac	2023-06-27	16:52:35	0	0	597e1b3f9d51240001f1f71d	2	1	DL_test	16	DL_test	10			0		pa	1	1106	6	3	antiphase_hc_soi.wav	1	6	1	noise_calib_stim_LEFT.wav	1	35	blb_dichoticlistening_ta-pa.mp3	ta	pa	1	right
6.6.1	mac	2023-06-27	16:52:35	0	0	597e1b3f9d51240001f1f71d	2	1	DL_test	16	DL_test	11			0		da	1	923	6	3	antiphase_hc_soi.wav	1	6	1	noise_calib_stim_LEFT.wav	1	8	blb_dichoticlistening_da-da.mp3	da	da	0	left
6.6.1	mac	2023-06-27	16:52:35	0	0	597e1b3f9d51240001f1f71d	2	1	DL_test	16	DL_test	12			0		ka	1	1236	6	3	antiphase_hc_soi.wav	1	6	1	noise_calib_stim_LEFT.wav	1	21	blb_dichoticlistening_ka-ga.mp3	ka	ga	1	left
6.6.1	mac	2023-06-27	16:52:35	0	0	597e1b3f9d51240001f1f71d	2	1	DL_test	16	DL_test	13			0		ka	1	2173	6	3	antiphase_hc_soi.wav	1	6	1	noise_calib_stim_LEFT.wav	1	34	blb_dichoticlistening_ta-ka.mp3	ta	ka	1	right
6.6.1	mac	2023-06-27	16:52:35	0	0	597e1b3f9d51240001f1f71d	2	1	DL_test	16	DL_test	14			0		ga	1	1235	6	3	antiphase_hc_soi.wav	1	6	1	noise_calib_stim_LEFT.wav	1	33	blb_dichoticlistening_ta-ga.mp3	ta	ga	1	right
6.6.1	mac	2023-06-27	16:52:35	0	0	597e1b3f9d51240001f1f71d	2	1	DL_test	16	DL_test	15			0		ka	1	1229	6	3	antiphase_hc_soi.wav	1	6	1	noise_calib_stim_LEFT.wav	1	16	blb_dichoticlistening_ga-ka.mp3	ga	ka	1	right
6.6.1	mac	2023-06-27	16:52:35	0	0	597e1b3f9d51240001f1f71d	2	1	DL_test	16	DL_test	16			0		da	1	1230	6	3	antiphase_hc_soi.wav	1	6	1	noise_calib_stim_LEFT.wav	1	32	blb_dichoticlistening_ta-da.mp3	ta	da	1	right
6.6.1	mac	2023-06-27	16:52:35	0	0	597e1b3f9d51240001f1f71d	2	1	DL_test	16	DL_test	17			0		pa	1	1152	6	3	antiphase_hc_soi.wav	1	6	1	noise_calib_stim_LEFT.wav	1	11	blb_dichoticlistening_da-pa.mp3	da	pa	1	right
6.6.1	mac	2023-06-27	16:52:35	0	0	597e1b3f9d51240001f1f71d	2	1	DL_test	16	DL_test	18			0		pa	1	1021	6	3	antiphase_hc_soi.wav	1	6	1	noise_calib_stim_LEFT.wav	1	23	blb_dichoticlistening_ka-pa.mp3	ka	pa	1	right
6.6.1	mac	2023-06-27	16:52:35	0	0	597e1b3f9d51240001f1f71d	2	1	DL_test	16	DL_test	19			0		ta	1	1179	6	3	antiphase_hc_soi.wav	1	6	1	noise_calib_stim_LEFT.wav	1	6	blb_dichoticlistening_ba-ta.mp3	ba	ta	1	right
6.6.1	mac	2023-06-27	16:52:35	0	0	597e1b3f9d51240001f1f71d	2	1	DL_test	16	DL_test	20			0		ga	1	998	6	3	antiphase_hc_soi.wav	1	6	1	noise_calib_stim_LEFT.wav	1	15	blb_dichoticlistening_ga-ga.mp3	ga	ga	0	left
6.6.1	mac	2023-06-27	16:52:35	0	0	597e1b3f9d51240001f1f71d	2	1	DL_test	16	DL_test	21			0		ba	1	1415	6	3	antiphase_hc_soi.wav	1	6	1	noise_calib_stim_LEFT.wav	1	19	blb_dichoticlistening_ka-ba.mp3	ka	ba	1	right
6.6.1	mac	2023-06-27	16:52:35	0	0	597e1b3f9d51240001f1f71d	2	1	DL_test	16	DL_test	22			0		ka	0	1189	6	3	antiphase_hc_soi.wav	1	6	1	noise_calib_stim_LEFT.wav	1	18	blb_dichoticlistening_ga-ta.mp3	ga	ta	1	other
6.6.1	mac	2023-06-27	16:52:35	0	0	597e1b3f9d51240001f1f71d	2	1	DL_test	16	DL_test	23			0		ka	1	967	6	3	antiphase_hc_soi.wav	1	6	1	noise_calib_stim_LEFT.wav	1	22	blb_dichoticlistening_ka-ka.mp3	ka	ka	0	left
6.6.1	mac	2023-06-27	16:52:35	0	0	597e1b3f9d51240001f1f71d	2	1	DL_test	16	DL_test	24			0		ba	1	1231	6	3	antiphase_hc_soi.wav	1	6	1	noise_calib_stim_LEFT.wav	1	31	blb_dichoticlistening_ta-ba.mp3	ta	ba	1	right
6.6.1	mac	2023-06-27	16:52:35	0	0	597e1b3f9d51240001f1f71d	2	1	DL_test	16	DL_test	25			0		pa	0	1280	6	3	antiphase_hc_soi.wav	1	6	1	noise_calib_stim_LEFT.wav	1	10	blb_dichoticlistening_da-ka.mp3	da	ka	1	other
6.6.1	mac	2023-06-27	16:52:35	0	0	597e1b3f9d51240001f1f71d	2	1	DL_test	16	DL_test	26			0		ba	1	1308	6	3	antiphase_hc_soi.wav	1	6	1	noise_calib_stim_LEFT.wav	1	7	blb_dichoticlistening_da-ba.mp3	da	ba	1	right
6.6.1	mac	2023-06-27	16:52:35	0	0	597e1b3f9d51240001f1f71d	2	1	DL_test	16	DL_test	27			0		pa	1	1635	6	3	antiphase_hc_soi.wav	1	6	1	noise_calib_stim_LEFT.wav	1	17	blb_dichoticlistening_ga-pa.mp3	ga	pa	1	right
6.6.1	mac	2023-06-27	16:52:35	0	0	597e1b3f9d51240001f1f71d	2	1	DL_test	16	DL_test	28			0		da	1	1186	6	3	antiphase_hc_soi.wav	1	6	1	noise_calib_stim_LEFT.wav	1	26	blb_dichoticlistening_pa-da.mp3	pa	da	1	right
6.6.1	mac	2023-06-27	16:52:35	0	0	597e1b3f9d51240001f1f71d	2	1	DL_test	16	DL_test	29			0		pa	1	1229	6	3	antiphase_hc_soi.wav	1	6	1	noise_calib_stim_LEFT.wav	1	5	blb_dichoticlistening_ba-pa.mp3	ba	pa	1	right
6.6.1	mac	2023-06-27	16:52:35	0	0	597e1b3f9d51240001f1f71d	2	1	DL_test	16	DL_test	30			0		ga	1	1190	6	3	antiphase_hc_soi.wav	1	6	1	noise_calib_stim_LEFT.wav	1	3	blb_dichoticlistening_ba-ga.mp3	ba	ga	1	right
6.6.1	mac	2023-06-27	16:52:35	0	0	597e1b3f9d51240001f1f71d	2	1	DL_test	16	DL_test	31			0		ba	1	1314	6	3	antiphase_hc_soi.wav	1	6	1	noise_calib_stim_LEFT.wav	1	13	blb_dichoticlistening_ga-ba.mp3	ga	ba	1	right
6.6.1	mac	2023-06-27	16:52:35	0	0	597e1b3f9d51240001f1f71d	2	1	DL_test	16	DL_test	32			0		pa	1	1232	6	3	antiphase_hc_soi.wav	1	6	1	noise_calib_stim_LEFT.wav	1	29	blb_dichoticlistening_pa-pa.mp3	pa	pa	0	left
6.6.1	mac	2023-06-27	16:52:35	0	0	597e1b3f9d51240001f1f71d	2	1	DL_test	16	DL_test	33			0		ka	1	958	6	3	antiphase_hc_soi.wav	1	6	1	noise_calib_stim_LEFT.wav	1	28	blb_dichoticlistening_pa-ka.mp3	pa	ka	1	right
6.6.1	mac	2023-06-27	16:52:35	0	0	597e1b3f9d51240001f1f71d	2	1	DL_test	16	DL_test	34			0		ta	1	1514	6	3	antiphase_hc_soi.wav	1	6	1	noise_calib_stim_LEFT.wav	1	36	blb_dichoticlistening_ta-ta.mp3	ta	ta	0	left
6.6.1	mac	2023-06-27	16:52:35	0	0	597e1b3f9d51240001f1f71d	2	1	DL_test	16	DL_test	35			0		ka	1	1336	6	3	antiphase_hc_soi.wav	1	6	1	noise_calib_stim_LEFT.wav	1	20	blb_dichoticlistening_ka-da.mp3	ka	da	1	left
6.6.1	mac	2023-06-27	16:52:35	0	0	597e1b3f9d51240001f1f71d	2	1	DL_test	16	DL_test	36			0		ba	1	1185	6	3	antiphase_hc_soi.wav	1	6	1	noise_calib_stim_LEFT.wav	1	1	blb_dichoticlistening_ba-ba.mp3	ba	ba	0	left
6.6.1	mac	2023-06-27	16:52:35	17:06:42	843184	597e1b3f9d51240001f1f71d	2	1	practice_z	22	practice_z	1	stimuli_target_squarediamonds.svg	stimuli_distractor_trianglediamonds.svg	5	yes	44	1	644	6	3	antiphase_hc_soi.wav	1	6	1	noise_calib_stim_LEFT.wav	1	1	blb_dichoticlistening_ba-ba.mp3	ba	ba	0	left
6.6.1	mac	2023-06-27	16:52:35	17:06:42	843184	597e1b3f9d51240001f1f71d	2	1	practice_z	22	advance_on_keypress_ZEE	2	stimuli_target_squarediamonds.svg	stimuli_distractor_trianglediamonds.svg	5	yes	57	0	1410	6	3	antiphase_hc_soi.wav	1	6	1	noise_calib_stim_LEFT.wav	1	1	blb_dichoticlistening_ba-ba.mp3	ba	ba	0	left
6.6.1	mac	2023-06-27	16:52:35	17:06:46	847078	597e1b3f9d51240001f1f71d	2	1	practice_z	22	practice_z	3	stimuli_distractor_diamondtriangles.svg	stimuli_distractor_diamondtriangles.svg	13	no	44	0	834	6	3	antiphase_hc_soi.wav	1	6	1	noise_calib_stim_LEFT.wav	1	1	blb_dichoticlistening_ba-ba.mp3	ba	ba	0	left
6.6.1	mac	2023-06-27	16:52:35	17:06:46	847078	597e1b3f9d51240001f1f71d	2	1	practice_z	22	advance_on_keypress_ZEE	4	stimuli_distractor_diamondtriangles.svg	stimuli_distractor_diamondtriangles.svg	13	no	57	0	1280	6	3	antiphase_hc_soi.wav	1	6	1	noise_calib_stim_LEFT.wav	1	1	blb_dichoticlistening_ba-ba.mp3	ba	ba	0	left
6.6.1	mac	2023-06-27	16:52:35	17:06:49	850545	597e1b3f9d51240001f1f71d	2	1	practice_z	22	practice_z	5	stimuli_distractor_trianglediamonds.svg	stimuli_target_diamondrectangles.svg	12	yes	44	1	537	6	3	antiphase_hc_soi.wav	1	6	1	noise_calib_stim_LEFT.wav	1	1	blb_dichoticlistening_ba-ba.mp3	ba	ba	0	left
6.6.1	mac	2023-06-27	16:52:35	17:06:49	850545	597e1b3f9d51240001f1f71d	2	1	practice_z	22	advance_on_keypress_ZEE	6	stimuli_distractor_trianglediamonds.svg	stimuli_target_diamondrectangles.svg	12	yes	57	0	765	6	3	antiphase_hc_soi.wav	1	6	1	noise_calib_stim_LEFT.wav	1	1	blb_dichoticlistening_ba-ba.mp3	ba	ba	0	left
6.6.1	mac	2023-06-27	16:52:35	17:06:52	853743	597e1b3f9d51240001f1f71d	2	1	practice_z	22	practice_z	7	stimuli_distractor_diamondtriangles.svg	stimuli_target_diamondrectangles.svg	8	yes	44	1	792	6	3	antiphase_hc_soi.wav	1	6	1	noise_calib_stim_LEFT.wav	1	1	blb_dichoticlistening_ba-ba.mp3	ba	ba	0	left
6.6.1	mac	2023-06-27	16:52:35	17:06:52	853743	597e1b3f9d51240001f1f71d	2	1	practice_z	22	advance_on_keypress_ZEE	8	stimuli_distractor_diamondtriangles.svg	stimuli_target_diamondrectangles.svg	8	yes	57	0	1442	6	3	antiphase_hc_soi.wav	1	6	1	noise_calib_stim_LEFT.wav	1	1	blb_dichoticlistening_ba-ba.mp3	ba	ba	0	left
6.6.1	mac	2023-06-27	16:52:35	17:06:56	857636	597e1b3f9d51240001f1f71d	2	1	practice_z	22	practice_z	9	stimuli_distractor_trianglediamonds.svg	stimuli_target_squarediamonds.svg	11	yes	44	1	802	6	3	antiphase_hc_soi.wav	1	6	1	noise_calib_stim_LEFT.wav	1	1	blb_dichoticlistening_ba-ba.mp3	ba	ba	0	left
6.6.1	mac	2023-06-27	16:52:35	17:06:56	857636	597e1b3f9d51240001f1f71d	2	1	practice_z	22	advance_on_keypress_ZEE	10	stimuli_distractor_trianglediamonds.svg	stimuli_target_squarediamonds.svg	11	yes	57	0	750	6	3	antiphase_hc_soi.wav	1	6	1	noise_calib_stim_LEFT.wav	1	1	blb_dichoticlistening_ba-ba.mp3	ba	ba	0	left
6.6.1	mac	2023-06-27	16:52:35	17:07:01	862028	597e1b3f9d51240001f1f71d	2	1	practice_z	22	practice_z	11	stimuli_distractor_diamondtriangles.svg	stimuli_distractor_trianglediamonds.svg	14	no	0	1	2000	6	3	antiphase_hc_soi.wav	1	6	1	noise_calib_stim_LEFT.wav	1	1	blb_dichoticlistening_ba-ba.mp3	ba	ba	0	left
6.6.1	mac	2023-06-27	16:52:35	17:07:01	862028	597e1b3f9d51240001f1f71d	2	1	practice_z	22	advance_on_keypress_ZEE	12	stimuli_distractor_diamondtriangles.svg	stimuli_distractor_trianglediamonds.svg	14	no	57	0	541	6	3	antiphase_hc_soi.wav	1	6	1	noise_calib_stim_LEFT.wav	1	1	blb_dichoticlistening_ba-ba.mp3	ba	ba	0	left
6.6.1	mac	2023-06-27	16:52:35	17:07:05	866224	597e1b3f9d51240001f1f71d	2	1	practice_z	22	practice_z	13	stimuli_distractor_trianglediamonds.svg	stimuli_distractor_diamondtriangles.svg	16	no	0	1	2000	6	3	antiphase_hc_soi.wav	1	6	1	noise_calib_stim_LEFT.wav	1	1	blb_dichoticlistening_ba-ba.mp3	ba	ba	0	left
6.6.1	mac	2023-06-27	16:52:35	17:07:05	866224	597e1b3f9d51240001f1f71d	2	1	practice_z	22	advance_on_keypress_ZEE	14	stimuli_distractor_trianglediamonds.svg	stimuli_distractor_diamondtriangles.svg	16	no	57	0	2211	6	3	antiphase_hc_soi.wav	1	6	1	noise_calib_stim_LEFT.wav	1	1	blb_dichoticlistening_ba-ba.mp3	ba	ba	0	left
6.6.1	mac	2023-06-27	16:52:35	17:07:11	871764	597e1b3f9d51240001f1f71d	2	1	practice_z	22	practice_z	15	stimuli_distractor_diamondtriangles.svg	stimuli_target_rectangletriangles.svg	7	yes	44	1	1686	6	3	antiphase_hc_soi.wav	1	6	1	noise_calib_stim_LEFT.wav	1	1	blb_dichoticlistening_ba-ba.mp3	ba	ba	0	left
6.6.1	mac	2023-06-27	16:52:35	17:07:11	871764	597e1b3f9d51240001f1f71d	2	1	practice_z	22	advance_on_keypress_ZEE	16	stimuli_distractor_diamondtriangles.svg	stimuli_target_rectangletriangles.svg	7	yes	57	0	2093	6	3	antiphase_hc_soi.wav	1	6	1	noise_calib_stim_LEFT.wav	1	1	blb_dichoticlistening_ba-ba.mp3	ba	ba	0	left
6.6.1	mac	2023-06-27	16:52:35	17:07:16	876903	597e1b3f9d51240001f1f71d	2	1	practice_z	22	practice_z	17	stimuli_target_rectanglediamonds.svg	stimuli_distractor_diamondtriangles.svg	1	yes	44	1	1399	6	3	antiphase_hc_soi.wav	1	6	1	noise_calib_stim_LEFT.wav	1	1	blb_dichoticlistening_ba-ba.mp3	ba	ba	0	left
6.6.1	mac	2023-06-27	16:52:35	17:07:16	876903	597e1b3f9d51240001f1f71d	2	1	practice_z	22	advance_on_keypress_ZEE	18	stimuli_target_rectanglediamonds.svg	stimuli_distractor_diamondtriangles.svg	1	yes	57	0	2226	6	3	antiphase_hc_soi.wav	1	6	1	noise_calib_stim_LEFT.wav	1	1	blb_dichoticlistening_ba-ba.mp3	ba	ba	0	left
6.6.1	mac	2023-06-27	16:52:35	17:07:20	881674	597e1b3f9d51240001f1f71d	2	1	practice_z	22	practice_z	19	stimuli_target_squarediamonds.svg	stimuli_distractor_diamondtriangles.svg	2	yes	44	1	893	6	3	antiphase_hc_soi.wav	1	6	1	noise_calib_stim_LEFT.wav	1	1	blb_dichoticlistening_ba-ba.mp3	ba	ba	0	left
6.6.1	mac	2023-06-27	16:52:35	17:07:20	881674	597e1b3f9d51240001f1f71d	2	1	practice_z	22	advance_on_keypress_ZEE	20	stimuli_target_squarediamonds.svg	stimuli_distractor_diamondtriangles.svg	2	yes	57	0	943	6	3	antiphase_hc_soi.wav	1	6	1	noise_calib_stim_LEFT.wav	1	1	blb_dichoticlistening_ba-ba.mp3	ba	ba	0	left
6.6.1	mac	2023-06-27	16:52:35	17:07:25	886272	597e1b3f9d51240001f1f71d	2	1	practice_z	22	practice_z	21	stimuli_target_diamondsquares.svg	stimuli_distractor_trianglediamonds.svg	6	yes	0	0	2000	6	3	antiphase_hc_soi.wav	1	6	1	noise_calib_stim_LEFT.wav	1	1	blb_dichoticlistening_ba-ba.mp3	ba	ba	0	left
6.6.1	mac	2023-06-27	16:52:35	17:07:25	886272	597e1b3f9d51240001f1f71d	2	1	practice_z	22	advance_on_keypress_ZEE	22	stimuli_target_diamondsquares.svg	stimuli_distractor_trianglediamonds.svg	6	yes	57	0	602	6	3	antiphase_hc_soi.wav	1	6	1	noise_calib_stim_LEFT.wav	1	1	blb_dichoticlistening_ba-ba.mp3	ba	ba	0	left
6.6.1	mac	2023-06-27	16:52:35	17:07:28	889700	597e1b3f9d51240001f1f71d	2	1	practice_z	22	practice_z	23	stimuli_target_rectanglediamonds.svg	stimuli_distractor_trianglediamonds.svg	4	yes	44	1	1188	6	3	antiphase_hc_soi.wav	1	6	1	noise_calib_stim_LEFT.wav	1	1	blb_dichoticlistening_ba-ba.mp3	ba	ba	0	left
6.6.1	mac	2023-06-27	16:52:35	17:07:28	889700	597e1b3f9d51240001f1f71d	2	1	practice_z	22	advance_on_keypress_ZEE	24	stimuli_target_rectanglediamonds.svg	stimuli_distractor_trianglediamonds.svg	4	yes	57	0	1289	6	3	antiphase_hc_soi.wav	1	6	1	noise_calib_stim_LEFT.wav	1	1	blb_dichoticlistening_ba-ba.mp3	ba	ba	0	left
6.6.1	mac	2023-06-27	16:52:35	17:07:33	894638	597e1b3f9d51240001f1f71d	2	1	practice_z	22	practice_z	25	stimuli_distractor_trianglediamonds.svg	stimuli_distractor_trianglediamonds.svg	15	no	0	1	2000	6	3	antiphase_hc_soi.wav	1	6	1	noise_calib_stim_LEFT.wav	1	1	blb_dichoticlistening_ba-ba.mp3	ba	ba	0	left
6.6.1	mac	2023-06-27	16:52:35	17:07:33	894638	597e1b3f9d51240001f1f71d	2	1	practice_z	22	advance_on_keypress_ZEE	26	stimuli_distractor_trianglediamonds.svg	stimuli_distractor_trianglediamonds.svg	15	no	57	0	621	6	3	antiphase_hc_soi.wav	1	6	1	noise_calib_stim_LEFT.wav	1	1	blb_dichoticlistening_ba-ba.mp3	ba	ba	0	left
6.6.1	mac	2023-06-27	16:52:35	17:07:37	897973	597e1b3f9d51240001f1f71d	2	1	practice_z	22	practice_z	27	stimuli_distractor_trianglediamonds.svg	stimuli_target_rectanglediamonds.svg	10	yes	44	1	1070	6	3	antiphase_hc_soi.wav	1	6	1	noise_calib_stim_LEFT.wav	1	1	blb_dichoticlistening_ba-ba.mp3	ba	ba	0	left
6.6.1	mac	2023-06-27	16:52:35	17:07:37	897973	597e1b3f9d51240001f1f71d	2	1	practice_z	22	advance_on_keypress_ZEE	28	stimuli_distractor_trianglediamonds.svg	stimuli_target_rectanglediamonds.svg	10	yes	57	0	1490	6	3	antiphase_hc_soi.wav	1	6	1	noise_calib_stim_LEFT.wav	1	1	blb_dichoticlistening_ba-ba.mp3	ba	ba	0	left
6.6.1	mac	2023-06-27	16:52:35	17:07:41	902149	597e1b3f9d51240001f1f71d	2	1	practice_z	22	practice_z	29	stimuli_target_diamondsquares.svg	stimuli_distractor_diamondtriangles.svg	3	yes	44	1	1035	6	3	antiphase_hc_soi.wav	1	6	1	noise_calib_stim_LEFT.wav	1	1	blb_dichoticlistening_ba-ba.mp3	ba	ba	0	left
6.6.1	mac	2023-06-27	16:52:35	17:07:41	902149	597e1b3f9d51240001f1f71d	2	1	practice_z	22	advance_on_keypress_ZEE	30	stimuli_target_diamondsquares.svg	stimuli_distractor_diamondtriangles.svg	3	yes	57	0	2274	6	3	antiphase_hc_soi.wav	1	6	1	noise_calib_stim_LEFT.wav	1	1	blb_dichoticlistening_ba-ba.mp3	ba	ba	0	left
6.6.1	mac	2023-06-27	16:52:35	17:07:46	906950	597e1b3f9d51240001f1f71d	2	1	practice_z	22	practice_z	31	stimuli_distractor_diamondtriangles.svg	stimuli_target_trianglerectangles.svg	9	yes	44	1	879	6	3	antiphase_hc_soi.wav	1	6	1	noise_calib_stim_LEFT.wav	1	1	blb_dichoticlistening_ba-ba.mp3	ba	ba	0	left
6.6.1	mac	2023-06-27	16:52:35	17:07:46	906950	597e1b3f9d51240001f1f71d	2	1	practice_z	22	advance_on_keypress_ZEE	32	stimuli_distractor_diamondtriangles.svg	stimuli_target_trianglerectangles.svg	9	yes	57	0	867	6	3	antiphase_hc_soi.wav	1	6	1	noise_calib_stim_LEFT.wav	1	1	blb_dichoticlistening_ba-ba.mp3	ba	ba	0	left
6.6.1	mac	2023-06-27	16:52:35	17:08:02	923061	597e1b3f9d51240001f1f71d	2	1	main_z	24	main_z	1	stimuli_distractor_diamondtriangles.svg	stimuli_distractor_diamondtriangles.svg	39	no	0	1	2000	6	3	antiphase_hc_soi.wav	1	6	1	noise_calib_stim_LEFT.wav	1	1	blb_dichoticlistening_ba-ba.mp3	ba	ba	0	left
6.6.1	mac	2023-06-27	16:52:35	17:08:02	923061	597e1b3f9d51240001f1f71d	2	1	main_z	24	advance_on_keypress_ZEE	2	stimuli_distractor_diamondtriangles.svg	stimuli_distractor_diamondtriangles.svg	39	no	57	0	838	6	3	antiphase_hc_soi.wav	1	6	1	noise_calib_stim_LEFT.wav	1	1	blb_dichoticlistening_ba-ba.mp3	ba	ba	0	left
6.6.1	mac	2023-06-27	16:52:35	17:08:05	926540	597e1b3f9d51240001f1f71d	2	1	main_z	24	main_z	3	stimuli_target_rectangletriangles.svg	stimuli_distractor_trianglediamonds.svg	1	yes	0	0	2000	6	3	antiphase_hc_soi.wav	1	6	1	noise_calib_stim_LEFT.wav	1	1	blb_dichoticlistening_ba-ba.mp3	ba	ba	0	left
6.6.1	mac	2023-06-27	16:52:35	17:08:05	926540	597e1b3f9d51240001f1f71d	2	1	main_z	24	advance_on_keypress_ZEE	4	stimuli_target_rectangletriangles.svg	stimuli_distractor_trianglediamonds.svg	1	yes	57	0	574	6	3	antiphase_hc_soi.wav	1	6	1	noise_calib_stim_LEFT.wav	1	1	blb_dichoticlistening_ba-ba.mp3	ba	ba	0	left
6.6.1	mac	2023-06-27	16:52:35	17:08:07	928750	597e1b3f9d51240001f1f71d	2	1	main_z	24	main_z	5	stimuli_target_rectanglediamonds.svg	stimuli_distractor_diamondtriangles.svg	6	yes	44	1	1003	6	3	antiphase_hc_soi.wav	1	6	1	noise_calib_stim_LEFT.wav	1	1	blb_dichoticlistening_ba-ba.mp3	ba	ba	0	left
6.6.1	mac	2023-06-27	16:52:35	17:08:07	928750	597e1b3f9d51240001f1f71d	2	1	main_z	24	advance_on_keypress_ZEE	6	stimuli_target_rectanglediamonds.svg	stimuli_distractor_diamondtriangles.svg	6	yes	57	0	1497	6	3	antiphase_hc_soi.wav	1	6	1	noise_calib_stim_LEFT.wav	1	1	blb_dichoticlistening_ba-ba.mp3	ba	ba	0	left
6.6.1	mac	2023-06-27	16:52:35	17:08:11	931809	597e1b3f9d51240001f1f71d	2	1	main_z	24	main_z	7	stimuli_target_squarediamonds.svg	stimuli_distractor_trianglediamonds.svg	4	yes	44	1	921	6	3	antiphase_hc_soi.wav	1	6	1	noise_calib_stim_LEFT.wav	1	1	blb_dichoticlistening_ba-ba.mp3	ba	ba	0	left
6.6.1	mac	2023-06-27	16:52:35	17:08:11	931809	597e1b3f9d51240001f1f71d	2	1	main_z	24	advance_on_keypress_ZEE	8	stimuli_target_squarediamonds.svg	stimuli_distractor_trianglediamonds.svg	4	yes	57	0	1791	6	3	antiphase_hc_soi.wav	1	6	1	noise_calib_stim_LEFT.wav	1	1	blb_dichoticlistening_ba-ba.mp3	ba	ba	0	left
6.6.1	mac	2023-06-27	16:52:35	17:08:14	935203	597e1b3f9d51240001f1f71d	2	1	main_z	24	main_z	9	stimuli_target_diamondsquares.svg	stimuli_distractor_trianglediamonds.svg	20	yes	44	1	957	6	3	antiphase_hc_soi.wav	1	6	1	noise_calib_stim_LEFT.wav	1	1	blb_dichoticlistening_ba-ba.mp3	ba	ba	0	left
6.6.1	mac	2023-06-27	16:52:35	17:08:14	935203	597e1b3f9d51240001f1f71d	2	1	main_z	24	advance_on_keypress_ZEE	10	stimuli_target_diamondsquares.svg	stimuli_distractor_trianglediamonds.svg	20	yes	57	0	1254	6	3	antiphase_hc_soi.wav	1	6	1	noise_calib_stim_LEFT.wav	1	1	blb_dichoticlistening_ba-ba.mp3	ba	ba	0	left
6.6.1	mac	2023-06-27	16:52:35	17:08:17	938001	597e1b3f9d51240001f1f71d	2	1	main_z	24	main_z	11	stimuli_distractor_trianglediamonds.svg	stimuli_target_diamondrectangles.svg	27	yes	44	1	913	6	3	antiphase_hc_soi.wav	1	6	1	noise_calib_stim_LEFT.wav	1	1	blb_dichoticlistening_ba-ba.mp3	ba	ba	0	left
6.6.1	mac	2023-06-27	16:52:35	17:08:17	938001	597e1b3f9d51240001f1f71d	2	1	main_z	24	advance_on_keypress_ZEE	12	stimuli_distractor_trianglediamonds.svg	stimuli_target_diamondrectangles.svg	27	yes	57	0	1315	6	3	antiphase_hc_soi.wav	1	6	1	noise_calib_stim_LEFT.wav	1	1	blb_dichoticlistening_ba-ba.mp3	ba	ba	0	left
6.6.1	mac	2023-06-27	16:52:35	17:08:20	940887	597e1b3f9d51240001f1f71d	2	1	main_z	24	main_z	13	stimuli_target_squaretriangles.svg	stimuli_distractor_diamondtriangles.svg	7	yes	44	1	928	6	3	antiphase_hc_soi.wav	1	6	1	noise_calib_stim_LEFT.wav	1	1	blb_dichoticlistening_ba-ba.mp3	ba	ba	0	left
6.6.1	mac	2023-06-27	16:52:35	17:08:20	940887	597e1b3f9d51240001f1f71d	2	1	main_z	24	advance_on_keypress_ZEE	14	stimuli_target_squaretriangles.svg	stimuli_distractor_diamondtriangles.svg	7	yes	57	0	1261	6	3	antiphase_hc_soi.wav	1	6	1	noise_calib_stim_LEFT.wav	1	1	blb_dichoticlistening_ba-ba.mp3	ba	ba	0	left
6.6.1	mac	2023-06-27	16:52:35	17:08:24	944778	597e1b3f9d51240001f1f71d	2	1	main_z	24	main_z	15	stimuli_distractor_trianglediamonds.svg	stimuli_target_rectanglediamonds.svg	10	yes	0	0	2000	6	3	antiphase_hc_soi.wav	1	6	1	noise_calib_stim_LEFT.wav	1	1	blb_dichoticlistening_ba-ba.mp3	ba	ba	0	left
6.6.1	mac	2023-06-27	16:52:35	17:08:24	944778	597e1b3f9d51240001f1f71d	2	1	main_z	24	advance_on_keypress_ZEE	16	stimuli_distractor_trianglediamonds.svg	stimuli_target_rectanglediamonds.svg	10	yes	57	0	480	6	3	antiphase_hc_soi.wav	1	6	1	noise_calib_stim_LEFT.wav	1	1	blb_dichoticlistening_ba-ba.mp3	ba	ba	0	left
6.6.1	mac	2023-06-27	16:52:35	17:08:27	947905	597e1b3f9d51240001f1f71d	2	1	main_z	24	main_z	17	stimuli_target_rectanglediamonds.svg	stimuli_distractor_trianglediamonds.svg	2	yes	0	0	2000	6	3	antiphase_hc_soi.wav	1	6	1	noise_calib_stim_LEFT.wav	1	1	blb_dichoticlistening_ba-ba.mp3	ba	ba	0	left
6.6.1	mac	2023-06-27	16:52:35	17:08:27	947905	597e1b3f9d51240001f1f71d	2	1	main_z	24	advance_on_keypress_ZEE	18	stimuli_target_rectanglediamonds.svg	stimuli_distractor_trianglediamonds.svg	2	yes	57	0	713	6	3	antiphase_hc_soi.wav	1	6	1	noise_calib_stim_LEFT.wav	1	1	blb_dichoticlistening_ba-ba.mp3	ba	ba	0	left
6.6.1	mac	2023-06-27	16:52:35	17:08:29	950194	597e1b3f9d51240001f1f71d	2	1	main_z	24	main_z	19	stimuli_distractor_trianglediamonds.svg	stimuli_target_trianglerectangles.svg	25	yes	44	1	945	6	3	antiphase_hc_soi.wav	1	6	1	noise_calib_stim_LEFT.wav	1	1	blb_dichoticlistening_ba-ba.mp3	ba	ba	0	left
6.6.1	mac	2023-06-27	16:52:35	17:08:29	950194	597e1b3f9d51240001f1f71d	2	1	main_z	24	advance_on_keypress_ZEE	20	stimuli_distractor_trianglediamonds.svg	stimuli_target_trianglerectangles.svg	25	yes	57	0	975	6	3	antiphase_hc_soi.wav	1	6	1	noise_calib_stim_LEFT.wav	1	1	blb_dichoticlistening_ba-ba.mp3	ba	ba	0	left
6.6.1	mac	2023-06-27	16:52:35	17:08:31	952691	597e1b3f9d51240001f1f71d	2	1	main_z	24	main_z	21	stimuli_target_trianglerectangles.svg	stimuli_distractor_trianglediamonds.svg	17	yes	44	1	878	6	3	antiphase_hc_soi.wav	1	6	1	noise_calib_stim_LEFT.wav	1	1	blb_dichoticlistening_ba-ba.mp3	ba	ba	0	left
6.6.1	mac	2023-06-27	16:52:35	17:08:31	952691	597e1b3f9d51240001f1f71d	2	1	main_z	24	advance_on_keypress_ZEE	22	stimuli_target_trianglerectangles.svg	stimuli_distractor_trianglediamonds.svg	17	yes	57	0	1125	6	3	antiphase_hc_soi.wav	1	6	1	noise_calib_stim_LEFT.wav	1	1	blb_dichoticlistening_ba-ba.mp3	ba	ba	0	left
6.6.1	mac	2023-06-27	16:52:35	17:08:34	955347	597e1b3f9d51240001f1f71d	2	1	main_z	24	main_z	23	stimuli_target_trianglerectangles.svg	stimuli_distractor_diamondtriangles.svg	21	yes	44	1	894	6	3	antiphase_hc_soi.wav	1	6	1	noise_calib_stim_LEFT.wav	1	1	blb_dichoticlistening_ba-ba.mp3	ba	ba	0	left
6.6.1	mac	2023-06-27	16:52:35	17:08:34	955347	597e1b3f9d51240001f1f71d	2	1	main_z	24	advance_on_keypress_ZEE	24	stimuli_target_trianglerectangles.svg	stimuli_distractor_diamondtriangles.svg	21	yes	57	0	828	6	3	antiphase_hc_soi.wav	1	6	1	noise_calib_stim_LEFT.wav	1	1	blb_dichoticlistening_ba-ba.mp3	ba	ba	0	left
6.6.1	mac	2023-06-27	16:52:35	17:08:36	957715	597e1b3f9d51240001f1f71d	2	1	main_z	24	main_z	25	stimuli_target_diamondsquares.svg	stimuli_distractor_diamondtriangles.svg	24	yes	44	1	902	6	3	antiphase_hc_soi.wav	1	6	1	noise_calib_stim_LEFT.wav	1	1	blb_dichoticlistening_ba-ba.mp3	ba	ba	0	left
6.6.1	mac	2023-06-27	16:52:35	17:08:36	957715	597e1b3f9d51240001f1f71d	2	1	main_z	24	advance_on_keypress_ZEE	26	stimuli_target_diamondsquares.svg	stimuli_distractor_diamondtriangles.svg	24	yes	57	0	1049	6	3	antiphase_hc_soi.wav	1	6	1	noise_calib_stim_LEFT.wav	1	1	blb_dichoticlistening_ba-ba.mp3	ba	ba	0	left
6.6.1	mac	2023-06-27	16:52:35	17:08:39	960272	597e1b3f9d51240001f1f71d	2	1	main_z	24	main_z	27	stimuli_target_diamondrectangles.svg	stimuli_distractor_diamondtriangles.svg	23	yes	44	1	865	6	3	antiphase_hc_soi.wav	1	6	1	noise_calib_stim_LEFT.wav	1	1	blb_dichoticlistening_ba-ba.mp3	ba	ba	0	left
6.6.1	mac	2023-06-27	16:52:35	17:08:39	960272	597e1b3f9d51240001f1f71d	2	1	main_z	24	advance_on_keypress_ZEE	28	stimuli_target_diamondrectangles.svg	stimuli_distractor_diamondtriangles.svg	23	yes	57	0	1068	6	3	antiphase_hc_soi.wav	1	6	1	noise_calib_stim_LEFT.wav	1	1	blb_dichoticlistening_ba-ba.mp3	ba	ba	0	left
6.6.1	mac	2023-06-27	16:52:35	17:08:42	963241	597e1b3f9d51240001f1f71d	2	1	main_z	24	main_z	29	stimuli_target_squaretriangles.svg	stimuli_distractor_trianglediamonds.svg	3	yes	44	1	1258	6	3	antiphase_hc_soi.wav	1	6	1	noise_calib_stim_LEFT.wav	1	1	blb_dichoticlistening_ba-ba.mp3	ba	ba	0	left
6.6.1	mac	2023-06-27	16:52:35	17:08:42	963241	597e1b3f9d51240001f1f71d	2	1	main_z	24	advance_on_keypress_ZEE	30	stimuli_target_squaretriangles.svg	stimuli_distractor_trianglediamonds.svg	3	yes	57	0	961	6	3	antiphase_hc_soi.wav	1	6	1	noise_calib_stim_LEFT.wav	1	1	blb_dichoticlistening_ba-ba.mp3	ba	ba	0	left
6.6.1	mac	2023-06-27	16:52:35	17:08:45	965774	597e1b3f9d51240001f1f71d	2	1	main_z	24	main_z	31	stimuli_target_trianglesquares.svg	stimuli_distractor_diamondtriangles.svg	22	yes	44	1	928	6	3	antiphase_hc_soi.wav	1	6	1	noise_calib_stim_LEFT.wav	1	1	blb_dichoticlistening_ba-ba.mp3	ba	ba	0	left
6.6.1	mac	2023-06-27	16:52:35	17:08:45	965774	597e1b3f9d51240001f1f71d	2	1	main_z	24	advance_on_keypress_ZEE	32	stimuli_target_trianglesquares.svg	stimuli_distractor_diamondtriangles.svg	22	yes	57	0	1199	6	3	antiphase_hc_soi.wav	1	6	1	noise_calib_stim_LEFT.wav	1	1	blb_dichoticlistening_ba-ba.mp3	ba	ba	0	left
6.6.1	mac	2023-06-27	16:52:35	17:08:47	968556	597e1b3f9d51240001f1f71d	2	1	main_z	24	main_z	33	stimuli_distractor_diamondtriangles.svg	stimuli_target_trianglerectangles.svg	29	yes	44	1	957	6	3	antiphase_hc_soi.wav	1	6	1	noise_calib_stim_LEFT.wav	1	1	blb_dichoticlistening_ba-ba.mp3	ba	ba	0	left
6.6.1	mac	2023-06-27	16:52:35	17:08:47	968556	597e1b3f9d51240001f1f71d	2	1	main_z	24	advance_on_keypress_ZEE	34	stimuli_distractor_diamondtriangles.svg	stimuli_target_trianglerectangles.svg	29	yes	57	0	1159	6	3	antiphase_hc_soi.wav	1	6	1	noise_calib_stim_LEFT.wav	1	1	blb_dichoticlistening_ba-ba.mp3	ba	ba	0	left
6.6.1	mac	2023-06-27	16:52:35	17:08:51	972354	597e1b3f9d51240001f1f71d	2	1	main_z	24	main_z	35	stimuli_target_rectangletriangles.svg	stimuli_distractor_diamondtriangles.svg	5	yes	0	0	2000	6	3	antiphase_hc_soi.wav	1	6	1	noise_calib_stim_LEFT.wav	1	1	blb_dichoticlistening_ba-ba.mp3	ba	ba	0	left
6.6.1	mac	2023-06-27	16:52:35	17:08:51	972354	597e1b3f9d51240001f1f71d	2	1	main_z	24	advance_on_keypress_ZEE	36	stimuli_target_rectangletriangles.svg	stimuli_distractor_diamondtriangles.svg	5	yes	57	0	1173	6	3	antiphase_hc_soi.wav	1	6	1	noise_calib_stim_LEFT.wav	1	1	blb_dichoticlistening_ba-ba.mp3	ba	ba	0	left
6.6.1	mac	2023-06-27	16:52:35	17:08:54	975362	597e1b3f9d51240001f1f71d	2	1	main_z	24	main_z	37	stimuli_distractor_trianglediamonds.svg	stimuli_distractor_trianglediamonds.svg	34	no	44	0	1188	6	3	antiphase_hc_soi.wav	1	6	1	noise_calib_stim_LEFT.wav	1	1	blb_dichoticlistening_ba-ba.mp3	ba	ba	0	left
6.6.1	mac	2023-06-27	16:52:35	17:08:54	975362	597e1b3f9d51240001f1f71d	2	1	main_z	24	advance_on_keypress_ZEE	38	stimuli_distractor_trianglediamonds.svg	stimuli_distractor_trianglediamonds.svg	34	no	57	0	1465	6	3	antiphase_hc_soi.wav	1	6	1	noise_calib_stim_LEFT.wav	1	1	blb_dichoticlistening_ba-ba.mp3	ba	ba	0	left
6.6.1	mac	2023-06-27	16:52:35	17:08:58	979468	597e1b3f9d51240001f1f71d	2	1	main_z	24	main_z	39	stimuli_distractor_trianglediamonds.svg	stimuli_distractor_diamondtriangles.svg	36	no	0	1	2000	6	3	antiphase_hc_soi.wav	1	6	1	noise_calib_stim_LEFT.wav	1	1	blb_dichoticlistening_ba-ba.mp3	ba	ba	0	left
6.6.1	mac	2023-06-27	16:52:35	17:08:58	979468	597e1b3f9d51240001f1f71d	2	1	main_z	24	advance_on_keypress_ZEE	40	stimuli_distractor_trianglediamonds.svg	stimuli_distractor_diamondtriangles.svg	36	no	57	0	1935	6	3	antiphase_hc_soi.wav	1	6	1	noise_calib_stim_LEFT.wav	1	1	blb_dichoticlistening_ba-ba.mp3	ba	ba	0	left
6.6.1	mac	2023-06-27	16:52:35	17:09:02	983064	597e1b3f9d51240001f1f71d	2	1	main_z	24	main_z	41	stimuli_distractor_diamondtriangles.svg	stimuli_target_rectanglediamonds.svg	14	yes	44	1	1018	6	3	antiphase_hc_soi.wav	1	6	1	noise_calib_stim_LEFT.wav	1	1	blb_dichoticlistening_ba-ba.mp3	ba	ba	0	left
6.6.1	mac	2023-06-27	16:52:35	17:09:02	983064	597e1b3f9d51240001f1f71d	2	1	main_z	24	advance_on_keypress_ZEE	42	stimuli_distractor_diamondtriangles.svg	stimuli_target_rectanglediamonds.svg	14	yes	57	0	979	6	3	antiphase_hc_soi.wav	1	6	1	noise_calib_stim_LEFT.wav	1	1	blb_dichoticlistening_ba-ba.mp3	ba	ba	0	left
6.6.1	mac	2023-06-27	16:52:35	17:09:04	985521	597e1b3f9d51240001f1f71d	2	1	main_z	24	main_z	43	stimuli_distractor_diamondtriangles.svg	stimuli_target_trianglesquares.svg	30	yes	44	1	844	6	3	antiphase_hc_soi.wav	1	6	1	noise_calib_stim_LEFT.wav	1	1	blb_dichoticlistening_ba-ba.mp3	ba	ba	0	left
6.6.1	mac	2023-06-27	16:52:35	17:09:04	985521	597e1b3f9d51240001f1f71d	2	1	main_z	24	advance_on_keypress_ZEE	44	stimuli_distractor_diamondtriangles.svg	stimuli_target_trianglesquares.svg	30	yes	57	0	955	6	3	antiphase_hc_soi.wav	1	6	1	noise_calib_stim_LEFT.wav	1	1	blb_dichoticlistening_ba-ba.mp3	ba	ba	0	left
6.6.1	mac	2023-06-27	16:52:35	17:09:07	987938	597e1b3f9d51240001f1f71d	2	1	main_z	24	main_z	45	stimuli_distractor_diamondtriangles.svg	stimuli_target_squaretriangles.svg	15	yes	44	1	824	6	3	antiphase_hc_soi.wav	1	6	1	noise_calib_stim_LEFT.wav	1	1	blb_dichoticlistening_ba-ba.mp3	ba	ba	0	left
6.6.1	mac	2023-06-27	16:52:35	17:09:07	987938	597e1b3f9d51240001f1f71d	2	1	main_z	24	advance_on_keypress_ZEE	46	stimuli_distractor_diamondtriangles.svg	stimuli_target_squaretriangles.svg	15	yes	57	0	1017	6	3	antiphase_hc_soi.wav	1	6	1	noise_calib_stim_LEFT.wav	1	1	blb_dichoticlistening_ba-ba.mp3	ba	ba	0	left
6.6.1	mac	2023-06-27	16:52:35	17:09:10	991585	597e1b3f9d51240001f1f71d	2	1	main_z	24	main_z	47	stimuli_distractor_diamondtriangles.svg	stimuli_distractor_trianglediamonds.svg	37	no	0	1	2000	6	3	antiphase_hc_soi.wav	1	6	1	noise_calib_stim_LEFT.wav	1	1	blb_dichoticlistening_ba-ba.mp3	ba	ba	0	left
6.6.1	mac	2023-06-27	16:52:35	17:09:10	991585	597e1b3f9d51240001f1f71d	2	1	main_z	24	advance_on_keypress_ZEE	48	stimuli_distractor_diamondtriangles.svg	stimuli_distractor_trianglediamonds.svg	37	no	57	0	566	6	3	antiphase_hc_soi.wav	1	6	1	noise_calib_stim_LEFT.wav	1	1	blb_dichoticlistening_ba-ba.mp3	ba	ba	0	left
6.6.1	mac	2023-06-27	16:52:35	17:09:12	993572	597e1b3f9d51240001f1f71d	2	1	main_z	24	main_z	49	stimuli_distractor_trianglediamonds.svg	stimuli_target_trianglesquares.svg	26	yes	44	1	780	6	3	antiphase_hc_soi.wav	1	6	1	noise_calib_stim_LEFT.wav	1	1	blb_dichoticlistening_ba-ba.mp3	ba	ba	0	left
6.6.1	mac	2023-06-27	16:52:35	17:09:12	993572	597e1b3f9d51240001f1f71d	2	1	main_z	24	advance_on_keypress_ZEE	50	stimuli_distractor_trianglediamonds.svg	stimuli_target_trianglesquares.svg	26	yes	57	0	750	6	3	antiphase_hc_soi.wav	1	6	1	noise_calib_stim_LEFT.wav	1	1	blb_dichoticlistening_ba-ba.mp3	ba	ba	0	left
6.6.1	mac	2023-06-27	16:52:35	17:09:15	995774	597e1b3f9d51240001f1f71d	2	1	main_z	24	main_z	51	stimuli_target_squarediamonds.svg	stimuli_distractor_diamondtriangles.svg	8	yes	44	1	823	6	3	antiphase_hc_soi.wav	1	6	1	noise_calib_stim_LEFT.wav	1	1	blb_dichoticlistening_ba-ba.mp3	ba	ba	0	left
6.6.1	mac	2023-06-27	16:52:35	17:09:15	995774	597e1b3f9d51240001f1f71d	2	1	main_z	24	advance_on_keypress_ZEE	52	stimuli_target_squarediamonds.svg	stimuli_distractor_diamondtriangles.svg	8	yes	57	0	1046	6	3	antiphase_hc_soi.wav	1	6	1	noise_calib_stim_LEFT.wav	1	1	blb_dichoticlistening_ba-ba.mp3	ba	ba	0	left
6.6.1	mac	2023-06-27	16:52:35	17:09:17	998418	597e1b3f9d51240001f1f71d	2	1	main_z	24	main_z	53	stimuli_target_trianglesquares.svg	stimuli_distractor_trianglediamonds.svg	18	yes	44	1	954	6	3	antiphase_hc_soi.wav	1	6	1	noise_calib_stim_LEFT.wav	1	1	blb_dichoticlistening_ba-ba.mp3	ba	ba	0	left
6.6.1	mac	2023-06-27	16:52:35	17:09:17	998418	597e1b3f9d51240001f1f71d	2	1	main_z	24	advance_on_keypress_ZEE	54	stimuli_target_trianglesquares.svg	stimuli_distractor_trianglediamonds.svg	18	yes	57	0	865	6	3	antiphase_hc_soi.wav	1	6	1	noise_calib_stim_LEFT.wav	1	1	blb_dichoticlistening_ba-ba.mp3	ba	ba	0	left
6.6.1	mac	2023-06-27	16:52:35	17:09:20	1000951	597e1b3f9d51240001f1f71d	2	1	main_z	24	main_z	55	stimuli_distractor_trianglediamonds.svg	stimuli_target_squarediamonds.svg	12	yes	44	1	1032	6	3	antiphase_hc_soi.wav	1	6	1	noise_calib_stim_LEFT.wav	1	1	blb_dichoticlistening_ba-ba.mp3	ba	ba	0	left
6.6.1	mac	2023-06-27	16:52:35	17:09:20	1000951	597e1b3f9d51240001f1f71d	2	1	main_z	24	advance_on_keypress_ZEE	56	stimuli_distractor_trianglediamonds.svg	stimuli_target_squarediamonds.svg	12	yes	57	0	712	6	3	antiphase_hc_soi.wav	1	6	1	noise_calib_stim_LEFT.wav	1	1	blb_dichoticlistening_ba-ba.mp3	ba	ba	0	left
6.6.1	mac	2023-06-27	16:52:35	17:09:22	1003550	597e1b3f9d51240001f1f71d	2	1	main_z	24	main_z	57	stimuli_distractor_diamondtriangles.svg	stimuli_target_diamondsquares.svg	32	yes	44	1	1259	6	3	antiphase_hc_soi.wav	1	6	1	noise_calib_stim_LEFT.wav	1	1	blb_dichoticlistening_ba-ba.mp3	ba	ba	0	left
6.6.1	mac	2023-06-27	16:52:35	17:09:22	1003550	597e1b3f9d51240001f1f71d	2	1	main_z	24	advance_on_keypress_ZEE	58	stimuli_distractor_diamondtriangles.svg	stimuli_target_diamondsquares.svg	32	yes	57	0	905	6	3	antiphase_hc_soi.wav	1	6	1	noise_calib_stim_LEFT.wav	1	1	blb_dichoticlistening_ba-ba.mp3	ba	ba	0	left
6.6.1	mac	2023-06-27	16:52:35	17:09:25	1005939	597e1b3f9d51240001f1f71d	2	1	main_z	24	main_z	59	stimuli_distractor_trianglediamonds.svg	stimuli_target_squaretriangles.svg	11	yes	44	1	837	6	3	antiphase_hc_soi.wav	1	6	1	noise_calib_stim_LEFT.wav	1	1	blb_dichoticlistening_ba-ba.mp3	ba	ba	0	left
6.6.1	mac	2023-06-27	16:52:35	17:09:25	1005939	597e1b3f9d51240001f1f71d	2	1	main_z	24	advance_on_keypress_ZEE	60	stimuli_distractor_trianglediamonds.svg	stimuli_target_squaretriangles.svg	11	yes	57	0	1163	6	3	antiphase_hc_soi.wav	1	6	1	noise_calib_stim_LEFT.wav	1	1	blb_dichoticlistening_ba-ba.mp3	ba	ba	0	left
6.6.1	mac	2023-06-27	16:52:35	17:09:28	1009736	597e1b3f9d51240001f1f71d	2	1	main_z	24	main_z	61	stimuli_distractor_diamondtriangles.svg	stimuli_distractor_diamondtriangles.svg	40	no	0	1	2000	6	3	antiphase_hc_soi.wav	1	6	1	noise_calib_stim_LEFT.wav	1	1	blb_dichoticlistening_ba-ba.mp3	ba	ba	0	left
6.6.1	mac	2023-06-27	16:52:35	17:09:28	1009736	597e1b3f9d51240001f1f71d	2	1	main_z	24	advance_on_keypress_ZEE	62	stimuli_distractor_diamondtriangles.svg	stimuli_distractor_diamondtriangles.svg	40	no	57	0	356	6	3	antiphase_hc_soi.wav	1	6	1	noise_calib_stim_LEFT.wav	1	1	blb_dichoticlistening_ba-ba.mp3	ba	ba	0	left
6.6.1	mac	2023-06-27	16:52:35	17:09:31	1012297	597e1b3f9d51240001f1f71d	2	1	main_z	24	main_z	63	stimuli_distractor_diamondtriangles.svg	stimuli_target_rectangletriangles.svg	13	yes	44	1	1564	6	3	antiphase_hc_soi.wav	1	6	1	noise_calib_stim_LEFT.wav	1	1	blb_dichoticlistening_ba-ba.mp3	ba	ba	0	left
6.6.1	mac	2023-06-27	16:52:35	17:09:31	1012297	597e1b3f9d51240001f1f71d	2	1	main_z	24	advance_on_keypress_ZEE	64	stimuli_distractor_diamondtriangles.svg	stimuli_target_rectangletriangles.svg	13	yes	57	0	870	6	3	antiphase_hc_soi.wav	1	6	1	noise_calib_stim_LEFT.wav	1	1	blb_dichoticlistening_ba-ba.mp3	ba	ba	0	left
6.6.1	mac	2023-06-27	16:52:35	17:09:33	1014749	597e1b3f9d51240001f1f71d	2	1	main_z	24	main_z	65	stimuli_distractor_trianglediamonds.svg	stimuli_target_diamondsquares.svg	28	yes	44	1	941	6	3	antiphase_hc_soi.wav	1	6	1	noise_calib_stim_LEFT.wav	1	1	blb_dichoticlistening_ba-ba.mp3	ba	ba	0	left
6.6.1	mac	2023-06-27	16:52:35	17:09:33	1014749	597e1b3f9d51240001f1f71d	2	1	main_z	24	advance_on_keypress_ZEE	66	stimuli_distractor_trianglediamonds.svg	stimuli_target_diamondsquares.svg	28	yes	57	0	690	6	3	antiphase_hc_soi.wav	1	6	1	noise_calib_stim_LEFT.wav	1	1	blb_dichoticlistening_ba-ba.mp3	ba	ba	0	left
6.6.1	mac	2023-06-27	16:52:35	17:09:36	1016980	597e1b3f9d51240001f1f71d	2	1	main_z	24	main_z	67	stimuli_distractor_diamondtriangles.svg	stimuli_target_squarediamonds.svg	16	yes	44	1	906	6	3	antiphase_hc_soi.wav	1	6	1	noise_calib_stim_LEFT.wav	1	1	blb_dichoticlistening_ba-ba.mp3	ba	ba	0	left
6.6.1	mac	2023-06-27	16:52:35	17:09:36	1016980	597e1b3f9d51240001f1f71d	2	1	main_z	24	advance_on_keypress_ZEE	68	stimuli_distractor_diamondtriangles.svg	stimuli_target_squarediamonds.svg	16	yes	57	0	1339	6	3	antiphase_hc_soi.wav	1	6	1	noise_calib_stim_LEFT.wav	1	1	blb_dichoticlistening_ba-ba.mp3	ba	ba	0	left
6.6.1	mac	2023-06-27	16:52:35	17:09:40	1020968	597e1b3f9d51240001f1f71d	2	1	main_z	24	main_z	69	stimuli_distractor_trianglediamonds.svg	stimuli_distractor_trianglediamonds.svg	33	no	0	1	2000	6	3	antiphase_hc_soi.wav	1	6	1	noise_calib_stim_LEFT.wav	1	1	blb_dichoticlistening_ba-ba.mp3	ba	ba	0	left
6.6.1	mac	2023-06-27	16:52:35	17:09:40	1020968	597e1b3f9d51240001f1f71d	2	1	main_z	24	advance_on_keypress_ZEE	70	stimuli_distractor_trianglediamonds.svg	stimuli_distractor_trianglediamonds.svg	33	no	57	0	628	6	3	antiphase_hc_soi.wav	1	6	1	noise_calib_stim_LEFT.wav	1	1	blb_dichoticlistening_ba-ba.mp3	ba	ba	0	left
6.6.1	mac	2023-06-27	16:52:35	17:09:43	1024231	597e1b3f9d51240001f1f71d	2	1	main_z	24	main_z	71	stimuli_distractor_diamondtriangles.svg	stimuli_distractor_trianglediamonds.svg	38	no	0	1	2000	6	3	antiphase_hc_soi.wav	1	6	1	noise_calib_stim_LEFT.wav	1	1	blb_dichoticlistening_ba-ba.mp3	ba	ba	0	left
6.6.1	mac	2023-06-27	16:52:35	17:09:43	1024231	597e1b3f9d51240001f1f71d	2	1	main_z	24	advance_on_keypress_ZEE	72	stimuli_distractor_diamondtriangles.svg	stimuli_distractor_trianglediamonds.svg	38	no	57	0	373	6	3	antiphase_hc_soi.wav	1	6	1	noise_calib_stim_LEFT.wav	1	1	blb_dichoticlistening_ba-ba.mp3	ba	ba	0	left
6.6.1	mac	2023-06-27	16:52:35	17:09:45	1026048	597e1b3f9d51240001f1f71d	2	1	main_z	24	main_z	73	stimuli_target_diamondrectangles.svg	stimuli_distractor_trianglediamonds.svg	19	yes	44	1	813	6	3	antiphase_hc_soi.wav	1	6	1	noise_calib_stim_LEFT.wav	1	1	blb_dichoticlistening_ba-ba.mp3	ba	ba	0	left
6.6.1	mac	2023-06-27	16:52:35	17:09:45	1026048	597e1b3f9d51240001f1f71d	2	1	main_z	24	advance_on_keypress_ZEE	74	stimuli_target_diamondrectangles.svg	stimuli_distractor_trianglediamonds.svg	19	yes	57	0	766	6	3	antiphase_hc_soi.wav	1	6	1	noise_calib_stim_LEFT.wav	1	1	blb_dichoticlistening_ba-ba.mp3	ba	ba	0	left
6.6.1	mac	2023-06-27	16:52:35	17:09:47	1028376	597e1b3f9d51240001f1f71d	2	1	main_z	24	main_z	75	stimuli_distractor_diamondtriangles.svg	stimuli_target_diamondrectangles.svg	31	yes	44	1	925	6	3	antiphase_hc_soi.wav	1	6	1	noise_calib_stim_LEFT.wav	1	1	blb_dichoticlistening_ba-ba.mp3	ba	ba	0	left
6.6.1	mac	2023-06-27	16:52:35	17:09:47	1028376	597e1b3f9d51240001f1f71d	2	1	main_z	24	advance_on_keypress_ZEE	76	stimuli_distractor_diamondtriangles.svg	stimuli_target_diamondrectangles.svg	31	yes	57	0	759	6	3	antiphase_hc_soi.wav	1	6	1	noise_calib_stim_LEFT.wav	1	1	blb_dichoticlistening_ba-ba.mp3	ba	ba	0	left
6.6.1	mac	2023-06-27	16:52:35	17:09:50	1031397	597e1b3f9d51240001f1f71d	2	1	main_z	24	main_z	77	stimuli_distractor_trianglediamonds.svg	stimuli_distractor_diamondtriangles.svg	35	no	44	0	1623	6	3	antiphase_hc_soi.wav	1	6	1	noise_calib_stim_LEFT.wav	1	1	blb_dichoticlistening_ba-ba.mp3	ba	ba	0	left
6.6.1	mac	2023-06-27	16:52:35	17:09:50	1031397	597e1b3f9d51240001f1f71d	2	1	main_z	24	advance_on_keypress_ZEE	78	stimuli_distractor_trianglediamonds.svg	stimuli_distractor_diamondtriangles.svg	35	no	57	0	706	6	3	antiphase_hc_soi.wav	1	6	1	noise_calib_stim_LEFT.wav	1	1	blb_dichoticlistening_ba-ba.mp3	ba	ba	0	left
6.6.1	mac	2023-06-27	16:52:35	17:09:53	1034600	597e1b3f9d51240001f1f71d	2	1	main_z	24	main_z	79	stimuli_distractor_trianglediamonds.svg	stimuli_target_rectangletriangles.svg	9	yes	44	1	1859	6	3	antiphase_hc_soi.wav	1	6	1	noise_calib_stim_LEFT.wav	1	1	blb_dichoticlistening_ba-ba.mp3	ba	ba	0	left
6.6.1	mac	2023-06-27	16:52:35	17:09:53	1034600	597e1b3f9d51240001f1f71d	2	1	main_z	24	advance_on_keypress_ZEE	80	stimuli_distractor_trianglediamonds.svg	stimuli_target_rectangletriangles.svg	9	yes	57	0	590	6	3	antiphase_hc_soi.wav	1	6	1	noise_calib_stim_LEFT.wav	1	1	blb_dichoticlistening_ba-ba.mp3	ba	ba	0	left
6.6.1	mac	2023-06-27	16:52:35	17:09:56	1036827	597e1b3f9d51240001f1f71d	2	1	main_z	24	main_z	81	stimuli_distractor_trianglediamonds.svg	stimuli_target_squaretriangles.svg	11	yes	44	1	1003	6	3	antiphase_hc_soi.wav	1	6	1	noise_calib_stim_LEFT.wav	1	1	blb_dichoticlistening_ba-ba.mp3	ba	ba	0	left
6.6.1	mac	2023-06-27	16:52:35	17:09:56	1036827	597e1b3f9d51240001f1f71d	2	1	main_z	24	advance_on_keypress_ZEE	82	stimuli_distractor_trianglediamonds.svg	stimuli_target_squaretriangles.svg	11	yes	57	0	942	6	3	antiphase_hc_soi.wav	1	6	1	noise_calib_stim_LEFT.wav	1	1	blb_dichoticlistening_ba-ba.mp3	ba	ba	0	left
6.6.1	mac	2023-06-27	16:52:35	17:09:58	1039297	597e1b3f9d51240001f1f71d	2	1	main_z	24	main_z	83	stimuli_distractor_trianglediamonds.svg	stimuli_target_rectanglediamonds.svg	10	yes	44	1	892	6	3	antiphase_hc_soi.wav	1	6	1	noise_calib_stim_LEFT.wav	1	1	blb_dichoticlistening_ba-ba.mp3	ba	ba	0	left
6.6.1	mac	2023-06-27	16:52:35	17:09:58	1039297	597e1b3f9d51240001f1f71d	2	1	main_z	24	advance_on_keypress_ZEE	84	stimuli_distractor_trianglediamonds.svg	stimuli_target_rectanglediamonds.svg	10	yes	57	0	738	6	3	antiphase_hc_soi.wav	1	6	1	noise_calib_stim_LEFT.wav	1	1	blb_dichoticlistening_ba-ba.mp3	ba	ba	0	left
6.6.1	mac	2023-06-27	16:52:35	17:10:01	1042672	597e1b3f9d51240001f1f71d	2	1	main_z	24	main_z	85	stimuli_distractor_diamondtriangles.svg	stimuli_distractor_trianglediamonds.svg	38	no	0	1	2000	6	3	antiphase_hc_soi.wav	1	6	1	noise_calib_stim_LEFT.wav	1	1	blb_dichoticlistening_ba-ba.mp3	ba	ba	0	left
6.6.1	mac	2023-06-27	16:52:35	17:10:01	1042672	597e1b3f9d51240001f1f71d	2	1	main_z	24	advance_on_keypress_ZEE	86	stimuli_distractor_diamondtriangles.svg	stimuli_distractor_trianglediamonds.svg	38	no	57	0	419	6	3	antiphase_hc_soi.wav	1	6	1	noise_calib_stim_LEFT.wav	1	1	blb_dichoticlistening_ba-ba.mp3	ba	ba	0	left
6.6.1	mac	2023-06-27	16:52:35	17:10:03	1044576	597e1b3f9d51240001f1f71d	2	1	main_z	24	main_z	87	stimuli_target_squaretriangles.svg	stimuli_distractor_trianglediamonds.svg	3	yes	44	1	850	6	3	antiphase_hc_soi.wav	1	6	1	noise_calib_stim_LEFT.wav	1	1	blb_dichoticlistening_ba-ba.mp3	ba	ba	0	left
6.6.1	mac	2023-06-27	16:52:35	17:10:03	1044576	597e1b3f9d51240001f1f71d	2	1	main_z	24	advance_on_keypress_ZEE	88	stimuli_target_squaretriangles.svg	stimuli_distractor_trianglediamonds.svg	3	yes	57	0	930	6	3	antiphase_hc_soi.wav	1	6	1	noise_calib_stim_LEFT.wav	1	1	blb_dichoticlistening_ba-ba.mp3	ba	ba	0	left
6.6.1	mac	2023-06-27	16:52:35	17:10:06	1047596	597e1b3f9d51240001f1f71d	2	1	main_z	24	main_z	89	stimuli_target_trianglerectangles.svg	stimuli_distractor_diamondtriangles.svg	21	yes	44	1	1464	6	3	antiphase_hc_soi.wav	1	6	1	noise_calib_stim_LEFT.wav	1	1	blb_dichoticlistening_ba-ba.mp3	ba	ba	0	left
6.6.1	mac	2023-06-27	16:52:35	17:10:06	1047596	597e1b3f9d51240001f1f71d	2	1	main_z	24	advance_on_keypress_ZEE	90	stimuli_target_trianglerectangles.svg	stimuli_distractor_diamondtriangles.svg	21	yes	57	0	1085	6	3	antiphase_hc_soi.wav	1	6	1	noise_calib_stim_LEFT.wav	1	1	blb_dichoticlistening_ba-ba.mp3	ba	ba	0	left
6.6.1	mac	2023-06-27	16:52:35	17:10:09	1049988	597e1b3f9d51240001f1f71d	2	1	main_z	24	main_z	91	stimuli_distractor_trianglediamonds.svg	stimuli_target_squarediamonds.svg	12	yes	44	1	674	6	3	antiphase_hc_soi.wav	1	6	1	noise_calib_stim_LEFT.wav	1	1	blb_dichoticlistening_ba-ba.mp3	ba	ba	0	left
6.6.1	mac	2023-06-27	16:52:35	17:10:09	1049988	597e1b3f9d51240001f1f71d	2	1	main_z	24	advance_on_keypress_ZEE	92	stimuli_distractor_trianglediamonds.svg	stimuli_target_squarediamonds.svg	12	yes	57	0	577	6	3	antiphase_hc_soi.wav	1	6	1	noise_calib_stim_LEFT.wav	1	1	blb_dichoticlistening_ba-ba.mp3	ba	ba	0	left
6.6.1	mac	2023-06-27	16:52:35	17:10:12	1053200	597e1b3f9d51240001f1f71d	2	1	main_z	24	main_z	93	stimuli_distractor_trianglediamonds.svg	stimuli_distractor_trianglediamonds.svg	34	no	0	1	2000	6	3	antiphase_hc_soi.wav	1	6	1	noise_calib_stim_LEFT.wav	1	1	blb_dichoticlistening_ba-ba.mp3	ba	ba	0	left
6.6.1	mac	2023-06-27	16:52:35	17:10:12	1053200	597e1b3f9d51240001f1f71d	2	1	main_z	24	advance_on_keypress_ZEE	94	stimuli_distractor_trianglediamonds.svg	stimuli_distractor_trianglediamonds.svg	34	no	57	0	671	6	3	antiphase_hc_soi.wav	1	6	1	noise_calib_stim_LEFT.wav	1	1	blb_dichoticlistening_ba-ba.mp3	ba	ba	0	left
6.6.1	mac	2023-06-27	16:52:35	17:10:14	1055399	597e1b3f9d51240001f1f71d	2	1	main_z	24	main_z	95	stimuli_target_diamondrectangles.svg	stimuli_distractor_diamondtriangles.svg	23	yes	44	1	890	6	3	antiphase_hc_soi.wav	1	6	1	noise_calib_stim_LEFT.wav	1	1	blb_dichoticlistening_ba-ba.mp3	ba	ba	0	left
6.6.1	mac	2023-06-27	16:52:35	17:10:14	1055399	597e1b3f9d51240001f1f71d	2	1	main_z	24	advance_on_keypress_ZEE	96	stimuli_target_diamondrectangles.svg	stimuli_distractor_diamondtriangles.svg	23	yes	57	0	783	6	3	antiphase_hc_soi.wav	1	6	1	noise_calib_stim_LEFT.wav	1	1	blb_dichoticlistening_ba-ba.mp3	ba	ba	0	left
6.6.1	mac	2023-06-27	16:52:35	17:10:17	1058122	597e1b3f9d51240001f1f71d	2	1	main_z	24	main_z	97	stimuli_target_squaretriangles.svg	stimuli_distractor_diamondtriangles.svg	7	yes	44	1	1282	6	3	antiphase_hc_soi.wav	1	6	1	noise_calib_stim_LEFT.wav	1	1	blb_dichoticlistening_ba-ba.mp3	ba	ba	0	left
6.6.1	mac	2023-06-27	16:52:35	17:10:17	1058122	597e1b3f9d51240001f1f71d	2	1	main_z	24	advance_on_keypress_ZEE	98	stimuli_target_squaretriangles.svg	stimuli_distractor_diamondtriangles.svg	7	yes	57	0	556	6	3	antiphase_hc_soi.wav	1	6	1	noise_calib_stim_LEFT.wav	1	1	blb_dichoticlistening_ba-ba.mp3	ba	ba	0	left
6.6.1	mac	2023-06-27	16:52:35	17:10:19	1060231	597e1b3f9d51240001f1f71d	2	1	main_z	24	main_z	99	stimuli_target_rectangletriangles.svg	stimuli_distractor_diamondtriangles.svg	5	yes	44	1	918	6	3	antiphase_hc_soi.wav	1	6	1	noise_calib_stim_LEFT.wav	1	1	blb_dichoticlistening_ba-ba.mp3	ba	ba	0	left
6.6.1	mac	2023-06-27	16:52:35	17:10:19	1060231	597e1b3f9d51240001f1f71d	2	1	main_z	24	advance_on_keypress_ZEE	100	stimuli_target_rectangletriangles.svg	stimuli_distractor_diamondtriangles.svg	5	yes	57	0	663	6	3	antiphase_hc_soi.wav	1	6	1	noise_calib_stim_LEFT.wav	1	1	blb_dichoticlistening_ba-ba.mp3	ba	ba	0	left
6.6.1	mac	2023-06-27	16:52:35	17:10:21	1062589	597e1b3f9d51240001f1f71d	2	1	main_z	24	main_z	101	stimuli_target_diamondrectangles.svg	stimuli_distractor_trianglediamonds.svg	19	yes	44	1	1055	6	3	antiphase_hc_soi.wav	1	6	1	noise_calib_stim_LEFT.wav	1	1	blb_dichoticlistening_ba-ba.mp3	ba	ba	0	left
6.6.1	mac	2023-06-27	16:52:35	17:10:21	1062589	597e1b3f9d51240001f1f71d	2	1	main_z	24	advance_on_keypress_ZEE	102	stimuli_target_diamondrectangles.svg	stimuli_distractor_trianglediamonds.svg	19	yes	57	0	716	6	3	antiphase_hc_soi.wav	1	6	1	noise_calib_stim_LEFT.wav	1	1	blb_dichoticlistening_ba-ba.mp3	ba	ba	0	left
6.6.1	mac	2023-06-27	16:52:35	17:10:24	1064824	597e1b3f9d51240001f1f71d	2	1	main_z	24	main_z	103	stimuli_distractor_diamondtriangles.svg	stimuli_target_diamondsquares.svg	32	yes	44	1	882	6	3	antiphase_hc_soi.wav	1	6	1	noise_calib_stim_LEFT.wav	1	1	blb_dichoticlistening_ba-ba.mp3	ba	ba	0	left
6.6.1	mac	2023-06-27	16:52:35	17:10:24	1064824	597e1b3f9d51240001f1f71d	2	1	main_z	24	advance_on_keypress_ZEE	104	stimuli_distractor_diamondtriangles.svg	stimuli_target_diamondsquares.svg	32	yes	57	0	836	6	3	antiphase_hc_soi.wav	1	6	1	noise_calib_stim_LEFT.wav	1	1	blb_dichoticlistening_ba-ba.mp3	ba	ba	0	left
6.6.1	mac	2023-06-27	16:52:35	17:10:26	1067254	597e1b3f9d51240001f1f71d	2	1	main_z	24	main_z	105	stimuli_distractor_diamondtriangles.svg	stimuli_target_trianglesquares.svg	30	yes	44	1	955	6	3	antiphase_hc_soi.wav	1	6	1	noise_calib_stim_LEFT.wav	1	1	blb_dichoticlistening_ba-ba.mp3	ba	ba	0	left
6.6.1	mac	2023-06-27	16:52:35	17:10:26	1067254	597e1b3f9d51240001f1f71d	2	1	main_z	24	advance_on_keypress_ZEE	106	stimuli_distractor_diamondtriangles.svg	stimuli_target_trianglesquares.svg	30	yes	57	0	651	6	3	antiphase_hc_soi.wav	1	6	1	noise_calib_stim_LEFT.wav	1	1	blb_dichoticlistening_ba-ba.mp3	ba	ba	0	left
6.6.1	mac	2023-06-27	16:52:35	17:10:28	1069564	597e1b3f9d51240001f1f71d	2	1	main_z	24	main_z	107	stimuli_distractor_diamondtriangles.svg	stimuli_target_rectanglediamonds.svg	14	yes	44	1	1011	6	3	antiphase_hc_soi.wav	1	6	1	noise_calib_stim_LEFT.wav	1	1	blb_dichoticlistening_ba-ba.mp3	ba	ba	0	left
6.6.1	mac	2023-06-27	16:52:35	17:10:28	1069564	597e1b3f9d51240001f1f71d	2	1	main_z	24	advance_on_keypress_ZEE	108	stimuli_distractor_diamondtriangles.svg	stimuli_target_rectanglediamonds.svg	14	yes	57	0	937	6	3	antiphase_hc_soi.wav	1	6	1	noise_calib_stim_LEFT.wav	1	1	blb_dichoticlistening_ba-ba.mp3	ba	ba	0	left
6.6.1	mac	2023-06-27	16:52:35	17:10:31	1071953	597e1b3f9d51240001f1f71d	2	1	main_z	24	main_z	109	stimuli_target_squarediamonds.svg	stimuli_distractor_diamondtriangles.svg	8	yes	44	1	805	6	3	antiphase_hc_soi.wav	1	6	1	noise_calib_stim_LEFT.wav	1	1	blb_dichoticlistening_ba-ba.mp3	ba	ba	0	left
6.6.1	mac	2023-06-27	16:52:35	17:10:31	1071953	597e1b3f9d51240001f1f71d	2	1	main_z	24	advance_on_keypress_ZEE	110	stimuli_target_squarediamonds.svg	stimuli_distractor_diamondtriangles.svg	8	yes	57	0	888	6	3	antiphase_hc_soi.wav	1	6	1	noise_calib_stim_LEFT.wav	1	1	blb_dichoticlistening_ba-ba.mp3	ba	ba	0	left
6.6.1	mac	2023-06-27	16:52:35	17:10:33	1074250	597e1b3f9d51240001f1f71d	2	1	main_z	24	main_z	111	stimuli_distractor_diamondtriangles.svg	stimuli_target_squarediamonds.svg	16	yes	44	1	783	6	3	antiphase_hc_soi.wav	1	6	1	noise_calib_stim_LEFT.wav	1	1	blb_dichoticlistening_ba-ba.mp3	ba	ba	0	left
6.6.1	mac	2023-06-27	16:52:35	17:10:33	1074250	597e1b3f9d51240001f1f71d	2	1	main_z	24	advance_on_keypress_ZEE	112	stimuli_distractor_diamondtriangles.svg	stimuli_target_squarediamonds.svg	16	yes	57	0	651	6	3	antiphase_hc_soi.wav	1	6	1	noise_calib_stim_LEFT.wav	1	1	blb_dichoticlistening_ba-ba.mp3	ba	ba	0	left
6.6.1	mac	2023-06-27	16:52:35	17:10:36	1077260	597e1b3f9d51240001f1f71d	2	1	main_z	24	main_z	113	stimuli_distractor_trianglediamonds.svg	stimuli_distractor_diamondtriangles.svg	35	no	44	0	1723	6	3	antiphase_hc_soi.wav	1	6	1	noise_calib_stim_LEFT.wav	1	1	blb_dichoticlistening_ba-ba.mp3	ba	ba	0	left
6.6.1	mac	2023-06-27	16:52:35	17:10:36	1077260	597e1b3f9d51240001f1f71d	2	1	main_z	24	advance_on_keypress_ZEE	114	stimuli_distractor_trianglediamonds.svg	stimuli_distractor_diamondtriangles.svg	35	no	57	0	1832	6	3	antiphase_hc_soi.wav	1	6	1	noise_calib_stim_LEFT.wav	1	1	blb_dichoticlistening_ba-ba.mp3	ba	ba	0	left
6.6.1	mac	2023-06-27	16:52:35	17:10:40	1080791	597e1b3f9d51240001f1f71d	2	1	main_z	24	main_z	115	stimuli_distractor_trianglediamonds.svg	stimuli_target_rectangletriangles.svg	9	yes	44	1	1063	6	3	antiphase_hc_soi.wav	1	6	1	noise_calib_stim_LEFT.wav	1	1	blb_dichoticlistening_ba-ba.mp3	ba	ba	0	left
6.6.1	mac	2023-06-27	16:52:35	17:10:40	1080791	597e1b3f9d51240001f1f71d	2	1	main_z	24	advance_on_keypress_ZEE	116	stimuli_distractor_trianglediamonds.svg	stimuli_target_rectangletriangles.svg	9	yes	57	0	630	6	3	antiphase_hc_soi.wav	1	6	1	noise_calib_stim_LEFT.wav	1	1	blb_dichoticlistening_ba-ba.mp3	ba	ba	0	left
6.6.1	mac	2023-06-27	16:52:35	17:10:43	1084055	597e1b3f9d51240001f1f71d	2	1	main_z	24	main_z	117	stimuli_distractor_trianglediamonds.svg	stimuli_distractor_diamondtriangles.svg	36	no	0	1	2000	6	3	antiphase_hc_soi.wav	1	6	1	noise_calib_stim_LEFT.wav	1	1	blb_dichoticlistening_ba-ba.mp3	ba	ba	0	left
6.6.1	mac	2023-06-27	16:52:35	17:10:43	1084055	597e1b3f9d51240001f1f71d	2	1	main_z	24	advance_on_keypress_ZEE	118	stimuli_distractor_trianglediamonds.svg	stimuli_distractor_diamondtriangles.svg	36	no	57	0	464	6	3	antiphase_hc_soi.wav	1	6	1	noise_calib_stim_LEFT.wav	1	1	blb_dichoticlistening_ba-ba.mp3	ba	ba	0	left
6.6.1	mac	2023-06-27	16:52:35	17:10:45	1086260	597e1b3f9d51240001f1f71d	2	1	main_z	24	main_z	119	stimuli_distractor_trianglediamonds.svg	stimuli_target_trianglerectangles.svg	25	yes	44	1	1100	6	3	antiphase_hc_soi.wav	1	6	1	noise_calib_stim_LEFT.wav	1	1	blb_dichoticlistening_ba-ba.mp3	ba	ba	0	left
6.6.1	mac	2023-06-27	16:52:35	17:10:45	1086260	597e1b3f9d51240001f1f71d	2	1	main_z	24	advance_on_keypress_ZEE	120	stimuli_distractor_trianglediamonds.svg	stimuli_target_trianglerectangles.svg	25	yes	57	0	803	6	3	antiphase_hc_soi.wav	1	6	1	noise_calib_stim_LEFT.wav	1	1	blb_dichoticlistening_ba-ba.mp3	ba	ba	0	left
6.6.1	mac	2023-06-27	16:52:35	17:10:47	1088590	597e1b3f9d51240001f1f71d	2	1	main_z	24	main_z	121	stimuli_target_trianglesquares.svg	stimuli_distractor_diamondtriangles.svg	22	yes	44	1	905	6	3	antiphase_hc_soi.wav	1	6	1	noise_calib_stim_LEFT.wav	1	1	blb_dichoticlistening_ba-ba.mp3	ba	ba	0	left
6.6.1	mac	2023-06-27	16:52:35	17:10:47	1088590	597e1b3f9d51240001f1f71d	2	1	main_z	24	advance_on_keypress_ZEE	122	stimuli_target_trianglesquares.svg	stimuli_distractor_diamondtriangles.svg	22	yes	57	0	702	6	3	antiphase_hc_soi.wav	1	6	1	noise_calib_stim_LEFT.wav	1	1	blb_dichoticlistening_ba-ba.mp3	ba	ba	0	left
6.6.1	mac	2023-06-27	16:52:35	17:10:49	1090746	597e1b3f9d51240001f1f71d	2	1	main_z	24	main_z	123	stimuli_target_trianglesquares.svg	stimuli_distractor_trianglediamonds.svg	18	yes	44	1	813	6	3	antiphase_hc_soi.wav	1	6	1	noise_calib_stim_LEFT.wav	1	1	blb_dichoticlistening_ba-ba.mp3	ba	ba	0	left
6.6.1	mac	2023-06-27	16:52:35	17:10:49	1090746	597e1b3f9d51240001f1f71d	2	1	main_z	24	advance_on_keypress_ZEE	124	stimuli_target_trianglesquares.svg	stimuli_distractor_trianglediamonds.svg	18	yes	57	0	654	6	3	antiphase_hc_soi.wav	1	6	1	noise_calib_stim_LEFT.wav	1	1	blb_dichoticlistening_ba-ba.mp3	ba	ba	0	left
6.6.1	mac	2023-06-27	16:52:35	17:10:52	1093092	597e1b3f9d51240001f1f71d	2	1	main_z	24	main_z	125	stimuli_distractor_diamondtriangles.svg	stimuli_target_trianglerectangles.svg	29	yes	44	1	1052	6	3	antiphase_hc_soi.wav	1	6	1	noise_calib_stim_LEFT.wav	1	1	blb_dichoticlistening_ba-ba.mp3	ba	ba	0	left
6.6.1	mac	2023-06-27	16:52:35	17:10:52	1093092	597e1b3f9d51240001f1f71d	2	1	main_z	24	advance_on_keypress_ZEE	126	stimuli_distractor_diamondtriangles.svg	stimuli_target_trianglerectangles.svg	29	yes	57	0	636	6	3	antiphase_hc_soi.wav	1	6	1	noise_calib_stim_LEFT.wav	1	1	blb_dichoticlistening_ba-ba.mp3	ba	ba	0	left
6.6.1	mac	2023-06-27	16:52:35	17:10:55	1096364	597e1b3f9d51240001f1f71d	2	1	main_z	24	main_z	127	stimuli_distractor_trianglediamonds.svg	stimuli_distractor_trianglediamonds.svg	33	no	0	1	2000	6	3	antiphase_hc_soi.wav	1	6	1	noise_calib_stim_LEFT.wav	1	1	blb_dichoticlistening_ba-ba.mp3	ba	ba	0	left
6.6.1	mac	2023-06-27	16:52:35	17:10:55	1096364	597e1b3f9d51240001f1f71d	2	1	main_z	24	advance_on_keypress_ZEE	128	stimuli_distractor_trianglediamonds.svg	stimuli_distractor_trianglediamonds.svg	33	no	57	0	480	6	3	antiphase_hc_soi.wav	1	6	1	noise_calib_stim_LEFT.wav	1	1	blb_dichoticlistening_ba-ba.mp3	ba	ba	0	left
6.6.1	mac	2023-06-27	16:52:35	17:10:57	1098527	597e1b3f9d51240001f1f71d	2	1	main_z	24	main_z	129	stimuli_distractor_diamondtriangles.svg	stimuli_target_squaretriangles.svg	15	yes	44	1	1040	6	3	antiphase_hc_soi.wav	1	6	1	noise_calib_stim_LEFT.wav	1	1	blb_dichoticlistening_ba-ba.mp3	ba	ba	0	left
6.6.1	mac	2023-06-27	16:52:35	17:10:57	1098527	597e1b3f9d51240001f1f71d	2	1	main_z	24	advance_on_keypress_ZEE	130	stimuli_distractor_diamondtriangles.svg	stimuli_target_squaretriangles.svg	15	yes	57	0	810	6	3	antiphase_hc_soi.wav	1	6	1	noise_calib_stim_LEFT.wav	1	1	blb_dichoticlistening_ba-ba.mp3	ba	ba	0	left
6.6.1	mac	2023-06-27	16:52:35	17:11:00	1101256	597e1b3f9d51240001f1f71d	2	1	main_z	24	main_z	131	stimuli_distractor_trianglediamonds.svg	stimuli_target_diamondsquares.svg	28	yes	44	1	1282	6	3	antiphase_hc_soi.wav	1	6	1	noise_calib_stim_LEFT.wav	1	1	blb_dichoticlistening_ba-ba.mp3	ba	ba	0	left
6.6.1	mac	2023-06-27	16:52:35	17:11:00	1101256	597e1b3f9d51240001f1f71d	2	1	main_z	24	advance_on_keypress_ZEE	132	stimuli_distractor_trianglediamonds.svg	stimuli_target_diamondsquares.svg	28	yes	57	0	754	6	3	antiphase_hc_soi.wav	1	6	1	noise_calib_stim_LEFT.wav	1	1	blb_dichoticlistening_ba-ba.mp3	ba	ba	0	left
6.6.1	mac	2023-06-27	16:52:35	17:11:02	1103461	597e1b3f9d51240001f1f71d	2	1	main_z	24	main_z	133	stimuli_distractor_trianglediamonds.svg	stimuli_target_diamondrectangles.svg	27	yes	44	1	809	6	3	antiphase_hc_soi.wav	1	6	1	noise_calib_stim_LEFT.wav	1	1	blb_dichoticlistening_ba-ba.mp3	ba	ba	0	left
6.6.1	mac	2023-06-27	16:52:35	17:11:02	1103461	597e1b3f9d51240001f1f71d	2	1	main_z	24	advance_on_keypress_ZEE	134	stimuli_distractor_trianglediamonds.svg	stimuli_target_diamondrectangles.svg	27	yes	57	0	751	6	3	antiphase_hc_soi.wav	1	6	1	noise_calib_stim_LEFT.wav	1	1	blb_dichoticlistening_ba-ba.mp3	ba	ba	0	left
6.6.1	mac	2023-06-27	16:52:35	17:11:05	1105838	597e1b3f9d51240001f1f71d	2	1	main_z	24	main_z	135	stimuli_target_squarediamonds.svg	stimuli_distractor_trianglediamonds.svg	4	yes	44	1	985	6	3	antiphase_hc_soi.wav	1	6	1	noise_calib_stim_LEFT.wav	1	1	blb_dichoticlistening_ba-ba.mp3	ba	ba	0	left
6.6.1	mac	2023-06-27	16:52:35	17:11:05	1105838	597e1b3f9d51240001f1f71d	2	1	main_z	24	advance_on_keypress_ZEE	136	stimuli_target_squarediamonds.svg	stimuli_distractor_trianglediamonds.svg	4	yes	57	0	687	6	3	antiphase_hc_soi.wav	1	6	1	noise_calib_stim_LEFT.wav	1	1	blb_dichoticlistening_ba-ba.mp3	ba	ba	0	left
6.6.1	mac	2023-06-27	16:52:35	17:11:07	1108020	597e1b3f9d51240001f1f71d	2	1	main_z	24	main_z	137	stimuli_distractor_diamondtriangles.svg	stimuli_target_diamondrectangles.svg	31	yes	44	1	844	6	3	antiphase_hc_soi.wav	1	6	1	noise_calib_stim_LEFT.wav	1	1	blb_dichoticlistening_ba-ba.mp3	ba	ba	0	left
6.6.1	mac	2023-06-27	16:52:35	17:11:07	1108020	597e1b3f9d51240001f1f71d	2	1	main_z	24	advance_on_keypress_ZEE	138	stimuli_distractor_diamondtriangles.svg	stimuli_target_diamondrectangles.svg	31	yes	57	0	678	6	3	antiphase_hc_soi.wav	1	6	1	noise_calib_stim_LEFT.wav	1	1	blb_dichoticlistening_ba-ba.mp3	ba	ba	0	left
6.6.1	mac	2023-06-27	16:52:35	17:11:09	1110734	597e1b3f9d51240001f1f71d	2	1	main_z	24	main_z	139	stimuli_target_rectangletriangles.svg	stimuli_distractor_trianglediamonds.svg	1	yes	44	1	1404	6	3	antiphase_hc_soi.wav	1	6	1	noise_calib_stim_LEFT.wav	1	1	blb_dichoticlistening_ba-ba.mp3	ba	ba	0	left
6.6.1	mac	2023-06-27	16:52:35	17:11:09	1110734	597e1b3f9d51240001f1f71d	2	1	main_z	24	advance_on_keypress_ZEE	140	stimuli_target_rectangletriangles.svg	stimuli_distractor_trianglediamonds.svg	1	yes	57	0	678	6	3	antiphase_hc_soi.wav	1	6	1	noise_calib_stim_LEFT.wav	1	1	blb_dichoticlistening_ba-ba.mp3	ba	ba	0	left
6.6.1	mac	2023-06-27	16:52:35	17:11:12	1112991	597e1b3f9d51240001f1f71d	2	1	main_z	24	main_z	141	stimuli_distractor_diamondtriangles.svg	stimuli_target_rectangletriangles.svg	13	yes	44	1	949	6	3	antiphase_hc_soi.wav	1	6	1	noise_calib_stim_LEFT.wav	1	1	blb_dichoticlistening_ba-ba.mp3	ba	ba	0	left
6.6.1	mac	2023-06-27	16:52:35	17:11:12	1112991	597e1b3f9d51240001f1f71d	2	1	main_z	24	advance_on_keypress_ZEE	142	stimuli_distractor_diamondtriangles.svg	stimuli_target_rectangletriangles.svg	13	yes	57	0	684	6	3	antiphase_hc_soi.wav	1	6	1	noise_calib_stim_LEFT.wav	1	1	blb_dichoticlistening_ba-ba.mp3	ba	ba	0	left
6.6.1	mac	2023-06-27	16:52:35	17:11:15	1116321	597e1b3f9d51240001f1f71d	2	1	main_z	24	main_z	143	stimuli_distractor_diamondtriangles.svg	stimuli_distractor_diamondtriangles.svg	39	no	0	1	2000	6	3	antiphase_hc_soi.wav	1	6	1	noise_calib_stim_LEFT.wav	1	1	blb_dichoticlistening_ba-ba.mp3	ba	ba	0	left
6.6.1	mac	2023-06-27	16:52:35	17:11:15	1116321	597e1b3f9d51240001f1f71d	2	1	main_z	24	advance_on_keypress_ZEE	144	stimuli_distractor_diamondtriangles.svg	stimuli_distractor_diamondtriangles.svg	39	no	57	0	442	6	3	antiphase_hc_soi.wav	1	6	1	noise_calib_stim_LEFT.wav	1	1	blb_dichoticlistening_ba-ba.mp3	ba	ba	0	left
6.6.1	mac	2023-06-27	16:52:35	17:11:17	1118261	597e1b3f9d51240001f1f71d	2	1	main_z	24	main_z	145	stimuli_target_rectanglediamonds.svg	stimuli_distractor_diamondtriangles.svg	6	yes	44	1	869	6	3	antiphase_hc_soi.wav	1	6	1	noise_calib_stim_LEFT.wav	1	1	blb_dichoticlistening_ba-ba.mp3	ba	ba	0	left
6.6.1	mac	2023-06-27	16:52:35	17:11:17	1118261	597e1b3f9d51240001f1f71d	2	1	main_z	24	advance_on_keypress_ZEE	146	stimuli_target_rectanglediamonds.svg	stimuli_distractor_diamondtriangles.svg	6	yes	57	0	746	6	3	antiphase_hc_soi.wav	1	6	1	noise_calib_stim_LEFT.wav	1	1	blb_dichoticlistening_ba-ba.mp3	ba	ba	0	left
6.6.1	mac	2023-06-27	16:52:35	17:11:19	1120497	597e1b3f9d51240001f1f71d	2	1	main_z	24	main_z	147	stimuli_target_rectanglediamonds.svg	stimuli_distractor_trianglediamonds.svg	2	yes	44	1	861	6	3	antiphase_hc_soi.wav	1	6	1	noise_calib_stim_LEFT.wav	1	1	blb_dichoticlistening_ba-ba.mp3	ba	ba	0	left
6.6.1	mac	2023-06-27	16:52:35	17:11:19	1120497	597e1b3f9d51240001f1f71d	2	1	main_z	24	advance_on_keypress_ZEE	148	stimuli_target_rectanglediamonds.svg	stimuli_distractor_trianglediamonds.svg	2	yes	57	0	650	6	3	antiphase_hc_soi.wav	1	6	1	noise_calib_stim_LEFT.wav	1	1	blb_dichoticlistening_ba-ba.mp3	ba	ba	0	left
6.6.1	mac	2023-06-27	16:52:35	17:11:21	1122736	597e1b3f9d51240001f1f71d	2	1	main_z	24	main_z	149	stimuli_target_diamondsquares.svg	stimuli_distractor_diamondtriangles.svg	24	yes	44	1	960	6	3	antiphase_hc_soi.wav	1	6	1	noise_calib_stim_LEFT.wav	1	1	blb_dichoticlistening_ba-ba.mp3	ba	ba	0	left
6.6.1	mac	2023-06-27	16:52:35	17:11:21	1122736	597e1b3f9d51240001f1f71d	2	1	main_z	24	advance_on_keypress_ZEE	150	stimuli_target_diamondsquares.svg	stimuli_distractor_diamondtriangles.svg	24	yes	57	0	720	6	3	antiphase_hc_soi.wav	1	6	1	noise_calib_stim_LEFT.wav	1	1	blb_dichoticlistening_ba-ba.mp3	ba	ba	0	left
6.6.1	mac	2023-06-27	16:52:35	17:11:24	1124988	597e1b3f9d51240001f1f71d	2	1	main_z	24	main_z	151	stimuli_distractor_trianglediamonds.svg	stimuli_target_trianglesquares.svg	26	yes	44	1	885	6	3	antiphase_hc_soi.wav	1	6	1	noise_calib_stim_LEFT.wav	1	1	blb_dichoticlistening_ba-ba.mp3	ba	ba	0	left
6.6.1	mac	2023-06-27	16:52:35	17:11:24	1124988	597e1b3f9d51240001f1f71d	2	1	main_z	24	advance_on_keypress_ZEE	152	stimuli_distractor_trianglediamonds.svg	stimuli_target_trianglesquares.svg	26	yes	57	0	594	6	3	antiphase_hc_soi.wav	1	6	1	noise_calib_stim_LEFT.wav	1	1	blb_dichoticlistening_ba-ba.mp3	ba	ba	0	left
6.6.1	mac	2023-06-27	16:52:35	17:11:26	1127481	597e1b3f9d51240001f1f71d	2	1	main_z	24	main_z	153	stimuli_distractor_diamondtriangles.svg	stimuli_distractor_trianglediamonds.svg	37	no	44	0	1271	6	3	antiphase_hc_soi.wav	1	6	1	noise_calib_stim_LEFT.wav	1	1	blb_dichoticlistening_ba-ba.mp3	ba	ba	0	left
6.6.1	mac	2023-06-27	16:52:35	17:11:26	1127481	597e1b3f9d51240001f1f71d	2	1	main_z	24	advance_on_keypress_ZEE	154	stimuli_distractor_diamondtriangles.svg	stimuli_distractor_trianglediamonds.svg	37	no	57	0	618	6	3	antiphase_hc_soi.wav	1	6	1	noise_calib_stim_LEFT.wav	1	1	blb_dichoticlistening_ba-ba.mp3	ba	ba	0	left
6.6.1	mac	2023-06-27	16:52:35	17:11:29	1130736	597e1b3f9d51240001f1f71d	2	1	main_z	24	main_z	155	stimuli_target_diamondsquares.svg	stimuli_distractor_trianglediamonds.svg	20	yes	0	0	2000	6	3	antiphase_hc_soi.wav	1	6	1	noise_calib_stim_LEFT.wav	1	1	blb_dichoticlistening_ba-ba.mp3	ba	ba	0	left
6.6.1	mac	2023-06-27	16:52:35	17:11:29	1130736	597e1b3f9d51240001f1f71d	2	1	main_z	24	advance_on_keypress_ZEE	156	stimuli_target_diamondsquares.svg	stimuli_distractor_trianglediamonds.svg	20	yes	57	0	722	6	3	antiphase_hc_soi.wav	1	6	1	noise_calib_stim_LEFT.wav	1	1	blb_dichoticlistening_ba-ba.mp3	ba	ba	0	left
6.6.1	mac	2023-06-27	16:52:35	17:11:32	1132864	597e1b3f9d51240001f1f71d	2	1	main_z	24	main_z	157	stimuli_target_trianglerectangles.svg	stimuli_distractor_trianglediamonds.svg	17	yes	44	1	758	6	3	antiphase_hc_soi.wav	1	6	1	noise_calib_stim_LEFT.wav	1	1	blb_dichoticlistening_ba-ba.mp3	ba	ba	0	left
6.6.1	mac	2023-06-27	16:52:35	17:11:32	1132864	597e1b3f9d51240001f1f71d	2	1	main_z	24	advance_on_keypress_ZEE	158	stimuli_target_trianglerectangles.svg	stimuli_distractor_trianglediamonds.svg	17	yes	57	0	537	6	3	antiphase_hc_soi.wav	1	6	1	noise_calib_stim_LEFT.wav	1	1	blb_dichoticlistening_ba-ba.mp3	ba	ba	0	left
6.6.1	mac	2023-06-27	16:52:35	17:11:35	1136044	597e1b3f9d51240001f1f71d	2	1	main_z	24	main_z	159	stimuli_distractor_diamondtriangles.svg	stimuli_distractor_diamondtriangles.svg	40	no	0	1	2000	6	3	antiphase_hc_soi.wav	1	6	1	noise_calib_stim_LEFT.wav	1	1	blb_dichoticlistening_ba-ba.mp3	ba	ba	0	left
6.6.1	mac	2023-06-27	16:52:35	17:11:35	1136044	597e1b3f9d51240001f1f71d	2	1	main_z	24	advance_on_keypress_ZEE	160	stimuli_distractor_diamondtriangles.svg	stimuli_distractor_diamondtriangles.svg	40	no	57	0	438	6	3	antiphase_hc_soi.wav	1	6	1	noise_calib_stim_LEFT.wav	1	1	blb_dichoticlistening_ba-ba.mp3	ba	ba	0	left
6.6.1	mac	2023-06-27	16:52:35	17:12:04	1165280	597e1b3f9d51240001f1f71d	2	1	practice_slash	26	practice_slash	1	stimuli_distractor_diamondtriangles.svg	stimuli_target_diamondrectangles.svg	8	yes	53	1	384	6	3	antiphase_hc_soi.wav	1	6	1	noise_calib_stim_LEFT.wav	1	1	blb_dichoticlistening_ba-ba.mp3	ba	ba	0	left
6.6.1	mac	2023-06-27	16:52:35	17:12:04	1165280	597e1b3f9d51240001f1f71d	2	1	practice_slash	26	advance_on_keypress_SLASH	2	stimuli_distractor_diamondtriangles.svg	stimuli_target_diamondrectangles.svg	8	yes	57	0	843	6	3	antiphase_hc_soi.wav	1	6	1	noise_calib_stim_LEFT.wav	1	1	blb_dichoticlistening_ba-ba.mp3	ba	ba	0	left
6.6.1	mac	2023-06-27	16:52:35	17:12:07	1168197	597e1b3f9d51240001f1f71d	2	1	practice_slash	26	practice_slash	3	stimuli_target_rectanglediamonds.svg	stimuli_distractor_trianglediamonds.svg	4	yes	53	1	415	6	3	antiphase_hc_soi.wav	1	6	1	noise_calib_stim_LEFT.wav	1	1	blb_dichoticlistening_ba-ba.mp3	ba	ba	0	left
6.6.1	mac	2023-06-27	16:52:35	17:12:07	1168197	597e1b3f9d51240001f1f71d	2	1	practice_slash	26	advance_on_keypress_SLASH	4	stimuli_target_rectanglediamonds.svg	stimuli_distractor_trianglediamonds.svg	4	yes	57	0	505	6	3	antiphase_hc_soi.wav	1	6	1	noise_calib_stim_LEFT.wav	1	1	blb_dichoticlistening_ba-ba.mp3	ba	ba	0	left
6.6.1	mac	2023-06-27	16:52:35	17:12:10	1170840	597e1b3f9d51240001f1f71d	2	1	practice_slash	26	practice_slash	5	stimuli_distractor_diamondtriangles.svg	stimuli_target_trianglerectangles.svg	9	yes	53	1	493	6	3	antiphase_hc_soi.wav	1	6	1	noise_calib_stim_LEFT.wav	1	1	blb_dichoticlistening_ba-ba.mp3	ba	ba	0	left
6.6.1	mac	2023-06-27	16:52:35	17:12:10	1170840	597e1b3f9d51240001f1f71d	2	1	practice_slash	26	advance_on_keypress_SLASH	6	stimuli_distractor_diamondtriangles.svg	stimuli_target_trianglerectangles.svg	9	yes	57	0	599	6	3	antiphase_hc_soi.wav	1	6	1	noise_calib_stim_LEFT.wav	1	1	blb_dichoticlistening_ba-ba.mp3	ba	ba	0	left
6.6.1	mac	2023-06-27	16:52:35	17:12:12	1173589	597e1b3f9d51240001f1f71d	2	1	practice_slash	26	practice_slash	7	stimuli_target_diamondsquares.svg	stimuli_distractor_trianglediamonds.svg	6	yes	53	1	496	6	3	antiphase_hc_soi.wav	1	6	1	noise_calib_stim_LEFT.wav	1	1	blb_dichoticlistening_ba-ba.mp3	ba	ba	0	left
6.6.1	mac	2023-06-27	16:52:35	17:12:12	1173589	597e1b3f9d51240001f1f71d	2	1	practice_slash	26	advance_on_keypress_SLASH	8	stimuli_target_diamondsquares.svg	stimuli_distractor_trianglediamonds.svg	6	yes	57	0	563	6	3	antiphase_hc_soi.wav	1	6	1	noise_calib_stim_LEFT.wav	1	1	blb_dichoticlistening_ba-ba.mp3	ba	ba	0	left
6.6.1	mac	2023-06-27	16:52:35	17:12:15	1176276	597e1b3f9d51240001f1f71d	2	1	practice_slash	26	practice_slash	9	stimuli_target_squarediamonds.svg	stimuli_distractor_trianglediamonds.svg	5	yes	53	1	480	6	3	antiphase_hc_soi.wav	1	6	1	noise_calib_stim_LEFT.wav	1	1	blb_dichoticlistening_ba-ba.mp3	ba	ba	0	left
6.6.1	mac	2023-06-27	16:52:35	17:12:15	1176276	597e1b3f9d51240001f1f71d	2	1	practice_slash	26	advance_on_keypress_SLASH	10	stimuli_target_squarediamonds.svg	stimuli_distractor_trianglediamonds.svg	5	yes	57	0	490	6	3	antiphase_hc_soi.wav	1	6	1	noise_calib_stim_LEFT.wav	1	1	blb_dichoticlistening_ba-ba.mp3	ba	ba	0	left
6.6.1	mac	2023-06-27	16:52:35	17:12:18	1178978	597e1b3f9d51240001f1f71d	2	1	practice_slash	26	practice_slash	11	stimuli_target_diamondsquares.svg	stimuli_distractor_diamondtriangles.svg	3	yes	53	1	568	6	3	antiphase_hc_soi.wav	1	6	1	noise_calib_stim_LEFT.wav	1	1	blb_dichoticlistening_ba-ba.mp3	ba	ba	0	left
6.6.1	mac	2023-06-27	16:52:35	17:12:18	1178978	597e1b3f9d51240001f1f71d	2	1	practice_slash	26	advance_on_keypress_SLASH	12	stimuli_target_diamondsquares.svg	stimuli_distractor_diamondtriangles.svg	3	yes	57	0	638	6	3	antiphase_hc_soi.wav	1	6	1	noise_calib_stim_LEFT.wav	1	1	blb_dichoticlistening_ba-ba.mp3	ba	ba	0	left
6.6.1	mac	2023-06-27	16:52:35	17:12:21	1181863	597e1b3f9d51240001f1f71d	2	1	practice_slash	26	practice_slash	13	stimuli_distractor_trianglediamonds.svg	stimuli_distractor_trianglediamonds.svg	15	no	53	0	606	6	3	antiphase_hc_soi.wav	1	6	1	noise_calib_stim_LEFT.wav	1	1	blb_dichoticlistening_ba-ba.mp3	ba	ba	0	left
6.6.1	mac	2023-06-27	16:52:35	17:12:21	1181863	597e1b3f9d51240001f1f71d	2	1	practice_slash	26	advance_on_keypress_SLASH	14	stimuli_distractor_trianglediamonds.svg	stimuli_distractor_trianglediamonds.svg	15	no	57	0	505	6	3	antiphase_hc_soi.wav	1	6	1	noise_calib_stim_LEFT.wav	1	1	blb_dichoticlistening_ba-ba.mp3	ba	ba	0	left
6.6.1	mac	2023-06-27	16:52:35	17:12:24	1185261	597e1b3f9d51240001f1f71d	2	1	practice_slash	26	practice_slash	15	stimuli_distractor_trianglediamonds.svg	stimuli_target_diamondrectangles.svg	12	yes	53	1	1249	6	3	antiphase_hc_soi.wav	1	6	1	noise_calib_stim_LEFT.wav	1	1	blb_dichoticlistening_ba-ba.mp3	ba	ba	0	left
6.6.1	mac	2023-06-27	16:52:35	17:12:24	1185261	597e1b3f9d51240001f1f71d	2	1	practice_slash	26	advance_on_keypress_SLASH	16	stimuli_distractor_trianglediamonds.svg	stimuli_target_diamondrectangles.svg	12	yes	57	0	575	6	3	antiphase_hc_soi.wav	1	6	1	noise_calib_stim_LEFT.wav	1	1	blb_dichoticlistening_ba-ba.mp3	ba	ba	0	left
6.6.1	mac	2023-06-27	16:52:35	17:12:28	1189479	597e1b3f9d51240001f1f71d	2	1	practice_slash	26	practice_slash	17	stimuli_distractor_trianglediamonds.svg	stimuli_distractor_diamondtriangles.svg	16	no	0	1	2000	6	3	antiphase_hc_soi.wav	1	6	1	noise_calib_stim_LEFT.wav	1	1	blb_dichoticlistening_ba-ba.mp3	ba	ba	0	left
6.6.1	mac	2023-06-27	16:52:35	17:12:28	1189479	597e1b3f9d51240001f1f71d	2	1	practice_slash	26	advance_on_keypress_SLASH	18	stimuli_distractor_trianglediamonds.svg	stimuli_distractor_diamondtriangles.svg	16	no	57	0	363	6	3	antiphase_hc_soi.wav	1	6	1	noise_calib_stim_LEFT.wav	1	1	blb_dichoticlistening_ba-ba.mp3	ba	ba	0	left
6.6.1	mac	2023-06-27	16:52:35	17:12:32	1193479	597e1b3f9d51240001f1f71d	2	1	practice_slash	26	practice_slash	19	stimuli_distractor_diamondtriangles.svg	stimuli_distractor_diamondtriangles.svg	13	no	0	1	2000	6	3	antiphase_hc_soi.wav	1	6	1	noise_calib_stim_LEFT.wav	1	1	blb_dichoticlistening_ba-ba.mp3	ba	ba	0	left
6.6.1	mac	2023-06-27	16:52:35	17:12:32	1193479	597e1b3f9d51240001f1f71d	2	1	practice_slash	26	advance_on_keypress_SLASH	20	stimuli_distractor_diamondtriangles.svg	stimuli_distractor_diamondtriangles.svg	13	no	57	0	484	6	3	antiphase_hc_soi.wav	1	6	1	noise_calib_stim_LEFT.wav	1	1	blb_dichoticlistening_ba-ba.mp3	ba	ba	0	left
