build	computer.platform	date	time	timestamp	time_elapsed_ms	subject	group	session	blockcode	blocknum	trialcode	trialnum	stimulus_left	stimulus_right	stim_index	target_present	response	correct	latency	headphonecheck_countTestTrials	headphonecheck_index	headphonecheck_testSound	headphonecheck_correctResponse	stereocheck_countTestTrials	stereocheck_index	stereocheck_testSound	stereocheck_correctResponse	DL_index	DL_soundfile	DL_leftSound	DL_rightSound	DL_dualSound	DL_choice
6.6.1	and	2023-07-07	08:03:10	08:09:29	352558	641360c2d049750e77c9a34a	3	1	practice_slash	5	practice_slash	1	stimuli_distractor_diamondtriangles.svg	stimuli_target_rectangletriangles.svg	7	yes	0	0	2000	0	0			0	0			1				0	
6.6.1	and	2023-07-07	08:03:10	08:09:29	352558	641360c2d049750e77c9a34a	3	1	practice_slash	5	advance_on_keypress_SLASH	2	stimuli_distractor_diamondtriangles.svg	stimuli_target_rectangletriangles.svg	7	yes	57	0	1017	0	0			0	0			1				0	
6.6.1	and	2023-07-07	08:03:10	08:09:34	357249	641360c2d049750e77c9a34a	3	1	practice_slash	5	practice_slash	3	stimuli_distractor_diamondtriangles.svg	stimuli_distractor_trianglediamonds.svg	14	no	0	1	2000	0	0			0	0			1				0	
6.6.1	and	2023-07-07	08:03:10	08:09:34	357249	641360c2d049750e77c9a34a	3	1	practice_slash	5	advance_on_keypress_SLASH	4	stimuli_distractor_diamondtriangles.svg	stimuli_distractor_trianglediamonds.svg	14	no	57	0	1141	0	0			0	0			1				0	
6.6.1	and	2023-07-07	08:03:10	08:09:39	362086	641360c2d049750e77c9a34a	3	1	practice_slash	5	practice_slash	5	stimuli_distractor_diamondtriangles.svg	stimuli_target_trianglerectangles.svg	9	yes	0	0	2000	0	0			0	0			1				0	
6.6.1	and	2023-07-07	08:03:10	08:09:39	362086	641360c2d049750e77c9a34a	3	1	practice_slash	5	advance_on_keypress_SLASH	6	stimuli_distractor_diamondtriangles.svg	stimuli_target_trianglerectangles.svg	9	yes	57	0	1608	0	0			0	0			1				0	
6.6.1	and	2023-07-07	08:03:10	08:09:43	365855	641360c2d049750e77c9a34a	3	1	practice_slash	5	practice_slash	7	stimuli_target_squarediamonds.svg	stimuli_distractor_diamondtriangles.svg	2	yes	53	1	475	0	0			0	0			1				0	
6.6.1	and	2023-07-07	08:03:10	08:09:43	365855	641360c2d049750e77c9a34a	3	1	practice_slash	5	advance_on_keypress_SLASH	8	stimuli_target_squarediamonds.svg	stimuli_distractor_diamondtriangles.svg	2	yes	57	0	1217	0	0			0	0			1				0	
6.6.1	and	2023-07-07	08:03:10	08:09:46	369201	641360c2d049750e77c9a34a	3	1	practice_slash	5	practice_slash	9	stimuli_distractor_trianglediamonds.svg	stimuli_target_rectanglediamonds.svg	10	yes	53	1	450	0	0			0	0			1				0	
6.6.1	and	2023-07-07	08:03:10	08:09:46	369201	641360c2d049750e77c9a34a	3	1	practice_slash	5	advance_on_keypress_SLASH	10	stimuli_distractor_trianglediamonds.svg	stimuli_target_rectanglediamonds.svg	10	yes	57	0	2054	0	0			0	0			1				0	
6.6.1	and	2023-07-07	08:03:10	08:09:50	373421	641360c2d049750e77c9a34a	3	1	practice_slash	5	practice_slash	11	stimuli_target_rectanglediamonds.svg	stimuli_distractor_diamondtriangles.svg	1	yes	53	1	474	0	0			0	0			1				0	
6.6.1	and	2023-07-07	08:03:10	08:09:50	373421	641360c2d049750e77c9a34a	3	1	practice_slash	5	advance_on_keypress_SLASH	12	stimuli_target_rectanglediamonds.svg	stimuli_distractor_diamondtriangles.svg	1	yes	57	0	828	0	0			0	0			1				0	
6.6.1	and	2023-07-07	08:03:10	08:09:53	376362	641360c2d049750e77c9a34a	3	1	practice_slash	5	practice_slash	13	stimuli_target_rectanglediamonds.svg	stimuli_distractor_trianglediamonds.svg	4	yes	53	1	428	0	0			0	0			1				0	
6.6.1	and	2023-07-07	08:03:10	08:09:53	376362	641360c2d049750e77c9a34a	3	1	practice_slash	5	advance_on_keypress_SLASH	14	stimuli_target_rectanglediamonds.svg	stimuli_distractor_trianglediamonds.svg	4	yes	57	0	879	0	0			0	0			1				0	
6.6.1	and	2023-07-07	08:03:10	08:09:58	380936	641360c2d049750e77c9a34a	3	1	practice_slash	5	practice_slash	15	stimuli_target_diamondsquares.svg	stimuli_distractor_trianglediamonds.svg	6	yes	0	0	2000	0	0			0	0			1				0	
6.6.1	and	2023-07-07	08:03:10	08:09:58	380936	641360c2d049750e77c9a34a	3	1	practice_slash	5	advance_on_keypress_SLASH	16	stimuli_target_diamondsquares.svg	stimuli_distractor_trianglediamonds.svg	6	yes	57	0	1167	0	0			0	0			1				0	
6.6.1	and	2023-07-07	08:03:10	08:10:01	384298	641360c2d049750e77c9a34a	3	1	practice_slash	5	practice_slash	17	stimuli_distractor_trianglediamonds.svg	stimuli_target_squarediamonds.svg	11	yes	53	1	512	0	0			0	0			1				0	
6.6.1	and	2023-07-07	08:03:10	08:10:01	384298	641360c2d049750e77c9a34a	3	1	practice_slash	5	advance_on_keypress_SLASH	18	stimuli_distractor_trianglediamonds.svg	stimuli_target_squarediamonds.svg	11	yes	57	0	703	0	0			0	0			1				0	
6.6.1	and	2023-07-07	08:03:10	08:10:04	387587	641360c2d049750e77c9a34a	3	1	practice_slash	5	practice_slash	19	stimuli_distractor_diamondtriangles.svg	stimuli_distractor_diamondtriangles.svg	13	no	53	0	895	0	0			0	0			1				0	
6.6.1	and	2023-07-07	08:03:10	08:10:04	387587	641360c2d049750e77c9a34a	3	1	practice_slash	5	advance_on_keypress_SLASH	20	stimuli_distractor_diamondtriangles.svg	stimuli_distractor_diamondtriangles.svg	13	no	57	0	582	0	0			0	0			1				0	
6.6.1	and	2023-07-07	08:03:10	08:10:07	390583	641360c2d049750e77c9a34a	3	1	practice_slash	5	practice_slash	21	stimuli_distractor_trianglediamonds.svg	stimuli_distractor_diamondtriangles.svg	16	no	53	0	725	0	0			0	0			1				0	
6.6.1	and	2023-07-07	08:03:10	08:10:07	390583	641360c2d049750e77c9a34a	3	1	practice_slash	5	advance_on_keypress_SLASH	22	stimuli_distractor_trianglediamonds.svg	stimuli_distractor_diamondtriangles.svg	16	no	57	0	629	0	0			0	0			1				0	
6.6.1	and	2023-07-07	08:03:10	08:10:12	394906	641360c2d049750e77c9a34a	3	1	practice_slash	5	practice_slash	23	stimuli_distractor_diamondtriangles.svg	stimuli_target_diamondrectangles.svg	8	yes	0	0	2000	0	0			0	0			1				0	
6.6.1	and	2023-07-07	08:03:10	08:10:12	394906	641360c2d049750e77c9a34a	3	1	practice_slash	5	advance_on_keypress_SLASH	24	stimuli_distractor_diamondtriangles.svg	stimuli_target_diamondrectangles.svg	8	yes	57	0	491	0	0			0	0			1				0	
6.6.1	and	2023-07-07	08:03:10	08:10:15	397801	641360c2d049750e77c9a34a	3	1	practice_slash	5	practice_slash	25	stimuli_distractor_trianglediamonds.svg	stimuli_target_diamondrectangles.svg	12	yes	53	1	716	0	0			0	0			1				0	
6.6.1	and	2023-07-07	08:03:10	08:10:15	397801	641360c2d049750e77c9a34a	3	1	practice_slash	5	advance_on_keypress_SLASH	26	stimuli_distractor_trianglediamonds.svg	stimuli_target_diamondrectangles.svg	12	yes	57	0	637	0	0			0	0			1				0	
6.6.1	and	2023-07-07	08:03:10	08:10:17	400758	641360c2d049750e77c9a34a	3	1	practice_slash	5	practice_slash	27	stimuli_target_squarediamonds.svg	stimuli_distractor_trianglediamonds.svg	5	yes	53	1	612	0	0			0	0			1				0	
6.6.1	and	2023-07-07	08:03:10	08:10:17	400758	641360c2d049750e77c9a34a	3	1	practice_slash	5	advance_on_keypress_SLASH	28	stimuli_target_squarediamonds.svg	stimuli_distractor_trianglediamonds.svg	5	yes	57	0	872	0	0			0	0			1				0	
6.6.1	and	2023-07-07	08:03:10	08:10:21	404017	641360c2d049750e77c9a34a	3	1	practice_slash	5	practice_slash	29	stimuli_target_diamondsquares.svg	stimuli_distractor_diamondtriangles.svg	3	yes	53	1	695	0	0			0	0			1				0	
6.6.1	and	2023-07-07	08:03:10	08:10:21	404017	641360c2d049750e77c9a34a	3	1	practice_slash	5	advance_on_keypress_SLASH	30	stimuli_target_diamondsquares.svg	stimuli_distractor_diamondtriangles.svg	3	yes	57	0	557	0	0			0	0			1				0	
6.6.1	and	2023-07-07	08:03:10	08:10:24	406954	641360c2d049750e77c9a34a	3	1	practice_slash	5	practice_slash	31	stimuli_distractor_trianglediamonds.svg	stimuli_distractor_trianglediamonds.svg	15	no	53	0	690	0	0			0	0			1				0	
6.6.1	and	2023-07-07	08:03:10	08:10:24	406954	641360c2d049750e77c9a34a	3	1	practice_slash	5	advance_on_keypress_SLASH	32	stimuli_distractor_trianglediamonds.svg	stimuli_distractor_trianglediamonds.svg	15	no	57	0	629	0	0			0	0			1				0	
6.6.1	and	2023-07-07	08:03:10	08:10:35	418251	641360c2d049750e77c9a34a	3	1	main_slash	7	main_slash	1	stimuli_target_diamondsquares.svg	stimuli_distractor_trianglediamonds.svg	20	yes	0	0	2000	0	0			0	0			1				0	
6.6.1	and	2023-07-07	08:03:10	08:10:35	418251	641360c2d049750e77c9a34a	3	1	main_slash	7	advance_on_keypress_SLASH	2	stimuli_target_diamondsquares.svg	stimuli_distractor_trianglediamonds.svg	20	yes	57	0	595	0	0			0	0			1				0	
6.6.1	and	2023-07-07	08:03:10	08:10:37	420129	641360c2d049750e77c9a34a	3	1	main_slash	7	main_slash	3	stimuli_distractor_trianglediamonds.svg	stimuli_target_trianglesquares.svg	26	yes	53	1	607	0	0			0	0			1				0	
6.6.1	and	2023-07-07	08:03:10	08:10:37	420129	641360c2d049750e77c9a34a	3	1	main_slash	7	advance_on_keypress_SLASH	4	stimuli_distractor_trianglediamonds.svg	stimuli_target_trianglesquares.svg	26	yes	57	0	963	0	0			0	0			1				0	
6.6.1	and	2023-07-07	08:03:10	08:10:39	422198	641360c2d049750e77c9a34a	3	1	main_slash	7	main_slash	5	stimuli_target_rectanglediamonds.svg	stimuli_distractor_diamondtriangles.svg	6	yes	53	1	425	0	0			0	0			1				0	
6.6.1	and	2023-07-07	08:03:10	08:10:39	422198	641360c2d049750e77c9a34a	3	1	main_slash	7	advance_on_keypress_SLASH	6	stimuli_target_rectanglediamonds.svg	stimuli_distractor_diamondtriangles.svg	6	yes	57	0	674	0	0			0	0			1				0	
6.6.1	and	2023-07-07	08:03:10	08:10:41	424223	641360c2d049750e77c9a34a	3	1	main_slash	7	main_slash	7	stimuli_target_diamondrectangles.svg	stimuli_distractor_trianglediamonds.svg	19	yes	53	1	657	0	0			0	0			1				0	
6.6.1	and	2023-07-07	08:03:10	08:10:41	424223	641360c2d049750e77c9a34a	3	1	main_slash	7	advance_on_keypress_SLASH	8	stimuli_target_diamondrectangles.svg	stimuli_distractor_trianglediamonds.svg	19	yes	57	0	728	0	0			0	0			1				0	
6.6.1	and	2023-07-07	08:03:10	08:10:43	426153	641360c2d049750e77c9a34a	3	1	main_slash	7	main_slash	9	stimuli_target_rectanglediamonds.svg	stimuli_distractor_trianglediamonds.svg	2	yes	53	1	530	0	0			0	0			1				0	
6.6.1	and	2023-07-07	08:03:10	08:10:43	426153	641360c2d049750e77c9a34a	3	1	main_slash	7	advance_on_keypress_SLASH	10	stimuli_target_rectanglediamonds.svg	stimuli_distractor_trianglediamonds.svg	2	yes	57	0	747	0	0			0	0			1				0	
6.6.1	and	2023-07-07	08:03:10	08:10:45	428088	641360c2d049750e77c9a34a	3	1	main_slash	7	main_slash	11	stimuli_target_rectangletriangles.svg	stimuli_distractor_trianglediamonds.svg	1	yes	53	1	516	0	0			0	0			1				0	
6.6.1	and	2023-07-07	08:03:10	08:10:45	428088	641360c2d049750e77c9a34a	3	1	main_slash	7	advance_on_keypress_SLASH	12	stimuli_target_rectangletriangles.svg	stimuli_distractor_trianglediamonds.svg	1	yes	57	0	975	0	0			0	0			1				0	
6.6.1	and	2023-07-07	08:03:10	08:10:47	430456	641360c2d049750e77c9a34a	3	1	main_slash	7	main_slash	13	stimuli_distractor_diamondtriangles.svg	stimuli_distractor_diamondtriangles.svg	40	no	53	0	693	0	0			0	0			1				0	
6.6.1	and	2023-07-07	08:03:10	08:10:47	430456	641360c2d049750e77c9a34a	3	1	main_slash	7	advance_on_keypress_SLASH	14	stimuli_distractor_diamondtriangles.svg	stimuli_distractor_diamondtriangles.svg	40	no	57	0	624	0	0			0	0			1				0	
6.6.1	and	2023-07-07	08:03:10	08:10:51	433764	641360c2d049750e77c9a34a	3	1	main_slash	7	main_slash	15	stimuli_distractor_trianglediamonds.svg	stimuli_target_diamondrectangles.svg	27	yes	0	0	2000	0	0			0	0			1				0	
6.6.1	and	2023-07-07	08:03:10	08:10:51	433764	641360c2d049750e77c9a34a	3	1	main_slash	7	advance_on_keypress_SLASH	16	stimuli_distractor_trianglediamonds.svg	stimuli_target_diamondrectangles.svg	27	yes	57	0	484	0	0			0	0			1				0	
6.6.1	and	2023-07-07	08:03:10	08:10:54	436950	641360c2d049750e77c9a34a	3	1	main_slash	7	main_slash	17	stimuli_distractor_diamondtriangles.svg	stimuli_target_trianglesquares.svg	30	yes	0	0	2000	0	0			0	0			1				0	
6.6.1	and	2023-07-07	08:03:10	08:10:54	436950	641360c2d049750e77c9a34a	3	1	main_slash	7	advance_on_keypress_SLASH	18	stimuli_distractor_diamondtriangles.svg	stimuli_target_trianglesquares.svg	30	yes	57	0	391	0	0			0	0			1				0	
6.6.1	and	2023-07-07	08:03:10	08:10:57	440024	641360c2d049750e77c9a34a	3	1	main_slash	7	main_slash	19	stimuli_distractor_diamondtriangles.svg	stimuli_target_trianglerectangles.svg	29	yes	0	0	2000	0	0			0	0			1				0	
6.6.1	and	2023-07-07	08:03:10	08:10:57	440024	641360c2d049750e77c9a34a	3	1	main_slash	7	advance_on_keypress_SLASH	20	stimuli_distractor_diamondtriangles.svg	stimuli_target_trianglerectangles.svg	29	yes	57	0	422	0	0			0	0			1				0	
6.6.1	and	2023-07-07	08:03:10	08:10:58	441661	641360c2d049750e77c9a34a	3	1	main_slash	7	main_slash	21	stimuli_target_squaretriangles.svg	stimuli_distractor_diamondtriangles.svg	7	yes	53	1	532	0	0			0	0			1				0	
6.6.1	and	2023-07-07	08:03:10	08:10:58	441661	641360c2d049750e77c9a34a	3	1	main_slash	7	advance_on_keypress_SLASH	22	stimuli_target_squaretriangles.svg	stimuli_distractor_diamondtriangles.svg	7	yes	57	0	769	0	0			0	0			1				0	
6.6.1	and	2023-07-07	08:03:10	08:11:01	443843	641360c2d049750e77c9a34a	3	1	main_slash	7	main_slash	23	stimuli_target_trianglerectangles.svg	stimuli_distractor_diamondtriangles.svg	21	yes	53	1	729	0	0			0	0			1				0	
6.6.1	and	2023-07-07	08:03:10	08:11:01	443843	641360c2d049750e77c9a34a	3	1	main_slash	7	advance_on_keypress_SLASH	24	stimuli_target_trianglerectangles.svg	stimuli_distractor_diamondtriangles.svg	21	yes	57	0	809	0	0			0	0			1				0	
6.6.1	and	2023-07-07	08:03:10	08:11:02	445690	641360c2d049750e77c9a34a	3	1	main_slash	7	main_slash	25	stimuli_target_rectangletriangles.svg	stimuli_distractor_diamondtriangles.svg	5	yes	53	1	358	0	0			0	0			1				0	
6.6.1	and	2023-07-07	08:03:10	08:11:02	445690	641360c2d049750e77c9a34a	3	1	main_slash	7	advance_on_keypress_SLASH	26	stimuli_target_rectangletriangles.svg	stimuli_distractor_diamondtriangles.svg	5	yes	57	0	712	0	0			0	0			1				0	
6.6.1	and	2023-07-07	08:03:10	08:11:04	447496	641360c2d049750e77c9a34a	3	1	main_slash	7	main_slash	27	stimuli_target_trianglesquares.svg	stimuli_distractor_trianglediamonds.svg	18	yes	53	1	406	0	0			0	0			1				0	
6.6.1	and	2023-07-07	08:03:10	08:11:04	447496	641360c2d049750e77c9a34a	3	1	main_slash	7	advance_on_keypress_SLASH	28	stimuli_target_trianglesquares.svg	stimuli_distractor_trianglediamonds.svg	18	yes	57	0	585	0	0			0	0			1				0	
6.6.1	and	2023-07-07	08:03:10	08:11:08	450782	641360c2d049750e77c9a34a	3	1	main_slash	7	main_slash	29	stimuli_distractor_trianglediamonds.svg	stimuli_distractor_diamondtriangles.svg	36	no	0	1	2000	0	0			0	0			1				0	
6.6.1	and	2023-07-07	08:03:10	08:11:08	450782	641360c2d049750e77c9a34a	3	1	main_slash	7	advance_on_keypress_SLASH	30	stimuli_distractor_trianglediamonds.svg	stimuli_distractor_diamondtriangles.svg	36	no	57	0	753	0	0			0	0			1				0	
6.6.1	and	2023-07-07	08:03:10	08:11:11	454231	641360c2d049750e77c9a34a	3	1	main_slash	7	main_slash	31	stimuli_distractor_trianglediamonds.svg	stimuli_target_diamondsquares.svg	28	yes	0	0	2000	0	0			0	0			1				0	
6.6.1	and	2023-07-07	08:03:10	08:11:11	454231	641360c2d049750e77c9a34a	3	1	main_slash	7	advance_on_keypress_SLASH	32	stimuli_distractor_trianglediamonds.svg	stimuli_target_diamondsquares.svg	28	yes	57	0	345	0	0			0	0			1				0	
6.6.1	and	2023-07-07	08:03:10	08:11:14	457256	641360c2d049750e77c9a34a	3	1	main_slash	7	main_slash	33	stimuli_target_diamondrectangles.svg	stimuli_distractor_diamondtriangles.svg	23	yes	0	0	2000	0	0			0	0			1				0	
6.6.1	and	2023-07-07	08:03:10	08:11:14	457256	641360c2d049750e77c9a34a	3	1	main_slash	7	advance_on_keypress_SLASH	34	stimuli_target_diamondrectangles.svg	stimuli_distractor_diamondtriangles.svg	23	yes	57	0	782	0	0			0	0			1				0	
6.6.1	and	2023-07-07	08:03:10	08:11:16	459053	641360c2d049750e77c9a34a	3	1	main_slash	7	main_slash	35	stimuli_distractor_trianglediamonds.svg	stimuli_target_rectanglediamonds.svg	10	yes	53	1	336	0	0			0	0			1				0	
6.6.1	and	2023-07-07	08:03:10	08:11:16	459053	641360c2d049750e77c9a34a	3	1	main_slash	7	advance_on_keypress_SLASH	36	stimuli_distractor_trianglediamonds.svg	stimuli_target_rectanglediamonds.svg	10	yes	57	0	741	0	0			0	0			1				0	
6.6.1	and	2023-07-07	08:03:10	08:11:18	461148	641360c2d049750e77c9a34a	3	1	main_slash	7	main_slash	37	stimuli_distractor_trianglediamonds.svg	stimuli_distractor_diamondtriangles.svg	35	no	53	0	665	0	0			0	0			1				0	
6.6.1	and	2023-07-07	08:03:10	08:11:18	461148	641360c2d049750e77c9a34a	3	1	main_slash	7	advance_on_keypress_SLASH	38	stimuli_distractor_trianglediamonds.svg	stimuli_distractor_diamondtriangles.svg	35	no	57	0	863	0	0			0	0			1				0	
6.6.1	and	2023-07-07	08:03:10	08:11:20	463147	641360c2d049750e77c9a34a	3	1	main_slash	7	main_slash	39	stimuli_distractor_trianglediamonds.svg	stimuli_target_rectangletriangles.svg	9	yes	53	1	451	0	0			0	0			1				0	
6.6.1	and	2023-07-07	08:03:10	08:11:20	463147	641360c2d049750e77c9a34a	3	1	main_slash	7	advance_on_keypress_SLASH	40	stimuli_distractor_trianglediamonds.svg	stimuli_target_rectangletriangles.svg	9	yes	57	0	744	0	0			0	0			1				0	
6.6.1	and	2023-07-07	08:03:10	08:11:22	465264	641360c2d049750e77c9a34a	3	1	main_slash	7	main_slash	41	stimuli_target_squaretriangles.svg	stimuli_distractor_trianglediamonds.svg	3	yes	53	1	693	0	0			0	0			1				0	
6.6.1	and	2023-07-07	08:03:10	08:11:22	465264	641360c2d049750e77c9a34a	3	1	main_slash	7	advance_on_keypress_SLASH	42	stimuli_target_squaretriangles.svg	stimuli_distractor_trianglediamonds.svg	3	yes	57	0	1376	0	0			0	0			1				0	
6.6.1	and	2023-07-07	08:03:10	08:11:24	467666	641360c2d049750e77c9a34a	3	1	main_slash	7	main_slash	43	stimuli_distractor_diamondtriangles.svg	stimuli_distractor_trianglediamonds.svg	37	no	53	0	338	0	0			0	0			1				0	
6.6.1	and	2023-07-07	08:03:10	08:11:24	467666	641360c2d049750e77c9a34a	3	1	main_slash	7	advance_on_keypress_SLASH	44	stimuli_distractor_diamondtriangles.svg	stimuli_distractor_trianglediamonds.svg	37	no	57	0	998	0	0			0	0			1				0	
6.6.1	and	2023-07-07	08:03:10	08:11:26	469740	641360c2d049750e77c9a34a	3	1	main_slash	7	main_slash	45	stimuli_target_squarediamonds.svg	stimuli_distractor_diamondtriangles.svg	8	yes	53	1	405	0	0			0	0			1				0	
6.6.1	and	2023-07-07	08:03:10	08:11:26	469740	641360c2d049750e77c9a34a	3	1	main_slash	7	advance_on_keypress_SLASH	46	stimuli_target_squarediamonds.svg	stimuli_distractor_diamondtriangles.svg	8	yes	57	0	711	0	0			0	0			1				0	
6.6.1	and	2023-07-07	08:03:10	08:11:28	471565	641360c2d049750e77c9a34a	3	1	main_slash	7	main_slash	47	stimuli_distractor_trianglediamonds.svg	stimuli_target_squaretriangles.svg	11	yes	53	1	429	0	0			0	0			1				0	
6.6.1	and	2023-07-07	08:03:10	08:11:28	471565	641360c2d049750e77c9a34a	3	1	main_slash	7	advance_on_keypress_SLASH	48	stimuli_distractor_trianglediamonds.svg	stimuli_target_squaretriangles.svg	11	yes	57	0	584	0	0			0	0			1				0	
6.6.1	and	2023-07-07	08:03:10	08:11:32	474840	641360c2d049750e77c9a34a	3	1	main_slash	7	main_slash	49	stimuli_distractor_trianglediamonds.svg	stimuli_distractor_trianglediamonds.svg	34	no	0	1	2000	0	0			0	0			1				0	
6.6.1	and	2023-07-07	08:03:10	08:11:32	474840	641360c2d049750e77c9a34a	3	1	main_slash	7	advance_on_keypress_SLASH	50	stimuli_distractor_trianglediamonds.svg	stimuli_distractor_trianglediamonds.svg	34	no	57	0	500	0	0			0	0			1				0	
6.6.1	and	2023-07-07	08:03:10	08:11:35	478035	641360c2d049750e77c9a34a	3	1	main_slash	7	main_slash	51	stimuli_distractor_diamondtriangles.svg	stimuli_target_diamondsquares.svg	32	yes	0	0	2000	0	0			0	0			1				0	
6.6.1	and	2023-07-07	08:03:10	08:11:35	478035	641360c2d049750e77c9a34a	3	1	main_slash	7	advance_on_keypress_SLASH	52	stimuli_distractor_diamondtriangles.svg	stimuli_target_diamondsquares.svg	32	yes	57	0	347	0	0			0	0			1				0	
6.6.1	and	2023-07-07	08:03:10	08:11:36	479395	641360c2d049750e77c9a34a	3	1	main_slash	7	main_slash	53	stimuli_distractor_diamondtriangles.svg	stimuli_target_squarediamonds.svg	16	yes	53	1	341	0	0			0	0			1				0	
6.6.1	and	2023-07-07	08:03:10	08:11:36	479395	641360c2d049750e77c9a34a	3	1	main_slash	7	advance_on_keypress_SLASH	54	stimuli_distractor_diamondtriangles.svg	stimuli_target_squarediamonds.svg	16	yes	57	0	668	0	0			0	0			1				0	
6.6.1	and	2023-07-07	08:03:10	08:11:39	482736	641360c2d049750e77c9a34a	3	1	main_slash	7	main_slash	55	stimuli_distractor_diamondtriangles.svg	stimuli_distractor_trianglediamonds.svg	38	no	0	1	2000	0	0			0	0			1				0	
6.6.1	and	2023-07-07	08:03:10	08:11:39	482736	641360c2d049750e77c9a34a	3	1	main_slash	7	advance_on_keypress_SLASH	56	stimuli_distractor_diamondtriangles.svg	stimuli_distractor_trianglediamonds.svg	38	no	57	0	719	0	0			0	0			1				0	
6.6.1	and	2023-07-07	08:03:10	08:11:42	484845	641360c2d049750e77c9a34a	3	1	main_slash	7	main_slash	57	stimuli_target_diamondsquares.svg	stimuli_distractor_diamondtriangles.svg	24	yes	53	1	678	0	0			0	0			1				0	
6.6.1	and	2023-07-07	08:03:10	08:11:42	484845	641360c2d049750e77c9a34a	3	1	main_slash	7	advance_on_keypress_SLASH	58	stimuli_target_diamondsquares.svg	stimuli_distractor_diamondtriangles.svg	24	yes	57	0	593	0	0			0	0			1				0	
6.6.1	and	2023-07-07	08:03:10	08:11:44	486794	641360c2d049750e77c9a34a	3	1	main_slash	7	main_slash	59	stimuli_distractor_diamondtriangles.svg	stimuli_target_diamondrectangles.svg	31	yes	53	1	680	0	0			0	0			1				0	
6.6.1	and	2023-07-07	08:03:10	08:11:44	486794	641360c2d049750e77c9a34a	3	1	main_slash	7	advance_on_keypress_SLASH	60	stimuli_distractor_diamondtriangles.svg	stimuli_target_diamondrectangles.svg	31	yes	57	0	628	0	0			0	0			1				0	
6.6.1	and	2023-07-07	08:03:10	08:11:47	490106	641360c2d049750e77c9a34a	3	1	main_slash	7	main_slash	61	stimuli_distractor_trianglediamonds.svg	stimuli_target_trianglerectangles.svg	25	yes	0	0	2000	0	0			0	0			1				0	
6.6.1	and	2023-07-07	08:03:10	08:11:47	490106	641360c2d049750e77c9a34a	3	1	main_slash	7	advance_on_keypress_SLASH	62	stimuli_distractor_trianglediamonds.svg	stimuli_target_trianglerectangles.svg	25	yes	57	0	715	0	0			0	0			1				0	
6.6.1	and	2023-07-07	08:03:10	08:11:49	492061	641360c2d049750e77c9a34a	3	1	main_slash	7	main_slash	63	stimuli_distractor_trianglediamonds.svg	stimuli_target_squarediamonds.svg	12	yes	53	1	567	0	0			0	0			1				0	
6.6.1	and	2023-07-07	08:03:10	08:11:49	492061	641360c2d049750e77c9a34a	3	1	main_slash	7	advance_on_keypress_SLASH	64	stimuli_distractor_trianglediamonds.svg	stimuli_target_squarediamonds.svg	12	yes	57	0	677	0	0			0	0			1				0	
6.6.1	and	2023-07-07	08:03:10	08:11:51	493946	641360c2d049750e77c9a34a	3	1	main_slash	7	main_slash	65	stimuli_target_squarediamonds.svg	stimuli_distractor_trianglediamonds.svg	4	yes	53	1	536	0	0			0	0			1				0	
6.6.1	and	2023-07-07	08:03:10	08:11:51	493946	641360c2d049750e77c9a34a	3	1	main_slash	7	advance_on_keypress_SLASH	66	stimuli_target_squarediamonds.svg	stimuli_distractor_trianglediamonds.svg	4	yes	57	0	709	0	0			0	0			1				0	
6.6.1	and	2023-07-07	08:03:10	08:11:54	497351	641360c2d049750e77c9a34a	3	1	main_slash	7	main_slash	67	stimuli_target_trianglesquares.svg	stimuli_distractor_diamondtriangles.svg	22	yes	0	0	2000	0	0			0	0			1				0	
6.6.1	and	2023-07-07	08:03:10	08:11:54	497351	641360c2d049750e77c9a34a	3	1	main_slash	7	advance_on_keypress_SLASH	68	stimuli_target_trianglesquares.svg	stimuli_distractor_diamondtriangles.svg	22	yes	57	0	426	0	0			0	0			1				0	
6.6.1	and	2023-07-07	08:03:10	08:11:56	498899	641360c2d049750e77c9a34a	3	1	main_slash	7	main_slash	69	stimuli_distractor_diamondtriangles.svg	stimuli_target_squaretriangles.svg	15	yes	53	1	440	0	0			0	0			1				0	
6.6.1	and	2023-07-07	08:03:10	08:11:56	498899	641360c2d049750e77c9a34a	3	1	main_slash	7	advance_on_keypress_SLASH	70	stimuli_distractor_diamondtriangles.svg	stimuli_target_squaretriangles.svg	15	yes	57	0	741	0	0			0	0			1				0	
6.6.1	and	2023-07-07	08:03:10	08:11:59	502331	641360c2d049750e77c9a34a	3	1	main_slash	7	main_slash	71	stimuli_target_trianglerectangles.svg	stimuli_distractor_trianglediamonds.svg	17	yes	0	0	2000	0	0			0	0			1				0	
6.6.1	and	2023-07-07	08:03:10	08:11:59	502331	641360c2d049750e77c9a34a	3	1	main_slash	7	advance_on_keypress_SLASH	72	stimuli_target_trianglerectangles.svg	stimuli_distractor_trianglediamonds.svg	17	yes	57	0	8026	0	0			0	0			1				0	
6.6.1	and	2023-07-07	08:03:10	08:12:08	511344	641360c2d049750e77c9a34a	3	1	main_slash	7	main_slash	73	stimuli_distractor_diamondtriangles.svg	stimuli_target_rectanglediamonds.svg	14	yes	53	1	313	0	0			0	0			1				0	
6.6.1	and	2023-07-07	08:03:10	08:12:08	511344	641360c2d049750e77c9a34a	3	1	main_slash	7	advance_on_keypress_SLASH	74	stimuli_distractor_diamondtriangles.svg	stimuli_target_rectanglediamonds.svg	14	yes	57	0	1484	0	0			0	0			1				0	
6.6.1	and	2023-07-07	08:03:10	08:12:11	513817	641360c2d049750e77c9a34a	3	1	main_slash	7	main_slash	75	stimuli_distractor_diamondtriangles.svg	stimuli_target_rectangletriangles.svg	13	yes	53	1	305	0	0			0	0			1				0	
6.6.1	and	2023-07-07	08:03:10	08:12:11	513817	641360c2d049750e77c9a34a	3	1	main_slash	7	advance_on_keypress_SLASH	76	stimuli_distractor_diamondtriangles.svg	stimuli_target_rectangletriangles.svg	13	yes	57	0	2044	0	0			0	0			1				0	
6.6.1	and	2023-07-07	08:03:10	08:12:15	518551	641360c2d049750e77c9a34a	3	1	main_slash	7	main_slash	77	stimuli_distractor_trianglediamonds.svg	stimuli_distractor_trianglediamonds.svg	33	no	0	1	2000	0	0			0	0			1				0	
6.6.1	and	2023-07-07	08:03:10	08:12:15	518551	641360c2d049750e77c9a34a	3	1	main_slash	7	advance_on_keypress_SLASH	78	stimuli_distractor_trianglediamonds.svg	stimuli_distractor_trianglediamonds.svg	33	no	57	0	599	0	0			0	0			1				0	
6.6.1	and	2023-07-07	08:03:10	08:12:17	520188	641360c2d049750e77c9a34a	3	1	main_slash	7	main_slash	79	stimuli_distractor_diamondtriangles.svg	stimuli_distractor_diamondtriangles.svg	39	no	53	0	365	0	0			0	0			1				0	
6.6.1	and	2023-07-07	08:03:10	08:12:17	520188	641360c2d049750e77c9a34a	3	1	main_slash	7	advance_on_keypress_SLASH	80	stimuli_distractor_diamondtriangles.svg	stimuli_distractor_diamondtriangles.svg	39	no	57	0	839	0	0			0	0			1				0	
6.6.1	and	2023-07-07	08:03:10	08:12:19	522032	641360c2d049750e77c9a34a	3	1	main_slash	7	main_slash	81	stimuli_target_squarediamonds.svg	stimuli_distractor_diamondtriangles.svg	8	yes	53	1	300	0	0			0	0			1				0	
6.6.1	and	2023-07-07	08:03:10	08:12:19	522032	641360c2d049750e77c9a34a	3	1	main_slash	7	advance_on_keypress_SLASH	82	stimuli_target_squarediamonds.svg	stimuli_distractor_diamondtriangles.svg	8	yes	57	0	674	0	0			0	0			1				0	
6.6.1	and	2023-07-07	08:03:10	08:12:22	525398	641360c2d049750e77c9a34a	3	1	main_slash	7	main_slash	83	stimuli_target_trianglerectangles.svg	stimuli_distractor_diamondtriangles.svg	21	yes	0	0	2000	0	0			0	0			1				0	
6.6.1	and	2023-07-07	08:03:10	08:12:22	525398	641360c2d049750e77c9a34a	3	1	main_slash	7	advance_on_keypress_SLASH	84	stimuli_target_trianglerectangles.svg	stimuli_distractor_diamondtriangles.svg	21	yes	57	0	729	0	0			0	0			1				0	
6.6.1	and	2023-07-07	08:03:10	08:12:24	527117	641360c2d049750e77c9a34a	3	1	main_slash	7	main_slash	85	stimuli_distractor_trianglediamonds.svg	stimuli_target_diamondrectangles.svg	27	yes	53	1	312	0	0			0	0			1				0	
6.6.1	and	2023-07-07	08:03:10	08:12:24	527117	641360c2d049750e77c9a34a	3	1	main_slash	7	advance_on_keypress_SLASH	86	stimuli_distractor_trianglediamonds.svg	stimuli_target_diamondrectangles.svg	27	yes	57	0	999	0	0			0	0			1				0	
6.6.1	and	2023-07-07	08:03:10	08:12:28	530810	641360c2d049750e77c9a34a	3	1	main_slash	7	main_slash	87	stimuli_target_diamondrectangles.svg	stimuli_distractor_diamondtriangles.svg	23	yes	0	0	2000	0	0			0	0			1				0	
6.6.1	and	2023-07-07	08:03:10	08:12:28	530810	641360c2d049750e77c9a34a	3	1	main_slash	7	advance_on_keypress_SLASH	88	stimuli_target_diamondrectangles.svg	stimuli_distractor_diamondtriangles.svg	23	yes	57	0	487	0	0			0	0			1				0	
6.6.1	and	2023-07-07	08:03:10	08:12:31	533984	641360c2d049750e77c9a34a	3	1	main_slash	7	main_slash	89	stimuli_distractor_trianglediamonds.svg	stimuli_target_trianglesquares.svg	26	yes	0	0	2000	0	0			0	0			1				0	
6.6.1	and	2023-07-07	08:03:10	08:12:31	533984	641360c2d049750e77c9a34a	3	1	main_slash	7	advance_on_keypress_SLASH	90	stimuli_distractor_trianglediamonds.svg	stimuli_target_trianglesquares.svg	26	yes	57	0	329	0	0			0	0			1				0	
6.6.1	and	2023-07-07	08:03:10	08:12:32	535382	641360c2d049750e77c9a34a	3	1	main_slash	7	main_slash	91	stimuli_distractor_diamondtriangles.svg	stimuli_target_rectangletriangles.svg	13	yes	53	1	385	0	0			0	0			1				0	
6.6.1	and	2023-07-07	08:03:10	08:12:32	535382	641360c2d049750e77c9a34a	3	1	main_slash	7	advance_on_keypress_SLASH	92	stimuli_distractor_diamondtriangles.svg	stimuli_target_rectangletriangles.svg	13	yes	57	0	564	0	0			0	0			1				0	
6.6.1	and	2023-07-07	08:03:10	08:12:34	537014	641360c2d049750e77c9a34a	3	1	main_slash	7	main_slash	93	stimuli_distractor_diamondtriangles.svg	stimuli_target_rectanglediamonds.svg	14	yes	53	1	376	0	0			0	0			1				0	
6.6.1	and	2023-07-07	08:03:10	08:12:34	537014	641360c2d049750e77c9a34a	3	1	main_slash	7	advance_on_keypress_SLASH	94	stimuli_distractor_diamondtriangles.svg	stimuli_target_rectanglediamonds.svg	14	yes	57	0	477	0	0			0	0			1				0	
6.6.1	and	2023-07-07	08:03:10	08:12:35	538598	641360c2d049750e77c9a34a	3	1	main_slash	7	main_slash	95	stimuli_distractor_trianglediamonds.svg	stimuli_target_squarediamonds.svg	12	yes	53	1	412	0	0			0	0			1				0	
6.6.1	and	2023-07-07	08:03:10	08:12:35	538598	641360c2d049750e77c9a34a	3	1	main_slash	7	advance_on_keypress_SLASH	96	stimuli_distractor_trianglediamonds.svg	stimuli_target_squarediamonds.svg	12	yes	57	0	411	0	0			0	0			1				0	
6.6.1	and	2023-07-07	08:03:10	08:12:37	540051	641360c2d049750e77c9a34a	3	1	main_slash	7	main_slash	97	stimuli_distractor_trianglediamonds.svg	stimuli_distractor_diamondtriangles.svg	36	no	53	0	355	0	0			0	0			1				0	
6.6.1	and	2023-07-07	08:03:10	08:12:37	540051	641360c2d049750e77c9a34a	3	1	main_slash	7	advance_on_keypress_SLASH	98	stimuli_distractor_trianglediamonds.svg	stimuli_distractor_diamondtriangles.svg	36	no	57	0	651	0	0			0	0			1				0	
6.6.1	and	2023-07-07	08:03:10	08:12:40	543374	641360c2d049750e77c9a34a	3	1	main_slash	7	main_slash	99	stimuli_distractor_trianglediamonds.svg	stimuli_target_trianglerectangles.svg	25	yes	0	0	2000	0	0			0	0			1				0	
6.6.1	and	2023-07-07	08:03:10	08:12:40	543374	641360c2d049750e77c9a34a	3	1	main_slash	7	advance_on_keypress_SLASH	100	stimuli_distractor_trianglediamonds.svg	stimuli_target_trianglerectangles.svg	25	yes	57	0	380	0	0			0	0			1				0	
6.6.1	and	2023-07-07	08:03:10	08:12:43	546462	641360c2d049750e77c9a34a	3	1	main_slash	7	main_slash	101	stimuli_target_trianglerectangles.svg	stimuli_distractor_trianglediamonds.svg	17	yes	0	0	2000	0	0			0	0			1				0	
6.6.1	and	2023-07-07	08:03:10	08:12:43	546462	641360c2d049750e77c9a34a	3	1	main_slash	7	advance_on_keypress_SLASH	102	stimuli_target_trianglerectangles.svg	stimuli_distractor_trianglediamonds.svg	17	yes	57	0	358	0	0			0	0			1				0	
6.6.1	and	2023-07-07	08:03:10	08:12:46	549501	641360c2d049750e77c9a34a	3	1	main_slash	7	main_slash	103	stimuli_distractor_diamondtriangles.svg	stimuli_distractor_diamondtriangles.svg	40	no	0	1	2000	0	0			0	0			1				0	
6.6.1	and	2023-07-07	08:03:10	08:12:46	549501	641360c2d049750e77c9a34a	3	1	main_slash	7	advance_on_keypress_SLASH	104	stimuli_distractor_diamondtriangles.svg	stimuli_distractor_diamondtriangles.svg	40	no	57	0	361	0	0			0	0			1				0	
6.6.1	and	2023-07-07	08:03:10	08:12:48	550947	641360c2d049750e77c9a34a	3	1	main_slash	7	main_slash	105	stimuli_distractor_diamondtriangles.svg	stimuli_target_squaretriangles.svg	15	yes	53	1	410	0	0			0	0			1				0	
6.6.1	and	2023-07-07	08:03:10	08:12:48	550947	641360c2d049750e77c9a34a	3	1	main_slash	7	advance_on_keypress_SLASH	106	stimuli_distractor_diamondtriangles.svg	stimuli_target_squaretriangles.svg	15	yes	57	0	510	0	0			0	0			1				0	
6.6.1	and	2023-07-07	08:03:10	08:12:51	554141	641360c2d049750e77c9a34a	3	1	main_slash	7	main_slash	107	stimuli_distractor_diamondtriangles.svg	stimuli_target_trianglesquares.svg	30	yes	0	0	2000	0	0			0	0			1				0	
6.6.1	and	2023-07-07	08:03:10	08:12:51	554141	641360c2d049750e77c9a34a	3	1	main_slash	7	advance_on_keypress_SLASH	108	stimuli_distractor_diamondtriangles.svg	stimuli_target_trianglesquares.svg	30	yes	57	0	467	0	0			0	0			1				0	
6.6.1	and	2023-07-07	08:03:10	08:12:52	555645	641360c2d049750e77c9a34a	3	1	main_slash	7	main_slash	109	stimuli_target_diamondsquares.svg	stimuli_distractor_diamondtriangles.svg	24	yes	53	1	338	0	0			0	0			1				0	
6.6.1	and	2023-07-07	08:03:10	08:12:52	555645	641360c2d049750e77c9a34a	3	1	main_slash	7	advance_on_keypress_SLASH	110	stimuli_target_diamondsquares.svg	stimuli_distractor_diamondtriangles.svg	24	yes	57	0	677	0	0			0	0			1				0	
6.6.1	and	2023-07-07	08:03:10	08:12:56	559005	641360c2d049750e77c9a34a	3	1	main_slash	7	main_slash	111	stimuli_distractor_trianglediamonds.svg	stimuli_distractor_trianglediamonds.svg	34	no	0	1	2000	0	0			0	0			1				0	
6.6.1	and	2023-07-07	08:03:10	08:12:56	559005	641360c2d049750e77c9a34a	3	1	main_slash	7	advance_on_keypress_SLASH	112	stimuli_distractor_trianglediamonds.svg	stimuli_distractor_trianglediamonds.svg	34	no	57	0	357	0	0			0	0			1				0	
6.6.1	and	2023-07-07	08:03:10	08:12:57	560506	641360c2d049750e77c9a34a	3	1	main_slash	7	main_slash	113	stimuli_target_rectanglediamonds.svg	stimuli_distractor_trianglediamonds.svg	2	yes	53	1	457	0	0			0	0			1				0	
6.6.1	and	2023-07-07	08:03:10	08:12:57	560506	641360c2d049750e77c9a34a	3	1	main_slash	7	advance_on_keypress_SLASH	114	stimuli_target_rectanglediamonds.svg	stimuli_distractor_trianglediamonds.svg	2	yes	57	0	440	0	0			0	0			1				0	
6.6.1	and	2023-07-07	08:03:10	08:13:00	563641	641360c2d049750e77c9a34a	3	1	main_slash	7	main_slash	115	stimuli_distractor_diamondtriangles.svg	stimuli_target_diamondsquares.svg	32	yes	0	0	2000	0	0			0	0			1				0	
6.6.1	and	2023-07-07	08:03:10	08:13:00	563641	641360c2d049750e77c9a34a	3	1	main_slash	7	advance_on_keypress_SLASH	116	stimuli_distractor_diamondtriangles.svg	stimuli_target_diamondsquares.svg	32	yes	57	0	389	0	0			0	0			1				0	
6.6.1	and	2023-07-07	08:03:10	08:13:03	566718	641360c2d049750e77c9a34a	3	1	main_slash	7	main_slash	117	stimuli_distractor_diamondtriangles.svg	stimuli_target_trianglerectangles.svg	29	yes	0	0	2000	0	0			0	0			1				0	
6.6.1	and	2023-07-07	08:03:10	08:13:03	566718	641360c2d049750e77c9a34a	3	1	main_slash	7	advance_on_keypress_SLASH	118	stimuli_distractor_diamondtriangles.svg	stimuli_target_trianglerectangles.svg	29	yes	57	0	1232	0	0			0	0			1				0	
6.6.1	and	2023-07-07	08:03:10	08:13:06	569035	641360c2d049750e77c9a34a	3	1	main_slash	7	main_slash	119	stimuli_target_squarediamonds.svg	stimuli_distractor_trianglediamonds.svg	4	yes	53	1	408	0	0			0	0			1				0	
6.6.1	and	2023-07-07	08:03:10	08:13:06	569035	641360c2d049750e77c9a34a	3	1	main_slash	7	advance_on_keypress_SLASH	120	stimuli_target_squarediamonds.svg	stimuli_distractor_trianglediamonds.svg	4	yes	57	0	488	0	0			0	0			1				0	
6.6.1	and	2023-07-07	08:03:10	08:13:09	572215	641360c2d049750e77c9a34a	3	1	main_slash	7	main_slash	121	stimuli_distractor_trianglediamonds.svg	stimuli_target_diamondsquares.svg	28	yes	0	0	2000	0	0			0	0			1				0	
6.6.1	and	2023-07-07	08:03:10	08:13:09	572215	641360c2d049750e77c9a34a	3	1	main_slash	7	advance_on_keypress_SLASH	122	stimuli_distractor_trianglediamonds.svg	stimuli_target_diamondsquares.svg	28	yes	57	0	348	0	0			0	0			1				0	
6.6.1	and	2023-07-07	08:03:10	08:13:10	573672	641360c2d049750e77c9a34a	3	1	main_slash	7	main_slash	123	stimuli_distractor_diamondtriangles.svg	stimuli_target_squarediamonds.svg	16	yes	53	1	412	0	0			0	0			1				0	
6.6.1	and	2023-07-07	08:03:10	08:13:10	573672	641360c2d049750e77c9a34a	3	1	main_slash	7	advance_on_keypress_SLASH	124	stimuli_distractor_diamondtriangles.svg	stimuli_target_squarediamonds.svg	16	yes	57	0	506	0	0			0	0			1				0	
6.6.1	and	2023-07-07	08:03:10	08:13:12	575357	641360c2d049750e77c9a34a	3	1	main_slash	7	main_slash	125	stimuli_distractor_trianglediamonds.svg	stimuli_target_rectanglediamonds.svg	10	yes	53	1	487	0	0			0	0			1				0	
6.6.1	and	2023-07-07	08:03:10	08:13:12	575357	641360c2d049750e77c9a34a	3	1	main_slash	7	advance_on_keypress_SLASH	126	stimuli_distractor_trianglediamonds.svg	stimuli_target_rectanglediamonds.svg	10	yes	57	0	397	0	0			0	0			1				0	
6.6.1	and	2023-07-07	08:03:10	08:13:14	576906	641360c2d049750e77c9a34a	3	1	main_slash	7	main_slash	127	stimuli_target_rectangletriangles.svg	stimuli_distractor_diamondtriangles.svg	5	yes	53	1	478	0	0			0	0			1				0	
6.6.1	and	2023-07-07	08:03:10	08:13:14	576906	641360c2d049750e77c9a34a	3	1	main_slash	7	advance_on_keypress_SLASH	128	stimuli_target_rectangletriangles.svg	stimuli_distractor_diamondtriangles.svg	5	yes	57	0	471	0	0			0	0			1				0	
6.6.1	and	2023-07-07	08:03:10	08:13:15	578527	641360c2d049750e77c9a34a	3	1	main_slash	7	main_slash	129	stimuli_target_squaretriangles.svg	stimuli_distractor_trianglediamonds.svg	3	yes	53	1	458	0	0			0	0			1				0	
6.6.1	and	2023-07-07	08:03:10	08:13:15	578527	641360c2d049750e77c9a34a	3	1	main_slash	7	advance_on_keypress_SLASH	130	stimuli_target_squaretriangles.svg	stimuli_distractor_trianglediamonds.svg	3	yes	57	0	361	0	0			0	0			1				0	
6.6.1	and	2023-07-07	08:03:10	08:13:17	579990	641360c2d049750e77c9a34a	3	1	main_slash	7	main_slash	131	stimuli_distractor_trianglediamonds.svg	stimuli_target_squaretriangles.svg	11	yes	53	1	435	0	0			0	0			1				0	
6.6.1	and	2023-07-07	08:03:10	08:13:17	579990	641360c2d049750e77c9a34a	3	1	main_slash	7	advance_on_keypress_SLASH	132	stimuli_distractor_trianglediamonds.svg	stimuli_target_squaretriangles.svg	11	yes	57	0	281	0	0			0	0			1				0	
6.6.1	and	2023-07-07	08:03:10	08:13:18	581367	641360c2d049750e77c9a34a	3	1	main_slash	7	main_slash	133	stimuli_distractor_diamondtriangles.svg	stimuli_distractor_diamondtriangles.svg	39	no	53	0	398	0	0			0	0			1				0	
6.6.1	and	2023-07-07	08:03:10	08:13:18	581367	641360c2d049750e77c9a34a	3	1	main_slash	7	advance_on_keypress_SLASH	134	stimuli_distractor_diamondtriangles.svg	stimuli_distractor_diamondtriangles.svg	39	no	57	0	565	0	0			0	0			1				0	
6.6.1	and	2023-07-07	08:03:10	08:13:21	584622	641360c2d049750e77c9a34a	3	1	main_slash	7	main_slash	135	stimuli_distractor_trianglediamonds.svg	stimuli_distractor_trianglediamonds.svg	33	no	0	1	2000	0	0			0	0			1				0	
6.6.1	and	2023-07-07	08:03:10	08:13:21	584622	641360c2d049750e77c9a34a	3	1	main_slash	7	advance_on_keypress_SLASH	136	stimuli_distractor_trianglediamonds.svg	stimuli_distractor_trianglediamonds.svg	33	no	57	0	406	0	0			0	0			1				0	
6.6.1	and	2023-07-07	08:03:10	08:13:23	586066	641360c2d049750e77c9a34a	3	1	main_slash	7	main_slash	137	stimuli_distractor_diamondtriangles.svg	stimuli_target_diamondrectangles.svg	31	yes	53	1	344	0	0			0	0			1				0	
6.6.1	and	2023-07-07	08:03:10	08:13:23	586066	641360c2d049750e77c9a34a	3	1	main_slash	7	advance_on_keypress_SLASH	138	stimuli_distractor_diamondtriangles.svg	stimuli_target_diamondrectangles.svg	31	yes	57	0	554	0	0			0	0			1				0	
6.6.1	and	2023-07-07	08:03:10	08:13:26	589313	641360c2d049750e77c9a34a	3	1	main_slash	7	main_slash	139	stimuli_distractor_trianglediamonds.svg	stimuli_distractor_diamondtriangles.svg	35	no	0	1	2000	0	0			0	0			1				0	
6.6.1	and	2023-07-07	08:03:10	08:13:26	589313	641360c2d049750e77c9a34a	3	1	main_slash	7	advance_on_keypress_SLASH	140	stimuli_distractor_trianglediamonds.svg	stimuli_distractor_diamondtriangles.svg	35	no	57	0	395	0	0			0	0			1				0	
6.6.1	and	2023-07-07	08:03:10	08:13:29	592390	641360c2d049750e77c9a34a	3	1	main_slash	7	main_slash	141	stimuli_target_trianglesquares.svg	stimuli_distractor_trianglediamonds.svg	18	yes	0	0	2000	0	0			0	0			1				0	
6.6.1	and	2023-07-07	08:03:10	08:13:29	592390	641360c2d049750e77c9a34a	3	1	main_slash	7	advance_on_keypress_SLASH	142	stimuli_target_trianglesquares.svg	stimuli_distractor_trianglediamonds.svg	18	yes	57	0	486	0	0			0	0			1				0	
6.6.1	and	2023-07-07	08:03:10	08:13:31	593962	641360c2d049750e77c9a34a	3	1	main_slash	7	main_slash	143	stimuli_target_squaretriangles.svg	stimuli_distractor_diamondtriangles.svg	7	yes	53	1	402	0	0			0	0			1				0	
6.6.1	and	2023-07-07	08:03:10	08:13:31	593962	641360c2d049750e77c9a34a	3	1	main_slash	7	advance_on_keypress_SLASH	144	stimuli_target_squaretriangles.svg	stimuli_distractor_diamondtriangles.svg	7	yes	57	0	349	0	0			0	0			1				0	
6.6.1	and	2023-07-07	08:03:10	08:13:34	597013	641360c2d049750e77c9a34a	3	1	main_slash	7	main_slash	145	stimuli_target_trianglesquares.svg	stimuli_distractor_diamondtriangles.svg	22	yes	0	0	2000	0	0			0	0			1				0	
6.6.1	and	2023-07-07	08:03:10	08:13:34	597013	641360c2d049750e77c9a34a	3	1	main_slash	7	advance_on_keypress_SLASH	146	stimuli_target_trianglesquares.svg	stimuli_distractor_diamondtriangles.svg	22	yes	57	0	367	0	0			0	0			1				0	
6.6.1	and	2023-07-07	08:03:10	08:13:37	600073	641360c2d049750e77c9a34a	3	1	main_slash	7	main_slash	147	stimuli_target_diamondrectangles.svg	stimuli_distractor_trianglediamonds.svg	19	yes	0	0	2000	0	0			0	0			1				0	
6.6.1	and	2023-07-07	08:03:10	08:13:37	600073	641360c2d049750e77c9a34a	3	1	main_slash	7	advance_on_keypress_SLASH	148	stimuli_target_diamondrectangles.svg	stimuli_distractor_trianglediamonds.svg	19	yes	57	0	349	0	0			0	0			1				0	
6.6.1	and	2023-07-07	08:03:10	08:13:38	601432	641360c2d049750e77c9a34a	3	1	main_slash	7	main_slash	149	stimuli_distractor_diamondtriangles.svg	stimuli_distractor_trianglediamonds.svg	37	no	53	0	323	0	0			0	0			1				0	
6.6.1	and	2023-07-07	08:03:10	08:13:38	601432	641360c2d049750e77c9a34a	3	1	main_slash	7	advance_on_keypress_SLASH	150	stimuli_distractor_diamondtriangles.svg	stimuli_distractor_trianglediamonds.svg	37	no	57	0	472	0	0			0	0			1				0	
6.6.1	and	2023-07-07	08:03:10	08:13:40	603031	641360c2d049750e77c9a34a	3	1	main_slash	7	main_slash	151	stimuli_distractor_trianglediamonds.svg	stimuli_target_rectangletriangles.svg	9	yes	53	1	442	0	0			0	0			1				0	
6.6.1	and	2023-07-07	08:03:10	08:13:40	603031	641360c2d049750e77c9a34a	3	1	main_slash	7	advance_on_keypress_SLASH	152	stimuli_distractor_trianglediamonds.svg	stimuli_target_rectangletriangles.svg	9	yes	57	0	449	0	0			0	0			1				0	
6.6.1	and	2023-07-07	08:03:10	08:13:42	604852	641360c2d049750e77c9a34a	3	1	main_slash	7	main_slash	153	stimuli_target_rectangletriangles.svg	stimuli_distractor_trianglediamonds.svg	1	yes	53	1	676	0	0			0	0			1				0	
6.6.1	and	2023-07-07	08:03:10	08:13:42	604852	641360c2d049750e77c9a34a	3	1	main_slash	7	advance_on_keypress_SLASH	154	stimuli_target_rectangletriangles.svg	stimuli_distractor_trianglediamonds.svg	1	yes	57	0	433	0	0			0	0			1				0	
6.6.1	and	2023-07-07	08:03:10	08:13:43	606341	641360c2d049750e77c9a34a	3	1	main_slash	7	main_slash	155	stimuli_target_rectanglediamonds.svg	stimuli_distractor_diamondtriangles.svg	6	yes	53	1	370	0	0			0	0			1				0	
6.6.1	and	2023-07-07	08:03:10	08:13:43	606341	641360c2d049750e77c9a34a	3	1	main_slash	7	advance_on_keypress_SLASH	156	stimuli_target_rectanglediamonds.svg	stimuli_distractor_diamondtriangles.svg	6	yes	57	0	314	0	0			0	0			1				0	
6.6.1	and	2023-07-07	08:03:10	08:13:45	607782	641360c2d049750e77c9a34a	3	1	main_slash	7	main_slash	157	stimuli_target_diamondsquares.svg	stimuli_distractor_trianglediamonds.svg	20	yes	53	1	416	0	0			0	0			1				0	
6.6.1	and	2023-07-07	08:03:10	08:13:45	607782	641360c2d049750e77c9a34a	3	1	main_slash	7	advance_on_keypress_SLASH	158	stimuli_target_diamondsquares.svg	stimuli_distractor_trianglediamonds.svg	20	yes	57	0	391	0	0			0	0			1				0	
6.6.1	and	2023-07-07	08:03:10	08:13:48	610867	641360c2d049750e77c9a34a	3	1	main_slash	7	main_slash	159	stimuli_distractor_diamondtriangles.svg	stimuli_distractor_trianglediamonds.svg	38	no	0	1	2000	0	0			0	0			1				0	
6.6.1	and	2023-07-07	08:03:10	08:13:48	610867	641360c2d049750e77c9a34a	3	1	main_slash	7	advance_on_keypress_SLASH	160	stimuli_distractor_diamondtriangles.svg	stimuli_distractor_trianglediamonds.svg	38	no	57	0	375	0	0			0	0			1				0	
6.6.1	and	2023-07-07	08:03:10	08:14:14	637516	641360c2d049750e77c9a34a	3	1	practice_z	9	practice_z	1	stimuli_target_squarediamonds.svg	stimuli_distractor_diamondtriangles.svg	2	yes	0	0	2000	0	0			0	0			1				0	
6.6.1	and	2023-07-07	08:03:10	08:14:14	637516	641360c2d049750e77c9a34a	3	1	practice_z	9	advance_on_keypress_ZEE	2	stimuli_target_squarediamonds.svg	stimuli_distractor_diamondtriangles.svg	2	yes	57	0	787	0	0			0	0			1				0	
6.6.1	and	2023-07-07	08:03:10	08:14:19	642004	641360c2d049750e77c9a34a	3	1	practice_z	9	practice_z	3	stimuli_distractor_diamondtriangles.svg	stimuli_distractor_trianglediamonds.svg	14	no	0	1	2000	0	0			0	0			1				0	
6.6.1	and	2023-07-07	08:03:10	08:14:19	642004	641360c2d049750e77c9a34a	3	1	practice_z	9	advance_on_keypress_ZEE	4	stimuli_distractor_diamondtriangles.svg	stimuli_distractor_trianglediamonds.svg	14	no	57	0	310	0	0			0	0			1				0	
6.6.1	and	2023-07-07	08:03:10	08:14:21	644401	641360c2d049750e77c9a34a	3	1	practice_z	9	practice_z	5	stimuli_distractor_trianglediamonds.svg	stimuli_target_rectanglediamonds.svg	10	yes	44	1	410	0	0			0	0			1				0	
6.6.1	and	2023-07-07	08:03:10	08:14:21	644401	641360c2d049750e77c9a34a	3	1	practice_z	9	advance_on_keypress_ZEE	6	stimuli_distractor_trianglediamonds.svg	stimuli_target_rectanglediamonds.svg	10	yes	57	0	377	0	0			0	0			1				0	
6.6.1	and	2023-07-07	08:03:10	08:14:25	648478	641360c2d049750e77c9a34a	3	1	practice_z	9	practice_z	7	stimuli_distractor_trianglediamonds.svg	stimuli_target_diamondrectangles.svg	12	yes	0	0	2000	0	0			0	0			1				0	
6.6.1	and	2023-07-07	08:03:10	08:14:25	648478	641360c2d049750e77c9a34a	3	1	practice_z	9	advance_on_keypress_ZEE	8	stimuli_distractor_trianglediamonds.svg	stimuli_target_diamondrectangles.svg	12	yes	57	0	493	0	0			0	0			1				0	
6.6.1	and	2023-07-07	08:03:10	08:14:28	651336	641360c2d049750e77c9a34a	3	1	practice_z	9	practice_z	9	stimuli_target_diamondsquares.svg	stimuli_distractor_diamondtriangles.svg	3	yes	44	1	666	0	0			0	0			1				0	
6.6.1	and	2023-07-07	08:03:10	08:14:28	651336	641360c2d049750e77c9a34a	3	1	practice_z	9	advance_on_keypress_ZEE	10	stimuli_target_diamondsquares.svg	stimuli_distractor_diamondtriangles.svg	3	yes	57	0	676	0	0			0	0			1				0	
6.6.1	and	2023-07-07	08:03:10	08:14:31	654077	641360c2d049750e77c9a34a	3	1	practice_z	9	practice_z	11	stimuli_target_rectanglediamonds.svg	stimuli_distractor_diamondtriangles.svg	1	yes	44	1	374	0	0			0	0			1				0	
6.6.1	and	2023-07-07	08:03:10	08:14:31	654077	641360c2d049750e77c9a34a	3	1	practice_z	9	advance_on_keypress_ZEE	12	stimuli_target_rectanglediamonds.svg	stimuli_distractor_diamondtriangles.svg	1	yes	57	0	412	0	0			0	0			1				0	
6.6.1	and	2023-07-07	08:03:10	08:14:33	656547	641360c2d049750e77c9a34a	3	1	practice_z	9	practice_z	13	stimuli_target_rectanglediamonds.svg	stimuli_distractor_trianglediamonds.svg	4	yes	44	1	377	0	0			0	0			1				0	
6.6.1	and	2023-07-07	08:03:10	08:14:33	656547	641360c2d049750e77c9a34a	3	1	practice_z	9	advance_on_keypress_ZEE	14	stimuli_target_rectanglediamonds.svg	stimuli_distractor_trianglediamonds.svg	4	yes	57	0	367	0	0			0	0			1				0	
6.6.1	and	2023-07-07	08:03:10	08:14:37	660613	641360c2d049750e77c9a34a	3	1	practice_z	9	practice_z	15	stimuli_distractor_diamondtriangles.svg	stimuli_target_diamondrectangles.svg	8	yes	0	0	2000	0	0			0	0			1				0	
6.6.1	and	2023-07-07	08:03:10	08:14:37	660613	641360c2d049750e77c9a34a	3	1	practice_z	9	advance_on_keypress_ZEE	16	stimuli_distractor_diamondtriangles.svg	stimuli_target_diamondrectangles.svg	8	yes	57	0	619	0	0			0	0			1				0	
6.6.1	and	2023-07-07	08:03:10	08:14:42	664936	641360c2d049750e77c9a34a	3	1	practice_z	9	practice_z	17	stimuli_distractor_diamondtriangles.svg	stimuli_distractor_diamondtriangles.svg	13	no	0	1	2000	0	0			0	0			1				0	
6.6.1	and	2023-07-07	08:03:10	08:14:42	664936	641360c2d049750e77c9a34a	3	1	practice_z	9	advance_on_keypress_ZEE	18	stimuli_distractor_diamondtriangles.svg	stimuli_distractor_diamondtriangles.svg	13	no	57	0	460	0	0			0	0			1				0	
6.6.1	and	2023-07-07	08:03:10	08:14:44	667626	641360c2d049750e77c9a34a	3	1	practice_z	9	practice_z	19	stimuli_target_squarediamonds.svg	stimuli_distractor_trianglediamonds.svg	5	yes	44	1	539	0	0			0	0			1				0	
6.6.1	and	2023-07-07	08:03:10	08:14:44	667626	641360c2d049750e77c9a34a	3	1	practice_z	9	advance_on_keypress_ZEE	20	stimuli_target_squarediamonds.svg	stimuli_distractor_trianglediamonds.svg	5	yes	57	0	449	0	0			0	0			1				0	
6.6.1	and	2023-07-07	08:03:10	08:14:47	670232	641360c2d049750e77c9a34a	3	1	practice_z	9	practice_z	21	stimuli_distractor_trianglediamonds.svg	stimuli_target_squarediamonds.svg	11	yes	44	1	481	0	0			0	0			1				0	
6.6.1	and	2023-07-07	08:03:10	08:14:47	670232	641360c2d049750e77c9a34a	3	1	practice_z	9	advance_on_keypress_ZEE	22	stimuli_distractor_trianglediamonds.svg	stimuli_target_squarediamonds.svg	11	yes	57	0	382	0	0			0	0			1				0	
6.6.1	and	2023-07-07	08:03:10	08:14:51	674317	641360c2d049750e77c9a34a	3	1	practice_z	9	practice_z	23	stimuli_target_diamondsquares.svg	stimuli_distractor_trianglediamonds.svg	6	yes	0	0	2000	0	0			0	0			1				0	
6.6.1	and	2023-07-07	08:03:10	08:14:51	674317	641360c2d049750e77c9a34a	3	1	practice_z	9	advance_on_keypress_ZEE	24	stimuli_target_diamondsquares.svg	stimuli_distractor_trianglediamonds.svg	6	yes	57	0	618	0	0			0	0			1				0	
6.6.1	and	2023-07-07	08:03:10	08:14:54	676978	641360c2d049750e77c9a34a	3	1	practice_z	9	practice_z	25	stimuli_distractor_diamondtriangles.svg	stimuli_target_rectangletriangles.svg	7	yes	44	1	349	0	0			0	0			1				0	
6.6.1	and	2023-07-07	08:03:10	08:14:54	676978	641360c2d049750e77c9a34a	3	1	practice_z	9	advance_on_keypress_ZEE	26	stimuli_distractor_diamondtriangles.svg	stimuli_target_rectangletriangles.svg	7	yes	57	0	409	0	0			0	0			1				0	
6.6.1	and	2023-07-07	08:03:10	08:14:58	681077	641360c2d049750e77c9a34a	3	1	practice_z	9	practice_z	27	stimuli_distractor_diamondtriangles.svg	stimuli_target_trianglerectangles.svg	9	yes	0	0	2000	0	0			0	0			1				0	
6.6.1	and	2023-07-07	08:03:10	08:14:58	681077	641360c2d049750e77c9a34a	3	1	practice_z	9	advance_on_keypress_ZEE	28	stimuli_distractor_diamondtriangles.svg	stimuli_target_trianglerectangles.svg	9	yes	57	0	520	0	0			0	0			1				0	
6.6.1	and	2023-07-07	08:03:10	08:15:02	685299	641360c2d049750e77c9a34a	3	1	practice_z	9	practice_z	29	stimuli_distractor_trianglediamonds.svg	stimuli_distractor_diamondtriangles.svg	16	no	0	1	2000	0	0			0	0			1				0	
6.6.1	and	2023-07-07	08:03:10	08:15:02	685299	641360c2d049750e77c9a34a	3	1	practice_z	9	advance_on_keypress_ZEE	30	stimuli_distractor_trianglediamonds.svg	stimuli_distractor_diamondtriangles.svg	16	no	57	0	888	0	0			0	0			1				0	
6.6.1	and	2023-07-07	08:03:10	08:15:07	689890	641360c2d049750e77c9a34a	3	1	practice_z	9	practice_z	31	stimuli_distractor_trianglediamonds.svg	stimuli_distractor_trianglediamonds.svg	15	no	0	1	2000	0	0			0	0			1				0	
6.6.1	and	2023-07-07	08:03:10	08:15:07	689890	641360c2d049750e77c9a34a	3	1	practice_z	9	advance_on_keypress_ZEE	32	stimuli_distractor_trianglediamonds.svg	stimuli_distractor_trianglediamonds.svg	15	no	57	0	544	0	0			0	0			1				0	
6.6.1	and	2023-07-07	08:03:10	08:15:16	699727	641360c2d049750e77c9a34a	3	1	main_z	11	main_z	1	stimuli_target_trianglerectangles.svg	stimuli_distractor_diamondtriangles.svg	21	yes	0	0	2000	0	0			0	0			1				0	
6.6.1	and	2023-07-07	08:03:10	08:15:16	699727	641360c2d049750e77c9a34a	3	1	main_z	11	advance_on_keypress_ZEE	2	stimuli_target_trianglerectangles.svg	stimuli_distractor_diamondtriangles.svg	21	yes	57	0	522	0	0			0	0			1				0	
6.6.1	and	2023-07-07	08:03:10	08:15:18	701357	641360c2d049750e77c9a34a	3	1	main_z	11	main_z	3	stimuli_distractor_trianglediamonds.svg	stimuli_target_rectanglediamonds.svg	10	yes	44	1	412	0	0			0	0			1				0	
6.6.1	and	2023-07-07	08:03:10	08:15:18	701357	641360c2d049750e77c9a34a	3	1	main_z	11	advance_on_keypress_ZEE	4	stimuli_distractor_trianglediamonds.svg	stimuli_target_rectanglediamonds.svg	10	yes	57	0	801	0	0			0	0			1				0	
6.6.1	and	2023-07-07	08:03:10	08:15:20	703294	641360c2d049750e77c9a34a	3	1	main_z	11	main_z	5	stimuli_target_squarediamonds.svg	stimuli_distractor_trianglediamonds.svg	4	yes	44	1	438	0	0			0	0			1				0	
6.6.1	and	2023-07-07	08:03:10	08:15:20	703294	641360c2d049750e77c9a34a	3	1	main_z	11	advance_on_keypress_ZEE	6	stimuli_target_squarediamonds.svg	stimuli_distractor_trianglediamonds.svg	4	yes	57	0	579	0	0			0	0			1				0	
6.6.1	and	2023-07-07	08:03:10	08:15:23	706555	641360c2d049750e77c9a34a	3	1	main_z	11	main_z	7	stimuli_distractor_trianglediamonds.svg	stimuli_distractor_diamondtriangles.svg	35	no	0	1	2000	0	0			0	0			1				0	
6.6.1	and	2023-07-07	08:03:10	08:15:23	706555	641360c2d049750e77c9a34a	3	1	main_z	11	advance_on_keypress_ZEE	8	stimuli_distractor_trianglediamonds.svg	stimuli_distractor_diamondtriangles.svg	35	no	57	0	559	0	0			0	0			1				0	
6.6.1	and	2023-07-07	08:03:10	08:15:25	708197	641360c2d049750e77c9a34a	3	1	main_z	11	main_z	9	stimuli_distractor_trianglediamonds.svg	stimuli_target_squaretriangles.svg	11	yes	44	1	404	0	0			0	0			1				0	
6.6.1	and	2023-07-07	08:03:10	08:15:25	708197	641360c2d049750e77c9a34a	3	1	main_z	11	advance_on_keypress_ZEE	10	stimuli_distractor_trianglediamonds.svg	stimuli_target_squaretriangles.svg	11	yes	57	0	529	0	0			0	0			1				0	
6.6.1	and	2023-07-07	08:03:10	08:15:27	710714	641360c2d049750e77c9a34a	3	1	main_z	11	main_z	11	stimuli_distractor_diamondtriangles.svg	stimuli_target_trianglerectangles.svg	29	yes	44	1	1306	0	0			0	0			1				0	
6.6.1	and	2023-07-07	08:03:10	08:15:27	710714	641360c2d049750e77c9a34a	3	1	main_z	11	advance_on_keypress_ZEE	12	stimuli_distractor_diamondtriangles.svg	stimuli_target_trianglerectangles.svg	29	yes	57	0	701	0	0			0	0			1				0	
6.6.1	and	2023-07-07	08:03:10	08:15:31	714083	641360c2d049750e77c9a34a	3	1	main_z	11	main_z	13	stimuli_distractor_trianglediamonds.svg	stimuli_distractor_trianglediamonds.svg	34	no	0	1	2000	0	0			0	0			1				0	
6.6.1	and	2023-07-07	08:03:10	08:15:31	714083	641360c2d049750e77c9a34a	3	1	main_z	11	advance_on_keypress_ZEE	14	stimuli_distractor_trianglediamonds.svg	stimuli_distractor_trianglediamonds.svg	34	no	57	0	288	0	0			0	0			1				0	
6.6.1	and	2023-07-07	08:03:10	08:15:34	717068	641360c2d049750e77c9a34a	3	1	main_z	11	main_z	15	stimuli_distractor_diamondtriangles.svg	stimuli_target_trianglesquares.svg	30	yes	0	0	2000	0	0			0	0			1				0	
6.6.1	and	2023-07-07	08:03:10	08:15:34	717068	641360c2d049750e77c9a34a	3	1	main_z	11	advance_on_keypress_ZEE	16	stimuli_distractor_diamondtriangles.svg	stimuli_target_trianglesquares.svg	30	yes	57	0	374	0	0			0	0			1				0	
6.6.1	and	2023-07-07	08:03:10	08:15:36	718886	641360c2d049750e77c9a34a	3	1	main_z	11	main_z	17	stimuli_target_trianglesquares.svg	stimuli_distractor_diamondtriangles.svg	22	yes	44	1	756	0	0			0	0			1				0	
6.6.1	and	2023-07-07	08:03:10	08:15:36	718886	641360c2d049750e77c9a34a	3	1	main_z	11	advance_on_keypress_ZEE	18	stimuli_target_trianglesquares.svg	stimuli_distractor_diamondtriangles.svg	22	yes	57	0	583	0	0			0	0			1				0	
6.6.1	and	2023-07-07	08:03:10	08:15:39	722165	641360c2d049750e77c9a34a	3	1	main_z	11	main_z	19	stimuli_distractor_diamondtriangles.svg	stimuli_target_diamondrectangles.svg	31	yes	0	0	2000	0	0			0	0			1				0	
6.6.1	and	2023-07-07	08:03:10	08:15:39	722165	641360c2d049750e77c9a34a	3	1	main_z	11	advance_on_keypress_ZEE	20	stimuli_distractor_diamondtriangles.svg	stimuli_target_diamondrectangles.svg	31	yes	57	0	363	0	0			0	0			1				0	
6.6.1	and	2023-07-07	08:03:10	08:15:42	725222	641360c2d049750e77c9a34a	3	1	main_z	11	main_z	21	stimuli_distractor_trianglediamonds.svg	stimuli_distractor_diamondtriangles.svg	36	no	0	1	2000	0	0			0	0			1				0	
6.6.1	and	2023-07-07	08:03:10	08:15:42	725222	641360c2d049750e77c9a34a	3	1	main_z	11	advance_on_keypress_ZEE	22	stimuli_distractor_trianglediamonds.svg	stimuli_distractor_diamondtriangles.svg	36	no	57	0	430	0	0			0	0			1				0	
6.6.1	and	2023-07-07	08:03:10	08:15:43	726749	641360c2d049750e77c9a34a	3	1	main_z	11	main_z	23	stimuli_target_rectangletriangles.svg	stimuli_distractor_diamondtriangles.svg	5	yes	44	1	419	0	0			0	0			1				0	
6.6.1	and	2023-07-07	08:03:10	08:15:43	726749	641360c2d049750e77c9a34a	3	1	main_z	11	advance_on_keypress_ZEE	24	stimuli_target_rectangletriangles.svg	stimuli_distractor_diamondtriangles.svg	5	yes	57	0	455	0	0			0	0			1				0	
6.6.1	and	2023-07-07	08:03:10	08:15:45	728449	641360c2d049750e77c9a34a	3	1	main_z	11	main_z	25	stimuli_distractor_diamondtriangles.svg	stimuli_target_rectangletriangles.svg	13	yes	44	1	555	0	0			0	0			1				0	
6.6.1	and	2023-07-07	08:03:10	08:15:45	728449	641360c2d049750e77c9a34a	3	1	main_z	11	advance_on_keypress_ZEE	26	stimuli_distractor_diamondtriangles.svg	stimuli_target_rectangletriangles.svg	13	yes	57	0	961	0	0			0	0			1				0	
6.6.1	and	2023-07-07	08:03:10	08:15:47	730493	641360c2d049750e77c9a34a	3	1	main_z	11	main_z	27	stimuli_target_squarediamonds.svg	stimuli_distractor_diamondtriangles.svg	8	yes	44	1	393	0	0			0	0			1				0	
6.6.1	and	2023-07-07	08:03:10	08:15:47	730493	641360c2d049750e77c9a34a	3	1	main_z	11	advance_on_keypress_ZEE	28	stimuli_target_squarediamonds.svg	stimuli_distractor_diamondtriangles.svg	8	yes	57	0	373	0	0			0	0			1				0	
6.6.1	and	2023-07-07	08:03:10	08:15:50	733565	641360c2d049750e77c9a34a	3	1	main_z	11	main_z	29	stimuli_target_diamondsquares.svg	stimuli_distractor_trianglediamonds.svg	20	yes	0	0	2000	0	0			0	0			1				0	
6.6.1	and	2023-07-07	08:03:10	08:15:50	733565	641360c2d049750e77c9a34a	3	1	main_z	11	advance_on_keypress_ZEE	30	stimuli_target_diamondsquares.svg	stimuli_distractor_trianglediamonds.svg	20	yes	57	0	438	0	0			0	0			1				0	
6.6.1	and	2023-07-07	08:03:10	08:15:52	735059	641360c2d049750e77c9a34a	3	1	main_z	11	main_z	31	stimuli_target_squaretriangles.svg	stimuli_distractor_trianglediamonds.svg	3	yes	44	1	368	0	0			0	0			1				0	
6.6.1	and	2023-07-07	08:03:10	08:15:52	735059	641360c2d049750e77c9a34a	3	1	main_z	11	advance_on_keypress_ZEE	32	stimuli_target_squaretriangles.svg	stimuli_distractor_trianglediamonds.svg	3	yes	57	0	477	0	0			0	0			1				0	
6.6.1	and	2023-07-07	08:03:10	08:15:55	738235	641360c2d049750e77c9a34a	3	1	main_z	11	main_z	33	stimuli_distractor_trianglediamonds.svg	stimuli_distractor_trianglediamonds.svg	33	no	0	1	2000	0	0			0	0			1				0	
6.6.1	and	2023-07-07	08:03:10	08:15:55	738235	641360c2d049750e77c9a34a	3	1	main_z	11	advance_on_keypress_ZEE	34	stimuli_distractor_trianglediamonds.svg	stimuli_distractor_trianglediamonds.svg	33	no	57	0	782	0	0			0	0			1				0	
6.6.1	and	2023-07-07	08:03:10	08:15:58	741701	641360c2d049750e77c9a34a	3	1	main_z	11	main_z	35	stimuli_distractor_trianglediamonds.svg	stimuli_target_trianglesquares.svg	26	yes	0	0	2000	0	0			0	0			1				0	
6.6.1	and	2023-07-07	08:03:10	08:15:58	741701	641360c2d049750e77c9a34a	3	1	main_z	11	advance_on_keypress_ZEE	36	stimuli_distractor_trianglediamonds.svg	stimuli_target_trianglesquares.svg	26	yes	57	0	379	0	0			0	0			1				0	
6.6.1	and	2023-07-07	08:03:10	08:16:00	743725	641360c2d049750e77c9a34a	3	1	main_z	11	main_z	37	stimuli_distractor_diamondtriangles.svg	stimuli_distractor_trianglediamonds.svg	38	no	44	0	971	0	0			0	0			1				0	
6.6.1	and	2023-07-07	08:03:10	08:16:00	743725	641360c2d049750e77c9a34a	3	1	main_z	11	advance_on_keypress_ZEE	38	stimuli_distractor_diamondtriangles.svg	stimuli_distractor_trianglediamonds.svg	38	no	57	0	772	0	0			0	0			1				0	
6.6.1	and	2023-07-07	08:03:10	08:16:04	747194	641360c2d049750e77c9a34a	3	1	main_z	11	main_z	39	stimuli_distractor_diamondtriangles.svg	stimuli_distractor_trianglediamonds.svg	37	no	0	1	2000	0	0			0	0			1				0	
6.6.1	and	2023-07-07	08:03:10	08:16:04	747194	641360c2d049750e77c9a34a	3	1	main_z	11	advance_on_keypress_ZEE	40	stimuli_distractor_diamondtriangles.svg	stimuli_distractor_trianglediamonds.svg	37	no	57	0	398	0	0			0	0			1				0	
6.6.1	and	2023-07-07	08:03:10	08:16:07	750264	641360c2d049750e77c9a34a	3	1	main_z	11	main_z	41	stimuli_target_diamondsquares.svg	stimuli_distractor_diamondtriangles.svg	24	yes	0	0	2000	0	0			0	0			1				0	
6.6.1	and	2023-07-07	08:03:10	08:16:07	750264	641360c2d049750e77c9a34a	3	1	main_z	11	advance_on_keypress_ZEE	42	stimuli_target_diamondsquares.svg	stimuli_distractor_diamondtriangles.svg	24	yes	57	0	324	0	0			0	0			1				0	
6.6.1	and	2023-07-07	08:03:10	08:16:08	751735	641360c2d049750e77c9a34a	3	1	main_z	11	main_z	43	stimuli_distractor_trianglediamonds.svg	stimuli_target_squarediamonds.svg	12	yes	44	1	469	0	0			0	0			1				0	
6.6.1	and	2023-07-07	08:03:10	08:16:08	751735	641360c2d049750e77c9a34a	3	1	main_z	11	advance_on_keypress_ZEE	44	stimuli_distractor_trianglediamonds.svg	stimuli_target_squarediamonds.svg	12	yes	57	0	421	0	0			0	0			1				0	
6.6.1	and	2023-07-07	08:03:10	08:16:10	753285	641360c2d049750e77c9a34a	3	1	main_z	11	main_z	45	stimuli_target_squaretriangles.svg	stimuli_distractor_diamondtriangles.svg	7	yes	44	1	437	0	0			0	0			1				0	
6.6.1	and	2023-07-07	08:03:10	08:16:10	753285	641360c2d049750e77c9a34a	3	1	main_z	11	advance_on_keypress_ZEE	46	stimuli_target_squaretriangles.svg	stimuli_distractor_diamondtriangles.svg	7	yes	57	0	404	0	0			0	0			1				0	
6.6.1	and	2023-07-07	08:03:10	08:16:12	755086	641360c2d049750e77c9a34a	3	1	main_z	11	main_z	47	stimuli_target_rectangletriangles.svg	stimuli_distractor_trianglediamonds.svg	1	yes	44	1	714	0	0			0	0			1				0	
6.6.1	and	2023-07-07	08:03:10	08:16:12	755086	641360c2d049750e77c9a34a	3	1	main_z	11	advance_on_keypress_ZEE	48	stimuli_target_rectangletriangles.svg	stimuli_distractor_trianglediamonds.svg	1	yes	57	0	1196	0	0			0	0			1				0	
6.6.1	and	2023-07-07	08:03:10	08:16:16	758965	641360c2d049750e77c9a34a	3	1	main_z	11	main_z	49	stimuli_distractor_trianglediamonds.svg	stimuli_target_trianglerectangles.svg	25	yes	0	0	2000	0	0			0	0			1				0	
6.6.1	and	2023-07-07	08:03:10	08:16:16	758965	641360c2d049750e77c9a34a	3	1	main_z	11	advance_on_keypress_ZEE	50	stimuli_distractor_trianglediamonds.svg	stimuli_target_trianglerectangles.svg	25	yes	57	0	415	0	0			0	0			1				0	
6.6.1	and	2023-07-07	08:03:10	08:16:17	760510	641360c2d049750e77c9a34a	3	1	main_z	11	main_z	51	stimuli_distractor_diamondtriangles.svg	stimuli_target_rectanglediamonds.svg	14	yes	44	1	455	0	0			0	0			1				0	
6.6.1	and	2023-07-07	08:03:10	08:16:17	760510	641360c2d049750e77c9a34a	3	1	main_z	11	advance_on_keypress_ZEE	52	stimuli_distractor_diamondtriangles.svg	stimuli_target_rectanglediamonds.svg	14	yes	57	0	445	0	0			0	0			1				0	
6.6.1	and	2023-07-07	08:03:10	08:16:20	763631	641360c2d049750e77c9a34a	3	1	main_z	11	main_z	53	stimuli_target_trianglerectangles.svg	stimuli_distractor_trianglediamonds.svg	17	yes	0	0	2000	0	0			0	0			1				0	
6.6.1	and	2023-07-07	08:03:10	08:16:20	763631	641360c2d049750e77c9a34a	3	1	main_z	11	advance_on_keypress_ZEE	54	stimuli_target_trianglerectangles.svg	stimuli_distractor_trianglediamonds.svg	17	yes	57	0	620	0	0			0	0			1				0	
6.6.1	and	2023-07-07	08:03:10	08:16:22	765391	641360c2d049750e77c9a34a	3	1	main_z	11	main_z	55	stimuli_distractor_trianglediamonds.svg	stimuli_target_rectangletriangles.svg	9	yes	44	1	444	0	0			0	0			1				0	
6.6.1	and	2023-07-07	08:03:10	08:16:22	765391	641360c2d049750e77c9a34a	3	1	main_z	11	advance_on_keypress_ZEE	56	stimuli_distractor_trianglediamonds.svg	stimuli_target_rectangletriangles.svg	9	yes	57	0	720	0	0			0	0			1				0	
6.6.1	and	2023-07-07	08:03:10	08:16:24	767220	641360c2d049750e77c9a34a	3	1	main_z	11	main_z	57	stimuli_distractor_diamondtriangles.svg	stimuli_distractor_diamondtriangles.svg	39	no	44	0	408	0	0			0	0			1				0	
6.6.1	and	2023-07-07	08:03:10	08:16:24	767220	641360c2d049750e77c9a34a	3	1	main_z	11	advance_on_keypress_ZEE	58	stimuli_distractor_diamondtriangles.svg	stimuli_distractor_diamondtriangles.svg	39	no	57	0	730	0	0			0	0			1				0	
6.6.1	and	2023-07-07	08:03:10	08:16:26	769056	641360c2d049750e77c9a34a	3	1	main_z	11	main_z	59	stimuli_target_rectanglediamonds.svg	stimuli_distractor_diamondtriangles.svg	6	yes	44	1	424	0	0			0	0			1				0	
6.6.1	and	2023-07-07	08:03:10	08:16:26	769056	641360c2d049750e77c9a34a	3	1	main_z	11	advance_on_keypress_ZEE	60	stimuli_target_rectanglediamonds.svg	stimuli_distractor_diamondtriangles.svg	6	yes	57	0	407	0	0			0	0			1				0	
6.6.1	and	2023-07-07	08:03:10	08:16:29	772151	641360c2d049750e77c9a34a	3	1	main_z	11	main_z	61	stimuli_distractor_trianglediamonds.svg	stimuli_target_diamondrectangles.svg	27	yes	0	0	2000	0	0			0	0			1				0	
6.6.1	and	2023-07-07	08:03:10	08:16:29	772151	641360c2d049750e77c9a34a	3	1	main_z	11	advance_on_keypress_ZEE	62	stimuli_distractor_trianglediamonds.svg	stimuli_target_diamondrectangles.svg	27	yes	57	0	575	0	0			0	0			1				0	
6.6.1	and	2023-07-07	08:03:10	08:16:32	775411	641360c2d049750e77c9a34a	3	1	main_z	11	main_z	63	stimuli_target_trianglesquares.svg	stimuli_distractor_trianglediamonds.svg	18	yes	0	0	2000	0	0			0	0			1				0	
6.6.1	and	2023-07-07	08:03:10	08:16:32	775411	641360c2d049750e77c9a34a	3	1	main_z	11	advance_on_keypress_ZEE	64	stimuli_target_trianglesquares.svg	stimuli_distractor_trianglediamonds.svg	18	yes	57	0	351	0	0			0	0			1				0	
6.6.1	and	2023-07-07	08:03:10	08:16:35	778453	641360c2d049750e77c9a34a	3	1	main_z	11	main_z	65	stimuli_distractor_diamondtriangles.svg	stimuli_distractor_diamondtriangles.svg	40	no	0	1	2000	0	0			0	0			1				0	
6.6.1	and	2023-07-07	08:03:10	08:16:35	778453	641360c2d049750e77c9a34a	3	1	main_z	11	advance_on_keypress_ZEE	66	stimuli_distractor_diamondtriangles.svg	stimuli_distractor_diamondtriangles.svg	40	no	57	0	325	0	0			0	0			1				0	
6.6.1	and	2023-07-07	08:03:10	08:16:37	779883	641360c2d049750e77c9a34a	3	1	main_z	11	main_z	67	stimuli_distractor_diamondtriangles.svg	stimuli_target_squaretriangles.svg	15	yes	44	1	422	0	0			0	0			1				0	
6.6.1	and	2023-07-07	08:03:10	08:16:37	779883	641360c2d049750e77c9a34a	3	1	main_z	11	advance_on_keypress_ZEE	68	stimuli_distractor_diamondtriangles.svg	stimuli_target_squaretriangles.svg	15	yes	57	0	400	0	0			0	0			1				0	
6.6.1	and	2023-07-07	08:03:10	08:16:40	782981	641360c2d049750e77c9a34a	3	1	main_z	11	main_z	69	stimuli_distractor_trianglediamonds.svg	stimuli_target_diamondsquares.svg	28	yes	0	0	2000	0	0			0	0			1				0	
6.6.1	and	2023-07-07	08:03:10	08:16:40	782981	641360c2d049750e77c9a34a	3	1	main_z	11	advance_on_keypress_ZEE	70	stimuli_distractor_trianglediamonds.svg	stimuli_target_diamondsquares.svg	28	yes	57	0	457	0	0			0	0			1				0	
6.6.1	and	2023-07-07	08:03:10	08:16:41	784512	641360c2d049750e77c9a34a	3	1	main_z	11	main_z	71	stimuli_distractor_diamondtriangles.svg	stimuli_target_squarediamonds.svg	16	yes	44	1	381	0	0			0	0			1				0	
6.6.1	and	2023-07-07	08:03:10	08:16:41	784512	641360c2d049750e77c9a34a	3	1	main_z	11	advance_on_keypress_ZEE	72	stimuli_distractor_diamondtriangles.svg	stimuli_target_squarediamonds.svg	16	yes	57	0	369	0	0			0	0			1				0	
6.6.1	and	2023-07-07	08:03:10	08:16:43	786002	641360c2d049750e77c9a34a	3	1	main_z	11	main_z	73	stimuli_target_rectanglediamonds.svg	stimuli_distractor_trianglediamonds.svg	2	yes	44	1	422	0	0			0	0			1				0	
6.6.1	and	2023-07-07	08:03:10	08:16:43	786002	641360c2d049750e77c9a34a	3	1	main_z	11	advance_on_keypress_ZEE	74	stimuli_target_rectanglediamonds.svg	stimuli_distractor_trianglediamonds.svg	2	yes	57	0	308	0	0			0	0			1				0	
6.6.1	and	2023-07-07	08:03:10	08:16:46	788996	641360c2d049750e77c9a34a	3	1	main_z	11	main_z	75	stimuli_distractor_diamondtriangles.svg	stimuli_target_diamondsquares.svg	32	yes	0	0	2000	0	0			0	0			1				0	
6.6.1	and	2023-07-07	08:03:10	08:16:46	788996	641360c2d049750e77c9a34a	3	1	main_z	11	advance_on_keypress_ZEE	76	stimuli_distractor_diamondtriangles.svg	stimuli_target_diamondsquares.svg	32	yes	57	0	830	0	0			0	0			1				0	
6.6.1	and	2023-07-07	08:03:10	08:16:48	791247	641360c2d049750e77c9a34a	3	1	main_z	11	main_z	77	stimuli_target_diamondrectangles.svg	stimuli_distractor_trianglediamonds.svg	19	yes	44	1	738	0	0			0	0			1				0	
6.6.1	and	2023-07-07	08:03:10	08:16:48	791247	641360c2d049750e77c9a34a	3	1	main_z	11	advance_on_keypress_ZEE	78	stimuli_target_diamondrectangles.svg	stimuli_distractor_trianglediamonds.svg	19	yes	57	0	398	0	0			0	0			1				0	
6.6.1	and	2023-07-07	08:03:10	08:16:51	794321	641360c2d049750e77c9a34a	3	1	main_z	11	main_z	79	stimuli_target_diamondrectangles.svg	stimuli_distractor_diamondtriangles.svg	23	yes	0	0	2000	0	0			0	0			1				0	
6.6.1	and	2023-07-07	08:03:10	08:16:51	794321	641360c2d049750e77c9a34a	3	1	main_z	11	advance_on_keypress_ZEE	80	stimuli_target_diamondrectangles.svg	stimuli_distractor_diamondtriangles.svg	23	yes	57	0	560	0	0			0	0			1				0	
6.6.1	and	2023-07-07	08:03:10	08:16:54	797566	641360c2d049750e77c9a34a	3	1	main_z	11	main_z	81	stimuli_target_diamondrectangles.svg	stimuli_distractor_trianglediamonds.svg	19	yes	0	0	2000	0	0			0	0			1				0	
6.6.1	and	2023-07-07	08:03:10	08:16:54	797566	641360c2d049750e77c9a34a	3	1	main_z	11	advance_on_keypress_ZEE	82	stimuli_target_diamondrectangles.svg	stimuli_distractor_trianglediamonds.svg	19	yes	57	0	291	0	0			0	0			1				0	
6.6.1	and	2023-07-07	08:03:10	08:16:56	799299	641360c2d049750e77c9a34a	3	1	main_z	11	main_z	83	stimuli_distractor_diamondtriangles.svg	stimuli_distractor_diamondtriangles.svg	39	no	44	0	757	0	0			0	0			1				0	
6.6.1	and	2023-07-07	08:03:10	08:16:56	799299	641360c2d049750e77c9a34a	3	1	main_z	11	advance_on_keypress_ZEE	84	stimuli_distractor_diamondtriangles.svg	stimuli_distractor_diamondtriangles.svg	39	no	57	0	398	0	0			0	0			1				0	
6.6.1	and	2023-07-07	08:03:10	08:16:59	802392	641360c2d049750e77c9a34a	3	1	main_z	11	main_z	85	stimuli_distractor_trianglediamonds.svg	stimuli_distractor_diamondtriangles.svg	35	no	0	1	2000	0	0			0	0			1				0	
6.6.1	and	2023-07-07	08:03:10	08:16:59	802392	641360c2d049750e77c9a34a	3	1	main_z	11	advance_on_keypress_ZEE	86	stimuli_distractor_trianglediamonds.svg	stimuli_distractor_diamondtriangles.svg	35	no	57	0	363	0	0			0	0			1				0	
6.6.1	and	2023-07-07	08:03:10	08:17:02	805456	641360c2d049750e77c9a34a	3	1	main_z	11	main_z	87	stimuli_distractor_trianglediamonds.svg	stimuli_distractor_trianglediamonds.svg	34	no	0	1	2000	0	0			0	0			1				0	
6.6.1	and	2023-07-07	08:03:10	08:17:02	805456	641360c2d049750e77c9a34a	3	1	main_z	11	advance_on_keypress_ZEE	88	stimuli_distractor_trianglediamonds.svg	stimuli_distractor_trianglediamonds.svg	34	no	57	0	527	0	0			0	0			1				0	
6.6.1	and	2023-07-07	08:03:10	08:17:05	808663	641360c2d049750e77c9a34a	3	1	main_z	11	main_z	89	stimuli_target_trianglerectangles.svg	stimuli_distractor_trianglediamonds.svg	17	yes	0	0	2000	0	0			0	0			1				0	
6.6.1	and	2023-07-07	08:03:10	08:17:05	808663	641360c2d049750e77c9a34a	3	1	main_z	11	advance_on_keypress_ZEE	90	stimuli_target_trianglerectangles.svg	stimuli_distractor_trianglediamonds.svg	17	yes	57	0	827	0	0			0	0			1				0	
6.6.1	and	2023-07-07	08:03:10	08:17:07	810595	641360c2d049750e77c9a34a	3	1	main_z	11	main_z	91	stimuli_distractor_trianglediamonds.svg	stimuli_target_rectangletriangles.svg	9	yes	44	1	413	0	0			0	0			1				0	
6.6.1	and	2023-07-07	08:03:10	08:17:07	810595	641360c2d049750e77c9a34a	3	1	main_z	11	advance_on_keypress_ZEE	92	stimuli_distractor_trianglediamonds.svg	stimuli_target_rectangletriangles.svg	9	yes	57	0	357	0	0			0	0			1				0	
6.6.1	and	2023-07-07	08:03:10	08:17:09	812192	641360c2d049750e77c9a34a	3	1	main_z	11	main_z	93	stimuli_target_rectanglediamonds.svg	stimuli_distractor_trianglediamonds.svg	2	yes	44	1	550	0	0			0	0			1				0	
6.6.1	and	2023-07-07	08:03:10	08:17:09	812192	641360c2d049750e77c9a34a	3	1	main_z	11	advance_on_keypress_ZEE	94	stimuli_target_rectanglediamonds.svg	stimuli_distractor_trianglediamonds.svg	2	yes	57	0	331	0	0			0	0			1				0	
6.6.1	and	2023-07-07	08:03:10	08:17:11	814042	641360c2d049750e77c9a34a	3	1	main_z	11	main_z	95	stimuli_distractor_trianglediamonds.svg	stimuli_target_diamondrectangles.svg	27	yes	44	1	814	0	0			0	0			1				0	
6.6.1	and	2023-07-07	08:03:10	08:17:11	814042	641360c2d049750e77c9a34a	3	1	main_z	11	advance_on_keypress_ZEE	96	stimuli_distractor_trianglediamonds.svg	stimuli_target_diamondrectangles.svg	27	yes	57	0	779	0	0			0	0			1				0	
6.6.1	and	2023-07-07	08:03:10	08:17:13	816040	641360c2d049750e77c9a34a	3	1	main_z	11	main_z	97	stimuli_distractor_diamondtriangles.svg	stimuli_target_rectangletriangles.svg	13	yes	44	1	540	0	0			0	0			1				0	
6.6.1	and	2023-07-07	08:03:10	08:17:13	816040	641360c2d049750e77c9a34a	3	1	main_z	11	advance_on_keypress_ZEE	98	stimuli_distractor_diamondtriangles.svg	stimuli_target_rectangletriangles.svg	13	yes	57	0	375	0	0			0	0			1				0	
6.6.1	and	2023-07-07	08:03:10	08:17:16	819101	641360c2d049750e77c9a34a	3	1	main_z	11	main_z	99	stimuli_distractor_diamondtriangles.svg	stimuli_target_diamondrectangles.svg	31	yes	0	0	2000	0	0			0	0			1				0	
6.6.1	and	2023-07-07	08:03:10	08:17:16	819101	641360c2d049750e77c9a34a	3	1	main_z	11	advance_on_keypress_ZEE	100	stimuli_distractor_diamondtriangles.svg	stimuli_target_diamondrectangles.svg	31	yes	57	0	757	0	0			0	0			1				0	
6.6.1	and	2023-07-07	08:03:10	08:17:19	822547	641360c2d049750e77c9a34a	3	1	main_z	11	main_z	101	stimuli_distractor_trianglediamonds.svg	stimuli_distractor_trianglediamonds.svg	33	no	0	1	2000	0	0			0	0			1				0	
6.6.1	and	2023-07-07	08:03:10	08:17:19	822547	641360c2d049750e77c9a34a	3	1	main_z	11	advance_on_keypress_ZEE	102	stimuli_distractor_trianglediamonds.svg	stimuli_distractor_trianglediamonds.svg	33	no	57	0	735	0	0			0	0			1				0	
6.6.1	and	2023-07-07	08:03:10	08:17:23	825981	641360c2d049750e77c9a34a	3	1	main_z	11	main_z	103	stimuli_distractor_trianglediamonds.svg	stimuli_target_diamondsquares.svg	28	yes	0	0	2000	0	0			0	0			1				0	
6.6.1	and	2023-07-07	08:03:10	08:17:23	825981	641360c2d049750e77c9a34a	3	1	main_z	11	advance_on_keypress_ZEE	104	stimuli_distractor_trianglediamonds.svg	stimuli_target_diamondsquares.svg	28	yes	57	0	475	0	0			0	0			1				0	
6.6.1	and	2023-07-07	08:03:10	08:17:24	827675	641360c2d049750e77c9a34a	3	1	main_z	11	main_z	105	stimuli_distractor_diamondtriangles.svg	stimuli_target_squarediamonds.svg	16	yes	44	1	530	0	0			0	0			1				0	
6.6.1	and	2023-07-07	08:03:10	08:17:24	827675	641360c2d049750e77c9a34a	3	1	main_z	11	advance_on_keypress_ZEE	106	stimuli_distractor_diamondtriangles.svg	stimuli_target_squarediamonds.svg	16	yes	57	0	195	0	0			0	0			1				0	
6.6.1	and	2023-07-07	08:03:10	08:17:27	830549	641360c2d049750e77c9a34a	3	1	main_z	11	main_z	107	stimuli_target_trianglesquares.svg	stimuli_distractor_trianglediamonds.svg	18	yes	0	0	2000	0	0			0	0			1				0	
6.6.1	and	2023-07-07	08:03:10	08:17:27	830549	641360c2d049750e77c9a34a	3	1	main_z	11	advance_on_keypress_ZEE	108	stimuli_target_trianglesquares.svg	stimuli_distractor_trianglediamonds.svg	18	yes	57	0	582	0	0			0	0			1				0	
6.6.1	and	2023-07-07	08:03:10	08:17:29	832199	641360c2d049750e77c9a34a	3	1	main_z	11	main_z	109	stimuli_target_squarediamonds.svg	stimuli_distractor_diamondtriangles.svg	8	yes	44	1	388	0	0			0	0			1				0	
6.6.1	and	2023-07-07	08:03:10	08:17:29	832199	641360c2d049750e77c9a34a	3	1	main_z	11	advance_on_keypress_ZEE	110	stimuli_target_squarediamonds.svg	stimuli_distractor_diamondtriangles.svg	8	yes	57	0	115	0	0			0	0			1				0	
6.6.1	and	2023-07-07	08:03:10	08:17:32	835024	641360c2d049750e77c9a34a	3	1	main_z	11	main_z	111	stimuli_distractor_diamondtriangles.svg	stimuli_target_diamondsquares.svg	32	yes	0	0	2000	0	0			0	0			1				0	
6.6.1	and	2023-07-07	08:03:10	08:17:32	835024	641360c2d049750e77c9a34a	3	1	main_z	11	advance_on_keypress_ZEE	112	stimuli_distractor_diamondtriangles.svg	stimuli_target_diamondsquares.svg	32	yes	57	0	701	0	0			0	0			1				0	
6.6.1	and	2023-07-07	08:03:10	08:17:35	838421	641360c2d049750e77c9a34a	3	1	main_z	11	main_z	113	stimuli_distractor_trianglediamonds.svg	stimuli_target_trianglesquares.svg	26	yes	0	0	2000	0	0			0	0			1				0	
6.6.1	and	2023-07-07	08:03:10	08:17:35	838421	641360c2d049750e77c9a34a	3	1	main_z	11	advance_on_keypress_ZEE	114	stimuli_distractor_trianglediamonds.svg	stimuli_target_trianglesquares.svg	26	yes	57	0	341	0	0			0	0			1				0	
6.6.1	and	2023-07-07	08:03:10	08:17:38	841443	641360c2d049750e77c9a34a	3	1	main_z	11	main_z	115	stimuli_target_diamondsquares.svg	stimuli_distractor_diamondtriangles.svg	24	yes	0	0	2000	0	0			0	0			1				0	
6.6.1	and	2023-07-07	08:03:10	08:17:38	841443	641360c2d049750e77c9a34a	3	1	main_z	11	advance_on_keypress_ZEE	116	stimuli_target_diamondsquares.svg	stimuli_distractor_diamondtriangles.svg	24	yes	57	0	399	0	0			0	0			1				0	
6.6.1	and	2023-07-07	08:03:10	08:17:41	844541	641360c2d049750e77c9a34a	3	1	main_z	11	main_z	117	stimuli_target_trianglesquares.svg	stimuli_distractor_diamondtriangles.svg	22	yes	0	0	2000	0	0			0	0			1				0	
6.6.1	and	2023-07-07	08:03:10	08:17:41	844541	641360c2d049750e77c9a34a	3	1	main_z	11	advance_on_keypress_ZEE	118	stimuli_target_trianglesquares.svg	stimuli_distractor_diamondtriangles.svg	22	yes	57	0	481	0	0			0	0			1				0	
6.6.1	and	2023-07-07	08:03:10	08:17:44	847696	641360c2d049750e77c9a34a	3	1	main_z	11	main_z	119	stimuli_distractor_trianglediamonds.svg	stimuli_distractor_diamondtriangles.svg	36	no	0	1	2000	0	0			0	0			1				0	
6.6.1	and	2023-07-07	08:03:10	08:17:44	847696	641360c2d049750e77c9a34a	3	1	main_z	11	advance_on_keypress_ZEE	120	stimuli_distractor_trianglediamonds.svg	stimuli_distractor_diamondtriangles.svg	36	no	57	0	363	0	0			0	0			1				0	
6.6.1	and	2023-07-07	08:03:10	08:17:46	849177	641360c2d049750e77c9a34a	3	1	main_z	11	main_z	121	stimuli_target_squaretriangles.svg	stimuli_distractor_trianglediamonds.svg	3	yes	44	1	443	0	0			0	0			1				0	
6.6.1	and	2023-07-07	08:03:10	08:17:46	849177	641360c2d049750e77c9a34a	3	1	main_z	11	advance_on_keypress_ZEE	122	stimuli_target_squaretriangles.svg	stimuli_distractor_trianglediamonds.svg	3	yes	57	0	181	0	0			0	0			1				0	
6.6.1	and	2023-07-07	08:03:10	08:17:47	850639	641360c2d049750e77c9a34a	3	1	main_z	11	main_z	123	stimuli_target_squaretriangles.svg	stimuli_distractor_diamondtriangles.svg	7	yes	44	1	583	0	0			0	0			1				0	
6.6.1	and	2023-07-07	08:03:10	08:17:47	850639	641360c2d049750e77c9a34a	3	1	main_z	11	advance_on_keypress_ZEE	124	stimuli_target_squaretriangles.svg	stimuli_distractor_diamondtriangles.svg	7	yes	57	0	161	0	0			0	0			1				0	
6.6.1	and	2023-07-07	08:03:10	08:17:49	851884	641360c2d049750e77c9a34a	3	1	main_z	11	main_z	125	stimuli_target_rectangletriangles.svg	stimuli_distractor_diamondtriangles.svg	5	yes	44	1	411	0	0			0	0			1				0	
6.6.1	and	2023-07-07	08:03:10	08:17:49	851884	641360c2d049750e77c9a34a	3	1	main_z	11	advance_on_keypress_ZEE	126	stimuli_target_rectangletriangles.svg	stimuli_distractor_diamondtriangles.svg	5	yes	57	0	93	0	0			0	0			1				0	
6.6.1	and	2023-07-07	08:03:10	08:17:50	853076	641360c2d049750e77c9a34a	3	1	main_z	11	main_z	127	stimuli_distractor_diamondtriangles.svg	stimuli_target_squaretriangles.svg	15	yes	44	1	418	0	0			0	0			1				0	
6.6.1	and	2023-07-07	08:03:10	08:17:50	853076	641360c2d049750e77c9a34a	3	1	main_z	11	advance_on_keypress_ZEE	128	stimuli_distractor_diamondtriangles.svg	stimuli_target_squaretriangles.svg	15	yes	57	0	175	0	0			0	0			1				0	
6.6.1	and	2023-07-07	08:03:10	08:17:51	854353	641360c2d049750e77c9a34a	3	1	main_z	11	main_z	129	stimuli_target_squarediamonds.svg	stimuli_distractor_trianglediamonds.svg	4	yes	44	1	422	0	0			0	0			1				0	
6.6.1	and	2023-07-07	08:03:10	08:17:51	854353	641360c2d049750e77c9a34a	3	1	main_z	11	advance_on_keypress_ZEE	130	stimuli_target_squarediamonds.svg	stimuli_distractor_trianglediamonds.svg	4	yes	57	0	87	0	0			0	0			1				0	
6.6.1	and	2023-07-07	08:03:10	08:17:52	855500	641360c2d049750e77c9a34a	3	1	main_z	11	main_z	131	stimuli_target_rectanglediamonds.svg	stimuli_distractor_diamondtriangles.svg	6	yes	44	1	369	0	0			0	0			1				0	
6.6.1	and	2023-07-07	08:03:10	08:17:52	855500	641360c2d049750e77c9a34a	3	1	main_z	11	advance_on_keypress_ZEE	132	stimuli_target_rectanglediamonds.svg	stimuli_distractor_diamondtriangles.svg	6	yes	57	0	275	0	0			0	0			1				0	
6.6.1	and	2023-07-07	08:03:10	08:17:54	856883	641360c2d049750e77c9a34a	3	1	main_z	11	main_z	133	stimuli_target_diamondsquares.svg	stimuli_distractor_trianglediamonds.svg	20	yes	44	1	418	0	0			0	0			1				0	
6.6.1	and	2023-07-07	08:03:10	08:17:54	856883	641360c2d049750e77c9a34a	3	1	main_z	11	advance_on_keypress_ZEE	134	stimuli_target_diamondsquares.svg	stimuli_distractor_trianglediamonds.svg	20	yes	57	0	513	0	0			0	0			1				0	
6.6.1	and	2023-07-07	08:03:10	08:17:55	858563	641360c2d049750e77c9a34a	3	1	main_z	11	main_z	135	stimuli_distractor_trianglediamonds.svg	stimuli_target_squaretriangles.svg	11	yes	44	1	498	0	0			0	0			1				0	
6.6.1	and	2023-07-07	08:03:10	08:17:55	858563	641360c2d049750e77c9a34a	3	1	main_z	11	advance_on_keypress_ZEE	136	stimuli_distractor_trianglediamonds.svg	stimuli_target_squaretriangles.svg	11	yes	57	0	101	0	0			0	0			1				0	
6.6.1	and	2023-07-07	08:03:10	08:17:58	861365	641360c2d049750e77c9a34a	3	1	main_z	11	main_z	137	stimuli_target_trianglerectangles.svg	stimuli_distractor_diamondtriangles.svg	21	yes	0	0	2000	0	0			0	0			1				0	
6.6.1	and	2023-07-07	08:03:10	08:17:58	861365	641360c2d049750e77c9a34a	3	1	main_z	11	advance_on_keypress_ZEE	138	stimuli_target_trianglerectangles.svg	stimuli_distractor_diamondtriangles.svg	21	yes	57	0	1066	0	0			0	0			1				0	
6.6.1	and	2023-07-07	08:03:10	08:18:00	863534	641360c2d049750e77c9a34a	3	1	main_z	11	main_z	139	stimuli_distractor_trianglediamonds.svg	stimuli_target_squarediamonds.svg	12	yes	44	1	413	0	0			0	0			1				0	
6.6.1	and	2023-07-07	08:03:10	08:18:00	863534	641360c2d049750e77c9a34a	3	1	main_z	11	advance_on_keypress_ZEE	140	stimuli_distractor_trianglediamonds.svg	stimuli_target_squarediamonds.svg	12	yes	57	0	108	0	0			0	0			1				0	
6.6.1	and	2023-07-07	08:03:10	08:18:02	864818	641360c2d049750e77c9a34a	3	1	main_z	11	main_z	141	stimuli_distractor_diamondtriangles.svg	stimuli_target_rectanglediamonds.svg	14	yes	44	1	497	0	0			0	0			1				0	
6.6.1	and	2023-07-07	08:03:10	08:18:02	864818	641360c2d049750e77c9a34a	3	1	main_z	11	advance_on_keypress_ZEE	142	stimuli_distractor_diamondtriangles.svg	stimuli_target_rectanglediamonds.svg	14	yes	57	0	29	0	0			0	0			1				0	
6.6.1	and	2023-07-07	08:03:10	08:18:04	867557	641360c2d049750e77c9a34a	3	1	main_z	11	main_z	143	stimuli_distractor_diamondtriangles.svg	stimuli_target_trianglerectangles.svg	29	yes	0	0	2000	0	0			0	0			1				0	
6.6.1	and	2023-07-07	08:03:10	08:18:04	867557	641360c2d049750e77c9a34a	3	1	main_z	11	advance_on_keypress_ZEE	144	stimuli_distractor_diamondtriangles.svg	stimuli_target_trianglerectangles.svg	29	yes	57	0	614	0	0			0	0			1				0	
6.6.1	and	2023-07-07	08:03:10	08:18:08	870847	641360c2d049750e77c9a34a	3	1	main_z	11	main_z	145	stimuli_distractor_diamondtriangles.svg	stimuli_target_trianglesquares.svg	30	yes	0	0	2000	0	0			0	0			1				0	
6.6.1	and	2023-07-07	08:03:10	08:18:08	870847	641360c2d049750e77c9a34a	3	1	main_z	11	advance_on_keypress_ZEE	146	stimuli_distractor_diamondtriangles.svg	stimuli_target_trianglesquares.svg	30	yes	57	0	338	0	0			0	0			1				0	
6.6.1	and	2023-07-07	08:03:10	08:18:11	873880	641360c2d049750e77c9a34a	3	1	main_z	11	main_z	147	stimuli_distractor_diamondtriangles.svg	stimuli_distractor_trianglediamonds.svg	37	no	0	1	2000	0	0			0	0			1				0	
6.6.1	and	2023-07-07	08:03:10	08:18:11	873880	641360c2d049750e77c9a34a	3	1	main_z	11	advance_on_keypress_ZEE	148	stimuli_distractor_diamondtriangles.svg	stimuli_distractor_trianglediamonds.svg	37	no	57	0	477	0	0			0	0			1				0	
6.6.1	and	2023-07-07	08:03:10	08:18:12	875481	641360c2d049750e77c9a34a	3	1	main_z	11	main_z	149	stimuli_distractor_trianglediamonds.svg	stimuli_target_rectanglediamonds.svg	10	yes	44	1	451	0	0			0	0			1				0	
6.6.1	and	2023-07-07	08:03:10	08:18:12	875481	641360c2d049750e77c9a34a	3	1	main_z	11	advance_on_keypress_ZEE	150	stimuli_distractor_trianglediamonds.svg	stimuli_target_rectanglediamonds.svg	10	yes	57	0	108	0	0			0	0			1				0	
6.6.1	and	2023-07-07	08:03:10	08:18:13	876651	641360c2d049750e77c9a34a	3	1	main_z	11	main_z	151	stimuli_distractor_diamondtriangles.svg	stimuli_distractor_diamondtriangles.svg	40	no	44	0	375	0	0			0	0			1				0	
6.6.1	and	2023-07-07	08:03:10	08:18:13	876651	641360c2d049750e77c9a34a	3	1	main_z	11	advance_on_keypress_ZEE	152	stimuli_distractor_diamondtriangles.svg	stimuli_distractor_diamondtriangles.svg	40	no	57	0	411	0	0			0	0			1				0	
6.6.1	and	2023-07-07	08:03:10	08:18:15	878184	641360c2d049750e77c9a34a	3	1	main_z	11	main_z	153	stimuli_target_rectangletriangles.svg	stimuli_distractor_trianglediamonds.svg	1	yes	44	1	429	0	0			0	0			1				0	
6.6.1	and	2023-07-07	08:03:10	08:18:15	878184	641360c2d049750e77c9a34a	3	1	main_z	11	advance_on_keypress_ZEE	154	stimuli_target_rectangletriangles.svg	stimuli_distractor_trianglediamonds.svg	1	yes	57	0	113	0	0			0	0			1				0	
6.6.1	and	2023-07-07	08:03:10	08:18:18	880963	641360c2d049750e77c9a34a	3	1	main_z	11	main_z	155	stimuli_distractor_trianglediamonds.svg	stimuli_target_trianglerectangles.svg	25	yes	0	0	2000	0	0			0	0			1				0	
6.6.1	and	2023-07-07	08:03:10	08:18:18	880963	641360c2d049750e77c9a34a	3	1	main_z	11	advance_on_keypress_ZEE	156	stimuli_distractor_trianglediamonds.svg	stimuli_target_trianglerectangles.svg	25	yes	57	0	472	0	0			0	0			1				0	
6.6.1	and	2023-07-07	08:03:10	08:18:21	884131	641360c2d049750e77c9a34a	3	1	main_z	11	main_z	157	stimuli_distractor_diamondtriangles.svg	stimuli_distractor_trianglediamonds.svg	38	no	0	1	2000	0	0			0	0			1				0	
6.6.1	and	2023-07-07	08:03:10	08:18:21	884131	641360c2d049750e77c9a34a	3	1	main_z	11	advance_on_keypress_ZEE	158	stimuli_distractor_diamondtriangles.svg	stimuli_distractor_trianglediamonds.svg	38	no	57	0	344	0	0			0	0			1				0	
6.6.1	and	2023-07-07	08:03:10	08:18:23	885900	641360c2d049750e77c9a34a	3	1	main_z	11	main_z	159	stimuli_target_diamondrectangles.svg	stimuli_distractor_diamondtriangles.svg	23	yes	44	1	750	0	0			0	0			1				0	
6.6.1	and	2023-07-07	08:03:10	08:18:23	885900	641360c2d049750e77c9a34a	3	1	main_z	11	advance_on_keypress_ZEE	160	stimuli_target_diamondrectangles.svg	stimuli_distractor_diamondtriangles.svg	23	yes	57	0	274	0	0			0	0			1				0	
6.6.1	and	2023-07-07	08:03:10	08:18:23	885900	641360c2d049750e77c9a34a	3	1	headphonecheck_calibration	14	headphonecheck_calibrationIntro	1	stimuli_target_diamondrectangles.svg	stimuli_distractor_diamondtriangles.svg	23	yes	calibrationButton	0	3719	0	0			0	0			1				0	
6.6.1	and	2023-07-07	08:03:10	08:18:23	885900	641360c2d049750e77c9a34a	3	1	headphonecheck_testphase	15	test_collectResponse	3	stimuli_target_diamondrectangles.svg	stimuli_distractor_diamondtriangles.svg	23	yes	third	1	765	1	6	antiphase_hc_ois.wav	3	0	0			1				0	
6.6.1	and	2023-07-07	08:03:10	08:18:23	885900	641360c2d049750e77c9a34a	3	1	headphonecheck_testphase	15	test_collectResponse	6	stimuli_target_diamondrectangles.svg	stimuli_distractor_diamondtriangles.svg	23	yes	second	0	26	2	3	antiphase_hc_soi.wav	1	0	0			1				0	
6.6.1	and	2023-07-07	08:03:10	08:18:23	885900	641360c2d049750e77c9a34a	3	1	headphonecheck_testphase	15	test_collectResponse	9	stimuli_target_diamondrectangles.svg	stimuli_distractor_diamondtriangles.svg	23	yes	third	0	425	3	1	antiphase_hc_iso.wav	2	0	0			1				0	
6.6.1	and	2023-07-07	08:03:10	08:18:23	885900	641360c2d049750e77c9a34a	3	1	headphonecheck_testphase	15	test_collectResponse	12	stimuli_target_diamondrectangles.svg	stimuli_distractor_diamondtriangles.svg	23	yes	second	0	463	4	2	antiphase_hc_ios.wav	3	0	0			1				0	
6.6.1	and	2023-07-07	08:03:10	08:18:23	885900	641360c2d049750e77c9a34a	3	1	headphonecheck_testphase	15	test_collectResponse	15	stimuli_target_diamondrectangles.svg	stimuli_distractor_diamondtriangles.svg	23	yes	third	0	769	5	4	antiphase_hc_sio.wav	1	0	0			1				0	
6.6.1	and	2023-07-07	08:03:10	08:18:23	885900	641360c2d049750e77c9a34a	3	1	headphonecheck_testphase	15	test_collectResponse	18	stimuli_target_diamondrectangles.svg	stimuli_distractor_diamondtriangles.svg	23	yes	first	0	348	6	5	antiphase_hc_osi.wav	2	0	0			1				0	
6.6.1	and	2023-07-07	08:03:10	08:18:23	885900	641360c2d049750e77c9a34a	3	1	stereocheck_calibration	17	stereocheck_calibrationIntro	1	stimuli_target_diamondrectangles.svg	stimuli_distractor_diamondtriangles.svg	23	yes	stereocheck_calibrationButton	0	823	6	5	antiphase_hc_osi.wav	2	0	0			1				0	
6.6.1	and	2023-07-07	08:03:10	08:18:23	885900	641360c2d049750e77c9a34a	3	1	stereocheck_testphase	18	stereocheck_test_collectResponse	3	stimuli_target_diamondrectangles.svg	stimuli_distractor_diamondtriangles.svg	23	yes	stereocheck_right	1	541	6	5	antiphase_hc_osi.wav	2	1	6	noise_calib_stim_RIGHT.wav	2	1				0	
6.6.1	and	2023-07-07	08:03:10	08:18:23	885900	641360c2d049750e77c9a34a	3	1	stereocheck_testphase	18	stereocheck_test_collectResponse	6	stimuli_target_diamondrectangles.svg	stimuli_distractor_diamondtriangles.svg	23	yes	stereocheck_left	1	450	6	5	antiphase_hc_osi.wav	2	2	2	noise_calib_stim_LEFT.wav	1	1				0	
6.6.1	and	2023-07-07	08:03:10	08:18:23	885900	641360c2d049750e77c9a34a	3	1	stereocheck_testphase	18	stereocheck_test_collectResponse	9	stimuli_target_diamondrectangles.svg	stimuli_distractor_diamondtriangles.svg	23	yes	stereocheck_left	1	6281	6	5	antiphase_hc_osi.wav	2	3	3	noise_calib_stim_LEFT.wav	1	1				0	
6.6.1	and	2023-07-07	08:03:10	08:18:23	885900	641360c2d049750e77c9a34a	3	1	stereocheck_testphase	18	stereocheck_test_collectResponse	12	stimuli_target_diamondrectangles.svg	stimuli_distractor_diamondtriangles.svg	23	yes	stereocheck_left	1	545	6	5	antiphase_hc_osi.wav	2	4	1	noise_calib_stim_LEFT.wav	1	1				0	
6.6.1	and	2023-07-07	08:03:10	08:18:23	885900	641360c2d049750e77c9a34a	3	1	stereocheck_testphase	18	stereocheck_test_collectResponse	15	stimuli_target_diamondrectangles.svg	stimuli_distractor_diamondtriangles.svg	23	yes	stereocheck_right	1	356	6	5	antiphase_hc_osi.wav	2	5	4	noise_calib_stim_RIGHT.wav	2	1				0	
6.6.1	and	2023-07-07	08:03:10	08:18:23	885900	641360c2d049750e77c9a34a	3	1	stereocheck_testphase	18	stereocheck_test_collectResponse	18	stimuli_target_diamondrectangles.svg	stimuli_distractor_diamondtriangles.svg	23	yes	stereocheck_right	1	286	6	5	antiphase_hc_osi.wav	2	6	5	noise_calib_stim_RIGHT.wav	2	1				0	
6.6.1	and	2023-07-07	08:03:10	08:18:23	885900	641360c2d049750e77c9a34a	3	1	DL_practice	21	DL_practice	2	stimuli_target_diamondrectangles.svg	stimuli_distractor_diamondtriangles.svg	23	yes	ba	1	1507	6	5	antiphase_hc_osi.wav	2	6	5	noise_calib_stim_RIGHT.wav	2	1	blb_dichoticlistening_ba-ba.mp3	ba	ba	0	left
6.6.1	and	2023-07-07	08:03:10	08:18:23	885900	641360c2d049750e77c9a34a	3	1	DL_practice	21	DL_practice	3	stimuli_target_diamondrectangles.svg	stimuli_distractor_diamondtriangles.svg	23	yes	ta	1	1654	6	5	antiphase_hc_osi.wav	2	6	5	noise_calib_stim_RIGHT.wav	2	36	blb_dichoticlistening_ta-ta.mp3	ta	ta	0	left
6.6.1	and	2023-07-07	08:03:10	08:18:23	885900	641360c2d049750e77c9a34a	3	1	DL_practice	21	DL_practice	4	stimuli_target_diamondrectangles.svg	stimuli_distractor_diamondtriangles.svg	23	yes	da	1	1111	6	5	antiphase_hc_osi.wav	2	6	5	noise_calib_stim_RIGHT.wav	2	8	blb_dichoticlistening_da-da.mp3	da	da	0	left
6.6.1	and	2023-07-07	08:03:10	08:18:23	885900	641360c2d049750e77c9a34a	3	1	DL_practice	21	DL_practice	5	stimuli_target_diamondrectangles.svg	stimuli_distractor_diamondtriangles.svg	23	yes	ga	1	1298	6	5	antiphase_hc_osi.wav	2	6	5	noise_calib_stim_RIGHT.wav	2	15	blb_dichoticlistening_ga-ga.mp3	ga	ga	0	left
6.6.1	and	2023-07-07	08:03:10	08:18:23	885900	641360c2d049750e77c9a34a	3	1	DL_practice	21	DL_practice	6	stimuli_target_diamondrectangles.svg	stimuli_distractor_diamondtriangles.svg	23	yes	pa	1	1302	6	5	antiphase_hc_osi.wav	2	6	5	noise_calib_stim_RIGHT.wav	2	29	blb_dichoticlistening_pa-pa.mp3	pa	pa	0	left
6.6.1	and	2023-07-07	08:03:10	08:18:23	885900	641360c2d049750e77c9a34a	3	1	DL_practice	21	DL_practice	7	stimuli_target_diamondrectangles.svg	stimuli_distractor_diamondtriangles.svg	23	yes	ba	1	2301	6	5	antiphase_hc_osi.wav	2	6	5	noise_calib_stim_RIGHT.wav	2	7	blb_dichoticlistening_da-ba.mp3	da	ba	1	right
6.6.1	and	2023-07-07	08:03:10	08:18:23	885900	641360c2d049750e77c9a34a	3	1	DL_practice	21	DL_practice	8	stimuli_target_diamondrectangles.svg	stimuli_distractor_diamondtriangles.svg	23	yes	ga	1	1348	6	5	antiphase_hc_osi.wav	2	6	5	noise_calib_stim_RIGHT.wav	2	18	blb_dichoticlistening_ga-ta.mp3	ga	ta	1	left
6.6.1	and	2023-07-07	08:03:10	08:18:23	885900	641360c2d049750e77c9a34a	3	1	DL_practice	21	DL_practice	9	stimuli_target_diamondrectangles.svg	stimuli_distractor_diamondtriangles.svg	23	yes	ka	1	1150	6	5	antiphase_hc_osi.wav	2	6	5	noise_calib_stim_RIGHT.wav	2	22	blb_dichoticlistening_ka-ka.mp3	ka	ka	0	left
6.6.1	and	2023-07-07	08:03:10	08:18:23	885900	641360c2d049750e77c9a34a	3	1	DL_practice	21	DL_practice	10	stimuli_target_diamondrectangles.svg	stimuli_distractor_diamondtriangles.svg	23	yes	ka	1	802	6	5	antiphase_hc_osi.wav	2	6	5	noise_calib_stim_RIGHT.wav	2	23	blb_dichoticlistening_ka-pa.mp3	ka	pa	1	left
6.6.1	and	2023-07-07	08:03:10	08:18:23	885900	641360c2d049750e77c9a34a	3	1	DL_test	23	DL_test	1	stimuli_target_diamondrectangles.svg	stimuli_distractor_diamondtriangles.svg	23	yes	ga	1	1862	6	5	antiphase_hc_osi.wav	2	6	5	noise_calib_stim_RIGHT.wav	2	16	blb_dichoticlistening_ga-ka.mp3	ga	ka	1	left
6.6.1	and	2023-07-07	08:03:10	08:18:23	885900	641360c2d049750e77c9a34a	3	1	DL_test	23	DL_test	2	stimuli_target_diamondrectangles.svg	stimuli_distractor_diamondtriangles.svg	23	yes	ba	1	1374	6	5	antiphase_hc_osi.wav	2	6	5	noise_calib_stim_RIGHT.wav	2	19	blb_dichoticlistening_ka-ba.mp3	ka	ba	1	right
6.6.1	and	2023-07-07	08:03:10	08:18:23	885900	641360c2d049750e77c9a34a	3	1	DL_test	23	DL_test	3	stimuli_target_diamondrectangles.svg	stimuli_distractor_diamondtriangles.svg	23	yes	ga	0	878	6	5	antiphase_hc_osi.wav	2	6	5	noise_calib_stim_RIGHT.wav	2	32	blb_dichoticlistening_ta-da.mp3	ta	da	1	other
6.6.1	and	2023-07-07	08:03:10	08:18:23	885900	641360c2d049750e77c9a34a	3	1	DL_test	23	DL_test	4	stimuli_target_diamondrectangles.svg	stimuli_distractor_diamondtriangles.svg	23	yes	ba	1	1328	6	5	antiphase_hc_osi.wav	2	6	5	noise_calib_stim_RIGHT.wav	2	2	blb_dichoticlistening_ba-da.mp3	ba	da	1	left
6.6.1	and	2023-07-07	08:03:10	08:18:23	885900	641360c2d049750e77c9a34a	3	1	DL_test	23	DL_test	5	stimuli_target_diamondrectangles.svg	stimuli_distractor_diamondtriangles.svg	23	yes	ba	1	1009	6	5	antiphase_hc_osi.wav	2	6	5	noise_calib_stim_RIGHT.wav	2	3	blb_dichoticlistening_ba-ga.mp3	ba	ga	1	left
6.6.1	and	2023-07-07	08:03:10	08:18:23	885900	641360c2d049750e77c9a34a	3	1	DL_test	23	DL_test	6	stimuli_target_diamondrectangles.svg	stimuli_distractor_diamondtriangles.svg	23	yes	pa	1	1532	6	5	antiphase_hc_osi.wav	2	6	5	noise_calib_stim_RIGHT.wav	2	5	blb_dichoticlistening_ba-pa.mp3	ba	pa	1	right
6.6.1	and	2023-07-07	08:03:10	08:18:23	885900	641360c2d049750e77c9a34a	3	1	DL_test	23	DL_test	7	stimuli_target_diamondrectangles.svg	stimuli_distractor_diamondtriangles.svg	23	yes	da	1	1193	6	5	antiphase_hc_osi.wav	2	6	5	noise_calib_stim_RIGHT.wav	2	10	blb_dichoticlistening_da-ka.mp3	da	ka	1	left
6.6.1	and	2023-07-07	08:03:10	08:18:23	885900	641360c2d049750e77c9a34a	3	1	DL_test	23	DL_test	8	stimuli_target_diamondrectangles.svg	stimuli_distractor_diamondtriangles.svg	23	yes	ga	1	643	6	5	antiphase_hc_osi.wav	2	6	5	noise_calib_stim_RIGHT.wav	2	17	blb_dichoticlistening_ga-pa.mp3	ga	pa	1	left
6.6.1	and	2023-07-07	08:03:10	08:18:23	885900	641360c2d049750e77c9a34a	3	1	DL_test	23	DL_test	9	stimuli_target_diamondrectangles.svg	stimuli_distractor_diamondtriangles.svg	23	yes	ba	1	1485	6	5	antiphase_hc_osi.wav	2	6	5	noise_calib_stim_RIGHT.wav	2	25	blb_dichoticlistening_pa-ba.mp3	pa	ba	1	right
6.6.1	and	2023-07-07	08:03:10	08:18:23	885900	641360c2d049750e77c9a34a	3	1	DL_test	23	DL_test	10	stimuli_target_diamondrectangles.svg	stimuli_distractor_diamondtriangles.svg	23	yes	pa	1	1298	6	5	antiphase_hc_osi.wav	2	6	5	noise_calib_stim_RIGHT.wav	2	29	blb_dichoticlistening_pa-pa.mp3	pa	pa	0	left
6.6.1	and	2023-07-07	08:03:10	08:18:23	885900	641360c2d049750e77c9a34a	3	1	DL_test	23	DL_test	11	stimuli_target_diamondrectangles.svg	stimuli_distractor_diamondtriangles.svg	23	yes	ga	1	1005	6	5	antiphase_hc_osi.wav	2	6	5	noise_calib_stim_RIGHT.wav	2	21	blb_dichoticlistening_ka-ga.mp3	ka	ga	1	right
6.6.1	and	2023-07-07	08:03:10	08:18:23	885900	641360c2d049750e77c9a34a	3	1	DL_test	23	DL_test	12	stimuli_target_diamondrectangles.svg	stimuli_distractor_diamondtriangles.svg	23	yes	ka	1	1216	6	5	antiphase_hc_osi.wav	2	6	5	noise_calib_stim_RIGHT.wav	2	22	blb_dichoticlistening_ka-ka.mp3	ka	ka	0	left
6.6.1	and	2023-07-07	08:03:10	08:18:23	885900	641360c2d049750e77c9a34a	3	1	DL_test	23	DL_test	13	stimuli_target_diamondrectangles.svg	stimuli_distractor_diamondtriangles.svg	23	yes	ga	1	1042	6	5	antiphase_hc_osi.wav	2	6	5	noise_calib_stim_RIGHT.wav	2	33	blb_dichoticlistening_ta-ga.mp3	ta	ga	1	right
6.6.1	and	2023-07-07	08:03:10	08:18:23	885900	641360c2d049750e77c9a34a	3	1	DL_test	23	DL_test	14	stimuli_target_diamondrectangles.svg	stimuli_distractor_diamondtriangles.svg	23	yes	ga	0	587	6	5	antiphase_hc_osi.wav	2	6	5	noise_calib_stim_RIGHT.wav	2	26	blb_dichoticlistening_pa-da.mp3	pa	da	1	other
6.6.1	and	2023-07-07	08:03:10	08:18:23	885900	641360c2d049750e77c9a34a	3	1	DL_test	23	DL_test	15	stimuli_target_diamondrectangles.svg	stimuli_distractor_diamondtriangles.svg	23	yes	ka	1	1329	6	5	antiphase_hc_osi.wav	2	6	5	noise_calib_stim_RIGHT.wav	2	28	blb_dichoticlistening_pa-ka.mp3	pa	ka	1	right
6.6.1	and	2023-07-07	08:03:10	08:18:23	885900	641360c2d049750e77c9a34a	3	1	DL_test	23	DL_test	16	stimuli_target_diamondrectangles.svg	stimuli_distractor_diamondtriangles.svg	23	yes	da	1	1383	6	5	antiphase_hc_osi.wav	2	6	5	noise_calib_stim_RIGHT.wav	2	8	blb_dichoticlistening_da-da.mp3	da	da	0	left
6.6.1	and	2023-07-07	08:03:10	08:18:23	885900	641360c2d049750e77c9a34a	3	1	DL_test	23	DL_test	17	stimuli_target_diamondrectangles.svg	stimuli_distractor_diamondtriangles.svg	23	yes	ta	1	1283	6	5	antiphase_hc_osi.wav	2	6	5	noise_calib_stim_RIGHT.wav	2	36	blb_dichoticlistening_ta-ta.mp3	ta	ta	0	left
6.6.1	and	2023-07-07	08:03:10	08:18:23	885900	641360c2d049750e77c9a34a	3	1	DL_test	23	DL_test	18	stimuli_target_diamondrectangles.svg	stimuli_distractor_diamondtriangles.svg	23	yes	ga	1	1981	6	5	antiphase_hc_osi.wav	2	6	5	noise_calib_stim_RIGHT.wav	2	18	blb_dichoticlistening_ga-ta.mp3	ga	ta	1	left
6.6.1	and	2023-07-07	08:03:10	08:18:23	885900	641360c2d049750e77c9a34a	3	1	DL_test	23	DL_test	19	stimuli_target_diamondrectangles.svg	stimuli_distractor_diamondtriangles.svg	23	yes	ga	1	705	6	5	antiphase_hc_osi.wav	2	6	5	noise_calib_stim_RIGHT.wav	2	15	blb_dichoticlistening_ga-ga.mp3	ga	ga	0	left
6.6.1	and	2023-07-07	08:03:10	08:18:23	885900	641360c2d049750e77c9a34a	3	1	DL_test	23	DL_test	20	stimuli_target_diamondrectangles.svg	stimuli_distractor_diamondtriangles.svg	23	yes	ga	1	637	6	5	antiphase_hc_osi.wav	2	6	5	noise_calib_stim_RIGHT.wav	2	9	blb_dichoticlistening_da-ga.mp3	da	ga	1	right
6.6.1	and	2023-07-07	08:03:10	08:18:23	885900	641360c2d049750e77c9a34a	3	1	DL_test	23	DL_test	21	stimuli_target_diamondrectangles.svg	stimuli_distractor_diamondtriangles.svg	23	yes	ga	0	646	6	5	antiphase_hc_osi.wav	2	6	5	noise_calib_stim_RIGHT.wav	2	20	blb_dichoticlistening_ka-da.mp3	ka	da	1	other
6.6.1	and	2023-07-07	08:03:10	08:18:23	885900	641360c2d049750e77c9a34a	3	1	DL_test	23	DL_test	22	stimuli_target_diamondrectangles.svg	stimuli_distractor_diamondtriangles.svg	23	yes	ta	1	1347	6	5	antiphase_hc_osi.wav	2	6	5	noise_calib_stim_RIGHT.wav	2	35	blb_dichoticlistening_ta-pa.mp3	ta	pa	1	left
6.6.1	and	2023-07-07	08:03:10	08:18:23	885900	641360c2d049750e77c9a34a	3	1	DL_test	23	DL_test	23	stimuli_target_diamondrectangles.svg	stimuli_distractor_diamondtriangles.svg	23	yes	pa	1	1055	6	5	antiphase_hc_osi.wav	2	6	5	noise_calib_stim_RIGHT.wav	2	30	blb_dichoticlistening_pa-ta.mp3	pa	ta	1	left
6.6.1	and	2023-07-07	08:03:10	08:18:23	885900	641360c2d049750e77c9a34a	3	1	DL_test	23	DL_test	24	stimuli_target_diamondrectangles.svg	stimuli_distractor_diamondtriangles.svg	23	yes	ka	1	1437	6	5	antiphase_hc_osi.wav	2	6	5	noise_calib_stim_RIGHT.wav	2	34	blb_dichoticlistening_ta-ka.mp3	ta	ka	1	right
6.6.1	and	2023-07-07	08:03:10	08:18:23	885900	641360c2d049750e77c9a34a	3	1	DL_test	23	DL_test	25	stimuli_target_diamondrectangles.svg	stimuli_distractor_diamondtriangles.svg	23	yes	ga	1	1260	6	5	antiphase_hc_osi.wav	2	6	5	noise_calib_stim_RIGHT.wav	2	27	blb_dichoticlistening_pa-ga.mp3	pa	ga	1	right
6.6.1	and	2023-07-07	08:03:10	08:18:23	885900	641360c2d049750e77c9a34a	3	1	DL_test	23	DL_test	26	stimuli_target_diamondrectangles.svg	stimuli_distractor_diamondtriangles.svg	23	yes	da	1	1002	6	5	antiphase_hc_osi.wav	2	6	5	noise_calib_stim_RIGHT.wav	2	12	blb_dichoticlistening_da-ta.mp3	da	ta	1	left
