build	computer.platform	date	time	timestamp	time_elapsed_ms	subject	group	session	blockcode	blocknum	trialcode	trialnum	stimulus_left	stimulus_right	stim_index	target_present	response	correct	latency	headphonecheck_countTestTrials	headphonecheck_index	headphonecheck_testSound	headphonecheck_correctResponse	stereocheck_countTestTrials	stereocheck_index	stereocheck_testSound	stereocheck_correctResponse	DL_index	DL_soundfile	DL_leftSound	DL_rightSound	DL_dualSound	DL_choice
6.6.1	win	2023-06-23	15:24:06	15:27:22	193653	5cef892f0c5fb30018fbdfbe	3	1	practice_slash	5	practice_slash	1	stimuli_target_squarediamonds.svg	stimuli_distractor_trianglediamonds.svg	5	yes	53	1	532	0	0			0	0			1				0	
6.6.1	win	2023-06-23	15:24:06	15:27:22	193653	5cef892f0c5fb30018fbdfbe	3	1	practice_slash	5	advance_on_keypress_SLASH	2	stimuli_target_squarediamonds.svg	stimuli_distractor_trianglediamonds.svg	5	yes	57	0	2364	0	0			0	0			1				0	
6.6.1	win	2023-06-23	15:24:06	15:27:28	199670	5cef892f0c5fb30018fbdfbe	3	1	practice_slash	5	practice_slash	3	stimuli_distractor_trianglediamonds.svg	stimuli_distractor_diamondtriangles.svg	16	no	0	1	2000	0	0			0	0			1				0	
6.6.1	win	2023-06-23	15:24:06	15:27:28	199670	5cef892f0c5fb30018fbdfbe	3	1	practice_slash	5	advance_on_keypress_SLASH	4	stimuli_distractor_trianglediamonds.svg	stimuli_distractor_diamondtriangles.svg	16	no	57	0	1328	0	0			0	0			1				0	
6.6.1	win	2023-06-23	15:24:06	15:27:31	203329	5cef892f0c5fb30018fbdfbe	3	1	practice_slash	5	practice_slash	5	stimuli_target_diamondsquares.svg	stimuli_distractor_diamondtriangles.svg	3	yes	53	1	676	0	0			0	0			1				0	
6.6.1	win	2023-06-23	15:24:06	15:27:31	203329	5cef892f0c5fb30018fbdfbe	3	1	practice_slash	5	advance_on_keypress_SLASH	6	stimuli_target_diamondsquares.svg	stimuli_distractor_diamondtriangles.svg	3	yes	57	0	1198	0	0			0	0			1				0	
6.6.1	win	2023-06-23	15:24:06	15:27:35	206753	5cef892f0c5fb30018fbdfbe	3	1	practice_slash	5	practice_slash	7	stimuli_distractor_trianglediamonds.svg	stimuli_target_rectanglediamonds.svg	10	yes	53	1	583	0	0			0	0			1				0	
6.6.1	win	2023-06-23	15:24:06	15:27:35	206753	5cef892f0c5fb30018fbdfbe	3	1	practice_slash	5	advance_on_keypress_SLASH	8	stimuli_distractor_trianglediamonds.svg	stimuli_target_rectanglediamonds.svg	10	yes	57	0	960	0	0			0	0			1				0	
6.6.1	win	2023-06-23	15:24:06	15:27:39	211353	5cef892f0c5fb30018fbdfbe	3	1	practice_slash	5	practice_slash	9	stimuli_distractor_trianglediamonds.svg	stimuli_target_squarediamonds.svg	11	yes	0	0	2000	0	0			0	0			1				0	
6.6.1	win	2023-06-23	15:24:06	15:27:39	211353	5cef892f0c5fb30018fbdfbe	3	1	practice_slash	5	advance_on_keypress_SLASH	10	stimuli_distractor_trianglediamonds.svg	stimuli_target_squarediamonds.svg	11	yes	57	0	886	0	0			0	0			1				0	
6.6.1	win	2023-06-23	15:24:06	15:27:44	215885	5cef892f0c5fb30018fbdfbe	3	1	practice_slash	5	practice_slash	11	stimuli_distractor_diamondtriangles.svg	stimuli_distractor_diamondtriangles.svg	13	no	0	1	2000	0	0			0	0			1				0	
6.6.1	win	2023-06-23	15:24:06	15:27:44	215885	5cef892f0c5fb30018fbdfbe	3	1	practice_slash	5	advance_on_keypress_SLASH	12	stimuli_distractor_diamondtriangles.svg	stimuli_distractor_diamondtriangles.svg	13	no	57	0	905	0	0			0	0			1				0	
6.6.1	win	2023-06-23	15:24:06	15:27:47	219067	5cef892f0c5fb30018fbdfbe	3	1	practice_slash	5	practice_slash	13	stimuli_distractor_trianglediamonds.svg	stimuli_target_diamondrectangles.svg	12	yes	53	1	633	0	0			0	0			1				0	
6.6.1	win	2023-06-23	15:24:06	15:27:47	219067	5cef892f0c5fb30018fbdfbe	3	1	practice_slash	5	advance_on_keypress_SLASH	14	stimuli_distractor_trianglediamonds.svg	stimuli_target_diamondrectangles.svg	12	yes	57	0	1568	0	0			0	0			1				0	
6.6.1	win	2023-06-23	15:24:06	15:27:51	223046	5cef892f0c5fb30018fbdfbe	3	1	practice_slash	5	practice_slash	15	stimuli_target_squarediamonds.svg	stimuli_distractor_diamondtriangles.svg	2	yes	53	1	762	0	0			0	0			1				0	
6.6.1	win	2023-06-23	15:24:06	15:27:51	223046	5cef892f0c5fb30018fbdfbe	3	1	practice_slash	5	advance_on_keypress_SLASH	16	stimuli_target_squarediamonds.svg	stimuli_distractor_diamondtriangles.svg	2	yes	57	0	547	0	0			0	0			1				0	
6.6.1	win	2023-06-23	15:24:06	15:27:55	227250	5cef892f0c5fb30018fbdfbe	3	1	practice_slash	5	practice_slash	17	stimuli_target_rectanglediamonds.svg	stimuli_distractor_diamondtriangles.svg	1	yes	0	0	2000	0	0			0	0			1				0	
6.6.1	win	2023-06-23	15:24:06	15:27:55	227250	5cef892f0c5fb30018fbdfbe	3	1	practice_slash	5	advance_on_keypress_SLASH	18	stimuli_target_rectanglediamonds.svg	stimuli_distractor_diamondtriangles.svg	1	yes	57	0	672	0	0			0	0			1				0	
6.6.1	win	2023-06-23	15:24:06	15:27:58	230307	5cef892f0c5fb30018fbdfbe	3	1	practice_slash	5	practice_slash	19	stimuli_distractor_diamondtriangles.svg	stimuli_target_diamondrectangles.svg	8	yes	53	1	741	0	0			0	0			1				0	
6.6.1	win	2023-06-23	15:24:06	15:27:58	230307	5cef892f0c5fb30018fbdfbe	3	1	practice_slash	5	advance_on_keypress_SLASH	20	stimuli_distractor_diamondtriangles.svg	stimuli_target_diamondrectangles.svg	8	yes	57	0	1172	0	0			0	0			1				0	
6.6.1	win	2023-06-23	15:24:06	15:28:02	234135	5cef892f0c5fb30018fbdfbe	3	1	practice_slash	5	practice_slash	21	stimuli_distractor_diamondtriangles.svg	stimuli_target_rectangletriangles.svg	7	yes	53	1	1020	0	0			0	0			1				0	
6.6.1	win	2023-06-23	15:24:06	15:28:02	234135	5cef892f0c5fb30018fbdfbe	3	1	practice_slash	5	advance_on_keypress_SLASH	22	stimuli_distractor_diamondtriangles.svg	stimuli_target_rectangletriangles.svg	7	yes	57	0	502	0	0			0	0			1				0	
6.6.1	win	2023-06-23	15:24:06	15:28:05	236963	5cef892f0c5fb30018fbdfbe	3	1	practice_slash	5	practice_slash	23	stimuli_target_rectanglediamonds.svg	stimuli_distractor_trianglediamonds.svg	4	yes	53	1	681	0	0			0	0			1				0	
6.6.1	win	2023-06-23	15:24:06	15:28:05	236963	5cef892f0c5fb30018fbdfbe	3	1	practice_slash	5	advance_on_keypress_SLASH	24	stimuli_target_rectanglediamonds.svg	stimuli_distractor_trianglediamonds.svg	4	yes	57	0	619	0	0			0	0			1				0	
6.6.1	win	2023-06-23	15:24:06	15:28:08	239916	5cef892f0c5fb30018fbdfbe	3	1	practice_slash	5	practice_slash	25	stimuli_target_diamondsquares.svg	stimuli_distractor_trianglediamonds.svg	6	yes	53	1	685	0	0			0	0			1				0	
6.6.1	win	2023-06-23	15:24:06	15:28:08	239916	5cef892f0c5fb30018fbdfbe	3	1	practice_slash	5	advance_on_keypress_SLASH	26	stimuli_target_diamondsquares.svg	stimuli_distractor_trianglediamonds.svg	6	yes	57	0	486	0	0			0	0			1				0	
6.6.1	win	2023-06-23	15:24:06	15:28:11	242768	5cef892f0c5fb30018fbdfbe	3	1	practice_slash	5	practice_slash	27	stimuli_distractor_diamondtriangles.svg	stimuli_target_trianglerectangles.svg	9	yes	53	1	721	0	0			0	0			1				0	
6.6.1	win	2023-06-23	15:24:06	15:28:11	242768	5cef892f0c5fb30018fbdfbe	3	1	practice_slash	5	advance_on_keypress_SLASH	28	stimuli_distractor_diamondtriangles.svg	stimuli_target_trianglerectangles.svg	9	yes	57	0	535	0	0			0	0			1				0	
6.6.1	win	2023-06-23	15:24:06	15:28:15	246947	5cef892f0c5fb30018fbdfbe	3	1	practice_slash	5	practice_slash	29	stimuli_distractor_trianglediamonds.svg	stimuli_distractor_trianglediamonds.svg	15	no	0	1	2000	0	0			0	0			1				0	
6.6.1	win	2023-06-23	15:24:06	15:28:15	246947	5cef892f0c5fb30018fbdfbe	3	1	practice_slash	5	advance_on_keypress_SLASH	30	stimuli_distractor_trianglediamonds.svg	stimuli_distractor_trianglediamonds.svg	15	no	57	0	565	0	0			0	0			1				0	
6.6.1	win	2023-06-23	15:24:06	15:28:19	251163	5cef892f0c5fb30018fbdfbe	3	1	practice_slash	5	practice_slash	31	stimuli_distractor_diamondtriangles.svg	stimuli_distractor_trianglediamonds.svg	14	no	0	1	2000	0	0			0	0			1				0	
6.6.1	win	2023-06-23	15:24:06	15:28:19	251163	5cef892f0c5fb30018fbdfbe	3	1	practice_slash	5	advance_on_keypress_SLASH	32	stimuli_distractor_diamondtriangles.svg	stimuli_distractor_trianglediamonds.svg	14	no	57	0	636	0	0			0	0			1				0	
6.6.1	win	2023-06-23	15:24:06	15:28:36	267569	5cef892f0c5fb30018fbdfbe	3	1	main_slash	7	main_slash	1	stimuli_distractor_trianglediamonds.svg	stimuli_target_diamondrectangles.svg	27	yes	53	1	1028	0	0			0	0			1				0	
6.6.1	win	2023-06-23	15:24:06	15:28:36	267569	5cef892f0c5fb30018fbdfbe	3	1	main_slash	7	advance_on_keypress_SLASH	2	stimuli_distractor_trianglediamonds.svg	stimuli_target_diamondrectangles.svg	27	yes	57	0	978	0	0			0	0			1				0	
6.6.1	win	2023-06-23	15:24:06	15:28:38	269855	5cef892f0c5fb30018fbdfbe	3	1	main_slash	7	main_slash	3	stimuli_distractor_diamondtriangles.svg	stimuli_target_squaretriangles.svg	15	yes	53	1	647	0	0			0	0			1				0	
6.6.1	win	2023-06-23	15:24:06	15:28:38	269855	5cef892f0c5fb30018fbdfbe	3	1	main_slash	7	advance_on_keypress_SLASH	4	stimuli_distractor_diamondtriangles.svg	stimuli_target_squaretriangles.svg	15	yes	57	0	774	0	0			0	0			1				0	
6.6.1	win	2023-06-23	15:24:06	15:28:40	272189	5cef892f0c5fb30018fbdfbe	3	1	main_slash	7	main_slash	5	stimuli_distractor_diamondtriangles.svg	stimuli_distractor_trianglediamonds.svg	38	no	53	0	915	0	0			0	0			1				0	
6.6.1	win	2023-06-23	15:24:06	15:28:40	272189	5cef892f0c5fb30018fbdfbe	3	1	main_slash	7	advance_on_keypress_SLASH	6	stimuli_distractor_diamondtriangles.svg	stimuli_distractor_trianglediamonds.svg	38	no	57	0	764	0	0			0	0			1				0	
6.6.1	win	2023-06-23	15:24:06	15:28:42	274234	5cef892f0c5fb30018fbdfbe	3	1	main_slash	7	main_slash	7	stimuli_target_squarediamonds.svg	stimuli_distractor_diamondtriangles.svg	8	yes	53	1	628	0	0			0	0			1				0	
6.6.1	win	2023-06-23	15:24:06	15:28:42	274234	5cef892f0c5fb30018fbdfbe	3	1	main_slash	7	advance_on_keypress_SLASH	8	stimuli_target_squarediamonds.svg	stimuli_distractor_diamondtriangles.svg	8	yes	57	0	1482	0	0			0	0			1				0	
6.6.1	win	2023-06-23	15:24:06	15:28:45	277146	5cef892f0c5fb30018fbdfbe	3	1	main_slash	7	main_slash	9	stimuli_distractor_trianglediamonds.svg	stimuli_target_rectanglediamonds.svg	10	yes	53	1	789	0	0			0	0			1				0	
6.6.1	win	2023-06-23	15:24:06	15:28:45	277146	5cef892f0c5fb30018fbdfbe	3	1	main_slash	7	advance_on_keypress_SLASH	10	stimuli_distractor_trianglediamonds.svg	stimuli_target_rectanglediamonds.svg	10	yes	57	0	750	0	0			0	0			1				0	
6.6.1	win	2023-06-23	15:24:06	15:28:48	280539	5cef892f0c5fb30018fbdfbe	3	1	main_slash	7	main_slash	11	stimuli_distractor_diamondtriangles.svg	stimuli_distractor_trianglediamonds.svg	37	no	0	1	2000	0	0			0	0			1				0	
6.6.1	win	2023-06-23	15:24:06	15:28:48	280539	5cef892f0c5fb30018fbdfbe	3	1	main_slash	7	advance_on_keypress_SLASH	12	stimuli_distractor_diamondtriangles.svg	stimuli_distractor_trianglediamonds.svg	37	no	57	0	762	0	0			0	0			1				0	
6.6.1	win	2023-06-23	15:24:06	15:28:51	282639	5cef892f0c5fb30018fbdfbe	3	1	main_slash	7	main_slash	13	stimuli_distractor_diamondtriangles.svg	stimuli_target_trianglerectangles.svg	29	yes	53	1	700	0	0			0	0			1				0	
6.6.1	win	2023-06-23	15:24:06	15:28:51	282639	5cef892f0c5fb30018fbdfbe	3	1	main_slash	7	advance_on_keypress_SLASH	14	stimuli_distractor_diamondtriangles.svg	stimuli_target_trianglerectangles.svg	29	yes	57	0	713	0	0			0	0			1				0	
6.6.1	win	2023-06-23	15:24:06	15:28:54	286005	5cef892f0c5fb30018fbdfbe	3	1	main_slash	7	main_slash	15	stimuli_distractor_trianglediamonds.svg	stimuli_distractor_trianglediamonds.svg	34	no	0	1	2000	0	0			0	0			1				0	
6.6.1	win	2023-06-23	15:24:06	15:28:54	286005	5cef892f0c5fb30018fbdfbe	3	1	main_slash	7	advance_on_keypress_SLASH	16	stimuli_distractor_trianglediamonds.svg	stimuli_distractor_trianglediamonds.svg	34	no	57	0	500	0	0			0	0			1				0	
6.6.1	win	2023-06-23	15:24:06	15:28:56	287810	5cef892f0c5fb30018fbdfbe	3	1	main_slash	7	main_slash	17	stimuli_target_trianglesquares.svg	stimuli_distractor_diamondtriangles.svg	22	yes	53	1	656	0	0			0	0			1				0	
6.6.1	win	2023-06-23	15:24:06	15:28:56	287810	5cef892f0c5fb30018fbdfbe	3	1	main_slash	7	advance_on_keypress_SLASH	18	stimuli_target_trianglesquares.svg	stimuli_distractor_diamondtriangles.svg	22	yes	57	0	921	0	0			0	0			1				0	
6.6.1	win	2023-06-23	15:24:06	15:28:58	290337	5cef892f0c5fb30018fbdfbe	3	1	main_slash	7	main_slash	19	stimuli_target_diamondrectangles.svg	stimuli_distractor_diamondtriangles.svg	23	yes	53	1	967	0	0			0	0			1				0	
6.6.1	win	2023-06-23	15:24:06	15:28:58	290337	5cef892f0c5fb30018fbdfbe	3	1	main_slash	7	advance_on_keypress_SLASH	20	stimuli_target_diamondrectangles.svg	stimuli_distractor_diamondtriangles.svg	23	yes	57	0	779	0	0			0	0			1				0	
6.6.1	win	2023-06-23	15:24:06	15:29:00	292402	5cef892f0c5fb30018fbdfbe	3	1	main_slash	7	main_slash	21	stimuli_distractor_diamondtriangles.svg	stimuli_target_diamondsquares.svg	32	yes	53	1	649	0	0			0	0			1				0	
6.6.1	win	2023-06-23	15:24:06	15:29:00	292402	5cef892f0c5fb30018fbdfbe	3	1	main_slash	7	advance_on_keypress_SLASH	22	stimuli_distractor_diamondtriangles.svg	stimuli_target_diamondsquares.svg	32	yes	57	0	669	0	0			0	0			1				0	
6.6.1	win	2023-06-23	15:24:06	15:29:02	294479	5cef892f0c5fb30018fbdfbe	3	1	main_slash	7	main_slash	23	stimuli_target_trianglesquares.svg	stimuli_distractor_trianglediamonds.svg	18	yes	53	1	760	0	0			0	0			1				0	
6.6.1	win	2023-06-23	15:24:06	15:29:02	294479	5cef892f0c5fb30018fbdfbe	3	1	main_slash	7	advance_on_keypress_SLASH	24	stimuli_target_trianglesquares.svg	stimuli_distractor_trianglediamonds.svg	18	yes	57	0	694	0	0			0	0			1				0	
6.6.1	win	2023-06-23	15:24:06	15:29:05	297199	5cef892f0c5fb30018fbdfbe	3	1	main_slash	7	main_slash	25	stimuli_target_squaretriangles.svg	stimuli_distractor_trianglediamonds.svg	3	yes	53	1	1396	0	0			0	0			1				0	
6.6.1	win	2023-06-23	15:24:06	15:29:05	297199	5cef892f0c5fb30018fbdfbe	3	1	main_slash	7	advance_on_keypress_SLASH	26	stimuli_target_squaretriangles.svg	stimuli_distractor_trianglediamonds.svg	3	yes	57	0	1051	0	0			0	0			1				0	
6.6.1	win	2023-06-23	15:24:06	15:29:08	299659	5cef892f0c5fb30018fbdfbe	3	1	main_slash	7	main_slash	27	stimuli_target_squaretriangles.svg	stimuli_distractor_diamondtriangles.svg	7	yes	53	1	756	0	0			0	0			1				0	
6.6.1	win	2023-06-23	15:24:06	15:29:08	299659	5cef892f0c5fb30018fbdfbe	3	1	main_slash	7	advance_on_keypress_SLASH	28	stimuli_target_squaretriangles.svg	stimuli_distractor_diamondtriangles.svg	7	yes	57	0	740	0	0			0	0			1				0	
6.6.1	win	2023-06-23	15:24:06	15:29:10	301884	5cef892f0c5fb30018fbdfbe	3	1	main_slash	7	main_slash	29	stimuli_distractor_trianglediamonds.svg	stimuli_target_trianglerectangles.svg	25	yes	53	1	848	0	0			0	0			1				0	
6.6.1	win	2023-06-23	15:24:06	15:29:10	301884	5cef892f0c5fb30018fbdfbe	3	1	main_slash	7	advance_on_keypress_SLASH	30	stimuli_distractor_trianglediamonds.svg	stimuli_target_trianglerectangles.svg	25	yes	57	0	605	0	0			0	0			1				0	
6.6.1	win	2023-06-23	15:24:06	15:29:12	303950	5cef892f0c5fb30018fbdfbe	3	1	main_slash	7	main_slash	31	stimuli_target_trianglerectangles.svg	stimuli_distractor_diamondtriangles.svg	21	yes	53	1	815	0	0			0	0			1				0	
6.6.1	win	2023-06-23	15:24:06	15:29:12	303950	5cef892f0c5fb30018fbdfbe	3	1	main_slash	7	advance_on_keypress_SLASH	32	stimuli_target_trianglerectangles.svg	stimuli_distractor_diamondtriangles.svg	21	yes	57	0	972	0	0			0	0			1				0	
6.6.1	win	2023-06-23	15:24:06	15:29:14	306491	5cef892f0c5fb30018fbdfbe	3	1	main_slash	7	main_slash	33	stimuli_distractor_diamondtriangles.svg	stimuli_target_rectangletriangles.svg	13	yes	53	1	923	0	0			0	0			1				0	
6.6.1	win	2023-06-23	15:24:06	15:29:14	306491	5cef892f0c5fb30018fbdfbe	3	1	main_slash	7	advance_on_keypress_SLASH	34	stimuli_distractor_diamondtriangles.svg	stimuli_target_rectangletriangles.svg	13	yes	57	0	883	0	0			0	0			1				0	
6.6.1	win	2023-06-23	15:24:06	15:29:17	308825	5cef892f0c5fb30018fbdfbe	3	1	main_slash	7	main_slash	35	stimuli_distractor_trianglediamonds.svg	stimuli_target_trianglesquares.svg	26	yes	53	1	807	0	0			0	0			1				0	
6.6.1	win	2023-06-23	15:24:06	15:29:17	308825	5cef892f0c5fb30018fbdfbe	3	1	main_slash	7	advance_on_keypress_SLASH	36	stimuli_distractor_trianglediamonds.svg	stimuli_target_trianglesquares.svg	26	yes	57	0	868	0	0			0	0			1				0	
6.6.1	win	2023-06-23	15:24:06	15:29:20	312334	5cef892f0c5fb30018fbdfbe	3	1	main_slash	7	main_slash	37	stimuli_distractor_trianglediamonds.svg	stimuli_distractor_trianglediamonds.svg	33	no	0	1	2000	0	0			0	0			1				0	
6.6.1	win	2023-06-23	15:24:06	15:29:20	312334	5cef892f0c5fb30018fbdfbe	3	1	main_slash	7	advance_on_keypress_SLASH	38	stimuli_distractor_trianglediamonds.svg	stimuli_distractor_trianglediamonds.svg	33	no	57	0	735	0	0			0	0			1				0	
6.6.1	win	2023-06-23	15:24:06	15:29:23	314622	5cef892f0c5fb30018fbdfbe	3	1	main_slash	7	main_slash	39	stimuli_distractor_trianglediamonds.svg	stimuli_distractor_diamondtriangles.svg	35	no	53	0	905	0	0			0	0			1				0	
6.6.1	win	2023-06-23	15:24:06	15:29:23	314622	5cef892f0c5fb30018fbdfbe	3	1	main_slash	7	advance_on_keypress_SLASH	40	stimuli_distractor_trianglediamonds.svg	stimuli_distractor_diamondtriangles.svg	35	no	57	0	1052	0	0			0	0			1				0	
6.6.1	win	2023-06-23	15:24:06	15:29:25	317236	5cef892f0c5fb30018fbdfbe	3	1	main_slash	7	main_slash	41	stimuli_distractor_diamondtriangles.svg	stimuli_target_diamondrectangles.svg	31	yes	53	1	919	0	0			0	0			1				0	
6.6.1	win	2023-06-23	15:24:06	15:29:25	317236	5cef892f0c5fb30018fbdfbe	3	1	main_slash	7	advance_on_keypress_SLASH	42	stimuli_distractor_diamondtriangles.svg	stimuli_target_diamondrectangles.svg	31	yes	57	0	648	0	0			0	0			1				0	
6.6.1	win	2023-06-23	15:24:06	15:29:27	319416	5cef892f0c5fb30018fbdfbe	3	1	main_slash	7	main_slash	43	stimuli_target_trianglerectangles.svg	stimuli_distractor_trianglediamonds.svg	17	yes	53	1	883	0	0			0	0			1				0	
6.6.1	win	2023-06-23	15:24:06	15:29:27	319416	5cef892f0c5fb30018fbdfbe	3	1	main_slash	7	advance_on_keypress_SLASH	44	stimuli_target_trianglerectangles.svg	stimuli_distractor_trianglediamonds.svg	17	yes	57	0	716	0	0			0	0			1				0	
6.6.1	win	2023-06-23	15:24:06	15:29:30	321611	5cef892f0c5fb30018fbdfbe	3	1	main_slash	7	main_slash	45	stimuli_target_squarediamonds.svg	stimuli_distractor_trianglediamonds.svg	4	yes	53	1	828	0	0			0	0			1				0	
6.6.1	win	2023-06-23	15:24:06	15:29:30	321611	5cef892f0c5fb30018fbdfbe	3	1	main_slash	7	advance_on_keypress_SLASH	46	stimuli_target_squarediamonds.svg	stimuli_distractor_trianglediamonds.svg	4	yes	57	0	757	0	0			0	0			1				0	
6.6.1	win	2023-06-23	15:24:06	15:29:32	323751	5cef892f0c5fb30018fbdfbe	3	1	main_slash	7	main_slash	47	stimuli_target_rectanglediamonds.svg	stimuli_distractor_trianglediamonds.svg	2	yes	53	1	752	0	0			0	0			1				0	
6.6.1	win	2023-06-23	15:24:06	15:29:32	323751	5cef892f0c5fb30018fbdfbe	3	1	main_slash	7	advance_on_keypress_SLASH	48	stimuli_target_rectanglediamonds.svg	stimuli_distractor_trianglediamonds.svg	2	yes	57	0	658	0	0			0	0			1				0	
6.6.1	win	2023-06-23	15:24:06	15:29:35	327048	5cef892f0c5fb30018fbdfbe	3	1	main_slash	7	main_slash	49	stimuli_distractor_trianglediamonds.svg	stimuli_distractor_diamondtriangles.svg	36	no	0	1	2000	0	0			0	0			1				0	
6.6.1	win	2023-06-23	15:24:06	15:29:35	327048	5cef892f0c5fb30018fbdfbe	3	1	main_slash	7	advance_on_keypress_SLASH	50	stimuli_distractor_trianglediamonds.svg	stimuli_distractor_diamondtriangles.svg	36	no	57	0	547	0	0			0	0			1				0	
6.6.1	win	2023-06-23	15:24:06	15:29:37	328839	5cef892f0c5fb30018fbdfbe	3	1	main_slash	7	main_slash	51	stimuli_target_rectangletriangles.svg	stimuli_distractor_trianglediamonds.svg	1	yes	53	1	592	0	0			0	0			1				0	
6.6.1	win	2023-06-23	15:24:06	15:29:37	328839	5cef892f0c5fb30018fbdfbe	3	1	main_slash	7	advance_on_keypress_SLASH	52	stimuli_target_rectangletriangles.svg	stimuli_distractor_trianglediamonds.svg	1	yes	57	0	690	0	0			0	0			1				0	
6.6.1	win	2023-06-23	15:24:06	15:29:39	330838	5cef892f0c5fb30018fbdfbe	3	1	main_slash	7	main_slash	53	stimuli_target_diamondsquares.svg	stimuli_distractor_diamondtriangles.svg	24	yes	53	1	675	0	0			0	0			1				0	
6.6.1	win	2023-06-23	15:24:06	15:29:39	330838	5cef892f0c5fb30018fbdfbe	3	1	main_slash	7	advance_on_keypress_SLASH	54	stimuli_target_diamondsquares.svg	stimuli_distractor_diamondtriangles.svg	24	yes	57	0	546	0	0			0	0			1				0	
6.6.1	win	2023-06-23	15:24:06	15:29:41	332797	5cef892f0c5fb30018fbdfbe	3	1	main_slash	7	main_slash	55	stimuli_target_rectanglediamonds.svg	stimuli_distractor_diamondtriangles.svg	6	yes	53	1	766	0	0			0	0			1				0	
6.6.1	win	2023-06-23	15:24:06	15:29:41	332797	5cef892f0c5fb30018fbdfbe	3	1	main_slash	7	advance_on_keypress_SLASH	56	stimuli_target_rectanglediamonds.svg	stimuli_distractor_diamondtriangles.svg	6	yes	57	0	489	0	0			0	0			1				0	
6.6.1	win	2023-06-23	15:24:06	15:29:43	335022	5cef892f0c5fb30018fbdfbe	3	1	main_slash	7	main_slash	57	stimuli_distractor_trianglediamonds.svg	stimuli_target_diamondsquares.svg	28	yes	53	1	1093	0	0			0	0			1				0	
6.6.1	win	2023-06-23	15:24:06	15:29:43	335022	5cef892f0c5fb30018fbdfbe	3	1	main_slash	7	advance_on_keypress_SLASH	58	stimuli_distractor_trianglediamonds.svg	stimuli_target_diamondsquares.svg	28	yes	57	0	141	0	0			0	0			1				0	
6.6.1	win	2023-06-23	15:24:06	15:29:45	337347	5cef892f0c5fb30018fbdfbe	3	1	main_slash	7	main_slash	59	stimuli_distractor_trianglediamonds.svg	stimuli_target_rectangletriangles.svg	9	yes	53	1	1550	0	0			0	0			1				0	
6.6.1	win	2023-06-23	15:24:06	15:29:45	337347	5cef892f0c5fb30018fbdfbe	3	1	main_slash	7	advance_on_keypress_SLASH	60	stimuli_distractor_trianglediamonds.svg	stimuli_target_rectangletriangles.svg	9	yes	57	0	2903	0	0			0	0			1				0	
6.6.1	win	2023-06-23	15:24:06	15:29:49	341471	5cef892f0c5fb30018fbdfbe	3	1	main_slash	7	main_slash	61	stimuli_target_rectangletriangles.svg	stimuli_distractor_diamondtriangles.svg	5	yes	53	1	575	0	0			0	0			1				0	
6.6.1	win	2023-06-23	15:24:06	15:29:49	341471	5cef892f0c5fb30018fbdfbe	3	1	main_slash	7	advance_on_keypress_SLASH	62	stimuli_target_rectangletriangles.svg	stimuli_distractor_diamondtriangles.svg	5	yes	57	0	736	0	0			0	0			1				0	
6.6.1	win	2023-06-23	15:24:06	15:29:53	344846	5cef892f0c5fb30018fbdfbe	3	1	main_slash	7	main_slash	63	stimuli_distractor_diamondtriangles.svg	stimuli_distractor_diamondtriangles.svg	40	no	0	1	2000	0	0			0	0			1				0	
6.6.1	win	2023-06-23	15:24:06	15:29:53	344846	5cef892f0c5fb30018fbdfbe	3	1	main_slash	7	advance_on_keypress_SLASH	64	stimuli_distractor_diamondtriangles.svg	stimuli_distractor_diamondtriangles.svg	40	no	57	0	753	0	0			0	0			1				0	
6.6.1	win	2023-06-23	15:24:06	15:29:55	346826	5cef892f0c5fb30018fbdfbe	3	1	main_slash	7	main_slash	65	stimuli_target_diamondrectangles.svg	stimuli_distractor_trianglediamonds.svg	19	yes	53	1	581	0	0			0	0			1				0	
6.6.1	win	2023-06-23	15:24:06	15:29:55	346826	5cef892f0c5fb30018fbdfbe	3	1	main_slash	7	advance_on_keypress_SLASH	66	stimuli_target_diamondrectangles.svg	stimuli_distractor_trianglediamonds.svg	19	yes	57	0	872	0	0			0	0			1				0	
6.6.1	win	2023-06-23	15:24:06	15:29:58	349728	5cef892f0c5fb30018fbdfbe	3	1	main_slash	7	main_slash	67	stimuli_distractor_diamondtriangles.svg	stimuli_target_trianglesquares.svg	30	yes	53	1	1384	0	0			0	0			1				0	
6.6.1	win	2023-06-23	15:24:06	15:29:58	349728	5cef892f0c5fb30018fbdfbe	3	1	main_slash	7	advance_on_keypress_SLASH	68	stimuli_distractor_diamondtriangles.svg	stimuli_target_trianglesquares.svg	30	yes	57	0	2300	0	0			0	0			1				0	
6.6.1	win	2023-06-23	15:24:06	15:30:02	354141	5cef892f0c5fb30018fbdfbe	3	1	main_slash	7	main_slash	69	stimuli_distractor_diamondtriangles.svg	stimuli_target_squarediamonds.svg	16	yes	53	1	1464	0	0			0	0			1				0	
6.6.1	win	2023-06-23	15:24:06	15:30:02	354141	5cef892f0c5fb30018fbdfbe	3	1	main_slash	7	advance_on_keypress_SLASH	70	stimuli_distractor_diamondtriangles.svg	stimuli_target_squarediamonds.svg	16	yes	57	0	735	0	0			0	0			1				0	
6.6.1	win	2023-06-23	15:24:06	15:30:05	356674	5cef892f0c5fb30018fbdfbe	3	1	main_slash	7	main_slash	71	stimuli_distractor_trianglediamonds.svg	stimuli_target_squaretriangles.svg	11	yes	53	1	1148	0	0			0	0			1				0	
6.6.1	win	2023-06-23	15:24:06	15:30:05	356674	5cef892f0c5fb30018fbdfbe	3	1	main_slash	7	advance_on_keypress_SLASH	72	stimuli_distractor_trianglediamonds.svg	stimuli_target_squaretriangles.svg	11	yes	57	0	706	0	0			0	0			1				0	
6.6.1	win	2023-06-23	15:24:06	15:30:08	360026	5cef892f0c5fb30018fbdfbe	3	1	main_slash	7	main_slash	73	stimuli_distractor_diamondtriangles.svg	stimuli_distractor_diamondtriangles.svg	39	no	0	1	2000	0	0			0	0			1				0	
6.6.1	win	2023-06-23	15:24:06	15:30:08	360026	5cef892f0c5fb30018fbdfbe	3	1	main_slash	7	advance_on_keypress_SLASH	74	stimuli_distractor_diamondtriangles.svg	stimuli_distractor_diamondtriangles.svg	39	no	57	0	598	0	0			0	0			1				0	
6.6.1	win	2023-06-23	15:24:06	15:30:10	362369	5cef892f0c5fb30018fbdfbe	3	1	main_slash	7	main_slash	75	stimuli_distractor_trianglediamonds.svg	stimuli_target_squarediamonds.svg	12	yes	53	1	1094	0	0			0	0			1				0	
6.6.1	win	2023-06-23	15:24:06	15:30:10	362369	5cef892f0c5fb30018fbdfbe	3	1	main_slash	7	advance_on_keypress_SLASH	76	stimuli_distractor_trianglediamonds.svg	stimuli_target_squarediamonds.svg	12	yes	57	0	718	0	0			0	0			1				0	
6.6.1	win	2023-06-23	15:24:06	15:30:13	364898	5cef892f0c5fb30018fbdfbe	3	1	main_slash	7	main_slash	77	stimuli_target_diamondsquares.svg	stimuli_distractor_trianglediamonds.svg	20	yes	53	1	1173	0	0			0	0			1				0	
6.6.1	win	2023-06-23	15:24:06	15:30:13	364898	5cef892f0c5fb30018fbdfbe	3	1	main_slash	7	advance_on_keypress_SLASH	78	stimuli_target_diamondsquares.svg	stimuli_distractor_trianglediamonds.svg	20	yes	57	0	750	0	0			0	0			1				0	
6.6.1	win	2023-06-23	15:24:06	15:30:15	367085	5cef892f0c5fb30018fbdfbe	3	1	main_slash	7	main_slash	79	stimuli_distractor_diamondtriangles.svg	stimuli_target_rectanglediamonds.svg	14	yes	53	1	793	0	0			0	0			1				0	
6.6.1	win	2023-06-23	15:24:06	15:30:15	367085	5cef892f0c5fb30018fbdfbe	3	1	main_slash	7	advance_on_keypress_SLASH	80	stimuli_distractor_diamondtriangles.svg	stimuli_target_rectanglediamonds.svg	14	yes	57	0	638	0	0			0	0			1				0	
6.6.1	win	2023-06-23	15:24:06	15:30:17	369067	5cef892f0c5fb30018fbdfbe	3	1	main_slash	7	main_slash	81	stimuli_target_trianglesquares.svg	stimuli_distractor_diamondtriangles.svg	22	yes	53	1	710	0	0			0	0			1				0	
6.6.1	win	2023-06-23	15:24:06	15:30:17	369067	5cef892f0c5fb30018fbdfbe	3	1	main_slash	7	advance_on_keypress_SLASH	82	stimuli_target_trianglesquares.svg	stimuli_distractor_diamondtriangles.svg	22	yes	57	0	637	0	0			0	0			1				0	
6.6.1	win	2023-06-23	15:24:06	15:30:20	372341	5cef892f0c5fb30018fbdfbe	3	1	main_slash	7	main_slash	83	stimuli_distractor_trianglediamonds.svg	stimuli_distractor_diamondtriangles.svg	35	no	0	1	2000	0	0			0	0			1				0	
6.6.1	win	2023-06-23	15:24:06	15:30:20	372341	5cef892f0c5fb30018fbdfbe	3	1	main_slash	7	advance_on_keypress_SLASH	84	stimuli_distractor_trianglediamonds.svg	stimuli_distractor_diamondtriangles.svg	35	no	57	0	509	0	0			0	0			1				0	
6.6.1	win	2023-06-23	15:24:06	15:30:23	375490	5cef892f0c5fb30018fbdfbe	3	1	main_slash	7	main_slash	85	stimuli_distractor_trianglediamonds.svg	stimuli_distractor_diamondtriangles.svg	36	no	0	1	2000	0	0			0	0			1				0	
6.6.1	win	2023-06-23	15:24:06	15:30:23	375490	5cef892f0c5fb30018fbdfbe	3	1	main_slash	7	advance_on_keypress_SLASH	86	stimuli_distractor_trianglediamonds.svg	stimuli_distractor_diamondtriangles.svg	36	no	57	0	485	0	0			0	0			1				0	
6.6.1	win	2023-06-23	15:24:06	15:30:27	378623	5cef892f0c5fb30018fbdfbe	3	1	main_slash	7	main_slash	87	stimuli_distractor_diamondtriangles.svg	stimuli_target_trianglesquares.svg	30	yes	0	0	2000	0	0			0	0			1				0	
6.6.1	win	2023-06-23	15:24:06	15:30:27	378623	5cef892f0c5fb30018fbdfbe	3	1	main_slash	7	advance_on_keypress_SLASH	88	stimuli_distractor_diamondtriangles.svg	stimuli_target_trianglesquares.svg	30	yes	57	0	797	0	0			0	0			1				0	
6.6.1	win	2023-06-23	15:24:06	15:30:29	381128	5cef892f0c5fb30018fbdfbe	3	1	main_slash	7	main_slash	89	stimuli_distractor_diamondtriangles.svg	stimuli_target_rectanglediamonds.svg	14	yes	53	1	1055	0	0			0	0			1				0	
6.6.1	win	2023-06-23	15:24:06	15:30:29	381128	5cef892f0c5fb30018fbdfbe	3	1	main_slash	7	advance_on_keypress_SLASH	90	stimuli_distractor_diamondtriangles.svg	stimuli_target_rectanglediamonds.svg	14	yes	57	0	682	0	0			0	0			1				0	
6.6.1	win	2023-06-23	15:24:06	15:30:32	384455	5cef892f0c5fb30018fbdfbe	3	1	main_slash	7	main_slash	91	stimuli_distractor_trianglediamonds.svg	stimuli_distractor_trianglediamonds.svg	33	no	0	1	2000	0	0			0	0			1				0	
6.6.1	win	2023-06-23	15:24:06	15:30:32	384455	5cef892f0c5fb30018fbdfbe	3	1	main_slash	7	advance_on_keypress_SLASH	92	stimuli_distractor_trianglediamonds.svg	stimuli_distractor_trianglediamonds.svg	33	no	57	0	8306	0	0			0	0			1				0	
6.6.1	win	2023-06-23	15:24:06	15:30:42	394424	5cef892f0c5fb30018fbdfbe	3	1	main_slash	7	main_slash	93	stimuli_distractor_trianglediamonds.svg	stimuli_target_squarediamonds.svg	12	yes	53	1	1020	0	0			0	0			1				0	
6.6.1	win	2023-06-23	15:24:06	15:30:42	394424	5cef892f0c5fb30018fbdfbe	3	1	main_slash	7	advance_on_keypress_SLASH	94	stimuli_distractor_trianglediamonds.svg	stimuli_target_squarediamonds.svg	12	yes	57	0	722	0	0			0	0			1				0	
6.6.1	win	2023-06-23	15:24:06	15:30:45	396845	5cef892f0c5fb30018fbdfbe	3	1	main_slash	7	main_slash	95	stimuli_distractor_diamondtriangles.svg	stimuli_target_trianglerectangles.svg	29	yes	53	1	1059	0	0			0	0			1				0	
6.6.1	win	2023-06-23	15:24:06	15:30:45	396845	5cef892f0c5fb30018fbdfbe	3	1	main_slash	7	advance_on_keypress_SLASH	96	stimuli_distractor_diamondtriangles.svg	stimuli_target_trianglerectangles.svg	29	yes	57	0	494	0	0			0	0			1				0	
6.6.1	win	2023-06-23	15:24:06	15:30:48	399970	5cef892f0c5fb30018fbdfbe	3	1	main_slash	7	main_slash	97	stimuli_distractor_diamondtriangles.svg	stimuli_distractor_diamondtriangles.svg	39	no	0	1	2000	0	0			0	0			1				0	
6.6.1	win	2023-06-23	15:24:06	15:30:48	399970	5cef892f0c5fb30018fbdfbe	3	1	main_slash	7	advance_on_keypress_SLASH	98	stimuli_distractor_diamondtriangles.svg	stimuli_distractor_diamondtriangles.svg	39	no	57	0	483	0	0			0	0			1				0	
6.6.1	win	2023-06-23	15:24:06	15:30:50	401827	5cef892f0c5fb30018fbdfbe	3	1	main_slash	7	main_slash	99	stimuli_target_trianglerectangles.svg	stimuli_distractor_diamondtriangles.svg	21	yes	53	1	724	0	0			0	0			1				0	
6.6.1	win	2023-06-23	15:24:06	15:30:50	401827	5cef892f0c5fb30018fbdfbe	3	1	main_slash	7	advance_on_keypress_SLASH	100	stimuli_target_trianglerectangles.svg	stimuli_distractor_diamondtriangles.svg	21	yes	57	0	714	0	0			0	0			1				0	
6.6.1	win	2023-06-23	15:24:06	15:30:52	404192	5cef892f0c5fb30018fbdfbe	3	1	main_slash	7	main_slash	101	stimuli_target_rectanglediamonds.svg	stimuli_distractor_trianglediamonds.svg	2	yes	53	1	1007	0	0			0	0			1				0	
6.6.1	win	2023-06-23	15:24:06	15:30:52	404192	5cef892f0c5fb30018fbdfbe	3	1	main_slash	7	advance_on_keypress_SLASH	102	stimuli_target_rectanglediamonds.svg	stimuli_distractor_trianglediamonds.svg	2	yes	57	0	705	0	0			0	0			1				0	
6.6.1	win	2023-06-23	15:24:06	15:30:54	406530	5cef892f0c5fb30018fbdfbe	3	1	main_slash	7	main_slash	103	stimuli_target_diamondsquares.svg	stimuli_distractor_trianglediamonds.svg	20	yes	53	1	994	0	0			0	0			1				0	
6.6.1	win	2023-06-23	15:24:06	15:30:54	406530	5cef892f0c5fb30018fbdfbe	3	1	main_slash	7	advance_on_keypress_SLASH	104	stimuli_target_diamondsquares.svg	stimuli_distractor_trianglediamonds.svg	20	yes	57	0	881	0	0			0	0			1				0	
6.6.1	win	2023-06-23	15:24:06	15:30:58	410051	5cef892f0c5fb30018fbdfbe	3	1	main_slash	7	main_slash	105	stimuli_distractor_diamondtriangles.svg	stimuli_distractor_trianglediamonds.svg	37	no	0	1	2000	0	0			0	0			1				0	
6.6.1	win	2023-06-23	15:24:06	15:30:58	410051	5cef892f0c5fb30018fbdfbe	3	1	main_slash	7	advance_on_keypress_SLASH	106	stimuli_distractor_diamondtriangles.svg	stimuli_distractor_trianglediamonds.svg	37	no	57	0	536	0	0			0	0			1				0	
6.6.1	win	2023-06-23	15:24:06	15:31:00	412201	5cef892f0c5fb30018fbdfbe	3	1	main_slash	7	main_slash	107	stimuli_distractor_trianglediamonds.svg	stimuli_target_rectanglediamonds.svg	10	yes	53	1	966	0	0			0	0			1				0	
6.6.1	win	2023-06-23	15:24:06	15:31:00	412201	5cef892f0c5fb30018fbdfbe	3	1	main_slash	7	advance_on_keypress_SLASH	108	stimuli_distractor_trianglediamonds.svg	stimuli_target_rectanglediamonds.svg	10	yes	57	0	738	0	0			0	0			1				0	
6.6.1	win	2023-06-23	15:24:06	15:31:02	414260	5cef892f0c5fb30018fbdfbe	3	1	main_slash	7	main_slash	109	stimuli_target_squarediamonds.svg	stimuli_distractor_trianglediamonds.svg	4	yes	53	1	677	0	0			0	0			1				0	
6.6.1	win	2023-06-23	15:24:06	15:31:02	414260	5cef892f0c5fb30018fbdfbe	3	1	main_slash	7	advance_on_keypress_SLASH	110	stimuli_target_squarediamonds.svg	stimuli_distractor_trianglediamonds.svg	4	yes	57	0	862	0	0			0	0			1				0	
6.6.1	win	2023-06-23	15:24:06	15:31:05	416725	5cef892f0c5fb30018fbdfbe	3	1	main_slash	7	main_slash	111	stimuli_distractor_diamondtriangles.svg	stimuli_target_squaretriangles.svg	15	yes	53	1	975	0	0			0	0			1				0	
6.6.1	win	2023-06-23	15:24:06	15:31:05	416725	5cef892f0c5fb30018fbdfbe	3	1	main_slash	7	advance_on_keypress_SLASH	112	stimuli_distractor_diamondtriangles.svg	stimuli_target_squaretriangles.svg	15	yes	57	0	979	0	0			0	0			1				0	
6.6.1	win	2023-06-23	15:24:06	15:31:07	418954	5cef892f0c5fb30018fbdfbe	3	1	main_slash	7	main_slash	113	stimuli_target_squaretriangles.svg	stimuli_distractor_trianglediamonds.svg	3	yes	53	1	604	0	0			0	0			1				0	
6.6.1	win	2023-06-23	15:24:06	15:31:07	418954	5cef892f0c5fb30018fbdfbe	3	1	main_slash	7	advance_on_keypress_SLASH	114	stimuli_target_squaretriangles.svg	stimuli_distractor_trianglediamonds.svg	3	yes	57	0	990	0	0			0	0			1				0	
6.6.1	win	2023-06-23	15:24:06	15:31:09	421229	5cef892f0c5fb30018fbdfbe	3	1	main_slash	7	main_slash	115	stimuli_target_diamondrectangles.svg	stimuli_distractor_diamondtriangles.svg	23	yes	53	1	647	0	0			0	0			1				0	
6.6.1	win	2023-06-23	15:24:06	15:31:09	421229	5cef892f0c5fb30018fbdfbe	3	1	main_slash	7	advance_on_keypress_SLASH	116	stimuli_target_diamondrectangles.svg	stimuli_distractor_diamondtriangles.svg	23	yes	57	0	708	0	0			0	0			1				0	
6.6.1	win	2023-06-23	15:24:06	15:31:11	423464	5cef892f0c5fb30018fbdfbe	3	1	main_slash	7	main_slash	117	stimuli_distractor_trianglediamonds.svg	stimuli_target_diamondrectangles.svg	27	yes	53	1	881	0	0			0	0			1				0	
6.6.1	win	2023-06-23	15:24:06	15:31:11	423464	5cef892f0c5fb30018fbdfbe	3	1	main_slash	7	advance_on_keypress_SLASH	118	stimuli_distractor_trianglediamonds.svg	stimuli_target_diamondrectangles.svg	27	yes	57	0	632	0	0			0	0			1				0	
6.6.1	win	2023-06-23	15:24:06	15:31:13	425446	5cef892f0c5fb30018fbdfbe	3	1	main_slash	7	main_slash	119	stimuli_distractor_trianglediamonds.svg	stimuli_target_trianglesquares.svg	26	yes	53	1	697	0	0			0	0			1				0	
6.6.1	win	2023-06-23	15:24:06	15:31:13	425446	5cef892f0c5fb30018fbdfbe	3	1	main_slash	7	advance_on_keypress_SLASH	120	stimuli_distractor_trianglediamonds.svg	stimuli_target_trianglesquares.svg	26	yes	57	0	708	0	0			0	0			1				0	
6.6.1	win	2023-06-23	15:24:06	15:31:16	427614	5cef892f0c5fb30018fbdfbe	3	1	main_slash	7	main_slash	121	stimuli_distractor_trianglediamonds.svg	stimuli_target_trianglerectangles.svg	25	yes	53	1	816	0	0			0	0			1				0	
6.6.1	win	2023-06-23	15:24:06	15:31:16	427614	5cef892f0c5fb30018fbdfbe	3	1	main_slash	7	advance_on_keypress_SLASH	122	stimuli_distractor_trianglediamonds.svg	stimuli_target_trianglerectangles.svg	25	yes	57	0	732	0	0			0	0			1				0	
6.6.1	win	2023-06-23	15:24:06	15:31:18	429750	5cef892f0c5fb30018fbdfbe	3	1	main_slash	7	main_slash	123	stimuli_distractor_diamondtriangles.svg	stimuli_target_diamondsquares.svg	32	yes	53	1	752	0	0			0	0			1				0	
6.6.1	win	2023-06-23	15:24:06	15:31:18	429750	5cef892f0c5fb30018fbdfbe	3	1	main_slash	7	advance_on_keypress_SLASH	124	stimuli_distractor_diamondtriangles.svg	stimuli_target_diamondsquares.svg	32	yes	57	0	622	0	0			0	0			1				0	
6.6.1	win	2023-06-23	15:24:06	15:31:20	431748	5cef892f0c5fb30018fbdfbe	3	1	main_slash	7	main_slash	125	stimuli_target_rectangletriangles.svg	stimuli_distractor_diamondtriangles.svg	5	yes	53	1	734	0	0			0	0			1				0	
6.6.1	win	2023-06-23	15:24:06	15:31:20	431748	5cef892f0c5fb30018fbdfbe	3	1	main_slash	7	advance_on_keypress_SLASH	126	stimuli_target_rectangletriangles.svg	stimuli_distractor_diamondtriangles.svg	5	yes	57	0	859	0	0			0	0			1				0	
6.6.1	win	2023-06-23	15:24:06	15:31:22	434078	5cef892f0c5fb30018fbdfbe	3	1	main_slash	7	main_slash	127	stimuli_distractor_trianglediamonds.svg	stimuli_target_diamondsquares.svg	28	yes	53	1	830	0	0			0	0			1				0	
6.6.1	win	2023-06-23	15:24:06	15:31:22	434078	5cef892f0c5fb30018fbdfbe	3	1	main_slash	7	advance_on_keypress_SLASH	128	stimuli_distractor_trianglediamonds.svg	stimuli_target_diamondsquares.svg	28	yes	57	0	693	0	0			0	0			1				0	
6.6.1	win	2023-06-23	15:24:06	15:31:24	436248	5cef892f0c5fb30018fbdfbe	3	1	main_slash	7	main_slash	129	stimuli_distractor_diamondtriangles.svg	stimuli_target_diamondrectangles.svg	31	yes	53	1	834	0	0			0	0			1				0	
6.6.1	win	2023-06-23	15:24:06	15:31:24	436248	5cef892f0c5fb30018fbdfbe	3	1	main_slash	7	advance_on_keypress_SLASH	130	stimuli_distractor_diamondtriangles.svg	stimuli_target_diamondrectangles.svg	31	yes	57	0	653	0	0			0	0			1				0	
6.6.1	win	2023-06-23	15:24:06	15:31:26	438288	5cef892f0c5fb30018fbdfbe	3	1	main_slash	7	main_slash	131	stimuli_distractor_trianglediamonds.svg	stimuli_target_squaretriangles.svg	11	yes	53	1	741	0	0			0	0			1				0	
6.6.1	win	2023-06-23	15:24:06	15:31:26	438288	5cef892f0c5fb30018fbdfbe	3	1	main_slash	7	advance_on_keypress_SLASH	132	stimuli_distractor_trianglediamonds.svg	stimuli_target_squaretriangles.svg	11	yes	57	0	573	0	0			0	0			1				0	
6.6.1	win	2023-06-23	15:24:06	15:31:29	441496	5cef892f0c5fb30018fbdfbe	3	1	main_slash	7	main_slash	133	stimuli_distractor_diamondtriangles.svg	stimuli_distractor_trianglediamonds.svg	38	no	0	1	2000	0	0			0	0			1				0	
6.6.1	win	2023-06-23	15:24:06	15:31:29	441496	5cef892f0c5fb30018fbdfbe	3	1	main_slash	7	advance_on_keypress_SLASH	134	stimuli_distractor_diamondtriangles.svg	stimuli_distractor_trianglediamonds.svg	38	no	57	0	781	0	0			0	0			1				0	
6.6.1	win	2023-06-23	15:24:06	15:31:31	443406	5cef892f0c5fb30018fbdfbe	3	1	main_slash	7	main_slash	135	stimuli_distractor_diamondtriangles.svg	stimuli_target_rectangletriangles.svg	13	yes	53	1	478	0	0			0	0			1				0	
6.6.1	win	2023-06-23	15:24:06	15:31:31	443406	5cef892f0c5fb30018fbdfbe	3	1	main_slash	7	advance_on_keypress_SLASH	136	stimuli_distractor_diamondtriangles.svg	stimuli_target_rectangletriangles.svg	13	yes	57	0	719	0	0			0	0			1				0	
6.6.1	win	2023-06-23	15:24:06	15:31:33	445497	5cef892f0c5fb30018fbdfbe	3	1	main_slash	7	main_slash	137	stimuli_target_squaretriangles.svg	stimuli_distractor_diamondtriangles.svg	7	yes	53	1	735	0	0			0	0			1				0	
6.6.1	win	2023-06-23	15:24:06	15:31:33	445497	5cef892f0c5fb30018fbdfbe	3	1	main_slash	7	advance_on_keypress_SLASH	138	stimuli_target_squaretriangles.svg	stimuli_distractor_diamondtriangles.svg	7	yes	57	0	665	0	0			0	0			1				0	
6.6.1	win	2023-06-23	15:24:06	15:31:36	447728	5cef892f0c5fb30018fbdfbe	3	1	main_slash	7	main_slash	139	stimuli_target_rectangletriangles.svg	stimuli_distractor_trianglediamonds.svg	1	yes	53	1	916	0	0			0	0			1				0	
6.6.1	win	2023-06-23	15:24:06	15:31:36	447728	5cef892f0c5fb30018fbdfbe	3	1	main_slash	7	advance_on_keypress_SLASH	140	stimuli_target_rectangletriangles.svg	stimuli_distractor_trianglediamonds.svg	1	yes	57	0	693	0	0			0	0			1				0	
6.6.1	win	2023-06-23	15:24:06	15:31:38	449752	5cef892f0c5fb30018fbdfbe	3	1	main_slash	7	main_slash	141	stimuli_target_trianglerectangles.svg	stimuli_distractor_trianglediamonds.svg	17	yes	53	1	690	0	0			0	0			1				0	
6.6.1	win	2023-06-23	15:24:06	15:31:38	449752	5cef892f0c5fb30018fbdfbe	3	1	main_slash	7	advance_on_keypress_SLASH	142	stimuli_target_trianglerectangles.svg	stimuli_distractor_trianglediamonds.svg	17	yes	57	0	579	0	0			0	0			1				0	
6.6.1	win	2023-06-23	15:24:06	15:31:40	451671	5cef892f0c5fb30018fbdfbe	3	1	main_slash	7	main_slash	143	stimuli_distractor_diamondtriangles.svg	stimuli_target_squarediamonds.svg	16	yes	53	1	694	0	0			0	0			1				0	
6.6.1	win	2023-06-23	15:24:06	15:31:40	451671	5cef892f0c5fb30018fbdfbe	3	1	main_slash	7	advance_on_keypress_SLASH	144	stimuli_distractor_diamondtriangles.svg	stimuli_target_squarediamonds.svg	16	yes	57	0	611	0	0			0	0			1				0	
6.6.1	win	2023-06-23	15:24:06	15:31:43	454911	5cef892f0c5fb30018fbdfbe	3	1	main_slash	7	main_slash	145	stimuli_distractor_trianglediamonds.svg	stimuli_distractor_trianglediamonds.svg	34	no	0	1	2000	0	0			0	0			1				0	
6.6.1	win	2023-06-23	15:24:06	15:31:43	454911	5cef892f0c5fb30018fbdfbe	3	1	main_slash	7	advance_on_keypress_SLASH	146	stimuli_distractor_trianglediamonds.svg	stimuli_distractor_trianglediamonds.svg	34	no	57	0	446	0	0			0	0			1				0	
6.6.1	win	2023-06-23	15:24:06	15:31:45	456710	5cef892f0c5fb30018fbdfbe	3	1	main_slash	7	main_slash	147	stimuli_target_rectanglediamonds.svg	stimuli_distractor_diamondtriangles.svg	6	yes	53	1	700	0	0			0	0			1				0	
6.6.1	win	2023-06-23	15:24:06	15:31:45	456710	5cef892f0c5fb30018fbdfbe	3	1	main_slash	7	advance_on_keypress_SLASH	148	stimuli_target_rectanglediamonds.svg	stimuli_distractor_diamondtriangles.svg	6	yes	57	0	730	0	0			0	0			1				0	
6.6.1	win	2023-06-23	15:24:06	15:31:48	460093	5cef892f0c5fb30018fbdfbe	3	1	main_slash	7	main_slash	149	stimuli_distractor_diamondtriangles.svg	stimuli_distractor_diamondtriangles.svg	40	no	0	1	2000	0	0			0	0			1				0	
6.6.1	win	2023-06-23	15:24:06	15:31:48	460093	5cef892f0c5fb30018fbdfbe	3	1	main_slash	7	advance_on_keypress_SLASH	150	stimuli_distractor_diamondtriangles.svg	stimuli_distractor_diamondtriangles.svg	40	no	57	0	342	0	0			0	0			1				0	
6.6.1	win	2023-06-23	15:24:06	15:31:50	461597	5cef892f0c5fb30018fbdfbe	3	1	main_slash	7	main_slash	151	stimuli_target_diamondsquares.svg	stimuli_distractor_diamondtriangles.svg	24	yes	53	1	522	0	0			0	0			1				0	
6.6.1	win	2023-06-23	15:24:06	15:31:50	461597	5cef892f0c5fb30018fbdfbe	3	1	main_slash	7	advance_on_keypress_SLASH	152	stimuli_target_diamondsquares.svg	stimuli_distractor_diamondtriangles.svg	24	yes	57	0	684	0	0			0	0			1				0	
6.6.1	win	2023-06-23	15:24:06	15:31:51	463440	5cef892f0c5fb30018fbdfbe	3	1	main_slash	7	main_slash	153	stimuli_target_diamondrectangles.svg	stimuli_distractor_trianglediamonds.svg	19	yes	53	1	505	0	0			0	0			1				0	
6.6.1	win	2023-06-23	15:24:06	15:31:51	463440	5cef892f0c5fb30018fbdfbe	3	1	main_slash	7	advance_on_keypress_SLASH	154	stimuli_target_diamondrectangles.svg	stimuli_distractor_trianglediamonds.svg	19	yes	57	0	633	0	0			0	0			1				0	
6.6.1	win	2023-06-23	15:24:06	15:31:53	465185	5cef892f0c5fb30018fbdfbe	3	1	main_slash	7	main_slash	155	stimuli_distractor_trianglediamonds.svg	stimuli_target_rectangletriangles.svg	9	yes	53	1	459	0	0			0	0			1				0	
6.6.1	win	2023-06-23	15:24:06	15:31:53	465185	5cef892f0c5fb30018fbdfbe	3	1	main_slash	7	advance_on_keypress_SLASH	156	stimuli_distractor_trianglediamonds.svg	stimuli_target_rectangletriangles.svg	9	yes	57	0	877	0	0			0	0			1				0	
6.6.1	win	2023-06-23	15:24:06	15:31:55	467372	5cef892f0c5fb30018fbdfbe	3	1	main_slash	7	main_slash	157	stimuli_target_squarediamonds.svg	stimuli_distractor_diamondtriangles.svg	8	yes	53	1	681	0	0			0	0			1				0	
6.6.1	win	2023-06-23	15:24:06	15:31:55	467372	5cef892f0c5fb30018fbdfbe	3	1	main_slash	7	advance_on_keypress_SLASH	158	stimuli_target_squarediamonds.svg	stimuli_distractor_diamondtriangles.svg	8	yes	57	0	532	0	0			0	0			1				0	
6.6.1	win	2023-06-23	15:24:06	15:31:57	469206	5cef892f0c5fb30018fbdfbe	3	1	main_slash	7	main_slash	159	stimuli_target_trianglesquares.svg	stimuli_distractor_trianglediamonds.svg	18	yes	53	1	648	0	0			0	0			1				0	
6.6.1	win	2023-06-23	15:24:06	15:31:57	469206	5cef892f0c5fb30018fbdfbe	3	1	main_slash	7	advance_on_keypress_SLASH	160	stimuli_target_trianglesquares.svg	stimuli_distractor_trianglediamonds.svg	18	yes	57	0	508	0	0			0	0			1				0	
6.6.1	win	2023-06-23	15:24:06	15:32:22	493615	5cef892f0c5fb30018fbdfbe	3	1	practice_z	9	practice_z	1	stimuli_distractor_diamondtriangles.svg	stimuli_target_rectangletriangles.svg	7	yes	44	1	592	0	0			0	0			1				0	
6.6.1	win	2023-06-23	15:24:06	15:32:22	493615	5cef892f0c5fb30018fbdfbe	3	1	practice_z	9	advance_on_keypress_ZEE	2	stimuli_distractor_diamondtriangles.svg	stimuli_target_rectangletriangles.svg	7	yes	57	0	567	0	0			0	0			1				0	
6.6.1	win	2023-06-23	15:24:06	15:32:26	497839	5cef892f0c5fb30018fbdfbe	3	1	practice_z	9	practice_z	3	stimuli_distractor_diamondtriangles.svg	stimuli_distractor_trianglediamonds.svg	14	no	0	1	2000	0	0			0	0			1				0	
6.6.1	win	2023-06-23	15:24:06	15:32:26	497839	5cef892f0c5fb30018fbdfbe	3	1	practice_z	9	advance_on_keypress_ZEE	4	stimuli_distractor_diamondtriangles.svg	stimuli_distractor_trianglediamonds.svg	14	no	57	0	882	0	0			0	0			1				0	
6.6.1	win	2023-06-23	15:24:06	15:32:29	500951	5cef892f0c5fb30018fbdfbe	3	1	practice_z	9	practice_z	5	stimuli_target_rectanglediamonds.svg	stimuli_distractor_trianglediamonds.svg	4	yes	44	1	579	0	0			0	0			1				0	
6.6.1	win	2023-06-23	15:24:06	15:32:29	500951	5cef892f0c5fb30018fbdfbe	3	1	practice_z	9	advance_on_keypress_ZEE	6	stimuli_target_rectanglediamonds.svg	stimuli_distractor_trianglediamonds.svg	4	yes	57	0	1065	0	0			0	0			1				0	
6.6.1	win	2023-06-23	15:24:06	15:32:32	504185	5cef892f0c5fb30018fbdfbe	3	1	practice_z	9	practice_z	7	stimuli_distractor_trianglediamonds.svg	stimuli_target_rectanglediamonds.svg	10	yes	44	1	513	0	0			0	0			1				0	
6.6.1	win	2023-06-23	15:24:06	15:32:32	504185	5cef892f0c5fb30018fbdfbe	3	1	practice_z	9	advance_on_keypress_ZEE	8	stimuli_distractor_trianglediamonds.svg	stimuli_target_rectanglediamonds.svg	10	yes	57	0	607	0	0			0	0			1				0	
6.6.1	win	2023-06-23	15:24:06	15:32:35	507294	5cef892f0c5fb30018fbdfbe	3	1	practice_z	9	practice_z	9	stimuli_distractor_diamondtriangles.svg	stimuli_target_trianglerectangles.svg	9	yes	44	1	857	0	0			0	0			1				0	
6.6.1	win	2023-06-23	15:24:06	15:32:35	507294	5cef892f0c5fb30018fbdfbe	3	1	practice_z	9	advance_on_keypress_ZEE	10	stimuli_distractor_diamondtriangles.svg	stimuli_target_trianglerectangles.svg	9	yes	57	0	499	0	0			0	0			1				0	
6.6.1	win	2023-06-23	15:24:06	15:32:38	510039	5cef892f0c5fb30018fbdfbe	3	1	practice_z	9	practice_z	11	stimuli_target_rectanglediamonds.svg	stimuli_distractor_diamondtriangles.svg	1	yes	44	1	601	0	0			0	0			1				0	
6.6.1	win	2023-06-23	15:24:06	15:32:38	510039	5cef892f0c5fb30018fbdfbe	3	1	practice_z	9	advance_on_keypress_ZEE	12	stimuli_target_rectanglediamonds.svg	stimuli_distractor_diamondtriangles.svg	1	yes	57	0	514	0	0			0	0			1				0	
6.6.1	win	2023-06-23	15:24:06	15:32:41	512692	5cef892f0c5fb30018fbdfbe	3	1	practice_z	9	practice_z	13	stimuli_target_diamondsquares.svg	stimuli_distractor_trianglediamonds.svg	6	yes	44	1	489	0	0			0	0			1				0	
6.6.1	win	2023-06-23	15:24:06	15:32:41	512692	5cef892f0c5fb30018fbdfbe	3	1	practice_z	9	advance_on_keypress_ZEE	14	stimuli_target_diamondsquares.svg	stimuli_distractor_trianglediamonds.svg	6	yes	57	0	526	0	0			0	0			1				0	
6.6.1	win	2023-06-23	15:24:06	15:32:44	515766	5cef892f0c5fb30018fbdfbe	3	1	practice_z	9	practice_z	15	stimuli_distractor_diamondtriangles.svg	stimuli_target_diamondrectangles.svg	8	yes	44	1	914	0	0			0	0			1				0	
6.6.1	win	2023-06-23	15:24:06	15:32:44	515766	5cef892f0c5fb30018fbdfbe	3	1	practice_z	9	advance_on_keypress_ZEE	16	stimuli_distractor_diamondtriangles.svg	stimuli_target_diamondrectangles.svg	8	yes	57	0	528	0	0			0	0			1				0	
6.6.1	win	2023-06-23	15:24:06	15:32:48	519952	5cef892f0c5fb30018fbdfbe	3	1	practice_z	9	practice_z	17	stimuli_distractor_diamondtriangles.svg	stimuli_distractor_diamondtriangles.svg	13	no	0	1	2000	0	0			0	0			1				0	
6.6.1	win	2023-06-23	15:24:06	15:32:48	519952	5cef892f0c5fb30018fbdfbe	3	1	practice_z	9	advance_on_keypress_ZEE	18	stimuli_distractor_diamondtriangles.svg	stimuli_distractor_diamondtriangles.svg	13	no	57	0	396	0	0			0	0			1				0	
6.6.1	win	2023-06-23	15:24:06	15:32:51	522682	5cef892f0c5fb30018fbdfbe	3	1	practice_z	9	practice_z	19	stimuli_target_diamondsquares.svg	stimuli_distractor_diamondtriangles.svg	3	yes	44	1	680	0	0			0	0			1				0	
6.6.1	win	2023-06-23	15:24:06	15:32:51	522682	5cef892f0c5fb30018fbdfbe	3	1	practice_z	9	advance_on_keypress_ZEE	20	stimuli_target_diamondsquares.svg	stimuli_distractor_diamondtriangles.svg	3	yes	57	0	763	0	0			0	0			1				0	
6.6.1	win	2023-06-23	15:24:06	15:32:54	525866	5cef892f0c5fb30018fbdfbe	3	1	practice_z	9	practice_z	21	stimuli_target_squarediamonds.svg	stimuli_distractor_diamondtriangles.svg	2	yes	44	1	765	0	0			0	0			1				0	
6.6.1	win	2023-06-23	15:24:06	15:32:54	525866	5cef892f0c5fb30018fbdfbe	3	1	practice_z	9	advance_on_keypress_ZEE	22	stimuli_target_squarediamonds.svg	stimuli_distractor_diamondtriangles.svg	2	yes	57	0	482	0	0			0	0			1				0	
6.6.1	win	2023-06-23	15:24:06	15:32:56	528382	5cef892f0c5fb30018fbdfbe	3	1	practice_z	9	practice_z	23	stimuli_target_squarediamonds.svg	stimuli_distractor_trianglediamonds.svg	5	yes	44	1	373	0	0			0	0			1				0	
6.6.1	win	2023-06-23	15:24:06	15:32:56	528382	5cef892f0c5fb30018fbdfbe	3	1	practice_z	9	advance_on_keypress_ZEE	24	stimuli_target_squarediamonds.svg	stimuli_distractor_trianglediamonds.svg	5	yes	57	0	565	0	0			0	0			1				0	
6.6.1	win	2023-06-23	15:24:06	15:33:01	532600	5cef892f0c5fb30018fbdfbe	3	1	practice_z	9	practice_z	25	stimuli_distractor_trianglediamonds.svg	stimuli_distractor_diamondtriangles.svg	16	no	0	1	2000	0	0			0	0			1				0	
6.6.1	win	2023-06-23	15:24:06	15:33:01	532600	5cef892f0c5fb30018fbdfbe	3	1	practice_z	9	advance_on_keypress_ZEE	26	stimuli_distractor_trianglediamonds.svg	stimuli_distractor_diamondtriangles.svg	16	no	57	0	710	0	0			0	0			1				0	
6.6.1	win	2023-06-23	15:24:06	15:33:05	536949	5cef892f0c5fb30018fbdfbe	3	1	practice_z	9	practice_z	27	stimuli_distractor_trianglediamonds.svg	stimuli_distractor_trianglediamonds.svg	15	no	0	1	2000	0	0			0	0			1				0	
6.6.1	win	2023-06-23	15:24:06	15:33:05	536949	5cef892f0c5fb30018fbdfbe	3	1	practice_z	9	advance_on_keypress_ZEE	28	stimuli_distractor_trianglediamonds.svg	stimuli_distractor_trianglediamonds.svg	15	no	57	0	938	0	0			0	0			1				0	
6.6.1	win	2023-06-23	15:24:06	15:33:08	540488	5cef892f0c5fb30018fbdfbe	3	1	practice_z	9	practice_z	29	stimuli_distractor_trianglediamonds.svg	stimuli_target_squarediamonds.svg	11	yes	44	1	957	0	0			0	0			1				0	
6.6.1	win	2023-06-23	15:24:06	15:33:08	540488	5cef892f0c5fb30018fbdfbe	3	1	practice_z	9	advance_on_keypress_ZEE	30	stimuli_distractor_trianglediamonds.svg	stimuli_target_squarediamonds.svg	11	yes	57	0	800	0	0			0	0			1				0	
6.6.1	win	2023-06-23	15:24:06	15:33:12	543673	5cef892f0c5fb30018fbdfbe	3	1	practice_z	9	practice_z	31	stimuli_distractor_trianglediamonds.svg	stimuli_target_diamondrectangles.svg	12	yes	44	1	741	0	0			0	0			1				0	
6.6.1	win	2023-06-23	15:24:06	15:33:12	543673	5cef892f0c5fb30018fbdfbe	3	1	practice_z	9	advance_on_keypress_ZEE	32	stimuli_distractor_trianglediamonds.svg	stimuli_target_diamondrectangles.svg	12	yes	57	0	522	0	0			0	0			1				0	
6.6.1	win	2023-06-23	15:24:06	15:33:44	576052	5cef892f0c5fb30018fbdfbe	3	1	main_z	11	main_z	1	stimuli_target_trianglerectangles.svg	stimuli_distractor_trianglediamonds.svg	17	yes	44	1	611	0	0			0	0			1				0	
6.6.1	win	2023-06-23	15:24:06	15:33:44	576052	5cef892f0c5fb30018fbdfbe	3	1	main_z	11	advance_on_keypress_ZEE	2	stimuli_target_trianglerectangles.svg	stimuli_distractor_trianglediamonds.svg	17	yes	57	0	1613	0	0			0	0			1				0	
6.6.1	win	2023-06-23	15:24:06	15:33:47	578851	5cef892f0c5fb30018fbdfbe	3	1	main_z	11	main_z	3	stimuli_target_trianglesquares.svg	stimuli_distractor_diamondtriangles.svg	22	yes	44	1	528	0	0			0	0			1				0	
6.6.1	win	2023-06-23	15:24:06	15:33:47	578851	5cef892f0c5fb30018fbdfbe	3	1	main_z	11	advance_on_keypress_ZEE	4	stimuli_target_trianglesquares.svg	stimuli_distractor_diamondtriangles.svg	22	yes	57	0	881	0	0			0	0			1				0	
6.6.1	win	2023-06-23	15:24:06	15:33:49	580851	5cef892f0c5fb30018fbdfbe	3	1	main_z	11	main_z	5	stimuli_target_diamondsquares.svg	stimuli_distractor_diamondtriangles.svg	24	yes	44	1	477	0	0			0	0			1				0	
6.6.1	win	2023-06-23	15:24:06	15:33:49	580851	5cef892f0c5fb30018fbdfbe	3	1	main_z	11	advance_on_keypress_ZEE	6	stimuli_target_diamondsquares.svg	stimuli_distractor_diamondtriangles.svg	24	yes	57	0	805	0	0			0	0			1				0	
6.6.1	win	2023-06-23	15:24:06	15:33:51	583008	5cef892f0c5fb30018fbdfbe	3	1	main_z	11	main_z	7	stimuli_target_rectangletriangles.svg	stimuli_distractor_diamondtriangles.svg	5	yes	44	1	718	0	0			0	0			1				0	
6.6.1	win	2023-06-23	15:24:06	15:33:51	583008	5cef892f0c5fb30018fbdfbe	3	1	main_z	11	advance_on_keypress_ZEE	8	stimuli_target_rectangletriangles.svg	stimuli_distractor_diamondtriangles.svg	5	yes	57	0	526	0	0			0	0			1				0	
6.6.1	win	2023-06-23	15:24:06	15:33:53	585164	5cef892f0c5fb30018fbdfbe	3	1	main_z	11	main_z	9	stimuli_distractor_diamondtriangles.svg	stimuli_target_trianglerectangles.svg	29	yes	44	1	992	0	0			0	0			1				0	
6.6.1	win	2023-06-23	15:24:06	15:33:53	585164	5cef892f0c5fb30018fbdfbe	3	1	main_z	11	advance_on_keypress_ZEE	10	stimuli_distractor_diamondtriangles.svg	stimuli_target_trianglerectangles.svg	29	yes	57	0	574	0	0			0	0			1				0	
6.6.1	win	2023-06-23	15:24:06	15:33:55	587009	5cef892f0c5fb30018fbdfbe	3	1	main_z	11	main_z	11	stimuli_target_rectanglediamonds.svg	stimuli_distractor_diamondtriangles.svg	6	yes	44	1	637	0	0			0	0			1				0	
6.6.1	win	2023-06-23	15:24:06	15:33:55	587009	5cef892f0c5fb30018fbdfbe	3	1	main_z	11	advance_on_keypress_ZEE	12	stimuli_target_rectanglediamonds.svg	stimuli_distractor_diamondtriangles.svg	6	yes	57	0	458	0	0			0	0			1				0	
6.6.1	win	2023-06-23	15:24:06	15:33:58	590105	5cef892f0c5fb30018fbdfbe	3	1	main_z	11	main_z	13	stimuli_distractor_diamondtriangles.svg	stimuli_distractor_diamondtriangles.svg	39	no	0	1	2000	0	0			0	0			1				0	
6.6.1	win	2023-06-23	15:24:06	15:33:58	590105	5cef892f0c5fb30018fbdfbe	3	1	main_z	11	advance_on_keypress_ZEE	14	stimuli_distractor_diamondtriangles.svg	stimuli_distractor_diamondtriangles.svg	39	no	57	0	538	0	0			0	0			1				0	
6.6.1	win	2023-06-23	15:24:06	15:34:01	593288	5cef892f0c5fb30018fbdfbe	3	1	main_z	11	main_z	15	stimuli_distractor_diamondtriangles.svg	stimuli_distractor_diamondtriangles.svg	40	no	0	1	2000	0	0			0	0			1				0	
6.6.1	win	2023-06-23	15:24:06	15:34:01	593288	5cef892f0c5fb30018fbdfbe	3	1	main_z	11	advance_on_keypress_ZEE	16	stimuli_distractor_diamondtriangles.svg	stimuli_distractor_diamondtriangles.svg	40	no	57	0	432	0	0			0	0			1				0	
6.6.1	win	2023-06-23	15:24:06	15:34:03	595107	5cef892f0c5fb30018fbdfbe	3	1	main_z	11	main_z	17	stimuli_distractor_trianglediamonds.svg	stimuli_target_squarediamonds.svg	12	yes	44	1	737	0	0			0	0			1				0	
6.6.1	win	2023-06-23	15:24:06	15:34:03	595107	5cef892f0c5fb30018fbdfbe	3	1	main_z	11	advance_on_keypress_ZEE	18	stimuli_distractor_trianglediamonds.svg	stimuli_target_squarediamonds.svg	12	yes	57	0	636	0	0			0	0			1				0	
6.6.1	win	2023-06-23	15:24:06	15:34:05	597070	5cef892f0c5fb30018fbdfbe	3	1	main_z	11	main_z	19	stimuli_distractor_diamondtriangles.svg	stimuli_target_trianglesquares.svg	30	yes	44	1	682	0	0			0	0			1				0	
6.6.1	win	2023-06-23	15:24:06	15:34:05	597070	5cef892f0c5fb30018fbdfbe	3	1	main_z	11	advance_on_keypress_ZEE	20	stimuli_distractor_diamondtriangles.svg	stimuli_target_trianglesquares.svg	30	yes	57	0	559	0	0			0	0			1				0	
6.6.1	win	2023-06-23	15:24:06	15:34:07	598862	5cef892f0c5fb30018fbdfbe	3	1	main_z	11	main_z	21	stimuli_distractor_diamondtriangles.svg	stimuli_target_diamondsquares.svg	32	yes	44	1	591	0	0			0	0			1				0	
6.6.1	win	2023-06-23	15:24:06	15:34:07	598862	5cef892f0c5fb30018fbdfbe	3	1	main_z	11	advance_on_keypress_ZEE	22	stimuli_distractor_diamondtriangles.svg	stimuli_target_diamondsquares.svg	32	yes	57	0	455	0	0			0	0			1				0	
6.6.1	win	2023-06-23	15:24:06	15:34:08	600536	5cef892f0c5fb30018fbdfbe	3	1	main_z	11	main_z	23	stimuli_target_squarediamonds.svg	stimuli_distractor_diamondtriangles.svg	8	yes	44	1	583	0	0			0	0			1				0	
6.6.1	win	2023-06-23	15:24:06	15:34:08	600536	5cef892f0c5fb30018fbdfbe	3	1	main_z	11	advance_on_keypress_ZEE	24	stimuli_target_squarediamonds.svg	stimuli_distractor_diamondtriangles.svg	8	yes	57	0	494	0	0			0	0			1				0	
6.6.1	win	2023-06-23	15:24:06	15:34:11	602674	5cef892f0c5fb30018fbdfbe	3	1	main_z	11	main_z	25	stimuli_distractor_diamondtriangles.svg	stimuli_target_squarediamonds.svg	16	yes	44	1	1004	0	0			0	0			1				0	
6.6.1	win	2023-06-23	15:24:06	15:34:11	602674	5cef892f0c5fb30018fbdfbe	3	1	main_z	11	advance_on_keypress_ZEE	26	stimuli_distractor_diamondtriangles.svg	stimuli_target_squarediamonds.svg	16	yes	57	0	570	0	0			0	0			1				0	
6.6.1	win	2023-06-23	15:24:06	15:34:12	604374	5cef892f0c5fb30018fbdfbe	3	1	main_z	11	main_z	27	stimuli_target_rectangletriangles.svg	stimuli_distractor_trianglediamonds.svg	1	yes	44	1	489	0	0			0	0			1				0	
6.6.1	win	2023-06-23	15:24:06	15:34:12	604374	5cef892f0c5fb30018fbdfbe	3	1	main_z	11	advance_on_keypress_ZEE	28	stimuli_target_rectangletriangles.svg	stimuli_distractor_trianglediamonds.svg	1	yes	57	0	569	0	0			0	0			1				0	
6.6.1	win	2023-06-23	15:24:06	15:34:14	606337	5cef892f0c5fb30018fbdfbe	3	1	main_z	11	main_z	29	stimuli_distractor_diamondtriangles.svg	stimuli_target_diamondrectangles.svg	31	yes	44	1	751	0	0			0	0			1				0	
6.6.1	win	2023-06-23	15:24:06	15:34:14	606337	5cef892f0c5fb30018fbdfbe	3	1	main_z	11	advance_on_keypress_ZEE	30	stimuli_distractor_diamondtriangles.svg	stimuli_target_diamondrectangles.svg	31	yes	57	0	492	0	0			0	0			1				0	
6.6.1	win	2023-06-23	15:24:06	15:34:16	607984	5cef892f0c5fb30018fbdfbe	3	1	main_z	11	main_z	31	stimuli_distractor_diamondtriangles.svg	stimuli_target_squaretriangles.svg	15	yes	44	1	515	0	0			0	0			1				0	
6.6.1	win	2023-06-23	15:24:06	15:34:16	607984	5cef892f0c5fb30018fbdfbe	3	1	main_z	11	advance_on_keypress_ZEE	32	stimuli_distractor_diamondtriangles.svg	stimuli_target_squaretriangles.svg	15	yes	57	0	642	0	0			0	0			1				0	
6.6.1	win	2023-06-23	15:24:06	15:34:19	611268	5cef892f0c5fb30018fbdfbe	3	1	main_z	11	main_z	33	stimuli_distractor_diamondtriangles.svg	stimuli_distractor_trianglediamonds.svg	38	no	0	1	2000	0	0			0	0			1				0	
6.6.1	win	2023-06-23	15:24:06	15:34:19	611268	5cef892f0c5fb30018fbdfbe	3	1	main_z	11	advance_on_keypress_ZEE	34	stimuli_distractor_diamondtriangles.svg	stimuli_distractor_trianglediamonds.svg	38	no	57	0	597	0	0			0	0			1				0	
6.6.1	win	2023-06-23	15:24:06	15:34:22	614518	5cef892f0c5fb30018fbdfbe	3	1	main_z	11	main_z	35	stimuli_distractor_trianglediamonds.svg	stimuli_distractor_diamondtriangles.svg	35	no	0	1	2000	0	0			0	0			1				0	
6.6.1	win	2023-06-23	15:24:06	15:34:22	614518	5cef892f0c5fb30018fbdfbe	3	1	main_z	11	advance_on_keypress_ZEE	36	stimuli_distractor_trianglediamonds.svg	stimuli_distractor_diamondtriangles.svg	35	no	57	0	316	0	0			0	0			1				0	
6.6.1	win	2023-06-23	15:24:06	15:34:24	615896	5cef892f0c5fb30018fbdfbe	3	1	main_z	11	main_z	37	stimuli_target_squaretriangles.svg	stimuli_distractor_diamondtriangles.svg	7	yes	44	1	411	0	0			0	0			1				0	
6.6.1	win	2023-06-23	15:24:06	15:34:24	615896	5cef892f0c5fb30018fbdfbe	3	1	main_z	11	advance_on_keypress_ZEE	38	stimuli_target_squaretriangles.svg	stimuli_distractor_diamondtriangles.svg	7	yes	57	0	586	0	0			0	0			1				0	
6.6.1	win	2023-06-23	15:24:06	15:34:26	617654	5cef892f0c5fb30018fbdfbe	3	1	main_z	11	main_z	39	stimuli_target_diamondsquares.svg	stimuli_distractor_trianglediamonds.svg	20	yes	44	1	536	0	0			0	0			1				0	
6.6.1	win	2023-06-23	15:24:06	15:34:26	617654	5cef892f0c5fb30018fbdfbe	3	1	main_z	11	advance_on_keypress_ZEE	40	stimuli_target_diamondsquares.svg	stimuli_distractor_trianglediamonds.svg	20	yes	57	0	517	0	0			0	0			1				0	
6.6.1	win	2023-06-23	15:24:06	15:34:27	619417	5cef892f0c5fb30018fbdfbe	3	1	main_z	11	main_z	41	stimuli_distractor_trianglediamonds.svg	stimuli_target_rectangletriangles.svg	9	yes	44	1	601	0	0			0	0			1				0	
6.6.1	win	2023-06-23	15:24:06	15:34:27	619417	5cef892f0c5fb30018fbdfbe	3	1	main_z	11	advance_on_keypress_ZEE	42	stimuli_distractor_trianglediamonds.svg	stimuli_target_rectangletriangles.svg	9	yes	57	0	565	0	0			0	0			1				0	
6.6.1	win	2023-06-23	15:24:06	15:34:29	621059	5cef892f0c5fb30018fbdfbe	3	1	main_z	11	main_z	43	stimuli_distractor_trianglediamonds.svg	stimuli_target_squaretriangles.svg	11	yes	44	1	425	0	0			0	0			1				0	
6.6.1	win	2023-06-23	15:24:06	15:34:29	621059	5cef892f0c5fb30018fbdfbe	3	1	main_z	11	advance_on_keypress_ZEE	44	stimuli_distractor_trianglediamonds.svg	stimuli_target_squaretriangles.svg	11	yes	57	0	665	0	0			0	0			1				0	
6.6.1	win	2023-06-23	15:24:06	15:34:31	622792	5cef892f0c5fb30018fbdfbe	3	1	main_z	11	main_z	45	stimuli_target_trianglerectangles.svg	stimuli_distractor_diamondtriangles.svg	21	yes	44	1	426	0	0			0	0			1				0	
6.6.1	win	2023-06-23	15:24:06	15:34:31	622792	5cef892f0c5fb30018fbdfbe	3	1	main_z	11	advance_on_keypress_ZEE	46	stimuli_target_trianglerectangles.svg	stimuli_distractor_diamondtriangles.svg	21	yes	57	0	787	0	0			0	0			1				0	
6.6.1	win	2023-06-23	15:24:06	15:34:33	624612	5cef892f0c5fb30018fbdfbe	3	1	main_z	11	main_z	47	stimuli_target_diamondrectangles.svg	stimuli_distractor_trianglediamonds.svg	19	yes	44	1	396	0	0			0	0			1				0	
6.6.1	win	2023-06-23	15:24:06	15:34:33	624612	5cef892f0c5fb30018fbdfbe	3	1	main_z	11	advance_on_keypress_ZEE	48	stimuli_target_diamondrectangles.svg	stimuli_distractor_trianglediamonds.svg	19	yes	57	0	644	0	0			0	0			1				0	
6.6.1	win	2023-06-23	15:24:06	15:34:36	627882	5cef892f0c5fb30018fbdfbe	3	1	main_z	11	main_z	49	stimuli_distractor_diamondtriangles.svg	stimuli_distractor_trianglediamonds.svg	37	no	0	1	2000	0	0			0	0			1				0	
6.6.1	win	2023-06-23	15:24:06	15:34:36	627882	5cef892f0c5fb30018fbdfbe	3	1	main_z	11	advance_on_keypress_ZEE	50	stimuli_distractor_diamondtriangles.svg	stimuli_distractor_trianglediamonds.svg	37	no	57	0	433	0	0			0	0			1				0	
6.6.1	win	2023-06-23	15:24:06	15:34:37	629480	5cef892f0c5fb30018fbdfbe	3	1	main_z	11	main_z	51	stimuli_distractor_trianglediamonds.svg	stimuli_target_trianglesquares.svg	26	yes	44	1	507	0	0			0	0			1				0	
6.6.1	win	2023-06-23	15:24:06	15:34:37	629480	5cef892f0c5fb30018fbdfbe	3	1	main_z	11	advance_on_keypress_ZEE	52	stimuli_distractor_trianglediamonds.svg	stimuli_target_trianglesquares.svg	26	yes	57	0	749	0	0			0	0			1				0	
6.6.1	win	2023-06-23	15:24:06	15:34:39	631380	5cef892f0c5fb30018fbdfbe	3	1	main_z	11	main_z	53	stimuli_target_squaretriangles.svg	stimuli_distractor_trianglediamonds.svg	3	yes	44	1	498	0	0			0	0			1				0	
6.6.1	win	2023-06-23	15:24:06	15:34:39	631380	5cef892f0c5fb30018fbdfbe	3	1	main_z	11	advance_on_keypress_ZEE	54	stimuli_target_squaretriangles.svg	stimuli_distractor_trianglediamonds.svg	3	yes	57	0	625	0	0			0	0			1				0	
6.6.1	win	2023-06-23	15:24:06	15:34:43	634648	5cef892f0c5fb30018fbdfbe	3	1	main_z	11	main_z	55	stimuli_distractor_trianglediamonds.svg	stimuli_distractor_trianglediamonds.svg	34	no	0	1	2000	0	0			0	0			1				0	
6.6.1	win	2023-06-23	15:24:06	15:34:43	634648	5cef892f0c5fb30018fbdfbe	3	1	main_z	11	advance_on_keypress_ZEE	56	stimuli_distractor_trianglediamonds.svg	stimuli_distractor_trianglediamonds.svg	34	no	57	0	371	0	0			0	0			1				0	
6.6.1	win	2023-06-23	15:24:06	15:34:46	637664	5cef892f0c5fb30018fbdfbe	3	1	main_z	11	main_z	57	stimuli_distractor_trianglediamonds.svg	stimuli_distractor_trianglediamonds.svg	33	no	0	1	2000	0	0			0	0			1				0	
6.6.1	win	2023-06-23	15:24:06	15:34:46	637664	5cef892f0c5fb30018fbdfbe	3	1	main_z	11	advance_on_keypress_ZEE	58	stimuli_distractor_trianglediamonds.svg	stimuli_distractor_trianglediamonds.svg	33	no	57	0	397	0	0			0	0			1				0	
6.6.1	win	2023-06-23	15:24:06	15:34:47	639076	5cef892f0c5fb30018fbdfbe	3	1	main_z	11	main_z	59	stimuli_target_rectanglediamonds.svg	stimuli_distractor_trianglediamonds.svg	2	yes	44	1	363	0	0			0	0			1				0	
6.6.1	win	2023-06-23	15:24:06	15:34:47	639076	5cef892f0c5fb30018fbdfbe	3	1	main_z	11	advance_on_keypress_ZEE	60	stimuli_target_rectanglediamonds.svg	stimuli_distractor_trianglediamonds.svg	2	yes	57	0	737	0	0			0	0			1				0	
6.6.1	win	2023-06-23	15:24:06	15:34:49	641156	5cef892f0c5fb30018fbdfbe	3	1	main_z	11	main_z	61	stimuli_distractor_trianglediamonds.svg	stimuli_target_diamondrectangles.svg	27	yes	44	1	709	0	0			0	0			1				0	
6.6.1	win	2023-06-23	15:24:06	15:34:49	641156	5cef892f0c5fb30018fbdfbe	3	1	main_z	11	advance_on_keypress_ZEE	62	stimuli_distractor_trianglediamonds.svg	stimuli_target_diamondrectangles.svg	27	yes	57	0	620	0	0			0	0			1				0	
6.6.1	win	2023-06-23	15:24:06	15:34:52	644413	5cef892f0c5fb30018fbdfbe	3	1	main_z	11	main_z	63	stimuli_distractor_trianglediamonds.svg	stimuli_distractor_diamondtriangles.svg	36	no	0	1	2000	0	0			0	0			1				0	
6.6.1	win	2023-06-23	15:24:06	15:34:52	644413	5cef892f0c5fb30018fbdfbe	3	1	main_z	11	advance_on_keypress_ZEE	64	stimuli_distractor_trianglediamonds.svg	stimuli_distractor_diamondtriangles.svg	36	no	57	0	339	0	0			0	0			1				0	
6.6.1	win	2023-06-23	15:24:06	15:34:54	646138	5cef892f0c5fb30018fbdfbe	3	1	main_z	11	main_z	65	stimuli_distractor_trianglediamonds.svg	stimuli_target_trianglerectangles.svg	25	yes	44	1	743	0	0			0	0			1				0	
6.6.1	win	2023-06-23	15:24:06	15:34:54	646138	5cef892f0c5fb30018fbdfbe	3	1	main_z	11	advance_on_keypress_ZEE	66	stimuli_distractor_trianglediamonds.svg	stimuli_target_trianglerectangles.svg	25	yes	57	0	644	0	0			0	0			1				0	
6.6.1	win	2023-06-23	15:24:06	15:34:56	647896	5cef892f0c5fb30018fbdfbe	3	1	main_z	11	main_z	67	stimuli_distractor_diamondtriangles.svg	stimuli_target_rectanglediamonds.svg	14	yes	44	1	484	0	0			0	0			1				0	
6.6.1	win	2023-06-23	15:24:06	15:34:56	647896	5cef892f0c5fb30018fbdfbe	3	1	main_z	11	advance_on_keypress_ZEE	68	stimuli_distractor_diamondtriangles.svg	stimuli_target_rectanglediamonds.svg	14	yes	57	0	2225	0	0			0	0			1				0	
6.6.1	win	2023-06-23	15:24:06	15:34:59	651184	5cef892f0c5fb30018fbdfbe	3	1	main_z	11	main_z	69	stimuli_distractor_diamondtriangles.svg	stimuli_target_rectangletriangles.svg	13	yes	44	1	423	0	0			0	0			1				0	
6.6.1	win	2023-06-23	15:24:06	15:34:59	651184	5cef892f0c5fb30018fbdfbe	3	1	main_z	11	advance_on_keypress_ZEE	70	stimuli_distractor_diamondtriangles.svg	stimuli_target_rectangletriangles.svg	13	yes	57	0	916	0	0			0	0			1				0	
6.6.1	win	2023-06-23	15:24:06	15:35:01	653170	5cef892f0c5fb30018fbdfbe	3	1	main_z	11	main_z	71	stimuli_target_diamondrectangles.svg	stimuli_distractor_diamondtriangles.svg	23	yes	44	1	426	0	0			0	0			1				0	
6.6.1	win	2023-06-23	15:24:06	15:35:01	653170	5cef892f0c5fb30018fbdfbe	3	1	main_z	11	advance_on_keypress_ZEE	72	stimuli_target_diamondrectangles.svg	stimuli_distractor_diamondtriangles.svg	23	yes	57	0	830	0	0			0	0			1				0	
6.6.1	win	2023-06-23	15:24:06	15:35:03	654980	5cef892f0c5fb30018fbdfbe	3	1	main_z	11	main_z	73	stimuli_target_trianglesquares.svg	stimuli_distractor_trianglediamonds.svg	18	yes	44	1	336	0	0			0	0			1				0	
6.6.1	win	2023-06-23	15:24:06	15:35:03	654980	5cef892f0c5fb30018fbdfbe	3	1	main_z	11	advance_on_keypress_ZEE	74	stimuli_target_trianglesquares.svg	stimuli_distractor_trianglediamonds.svg	18	yes	57	0	714	0	0			0	0			1				0	
6.6.1	win	2023-06-23	15:24:06	15:35:05	656859	5cef892f0c5fb30018fbdfbe	3	1	main_z	11	main_z	75	stimuli_target_squarediamonds.svg	stimuli_distractor_trianglediamonds.svg	4	yes	44	1	505	0	0			0	0			1				0	
6.6.1	win	2023-06-23	15:24:06	15:35:05	656859	5cef892f0c5fb30018fbdfbe	3	1	main_z	11	advance_on_keypress_ZEE	76	stimuli_target_squarediamonds.svg	stimuli_distractor_trianglediamonds.svg	4	yes	57	0	648	0	0			0	0			1				0	
6.6.1	win	2023-06-23	15:24:06	15:35:07	658633	5cef892f0c5fb30018fbdfbe	3	1	main_z	11	main_z	77	stimuli_distractor_trianglediamonds.svg	stimuli_target_diamondsquares.svg	28	yes	44	1	472	0	0			0	0			1				0	
6.6.1	win	2023-06-23	15:24:06	15:35:07	658633	5cef892f0c5fb30018fbdfbe	3	1	main_z	11	advance_on_keypress_ZEE	78	stimuli_distractor_trianglediamonds.svg	stimuli_target_diamondsquares.svg	28	yes	57	0	480	0	0			0	0			1				0	
6.6.1	win	2023-06-23	15:24:06	15:35:08	660162	5cef892f0c5fb30018fbdfbe	3	1	main_z	11	main_z	79	stimuli_distractor_trianglediamonds.svg	stimuli_target_rectanglediamonds.svg	10	yes	44	1	401	0	0			0	0			1				0	
6.6.1	win	2023-06-23	15:24:06	15:35:08	660162	5cef892f0c5fb30018fbdfbe	3	1	main_z	11	advance_on_keypress_ZEE	80	stimuli_distractor_trianglediamonds.svg	stimuli_target_rectanglediamonds.svg	10	yes	57	0	1035	0	0			0	0			1				0	
6.6.1	win	2023-06-23	15:24:06	15:35:10	662340	5cef892f0c5fb30018fbdfbe	3	1	main_z	11	main_z	81	stimuli_distractor_trianglediamonds.svg	stimuli_target_trianglerectangles.svg	25	yes	44	1	497	0	0			0	0			1				0	
6.6.1	win	2023-06-23	15:24:06	15:35:10	662340	5cef892f0c5fb30018fbdfbe	3	1	main_z	11	advance_on_keypress_ZEE	82	stimuli_distractor_trianglediamonds.svg	stimuli_target_trianglerectangles.svg	25	yes	57	0	610	0	0			0	0			1				0	
6.6.1	win	2023-06-23	15:24:06	15:35:12	664047	5cef892f0c5fb30018fbdfbe	3	1	main_z	11	main_z	83	stimuli_distractor_trianglediamonds.svg	stimuli_target_trianglesquares.svg	26	yes	44	1	454	0	0			0	0			1				0	
6.6.1	win	2023-06-23	15:24:06	15:35:12	664047	5cef892f0c5fb30018fbdfbe	3	1	main_z	11	advance_on_keypress_ZEE	84	stimuli_distractor_trianglediamonds.svg	stimuli_target_trianglesquares.svg	26	yes	57	0	598	0	0			0	0			1				0	
6.6.1	win	2023-06-23	15:24:06	15:35:14	665732	5cef892f0c5fb30018fbdfbe	3	1	main_z	11	main_z	85	stimuli_target_rectanglediamonds.svg	stimuli_distractor_trianglediamonds.svg	2	yes	44	1	439	0	0			0	0			1				0	
6.6.1	win	2023-06-23	15:24:06	15:35:14	665732	5cef892f0c5fb30018fbdfbe	3	1	main_z	11	advance_on_keypress_ZEE	86	stimuli_target_rectanglediamonds.svg	stimuli_distractor_trianglediamonds.svg	2	yes	57	0	466	0	0			0	0			1				0	
6.6.1	win	2023-06-23	15:24:06	15:35:15	667326	5cef892f0c5fb30018fbdfbe	3	1	main_z	11	main_z	87	stimuli_distractor_diamondtriangles.svg	stimuli_distractor_trianglediamonds.svg	37	no	44	0	483	0	0			0	0			1				0	
6.6.1	win	2023-06-23	15:24:06	15:35:15	667326	5cef892f0c5fb30018fbdfbe	3	1	main_z	11	advance_on_keypress_ZEE	88	stimuli_distractor_diamondtriangles.svg	stimuli_distractor_trianglediamonds.svg	37	no	57	0	752	0	0			0	0			1				0	
6.6.1	win	2023-06-23	15:24:06	15:35:17	669240	5cef892f0c5fb30018fbdfbe	3	1	main_z	11	main_z	89	stimuli_target_trianglesquares.svg	stimuli_distractor_trianglediamonds.svg	18	yes	44	1	512	0	0			0	0			1				0	
6.6.1	win	2023-06-23	15:24:06	15:35:17	669240	5cef892f0c5fb30018fbdfbe	3	1	main_z	11	advance_on_keypress_ZEE	90	stimuli_target_trianglesquares.svg	stimuli_distractor_trianglediamonds.svg	18	yes	57	0	478	0	0			0	0			1				0	
6.6.1	win	2023-06-23	15:24:06	15:35:19	670746	5cef892f0c5fb30018fbdfbe	3	1	main_z	11	main_z	91	stimuli_target_diamondrectangles.svg	stimuli_distractor_trianglediamonds.svg	19	yes	44	1	388	0	0			0	0			1				0	
6.6.1	win	2023-06-23	15:24:06	15:35:19	670746	5cef892f0c5fb30018fbdfbe	3	1	main_z	11	advance_on_keypress_ZEE	92	stimuli_target_diamondrectangles.svg	stimuli_distractor_trianglediamonds.svg	19	yes	57	0	670	0	0			0	0			1				0	
6.6.1	win	2023-06-23	15:24:06	15:35:21	672604	5cef892f0c5fb30018fbdfbe	3	1	main_z	11	main_z	93	stimuli_target_squaretriangles.svg	stimuli_distractor_trianglediamonds.svg	3	yes	44	1	545	0	0			0	0			1				0	
6.6.1	win	2023-06-23	15:24:06	15:35:21	672604	5cef892f0c5fb30018fbdfbe	3	1	main_z	11	advance_on_keypress_ZEE	94	stimuli_target_squaretriangles.svg	stimuli_distractor_trianglediamonds.svg	3	yes	57	0	478	0	0			0	0			1				0	
6.6.1	win	2023-06-23	15:24:06	15:35:24	675725	5cef892f0c5fb30018fbdfbe	3	1	main_z	11	main_z	95	stimuli_distractor_diamondtriangles.svg	stimuli_distractor_diamondtriangles.svg	40	no	0	1	2000	0	0			0	0			1				0	
6.6.1	win	2023-06-23	15:24:06	15:35:24	675725	5cef892f0c5fb30018fbdfbe	3	1	main_z	11	advance_on_keypress_ZEE	96	stimuli_distractor_diamondtriangles.svg	stimuli_distractor_diamondtriangles.svg	40	no	57	0	274	0	0			0	0			1				0	
6.6.1	win	2023-06-23	15:24:06	15:35:25	677131	5cef892f0c5fb30018fbdfbe	3	1	main_z	11	main_z	97	stimuli_distractor_diamondtriangles.svg	stimuli_target_trianglesquares.svg	30	yes	44	1	490	0	0			0	0			1				0	
6.6.1	win	2023-06-23	15:24:06	15:35:25	677131	5cef892f0c5fb30018fbdfbe	3	1	main_z	11	advance_on_keypress_ZEE	98	stimuli_distractor_diamondtriangles.svg	stimuli_target_trianglesquares.svg	30	yes	57	0	565	0	0			0	0			1				0	
6.6.1	win	2023-06-23	15:24:06	15:35:27	678980	5cef892f0c5fb30018fbdfbe	3	1	main_z	11	main_z	99	stimuli_distractor_diamondtriangles.svg	stimuli_target_rectangletriangles.svg	13	yes	44	1	639	0	0			0	0			1				0	
6.6.1	win	2023-06-23	15:24:06	15:35:27	678980	5cef892f0c5fb30018fbdfbe	3	1	main_z	11	advance_on_keypress_ZEE	100	stimuli_distractor_diamondtriangles.svg	stimuli_target_rectangletriangles.svg	13	yes	57	0	891	0	0			0	0			1				0	
6.6.1	win	2023-06-23	15:24:06	15:35:29	681022	5cef892f0c5fb30018fbdfbe	3	1	main_z	11	main_z	101	stimuli_target_squarediamonds.svg	stimuli_distractor_diamondtriangles.svg	8	yes	44	1	500	0	0			0	0			1				0	
6.6.1	win	2023-06-23	15:24:06	15:35:29	681022	5cef892f0c5fb30018fbdfbe	3	1	main_z	11	advance_on_keypress_ZEE	102	stimuli_target_squarediamonds.svg	stimuli_distractor_diamondtriangles.svg	8	yes	57	0	682	0	0			0	0			1				0	
6.6.1	win	2023-06-23	15:24:06	15:35:31	682871	5cef892f0c5fb30018fbdfbe	3	1	main_z	11	main_z	103	stimuli_distractor_trianglediamonds.svg	stimuli_target_squarediamonds.svg	12	yes	44	1	512	0	0			0	0			1				0	
6.6.1	win	2023-06-23	15:24:06	15:35:31	682871	5cef892f0c5fb30018fbdfbe	3	1	main_z	11	advance_on_keypress_ZEE	104	stimuli_distractor_trianglediamonds.svg	stimuli_target_squarediamonds.svg	12	yes	57	0	454	0	0			0	0			1				0	
6.6.1	win	2023-06-23	15:24:06	15:35:32	684473	5cef892f0c5fb30018fbdfbe	3	1	main_z	11	main_z	105	stimuli_target_squaretriangles.svg	stimuli_distractor_diamondtriangles.svg	7	yes	44	1	500	0	0			0	0			1				0	
6.6.1	win	2023-06-23	15:24:06	15:35:32	684473	5cef892f0c5fb30018fbdfbe	3	1	main_z	11	advance_on_keypress_ZEE	106	stimuli_target_squaretriangles.svg	stimuli_distractor_diamondtriangles.svg	7	yes	57	0	515	0	0			0	0			1				0	
6.6.1	win	2023-06-23	15:24:06	15:35:34	686201	5cef892f0c5fb30018fbdfbe	3	1	main_z	11	main_z	107	stimuli_distractor_trianglediamonds.svg	stimuli_target_diamondsquares.svg	28	yes	44	1	562	0	0			0	0			1				0	
6.6.1	win	2023-06-23	15:24:06	15:35:34	686201	5cef892f0c5fb30018fbdfbe	3	1	main_z	11	advance_on_keypress_ZEE	108	stimuli_distractor_trianglediamonds.svg	stimuli_target_diamondsquares.svg	28	yes	57	0	580	0	0			0	0			1				0	
6.6.1	win	2023-06-23	15:24:06	15:35:36	688081	5cef892f0c5fb30018fbdfbe	3	1	main_z	11	main_z	109	stimuli_distractor_diamondtriangles.svg	stimuli_target_squarediamonds.svg	16	yes	44	1	658	0	0			0	0			1				0	
6.6.1	win	2023-06-23	15:24:06	15:35:36	688081	5cef892f0c5fb30018fbdfbe	3	1	main_z	11	advance_on_keypress_ZEE	110	stimuli_distractor_diamondtriangles.svg	stimuli_target_squarediamonds.svg	16	yes	57	0	562	0	0			0	0			1				0	
6.6.1	win	2023-06-23	15:24:06	15:35:38	689929	5cef892f0c5fb30018fbdfbe	3	1	main_z	11	main_z	111	stimuli_target_rectangletriangles.svg	stimuli_distractor_diamondtriangles.svg	5	yes	44	1	657	0	0			0	0			1				0	
6.6.1	win	2023-06-23	15:24:06	15:35:38	689929	5cef892f0c5fb30018fbdfbe	3	1	main_z	11	advance_on_keypress_ZEE	112	stimuli_target_rectangletriangles.svg	stimuli_distractor_diamondtriangles.svg	5	yes	57	0	637	0	0			0	0			1				0	
6.6.1	win	2023-06-23	15:24:06	15:35:40	691659	5cef892f0c5fb30018fbdfbe	3	1	main_z	11	main_z	113	stimuli_distractor_trianglediamonds.svg	stimuli_target_rectanglediamonds.svg	10	yes	44	1	453	0	0			0	0			1				0	
6.6.1	win	2023-06-23	15:24:06	15:35:40	691659	5cef892f0c5fb30018fbdfbe	3	1	main_z	11	advance_on_keypress_ZEE	114	stimuli_distractor_trianglediamonds.svg	stimuli_target_rectanglediamonds.svg	10	yes	57	0	574	0	0			0	0			1				0	
6.6.1	win	2023-06-23	15:24:06	15:35:41	693297	5cef892f0c5fb30018fbdfbe	3	1	main_z	11	main_z	115	stimuli_distractor_diamondtriangles.svg	stimuli_distractor_trianglediamonds.svg	38	no	44	0	426	0	0			0	0			1				0	
6.6.1	win	2023-06-23	15:24:06	15:35:41	693297	5cef892f0c5fb30018fbdfbe	3	1	main_z	11	advance_on_keypress_ZEE	116	stimuli_distractor_diamondtriangles.svg	stimuli_distractor_trianglediamonds.svg	38	no	57	0	696	0	0			0	0			1				0	
6.6.1	win	2023-06-23	15:24:06	15:35:43	695254	5cef892f0c5fb30018fbdfbe	3	1	main_z	11	main_z	117	stimuli_target_diamondsquares.svg	stimuli_distractor_diamondtriangles.svg	24	yes	44	1	616	0	0			0	0			1				0	
6.6.1	win	2023-06-23	15:24:06	15:35:43	695254	5cef892f0c5fb30018fbdfbe	3	1	main_z	11	advance_on_keypress_ZEE	118	stimuli_target_diamondsquares.svg	stimuli_distractor_diamondtriangles.svg	24	yes	57	0	484	0	0			0	0			1				0	
6.6.1	win	2023-06-23	15:24:06	15:35:45	697255	5cef892f0c5fb30018fbdfbe	3	1	main_z	11	main_z	119	stimuli_distractor_diamondtriangles.svg	stimuli_target_diamondsquares.svg	32	yes	44	1	867	0	0			0	0			1				0	
6.6.1	win	2023-06-23	15:24:06	15:35:45	697255	5cef892f0c5fb30018fbdfbe	3	1	main_z	11	advance_on_keypress_ZEE	120	stimuli_distractor_diamondtriangles.svg	stimuli_target_diamondsquares.svg	32	yes	57	0	489	0	0			0	0			1				0	
6.6.1	win	2023-06-23	15:24:06	15:35:47	699069	5cef892f0c5fb30018fbdfbe	3	1	main_z	11	main_z	121	stimuli_distractor_diamondtriangles.svg	stimuli_target_diamondrectangles.svg	31	yes	44	1	681	0	0			0	0			1				0	
6.6.1	win	2023-06-23	15:24:06	15:35:47	699069	5cef892f0c5fb30018fbdfbe	3	1	main_z	11	advance_on_keypress_ZEE	122	stimuli_distractor_diamondtriangles.svg	stimuli_target_diamondrectangles.svg	31	yes	57	0	759	0	0			0	0			1				0	
6.6.1	win	2023-06-23	15:24:06	15:35:49	701412	5cef892f0c5fb30018fbdfbe	3	1	main_z	11	main_z	123	stimuli_distractor_diamondtriangles.svg	stimuli_target_squaretriangles.svg	15	yes	44	1	942	0	0			0	0			1				0	
6.6.1	win	2023-06-23	15:24:06	15:35:49	701412	5cef892f0c5fb30018fbdfbe	3	1	main_z	11	advance_on_keypress_ZEE	124	stimuli_distractor_diamondtriangles.svg	stimuli_target_squaretriangles.svg	15	yes	57	0	582	0	0			0	0			1				0	
6.6.1	win	2023-06-23	15:24:06	15:35:51	703240	5cef892f0c5fb30018fbdfbe	3	1	main_z	11	main_z	125	stimuli_distractor_diamondtriangles.svg	stimuli_target_trianglerectangles.svg	29	yes	44	1	603	0	0			0	0			1				0	
6.6.1	win	2023-06-23	15:24:06	15:35:51	703240	5cef892f0c5fb30018fbdfbe	3	1	main_z	11	advance_on_keypress_ZEE	126	stimuli_distractor_diamondtriangles.svg	stimuli_target_trianglerectangles.svg	29	yes	57	0	807	0	0			0	0			1				0	
6.6.1	win	2023-06-23	15:24:06	15:35:53	705532	5cef892f0c5fb30018fbdfbe	3	1	main_z	11	main_z	127	stimuli_target_rectanglediamonds.svg	stimuli_distractor_diamondtriangles.svg	6	yes	44	1	846	0	0			0	0			1				0	
6.6.1	win	2023-06-23	15:24:06	15:35:53	705532	5cef892f0c5fb30018fbdfbe	3	1	main_z	11	advance_on_keypress_ZEE	128	stimuli_target_rectanglediamonds.svg	stimuli_distractor_diamondtriangles.svg	6	yes	57	0	518	0	0			0	0			1				0	
6.6.1	win	2023-06-23	15:24:06	15:35:55	707236	5cef892f0c5fb30018fbdfbe	3	1	main_z	11	main_z	129	stimuli_distractor_trianglediamonds.svg	stimuli_target_rectangletriangles.svg	9	yes	44	1	533	0	0			0	0			1				0	
6.6.1	win	2023-06-23	15:24:06	15:35:55	707236	5cef892f0c5fb30018fbdfbe	3	1	main_z	11	advance_on_keypress_ZEE	130	stimuli_distractor_trianglediamonds.svg	stimuli_target_rectangletriangles.svg	9	yes	57	0	673	0	0			0	0			1				0	
6.6.1	win	2023-06-23	15:24:06	15:35:58	710553	5cef892f0c5fb30018fbdfbe	3	1	main_z	11	main_z	131	stimuli_distractor_diamondtriangles.svg	stimuli_distractor_diamondtriangles.svg	39	no	0	1	2000	0	0			0	0			1				0	
6.6.1	win	2023-06-23	15:24:06	15:35:58	710553	5cef892f0c5fb30018fbdfbe	3	1	main_z	11	advance_on_keypress_ZEE	132	stimuli_distractor_diamondtriangles.svg	stimuli_distractor_diamondtriangles.svg	39	no	57	0	343	0	0			0	0			1				0	
6.6.1	win	2023-06-23	15:24:06	15:36:00	712398	5cef892f0c5fb30018fbdfbe	3	1	main_z	11	main_z	133	stimuli_distractor_trianglediamonds.svg	stimuli_target_diamondrectangles.svg	27	yes	44	1	863	0	0			0	0			1				0	
6.6.1	win	2023-06-23	15:24:06	15:36:00	712398	5cef892f0c5fb30018fbdfbe	3	1	main_z	11	advance_on_keypress_ZEE	134	stimuli_distractor_trianglediamonds.svg	stimuli_target_diamondrectangles.svg	27	yes	57	0	516	0	0			0	0			1				0	
6.6.1	win	2023-06-23	15:24:06	15:36:03	715568	5cef892f0c5fb30018fbdfbe	3	1	main_z	11	main_z	135	stimuli_distractor_trianglediamonds.svg	stimuli_distractor_diamondtriangles.svg	35	no	0	1	2000	0	0			0	0			1				0	
6.6.1	win	2023-06-23	15:24:06	15:36:03	715568	5cef892f0c5fb30018fbdfbe	3	1	main_z	11	advance_on_keypress_ZEE	136	stimuli_distractor_trianglediamonds.svg	stimuli_distractor_diamondtriangles.svg	35	no	57	0	6085	0	0			0	0			1				0	
6.6.1	win	2023-06-23	15:24:06	15:36:11	722750	5cef892f0c5fb30018fbdfbe	3	1	main_z	11	main_z	137	stimuli_target_diamondsquares.svg	stimuli_distractor_trianglediamonds.svg	20	yes	44	1	450	0	0			0	0			1				0	
6.6.1	win	2023-06-23	15:24:06	15:36:11	722750	5cef892f0c5fb30018fbdfbe	3	1	main_z	11	advance_on_keypress_ZEE	138	stimuli_target_diamondsquares.svg	stimuli_distractor_trianglediamonds.svg	20	yes	57	0	754	0	0			0	0			1				0	
6.6.1	win	2023-06-23	15:24:06	15:36:14	726150	5cef892f0c5fb30018fbdfbe	3	1	main_z	11	main_z	139	stimuli_distractor_trianglediamonds.svg	stimuli_distractor_trianglediamonds.svg	34	no	0	1	2000	0	0			0	0			1				0	
6.6.1	win	2023-06-23	15:24:06	15:36:14	726150	5cef892f0c5fb30018fbdfbe	3	1	main_z	11	advance_on_keypress_ZEE	140	stimuli_distractor_trianglediamonds.svg	stimuli_distractor_trianglediamonds.svg	34	no	57	0	398	0	0			0	0			1				0	
6.6.1	win	2023-06-23	15:24:06	15:36:16	727691	5cef892f0c5fb30018fbdfbe	3	1	main_z	11	main_z	141	stimuli_target_squarediamonds.svg	stimuli_distractor_trianglediamonds.svg	4	yes	44	1	491	0	0			0	0			1				0	
6.6.1	win	2023-06-23	15:24:06	15:36:16	727691	5cef892f0c5fb30018fbdfbe	3	1	main_z	11	advance_on_keypress_ZEE	142	stimuli_target_squarediamonds.svg	stimuli_distractor_trianglediamonds.svg	4	yes	57	0	907	0	0			0	0			1				0	
6.6.1	win	2023-06-23	15:24:06	15:36:19	731232	5cef892f0c5fb30018fbdfbe	3	1	main_z	11	main_z	143	stimuli_distractor_trianglediamonds.svg	stimuli_target_squaretriangles.svg	11	yes	0	0	2000	0	0			0	0			1				0	
6.6.1	win	2023-06-23	15:24:06	15:36:19	731232	5cef892f0c5fb30018fbdfbe	3	1	main_z	11	advance_on_keypress_ZEE	144	stimuli_distractor_trianglediamonds.svg	stimuli_target_squaretriangles.svg	11	yes	57	0	301	0	0			0	0			1				0	
6.6.1	win	2023-06-23	15:24:06	15:36:21	732778	5cef892f0c5fb30018fbdfbe	3	1	main_z	11	main_z	145	stimuli_target_diamondrectangles.svg	stimuli_distractor_diamondtriangles.svg	23	yes	44	1	597	0	0			0	0			1				0	
6.6.1	win	2023-06-23	15:24:06	15:36:21	732778	5cef892f0c5fb30018fbdfbe	3	1	main_z	11	advance_on_keypress_ZEE	146	stimuli_target_diamondrectangles.svg	stimuli_distractor_diamondtriangles.svg	23	yes	57	0	541	0	0			0	0			1				0	
6.6.1	win	2023-06-23	15:24:06	15:36:24	735965	5cef892f0c5fb30018fbdfbe	3	1	main_z	11	main_z	147	stimuli_distractor_trianglediamonds.svg	stimuli_distractor_diamondtriangles.svg	36	no	0	1	2000	0	0			0	0			1				0	
6.6.1	win	2023-06-23	15:24:06	15:36:24	735965	5cef892f0c5fb30018fbdfbe	3	1	main_z	11	advance_on_keypress_ZEE	148	stimuli_distractor_trianglediamonds.svg	stimuli_distractor_diamondtriangles.svg	36	no	57	0	337	0	0			0	0			1				0	
6.6.1	win	2023-06-23	15:24:06	15:36:27	738948	5cef892f0c5fb30018fbdfbe	3	1	main_z	11	main_z	149	stimuli_distractor_trianglediamonds.svg	stimuli_distractor_trianglediamonds.svg	33	no	0	1	2000	0	0			0	0			1				0	
6.6.1	win	2023-06-23	15:24:06	15:36:27	738948	5cef892f0c5fb30018fbdfbe	3	1	main_z	11	advance_on_keypress_ZEE	150	stimuli_distractor_trianglediamonds.svg	stimuli_distractor_trianglediamonds.svg	33	no	57	0	429	0	0			0	0			1				0	
6.6.1	win	2023-06-23	15:24:06	15:36:29	740715	5cef892f0c5fb30018fbdfbe	3	1	main_z	11	main_z	151	stimuli_target_rectangletriangles.svg	stimuli_distractor_trianglediamonds.svg	1	yes	44	1	701	0	0			0	0			1				0	
6.6.1	win	2023-06-23	15:24:06	15:36:29	740715	5cef892f0c5fb30018fbdfbe	3	1	main_z	11	advance_on_keypress_ZEE	152	stimuli_target_rectangletriangles.svg	stimuli_distractor_trianglediamonds.svg	1	yes	57	0	572	0	0			0	0			1				0	
6.6.1	win	2023-06-23	15:24:06	15:36:31	742586	5cef892f0c5fb30018fbdfbe	3	1	main_z	11	main_z	153	stimuli_distractor_diamondtriangles.svg	stimuli_target_rectanglediamonds.svg	14	yes	44	1	655	0	0			0	0			1				0	
6.6.1	win	2023-06-23	15:24:06	15:36:31	742586	5cef892f0c5fb30018fbdfbe	3	1	main_z	11	advance_on_keypress_ZEE	154	stimuli_distractor_diamondtriangles.svg	stimuli_target_rectanglediamonds.svg	14	yes	57	0	525	0	0			0	0			1				0	
6.6.1	win	2023-06-23	15:24:06	15:36:33	744578	5cef892f0c5fb30018fbdfbe	3	1	main_z	11	main_z	155	stimuli_target_trianglerectangles.svg	stimuli_distractor_trianglediamonds.svg	17	yes	44	1	831	0	0			0	0			1				0	
6.6.1	win	2023-06-23	15:24:06	15:36:33	744578	5cef892f0c5fb30018fbdfbe	3	1	main_z	11	advance_on_keypress_ZEE	156	stimuli_target_trianglerectangles.svg	stimuli_distractor_trianglediamonds.svg	17	yes	57	0	557	0	0			0	0			1				0	
6.6.1	win	2023-06-23	15:24:06	15:36:35	747074	5cef892f0c5fb30018fbdfbe	3	1	main_z	11	main_z	157	stimuli_target_trianglerectangles.svg	stimuli_distractor_diamondtriangles.svg	21	yes	44	1	1294	0	0			0	0			1				0	
6.6.1	win	2023-06-23	15:24:06	15:36:35	747074	5cef892f0c5fb30018fbdfbe	3	1	main_z	11	advance_on_keypress_ZEE	158	stimuli_target_trianglerectangles.svg	stimuli_distractor_diamondtriangles.svg	21	yes	57	0	688	0	0			0	0			1				0	
6.6.1	win	2023-06-23	15:24:06	15:36:37	748795	5cef892f0c5fb30018fbdfbe	3	1	main_z	11	main_z	159	stimuli_target_trianglesquares.svg	stimuli_distractor_diamondtriangles.svg	22	yes	44	1	400	0	0			0	0			1				0	
6.6.1	win	2023-06-23	15:24:06	15:36:37	748795	5cef892f0c5fb30018fbdfbe	3	1	main_z	11	advance_on_keypress_ZEE	160	stimuli_target_trianglesquares.svg	stimuli_distractor_diamondtriangles.svg	22	yes	57	0	640	0	0			0	0			1				0	
6.6.1	win	2023-06-23	15:24:06	15:36:37	748795	5cef892f0c5fb30018fbdfbe	3	1	headphonecheck_calibration	14	headphonecheck_calibrationIntro	1	stimuli_target_trianglesquares.svg	stimuli_distractor_diamondtriangles.svg	22	yes	calibrationButton	0	3592	0	0			0	0			1				0	
6.6.1	win	2023-06-23	15:24:06	15:36:37	748795	5cef892f0c5fb30018fbdfbe	3	1	headphonecheck_testphase	15	test_collectResponse	3	stimuli_target_trianglesquares.svg	stimuli_distractor_diamondtriangles.svg	22	yes	first	1	11821	1	3	antiphase_hc_soi.wav	1	0	0			1				0	
6.6.1	win	2023-06-23	15:24:06	15:36:37	748795	5cef892f0c5fb30018fbdfbe	3	1	headphonecheck_testphase	15	test_collectResponse	6	stimuli_target_trianglesquares.svg	stimuli_distractor_diamondtriangles.svg	22	yes	third	1	749	2	2	antiphase_hc_ios.wav	3	0	0			1				0	
6.6.1	win	2023-06-23	15:24:06	15:36:37	748795	5cef892f0c5fb30018fbdfbe	3	1	headphonecheck_testphase	15	test_collectResponse	9	stimuli_target_trianglesquares.svg	stimuli_distractor_diamondtriangles.svg	22	yes	first	1	891	3	4	antiphase_hc_sio.wav	1	0	0			1				0	
6.6.1	win	2023-06-23	15:24:06	15:36:37	748795	5cef892f0c5fb30018fbdfbe	3	1	headphonecheck_testphase	15	test_collectResponse	12	stimuli_target_trianglesquares.svg	stimuli_distractor_diamondtriangles.svg	22	yes	second	1	513	4	5	antiphase_hc_osi.wav	2	0	0			1				0	
6.6.1	win	2023-06-23	15:24:06	15:36:37	748795	5cef892f0c5fb30018fbdfbe	3	1	headphonecheck_testphase	15	test_collectResponse	15	stimuli_target_trianglesquares.svg	stimuli_distractor_diamondtriangles.svg	22	yes	third	1	178	5	6	antiphase_hc_ois.wav	3	0	0			1				0	
6.6.1	win	2023-06-23	15:24:06	15:36:37	748795	5cef892f0c5fb30018fbdfbe	3	1	headphonecheck_testphase	15	test_collectResponse	18	stimuli_target_trianglesquares.svg	stimuli_distractor_diamondtriangles.svg	22	yes	second	1	227	6	1	antiphase_hc_iso.wav	2	0	0			1				0	
6.6.1	win	2023-06-23	15:24:06	15:36:37	748795	5cef892f0c5fb30018fbdfbe	3	1	stereocheck_calibration	17	stereocheck_calibrationIntro	1	stimuli_target_trianglesquares.svg	stimuli_distractor_diamondtriangles.svg	22	yes	stereocheck_calibrationButton	0	4177	6	1	antiphase_hc_iso.wav	2	0	0			1				0	
6.6.1	win	2023-06-23	15:24:06	15:36:37	748795	5cef892f0c5fb30018fbdfbe	3	1	stereocheck_testphase	18	stereocheck_test_collectResponse	3	stimuli_target_trianglesquares.svg	stimuli_distractor_diamondtriangles.svg	22	yes	stereocheck_left	1	95	6	1	antiphase_hc_iso.wav	2	1	2	noise_calib_stim_LEFT.wav	1	1				0	
6.6.1	win	2023-06-23	15:24:06	15:36:37	748795	5cef892f0c5fb30018fbdfbe	3	1	stereocheck_testphase	18	stereocheck_test_collectResponse	6	stimuli_target_trianglesquares.svg	stimuli_distractor_diamondtriangles.svg	22	yes	stereocheck_left	1	200	6	1	antiphase_hc_iso.wav	2	2	3	noise_calib_stim_LEFT.wav	1	1				0	
6.6.1	win	2023-06-23	15:24:06	15:36:37	748795	5cef892f0c5fb30018fbdfbe	3	1	stereocheck_testphase	18	stereocheck_test_collectResponse	9	stimuli_target_trianglesquares.svg	stimuli_distractor_diamondtriangles.svg	22	yes	stereocheck_right	1	341	6	1	antiphase_hc_iso.wav	2	3	4	noise_calib_stim_RIGHT.wav	2	1				0	
6.6.1	win	2023-06-23	15:24:06	15:36:37	748795	5cef892f0c5fb30018fbdfbe	3	1	stereocheck_testphase	18	stereocheck_test_collectResponse	12	stimuli_target_trianglesquares.svg	stimuli_distractor_diamondtriangles.svg	22	yes	stereocheck_right	1	204	6	1	antiphase_hc_iso.wav	2	4	6	noise_calib_stim_RIGHT.wav	2	1				0	
6.6.1	win	2023-06-23	15:24:06	15:36:37	748795	5cef892f0c5fb30018fbdfbe	3	1	stereocheck_testphase	18	stereocheck_test_collectResponse	15	stimuli_target_trianglesquares.svg	stimuli_distractor_diamondtriangles.svg	22	yes	stereocheck_left	1	224	6	1	antiphase_hc_iso.wav	2	5	1	noise_calib_stim_LEFT.wav	1	1				0	
6.6.1	win	2023-06-23	15:24:06	15:36:37	748795	5cef892f0c5fb30018fbdfbe	3	1	stereocheck_testphase	18	stereocheck_test_collectResponse	18	stimuli_target_trianglesquares.svg	stimuli_distractor_diamondtriangles.svg	22	yes	stereocheck_right	1	372	6	1	antiphase_hc_iso.wav	2	6	5	noise_calib_stim_RIGHT.wav	2	1				0	
6.6.1	win	2023-06-23	15:24:06	15:36:37	748795	5cef892f0c5fb30018fbdfbe	3	1	DL_practice	21	DL_practice	2	stimuli_target_trianglesquares.svg	stimuli_distractor_diamondtriangles.svg	22	yes	ga	1	1160	6	1	antiphase_hc_iso.wav	2	6	5	noise_calib_stim_RIGHT.wav	2	15	blb_dichoticlistening_ga-ga.mp3	ga	ga	0	left
6.6.1	win	2023-06-23	15:24:06	15:36:37	748795	5cef892f0c5fb30018fbdfbe	3	1	DL_practice	21	DL_practice	3	stimuli_target_trianglesquares.svg	stimuli_distractor_diamondtriangles.svg	22	yes	ga	1	1822	6	1	antiphase_hc_iso.wav	2	6	5	noise_calib_stim_RIGHT.wav	2	18	blb_dichoticlistening_ga-ta.mp3	ga	ta	1	left
6.6.1	win	2023-06-23	15:24:06	15:36:37	748795	5cef892f0c5fb30018fbdfbe	3	1	DL_practice	21	DL_practice	4	stimuli_target_trianglesquares.svg	stimuli_distractor_diamondtriangles.svg	22	yes	ta	1	1852	6	1	antiphase_hc_iso.wav	2	6	5	noise_calib_stim_RIGHT.wav	2	36	blb_dichoticlistening_ta-ta.mp3	ta	ta	0	left
6.6.1	win	2023-06-23	15:24:06	15:36:37	748795	5cef892f0c5fb30018fbdfbe	3	1	DL_practice	21	DL_practice	5	stimuli_target_trianglesquares.svg	stimuli_distractor_diamondtriangles.svg	22	yes	da	1	1327	6	1	antiphase_hc_iso.wav	2	6	5	noise_calib_stim_RIGHT.wav	2	8	blb_dichoticlistening_da-da.mp3	da	da	0	left
6.6.1	win	2023-06-23	15:24:06	15:36:37	748795	5cef892f0c5fb30018fbdfbe	3	1	DL_practice	21	DL_practice	6	stimuli_target_trianglesquares.svg	stimuli_distractor_diamondtriangles.svg	22	yes	pa	1	1592	6	1	antiphase_hc_iso.wav	2	6	5	noise_calib_stim_RIGHT.wav	2	29	blb_dichoticlistening_pa-pa.mp3	pa	pa	0	left
6.6.1	win	2023-06-23	15:24:06	15:36:37	748795	5cef892f0c5fb30018fbdfbe	3	1	DL_practice	21	DL_practice	7	stimuli_target_trianglesquares.svg	stimuli_distractor_diamondtriangles.svg	22	yes	ba	1	1214	6	1	antiphase_hc_iso.wav	2	6	5	noise_calib_stim_RIGHT.wav	2	1	blb_dichoticlistening_ba-ba.mp3	ba	ba	0	left
6.6.1	win	2023-06-23	15:24:06	15:36:37	748795	5cef892f0c5fb30018fbdfbe	3	1	DL_practice	21	DL_practice	8	stimuli_target_trianglesquares.svg	stimuli_distractor_diamondtriangles.svg	22	yes	ka	1	1556	6	1	antiphase_hc_iso.wav	2	6	5	noise_calib_stim_RIGHT.wav	2	23	blb_dichoticlistening_ka-pa.mp3	ka	pa	1	left
6.6.1	win	2023-06-23	15:24:06	15:36:37	748795	5cef892f0c5fb30018fbdfbe	3	1	DL_practice	21	DL_practice	9	stimuli_target_trianglesquares.svg	stimuli_distractor_diamondtriangles.svg	22	yes	da	1	1676	6	1	antiphase_hc_iso.wav	2	6	5	noise_calib_stim_RIGHT.wav	2	7	blb_dichoticlistening_da-ba.mp3	da	ba	1	left
6.6.1	win	2023-06-23	15:24:06	15:36:37	748795	5cef892f0c5fb30018fbdfbe	3	1	DL_practice	21	DL_practice	10	stimuli_target_trianglesquares.svg	stimuli_distractor_diamondtriangles.svg	22	yes	ka	1	1263	6	1	antiphase_hc_iso.wav	2	6	5	noise_calib_stim_RIGHT.wav	2	22	blb_dichoticlistening_ka-ka.mp3	ka	ka	0	left
6.6.1	win	2023-06-23	15:24:06	15:36:37	748795	5cef892f0c5fb30018fbdfbe	3	1	DL_test	23	DL_test	1	stimuli_target_trianglesquares.svg	stimuli_distractor_diamondtriangles.svg	22	yes	ka	1	1020	6	1	antiphase_hc_iso.wav	2	6	5	noise_calib_stim_RIGHT.wav	2	23	blb_dichoticlistening_ka-pa.mp3	ka	pa	1	left
6.6.1	win	2023-06-23	15:24:06	15:36:37	748795	5cef892f0c5fb30018fbdfbe	3	1	DL_test	23	DL_test	2	stimuli_target_trianglesquares.svg	stimuli_distractor_diamondtriangles.svg	22	yes	ta	1	1689	6	1	antiphase_hc_iso.wav	2	6	5	noise_calib_stim_RIGHT.wav	2	31	blb_dichoticlistening_ta-ba.mp3	ta	ba	1	left
6.6.1	win	2023-06-23	15:24:06	15:36:37	748795	5cef892f0c5fb30018fbdfbe	3	1	DL_test	23	DL_test	3	stimuli_target_trianglesquares.svg	stimuli_distractor_diamondtriangles.svg	22	yes	ta	1	859	6	1	antiphase_hc_iso.wav	2	6	5	noise_calib_stim_RIGHT.wav	2	35	blb_dichoticlistening_ta-pa.mp3	ta	pa	1	left
6.6.1	win	2023-06-23	15:24:06	15:36:37	748795	5cef892f0c5fb30018fbdfbe	3	1	DL_test	23	DL_test	4	stimuli_target_trianglesquares.svg	stimuli_distractor_diamondtriangles.svg	22	yes	ka	1	1142	6	1	antiphase_hc_iso.wav	2	6	5	noise_calib_stim_RIGHT.wav	2	19	blb_dichoticlistening_ka-ba.mp3	ka	ba	1	left
6.6.1	win	2023-06-23	15:24:06	15:36:37	748795	5cef892f0c5fb30018fbdfbe	3	1	DL_test	23	DL_test	5	stimuli_target_trianglesquares.svg	stimuli_distractor_diamondtriangles.svg	22	yes	ta	0	2206	6	1	antiphase_hc_iso.wav	2	6	5	noise_calib_stim_RIGHT.wav	2	11	blb_dichoticlistening_da-pa.mp3	da	pa	1	other
6.6.1	win	2023-06-23	15:24:06	15:36:37	748795	5cef892f0c5fb30018fbdfbe	3	1	DL_test	23	DL_test	6	stimuli_target_trianglesquares.svg	stimuli_distractor_diamondtriangles.svg	22	yes	ba	1	1274	6	1	antiphase_hc_iso.wav	2	6	5	noise_calib_stim_RIGHT.wav	2	1	blb_dichoticlistening_ba-ba.mp3	ba	ba	0	left
6.6.1	win	2023-06-23	15:24:06	15:36:37	748795	5cef892f0c5fb30018fbdfbe	3	1	DL_test	23	DL_test	7	stimuli_target_trianglesquares.svg	stimuli_distractor_diamondtriangles.svg	22	yes	ba	1	1380	6	1	antiphase_hc_iso.wav	2	6	5	noise_calib_stim_RIGHT.wav	2	6	blb_dichoticlistening_ba-ta.mp3	ba	ta	1	left
6.6.1	win	2023-06-23	15:24:06	15:36:37	748795	5cef892f0c5fb30018fbdfbe	3	1	DL_test	23	DL_test	8	stimuli_target_trianglesquares.svg	stimuli_distractor_diamondtriangles.svg	22	yes	ga	1	1009	6	1	antiphase_hc_iso.wav	2	6	5	noise_calib_stim_RIGHT.wav	2	15	blb_dichoticlistening_ga-ga.mp3	ga	ga	0	left
6.6.1	win	2023-06-23	15:24:06	15:36:37	748795	5cef892f0c5fb30018fbdfbe	3	1	DL_test	23	DL_test	9	stimuli_target_trianglesquares.svg	stimuli_distractor_diamondtriangles.svg	22	yes	ta	1	1478	6	1	antiphase_hc_iso.wav	2	6	5	noise_calib_stim_RIGHT.wav	2	32	blb_dichoticlistening_ta-da.mp3	ta	da	1	left
6.6.1	win	2023-06-23	15:24:06	15:36:37	748795	5cef892f0c5fb30018fbdfbe	3	1	DL_test	23	DL_test	10	stimuli_target_trianglesquares.svg	stimuli_distractor_diamondtriangles.svg	22	yes	ga	1	1127	6	1	antiphase_hc_iso.wav	2	6	5	noise_calib_stim_RIGHT.wav	2	14	blb_dichoticlistening_ga-da.mp3	ga	da	1	left
6.6.1	win	2023-06-23	15:24:06	15:36:37	748795	5cef892f0c5fb30018fbdfbe	3	1	DL_test	23	DL_test	11	stimuli_target_trianglesquares.svg	stimuli_distractor_diamondtriangles.svg	22	yes	ga	1	2061	6	1	antiphase_hc_iso.wav	2	6	5	noise_calib_stim_RIGHT.wav	2	17	blb_dichoticlistening_ga-pa.mp3	ga	pa	1	left
6.6.1	win	2023-06-23	15:24:06	15:36:37	748795	5cef892f0c5fb30018fbdfbe	3	1	DL_test	23	DL_test	12	stimuli_target_trianglesquares.svg	stimuli_distractor_diamondtriangles.svg	22	yes	ga	1	1003	6	1	antiphase_hc_iso.wav	2	6	5	noise_calib_stim_RIGHT.wav	2	9	blb_dichoticlistening_da-ga.mp3	da	ga	1	right
6.6.1	win	2023-06-23	15:24:06	15:36:37	748795	5cef892f0c5fb30018fbdfbe	3	1	DL_test	23	DL_test	13	stimuli_target_trianglesquares.svg	stimuli_distractor_diamondtriangles.svg	22	yes	da	1	1791	6	1	antiphase_hc_iso.wav	2	6	5	noise_calib_stim_RIGHT.wav	2	12	blb_dichoticlistening_da-ta.mp3	da	ta	1	left
6.6.1	win	2023-06-23	15:24:06	15:36:37	748795	5cef892f0c5fb30018fbdfbe	3	1	DL_test	23	DL_test	14	stimuli_target_trianglesquares.svg	stimuli_distractor_diamondtriangles.svg	22	yes	pa	1	1494	6	1	antiphase_hc_iso.wav	2	6	5	noise_calib_stim_RIGHT.wav	2	30	blb_dichoticlistening_pa-ta.mp3	pa	ta	1	left
6.6.1	win	2023-06-23	15:24:06	15:36:37	748795	5cef892f0c5fb30018fbdfbe	3	1	DL_test	23	DL_test	15	stimuli_target_trianglesquares.svg	stimuli_distractor_diamondtriangles.svg	22	yes	pa	1	957	6	1	antiphase_hc_iso.wav	2	6	5	noise_calib_stim_RIGHT.wav	2	25	blb_dichoticlistening_pa-ba.mp3	pa	ba	1	left
6.6.1	win	2023-06-23	15:24:06	15:36:37	748795	5cef892f0c5fb30018fbdfbe	3	1	DL_test	23	DL_test	16	stimuli_target_trianglesquares.svg	stimuli_distractor_diamondtriangles.svg	22	yes	pa	1	1083	6	1	antiphase_hc_iso.wav	2	6	5	noise_calib_stim_RIGHT.wav	2	26	blb_dichoticlistening_pa-da.mp3	pa	da	1	left
6.6.1	win	2023-06-23	15:24:06	15:36:37	748795	5cef892f0c5fb30018fbdfbe	3	1	DL_test	23	DL_test	17	stimuli_target_trianglesquares.svg	stimuli_distractor_diamondtriangles.svg	22	yes	ka	1	1006	6	1	antiphase_hc_iso.wav	2	6	5	noise_calib_stim_RIGHT.wav	2	20	blb_dichoticlistening_ka-da.mp3	ka	da	1	left
6.6.1	win	2023-06-23	15:24:06	15:36:37	748795	5cef892f0c5fb30018fbdfbe	3	1	DL_test	23	DL_test	18	stimuli_target_trianglesquares.svg	stimuli_distractor_diamondtriangles.svg	22	yes	pa	0	1595	6	1	antiphase_hc_iso.wav	2	6	5	noise_calib_stim_RIGHT.wav	2	2	blb_dichoticlistening_ba-da.mp3	ba	da	1	other
6.6.1	win	2023-06-23	15:24:06	15:36:37	748795	5cef892f0c5fb30018fbdfbe	3	1	DL_test	23	DL_test	19	stimuli_target_trianglesquares.svg	stimuli_distractor_diamondtriangles.svg	22	yes	da	1	1306	6	1	antiphase_hc_iso.wav	2	6	5	noise_calib_stim_RIGHT.wav	2	7	blb_dichoticlistening_da-ba.mp3	da	ba	1	left
6.6.1	win	2023-06-23	15:24:06	15:36:37	748795	5cef892f0c5fb30018fbdfbe	3	1	DL_test	23	DL_test	20	stimuli_target_trianglesquares.svg	stimuli_distractor_diamondtriangles.svg	22	yes	pa	1	3680	6	1	antiphase_hc_iso.wav	2	6	5	noise_calib_stim_RIGHT.wav	2	27	blb_dichoticlistening_pa-ga.mp3	pa	ga	1	left
6.6.1	win	2023-06-23	15:24:06	15:36:37	748795	5cef892f0c5fb30018fbdfbe	3	1	DL_test	23	DL_test	21	stimuli_target_trianglesquares.svg	stimuli_distractor_diamondtriangles.svg	22	yes	ga	1	1332	6	1	antiphase_hc_iso.wav	2	6	5	noise_calib_stim_RIGHT.wav	2	16	blb_dichoticlistening_ga-ka.mp3	ga	ka	1	left
6.6.1	win	2023-06-23	15:24:06	15:36:37	748795	5cef892f0c5fb30018fbdfbe	3	1	DL_test	23	DL_test	22	stimuli_target_trianglesquares.svg	stimuli_distractor_diamondtriangles.svg	22	yes	ka	1	987	6	1	antiphase_hc_iso.wav	2	6	5	noise_calib_stim_RIGHT.wav	2	21	blb_dichoticlistening_ka-ga.mp3	ka	ga	1	left
6.6.1	win	2023-06-23	15:24:06	15:36:37	748795	5cef892f0c5fb30018fbdfbe	3	1	DL_test	23	DL_test	23	stimuli_target_trianglesquares.svg	stimuli_distractor_diamondtriangles.svg	22	yes	ba	1	2688	6	1	antiphase_hc_iso.wav	2	6	5	noise_calib_stim_RIGHT.wav	2	5	blb_dichoticlistening_ba-pa.mp3	ba	pa	1	left
6.6.1	win	2023-06-23	15:24:06	15:36:37	748795	5cef892f0c5fb30018fbdfbe	3	1	DL_test	23	DL_test	24	stimuli_target_trianglesquares.svg	stimuli_distractor_diamondtriangles.svg	22	yes	ba	1	1044	6	1	antiphase_hc_iso.wav	2	6	5	noise_calib_stim_RIGHT.wav	2	3	blb_dichoticlistening_ba-ga.mp3	ba	ga	1	left
6.6.1	win	2023-06-23	15:24:06	15:36:37	748795	5cef892f0c5fb30018fbdfbe	3	1	DL_test	23	DL_test	25	stimuli_target_trianglesquares.svg	stimuli_distractor_diamondtriangles.svg	22	yes	ta	1	2116	6	1	antiphase_hc_iso.wav	2	6	5	noise_calib_stim_RIGHT.wav	2	36	blb_dichoticlistening_ta-ta.mp3	ta	ta	0	left
6.6.1	win	2023-06-23	15:24:06	15:36:37	748795	5cef892f0c5fb30018fbdfbe	3	1	DL_test	23	DL_test	26	stimuli_target_trianglesquares.svg	stimuli_distractor_diamondtriangles.svg	22	yes	pa	1	1398	6	1	antiphase_hc_iso.wav	2	6	5	noise_calib_stim_RIGHT.wav	2	29	blb_dichoticlistening_pa-pa.mp3	pa	pa	0	left
