build	computer.platform	date	time	timestamp	time_elapsed_ms	subject	group	session	blockcode	blocknum	trialcode	trialnum	stimulus_left	stimulus_right	stim_index	target_present	response	correct	latency	headphonecheck_countTestTrials	headphonecheck_index	headphonecheck_testSound	headphonecheck_correctResponse	stereocheck_countTestTrials	stereocheck_index	stereocheck_testSound	stereocheck_correctResponse	DL_index	DL_soundfile	DL_leftSound	DL_rightSound	DL_dualSound	DL_choice
6.6.1	win	2023-06-15	07:38:51	07:41:26	152217	5f117601aeef1d5095578b01	4	1	practice_z	5	practice_z	1	stimuli_target_rectanglediamonds.svg	stimuli_distractor_trianglediamonds.svg	4	yes	44	1	643	0	0			0	0			1				0	
6.6.1	win	2023-06-15	07:38:51	07:41:26	152217	5f117601aeef1d5095578b01	4	1	practice_z	5	advance_on_keypress_ZEE	2	stimuli_target_rectanglediamonds.svg	stimuli_distractor_trianglediamonds.svg	4	yes	57	0	1025	0	0			0	0			1				0	
6.6.1	win	2023-06-15	07:38:51	07:41:30	155697	5f117601aeef1d5095578b01	4	1	practice_z	5	practice_z	3	stimuli_target_squarediamonds.svg	stimuli_distractor_trianglediamonds.svg	5	yes	44	1	823	0	0			0	0			1				0	
6.6.1	win	2023-06-15	07:38:51	07:41:30	155697	5f117601aeef1d5095578b01	4	1	practice_z	5	advance_on_keypress_ZEE	4	stimuli_target_squarediamonds.svg	stimuli_distractor_trianglediamonds.svg	5	yes	57	0	583	0	0			0	0			1				0	
6.6.1	win	2023-06-15	07:38:51	07:41:34	159923	5f117601aeef1d5095578b01	4	1	practice_z	5	practice_z	5	stimuli_distractor_trianglediamonds.svg	stimuli_distractor_diamondtriangles.svg	16	no	0	1	2000	0	0			0	0			1				0	
6.6.1	win	2023-06-15	07:38:51	07:41:34	159923	5f117601aeef1d5095578b01	4	1	practice_z	5	advance_on_keypress_ZEE	6	stimuli_distractor_trianglediamonds.svg	stimuli_distractor_diamondtriangles.svg	16	no	57	0	948	0	0			0	0			1				0	
6.6.1	win	2023-06-15	07:38:51	07:41:39	164523	5f117601aeef1d5095578b01	4	1	practice_z	5	practice_z	7	stimuli_target_diamondsquares.svg	stimuli_distractor_diamondtriangles.svg	3	yes	0	0	2000	0	0			0	0			1				0	
6.6.1	win	2023-06-15	07:38:51	07:41:39	164523	5f117601aeef1d5095578b01	4	1	practice_z	5	advance_on_keypress_ZEE	8	stimuli_target_diamondsquares.svg	stimuli_distractor_diamondtriangles.svg	3	yes	57	0	1092	0	0			0	0			1				0	
6.6.1	win	2023-06-15	07:38:51	07:41:42	168001	5f117601aeef1d5095578b01	4	1	practice_z	5	practice_z	9	stimuli_distractor_diamondtriangles.svg	stimuli_target_diamondrectangles.svg	8	yes	44	1	744	0	0			0	0			1				0	
6.6.1	win	2023-06-15	07:38:51	07:41:42	168001	5f117601aeef1d5095578b01	4	1	practice_z	5	advance_on_keypress_ZEE	10	stimuli_distractor_diamondtriangles.svg	stimuli_target_diamondrectangles.svg	8	yes	57	0	1226	0	0			0	0			1				0	
6.6.1	win	2023-06-15	07:38:51	07:41:46	171872	5f117601aeef1d5095578b01	4	1	practice_z	5	practice_z	11	stimuli_distractor_trianglediamonds.svg	stimuli_target_diamondrectangles.svg	12	yes	44	1	1016	0	0			0	0			1				0	
6.6.1	win	2023-06-15	07:38:51	07:41:46	171872	5f117601aeef1d5095578b01	4	1	practice_z	5	advance_on_keypress_ZEE	12	stimuli_distractor_trianglediamonds.svg	stimuli_target_diamondrectangles.svg	12	yes	57	0	631	0	0			0	0			1				0	
6.6.1	win	2023-06-15	07:38:51	07:41:49	175016	5f117601aeef1d5095578b01	4	1	practice_z	5	practice_z	13	stimuli_distractor_trianglediamonds.svg	stimuli_target_rectanglediamonds.svg	10	yes	44	1	877	0	0			0	0			1				0	
6.6.1	win	2023-06-15	07:38:51	07:41:49	175016	5f117601aeef1d5095578b01	4	1	practice_z	5	advance_on_keypress_ZEE	14	stimuli_distractor_trianglediamonds.svg	stimuli_target_rectanglediamonds.svg	10	yes	57	0	585	0	0			0	0			1				0	
6.6.1	win	2023-06-15	07:38:51	07:41:53	179239	5f117601aeef1d5095578b01	4	1	practice_z	5	practice_z	15	stimuli_distractor_diamondtriangles.svg	stimuli_distractor_diamondtriangles.svg	13	no	0	1	2000	0	0			0	0			1				0	
6.6.1	win	2023-06-15	07:38:51	07:41:53	179239	5f117601aeef1d5095578b01	4	1	practice_z	5	advance_on_keypress_ZEE	16	stimuli_distractor_diamondtriangles.svg	stimuli_distractor_diamondtriangles.svg	13	no	57	0	392	0	0			0	0			1				0	
6.6.1	win	2023-06-15	07:38:51	07:41:56	182216	5f117601aeef1d5095578b01	4	1	practice_z	5	practice_z	17	stimuli_target_squarediamonds.svg	stimuli_distractor_diamondtriangles.svg	2	yes	44	1	944	0	0			0	0			1				0	
6.6.1	win	2023-06-15	07:38:51	07:41:56	182216	5f117601aeef1d5095578b01	4	1	practice_z	5	advance_on_keypress_ZEE	18	stimuli_target_squarediamonds.svg	stimuli_distractor_diamondtriangles.svg	2	yes	57	0	626	0	0			0	0			1				0	
6.6.1	win	2023-06-15	07:38:51	07:42:00	185712	5f117601aeef1d5095578b01	4	1	practice_z	5	practice_z	19	stimuli_distractor_diamondtriangles.svg	stimuli_distractor_trianglediamonds.svg	14	no	44	0	1240	0	0			0	0			1				0	
6.6.1	win	2023-06-15	07:38:51	07:42:00	185712	5f117601aeef1d5095578b01	4	1	practice_z	5	advance_on_keypress_ZEE	20	stimuli_distractor_diamondtriangles.svg	stimuli_distractor_trianglediamonds.svg	14	no	57	0	526	0	0			0	0			1				0	
6.6.1	win	2023-06-15	07:38:51	07:42:03	188896	5f117601aeef1d5095578b01	4	1	practice_z	5	practice_z	21	stimuli_target_rectanglediamonds.svg	stimuli_distractor_diamondtriangles.svg	1	yes	44	1	1024	0	0			0	0			1				0	
6.6.1	win	2023-06-15	07:38:51	07:42:03	188896	5f117601aeef1d5095578b01	4	1	practice_z	5	advance_on_keypress_ZEE	22	stimuli_target_rectanglediamonds.svg	stimuli_distractor_diamondtriangles.svg	1	yes	57	0	542	0	0			0	0			1				0	
6.6.1	win	2023-06-15	07:38:51	07:42:06	192024	5f117601aeef1d5095578b01	4	1	practice_z	5	practice_z	23	stimuli_distractor_diamondtriangles.svg	stimuli_target_trianglerectangles.svg	9	yes	44	1	952	0	0			0	0			1				0	
6.6.1	win	2023-06-15	07:38:51	07:42:06	192024	5f117601aeef1d5095578b01	4	1	practice_z	5	advance_on_keypress_ZEE	24	stimuli_distractor_diamondtriangles.svg	stimuli_target_trianglerectangles.svg	9	yes	57	0	417	0	0			0	0			1				0	
6.6.1	win	2023-06-15	07:38:51	07:42:09	195183	5f117601aeef1d5095578b01	4	1	practice_z	5	practice_z	25	stimuli_distractor_diamondtriangles.svg	stimuli_target_rectangletriangles.svg	7	yes	44	1	1095	0	0			0	0			1				0	
6.6.1	win	2023-06-15	07:38:51	07:42:09	195183	5f117601aeef1d5095578b01	4	1	practice_z	5	advance_on_keypress_ZEE	26	stimuli_distractor_diamondtriangles.svg	stimuli_target_rectangletriangles.svg	7	yes	57	0	370	0	0			0	0			1				0	
6.6.1	win	2023-06-15	07:38:51	07:42:13	198536	5f117601aeef1d5095578b01	4	1	practice_z	5	practice_z	27	stimuli_distractor_trianglediamonds.svg	stimuli_distractor_trianglediamonds.svg	15	no	44	0	1346	0	0			0	0			1				0	
6.6.1	win	2023-06-15	07:38:51	07:42:13	198536	5f117601aeef1d5095578b01	4	1	practice_z	5	advance_on_keypress_ZEE	28	stimuli_distractor_trianglediamonds.svg	stimuli_distractor_trianglediamonds.svg	15	no	57	0	452	0	0			0	0			1				0	
6.6.1	win	2023-06-15	07:38:51	07:42:16	201631	5f117601aeef1d5095578b01	4	1	practice_z	5	practice_z	29	stimuli_distractor_trianglediamonds.svg	stimuli_target_squarediamonds.svg	11	yes	44	1	992	0	0			0	0			1				0	
6.6.1	win	2023-06-15	07:38:51	07:42:16	201631	5f117601aeef1d5095578b01	4	1	practice_z	5	advance_on_keypress_ZEE	30	stimuli_distractor_trianglediamonds.svg	stimuli_target_squarediamonds.svg	11	yes	57	0	496	0	0			0	0			1				0	
6.6.1	win	2023-06-15	07:38:51	07:42:20	205756	5f117601aeef1d5095578b01	4	1	practice_z	5	practice_z	31	stimuli_target_diamondsquares.svg	stimuli_distractor_trianglediamonds.svg	6	yes	0	0	2000	0	0			0	0			1				0	
6.6.1	win	2023-06-15	07:38:51	07:42:20	205756	5f117601aeef1d5095578b01	4	1	practice_z	5	advance_on_keypress_ZEE	32	stimuli_target_diamondsquares.svg	stimuli_distractor_trianglediamonds.svg	6	yes	57	0	435	0	0			0	0			1				0	
6.6.1	win	2023-06-15	07:38:51	07:42:33	219134	5f117601aeef1d5095578b01	4	1	main_z	7	main_z	1	stimuli_target_rectangletriangles.svg	stimuli_distractor_diamondtriangles.svg	5	yes	44	1	797	0	0			0	0			1				0	
6.6.1	win	2023-06-15	07:38:51	07:42:33	219134	5f117601aeef1d5095578b01	4	1	main_z	7	advance_on_keypress_ZEE	2	stimuli_target_rectangletriangles.svg	stimuli_distractor_diamondtriangles.svg	5	yes	57	0	884	0	0			0	0			1				0	
6.6.1	win	2023-06-15	07:38:51	07:42:36	221518	5f117601aeef1d5095578b01	4	1	main_z	7	main_z	3	stimuli_distractor_diamondtriangles.svg	stimuli_target_diamondrectangles.svg	31	yes	44	1	848	0	0			0	0			1				0	
6.6.1	win	2023-06-15	07:38:51	07:42:36	221518	5f117601aeef1d5095578b01	4	1	main_z	7	advance_on_keypress_ZEE	4	stimuli_distractor_diamondtriangles.svg	stimuli_target_diamondrectangles.svg	31	yes	57	0	814	0	0			0	0			1				0	
6.6.1	win	2023-06-15	07:38:51	07:42:38	223910	5f117601aeef1d5095578b01	4	1	main_z	7	main_z	5	stimuli_distractor_trianglediamonds.svg	stimuli_target_diamondsquares.svg	28	yes	44	1	956	0	0			0	0			1				0	
6.6.1	win	2023-06-15	07:38:51	07:42:38	223910	5f117601aeef1d5095578b01	4	1	main_z	7	advance_on_keypress_ZEE	6	stimuli_distractor_trianglediamonds.svg	stimuli_target_diamondsquares.svg	28	yes	57	0	677	0	0			0	0			1				0	
6.6.1	win	2023-06-15	07:38:51	07:42:40	226110	5f117601aeef1d5095578b01	4	1	main_z	7	main_z	7	stimuli_target_rectanglediamonds.svg	stimuli_distractor_diamondtriangles.svg	6	yes	44	1	890	0	0			0	0			1				0	
6.6.1	win	2023-06-15	07:38:51	07:42:40	226110	5f117601aeef1d5095578b01	4	1	main_z	7	advance_on_keypress_ZEE	8	stimuli_target_rectanglediamonds.svg	stimuli_distractor_diamondtriangles.svg	6	yes	57	0	574	0	0			0	0			1				0	
6.6.1	win	2023-06-15	07:38:51	07:42:44	229321	5f117601aeef1d5095578b01	4	1	main_z	7	main_z	9	stimuli_distractor_trianglediamonds.svg	stimuli_distractor_diamondtriangles.svg	36	no	0	1	2000	0	0			0	0			1				0	
6.6.1	win	2023-06-15	07:38:51	07:42:44	229321	5f117601aeef1d5095578b01	4	1	main_z	7	advance_on_keypress_ZEE	10	stimuli_distractor_trianglediamonds.svg	stimuli_distractor_diamondtriangles.svg	36	no	57	0	549	0	0			0	0			1				0	
6.6.1	win	2023-06-15	07:38:51	07:42:47	232521	5f117601aeef1d5095578b01	4	1	main_z	7	main_z	11	stimuli_target_diamondsquares.svg	stimuli_distractor_diamondtriangles.svg	24	yes	0	0	2000	0	0			0	0			1				0	
6.6.1	win	2023-06-15	07:38:51	07:42:47	232521	5f117601aeef1d5095578b01	4	1	main_z	7	advance_on_keypress_ZEE	12	stimuli_target_diamondsquares.svg	stimuli_distractor_diamondtriangles.svg	24	yes	57	0	549	0	0			0	0			1				0	
6.6.1	win	2023-06-15	07:38:51	07:42:49	234646	5f117601aeef1d5095578b01	4	1	main_z	7	main_z	13	stimuli_target_squaretriangles.svg	stimuli_distractor_trianglediamonds.svg	3	yes	44	1	926	0	0			0	0			1				0	
6.6.1	win	2023-06-15	07:38:51	07:42:49	234646	5f117601aeef1d5095578b01	4	1	main_z	7	advance_on_keypress_ZEE	14	stimuli_target_squaretriangles.svg	stimuli_distractor_trianglediamonds.svg	3	yes	57	0	921	0	0			0	0			1				0	
6.6.1	win	2023-06-15	07:38:51	07:42:51	237102	5f117601aeef1d5095578b01	4	1	main_z	7	main_z	15	stimuli_distractor_trianglediamonds.svg	stimuli_target_squaretriangles.svg	11	yes	44	1	899	0	0			0	0			1				0	
6.6.1	win	2023-06-15	07:38:51	07:42:51	237102	5f117601aeef1d5095578b01	4	1	main_z	7	advance_on_keypress_ZEE	16	stimuli_distractor_trianglediamonds.svg	stimuli_target_squaretriangles.svg	11	yes	57	0	574	0	0			0	0			1				0	
6.6.1	win	2023-06-15	07:38:51	07:42:55	240320	5f117601aeef1d5095578b01	4	1	main_z	7	main_z	17	stimuli_distractor_diamondtriangles.svg	stimuli_distractor_trianglediamonds.svg	37	no	0	1	2000	0	0			0	0			1				0	
6.6.1	win	2023-06-15	07:38:51	07:42:55	240320	5f117601aeef1d5095578b01	4	1	main_z	7	advance_on_keypress_ZEE	18	stimuli_distractor_diamondtriangles.svg	stimuli_distractor_trianglediamonds.svg	37	no	57	0	357	0	0			0	0			1				0	
6.6.1	win	2023-06-15	07:38:51	07:42:56	242222	5f117601aeef1d5095578b01	4	1	main_z	7	main_z	19	stimuli_distractor_diamondtriangles.svg	stimuli_target_squarediamonds.svg	16	yes	44	1	902	0	0			0	0			1				0	
6.6.1	win	2023-06-15	07:38:51	07:42:56	242222	5f117601aeef1d5095578b01	4	1	main_z	7	advance_on_keypress_ZEE	20	stimuli_distractor_diamondtriangles.svg	stimuli_target_squarediamonds.svg	16	yes	57	0	785	0	0			0	0			1				0	
6.6.1	win	2023-06-15	07:38:51	07:43:00	245654	5f117601aeef1d5095578b01	4	1	main_z	7	main_z	21	stimuli_distractor_trianglediamonds.svg	stimuli_distractor_diamondtriangles.svg	35	no	0	1	2000	0	0			0	0			1				0	
6.6.1	win	2023-06-15	07:38:51	07:43:00	245654	5f117601aeef1d5095578b01	4	1	main_z	7	advance_on_keypress_ZEE	22	stimuli_distractor_trianglediamonds.svg	stimuli_distractor_diamondtriangles.svg	35	no	57	0	328	0	0			0	0			1				0	
6.6.1	win	2023-06-15	07:38:51	07:43:02	247526	5f117601aeef1d5095578b01	4	1	main_z	7	main_z	23	stimuli_target_squarediamonds.svg	stimuli_distractor_diamondtriangles.svg	8	yes	44	1	906	0	0			0	0			1				0	
6.6.1	win	2023-06-15	07:38:51	07:43:02	247526	5f117601aeef1d5095578b01	4	1	main_z	7	advance_on_keypress_ZEE	24	stimuli_target_squarediamonds.svg	stimuli_distractor_diamondtriangles.svg	8	yes	57	0	966	0	0			0	0			1				0	
6.6.1	win	2023-06-15	07:38:51	07:43:05	250534	5f117601aeef1d5095578b01	4	1	main_z	7	main_z	25	stimuli_target_rectangletriangles.svg	stimuli_distractor_trianglediamonds.svg	1	yes	44	1	1397	0	0			0	0			1				0	
6.6.1	win	2023-06-15	07:38:51	07:43:05	250534	5f117601aeef1d5095578b01	4	1	main_z	7	advance_on_keypress_ZEE	26	stimuli_target_rectangletriangles.svg	stimuli_distractor_trianglediamonds.svg	1	yes	57	0	925	0	0			0	0			1				0	
6.6.1	win	2023-06-15	07:38:51	07:43:08	253302	5f117601aeef1d5095578b01	4	1	main_z	7	main_z	27	stimuli_target_trianglerectangles.svg	stimuli_distractor_diamondtriangles.svg	21	yes	44	1	1215	0	0			0	0			1				0	
6.6.1	win	2023-06-15	07:38:51	07:43:08	253302	5f117601aeef1d5095578b01	4	1	main_z	7	advance_on_keypress_ZEE	28	stimuli_target_trianglerectangles.svg	stimuli_distractor_diamondtriangles.svg	21	yes	57	0	1125	0	0			0	0			1				0	
6.6.1	win	2023-06-15	07:38:51	07:43:10	256222	5f117601aeef1d5095578b01	4	1	main_z	7	main_z	29	stimuli_target_trianglerectangles.svg	stimuli_distractor_trianglediamonds.svg	17	yes	44	1	1152	0	0			0	0			1				0	
6.6.1	win	2023-06-15	07:38:51	07:43:10	256222	5f117601aeef1d5095578b01	4	1	main_z	7	advance_on_keypress_ZEE	30	stimuli_target_trianglerectangles.svg	stimuli_distractor_trianglediamonds.svg	17	yes	57	0	761	0	0			0	0			1				0	
6.6.1	win	2023-06-15	07:38:51	07:43:13	258533	5f117601aeef1d5095578b01	4	1	main_z	7	main_z	31	stimuli_target_rectanglediamonds.svg	stimuli_distractor_trianglediamonds.svg	2	yes	44	1	913	0	0			0	0			1				0	
6.6.1	win	2023-06-15	07:38:51	07:43:13	258533	5f117601aeef1d5095578b01	4	1	main_z	7	advance_on_keypress_ZEE	32	stimuli_target_rectanglediamonds.svg	stimuli_distractor_trianglediamonds.svg	2	yes	57	0	517	0	0			0	0			1				0	
6.6.1	win	2023-06-15	07:38:51	07:43:15	260637	5f117601aeef1d5095578b01	4	1	main_z	7	main_z	33	stimuli_distractor_diamondtriangles.svg	stimuli_target_trianglerectangles.svg	29	yes	44	1	951	0	0			0	0			1				0	
6.6.1	win	2023-06-15	07:38:51	07:43:15	260637	5f117601aeef1d5095578b01	4	1	main_z	7	advance_on_keypress_ZEE	34	stimuli_distractor_diamondtriangles.svg	stimuli_target_trianglerectangles.svg	29	yes	57	0	512	0	0			0	0			1				0	
6.6.1	win	2023-06-15	07:38:51	07:43:17	263253	5f117601aeef1d5095578b01	4	1	main_z	7	main_z	35	stimuli_target_diamondsquares.svg	stimuli_distractor_trianglediamonds.svg	20	yes	44	1	1467	0	0			0	0			1				0	
6.6.1	win	2023-06-15	07:38:51	07:43:17	263253	5f117601aeef1d5095578b01	4	1	main_z	7	advance_on_keypress_ZEE	36	stimuli_target_diamondsquares.svg	stimuli_distractor_trianglediamonds.svg	20	yes	57	0	608	0	0			0	0			1				0	
6.6.1	win	2023-06-15	07:38:51	07:43:20	265421	5f117601aeef1d5095578b01	4	1	main_z	7	main_z	37	stimuli_distractor_trianglediamonds.svg	stimuli_target_trianglesquares.svg	26	yes	44	1	918	0	0			0	0			1				0	
6.6.1	win	2023-06-15	07:38:51	07:43:20	265421	5f117601aeef1d5095578b01	4	1	main_z	7	advance_on_keypress_ZEE	38	stimuli_distractor_trianglediamonds.svg	stimuli_target_trianglesquares.svg	26	yes	57	0	433	0	0			0	0			1				0	
6.6.1	win	2023-06-15	07:38:51	07:43:22	267373	5f117601aeef1d5095578b01	4	1	main_z	7	main_z	39	stimuli_distractor_trianglediamonds.svg	stimuli_target_trianglerectangles.svg	25	yes	44	1	870	0	0			0	0			1				0	
6.6.1	win	2023-06-15	07:38:51	07:43:22	267373	5f117601aeef1d5095578b01	4	1	main_z	7	advance_on_keypress_ZEE	40	stimuli_distractor_trianglediamonds.svg	stimuli_target_trianglerectangles.svg	25	yes	57	0	363	0	0			0	0			1				0	
6.6.1	win	2023-06-15	07:38:51	07:43:25	270369	5f117601aeef1d5095578b01	4	1	main_z	7	main_z	41	stimuli_distractor_diamondtriangles.svg	stimuli_distractor_diamondtriangles.svg	40	no	0	1	2000	0	0			0	0			1				0	
6.6.1	win	2023-06-15	07:38:51	07:43:25	270369	5f117601aeef1d5095578b01	4	1	main_z	7	advance_on_keypress_ZEE	42	stimuli_distractor_diamondtriangles.svg	stimuli_distractor_diamondtriangles.svg	40	no	57	0	699	0	0			0	0			1				0	
6.6.1	win	2023-06-15	07:38:51	07:43:27	272533	5f117601aeef1d5095578b01	4	1	main_z	7	main_z	43	stimuli_distractor_trianglediamonds.svg	stimuli_target_rectanglediamonds.svg	10	yes	44	1	814	0	0			0	0			1				0	
6.6.1	win	2023-06-15	07:38:51	07:43:27	272533	5f117601aeef1d5095578b01	4	1	main_z	7	advance_on_keypress_ZEE	44	stimuli_distractor_trianglediamonds.svg	stimuli_target_rectanglediamonds.svg	10	yes	57	0	517	0	0			0	0			1				0	
6.6.1	win	2023-06-15	07:38:51	07:43:29	274709	5f117601aeef1d5095578b01	4	1	main_z	7	main_z	45	stimuli_target_trianglesquares.svg	stimuli_distractor_diamondtriangles.svg	22	yes	44	1	1023	0	0			0	0			1				0	
6.6.1	win	2023-06-15	07:38:51	07:43:29	274709	5f117601aeef1d5095578b01	4	1	main_z	7	advance_on_keypress_ZEE	46	stimuli_target_trianglesquares.svg	stimuli_distractor_diamondtriangles.svg	22	yes	57	0	414	0	0			0	0			1				0	
6.6.1	win	2023-06-15	07:38:51	07:43:31	276613	5f117601aeef1d5095578b01	4	1	main_z	7	main_z	47	stimuli_target_diamondrectangles.svg	stimuli_distractor_trianglediamonds.svg	19	yes	44	1	861	0	0			0	0			1				0	
6.6.1	win	2023-06-15	07:38:51	07:43:31	276613	5f117601aeef1d5095578b01	4	1	main_z	7	advance_on_keypress_ZEE	48	stimuli_target_diamondrectangles.svg	stimuli_distractor_trianglediamonds.svg	19	yes	57	0	370	0	0			0	0			1				0	
6.6.1	win	2023-06-15	07:38:51	07:43:33	278317	5f117601aeef1d5095578b01	4	1	main_z	7	main_z	49	stimuli_distractor_diamondtriangles.svg	stimuli_target_rectangletriangles.svg	13	yes	44	1	698	0	0			0	0			1				0	
6.6.1	win	2023-06-15	07:38:51	07:43:33	278317	5f117601aeef1d5095578b01	4	1	main_z	7	advance_on_keypress_ZEE	50	stimuli_distractor_diamondtriangles.svg	stimuli_target_rectangletriangles.svg	13	yes	57	0	374	0	0			0	0			1				0	
6.6.1	win	2023-06-15	07:38:51	07:43:34	280133	5f117601aeef1d5095578b01	4	1	main_z	7	main_z	51	stimuli_distractor_diamondtriangles.svg	stimuli_target_diamondsquares.svg	32	yes	44	1	814	0	0			0	0			1				0	
6.6.1	win	2023-06-15	07:38:51	07:43:34	280133	5f117601aeef1d5095578b01	4	1	main_z	7	advance_on_keypress_ZEE	52	stimuli_distractor_diamondtriangles.svg	stimuli_target_diamondsquares.svg	32	yes	57	0	334	0	0			0	0			1				0	
6.6.1	win	2023-06-15	07:38:51	07:43:36	281773	5f117601aeef1d5095578b01	4	1	main_z	7	main_z	53	stimuli_target_squaretriangles.svg	stimuli_distractor_diamondtriangles.svg	7	yes	44	1	671	0	0			0	0			1				0	
6.6.1	win	2023-06-15	07:38:51	07:43:36	281773	5f117601aeef1d5095578b01	4	1	main_z	7	advance_on_keypress_ZEE	54	stimuli_target_squaretriangles.svg	stimuli_distractor_diamondtriangles.svg	7	yes	57	0	340	0	0			0	0			1				0	
6.6.1	win	2023-06-15	07:38:51	07:43:38	283605	5f117601aeef1d5095578b01	4	1	main_z	7	main_z	55	stimuli_distractor_trianglediamonds.svg	stimuli_target_squarediamonds.svg	12	yes	44	1	853	0	0			0	0			1				0	
6.6.1	win	2023-06-15	07:38:51	07:43:38	283605	5f117601aeef1d5095578b01	4	1	main_z	7	advance_on_keypress_ZEE	56	stimuli_distractor_trianglediamonds.svg	stimuli_target_squarediamonds.svg	12	yes	57	0	282	0	0			0	0			1				0	
6.6.1	win	2023-06-15	07:38:51	07:43:41	286536	5f117601aeef1d5095578b01	4	1	main_z	7	main_z	57	stimuli_distractor_diamondtriangles.svg	stimuli_distractor_diamondtriangles.svg	39	no	0	1	2000	0	0			0	0			1				0	
6.6.1	win	2023-06-15	07:38:51	07:43:41	286536	5f117601aeef1d5095578b01	4	1	main_z	7	advance_on_keypress_ZEE	58	stimuli_distractor_diamondtriangles.svg	stimuli_distractor_diamondtriangles.svg	39	no	57	0	229	0	0			0	0			1				0	
6.6.1	win	2023-06-15	07:38:51	07:43:42	287870	5f117601aeef1d5095578b01	4	1	main_z	7	main_z	59	stimuli_target_squarediamonds.svg	stimuli_distractor_trianglediamonds.svg	4	yes	44	1	467	0	0			0	0			1				0	
6.6.1	win	2023-06-15	07:38:51	07:43:42	287870	5f117601aeef1d5095578b01	4	1	main_z	7	advance_on_keypress_ZEE	60	stimuli_target_squarediamonds.svg	stimuli_distractor_trianglediamonds.svg	4	yes	57	0	288	0	0			0	0			1				0	
6.6.1	win	2023-06-15	07:38:51	07:43:45	290802	5f117601aeef1d5095578b01	4	1	main_z	7	main_z	61	stimuli_distractor_trianglediamonds.svg	stimuli_distractor_trianglediamonds.svg	34	no	0	1	2000	0	0			0	0			1				0	
6.6.1	win	2023-06-15	07:38:51	07:43:45	290802	5f117601aeef1d5095578b01	4	1	main_z	7	advance_on_keypress_ZEE	62	stimuli_distractor_trianglediamonds.svg	stimuli_distractor_trianglediamonds.svg	34	no	57	0	514	0	0			0	0			1				0	
6.6.1	win	2023-06-15	07:38:51	07:43:47	292797	5f117601aeef1d5095578b01	4	1	main_z	7	main_z	63	stimuli_distractor_diamondtriangles.svg	stimuli_target_trianglesquares.svg	30	yes	44	1	845	0	0			0	0			1				0	
6.6.1	win	2023-06-15	07:38:51	07:43:47	292797	5f117601aeef1d5095578b01	4	1	main_z	7	advance_on_keypress_ZEE	64	stimuli_distractor_diamondtriangles.svg	stimuli_target_trianglesquares.svg	30	yes	57	0	283	0	0			0	0			1				0	
6.6.1	win	2023-06-15	07:38:51	07:43:49	294589	5f117601aeef1d5095578b01	4	1	main_z	7	main_z	65	stimuli_distractor_trianglediamonds.svg	stimuli_target_rectangletriangles.svg	9	yes	44	1	870	0	0			0	0			1				0	
6.6.1	win	2023-06-15	07:38:51	07:43:49	294589	5f117601aeef1d5095578b01	4	1	main_z	7	advance_on_keypress_ZEE	66	stimuli_distractor_trianglediamonds.svg	stimuli_target_rectangletriangles.svg	9	yes	57	0	314	0	0			0	0			1				0	
6.6.1	win	2023-06-15	07:38:51	07:43:51	296357	5f117601aeef1d5095578b01	4	1	main_z	7	main_z	67	stimuli_distractor_trianglediamonds.svg	stimuli_target_diamondrectangles.svg	27	yes	44	1	822	0	0			0	0			1				0	
6.6.1	win	2023-06-15	07:38:51	07:43:51	296357	5f117601aeef1d5095578b01	4	1	main_z	7	advance_on_keypress_ZEE	68	stimuli_distractor_trianglediamonds.svg	stimuli_target_diamondrectangles.svg	27	yes	57	0	301	0	0			0	0			1				0	
6.6.1	win	2023-06-15	07:38:51	07:43:52	298029	5f117601aeef1d5095578b01	4	1	main_z	7	main_z	69	stimuli_distractor_diamondtriangles.svg	stimuli_target_squaretriangles.svg	15	yes	44	1	727	0	0			0	0			1				0	
6.6.1	win	2023-06-15	07:38:51	07:43:52	298029	5f117601aeef1d5095578b01	4	1	main_z	7	advance_on_keypress_ZEE	70	stimuli_distractor_diamondtriangles.svg	stimuli_target_squaretriangles.svg	15	yes	57	0	322	0	0			0	0			1				0	
6.6.1	win	2023-06-15	07:38:51	07:43:55	300985	5f117601aeef1d5095578b01	4	1	main_z	7	main_z	71	stimuli_distractor_trianglediamonds.svg	stimuli_distractor_trianglediamonds.svg	33	no	0	1	2000	0	0			0	0			1				0	
6.6.1	win	2023-06-15	07:38:51	07:43:55	300985	5f117601aeef1d5095578b01	4	1	main_z	7	advance_on_keypress_ZEE	72	stimuli_distractor_trianglediamonds.svg	stimuli_distractor_trianglediamonds.svg	33	no	57	0	459	0	0			0	0			1				0	
6.6.1	win	2023-06-15	07:38:51	07:43:57	302813	5f117601aeef1d5095578b01	4	1	main_z	7	main_z	73	stimuli_target_diamondrectangles.svg	stimuli_distractor_diamondtriangles.svg	23	yes	44	1	728	0	0			0	0			1				0	
6.6.1	win	2023-06-15	07:38:51	07:43:57	302813	5f117601aeef1d5095578b01	4	1	main_z	7	advance_on_keypress_ZEE	74	stimuli_target_diamondrectangles.svg	stimuli_distractor_diamondtriangles.svg	23	yes	57	0	273	0	0			0	0			1				0	
6.6.1	win	2023-06-15	07:38:51	07:43:59	304548	5f117601aeef1d5095578b01	4	1	main_z	7	main_z	75	stimuli_distractor_diamondtriangles.svg	stimuli_target_rectanglediamonds.svg	14	yes	44	1	830	0	0			0	0			1				0	
6.6.1	win	2023-06-15	07:38:51	07:43:59	304548	5f117601aeef1d5095578b01	4	1	main_z	7	advance_on_keypress_ZEE	76	stimuli_distractor_diamondtriangles.svg	stimuli_target_rectanglediamonds.svg	14	yes	57	0	301	0	0			0	0			1				0	
6.6.1	win	2023-06-15	07:38:51	07:44:01	306357	5f117601aeef1d5095578b01	4	1	main_z	7	main_z	77	stimuli_target_trianglesquares.svg	stimuli_distractor_trianglediamonds.svg	18	yes	44	1	871	0	0			0	0			1				0	
6.6.1	win	2023-06-15	07:38:51	07:44:01	306357	5f117601aeef1d5095578b01	4	1	main_z	7	advance_on_keypress_ZEE	78	stimuli_target_trianglesquares.svg	stimuli_distractor_trianglediamonds.svg	18	yes	57	0	204	0	0			0	0			1				0	
6.6.1	win	2023-06-15	07:38:51	07:44:03	309202	5f117601aeef1d5095578b01	4	1	main_z	7	main_z	79	stimuli_distractor_diamondtriangles.svg	stimuli_distractor_trianglediamonds.svg	38	no	0	1	2000	0	0			0	0			1				0	
6.6.1	win	2023-06-15	07:38:51	07:44:03	309202	5f117601aeef1d5095578b01	4	1	main_z	7	advance_on_keypress_ZEE	80	stimuli_distractor_diamondtriangles.svg	stimuli_distractor_trianglediamonds.svg	38	no	57	0	698	0	0			0	0			1				0	
6.6.1	win	2023-06-15	07:38:51	07:44:06	311516	5f117601aeef1d5095578b01	4	1	main_z	7	main_z	81	stimuli_target_squarediamonds.svg	stimuli_distractor_trianglediamonds.svg	4	yes	44	1	965	0	0			0	0			1				0	
6.6.1	win	2023-06-15	07:38:51	07:44:06	311516	5f117601aeef1d5095578b01	4	1	main_z	7	advance_on_keypress_ZEE	82	stimuli_target_squarediamonds.svg	stimuli_distractor_trianglediamonds.svg	4	yes	57	0	285	0	0			0	0			1				0	
6.6.1	win	2023-06-15	07:38:51	07:44:07	313268	5f117601aeef1d5095578b01	4	1	main_z	7	main_z	83	stimuli_distractor_trianglediamonds.svg	stimuli_target_rectangletriangles.svg	9	yes	44	1	817	0	0			0	0			1				0	
6.6.1	win	2023-06-15	07:38:51	07:44:07	313268	5f117601aeef1d5095578b01	4	1	main_z	7	advance_on_keypress_ZEE	84	stimuli_distractor_trianglediamonds.svg	stimuli_target_rectangletriangles.svg	9	yes	57	0	279	0	0			0	0			1				0	
6.6.1	win	2023-06-15	07:38:51	07:44:09	315044	5f117601aeef1d5095578b01	4	1	main_z	7	main_z	85	stimuli_distractor_diamondtriangles.svg	stimuli_target_rectanglediamonds.svg	14	yes	44	1	859	0	0			0	0			1				0	
6.6.1	win	2023-06-15	07:38:51	07:44:09	315044	5f117601aeef1d5095578b01	4	1	main_z	7	advance_on_keypress_ZEE	86	stimuli_distractor_diamondtriangles.svg	stimuli_target_rectanglediamonds.svg	14	yes	57	0	313	0	0			0	0			1				0	
6.6.1	win	2023-06-15	07:38:51	07:44:12	317985	5f117601aeef1d5095578b01	4	1	main_z	7	main_z	87	stimuli_distractor_diamondtriangles.svg	stimuli_distractor_diamondtriangles.svg	40	no	0	1	2000	0	0			0	0			1				0	
6.6.1	win	2023-06-15	07:38:51	07:44:12	317985	5f117601aeef1d5095578b01	4	1	main_z	7	advance_on_keypress_ZEE	88	stimuli_distractor_diamondtriangles.svg	stimuli_distractor_diamondtriangles.svg	40	no	57	0	331	0	0			0	0			1				0	
6.6.1	win	2023-06-15	07:38:51	07:44:14	319668	5f117601aeef1d5095578b01	4	1	main_z	7	main_z	89	stimuli_target_trianglerectangles.svg	stimuli_distractor_trianglediamonds.svg	17	yes	44	1	700	0	0			0	0			1				0	
6.6.1	win	2023-06-15	07:38:51	07:44:14	319668	5f117601aeef1d5095578b01	4	1	main_z	7	advance_on_keypress_ZEE	90	stimuli_target_trianglerectangles.svg	stimuli_distractor_trianglediamonds.svg	17	yes	57	0	320	0	0			0	0			1				0	
6.6.1	win	2023-06-15	07:38:51	07:44:17	322635	5f117601aeef1d5095578b01	4	1	main_z	7	main_z	91	stimuli_distractor_diamondtriangles.svg	stimuli_distractor_trianglediamonds.svg	37	no	0	1	2000	0	0			0	0			1				0	
6.6.1	win	2023-06-15	07:38:51	07:44:17	322635	5f117601aeef1d5095578b01	4	1	main_z	7	advance_on_keypress_ZEE	92	stimuli_distractor_diamondtriangles.svg	stimuli_distractor_trianglediamonds.svg	37	no	57	0	864	0	0			0	0			1				0	
6.6.1	win	2023-06-15	07:38:51	07:44:19	325020	5f117601aeef1d5095578b01	4	1	main_z	7	main_z	93	stimuli_distractor_trianglediamonds.svg	stimuli_target_trianglerectangles.svg	25	yes	44	1	869	0	0			0	0			1				0	
6.6.1	win	2023-06-15	07:38:51	07:44:19	325020	5f117601aeef1d5095578b01	4	1	main_z	7	advance_on_keypress_ZEE	94	stimuli_distractor_trianglediamonds.svg	stimuli_target_trianglerectangles.svg	25	yes	57	0	226	0	0			0	0			1				0	
6.6.1	win	2023-06-15	07:38:51	07:44:21	327156	5f117601aeef1d5095578b01	4	1	main_z	7	main_z	95	stimuli_distractor_trianglediamonds.svg	stimuli_distractor_diamondtriangles.svg	36	no	44	0	1272	0	0			0	0			1				0	
6.6.1	win	2023-06-15	07:38:51	07:44:21	327156	5f117601aeef1d5095578b01	4	1	main_z	7	advance_on_keypress_ZEE	96	stimuli_distractor_trianglediamonds.svg	stimuli_distractor_diamondtriangles.svg	36	no	57	0	284	0	0			0	0			1				0	
6.6.1	win	2023-06-15	07:38:51	07:44:23	328988	5f117601aeef1d5095578b01	4	1	main_z	7	main_z	97	stimuli_target_diamondrectangles.svg	stimuli_distractor_diamondtriangles.svg	23	yes	44	1	904	0	0			0	0			1				0	
6.6.1	win	2023-06-15	07:38:51	07:44:23	328988	5f117601aeef1d5095578b01	4	1	main_z	7	advance_on_keypress_ZEE	98	stimuli_target_diamondrectangles.svg	stimuli_distractor_diamondtriangles.svg	23	yes	57	0	227	0	0			0	0			1				0	
6.6.1	win	2023-06-15	07:38:51	07:44:25	330588	5f117601aeef1d5095578b01	4	1	main_z	7	main_z	99	stimuli_distractor_diamondtriangles.svg	stimuli_target_trianglesquares.svg	30	yes	44	1	737	0	0			0	0			1				0	
6.6.1	win	2023-06-15	07:38:51	07:44:25	330588	5f117601aeef1d5095578b01	4	1	main_z	7	advance_on_keypress_ZEE	100	stimuli_distractor_diamondtriangles.svg	stimuli_target_trianglesquares.svg	30	yes	57	0	267	0	0			0	0			1				0	
6.6.1	win	2023-06-15	07:38:51	07:44:27	332508	5f117601aeef1d5095578b01	4	1	main_z	7	main_z	101	stimuli_target_squaretriangles.svg	stimuli_distractor_diamondtriangles.svg	7	yes	44	1	1007	0	0			0	0			1				0	
6.6.1	win	2023-06-15	07:38:51	07:44:27	332508	5f117601aeef1d5095578b01	4	1	main_z	7	advance_on_keypress_ZEE	102	stimuli_target_squaretriangles.svg	stimuli_distractor_diamondtriangles.svg	7	yes	57	0	191	0	0			0	0			1				0	
6.6.1	win	2023-06-15	07:38:51	07:44:28	334084	5f117601aeef1d5095578b01	4	1	main_z	7	main_z	103	stimuli_distractor_diamondtriangles.svg	stimuli_target_diamondsquares.svg	32	yes	44	1	750	0	0			0	0			1				0	
6.6.1	win	2023-06-15	07:38:51	07:44:28	334084	5f117601aeef1d5095578b01	4	1	main_z	7	advance_on_keypress_ZEE	104	stimuli_distractor_diamondtriangles.svg	stimuli_target_diamondsquares.svg	32	yes	57	0	247	0	0			0	0			1				0	
6.6.1	win	2023-06-15	07:38:51	07:44:30	335676	5f117601aeef1d5095578b01	4	1	main_z	7	main_z	105	stimuli_target_rectangletriangles.svg	stimuli_distractor_diamondtriangles.svg	5	yes	44	1	709	0	0			0	0			1				0	
6.6.1	win	2023-06-15	07:38:51	07:44:30	335676	5f117601aeef1d5095578b01	4	1	main_z	7	advance_on_keypress_ZEE	106	stimuli_target_rectangletriangles.svg	stimuli_distractor_diamondtriangles.svg	5	yes	57	0	240	0	0			0	0			1				0	
6.6.1	win	2023-06-15	07:38:51	07:44:31	337204	5f117601aeef1d5095578b01	4	1	main_z	7	main_z	107	stimuli_target_rectanglediamonds.svg	stimuli_distractor_diamondtriangles.svg	6	yes	44	1	653	0	0			0	0			1				0	
6.6.1	win	2023-06-15	07:38:51	07:44:31	337204	5f117601aeef1d5095578b01	4	1	main_z	7	advance_on_keypress_ZEE	108	stimuli_target_rectanglediamonds.svg	stimuli_distractor_diamondtriangles.svg	6	yes	57	0	195	0	0			0	0			1				0	
6.6.1	win	2023-06-15	07:38:51	07:44:33	338604	5f117601aeef1d5095578b01	4	1	main_z	7	main_z	109	stimuli_distractor_trianglediamonds.svg	stimuli_target_squaretriangles.svg	11	yes	44	1	570	0	0			0	0			1				0	
6.6.1	win	2023-06-15	07:38:51	07:44:33	338604	5f117601aeef1d5095578b01	4	1	main_z	7	advance_on_keypress_ZEE	110	stimuli_distractor_trianglediamonds.svg	stimuli_target_squaretriangles.svg	11	yes	57	0	195	0	0			0	0			1				0	
6.6.1	win	2023-06-15	07:38:51	07:44:34	339964	5f117601aeef1d5095578b01	4	1	main_z	7	main_z	111	stimuli_distractor_diamondtriangles.svg	stimuli_target_squaretriangles.svg	15	yes	44	1	530	0	0			0	0			1				0	
6.6.1	win	2023-06-15	07:38:51	07:44:34	339964	5f117601aeef1d5095578b01	4	1	main_z	7	advance_on_keypress_ZEE	112	stimuli_distractor_diamondtriangles.svg	stimuli_target_squaretriangles.svg	15	yes	57	0	253	0	0			0	0			1				0	
6.6.1	win	2023-06-15	07:38:51	07:44:36	341356	5f117601aeef1d5095578b01	4	1	main_z	7	main_z	113	stimuli_target_squarediamonds.svg	stimuli_distractor_diamondtriangles.svg	8	yes	44	1	505	0	0			0	0			1				0	
6.6.1	win	2023-06-15	07:38:51	07:44:36	341356	5f117601aeef1d5095578b01	4	1	main_z	7	advance_on_keypress_ZEE	114	stimuli_target_squarediamonds.svg	stimuli_distractor_diamondtriangles.svg	8	yes	57	0	141	0	0			0	0			1				0	
6.6.1	win	2023-06-15	07:38:51	07:44:37	342868	5f117601aeef1d5095578b01	4	1	main_z	7	main_z	115	stimuli_target_trianglesquares.svg	stimuli_distractor_trianglediamonds.svg	18	yes	44	1	734	0	0			0	0			1				0	
6.6.1	win	2023-06-15	07:38:51	07:44:37	342868	5f117601aeef1d5095578b01	4	1	main_z	7	advance_on_keypress_ZEE	116	stimuli_target_trianglesquares.svg	stimuli_distractor_trianglediamonds.svg	18	yes	57	0	168	0	0			0	0			1				0	
6.6.1	win	2023-06-15	07:38:51	07:44:39	344316	5f117601aeef1d5095578b01	4	1	main_z	7	main_z	117	stimuli_distractor_trianglediamonds.svg	stimuli_target_diamondsquares.svg	28	yes	44	1	632	0	0			0	0			1				0	
6.6.1	win	2023-06-15	07:38:51	07:44:39	344316	5f117601aeef1d5095578b01	4	1	main_z	7	advance_on_keypress_ZEE	118	stimuli_distractor_trianglediamonds.svg	stimuli_target_diamondsquares.svg	28	yes	57	0	238	0	0			0	0			1				0	
6.6.1	win	2023-06-15	07:38:51	07:44:40	345828	5f117601aeef1d5095578b01	4	1	main_z	7	main_z	119	stimuli_target_rectanglediamonds.svg	stimuli_distractor_trianglediamonds.svg	2	yes	44	1	628	0	0			0	0			1				0	
6.6.1	win	2023-06-15	07:38:51	07:44:40	345828	5f117601aeef1d5095578b01	4	1	main_z	7	advance_on_keypress_ZEE	120	stimuli_target_rectanglediamonds.svg	stimuli_distractor_trianglediamonds.svg	2	yes	57	0	322	0	0			0	0			1				0	
6.6.1	win	2023-06-15	07:38:51	07:44:42	347348	5f117601aeef1d5095578b01	4	1	main_z	7	main_z	121	stimuli_distractor_diamondtriangles.svg	stimuli_target_diamondrectangles.svg	31	yes	44	1	564	0	0			0	0			1				0	
6.6.1	win	2023-06-15	07:38:51	07:44:42	347348	5f117601aeef1d5095578b01	4	1	main_z	7	advance_on_keypress_ZEE	122	stimuli_distractor_diamondtriangles.svg	stimuli_target_diamondrectangles.svg	31	yes	57	0	229	0	0			0	0			1				0	
6.6.1	win	2023-06-15	07:38:51	07:44:43	348763	5f117601aeef1d5095578b01	4	1	main_z	7	main_z	123	stimuli_target_squaretriangles.svg	stimuli_distractor_trianglediamonds.svg	3	yes	44	1	564	0	0			0	0			1				0	
6.6.1	win	2023-06-15	07:38:51	07:44:43	348763	5f117601aeef1d5095578b01	4	1	main_z	7	advance_on_keypress_ZEE	124	stimuli_target_squaretriangles.svg	stimuli_distractor_trianglediamonds.svg	3	yes	57	0	189	0	0			0	0			1				0	
6.6.1	win	2023-06-15	07:38:51	07:44:44	350228	5f117601aeef1d5095578b01	4	1	main_z	7	main_z	125	stimuli_distractor_diamondtriangles.svg	stimuli_target_trianglerectangles.svg	29	yes	44	1	644	0	0			0	0			1				0	
6.6.1	win	2023-06-15	07:38:51	07:44:44	350228	5f117601aeef1d5095578b01	4	1	main_z	7	advance_on_keypress_ZEE	126	stimuli_distractor_diamondtriangles.svg	stimuli_target_trianglerectangles.svg	29	yes	57	0	209	0	0			0	0			1				0	
6.6.1	win	2023-06-15	07:38:51	07:44:46	351636	5f117601aeef1d5095578b01	4	1	main_z	7	main_z	127	stimuli_distractor_trianglediamonds.svg	stimuli_target_rectanglediamonds.svg	10	yes	44	1	569	0	0			0	0			1				0	
6.6.1	win	2023-06-15	07:38:51	07:44:46	351636	5f117601aeef1d5095578b01	4	1	main_z	7	advance_on_keypress_ZEE	128	stimuli_distractor_trianglediamonds.svg	stimuli_target_rectanglediamonds.svg	10	yes	57	0	192	0	0			0	0			1				0	
6.6.1	win	2023-06-15	07:38:51	07:44:49	354467	5f117601aeef1d5095578b01	4	1	main_z	7	main_z	129	stimuli_target_trianglerectangles.svg	stimuli_distractor_diamondtriangles.svg	21	yes	0	0	2000	0	0			0	0			1				0	
6.6.1	win	2023-06-15	07:38:51	07:44:49	354467	5f117601aeef1d5095578b01	4	1	main_z	7	advance_on_keypress_ZEE	130	stimuli_target_trianglerectangles.svg	stimuli_distractor_diamondtriangles.svg	21	yes	57	0	392	0	0			0	0			1				0	
6.6.1	win	2023-06-15	07:38:51	07:44:50	356052	5f117601aeef1d5095578b01	4	1	main_z	7	main_z	131	stimuli_target_rectangletriangles.svg	stimuli_distractor_trianglediamonds.svg	1	yes	44	1	551	0	0			0	0			1				0	
6.6.1	win	2023-06-15	07:38:51	07:44:50	356052	5f117601aeef1d5095578b01	4	1	main_z	7	advance_on_keypress_ZEE	132	stimuli_target_rectangletriangles.svg	stimuli_distractor_trianglediamonds.svg	1	yes	57	0	304	0	0			0	0			1				0	
6.6.1	win	2023-06-15	07:38:51	07:44:53	359000	5f117601aeef1d5095578b01	4	1	main_z	7	main_z	133	stimuli_distractor_trianglediamonds.svg	stimuli_distractor_diamondtriangles.svg	35	no	0	1	2000	0	0			0	0			1				0	
6.6.1	win	2023-06-15	07:38:51	07:44:53	359000	5f117601aeef1d5095578b01	4	1	main_z	7	advance_on_keypress_ZEE	134	stimuli_distractor_trianglediamonds.svg	stimuli_distractor_diamondtriangles.svg	35	no	57	0	354	0	0			0	0			1				0	
6.6.1	win	2023-06-15	07:38:51	07:44:55	360755	5f117601aeef1d5095578b01	4	1	main_z	7	main_z	135	stimuli_distractor_diamondtriangles.svg	stimuli_target_rectangletriangles.svg	13	yes	44	1	755	0	0			0	0			1				0	
6.6.1	win	2023-06-15	07:38:51	07:44:55	360755	5f117601aeef1d5095578b01	4	1	main_z	7	advance_on_keypress_ZEE	136	stimuli_distractor_diamondtriangles.svg	stimuli_target_rectangletriangles.svg	13	yes	57	0	236	0	0			0	0			1				0	
6.6.1	win	2023-06-15	07:38:51	07:44:57	362339	5f117601aeef1d5095578b01	4	1	main_z	7	main_z	137	stimuli_distractor_trianglediamonds.svg	stimuli_target_trianglesquares.svg	26	yes	44	1	705	0	0			0	0			1				0	
6.6.1	win	2023-06-15	07:38:51	07:44:57	362339	5f117601aeef1d5095578b01	4	1	main_z	7	advance_on_keypress_ZEE	138	stimuli_distractor_trianglediamonds.svg	stimuli_target_trianglesquares.svg	26	yes	57	0	189	0	0			0	0			1				0	
6.6.1	win	2023-06-15	07:38:51	07:44:59	365167	5f117601aeef1d5095578b01	4	1	main_z	7	main_z	139	stimuli_distractor_trianglediamonds.svg	stimuli_distractor_trianglediamonds.svg	34	no	0	1	2000	0	0			0	0			1				0	
6.6.1	win	2023-06-15	07:38:51	07:44:59	365167	5f117601aeef1d5095578b01	4	1	main_z	7	advance_on_keypress_ZEE	140	stimuli_distractor_trianglediamonds.svg	stimuli_distractor_trianglediamonds.svg	34	no	57	0	324	0	0			0	0			1				0	
6.6.1	win	2023-06-15	07:38:51	07:45:01	366867	5f117601aeef1d5095578b01	4	1	main_z	7	main_z	141	stimuli_target_diamondsquares.svg	stimuli_distractor_diamondtriangles.svg	24	yes	44	1	734	0	0			0	0			1				0	
6.6.1	win	2023-06-15	07:38:51	07:45:01	366867	5f117601aeef1d5095578b01	4	1	main_z	7	advance_on_keypress_ZEE	142	stimuli_target_diamondsquares.svg	stimuli_distractor_diamondtriangles.svg	24	yes	57	0	240	0	0			0	0			1				0	
6.6.1	win	2023-06-15	07:38:51	07:45:03	368427	5f117601aeef1d5095578b01	4	1	main_z	7	main_z	143	stimuli_distractor_trianglediamonds.svg	stimuli_target_diamondrectangles.svg	27	yes	44	1	677	0	0			0	0			1				0	
6.6.1	win	2023-06-15	07:38:51	07:45:03	368427	5f117601aeef1d5095578b01	4	1	main_z	7	advance_on_keypress_ZEE	144	stimuli_distractor_trianglediamonds.svg	stimuli_target_diamondrectangles.svg	27	yes	57	0	258	0	0			0	0			1				0	
6.6.1	win	2023-06-15	07:38:51	07:45:04	369820	5f117601aeef1d5095578b01	4	1	main_z	7	main_z	145	stimuli_distractor_trianglediamonds.svg	stimuli_target_squarediamonds.svg	12	yes	44	1	503	0	0			0	0			1				0	
6.6.1	win	2023-06-15	07:38:51	07:45:04	369820	5f117601aeef1d5095578b01	4	1	main_z	7	advance_on_keypress_ZEE	146	stimuli_distractor_trianglediamonds.svg	stimuli_target_squarediamonds.svg	12	yes	57	0	242	0	0			0	0			1				0	
6.6.1	win	2023-06-15	07:38:51	07:45:07	372700	5f117601aeef1d5095578b01	4	1	main_z	7	main_z	147	stimuli_target_diamondrectangles.svg	stimuli_distractor_trianglediamonds.svg	19	yes	0	0	2000	0	0			0	0			1				0	
6.6.1	win	2023-06-15	07:38:51	07:45:07	372700	5f117601aeef1d5095578b01	4	1	main_z	7	advance_on_keypress_ZEE	148	stimuli_target_diamondrectangles.svg	stimuli_distractor_trianglediamonds.svg	19	yes	57	0	367	0	0			0	0			1				0	
6.6.1	win	2023-06-15	07:38:51	07:45:09	374419	5f117601aeef1d5095578b01	4	1	main_z	7	main_z	149	stimuli_target_diamondsquares.svg	stimuli_distractor_trianglediamonds.svg	20	yes	44	1	703	0	0			0	0			1				0	
6.6.1	win	2023-06-15	07:38:51	07:45:09	374419	5f117601aeef1d5095578b01	4	1	main_z	7	advance_on_keypress_ZEE	150	stimuli_target_diamondsquares.svg	stimuli_distractor_trianglediamonds.svg	20	yes	57	0	218	0	0			0	0			1				0	
6.6.1	win	2023-06-15	07:38:51	07:45:10	376116	5f117601aeef1d5095578b01	4	1	main_z	7	main_z	151	stimuli_distractor_diamondtriangles.svg	stimuli_distractor_trianglediamonds.svg	38	no	44	0	832	0	0			0	0			1				0	
6.6.1	win	2023-06-15	07:38:51	07:45:10	376116	5f117601aeef1d5095578b01	4	1	main_z	7	advance_on_keypress_ZEE	152	stimuli_distractor_diamondtriangles.svg	stimuli_distractor_trianglediamonds.svg	38	no	57	0	254	0	0			0	0			1				0	
6.6.1	win	2023-06-15	07:38:51	07:45:12	377667	5f117601aeef1d5095578b01	4	1	main_z	7	main_z	153	stimuli_target_trianglesquares.svg	stimuli_distractor_diamondtriangles.svg	22	yes	44	1	651	0	0			0	0			1				0	
6.6.1	win	2023-06-15	07:38:51	07:45:12	377667	5f117601aeef1d5095578b01	4	1	main_z	7	advance_on_keypress_ZEE	154	stimuli_target_trianglesquares.svg	stimuli_distractor_diamondtriangles.svg	22	yes	57	0	208	0	0			0	0			1				0	
6.6.1	win	2023-06-15	07:38:51	07:45:15	380516	5f117601aeef1d5095578b01	4	1	main_z	7	main_z	155	stimuli_distractor_diamondtriangles.svg	stimuli_distractor_diamondtriangles.svg	39	no	0	1	2000	0	0			0	0			1				0	
6.6.1	win	2023-06-15	07:38:51	07:45:15	380516	5f117601aeef1d5095578b01	4	1	main_z	7	advance_on_keypress_ZEE	156	stimuli_distractor_diamondtriangles.svg	stimuli_distractor_diamondtriangles.svg	39	no	57	0	342	0	0			0	0			1				0	
6.6.1	win	2023-06-15	07:38:51	07:45:16	382244	5f117601aeef1d5095578b01	4	1	main_z	7	main_z	157	stimuli_distractor_trianglediamonds.svg	stimuli_distractor_trianglediamonds.svg	33	no	44	0	744	0	0			0	0			1				0	
6.6.1	win	2023-06-15	07:38:51	07:45:16	382244	5f117601aeef1d5095578b01	4	1	main_z	7	advance_on_keypress_ZEE	158	stimuli_distractor_trianglediamonds.svg	stimuli_distractor_trianglediamonds.svg	33	no	57	0	282	0	0			0	0			1				0	
6.6.1	win	2023-06-15	07:38:51	07:45:18	383811	5f117601aeef1d5095578b01	4	1	main_z	7	main_z	159	stimuli_distractor_diamondtriangles.svg	stimuli_target_squarediamonds.svg	16	yes	44	1	645	0	0			0	0			1				0	
6.6.1	win	2023-06-15	07:38:51	07:45:18	383811	5f117601aeef1d5095578b01	4	1	main_z	7	advance_on_keypress_ZEE	160	stimuli_distractor_diamondtriangles.svg	stimuli_target_squarediamonds.svg	16	yes	57	0	211	0	0			0	0			1				0	
6.6.1	win	2023-06-15	07:38:51	07:45:46	412018	5f117601aeef1d5095578b01	4	1	practice_slash	9	practice_slash	1	stimuli_distractor_diamondtriangles.svg	stimuli_target_trianglerectangles.svg	9	yes	53	1	445	0	0			0	0			1				0	
6.6.1	win	2023-06-15	07:38:51	07:45:46	412018	5f117601aeef1d5095578b01	4	1	practice_slash	9	advance_on_keypress_SLASH	2	stimuli_distractor_diamondtriangles.svg	stimuli_target_trianglerectangles.svg	9	yes	57	0	899	0	0			0	0			1				0	
6.6.1	win	2023-06-15	07:38:51	07:45:49	415196	5f117601aeef1d5095578b01	4	1	practice_slash	9	practice_slash	3	stimuli_distractor_diamondtriangles.svg	stimuli_target_diamondrectangles.svg	8	yes	53	1	629	0	0			0	0			1				0	
6.6.1	win	2023-06-15	07:38:51	07:45:49	415196	5f117601aeef1d5095578b01	4	1	practice_slash	9	advance_on_keypress_SLASH	4	stimuli_distractor_diamondtriangles.svg	stimuli_target_diamondrectangles.svg	8	yes	57	0	620	0	0			0	0			1				0	
6.6.1	win	2023-06-15	07:38:51	07:45:52	418076	5f117601aeef1d5095578b01	4	1	practice_slash	9	practice_slash	5	stimuli_distractor_diamondtriangles.svg	stimuli_distractor_trianglediamonds.svg	14	no	53	0	626	0	0			0	0			1				0	
6.6.1	win	2023-06-15	07:38:51	07:45:52	418076	5f117601aeef1d5095578b01	4	1	practice_slash	9	advance_on_keypress_SLASH	6	stimuli_distractor_diamondtriangles.svg	stimuli_distractor_trianglediamonds.svg	14	no	57	0	496	0	0			0	0			1				0	
6.6.1	win	2023-06-15	07:38:51	07:45:55	420820	5f117601aeef1d5095578b01	4	1	practice_slash	9	practice_slash	7	stimuli_distractor_trianglediamonds.svg	stimuli_target_diamondrectangles.svg	12	yes	53	1	620	0	0			0	0			1				0	
6.6.1	win	2023-06-15	07:38:51	07:45:55	420820	5f117601aeef1d5095578b01	4	1	practice_slash	9	advance_on_keypress_SLASH	8	stimuli_distractor_trianglediamonds.svg	stimuli_target_diamondrectangles.svg	12	yes	57	0	514	0	0			0	0			1				0	
6.6.1	win	2023-06-15	07:38:51	07:45:59	424983	5f117601aeef1d5095578b01	4	1	practice_slash	9	practice_slash	9	stimuli_distractor_trianglediamonds.svg	stimuli_distractor_trianglediamonds.svg	15	no	0	1	2000	0	0			0	0			1				0	
6.6.1	win	2023-06-15	07:38:51	07:45:59	424983	5f117601aeef1d5095578b01	4	1	practice_slash	9	advance_on_keypress_SLASH	10	stimuli_distractor_trianglediamonds.svg	stimuli_distractor_trianglediamonds.svg	15	no	57	0	476	0	0			0	0			1				0	
6.6.1	win	2023-06-15	07:38:51	07:46:02	427843	5f117601aeef1d5095578b01	4	1	practice_slash	9	practice_slash	11	stimuli_target_diamondsquares.svg	stimuli_distractor_diamondtriangles.svg	3	yes	53	1	744	0	0			0	0			1				0	
6.6.1	win	2023-06-15	07:38:51	07:46:02	427843	5f117601aeef1d5095578b01	4	1	practice_slash	9	advance_on_keypress_SLASH	12	stimuli_target_diamondsquares.svg	stimuli_distractor_diamondtriangles.svg	3	yes	57	0	594	0	0			0	0			1				0	
6.6.1	win	2023-06-15	07:38:51	07:46:05	430643	5f117601aeef1d5095578b01	4	1	practice_slash	9	practice_slash	13	stimuli_distractor_trianglediamonds.svg	stimuli_target_rectanglediamonds.svg	10	yes	53	1	577	0	0			0	0			1				0	
6.6.1	win	2023-06-15	07:38:51	07:46:05	430643	5f117601aeef1d5095578b01	4	1	practice_slash	9	advance_on_keypress_SLASH	14	stimuli_distractor_trianglediamonds.svg	stimuli_target_rectanglediamonds.svg	10	yes	57	0	442	0	0			0	0			1				0	
6.6.1	win	2023-06-15	07:38:51	07:46:09	434716	5f117601aeef1d5095578b01	4	1	practice_slash	9	practice_slash	15	stimuli_distractor_trianglediamonds.svg	stimuli_distractor_diamondtriangles.svg	16	no	0	1	2000	0	0			0	0			1				0	
6.6.1	win	2023-06-15	07:38:51	07:46:09	434716	5f117601aeef1d5095578b01	4	1	practice_slash	9	advance_on_keypress_SLASH	16	stimuli_distractor_trianglediamonds.svg	stimuli_distractor_diamondtriangles.svg	16	no	57	0	519	0	0			0	0			1				0	
6.6.1	win	2023-06-15	07:38:51	07:46:12	437410	5f117601aeef1d5095578b01	4	1	practice_slash	9	practice_slash	17	stimuli_distractor_diamondtriangles.svg	stimuli_target_rectangletriangles.svg	7	yes	53	1	529	0	0			0	0			1				0	
6.6.1	win	2023-06-15	07:38:51	07:46:12	437410	5f117601aeef1d5095578b01	4	1	practice_slash	9	advance_on_keypress_SLASH	18	stimuli_distractor_diamondtriangles.svg	stimuli_target_rectangletriangles.svg	7	yes	57	0	531	0	0			0	0			1				0	
6.6.1	win	2023-06-15	07:38:51	07:46:14	440203	5f117601aeef1d5095578b01	4	1	practice_slash	9	practice_slash	19	stimuli_target_squarediamonds.svg	stimuli_distractor_trianglediamonds.svg	5	yes	53	1	621	0	0			0	0			1				0	
6.6.1	win	2023-06-15	07:38:51	07:46:14	440203	5f117601aeef1d5095578b01	4	1	practice_slash	9	advance_on_keypress_SLASH	20	stimuli_target_squarediamonds.svg	stimuli_distractor_trianglediamonds.svg	5	yes	57	0	364	0	0			0	0			1				0	
6.6.1	win	2023-06-15	07:38:51	07:46:17	442763	5f117601aeef1d5095578b01	4	1	practice_slash	9	practice_slash	21	stimuli_target_rectanglediamonds.svg	stimuli_distractor_trianglediamonds.svg	4	yes	53	1	564	0	0			0	0			1				0	
6.6.1	win	2023-06-15	07:38:51	07:46:17	442763	5f117601aeef1d5095578b01	4	1	practice_slash	9	advance_on_keypress_SLASH	22	stimuli_target_rectanglediamonds.svg	stimuli_distractor_trianglediamonds.svg	4	yes	57	0	509	0	0			0	0			1				0	
6.6.1	win	2023-06-15	07:38:51	07:46:21	446916	5f117601aeef1d5095578b01	4	1	practice_slash	9	practice_slash	23	stimuli_distractor_diamondtriangles.svg	stimuli_distractor_diamondtriangles.svg	13	no	0	1	2000	0	0			0	0			1				0	
6.6.1	win	2023-06-15	07:38:51	07:46:21	446916	5f117601aeef1d5095578b01	4	1	practice_slash	9	advance_on_keypress_SLASH	24	stimuli_distractor_diamondtriangles.svg	stimuli_distractor_diamondtriangles.svg	13	no	57	0	415	0	0			0	0			1				0	
6.6.1	win	2023-06-15	07:38:51	07:46:24	449514	5f117601aeef1d5095578b01	4	1	practice_slash	9	practice_slash	25	stimuli_target_squarediamonds.svg	stimuli_distractor_diamondtriangles.svg	2	yes	53	1	533	0	0			0	0			1				0	
6.6.1	win	2023-06-15	07:38:51	07:46:24	449514	5f117601aeef1d5095578b01	4	1	practice_slash	9	advance_on_keypress_SLASH	26	stimuli_target_squarediamonds.svg	stimuli_distractor_diamondtriangles.svg	2	yes	57	0	455	0	0			0	0			1				0	
6.6.1	win	2023-06-15	07:38:51	07:46:27	452579	5f117601aeef1d5095578b01	4	1	practice_slash	9	practice_slash	27	stimuli_target_diamondsquares.svg	stimuli_distractor_trianglediamonds.svg	6	yes	53	1	964	0	0			0	0			1				0	
6.6.1	win	2023-06-15	07:38:51	07:46:27	452579	5f117601aeef1d5095578b01	4	1	practice_slash	9	advance_on_keypress_SLASH	28	stimuli_target_diamondsquares.svg	stimuli_distractor_trianglediamonds.svg	6	yes	57	0	421	0	0			0	0			1				0	
6.6.1	win	2023-06-15	07:38:51	07:46:29	455179	5f117601aeef1d5095578b01	4	1	practice_slash	9	practice_slash	29	stimuli_distractor_trianglediamonds.svg	stimuli_target_squarediamonds.svg	11	yes	53	1	547	0	0			0	0			1				0	
6.6.1	win	2023-06-15	07:38:51	07:46:29	455179	5f117601aeef1d5095578b01	4	1	practice_slash	9	advance_on_keypress_SLASH	30	stimuli_distractor_trianglediamonds.svg	stimuli_target_squarediamonds.svg	11	yes	57	0	420	0	0			0	0			1				0	
6.6.1	win	2023-06-15	07:38:51	07:46:32	457714	5f117601aeef1d5095578b01	4	1	practice_slash	9	practice_slash	31	stimuli_target_rectanglediamonds.svg	stimuli_distractor_diamondtriangles.svg	1	yes	53	1	466	0	0			0	0			1				0	
6.6.1	win	2023-06-15	07:38:51	07:46:32	457714	5f117601aeef1d5095578b01	4	1	practice_slash	9	advance_on_keypress_SLASH	32	stimuli_target_rectanglediamonds.svg	stimuli_distractor_diamondtriangles.svg	1	yes	57	0	406	0	0			0	0			1				0	
6.6.1	win	2023-06-15	07:38:51	07:46:36	461824	5f117601aeef1d5095578b01	4	1	main_slash	11	main_slash	1	stimuli_target_squarediamonds.svg	stimuli_distractor_diamondtriangles.svg	8	yes	53	1	1046	0	0			0	0			1				0	
6.6.1	win	2023-06-15	07:38:51	07:46:36	461824	5f117601aeef1d5095578b01	4	1	main_slash	11	advance_on_keypress_SLASH	2	stimuli_target_squarediamonds.svg	stimuli_distractor_diamondtriangles.svg	8	yes	57	0	1458	0	0			0	0			1				0	
6.6.1	win	2023-06-15	07:38:51	07:46:40	465931	5f117601aeef1d5095578b01	4	1	main_slash	11	main_slash	3	stimuli_distractor_trianglediamonds.svg	stimuli_distractor_diamondtriangles.svg	36	no	0	1	2000	0	0			0	0			1				0	
6.6.1	win	2023-06-15	07:38:51	07:46:40	465931	5f117601aeef1d5095578b01	4	1	main_slash	11	advance_on_keypress_SLASH	4	stimuli_distractor_trianglediamonds.svg	stimuli_distractor_diamondtriangles.svg	36	no	57	0	623	0	0			0	0			1				0	
6.6.1	win	2023-06-15	07:38:51	07:46:42	467625	5f117601aeef1d5095578b01	4	1	main_slash	11	main_slash	5	stimuli_target_rectanglediamonds.svg	stimuli_distractor_trianglediamonds.svg	2	yes	53	1	428	0	0			0	0			1				0	
6.6.1	win	2023-06-15	07:38:51	07:46:42	467625	5f117601aeef1d5095578b01	4	1	main_slash	11	advance_on_keypress_SLASH	6	stimuli_target_rectanglediamonds.svg	stimuli_distractor_trianglediamonds.svg	2	yes	57	0	211	0	0			0	0			1				0	
6.6.1	win	2023-06-15	07:38:51	07:46:43	468985	5f117601aeef1d5095578b01	4	1	main_slash	11	main_slash	7	stimuli_target_squaretriangles.svg	stimuli_distractor_diamondtriangles.svg	7	yes	53	1	521	0	0			0	0			1				0	
6.6.1	win	2023-06-15	07:38:51	07:46:43	468985	5f117601aeef1d5095578b01	4	1	main_slash	11	advance_on_keypress_SLASH	8	stimuli_target_squaretriangles.svg	stimuli_distractor_diamondtriangles.svg	7	yes	57	0	132	0	0			0	0			1				0	
6.6.1	win	2023-06-15	07:38:51	07:46:44	470233	5f117601aeef1d5095578b01	4	1	main_slash	11	main_slash	9	stimuli_target_squaretriangles.svg	stimuli_distractor_trianglediamonds.svg	3	yes	53	1	469	0	0			0	0			1				0	
6.6.1	win	2023-06-15	07:38:51	07:46:44	470233	5f117601aeef1d5095578b01	4	1	main_slash	11	advance_on_keypress_SLASH	10	stimuli_target_squaretriangles.svg	stimuli_distractor_trianglediamonds.svg	3	yes	57	0	66	0	0			0	0			1				0	
6.6.1	win	2023-06-15	07:38:51	07:46:47	472947	5f117601aeef1d5095578b01	4	1	main_slash	11	main_slash	11	stimuli_target_diamondsquares.svg	stimuli_distractor_diamondtriangles.svg	24	yes	0	0	2000	0	0			0	0			1				0	
6.6.1	win	2023-06-15	07:38:51	07:46:47	472947	5f117601aeef1d5095578b01	4	1	main_slash	11	advance_on_keypress_SLASH	12	stimuli_target_diamondsquares.svg	stimuli_distractor_diamondtriangles.svg	24	yes	57	0	517	0	0			0	0			1				0	
6.6.1	win	2023-06-15	07:38:51	07:46:50	476114	5f117601aeef1d5095578b01	4	1	main_slash	11	main_slash	13	stimuli_distractor_diamondtriangles.svg	stimuli_target_squaretriangles.svg	15	yes	0	0	2000	0	0			0	0			1				0	
6.6.1	win	2023-06-15	07:38:51	07:46:50	476114	5f117601aeef1d5095578b01	4	1	main_slash	11	advance_on_keypress_SLASH	14	stimuli_distractor_diamondtriangles.svg	stimuli_target_squaretriangles.svg	15	yes	57	0	447	0	0			0	0			1				0	
6.6.1	win	2023-06-15	07:38:51	07:46:52	477753	5f117601aeef1d5095578b01	4	1	main_slash	11	main_slash	15	stimuli_target_squarediamonds.svg	stimuli_distractor_trianglediamonds.svg	4	yes	53	1	556	0	0			0	0			1				0	
6.6.1	win	2023-06-15	07:38:51	07:46:52	477753	5f117601aeef1d5095578b01	4	1	main_slash	11	advance_on_keypress_SLASH	16	stimuli_target_squarediamonds.svg	stimuli_distractor_trianglediamonds.svg	4	yes	57	0	262	0	0			0	0			1				0	
6.6.1	win	2023-06-15	07:38:51	07:46:53	479233	5f117601aeef1d5095578b01	4	1	main_slash	11	main_slash	17	stimuli_distractor_trianglediamonds.svg	stimuli_target_diamondsquares.svg	28	yes	53	1	586	0	0			0	0			1				0	
6.6.1	win	2023-06-15	07:38:51	07:46:53	479233	5f117601aeef1d5095578b01	4	1	main_slash	11	advance_on_keypress_SLASH	18	stimuli_distractor_trianglediamonds.svg	stimuli_target_diamondsquares.svg	28	yes	57	0	282	0	0			0	0			1				0	
6.6.1	win	2023-06-15	07:38:51	07:46:55	480793	5f117601aeef1d5095578b01	4	1	main_slash	11	main_slash	19	stimuli_distractor_trianglediamonds.svg	stimuli_target_rectanglediamonds.svg	10	yes	53	1	630	0	0			0	0			1				0	
6.6.1	win	2023-06-15	07:38:51	07:46:55	480793	5f117601aeef1d5095578b01	4	1	main_slash	11	advance_on_keypress_SLASH	20	stimuli_distractor_trianglediamonds.svg	stimuli_target_rectanglediamonds.svg	10	yes	57	0	308	0	0			0	0			1				0	
6.6.1	win	2023-06-15	07:38:51	07:46:56	482153	5f117601aeef1d5095578b01	4	1	main_slash	11	main_slash	21	stimuli_target_rectangletriangles.svg	stimuli_distractor_trianglediamonds.svg	1	yes	53	1	423	0	0			0	0			1				0	
6.6.1	win	2023-06-15	07:38:51	07:46:56	482153	5f117601aeef1d5095578b01	4	1	main_slash	11	advance_on_keypress_SLASH	22	stimuli_target_rectangletriangles.svg	stimuli_distractor_trianglediamonds.svg	1	yes	57	0	278	0	0			0	0			1				0	
6.6.1	win	2023-06-15	07:38:51	07:46:58	484121	5f117601aeef1d5095578b01	4	1	main_slash	11	main_slash	23	stimuli_distractor_diamondtriangles.svg	stimuli_target_trianglerectangles.svg	29	yes	53	1	1058	0	0			0	0			1				0	
6.6.1	win	2023-06-15	07:38:51	07:46:58	484121	5f117601aeef1d5095578b01	4	1	main_slash	11	advance_on_keypress_SLASH	24	stimuli_distractor_diamondtriangles.svg	stimuli_target_trianglerectangles.svg	29	yes	57	0	263	0	0			0	0			1				0	
6.6.1	win	2023-06-15	07:38:51	07:47:00	485658	5f117601aeef1d5095578b01	4	1	main_slash	11	main_slash	25	stimuli_distractor_diamondtriangles.svg	stimuli_target_rectangletriangles.svg	13	yes	53	1	644	0	0			0	0			1				0	
6.6.1	win	2023-06-15	07:38:51	07:47:00	485658	5f117601aeef1d5095578b01	4	1	main_slash	11	advance_on_keypress_SLASH	26	stimuli_distractor_diamondtriangles.svg	stimuli_target_rectangletriangles.svg	13	yes	57	0	257	0	0			0	0			1				0	
6.6.1	win	2023-06-15	07:38:51	07:47:01	487033	5f117601aeef1d5095578b01	4	1	main_slash	11	main_slash	27	stimuli_distractor_diamondtriangles.svg	stimuli_target_squarediamonds.svg	16	yes	53	1	486	0	0			0	0			1				0	
6.6.1	win	2023-06-15	07:38:51	07:47:01	487033	5f117601aeef1d5095578b01	4	1	main_slash	11	advance_on_keypress_SLASH	28	stimuli_distractor_diamondtriangles.svg	stimuli_target_squarediamonds.svg	16	yes	57	0	243	0	0			0	0			1				0	
6.6.1	win	2023-06-15	07:38:51	07:47:03	488321	5f117601aeef1d5095578b01	4	1	main_slash	11	main_slash	29	stimuli_distractor_diamondtriangles.svg	stimuli_target_rectanglediamonds.svg	14	yes	53	1	408	0	0			0	0			1				0	
6.6.1	win	2023-06-15	07:38:51	07:47:03	488321	5f117601aeef1d5095578b01	4	1	main_slash	11	advance_on_keypress_SLASH	30	stimuli_distractor_diamondtriangles.svg	stimuli_target_rectanglediamonds.svg	14	yes	57	0	191	0	0			0	0			1				0	
6.6.1	win	2023-06-15	07:38:51	07:47:04	489857	5f117601aeef1d5095578b01	4	1	main_slash	11	main_slash	31	stimuli_target_trianglesquares.svg	stimuli_distractor_trianglediamonds.svg	18	yes	53	1	711	0	0			0	0			1				0	
6.6.1	win	2023-06-15	07:38:51	07:47:04	489857	5f117601aeef1d5095578b01	4	1	main_slash	11	advance_on_keypress_SLASH	32	stimuli_target_trianglesquares.svg	stimuli_distractor_trianglediamonds.svg	18	yes	57	0	226	0	0			0	0			1				0	
6.6.1	win	2023-06-15	07:38:51	07:47:06	491305	5f117601aeef1d5095578b01	4	1	main_slash	11	main_slash	33	stimuli_target_rectangletriangles.svg	stimuli_distractor_diamondtriangles.svg	5	yes	53	1	592	0	0			0	0			1				0	
6.6.1	win	2023-06-15	07:38:51	07:47:06	491305	5f117601aeef1d5095578b01	4	1	main_slash	11	advance_on_keypress_SLASH	34	stimuli_target_rectangletriangles.svg	stimuli_distractor_diamondtriangles.svg	5	yes	57	0	232	0	0			0	0			1				0	
6.6.1	win	2023-06-15	07:38:51	07:47:08	494180	5f117601aeef1d5095578b01	4	1	main_slash	11	main_slash	35	stimuli_distractor_trianglediamonds.svg	stimuli_distractor_diamondtriangles.svg	35	no	0	1	2000	0	0			0	0			1				0	
6.6.1	win	2023-06-15	07:38:51	07:47:08	494180	5f117601aeef1d5095578b01	4	1	main_slash	11	advance_on_keypress_SLASH	36	stimuli_distractor_trianglediamonds.svg	stimuli_distractor_diamondtriangles.svg	35	no	57	0	325	0	0			0	0			1				0	
6.6.1	win	2023-06-15	07:38:51	07:47:10	495833	5f117601aeef1d5095578b01	4	1	main_slash	11	main_slash	37	stimuli_distractor_trianglediamonds.svg	stimuli_target_trianglesquares.svg	26	yes	53	1	687	0	0			0	0			1				0	
6.6.1	win	2023-06-15	07:38:51	07:47:10	495833	5f117601aeef1d5095578b01	4	1	main_slash	11	advance_on_keypress_SLASH	38	stimuli_distractor_trianglediamonds.svg	stimuli_target_trianglesquares.svg	26	yes	57	0	235	0	0			0	0			1				0	
6.6.1	win	2023-06-15	07:38:51	07:47:12	497593	5f117601aeef1d5095578b01	4	1	main_slash	11	main_slash	39	stimuli_distractor_trianglediamonds.svg	stimuli_target_diamondrectangles.svg	27	yes	53	1	880	0	0			0	0			1				0	
6.6.1	win	2023-06-15	07:38:51	07:47:12	497593	5f117601aeef1d5095578b01	4	1	main_slash	11	advance_on_keypress_SLASH	40	stimuli_distractor_trianglediamonds.svg	stimuli_target_diamondrectangles.svg	27	yes	57	0	293	0	0			0	0			1				0	
6.6.1	win	2023-06-15	07:38:51	07:47:13	499097	5f117601aeef1d5095578b01	4	1	main_slash	11	main_slash	41	stimuli_distractor_diamondtriangles.svg	stimuli_target_trianglesquares.svg	30	yes	53	1	584	0	0			0	0			1				0	
6.6.1	win	2023-06-15	07:38:51	07:47:13	499097	5f117601aeef1d5095578b01	4	1	main_slash	11	advance_on_keypress_SLASH	42	stimuli_distractor_diamondtriangles.svg	stimuli_target_trianglesquares.svg	30	yes	57	0	256	0	0			0	0			1				0	
6.6.1	win	2023-06-15	07:38:51	07:47:15	500617	5f117601aeef1d5095578b01	4	1	main_slash	11	main_slash	43	stimuli_distractor_trianglediamonds.svg	stimuli_target_trianglerectangles.svg	25	yes	53	1	621	0	0			0	0			1				0	
6.6.1	win	2023-06-15	07:38:51	07:47:15	500617	5f117601aeef1d5095578b01	4	1	main_slash	11	advance_on_keypress_SLASH	44	stimuli_distractor_trianglediamonds.svg	stimuli_target_trianglerectangles.svg	25	yes	57	0	204	0	0			0	0			1				0	
6.6.1	win	2023-06-15	07:38:51	07:47:18	503463	5f117601aeef1d5095578b01	4	1	main_slash	11	main_slash	45	stimuli_target_trianglerectangles.svg	stimuli_distractor_trianglediamonds.svg	17	yes	0	0	2000	0	0			0	0			1				0	
6.6.1	win	2023-06-15	07:38:51	07:47:18	503463	5f117601aeef1d5095578b01	4	1	main_slash	11	advance_on_keypress_SLASH	46	stimuli_target_trianglerectangles.svg	stimuli_distractor_trianglediamonds.svg	17	yes	57	0	329	0	0			0	0			1				0	
6.6.1	win	2023-06-15	07:38:51	07:47:21	506430	5f117601aeef1d5095578b01	4	1	main_slash	11	main_slash	47	stimuli_distractor_trianglediamonds.svg	stimuli_distractor_trianglediamonds.svg	34	no	0	1	2000	0	0			0	0			1				0	
6.6.1	win	2023-06-15	07:38:51	07:47:21	506430	5f117601aeef1d5095578b01	4	1	main_slash	11	advance_on_keypress_SLASH	48	stimuli_distractor_trianglediamonds.svg	stimuli_distractor_trianglediamonds.svg	34	no	57	0	338	0	0			0	0			1				0	
6.6.1	win	2023-06-15	07:38:51	07:47:24	509413	5f117601aeef1d5095578b01	4	1	main_slash	11	main_slash	49	stimuli_distractor_diamondtriangles.svg	stimuli_distractor_trianglediamonds.svg	38	no	0	1	2000	0	0			0	0			1				0	
6.6.1	win	2023-06-15	07:38:51	07:47:24	509413	5f117601aeef1d5095578b01	4	1	main_slash	11	advance_on_keypress_SLASH	50	stimuli_distractor_diamondtriangles.svg	stimuli_distractor_trianglediamonds.svg	38	no	57	0	323	0	0			0	0			1				0	
6.6.1	win	2023-06-15	07:38:51	07:47:26	511288	5f117601aeef1d5095578b01	4	1	main_slash	11	main_slash	51	stimuli_target_diamondrectangles.svg	stimuli_distractor_trianglediamonds.svg	19	yes	53	1	909	0	0			0	0			1				0	
6.6.1	win	2023-06-15	07:38:51	07:47:26	511288	5f117601aeef1d5095578b01	4	1	main_slash	11	advance_on_keypress_SLASH	52	stimuli_target_diamondrectangles.svg	stimuli_distractor_trianglediamonds.svg	19	yes	57	0	248	0	0			0	0			1				0	
6.6.1	win	2023-06-15	07:38:51	07:47:28	514179	5f117601aeef1d5095578b01	4	1	main_slash	11	main_slash	53	stimuli_distractor_diamondtriangles.svg	stimuli_distractor_diamondtriangles.svg	39	no	0	1	2000	0	0			0	0			1				0	
6.6.1	win	2023-06-15	07:38:51	07:47:28	514179	5f117601aeef1d5095578b01	4	1	main_slash	11	advance_on_keypress_SLASH	54	stimuli_distractor_diamondtriangles.svg	stimuli_distractor_diamondtriangles.svg	39	no	57	0	532	0	0			0	0			1				0	
6.6.1	win	2023-06-15	07:38:51	07:47:30	515945	5f117601aeef1d5095578b01	4	1	main_slash	11	main_slash	55	stimuli_distractor_trianglediamonds.svg	stimuli_target_squarediamonds.svg	12	yes	53	1	583	0	0			0	0			1				0	
6.6.1	win	2023-06-15	07:38:51	07:47:30	515945	5f117601aeef1d5095578b01	4	1	main_slash	11	advance_on_keypress_SLASH	56	stimuli_distractor_trianglediamonds.svg	stimuli_target_squarediamonds.svg	12	yes	57	0	198	0	0			0	0			1				0	
6.6.1	win	2023-06-15	07:38:51	07:47:32	517576	5f117601aeef1d5095578b01	4	1	main_slash	11	main_slash	57	stimuli_target_diamondrectangles.svg	stimuli_distractor_diamondtriangles.svg	23	yes	53	1	780	0	0			0	0			1				0	
6.6.1	win	2023-06-15	07:38:51	07:47:32	517576	5f117601aeef1d5095578b01	4	1	main_slash	11	advance_on_keypress_SLASH	58	stimuli_target_diamondrectangles.svg	stimuli_distractor_diamondtriangles.svg	23	yes	57	0	229	0	0			0	0			1				0	
6.6.1	win	2023-06-15	07:38:51	07:47:33	519008	5f117601aeef1d5095578b01	4	1	main_slash	11	main_slash	59	stimuli_target_trianglesquares.svg	stimuli_distractor_diamondtriangles.svg	22	yes	53	1	579	0	0			0	0			1				0	
6.6.1	win	2023-06-15	07:38:51	07:47:33	519008	5f117601aeef1d5095578b01	4	1	main_slash	11	advance_on_keypress_SLASH	60	stimuli_target_trianglesquares.svg	stimuli_distractor_diamondtriangles.svg	22	yes	57	0	308	0	0			0	0			1				0	
6.6.1	win	2023-06-15	07:38:51	07:47:36	521946	5f117601aeef1d5095578b01	4	1	main_slash	11	main_slash	61	stimuli_distractor_diamondtriangles.svg	stimuli_distractor_diamondtriangles.svg	40	no	0	1	2000	0	0			0	0			1				0	
6.6.1	win	2023-06-15	07:38:51	07:47:36	521946	5f117601aeef1d5095578b01	4	1	main_slash	11	advance_on_keypress_SLASH	62	stimuli_distractor_diamondtriangles.svg	stimuli_distractor_diamondtriangles.svg	40	no	57	0	310	0	0			0	0			1				0	
6.6.1	win	2023-06-15	07:38:51	07:47:39	524896	5f117601aeef1d5095578b01	4	1	main_slash	11	main_slash	63	stimuli_distractor_trianglediamonds.svg	stimuli_distractor_trianglediamonds.svg	33	no	0	1	2000	0	0			0	0			1				0	
6.6.1	win	2023-06-15	07:38:51	07:47:39	524896	5f117601aeef1d5095578b01	4	1	main_slash	11	advance_on_keypress_SLASH	64	stimuli_distractor_trianglediamonds.svg	stimuli_distractor_trianglediamonds.svg	33	no	57	0	344	0	0			0	0			1				0	
6.6.1	win	2023-06-15	07:38:51	07:47:41	526608	5f117601aeef1d5095578b01	4	1	main_slash	11	main_slash	65	stimuli_target_trianglerectangles.svg	stimuli_distractor_diamondtriangles.svg	21	yes	53	1	729	0	0			0	0			1				0	
6.6.1	win	2023-06-15	07:38:51	07:47:41	526608	5f117601aeef1d5095578b01	4	1	main_slash	11	advance_on_keypress_SLASH	66	stimuli_target_trianglerectangles.svg	stimuli_distractor_diamondtriangles.svg	21	yes	57	0	268	0	0			0	0			1				0	
6.6.1	win	2023-06-15	07:38:51	07:47:44	529512	5f117601aeef1d5095578b01	4	1	main_slash	11	main_slash	67	stimuli_distractor_trianglediamonds.svg	stimuli_target_rectangletriangles.svg	9	yes	0	0	2000	0	0			0	0			1				0	
6.6.1	win	2023-06-15	07:38:51	07:47:44	529512	5f117601aeef1d5095578b01	4	1	main_slash	11	advance_on_keypress_SLASH	68	stimuli_distractor_trianglediamonds.svg	stimuli_target_rectangletriangles.svg	9	yes	57	0	335	0	0			0	0			1				0	
6.6.1	win	2023-06-15	07:38:51	07:47:47	532496	5f117601aeef1d5095578b01	4	1	main_slash	11	main_slash	69	stimuli_distractor_diamondtriangles.svg	stimuli_distractor_trianglediamonds.svg	37	no	0	1	2000	0	0			0	0			1				0	
6.6.1	win	2023-06-15	07:38:51	07:47:47	532496	5f117601aeef1d5095578b01	4	1	main_slash	11	advance_on_keypress_SLASH	70	stimuli_distractor_diamondtriangles.svg	stimuli_distractor_trianglediamonds.svg	37	no	57	0	320	0	0			0	0			1				0	
6.6.1	win	2023-06-15	07:38:51	07:47:50	535462	5f117601aeef1d5095578b01	4	1	main_slash	11	main_slash	71	stimuli_distractor_trianglediamonds.svg	stimuli_target_squaretriangles.svg	11	yes	0	0	2000	0	0			0	0			1				0	
6.6.1	win	2023-06-15	07:38:51	07:47:50	535462	5f117601aeef1d5095578b01	4	1	main_slash	11	advance_on_keypress_SLASH	72	stimuli_distractor_trianglediamonds.svg	stimuli_target_squaretriangles.svg	11	yes	57	0	354	0	0			0	0			1				0	
6.6.1	win	2023-06-15	07:38:51	07:47:51	537192	5f117601aeef1d5095578b01	4	1	main_slash	11	main_slash	73	stimuli_distractor_diamondtriangles.svg	stimuli_target_diamondsquares.svg	32	yes	53	1	730	0	0			0	0			1				0	
6.6.1	win	2023-06-15	07:38:51	07:47:51	537192	5f117601aeef1d5095578b01	4	1	main_slash	11	advance_on_keypress_SLASH	74	stimuli_distractor_diamondtriangles.svg	stimuli_target_diamondsquares.svg	32	yes	57	0	261	0	0			0	0			1				0	
6.6.1	win	2023-06-15	07:38:51	07:47:53	538720	5f117601aeef1d5095578b01	4	1	main_slash	11	main_slash	75	stimuli_target_diamondsquares.svg	stimuli_distractor_trianglediamonds.svg	20	yes	53	1	642	0	0			0	0			1				0	
6.6.1	win	2023-06-15	07:38:51	07:47:53	538720	5f117601aeef1d5095578b01	4	1	main_slash	11	advance_on_keypress_SLASH	76	stimuli_target_diamondsquares.svg	stimuli_distractor_trianglediamonds.svg	20	yes	57	0	144	0	0			0	0			1				0	
6.6.1	win	2023-06-15	07:38:51	07:47:54	540208	5f117601aeef1d5095578b01	4	1	main_slash	11	main_slash	77	stimuli_distractor_diamondtriangles.svg	stimuli_target_diamondrectangles.svg	31	yes	53	1	713	0	0			0	0			1				0	
6.6.1	win	2023-06-15	07:38:51	07:47:54	540208	5f117601aeef1d5095578b01	4	1	main_slash	11	advance_on_keypress_SLASH	78	stimuli_distractor_diamondtriangles.svg	stimuli_target_diamondrectangles.svg	31	yes	57	0	268	0	0			0	0			1				0	
6.6.1	win	2023-06-15	07:38:51	07:47:56	541904	5f117601aeef1d5095578b01	4	1	main_slash	11	main_slash	79	stimuli_target_rectanglediamonds.svg	stimuli_distractor_diamondtriangles.svg	6	yes	53	1	792	0	0			0	0			1				0	
6.6.1	win	2023-06-15	07:38:51	07:47:56	541904	5f117601aeef1d5095578b01	4	1	main_slash	11	advance_on_keypress_SLASH	80	stimuli_target_rectanglediamonds.svg	stimuli_distractor_diamondtriangles.svg	6	yes	57	0	328	0	0			0	0			1				0	
6.6.1	win	2023-06-15	07:38:51	07:47:58	543528	5f117601aeef1d5095578b01	4	1	main_slash	11	main_slash	81	stimuli_target_trianglesquares.svg	stimuli_distractor_diamondtriangles.svg	22	yes	53	1	666	0	0			0	0			1				0	
6.6.1	win	2023-06-15	07:38:51	07:47:58	543528	5f117601aeef1d5095578b01	4	1	main_slash	11	advance_on_keypress_SLASH	82	stimuli_target_trianglesquares.svg	stimuli_distractor_diamondtriangles.svg	22	yes	57	0	175	0	0			0	0			1				0	
6.6.1	win	2023-06-15	07:38:51	07:48:00	545640	5f117601aeef1d5095578b01	4	1	main_slash	11	main_slash	83	stimuli_distractor_trianglediamonds.svg	stimuli_target_diamondsquares.svg	28	yes	53	1	1295	0	0			0	0			1				0	
6.6.1	win	2023-06-15	07:38:51	07:48:00	545640	5f117601aeef1d5095578b01	4	1	main_slash	11	advance_on_keypress_SLASH	84	stimuli_distractor_trianglediamonds.svg	stimuli_target_diamondsquares.svg	28	yes	57	0	299	0	0			0	0			1				0	
6.6.1	win	2023-06-15	07:38:51	07:48:03	548578	5f117601aeef1d5095578b01	4	1	main_slash	11	main_slash	85	stimuli_distractor_trianglediamonds.svg	stimuli_distractor_trianglediamonds.svg	34	no	0	1	2000	0	0			0	0			1				0	
6.6.1	win	2023-06-15	07:38:51	07:48:03	548578	5f117601aeef1d5095578b01	4	1	main_slash	11	advance_on_keypress_SLASH	86	stimuli_distractor_trianglediamonds.svg	stimuli_distractor_trianglediamonds.svg	34	no	57	0	333	0	0			0	0			1				0	
6.6.1	win	2023-06-15	07:38:51	07:48:06	551562	5f117601aeef1d5095578b01	4	1	main_slash	11	main_slash	87	stimuli_distractor_diamondtriangles.svg	stimuli_target_rectanglediamonds.svg	14	yes	0	0	2000	0	0			0	0			1				0	
6.6.1	win	2023-06-15	07:38:51	07:48:06	551562	5f117601aeef1d5095578b01	4	1	main_slash	11	advance_on_keypress_SLASH	88	stimuli_distractor_diamondtriangles.svg	stimuli_target_rectanglediamonds.svg	14	yes	57	0	350	0	0			0	0			1				0	
6.6.1	win	2023-06-15	07:38:51	07:48:08	553408	5f117601aeef1d5095578b01	4	1	main_slash	11	main_slash	89	stimuli_target_squaretriangles.svg	stimuli_distractor_diamondtriangles.svg	7	yes	53	1	847	0	0			0	0			1				0	
6.6.1	win	2023-06-15	07:38:51	07:48:08	553408	5f117601aeef1d5095578b01	4	1	main_slash	11	advance_on_keypress_SLASH	90	stimuli_target_squaretriangles.svg	stimuli_distractor_diamondtriangles.svg	7	yes	57	0	196	0	0			0	0			1				0	
6.6.1	win	2023-06-15	07:38:51	07:48:09	554872	5f117601aeef1d5095578b01	4	1	main_slash	11	main_slash	91	stimuli_target_rectangletriangles.svg	stimuli_distractor_trianglediamonds.svg	1	yes	53	1	643	0	0			0	0			1				0	
6.6.1	win	2023-06-15	07:38:51	07:48:09	554872	5f117601aeef1d5095578b01	4	1	main_slash	11	advance_on_keypress_SLASH	92	stimuli_target_rectangletriangles.svg	stimuli_distractor_trianglediamonds.svg	1	yes	57	0	265	0	0			0	0			1				0	
6.6.1	win	2023-06-15	07:38:51	07:48:11	556368	5f117601aeef1d5095578b01	4	1	main_slash	11	main_slash	93	stimuli_target_squaretriangles.svg	stimuli_distractor_trianglediamonds.svg	3	yes	53	1	590	0	0			0	0			1				0	
6.6.1	win	2023-06-15	07:38:51	07:48:11	556368	5f117601aeef1d5095578b01	4	1	main_slash	11	advance_on_keypress_SLASH	94	stimuli_target_squaretriangles.svg	stimuli_distractor_trianglediamonds.svg	3	yes	57	0	238	0	0			0	0			1				0	
6.6.1	win	2023-06-15	07:38:51	07:48:12	557864	5f117601aeef1d5095578b01	4	1	main_slash	11	main_slash	95	stimuli_distractor_diamondtriangles.svg	stimuli_target_squaretriangles.svg	15	yes	53	1	618	0	0			0	0			1				0	
6.6.1	win	2023-06-15	07:38:51	07:48:12	557864	5f117601aeef1d5095578b01	4	1	main_slash	11	advance_on_keypress_SLASH	96	stimuli_distractor_diamondtriangles.svg	stimuli_target_squaretriangles.svg	15	yes	57	0	241	0	0			0	0			1				0	
6.6.1	win	2023-06-15	07:38:51	07:48:15	560745	5f117601aeef1d5095578b01	4	1	main_slash	11	main_slash	97	stimuli_distractor_trianglediamonds.svg	stimuli_distractor_trianglediamonds.svg	33	no	0	1	2000	0	0			0	0			1				0	
6.6.1	win	2023-06-15	07:38:51	07:48:15	560745	5f117601aeef1d5095578b01	4	1	main_slash	11	advance_on_keypress_SLASH	98	stimuli_distractor_trianglediamonds.svg	stimuli_distractor_trianglediamonds.svg	33	no	57	0	318	0	0			0	0			1				0	
6.6.1	win	2023-06-15	07:38:51	07:48:17	562423	5f117601aeef1d5095578b01	4	1	main_slash	11	main_slash	99	stimuli_distractor_trianglediamonds.svg	stimuli_target_trianglesquares.svg	26	yes	53	1	712	0	0			0	0			1				0	
6.6.1	win	2023-06-15	07:38:51	07:48:17	562423	5f117601aeef1d5095578b01	4	1	main_slash	11	advance_on_keypress_SLASH	100	stimuli_distractor_trianglediamonds.svg	stimuli_target_trianglesquares.svg	26	yes	57	0	284	0	0			0	0			1				0	
6.6.1	win	2023-06-15	07:38:51	07:48:18	564128	5f117601aeef1d5095578b01	4	1	main_slash	11	main_slash	101	stimuli_distractor_trianglediamonds.svg	stimuli_target_trianglerectangles.svg	25	yes	53	1	784	0	0			0	0			1				0	
6.6.1	win	2023-06-15	07:38:51	07:48:18	564128	5f117601aeef1d5095578b01	4	1	main_slash	11	advance_on_keypress_SLASH	102	stimuli_distractor_trianglediamonds.svg	stimuli_target_trianglerectangles.svg	25	yes	57	0	263	0	0			0	0			1				0	
6.6.1	win	2023-06-15	07:38:51	07:48:21	567028	5f117601aeef1d5095578b01	4	1	main_slash	11	main_slash	103	stimuli_target_trianglerectangles.svg	stimuli_distractor_diamondtriangles.svg	21	yes	0	0	2000	0	0			0	0			1				0	
6.6.1	win	2023-06-15	07:38:51	07:48:21	567028	5f117601aeef1d5095578b01	4	1	main_slash	11	advance_on_keypress_SLASH	104	stimuli_target_trianglerectangles.svg	stimuli_distractor_diamondtriangles.svg	21	yes	57	0	394	0	0			0	0			1				0	
6.6.1	win	2023-06-15	07:38:51	07:48:24	570061	5f117601aeef1d5095578b01	4	1	main_slash	11	main_slash	105	stimuli_distractor_trianglediamonds.svg	stimuli_distractor_diamondtriangles.svg	36	no	0	1	2000	0	0			0	0			1				0	
6.6.1	win	2023-06-15	07:38:51	07:48:24	570061	5f117601aeef1d5095578b01	4	1	main_slash	11	advance_on_keypress_SLASH	106	stimuli_distractor_trianglediamonds.svg	stimuli_distractor_diamondtriangles.svg	36	no	57	0	458	0	0			0	0			1				0	
6.6.1	win	2023-06-15	07:38:51	07:48:26	571928	5f117601aeef1d5095578b01	4	1	main_slash	11	main_slash	107	stimuli_target_diamondsquares.svg	stimuli_distractor_trianglediamonds.svg	20	yes	53	1	767	0	0			0	0			1				0	
6.6.1	win	2023-06-15	07:38:51	07:48:26	571928	5f117601aeef1d5095578b01	4	1	main_slash	11	advance_on_keypress_SLASH	108	stimuli_target_diamondsquares.svg	stimuli_distractor_trianglediamonds.svg	20	yes	57	0	231	0	0			0	0			1				0	
6.6.1	win	2023-06-15	07:38:51	07:48:28	573479	5f117601aeef1d5095578b01	4	1	main_slash	11	main_slash	109	stimuli_distractor_diamondtriangles.svg	stimuli_target_diamondrectangles.svg	31	yes	53	1	685	0	0			0	0			1				0	
6.6.1	win	2023-06-15	07:38:51	07:48:28	573479	5f117601aeef1d5095578b01	4	1	main_slash	11	advance_on_keypress_SLASH	110	stimuli_distractor_diamondtriangles.svg	stimuli_target_diamondrectangles.svg	31	yes	57	0	313	0	0			0	0			1				0	
6.6.1	win	2023-06-15	07:38:51	07:48:29	575103	5f117601aeef1d5095578b01	4	1	main_slash	11	main_slash	111	stimuli_target_squarediamonds.svg	stimuli_distractor_diamondtriangles.svg	8	yes	53	1	676	0	0			0	0			1				0	
6.6.1	win	2023-06-15	07:38:51	07:48:29	575103	5f117601aeef1d5095578b01	4	1	main_slash	11	advance_on_keypress_SLASH	112	stimuli_target_squarediamonds.svg	stimuli_distractor_diamondtriangles.svg	8	yes	57	0	256	0	0			0	0			1				0	
6.6.1	win	2023-06-15	07:38:51	07:48:31	576407	5f117601aeef1d5095578b01	4	1	main_slash	11	main_slash	113	stimuli_distractor_trianglediamonds.svg	stimuli_target_rectanglediamonds.svg	10	yes	53	1	413	0	0			0	0			1				0	
6.6.1	win	2023-06-15	07:38:51	07:48:31	576407	5f117601aeef1d5095578b01	4	1	main_slash	11	advance_on_keypress_SLASH	114	stimuli_distractor_trianglediamonds.svg	stimuli_target_rectanglediamonds.svg	10	yes	57	0	276	0	0			0	0			1				0	
6.6.1	win	2023-06-15	07:38:51	07:48:32	577775	5f117601aeef1d5095578b01	4	1	main_slash	11	main_slash	115	stimuli_distractor_trianglediamonds.svg	stimuli_target_squarediamonds.svg	12	yes	53	1	464	0	0			0	0			1				0	
6.6.1	win	2023-06-15	07:38:51	07:48:32	577775	5f117601aeef1d5095578b01	4	1	main_slash	11	advance_on_keypress_SLASH	116	stimuli_distractor_trianglediamonds.svg	stimuli_target_squarediamonds.svg	12	yes	57	0	213	0	0			0	0			1				0	
6.6.1	win	2023-06-15	07:38:51	07:48:33	579255	5f117601aeef1d5095578b01	4	1	main_slash	11	main_slash	117	stimuli_distractor_trianglediamonds.svg	stimuli_target_diamondrectangles.svg	27	yes	53	1	628	0	0			0	0			1				0	
6.6.1	win	2023-06-15	07:38:51	07:48:33	579255	5f117601aeef1d5095578b01	4	1	main_slash	11	advance_on_keypress_SLASH	118	stimuli_distractor_trianglediamonds.svg	stimuli_target_diamondrectangles.svg	27	yes	57	0	218	0	0			0	0			1				0	
6.6.1	win	2023-06-15	07:38:51	07:48:36	582111	5f117601aeef1d5095578b01	4	1	main_slash	11	main_slash	119	stimuli_distractor_diamondtriangles.svg	stimuli_distractor_diamondtriangles.svg	40	no	0	1	2000	0	0			0	0			1				0	
6.6.1	win	2023-06-15	07:38:51	07:48:36	582111	5f117601aeef1d5095578b01	4	1	main_slash	11	advance_on_keypress_SLASH	120	stimuli_distractor_diamondtriangles.svg	stimuli_distractor_diamondtriangles.svg	40	no	57	0	559	0	0			0	0			1				0	
6.6.1	win	2023-06-15	07:38:51	07:48:40	585311	5f117601aeef1d5095578b01	4	1	main_slash	11	main_slash	121	stimuli_distractor_diamondtriangles.svg	stimuli_distractor_trianglediamonds.svg	37	no	0	1	2000	0	0			0	0			1				0	
6.6.1	win	2023-06-15	07:38:51	07:48:40	585311	5f117601aeef1d5095578b01	4	1	main_slash	11	advance_on_keypress_SLASH	122	stimuli_distractor_diamondtriangles.svg	stimuli_distractor_trianglediamonds.svg	37	no	57	0	1040	0	0			0	0			1				0	
6.6.1	win	2023-06-15	07:38:51	07:48:42	587743	5f117601aeef1d5095578b01	4	1	main_slash	11	main_slash	123	stimuli_target_rectanglediamonds.svg	stimuli_distractor_trianglediamonds.svg	2	yes	53	1	749	0	0			0	0			1				0	
6.6.1	win	2023-06-15	07:38:51	07:48:42	587743	5f117601aeef1d5095578b01	4	1	main_slash	11	advance_on_keypress_SLASH	124	stimuli_target_rectanglediamonds.svg	stimuli_distractor_trianglediamonds.svg	2	yes	57	0	239	0	0			0	0			1				0	
6.6.1	win	2023-06-15	07:38:51	07:48:43	589063	5f117601aeef1d5095578b01	4	1	main_slash	11	main_slash	125	stimuli_distractor_trianglediamonds.svg	stimuli_target_squaretriangles.svg	11	yes	53	1	435	0	0			0	0			1				0	
6.6.1	win	2023-06-15	07:38:51	07:48:43	589063	5f117601aeef1d5095578b01	4	1	main_slash	11	advance_on_keypress_SLASH	126	stimuli_distractor_trianglediamonds.svg	stimuli_target_squaretriangles.svg	11	yes	57	0	282	0	0			0	0			1				0	
6.6.1	win	2023-06-15	07:38:51	07:48:46	591994	5f117601aeef1d5095578b01	4	1	main_slash	11	main_slash	127	stimuli_distractor_diamondtriangles.svg	stimuli_distractor_trianglediamonds.svg	38	no	0	1	2000	0	0			0	0			1				0	
6.6.1	win	2023-06-15	07:38:51	07:48:46	591994	5f117601aeef1d5095578b01	4	1	main_slash	11	advance_on_keypress_SLASH	128	stimuli_distractor_diamondtriangles.svg	stimuli_distractor_trianglediamonds.svg	38	no	57	0	317	0	0			0	0			1				0	
6.6.1	win	2023-06-15	07:38:51	07:48:48	593631	5f117601aeef1d5095578b01	4	1	main_slash	11	main_slash	129	stimuli_target_rectangletriangles.svg	stimuli_distractor_diamondtriangles.svg	5	yes	53	1	670	0	0			0	0			1				0	
6.6.1	win	2023-06-15	07:38:51	07:48:48	593631	5f117601aeef1d5095578b01	4	1	main_slash	11	advance_on_keypress_SLASH	130	stimuli_target_rectangletriangles.svg	stimuli_distractor_diamondtriangles.svg	5	yes	57	0	228	0	0			0	0			1				0	
6.6.1	win	2023-06-15	07:38:51	07:48:50	595439	5f117601aeef1d5095578b01	4	1	main_slash	11	main_slash	131	stimuli_target_trianglesquares.svg	stimuli_distractor_trianglediamonds.svg	18	yes	53	1	945	0	0			0	0			1				0	
6.6.1	win	2023-06-15	07:38:51	07:48:50	595439	5f117601aeef1d5095578b01	4	1	main_slash	11	advance_on_keypress_SLASH	132	stimuli_target_trianglesquares.svg	stimuli_distractor_trianglediamonds.svg	18	yes	57	0	228	0	0			0	0			1				0	
6.6.1	win	2023-06-15	07:38:51	07:48:51	596847	5f117601aeef1d5095578b01	4	1	main_slash	11	main_slash	133	stimuli_target_rectanglediamonds.svg	stimuli_distractor_diamondtriangles.svg	6	yes	53	1	554	0	0			0	0			1				0	
6.6.1	win	2023-06-15	07:38:51	07:48:51	596847	5f117601aeef1d5095578b01	4	1	main_slash	11	advance_on_keypress_SLASH	134	stimuli_target_rectanglediamonds.svg	stimuli_distractor_diamondtriangles.svg	6	yes	57	0	163	0	0			0	0			1				0	
6.6.1	win	2023-06-15	07:38:51	07:48:54	599644	5f117601aeef1d5095578b01	4	1	main_slash	11	main_slash	135	stimuli_distractor_trianglediamonds.svg	stimuli_distractor_diamondtriangles.svg	35	no	0	1	2000	0	0			0	0			1				0	
6.6.1	win	2023-06-15	07:38:51	07:48:54	599644	5f117601aeef1d5095578b01	4	1	main_slash	11	advance_on_keypress_SLASH	136	stimuli_distractor_trianglediamonds.svg	stimuli_distractor_diamondtriangles.svg	35	no	57	0	339	0	0			0	0			1				0	
6.6.1	win	2023-06-15	07:38:51	07:48:55	601159	5f117601aeef1d5095578b01	4	1	main_slash	11	main_slash	137	stimuli_distractor_diamondtriangles.svg	stimuli_target_diamondsquares.svg	32	yes	53	1	532	0	0			0	0			1				0	
6.6.1	win	2023-06-15	07:38:51	07:48:55	601159	5f117601aeef1d5095578b01	4	1	main_slash	11	advance_on_keypress_SLASH	138	stimuli_distractor_diamondtriangles.svg	stimuli_target_diamondsquares.svg	32	yes	57	0	166	0	0			0	0			1				0	
6.6.1	win	2023-06-15	07:38:51	07:48:57	602535	5f117601aeef1d5095578b01	4	1	main_slash	11	main_slash	139	stimuli_distractor_diamondtriangles.svg	stimuli_target_squarediamonds.svg	16	yes	53	1	558	0	0			0	0			1				0	
6.6.1	win	2023-06-15	07:38:51	07:48:57	602535	5f117601aeef1d5095578b01	4	1	main_slash	11	advance_on_keypress_SLASH	140	stimuli_distractor_diamondtriangles.svg	stimuli_target_squarediamonds.svg	16	yes	57	0	215	0	0			0	0			1				0	
6.6.1	win	2023-06-15	07:38:51	07:48:58	603999	5f117601aeef1d5095578b01	4	1	main_slash	11	main_slash	141	stimuli_distractor_diamondtriangles.svg	stimuli_target_rectangletriangles.svg	13	yes	53	1	606	0	0			0	0			1				0	
6.6.1	win	2023-06-15	07:38:51	07:48:58	603999	5f117601aeef1d5095578b01	4	1	main_slash	11	advance_on_keypress_SLASH	142	stimuli_distractor_diamondtriangles.svg	stimuli_target_rectangletriangles.svg	13	yes	57	0	204	0	0			0	0			1				0	
6.6.1	win	2023-06-15	07:38:51	07:49:00	605543	5f117601aeef1d5095578b01	4	1	main_slash	11	main_slash	143	stimuli_distractor_diamondtriangles.svg	stimuli_target_trianglesquares.svg	30	yes	53	1	699	0	0			0	0			1				0	
6.6.1	win	2023-06-15	07:38:51	07:49:00	605543	5f117601aeef1d5095578b01	4	1	main_slash	11	advance_on_keypress_SLASH	144	stimuli_distractor_diamondtriangles.svg	stimuli_target_trianglesquares.svg	30	yes	57	0	190	0	0			0	0			1				0	
6.6.1	win	2023-06-15	07:38:51	07:49:02	607623	5f117601aeef1d5095578b01	4	1	main_slash	11	main_slash	145	stimuli_target_diamondrectangles.svg	stimuli_distractor_trianglediamonds.svg	19	yes	53	1	1246	0	0			0	0			1				0	
6.6.1	win	2023-06-15	07:38:51	07:49:02	607623	5f117601aeef1d5095578b01	4	1	main_slash	11	advance_on_keypress_SLASH	146	stimuli_target_diamondrectangles.svg	stimuli_distractor_trianglediamonds.svg	19	yes	57	0	148	0	0			0	0			1				0	
6.6.1	win	2023-06-15	07:38:51	07:49:05	610410	5f117601aeef1d5095578b01	4	1	main_slash	11	main_slash	147	stimuli_distractor_diamondtriangles.svg	stimuli_distractor_diamondtriangles.svg	39	no	0	1	2000	0	0			0	0			1				0	
6.6.1	win	2023-06-15	07:38:51	07:49:05	610410	5f117601aeef1d5095578b01	4	1	main_slash	11	advance_on_keypress_SLASH	148	stimuli_distractor_diamondtriangles.svg	stimuli_distractor_diamondtriangles.svg	39	no	57	0	381	0	0			0	0			1				0	
6.6.1	win	2023-06-15	07:38:51	07:49:06	611982	5f117601aeef1d5095578b01	4	1	main_slash	11	main_slash	149	stimuli_distractor_trianglediamonds.svg	stimuli_target_rectangletriangles.svg	9	yes	53	1	556	0	0			0	0			1				0	
6.6.1	win	2023-06-15	07:38:51	07:49:06	611982	5f117601aeef1d5095578b01	4	1	main_slash	11	advance_on_keypress_SLASH	150	stimuli_distractor_trianglediamonds.svg	stimuli_target_rectangletriangles.svg	9	yes	57	0	245	0	0			0	0			1				0	
6.6.1	win	2023-06-15	07:38:51	07:49:08	613678	5f117601aeef1d5095578b01	4	1	main_slash	11	main_slash	151	stimuli_distractor_diamondtriangles.svg	stimuli_target_trianglerectangles.svg	29	yes	53	1	818	0	0			0	0			1				0	
6.6.1	win	2023-06-15	07:38:51	07:49:08	613678	5f117601aeef1d5095578b01	4	1	main_slash	11	advance_on_keypress_SLASH	152	stimuli_distractor_diamondtriangles.svg	stimuli_target_trianglerectangles.svg	29	yes	57	0	273	0	0			0	0			1				0	
6.6.1	win	2023-06-15	07:38:51	07:49:09	615214	5f117601aeef1d5095578b01	4	1	main_slash	11	main_slash	153	stimuli_target_squarediamonds.svg	stimuli_distractor_trianglediamonds.svg	4	yes	53	1	621	0	0			0	0			1				0	
6.6.1	win	2023-06-15	07:38:51	07:49:09	615214	5f117601aeef1d5095578b01	4	1	main_slash	11	advance_on_keypress_SLASH	154	stimuli_target_squarediamonds.svg	stimuli_distractor_trianglediamonds.svg	4	yes	57	0	244	0	0			0	0			1				0	
6.6.1	win	2023-06-15	07:38:51	07:49:11	616910	5f117601aeef1d5095578b01	4	1	main_slash	11	main_slash	155	stimuli_target_diamondrectangles.svg	stimuli_distractor_diamondtriangles.svg	23	yes	53	1	817	0	0			0	0			1				0	
6.6.1	win	2023-06-15	07:38:51	07:49:11	616910	5f117601aeef1d5095578b01	4	1	main_slash	11	advance_on_keypress_SLASH	156	stimuli_target_diamondrectangles.svg	stimuli_distractor_diamondtriangles.svg	23	yes	57	0	248	0	0			0	0			1				0	
6.6.1	win	2023-06-15	07:38:51	07:49:14	619810	5f117601aeef1d5095578b01	4	1	main_slash	11	main_slash	157	stimuli_target_trianglerectangles.svg	stimuli_distractor_trianglediamonds.svg	17	yes	0	0	2000	0	0			0	0			1				0	
6.6.1	win	2023-06-15	07:38:51	07:49:14	619810	5f117601aeef1d5095578b01	4	1	main_slash	11	advance_on_keypress_SLASH	158	stimuli_target_trianglerectangles.svg	stimuli_distractor_trianglediamonds.svg	17	yes	57	0	364	0	0			0	0			1				0	
6.6.1	win	2023-06-15	07:38:51	07:49:16	621534	5f117601aeef1d5095578b01	4	1	main_slash	11	main_slash	159	stimuli_target_diamondsquares.svg	stimuli_distractor_diamondtriangles.svg	24	yes	53	1	725	0	0			0	0			1				0	
6.6.1	win	2023-06-15	07:38:51	07:49:16	621534	5f117601aeef1d5095578b01	4	1	main_slash	11	advance_on_keypress_SLASH	160	stimuli_target_diamondsquares.svg	stimuli_distractor_diamondtriangles.svg	24	yes	57	0	231	0	0			0	0			1				0	
6.6.1	win	2023-06-15	07:38:51	07:49:16	621534	5f117601aeef1d5095578b01	4	1	headphonecheck_calibration	14	headphonecheck_calibrationIntro	1	stimuli_target_diamondsquares.svg	stimuli_distractor_diamondtriangles.svg	24	yes	calibrationButton	0	1834	0	0			0	0			1				0	
6.6.1	win	2023-06-15	07:38:51	07:49:16	621534	5f117601aeef1d5095578b01	4	1	headphonecheck_testphase	15	test_collectResponse	3	stimuli_target_diamondsquares.svg	stimuli_distractor_diamondtriangles.svg	24	yes	third	1	671	1	2	antiphase_hc_ios.wav	3	0	0			1				0	
6.6.1	win	2023-06-15	07:38:51	07:49:16	621534	5f117601aeef1d5095578b01	4	1	headphonecheck_testphase	15	test_collectResponse	6	stimuli_target_diamondsquares.svg	stimuli_distractor_diamondtriangles.svg	24	yes	second	1	646	2	5	antiphase_hc_osi.wav	2	0	0			1				0	
6.6.1	win	2023-06-15	07:38:51	07:49:16	621534	5f117601aeef1d5095578b01	4	1	headphonecheck_testphase	15	test_collectResponse	9	stimuli_target_diamondsquares.svg	stimuli_distractor_diamondtriangles.svg	24	yes	first	1	373	3	3	antiphase_hc_soi.wav	1	0	0			1				0	
6.6.1	win	2023-06-15	07:38:51	07:49:16	621534	5f117601aeef1d5095578b01	4	1	headphonecheck_testphase	15	test_collectResponse	12	stimuli_target_diamondsquares.svg	stimuli_distractor_diamondtriangles.svg	24	yes	third	1	358	4	6	antiphase_hc_ois.wav	3	0	0			1				0	
6.6.1	win	2023-06-15	07:38:51	07:49:16	621534	5f117601aeef1d5095578b01	4	1	headphonecheck_testphase	15	test_collectResponse	15	stimuli_target_diamondsquares.svg	stimuli_distractor_diamondtriangles.svg	24	yes	first	1	393	5	4	antiphase_hc_sio.wav	1	0	0			1				0	
6.6.1	win	2023-06-15	07:38:51	07:49:16	621534	5f117601aeef1d5095578b01	4	1	headphonecheck_testphase	15	test_collectResponse	18	stimuli_target_diamondsquares.svg	stimuli_distractor_diamondtriangles.svg	24	yes	second	1	338	6	1	antiphase_hc_iso.wav	2	0	0			1				0	
6.6.1	win	2023-06-15	07:38:51	07:49:16	621534	5f117601aeef1d5095578b01	4	1	stereocheck_calibration	17	stereocheck_calibrationIntro	1	stimuli_target_diamondsquares.svg	stimuli_distractor_diamondtriangles.svg	24	yes	stereocheck_calibrationButton	0	5643	6	1	antiphase_hc_iso.wav	2	0	0			1				0	
6.6.1	win	2023-06-15	07:38:51	07:49:16	621534	5f117601aeef1d5095578b01	4	1	stereocheck_testphase	18	stereocheck_test_collectResponse	3	stimuli_target_diamondsquares.svg	stimuli_distractor_diamondtriangles.svg	24	yes	stereocheck_right	1	393	6	1	antiphase_hc_iso.wav	2	1	4	noise_calib_stim_RIGHT.wav	2	1				0	
6.6.1	win	2023-06-15	07:38:51	07:49:16	621534	5f117601aeef1d5095578b01	4	1	stereocheck_testphase	18	stereocheck_test_collectResponse	6	stimuli_target_diamondsquares.svg	stimuli_distractor_diamondtriangles.svg	24	yes	stereocheck_right	1	366	6	1	antiphase_hc_iso.wav	2	2	5	noise_calib_stim_RIGHT.wav	2	1				0	
6.6.1	win	2023-06-15	07:38:51	07:49:16	621534	5f117601aeef1d5095578b01	4	1	stereocheck_testphase	18	stereocheck_test_collectResponse	9	stimuli_target_diamondsquares.svg	stimuli_distractor_diamondtriangles.svg	24	yes	stereocheck_left	1	379	6	1	antiphase_hc_iso.wav	2	3	2	noise_calib_stim_LEFT.wav	1	1				0	
6.6.1	win	2023-06-15	07:38:51	07:49:16	621534	5f117601aeef1d5095578b01	4	1	stereocheck_testphase	18	stereocheck_test_collectResponse	12	stimuli_target_diamondsquares.svg	stimuli_distractor_diamondtriangles.svg	24	yes	stereocheck_left	1	400	6	1	antiphase_hc_iso.wav	2	4	1	noise_calib_stim_LEFT.wav	1	1				0	
6.6.1	win	2023-06-15	07:38:51	07:49:16	621534	5f117601aeef1d5095578b01	4	1	stereocheck_testphase	18	stereocheck_test_collectResponse	15	stimuli_target_diamondsquares.svg	stimuli_distractor_diamondtriangles.svg	24	yes	stereocheck_right	1	403	6	1	antiphase_hc_iso.wav	2	5	6	noise_calib_stim_RIGHT.wav	2	1				0	
6.6.1	win	2023-06-15	07:38:51	07:49:16	621534	5f117601aeef1d5095578b01	4	1	stereocheck_testphase	18	stereocheck_test_collectResponse	18	stimuli_target_diamondsquares.svg	stimuli_distractor_diamondtriangles.svg	24	yes	stereocheck_left	1	559	6	1	antiphase_hc_iso.wav	2	6	3	noise_calib_stim_LEFT.wav	1	1				0	
6.6.1	win	2023-06-15	07:38:51	07:49:16	621534	5f117601aeef1d5095578b01	4	1	DL_practice	21	DL_practice	2	stimuli_target_diamondsquares.svg	stimuli_distractor_diamondtriangles.svg	24	yes	ka	0	2714	6	1	antiphase_hc_iso.wav	2	6	3	noise_calib_stim_LEFT.wav	1	18	blb_dichoticlistening_ga-ta.mp3	ga	ta	1	other
6.6.1	win	2023-06-15	07:38:51	07:49:16	621534	5f117601aeef1d5095578b01	4	1	DL_practice	21	DL_practice	3	stimuli_target_diamondsquares.svg	stimuli_distractor_diamondtriangles.svg	24	yes	ba	1	2183	6	1	antiphase_hc_iso.wav	2	6	3	noise_calib_stim_LEFT.wav	1	1	blb_dichoticlistening_ba-ba.mp3	ba	ba	0	left
6.6.1	win	2023-06-15	07:38:51	07:49:16	621534	5f117601aeef1d5095578b01	4	1	DL_practice	21	DL_practice	4	stimuli_target_diamondsquares.svg	stimuli_distractor_diamondtriangles.svg	24	yes	ta	1	1426	6	1	antiphase_hc_iso.wav	2	6	3	noise_calib_stim_LEFT.wav	1	36	blb_dichoticlistening_ta-ta.mp3	ta	ta	0	left
6.6.1	win	2023-06-15	07:38:51	07:49:16	621534	5f117601aeef1d5095578b01	4	1	DL_practice	21	DL_practice	5	stimuli_target_diamondsquares.svg	stimuli_distractor_diamondtriangles.svg	24	yes	da	1	1215	6	1	antiphase_hc_iso.wav	2	6	3	noise_calib_stim_LEFT.wav	1	8	blb_dichoticlistening_da-da.mp3	da	da	0	left
6.6.1	win	2023-06-15	07:38:51	07:49:16	621534	5f117601aeef1d5095578b01	4	1	DL_practice	21	DL_practice	6	stimuli_target_diamondsquares.svg	stimuli_distractor_diamondtriangles.svg	24	yes	ba	1	3341	6	1	antiphase_hc_iso.wav	2	6	3	noise_calib_stim_LEFT.wav	1	7	blb_dichoticlistening_da-ba.mp3	da	ba	1	right
6.6.1	win	2023-06-15	07:38:51	07:49:16	621534	5f117601aeef1d5095578b01	4	1	DL_practice	21	DL_practice	7	stimuli_target_diamondsquares.svg	stimuli_distractor_diamondtriangles.svg	24	yes	ga	1	1279	6	1	antiphase_hc_iso.wav	2	6	3	noise_calib_stim_LEFT.wav	1	15	blb_dichoticlistening_ga-ga.mp3	ga	ga	0	left
6.6.1	win	2023-06-15	07:38:51	07:49:16	621534	5f117601aeef1d5095578b01	4	1	DL_practice	21	DL_practice	8	stimuli_target_diamondsquares.svg	stimuli_distractor_diamondtriangles.svg	24	yes	pa	1	1320	6	1	antiphase_hc_iso.wav	2	6	3	noise_calib_stim_LEFT.wav	1	23	blb_dichoticlistening_ka-pa.mp3	ka	pa	1	right
6.6.1	win	2023-06-15	07:38:51	07:49:16	621534	5f117601aeef1d5095578b01	4	1	DL_practice	21	DL_practice	9	stimuli_target_diamondsquares.svg	stimuli_distractor_diamondtriangles.svg	24	yes	ka	1	1166	6	1	antiphase_hc_iso.wav	2	6	3	noise_calib_stim_LEFT.wav	1	22	blb_dichoticlistening_ka-ka.mp3	ka	ka	0	left
6.6.1	win	2023-06-15	07:38:51	07:49:16	621534	5f117601aeef1d5095578b01	4	1	DL_practice	21	DL_practice	10	stimuli_target_diamondsquares.svg	stimuli_distractor_diamondtriangles.svg	24	yes	pa	1	1629	6	1	antiphase_hc_iso.wav	2	6	3	noise_calib_stim_LEFT.wav	1	29	blb_dichoticlistening_pa-pa.mp3	pa	pa	0	left
6.6.1	win	2023-06-15	07:38:51	07:49:16	621534	5f117601aeef1d5095578b01	4	1	DL_test	23	DL_test	1	stimuli_target_diamondsquares.svg	stimuli_distractor_diamondtriangles.svg	24	yes	pa	1	1285	6	1	antiphase_hc_iso.wav	2	6	3	noise_calib_stim_LEFT.wav	1	35	blb_dichoticlistening_ta-pa.mp3	ta	pa	1	right
6.6.1	win	2023-06-15	07:38:51	07:49:16	621534	5f117601aeef1d5095578b01	4	1	DL_test	23	DL_test	2	stimuli_target_diamondsquares.svg	stimuli_distractor_diamondtriangles.svg	24	yes	ga	1	1226	6	1	antiphase_hc_iso.wav	2	6	3	noise_calib_stim_LEFT.wav	1	21	blb_dichoticlistening_ka-ga.mp3	ka	ga	1	right
6.6.1	win	2023-06-15	07:38:51	07:49:16	621534	5f117601aeef1d5095578b01	4	1	DL_test	23	DL_test	3	stimuli_target_diamondsquares.svg	stimuli_distractor_diamondtriangles.svg	24	yes	ka	1	2077	6	1	antiphase_hc_iso.wav	2	6	3	noise_calib_stim_LEFT.wav	1	23	blb_dichoticlistening_ka-pa.mp3	ka	pa	1	left
6.6.1	win	2023-06-15	07:38:51	07:49:16	621534	5f117601aeef1d5095578b01	4	1	DL_test	23	DL_test	4	stimuli_target_diamondsquares.svg	stimuli_distractor_diamondtriangles.svg	24	yes	pa	1	1389	6	1	antiphase_hc_iso.wav	2	6	3	noise_calib_stim_LEFT.wav	1	11	blb_dichoticlistening_da-pa.mp3	da	pa	1	right
6.6.1	win	2023-06-15	07:38:51	07:49:16	621534	5f117601aeef1d5095578b01	4	1	DL_test	23	DL_test	5	stimuli_target_diamondsquares.svg	stimuli_distractor_diamondtriangles.svg	24	yes	da	1	1346	6	1	antiphase_hc_iso.wav	2	6	3	noise_calib_stim_LEFT.wav	1	14	blb_dichoticlistening_ga-da.mp3	ga	da	1	right
6.6.1	win	2023-06-15	07:38:51	07:49:16	621534	5f117601aeef1d5095578b01	4	1	DL_test	23	DL_test	6	stimuli_target_diamondsquares.svg	stimuli_distractor_diamondtriangles.svg	24	yes	da	1	1396	6	1	antiphase_hc_iso.wav	2	6	3	noise_calib_stim_LEFT.wav	1	2	blb_dichoticlistening_ba-da.mp3	ba	da	1	right
6.6.1	win	2023-06-15	07:38:51	07:49:16	621534	5f117601aeef1d5095578b01	4	1	DL_test	23	DL_test	7	stimuli_target_diamondsquares.svg	stimuli_distractor_diamondtriangles.svg	24	yes	pa	1	1353	6	1	antiphase_hc_iso.wav	2	6	3	noise_calib_stim_LEFT.wav	1	25	blb_dichoticlistening_pa-ba.mp3	pa	ba	1	left
6.6.1	win	2023-06-15	07:38:51	07:49:16	621534	5f117601aeef1d5095578b01	4	1	DL_test	23	DL_test	8	stimuli_target_diamondsquares.svg	stimuli_distractor_diamondtriangles.svg	24	yes	da	1	1236	6	1	antiphase_hc_iso.wav	2	6	3	noise_calib_stim_LEFT.wav	1	8	blb_dichoticlistening_da-da.mp3	da	da	0	left
6.6.1	win	2023-06-15	07:38:51	07:49:16	621534	5f117601aeef1d5095578b01	4	1	DL_test	23	DL_test	9	stimuli_target_diamondsquares.svg	stimuli_distractor_diamondtriangles.svg	24	yes	ka	1	1354	6	1	antiphase_hc_iso.wav	2	6	3	noise_calib_stim_LEFT.wav	1	4	blb_dichoticlistening_ba-ka.mp3	ba	ka	1	right
6.6.1	win	2023-06-15	07:38:51	07:49:16	621534	5f117601aeef1d5095578b01	4	1	DL_test	23	DL_test	10	stimuli_target_diamondsquares.svg	stimuli_distractor_diamondtriangles.svg	24	yes	pa	1	1297	6	1	antiphase_hc_iso.wav	2	6	3	noise_calib_stim_LEFT.wav	1	26	blb_dichoticlistening_pa-da.mp3	pa	da	1	left
6.6.1	win	2023-06-15	07:38:51	07:49:16	621534	5f117601aeef1d5095578b01	4	1	DL_test	23	DL_test	11	stimuli_target_diamondsquares.svg	stimuli_distractor_diamondtriangles.svg	24	yes	pa	1	1201	6	1	antiphase_hc_iso.wav	2	6	3	noise_calib_stim_LEFT.wav	1	5	blb_dichoticlistening_ba-pa.mp3	ba	pa	1	right
6.6.1	win	2023-06-15	07:38:51	07:49:16	621534	5f117601aeef1d5095578b01	4	1	DL_test	23	DL_test	12	stimuli_target_diamondsquares.svg	stimuli_distractor_diamondtriangles.svg	24	yes	ka	1	1603	6	1	antiphase_hc_iso.wav	2	6	3	noise_calib_stim_LEFT.wav	1	28	blb_dichoticlistening_pa-ka.mp3	pa	ka	1	right
6.6.1	win	2023-06-15	07:38:51	07:49:16	621534	5f117601aeef1d5095578b01	4	1	DL_test	23	DL_test	13	stimuli_target_diamondsquares.svg	stimuli_distractor_diamondtriangles.svg	24	yes	ka	1	1032	6	1	antiphase_hc_iso.wav	2	6	3	noise_calib_stim_LEFT.wav	1	24	blb_dichoticlistening_ka-ta.mp3	ka	ta	1	left
6.6.1	win	2023-06-15	07:38:51	07:49:16	621534	5f117601aeef1d5095578b01	4	1	DL_test	23	DL_test	14	stimuli_target_diamondsquares.svg	stimuli_distractor_diamondtriangles.svg	24	yes	ka	1	1071	6	1	antiphase_hc_iso.wav	2	6	3	noise_calib_stim_LEFT.wav	1	16	blb_dichoticlistening_ga-ka.mp3	ga	ka	1	right
6.6.1	win	2023-06-15	07:38:51	07:49:16	621534	5f117601aeef1d5095578b01	4	1	DL_test	23	DL_test	15	stimuli_target_diamondsquares.svg	stimuli_distractor_diamondtriangles.svg	24	yes	ga	1	1146	6	1	antiphase_hc_iso.wav	2	6	3	noise_calib_stim_LEFT.wav	1	15	blb_dichoticlistening_ga-ga.mp3	ga	ga	0	left
6.6.1	win	2023-06-15	07:38:51	07:49:16	621534	5f117601aeef1d5095578b01	4	1	DL_test	23	DL_test	16	stimuli_target_diamondsquares.svg	stimuli_distractor_diamondtriangles.svg	24	yes	da	1	1302	6	1	antiphase_hc_iso.wav	2	6	3	noise_calib_stim_LEFT.wav	1	9	blb_dichoticlistening_da-ga.mp3	da	ga	1	left
6.6.1	win	2023-06-15	07:38:51	07:49:16	621534	5f117601aeef1d5095578b01	4	1	DL_test	23	DL_test	17	stimuli_target_diamondsquares.svg	stimuli_distractor_diamondtriangles.svg	24	yes	da	0	2419	6	1	antiphase_hc_iso.wav	2	6	3	noise_calib_stim_LEFT.wav	1	33	blb_dichoticlistening_ta-ga.mp3	ta	ga	1	other
6.6.1	win	2023-06-15	07:38:51	07:49:16	621534	5f117601aeef1d5095578b01	4	1	DL_test	23	DL_test	18	stimuli_target_diamondsquares.svg	stimuli_distractor_diamondtriangles.svg	24	yes	pa	0	1601	6	1	antiphase_hc_iso.wav	2	6	3	noise_calib_stim_LEFT.wav	1	10	blb_dichoticlistening_da-ka.mp3	da	ka	1	other
6.6.1	win	2023-06-15	07:38:51	07:49:16	621534	5f117601aeef1d5095578b01	4	1	DL_test	23	DL_test	19	stimuli_target_diamondsquares.svg	stimuli_distractor_diamondtriangles.svg	24	yes	pa	1	979	6	1	antiphase_hc_iso.wav	2	6	3	noise_calib_stim_LEFT.wav	1	29	blb_dichoticlistening_pa-pa.mp3	pa	pa	0	left
6.6.1	win	2023-06-15	07:38:51	07:49:16	621534	5f117601aeef1d5095578b01	4	1	DL_test	23	DL_test	20	stimuli_target_diamondsquares.svg	stimuli_distractor_diamondtriangles.svg	24	yes	ka	1	1184	6	1	antiphase_hc_iso.wav	2	6	3	noise_calib_stim_LEFT.wav	1	34	blb_dichoticlistening_ta-ka.mp3	ta	ka	1	right
6.6.1	win	2023-06-15	07:38:51	07:49:16	621534	5f117601aeef1d5095578b01	4	1	DL_test	23	DL_test	21	stimuli_target_diamondsquares.svg	stimuli_distractor_diamondtriangles.svg	24	yes	da	1	1448	6	1	antiphase_hc_iso.wav	2	6	3	noise_calib_stim_LEFT.wav	1	20	blb_dichoticlistening_ka-da.mp3	ka	da	1	right
6.6.1	win	2023-06-15	07:38:51	07:49:16	621534	5f117601aeef1d5095578b01	4	1	DL_test	23	DL_test	22	stimuli_target_diamondsquares.svg	stimuli_distractor_diamondtriangles.svg	24	yes	ga	1	2404	6	1	antiphase_hc_iso.wav	2	6	3	noise_calib_stim_LEFT.wav	1	27	blb_dichoticlistening_pa-ga.mp3	pa	ga	1	right
6.6.1	win	2023-06-15	07:38:51	07:49:16	621534	5f117601aeef1d5095578b01	4	1	DL_test	23	DL_test	23	stimuli_target_diamondsquares.svg	stimuli_distractor_diamondtriangles.svg	24	yes	ga	0	1059	6	1	antiphase_hc_iso.wav	2	6	3	noise_calib_stim_LEFT.wav	1	30	blb_dichoticlistening_pa-ta.mp3	pa	ta	1	other
6.6.1	win	2023-06-15	07:38:51	07:49:16	621534	5f117601aeef1d5095578b01	4	1	DL_test	23	DL_test	24	stimuli_target_diamondsquares.svg	stimuli_distractor_diamondtriangles.svg	24	yes	ka	1	1153	6	1	antiphase_hc_iso.wav	2	6	3	noise_calib_stim_LEFT.wav	1	22	blb_dichoticlistening_ka-ka.mp3	ka	ka	0	left
6.6.1	win	2023-06-15	07:38:51	07:49:16	621534	5f117601aeef1d5095578b01	4	1	DL_test	23	DL_test	25	stimuli_target_diamondsquares.svg	stimuli_distractor_diamondtriangles.svg	24	yes	ka	0	1508	6	1	antiphase_hc_iso.wav	2	6	3	noise_calib_stim_LEFT.wav	1	31	blb_dichoticlistening_ta-ba.mp3	ta	ba	1	other
6.6.1	win	2023-06-15	07:38:51	07:49:16	621534	5f117601aeef1d5095578b01	4	1	DL_test	23	DL_test	26	stimuli_target_diamondsquares.svg	stimuli_distractor_diamondtriangles.svg	24	yes	ka	1	1371	6	1	antiphase_hc_iso.wav	2	6	3	noise_calib_stim_LEFT.wav	1	19	blb_dichoticlistening_ka-ba.mp3	ka	ba	1	left
