build	computer.platform	date	time	timestamp	time_elapsed_ms	subject	group	session	blockcode	blocknum	trialcode	trialnum	stimulus_left	stimulus_right	stim_index	target_present	response	correct	latency	headphonecheck_countTestTrials	headphonecheck_index	headphonecheck_testSound	headphonecheck_correctResponse	stereocheck_countTestTrials	stereocheck_index	stereocheck_testSound	stereocheck_correctResponse	DL_index	DL_soundfile	DL_leftSound	DL_rightSound	DL_dualSound	DL_choice
6.6.1	mac	2023-06-27	00:25:51	0	0	6481ec9f0a58d32023a4fd94	1	1	headphonecheck_calibration	4	headphonecheck_calibrationIntro	1			0		calibrationButton	0	4763	0	0			0	0			1				0	
6.6.1	mac	2023-06-27	00:25:51	0	0	6481ec9f0a58d32023a4fd94	1	1	headphonecheck_testphase	5	test_collectResponse	3			0		second	1	761	1	1	antiphase_hc_iso.wav	2	0	0			1				0	
6.6.1	mac	2023-06-27	00:25:51	0	0	6481ec9f0a58d32023a4fd94	1	1	headphonecheck_testphase	5	test_collectResponse	6			0		third	1	620	2	6	antiphase_hc_ois.wav	3	0	0			1				0	
6.6.1	mac	2023-06-27	00:25:51	0	0	6481ec9f0a58d32023a4fd94	1	1	headphonecheck_testphase	5	test_collectResponse	9			0		first	1	274	3	4	antiphase_hc_sio.wav	1	0	0			1				0	
6.6.1	mac	2023-06-27	00:25:51	0	0	6481ec9f0a58d32023a4fd94	1	1	headphonecheck_testphase	5	test_collectResponse	12			0		first	1	168	4	3	antiphase_hc_soi.wav	1	0	0			1				0	
6.6.1	mac	2023-06-27	00:25:51	0	0	6481ec9f0a58d32023a4fd94	1	1	headphonecheck_testphase	5	test_collectResponse	15			0		second	1	7845	5	5	antiphase_hc_osi.wav	2	0	0			1				0	
6.6.1	mac	2023-06-27	00:25:51	0	0	6481ec9f0a58d32023a4fd94	1	1	headphonecheck_testphase	5	test_collectResponse	18			0		third	1	290	6	2	antiphase_hc_ios.wav	3	0	0			1				0	
6.6.1	mac	2023-06-27	00:25:51	0	0	6481ec9f0a58d32023a4fd94	1	1	stereocheck_calibration	7	stereocheck_calibrationIntro	1			0		stereocheck_calibrationButton	0	3725	6	2	antiphase_hc_ios.wav	3	0	0			1				0	
6.6.1	mac	2023-06-27	00:25:51	0	0	6481ec9f0a58d32023a4fd94	1	1	stereocheck_testphase	8	stereocheck_test_collectResponse	3			0		stereocheck_left	1	679	6	2	antiphase_hc_ios.wav	3	1	3	noise_calib_stim_LEFT.wav	1	1				0	
6.6.1	mac	2023-06-27	00:25:51	0	0	6481ec9f0a58d32023a4fd94	1	1	stereocheck_testphase	8	stereocheck_test_collectResponse	6			0		stereocheck_right	1	369	6	2	antiphase_hc_ios.wav	3	2	4	noise_calib_stim_RIGHT.wav	2	1				0	
6.6.1	mac	2023-06-27	00:25:51	0	0	6481ec9f0a58d32023a4fd94	1	1	stereocheck_testphase	8	stereocheck_test_collectResponse	9			0		stereocheck_right	1	338	6	2	antiphase_hc_ios.wav	3	3	5	noise_calib_stim_RIGHT.wav	2	1				0	
6.6.1	mac	2023-06-27	00:25:51	0	0	6481ec9f0a58d32023a4fd94	1	1	stereocheck_testphase	8	stereocheck_test_collectResponse	12			0		stereocheck_left	1	284	6	2	antiphase_hc_ios.wav	3	4	2	noise_calib_stim_LEFT.wav	1	1				0	
6.6.1	mac	2023-06-27	00:25:51	0	0	6481ec9f0a58d32023a4fd94	1	1	stereocheck_testphase	8	stereocheck_test_collectResponse	15			0		stereocheck_right	1	245	6	2	antiphase_hc_ios.wav	3	5	6	noise_calib_stim_RIGHT.wav	2	1				0	
6.6.1	mac	2023-06-27	00:25:51	0	0	6481ec9f0a58d32023a4fd94	1	1	stereocheck_testphase	8	stereocheck_test_collectResponse	18			0		stereocheck_left	1	312	6	2	antiphase_hc_ios.wav	3	6	1	noise_calib_stim_LEFT.wav	1	1				0	
6.6.1	mac	2023-06-27	00:25:51	0	0	6481ec9f0a58d32023a4fd94	1	1	DL_practice	11	DL_practice	2			0		pa	1	1591	6	2	antiphase_hc_ios.wav	3	6	1	noise_calib_stim_LEFT.wav	1	29	blb_dichoticlistening_pa-pa.mp3	pa	pa	0	left
6.6.1	mac	2023-06-27	00:25:51	0	0	6481ec9f0a58d32023a4fd94	1	1	DL_practice	11	DL_practice	3			0		ka	0	1462	6	2	antiphase_hc_ios.wav	3	6	1	noise_calib_stim_LEFT.wav	1	18	blb_dichoticlistening_ga-ta.mp3	ga	ta	1	other
6.6.1	mac	2023-06-27	00:25:51	0	0	6481ec9f0a58d32023a4fd94	1	1	DL_practice	11	DL_practice	4			0		ga	1	1046	6	2	antiphase_hc_ios.wav	3	6	1	noise_calib_stim_LEFT.wav	1	15	blb_dichoticlistening_ga-ga.mp3	ga	ga	0	left
6.6.1	mac	2023-06-27	00:25:51	0	0	6481ec9f0a58d32023a4fd94	1	1	DL_practice	11	DL_practice	5			0		ta	1	1116	6	2	antiphase_hc_ios.wav	3	6	1	noise_calib_stim_LEFT.wav	1	36	blb_dichoticlistening_ta-ta.mp3	ta	ta	0	left
6.6.1	mac	2023-06-27	00:25:51	0	0	6481ec9f0a58d32023a4fd94	1	1	DL_practice	11	DL_practice	6			0		da	1	1849	6	2	antiphase_hc_ios.wav	3	6	1	noise_calib_stim_LEFT.wav	1	7	blb_dichoticlistening_da-ba.mp3	da	ba	1	left
6.6.1	mac	2023-06-27	00:25:51	0	0	6481ec9f0a58d32023a4fd94	1	1	DL_practice	11	DL_practice	7			0		da	1	929	6	2	antiphase_hc_ios.wav	3	6	1	noise_calib_stim_LEFT.wav	1	8	blb_dichoticlistening_da-da.mp3	da	da	0	left
6.6.1	mac	2023-06-27	00:25:51	0	0	6481ec9f0a58d32023a4fd94	1	1	DL_practice	11	DL_practice	8			0		ba	1	1178	6	2	antiphase_hc_ios.wav	3	6	1	noise_calib_stim_LEFT.wav	1	1	blb_dichoticlistening_ba-ba.mp3	ba	ba	0	left
6.6.1	mac	2023-06-27	00:25:51	0	0	6481ec9f0a58d32023a4fd94	1	1	DL_practice	11	DL_practice	9			0		ka	1	1044	6	2	antiphase_hc_ios.wav	3	6	1	noise_calib_stim_LEFT.wav	1	22	blb_dichoticlistening_ka-ka.mp3	ka	ka	0	left
6.6.1	mac	2023-06-27	00:25:51	0	0	6481ec9f0a58d32023a4fd94	1	1	DL_practice	11	DL_practice	10			0		pa	1	829	6	2	antiphase_hc_ios.wav	3	6	1	noise_calib_stim_LEFT.wav	1	23	blb_dichoticlistening_ka-pa.mp3	ka	pa	1	right
6.6.1	mac	2023-06-27	00:25:51	0	0	6481ec9f0a58d32023a4fd94	1	1	DL_test	13	DL_test	1			0		ba	1	1737	6	2	antiphase_hc_ios.wav	3	6	1	noise_calib_stim_LEFT.wav	1	1	blb_dichoticlistening_ba-ba.mp3	ba	ba	0	left
6.6.1	mac	2023-06-27	00:25:51	0	0	6481ec9f0a58d32023a4fd94	1	1	DL_test	13	DL_test	2			0		pa	1	1678	6	2	antiphase_hc_ios.wav	3	6	1	noise_calib_stim_LEFT.wav	1	5	blb_dichoticlistening_ba-pa.mp3	ba	pa	1	right
6.6.1	mac	2023-06-27	00:25:51	0	0	6481ec9f0a58d32023a4fd94	1	1	DL_test	13	DL_test	3			0		pa	1	938	6	2	antiphase_hc_ios.wav	3	6	1	noise_calib_stim_LEFT.wav	1	29	blb_dichoticlistening_pa-pa.mp3	pa	pa	0	left
6.6.1	mac	2023-06-27	00:25:51	0	0	6481ec9f0a58d32023a4fd94	1	1	DL_test	13	DL_test	4			0		ta	1	1362	6	2	antiphase_hc_ios.wav	3	6	1	noise_calib_stim_LEFT.wav	1	30	blb_dichoticlistening_pa-ta.mp3	pa	ta	1	right
6.6.1	mac	2023-06-27	00:25:51	0	0	6481ec9f0a58d32023a4fd94	1	1	DL_test	13	DL_test	5			0		ga	0	2837	6	2	antiphase_hc_ios.wav	3	6	1	noise_calib_stim_LEFT.wav	1	32	blb_dichoticlistening_ta-da.mp3	ta	da	1	other
6.6.1	mac	2023-06-27	00:25:51	0	0	6481ec9f0a58d32023a4fd94	1	1	DL_test	13	DL_test	6			0		pa	1	2403	6	2	antiphase_hc_ios.wav	3	6	1	noise_calib_stim_LEFT.wav	1	27	blb_dichoticlistening_pa-ga.mp3	pa	ga	1	left
6.6.1	mac	2023-06-27	00:25:51	0	0	6481ec9f0a58d32023a4fd94	1	1	DL_test	13	DL_test	7			0		ga	1	1636	6	2	antiphase_hc_ios.wav	3	6	1	noise_calib_stim_LEFT.wav	1	21	blb_dichoticlistening_ka-ga.mp3	ka	ga	1	right
6.6.1	mac	2023-06-27	00:25:51	0	0	6481ec9f0a58d32023a4fd94	1	1	DL_test	13	DL_test	8			0		ta	1	1420	6	2	antiphase_hc_ios.wav	3	6	1	noise_calib_stim_LEFT.wav	1	36	blb_dichoticlistening_ta-ta.mp3	ta	ta	0	left
6.6.1	mac	2023-06-27	00:25:51	0	0	6481ec9f0a58d32023a4fd94	1	1	DL_test	13	DL_test	9			0		ka	1	929	6	2	antiphase_hc_ios.wav	3	6	1	noise_calib_stim_LEFT.wav	1	4	blb_dichoticlistening_ba-ka.mp3	ba	ka	1	right
6.6.1	mac	2023-06-27	00:25:51	0	0	6481ec9f0a58d32023a4fd94	1	1	DL_test	13	DL_test	10			0		ga	1	1862	6	2	antiphase_hc_ios.wav	3	6	1	noise_calib_stim_LEFT.wav	1	18	blb_dichoticlistening_ga-ta.mp3	ga	ta	1	left
6.6.1	mac	2023-06-27	00:25:51	0	0	6481ec9f0a58d32023a4fd94	1	1	DL_test	13	DL_test	11			0		ka	0	1870	6	2	antiphase_hc_ios.wav	3	6	1	noise_calib_stim_LEFT.wav	1	31	blb_dichoticlistening_ta-ba.mp3	ta	ba	1	other
6.6.1	mac	2023-06-27	00:25:51	0	0	6481ec9f0a58d32023a4fd94	1	1	DL_test	13	DL_test	12			0		ka	1	1020	6	2	antiphase_hc_ios.wav	3	6	1	noise_calib_stim_LEFT.wav	1	34	blb_dichoticlistening_ta-ka.mp3	ta	ka	1	right
6.6.1	mac	2023-06-27	00:25:51	0	0	6481ec9f0a58d32023a4fd94	1	1	DL_test	13	DL_test	13			0		ga	1	1171	6	2	antiphase_hc_ios.wav	3	6	1	noise_calib_stim_LEFT.wav	1	14	blb_dichoticlistening_ga-da.mp3	ga	da	1	left
6.6.1	mac	2023-06-27	00:25:51	0	0	6481ec9f0a58d32023a4fd94	1	1	DL_test	13	DL_test	14			0		ga	1	974	6	2	antiphase_hc_ios.wav	3	6	1	noise_calib_stim_LEFT.wav	1	16	blb_dichoticlistening_ga-ka.mp3	ga	ka	1	left
6.6.1	mac	2023-06-27	00:25:51	0	0	6481ec9f0a58d32023a4fd94	1	1	DL_test	13	DL_test	15			0		ka	1	1437	6	2	antiphase_hc_ios.wav	3	6	1	noise_calib_stim_LEFT.wav	1	19	blb_dichoticlistening_ka-ba.mp3	ka	ba	1	left
6.6.1	mac	2023-06-27	00:25:51	0	0	6481ec9f0a58d32023a4fd94	1	1	DL_test	13	DL_test	16			0		pa	1	849	6	2	antiphase_hc_ios.wav	3	6	1	noise_calib_stim_LEFT.wav	1	11	blb_dichoticlistening_da-pa.mp3	da	pa	1	right
6.6.1	mac	2023-06-27	00:25:51	0	0	6481ec9f0a58d32023a4fd94	1	1	DL_test	13	DL_test	17			0		ga	1	1150	6	2	antiphase_hc_ios.wav	3	6	1	noise_calib_stim_LEFT.wav	1	3	blb_dichoticlistening_ba-ga.mp3	ba	ga	1	right
6.6.1	mac	2023-06-27	00:25:51	0	0	6481ec9f0a58d32023a4fd94	1	1	DL_test	13	DL_test	18			0		pa	1	1036	6	2	antiphase_hc_ios.wav	3	6	1	noise_calib_stim_LEFT.wav	1	26	blb_dichoticlistening_pa-da.mp3	pa	da	1	left
6.6.1	mac	2023-06-27	00:25:51	0	0	6481ec9f0a58d32023a4fd94	1	1	DL_test	13	DL_test	19			0		ga	0	1449	6	2	antiphase_hc_ios.wav	3	6	1	noise_calib_stim_LEFT.wav	1	12	blb_dichoticlistening_da-ta.mp3	da	ta	1	other
6.6.1	mac	2023-06-27	00:25:51	0	0	6481ec9f0a58d32023a4fd94	1	1	DL_test	13	DL_test	20			0		ga	0	925	6	2	antiphase_hc_ios.wav	3	6	1	noise_calib_stim_LEFT.wav	1	2	blb_dichoticlistening_ba-da.mp3	ba	da	1	other
6.6.1	mac	2023-06-27	00:25:51	0	0	6481ec9f0a58d32023a4fd94	1	1	DL_test	13	DL_test	21			0		ka	0	995	6	2	antiphase_hc_ios.wav	3	6	1	noise_calib_stim_LEFT.wav	1	33	blb_dichoticlistening_ta-ga.mp3	ta	ga	1	other
6.6.1	mac	2023-06-27	00:25:51	0	0	6481ec9f0a58d32023a4fd94	1	1	DL_test	13	DL_test	22			0		ga	1	1237	6	2	antiphase_hc_ios.wav	3	6	1	noise_calib_stim_LEFT.wav	1	15	blb_dichoticlistening_ga-ga.mp3	ga	ga	0	left
6.6.1	mac	2023-06-27	00:25:51	0	0	6481ec9f0a58d32023a4fd94	1	1	DL_test	13	DL_test	23			0		pa	1	1620	6	2	antiphase_hc_ios.wav	3	6	1	noise_calib_stim_LEFT.wav	1	23	blb_dichoticlistening_ka-pa.mp3	ka	pa	1	right
6.6.1	mac	2023-06-27	00:25:51	0	0	6481ec9f0a58d32023a4fd94	1	1	DL_test	13	DL_test	24			0		ka	1	1037	6	2	antiphase_hc_ios.wav	3	6	1	noise_calib_stim_LEFT.wav	1	22	blb_dichoticlistening_ka-ka.mp3	ka	ka	0	left
6.6.1	mac	2023-06-27	00:25:51	0	0	6481ec9f0a58d32023a4fd94	1	1	DL_test	13	DL_test	25			0		pa	1	1495	6	2	antiphase_hc_ios.wav	3	6	1	noise_calib_stim_LEFT.wav	1	35	blb_dichoticlistening_ta-pa.mp3	ta	pa	1	right
6.6.1	mac	2023-06-27	00:25:51	0	0	6481ec9f0a58d32023a4fd94	1	1	DL_test	13	DL_test	26			0		ta	1	1354	6	2	antiphase_hc_ios.wav	3	6	1	noise_calib_stim_LEFT.wav	1	6	blb_dichoticlistening_ba-ta.mp3	ba	ta	1	right
6.6.1	mac	2023-06-27	00:25:51	0	0	6481ec9f0a58d32023a4fd94	1	1	DL_test	13	DL_test	27			0		pa	1	1341	6	2	antiphase_hc_ios.wav	3	6	1	noise_calib_stim_LEFT.wav	1	17	blb_dichoticlistening_ga-pa.mp3	ga	pa	1	right
6.6.1	mac	2023-06-27	00:25:51	0	0	6481ec9f0a58d32023a4fd94	1	1	DL_test	13	DL_test	28			0		ka	1	1237	6	2	antiphase_hc_ios.wav	3	6	1	noise_calib_stim_LEFT.wav	1	24	blb_dichoticlistening_ka-ta.mp3	ka	ta	1	left
6.6.1	mac	2023-06-27	00:25:51	0	0	6481ec9f0a58d32023a4fd94	1	1	DL_test	13	DL_test	29			0		pa	0	1070	6	2	antiphase_hc_ios.wav	3	6	1	noise_calib_stim_LEFT.wav	1	10	blb_dichoticlistening_da-ka.mp3	da	ka	1	other
6.6.1	mac	2023-06-27	00:25:51	0	0	6481ec9f0a58d32023a4fd94	1	1	DL_test	13	DL_test	30			0		pa	1	1011	6	2	antiphase_hc_ios.wav	3	6	1	noise_calib_stim_LEFT.wav	1	25	blb_dichoticlistening_pa-ba.mp3	pa	ba	1	left
6.6.1	mac	2023-06-27	00:25:51	0	0	6481ec9f0a58d32023a4fd94	1	1	DL_test	13	DL_test	31			0		ga	1	1249	6	2	antiphase_hc_ios.wav	3	6	1	noise_calib_stim_LEFT.wav	1	13	blb_dichoticlistening_ga-ba.mp3	ga	ba	1	left
6.6.1	mac	2023-06-27	00:25:51	0	0	6481ec9f0a58d32023a4fd94	1	1	DL_test	13	DL_test	32			0		da	1	1195	6	2	antiphase_hc_ios.wav	3	6	1	noise_calib_stim_LEFT.wav	1	7	blb_dichoticlistening_da-ba.mp3	da	ba	1	left
6.6.1	mac	2023-06-27	00:25:51	0	0	6481ec9f0a58d32023a4fd94	1	1	DL_test	13	DL_test	33			0		ta	0	2929	6	2	antiphase_hc_ios.wav	3	6	1	noise_calib_stim_LEFT.wav	1	28	blb_dichoticlistening_pa-ka.mp3	pa	ka	1	other
6.6.1	mac	2023-06-27	00:25:51	0	0	6481ec9f0a58d32023a4fd94	1	1	DL_test	13	DL_test	34			0		da	1	1967	6	2	antiphase_hc_ios.wav	3	6	1	noise_calib_stim_LEFT.wav	1	8	blb_dichoticlistening_da-da.mp3	da	da	0	left
6.6.1	mac	2023-06-27	00:25:51	0	0	6481ec9f0a58d32023a4fd94	1	1	DL_test	13	DL_test	35			0		da	1	966	6	2	antiphase_hc_ios.wav	3	6	1	noise_calib_stim_LEFT.wav	1	9	blb_dichoticlistening_da-ga.mp3	da	ga	1	left
6.6.1	mac	2023-06-27	00:25:51	0	0	6481ec9f0a58d32023a4fd94	1	1	DL_test	13	DL_test	36			0		ka	1	1345	6	2	antiphase_hc_ios.wav	3	6	1	noise_calib_stim_LEFT.wav	1	20	blb_dichoticlistening_ka-da.mp3	ka	da	1	left
6.6.1	mac	2023-06-27	00:25:51	0	0	6481ec9f0a58d32023a4fd94	1	1	DL_test	14	DL_test	1			0		ta	1	1354	6	2	antiphase_hc_ios.wav	3	6	1	noise_calib_stim_LEFT.wav	1	36	blb_dichoticlistening_ta-ta.mp3	ta	ta	0	left
6.6.1	mac	2023-06-27	00:25:51	0	0	6481ec9f0a58d32023a4fd94	1	1	DL_test	14	DL_test	2			0		ka	1	1877	6	2	antiphase_hc_ios.wav	3	6	1	noise_calib_stim_LEFT.wav	1	24	blb_dichoticlistening_ka-ta.mp3	ka	ta	1	left
6.6.1	mac	2023-06-27	00:25:51	0	0	6481ec9f0a58d32023a4fd94	1	1	DL_test	14	DL_test	3			0		ka	1	949	6	2	antiphase_hc_ios.wav	3	6	1	noise_calib_stim_LEFT.wav	1	19	blb_dichoticlistening_ka-ba.mp3	ka	ba	1	left
6.6.1	mac	2023-06-27	00:25:51	0	0	6481ec9f0a58d32023a4fd94	1	1	DL_test	14	DL_test	4			0		pa	1	1074	6	2	antiphase_hc_ios.wav	3	6	1	noise_calib_stim_LEFT.wav	1	5	blb_dichoticlistening_ba-pa.mp3	ba	pa	1	right
6.6.1	mac	2023-06-27	00:25:51	0	0	6481ec9f0a58d32023a4fd94	1	1	DL_test	14	DL_test	5			0		ga	1	970	6	2	antiphase_hc_ios.wav	3	6	1	noise_calib_stim_LEFT.wav	1	15	blb_dichoticlistening_ga-ga.mp3	ga	ga	0	left
6.6.1	mac	2023-06-27	00:25:51	0	0	6481ec9f0a58d32023a4fd94	1	1	DL_test	14	DL_test	6			0		ka	1	1061	6	2	antiphase_hc_ios.wav	3	6	1	noise_calib_stim_LEFT.wav	1	21	blb_dichoticlistening_ka-ga.mp3	ka	ga	1	left
6.6.1	mac	2023-06-27	00:25:51	0	0	6481ec9f0a58d32023a4fd94	1	1	DL_test	14	DL_test	7			0		da	0	1112	6	2	antiphase_hc_ios.wav	3	6	1	noise_calib_stim_LEFT.wav	1	3	blb_dichoticlistening_ba-ga.mp3	ba	ga	1	other
6.6.1	mac	2023-06-27	00:25:51	0	0	6481ec9f0a58d32023a4fd94	1	1	DL_test	14	DL_test	8			0		pa	0	1066	6	2	antiphase_hc_ios.wav	3	6	1	noise_calib_stim_LEFT.wav	1	10	blb_dichoticlistening_da-ka.mp3	da	ka	1	other
6.6.1	mac	2023-06-27	00:25:51	0	0	6481ec9f0a58d32023a4fd94	1	1	DL_test	14	DL_test	9			0		ga	1	1970	6	2	antiphase_hc_ios.wav	3	6	1	noise_calib_stim_LEFT.wav	1	13	blb_dichoticlistening_ga-ba.mp3	ga	ba	1	left
6.6.1	mac	2023-06-27	00:25:51	0	0	6481ec9f0a58d32023a4fd94	1	1	DL_test	14	DL_test	10			0		da	1	1570	6	2	antiphase_hc_ios.wav	3	6	1	noise_calib_stim_LEFT.wav	1	8	blb_dichoticlistening_da-da.mp3	da	da	0	left
6.6.1	mac	2023-06-27	00:25:51	0	0	6481ec9f0a58d32023a4fd94	1	1	DL_test	14	DL_test	11			0		ga	1	1152	6	2	antiphase_hc_ios.wav	3	6	1	noise_calib_stim_LEFT.wav	1	9	blb_dichoticlistening_da-ga.mp3	da	ga	1	right
6.6.1	mac	2023-06-27	00:25:51	0	0	6481ec9f0a58d32023a4fd94	1	1	DL_test	14	DL_test	12			0		ta	1	1714	6	2	antiphase_hc_ios.wav	3	6	1	noise_calib_stim_LEFT.wav	1	30	blb_dichoticlistening_pa-ta.mp3	pa	ta	1	right
6.6.1	mac	2023-06-27	00:25:51	0	0	6481ec9f0a58d32023a4fd94	1	1	DL_test	14	DL_test	13			0		ka	1	929	6	2	antiphase_hc_ios.wav	3	6	1	noise_calib_stim_LEFT.wav	1	22	blb_dichoticlistening_ka-ka.mp3	ka	ka	0	left
6.6.1	mac	2023-06-27	00:25:51	0	0	6481ec9f0a58d32023a4fd94	1	1	DL_test	14	DL_test	14			0		ba	1	1312	6	2	antiphase_hc_ios.wav	3	6	1	noise_calib_stim_LEFT.wav	1	1	blb_dichoticlistening_ba-ba.mp3	ba	ba	0	left
6.6.1	mac	2023-06-27	00:25:51	0	0	6481ec9f0a58d32023a4fd94	1	1	DL_test	14	DL_test	15			0		ka	1	1082	6	2	antiphase_hc_ios.wav	3	6	1	noise_calib_stim_LEFT.wav	1	4	blb_dichoticlistening_ba-ka.mp3	ba	ka	1	right
6.6.1	mac	2023-06-27	00:25:51	0	0	6481ec9f0a58d32023a4fd94	1	1	DL_test	14	DL_test	16			0		ka	0	1582	6	2	antiphase_hc_ios.wav	3	6	1	noise_calib_stim_LEFT.wav	1	31	blb_dichoticlistening_ta-ba.mp3	ta	ba	1	other
6.6.1	mac	2023-06-27	00:25:51	0	0	6481ec9f0a58d32023a4fd94	1	1	DL_test	14	DL_test	17			0		pa	1	1112	6	2	antiphase_hc_ios.wav	3	6	1	noise_calib_stim_LEFT.wav	1	35	blb_dichoticlistening_ta-pa.mp3	ta	pa	1	right
6.6.1	mac	2023-06-27	00:25:51	0	0	6481ec9f0a58d32023a4fd94	1	1	DL_test	14	DL_test	18			0		pa	1	1171	6	2	antiphase_hc_ios.wav	3	6	1	noise_calib_stim_LEFT.wav	1	26	blb_dichoticlistening_pa-da.mp3	pa	da	1	left
6.6.1	mac	2023-06-27	00:25:51	0	0	6481ec9f0a58d32023a4fd94	1	1	DL_test	14	DL_test	19			0		pa	1	896	6	2	antiphase_hc_ios.wav	3	6	1	noise_calib_stim_LEFT.wav	1	23	blb_dichoticlistening_ka-pa.mp3	ka	pa	1	right
6.6.1	mac	2023-06-27	00:25:51	0	0	6481ec9f0a58d32023a4fd94	1	1	DL_test	14	DL_test	20			0		ka	1	1894	6	2	antiphase_hc_ios.wav	3	6	1	noise_calib_stim_LEFT.wav	1	20	blb_dichoticlistening_ka-da.mp3	ka	da	1	left
6.6.1	mac	2023-06-27	00:25:51	0	0	6481ec9f0a58d32023a4fd94	1	1	DL_test	14	DL_test	21			0		ga	1	1307	6	2	antiphase_hc_ios.wav	3	6	1	noise_calib_stim_LEFT.wav	1	33	blb_dichoticlistening_ta-ga.mp3	ta	ga	1	right
6.6.1	mac	2023-06-27	00:25:51	0	0	6481ec9f0a58d32023a4fd94	1	1	DL_test	14	DL_test	22			0		ga	1	1625	6	2	antiphase_hc_ios.wav	3	6	1	noise_calib_stim_LEFT.wav	1	16	blb_dichoticlistening_ga-ka.mp3	ga	ka	1	left
6.6.1	mac	2023-06-27	00:25:51	0	0	6481ec9f0a58d32023a4fd94	1	1	DL_test	14	DL_test	23			0		pa	1	2444	6	2	antiphase_hc_ios.wav	3	6	1	noise_calib_stim_LEFT.wav	1	17	blb_dichoticlistening_ga-pa.mp3	ga	pa	1	right
6.6.1	mac	2023-06-27	00:25:51	0	0	6481ec9f0a58d32023a4fd94	1	1	DL_test	14	DL_test	24			0		pa	1	1053	6	2	antiphase_hc_ios.wav	3	6	1	noise_calib_stim_LEFT.wav	1	25	blb_dichoticlistening_pa-ba.mp3	pa	ba	1	left
6.6.1	mac	2023-06-27	00:25:51	0	0	6481ec9f0a58d32023a4fd94	1	1	DL_test	14	DL_test	25			0		da	1	1431	6	2	antiphase_hc_ios.wav	3	6	1	noise_calib_stim_LEFT.wav	1	7	blb_dichoticlistening_da-ba.mp3	da	ba	1	left
6.6.1	mac	2023-06-27	00:25:51	0	0	6481ec9f0a58d32023a4fd94	1	1	DL_test	14	DL_test	26			0		pa	1	1078	6	2	antiphase_hc_ios.wav	3	6	1	noise_calib_stim_LEFT.wav	1	29	blb_dichoticlistening_pa-pa.mp3	pa	pa	0	left
6.6.1	mac	2023-06-27	00:25:51	0	0	6481ec9f0a58d32023a4fd94	1	1	DL_test	14	DL_test	27			0		pa	1	1143	6	2	antiphase_hc_ios.wav	3	6	1	noise_calib_stim_LEFT.wav	1	27	blb_dichoticlistening_pa-ga.mp3	pa	ga	1	left
6.6.1	mac	2023-06-27	00:25:51	0	0	6481ec9f0a58d32023a4fd94	1	1	DL_test	14	DL_test	28			0		ka	1	1070	6	2	antiphase_hc_ios.wav	3	6	1	noise_calib_stim_LEFT.wav	1	34	blb_dichoticlistening_ta-ka.mp3	ta	ka	1	right
6.6.1	mac	2023-06-27	00:25:51	0	0	6481ec9f0a58d32023a4fd94	1	1	DL_test	14	DL_test	29			0		ka	0	936	6	2	antiphase_hc_ios.wav	3	6	1	noise_calib_stim_LEFT.wav	1	32	blb_dichoticlistening_ta-da.mp3	ta	da	1	other
6.6.1	mac	2023-06-27	00:25:51	0	0	6481ec9f0a58d32023a4fd94	1	1	DL_test	14	DL_test	30			0		ga	1	1453	6	2	antiphase_hc_ios.wav	3	6	1	noise_calib_stim_LEFT.wav	1	18	blb_dichoticlistening_ga-ta.mp3	ga	ta	1	left
6.6.1	mac	2023-06-27	00:25:51	0	0	6481ec9f0a58d32023a4fd94	1	1	DL_test	14	DL_test	31			0		da	1	1082	6	2	antiphase_hc_ios.wav	3	6	1	noise_calib_stim_LEFT.wav	1	2	blb_dichoticlistening_ba-da.mp3	ba	da	1	right
6.6.1	mac	2023-06-27	00:25:51	0	0	6481ec9f0a58d32023a4fd94	1	1	DL_test	14	DL_test	32			0		ga	1	1040	6	2	antiphase_hc_ios.wav	3	6	1	noise_calib_stim_LEFT.wav	1	14	blb_dichoticlistening_ga-da.mp3	ga	da	1	left
6.6.1	mac	2023-06-27	00:25:51	0	0	6481ec9f0a58d32023a4fd94	1	1	DL_test	14	DL_test	33			0		ka	0	1211	6	2	antiphase_hc_ios.wav	3	6	1	noise_calib_stim_LEFT.wav	1	12	blb_dichoticlistening_da-ta.mp3	da	ta	1	other
6.6.1	mac	2023-06-27	00:25:51	0	0	6481ec9f0a58d32023a4fd94	1	1	DL_test	14	DL_test	34			0		pa	1	1003	6	2	antiphase_hc_ios.wav	3	6	1	noise_calib_stim_LEFT.wav	1	28	blb_dichoticlistening_pa-ka.mp3	pa	ka	1	left
6.6.1	mac	2023-06-27	00:25:51	0	0	6481ec9f0a58d32023a4fd94	1	1	DL_test	14	DL_test	35			0		pa	1	953	6	2	antiphase_hc_ios.wav	3	6	1	noise_calib_stim_LEFT.wav	1	11	blb_dichoticlistening_da-pa.mp3	da	pa	1	right
6.6.1	mac	2023-06-27	00:25:51	0	0	6481ec9f0a58d32023a4fd94	1	1	DL_test	14	DL_test	36			0		ta	1	1187	6	2	antiphase_hc_ios.wav	3	6	1	noise_calib_stim_LEFT.wav	1	6	blb_dichoticlistening_ba-ta.mp3	ba	ta	1	right
6.6.1	mac	2023-06-27	00:25:51	0	0	6481ec9f0a58d32023a4fd94	1	1	DL_test	15	DL_test	1			0		ga	1	667	6	2	antiphase_hc_ios.wav	3	6	1	noise_calib_stim_LEFT.wav	1	17	blb_dichoticlistening_ga-pa.mp3	ga	pa	1	left
6.6.1	mac	2023-06-27	00:25:51	0	0	6481ec9f0a58d32023a4fd94	1	1	DL_test	15	DL_test	2			0		ka	1	853	6	2	antiphase_hc_ios.wav	3	6	1	noise_calib_stim_LEFT.wav	1	34	blb_dichoticlistening_ta-ka.mp3	ta	ka	1	right
6.6.1	mac	2023-06-27	00:25:51	0	0	6481ec9f0a58d32023a4fd94	1	1	DL_test	15	DL_test	3			0		pa	1	928	6	2	antiphase_hc_ios.wav	3	6	1	noise_calib_stim_LEFT.wav	1	11	blb_dichoticlistening_da-pa.mp3	da	pa	1	right
6.6.1	mac	2023-06-27	00:25:51	0	0	6481ec9f0a58d32023a4fd94	1	1	DL_test	15	DL_test	4			0		ta	1	1853	6	2	antiphase_hc_ios.wav	3	6	1	noise_calib_stim_LEFT.wav	1	30	blb_dichoticlistening_pa-ta.mp3	pa	ta	1	right
6.6.1	mac	2023-06-27	00:25:51	0	0	6481ec9f0a58d32023a4fd94	1	1	DL_test	15	DL_test	5			0		da	1	1705	6	2	antiphase_hc_ios.wav	3	6	1	noise_calib_stim_LEFT.wav	1	7	blb_dichoticlistening_da-ba.mp3	da	ba	1	left
6.6.1	mac	2023-06-27	00:25:51	0	0	6481ec9f0a58d32023a4fd94	1	1	DL_test	15	DL_test	6			0		ga	0	1536	6	2	antiphase_hc_ios.wav	3	6	1	noise_calib_stim_LEFT.wav	1	32	blb_dichoticlistening_ta-da.mp3	ta	da	1	other
6.6.1	mac	2023-06-27	00:25:51	0	0	6481ec9f0a58d32023a4fd94	1	1	DL_test	15	DL_test	7			0		ga	1	803	6	2	antiphase_hc_ios.wav	3	6	1	noise_calib_stim_LEFT.wav	1	3	blb_dichoticlistening_ba-ga.mp3	ba	ga	1	right
6.6.1	mac	2023-06-27	00:25:51	0	0	6481ec9f0a58d32023a4fd94	1	1	DL_test	15	DL_test	8			0		ba	1	1636	6	2	antiphase_hc_ios.wav	3	6	1	noise_calib_stim_LEFT.wav	1	1	blb_dichoticlistening_ba-ba.mp3	ba	ba	0	left
6.6.1	mac	2023-06-27	00:25:51	0	0	6481ec9f0a58d32023a4fd94	1	1	DL_test	15	DL_test	9			0		ta	1	2670	6	2	antiphase_hc_ios.wav	3	6	1	noise_calib_stim_LEFT.wav	1	31	blb_dichoticlistening_ta-ba.mp3	ta	ba	1	left
6.6.1	mac	2023-06-27	00:25:51	0	0	6481ec9f0a58d32023a4fd94	1	1	DL_test	15	DL_test	10			0		pa	1	1114	6	2	antiphase_hc_ios.wav	3	6	1	noise_calib_stim_LEFT.wav	1	28	blb_dichoticlistening_pa-ka.mp3	pa	ka	1	left
6.6.1	mac	2023-06-27	00:25:51	0	0	6481ec9f0a58d32023a4fd94	1	1	DL_test	15	DL_test	11			0		ta	1	1253	6	2	antiphase_hc_ios.wav	3	6	1	noise_calib_stim_LEFT.wav	1	36	blb_dichoticlistening_ta-ta.mp3	ta	ta	0	left
6.6.1	mac	2023-06-27	00:25:51	0	0	6481ec9f0a58d32023a4fd94	1	1	DL_test	15	DL_test	12			0		pa	1	1000	6	2	antiphase_hc_ios.wav	3	6	1	noise_calib_stim_LEFT.wav	1	26	blb_dichoticlistening_pa-da.mp3	pa	da	1	left
6.6.1	mac	2023-06-27	00:25:51	0	0	6481ec9f0a58d32023a4fd94	1	1	DL_test	15	DL_test	13			0		da	1	1186	6	2	antiphase_hc_ios.wav	3	6	1	noise_calib_stim_LEFT.wav	1	8	blb_dichoticlistening_da-da.mp3	da	da	0	left
6.6.1	mac	2023-06-27	00:25:51	0	0	6481ec9f0a58d32023a4fd94	1	1	DL_test	15	DL_test	14			0		ta	1	1419	6	2	antiphase_hc_ios.wav	3	6	1	noise_calib_stim_LEFT.wav	1	6	blb_dichoticlistening_ba-ta.mp3	ba	ta	1	right
6.6.1	mac	2023-06-27	00:25:51	0	0	6481ec9f0a58d32023a4fd94	1	1	DL_test	15	DL_test	15			0		da	1	1703	6	2	antiphase_hc_ios.wav	3	6	1	noise_calib_stim_LEFT.wav	1	2	blb_dichoticlistening_ba-da.mp3	ba	da	1	right
6.6.1	mac	2023-06-27	00:25:51	0	0	6481ec9f0a58d32023a4fd94	1	1	DL_test	15	DL_test	16			0		ka	1	1003	6	2	antiphase_hc_ios.wav	3	6	1	noise_calib_stim_LEFT.wav	1	19	blb_dichoticlistening_ka-ba.mp3	ka	ba	1	left
6.6.1	mac	2023-06-27	00:25:51	0	0	6481ec9f0a58d32023a4fd94	1	1	DL_test	15	DL_test	17			0		pa	1	1212	6	2	antiphase_hc_ios.wav	3	6	1	noise_calib_stim_LEFT.wav	1	29	blb_dichoticlistening_pa-pa.mp3	pa	pa	0	left
6.6.1	mac	2023-06-27	00:25:51	0	0	6481ec9f0a58d32023a4fd94	1	1	DL_test	15	DL_test	18			0		pa	1	1299	6	2	antiphase_hc_ios.wav	3	6	1	noise_calib_stim_LEFT.wav	1	27	blb_dichoticlistening_pa-ga.mp3	pa	ga	1	left
6.6.1	mac	2023-06-27	00:25:51	0	0	6481ec9f0a58d32023a4fd94	1	1	DL_test	15	DL_test	19			0		ga	1	1361	6	2	antiphase_hc_ios.wav	3	6	1	noise_calib_stim_LEFT.wav	1	14	blb_dichoticlistening_ga-da.mp3	ga	da	1	left
6.6.1	mac	2023-06-27	00:25:51	0	0	6481ec9f0a58d32023a4fd94	1	1	DL_test	15	DL_test	20			0		ka	1	1590	6	2	antiphase_hc_ios.wav	3	6	1	noise_calib_stim_LEFT.wav	1	4	blb_dichoticlistening_ba-ka.mp3	ba	ka	1	right
6.6.1	mac	2023-06-27	00:25:51	0	0	6481ec9f0a58d32023a4fd94	1	1	DL_test	15	DL_test	21			0		pa	0	1052	6	2	antiphase_hc_ios.wav	3	6	1	noise_calib_stim_LEFT.wav	1	10	blb_dichoticlistening_da-ka.mp3	da	ka	1	other
6.6.1	mac	2023-06-27	00:25:51	0	0	6481ec9f0a58d32023a4fd94	1	1	DL_test	15	DL_test	22			0		ga	1	1204	6	2	antiphase_hc_ios.wav	3	6	1	noise_calib_stim_LEFT.wav	1	13	blb_dichoticlistening_ga-ba.mp3	ga	ba	1	left
6.6.1	mac	2023-06-27	00:25:51	0	0	6481ec9f0a58d32023a4fd94	1	1	DL_test	15	DL_test	23			0		ta	1	1136	6	2	antiphase_hc_ios.wav	3	6	1	noise_calib_stim_LEFT.wav	1	12	blb_dichoticlistening_da-ta.mp3	da	ta	1	right
6.6.1	mac	2023-06-27	00:25:51	0	0	6481ec9f0a58d32023a4fd94	1	1	DL_test	15	DL_test	24			0		pa	1	962	6	2	antiphase_hc_ios.wav	3	6	1	noise_calib_stim_LEFT.wav	1	35	blb_dichoticlistening_ta-pa.mp3	ta	pa	1	right
6.6.1	mac	2023-06-27	00:25:51	0	0	6481ec9f0a58d32023a4fd94	1	1	DL_test	15	DL_test	25			0		ka	1	2212	6	2	antiphase_hc_ios.wav	3	6	1	noise_calib_stim_LEFT.wav	1	23	blb_dichoticlistening_ka-pa.mp3	ka	pa	1	left
6.6.1	mac	2023-06-27	00:25:51	0	0	6481ec9f0a58d32023a4fd94	1	1	DL_test	15	DL_test	26			0		pa	0	769	6	2	antiphase_hc_ios.wav	3	6	1	noise_calib_stim_LEFT.wav	1	22	blb_dichoticlistening_ka-ka.mp3	ka	ka	0	other
6.6.1	mac	2023-06-27	00:25:51	0	0	6481ec9f0a58d32023a4fd94	1	1	DL_test	15	DL_test	27			0		pa	0	599	6	2	antiphase_hc_ios.wav	3	6	1	noise_calib_stim_LEFT.wav	1	20	blb_dichoticlistening_ka-da.mp3	ka	da	1	other
6.6.1	mac	2023-06-27	00:25:51	0	0	6481ec9f0a58d32023a4fd94	1	1	DL_test	15	DL_test	28			0		ga	1	2154	6	2	antiphase_hc_ios.wav	3	6	1	noise_calib_stim_LEFT.wav	1	21	blb_dichoticlistening_ka-ga.mp3	ka	ga	1	right
6.6.1	mac	2023-06-27	00:25:51	0	0	6481ec9f0a58d32023a4fd94	1	1	DL_test	15	DL_test	29			0		ka	1	1636	6	2	antiphase_hc_ios.wav	3	6	1	noise_calib_stim_LEFT.wav	1	24	blb_dichoticlistening_ka-ta.mp3	ka	ta	1	left
6.6.1	mac	2023-06-27	00:25:51	0	0	6481ec9f0a58d32023a4fd94	1	1	DL_test	15	DL_test	30			0		ka	1	982	6	2	antiphase_hc_ios.wav	3	6	1	noise_calib_stim_LEFT.wav	1	16	blb_dichoticlistening_ga-ka.mp3	ga	ka	1	right
6.6.1	mac	2023-06-27	00:25:51	0	0	6481ec9f0a58d32023a4fd94	1	1	DL_test	15	DL_test	31			0		pa	1	2011	6	2	antiphase_hc_ios.wav	3	6	1	noise_calib_stim_LEFT.wav	1	5	blb_dichoticlistening_ba-pa.mp3	ba	pa	1	right
6.6.1	mac	2023-06-27	00:25:51	0	0	6481ec9f0a58d32023a4fd94	1	1	DL_test	15	DL_test	32			0		ga	1	1199	6	2	antiphase_hc_ios.wav	3	6	1	noise_calib_stim_LEFT.wav	1	15	blb_dichoticlistening_ga-ga.mp3	ga	ga	0	left
6.6.1	mac	2023-06-27	00:25:51	0	0	6481ec9f0a58d32023a4fd94	1	1	DL_test	15	DL_test	33			0		pa	1	1028	6	2	antiphase_hc_ios.wav	3	6	1	noise_calib_stim_LEFT.wav	1	25	blb_dichoticlistening_pa-ba.mp3	pa	ba	1	left
6.6.1	mac	2023-06-27	00:25:51	0	0	6481ec9f0a58d32023a4fd94	1	1	DL_test	15	DL_test	34			0		ga	1	928	6	2	antiphase_hc_ios.wav	3	6	1	noise_calib_stim_LEFT.wav	1	33	blb_dichoticlistening_ta-ga.mp3	ta	ga	1	right
6.6.1	mac	2023-06-27	00:25:51	0	0	6481ec9f0a58d32023a4fd94	1	1	DL_test	15	DL_test	35			0		ga	1	886	6	2	antiphase_hc_ios.wav	3	6	1	noise_calib_stim_LEFT.wav	1	9	blb_dichoticlistening_da-ga.mp3	da	ga	1	right
6.6.1	mac	2023-06-27	00:25:51	0	0	6481ec9f0a58d32023a4fd94	1	1	DL_test	15	DL_test	36			0		ka	0	1011	6	2	antiphase_hc_ios.wav	3	6	1	noise_calib_stim_LEFT.wav	1	18	blb_dichoticlistening_ga-ta.mp3	ga	ta	1	other
6.6.1	mac	2023-06-27	00:25:51	0	0	6481ec9f0a58d32023a4fd94	1	1	DL_test	16	DL_test	1			0		pa	1	1220	6	2	antiphase_hc_ios.wav	3	6	1	noise_calib_stim_LEFT.wav	1	27	blb_dichoticlistening_pa-ga.mp3	pa	ga	1	left
6.6.1	mac	2023-06-27	00:25:51	0	0	6481ec9f0a58d32023a4fd94	1	1	DL_test	16	DL_test	2			0		pa	1	1382	6	2	antiphase_hc_ios.wav	3	6	1	noise_calib_stim_LEFT.wav	1	5	blb_dichoticlistening_ba-pa.mp3	ba	pa	1	right
6.6.1	mac	2023-06-27	00:25:51	0	0	6481ec9f0a58d32023a4fd94	1	1	DL_test	16	DL_test	3			0		ba	1	1724	6	2	antiphase_hc_ios.wav	3	6	1	noise_calib_stim_LEFT.wav	1	1	blb_dichoticlistening_ba-ba.mp3	ba	ba	0	left
6.6.1	mac	2023-06-27	00:25:51	0	0	6481ec9f0a58d32023a4fd94	1	1	DL_test	16	DL_test	4			0		ga	1	928	6	2	antiphase_hc_ios.wav	3	6	1	noise_calib_stim_LEFT.wav	1	9	blb_dichoticlistening_da-ga.mp3	da	ga	1	right
6.6.1	mac	2023-06-27	00:25:51	0	0	6481ec9f0a58d32023a4fd94	1	1	DL_test	16	DL_test	5			0		ga	1	1432	6	2	antiphase_hc_ios.wav	3	6	1	noise_calib_stim_LEFT.wav	1	21	blb_dichoticlistening_ka-ga.mp3	ka	ga	1	right
6.6.1	mac	2023-06-27	00:25:51	0	0	6481ec9f0a58d32023a4fd94	1	1	DL_test	16	DL_test	6			0		ga	1	1204	6	2	antiphase_hc_ios.wav	3	6	1	noise_calib_stim_LEFT.wav	1	14	blb_dichoticlistening_ga-da.mp3	ga	da	1	left
6.6.1	mac	2023-06-27	00:25:51	0	0	6481ec9f0a58d32023a4fd94	1	1	DL_test	16	DL_test	7			0		ga	0	819	6	2	antiphase_hc_ios.wav	3	6	1	noise_calib_stim_LEFT.wav	1	8	blb_dichoticlistening_da-da.mp3	da	da	0	other
6.6.1	mac	2023-06-27	00:25:51	0	0	6481ec9f0a58d32023a4fd94	1	1	DL_test	16	DL_test	8			0		ka	0	1002	6	2	antiphase_hc_ios.wav	3	6	1	noise_calib_stim_LEFT.wav	1	18	blb_dichoticlistening_ga-ta.mp3	ga	ta	1	other
6.6.1	mac	2023-06-27	00:25:51	0	0	6481ec9f0a58d32023a4fd94	1	1	DL_test	16	DL_test	9			0		ga	1	1069	6	2	antiphase_hc_ios.wav	3	6	1	noise_calib_stim_LEFT.wav	1	3	blb_dichoticlistening_ba-ga.mp3	ba	ga	1	right
6.6.1	mac	2023-06-27	00:25:51	0	0	6481ec9f0a58d32023a4fd94	1	1	DL_test	16	DL_test	10			0		pa	0	1045	6	2	antiphase_hc_ios.wav	3	6	1	noise_calib_stim_LEFT.wav	1	10	blb_dichoticlistening_da-ka.mp3	da	ka	1	other
6.6.1	mac	2023-06-27	00:25:51	0	0	6481ec9f0a58d32023a4fd94	1	1	DL_test	16	DL_test	11			0		pa	1	1303	6	2	antiphase_hc_ios.wav	3	6	1	noise_calib_stim_LEFT.wav	1	23	blb_dichoticlistening_ka-pa.mp3	ka	pa	1	right
6.6.1	mac	2023-06-27	00:25:51	0	0	6481ec9f0a58d32023a4fd94	1	1	DL_test	16	DL_test	12			0		ka	1	1502	6	2	antiphase_hc_ios.wav	3	6	1	noise_calib_stim_LEFT.wav	1	20	blb_dichoticlistening_ka-da.mp3	ka	da	1	left
6.6.1	mac	2023-06-27	00:25:51	0	0	6481ec9f0a58d32023a4fd94	1	1	DL_test	16	DL_test	13			0		pa	1	894	6	2	antiphase_hc_ios.wav	3	6	1	noise_calib_stim_LEFT.wav	1	25	blb_dichoticlistening_pa-ba.mp3	pa	ba	1	left
6.6.1	mac	2023-06-27	00:25:51	0	0	6481ec9f0a58d32023a4fd94	1	1	DL_test	16	DL_test	14			0		ka	0	1069	6	2	antiphase_hc_ios.wav	3	6	1	noise_calib_stim_LEFT.wav	1	32	blb_dichoticlistening_ta-da.mp3	ta	da	1	other
6.6.1	mac	2023-06-27	00:25:51	0	0	6481ec9f0a58d32023a4fd94	1	1	DL_test	16	DL_test	15			0		ga	1	769	6	2	antiphase_hc_ios.wav	3	6	1	noise_calib_stim_LEFT.wav	1	15	blb_dichoticlistening_ga-ga.mp3	ga	ga	0	left
6.6.1	mac	2023-06-27	00:25:51	0	0	6481ec9f0a58d32023a4fd94	1	1	DL_test	16	DL_test	16			0		ta	1	1286	6	2	antiphase_hc_ios.wav	3	6	1	noise_calib_stim_LEFT.wav	1	6	blb_dichoticlistening_ba-ta.mp3	ba	ta	1	right
6.6.1	mac	2023-06-27	00:25:51	0	0	6481ec9f0a58d32023a4fd94	1	1	DL_test	16	DL_test	17			0		ga	1	1170	6	2	antiphase_hc_ios.wav	3	6	1	noise_calib_stim_LEFT.wav	1	33	blb_dichoticlistening_ta-ga.mp3	ta	ga	1	right
6.6.1	mac	2023-06-27	00:25:51	0	0	6481ec9f0a58d32023a4fd94	1	1	DL_test	16	DL_test	18			0		ta	1	1474	6	2	antiphase_hc_ios.wav	3	6	1	noise_calib_stim_LEFT.wav	1	24	blb_dichoticlistening_ka-ta.mp3	ka	ta	1	right
6.6.1	mac	2023-06-27	00:25:51	0	0	6481ec9f0a58d32023a4fd94	1	1	DL_test	16	DL_test	19			0		pa	1	1262	6	2	antiphase_hc_ios.wav	3	6	1	noise_calib_stim_LEFT.wav	1	28	blb_dichoticlistening_pa-ka.mp3	pa	ka	1	left
6.6.1	mac	2023-06-27	00:25:51	0	0	6481ec9f0a58d32023a4fd94	1	1	DL_test	16	DL_test	20			0		pa	1	953	6	2	antiphase_hc_ios.wav	3	6	1	noise_calib_stim_LEFT.wav	1	11	blb_dichoticlistening_da-pa.mp3	da	pa	1	right
6.6.1	mac	2023-06-27	00:25:51	0	0	6481ec9f0a58d32023a4fd94	1	1	DL_test	16	DL_test	21			0		pa	1	877	6	2	antiphase_hc_ios.wav	3	6	1	noise_calib_stim_LEFT.wav	1	26	blb_dichoticlistening_pa-da.mp3	pa	da	1	left
6.6.1	mac	2023-06-27	00:25:51	0	0	6481ec9f0a58d32023a4fd94	1	1	DL_test	16	DL_test	22			0		ka	1	894	6	2	antiphase_hc_ios.wav	3	6	1	noise_calib_stim_LEFT.wav	1	4	blb_dichoticlistening_ba-ka.mp3	ba	ka	1	right
6.6.1	mac	2023-06-27	00:25:51	0	0	6481ec9f0a58d32023a4fd94	1	1	DL_test	16	DL_test	23			0		pa	1	1228	6	2	antiphase_hc_ios.wav	3	6	1	noise_calib_stim_LEFT.wav	1	35	blb_dichoticlistening_ta-pa.mp3	ta	pa	1	right
6.6.1	mac	2023-06-27	00:25:51	0	0	6481ec9f0a58d32023a4fd94	1	1	DL_test	16	DL_test	24			0		pa	1	990	6	2	antiphase_hc_ios.wav	3	6	1	noise_calib_stim_LEFT.wav	1	17	blb_dichoticlistening_ga-pa.mp3	ga	pa	1	right
6.6.1	mac	2023-06-27	00:25:51	0	0	6481ec9f0a58d32023a4fd94	1	1	DL_test	16	DL_test	25			0		pa	0	915	6	2	antiphase_hc_ios.wav	3	6	1	noise_calib_stim_LEFT.wav	1	31	blb_dichoticlistening_ta-ba.mp3	ta	ba	1	other
6.6.1	mac	2023-06-27	00:25:51	0	0	6481ec9f0a58d32023a4fd94	1	1	DL_test	16	DL_test	26			0		ga	1	1478	6	2	antiphase_hc_ios.wav	3	6	1	noise_calib_stim_LEFT.wav	1	16	blb_dichoticlistening_ga-ka.mp3	ga	ka	1	left
6.6.1	mac	2023-06-27	00:25:51	0	0	6481ec9f0a58d32023a4fd94	1	1	DL_test	16	DL_test	27			0		ga	1	952	6	2	antiphase_hc_ios.wav	3	6	1	noise_calib_stim_LEFT.wav	1	13	blb_dichoticlistening_ga-ba.mp3	ga	ba	1	left
6.6.1	mac	2023-06-27	00:25:51	0	0	6481ec9f0a58d32023a4fd94	1	1	DL_test	16	DL_test	28			0		ka	1	1320	6	2	antiphase_hc_ios.wav	3	6	1	noise_calib_stim_LEFT.wav	1	19	blb_dichoticlistening_ka-ba.mp3	ka	ba	1	left
6.6.1	mac	2023-06-27	00:25:51	0	0	6481ec9f0a58d32023a4fd94	1	1	DL_test	16	DL_test	29			0		da	1	1320	6	2	antiphase_hc_ios.wav	3	6	1	noise_calib_stim_LEFT.wav	1	7	blb_dichoticlistening_da-ba.mp3	da	ba	1	left
6.6.1	mac	2023-06-27	00:25:51	0	0	6481ec9f0a58d32023a4fd94	1	1	DL_test	16	DL_test	30			0		ka	1	1852	6	2	antiphase_hc_ios.wav	3	6	1	noise_calib_stim_LEFT.wav	1	22	blb_dichoticlistening_ka-ka.mp3	ka	ka	0	left
6.6.1	mac	2023-06-27	00:25:51	0	0	6481ec9f0a58d32023a4fd94	1	1	DL_test	16	DL_test	31			0		ka	0	902	6	2	antiphase_hc_ios.wav	3	6	1	noise_calib_stim_LEFT.wav	1	12	blb_dichoticlistening_da-ta.mp3	da	ta	1	other
6.6.1	mac	2023-06-27	00:25:51	0	0	6481ec9f0a58d32023a4fd94	1	1	DL_test	16	DL_test	32			0		ta	1	1478	6	2	antiphase_hc_ios.wav	3	6	1	noise_calib_stim_LEFT.wav	1	30	blb_dichoticlistening_pa-ta.mp3	pa	ta	1	right
6.6.1	mac	2023-06-27	00:25:51	0	0	6481ec9f0a58d32023a4fd94	1	1	DL_test	16	DL_test	33			0		ta	1	835	6	2	antiphase_hc_ios.wav	3	6	1	noise_calib_stim_LEFT.wav	1	36	blb_dichoticlistening_ta-ta.mp3	ta	ta	0	left
6.6.1	mac	2023-06-27	00:25:51	0	0	6481ec9f0a58d32023a4fd94	1	1	DL_test	16	DL_test	34			0		ta	1	970	6	2	antiphase_hc_ios.wav	3	6	1	noise_calib_stim_LEFT.wav	1	34	blb_dichoticlistening_ta-ka.mp3	ta	ka	1	left
6.6.1	mac	2023-06-27	00:25:51	0	0	6481ec9f0a58d32023a4fd94	1	1	DL_test	16	DL_test	35			0		da	1	2086	6	2	antiphase_hc_ios.wav	3	6	1	noise_calib_stim_LEFT.wav	1	2	blb_dichoticlistening_ba-da.mp3	ba	da	1	right
6.6.1	mac	2023-06-27	00:25:51	0	0	6481ec9f0a58d32023a4fd94	1	1	DL_test	16	DL_test	36			0		pa	1	1303	6	2	antiphase_hc_ios.wav	3	6	1	noise_calib_stim_LEFT.wav	1	29	blb_dichoticlistening_pa-pa.mp3	pa	pa	0	left
6.6.1	mac	2023-06-27	00:25:51	00:35:34	574289	6481ec9f0a58d32023a4fd94	1	1	practice_slash	22	practice_slash	1	stimuli_target_rectanglediamonds.svg	stimuli_distractor_trianglediamonds.svg	4	yes	0	0	2000	6	2	antiphase_hc_ios.wav	3	6	1	noise_calib_stim_LEFT.wav	1	29	blb_dichoticlistening_pa-pa.mp3	pa	pa	0	left
6.6.1	mac	2023-06-27	00:25:51	00:35:34	574289	6481ec9f0a58d32023a4fd94	1	1	practice_slash	22	advance_on_keypress_SLASH	2	stimuli_target_rectanglediamonds.svg	stimuli_distractor_trianglediamonds.svg	4	yes	57	0	3743	6	2	antiphase_hc_ios.wav	3	6	1	noise_calib_stim_LEFT.wav	1	29	blb_dichoticlistening_pa-pa.mp3	pa	pa	0	left
6.6.1	mac	2023-06-27	00:25:51	00:35:42	581684	6481ec9f0a58d32023a4fd94	1	1	practice_slash	22	practice_slash	3	stimuli_distractor_trianglediamonds.svg	stimuli_distractor_diamondtriangles.svg	16	no	0	1	2000	6	2	antiphase_hc_ios.wav	3	6	1	noise_calib_stim_LEFT.wav	1	29	blb_dichoticlistening_pa-pa.mp3	pa	pa	0	left
6.6.1	mac	2023-06-27	00:25:51	00:35:42	581684	6481ec9f0a58d32023a4fd94	1	1	practice_slash	22	advance_on_keypress_SLASH	4	stimuli_distractor_trianglediamonds.svg	stimuli_distractor_diamondtriangles.svg	16	no	57	0	833	6	2	antiphase_hc_ios.wav	3	6	1	noise_calib_stim_LEFT.wav	1	29	blb_dichoticlistening_pa-pa.mp3	pa	pa	0	left
6.6.1	mac	2023-06-27	00:25:51	00:35:45	584559	6481ec9f0a58d32023a4fd94	1	1	practice_slash	22	practice_slash	5	stimuli_distractor_trianglediamonds.svg	stimuli_target_squarediamonds.svg	11	yes	53	1	412	6	2	antiphase_hc_ios.wav	3	6	1	noise_calib_stim_LEFT.wav	1	29	blb_dichoticlistening_pa-pa.mp3	pa	pa	0	left
6.6.1	mac	2023-06-27	00:25:51	00:35:45	584559	6481ec9f0a58d32023a4fd94	1	1	practice_slash	22	advance_on_keypress_SLASH	6	stimuli_distractor_trianglediamonds.svg	stimuli_target_squarediamonds.svg	11	yes	57	0	578	6	2	antiphase_hc_ios.wav	3	6	1	noise_calib_stim_LEFT.wav	1	29	blb_dichoticlistening_pa-pa.mp3	pa	pa	0	left
6.6.1	mac	2023-06-27	00:25:51	00:35:47	587031	6481ec9f0a58d32023a4fd94	1	1	practice_slash	22	practice_slash	7	stimuli_target_squarediamonds.svg	stimuli_distractor_trianglediamonds.svg	5	yes	53	1	247	6	2	antiphase_hc_ios.wav	3	6	1	noise_calib_stim_LEFT.wav	1	29	blb_dichoticlistening_pa-pa.mp3	pa	pa	0	left
6.6.1	mac	2023-06-27	00:25:51	00:35:47	587031	6481ec9f0a58d32023a4fd94	1	1	practice_slash	22	advance_on_keypress_SLASH	8	stimuli_target_squarediamonds.svg	stimuli_distractor_trianglediamonds.svg	5	yes	57	0	828	6	2	antiphase_hc_ios.wav	3	6	1	noise_calib_stim_LEFT.wav	1	29	blb_dichoticlistening_pa-pa.mp3	pa	pa	0	left
6.6.1	mac	2023-06-27	00:25:51	00:35:50	589766	6481ec9f0a58d32023a4fd94	1	1	practice_slash	22	practice_slash	9	stimuli_distractor_trianglediamonds.svg	stimuli_target_rectanglediamonds.svg	10	yes	53	1	266	6	2	antiphase_hc_ios.wav	3	6	1	noise_calib_stim_LEFT.wav	1	29	blb_dichoticlistening_pa-pa.mp3	pa	pa	0	left
6.6.1	mac	2023-06-27	00:25:51	00:35:50	589766	6481ec9f0a58d32023a4fd94	1	1	practice_slash	22	advance_on_keypress_SLASH	10	stimuli_distractor_trianglediamonds.svg	stimuli_target_rectanglediamonds.svg	10	yes	57	0	679	6	2	antiphase_hc_ios.wav	3	6	1	noise_calib_stim_LEFT.wav	1	29	blb_dichoticlistening_pa-pa.mp3	pa	pa	0	left
6.6.1	mac	2023-06-27	00:25:51	00:35:52	592418	6481ec9f0a58d32023a4fd94	1	1	practice_slash	22	practice_slash	11	stimuli_distractor_trianglediamonds.svg	stimuli_target_diamondrectangles.svg	12	yes	53	1	333	6	2	antiphase_hc_ios.wav	3	6	1	noise_calib_stim_LEFT.wav	1	29	blb_dichoticlistening_pa-pa.mp3	pa	pa	0	left
6.6.1	mac	2023-06-27	00:25:51	00:35:52	592418	6481ec9f0a58d32023a4fd94	1	1	practice_slash	22	advance_on_keypress_SLASH	12	stimuli_distractor_trianglediamonds.svg	stimuli_target_diamondrectangles.svg	12	yes	57	0	574	6	2	antiphase_hc_ios.wav	3	6	1	noise_calib_stim_LEFT.wav	1	29	blb_dichoticlistening_pa-pa.mp3	pa	pa	0	left
6.6.1	mac	2023-06-27	00:25:51	00:35:55	594824	6481ec9f0a58d32023a4fd94	1	1	practice_slash	22	practice_slash	13	stimuli_distractor_diamondtriangles.svg	stimuli_target_trianglerectangles.svg	9	yes	53	1	190	6	2	antiphase_hc_ios.wav	3	6	1	noise_calib_stim_LEFT.wav	1	29	blb_dichoticlistening_pa-pa.mp3	pa	pa	0	left
6.6.1	mac	2023-06-27	00:25:51	00:35:55	594824	6481ec9f0a58d32023a4fd94	1	1	practice_slash	22	advance_on_keypress_SLASH	14	stimuli_distractor_diamondtriangles.svg	stimuli_target_trianglerectangles.svg	9	yes	57	0	560	6	2	antiphase_hc_ios.wav	3	6	1	noise_calib_stim_LEFT.wav	1	29	blb_dichoticlistening_pa-pa.mp3	pa	pa	0	left
6.6.1	mac	2023-06-27	00:25:51	00:35:59	599035	6481ec9f0a58d32023a4fd94	1	1	practice_slash	22	practice_slash	15	stimuli_distractor_diamondtriangles.svg	stimuli_target_rectangletriangles.svg	7	yes	0	0	2000	6	2	antiphase_hc_ios.wav	3	6	1	noise_calib_stim_LEFT.wav	1	29	blb_dichoticlistening_pa-pa.mp3	pa	pa	0	left
6.6.1	mac	2023-06-27	00:25:51	00:35:59	599035	6481ec9f0a58d32023a4fd94	1	1	practice_slash	22	advance_on_keypress_SLASH	16	stimuli_distractor_diamondtriangles.svg	stimuli_target_rectangletriangles.svg	7	yes	57	0	784	6	2	antiphase_hc_ios.wav	3	6	1	noise_calib_stim_LEFT.wav	1	29	blb_dichoticlistening_pa-pa.mp3	pa	pa	0	left
6.6.1	mac	2023-06-27	00:25:51	00:36:02	601761	6481ec9f0a58d32023a4fd94	1	1	practice_slash	22	practice_slash	17	stimuli_distractor_diamondtriangles.svg	stimuli_distractor_diamondtriangles.svg	13	no	53	0	310	6	2	antiphase_hc_ios.wav	3	6	1	noise_calib_stim_LEFT.wav	1	29	blb_dichoticlistening_pa-pa.mp3	pa	pa	0	left
6.6.1	mac	2023-06-27	00:25:51	00:36:02	601761	6481ec9f0a58d32023a4fd94	1	1	practice_slash	22	advance_on_keypress_SLASH	18	stimuli_distractor_diamondtriangles.svg	stimuli_distractor_diamondtriangles.svg	13	no	57	0	424	6	2	antiphase_hc_ios.wav	3	6	1	noise_calib_stim_LEFT.wav	1	29	blb_dichoticlistening_pa-pa.mp3	pa	pa	0	left
6.6.1	mac	2023-06-27	00:25:51	00:36:06	605819	6481ec9f0a58d32023a4fd94	1	1	practice_slash	22	practice_slash	19	stimuli_target_rectanglediamonds.svg	stimuli_distractor_diamondtriangles.svg	1	yes	0	0	2000	6	2	antiphase_hc_ios.wav	3	6	1	noise_calib_stim_LEFT.wav	1	29	blb_dichoticlistening_pa-pa.mp3	pa	pa	0	left
6.6.1	mac	2023-06-27	00:25:51	00:36:06	605819	6481ec9f0a58d32023a4fd94	1	1	practice_slash	22	advance_on_keypress_SLASH	20	stimuli_target_rectanglediamonds.svg	stimuli_distractor_diamondtriangles.svg	1	yes	57	0	397	6	2	antiphase_hc_ios.wav	3	6	1	noise_calib_stim_LEFT.wav	1	29	blb_dichoticlistening_pa-pa.mp3	pa	pa	0	left
6.6.1	mac	2023-06-27	00:25:51	00:36:08	608054	6481ec9f0a58d32023a4fd94	1	1	practice_slash	22	practice_slash	21	stimuli_target_squarediamonds.svg	stimuli_distractor_diamondtriangles.svg	2	yes	53	1	207	6	2	antiphase_hc_ios.wav	3	6	1	noise_calib_stim_LEFT.wav	1	29	blb_dichoticlistening_pa-pa.mp3	pa	pa	0	left
6.6.1	mac	2023-06-27	00:25:51	00:36:08	608054	6481ec9f0a58d32023a4fd94	1	1	practice_slash	22	advance_on_keypress_SLASH	22	stimuli_target_squarediamonds.svg	stimuli_distractor_diamondtriangles.svg	2	yes	57	0	555	6	2	antiphase_hc_ios.wav	3	6	1	noise_calib_stim_LEFT.wav	1	29	blb_dichoticlistening_pa-pa.mp3	pa	pa	0	left
6.6.1	mac	2023-06-27	00:25:51	00:36:10	610418	6481ec9f0a58d32023a4fd94	1	1	practice_slash	22	practice_slash	23	stimuli_distractor_trianglediamonds.svg	stimuli_distractor_trianglediamonds.svg	15	no	53	0	187	6	2	antiphase_hc_ios.wav	3	6	1	noise_calib_stim_LEFT.wav	1	29	blb_dichoticlistening_pa-pa.mp3	pa	pa	0	left
6.6.1	mac	2023-06-27	00:25:51	00:36:10	610418	6481ec9f0a58d32023a4fd94	1	1	practice_slash	22	advance_on_keypress_SLASH	24	stimuli_distractor_trianglediamonds.svg	stimuli_distractor_trianglediamonds.svg	15	no	57	0	694	6	2	antiphase_hc_ios.wav	3	6	1	noise_calib_stim_LEFT.wav	1	29	blb_dichoticlistening_pa-pa.mp3	pa	pa	0	left
6.6.1	mac	2023-06-27	00:25:51	00:36:15	614752	6481ec9f0a58d32023a4fd94	1	1	practice_slash	22	practice_slash	25	stimuli_target_diamondsquares.svg	stimuli_distractor_diamondtriangles.svg	3	yes	0	0	2000	6	2	antiphase_hc_ios.wav	3	6	1	noise_calib_stim_LEFT.wav	1	29	blb_dichoticlistening_pa-pa.mp3	pa	pa	0	left
6.6.1	mac	2023-06-27	00:25:51	00:36:15	614752	6481ec9f0a58d32023a4fd94	1	1	practice_slash	22	advance_on_keypress_SLASH	26	stimuli_target_diamondsquares.svg	stimuli_distractor_diamondtriangles.svg	3	yes	57	0	595	6	2	antiphase_hc_ios.wav	3	6	1	noise_calib_stim_LEFT.wav	1	29	blb_dichoticlistening_pa-pa.mp3	pa	pa	0	left
6.6.1	mac	2023-06-27	00:25:51	00:36:18	617680	6481ec9f0a58d32023a4fd94	1	1	practice_slash	22	practice_slash	27	stimuli_target_diamondsquares.svg	stimuli_distractor_trianglediamonds.svg	6	yes	53	1	698	6	2	antiphase_hc_ios.wav	3	6	1	noise_calib_stim_LEFT.wav	1	29	blb_dichoticlistening_pa-pa.mp3	pa	pa	0	left
6.6.1	mac	2023-06-27	00:25:51	00:36:18	617680	6481ec9f0a58d32023a4fd94	1	1	practice_slash	22	advance_on_keypress_SLASH	28	stimuli_target_diamondsquares.svg	stimuli_distractor_trianglediamonds.svg	6	yes	57	0	554	6	2	antiphase_hc_ios.wav	3	6	1	noise_calib_stim_LEFT.wav	1	29	blb_dichoticlistening_pa-pa.mp3	pa	pa	0	left
6.6.1	mac	2023-06-27	00:25:51	00:36:21	620511	6481ec9f0a58d32023a4fd94	1	1	practice_slash	22	practice_slash	29	stimuli_distractor_diamondtriangles.svg	stimuli_target_diamondrectangles.svg	8	yes	53	1	647	6	2	antiphase_hc_ios.wav	3	6	1	noise_calib_stim_LEFT.wav	1	29	blb_dichoticlistening_pa-pa.mp3	pa	pa	0	left
6.6.1	mac	2023-06-27	00:25:51	00:36:21	620511	6481ec9f0a58d32023a4fd94	1	1	practice_slash	22	advance_on_keypress_SLASH	30	stimuli_distractor_diamondtriangles.svg	stimuli_target_diamondrectangles.svg	8	yes	57	0	647	6	2	antiphase_hc_ios.wav	3	6	1	noise_calib_stim_LEFT.wav	1	29	blb_dichoticlistening_pa-pa.mp3	pa	pa	0	left
6.6.1	mac	2023-06-27	00:25:51	00:36:24	623625	6481ec9f0a58d32023a4fd94	1	1	practice_slash	22	practice_slash	31	stimuli_distractor_diamondtriangles.svg	stimuli_distractor_trianglediamonds.svg	14	no	53	0	824	6	2	antiphase_hc_ios.wav	3	6	1	noise_calib_stim_LEFT.wav	1	29	blb_dichoticlistening_pa-pa.mp3	pa	pa	0	left
6.6.1	mac	2023-06-27	00:25:51	00:36:24	623625	6481ec9f0a58d32023a4fd94	1	1	practice_slash	22	advance_on_keypress_SLASH	32	stimuli_distractor_diamondtriangles.svg	stimuli_distractor_trianglediamonds.svg	14	no	57	0	349	6	2	antiphase_hc_ios.wav	3	6	1	noise_calib_stim_LEFT.wav	1	29	blb_dichoticlistening_pa-pa.mp3	pa	pa	0	left
6.6.1	mac	2023-06-27	00:25:51	00:36:32	632004	6481ec9f0a58d32023a4fd94	1	1	main_slash	24	main_slash	1	stimuli_distractor_diamondtriangles.svg	stimuli_target_rectangletriangles.svg	13	yes	53	1	1037	6	2	antiphase_hc_ios.wav	3	6	1	noise_calib_stim_LEFT.wav	1	29	blb_dichoticlistening_pa-pa.mp3	pa	pa	0	left
6.6.1	mac	2023-06-27	00:25:51	00:36:32	632004	6481ec9f0a58d32023a4fd94	1	1	main_slash	24	advance_on_keypress_SLASH	2	stimuli_distractor_diamondtriangles.svg	stimuli_target_rectangletriangles.svg	13	yes	57	0	1346	6	2	antiphase_hc_ios.wav	3	6	1	noise_calib_stim_LEFT.wav	1	29	blb_dichoticlistening_pa-pa.mp3	pa	pa	0	left
6.6.1	mac	2023-06-27	00:25:51	00:36:36	635982	6481ec9f0a58d32023a4fd94	1	1	main_slash	24	main_slash	3	stimuli_target_diamondsquares.svg	stimuli_distractor_diamondtriangles.svg	24	yes	0	0	2000	6	2	antiphase_hc_ios.wav	3	6	1	noise_calib_stim_LEFT.wav	1	29	blb_dichoticlistening_pa-pa.mp3	pa	pa	0	left
6.6.1	mac	2023-06-27	00:25:51	00:36:36	635982	6481ec9f0a58d32023a4fd94	1	1	main_slash	24	advance_on_keypress_SLASH	4	stimuli_target_diamondsquares.svg	stimuli_distractor_diamondtriangles.svg	24	yes	57	0	1124	6	2	antiphase_hc_ios.wav	3	6	1	noise_calib_stim_LEFT.wav	1	29	blb_dichoticlistening_pa-pa.mp3	pa	pa	0	left
6.6.1	mac	2023-06-27	00:25:51	00:36:38	638041	6481ec9f0a58d32023a4fd94	1	1	main_slash	24	main_slash	5	stimuli_distractor_trianglediamonds.svg	stimuli_target_squaretriangles.svg	11	yes	53	1	293	6	2	antiphase_hc_ios.wav	3	6	1	noise_calib_stim_LEFT.wav	1	29	blb_dichoticlistening_pa-pa.mp3	pa	pa	0	left
6.6.1	mac	2023-06-27	00:25:51	00:36:38	638041	6481ec9f0a58d32023a4fd94	1	1	main_slash	24	advance_on_keypress_SLASH	6	stimuli_distractor_trianglediamonds.svg	stimuli_target_squaretriangles.svg	11	yes	57	0	1215	6	2	antiphase_hc_ios.wav	3	6	1	noise_calib_stim_LEFT.wav	1	29	blb_dichoticlistening_pa-pa.mp3	pa	pa	0	left
6.6.1	mac	2023-06-27	00:25:51	00:36:40	640279	6481ec9f0a58d32023a4fd94	1	1	main_slash	24	main_slash	7	stimuli_distractor_diamondtriangles.svg	stimuli_target_trianglerectangles.svg	29	yes	53	1	379	6	2	antiphase_hc_ios.wav	3	6	1	noise_calib_stim_LEFT.wav	1	29	blb_dichoticlistening_pa-pa.mp3	pa	pa	0	left
6.6.1	mac	2023-06-27	00:25:51	00:36:40	640279	6481ec9f0a58d32023a4fd94	1	1	main_slash	24	advance_on_keypress_SLASH	8	stimuli_distractor_diamondtriangles.svg	stimuli_target_trianglerectangles.svg	29	yes	57	0	1731	6	2	antiphase_hc_ios.wav	3	6	1	noise_calib_stim_LEFT.wav	1	29	blb_dichoticlistening_pa-pa.mp3	pa	pa	0	left
6.6.1	mac	2023-06-27	00:25:51	00:36:43	642895	6481ec9f0a58d32023a4fd94	1	1	main_slash	24	main_slash	9	stimuli_target_diamondrectangles.svg	stimuli_distractor_diamondtriangles.svg	23	yes	53	1	232	6	2	antiphase_hc_ios.wav	3	6	1	noise_calib_stim_LEFT.wav	1	29	blb_dichoticlistening_pa-pa.mp3	pa	pa	0	left
6.6.1	mac	2023-06-27	00:25:51	00:36:43	642895	6481ec9f0a58d32023a4fd94	1	1	main_slash	24	advance_on_keypress_SLASH	10	stimuli_target_diamondrectangles.svg	stimuli_distractor_diamondtriangles.svg	23	yes	57	0	933	6	2	antiphase_hc_ios.wav	3	6	1	noise_calib_stim_LEFT.wav	1	29	blb_dichoticlistening_pa-pa.mp3	pa	pa	0	left
6.6.1	mac	2023-06-27	00:25:51	00:36:45	644693	6481ec9f0a58d32023a4fd94	1	1	main_slash	24	main_slash	11	stimuli_distractor_diamondtriangles.svg	stimuli_distractor_trianglediamonds.svg	37	no	53	0	230	6	2	antiphase_hc_ios.wav	3	6	1	noise_calib_stim_LEFT.wav	1	29	blb_dichoticlistening_pa-pa.mp3	pa	pa	0	left
6.6.1	mac	2023-06-27	00:25:51	00:36:45	644693	6481ec9f0a58d32023a4fd94	1	1	main_slash	24	advance_on_keypress_SLASH	12	stimuli_distractor_diamondtriangles.svg	stimuli_distractor_trianglediamonds.svg	37	no	57	0	1791	6	2	antiphase_hc_ios.wav	3	6	1	noise_calib_stim_LEFT.wav	1	29	blb_dichoticlistening_pa-pa.mp3	pa	pa	0	left
6.6.1	mac	2023-06-27	00:25:51	00:36:49	649134	6481ec9f0a58d32023a4fd94	1	1	main_slash	24	main_slash	13	stimuli_target_squaretriangles.svg	stimuli_distractor_diamondtriangles.svg	7	yes	0	0	2000	6	2	antiphase_hc_ios.wav	3	6	1	noise_calib_stim_LEFT.wav	1	29	blb_dichoticlistening_pa-pa.mp3	pa	pa	0	left
6.6.1	mac	2023-06-27	00:25:51	00:36:49	649134	6481ec9f0a58d32023a4fd94	1	1	main_slash	24	advance_on_keypress_SLASH	14	stimuli_target_squaretriangles.svg	stimuli_distractor_diamondtriangles.svg	7	yes	57	0	546	6	2	antiphase_hc_ios.wav	3	6	1	noise_calib_stim_LEFT.wav	1	29	blb_dichoticlistening_pa-pa.mp3	pa	pa	0	left
6.6.1	mac	2023-06-27	00:25:51	00:36:51	650700	6481ec9f0a58d32023a4fd94	1	1	main_slash	24	main_slash	15	stimuli_distractor_diamondtriangles.svg	stimuli_target_diamondsquares.svg	32	yes	53	1	387	6	2	antiphase_hc_ios.wav	3	6	1	noise_calib_stim_LEFT.wav	1	29	blb_dichoticlistening_pa-pa.mp3	pa	pa	0	left
6.6.1	mac	2023-06-27	00:25:51	00:36:51	650700	6481ec9f0a58d32023a4fd94	1	1	main_slash	24	advance_on_keypress_SLASH	16	stimuli_distractor_diamondtriangles.svg	stimuli_target_diamondsquares.svg	32	yes	57	0	927	6	2	antiphase_hc_ios.wav	3	6	1	noise_calib_stim_LEFT.wav	1	29	blb_dichoticlistening_pa-pa.mp3	pa	pa	0	left
6.6.1	mac	2023-06-27	00:25:51	00:36:53	652488	6481ec9f0a58d32023a4fd94	1	1	main_slash	24	main_slash	17	stimuli_distractor_trianglediamonds.svg	stimuli_target_trianglerectangles.svg	25	yes	53	1	224	6	2	antiphase_hc_ios.wav	3	6	1	noise_calib_stim_LEFT.wav	1	29	blb_dichoticlistening_pa-pa.mp3	pa	pa	0	left
6.6.1	mac	2023-06-27	00:25:51	00:36:53	652488	6481ec9f0a58d32023a4fd94	1	1	main_slash	24	advance_on_keypress_SLASH	18	stimuli_distractor_trianglediamonds.svg	stimuli_target_trianglerectangles.svg	25	yes	57	0	734	6	2	antiphase_hc_ios.wav	3	6	1	noise_calib_stim_LEFT.wav	1	29	blb_dichoticlistening_pa-pa.mp3	pa	pa	0	left
6.6.1	mac	2023-06-27	00:25:51	00:36:55	654620	6481ec9f0a58d32023a4fd94	1	1	main_slash	24	main_slash	19	stimuli_target_trianglerectangles.svg	stimuli_distractor_trianglediamonds.svg	17	yes	53	1	772	6	2	antiphase_hc_ios.wav	3	6	1	noise_calib_stim_LEFT.wav	1	29	blb_dichoticlistening_pa-pa.mp3	pa	pa	0	left
6.6.1	mac	2023-06-27	00:25:51	00:36:55	654620	6481ec9f0a58d32023a4fd94	1	1	main_slash	24	advance_on_keypress_SLASH	20	stimuli_target_trianglerectangles.svg	stimuli_distractor_trianglediamonds.svg	17	yes	57	0	1120	6	2	antiphase_hc_ios.wav	3	6	1	noise_calib_stim_LEFT.wav	1	29	blb_dichoticlistening_pa-pa.mp3	pa	pa	0	left
6.6.1	mac	2023-06-27	00:25:51	00:36:56	656429	6481ec9f0a58d32023a4fd94	1	1	main_slash	24	main_slash	21	stimuli_distractor_trianglediamonds.svg	stimuli_target_diamondsquares.svg	28	yes	53	1	66	6	2	antiphase_hc_ios.wav	3	6	1	noise_calib_stim_LEFT.wav	1	29	blb_dichoticlistening_pa-pa.mp3	pa	pa	0	left
6.6.1	mac	2023-06-27	00:25:51	00:36:56	656429	6481ec9f0a58d32023a4fd94	1	1	main_slash	24	advance_on_keypress_SLASH	22	stimuli_distractor_trianglediamonds.svg	stimuli_target_diamondsquares.svg	28	yes	57	0	1288	6	2	antiphase_hc_ios.wav	3	6	1	noise_calib_stim_LEFT.wav	1	29	blb_dichoticlistening_pa-pa.mp3	pa	pa	0	left
6.6.1	mac	2023-06-27	00:25:51	00:36:59	658534	6481ec9f0a58d32023a4fd94	1	1	main_slash	24	main_slash	23	stimuli_target_diamondrectangles.svg	stimuli_distractor_trianglediamonds.svg	19	yes	53	1	188	6	2	antiphase_hc_ios.wav	3	6	1	noise_calib_stim_LEFT.wav	1	29	blb_dichoticlistening_pa-pa.mp3	pa	pa	0	left
6.6.1	mac	2023-06-27	00:25:51	00:36:59	658534	6481ec9f0a58d32023a4fd94	1	1	main_slash	24	advance_on_keypress_SLASH	24	stimuli_target_diamondrectangles.svg	stimuli_distractor_trianglediamonds.svg	19	yes	57	0	1162	6	2	antiphase_hc_ios.wav	3	6	1	noise_calib_stim_LEFT.wav	1	29	blb_dichoticlistening_pa-pa.mp3	pa	pa	0	left
6.6.1	mac	2023-06-27	00:25:51	00:37:01	660592	6481ec9f0a58d32023a4fd94	1	1	main_slash	24	main_slash	25	stimuli_distractor_trianglediamonds.svg	stimuli_target_rectangletriangles.svg	9	yes	53	1	263	6	2	antiphase_hc_ios.wav	3	6	1	noise_calib_stim_LEFT.wav	1	29	blb_dichoticlistening_pa-pa.mp3	pa	pa	0	left
6.6.1	mac	2023-06-27	00:25:51	00:37:01	660592	6481ec9f0a58d32023a4fd94	1	1	main_slash	24	advance_on_keypress_SLASH	26	stimuli_distractor_trianglediamonds.svg	stimuli_target_rectangletriangles.svg	9	yes	57	0	1049	6	2	antiphase_hc_ios.wav	3	6	1	noise_calib_stim_LEFT.wav	1	29	blb_dichoticlistening_pa-pa.mp3	pa	pa	0	left
6.6.1	mac	2023-06-27	00:25:51	00:37:04	664284	6481ec9f0a58d32023a4fd94	1	1	main_slash	24	main_slash	27	stimuli_target_diamondsquares.svg	stimuli_distractor_trianglediamonds.svg	20	yes	0	0	2000	6	2	antiphase_hc_ios.wav	3	6	1	noise_calib_stim_LEFT.wav	1	29	blb_dichoticlistening_pa-pa.mp3	pa	pa	0	left
6.6.1	mac	2023-06-27	00:25:51	00:37:04	664284	6481ec9f0a58d32023a4fd94	1	1	main_slash	24	advance_on_keypress_SLASH	28	stimuli_target_diamondsquares.svg	stimuli_distractor_trianglediamonds.svg	20	yes	57	0	796	6	2	antiphase_hc_ios.wav	3	6	1	noise_calib_stim_LEFT.wav	1	29	blb_dichoticlistening_pa-pa.mp3	pa	pa	0	left
6.6.1	mac	2023-06-27	00:25:51	00:37:06	665894	6481ec9f0a58d32023a4fd94	1	1	main_slash	24	main_slash	29	stimuli_distractor_diamondtriangles.svg	stimuli_target_diamondrectangles.svg	31	yes	53	1	181	6	2	antiphase_hc_ios.wav	3	6	1	noise_calib_stim_LEFT.wav	1	29	blb_dichoticlistening_pa-pa.mp3	pa	pa	0	left
6.6.1	mac	2023-06-27	00:25:51	00:37:06	665894	6481ec9f0a58d32023a4fd94	1	1	main_slash	24	advance_on_keypress_SLASH	30	stimuli_distractor_diamondtriangles.svg	stimuli_target_diamondrectangles.svg	31	yes	57	0	1020	6	2	antiphase_hc_ios.wav	3	6	1	noise_calib_stim_LEFT.wav	1	29	blb_dichoticlistening_pa-pa.mp3	pa	pa	0	left
6.6.1	mac	2023-06-27	00:25:51	00:37:08	668189	6481ec9f0a58d32023a4fd94	1	1	main_slash	24	main_slash	31	stimuli_distractor_diamondtriangles.svg	stimuli_target_squaretriangles.svg	15	yes	53	1	641	6	2	antiphase_hc_ios.wav	3	6	1	noise_calib_stim_LEFT.wav	1	29	blb_dichoticlistening_pa-pa.mp3	pa	pa	0	left
6.6.1	mac	2023-06-27	00:25:51	00:37:08	668189	6481ec9f0a58d32023a4fd94	1	1	main_slash	24	advance_on_keypress_SLASH	32	stimuli_distractor_diamondtriangles.svg	stimuli_target_squaretriangles.svg	15	yes	57	0	829	6	2	antiphase_hc_ios.wav	3	6	1	noise_calib_stim_LEFT.wav	1	29	blb_dichoticlistening_pa-pa.mp3	pa	pa	0	left
6.6.1	mac	2023-06-27	00:25:51	00:37:10	670059	6481ec9f0a58d32023a4fd94	1	1	main_slash	24	main_slash	33	stimuli_distractor_trianglediamonds.svg	stimuli_target_squarediamonds.svg	12	yes	53	1	412	6	2	antiphase_hc_ios.wav	3	6	1	noise_calib_stim_LEFT.wav	1	29	blb_dichoticlistening_pa-pa.mp3	pa	pa	0	left
6.6.1	mac	2023-06-27	00:25:51	00:37:10	670059	6481ec9f0a58d32023a4fd94	1	1	main_slash	24	advance_on_keypress_SLASH	34	stimuli_distractor_trianglediamonds.svg	stimuli_target_squarediamonds.svg	12	yes	57	0	975	6	2	antiphase_hc_ios.wav	3	6	1	noise_calib_stim_LEFT.wav	1	29	blb_dichoticlistening_pa-pa.mp3	pa	pa	0	left
6.6.1	mac	2023-06-27	00:25:51	00:37:12	671983	6481ec9f0a58d32023a4fd94	1	1	main_slash	24	main_slash	35	stimuli_target_squaretriangles.svg	stimuli_distractor_trianglediamonds.svg	3	yes	53	1	303	6	2	antiphase_hc_ios.wav	3	6	1	noise_calib_stim_LEFT.wav	1	29	blb_dichoticlistening_pa-pa.mp3	pa	pa	0	left
6.6.1	mac	2023-06-27	00:25:51	00:37:12	671983	6481ec9f0a58d32023a4fd94	1	1	main_slash	24	advance_on_keypress_SLASH	36	stimuli_target_squaretriangles.svg	stimuli_distractor_trianglediamonds.svg	3	yes	57	0	751	6	2	antiphase_hc_ios.wav	3	6	1	noise_calib_stim_LEFT.wav	1	29	blb_dichoticlistening_pa-pa.mp3	pa	pa	0	left
6.6.1	mac	2023-06-27	00:25:51	00:37:14	673550	6481ec9f0a58d32023a4fd94	1	1	main_slash	24	main_slash	37	stimuli_target_trianglerectangles.svg	stimuli_distractor_diamondtriangles.svg	21	yes	53	1	187	6	2	antiphase_hc_ios.wav	3	6	1	noise_calib_stim_LEFT.wav	1	29	blb_dichoticlistening_pa-pa.mp3	pa	pa	0	left
6.6.1	mac	2023-06-27	00:25:51	00:37:14	673550	6481ec9f0a58d32023a4fd94	1	1	main_slash	24	advance_on_keypress_SLASH	38	stimuli_target_trianglerectangles.svg	stimuli_distractor_diamondtriangles.svg	21	yes	57	0	1897	6	2	antiphase_hc_ios.wav	3	6	1	noise_calib_stim_LEFT.wav	1	29	blb_dichoticlistening_pa-pa.mp3	pa	pa	0	left
6.6.1	mac	2023-06-27	00:25:51	00:37:18	678081	6481ec9f0a58d32023a4fd94	1	1	main_slash	24	main_slash	39	stimuli_distractor_diamondtriangles.svg	stimuli_distractor_diamondtriangles.svg	39	no	0	1	2000	6	2	antiphase_hc_ios.wav	3	6	1	noise_calib_stim_LEFT.wav	1	29	blb_dichoticlistening_pa-pa.mp3	pa	pa	0	left
6.6.1	mac	2023-06-27	00:25:51	00:37:18	678081	6481ec9f0a58d32023a4fd94	1	1	main_slash	24	advance_on_keypress_SLASH	40	stimuli_distractor_diamondtriangles.svg	stimuli_distractor_diamondtriangles.svg	39	no	57	0	700	6	2	antiphase_hc_ios.wav	3	6	1	noise_calib_stim_LEFT.wav	1	29	blb_dichoticlistening_pa-pa.mp3	pa	pa	0	left
6.6.1	mac	2023-06-27	00:25:51	00:37:20	679639	6481ec9f0a58d32023a4fd94	1	1	main_slash	24	main_slash	41	stimuli_distractor_diamondtriangles.svg	stimuli_target_trianglesquares.svg	30	yes	53	1	226	6	2	antiphase_hc_ios.wav	3	6	1	noise_calib_stim_LEFT.wav	1	29	blb_dichoticlistening_pa-pa.mp3	pa	pa	0	left
6.6.1	mac	2023-06-27	00:25:51	00:37:20	679639	6481ec9f0a58d32023a4fd94	1	1	main_slash	24	advance_on_keypress_SLASH	42	stimuli_distractor_diamondtriangles.svg	stimuli_target_trianglesquares.svg	30	yes	57	0	984	6	2	antiphase_hc_ios.wav	3	6	1	noise_calib_stim_LEFT.wav	1	29	blb_dichoticlistening_pa-pa.mp3	pa	pa	0	left
6.6.1	mac	2023-06-27	00:25:51	00:37:23	683266	6481ec9f0a58d32023a4fd94	1	1	main_slash	24	main_slash	43	stimuli_distractor_diamondtriangles.svg	stimuli_distractor_diamondtriangles.svg	40	no	0	1	2000	6	2	antiphase_hc_ios.wav	3	6	1	noise_calib_stim_LEFT.wav	1	29	blb_dichoticlistening_pa-pa.mp3	pa	pa	0	left
6.6.1	mac	2023-06-27	00:25:51	00:37:23	683266	6481ec9f0a58d32023a4fd94	1	1	main_slash	24	advance_on_keypress_SLASH	44	stimuli_distractor_diamondtriangles.svg	stimuli_distractor_diamondtriangles.svg	40	no	57	0	810	6	2	antiphase_hc_ios.wav	3	6	1	noise_calib_stim_LEFT.wav	1	29	blb_dichoticlistening_pa-pa.mp3	pa	pa	0	left
6.6.1	mac	2023-06-27	00:25:51	00:37:25	685030	6481ec9f0a58d32023a4fd94	1	1	main_slash	24	main_slash	45	stimuli_distractor_diamondtriangles.svg	stimuli_distractor_trianglediamonds.svg	38	no	53	0	317	6	2	antiphase_hc_ios.wav	3	6	1	noise_calib_stim_LEFT.wav	1	29	blb_dichoticlistening_pa-pa.mp3	pa	pa	0	left
6.6.1	mac	2023-06-27	00:25:51	00:37:25	685030	6481ec9f0a58d32023a4fd94	1	1	main_slash	24	advance_on_keypress_SLASH	46	stimuli_distractor_diamondtriangles.svg	stimuli_distractor_trianglediamonds.svg	38	no	57	0	946	6	2	antiphase_hc_ios.wav	3	6	1	noise_calib_stim_LEFT.wav	1	29	blb_dichoticlistening_pa-pa.mp3	pa	pa	0	left
6.6.1	mac	2023-06-27	00:25:51	00:37:28	687670	6481ec9f0a58d32023a4fd94	1	1	main_slash	24	main_slash	47	stimuli_target_squarediamonds.svg	stimuli_distractor_trianglediamonds.svg	4	yes	53	1	1055	6	2	antiphase_hc_ios.wav	3	6	1	noise_calib_stim_LEFT.wav	1	29	blb_dichoticlistening_pa-pa.mp3	pa	pa	0	left
6.6.1	mac	2023-06-27	00:25:51	00:37:28	687670	6481ec9f0a58d32023a4fd94	1	1	main_slash	24	advance_on_keypress_SLASH	48	stimuli_target_squarediamonds.svg	stimuli_distractor_trianglediamonds.svg	4	yes	57	0	1239	6	2	antiphase_hc_ios.wav	3	6	1	noise_calib_stim_LEFT.wav	1	29	blb_dichoticlistening_pa-pa.mp3	pa	pa	0	left
6.6.1	mac	2023-06-27	00:25:51	00:37:32	691535	6481ec9f0a58d32023a4fd94	1	1	main_slash	24	main_slash	49	stimuli_distractor_trianglediamonds.svg	stimuli_target_trianglesquares.svg	26	yes	0	0	2000	6	2	antiphase_hc_ios.wav	3	6	1	noise_calib_stim_LEFT.wav	1	29	blb_dichoticlistening_pa-pa.mp3	pa	pa	0	left
6.6.1	mac	2023-06-27	00:25:51	00:37:32	691535	6481ec9f0a58d32023a4fd94	1	1	main_slash	24	advance_on_keypress_SLASH	50	stimuli_distractor_trianglediamonds.svg	stimuli_target_trianglesquares.svg	26	yes	57	0	418	6	2	antiphase_hc_ios.wav	3	6	1	noise_calib_stim_LEFT.wav	1	29	blb_dichoticlistening_pa-pa.mp3	pa	pa	0	left
6.6.1	mac	2023-06-27	00:25:51	00:37:33	692928	6481ec9f0a58d32023a4fd94	1	1	main_slash	24	main_slash	51	stimuli_distractor_trianglediamonds.svg	stimuli_target_rectanglediamonds.svg	10	yes	53	1	347	6	2	antiphase_hc_ios.wav	3	6	1	noise_calib_stim_LEFT.wav	1	29	blb_dichoticlistening_pa-pa.mp3	pa	pa	0	left
6.6.1	mac	2023-06-27	00:25:51	00:37:33	692928	6481ec9f0a58d32023a4fd94	1	1	main_slash	24	advance_on_keypress_SLASH	52	stimuli_distractor_trianglediamonds.svg	stimuli_target_rectanglediamonds.svg	10	yes	57	0	902	6	2	antiphase_hc_ios.wav	3	6	1	noise_calib_stim_LEFT.wav	1	29	blb_dichoticlistening_pa-pa.mp3	pa	pa	0	left
6.6.1	mac	2023-06-27	00:25:51	00:37:35	694840	6481ec9f0a58d32023a4fd94	1	1	main_slash	24	main_slash	53	stimuli_target_rectanglediamonds.svg	stimuli_distractor_diamondtriangles.svg	6	yes	53	1	376	6	2	antiphase_hc_ios.wav	3	6	1	noise_calib_stim_LEFT.wav	1	29	blb_dichoticlistening_pa-pa.mp3	pa	pa	0	left
6.6.1	mac	2023-06-27	00:25:51	00:37:35	694840	6481ec9f0a58d32023a4fd94	1	1	main_slash	24	advance_on_keypress_SLASH	54	stimuli_target_rectanglediamonds.svg	stimuli_distractor_diamondtriangles.svg	6	yes	57	0	665	6	2	antiphase_hc_ios.wav	3	6	1	noise_calib_stim_LEFT.wav	1	29	blb_dichoticlistening_pa-pa.mp3	pa	pa	0	left
6.6.1	mac	2023-06-27	00:25:51	00:37:37	696546	6481ec9f0a58d32023a4fd94	1	1	main_slash	24	main_slash	55	stimuli_distractor_trianglediamonds.svg	stimuli_distractor_trianglediamonds.svg	33	no	53	0	417	6	2	antiphase_hc_ios.wav	3	6	1	noise_calib_stim_LEFT.wav	1	29	blb_dichoticlistening_pa-pa.mp3	pa	pa	0	left
6.6.1	mac	2023-06-27	00:25:51	00:37:37	696546	6481ec9f0a58d32023a4fd94	1	1	main_slash	24	advance_on_keypress_SLASH	56	stimuli_distractor_trianglediamonds.svg	stimuli_distractor_trianglediamonds.svg	33	no	57	0	858	6	2	antiphase_hc_ios.wav	3	6	1	noise_calib_stim_LEFT.wav	1	29	blb_dichoticlistening_pa-pa.mp3	pa	pa	0	left
6.6.1	mac	2023-06-27	00:25:51	00:37:38	698386	6481ec9f0a58d32023a4fd94	1	1	main_slash	24	main_slash	57	stimuli_target_rectanglediamonds.svg	stimuli_distractor_trianglediamonds.svg	2	yes	53	1	357	6	2	antiphase_hc_ios.wav	3	6	1	noise_calib_stim_LEFT.wav	1	29	blb_dichoticlistening_pa-pa.mp3	pa	pa	0	left
6.6.1	mac	2023-06-27	00:25:51	00:37:38	698386	6481ec9f0a58d32023a4fd94	1	1	main_slash	24	advance_on_keypress_SLASH	58	stimuli_target_rectanglediamonds.svg	stimuli_distractor_trianglediamonds.svg	2	yes	57	0	673	6	2	antiphase_hc_ios.wav	3	6	1	noise_calib_stim_LEFT.wav	1	29	blb_dichoticlistening_pa-pa.mp3	pa	pa	0	left
6.6.1	mac	2023-06-27	00:25:51	00:37:40	699987	6481ec9f0a58d32023a4fd94	1	1	main_slash	24	main_slash	59	stimuli_target_rectangletriangles.svg	stimuli_distractor_trianglediamonds.svg	1	yes	53	1	305	6	2	antiphase_hc_ios.wav	3	6	1	noise_calib_stim_LEFT.wav	1	29	blb_dichoticlistening_pa-pa.mp3	pa	pa	0	left
6.6.1	mac	2023-06-27	00:25:51	00:37:40	699987	6481ec9f0a58d32023a4fd94	1	1	main_slash	24	advance_on_keypress_SLASH	60	stimuli_target_rectangletriangles.svg	stimuli_distractor_trianglediamonds.svg	1	yes	57	0	960	6	2	antiphase_hc_ios.wav	3	6	1	noise_calib_stim_LEFT.wav	1	29	blb_dichoticlistening_pa-pa.mp3	pa	pa	0	left
6.6.1	mac	2023-06-27	00:25:51	00:37:42	701828	6481ec9f0a58d32023a4fd94	1	1	main_slash	24	main_slash	61	stimuli_target_squarediamonds.svg	stimuli_distractor_diamondtriangles.svg	8	yes	53	1	247	6	2	antiphase_hc_ios.wav	3	6	1	noise_calib_stim_LEFT.wav	1	29	blb_dichoticlistening_pa-pa.mp3	pa	pa	0	left
6.6.1	mac	2023-06-27	00:25:51	00:37:42	701828	6481ec9f0a58d32023a4fd94	1	1	main_slash	24	advance_on_keypress_SLASH	62	stimuli_target_squarediamonds.svg	stimuli_distractor_diamondtriangles.svg	8	yes	57	0	1942	6	2	antiphase_hc_ios.wav	3	6	1	noise_calib_stim_LEFT.wav	1	29	blb_dichoticlistening_pa-pa.mp3	pa	pa	0	left
6.6.1	mac	2023-06-27	00:25:51	00:37:45	704598	6481ec9f0a58d32023a4fd94	1	1	main_slash	24	main_slash	63	stimuli_distractor_diamondtriangles.svg	stimuli_target_squarediamonds.svg	16	yes	53	1	185	6	2	antiphase_hc_ios.wav	3	6	1	noise_calib_stim_LEFT.wav	1	29	blb_dichoticlistening_pa-pa.mp3	pa	pa	0	left
6.6.1	mac	2023-06-27	00:25:51	00:37:45	704598	6481ec9f0a58d32023a4fd94	1	1	main_slash	24	advance_on_keypress_SLASH	64	stimuli_distractor_diamondtriangles.svg	stimuli_target_squarediamonds.svg	16	yes	57	0	1014	6	2	antiphase_hc_ios.wav	3	6	1	noise_calib_stim_LEFT.wav	1	29	blb_dichoticlistening_pa-pa.mp3	pa	pa	0	left
6.6.1	mac	2023-06-27	00:25:51	00:37:48	708247	6481ec9f0a58d32023a4fd94	1	1	main_slash	24	main_slash	65	stimuli_distractor_trianglediamonds.svg	stimuli_target_diamondrectangles.svg	27	yes	0	0	2000	6	2	antiphase_hc_ios.wav	3	6	1	noise_calib_stim_LEFT.wav	1	29	blb_dichoticlistening_pa-pa.mp3	pa	pa	0	left
6.6.1	mac	2023-06-27	00:25:51	00:37:48	708247	6481ec9f0a58d32023a4fd94	1	1	main_slash	24	advance_on_keypress_SLASH	66	stimuli_distractor_trianglediamonds.svg	stimuli_target_diamondrectangles.svg	27	yes	57	0	1873	6	2	antiphase_hc_ios.wav	3	6	1	noise_calib_stim_LEFT.wav	1	29	blb_dichoticlistening_pa-pa.mp3	pa	pa	0	left
6.6.1	mac	2023-06-27	00:25:51	00:37:51	711043	6481ec9f0a58d32023a4fd94	1	1	main_slash	24	main_slash	67	stimuli_distractor_trianglediamonds.svg	stimuli_distractor_diamondtriangles.svg	36	no	53	0	295	6	2	antiphase_hc_ios.wav	3	6	1	noise_calib_stim_LEFT.wav	1	29	blb_dichoticlistening_pa-pa.mp3	pa	pa	0	left
6.6.1	mac	2023-06-27	00:25:51	00:37:51	711043	6481ec9f0a58d32023a4fd94	1	1	main_slash	24	advance_on_keypress_SLASH	68	stimuli_distractor_trianglediamonds.svg	stimuli_distractor_diamondtriangles.svg	36	no	57	0	695	6	2	antiphase_hc_ios.wav	3	6	1	noise_calib_stim_LEFT.wav	1	29	blb_dichoticlistening_pa-pa.mp3	pa	pa	0	left
6.6.1	mac	2023-06-27	00:25:51	00:37:53	713039	6481ec9f0a58d32023a4fd94	1	1	main_slash	24	main_slash	69	stimuli_distractor_diamondtriangles.svg	stimuli_target_rectanglediamonds.svg	14	yes	53	1	659	6	2	antiphase_hc_ios.wav	3	6	1	noise_calib_stim_LEFT.wav	1	29	blb_dichoticlistening_pa-pa.mp3	pa	pa	0	left
6.6.1	mac	2023-06-27	00:25:51	00:37:53	713039	6481ec9f0a58d32023a4fd94	1	1	main_slash	24	advance_on_keypress_SLASH	70	stimuli_distractor_diamondtriangles.svg	stimuli_target_rectanglediamonds.svg	14	yes	57	0	413	6	2	antiphase_hc_ios.wav	3	6	1	noise_calib_stim_LEFT.wav	1	29	blb_dichoticlistening_pa-pa.mp3	pa	pa	0	left
6.6.1	mac	2023-06-27	00:25:51	00:37:54	714374	6481ec9f0a58d32023a4fd94	1	1	main_slash	24	main_slash	71	stimuli_target_trianglesquares.svg	stimuli_distractor_trianglediamonds.svg	18	yes	53	1	294	6	2	antiphase_hc_ios.wav	3	6	1	noise_calib_stim_LEFT.wav	1	29	blb_dichoticlistening_pa-pa.mp3	pa	pa	0	left
6.6.1	mac	2023-06-27	00:25:51	00:37:54	714374	6481ec9f0a58d32023a4fd94	1	1	main_slash	24	advance_on_keypress_SLASH	72	stimuli_target_trianglesquares.svg	stimuli_distractor_trianglediamonds.svg	18	yes	57	0	710	6	2	antiphase_hc_ios.wav	3	6	1	noise_calib_stim_LEFT.wav	1	29	blb_dichoticlistening_pa-pa.mp3	pa	pa	0	left
6.6.1	mac	2023-06-27	00:25:51	00:37:56	715994	6481ec9f0a58d32023a4fd94	1	1	main_slash	24	main_slash	73	stimuli_distractor_trianglediamonds.svg	stimuli_distractor_diamondtriangles.svg	35	no	53	0	280	6	2	antiphase_hc_ios.wav	3	6	1	noise_calib_stim_LEFT.wav	1	29	blb_dichoticlistening_pa-pa.mp3	pa	pa	0	left
6.6.1	mac	2023-06-27	00:25:51	00:37:56	715994	6481ec9f0a58d32023a4fd94	1	1	main_slash	24	advance_on_keypress_SLASH	74	stimuli_distractor_trianglediamonds.svg	stimuli_distractor_diamondtriangles.svg	35	no	57	0	1974	6	2	antiphase_hc_ios.wav	3	6	1	noise_calib_stim_LEFT.wav	1	29	blb_dichoticlistening_pa-pa.mp3	pa	pa	0	left
6.6.1	mac	2023-06-27	00:25:51	00:37:59	719318	6481ec9f0a58d32023a4fd94	1	1	main_slash	24	main_slash	75	stimuli_target_trianglesquares.svg	stimuli_distractor_diamondtriangles.svg	22	yes	53	1	720	6	2	antiphase_hc_ios.wav	3	6	1	noise_calib_stim_LEFT.wav	1	29	blb_dichoticlistening_pa-pa.mp3	pa	pa	0	left
6.6.1	mac	2023-06-27	00:25:51	00:37:59	719318	6481ec9f0a58d32023a4fd94	1	1	main_slash	24	advance_on_keypress_SLASH	76	stimuli_target_trianglesquares.svg	stimuli_distractor_diamondtriangles.svg	22	yes	57	0	723	6	2	antiphase_hc_ios.wav	3	6	1	noise_calib_stim_LEFT.wav	1	29	blb_dichoticlistening_pa-pa.mp3	pa	pa	0	left
6.6.1	mac	2023-06-27	00:25:51	00:38:01	720925	6481ec9f0a58d32023a4fd94	1	1	main_slash	24	main_slash	77	stimuli_target_rectangletriangles.svg	stimuli_distractor_diamondtriangles.svg	5	yes	53	1	262	6	2	antiphase_hc_ios.wav	3	6	1	noise_calib_stim_LEFT.wav	1	29	blb_dichoticlistening_pa-pa.mp3	pa	pa	0	left
6.6.1	mac	2023-06-27	00:25:51	00:38:01	720925	6481ec9f0a58d32023a4fd94	1	1	main_slash	24	advance_on_keypress_SLASH	78	stimuli_target_rectangletriangles.svg	stimuli_distractor_diamondtriangles.svg	5	yes	57	0	564	6	2	antiphase_hc_ios.wav	3	6	1	noise_calib_stim_LEFT.wav	1	29	blb_dichoticlistening_pa-pa.mp3	pa	pa	0	left
6.6.1	mac	2023-06-27	00:25:51	00:38:02	722444	6481ec9f0a58d32023a4fd94	1	1	main_slash	24	main_slash	79	stimuli_distractor_trianglediamonds.svg	stimuli_distractor_trianglediamonds.svg	34	no	53	0	313	6	2	antiphase_hc_ios.wav	3	6	1	noise_calib_stim_LEFT.wav	1	29	blb_dichoticlistening_pa-pa.mp3	pa	pa	0	left
6.6.1	mac	2023-06-27	00:25:51	00:38:02	722444	6481ec9f0a58d32023a4fd94	1	1	main_slash	24	advance_on_keypress_SLASH	80	stimuli_distractor_trianglediamonds.svg	stimuli_distractor_trianglediamonds.svg	34	no	57	0	1501	6	2	antiphase_hc_ios.wav	3	6	1	noise_calib_stim_LEFT.wav	1	29	blb_dichoticlistening_pa-pa.mp3	pa	pa	0	left
6.6.1	mac	2023-06-27	00:25:51	00:38:05	725045	6481ec9f0a58d32023a4fd94	1	1	main_slash	24	main_slash	81	stimuli_target_squarediamonds.svg	stimuli_distractor_diamondtriangles.svg	8	yes	53	1	466	6	2	antiphase_hc_ios.wav	3	6	1	noise_calib_stim_LEFT.wav	1	29	blb_dichoticlistening_pa-pa.mp3	pa	pa	0	left
6.6.1	mac	2023-06-27	00:25:51	00:38:05	725045	6481ec9f0a58d32023a4fd94	1	1	main_slash	24	advance_on_keypress_SLASH	82	stimuli_target_squarediamonds.svg	stimuli_distractor_diamondtriangles.svg	8	yes	57	0	741	6	2	antiphase_hc_ios.wav	3	6	1	noise_calib_stim_LEFT.wav	1	29	blb_dichoticlistening_pa-pa.mp3	pa	pa	0	left
6.6.1	mac	2023-06-27	00:25:51	00:38:07	726755	6481ec9f0a58d32023a4fd94	1	1	main_slash	24	main_slash	83	stimuli_distractor_trianglediamonds.svg	stimuli_target_rectangletriangles.svg	9	yes	53	1	341	6	2	antiphase_hc_ios.wav	3	6	1	noise_calib_stim_LEFT.wav	1	29	blb_dichoticlistening_pa-pa.mp3	pa	pa	0	left
6.6.1	mac	2023-06-27	00:25:51	00:38:07	726755	6481ec9f0a58d32023a4fd94	1	1	main_slash	24	advance_on_keypress_SLASH	84	stimuli_distractor_trianglediamonds.svg	stimuli_target_rectangletriangles.svg	9	yes	57	0	784	6	2	antiphase_hc_ios.wav	3	6	1	noise_calib_stim_LEFT.wav	1	29	blb_dichoticlistening_pa-pa.mp3	pa	pa	0	left
6.6.1	mac	2023-06-27	00:25:51	00:38:10	730166	6481ec9f0a58d32023a4fd94	1	1	main_slash	24	main_slash	85	stimuli_distractor_trianglediamonds.svg	stimuli_distractor_trianglediamonds.svg	34	no	0	1	2000	6	2	antiphase_hc_ios.wav	3	6	1	noise_calib_stim_LEFT.wav	1	29	blb_dichoticlistening_pa-pa.mp3	pa	pa	0	left
6.6.1	mac	2023-06-27	00:25:51	00:38:10	730166	6481ec9f0a58d32023a4fd94	1	1	main_slash	24	advance_on_keypress_SLASH	86	stimuli_distractor_trianglediamonds.svg	stimuli_distractor_trianglediamonds.svg	34	no	57	0	1873	6	2	antiphase_hc_ios.wav	3	6	1	noise_calib_stim_LEFT.wav	1	29	blb_dichoticlistening_pa-pa.mp3	pa	pa	0	left
6.6.1	mac	2023-06-27	00:25:51	00:38:13	732931	6481ec9f0a58d32023a4fd94	1	1	main_slash	24	main_slash	87	stimuli_distractor_diamondtriangles.svg	stimuli_target_diamondrectangles.svg	31	yes	53	1	266	6	2	antiphase_hc_ios.wav	3	6	1	noise_calib_stim_LEFT.wav	1	29	blb_dichoticlistening_pa-pa.mp3	pa	pa	0	left
6.6.1	mac	2023-06-27	00:25:51	00:38:13	732931	6481ec9f0a58d32023a4fd94	1	1	main_slash	24	advance_on_keypress_SLASH	88	stimuli_distractor_diamondtriangles.svg	stimuli_target_diamondrectangles.svg	31	yes	57	0	806	6	2	antiphase_hc_ios.wav	3	6	1	noise_calib_stim_LEFT.wav	1	29	blb_dichoticlistening_pa-pa.mp3	pa	pa	0	left
6.6.1	mac	2023-06-27	00:25:51	00:38:15	734761	6481ec9f0a58d32023a4fd94	1	1	main_slash	24	main_slash	89	stimuli_distractor_trianglediamonds.svg	stimuli_distractor_trianglediamonds.svg	33	no	53	0	398	6	2	antiphase_hc_ios.wav	3	6	1	noise_calib_stim_LEFT.wav	1	29	blb_dichoticlistening_pa-pa.mp3	pa	pa	0	left
6.6.1	mac	2023-06-27	00:25:51	00:38:15	734761	6481ec9f0a58d32023a4fd94	1	1	main_slash	24	advance_on_keypress_SLASH	90	stimuli_distractor_trianglediamonds.svg	stimuli_distractor_trianglediamonds.svg	33	no	57	0	1208	6	2	antiphase_hc_ios.wav	3	6	1	noise_calib_stim_LEFT.wav	1	29	blb_dichoticlistening_pa-pa.mp3	pa	pa	0	left
6.6.1	mac	2023-06-27	00:25:51	00:38:18	737708	6481ec9f0a58d32023a4fd94	1	1	main_slash	24	main_slash	91	stimuli_target_trianglerectangles.svg	stimuli_distractor_trianglediamonds.svg	17	yes	53	1	1091	6	2	antiphase_hc_ios.wav	3	6	1	noise_calib_stim_LEFT.wav	1	29	blb_dichoticlistening_pa-pa.mp3	pa	pa	0	left
6.6.1	mac	2023-06-27	00:25:51	00:38:18	737708	6481ec9f0a58d32023a4fd94	1	1	main_slash	24	advance_on_keypress_SLASH	92	stimuli_target_trianglerectangles.svg	stimuli_distractor_trianglediamonds.svg	17	yes	57	0	2814	6	2	antiphase_hc_ios.wav	3	6	1	noise_calib_stim_LEFT.wav	1	29	blb_dichoticlistening_pa-pa.mp3	pa	pa	0	left
6.6.1	mac	2023-06-27	00:25:51	00:38:21	741361	6481ec9f0a58d32023a4fd94	1	1	main_slash	24	main_slash	93	stimuli_distractor_trianglediamonds.svg	stimuli_target_rectanglediamonds.svg	10	yes	53	1	197	6	2	antiphase_hc_ios.wav	3	6	1	noise_calib_stim_LEFT.wav	1	29	blb_dichoticlistening_pa-pa.mp3	pa	pa	0	left
6.6.1	mac	2023-06-27	00:25:51	00:38:21	741361	6481ec9f0a58d32023a4fd94	1	1	main_slash	24	advance_on_keypress_SLASH	94	stimuli_distractor_trianglediamonds.svg	stimuli_target_rectanglediamonds.svg	10	yes	57	0	3344	6	2	antiphase_hc_ios.wav	3	6	1	noise_calib_stim_LEFT.wav	1	29	blb_dichoticlistening_pa-pa.mp3	pa	pa	0	left
6.6.1	mac	2023-06-27	00:25:51	00:38:26	746002	6481ec9f0a58d32023a4fd94	1	1	main_slash	24	main_slash	95	stimuli_distractor_trianglediamonds.svg	stimuli_target_trianglerectangles.svg	25	yes	53	1	655	6	2	antiphase_hc_ios.wav	3	6	1	noise_calib_stim_LEFT.wav	1	29	blb_dichoticlistening_pa-pa.mp3	pa	pa	0	left
6.6.1	mac	2023-06-27	00:25:51	00:38:26	746002	6481ec9f0a58d32023a4fd94	1	1	main_slash	24	advance_on_keypress_SLASH	96	stimuli_distractor_trianglediamonds.svg	stimuli_target_trianglerectangles.svg	25	yes	57	0	1387	6	2	antiphase_hc_ios.wav	3	6	1	noise_calib_stim_LEFT.wav	1	29	blb_dichoticlistening_pa-pa.mp3	pa	pa	0	left
6.6.1	mac	2023-06-27	00:25:51	00:38:28	748413	6481ec9f0a58d32023a4fd94	1	1	main_slash	24	main_slash	97	stimuli_distractor_trianglediamonds.svg	stimuli_target_squaretriangles.svg	11	yes	53	1	400	6	2	antiphase_hc_ios.wav	3	6	1	noise_calib_stim_LEFT.wav	1	29	blb_dichoticlistening_pa-pa.mp3	pa	pa	0	left
6.6.1	mac	2023-06-27	00:25:51	00:38:28	748413	6481ec9f0a58d32023a4fd94	1	1	main_slash	24	advance_on_keypress_SLASH	98	stimuli_distractor_trianglediamonds.svg	stimuli_target_squaretriangles.svg	11	yes	57	0	1310	6	2	antiphase_hc_ios.wav	3	6	1	noise_calib_stim_LEFT.wav	1	29	blb_dichoticlistening_pa-pa.mp3	pa	pa	0	left
6.6.1	mac	2023-06-27	00:25:51	00:38:31	750700	6481ec9f0a58d32023a4fd94	1	1	main_slash	24	main_slash	99	stimuli_distractor_diamondtriangles.svg	stimuli_target_squarediamonds.svg	16	yes	53	1	335	6	2	antiphase_hc_ios.wav	3	6	1	noise_calib_stim_LEFT.wav	1	29	blb_dichoticlistening_pa-pa.mp3	pa	pa	0	left
6.6.1	mac	2023-06-27	00:25:51	00:38:31	750700	6481ec9f0a58d32023a4fd94	1	1	main_slash	24	advance_on_keypress_SLASH	100	stimuli_distractor_diamondtriangles.svg	stimuli_target_squarediamonds.svg	16	yes	57	0	1808	6	2	antiphase_hc_ios.wav	3	6	1	noise_calib_stim_LEFT.wav	1	29	blb_dichoticlistening_pa-pa.mp3	pa	pa	0	left
6.6.1	mac	2023-06-27	00:25:51	00:38:35	755147	6481ec9f0a58d32023a4fd94	1	1	main_slash	24	main_slash	101	stimuli_distractor_diamondtriangles.svg	stimuli_distractor_trianglediamonds.svg	37	no	0	1	2000	6	2	antiphase_hc_ios.wav	3	6	1	noise_calib_stim_LEFT.wav	1	29	blb_dichoticlistening_pa-pa.mp3	pa	pa	0	left
6.6.1	mac	2023-06-27	00:25:51	00:38:35	755147	6481ec9f0a58d32023a4fd94	1	1	main_slash	24	advance_on_keypress_SLASH	102	stimuli_distractor_diamondtriangles.svg	stimuli_distractor_trianglediamonds.svg	37	no	57	0	638	6	2	antiphase_hc_ios.wav	3	6	1	noise_calib_stim_LEFT.wav	1	29	blb_dichoticlistening_pa-pa.mp3	pa	pa	0	left
6.6.1	mac	2023-06-27	00:25:51	00:38:37	756763	6481ec9f0a58d32023a4fd94	1	1	main_slash	24	main_slash	103	stimuli_distractor_diamondtriangles.svg	stimuli_target_rectangletriangles.svg	13	yes	53	1	350	6	2	antiphase_hc_ios.wav	3	6	1	noise_calib_stim_LEFT.wav	1	29	blb_dichoticlistening_pa-pa.mp3	pa	pa	0	left
6.6.1	mac	2023-06-27	00:25:51	00:38:37	756763	6481ec9f0a58d32023a4fd94	1	1	main_slash	24	advance_on_keypress_SLASH	104	stimuli_distractor_diamondtriangles.svg	stimuli_target_rectangletriangles.svg	13	yes	57	0	1377	6	2	antiphase_hc_ios.wav	3	6	1	noise_calib_stim_LEFT.wav	1	29	blb_dichoticlistening_pa-pa.mp3	pa	pa	0	left
6.6.1	mac	2023-06-27	00:25:51	00:38:39	759227	6481ec9f0a58d32023a4fd94	1	1	main_slash	24	main_slash	105	stimuli_target_rectangletriangles.svg	stimuli_distractor_diamondtriangles.svg	5	yes	53	1	446	6	2	antiphase_hc_ios.wav	3	6	1	noise_calib_stim_LEFT.wav	1	29	blb_dichoticlistening_pa-pa.mp3	pa	pa	0	left
6.6.1	mac	2023-06-27	00:25:51	00:38:39	759227	6481ec9f0a58d32023a4fd94	1	1	main_slash	24	advance_on_keypress_SLASH	106	stimuli_target_rectangletriangles.svg	stimuli_distractor_diamondtriangles.svg	5	yes	57	0	1048	6	2	antiphase_hc_ios.wav	3	6	1	noise_calib_stim_LEFT.wav	1	29	blb_dichoticlistening_pa-pa.mp3	pa	pa	0	left
6.6.1	mac	2023-06-27	00:25:51	00:38:41	761284	6481ec9f0a58d32023a4fd94	1	1	main_slash	24	main_slash	107	stimuli_target_rectanglediamonds.svg	stimuli_distractor_diamondtriangles.svg	6	yes	53	1	370	6	2	antiphase_hc_ios.wav	3	6	1	noise_calib_stim_LEFT.wav	1	29	blb_dichoticlistening_pa-pa.mp3	pa	pa	0	left
6.6.1	mac	2023-06-27	00:25:51	00:38:41	761284	6481ec9f0a58d32023a4fd94	1	1	main_slash	24	advance_on_keypress_SLASH	108	stimuli_target_rectanglediamonds.svg	stimuli_distractor_diamondtriangles.svg	6	yes	57	0	1205	6	2	antiphase_hc_ios.wav	3	6	1	noise_calib_stim_LEFT.wav	1	29	blb_dichoticlistening_pa-pa.mp3	pa	pa	0	left
6.6.1	mac	2023-06-27	00:25:51	00:38:44	763555	6481ec9f0a58d32023a4fd94	1	1	main_slash	24	main_slash	109	stimuli_distractor_trianglediamonds.svg	stimuli_target_trianglesquares.svg	26	yes	53	1	425	6	2	antiphase_hc_ios.wav	3	6	1	noise_calib_stim_LEFT.wav	1	29	blb_dichoticlistening_pa-pa.mp3	pa	pa	0	left
6.6.1	mac	2023-06-27	00:25:51	00:38:44	763555	6481ec9f0a58d32023a4fd94	1	1	main_slash	24	advance_on_keypress_SLASH	110	stimuli_distractor_trianglediamonds.svg	stimuli_target_trianglesquares.svg	26	yes	57	0	893	6	2	antiphase_hc_ios.wav	3	6	1	noise_calib_stim_LEFT.wav	1	29	blb_dichoticlistening_pa-pa.mp3	pa	pa	0	left
6.6.1	mac	2023-06-27	00:25:51	00:38:45	765439	6481ec9f0a58d32023a4fd94	1	1	main_slash	24	main_slash	111	stimuli_target_trianglesquares.svg	stimuli_distractor_trianglediamonds.svg	18	yes	53	1	359	6	2	antiphase_hc_ios.wav	3	6	1	noise_calib_stim_LEFT.wav	1	29	blb_dichoticlistening_pa-pa.mp3	pa	pa	0	left
6.6.1	mac	2023-06-27	00:25:51	00:38:45	765439	6481ec9f0a58d32023a4fd94	1	1	main_slash	24	advance_on_keypress_SLASH	112	stimuli_target_trianglesquares.svg	stimuli_distractor_trianglediamonds.svg	18	yes	57	0	1087	6	2	antiphase_hc_ios.wav	3	6	1	noise_calib_stim_LEFT.wav	1	29	blb_dichoticlistening_pa-pa.mp3	pa	pa	0	left
6.6.1	mac	2023-06-27	00:25:51	00:38:48	767548	6481ec9f0a58d32023a4fd94	1	1	main_slash	24	main_slash	113	stimuli_target_diamondsquares.svg	stimuli_distractor_trianglediamonds.svg	20	yes	53	1	385	6	2	antiphase_hc_ios.wav	3	6	1	noise_calib_stim_LEFT.wav	1	29	blb_dichoticlistening_pa-pa.mp3	pa	pa	0	left
6.6.1	mac	2023-06-27	00:25:51	00:38:48	767548	6481ec9f0a58d32023a4fd94	1	1	main_slash	24	advance_on_keypress_SLASH	114	stimuli_target_diamondsquares.svg	stimuli_distractor_trianglediamonds.svg	20	yes	57	0	786	6	2	antiphase_hc_ios.wav	3	6	1	noise_calib_stim_LEFT.wav	1	29	blb_dichoticlistening_pa-pa.mp3	pa	pa	0	left
6.6.1	mac	2023-06-27	00:25:51	00:38:49	769260	6481ec9f0a58d32023a4fd94	1	1	main_slash	24	main_slash	115	stimuli_distractor_diamondtriangles.svg	stimuli_target_rectanglediamonds.svg	14	yes	53	1	297	6	2	antiphase_hc_ios.wav	3	6	1	noise_calib_stim_LEFT.wav	1	29	blb_dichoticlistening_pa-pa.mp3	pa	pa	0	left
6.6.1	mac	2023-06-27	00:25:51	00:38:49	769260	6481ec9f0a58d32023a4fd94	1	1	main_slash	24	advance_on_keypress_SLASH	116	stimuli_distractor_diamondtriangles.svg	stimuli_target_rectanglediamonds.svg	14	yes	57	0	1250	6	2	antiphase_hc_ios.wav	3	6	1	noise_calib_stim_LEFT.wav	1	29	blb_dichoticlistening_pa-pa.mp3	pa	pa	0	left
6.6.1	mac	2023-06-27	00:25:51	00:38:52	771480	6481ec9f0a58d32023a4fd94	1	1	main_slash	24	main_slash	117	stimuli_target_rectangletriangles.svg	stimuli_distractor_trianglediamonds.svg	1	yes	53	1	334	6	2	antiphase_hc_ios.wav	3	6	1	noise_calib_stim_LEFT.wav	1	29	blb_dichoticlistening_pa-pa.mp3	pa	pa	0	left
6.6.1	mac	2023-06-27	00:25:51	00:38:52	771480	6481ec9f0a58d32023a4fd94	1	1	main_slash	24	advance_on_keypress_SLASH	118	stimuli_target_rectangletriangles.svg	stimuli_distractor_trianglediamonds.svg	1	yes	57	0	1106	6	2	antiphase_hc_ios.wav	3	6	1	noise_calib_stim_LEFT.wav	1	29	blb_dichoticlistening_pa-pa.mp3	pa	pa	0	left
6.6.1	mac	2023-06-27	00:25:51	00:38:54	773563	6481ec9f0a58d32023a4fd94	1	1	main_slash	24	main_slash	119	stimuli_distractor_diamondtriangles.svg	stimuli_target_trianglerectangles.svg	29	yes	53	1	349	6	2	antiphase_hc_ios.wav	3	6	1	noise_calib_stim_LEFT.wav	1	29	blb_dichoticlistening_pa-pa.mp3	pa	pa	0	left
6.6.1	mac	2023-06-27	00:25:51	00:38:54	773563	6481ec9f0a58d32023a4fd94	1	1	main_slash	24	advance_on_keypress_SLASH	120	stimuli_distractor_diamondtriangles.svg	stimuli_target_trianglerectangles.svg	29	yes	57	0	1466	6	2	antiphase_hc_ios.wav	3	6	1	noise_calib_stim_LEFT.wav	1	29	blb_dichoticlistening_pa-pa.mp3	pa	pa	0	left
6.6.1	mac	2023-06-27	00:25:51	00:38:58	777664	6481ec9f0a58d32023a4fd94	1	1	main_slash	24	main_slash	121	stimuli_distractor_diamondtriangles.svg	stimuli_target_trianglesquares.svg	30	yes	0	0	2000	6	2	antiphase_hc_ios.wav	3	6	1	noise_calib_stim_LEFT.wav	1	29	blb_dichoticlistening_pa-pa.mp3	pa	pa	0	left
6.6.1	mac	2023-06-27	00:25:51	00:38:58	777664	6481ec9f0a58d32023a4fd94	1	1	main_slash	24	advance_on_keypress_SLASH	122	stimuli_distractor_diamondtriangles.svg	stimuli_target_trianglesquares.svg	30	yes	57	0	723	6	2	antiphase_hc_ios.wav	3	6	1	noise_calib_stim_LEFT.wav	1	29	blb_dichoticlistening_pa-pa.mp3	pa	pa	0	left
6.6.1	mac	2023-06-27	00:25:51	00:38:59	779416	6481ec9f0a58d32023a4fd94	1	1	main_slash	24	main_slash	123	stimuli_distractor_trianglediamonds.svg	stimuli_target_diamondrectangles.svg	27	yes	53	1	403	6	2	antiphase_hc_ios.wav	3	6	1	noise_calib_stim_LEFT.wav	1	29	blb_dichoticlistening_pa-pa.mp3	pa	pa	0	left
6.6.1	mac	2023-06-27	00:25:51	00:38:59	779416	6481ec9f0a58d32023a4fd94	1	1	main_slash	24	advance_on_keypress_SLASH	124	stimuli_distractor_trianglediamonds.svg	stimuli_target_diamondrectangles.svg	27	yes	57	0	1049	6	2	antiphase_hc_ios.wav	3	6	1	noise_calib_stim_LEFT.wav	1	29	blb_dichoticlistening_pa-pa.mp3	pa	pa	0	left
6.6.1	mac	2023-06-27	00:25:51	00:39:01	781401	6481ec9f0a58d32023a4fd94	1	1	main_slash	24	main_slash	125	stimuli_target_trianglerectangles.svg	stimuli_distractor_diamondtriangles.svg	21	yes	53	1	304	6	2	antiphase_hc_ios.wav	3	6	1	noise_calib_stim_LEFT.wav	1	29	blb_dichoticlistening_pa-pa.mp3	pa	pa	0	left
6.6.1	mac	2023-06-27	00:25:51	00:39:01	781401	6481ec9f0a58d32023a4fd94	1	1	main_slash	24	advance_on_keypress_SLASH	126	stimuli_target_trianglerectangles.svg	stimuli_distractor_diamondtriangles.svg	21	yes	57	0	816	6	2	antiphase_hc_ios.wav	3	6	1	noise_calib_stim_LEFT.wav	1	29	blb_dichoticlistening_pa-pa.mp3	pa	pa	0	left
6.6.1	mac	2023-06-27	00:25:51	00:39:03	783367	6481ec9f0a58d32023a4fd94	1	1	main_slash	24	main_slash	127	stimuli_target_diamondrectangles.svg	stimuli_distractor_trianglediamonds.svg	19	yes	53	1	519	6	2	antiphase_hc_ios.wav	3	6	1	noise_calib_stim_LEFT.wav	1	29	blb_dichoticlistening_pa-pa.mp3	pa	pa	0	left
6.6.1	mac	2023-06-27	00:25:51	00:39:03	783367	6481ec9f0a58d32023a4fd94	1	1	main_slash	24	advance_on_keypress_SLASH	128	stimuli_target_diamondrectangles.svg	stimuli_distractor_trianglediamonds.svg	19	yes	57	0	1131	6	2	antiphase_hc_ios.wav	3	6	1	noise_calib_stim_LEFT.wav	1	29	blb_dichoticlistening_pa-pa.mp3	pa	pa	0	left
6.6.1	mac	2023-06-27	00:25:51	00:39:05	785341	6481ec9f0a58d32023a4fd94	1	1	main_slash	24	main_slash	129	stimuli_distractor_trianglediamonds.svg	stimuli_distractor_diamondtriangles.svg	36	no	53	0	213	6	2	antiphase_hc_ios.wav	3	6	1	noise_calib_stim_LEFT.wav	1	29	blb_dichoticlistening_pa-pa.mp3	pa	pa	0	left
6.6.1	mac	2023-06-27	00:25:51	00:39:05	785341	6481ec9f0a58d32023a4fd94	1	1	main_slash	24	advance_on_keypress_SLASH	130	stimuli_distractor_trianglediamonds.svg	stimuli_distractor_diamondtriangles.svg	36	no	57	0	715	6	2	antiphase_hc_ios.wav	3	6	1	noise_calib_stim_LEFT.wav	1	29	blb_dichoticlistening_pa-pa.mp3	pa	pa	0	left
6.6.1	mac	2023-06-27	00:25:51	00:39:09	788697	6481ec9f0a58d32023a4fd94	1	1	main_slash	24	main_slash	131	stimuli_distractor_diamondtriangles.svg	stimuli_target_squaretriangles.svg	15	yes	0	0	2000	6	2	antiphase_hc_ios.wav	3	6	1	noise_calib_stim_LEFT.wav	1	29	blb_dichoticlistening_pa-pa.mp3	pa	pa	0	left
6.6.1	mac	2023-06-27	00:25:51	00:39:09	788697	6481ec9f0a58d32023a4fd94	1	1	main_slash	24	advance_on_keypress_SLASH	132	stimuli_distractor_diamondtriangles.svg	stimuli_target_squaretriangles.svg	15	yes	57	0	490	6	2	antiphase_hc_ios.wav	3	6	1	noise_calib_stim_LEFT.wav	1	29	blb_dichoticlistening_pa-pa.mp3	pa	pa	0	left
6.6.1	mac	2023-06-27	00:25:51	00:39:10	790049	6481ec9f0a58d32023a4fd94	1	1	main_slash	24	main_slash	133	stimuli_distractor_diamondtriangles.svg	stimuli_distractor_diamondtriangles.svg	40	no	53	0	235	6	2	antiphase_hc_ios.wav	3	6	1	noise_calib_stim_LEFT.wav	1	29	blb_dichoticlistening_pa-pa.mp3	pa	pa	0	left
6.6.1	mac	2023-06-27	00:25:51	00:39:10	790049	6481ec9f0a58d32023a4fd94	1	1	main_slash	24	advance_on_keypress_SLASH	134	stimuli_distractor_diamondtriangles.svg	stimuli_distractor_diamondtriangles.svg	40	no	57	0	1096	6	2	antiphase_hc_ios.wav	3	6	1	noise_calib_stim_LEFT.wav	1	29	blb_dichoticlistening_pa-pa.mp3	pa	pa	0	left
6.6.1	mac	2023-06-27	00:25:51	00:39:12	792195	6481ec9f0a58d32023a4fd94	1	1	main_slash	24	main_slash	135	stimuli_target_trianglesquares.svg	stimuli_distractor_diamondtriangles.svg	22	yes	53	1	415	6	2	antiphase_hc_ios.wav	3	6	1	noise_calib_stim_LEFT.wav	1	29	blb_dichoticlistening_pa-pa.mp3	pa	pa	0	left
6.6.1	mac	2023-06-27	00:25:51	00:39:12	792195	6481ec9f0a58d32023a4fd94	1	1	main_slash	24	advance_on_keypress_SLASH	136	stimuli_target_trianglesquares.svg	stimuli_distractor_diamondtriangles.svg	22	yes	57	0	982	6	2	antiphase_hc_ios.wav	3	6	1	noise_calib_stim_LEFT.wav	1	29	blb_dichoticlistening_pa-pa.mp3	pa	pa	0	left
6.6.1	mac	2023-06-27	00:25:51	00:39:14	794093	6481ec9f0a58d32023a4fd94	1	1	main_slash	24	main_slash	137	stimuli_target_squarediamonds.svg	stimuli_distractor_trianglediamonds.svg	4	yes	53	1	280	6	2	antiphase_hc_ios.wav	3	6	1	noise_calib_stim_LEFT.wav	1	29	blb_dichoticlistening_pa-pa.mp3	pa	pa	0	left
6.6.1	mac	2023-06-27	00:25:51	00:39:14	794093	6481ec9f0a58d32023a4fd94	1	1	main_slash	24	advance_on_keypress_SLASH	138	stimuli_target_squarediamonds.svg	stimuli_distractor_trianglediamonds.svg	4	yes	57	0	1692	6	2	antiphase_hc_ios.wav	3	6	1	noise_calib_stim_LEFT.wav	1	29	blb_dichoticlistening_pa-pa.mp3	pa	pa	0	left
6.6.1	mac	2023-06-27	00:25:51	00:39:18	798430	6481ec9f0a58d32023a4fd94	1	1	main_slash	24	main_slash	139	stimuli_distractor_diamondtriangles.svg	stimuli_distractor_trianglediamonds.svg	38	no	0	1	2000	6	2	antiphase_hc_ios.wav	3	6	1	noise_calib_stim_LEFT.wav	1	29	blb_dichoticlistening_pa-pa.mp3	pa	pa	0	left
6.6.1	mac	2023-06-27	00:25:51	00:39:18	798430	6481ec9f0a58d32023a4fd94	1	1	main_slash	24	advance_on_keypress_SLASH	140	stimuli_distractor_diamondtriangles.svg	stimuli_distractor_trianglediamonds.svg	38	no	57	0	342	6	2	antiphase_hc_ios.wav	3	6	1	noise_calib_stim_LEFT.wav	1	29	blb_dichoticlistening_pa-pa.mp3	pa	pa	0	left
6.6.1	mac	2023-06-27	00:25:51	00:39:20	799758	6481ec9f0a58d32023a4fd94	1	1	main_slash	24	main_slash	141	stimuli_distractor_diamondtriangles.svg	stimuli_target_diamondsquares.svg	32	yes	53	1	361	6	2	antiphase_hc_ios.wav	3	6	1	noise_calib_stim_LEFT.wav	1	29	blb_dichoticlistening_pa-pa.mp3	pa	pa	0	left
6.6.1	mac	2023-06-27	00:25:51	00:39:20	799758	6481ec9f0a58d32023a4fd94	1	1	main_slash	24	advance_on_keypress_SLASH	142	stimuli_distractor_diamondtriangles.svg	stimuli_target_diamondsquares.svg	32	yes	57	0	1137	6	2	antiphase_hc_ios.wav	3	6	1	noise_calib_stim_LEFT.wav	1	29	blb_dichoticlistening_pa-pa.mp3	pa	pa	0	left
6.6.1	mac	2023-06-27	00:25:51	00:39:22	801940	6481ec9f0a58d32023a4fd94	1	1	main_slash	24	main_slash	143	stimuli_distractor_trianglediamonds.svg	stimuli_distractor_diamondtriangles.svg	35	no	53	0	411	6	2	antiphase_hc_ios.wav	3	6	1	noise_calib_stim_LEFT.wav	1	29	blb_dichoticlistening_pa-pa.mp3	pa	pa	0	left
6.6.1	mac	2023-06-27	00:25:51	00:39:22	801940	6481ec9f0a58d32023a4fd94	1	1	main_slash	24	advance_on_keypress_SLASH	144	stimuli_distractor_trianglediamonds.svg	stimuli_distractor_diamondtriangles.svg	35	no	57	0	1980	6	2	antiphase_hc_ios.wav	3	6	1	noise_calib_stim_LEFT.wav	1	29	blb_dichoticlistening_pa-pa.mp3	pa	pa	0	left
6.6.1	mac	2023-06-27	00:25:51	00:39:27	806548	6481ec9f0a58d32023a4fd94	1	1	main_slash	24	main_slash	145	stimuli_distractor_diamondtriangles.svg	stimuli_distractor_diamondtriangles.svg	39	no	0	1	2000	6	2	antiphase_hc_ios.wav	3	6	1	noise_calib_stim_LEFT.wav	1	29	blb_dichoticlistening_pa-pa.mp3	pa	pa	0	left
6.6.1	mac	2023-06-27	00:25:51	00:39:27	806548	6481ec9f0a58d32023a4fd94	1	1	main_slash	24	advance_on_keypress_SLASH	146	stimuli_distractor_diamondtriangles.svg	stimuli_distractor_diamondtriangles.svg	39	no	57	0	419	6	2	antiphase_hc_ios.wav	3	6	1	noise_calib_stim_LEFT.wav	1	29	blb_dichoticlistening_pa-pa.mp3	pa	pa	0	left
6.6.1	mac	2023-06-27	00:25:51	00:39:28	807981	6481ec9f0a58d32023a4fd94	1	1	main_slash	24	main_slash	147	stimuli_target_rectanglediamonds.svg	stimuli_distractor_trianglediamonds.svg	2	yes	53	1	383	6	2	antiphase_hc_ios.wav	3	6	1	noise_calib_stim_LEFT.wav	1	29	blb_dichoticlistening_pa-pa.mp3	pa	pa	0	left
6.6.1	mac	2023-06-27	00:25:51	00:39:28	807981	6481ec9f0a58d32023a4fd94	1	1	main_slash	24	advance_on_keypress_SLASH	148	stimuli_target_rectanglediamonds.svg	stimuli_distractor_trianglediamonds.svg	2	yes	57	0	980	6	2	antiphase_hc_ios.wav	3	6	1	noise_calib_stim_LEFT.wav	1	29	blb_dichoticlistening_pa-pa.mp3	pa	pa	0	left
6.6.1	mac	2023-06-27	00:25:51	00:39:30	809906	6481ec9f0a58d32023a4fd94	1	1	main_slash	24	main_slash	149	stimuli_target_squaretriangles.svg	stimuli_distractor_diamondtriangles.svg	7	yes	53	1	293	6	2	antiphase_hc_ios.wav	3	6	1	noise_calib_stim_LEFT.wav	1	29	blb_dichoticlistening_pa-pa.mp3	pa	pa	0	left
6.6.1	mac	2023-06-27	00:25:51	00:39:30	809906	6481ec9f0a58d32023a4fd94	1	1	main_slash	24	advance_on_keypress_SLASH	150	stimuli_target_squaretriangles.svg	stimuli_distractor_diamondtriangles.svg	7	yes	57	0	893	6	2	antiphase_hc_ios.wav	3	6	1	noise_calib_stim_LEFT.wav	1	29	blb_dichoticlistening_pa-pa.mp3	pa	pa	0	left
6.6.1	mac	2023-06-27	00:25:51	00:39:32	811668	6481ec9f0a58d32023a4fd94	1	1	main_slash	24	main_slash	151	stimuli_target_diamondrectangles.svg	stimuli_distractor_diamondtriangles.svg	23	yes	53	1	238	6	2	antiphase_hc_ios.wav	3	6	1	noise_calib_stim_LEFT.wav	1	29	blb_dichoticlistening_pa-pa.mp3	pa	pa	0	left
6.6.1	mac	2023-06-27	00:25:51	00:39:32	811668	6481ec9f0a58d32023a4fd94	1	1	main_slash	24	advance_on_keypress_SLASH	152	stimuli_target_diamondrectangles.svg	stimuli_distractor_diamondtriangles.svg	23	yes	57	0	1236	6	2	antiphase_hc_ios.wav	3	6	1	noise_calib_stim_LEFT.wav	1	29	blb_dichoticlistening_pa-pa.mp3	pa	pa	0	left
6.6.1	mac	2023-06-27	00:25:51	00:39:36	815551	6481ec9f0a58d32023a4fd94	1	1	main_slash	24	main_slash	153	stimuli_distractor_trianglediamonds.svg	stimuli_target_squarediamonds.svg	12	yes	0	0	2000	6	2	antiphase_hc_ios.wav	3	6	1	noise_calib_stim_LEFT.wav	1	29	blb_dichoticlistening_pa-pa.mp3	pa	pa	0	left
6.6.1	mac	2023-06-27	00:25:51	00:39:36	815551	6481ec9f0a58d32023a4fd94	1	1	main_slash	24	advance_on_keypress_SLASH	154	stimuli_distractor_trianglediamonds.svg	stimuli_target_squarediamonds.svg	12	yes	57	0	349	6	2	antiphase_hc_ios.wav	3	6	1	noise_calib_stim_LEFT.wav	1	29	blb_dichoticlistening_pa-pa.mp3	pa	pa	0	left
6.6.1	mac	2023-06-27	00:25:51	00:39:37	816921	6481ec9f0a58d32023a4fd94	1	1	main_slash	24	main_slash	155	stimuli_distractor_trianglediamonds.svg	stimuli_target_diamondsquares.svg	28	yes	53	1	392	6	2	antiphase_hc_ios.wav	3	6	1	noise_calib_stim_LEFT.wav	1	29	blb_dichoticlistening_pa-pa.mp3	pa	pa	0	left
6.6.1	mac	2023-06-27	00:25:51	00:39:37	816921	6481ec9f0a58d32023a4fd94	1	1	main_slash	24	advance_on_keypress_SLASH	156	stimuli_distractor_trianglediamonds.svg	stimuli_target_diamondsquares.svg	28	yes	57	0	1554	6	2	antiphase_hc_ios.wav	3	6	1	noise_calib_stim_LEFT.wav	1	29	blb_dichoticlistening_pa-pa.mp3	pa	pa	0	left
6.6.1	mac	2023-06-27	00:25:51	00:39:40	819661	6481ec9f0a58d32023a4fd94	1	1	main_slash	24	main_slash	157	stimuli_target_squaretriangles.svg	stimuli_distractor_trianglediamonds.svg	3	yes	53	1	530	6	2	antiphase_hc_ios.wav	3	6	1	noise_calib_stim_LEFT.wav	1	29	blb_dichoticlistening_pa-pa.mp3	pa	pa	0	left
6.6.1	mac	2023-06-27	00:25:51	00:39:40	819661	6481ec9f0a58d32023a4fd94	1	1	main_slash	24	advance_on_keypress_SLASH	158	stimuli_target_squaretriangles.svg	stimuli_distractor_trianglediamonds.svg	3	yes	57	0	1757	6	2	antiphase_hc_ios.wav	3	6	1	noise_calib_stim_LEFT.wav	1	29	blb_dichoticlistening_pa-pa.mp3	pa	pa	0	left
6.6.1	mac	2023-06-27	00:25:51	00:39:42	822297	6481ec9f0a58d32023a4fd94	1	1	main_slash	24	main_slash	159	stimuli_target_diamondsquares.svg	stimuli_distractor_diamondtriangles.svg	24	yes	53	1	249	6	2	antiphase_hc_ios.wav	3	6	1	noise_calib_stim_LEFT.wav	1	29	blb_dichoticlistening_pa-pa.mp3	pa	pa	0	left
6.6.1	mac	2023-06-27	00:25:51	00:39:42	822297	6481ec9f0a58d32023a4fd94	1	1	main_slash	24	advance_on_keypress_SLASH	160	stimuli_target_diamondsquares.svg	stimuli_distractor_diamondtriangles.svg	24	yes	57	0	938	6	2	antiphase_hc_ios.wav	3	6	1	noise_calib_stim_LEFT.wav	1	29	blb_dichoticlistening_pa-pa.mp3	pa	pa	0	left
6.6.1	mac	2023-06-27	00:25:51	00:40:10	849780	6481ec9f0a58d32023a4fd94	1	1	practice_z	26	practice_z	1	stimuli_target_diamondsquares.svg	stimuli_distractor_diamondtriangles.svg	3	yes	44	1	346	6	2	antiphase_hc_ios.wav	3	6	1	noise_calib_stim_LEFT.wav	1	29	blb_dichoticlistening_pa-pa.mp3	pa	pa	0	left
6.6.1	mac	2023-06-27	00:25:51	00:40:10	849780	6481ec9f0a58d32023a4fd94	1	1	practice_z	26	advance_on_keypress_ZEE	2	stimuli_target_diamondsquares.svg	stimuli_distractor_diamondtriangles.svg	3	yes	57	0	941	6	2	antiphase_hc_ios.wav	3	6	1	noise_calib_stim_LEFT.wav	1	29	blb_dichoticlistening_pa-pa.mp3	pa	pa	0	left
6.6.1	mac	2023-06-27	00:25:51	00:40:13	852581	6481ec9f0a58d32023a4fd94	1	1	practice_z	26	practice_z	3	stimuli_distractor_diamondtriangles.svg	stimuli_distractor_trianglediamonds.svg	14	no	44	0	215	6	2	antiphase_hc_ios.wav	3	6	1	noise_calib_stim_LEFT.wav	1	29	blb_dichoticlistening_pa-pa.mp3	pa	pa	0	left
6.6.1	mac	2023-06-27	00:25:51	00:40:13	852581	6481ec9f0a58d32023a4fd94	1	1	practice_z	26	advance_on_keypress_ZEE	4	stimuli_distractor_diamondtriangles.svg	stimuli_distractor_trianglediamonds.svg	14	no	57	0	560	6	2	antiphase_hc_ios.wav	3	6	1	noise_calib_stim_LEFT.wav	1	29	blb_dichoticlistening_pa-pa.mp3	pa	pa	0	left
6.6.1	mac	2023-06-27	00:25:51	00:40:17	856787	6481ec9f0a58d32023a4fd94	1	1	practice_z	26	practice_z	5	stimuli_distractor_diamondtriangles.svg	stimuli_distractor_diamondtriangles.svg	13	no	0	1	2000	6	2	antiphase_hc_ios.wav	3	6	1	noise_calib_stim_LEFT.wav	1	29	blb_dichoticlistening_pa-pa.mp3	pa	pa	0	left
6.6.1	mac	2023-06-27	00:25:51	00:40:17	856787	6481ec9f0a58d32023a4fd94	1	1	practice_z	26	advance_on_keypress_ZEE	6	stimuli_distractor_diamondtriangles.svg	stimuli_distractor_diamondtriangles.svg	13	no	57	0	597	6	2	antiphase_hc_ios.wav	3	6	1	noise_calib_stim_LEFT.wav	1	29	blb_dichoticlistening_pa-pa.mp3	pa	pa	0	left
6.6.1	mac	2023-06-27	00:25:51	00:40:19	859394	6481ec9f0a58d32023a4fd94	1	1	practice_z	26	practice_z	7	stimuli_distractor_trianglediamonds.svg	stimuli_target_squarediamonds.svg	11	yes	44	1	376	6	2	antiphase_hc_ios.wav	3	6	1	noise_calib_stim_LEFT.wav	1	29	blb_dichoticlistening_pa-pa.mp3	pa	pa	0	left
6.6.1	mac	2023-06-27	00:25:51	00:40:19	859394	6481ec9f0a58d32023a4fd94	1	1	practice_z	26	advance_on_keypress_ZEE	8	stimuli_distractor_trianglediamonds.svg	stimuli_target_squarediamonds.svg	11	yes	57	0	598	6	2	antiphase_hc_ios.wav	3	6	1	noise_calib_stim_LEFT.wav	1	29	blb_dichoticlistening_pa-pa.mp3	pa	pa	0	left
6.6.1	mac	2023-06-27	00:25:51	00:40:22	862058	6481ec9f0a58d32023a4fd94	1	1	practice_z	26	practice_z	9	stimuli_target_rectanglediamonds.svg	stimuli_distractor_trianglediamonds.svg	4	yes	44	1	425	6	2	antiphase_hc_ios.wav	3	6	1	noise_calib_stim_LEFT.wav	1	29	blb_dichoticlistening_pa-pa.mp3	pa	pa	0	left
6.6.1	mac	2023-06-27	00:25:51	00:40:22	862058	6481ec9f0a58d32023a4fd94	1	1	practice_z	26	advance_on_keypress_ZEE	10	stimuli_target_rectanglediamonds.svg	stimuli_distractor_trianglediamonds.svg	4	yes	57	0	458	6	2	antiphase_hc_ios.wav	3	6	1	noise_calib_stim_LEFT.wav	1	29	blb_dichoticlistening_pa-pa.mp3	pa	pa	0	left
6.6.1	mac	2023-06-27	00:25:51	00:40:25	864573	6481ec9f0a58d32023a4fd94	1	1	practice_z	26	practice_z	11	stimuli_distractor_diamondtriangles.svg	stimuli_target_rectangletriangles.svg	7	yes	44	1	408	6	2	antiphase_hc_ios.wav	3	6	1	noise_calib_stim_LEFT.wav	1	29	blb_dichoticlistening_pa-pa.mp3	pa	pa	0	left
6.6.1	mac	2023-06-27	00:25:51	00:40:25	864573	6481ec9f0a58d32023a4fd94	1	1	practice_z	26	advance_on_keypress_ZEE	12	stimuli_distractor_diamondtriangles.svg	stimuli_target_rectangletriangles.svg	7	yes	57	0	499	6	2	antiphase_hc_ios.wav	3	6	1	noise_calib_stim_LEFT.wav	1	29	blb_dichoticlistening_pa-pa.mp3	pa	pa	0	left
6.6.1	mac	2023-06-27	00:25:51	00:40:29	868718	6481ec9f0a58d32023a4fd94	1	1	practice_z	26	practice_z	13	stimuli_distractor_trianglediamonds.svg	stimuli_distractor_diamondtriangles.svg	16	no	0	1	2000	6	2	antiphase_hc_ios.wav	3	6	1	noise_calib_stim_LEFT.wav	1	29	blb_dichoticlistening_pa-pa.mp3	pa	pa	0	left
6.6.1	mac	2023-06-27	00:25:51	00:40:29	868718	6481ec9f0a58d32023a4fd94	1	1	practice_z	26	advance_on_keypress_ZEE	14	stimuli_distractor_trianglediamonds.svg	stimuli_distractor_diamondtriangles.svg	16	no	57	0	364	6	2	antiphase_hc_ios.wav	3	6	1	noise_calib_stim_LEFT.wav	1	29	blb_dichoticlistening_pa-pa.mp3	pa	pa	0	left
6.6.1	mac	2023-06-27	00:25:51	00:40:32	871483	6481ec9f0a58d32023a4fd94	1	1	practice_z	26	practice_z	15	stimuli_distractor_diamondtriangles.svg	stimuli_target_diamondrectangles.svg	8	yes	44	1	764	6	2	antiphase_hc_ios.wav	3	6	1	noise_calib_stim_LEFT.wav	1	29	blb_dichoticlistening_pa-pa.mp3	pa	pa	0	left
6.6.1	mac	2023-06-27	00:25:51	00:40:32	871483	6481ec9f0a58d32023a4fd94	1	1	practice_z	26	advance_on_keypress_ZEE	16	stimuli_distractor_diamondtriangles.svg	stimuli_target_diamondrectangles.svg	8	yes	57	0	506	6	2	antiphase_hc_ios.wav	3	6	1	noise_calib_stim_LEFT.wav	1	29	blb_dichoticlistening_pa-pa.mp3	pa	pa	0	left
