build	computer.platform	date	time	timestamp	time_elapsed_ms	subject	group	session	blockcode	blocknum	trialcode	trialnum	stimulus_left	stimulus_right	stim_index	target_present	response	correct	latency	headphonecheck_countTestTrials	headphonecheck_index	headphonecheck_testSound	headphonecheck_correctResponse	stereocheck_countTestTrials	stereocheck_index	stereocheck_testSound	stereocheck_correctResponse	DL_index	DL_soundfile	DL_leftSound	DL_rightSound	DL_dualSound	DL_choice
6.6.1	win	2023-06-01	23:53:18	23:55:21	121564	63d44472a72a227e0fef6bdc	3	1	practice_slash	5	practice_slash	1	stimuli_target_rectanglediamonds.svg	stimuli_distractor_trianglediamonds.svg	4	yes	53	1	520	0	0			0	0			1				0	
6.6.1	win	2023-06-01	23:53:18	23:55:21	121564	63d44472a72a227e0fef6bdc	3	1	practice_slash	5	advance_on_keypress_SLASH	2	stimuli_target_rectanglediamonds.svg	stimuli_distractor_trianglediamonds.svg	4	yes	57	0	1741	0	0			0	0			1				0	
6.6.1	win	2023-06-01	23:53:18	23:55:25	125377	63d44472a72a227e0fef6bdc	3	1	practice_slash	5	practice_slash	3	stimuli_target_squarediamonds.svg	stimuli_distractor_diamondtriangles.svg	2	yes	53	1	396	0	0			0	0			1				0	
6.6.1	win	2023-06-01	23:53:18	23:55:25	125377	63d44472a72a227e0fef6bdc	3	1	practice_slash	5	advance_on_keypress_SLASH	4	stimuli_target_squarediamonds.svg	stimuli_distractor_diamondtriangles.svg	2	yes	57	0	552	0	0			0	0			1				0	
6.6.1	win	2023-06-01	23:53:18	23:55:27	127963	63d44472a72a227e0fef6bdc	3	1	practice_slash	5	practice_slash	5	stimuli_distractor_trianglediamonds.svg	stimuli_target_squarediamonds.svg	11	yes	53	1	386	0	0			0	0			1				0	
6.6.1	win	2023-06-01	23:53:18	23:55:27	127963	63d44472a72a227e0fef6bdc	3	1	practice_slash	5	advance_on_keypress_SLASH	6	stimuli_distractor_trianglediamonds.svg	stimuli_target_squarediamonds.svg	11	yes	57	0	746	0	0			0	0			1				0	
6.6.1	win	2023-06-01	23:53:18	23:55:30	130999	63d44472a72a227e0fef6bdc	3	1	practice_slash	5	practice_slash	7	stimuli_target_diamondsquares.svg	stimuli_distractor_trianglediamonds.svg	6	yes	53	1	631	0	0			0	0			1				0	
6.6.1	win	2023-06-01	23:53:18	23:55:30	130999	63d44472a72a227e0fef6bdc	3	1	practice_slash	5	advance_on_keypress_SLASH	8	stimuli_target_diamondsquares.svg	stimuli_distractor_trianglediamonds.svg	6	yes	57	0	1953	0	0			0	0			1				0	
6.6.1	win	2023-06-01	23:53:18	23:55:35	135247	63d44472a72a227e0fef6bdc	3	1	practice_slash	5	practice_slash	9	stimuli_distractor_diamondtriangles.svg	stimuli_target_trianglerectangles.svg	9	yes	53	1	655	0	0			0	0			1				0	
6.6.1	win	2023-06-01	23:53:18	23:55:35	135247	63d44472a72a227e0fef6bdc	3	1	practice_slash	5	advance_on_keypress_SLASH	10	stimuli_distractor_diamondtriangles.svg	stimuli_target_trianglerectangles.svg	9	yes	57	0	875	0	0			0	0			1				0	
6.6.1	win	2023-06-01	23:53:18	23:55:38	138300	63d44472a72a227e0fef6bdc	3	1	practice_slash	5	practice_slash	11	stimuli_distractor_trianglediamonds.svg	stimuli_target_diamondrectangles.svg	12	yes	53	1	525	0	0			0	0			1				0	
6.6.1	win	2023-06-01	23:53:18	23:55:38	138300	63d44472a72a227e0fef6bdc	3	1	practice_slash	5	advance_on_keypress_SLASH	12	stimuli_distractor_trianglediamonds.svg	stimuli_target_diamondrectangles.svg	12	yes	57	0	726	0	0			0	0			1				0	
6.6.1	win	2023-06-01	23:53:18	23:55:41	141341	63d44472a72a227e0fef6bdc	3	1	practice_slash	5	practice_slash	13	stimuli_distractor_trianglediamonds.svg	stimuli_target_rectanglediamonds.svg	10	yes	53	1	666	0	0			0	0			1				0	
6.6.1	win	2023-06-01	23:53:18	23:55:41	141341	63d44472a72a227e0fef6bdc	3	1	practice_slash	5	advance_on_keypress_SLASH	14	stimuli_distractor_trianglediamonds.svg	stimuli_target_rectanglediamonds.svg	10	yes	57	0	725	0	0			0	0			1				0	
6.6.1	win	2023-06-01	23:53:18	23:55:45	145708	63d44472a72a227e0fef6bdc	3	1	practice_slash	5	practice_slash	15	stimuli_distractor_trianglediamonds.svg	stimuli_distractor_diamondtriangles.svg	16	no	0	1	2000	0	0			0	0			1				0	
6.6.1	win	2023-06-01	23:53:18	23:55:45	145708	63d44472a72a227e0fef6bdc	3	1	practice_slash	5	advance_on_keypress_SLASH	16	stimuli_distractor_trianglediamonds.svg	stimuli_distractor_diamondtriangles.svg	16	no	57	0	476	0	0			0	0			1				0	
6.6.1	win	2023-06-01	23:53:18	23:55:49	149847	63d44472a72a227e0fef6bdc	3	1	practice_slash	5	practice_slash	17	stimuli_distractor_diamondtriangles.svg	stimuli_distractor_diamondtriangles.svg	13	no	0	1	2000	0	0			0	0			1				0	
6.6.1	win	2023-06-01	23:53:18	23:55:49	149847	63d44472a72a227e0fef6bdc	3	1	practice_slash	5	advance_on_keypress_SLASH	18	stimuli_distractor_diamondtriangles.svg	stimuli_distractor_diamondtriangles.svg	13	no	57	0	292	0	0			0	0			1				0	
6.6.1	win	2023-06-01	23:53:18	23:55:52	152529	63d44472a72a227e0fef6bdc	3	1	practice_slash	5	practice_slash	19	stimuli_distractor_diamondtriangles.svg	stimuli_target_rectangletriangles.svg	7	yes	53	1	739	0	0			0	0			1				0	
6.6.1	win	2023-06-01	23:53:18	23:55:52	152529	63d44472a72a227e0fef6bdc	3	1	practice_slash	5	advance_on_keypress_SLASH	20	stimuli_distractor_diamondtriangles.svg	stimuli_target_rectangletriangles.svg	7	yes	57	0	602	0	0			0	0			1				0	
6.6.1	win	2023-06-01	23:53:18	23:55:55	155307	63d44472a72a227e0fef6bdc	3	1	practice_slash	5	practice_slash	21	stimuli_target_squarediamonds.svg	stimuli_distractor_trianglediamonds.svg	5	yes	53	1	532	0	0			0	0			1				0	
6.6.1	win	2023-06-01	23:53:18	23:55:55	155307	63d44472a72a227e0fef6bdc	3	1	practice_slash	5	advance_on_keypress_SLASH	22	stimuli_target_squarediamonds.svg	stimuli_distractor_trianglediamonds.svg	5	yes	57	0	422	0	0			0	0			1				0	
6.6.1	win	2023-06-01	23:53:18	23:55:59	159399	63d44472a72a227e0fef6bdc	3	1	practice_slash	5	practice_slash	23	stimuli_target_diamondsquares.svg	stimuli_distractor_diamondtriangles.svg	3	yes	0	0	2000	0	0			0	0			1				0	
6.6.1	win	2023-06-01	23:53:18	23:55:59	159399	63d44472a72a227e0fef6bdc	3	1	practice_slash	5	advance_on_keypress_SLASH	24	stimuli_target_diamondsquares.svg	stimuli_distractor_diamondtriangles.svg	3	yes	57	0	477	0	0			0	0			1				0	
6.6.1	win	2023-06-01	23:53:18	23:56:02	162288	63d44472a72a227e0fef6bdc	3	1	practice_slash	5	practice_slash	25	stimuli_distractor_diamondtriangles.svg	stimuli_target_diamondrectangles.svg	8	yes	53	1	744	0	0			0	0			1				0	
6.6.1	win	2023-06-01	23:53:18	23:56:02	162288	63d44472a72a227e0fef6bdc	3	1	practice_slash	5	advance_on_keypress_SLASH	26	stimuli_distractor_diamondtriangles.svg	stimuli_target_diamondrectangles.svg	8	yes	57	0	441	0	0			0	0			1				0	
6.6.1	win	2023-06-01	23:53:18	23:56:06	166406	63d44472a72a227e0fef6bdc	3	1	practice_slash	5	practice_slash	27	stimuli_distractor_trianglediamonds.svg	stimuli_distractor_trianglediamonds.svg	15	no	0	1	2000	0	0			0	0			1				0	
6.6.1	win	2023-06-01	23:53:18	23:56:06	166406	63d44472a72a227e0fef6bdc	3	1	practice_slash	5	advance_on_keypress_SLASH	28	stimuli_distractor_trianglediamonds.svg	stimuli_distractor_trianglediamonds.svg	15	no	57	0	448	0	0			0	0			1				0	
6.6.1	win	2023-06-01	23:53:18	23:56:09	169185	63d44472a72a227e0fef6bdc	3	1	practice_slash	5	practice_slash	29	stimuli_distractor_diamondtriangles.svg	stimuli_distractor_trianglediamonds.svg	14	no	53	0	678	0	0			0	0			1				0	
6.6.1	win	2023-06-01	23:53:18	23:56:09	169185	63d44472a72a227e0fef6bdc	3	1	practice_slash	5	advance_on_keypress_SLASH	30	stimuli_distractor_diamondtriangles.svg	stimuli_distractor_trianglediamonds.svg	14	no	57	0	407	0	0			0	0			1				0	
6.6.1	win	2023-06-01	23:53:18	23:56:11	171943	63d44472a72a227e0fef6bdc	3	1	practice_slash	5	practice_slash	31	stimuli_target_rectanglediamonds.svg	stimuli_distractor_diamondtriangles.svg	1	yes	53	1	719	0	0			0	0			1				0	
6.6.1	win	2023-06-01	23:53:18	23:56:11	171943	63d44472a72a227e0fef6bdc	3	1	practice_slash	5	advance_on_keypress_SLASH	32	stimuli_target_rectanglediamonds.svg	stimuli_distractor_diamondtriangles.svg	1	yes	57	0	463	0	0			0	0			1				0	
6.6.1	win	2023-06-01	23:53:18	23:56:18	178485	63d44472a72a227e0fef6bdc	3	1	main_slash	7	main_slash	1	stimuli_target_rectanglediamonds.svg	stimuli_distractor_diamondtriangles.svg	6	yes	53	1	530	0	0			0	0			1				0	
6.6.1	win	2023-06-01	23:53:18	23:56:18	178485	63d44472a72a227e0fef6bdc	3	1	main_slash	7	advance_on_keypress_SLASH	2	stimuli_target_rectanglediamonds.svg	stimuli_distractor_diamondtriangles.svg	6	yes	57	0	1068	0	0			0	0			1				0	
6.6.1	win	2023-06-01	23:53:18	23:56:20	180740	63d44472a72a227e0fef6bdc	3	1	main_slash	7	main_slash	3	stimuli_distractor_diamondtriangles.svg	stimuli_target_diamondsquares.svg	32	yes	53	1	534	0	0			0	0			1				0	
6.6.1	win	2023-06-01	23:53:18	23:56:20	180740	63d44472a72a227e0fef6bdc	3	1	main_slash	7	advance_on_keypress_SLASH	4	stimuli_distractor_diamondtriangles.svg	stimuli_target_diamondsquares.svg	32	yes	57	0	881	0	0			0	0			1				0	
6.6.1	win	2023-06-01	23:53:18	23:56:22	182739	63d44472a72a227e0fef6bdc	3	1	main_slash	7	main_slash	5	stimuli_distractor_diamondtriangles.svg	stimuli_target_trianglerectangles.svg	29	yes	53	1	457	0	0			0	0			1				0	
6.6.1	win	2023-06-01	23:53:18	23:56:22	182739	63d44472a72a227e0fef6bdc	3	1	main_slash	7	advance_on_keypress_SLASH	6	stimuli_distractor_diamondtriangles.svg	stimuli_target_trianglerectangles.svg	29	yes	57	0	424	0	0			0	0			1				0	
6.6.1	win	2023-06-01	23:53:18	23:56:24	184338	63d44472a72a227e0fef6bdc	3	1	main_slash	7	main_slash	7	stimuli_target_trianglesquares.svg	stimuli_distractor_diamondtriangles.svg	22	yes	53	1	516	0	0			0	0			1				0	
6.6.1	win	2023-06-01	23:53:18	23:56:24	184338	63d44472a72a227e0fef6bdc	3	1	main_slash	7	advance_on_keypress_SLASH	8	stimuli_target_trianglesquares.svg	stimuli_distractor_diamondtriangles.svg	22	yes	57	0	426	0	0			0	0			1				0	
6.6.1	win	2023-06-01	23:53:18	23:56:27	187431	63d44472a72a227e0fef6bdc	3	1	main_slash	7	main_slash	9	stimuli_distractor_trianglediamonds.svg	stimuli_distractor_diamondtriangles.svg	36	no	0	1	2000	0	0			0	0			1				0	
6.6.1	win	2023-06-01	23:53:18	23:56:27	187431	63d44472a72a227e0fef6bdc	3	1	main_slash	7	advance_on_keypress_SLASH	10	stimuli_distractor_trianglediamonds.svg	stimuli_distractor_diamondtriangles.svg	36	no	57	0	296	0	0			0	0			1				0	
6.6.1	win	2023-06-01	23:53:18	23:56:28	188949	63d44472a72a227e0fef6bdc	3	1	main_slash	7	main_slash	11	stimuli_target_squarediamonds.svg	stimuli_distractor_diamondtriangles.svg	8	yes	53	1	561	0	0			0	0			1				0	
6.6.1	win	2023-06-01	23:53:18	23:56:28	188949	63d44472a72a227e0fef6bdc	3	1	main_slash	7	advance_on_keypress_SLASH	12	stimuli_target_squarediamonds.svg	stimuli_distractor_diamondtriangles.svg	8	yes	57	0	495	0	0			0	0			1				0	
6.6.1	win	2023-06-01	23:53:18	23:56:30	190688	63d44472a72a227e0fef6bdc	3	1	main_slash	7	main_slash	13	stimuli_distractor_diamondtriangles.svg	stimuli_distractor_trianglediamonds.svg	37	no	53	0	585	0	0			0	0			1				0	
6.6.1	win	2023-06-01	23:53:18	23:56:30	190688	63d44472a72a227e0fef6bdc	3	1	main_slash	7	advance_on_keypress_SLASH	14	stimuli_distractor_diamondtriangles.svg	stimuli_distractor_trianglediamonds.svg	37	no	57	0	396	0	0			0	0			1				0	
6.6.1	win	2023-06-01	23:53:18	23:56:33	193740	63d44472a72a227e0fef6bdc	3	1	main_slash	7	main_slash	15	stimuli_distractor_trianglediamonds.svg	stimuli_distractor_diamondtriangles.svg	35	no	0	1	2000	0	0			0	0			1				0	
6.6.1	win	2023-06-01	23:53:18	23:56:33	193740	63d44472a72a227e0fef6bdc	3	1	main_slash	7	advance_on_keypress_SLASH	16	stimuli_distractor_trianglediamonds.svg	stimuli_distractor_diamondtriangles.svg	35	no	57	0	249	0	0			0	0			1				0	
6.6.1	win	2023-06-01	23:53:18	23:56:35	195174	63d44472a72a227e0fef6bdc	3	1	main_slash	7	main_slash	17	stimuli_target_squaretriangles.svg	stimuli_distractor_trianglediamonds.svg	3	yes	53	1	506	0	0			0	0			1				0	
6.6.1	win	2023-06-01	23:53:18	23:56:35	195174	63d44472a72a227e0fef6bdc	3	1	main_slash	7	advance_on_keypress_SLASH	18	stimuli_target_squaretriangles.svg	stimuli_distractor_trianglediamonds.svg	3	yes	57	0	672	0	0			0	0			1				0	
6.6.1	win	2023-06-01	23:53:18	23:56:36	197035	63d44472a72a227e0fef6bdc	3	1	main_slash	7	main_slash	19	stimuli_distractor_trianglediamonds.svg	stimuli_target_trianglesquares.svg	26	yes	53	1	545	0	0			0	0			1				0	
6.6.1	win	2023-06-01	23:53:18	23:56:36	197035	63d44472a72a227e0fef6bdc	3	1	main_slash	7	advance_on_keypress_SLASH	20	stimuli_distractor_trianglediamonds.svg	stimuli_target_trianglesquares.svg	26	yes	57	0	398	0	0			0	0			1				0	
6.6.1	win	2023-06-01	23:53:18	23:56:38	198633	63d44472a72a227e0fef6bdc	3	1	main_slash	7	main_slash	21	stimuli_target_diamondrectangles.svg	stimuli_distractor_diamondtriangles.svg	23	yes	53	1	545	0	0			0	0			1				0	
6.6.1	win	2023-06-01	23:53:18	23:56:38	198633	63d44472a72a227e0fef6bdc	3	1	main_slash	7	advance_on_keypress_SLASH	22	stimuli_target_diamondrectangles.svg	stimuli_distractor_diamondtriangles.svg	23	yes	57	0	335	0	0			0	0			1				0	
6.6.1	win	2023-06-01	23:53:18	23:56:39	199993	63d44472a72a227e0fef6bdc	3	1	main_slash	7	main_slash	23	stimuli_target_trianglesquares.svg	stimuli_distractor_trianglediamonds.svg	18	yes	53	1	384	0	0			0	0			1				0	
6.6.1	win	2023-06-01	23:53:18	23:56:39	199993	63d44472a72a227e0fef6bdc	3	1	main_slash	7	advance_on_keypress_SLASH	24	stimuli_target_trianglesquares.svg	stimuli_distractor_trianglediamonds.svg	18	yes	57	0	319	0	0			0	0			1				0	
6.6.1	win	2023-06-01	23:53:18	23:56:41	201810	63d44472a72a227e0fef6bdc	3	1	main_slash	7	main_slash	25	stimuli_target_rectangletriangles.svg	stimuli_distractor_diamondtriangles.svg	5	yes	53	1	830	0	0			0	0			1				0	
6.6.1	win	2023-06-01	23:53:18	23:56:41	201810	63d44472a72a227e0fef6bdc	3	1	main_slash	7	advance_on_keypress_SLASH	26	stimuli_target_rectangletriangles.svg	stimuli_distractor_diamondtriangles.svg	5	yes	57	0	470	0	0			0	0			1				0	
6.6.1	win	2023-06-01	23:53:18	23:56:43	203312	63d44472a72a227e0fef6bdc	3	1	main_slash	7	main_slash	27	stimuli_distractor_trianglediamonds.svg	stimuli_target_rectangletriangles.svg	9	yes	53	1	391	0	0			0	0			1				0	
6.6.1	win	2023-06-01	23:53:18	23:56:43	203312	63d44472a72a227e0fef6bdc	3	1	main_slash	7	advance_on_keypress_SLASH	28	stimuli_distractor_trianglediamonds.svg	stimuli_target_rectangletriangles.svg	9	yes	57	0	411	0	0			0	0			1				0	
6.6.1	win	2023-06-01	23:53:18	23:56:44	205006	63d44472a72a227e0fef6bdc	3	1	main_slash	7	main_slash	29	stimuli_target_trianglerectangles.svg	stimuli_distractor_diamondtriangles.svg	21	yes	53	1	624	0	0			0	0			1				0	
6.6.1	win	2023-06-01	23:53:18	23:56:44	205006	63d44472a72a227e0fef6bdc	3	1	main_slash	7	advance_on_keypress_SLASH	30	stimuli_target_trianglerectangles.svg	stimuli_distractor_diamondtriangles.svg	21	yes	57	0	338	0	0			0	0			1				0	
6.6.1	win	2023-06-01	23:53:18	23:56:46	206587	63d44472a72a227e0fef6bdc	3	1	main_slash	7	main_slash	31	stimuli_distractor_trianglediamonds.svg	stimuli_distractor_trianglediamonds.svg	34	no	53	0	590	0	0			0	0			1				0	
6.6.1	win	2023-06-01	23:53:18	23:56:46	206587	63d44472a72a227e0fef6bdc	3	1	main_slash	7	advance_on_keypress_SLASH	32	stimuli_distractor_trianglediamonds.svg	stimuli_distractor_trianglediamonds.svg	34	no	57	0	681	0	0			0	0			1				0	
6.6.1	win	2023-06-01	23:53:18	23:56:48	208487	63d44472a72a227e0fef6bdc	3	1	main_slash	7	main_slash	33	stimuli_target_rectangletriangles.svg	stimuli_distractor_trianglediamonds.svg	1	yes	53	1	566	0	0			0	0			1				0	
6.6.1	win	2023-06-01	23:53:18	23:56:48	208487	63d44472a72a227e0fef6bdc	3	1	main_slash	7	advance_on_keypress_SLASH	34	stimuli_target_rectangletriangles.svg	stimuli_distractor_trianglediamonds.svg	1	yes	57	0	301	0	0			0	0			1				0	
6.6.1	win	2023-06-01	23:53:18	23:56:49	209990	63d44472a72a227e0fef6bdc	3	1	main_slash	7	main_slash	35	stimuli_distractor_trianglediamonds.svg	stimuli_target_squarediamonds.svg	12	yes	53	1	552	0	0			0	0			1				0	
6.6.1	win	2023-06-01	23:53:18	23:56:49	209990	63d44472a72a227e0fef6bdc	3	1	main_slash	7	advance_on_keypress_SLASH	36	stimuli_distractor_trianglediamonds.svg	stimuli_target_squarediamonds.svg	12	yes	57	0	314	0	0			0	0			1				0	
6.6.1	win	2023-06-01	23:53:18	23:56:51	211411	63d44472a72a227e0fef6bdc	3	1	main_slash	7	main_slash	37	stimuli_target_squarediamonds.svg	stimuli_distractor_trianglediamonds.svg	4	yes	53	1	447	0	0			0	0			1				0	
6.6.1	win	2023-06-01	23:53:18	23:56:51	211411	63d44472a72a227e0fef6bdc	3	1	main_slash	7	advance_on_keypress_SLASH	38	stimuli_target_squarediamonds.svg	stimuli_distractor_trianglediamonds.svg	4	yes	57	0	340	0	0			0	0			1				0	
6.6.1	win	2023-06-01	23:53:18	23:56:52	212921	63d44472a72a227e0fef6bdc	3	1	main_slash	7	main_slash	39	stimuli_distractor_trianglediamonds.svg	stimuli_target_diamondrectangles.svg	27	yes	53	1	508	0	0			0	0			1				0	
6.6.1	win	2023-06-01	23:53:18	23:56:52	212921	63d44472a72a227e0fef6bdc	3	1	main_slash	7	advance_on_keypress_SLASH	40	stimuli_distractor_trianglediamonds.svg	stimuli_target_diamondrectangles.svg	27	yes	57	0	474	0	0			0	0			1				0	
6.6.1	win	2023-06-01	23:53:18	23:56:54	214728	63d44472a72a227e0fef6bdc	3	1	main_slash	7	main_slash	41	stimuli_distractor_diamondtriangles.svg	stimuli_target_squarediamonds.svg	16	yes	53	1	690	0	0			0	0			1				0	
6.6.1	win	2023-06-01	23:53:18	23:56:54	214728	63d44472a72a227e0fef6bdc	3	1	main_slash	7	advance_on_keypress_SLASH	42	stimuli_distractor_diamondtriangles.svg	stimuli_target_squarediamonds.svg	16	yes	57	0	402	0	0			0	0			1				0	
6.6.1	win	2023-06-01	23:53:18	23:56:56	216703	63d44472a72a227e0fef6bdc	3	1	main_slash	7	main_slash	43	stimuli_distractor_trianglediamonds.svg	stimuli_target_trianglerectangles.svg	25	yes	53	1	902	0	0			0	0			1				0	
6.6.1	win	2023-06-01	23:53:18	23:56:56	216703	63d44472a72a227e0fef6bdc	3	1	main_slash	7	advance_on_keypress_SLASH	44	stimuli_distractor_trianglediamonds.svg	stimuli_target_trianglerectangles.svg	25	yes	57	0	328	0	0			0	0			1				0	
6.6.1	win	2023-06-01	23:53:18	23:56:59	219672	63d44472a72a227e0fef6bdc	3	1	main_slash	7	main_slash	45	stimuli_distractor_diamondtriangles.svg	stimuli_target_trianglesquares.svg	30	yes	0	0	2000	0	0			0	0			1				0	
6.6.1	win	2023-06-01	23:53:18	23:56:59	219672	63d44472a72a227e0fef6bdc	3	1	main_slash	7	advance_on_keypress_SLASH	46	stimuli_distractor_diamondtriangles.svg	stimuli_target_trianglesquares.svg	30	yes	57	0	309	0	0			0	0			1				0	
6.6.1	win	2023-06-01	23:53:18	23:57:01	221186	63d44472a72a227e0fef6bdc	3	1	main_slash	7	main_slash	47	stimuli_distractor_diamondtriangles.svg	stimuli_distractor_diamondtriangles.svg	39	no	53	0	548	0	0			0	0			1				0	
6.6.1	win	2023-06-01	23:53:18	23:57:01	221186	63d44472a72a227e0fef6bdc	3	1	main_slash	7	advance_on_keypress_SLASH	48	stimuli_distractor_diamondtriangles.svg	stimuli_distractor_diamondtriangles.svg	39	no	57	0	446	0	0			0	0			1				0	
6.6.1	win	2023-06-01	23:53:18	23:57:02	222821	63d44472a72a227e0fef6bdc	3	1	main_slash	7	main_slash	49	stimuli_target_rectanglediamonds.svg	stimuli_distractor_trianglediamonds.svg	2	yes	53	1	519	0	0			0	0			1				0	
6.6.1	win	2023-06-01	23:53:18	23:57:02	222821	63d44472a72a227e0fef6bdc	3	1	main_slash	7	advance_on_keypress_SLASH	50	stimuli_target_rectanglediamonds.svg	stimuli_distractor_trianglediamonds.svg	2	yes	57	0	276	0	0			0	0			1				0	
6.6.1	win	2023-06-01	23:53:18	23:57:05	225739	63d44472a72a227e0fef6bdc	3	1	main_slash	7	main_slash	51	stimuli_distractor_diamondtriangles.svg	stimuli_distractor_trianglediamonds.svg	38	no	0	1	2000	0	0			0	0			1				0	
6.6.1	win	2023-06-01	23:53:18	23:57:05	225739	63d44472a72a227e0fef6bdc	3	1	main_slash	7	advance_on_keypress_SLASH	52	stimuli_distractor_diamondtriangles.svg	stimuli_distractor_trianglediamonds.svg	38	no	57	0	280	0	0			0	0			1				0	
6.6.1	win	2023-06-01	23:53:18	23:57:07	227400	63d44472a72a227e0fef6bdc	3	1	main_slash	7	main_slash	53	stimuli_distractor_trianglediamonds.svg	stimuli_target_diamondsquares.svg	28	yes	53	1	719	0	0			0	0			1				0	
6.6.1	win	2023-06-01	23:53:18	23:57:07	227400	63d44472a72a227e0fef6bdc	3	1	main_slash	7	advance_on_keypress_SLASH	54	stimuli_distractor_trianglediamonds.svg	stimuli_target_diamondsquares.svg	28	yes	57	0	303	0	0			0	0			1				0	
6.6.1	win	2023-06-01	23:53:18	23:57:08	228890	63d44472a72a227e0fef6bdc	3	1	main_slash	7	main_slash	55	stimuli_distractor_diamondtriangles.svg	stimuli_target_diamondrectangles.svg	31	yes	53	1	553	0	0			0	0			1				0	
6.6.1	win	2023-06-01	23:53:18	23:57:08	228890	63d44472a72a227e0fef6bdc	3	1	main_slash	7	advance_on_keypress_SLASH	56	stimuli_distractor_diamondtriangles.svg	stimuli_target_diamondrectangles.svg	31	yes	57	0	265	0	0			0	0			1				0	
6.6.1	win	2023-06-01	23:53:18	23:57:10	230468	63d44472a72a227e0fef6bdc	3	1	main_slash	7	main_slash	57	stimuli_distractor_diamondtriangles.svg	stimuli_target_squaretriangles.svg	15	yes	53	1	649	0	0			0	0			1				0	
6.6.1	win	2023-06-01	23:53:18	23:57:10	230468	63d44472a72a227e0fef6bdc	3	1	main_slash	7	advance_on_keypress_SLASH	58	stimuli_distractor_diamondtriangles.svg	stimuli_target_squaretriangles.svg	15	yes	57	0	282	0	0			0	0			1				0	
6.6.1	win	2023-06-01	23:53:18	23:57:13	233405	63d44472a72a227e0fef6bdc	3	1	main_slash	7	main_slash	59	stimuli_distractor_trianglediamonds.svg	stimuli_distractor_trianglediamonds.svg	33	no	0	1	2000	0	0			0	0			1				0	
6.6.1	win	2023-06-01	23:53:18	23:57:13	233405	63d44472a72a227e0fef6bdc	3	1	main_slash	7	advance_on_keypress_SLASH	60	stimuli_distractor_trianglediamonds.svg	stimuli_distractor_trianglediamonds.svg	33	no	57	0	275	0	0			0	0			1				0	
6.6.1	win	2023-06-01	23:53:18	23:57:14	234759	63d44472a72a227e0fef6bdc	3	1	main_slash	7	main_slash	61	stimuli_distractor_trianglediamonds.svg	stimuli_target_squaretriangles.svg	11	yes	53	1	415	0	0			0	0			1				0	
6.6.1	win	2023-06-01	23:53:18	23:57:14	234759	63d44472a72a227e0fef6bdc	3	1	main_slash	7	advance_on_keypress_SLASH	62	stimuli_distractor_trianglediamonds.svg	stimuli_target_squaretriangles.svg	11	yes	57	0	545	0	0			0	0			1				0	
6.6.1	win	2023-06-01	23:53:18	23:57:17	237963	63d44472a72a227e0fef6bdc	3	1	main_slash	7	main_slash	63	stimuli_distractor_diamondtriangles.svg	stimuli_distractor_diamondtriangles.svg	40	no	0	1	2000	0	0			0	0			1				0	
6.6.1	win	2023-06-01	23:53:18	23:57:17	237963	63d44472a72a227e0fef6bdc	3	1	main_slash	7	advance_on_keypress_SLASH	64	stimuli_distractor_diamondtriangles.svg	stimuli_distractor_diamondtriangles.svg	40	no	57	0	237	0	0			0	0			1				0	
6.6.1	win	2023-06-01	23:53:18	23:57:19	239220	63d44472a72a227e0fef6bdc	3	1	main_slash	7	main_slash	65	stimuli_distractor_diamondtriangles.svg	stimuli_target_rectanglediamonds.svg	14	yes	53	1	382	0	0			0	0			1				0	
6.6.1	win	2023-06-01	23:53:18	23:57:19	239220	63d44472a72a227e0fef6bdc	3	1	main_slash	7	advance_on_keypress_SLASH	66	stimuli_distractor_diamondtriangles.svg	stimuli_target_rectanglediamonds.svg	14	yes	57	0	323	0	0			0	0			1				0	
6.6.1	win	2023-06-01	23:53:18	23:57:21	241122	63d44472a72a227e0fef6bdc	3	1	main_slash	7	main_slash	67	stimuli_target_trianglerectangles.svg	stimuli_distractor_trianglediamonds.svg	17	yes	53	1	919	0	0			0	0			1				0	
6.6.1	win	2023-06-01	23:53:18	23:57:21	241122	63d44472a72a227e0fef6bdc	3	1	main_slash	7	advance_on_keypress_SLASH	68	stimuli_target_trianglerectangles.svg	stimuli_distractor_trianglediamonds.svg	17	yes	57	0	263	0	0			0	0			1				0	
6.6.1	win	2023-06-01	23:53:18	23:57:22	242491	63d44472a72a227e0fef6bdc	3	1	main_slash	7	main_slash	69	stimuli_distractor_trianglediamonds.svg	stimuli_target_rectanglediamonds.svg	10	yes	53	1	454	0	0			0	0			1				0	
6.6.1	win	2023-06-01	23:53:18	23:57:22	242491	63d44472a72a227e0fef6bdc	3	1	main_slash	7	advance_on_keypress_SLASH	70	stimuli_distractor_trianglediamonds.svg	stimuli_target_rectanglediamonds.svg	10	yes	57	0	290	0	0			0	0			1				0	
6.6.1	win	2023-06-01	23:53:18	23:57:24	244225	63d44472a72a227e0fef6bdc	3	1	main_slash	7	main_slash	71	stimuli_target_diamondrectangles.svg	stimuli_distractor_trianglediamonds.svg	19	yes	53	1	799	0	0			0	0			1				0	
6.6.1	win	2023-06-01	23:53:18	23:57:24	244225	63d44472a72a227e0fef6bdc	3	1	main_slash	7	advance_on_keypress_SLASH	72	stimuli_target_diamondrectangles.svg	stimuli_distractor_trianglediamonds.svg	19	yes	57	0	242	0	0			0	0			1				0	
6.6.1	win	2023-06-01	23:53:18	23:57:25	245553	63d44472a72a227e0fef6bdc	3	1	main_slash	7	main_slash	73	stimuli_target_diamondsquares.svg	stimuli_distractor_diamondtriangles.svg	24	yes	53	1	433	0	0			0	0			1				0	
6.6.1	win	2023-06-01	23:53:18	23:57:25	245553	63d44472a72a227e0fef6bdc	3	1	main_slash	7	advance_on_keypress_SLASH	74	stimuli_target_diamondsquares.svg	stimuli_distractor_diamondtriangles.svg	24	yes	57	0	313	0	0			0	0			1				0	
6.6.1	win	2023-06-01	23:53:18	23:57:26	246927	63d44472a72a227e0fef6bdc	3	1	main_slash	7	main_slash	75	stimuli_target_squaretriangles.svg	stimuli_distractor_diamondtriangles.svg	7	yes	53	1	423	0	0			0	0			1				0	
6.6.1	win	2023-06-01	23:53:18	23:57:26	246927	63d44472a72a227e0fef6bdc	3	1	main_slash	7	advance_on_keypress_SLASH	76	stimuli_target_squaretriangles.svg	stimuli_distractor_diamondtriangles.svg	7	yes	57	0	237	0	0			0	0			1				0	
6.6.1	win	2023-06-01	23:53:18	23:57:28	248358	63d44472a72a227e0fef6bdc	3	1	main_slash	7	main_slash	77	stimuli_distractor_diamondtriangles.svg	stimuli_target_rectangletriangles.svg	13	yes	53	1	554	0	0			0	0			1				0	
6.6.1	win	2023-06-01	23:53:18	23:57:28	248358	63d44472a72a227e0fef6bdc	3	1	main_slash	7	advance_on_keypress_SLASH	78	stimuli_distractor_diamondtriangles.svg	stimuli_target_rectangletriangles.svg	13	yes	57	0	277	0	0			0	0			1				0	
6.6.1	win	2023-06-01	23:53:18	23:57:29	249725	63d44472a72a227e0fef6bdc	3	1	main_slash	7	main_slash	79	stimuli_target_diamondsquares.svg	stimuli_distractor_trianglediamonds.svg	20	yes	53	1	432	0	0			0	0			1				0	
6.6.1	win	2023-06-01	23:53:18	23:57:29	249725	63d44472a72a227e0fef6bdc	3	1	main_slash	7	advance_on_keypress_SLASH	80	stimuli_target_diamondsquares.svg	stimuli_distractor_trianglediamonds.svg	20	yes	57	0	341	0	0			0	0			1				0	
6.6.1	win	2023-06-01	23:53:18	23:57:31	251212	63d44472a72a227e0fef6bdc	3	1	main_slash	7	main_slash	81	stimuli_target_rectangletriangles.svg	stimuli_distractor_trianglediamonds.svg	1	yes	53	1	475	0	0			0	0			1				0	
6.6.1	win	2023-06-01	23:53:18	23:57:31	251212	63d44472a72a227e0fef6bdc	3	1	main_slash	7	advance_on_keypress_SLASH	82	stimuli_target_rectangletriangles.svg	stimuli_distractor_trianglediamonds.svg	1	yes	57	0	249	0	0			0	0			1				0	
6.6.1	win	2023-06-01	23:53:18	23:57:32	253021	63d44472a72a227e0fef6bdc	3	1	main_slash	7	main_slash	83	stimuli_distractor_diamondtriangles.svg	stimuli_target_trianglerectangles.svg	29	yes	53	1	916	0	0			0	0			1				0	
6.6.1	win	2023-06-01	23:53:18	23:57:32	253021	63d44472a72a227e0fef6bdc	3	1	main_slash	7	advance_on_keypress_SLASH	84	stimuli_distractor_diamondtriangles.svg	stimuli_target_trianglerectangles.svg	29	yes	57	0	229	0	0			0	0			1				0	
6.6.1	win	2023-06-01	23:53:18	23:57:35	255920	63d44472a72a227e0fef6bdc	3	1	main_slash	7	main_slash	85	stimuli_distractor_diamondtriangles.svg	stimuli_distractor_diamondtriangles.svg	40	no	0	1	2000	0	0			0	0			1				0	
6.6.1	win	2023-06-01	23:53:18	23:57:35	255920	63d44472a72a227e0fef6bdc	3	1	main_slash	7	advance_on_keypress_SLASH	86	stimuli_distractor_diamondtriangles.svg	stimuli_distractor_diamondtriangles.svg	40	no	57	0	285	0	0			0	0			1				0	
6.6.1	win	2023-06-01	23:53:18	23:57:38	258886	63d44472a72a227e0fef6bdc	3	1	main_slash	7	main_slash	87	stimuli_distractor_diamondtriangles.svg	stimuli_distractor_trianglediamonds.svg	37	no	0	1	2000	0	0			0	0			1				0	
6.6.1	win	2023-06-01	23:53:18	23:57:38	258886	63d44472a72a227e0fef6bdc	3	1	main_slash	7	advance_on_keypress_SLASH	88	stimuli_distractor_diamondtriangles.svg	stimuli_distractor_trianglediamonds.svg	37	no	57	0	305	0	0			0	0			1				0	
6.6.1	win	2023-06-01	23:53:18	23:57:40	260244	63d44472a72a227e0fef6bdc	3	1	main_slash	7	main_slash	89	stimuli_distractor_trianglediamonds.svg	stimuli_target_trianglerectangles.svg	25	yes	53	1	393	0	0			0	0			1				0	
6.6.1	win	2023-06-01	23:53:18	23:57:40	260244	63d44472a72a227e0fef6bdc	3	1	main_slash	7	advance_on_keypress_SLASH	90	stimuli_distractor_trianglediamonds.svg	stimuli_target_trianglerectangles.svg	25	yes	57	0	346	0	0			0	0			1				0	
6.6.1	win	2023-06-01	23:53:18	23:57:41	261631	63d44472a72a227e0fef6bdc	3	1	main_slash	7	main_slash	91	stimuli_distractor_trianglediamonds.svg	stimuli_target_rectanglediamonds.svg	10	yes	53	1	394	0	0			0	0			1				0	
6.6.1	win	2023-06-01	23:53:18	23:57:41	261631	63d44472a72a227e0fef6bdc	3	1	main_slash	7	advance_on_keypress_SLASH	92	stimuli_distractor_trianglediamonds.svg	stimuli_target_rectanglediamonds.svg	10	yes	57	0	293	0	0			0	0			1				0	
6.6.1	win	2023-06-01	23:53:18	23:57:43	263223	63d44472a72a227e0fef6bdc	3	1	main_slash	7	main_slash	93	stimuli_distractor_trianglediamonds.svg	stimuli_distractor_trianglediamonds.svg	33	no	53	0	670	0	0			0	0			1				0	
6.6.1	win	2023-06-01	23:53:18	23:57:43	263223	63d44472a72a227e0fef6bdc	3	1	main_slash	7	advance_on_keypress_SLASH	94	stimuli_distractor_trianglediamonds.svg	stimuli_distractor_trianglediamonds.svg	33	no	57	0	378	0	0			0	0			1				0	
6.6.1	win	2023-06-01	23:53:18	23:57:44	264996	63d44472a72a227e0fef6bdc	3	1	main_slash	7	main_slash	95	stimuli_target_trianglerectangles.svg	stimuli_distractor_diamondtriangles.svg	21	yes	53	1	730	0	0			0	0			1				0	
6.6.1	win	2023-06-01	23:53:18	23:57:44	264996	63d44472a72a227e0fef6bdc	3	1	main_slash	7	advance_on_keypress_SLASH	96	stimuli_target_trianglerectangles.svg	stimuli_distractor_diamondtriangles.svg	21	yes	57	0	286	0	0			0	0			1				0	
6.6.1	win	2023-06-01	23:53:18	23:57:46	266454	63d44472a72a227e0fef6bdc	3	1	main_slash	7	main_slash	97	stimuli_target_rectanglediamonds.svg	stimuli_distractor_diamondtriangles.svg	6	yes	53	1	533	0	0			0	0			1				0	
6.6.1	win	2023-06-01	23:53:18	23:57:46	266454	63d44472a72a227e0fef6bdc	3	1	main_slash	7	advance_on_keypress_SLASH	98	stimuli_target_rectanglediamonds.svg	stimuli_distractor_diamondtriangles.svg	6	yes	57	0	284	0	0			0	0			1				0	
6.6.1	win	2023-06-01	23:53:18	23:57:48	268208	63d44472a72a227e0fef6bdc	3	1	main_slash	7	main_slash	99	stimuli_target_trianglesquares.svg	stimuli_distractor_trianglediamonds.svg	18	yes	53	1	805	0	0			0	0			1				0	
6.6.1	win	2023-06-01	23:53:18	23:57:48	268208	63d44472a72a227e0fef6bdc	3	1	main_slash	7	advance_on_keypress_SLASH	100	stimuli_target_trianglesquares.svg	stimuli_distractor_trianglediamonds.svg	18	yes	57	0	280	0	0			0	0			1				0	
6.6.1	win	2023-06-01	23:53:18	23:57:49	269588	63d44472a72a227e0fef6bdc	3	1	main_slash	7	main_slash	101	stimuli_distractor_diamondtriangles.svg	stimuli_target_trianglesquares.svg	30	yes	53	1	452	0	0			0	0			1				0	
6.6.1	win	2023-06-01	23:53:18	23:57:49	269588	63d44472a72a227e0fef6bdc	3	1	main_slash	7	advance_on_keypress_SLASH	102	stimuli_distractor_diamondtriangles.svg	stimuli_target_trianglesquares.svg	30	yes	57	0	275	0	0			0	0			1				0	
6.6.1	win	2023-06-01	23:53:18	23:57:50	270990	63d44472a72a227e0fef6bdc	3	1	main_slash	7	main_slash	103	stimuli_distractor_diamondtriangles.svg	stimuli_target_diamondsquares.svg	32	yes	53	1	455	0	0			0	0			1				0	
6.6.1	win	2023-06-01	23:53:18	23:57:50	270990	63d44472a72a227e0fef6bdc	3	1	main_slash	7	advance_on_keypress_SLASH	104	stimuli_distractor_diamondtriangles.svg	stimuli_target_diamondsquares.svg	32	yes	57	0	437	0	0			0	0			1				0	
6.6.1	win	2023-06-01	23:53:18	23:57:52	272521	63d44472a72a227e0fef6bdc	3	1	main_slash	7	main_slash	105	stimuli_target_diamondsquares.svg	stimuli_distractor_trianglediamonds.svg	20	yes	53	1	437	0	0			0	0			1				0	
6.6.1	win	2023-06-01	23:53:18	23:57:52	272521	63d44472a72a227e0fef6bdc	3	1	main_slash	7	advance_on_keypress_SLASH	106	stimuli_target_diamondsquares.svg	stimuli_distractor_trianglediamonds.svg	20	yes	57	0	229	0	0			0	0			1				0	
6.6.1	win	2023-06-01	23:53:18	23:57:53	274040	63d44472a72a227e0fef6bdc	3	1	main_slash	7	main_slash	107	stimuli_target_diamondrectangles.svg	stimuli_distractor_trianglediamonds.svg	19	yes	53	1	621	0	0			0	0			1				0	
6.6.1	win	2023-06-01	23:53:18	23:57:53	274040	63d44472a72a227e0fef6bdc	3	1	main_slash	7	advance_on_keypress_SLASH	108	stimuli_target_diamondrectangles.svg	stimuli_distractor_trianglediamonds.svg	19	yes	57	0	251	0	0			0	0			1				0	
6.6.1	win	2023-06-01	23:53:18	23:57:56	276938	63d44472a72a227e0fef6bdc	3	1	main_slash	7	main_slash	109	stimuli_distractor_diamondtriangles.svg	stimuli_distractor_diamondtriangles.svg	39	no	0	1	2000	0	0			0	0			1				0	
6.6.1	win	2023-06-01	23:53:18	23:57:56	276938	63d44472a72a227e0fef6bdc	3	1	main_slash	7	advance_on_keypress_SLASH	110	stimuli_distractor_diamondtriangles.svg	stimuli_distractor_diamondtriangles.svg	39	no	57	0	940	0	0			0	0			1				0	
6.6.1	win	2023-06-01	23:53:18	23:57:58	278905	63d44472a72a227e0fef6bdc	3	1	main_slash	7	main_slash	111	stimuli_distractor_diamondtriangles.svg	stimuli_target_squaretriangles.svg	15	yes	53	1	357	0	0			0	0			1				0	
6.6.1	win	2023-06-01	23:53:18	23:57:58	278905	63d44472a72a227e0fef6bdc	3	1	main_slash	7	advance_on_keypress_SLASH	112	stimuli_distractor_diamondtriangles.svg	stimuli_target_squaretriangles.svg	15	yes	57	0	328	0	0			0	0			1				0	
6.6.1	win	2023-06-01	23:53:18	23:58:00	280230	63d44472a72a227e0fef6bdc	3	1	main_slash	7	main_slash	113	stimuli_distractor_diamondtriangles.svg	stimuli_target_rectangletriangles.svg	13	yes	53	1	339	0	0			0	0			1				0	
6.6.1	win	2023-06-01	23:53:18	23:58:00	280230	63d44472a72a227e0fef6bdc	3	1	main_slash	7	advance_on_keypress_SLASH	114	stimuli_distractor_diamondtriangles.svg	stimuli_target_rectangletriangles.svg	13	yes	57	0	278	0	0			0	0			1				0	
6.6.1	win	2023-06-01	23:53:18	23:58:01	281587	63d44472a72a227e0fef6bdc	3	1	main_slash	7	main_slash	115	stimuli_distractor_trianglediamonds.svg	stimuli_target_squaretriangles.svg	11	yes	53	1	433	0	0			0	0			1				0	
6.6.1	win	2023-06-01	23:53:18	23:58:01	281587	63d44472a72a227e0fef6bdc	3	1	main_slash	7	advance_on_keypress_SLASH	116	stimuli_distractor_trianglediamonds.svg	stimuli_target_squaretriangles.svg	11	yes	57	0	271	0	0			0	0			1				0	
6.6.1	win	2023-06-01	23:53:18	23:58:02	282919	63d44472a72a227e0fef6bdc	3	1	main_slash	7	main_slash	117	stimuli_distractor_diamondtriangles.svg	stimuli_target_squarediamonds.svg	16	yes	53	1	395	0	0			0	0			1				0	
6.6.1	win	2023-06-01	23:53:18	23:58:02	282919	63d44472a72a227e0fef6bdc	3	1	main_slash	7	advance_on_keypress_SLASH	118	stimuli_distractor_diamondtriangles.svg	stimuli_target_squarediamonds.svg	16	yes	57	0	263	0	0			0	0			1				0	
6.6.1	win	2023-06-01	23:53:18	23:58:04	284306	63d44472a72a227e0fef6bdc	3	1	main_slash	7	main_slash	119	stimuli_target_squarediamonds.svg	stimuli_distractor_trianglediamonds.svg	4	yes	53	1	457	0	0			0	0			1				0	
6.6.1	win	2023-06-01	23:53:18	23:58:04	284306	63d44472a72a227e0fef6bdc	3	1	main_slash	7	advance_on_keypress_SLASH	120	stimuli_target_squarediamonds.svg	stimuli_distractor_trianglediamonds.svg	4	yes	57	0	148	0	0			0	0			1				0	
6.6.1	win	2023-06-01	23:53:18	23:58:05	285542	63d44472a72a227e0fef6bdc	3	1	main_slash	7	main_slash	121	stimuli_target_rectanglediamonds.svg	stimuli_distractor_trianglediamonds.svg	2	yes	53	1	439	0	0			0	0			1				0	
6.6.1	win	2023-06-01	23:53:18	23:58:05	285542	63d44472a72a227e0fef6bdc	3	1	main_slash	7	advance_on_keypress_SLASH	122	stimuli_target_rectanglediamonds.svg	stimuli_distractor_trianglediamonds.svg	2	yes	57	0	201	0	0			0	0			1				0	
6.6.1	win	2023-06-01	23:53:18	23:58:06	286772	63d44472a72a227e0fef6bdc	3	1	main_slash	7	main_slash	123	stimuli_distractor_trianglediamonds.svg	stimuli_target_squarediamonds.svg	12	yes	53	1	372	0	0			0	0			1				0	
6.6.1	win	2023-06-01	23:53:18	23:58:06	286772	63d44472a72a227e0fef6bdc	3	1	main_slash	7	advance_on_keypress_SLASH	124	stimuli_distractor_trianglediamonds.svg	stimuli_target_squarediamonds.svg	12	yes	57	0	178	0	0			0	0			1				0	
6.6.1	win	2023-06-01	23:53:18	23:58:07	288005	63d44472a72a227e0fef6bdc	3	1	main_slash	7	main_slash	125	stimuli_distractor_trianglediamonds.svg	stimuli_target_diamondrectangles.svg	27	yes	53	1	397	0	0			0	0			1				0	
6.6.1	win	2023-06-01	23:53:18	23:58:07	288005	63d44472a72a227e0fef6bdc	3	1	main_slash	7	advance_on_keypress_SLASH	126	stimuli_distractor_trianglediamonds.svg	stimuli_target_diamondrectangles.svg	27	yes	57	0	339	0	0			0	0			1				0	
6.6.1	win	2023-06-01	23:53:18	23:58:09	289634	63d44472a72a227e0fef6bdc	3	1	main_slash	7	main_slash	127	stimuli_target_diamondsquares.svg	stimuli_distractor_diamondtriangles.svg	24	yes	53	1	623	0	0			0	0			1				0	
6.6.1	win	2023-06-01	23:53:18	23:58:09	289634	63d44472a72a227e0fef6bdc	3	1	main_slash	7	advance_on_keypress_SLASH	128	stimuli_target_diamondsquares.svg	stimuli_distractor_diamondtriangles.svg	24	yes	57	0	217	0	0			0	0			1				0	
6.6.1	win	2023-06-01	23:53:18	23:58:12	292506	63d44472a72a227e0fef6bdc	3	1	main_slash	7	main_slash	129	stimuli_target_rectangletriangles.svg	stimuli_distractor_diamondtriangles.svg	5	yes	0	0	2000	0	0			0	0			1				0	
6.6.1	win	2023-06-01	23:53:18	23:58:12	292506	63d44472a72a227e0fef6bdc	3	1	main_slash	7	advance_on_keypress_SLASH	130	stimuli_target_rectangletriangles.svg	stimuli_distractor_diamondtriangles.svg	5	yes	57	0	516	0	0			0	0			1				0	
6.6.1	win	2023-06-01	23:53:18	23:58:14	294258	63d44472a72a227e0fef6bdc	3	1	main_slash	7	main_slash	131	stimuli_distractor_diamondtriangles.svg	stimuli_distractor_trianglediamonds.svg	38	no	53	0	581	0	0			0	0			1				0	
6.6.1	win	2023-06-01	23:53:18	23:58:14	294258	63d44472a72a227e0fef6bdc	3	1	main_slash	7	advance_on_keypress_SLASH	132	stimuli_distractor_diamondtriangles.svg	stimuli_distractor_trianglediamonds.svg	38	no	57	0	308	0	0			0	0			1				0	
6.6.1	win	2023-06-01	23:53:18	23:58:17	297220	63d44472a72a227e0fef6bdc	3	1	main_slash	7	main_slash	133	stimuli_distractor_trianglediamonds.svg	stimuli_distractor_diamondtriangles.svg	36	no	0	1	2000	0	0			0	0			1				0	
6.6.1	win	2023-06-01	23:53:18	23:58:17	297220	63d44472a72a227e0fef6bdc	3	1	main_slash	7	advance_on_keypress_SLASH	134	stimuli_distractor_trianglediamonds.svg	stimuli_distractor_diamondtriangles.svg	36	no	57	0	108	0	0			0	0			1				0	
6.6.1	win	2023-06-01	23:53:18	23:58:18	298556	63d44472a72a227e0fef6bdc	3	1	main_slash	7	main_slash	135	stimuli_target_trianglerectangles.svg	stimuli_distractor_trianglediamonds.svg	17	yes	53	1	556	0	0			0	0			1				0	
6.6.1	win	2023-06-01	23:53:18	23:58:18	298556	63d44472a72a227e0fef6bdc	3	1	main_slash	7	advance_on_keypress_SLASH	136	stimuli_target_trianglerectangles.svg	stimuli_distractor_trianglediamonds.svg	17	yes	57	0	138	0	0			0	0			1				0	
6.6.1	win	2023-06-01	23:53:18	23:58:20	300813	63d44472a72a227e0fef6bdc	3	1	main_slash	7	main_slash	137	stimuli_target_squarediamonds.svg	stimuli_distractor_diamondtriangles.svg	8	yes	53	1	1471	0	0			0	0			1				0	
6.6.1	win	2023-06-01	23:53:18	23:58:20	300813	63d44472a72a227e0fef6bdc	3	1	main_slash	7	advance_on_keypress_SLASH	138	stimuli_target_squarediamonds.svg	stimuli_distractor_diamondtriangles.svg	8	yes	57	0	318	0	0			0	0			1				0	
6.6.1	win	2023-06-01	23:53:18	23:58:23	303770	63d44472a72a227e0fef6bdc	3	1	main_slash	7	main_slash	139	stimuli_distractor_trianglediamonds.svg	stimuli_target_diamondsquares.svg	28	yes	0	0	2000	0	0			0	0			1				0	
6.6.1	win	2023-06-01	23:53:18	23:58:23	303770	63d44472a72a227e0fef6bdc	3	1	main_slash	7	advance_on_keypress_SLASH	140	stimuli_distractor_trianglediamonds.svg	stimuli_target_diamondsquares.svg	28	yes	57	0	404	0	0			0	0			1				0	
6.6.1	win	2023-06-01	23:53:18	23:58:25	305364	63d44472a72a227e0fef6bdc	3	1	main_slash	7	main_slash	141	stimuli_target_trianglesquares.svg	stimuli_distractor_diamondtriangles.svg	22	yes	53	1	545	0	0			0	0			1				0	
6.6.1	win	2023-06-01	23:53:18	23:58:25	305364	63d44472a72a227e0fef6bdc	3	1	main_slash	7	advance_on_keypress_SLASH	142	stimuli_target_trianglesquares.svg	stimuli_distractor_diamondtriangles.svg	22	yes	57	0	263	0	0			0	0			1				0	
6.6.1	win	2023-06-01	23:53:18	23:58:28	308253	63d44472a72a227e0fef6bdc	3	1	main_slash	7	main_slash	143	stimuli_distractor_trianglediamonds.svg	stimuli_distractor_trianglediamonds.svg	34	no	0	1	2000	0	0			0	0			1				0	
6.6.1	win	2023-06-01	23:53:18	23:58:28	308253	63d44472a72a227e0fef6bdc	3	1	main_slash	7	advance_on_keypress_SLASH	144	stimuli_distractor_trianglediamonds.svg	stimuli_distractor_trianglediamonds.svg	34	no	57	0	437	0	0			0	0			1				0	
6.6.1	win	2023-06-01	23:53:18	23:58:29	309783	63d44472a72a227e0fef6bdc	3	1	main_slash	7	main_slash	145	stimuli_target_squaretriangles.svg	stimuli_distractor_diamondtriangles.svg	7	yes	53	1	437	0	0			0	0			1				0	
6.6.1	win	2023-06-01	23:53:18	23:58:29	309783	63d44472a72a227e0fef6bdc	3	1	main_slash	7	advance_on_keypress_SLASH	146	stimuli_target_squaretriangles.svg	stimuli_distractor_diamondtriangles.svg	7	yes	57	0	220	0	0			0	0			1				0	
6.6.1	win	2023-06-01	23:53:18	23:58:31	311302	63d44472a72a227e0fef6bdc	3	1	main_slash	7	main_slash	147	stimuli_distractor_diamondtriangles.svg	stimuli_target_diamondrectangles.svg	31	yes	53	1	643	0	0			0	0			1				0	
6.6.1	win	2023-06-01	23:53:18	23:58:31	311302	63d44472a72a227e0fef6bdc	3	1	main_slash	7	advance_on_keypress_SLASH	148	stimuli_distractor_diamondtriangles.svg	stimuli_target_diamondrectangles.svg	31	yes	57	0	225	0	0			0	0			1				0	
6.6.1	win	2023-06-01	23:53:18	23:58:32	312802	63d44472a72a227e0fef6bdc	3	1	main_slash	7	main_slash	149	stimuli_target_squaretriangles.svg	stimuli_distractor_trianglediamonds.svg	3	yes	53	1	617	0	0			0	0			1				0	
6.6.1	win	2023-06-01	23:53:18	23:58:32	312802	63d44472a72a227e0fef6bdc	3	1	main_slash	7	advance_on_keypress_SLASH	150	stimuli_target_squaretriangles.svg	stimuli_distractor_trianglediamonds.svg	3	yes	57	0	337	0	0			0	0			1				0	
6.6.1	win	2023-06-01	23:53:18	23:58:34	314133	63d44472a72a227e0fef6bdc	3	1	main_slash	7	main_slash	151	stimuli_distractor_diamondtriangles.svg	stimuli_target_rectanglediamonds.svg	14	yes	53	1	346	0	0			0	0			1				0	
6.6.1	win	2023-06-01	23:53:18	23:58:34	314133	63d44472a72a227e0fef6bdc	3	1	main_slash	7	advance_on_keypress_SLASH	152	stimuli_distractor_diamondtriangles.svg	stimuli_target_rectanglediamonds.svg	14	yes	57	0	199	0	0			0	0			1				0	
6.6.1	win	2023-06-01	23:53:18	23:58:36	316972	63d44472a72a227e0fef6bdc	3	1	main_slash	7	main_slash	153	stimuli_distractor_trianglediamonds.svg	stimuli_distractor_diamondtriangles.svg	35	no	0	1	2000	0	0			0	0			1				0	
6.6.1	win	2023-06-01	23:53:18	23:58:36	316972	63d44472a72a227e0fef6bdc	3	1	main_slash	7	advance_on_keypress_SLASH	154	stimuli_distractor_trianglediamonds.svg	stimuli_distractor_diamondtriangles.svg	35	no	57	0	294	0	0			0	0			1				0	
6.6.1	win	2023-06-01	23:53:18	23:58:38	318435	63d44472a72a227e0fef6bdc	3	1	main_slash	7	main_slash	155	stimuli_target_diamondrectangles.svg	stimuli_distractor_diamondtriangles.svg	23	yes	53	1	511	0	0			0	0			1				0	
6.6.1	win	2023-06-01	23:53:18	23:58:38	318435	63d44472a72a227e0fef6bdc	3	1	main_slash	7	advance_on_keypress_SLASH	156	stimuli_target_diamondrectangles.svg	stimuli_distractor_diamondtriangles.svg	23	yes	57	0	210	0	0			0	0			1				0	
6.6.1	win	2023-06-01	23:53:18	23:58:39	319710	63d44472a72a227e0fef6bdc	3	1	main_slash	7	main_slash	157	stimuli_distractor_trianglediamonds.svg	stimuli_target_rectangletriangles.svg	9	yes	53	1	408	0	0			0	0			1				0	
6.6.1	win	2023-06-01	23:53:18	23:58:39	319710	63d44472a72a227e0fef6bdc	3	1	main_slash	7	advance_on_keypress_SLASH	158	stimuli_distractor_trianglediamonds.svg	stimuli_target_rectangletriangles.svg	9	yes	57	0	197	0	0			0	0			1				0	
6.6.1	win	2023-06-01	23:53:18	23:58:41	321498	63d44472a72a227e0fef6bdc	3	1	main_slash	7	main_slash	159	stimuli_distractor_trianglediamonds.svg	stimuli_target_trianglesquares.svg	26	yes	53	1	946	0	0			0	0			1				0	
6.6.1	win	2023-06-01	23:53:18	23:58:41	321498	63d44472a72a227e0fef6bdc	3	1	main_slash	7	advance_on_keypress_SLASH	160	stimuli_distractor_trianglediamonds.svg	stimuli_target_trianglesquares.svg	26	yes	57	0	221	0	0			0	0			1				0	
6.6.1	win	2023-06-01	23:53:18	00:01:24	484511	63d44472a72a227e0fef6bdc	3	1	practice_z	9	practice_z	1	stimuli_target_squarediamonds.svg	stimuli_distractor_diamondtriangles.svg	2	yes	44	1	846	0	0			0	0			1				0	
6.6.1	win	2023-06-01	23:53:18	00:01:24	484511	63d44472a72a227e0fef6bdc	3	1	practice_z	9	advance_on_keypress_ZEE	2	stimuli_target_squarediamonds.svg	stimuli_distractor_diamondtriangles.svg	2	yes	57	0	613	0	0			0	0			1				0	
6.6.1	win	2023-06-01	23:53:18	00:01:28	488765	63d44472a72a227e0fef6bdc	3	1	practice_z	9	practice_z	3	stimuli_distractor_trianglediamonds.svg	stimuli_distractor_trianglediamonds.svg	15	no	0	1	2000	0	0			0	0			1				0	
6.6.1	win	2023-06-01	23:53:18	00:01:28	488765	63d44472a72a227e0fef6bdc	3	1	practice_z	9	advance_on_keypress_ZEE	4	stimuli_distractor_trianglediamonds.svg	stimuli_distractor_trianglediamonds.svg	15	no	57	0	267	0	0			0	0			1				0	
6.6.1	win	2023-06-01	23:53:18	00:01:31	491137	63d44472a72a227e0fef6bdc	3	1	practice_z	9	practice_z	5	stimuli_distractor_diamondtriangles.svg	stimuli_target_rectangletriangles.svg	7	yes	44	1	456	0	0			0	0			1				0	
6.6.1	win	2023-06-01	23:53:18	00:01:31	491137	63d44472a72a227e0fef6bdc	3	1	practice_z	9	advance_on_keypress_ZEE	6	stimuli_distractor_diamondtriangles.svg	stimuli_target_rectangletriangles.svg	7	yes	57	0	452	0	0			0	0			1				0	
6.6.1	win	2023-06-01	23:53:18	00:01:33	493643	63d44472a72a227e0fef6bdc	3	1	practice_z	9	practice_z	7	stimuli_target_squarediamonds.svg	stimuli_distractor_trianglediamonds.svg	5	yes	44	1	411	0	0			0	0			1				0	
6.6.1	win	2023-06-01	23:53:18	00:01:33	493643	63d44472a72a227e0fef6bdc	3	1	practice_z	9	advance_on_keypress_ZEE	8	stimuli_target_squarediamonds.svg	stimuli_distractor_trianglediamonds.svg	5	yes	57	0	269	0	0			0	0			1				0	
6.6.1	win	2023-06-01	23:53:18	00:01:37	497549	63d44472a72a227e0fef6bdc	3	1	practice_z	9	practice_z	9	stimuli_distractor_diamondtriangles.svg	stimuli_distractor_trianglediamonds.svg	14	no	0	1	2000	0	0			0	0			1				0	
6.6.1	win	2023-06-01	23:53:18	00:01:37	497549	63d44472a72a227e0fef6bdc	3	1	practice_z	9	advance_on_keypress_ZEE	10	stimuli_distractor_diamondtriangles.svg	stimuli_distractor_trianglediamonds.svg	14	no	57	0	216	0	0			0	0			1				0	
6.6.1	win	2023-06-01	23:53:18	00:01:39	499982	63d44472a72a227e0fef6bdc	3	1	practice_z	9	practice_z	11	stimuli_target_diamondsquares.svg	stimuli_distractor_diamondtriangles.svg	3	yes	44	1	568	0	0			0	0			1				0	
6.6.1	win	2023-06-01	23:53:18	00:01:39	499982	63d44472a72a227e0fef6bdc	3	1	practice_z	9	advance_on_keypress_ZEE	12	stimuli_target_diamondsquares.svg	stimuli_distractor_diamondtriangles.svg	3	yes	57	0	476	0	0			0	0			1				0	
6.6.1	win	2023-06-01	23:53:18	00:01:44	504099	63d44472a72a227e0fef6bdc	3	1	practice_z	9	practice_z	13	stimuli_distractor_diamondtriangles.svg	stimuli_distractor_diamondtriangles.svg	13	no	0	1	2000	0	0			0	0			1				0	
6.6.1	win	2023-06-01	23:53:18	00:01:44	504099	63d44472a72a227e0fef6bdc	3	1	practice_z	9	advance_on_keypress_ZEE	14	stimuli_distractor_diamondtriangles.svg	stimuli_distractor_diamondtriangles.svg	13	no	57	0	331	0	0			0	0			1				0	
6.6.1	win	2023-06-01	23:53:18	00:01:46	506551	63d44472a72a227e0fef6bdc	3	1	practice_z	9	practice_z	15	stimuli_distractor_diamondtriangles.svg	stimuli_target_diamondrectangles.svg	8	yes	44	1	469	0	0			0	0			1				0	
6.6.1	win	2023-06-01	23:53:18	00:01:46	506551	63d44472a72a227e0fef6bdc	3	1	practice_z	9	advance_on_keypress_ZEE	16	stimuli_distractor_diamondtriangles.svg	stimuli_target_diamondrectangles.svg	8	yes	57	0	422	0	0			0	0			1				0	
6.6.1	win	2023-06-01	23:53:18	00:01:48	509062	63d44472a72a227e0fef6bdc	3	1	practice_z	9	practice_z	17	stimuli_distractor_trianglediamonds.svg	stimuli_target_rectanglediamonds.svg	10	yes	44	1	447	0	0			0	0			1				0	
6.6.1	win	2023-06-01	23:53:18	00:01:48	509062	63d44472a72a227e0fef6bdc	3	1	practice_z	9	advance_on_keypress_ZEE	18	stimuli_distractor_trianglediamonds.svg	stimuli_target_rectanglediamonds.svg	10	yes	57	0	234	0	0			0	0			1				0	
6.6.1	win	2023-06-01	23:53:18	00:01:52	512948	63d44472a72a227e0fef6bdc	3	1	practice_z	9	practice_z	19	stimuli_distractor_trianglediamonds.svg	stimuli_distractor_diamondtriangles.svg	16	no	0	1	2000	0	0			0	0			1				0	
6.6.1	win	2023-06-01	23:53:18	00:01:52	512948	63d44472a72a227e0fef6bdc	3	1	practice_z	9	advance_on_keypress_ZEE	20	stimuli_distractor_trianglediamonds.svg	stimuli_distractor_diamondtriangles.svg	16	no	57	0	252	0	0			0	0			1				0	
6.6.1	win	2023-06-01	23:53:18	00:01:55	515248	63d44472a72a227e0fef6bdc	3	1	practice_z	9	practice_z	21	stimuli_target_rectanglediamonds.svg	stimuli_distractor_diamondtriangles.svg	1	yes	44	1	400	0	0			0	0			1				0	
6.6.1	win	2023-06-01	23:53:18	00:01:55	515248	63d44472a72a227e0fef6bdc	3	1	practice_z	9	advance_on_keypress_ZEE	22	stimuli_target_rectanglediamonds.svg	stimuli_distractor_diamondtriangles.svg	1	yes	57	0	261	0	0			0	0			1				0	
6.6.1	win	2023-06-01	23:53:18	00:01:57	517598	63d44472a72a227e0fef6bdc	3	1	practice_z	9	practice_z	23	stimuli_target_rectanglediamonds.svg	stimuli_distractor_trianglediamonds.svg	4	yes	44	1	451	0	0			0	0			1				0	
6.6.1	win	2023-06-01	23:53:18	00:01:57	517598	63d44472a72a227e0fef6bdc	3	1	practice_z	9	advance_on_keypress_ZEE	24	stimuli_target_rectanglediamonds.svg	stimuli_distractor_trianglediamonds.svg	4	yes	57	0	215	0	0			0	0			1				0	
6.6.1	win	2023-06-01	23:53:18	00:01:59	519900	63d44472a72a227e0fef6bdc	3	1	practice_z	9	practice_z	25	stimuli_distractor_trianglediamonds.svg	stimuli_target_squarediamonds.svg	11	yes	44	1	435	0	0			0	0			1				0	
6.6.1	win	2023-06-01	23:53:18	00:01:59	519900	63d44472a72a227e0fef6bdc	3	1	practice_z	9	advance_on_keypress_ZEE	26	stimuli_distractor_trianglediamonds.svg	stimuli_target_squarediamonds.svg	11	yes	57	0	118	0	0			0	0			1				0	
6.6.1	win	2023-06-01	23:53:18	00:02:02	522968	63d44472a72a227e0fef6bdc	3	1	practice_z	9	practice_z	27	stimuli_target_diamondsquares.svg	stimuli_distractor_trianglediamonds.svg	6	yes	44	1	1303	0	0			0	0			1				0	
6.6.1	win	2023-06-01	23:53:18	00:02:02	522968	63d44472a72a227e0fef6bdc	3	1	practice_z	9	advance_on_keypress_ZEE	28	stimuli_target_diamondsquares.svg	stimuli_distractor_trianglediamonds.svg	6	yes	57	0	323	0	0			0	0			1				0	
6.6.1	win	2023-06-01	23:53:18	00:02:06	526931	63d44472a72a227e0fef6bdc	3	1	practice_z	9	practice_z	29	stimuli_distractor_diamondtriangles.svg	stimuli_target_trianglerectangles.svg	9	yes	0	0	2000	0	0			0	0			1				0	
6.6.1	win	2023-06-01	23:53:18	00:02:06	526931	63d44472a72a227e0fef6bdc	3	1	practice_z	9	advance_on_keypress_ZEE	30	stimuli_distractor_diamondtriangles.svg	stimuli_target_trianglerectangles.svg	9	yes	57	0	673	0	0			0	0			1				0	
6.6.1	win	2023-06-01	23:53:18	00:02:09	529734	63d44472a72a227e0fef6bdc	3	1	practice_z	9	practice_z	31	stimuli_distractor_trianglediamonds.svg	stimuli_target_diamondrectangles.svg	12	yes	44	1	486	0	0			0	0			1				0	
6.6.1	win	2023-06-01	23:53:18	00:02:09	529734	63d44472a72a227e0fef6bdc	3	1	practice_z	9	advance_on_keypress_ZEE	32	stimuli_distractor_trianglediamonds.svg	stimuli_target_diamondrectangles.svg	12	yes	57	0	179	0	0			0	0			1				0	
6.6.1	win	2023-06-01	23:53:18	00:02:13	533221	63d44472a72a227e0fef6bdc	3	1	main_z	11	main_z	1	stimuli_distractor_trianglediamonds.svg	stimuli_target_diamondrectangles.svg	27	yes	44	1	441	0	0			0	0			1				0	
6.6.1	win	2023-06-01	23:53:18	00:02:13	533221	63d44472a72a227e0fef6bdc	3	1	main_z	11	advance_on_keypress_ZEE	2	stimuli_distractor_trianglediamonds.svg	stimuli_target_diamondrectangles.svg	27	yes	57	0	955	0	0			0	0			1				0	
6.6.1	win	2023-06-01	23:53:18	00:02:15	535304	63d44472a72a227e0fef6bdc	3	1	main_z	11	main_z	3	stimuli_distractor_trianglediamonds.svg	stimuli_target_squarediamonds.svg	12	yes	44	1	491	0	0			0	0			1				0	
6.6.1	win	2023-06-01	23:53:18	00:02:15	535304	63d44472a72a227e0fef6bdc	3	1	main_z	11	advance_on_keypress_ZEE	4	stimuli_distractor_trianglediamonds.svg	stimuli_target_squarediamonds.svg	12	yes	57	0	484	0	0			0	0			1				0	
6.6.1	win	2023-06-01	23:53:18	00:02:16	536856	63d44472a72a227e0fef6bdc	3	1	main_z	11	main_z	5	stimuli_target_trianglerectangles.svg	stimuli_distractor_diamondtriangles.svg	21	yes	44	1	426	0	0			0	0			1				0	
6.6.1	win	2023-06-01	23:53:18	00:02:16	536856	63d44472a72a227e0fef6bdc	3	1	main_z	11	advance_on_keypress_ZEE	6	stimuli_target_trianglerectangles.svg	stimuli_distractor_diamondtriangles.svg	21	yes	57	0	306	0	0			0	0			1				0	
6.6.1	win	2023-06-01	23:53:18	00:02:18	538449	63d44472a72a227e0fef6bdc	3	1	main_z	11	main_z	7	stimuli_target_diamondrectangles.svg	stimuli_distractor_trianglediamonds.svg	19	yes	44	1	652	0	0			0	0			1				0	
6.6.1	win	2023-06-01	23:53:18	00:02:18	538449	63d44472a72a227e0fef6bdc	3	1	main_z	11	advance_on_keypress_ZEE	8	stimuli_target_diamondrectangles.svg	stimuli_distractor_trianglediamonds.svg	19	yes	57	0	329	0	0			0	0			1				0	
6.6.1	win	2023-06-01	23:53:18	00:02:20	540440	63d44472a72a227e0fef6bdc	3	1	main_z	11	main_z	9	stimuli_distractor_diamondtriangles.svg	stimuli_target_trianglerectangles.svg	29	yes	44	1	1027	0	0			0	0			1				0	
6.6.1	win	2023-06-01	23:53:18	00:02:20	540440	63d44472a72a227e0fef6bdc	3	1	main_z	11	advance_on_keypress_ZEE	10	stimuli_distractor_diamondtriangles.svg	stimuli_target_trianglerectangles.svg	29	yes	57	0	305	0	0			0	0			1				0	
6.6.1	win	2023-06-01	23:53:18	00:02:23	543380	63d44472a72a227e0fef6bdc	3	1	main_z	11	main_z	11	stimuli_distractor_trianglediamonds.svg	stimuli_distractor_trianglediamonds.svg	34	no	0	1	2000	0	0			0	0			1				0	
6.6.1	win	2023-06-01	23:53:18	00:02:23	543380	63d44472a72a227e0fef6bdc	3	1	main_z	11	advance_on_keypress_ZEE	12	stimuli_distractor_trianglediamonds.svg	stimuli_distractor_trianglediamonds.svg	34	no	57	0	237	0	0			0	0			1				0	
6.6.1	win	2023-06-01	23:53:18	00:02:24	544668	63d44472a72a227e0fef6bdc	3	1	main_z	11	main_z	13	stimuli_target_squaretriangles.svg	stimuli_distractor_diamondtriangles.svg	7	yes	44	1	405	0	0			0	0			1				0	
6.6.1	win	2023-06-01	23:53:18	00:02:24	544668	63d44472a72a227e0fef6bdc	3	1	main_z	11	advance_on_keypress_ZEE	14	stimuli_target_squaretriangles.svg	stimuli_distractor_diamondtriangles.svg	7	yes	57	0	365	0	0			0	0			1				0	
6.6.1	win	2023-06-01	23:53:18	00:02:25	546080	63d44472a72a227e0fef6bdc	3	1	main_z	11	main_z	15	stimuli_distractor_diamondtriangles.svg	stimuli_target_squarediamonds.svg	16	yes	44	1	400	0	0			0	0			1				0	
6.6.1	win	2023-06-01	23:53:18	00:02:25	546080	63d44472a72a227e0fef6bdc	3	1	main_z	11	advance_on_keypress_ZEE	16	stimuli_distractor_diamondtriangles.svg	stimuli_target_squarediamonds.svg	16	yes	57	0	236	0	0			0	0			1				0	
6.6.1	win	2023-06-01	23:53:18	00:02:27	547637	63d44472a72a227e0fef6bdc	3	1	main_z	11	main_z	17	stimuli_target_trianglesquares.svg	stimuli_distractor_diamondtriangles.svg	22	yes	44	1	674	0	0			0	0			1				0	
6.6.1	win	2023-06-01	23:53:18	00:02:27	547637	63d44472a72a227e0fef6bdc	3	1	main_z	11	advance_on_keypress_ZEE	18	stimuli_target_trianglesquares.svg	stimuli_distractor_diamondtriangles.svg	22	yes	57	0	489	0	0			0	0			1				0	
6.6.1	win	2023-06-01	23:53:18	00:02:29	549150	63d44472a72a227e0fef6bdc	3	1	main_z	11	main_z	19	stimuli_distractor_trianglediamonds.svg	stimuli_target_rectanglediamonds.svg	10	yes	44	1	385	0	0			0	0			1				0	
6.6.1	win	2023-06-01	23:53:18	00:02:29	549150	63d44472a72a227e0fef6bdc	3	1	main_z	11	advance_on_keypress_ZEE	20	stimuli_distractor_trianglediamonds.svg	stimuli_target_rectanglediamonds.svg	10	yes	57	0	230	0	0			0	0			1				0	
6.6.1	win	2023-06-01	23:53:18	00:02:31	552030	63d44472a72a227e0fef6bdc	3	1	main_z	11	main_z	21	stimuli_distractor_diamondtriangles.svg	stimuli_target_squaretriangles.svg	15	yes	0	0	2000	0	0			0	0			1				0	
6.6.1	win	2023-06-01	23:53:18	00:02:31	552030	63d44472a72a227e0fef6bdc	3	1	main_z	11	advance_on_keypress_ZEE	22	stimuli_distractor_diamondtriangles.svg	stimuli_target_squaretriangles.svg	15	yes	57	0	566	0	0			0	0			1				0	
6.6.1	win	2023-06-01	23:53:18	00:02:33	553690	63d44472a72a227e0fef6bdc	3	1	main_z	11	main_z	23	stimuli_target_rectanglediamonds.svg	stimuli_distractor_diamondtriangles.svg	6	yes	44	1	444	0	0			0	0			1				0	
6.6.1	win	2023-06-01	23:53:18	00:02:33	553690	63d44472a72a227e0fef6bdc	3	1	main_z	11	advance_on_keypress_ZEE	24	stimuli_target_rectanglediamonds.svg	stimuli_distractor_diamondtriangles.svg	6	yes	57	0	291	0	0			0	0			1				0	
6.6.1	win	2023-06-01	23:53:18	00:02:36	556613	63d44472a72a227e0fef6bdc	3	1	main_z	11	main_z	25	stimuli_distractor_trianglediamonds.svg	stimuli_distractor_diamondtriangles.svg	35	no	0	1	2000	0	0			0	0			1				0	
6.6.1	win	2023-06-01	23:53:18	00:02:36	556613	63d44472a72a227e0fef6bdc	3	1	main_z	11	advance_on_keypress_ZEE	26	stimuli_distractor_trianglediamonds.svg	stimuli_distractor_diamondtriangles.svg	35	no	57	0	262	0	0			0	0			1				0	
6.6.1	win	2023-06-01	23:53:18	00:02:37	557867	63d44472a72a227e0fef6bdc	3	1	main_z	11	main_z	27	stimuli_distractor_trianglediamonds.svg	stimuli_target_rectangletriangles.svg	9	yes	44	1	354	0	0			0	0			1				0	
6.6.1	win	2023-06-01	23:53:18	00:02:37	557867	63d44472a72a227e0fef6bdc	3	1	main_z	11	advance_on_keypress_ZEE	28	stimuli_distractor_trianglediamonds.svg	stimuli_target_rectangletriangles.svg	9	yes	57	0	179	0	0			0	0			1				0	
6.6.1	win	2023-06-01	23:53:18	00:02:39	559324	63d44472a72a227e0fef6bdc	3	1	main_z	11	main_z	29	stimuli_distractor_trianglediamonds.svg	stimuli_target_diamondsquares.svg	28	yes	44	1	645	0	0			0	0			1				0	
6.6.1	win	2023-06-01	23:53:18	00:02:39	559324	63d44472a72a227e0fef6bdc	3	1	main_z	11	advance_on_keypress_ZEE	30	stimuli_distractor_trianglediamonds.svg	stimuli_target_diamondsquares.svg	28	yes	57	0	216	0	0			0	0			1				0	
6.6.1	win	2023-06-01	23:53:18	00:02:40	560648	63d44472a72a227e0fef6bdc	3	1	main_z	11	main_z	31	stimuli_target_squarediamonds.svg	stimuli_distractor_trianglediamonds.svg	4	yes	44	1	469	0	0			0	0			1				0	
6.6.1	win	2023-06-01	23:53:18	00:02:40	560648	63d44472a72a227e0fef6bdc	3	1	main_z	11	advance_on_keypress_ZEE	32	stimuli_target_squarediamonds.svg	stimuli_distractor_trianglediamonds.svg	4	yes	57	0	247	0	0			0	0			1				0	
6.6.1	win	2023-06-01	23:53:18	00:02:43	563530	63d44472a72a227e0fef6bdc	3	1	main_z	11	main_z	33	stimuli_distractor_trianglediamonds.svg	stimuli_distractor_diamondtriangles.svg	36	no	0	1	2000	0	0			0	0			1				0	
6.6.1	win	2023-06-01	23:53:18	00:02:43	563530	63d44472a72a227e0fef6bdc	3	1	main_z	11	advance_on_keypress_ZEE	34	stimuli_distractor_trianglediamonds.svg	stimuli_distractor_diamondtriangles.svg	36	no	57	0	271	0	0			0	0			1				0	
6.6.1	win	2023-06-01	23:53:18	00:02:44	564867	63d44472a72a227e0fef6bdc	3	1	main_z	11	main_z	35	stimuli_distractor_trianglediamonds.svg	stimuli_target_squaretriangles.svg	11	yes	44	1	421	0	0			0	0			1				0	
6.6.1	win	2023-06-01	23:53:18	00:02:44	564867	63d44472a72a227e0fef6bdc	3	1	main_z	11	advance_on_keypress_ZEE	36	stimuli_distractor_trianglediamonds.svg	stimuli_target_squaretriangles.svg	11	yes	57	0	238	0	0			0	0			1				0	
6.6.1	win	2023-06-01	23:53:18	00:02:46	566415	63d44472a72a227e0fef6bdc	3	1	main_z	11	main_z	37	stimuli_distractor_diamondtriangles.svg	stimuli_target_diamondrectangles.svg	31	yes	44	1	669	0	0			0	0			1				0	
6.6.1	win	2023-06-01	23:53:18	00:02:46	566415	63d44472a72a227e0fef6bdc	3	1	main_z	11	advance_on_keypress_ZEE	38	stimuli_distractor_diamondtriangles.svg	stimuli_target_diamondrectangles.svg	31	yes	57	0	253	0	0			0	0			1				0	
6.6.1	win	2023-06-01	23:53:18	00:02:47	567829	63d44472a72a227e0fef6bdc	3	1	main_z	11	main_z	39	stimuli_target_rectanglediamonds.svg	stimuli_distractor_trianglediamonds.svg	2	yes	44	1	505	0	0			0	0			1				0	
6.6.1	win	2023-06-01	23:53:18	00:02:47	567829	63d44472a72a227e0fef6bdc	3	1	main_z	11	advance_on_keypress_ZEE	40	stimuli_target_rectanglediamonds.svg	stimuli_distractor_trianglediamonds.svg	2	yes	57	0	254	0	0			0	0			1				0	
6.6.1	win	2023-06-01	23:53:18	00:02:50	570730	63d44472a72a227e0fef6bdc	3	1	main_z	11	main_z	41	stimuli_distractor_trianglediamonds.svg	stimuli_distractor_trianglediamonds.svg	33	no	0	1	2000	0	0			0	0			1				0	
6.6.1	win	2023-06-01	23:53:18	00:02:50	570730	63d44472a72a227e0fef6bdc	3	1	main_z	11	advance_on_keypress_ZEE	42	stimuli_distractor_trianglediamonds.svg	stimuli_distractor_trianglediamonds.svg	33	no	57	0	253	0	0			0	0			1				0	
6.6.1	win	2023-06-01	23:53:18	00:02:51	572031	63d44472a72a227e0fef6bdc	3	1	main_z	11	main_z	43	stimuli_target_squaretriangles.svg	stimuli_distractor_trianglediamonds.svg	3	yes	44	1	402	0	0			0	0			1				0	
6.6.1	win	2023-06-01	23:53:18	00:02:51	572031	63d44472a72a227e0fef6bdc	3	1	main_z	11	advance_on_keypress_ZEE	44	stimuli_target_squaretriangles.svg	stimuli_distractor_trianglediamonds.svg	3	yes	57	0	203	0	0			0	0			1				0	
6.6.1	win	2023-06-01	23:53:18	00:02:53	573343	63d44472a72a227e0fef6bdc	3	1	main_z	11	main_z	45	stimuli_distractor_trianglediamonds.svg	stimuli_target_trianglerectangles.svg	25	yes	44	1	464	0	0			0	0			1				0	
6.6.1	win	2023-06-01	23:53:18	00:02:53	573343	63d44472a72a227e0fef6bdc	3	1	main_z	11	advance_on_keypress_ZEE	46	stimuli_distractor_trianglediamonds.svg	stimuli_target_trianglerectangles.svg	25	yes	57	0	244	0	0			0	0			1				0	
6.6.1	win	2023-06-01	23:53:18	00:02:54	574687	63d44472a72a227e0fef6bdc	3	1	main_z	11	main_z	47	stimuli_target_squarediamonds.svg	stimuli_distractor_diamondtriangles.svg	8	yes	44	1	475	0	0			0	0			1				0	
6.6.1	win	2023-06-01	23:53:18	00:02:54	574687	63d44472a72a227e0fef6bdc	3	1	main_z	11	advance_on_keypress_ZEE	48	stimuli_target_squarediamonds.svg	stimuli_distractor_diamondtriangles.svg	8	yes	57	0	220	0	0			0	0			1				0	
6.6.1	win	2023-06-01	23:53:18	00:02:57	577546	63d44472a72a227e0fef6bdc	3	1	main_z	11	main_z	49	stimuli_distractor_diamondtriangles.svg	stimuli_distractor_diamondtriangles.svg	40	no	0	1	2000	0	0			0	0			1				0	
6.6.1	win	2023-06-01	23:53:18	00:02:57	577546	63d44472a72a227e0fef6bdc	3	1	main_z	11	advance_on_keypress_ZEE	50	stimuli_distractor_diamondtriangles.svg	stimuli_distractor_diamondtriangles.svg	40	no	57	0	529	0	0			0	0			1				0	
6.6.1	win	2023-06-01	23:53:18	00:02:59	579266	63d44472a72a227e0fef6bdc	3	1	main_z	11	main_z	51	stimuli_target_trianglerectangles.svg	stimuli_distractor_trianglediamonds.svg	17	yes	44	1	554	0	0			0	0			1				0	
6.6.1	win	2023-06-01	23:53:18	00:02:59	579266	63d44472a72a227e0fef6bdc	3	1	main_z	11	advance_on_keypress_ZEE	52	stimuli_target_trianglerectangles.svg	stimuli_distractor_trianglediamonds.svg	17	yes	57	0	192	0	0			0	0			1				0	
6.6.1	win	2023-06-01	23:53:18	00:03:00	580574	63d44472a72a227e0fef6bdc	3	1	main_z	11	main_z	53	stimuli_target_trianglesquares.svg	stimuli_distractor_trianglediamonds.svg	18	yes	44	1	478	0	0			0	0			1				0	
6.6.1	win	2023-06-01	23:53:18	00:03:00	580574	63d44472a72a227e0fef6bdc	3	1	main_z	11	advance_on_keypress_ZEE	54	stimuli_target_trianglesquares.svg	stimuli_distractor_trianglediamonds.svg	18	yes	57	0	226	0	0			0	0			1				0	
6.6.1	win	2023-06-01	23:53:18	00:03:01	581916	63d44472a72a227e0fef6bdc	3	1	main_z	11	main_z	55	stimuli_distractor_diamondtriangles.svg	stimuli_target_rectangletriangles.svg	13	yes	44	1	487	0	0			0	0			1				0	
6.6.1	win	2023-06-01	23:53:18	00:03:01	581916	63d44472a72a227e0fef6bdc	3	1	main_z	11	advance_on_keypress_ZEE	56	stimuli_distractor_diamondtriangles.svg	stimuli_target_rectangletriangles.svg	13	yes	57	0	203	0	0			0	0			1				0	
6.6.1	win	2023-06-01	23:53:18	00:03:03	583222	63d44472a72a227e0fef6bdc	3	1	main_z	11	main_z	57	stimuli_distractor_diamondtriangles.svg	stimuli_target_rectanglediamonds.svg	14	yes	44	1	460	0	0			0	0			1				0	
6.6.1	win	2023-06-01	23:53:18	00:03:03	583222	63d44472a72a227e0fef6bdc	3	1	main_z	11	advance_on_keypress_ZEE	58	stimuli_distractor_diamondtriangles.svg	stimuli_target_rectanglediamonds.svg	14	yes	57	0	209	0	0			0	0			1				0	
6.6.1	win	2023-06-01	23:53:18	00:03:04	584491	63d44472a72a227e0fef6bdc	3	1	main_z	11	main_z	59	stimuli_target_rectangletriangles.svg	stimuli_distractor_diamondtriangles.svg	5	yes	44	1	429	0	0			0	0			1				0	
6.6.1	win	2023-06-01	23:53:18	00:03:04	584491	63d44472a72a227e0fef6bdc	3	1	main_z	11	advance_on_keypress_ZEE	60	stimuli_target_rectangletriangles.svg	stimuli_distractor_diamondtriangles.svg	5	yes	57	0	235	0	0			0	0			1				0	
6.6.1	win	2023-06-01	23:53:18	00:03:05	585973	63d44472a72a227e0fef6bdc	3	1	main_z	11	main_z	61	stimuli_target_diamondsquares.svg	stimuli_distractor_diamondtriangles.svg	24	yes	44	1	611	0	0			0	0			1				0	
6.6.1	win	2023-06-01	23:53:18	00:03:05	585973	63d44472a72a227e0fef6bdc	3	1	main_z	11	advance_on_keypress_ZEE	62	stimuli_target_diamondsquares.svg	stimuli_distractor_diamondtriangles.svg	24	yes	57	0	169	0	0			0	0			1				0	
6.6.1	win	2023-06-01	23:53:18	00:03:07	587358	63d44472a72a227e0fef6bdc	3	1	main_z	11	main_z	63	stimuli_distractor_diamondtriangles.svg	stimuli_target_trianglesquares.svg	30	yes	44	1	579	0	0			0	0			1				0	
6.6.1	win	2023-06-01	23:53:18	00:03:07	587358	63d44472a72a227e0fef6bdc	3	1	main_z	11	advance_on_keypress_ZEE	64	stimuli_distractor_diamondtriangles.svg	stimuli_target_trianglesquares.svg	30	yes	57	0	136	0	0			0	0			1				0	
6.6.1	win	2023-06-01	23:53:18	00:03:10	590129	63d44472a72a227e0fef6bdc	3	1	main_z	11	main_z	65	stimuli_distractor_diamondtriangles.svg	stimuli_distractor_trianglediamonds.svg	37	no	0	1	2000	0	0			0	0			1				0	
6.6.1	win	2023-06-01	23:53:18	00:03:10	590129	63d44472a72a227e0fef6bdc	3	1	main_z	11	advance_on_keypress_ZEE	66	stimuli_distractor_diamondtriangles.svg	stimuli_distractor_trianglediamonds.svg	37	no	57	0	254	0	0			0	0			1				0	
6.6.1	win	2023-06-01	23:53:18	00:03:11	591440	63d44472a72a227e0fef6bdc	3	1	main_z	11	main_z	67	stimuli_target_rectangletriangles.svg	stimuli_distractor_trianglediamonds.svg	1	yes	44	1	411	0	0			0	0			1				0	
6.6.1	win	2023-06-01	23:53:18	00:03:11	591440	63d44472a72a227e0fef6bdc	3	1	main_z	11	advance_on_keypress_ZEE	68	stimuli_target_rectangletriangles.svg	stimuli_distractor_trianglediamonds.svg	1	yes	57	0	127	0	0			0	0			1				0	
6.6.1	win	2023-06-01	23:53:18	00:03:12	592722	63d44472a72a227e0fef6bdc	3	1	main_z	11	main_z	69	stimuli_target_diamondsquares.svg	stimuli_distractor_trianglediamonds.svg	20	yes	44	1	527	0	0			0	0			1				0	
6.6.1	win	2023-06-01	23:53:18	00:03:12	592722	63d44472a72a227e0fef6bdc	3	1	main_z	11	advance_on_keypress_ZEE	70	stimuli_target_diamondsquares.svg	stimuli_distractor_trianglediamonds.svg	20	yes	57	0	127	0	0			0	0			1				0	
6.6.1	win	2023-06-01	23:53:18	00:03:15	595479	63d44472a72a227e0fef6bdc	3	1	main_z	11	main_z	71	stimuli_distractor_diamondtriangles.svg	stimuli_distractor_trianglediamonds.svg	38	no	0	1	2000	0	0			0	0			1				0	
6.6.1	win	2023-06-01	23:53:18	00:03:15	595479	63d44472a72a227e0fef6bdc	3	1	main_z	11	advance_on_keypress_ZEE	72	stimuli_distractor_diamondtriangles.svg	stimuli_distractor_trianglediamonds.svg	38	no	57	0	254	0	0			0	0			1				0	
6.6.1	win	2023-06-01	23:53:18	00:03:16	596869	63d44472a72a227e0fef6bdc	3	1	main_z	11	main_z	73	stimuli_distractor_diamondtriangles.svg	stimuli_target_diamondsquares.svg	32	yes	44	1	491	0	0			0	0			1				0	
6.6.1	win	2023-06-01	23:53:18	00:03:16	596869	63d44472a72a227e0fef6bdc	3	1	main_z	11	advance_on_keypress_ZEE	74	stimuli_distractor_diamondtriangles.svg	stimuli_target_diamondsquares.svg	32	yes	57	0	124	0	0			0	0			1				0	
6.6.1	win	2023-06-01	23:53:18	00:03:17	598054	63d44472a72a227e0fef6bdc	3	1	main_z	11	main_z	75	stimuli_target_diamondrectangles.svg	stimuli_distractor_diamondtriangles.svg	23	yes	44	1	425	0	0			0	0			1				0	
6.6.1	win	2023-06-01	23:53:18	00:03:17	598054	63d44472a72a227e0fef6bdc	3	1	main_z	11	advance_on_keypress_ZEE	76	stimuli_target_diamondrectangles.svg	stimuli_distractor_diamondtriangles.svg	23	yes	57	0	164	0	0			0	0			1				0	
6.6.1	win	2023-06-01	23:53:18	00:03:19	599248	63d44472a72a227e0fef6bdc	3	1	main_z	11	main_z	77	stimuli_distractor_trianglediamonds.svg	stimuli_target_trianglesquares.svg	26	yes	44	1	403	0	0			0	0			1				0	
6.6.1	win	2023-06-01	23:53:18	00:03:19	599248	63d44472a72a227e0fef6bdc	3	1	main_z	11	advance_on_keypress_ZEE	78	stimuli_distractor_trianglediamonds.svg	stimuli_target_trianglesquares.svg	26	yes	57	0	175	0	0			0	0			1				0	
6.6.1	win	2023-06-01	23:53:18	00:03:20	600820	63d44472a72a227e0fef6bdc	3	1	main_z	11	main_z	79	stimuli_distractor_diamondtriangles.svg	stimuli_distractor_diamondtriangles.svg	39	no	44	0	758	0	0			0	0			1				0	
6.6.1	win	2023-06-01	23:53:18	00:03:20	600820	63d44472a72a227e0fef6bdc	3	1	main_z	11	advance_on_keypress_ZEE	80	stimuli_distractor_diamondtriangles.svg	stimuli_distractor_diamondtriangles.svg	39	no	57	0	658	0	0			0	0			1				0	
6.6.1	win	2023-06-01	23:53:18	00:03:22	602591	63d44472a72a227e0fef6bdc	3	1	main_z	11	main_z	81	stimuli_distractor_diamondtriangles.svg	stimuli_target_trianglerectangles.svg	29	yes	44	1	478	0	0			0	0			1				0	
6.6.1	win	2023-06-01	23:53:18	00:03:22	602591	63d44472a72a227e0fef6bdc	3	1	main_z	11	advance_on_keypress_ZEE	82	stimuli_distractor_diamondtriangles.svg	stimuli_target_trianglerectangles.svg	29	yes	57	0	113	0	0			0	0			1				0	
6.6.1	win	2023-06-01	23:53:18	00:03:23	603796	63d44472a72a227e0fef6bdc	3	1	main_z	11	main_z	83	stimuli_target_rectanglediamonds.svg	stimuli_distractor_diamondtriangles.svg	6	yes	44	1	462	0	0			0	0			1				0	
6.6.1	win	2023-06-01	23:53:18	00:03:23	603796	63d44472a72a227e0fef6bdc	3	1	main_z	11	advance_on_keypress_ZEE	84	stimuli_target_rectanglediamonds.svg	stimuli_distractor_diamondtriangles.svg	6	yes	57	0	152	0	0			0	0			1				0	
6.6.1	win	2023-06-01	23:53:18	00:03:24	605001	63d44472a72a227e0fef6bdc	3	1	main_z	11	main_z	85	stimuli_distractor_diamondtriangles.svg	stimuli_target_squarediamonds.svg	16	yes	44	1	406	0	0			0	0			1				0	
6.6.1	win	2023-06-01	23:53:18	00:03:24	605001	63d44472a72a227e0fef6bdc	3	1	main_z	11	advance_on_keypress_ZEE	86	stimuli_distractor_diamondtriangles.svg	stimuli_target_squarediamonds.svg	16	yes	57	0	150	0	0			0	0			1				0	
6.6.1	win	2023-06-01	23:53:18	00:03:27	607795	63d44472a72a227e0fef6bdc	3	1	main_z	11	main_z	87	stimuli_distractor_diamondtriangles.svg	stimuli_distractor_diamondtriangles.svg	39	no	0	1	2000	0	0			0	0			1				0	
6.6.1	win	2023-06-01	23:53:18	00:03:27	607795	63d44472a72a227e0fef6bdc	3	1	main_z	11	advance_on_keypress_ZEE	88	stimuli_distractor_diamondtriangles.svg	stimuli_distractor_diamondtriangles.svg	39	no	57	0	337	0	0			0	0			1				0	
6.6.1	win	2023-06-01	23:53:18	00:03:29	609294	63d44472a72a227e0fef6bdc	3	1	main_z	11	main_z	89	stimuli_distractor_trianglediamonds.svg	stimuli_target_trianglesquares.svg	26	yes	44	1	508	0	0			0	0			1				0	
6.6.1	win	2023-06-01	23:53:18	00:03:29	609294	63d44472a72a227e0fef6bdc	3	1	main_z	11	advance_on_keypress_ZEE	90	stimuli_distractor_trianglediamonds.svg	stimuli_target_trianglesquares.svg	26	yes	57	0	129	0	0			0	0			1				0	
6.6.1	win	2023-06-01	23:53:18	00:03:30	610593	63d44472a72a227e0fef6bdc	3	1	main_z	11	main_z	91	stimuli_target_diamondsquares.svg	stimuli_distractor_trianglediamonds.svg	20	yes	44	1	532	0	0			0	0			1				0	
6.6.1	win	2023-06-01	23:53:18	00:03:30	610593	63d44472a72a227e0fef6bdc	3	1	main_z	11	advance_on_keypress_ZEE	92	stimuli_target_diamondsquares.svg	stimuli_distractor_trianglediamonds.svg	20	yes	57	0	145	0	0			0	0			1				0	
6.6.1	win	2023-06-01	23:53:18	00:03:31	611788	63d44472a72a227e0fef6bdc	3	1	main_z	11	main_z	93	stimuli_distractor_diamondtriangles.svg	stimuli_target_rectanglediamonds.svg	14	yes	44	1	410	0	0			0	0			1				0	
6.6.1	win	2023-06-01	23:53:18	00:03:31	611788	63d44472a72a227e0fef6bdc	3	1	main_z	11	advance_on_keypress_ZEE	94	stimuli_distractor_diamondtriangles.svg	stimuli_target_rectanglediamonds.svg	14	yes	57	0	136	0	0			0	0			1				0	
6.6.1	win	2023-06-01	23:53:18	00:03:32	612922	63d44472a72a227e0fef6bdc	3	1	main_z	11	main_z	95	stimuli_distractor_diamondtriangles.svg	stimuli_target_rectangletriangles.svg	13	yes	44	1	361	0	0			0	0			1				0	
6.6.1	win	2023-06-01	23:53:18	00:03:32	612922	63d44472a72a227e0fef6bdc	3	1	main_z	11	advance_on_keypress_ZEE	96	stimuli_distractor_diamondtriangles.svg	stimuli_target_rectangletriangles.svg	13	yes	57	0	158	0	0			0	0			1				0	
6.6.1	win	2023-06-01	23:53:18	00:03:35	615712	63d44472a72a227e0fef6bdc	3	1	main_z	11	main_z	97	stimuli_distractor_trianglediamonds.svg	stimuli_distractor_trianglediamonds.svg	34	no	0	1	2000	0	0			0	0			1				0	
6.6.1	win	2023-06-01	23:53:18	00:03:35	615712	63d44472a72a227e0fef6bdc	3	1	main_z	11	advance_on_keypress_ZEE	98	stimuli_distractor_trianglediamonds.svg	stimuli_distractor_trianglediamonds.svg	34	no	57	0	281	0	0			0	0			1				0	
6.6.1	win	2023-06-01	23:53:18	00:03:36	617080	63d44472a72a227e0fef6bdc	3	1	main_z	11	main_z	99	stimuli_distractor_trianglediamonds.svg	stimuli_target_rectangletriangles.svg	9	yes	44	1	452	0	0			0	0			1				0	
6.6.1	win	2023-06-01	23:53:18	00:03:36	617080	63d44472a72a227e0fef6bdc	3	1	main_z	11	advance_on_keypress_ZEE	100	stimuli_distractor_trianglediamonds.svg	stimuli_target_rectangletriangles.svg	9	yes	57	0	162	0	0			0	0			1				0	
6.6.1	win	2023-06-01	23:53:18	00:03:38	618265	63d44472a72a227e0fef6bdc	3	1	main_z	11	main_z	101	stimuli_distractor_trianglediamonds.svg	stimuli_target_squarediamonds.svg	12	yes	44	1	383	0	0			0	0			1				0	
6.6.1	win	2023-06-01	23:53:18	00:03:38	618265	63d44472a72a227e0fef6bdc	3	1	main_z	11	advance_on_keypress_ZEE	102	stimuli_distractor_trianglediamonds.svg	stimuli_target_squarediamonds.svg	12	yes	57	0	177	0	0			0	0			1				0	
6.6.1	win	2023-06-01	23:53:18	00:03:39	619642	63d44472a72a227e0fef6bdc	3	1	main_z	11	main_z	103	stimuli_target_trianglesquares.svg	stimuli_distractor_trianglediamonds.svg	18	yes	44	1	564	0	0			0	0			1				0	
6.6.1	win	2023-06-01	23:53:18	00:03:39	619642	63d44472a72a227e0fef6bdc	3	1	main_z	11	advance_on_keypress_ZEE	104	stimuli_target_trianglesquares.svg	stimuli_distractor_trianglediamonds.svg	18	yes	57	0	141	0	0			0	0			1				0	
6.6.1	win	2023-06-01	23:53:18	00:03:40	620997	63d44472a72a227e0fef6bdc	3	1	main_z	11	main_z	105	stimuli_target_trianglerectangles.svg	stimuli_distractor_diamondtriangles.svg	21	yes	44	1	586	0	0			0	0			1				0	
6.6.1	win	2023-06-01	23:53:18	00:03:40	620997	63d44472a72a227e0fef6bdc	3	1	main_z	11	advance_on_keypress_ZEE	106	stimuli_target_trianglerectangles.svg	stimuli_distractor_diamondtriangles.svg	21	yes	57	0	161	0	0			0	0			1				0	
6.6.1	win	2023-06-01	23:53:18	00:03:42	622229	63d44472a72a227e0fef6bdc	3	1	main_z	11	main_z	107	stimuli_target_squarediamonds.svg	stimuli_distractor_trianglediamonds.svg	4	yes	44	1	433	0	0			0	0			1				0	
6.6.1	win	2023-06-01	23:53:18	00:03:42	622229	63d44472a72a227e0fef6bdc	3	1	main_z	11	advance_on_keypress_ZEE	108	stimuli_target_squarediamonds.svg	stimuli_distractor_trianglediamonds.svg	4	yes	57	0	147	0	0			0	0			1				0	
6.6.1	win	2023-06-01	23:53:18	00:03:44	625012	63d44472a72a227e0fef6bdc	3	1	main_z	11	main_z	109	stimuli_distractor_diamondtriangles.svg	stimuli_distractor_trianglediamonds.svg	37	no	0	1	2000	0	0			0	0			1				0	
6.6.1	win	2023-06-01	23:53:18	00:03:44	625012	63d44472a72a227e0fef6bdc	3	1	main_z	11	advance_on_keypress_ZEE	110	stimuli_distractor_diamondtriangles.svg	stimuli_distractor_trianglediamonds.svg	37	no	57	0	253	0	0			0	0			1				0	
6.6.1	win	2023-06-01	23:53:18	00:03:46	626371	63d44472a72a227e0fef6bdc	3	1	main_z	11	main_z	111	stimuli_distractor_trianglediamonds.svg	stimuli_target_trianglerectangles.svg	25	yes	44	1	460	0	0			0	0			1				0	
6.6.1	win	2023-06-01	23:53:18	00:03:46	626371	63d44472a72a227e0fef6bdc	3	1	main_z	11	advance_on_keypress_ZEE	112	stimuli_distractor_trianglediamonds.svg	stimuli_target_trianglerectangles.svg	25	yes	57	0	121	0	0			0	0			1				0	
6.6.1	win	2023-06-01	23:53:18	00:03:47	627546	63d44472a72a227e0fef6bdc	3	1	main_z	11	main_z	113	stimuli_target_squarediamonds.svg	stimuli_distractor_diamondtriangles.svg	8	yes	44	1	418	0	0			0	0			1				0	
6.6.1	win	2023-06-01	23:53:18	00:03:47	627546	63d44472a72a227e0fef6bdc	3	1	main_z	11	advance_on_keypress_ZEE	114	stimuli_target_squarediamonds.svg	stimuli_distractor_diamondtriangles.svg	8	yes	57	0	145	0	0			0	0			1				0	
6.6.1	win	2023-06-01	23:53:18	00:03:48	628711	63d44472a72a227e0fef6bdc	3	1	main_z	11	main_z	115	stimuli_target_rectangletriangles.svg	stimuli_distractor_diamondtriangles.svg	5	yes	44	1	376	0	0			0	0			1				0	
6.6.1	win	2023-06-01	23:53:18	00:03:48	628711	63d44472a72a227e0fef6bdc	3	1	main_z	11	advance_on_keypress_ZEE	116	stimuli_target_rectangletriangles.svg	stimuli_distractor_diamondtriangles.svg	5	yes	57	0	143	0	0			0	0			1				0	
6.6.1	win	2023-06-01	23:53:18	00:03:50	630250	63d44472a72a227e0fef6bdc	3	1	main_z	11	main_z	117	stimuli_target_diamondrectangles.svg	stimuli_distractor_trianglediamonds.svg	19	yes	44	1	756	0	0			0	0			1				0	
6.6.1	win	2023-06-01	23:53:18	00:03:50	630250	63d44472a72a227e0fef6bdc	3	1	main_z	11	advance_on_keypress_ZEE	118	stimuli_target_diamondrectangles.svg	stimuli_distractor_trianglediamonds.svg	19	yes	57	0	144	0	0			0	0			1				0	
6.6.1	win	2023-06-01	23:53:18	00:03:51	631513	63d44472a72a227e0fef6bdc	3	1	main_z	11	main_z	119	stimuli_target_diamondsquares.svg	stimuli_distractor_diamondtriangles.svg	24	yes	44	1	485	0	0			0	0			1				0	
6.6.1	win	2023-06-01	23:53:18	00:03:51	631513	63d44472a72a227e0fef6bdc	3	1	main_z	11	advance_on_keypress_ZEE	120	stimuli_target_diamondsquares.svg	stimuli_distractor_diamondtriangles.svg	24	yes	57	0	95	0	0			0	0			1				0	
6.6.1	win	2023-06-01	23:53:18	00:03:52	632627	63d44472a72a227e0fef6bdc	3	1	main_z	11	main_z	121	stimuli_target_rectangletriangles.svg	stimuli_distractor_trianglediamonds.svg	1	yes	44	1	369	0	0			0	0			1				0	
6.6.1	win	2023-06-01	23:53:18	00:03:52	632627	63d44472a72a227e0fef6bdc	3	1	main_z	11	advance_on_keypress_ZEE	122	stimuli_target_rectangletriangles.svg	stimuli_distractor_trianglediamonds.svg	1	yes	57	0	97	0	0			0	0			1				0	
6.6.1	win	2023-06-01	23:53:18	00:03:53	633750	63d44472a72a227e0fef6bdc	3	1	main_z	11	main_z	123	stimuli_distractor_diamondtriangles.svg	stimuli_target_diamondsquares.svg	32	yes	44	1	389	0	0			0	0			1				0	
6.6.1	win	2023-06-01	23:53:18	00:03:53	633750	63d44472a72a227e0fef6bdc	3	1	main_z	11	advance_on_keypress_ZEE	124	stimuli_distractor_diamondtriangles.svg	stimuli_target_diamondsquares.svg	32	yes	57	0	151	0	0			0	0			1				0	
6.6.1	win	2023-06-01	23:53:18	00:03:56	636545	63d44472a72a227e0fef6bdc	3	1	main_z	11	main_z	125	stimuli_distractor_trianglediamonds.svg	stimuli_distractor_diamondtriangles.svg	36	no	0	1	2000	0	0			0	0			1				0	
6.6.1	win	2023-06-01	23:53:18	00:03:56	636545	63d44472a72a227e0fef6bdc	3	1	main_z	11	advance_on_keypress_ZEE	126	stimuli_distractor_trianglediamonds.svg	stimuli_distractor_diamondtriangles.svg	36	no	57	0	418	0	0			0	0			1				0	
6.6.1	win	2023-06-01	23:53:18	00:03:57	638018	63d44472a72a227e0fef6bdc	3	1	main_z	11	main_z	127	stimuli_target_squaretriangles.svg	stimuli_distractor_trianglediamonds.svg	3	yes	44	1	407	0	0			0	0			1				0	
6.6.1	win	2023-06-01	23:53:18	00:03:57	638018	63d44472a72a227e0fef6bdc	3	1	main_z	11	advance_on_keypress_ZEE	128	stimuli_target_squaretriangles.svg	stimuli_distractor_trianglediamonds.svg	3	yes	57	0	102	0	0			0	0			1				0	
6.6.1	win	2023-06-01	23:53:18	00:03:59	639144	63d44472a72a227e0fef6bdc	3	1	main_z	11	main_z	129	stimuli_target_rectanglediamonds.svg	stimuli_distractor_trianglediamonds.svg	2	yes	44	1	377	0	0			0	0			1				0	
6.6.1	win	2023-06-01	23:53:18	00:03:59	639144	63d44472a72a227e0fef6bdc	3	1	main_z	11	advance_on_keypress_ZEE	130	stimuli_target_rectanglediamonds.svg	stimuli_distractor_trianglediamonds.svg	2	yes	57	0	83	0	0			0	0			1				0	
6.6.1	win	2023-06-01	23:53:18	00:04:00	640319	63d44472a72a227e0fef6bdc	3	1	main_z	11	main_z	131	stimuli_target_trianglerectangles.svg	stimuli_distractor_trianglediamonds.svg	17	yes	44	1	425	0	0			0	0			1				0	
6.6.1	win	2023-06-01	23:53:18	00:04:00	640319	63d44472a72a227e0fef6bdc	3	1	main_z	11	advance_on_keypress_ZEE	132	stimuli_target_trianglerectangles.svg	stimuli_distractor_trianglediamonds.svg	17	yes	57	0	113	0	0			0	0			1				0	
6.6.1	win	2023-06-01	23:53:18	00:04:01	641523	63d44472a72a227e0fef6bdc	3	1	main_z	11	main_z	133	stimuli_distractor_trianglediamonds.svg	stimuli_target_squaretriangles.svg	11	yes	44	1	462	0	0			0	0			1				0	
6.6.1	win	2023-06-01	23:53:18	00:04:01	641523	63d44472a72a227e0fef6bdc	3	1	main_z	11	advance_on_keypress_ZEE	134	stimuli_distractor_trianglediamonds.svg	stimuli_target_squaretriangles.svg	11	yes	57	0	110	0	0			0	0			1				0	
6.6.1	win	2023-06-01	23:53:18	00:04:02	642673	63d44472a72a227e0fef6bdc	3	1	main_z	11	main_z	135	stimuli_distractor_trianglediamonds.svg	stimuli_distractor_trianglediamonds.svg	33	no	44	0	412	0	0			0	0			1				0	
6.6.1	win	2023-06-01	23:53:18	00:04:02	642673	63d44472a72a227e0fef6bdc	3	1	main_z	11	advance_on_keypress_ZEE	136	stimuli_distractor_trianglediamonds.svg	stimuli_distractor_trianglediamonds.svg	33	no	57	0	567	0	0			0	0			1				0	
6.6.1	win	2023-06-01	23:53:18	00:04:05	645878	63d44472a72a227e0fef6bdc	3	1	main_z	11	main_z	137	stimuli_distractor_trianglediamonds.svg	stimuli_distractor_diamondtriangles.svg	35	no	0	1	2000	0	0			0	0			1				0	
6.6.1	win	2023-06-01	23:53:18	00:04:05	645878	63d44472a72a227e0fef6bdc	3	1	main_z	11	advance_on_keypress_ZEE	138	stimuli_distractor_trianglediamonds.svg	stimuli_distractor_diamondtriangles.svg	35	no	57	0	269	0	0			0	0			1				0	
6.6.1	win	2023-06-01	23:53:18	00:04:07	647206	63d44472a72a227e0fef6bdc	3	1	main_z	11	main_z	139	stimuli_distractor_diamondtriangles.svg	stimuli_target_diamondrectangles.svg	31	yes	44	1	412	0	0			0	0			1				0	
6.6.1	win	2023-06-01	23:53:18	00:04:07	647206	63d44472a72a227e0fef6bdc	3	1	main_z	11	advance_on_keypress_ZEE	140	stimuli_distractor_diamondtriangles.svg	stimuli_target_diamondrectangles.svg	31	yes	57	0	107	0	0			0	0			1				0	
6.6.1	win	2023-06-01	23:53:18	00:04:09	649944	63d44472a72a227e0fef6bdc	3	1	main_z	11	main_z	141	stimuli_distractor_diamondtriangles.svg	stimuli_distractor_diamondtriangles.svg	40	no	0	1	2000	0	0			0	0			1				0	
6.6.1	win	2023-06-01	23:53:18	00:04:09	649944	63d44472a72a227e0fef6bdc	3	1	main_z	11	advance_on_keypress_ZEE	142	stimuli_distractor_diamondtriangles.svg	stimuli_distractor_diamondtriangles.svg	40	no	57	0	328	0	0			0	0			1				0	
6.6.1	win	2023-06-01	23:53:18	00:04:11	651373	63d44472a72a227e0fef6bdc	3	1	main_z	11	main_z	143	stimuli_target_trianglesquares.svg	stimuli_distractor_diamondtriangles.svg	22	yes	44	1	429	0	0			0	0			1				0	
6.6.1	win	2023-06-01	23:53:18	00:04:11	651373	63d44472a72a227e0fef6bdc	3	1	main_z	11	advance_on_keypress_ZEE	144	stimuli_target_trianglesquares.svg	stimuli_distractor_diamondtriangles.svg	22	yes	57	0	85	0	0			0	0			1				0	
6.6.1	win	2023-06-01	23:53:18	00:04:12	652564	63d44472a72a227e0fef6bdc	3	1	main_z	11	main_z	145	stimuli_target_diamondrectangles.svg	stimuli_distractor_diamondtriangles.svg	23	yes	44	1	470	0	0			0	0			1				0	
6.6.1	win	2023-06-01	23:53:18	00:04:12	652564	63d44472a72a227e0fef6bdc	3	1	main_z	11	advance_on_keypress_ZEE	146	stimuli_target_diamondrectangles.svg	stimuli_distractor_diamondtriangles.svg	23	yes	57	0	105	0	0			0	0			1				0	
6.6.1	win	2023-06-01	23:53:18	00:04:13	653742	63d44472a72a227e0fef6bdc	3	1	main_z	11	main_z	147	stimuli_target_squaretriangles.svg	stimuli_distractor_diamondtriangles.svg	7	yes	44	1	432	0	0			0	0			1				0	
6.6.1	win	2023-06-01	23:53:18	00:04:13	653742	63d44472a72a227e0fef6bdc	3	1	main_z	11	advance_on_keypress_ZEE	148	stimuli_target_squaretriangles.svg	stimuli_distractor_diamondtriangles.svg	7	yes	57	0	96	0	0			0	0			1				0	
6.6.1	win	2023-06-01	23:53:18	00:04:14	655035	63d44472a72a227e0fef6bdc	3	1	main_z	11	main_z	149	stimuli_distractor_diamondtriangles.svg	stimuli_target_squaretriangles.svg	15	yes	44	1	557	0	0			0	0			1				0	
6.6.1	win	2023-06-01	23:53:18	00:04:14	655035	63d44472a72a227e0fef6bdc	3	1	main_z	11	advance_on_keypress_ZEE	150	stimuli_distractor_diamondtriangles.svg	stimuli_target_squaretriangles.svg	15	yes	57	0	113	0	0			0	0			1				0	
6.6.1	win	2023-06-01	23:53:18	00:04:16	656174	63d44472a72a227e0fef6bdc	3	1	main_z	11	main_z	151	stimuli_distractor_trianglediamonds.svg	stimuli_target_rectanglediamonds.svg	10	yes	44	1	397	0	0			0	0			1				0	
6.6.1	win	2023-06-01	23:53:18	00:04:16	656174	63d44472a72a227e0fef6bdc	3	1	main_z	11	advance_on_keypress_ZEE	152	stimuli_distractor_trianglediamonds.svg	stimuli_target_rectanglediamonds.svg	10	yes	57	0	144	0	0			0	0			1				0	
6.6.1	win	2023-06-01	23:53:18	00:04:17	657528	63d44472a72a227e0fef6bdc	3	1	main_z	11	main_z	153	stimuli_distractor_trianglediamonds.svg	stimuli_target_diamondrectangles.svg	27	yes	44	1	583	0	0			0	0			1				0	
6.6.1	win	2023-06-01	23:53:18	00:04:17	657528	63d44472a72a227e0fef6bdc	3	1	main_z	11	advance_on_keypress_ZEE	154	stimuli_distractor_trianglediamonds.svg	stimuli_target_diamondrectangles.svg	27	yes	57	0	255	0	0			0	0			1				0	
6.6.1	win	2023-06-01	23:53:18	00:04:20	660428	63d44472a72a227e0fef6bdc	3	1	main_z	11	main_z	155	stimuli_distractor_diamondtriangles.svg	stimuli_distractor_trianglediamonds.svg	38	no	0	1	2000	0	0			0	0			1				0	
6.6.1	win	2023-06-01	23:53:18	00:04:20	660428	63d44472a72a227e0fef6bdc	3	1	main_z	11	advance_on_keypress_ZEE	156	stimuli_distractor_diamondtriangles.svg	stimuli_distractor_trianglediamonds.svg	38	no	57	0	270	0	0			0	0			1				0	
6.6.1	win	2023-06-01	23:53:18	00:04:21	661826	63d44472a72a227e0fef6bdc	3	1	main_z	11	main_z	157	stimuli_distractor_trianglediamonds.svg	stimuli_target_diamondsquares.svg	28	yes	44	1	483	0	0			0	0			1				0	
6.6.1	win	2023-06-01	23:53:18	00:04:21	661826	63d44472a72a227e0fef6bdc	3	1	main_z	11	advance_on_keypress_ZEE	158	stimuli_distractor_trianglediamonds.svg	stimuli_target_diamondsquares.svg	28	yes	57	0	72	0	0			0	0			1				0	
6.6.1	win	2023-06-01	23:53:18	00:04:22	663034	63d44472a72a227e0fef6bdc	3	1	main_z	11	main_z	159	stimuli_distractor_diamondtriangles.svg	stimuli_target_trianglesquares.svg	30	yes	44	1	491	0	0			0	0			1				0	
6.6.1	win	2023-06-01	23:53:18	00:04:22	663034	63d44472a72a227e0fef6bdc	3	1	main_z	11	advance_on_keypress_ZEE	160	stimuli_distractor_diamondtriangles.svg	stimuli_target_trianglesquares.svg	30	yes	57	0	109	0	0			0	0			1				0	
6.6.1	win	2023-06-01	23:53:18	00:04:22	663034	63d44472a72a227e0fef6bdc	3	1	headphonecheck_calibration	14	headphonecheck_calibrationIntro	1	stimuli_distractor_diamondtriangles.svg	stimuli_target_trianglesquares.svg	30	yes	calibrationButton	0	4905	0	0			0	0			1				0	
6.6.1	win	2023-06-01	23:53:18	00:04:22	663034	63d44472a72a227e0fef6bdc	3	1	headphonecheck_testphase	15	test_collectResponse	3	stimuli_distractor_diamondtriangles.svg	stimuli_target_trianglesquares.svg	30	yes	second	1	193	1	5	antiphase_hc_osi.wav	2	0	0			1				0	
6.6.1	win	2023-06-01	23:53:18	00:04:22	663034	63d44472a72a227e0fef6bdc	3	1	headphonecheck_testphase	15	test_collectResponse	6	stimuli_distractor_diamondtriangles.svg	stimuli_target_trianglesquares.svg	30	yes	third	1	720	2	6	antiphase_hc_ois.wav	3	0	0			1				0	
6.6.1	win	2023-06-01	23:53:18	00:04:22	663034	63d44472a72a227e0fef6bdc	3	1	headphonecheck_testphase	15	test_collectResponse	9	stimuli_distractor_diamondtriangles.svg	stimuli_target_trianglesquares.svg	30	yes	second	1	162	3	1	antiphase_hc_iso.wav	2	0	0			1				0	
6.6.1	win	2023-06-01	23:53:18	00:04:22	663034	63d44472a72a227e0fef6bdc	3	1	headphonecheck_testphase	15	test_collectResponse	12	stimuli_distractor_diamondtriangles.svg	stimuli_target_trianglesquares.svg	30	yes	first	1	289	4	3	antiphase_hc_soi.wav	1	0	0			1				0	
6.6.1	win	2023-06-01	23:53:18	00:04:22	663034	63d44472a72a227e0fef6bdc	3	1	headphonecheck_testphase	15	test_collectResponse	15	stimuli_distractor_diamondtriangles.svg	stimuli_target_trianglesquares.svg	30	yes	first	1	315	5	4	antiphase_hc_sio.wav	1	0	0			1				0	
6.6.1	win	2023-06-01	23:53:18	00:04:22	663034	63d44472a72a227e0fef6bdc	3	1	headphonecheck_testphase	15	test_collectResponse	18	stimuli_distractor_diamondtriangles.svg	stimuli_target_trianglesquares.svg	30	yes	third	1	333	6	2	antiphase_hc_ios.wav	3	0	0			1				0	
6.6.1	win	2023-06-01	23:53:18	00:04:22	663034	63d44472a72a227e0fef6bdc	3	1	stereocheck_calibration	17	stereocheck_calibrationIntro	1	stimuli_distractor_diamondtriangles.svg	stimuli_target_trianglesquares.svg	30	yes	stereocheck_calibrationButton	0	3353	6	2	antiphase_hc_ios.wav	3	0	0			1				0	
6.6.1	win	2023-06-01	23:53:18	00:04:22	663034	63d44472a72a227e0fef6bdc	3	1	stereocheck_testphase	18	stereocheck_test_collectResponse	3	stimuli_distractor_diamondtriangles.svg	stimuli_target_trianglesquares.svg	30	yes	stereocheck_left	1	253	6	2	antiphase_hc_ios.wav	3	1	1	noise_calib_stim_LEFT.wav	1	1				0	
6.6.1	win	2023-06-01	23:53:18	00:04:22	663034	63d44472a72a227e0fef6bdc	3	1	stereocheck_testphase	18	stereocheck_test_collectResponse	6	stimuli_distractor_diamondtriangles.svg	stimuli_target_trianglesquares.svg	30	yes	stereocheck_left	1	279	6	2	antiphase_hc_ios.wav	3	2	3	noise_calib_stim_LEFT.wav	1	1				0	
6.6.1	win	2023-06-01	23:53:18	00:04:22	663034	63d44472a72a227e0fef6bdc	3	1	stereocheck_testphase	18	stereocheck_test_collectResponse	9	stimuli_distractor_diamondtriangles.svg	stimuli_target_trianglesquares.svg	30	yes	stereocheck_right	1	237	6	2	antiphase_hc_ios.wav	3	3	4	noise_calib_stim_RIGHT.wav	2	1				0	
6.6.1	win	2023-06-01	23:53:18	00:04:22	663034	63d44472a72a227e0fef6bdc	3	1	stereocheck_testphase	18	stereocheck_test_collectResponse	12	stimuli_distractor_diamondtriangles.svg	stimuli_target_trianglesquares.svg	30	yes	stereocheck_right	1	285	6	2	antiphase_hc_ios.wav	3	4	5	noise_calib_stim_RIGHT.wav	2	1				0	
6.6.1	win	2023-06-01	23:53:18	00:04:22	663034	63d44472a72a227e0fef6bdc	3	1	stereocheck_testphase	18	stereocheck_test_collectResponse	15	stimuli_distractor_diamondtriangles.svg	stimuli_target_trianglesquares.svg	30	yes	stereocheck_left	1	252	6	2	antiphase_hc_ios.wav	3	5	2	noise_calib_stim_LEFT.wav	1	1				0	
6.6.1	win	2023-06-01	23:53:18	00:04:22	663034	63d44472a72a227e0fef6bdc	3	1	stereocheck_testphase	18	stereocheck_test_collectResponse	18	stimuli_distractor_diamondtriangles.svg	stimuli_target_trianglesquares.svg	30	yes	stereocheck_right	1	297	6	2	antiphase_hc_ios.wav	3	6	6	noise_calib_stim_RIGHT.wav	2	1				0	
6.6.1	win	2023-06-01	23:53:18	00:04:22	663034	63d44472a72a227e0fef6bdc	3	1	DL_practice	21	DL_practice	2	stimuli_distractor_diamondtriangles.svg	stimuli_target_trianglesquares.svg	30	yes	ga	1	1376	6	2	antiphase_hc_ios.wav	3	6	6	noise_calib_stim_RIGHT.wav	2	18	blb_dichoticlistening_ga-ta.mp3	ga	ta	1	left
6.6.1	win	2023-06-01	23:53:18	00:04:22	663034	63d44472a72a227e0fef6bdc	3	1	DL_practice	21	DL_practice	3	stimuli_distractor_diamondtriangles.svg	stimuli_target_trianglesquares.svg	30	yes	pa	1	721	6	2	antiphase_hc_ios.wav	3	6	6	noise_calib_stim_RIGHT.wav	2	29	blb_dichoticlistening_pa-pa.mp3	pa	pa	0	left
6.6.1	win	2023-06-01	23:53:18	00:04:22	663034	63d44472a72a227e0fef6bdc	3	1	DL_practice	21	DL_practice	4	stimuli_distractor_diamondtriangles.svg	stimuli_target_trianglesquares.svg	30	yes	ka	1	920	6	2	antiphase_hc_ios.wav	3	6	6	noise_calib_stim_RIGHT.wav	2	22	blb_dichoticlistening_ka-ka.mp3	ka	ka	0	left
6.6.1	win	2023-06-01	23:53:18	00:04:22	663034	63d44472a72a227e0fef6bdc	3	1	DL_practice	21	DL_practice	5	stimuli_distractor_diamondtriangles.svg	stimuli_target_trianglesquares.svg	30	yes	da	1	1197	6	2	antiphase_hc_ios.wav	3	6	6	noise_calib_stim_RIGHT.wav	2	7	blb_dichoticlistening_da-ba.mp3	da	ba	1	left
6.6.1	win	2023-06-01	23:53:18	00:04:22	663034	63d44472a72a227e0fef6bdc	3	1	DL_practice	21	DL_practice	6	stimuli_distractor_diamondtriangles.svg	stimuli_target_trianglesquares.svg	30	yes	da	1	959	6	2	antiphase_hc_ios.wav	3	6	6	noise_calib_stim_RIGHT.wav	2	8	blb_dichoticlistening_da-da.mp3	da	da	0	left
6.6.1	win	2023-06-01	23:53:18	00:04:22	663034	63d44472a72a227e0fef6bdc	3	1	DL_practice	21	DL_practice	7	stimuli_distractor_diamondtriangles.svg	stimuli_target_trianglesquares.svg	30	yes	ta	0	1803	6	2	antiphase_hc_ios.wav	3	6	6	noise_calib_stim_RIGHT.wav	2	23	blb_dichoticlistening_ka-pa.mp3	ka	pa	1	other
6.6.1	win	2023-06-01	23:53:18	00:04:22	663034	63d44472a72a227e0fef6bdc	3	1	DL_practice	21	DL_practice	8	stimuli_distractor_diamondtriangles.svg	stimuli_target_trianglesquares.svg	30	yes	ta	1	833	6	2	antiphase_hc_ios.wav	3	6	6	noise_calib_stim_RIGHT.wav	2	36	blb_dichoticlistening_ta-ta.mp3	ta	ta	0	left
6.6.1	win	2023-06-01	23:53:18	00:04:22	663034	63d44472a72a227e0fef6bdc	3	1	DL_practice	21	DL_practice	9	stimuli_distractor_diamondtriangles.svg	stimuli_target_trianglesquares.svg	30	yes	ba	1	1480	6	2	antiphase_hc_ios.wav	3	6	6	noise_calib_stim_RIGHT.wav	2	1	blb_dichoticlistening_ba-ba.mp3	ba	ba	0	left
6.6.1	win	2023-06-01	23:53:18	00:04:22	663034	63d44472a72a227e0fef6bdc	3	1	DL_practice	21	DL_practice	10	stimuli_distractor_diamondtriangles.svg	stimuli_target_trianglesquares.svg	30	yes	ga	1	854	6	2	antiphase_hc_ios.wav	3	6	6	noise_calib_stim_RIGHT.wav	2	15	blb_dichoticlistening_ga-ga.mp3	ga	ga	0	left
6.6.1	win	2023-06-01	23:53:18	00:04:22	663034	63d44472a72a227e0fef6bdc	3	1	DL_test	23	DL_test	1	stimuli_distractor_diamondtriangles.svg	stimuli_target_trianglesquares.svg	30	yes	pa	1	1042	6	2	antiphase_hc_ios.wav	3	6	6	noise_calib_stim_RIGHT.wav	2	17	blb_dichoticlistening_ga-pa.mp3	ga	pa	1	right
6.6.1	win	2023-06-01	23:53:18	00:04:22	663034	63d44472a72a227e0fef6bdc	3	1	DL_test	23	DL_test	2	stimuli_distractor_diamondtriangles.svg	stimuli_target_trianglesquares.svg	30	yes	da	1	933	6	2	antiphase_hc_ios.wav	3	6	6	noise_calib_stim_RIGHT.wav	2	9	blb_dichoticlistening_da-ga.mp3	da	ga	1	left
6.6.1	win	2023-06-01	23:53:18	00:04:22	663034	63d44472a72a227e0fef6bdc	3	1	DL_test	23	DL_test	3	stimuli_distractor_diamondtriangles.svg	stimuli_target_trianglesquares.svg	30	yes	da	1	913	6	2	antiphase_hc_ios.wav	3	6	6	noise_calib_stim_RIGHT.wav	2	8	blb_dichoticlistening_da-da.mp3	da	da	0	left
6.6.1	win	2023-06-01	23:53:18	00:04:22	663034	63d44472a72a227e0fef6bdc	3	1	DL_test	23	DL_test	4	stimuli_distractor_diamondtriangles.svg	stimuli_target_trianglesquares.svg	30	yes	ta	1	1113	6	2	antiphase_hc_ios.wav	3	6	6	noise_calib_stim_RIGHT.wav	2	33	blb_dichoticlistening_ta-ga.mp3	ta	ga	1	left
6.6.1	win	2023-06-01	23:53:18	00:04:22	663034	63d44472a72a227e0fef6bdc	3	1	DL_test	23	DL_test	5	stimuli_distractor_diamondtriangles.svg	stimuli_target_trianglesquares.svg	30	yes	ba	1	1011	6	2	antiphase_hc_ios.wav	3	6	6	noise_calib_stim_RIGHT.wav	2	1	blb_dichoticlistening_ba-ba.mp3	ba	ba	0	left
6.6.1	win	2023-06-01	23:53:18	00:04:22	663034	63d44472a72a227e0fef6bdc	3	1	DL_test	23	DL_test	6	stimuli_distractor_diamondtriangles.svg	stimuli_target_trianglesquares.svg	30	yes	ka	1	1174	6	2	antiphase_hc_ios.wav	3	6	6	noise_calib_stim_RIGHT.wav	2	28	blb_dichoticlistening_pa-ka.mp3	pa	ka	1	right
6.6.1	win	2023-06-01	23:53:18	00:04:22	663034	63d44472a72a227e0fef6bdc	3	1	DL_test	23	DL_test	7	stimuli_distractor_diamondtriangles.svg	stimuli_target_trianglesquares.svg	30	yes	ka	1	901	6	2	antiphase_hc_ios.wav	3	6	6	noise_calib_stim_RIGHT.wav	2	16	blb_dichoticlistening_ga-ka.mp3	ga	ka	1	right
6.6.1	win	2023-06-01	23:53:18	00:04:22	663034	63d44472a72a227e0fef6bdc	3	1	DL_test	23	DL_test	8	stimuli_distractor_diamondtriangles.svg	stimuli_target_trianglesquares.svg	30	yes	ta	0	1354	6	2	antiphase_hc_ios.wav	3	6	6	noise_calib_stim_RIGHT.wav	2	23	blb_dichoticlistening_ka-pa.mp3	ka	pa	1	other
6.6.1	win	2023-06-01	23:53:18	00:04:22	663034	63d44472a72a227e0fef6bdc	3	1	DL_test	23	DL_test	9	stimuli_distractor_diamondtriangles.svg	stimuli_target_trianglesquares.svg	30	yes	ka	1	909	6	2	antiphase_hc_ios.wav	3	6	6	noise_calib_stim_RIGHT.wav	2	4	blb_dichoticlistening_ba-ka.mp3	ba	ka	1	right
6.6.1	win	2023-06-01	23:53:18	00:04:22	663034	63d44472a72a227e0fef6bdc	3	1	DL_test	23	DL_test	10	stimuli_distractor_diamondtriangles.svg	stimuli_target_trianglesquares.svg	30	yes	ta	1	1001	6	2	antiphase_hc_ios.wav	3	6	6	noise_calib_stim_RIGHT.wav	2	36	blb_dichoticlistening_ta-ta.mp3	ta	ta	0	left
6.6.1	win	2023-06-01	23:53:18	00:04:22	663034	63d44472a72a227e0fef6bdc	3	1	DL_test	23	DL_test	11	stimuli_distractor_diamondtriangles.svg	stimuli_target_trianglesquares.svg	30	yes	ka	1	918	6	2	antiphase_hc_ios.wav	3	6	6	noise_calib_stim_RIGHT.wav	2	21	blb_dichoticlistening_ka-ga.mp3	ka	ga	1	left
6.6.1	win	2023-06-01	23:53:18	00:04:22	663034	63d44472a72a227e0fef6bdc	3	1	DL_test	23	DL_test	12	stimuli_distractor_diamondtriangles.svg	stimuli_target_trianglesquares.svg	30	yes	pa	1	812	6	2	antiphase_hc_ios.wav	3	6	6	noise_calib_stim_RIGHT.wav	2	29	blb_dichoticlistening_pa-pa.mp3	pa	pa	0	left
6.6.1	win	2023-06-01	23:53:18	00:04:22	663034	63d44472a72a227e0fef6bdc	3	1	DL_test	23	DL_test	13	stimuli_distractor_diamondtriangles.svg	stimuli_target_trianglesquares.svg	30	yes	ta	1	946	6	2	antiphase_hc_ios.wav	3	6	6	noise_calib_stim_RIGHT.wav	2	31	blb_dichoticlistening_ta-ba.mp3	ta	ba	1	left
6.6.1	win	2023-06-01	23:53:18	00:04:22	663034	63d44472a72a227e0fef6bdc	3	1	DL_test	23	DL_test	14	stimuli_distractor_diamondtriangles.svg	stimuli_target_trianglesquares.svg	30	yes	da	1	753	6	2	antiphase_hc_ios.wav	3	6	6	noise_calib_stim_RIGHT.wav	2	7	blb_dichoticlistening_da-ba.mp3	da	ba	1	left
6.6.1	win	2023-06-01	23:53:18	00:04:22	663034	63d44472a72a227e0fef6bdc	3	1	DL_test	23	DL_test	15	stimuli_distractor_diamondtriangles.svg	stimuli_target_trianglesquares.svg	30	yes	ta	1	897	6	2	antiphase_hc_ios.wav	3	6	6	noise_calib_stim_RIGHT.wav	2	6	blb_dichoticlistening_ba-ta.mp3	ba	ta	1	right
6.6.1	win	2023-06-01	23:53:18	00:04:22	663034	63d44472a72a227e0fef6bdc	3	1	DL_test	23	DL_test	16	stimuli_distractor_diamondtriangles.svg	stimuli_target_trianglesquares.svg	30	yes	da	1	953	6	2	antiphase_hc_ios.wav	3	6	6	noise_calib_stim_RIGHT.wav	2	14	blb_dichoticlistening_ga-da.mp3	ga	da	1	right
6.6.1	win	2023-06-01	23:53:18	00:04:22	663034	63d44472a72a227e0fef6bdc	3	1	DL_test	23	DL_test	17	stimuli_distractor_diamondtriangles.svg	stimuli_target_trianglesquares.svg	30	yes	ta	1	930	6	2	antiphase_hc_ios.wav	3	6	6	noise_calib_stim_RIGHT.wav	2	32	blb_dichoticlistening_ta-da.mp3	ta	da	1	left
6.6.1	win	2023-06-01	23:53:18	00:04:22	663034	63d44472a72a227e0fef6bdc	3	1	DL_test	23	DL_test	18	stimuli_distractor_diamondtriangles.svg	stimuli_target_trianglesquares.svg	30	yes	ka	0	855	6	2	antiphase_hc_ios.wav	3	6	6	noise_calib_stim_RIGHT.wav	2	18	blb_dichoticlistening_ga-ta.mp3	ga	ta	1	other
6.6.1	win	2023-06-01	23:53:18	00:04:22	663034	63d44472a72a227e0fef6bdc	3	1	DL_test	23	DL_test	19	stimuli_distractor_diamondtriangles.svg	stimuli_target_trianglesquares.svg	30	yes	ga	1	816	6	2	antiphase_hc_ios.wav	3	6	6	noise_calib_stim_RIGHT.wav	2	13	blb_dichoticlistening_ga-ba.mp3	ga	ba	1	left
6.6.1	win	2023-06-01	23:53:18	00:04:22	663034	63d44472a72a227e0fef6bdc	3	1	DL_test	23	DL_test	20	stimuli_distractor_diamondtriangles.svg	stimuli_target_trianglesquares.svg	30	yes	ka	1	1254	6	2	antiphase_hc_ios.wav	3	6	6	noise_calib_stim_RIGHT.wav	2	19	blb_dichoticlistening_ka-ba.mp3	ka	ba	1	left
6.6.1	win	2023-06-01	23:53:18	00:04:22	663034	63d44472a72a227e0fef6bdc	3	1	DL_test	23	DL_test	21	stimuli_distractor_diamondtriangles.svg	stimuli_target_trianglesquares.svg	30	yes	ta	1	903	6	2	antiphase_hc_ios.wav	3	6	6	noise_calib_stim_RIGHT.wav	2	35	blb_dichoticlistening_ta-pa.mp3	ta	pa	1	left
6.6.1	win	2023-06-01	23:53:18	00:04:22	663034	63d44472a72a227e0fef6bdc	3	1	DL_test	23	DL_test	22	stimuli_distractor_diamondtriangles.svg	stimuli_target_trianglesquares.svg	30	yes	pa	1	616	6	2	antiphase_hc_ios.wav	3	6	6	noise_calib_stim_RIGHT.wav	2	25	blb_dichoticlistening_pa-ba.mp3	pa	ba	1	left
6.6.1	win	2023-06-01	23:53:18	00:04:22	663034	63d44472a72a227e0fef6bdc	3	1	DL_test	23	DL_test	23	stimuli_distractor_diamondtriangles.svg	stimuli_target_trianglesquares.svg	30	yes	pa	1	901	6	2	antiphase_hc_ios.wav	3	6	6	noise_calib_stim_RIGHT.wav	2	27	blb_dichoticlistening_pa-ga.mp3	pa	ga	1	left
6.6.1	win	2023-06-01	23:53:18	00:04:22	663034	63d44472a72a227e0fef6bdc	3	1	DL_test	23	DL_test	24	stimuli_distractor_diamondtriangles.svg	stimuli_target_trianglesquares.svg	30	yes	pa	1	502	6	2	antiphase_hc_ios.wav	3	6	6	noise_calib_stim_RIGHT.wav	2	26	blb_dichoticlistening_pa-da.mp3	pa	da	1	left
6.6.1	win	2023-06-01	23:53:18	00:04:22	663034	63d44472a72a227e0fef6bdc	3	1	DL_test	23	DL_test	25	stimuli_distractor_diamondtriangles.svg	stimuli_target_trianglesquares.svg	30	yes	ka	1	630	6	2	antiphase_hc_ios.wav	3	6	6	noise_calib_stim_RIGHT.wav	2	24	blb_dichoticlistening_ka-ta.mp3	ka	ta	1	left
6.6.1	win	2023-06-01	23:53:18	00:04:22	663034	63d44472a72a227e0fef6bdc	3	1	DL_test	23	DL_test	26	stimuli_distractor_diamondtriangles.svg	stimuli_target_trianglesquares.svg	30	yes	ka	1	751	6	2	antiphase_hc_ios.wav	3	6	6	noise_calib_stim_RIGHT.wav	2	20	blb_dichoticlistening_ka-da.mp3	ka	da	1	left
