build	computer.platform	date	time	timestamp	time_elapsed_ms	subject	group	session	blockcode	blocknum	trialcode	trialnum	stimulus_left	stimulus_right	stim_index	target_present	response	correct	latency	headphonecheck_countTestTrials	headphonecheck_index	headphonecheck_testSound	headphonecheck_correctResponse	stereocheck_countTestTrials	stereocheck_index	stereocheck_testSound	stereocheck_correctResponse	DL_index	DL_soundfile	DL_leftSound	DL_rightSound	DL_dualSound	DL_choice
6.6.1	win	2023-07-13	20:25:16	20:28:21	180654	5ecc5d22a5e08e45bf551927	3	1	practice_slash	5	practice_slash	1	stimuli_distractor_diamondtriangles.svg	stimuli_target_diamondrectangles.svg	8	yes	0	0	2000	0	0			0	0			1				0	
6.6.1	win	2023-07-13	20:25:16	20:28:21	180654	5ecc5d22a5e08e45bf551927	3	1	practice_slash	5	advance_on_keypress_SLASH	2	stimuli_distractor_diamondtriangles.svg	stimuli_target_diamondrectangles.svg	8	yes	57	0	1335	0	0			0	0			1				0	
6.6.1	win	2023-07-13	20:25:16	20:28:26	185636	5ecc5d22a5e08e45bf551927	3	1	practice_slash	5	practice_slash	3	stimuli_distractor_diamondtriangles.svg	stimuli_distractor_trianglediamonds.svg	14	no	0	1	2000	0	0			0	0			1				0	
6.6.1	win	2023-07-13	20:25:16	20:28:26	185636	5ecc5d22a5e08e45bf551927	3	1	practice_slash	5	advance_on_keypress_SLASH	4	stimuli_distractor_diamondtriangles.svg	stimuli_distractor_trianglediamonds.svg	14	no	57	0	990	0	0			0	0			1				0	
6.6.1	win	2023-07-13	20:25:16	20:28:30	189121	5ecc5d22a5e08e45bf551927	3	1	practice_slash	5	practice_slash	5	stimuli_distractor_trianglediamonds.svg	stimuli_target_rectanglediamonds.svg	10	yes	53	1	837	0	0			0	0			1				0	
6.6.1	win	2023-07-13	20:25:16	20:28:30	189121	5ecc5d22a5e08e45bf551927	3	1	practice_slash	5	advance_on_keypress_SLASH	6	stimuli_distractor_trianglediamonds.svg	stimuli_target_rectanglediamonds.svg	10	yes	57	0	1021	0	0			0	0			1				0	
6.6.1	win	2023-07-13	20:25:16	20:28:34	193177	5ecc5d22a5e08e45bf551927	3	1	practice_slash	5	practice_slash	7	stimuli_distractor_diamondtriangles.svg	stimuli_target_rectangletriangles.svg	7	yes	53	1	1393	0	0			0	0			1				0	
6.6.1	win	2023-07-13	20:25:16	20:28:34	193177	5ecc5d22a5e08e45bf551927	3	1	practice_slash	5	advance_on_keypress_SLASH	8	stimuli_distractor_diamondtriangles.svg	stimuli_target_rectangletriangles.svg	7	yes	57	0	1506	0	0			0	0			1				0	
6.6.1	win	2023-07-13	20:25:16	20:28:39	198332	5ecc5d22a5e08e45bf551927	3	1	practice_slash	5	practice_slash	9	stimuli_distractor_trianglediamonds.svg	stimuli_distractor_diamondtriangles.svg	16	no	0	1	2000	0	0			0	0			1				0	
6.6.1	win	2023-07-13	20:25:16	20:28:39	198332	5ecc5d22a5e08e45bf551927	3	1	practice_slash	5	advance_on_keypress_SLASH	10	stimuli_distractor_trianglediamonds.svg	stimuli_distractor_diamondtriangles.svg	16	no	57	0	922	0	0			0	0			1				0	
6.6.1	win	2023-07-13	20:25:16	20:28:42	201727	5ecc5d22a5e08e45bf551927	3	1	practice_slash	5	practice_slash	11	stimuli_target_diamondsquares.svg	stimuli_distractor_diamondtriangles.svg	3	yes	53	1	831	0	0			0	0			1				0	
6.6.1	win	2023-07-13	20:25:16	20:28:42	201727	5ecc5d22a5e08e45bf551927	3	1	practice_slash	5	advance_on_keypress_SLASH	12	stimuli_target_diamondsquares.svg	stimuli_distractor_diamondtriangles.svg	3	yes	57	0	716	0	0			0	0			1				0	
6.6.1	win	2023-07-13	20:25:16	20:28:47	206096	5ecc5d22a5e08e45bf551927	3	1	practice_slash	5	practice_slash	13	stimuli_distractor_diamondtriangles.svg	stimuli_distractor_diamondtriangles.svg	13	no	0	1	2000	0	0			0	0			1				0	
6.6.1	win	2023-07-13	20:25:16	20:28:47	206096	5ecc5d22a5e08e45bf551927	3	1	practice_slash	5	advance_on_keypress_SLASH	14	stimuli_distractor_diamondtriangles.svg	stimuli_distractor_diamondtriangles.svg	13	no	57	0	773	0	0			0	0			1				0	
6.6.1	win	2023-07-13	20:25:16	20:28:50	209355	5ecc5d22a5e08e45bf551927	3	1	practice_slash	5	practice_slash	15	stimuli_distractor_trianglediamonds.svg	stimuli_target_squarediamonds.svg	11	yes	53	1	826	0	0			0	0			1				0	
6.6.1	win	2023-07-13	20:25:16	20:28:50	209355	5ecc5d22a5e08e45bf551927	3	1	practice_slash	5	advance_on_keypress_SLASH	16	stimuli_distractor_trianglediamonds.svg	stimuli_target_squarediamonds.svg	11	yes	57	0	628	0	0			0	0			1				0	
6.6.1	win	2023-07-13	20:25:16	20:28:53	212529	5ecc5d22a5e08e45bf551927	3	1	practice_slash	5	practice_slash	17	stimuli_distractor_diamondtriangles.svg	stimuli_target_trianglerectangles.svg	9	yes	53	1	886	0	0			0	0			1				0	
6.6.1	win	2023-07-13	20:25:16	20:28:53	212529	5ecc5d22a5e08e45bf551927	3	1	practice_slash	5	advance_on_keypress_SLASH	18	stimuli_distractor_diamondtriangles.svg	stimuli_target_trianglerectangles.svg	9	yes	57	0	420	0	0			0	0			1				0	
6.6.1	win	2023-07-13	20:25:16	20:28:57	216592	5ecc5d22a5e08e45bf551927	3	1	practice_slash	5	practice_slash	19	stimuli_distractor_trianglediamonds.svg	stimuli_distractor_trianglediamonds.svg	15	no	0	1	2000	0	0			0	0			1				0	
6.6.1	win	2023-07-13	20:25:16	20:28:57	216592	5ecc5d22a5e08e45bf551927	3	1	practice_slash	5	advance_on_keypress_SLASH	20	stimuli_distractor_trianglediamonds.svg	stimuli_distractor_trianglediamonds.svg	15	no	57	0	418	0	0			0	0			1				0	
6.6.1	win	2023-07-13	20:25:16	20:29:00	219426	5ecc5d22a5e08e45bf551927	3	1	practice_slash	5	practice_slash	21	stimuli_target_squarediamonds.svg	stimuli_distractor_trianglediamonds.svg	5	yes	53	1	768	0	0			0	0			1				0	
6.6.1	win	2023-07-13	20:25:16	20:29:00	219426	5ecc5d22a5e08e45bf551927	3	1	practice_slash	5	advance_on_keypress_SLASH	22	stimuli_target_squarediamonds.svg	stimuli_distractor_trianglediamonds.svg	5	yes	57	0	447	0	0			0	0			1				0	
6.6.1	win	2023-07-13	20:25:16	20:29:03	222250	5ecc5d22a5e08e45bf551927	3	1	practice_slash	5	practice_slash	23	stimuli_target_rectanglediamonds.svg	stimuli_distractor_trianglediamonds.svg	4	yes	53	1	727	0	0			0	0			1				0	
6.6.1	win	2023-07-13	20:25:16	20:29:03	222250	5ecc5d22a5e08e45bf551927	3	1	practice_slash	5	advance_on_keypress_SLASH	24	stimuli_target_rectanglediamonds.svg	stimuli_distractor_trianglediamonds.svg	4	yes	57	0	384	0	0			0	0			1				0	
6.6.1	win	2023-07-13	20:25:16	20:29:06	225129	5ecc5d22a5e08e45bf551927	3	1	practice_slash	5	practice_slash	25	stimuli_target_rectanglediamonds.svg	stimuli_distractor_diamondtriangles.svg	1	yes	53	1	839	0	0			0	0			1				0	
6.6.1	win	2023-07-13	20:25:16	20:29:06	225129	5ecc5d22a5e08e45bf551927	3	1	practice_slash	5	advance_on_keypress_SLASH	26	stimuli_target_rectanglediamonds.svg	stimuli_distractor_diamondtriangles.svg	1	yes	57	0	372	0	0			0	0			1				0	
6.6.1	win	2023-07-13	20:25:16	20:29:08	227967	5ecc5d22a5e08e45bf551927	3	1	practice_slash	5	practice_slash	27	stimuli_distractor_trianglediamonds.svg	stimuli_target_diamondrectangles.svg	12	yes	53	1	829	0	0			0	0			1				0	
6.6.1	win	2023-07-13	20:25:16	20:29:08	227967	5ecc5d22a5e08e45bf551927	3	1	practice_slash	5	advance_on_keypress_SLASH	28	stimuli_distractor_trianglediamonds.svg	stimuli_target_diamondrectangles.svg	12	yes	57	0	241	0	0			0	0			1				0	
6.6.1	win	2023-07-13	20:25:16	20:29:11	230583	5ecc5d22a5e08e45bf551927	3	1	practice_slash	5	practice_slash	29	stimuli_target_diamondsquares.svg	stimuli_distractor_trianglediamonds.svg	6	yes	53	1	730	0	0			0	0			1				0	
6.6.1	win	2023-07-13	20:25:16	20:29:11	230583	5ecc5d22a5e08e45bf551927	3	1	practice_slash	5	advance_on_keypress_SLASH	30	stimuli_target_diamondsquares.svg	stimuli_distractor_trianglediamonds.svg	6	yes	57	0	292	0	0			0	0			1				0	
6.6.1	win	2023-07-13	20:25:16	20:29:14	233234	5ecc5d22a5e08e45bf551927	3	1	practice_slash	5	practice_slash	31	stimuli_target_squarediamonds.svg	stimuli_distractor_diamondtriangles.svg	2	yes	53	1	698	0	0			0	0			1				0	
6.6.1	win	2023-07-13	20:25:16	20:29:14	233234	5ecc5d22a5e08e45bf551927	3	1	practice_slash	5	advance_on_keypress_SLASH	32	stimuli_target_squarediamonds.svg	stimuli_distractor_diamondtriangles.svg	2	yes	57	0	338	0	0			0	0			1				0	
6.6.1	win	2023-07-13	20:25:16	20:29:24	243539	5ecc5d22a5e08e45bf551927	3	1	main_slash	7	main_slash	1	stimuli_distractor_trianglediamonds.svg	stimuli_distractor_trianglediamonds.svg	34	no	53	0	1175	0	0			0	0			1				0	
6.6.1	win	2023-07-13	20:25:16	20:29:24	243539	5ecc5d22a5e08e45bf551927	3	1	main_slash	7	advance_on_keypress_SLASH	2	stimuli_distractor_trianglediamonds.svg	stimuli_distractor_trianglediamonds.svg	34	no	57	0	1443	0	0			0	0			1				0	
6.6.1	win	2023-07-13	20:25:16	20:29:27	246432	5ecc5d22a5e08e45bf551927	3	1	main_slash	7	main_slash	3	stimuli_target_rectanglediamonds.svg	stimuli_distractor_diamondtriangles.svg	6	yes	53	1	786	0	0			0	0			1				0	
6.6.1	win	2023-07-13	20:25:16	20:29:27	246432	5ecc5d22a5e08e45bf551927	3	1	main_slash	7	advance_on_keypress_SLASH	4	stimuli_target_rectanglediamonds.svg	stimuli_distractor_diamondtriangles.svg	6	yes	57	0	659	0	0			0	0			1				0	
6.6.1	win	2023-07-13	20:25:16	20:29:29	248591	5ecc5d22a5e08e45bf551927	3	1	main_slash	7	main_slash	5	stimuli_target_rectangletriangles.svg	stimuli_distractor_diamondtriangles.svg	5	yes	53	1	862	0	0			0	0			1				0	
6.6.1	win	2023-07-13	20:25:16	20:29:29	248591	5ecc5d22a5e08e45bf551927	3	1	main_slash	7	advance_on_keypress_SLASH	6	stimuli_target_rectangletriangles.svg	stimuli_distractor_diamondtriangles.svg	5	yes	57	0	511	0	0			0	0			1				0	
6.6.1	win	2023-07-13	20:25:16	20:29:31	250431	5ecc5d22a5e08e45bf551927	3	1	main_slash	7	main_slash	7	stimuli_target_trianglerectangles.svg	stimuli_distractor_diamondtriangles.svg	21	yes	53	1	687	0	0			0	0			1				0	
6.6.1	win	2023-07-13	20:25:16	20:29:31	250431	5ecc5d22a5e08e45bf551927	3	1	main_slash	7	advance_on_keypress_SLASH	8	stimuli_target_trianglerectangles.svg	stimuli_distractor_diamondtriangles.svg	21	yes	57	0	640	0	0			0	0			1				0	
6.6.1	win	2023-07-13	20:25:16	20:29:33	252424	5ecc5d22a5e08e45bf551927	3	1	main_slash	7	main_slash	9	stimuli_target_squaretriangles.svg	stimuli_distractor_diamondtriangles.svg	7	yes	53	1	697	0	0			0	0			1				0	
6.6.1	win	2023-07-13	20:25:16	20:29:33	252424	5ecc5d22a5e08e45bf551927	3	1	main_slash	7	advance_on_keypress_SLASH	10	stimuli_target_squaretriangles.svg	stimuli_distractor_diamondtriangles.svg	7	yes	57	0	563	0	0			0	0			1				0	
6.6.1	win	2023-07-13	20:25:16	20:29:36	255097	5ecc5d22a5e08e45bf551927	3	1	main_slash	7	main_slash	11	stimuli_distractor_trianglediamonds.svg	stimuli_distractor_diamondtriangles.svg	36	no	53	0	1453	0	0			0	0			1				0	
6.6.1	win	2023-07-13	20:25:16	20:29:36	255097	5ecc5d22a5e08e45bf551927	3	1	main_slash	7	advance_on_keypress_SLASH	12	stimuli_distractor_trianglediamonds.svg	stimuli_distractor_diamondtriangles.svg	36	no	57	0	586	0	0			0	0			1				0	
6.6.1	win	2023-07-13	20:25:16	20:29:38	257139	5ecc5d22a5e08e45bf551927	3	1	main_slash	7	main_slash	13	stimuli_distractor_diamondtriangles.svg	stimuli_target_trianglerectangles.svg	29	yes	53	1	812	0	0			0	0			1				0	
6.6.1	win	2023-07-13	20:25:16	20:29:38	257139	5ecc5d22a5e08e45bf551927	3	1	main_slash	7	advance_on_keypress_SLASH	14	stimuli_distractor_diamondtriangles.svg	stimuli_target_trianglerectangles.svg	29	yes	57	0	491	0	0			0	0			1				0	
6.6.1	win	2023-07-13	20:25:16	20:29:40	259043	5ecc5d22a5e08e45bf551927	3	1	main_slash	7	main_slash	15	stimuli_distractor_trianglediamonds.svg	stimuli_target_rectanglediamonds.svg	10	yes	53	1	768	0	0			0	0			1				0	
6.6.1	win	2023-07-13	20:25:16	20:29:40	259043	5ecc5d22a5e08e45bf551927	3	1	main_slash	7	advance_on_keypress_SLASH	16	stimuli_distractor_trianglediamonds.svg	stimuli_target_rectanglediamonds.svg	10	yes	57	0	493	0	0			0	0			1				0	
6.6.1	win	2023-07-13	20:25:16	20:29:41	260964	5ecc5d22a5e08e45bf551927	3	1	main_slash	7	main_slash	17	stimuli_distractor_trianglediamonds.svg	stimuli_target_trianglesquares.svg	26	yes	53	1	790	0	0			0	0			1				0	
6.6.1	win	2023-07-13	20:25:16	20:29:41	260964	5ecc5d22a5e08e45bf551927	3	1	main_slash	7	advance_on_keypress_SLASH	18	stimuli_distractor_trianglediamonds.svg	stimuli_target_trianglesquares.svg	26	yes	57	0	511	0	0			0	0			1				0	
6.6.1	win	2023-07-13	20:25:16	20:29:44	263471	5ecc5d22a5e08e45bf551927	3	1	main_slash	7	main_slash	19	stimuli_target_diamondrectangles.svg	stimuli_distractor_trianglediamonds.svg	19	yes	53	1	1347	0	0			0	0			1				0	
6.6.1	win	2023-07-13	20:25:16	20:29:44	263471	5ecc5d22a5e08e45bf551927	3	1	main_slash	7	advance_on_keypress_SLASH	20	stimuli_target_diamondrectangles.svg	stimuli_distractor_trianglediamonds.svg	19	yes	57	0	542	0	0			0	0			1				0	
6.6.1	win	2023-07-13	20:25:16	20:29:46	265439	5ecc5d22a5e08e45bf551927	3	1	main_slash	7	main_slash	21	stimuli_target_diamondsquares.svg	stimuli_distractor_diamondtriangles.svg	24	yes	53	1	783	0	0			0	0			1				0	
6.6.1	win	2023-07-13	20:25:16	20:29:46	265439	5ecc5d22a5e08e45bf551927	3	1	main_slash	7	advance_on_keypress_SLASH	22	stimuli_target_diamondsquares.svg	stimuli_distractor_diamondtriangles.svg	24	yes	57	0	495	0	0			0	0			1				0	
6.6.1	win	2023-07-13	20:25:16	20:29:48	267444	5ecc5d22a5e08e45bf551927	3	1	main_slash	7	main_slash	23	stimuli_target_squarediamonds.svg	stimuli_distractor_trianglediamonds.svg	4	yes	53	1	854	0	0			0	0			1				0	
6.6.1	win	2023-07-13	20:25:16	20:29:48	267444	5ecc5d22a5e08e45bf551927	3	1	main_slash	7	advance_on_keypress_SLASH	24	stimuli_target_squarediamonds.svg	stimuli_distractor_trianglediamonds.svg	4	yes	57	0	595	0	0			0	0			1				0	
6.6.1	win	2023-07-13	20:25:16	20:29:50	269823	5ecc5d22a5e08e45bf551927	3	1	main_slash	7	main_slash	25	stimuli_distractor_diamondtriangles.svg	stimuli_target_squaretriangles.svg	15	yes	53	1	1152	0	0			0	0			1				0	
6.6.1	win	2023-07-13	20:25:16	20:29:50	269823	5ecc5d22a5e08e45bf551927	3	1	main_slash	7	advance_on_keypress_SLASH	26	stimuli_distractor_diamondtriangles.svg	stimuli_target_squaretriangles.svg	15	yes	57	0	669	0	0			0	0			1				0	
6.6.1	win	2023-07-13	20:25:16	20:29:53	272898	5ecc5d22a5e08e45bf551927	3	1	main_slash	7	main_slash	27	stimuli_distractor_diamondtriangles.svg	stimuli_distractor_trianglediamonds.svg	37	no	53	0	1760	0	0			0	0			1				0	
6.6.1	win	2023-07-13	20:25:16	20:29:53	272898	5ecc5d22a5e08e45bf551927	3	1	main_slash	7	advance_on_keypress_SLASH	28	stimuli_distractor_diamondtriangles.svg	stimuli_distractor_trianglediamonds.svg	37	no	57	0	829	0	0			0	0			1				0	
6.6.1	win	2023-07-13	20:25:16	20:29:56	275268	5ecc5d22a5e08e45bf551927	3	1	main_slash	7	main_slash	29	stimuli_target_trianglesquares.svg	stimuli_distractor_trianglediamonds.svg	18	yes	53	1	898	0	0			0	0			1				0	
6.6.1	win	2023-07-13	20:25:16	20:29:56	275268	5ecc5d22a5e08e45bf551927	3	1	main_slash	7	advance_on_keypress_SLASH	30	stimuli_target_trianglesquares.svg	stimuli_distractor_trianglediamonds.svg	18	yes	57	0	626	0	0			0	0			1				0	
6.6.1	win	2023-07-13	20:25:16	20:29:58	277455	5ecc5d22a5e08e45bf551927	3	1	main_slash	7	main_slash	31	stimuli_target_squaretriangles.svg	stimuli_distractor_trianglediamonds.svg	3	yes	53	1	920	0	0			0	0			1				0	
6.6.1	win	2023-07-13	20:25:16	20:29:58	277455	5ecc5d22a5e08e45bf551927	3	1	main_slash	7	advance_on_keypress_SLASH	32	stimuli_target_squaretriangles.svg	stimuli_distractor_trianglediamonds.svg	3	yes	57	0	739	0	0			0	0			1				0	
6.6.1	win	2023-07-13	20:25:16	20:30:00	279712	5ecc5d22a5e08e45bf551927	3	1	main_slash	7	main_slash	33	stimuli_distractor_diamondtriangles.svg	stimuli_target_diamondrectangles.svg	31	yes	53	1	876	0	0			0	0			1				0	
6.6.1	win	2023-07-13	20:25:16	20:30:00	279712	5ecc5d22a5e08e45bf551927	3	1	main_slash	7	advance_on_keypress_SLASH	34	stimuli_distractor_diamondtriangles.svg	stimuli_target_diamondrectangles.svg	31	yes	57	0	728	0	0			0	0			1				0	
6.6.1	win	2023-07-13	20:25:16	20:30:04	283084	5ecc5d22a5e08e45bf551927	3	1	main_slash	7	main_slash	35	stimuli_distractor_trianglediamonds.svg	stimuli_distractor_trianglediamonds.svg	33	no	0	1	2000	0	0			0	0			1				0	
6.6.1	win	2023-07-13	20:25:16	20:30:04	283084	5ecc5d22a5e08e45bf551927	3	1	main_slash	7	advance_on_keypress_SLASH	36	stimuli_distractor_trianglediamonds.svg	stimuli_distractor_trianglediamonds.svg	33	no	57	0	665	0	0			0	0			1				0	
6.6.1	win	2023-07-13	20:25:16	20:30:06	285308	5ecc5d22a5e08e45bf551927	3	1	main_slash	7	main_slash	37	stimuli_distractor_trianglediamonds.svg	stimuli_target_squarediamonds.svg	12	yes	53	1	909	0	0			0	0			1				0	
6.6.1	win	2023-07-13	20:25:16	20:30:06	285308	5ecc5d22a5e08e45bf551927	3	1	main_slash	7	advance_on_keypress_SLASH	38	stimuli_distractor_trianglediamonds.svg	stimuli_target_squarediamonds.svg	12	yes	57	0	545	0	0			0	0			1				0	
6.6.1	win	2023-07-13	20:25:16	20:30:09	288499	5ecc5d22a5e08e45bf551927	3	1	main_slash	7	main_slash	39	stimuli_distractor_diamondtriangles.svg	stimuli_distractor_trianglediamonds.svg	38	no	0	1	2000	0	0			0	0			1				0	
6.6.1	win	2023-07-13	20:25:16	20:30:09	288499	5ecc5d22a5e08e45bf551927	3	1	main_slash	7	advance_on_keypress_SLASH	40	stimuli_distractor_diamondtriangles.svg	stimuli_distractor_trianglediamonds.svg	38	no	57	0	559	0	0			0	0			1				0	
6.6.1	win	2023-07-13	20:25:16	20:30:11	290546	5ecc5d22a5e08e45bf551927	3	1	main_slash	7	main_slash	41	stimuli_distractor_trianglediamonds.svg	stimuli_target_trianglerectangles.svg	25	yes	53	1	848	0	0			0	0			1				0	
6.6.1	win	2023-07-13	20:25:16	20:30:11	290546	5ecc5d22a5e08e45bf551927	3	1	main_slash	7	advance_on_keypress_SLASH	42	stimuli_distractor_trianglediamonds.svg	stimuli_target_trianglerectangles.svg	25	yes	57	0	749	0	0			0	0			1				0	
6.6.1	win	2023-07-13	20:25:16	20:30:13	292827	5ecc5d22a5e08e45bf551927	3	1	main_slash	7	main_slash	43	stimuli_distractor_trianglediamonds.svg	stimuli_target_squaretriangles.svg	11	yes	53	1	881	0	0			0	0			1				0	
6.6.1	win	2023-07-13	20:25:16	20:30:13	292827	5ecc5d22a5e08e45bf551927	3	1	main_slash	7	advance_on_keypress_SLASH	44	stimuli_distractor_trianglediamonds.svg	stimuli_target_squaretriangles.svg	11	yes	57	0	649	0	0			0	0			1				0	
6.6.1	win	2023-07-13	20:25:16	20:30:17	296130	5ecc5d22a5e08e45bf551927	3	1	main_slash	7	main_slash	45	stimuli_distractor_trianglediamonds.svg	stimuli_distractor_diamondtriangles.svg	35	no	0	1	2000	0	0			0	0			1				0	
6.6.1	win	2023-07-13	20:25:16	20:30:17	296130	5ecc5d22a5e08e45bf551927	3	1	main_slash	7	advance_on_keypress_SLASH	46	stimuli_distractor_trianglediamonds.svg	stimuli_distractor_diamondtriangles.svg	35	no	57	0	427	0	0			0	0			1				0	
6.6.1	win	2023-07-13	20:25:16	20:30:19	298236	5ecc5d22a5e08e45bf551927	3	1	main_slash	7	main_slash	47	stimuli_distractor_diamondtriangles.svg	stimuli_target_rectanglediamonds.svg	14	yes	53	1	1040	0	0			0	0			1				0	
6.6.1	win	2023-07-13	20:25:16	20:30:19	298236	5ecc5d22a5e08e45bf551927	3	1	main_slash	7	advance_on_keypress_SLASH	48	stimuli_distractor_diamondtriangles.svg	stimuli_target_rectanglediamonds.svg	14	yes	57	0	603	0	0			0	0			1				0	
6.6.1	win	2023-07-13	20:25:16	20:30:21	300247	5ecc5d22a5e08e45bf551927	3	1	main_slash	7	main_slash	49	stimuli_distractor_diamondtriangles.svg	stimuli_target_squarediamonds.svg	16	yes	53	1	769	0	0			0	0			1				0	
6.6.1	win	2023-07-13	20:25:16	20:30:21	300247	5ecc5d22a5e08e45bf551927	3	1	main_slash	7	advance_on_keypress_SLASH	50	stimuli_distractor_diamondtriangles.svg	stimuli_target_squarediamonds.svg	16	yes	57	0	605	0	0			0	0			1				0	
6.6.1	win	2023-07-13	20:25:16	20:30:23	302570	5ecc5d22a5e08e45bf551927	3	1	main_slash	7	main_slash	51	stimuli_target_trianglesquares.svg	stimuli_distractor_diamondtriangles.svg	22	yes	53	1	1076	0	0			0	0			1				0	
6.6.1	win	2023-07-13	20:25:16	20:30:23	302570	5ecc5d22a5e08e45bf551927	3	1	main_slash	7	advance_on_keypress_SLASH	52	stimuli_target_trianglesquares.svg	stimuli_distractor_diamondtriangles.svg	22	yes	57	0	507	0	0			0	0			1				0	
6.6.1	win	2023-07-13	20:25:16	20:30:26	305710	5ecc5d22a5e08e45bf551927	3	1	main_slash	7	main_slash	53	stimuli_target_squarediamonds.svg	stimuli_distractor_diamondtriangles.svg	8	yes	0	0	2000	0	0			0	0			1				0	
6.6.1	win	2023-07-13	20:25:16	20:30:26	305710	5ecc5d22a5e08e45bf551927	3	1	main_slash	7	advance_on_keypress_SLASH	54	stimuli_target_squarediamonds.svg	stimuli_distractor_diamondtriangles.svg	8	yes	57	0	617	0	0			0	0			1				0	
6.6.1	win	2023-07-13	20:25:16	20:30:28	307787	5ecc5d22a5e08e45bf551927	3	1	main_slash	7	main_slash	55	stimuli_target_trianglerectangles.svg	stimuli_distractor_trianglediamonds.svg	17	yes	53	1	812	0	0			0	0			1				0	
6.6.1	win	2023-07-13	20:25:16	20:30:28	307787	5ecc5d22a5e08e45bf551927	3	1	main_slash	7	advance_on_keypress_SLASH	56	stimuli_target_trianglerectangles.svg	stimuli_distractor_trianglediamonds.svg	17	yes	57	0	686	0	0			0	0			1				0	
6.6.1	win	2023-07-13	20:25:16	20:30:30	309907	5ecc5d22a5e08e45bf551927	3	1	main_slash	7	main_slash	57	stimuli_distractor_diamondtriangles.svg	stimuli_target_rectangletriangles.svg	13	yes	53	1	783	0	0			0	0			1				0	
6.6.1	win	2023-07-13	20:25:16	20:30:30	309907	5ecc5d22a5e08e45bf551927	3	1	main_slash	7	advance_on_keypress_SLASH	58	stimuli_distractor_diamondtriangles.svg	stimuli_target_rectangletriangles.svg	13	yes	57	0	540	0	0			0	0			1				0	
6.6.1	win	2023-07-13	20:25:16	20:30:32	311924	5ecc5d22a5e08e45bf551927	3	1	main_slash	7	main_slash	59	stimuli_distractor_trianglediamonds.svg	stimuli_target_diamondsquares.svg	28	yes	53	1	834	0	0			0	0			1				0	
6.6.1	win	2023-07-13	20:25:16	20:30:32	311924	5ecc5d22a5e08e45bf551927	3	1	main_slash	7	advance_on_keypress_SLASH	60	stimuli_distractor_trianglediamonds.svg	stimuli_target_diamondsquares.svg	28	yes	57	0	484	0	0			0	0			1				0	
6.6.1	win	2023-07-13	20:25:16	20:30:35	314048	5ecc5d22a5e08e45bf551927	3	1	main_slash	7	main_slash	61	stimuli_target_rectangletriangles.svg	stimuli_distractor_trianglediamonds.svg	1	yes	53	1	991	0	0			0	0			1				0	
6.6.1	win	2023-07-13	20:25:16	20:30:35	314048	5ecc5d22a5e08e45bf551927	3	1	main_slash	7	advance_on_keypress_SLASH	62	stimuli_target_rectangletriangles.svg	stimuli_distractor_trianglediamonds.svg	1	yes	57	0	586	0	0			0	0			1				0	
6.6.1	win	2023-07-13	20:25:16	20:30:38	317273	5ecc5d22a5e08e45bf551927	3	1	main_slash	7	main_slash	63	stimuli_distractor_diamondtriangles.svg	stimuli_distractor_diamondtriangles.svg	40	no	0	1	2000	0	0			0	0			1				0	
6.6.1	win	2023-07-13	20:25:16	20:30:38	317273	5ecc5d22a5e08e45bf551927	3	1	main_slash	7	advance_on_keypress_SLASH	64	stimuli_distractor_diamondtriangles.svg	stimuli_distractor_diamondtriangles.svg	40	no	57	0	603	0	0			0	0			1				0	
6.6.1	win	2023-07-13	20:25:16	20:30:40	319718	5ecc5d22a5e08e45bf551927	3	1	main_slash	7	main_slash	65	stimuli_distractor_diamondtriangles.svg	stimuli_target_diamondsquares.svg	32	yes	53	1	1197	0	0			0	0			1				0	
6.6.1	win	2023-07-13	20:25:16	20:30:40	319718	5ecc5d22a5e08e45bf551927	3	1	main_slash	7	advance_on_keypress_SLASH	66	stimuli_distractor_diamondtriangles.svg	stimuli_target_diamondsquares.svg	32	yes	57	0	595	0	0			0	0			1				0	
6.6.1	win	2023-07-13	20:25:16	20:30:43	322954	5ecc5d22a5e08e45bf551927	3	1	main_slash	7	main_slash	67	stimuli_distractor_diamondtriangles.svg	stimuli_distractor_diamondtriangles.svg	39	no	0	1	2000	0	0			0	0			1				0	
6.6.1	win	2023-07-13	20:25:16	20:30:43	322954	5ecc5d22a5e08e45bf551927	3	1	main_slash	7	advance_on_keypress_SLASH	68	stimuli_distractor_diamondtriangles.svg	stimuli_distractor_diamondtriangles.svg	39	no	57	0	597	0	0			0	0			1				0	
6.6.1	win	2023-07-13	20:25:16	20:30:46	325175	5ecc5d22a5e08e45bf551927	3	1	main_slash	7	main_slash	69	stimuli_target_diamondrectangles.svg	stimuli_distractor_diamondtriangles.svg	23	yes	53	1	972	0	0			0	0			1				0	
6.6.1	win	2023-07-13	20:25:16	20:30:46	325175	5ecc5d22a5e08e45bf551927	3	1	main_slash	7	advance_on_keypress_SLASH	70	stimuli_target_diamondrectangles.svg	stimuli_distractor_diamondtriangles.svg	23	yes	57	0	4610	0	0			0	0			1				0	
6.6.1	win	2023-07-13	20:25:16	20:30:52	331179	5ecc5d22a5e08e45bf551927	3	1	main_slash	7	main_slash	71	stimuli_target_rectanglediamonds.svg	stimuli_distractor_trianglediamonds.svg	2	yes	53	1	762	0	0			0	0			1				0	
6.6.1	win	2023-07-13	20:25:16	20:30:52	331179	5ecc5d22a5e08e45bf551927	3	1	main_slash	7	advance_on_keypress_SLASH	72	stimuli_target_rectanglediamonds.svg	stimuli_distractor_trianglediamonds.svg	2	yes	57	0	453	0	0			0	0			1				0	
6.6.1	win	2023-07-13	20:25:16	20:30:53	332988	5ecc5d22a5e08e45bf551927	3	1	main_slash	7	main_slash	73	stimuli_distractor_trianglediamonds.svg	stimuli_target_rectangletriangles.svg	9	yes	53	1	705	0	0			0	0			1				0	
6.6.1	win	2023-07-13	20:25:16	20:30:53	332988	5ecc5d22a5e08e45bf551927	3	1	main_slash	7	advance_on_keypress_SLASH	74	stimuli_distractor_trianglediamonds.svg	stimuli_target_rectangletriangles.svg	9	yes	57	0	444	0	0			0	0			1				0	
6.6.1	win	2023-07-13	20:25:16	20:30:56	335034	5ecc5d22a5e08e45bf551927	3	1	main_slash	7	main_slash	75	stimuli_target_diamondsquares.svg	stimuli_distractor_trianglediamonds.svg	20	yes	53	1	968	0	0			0	0			1				0	
6.6.1	win	2023-07-13	20:25:16	20:30:56	335034	5ecc5d22a5e08e45bf551927	3	1	main_slash	7	advance_on_keypress_SLASH	76	stimuli_target_diamondsquares.svg	stimuli_distractor_trianglediamonds.svg	20	yes	57	0	408	0	0			0	0			1				0	
6.6.1	win	2023-07-13	20:25:16	20:30:57	336793	5ecc5d22a5e08e45bf551927	3	1	main_slash	7	main_slash	77	stimuli_distractor_trianglediamonds.svg	stimuli_target_diamondrectangles.svg	27	yes	53	1	711	0	0			0	0			1				0	
6.6.1	win	2023-07-13	20:25:16	20:30:57	336793	5ecc5d22a5e08e45bf551927	3	1	main_slash	7	advance_on_keypress_SLASH	78	stimuli_distractor_trianglediamonds.svg	stimuli_target_diamondrectangles.svg	27	yes	57	0	424	0	0			0	0			1				0	
6.6.1	win	2023-07-13	20:25:16	20:30:59	338613	5ecc5d22a5e08e45bf551927	3	1	main_slash	7	main_slash	79	stimuli_distractor_diamondtriangles.svg	stimuli_target_trianglesquares.svg	30	yes	53	1	765	0	0			0	0			1				0	
6.6.1	win	2023-07-13	20:25:16	20:30:59	338613	5ecc5d22a5e08e45bf551927	3	1	main_slash	7	advance_on_keypress_SLASH	80	stimuli_distractor_diamondtriangles.svg	stimuli_target_trianglesquares.svg	30	yes	57	0	467	0	0			0	0			1				0	
6.6.1	win	2023-07-13	20:25:16	20:31:02	341731	5ecc5d22a5e08e45bf551927	3	1	main_slash	7	main_slash	81	stimuli_target_trianglerectangles.svg	stimuli_distractor_trianglediamonds.svg	17	yes	0	0	2000	0	0			0	0			1				0	
6.6.1	win	2023-07-13	20:25:16	20:31:02	341731	5ecc5d22a5e08e45bf551927	3	1	main_slash	7	advance_on_keypress_SLASH	82	stimuli_target_trianglerectangles.svg	stimuli_distractor_trianglediamonds.svg	17	yes	57	0	350	0	0			0	0			1				0	
6.6.1	win	2023-07-13	20:25:16	20:31:04	343506	5ecc5d22a5e08e45bf551927	3	1	main_slash	7	main_slash	83	stimuli_distractor_diamondtriangles.svg	stimuli_target_diamondrectangles.svg	31	yes	53	1	776	0	0			0	0			1				0	
6.6.1	win	2023-07-13	20:25:16	20:31:04	343506	5ecc5d22a5e08e45bf551927	3	1	main_slash	7	advance_on_keypress_SLASH	84	stimuli_distractor_diamondtriangles.svg	stimuli_target_diamondrectangles.svg	31	yes	57	0	397	0	0			0	0			1				0	
6.6.1	win	2023-07-13	20:25:16	20:31:06	345652	5ecc5d22a5e08e45bf551927	3	1	main_slash	7	main_slash	85	stimuli_target_squarediamonds.svg	stimuli_distractor_diamondtriangles.svg	8	yes	53	1	1106	0	0			0	0			1				0	
6.6.1	win	2023-07-13	20:25:16	20:31:06	345652	5ecc5d22a5e08e45bf551927	3	1	main_slash	7	advance_on_keypress_SLASH	86	stimuli_target_squarediamonds.svg	stimuli_distractor_diamondtriangles.svg	8	yes	57	0	460	0	0			0	0			1				0	
6.6.1	win	2023-07-13	20:25:16	20:31:08	347476	5ecc5d22a5e08e45bf551927	3	1	main_slash	7	main_slash	87	stimuli_target_squaretriangles.svg	stimuli_distractor_diamondtriangles.svg	7	yes	53	1	731	0	0			0	0			1				0	
6.6.1	win	2023-07-13	20:25:16	20:31:08	347476	5ecc5d22a5e08e45bf551927	3	1	main_slash	7	advance_on_keypress_SLASH	88	stimuli_target_squaretriangles.svg	stimuli_distractor_diamondtriangles.svg	7	yes	57	0	361	0	0			0	0			1				0	
6.6.1	win	2023-07-13	20:25:16	20:31:11	350494	5ecc5d22a5e08e45bf551927	3	1	main_slash	7	main_slash	89	stimuli_target_trianglerectangles.svg	stimuli_distractor_diamondtriangles.svg	21	yes	0	0	2000	0	0			0	0			1				0	
6.6.1	win	2023-07-13	20:25:16	20:31:11	350494	5ecc5d22a5e08e45bf551927	3	1	main_slash	7	advance_on_keypress_SLASH	90	stimuli_target_trianglerectangles.svg	stimuli_distractor_diamondtriangles.svg	21	yes	57	0	377	0	0			0	0			1				0	
6.6.1	win	2023-07-13	20:25:16	20:31:13	352468	5ecc5d22a5e08e45bf551927	3	1	main_slash	7	main_slash	91	stimuli_target_diamondsquares.svg	stimuli_distractor_diamondtriangles.svg	24	yes	53	1	958	0	0			0	0			1				0	
6.6.1	win	2023-07-13	20:25:16	20:31:13	352468	5ecc5d22a5e08e45bf551927	3	1	main_slash	7	advance_on_keypress_SLASH	92	stimuli_target_diamondsquares.svg	stimuli_distractor_diamondtriangles.svg	24	yes	57	0	466	0	0			0	0			1				0	
6.6.1	win	2023-07-13	20:25:16	20:31:15	354370	5ecc5d22a5e08e45bf551927	3	1	main_slash	7	main_slash	93	stimuli_distractor_trianglediamonds.svg	stimuli_target_diamondrectangles.svg	27	yes	53	1	794	0	0			0	0			1				0	
6.6.1	win	2023-07-13	20:25:16	20:31:15	354370	5ecc5d22a5e08e45bf551927	3	1	main_slash	7	advance_on_keypress_SLASH	94	stimuli_distractor_trianglediamonds.svg	stimuli_target_diamondrectangles.svg	27	yes	57	0	377	0	0			0	0			1				0	
6.6.1	win	2023-07-13	20:25:16	20:31:18	357392	5ecc5d22a5e08e45bf551927	3	1	main_slash	7	main_slash	95	stimuli_distractor_trianglediamonds.svg	stimuli_target_rectangletriangles.svg	9	yes	0	0	2000	0	0			0	0			1				0	
6.6.1	win	2023-07-13	20:25:16	20:31:18	357392	5ecc5d22a5e08e45bf551927	3	1	main_slash	7	advance_on_keypress_SLASH	96	stimuli_distractor_trianglediamonds.svg	stimuli_target_rectangletriangles.svg	9	yes	57	0	853	0	0			0	0			1				0	
6.6.1	win	2023-07-13	20:25:16	20:31:21	360891	5ecc5d22a5e08e45bf551927	3	1	main_slash	7	main_slash	97	stimuli_distractor_trianglediamonds.svg	stimuli_distractor_diamondtriangles.svg	36	no	0	1	2000	0	0			0	0			1				0	
6.6.1	win	2023-07-13	20:25:16	20:31:21	360891	5ecc5d22a5e08e45bf551927	3	1	main_slash	7	advance_on_keypress_SLASH	98	stimuli_distractor_trianglediamonds.svg	stimuli_distractor_diamondtriangles.svg	36	no	57	0	335	0	0			0	0			1				0	
6.6.1	win	2023-07-13	20:25:16	20:31:23	362744	5ecc5d22a5e08e45bf551927	3	1	main_slash	7	main_slash	99	stimuli_distractor_diamondtriangles.svg	stimuli_target_trianglerectangles.svg	29	yes	53	1	871	0	0			0	0			1				0	
6.6.1	win	2023-07-13	20:25:16	20:31:23	362744	5ecc5d22a5e08e45bf551927	3	1	main_slash	7	advance_on_keypress_SLASH	100	stimuli_distractor_diamondtriangles.svg	stimuli_target_trianglerectangles.svg	29	yes	57	0	467	0	0			0	0			1				0	
6.6.1	win	2023-07-13	20:25:16	20:31:26	365856	5ecc5d22a5e08e45bf551927	3	1	main_slash	7	main_slash	101	stimuli_distractor_trianglediamonds.svg	stimuli_distractor_trianglediamonds.svg	34	no	0	1	2000	0	0			0	0			1				0	
6.6.1	win	2023-07-13	20:25:16	20:31:26	365856	5ecc5d22a5e08e45bf551927	3	1	main_slash	7	advance_on_keypress_SLASH	102	stimuli_distractor_trianglediamonds.svg	stimuli_distractor_trianglediamonds.svg	34	no	57	0	310	0	0			0	0			1				0	
6.6.1	win	2023-07-13	20:25:16	20:31:28	367414	5ecc5d22a5e08e45bf551927	3	1	main_slash	7	main_slash	103	stimuli_distractor_diamondtriangles.svg	stimuli_target_rectanglediamonds.svg	14	yes	53	1	592	0	0			0	0			1				0	
6.6.1	win	2023-07-13	20:25:16	20:31:28	367414	5ecc5d22a5e08e45bf551927	3	1	main_slash	7	advance_on_keypress_SLASH	104	stimuli_distractor_diamondtriangles.svg	stimuli_target_rectanglediamonds.svg	14	yes	57	0	589	0	0			0	0			1				0	
6.6.1	win	2023-07-13	20:25:16	20:31:30	369294	5ecc5d22a5e08e45bf551927	3	1	main_slash	7	main_slash	105	stimuli_target_trianglesquares.svg	stimuli_distractor_diamondtriangles.svg	22	yes	53	1	657	0	0			0	0			1				0	
6.6.1	win	2023-07-13	20:25:16	20:31:30	369294	5ecc5d22a5e08e45bf551927	3	1	main_slash	7	advance_on_keypress_SLASH	106	stimuli_target_trianglesquares.svg	stimuli_distractor_diamondtriangles.svg	22	yes	57	0	460	0	0			0	0			1				0	
6.6.1	win	2023-07-13	20:25:16	20:31:33	372387	5ecc5d22a5e08e45bf551927	3	1	main_slash	7	main_slash	107	stimuli_distractor_trianglediamonds.svg	stimuli_distractor_diamondtriangles.svg	35	no	0	1	2000	0	0			0	0			1				0	
6.6.1	win	2023-07-13	20:25:16	20:31:33	372387	5ecc5d22a5e08e45bf551927	3	1	main_slash	7	advance_on_keypress_SLASH	108	stimuli_distractor_trianglediamonds.svg	stimuli_distractor_diamondtriangles.svg	35	no	57	0	387	0	0			0	0			1				0	
6.6.1	win	2023-07-13	20:25:16	20:31:35	374173	5ecc5d22a5e08e45bf551927	3	1	main_slash	7	main_slash	109	stimuli_distractor_trianglediamonds.svg	stimuli_target_trianglesquares.svg	26	yes	53	1	754	0	0			0	0			1				0	
6.6.1	win	2023-07-13	20:25:16	20:31:35	374173	5ecc5d22a5e08e45bf551927	3	1	main_slash	7	advance_on_keypress_SLASH	110	stimuli_distractor_trianglediamonds.svg	stimuli_target_trianglesquares.svg	26	yes	57	0	1045	0	0			0	0			1				0	
6.6.1	win	2023-07-13	20:25:16	20:31:37	376672	5ecc5d22a5e08e45bf551927	3	1	main_slash	7	main_slash	111	stimuli_target_squaretriangles.svg	stimuli_distractor_trianglediamonds.svg	3	yes	53	1	803	0	0			0	0			1				0	
6.6.1	win	2023-07-13	20:25:16	20:31:37	376672	5ecc5d22a5e08e45bf551927	3	1	main_slash	7	advance_on_keypress_SLASH	112	stimuli_target_squaretriangles.svg	stimuli_distractor_trianglediamonds.svg	3	yes	57	0	385	0	0			0	0			1				0	
6.6.1	win	2023-07-13	20:25:16	20:31:40	379701	5ecc5d22a5e08e45bf551927	3	1	main_slash	7	main_slash	113	stimuli_distractor_diamondtriangles.svg	stimuli_distractor_diamondtriangles.svg	39	no	0	1	2000	0	0			0	0			1				0	
6.6.1	win	2023-07-13	20:25:16	20:31:40	379701	5ecc5d22a5e08e45bf551927	3	1	main_slash	7	advance_on_keypress_SLASH	114	stimuli_distractor_diamondtriangles.svg	stimuli_distractor_diamondtriangles.svg	39	no	57	0	3520	0	0			0	0			1				0	
6.6.1	win	2023-07-13	20:25:16	20:31:45	384629	5ecc5d22a5e08e45bf551927	3	1	main_slash	7	main_slash	115	stimuli_distractor_diamondtriangles.svg	stimuli_target_trianglesquares.svg	30	yes	53	1	763	0	0			0	0			1				0	
6.6.1	win	2023-07-13	20:25:16	20:31:45	384629	5ecc5d22a5e08e45bf551927	3	1	main_slash	7	advance_on_keypress_SLASH	116	stimuli_distractor_diamondtriangles.svg	stimuli_target_trianglesquares.svg	30	yes	57	0	503	0	0			0	0			1				0	
6.6.1	win	2023-07-13	20:25:16	20:31:47	386656	5ecc5d22a5e08e45bf551927	3	1	main_slash	7	main_slash	117	stimuli_distractor_trianglediamonds.svg	stimuli_target_rectanglediamonds.svg	10	yes	53	1	874	0	0			0	0			1				0	
6.6.1	win	2023-07-13	20:25:16	20:31:47	386656	5ecc5d22a5e08e45bf551927	3	1	main_slash	7	advance_on_keypress_SLASH	118	stimuli_distractor_trianglediamonds.svg	stimuli_target_rectanglediamonds.svg	10	yes	57	0	484	0	0			0	0			1				0	
6.6.1	win	2023-07-13	20:25:16	20:31:49	388703	5ecc5d22a5e08e45bf551927	3	1	main_slash	7	main_slash	119	stimuli_distractor_trianglediamonds.svg	stimuli_target_squaretriangles.svg	11	yes	53	1	921	0	0			0	0			1				0	
6.6.1	win	2023-07-13	20:25:16	20:31:49	388703	5ecc5d22a5e08e45bf551927	3	1	main_slash	7	advance_on_keypress_SLASH	120	stimuli_distractor_trianglediamonds.svg	stimuli_target_squaretriangles.svg	11	yes	57	0	490	0	0			0	0			1				0	
6.6.1	win	2023-07-13	20:25:16	20:31:52	391830	5ecc5d22a5e08e45bf551927	3	1	main_slash	7	main_slash	121	stimuli_distractor_diamondtriangles.svg	stimuli_target_diamondsquares.svg	32	yes	0	0	2000	0	0			0	0			1				0	
6.6.1	win	2023-07-13	20:25:16	20:31:52	391830	5ecc5d22a5e08e45bf551927	3	1	main_slash	7	advance_on_keypress_SLASH	122	stimuli_distractor_diamondtriangles.svg	stimuli_target_diamondsquares.svg	32	yes	57	0	337	0	0			0	0			1				0	
6.6.1	win	2023-07-13	20:25:16	20:31:55	394813	5ecc5d22a5e08e45bf551927	3	1	main_slash	7	main_slash	123	stimuli_distractor_diamondtriangles.svg	stimuli_distractor_trianglediamonds.svg	37	no	0	1	2000	0	0			0	0			1				0	
6.6.1	win	2023-07-13	20:25:16	20:31:55	394813	5ecc5d22a5e08e45bf551927	3	1	main_slash	7	advance_on_keypress_SLASH	124	stimuli_distractor_diamondtriangles.svg	stimuli_distractor_trianglediamonds.svg	37	no	57	0	692	0	0			0	0			1				0	
6.6.1	win	2023-07-13	20:25:16	20:31:58	397242	5ecc5d22a5e08e45bf551927	3	1	main_slash	7	main_slash	125	stimuli_target_diamondrectangles.svg	stimuli_distractor_diamondtriangles.svg	23	yes	53	1	1080	0	0			0	0			1				0	
6.6.1	win	2023-07-13	20:25:16	20:31:58	397242	5ecc5d22a5e08e45bf551927	3	1	main_slash	7	advance_on_keypress_SLASH	126	stimuli_target_diamondrectangles.svg	stimuli_distractor_diamondtriangles.svg	23	yes	57	0	468	0	0			0	0			1				0	
6.6.1	win	2023-07-13	20:25:16	20:32:00	399074	5ecc5d22a5e08e45bf551927	3	1	main_slash	7	main_slash	127	stimuli_distractor_trianglediamonds.svg	stimuli_target_squarediamonds.svg	12	yes	53	1	713	0	0			0	0			1				0	
6.6.1	win	2023-07-13	20:25:16	20:32:00	399074	5ecc5d22a5e08e45bf551927	3	1	main_slash	7	advance_on_keypress_SLASH	128	stimuli_distractor_trianglediamonds.svg	stimuli_target_squarediamonds.svg	12	yes	57	0	378	0	0			0	0			1				0	
6.6.1	win	2023-07-13	20:25:16	20:32:01	400743	5ecc5d22a5e08e45bf551927	3	1	main_slash	7	main_slash	129	stimuli_target_rectanglediamonds.svg	stimuli_distractor_trianglediamonds.svg	2	yes	53	1	633	0	0			0	0			1				0	
6.6.1	win	2023-07-13	20:25:16	20:32:01	400743	5ecc5d22a5e08e45bf551927	3	1	main_slash	7	advance_on_keypress_SLASH	130	stimuli_target_rectanglediamonds.svg	stimuli_distractor_trianglediamonds.svg	2	yes	57	0	419	0	0			0	0			1				0	
6.6.1	win	2023-07-13	20:25:16	20:32:03	402574	5ecc5d22a5e08e45bf551927	3	1	main_slash	7	main_slash	131	stimuli_target_rectangletriangles.svg	stimuli_distractor_trianglediamonds.svg	1	yes	53	1	764	0	0			0	0			1				0	
6.6.1	win	2023-07-13	20:25:16	20:32:03	402574	5ecc5d22a5e08e45bf551927	3	1	main_slash	7	advance_on_keypress_SLASH	132	stimuli_target_rectangletriangles.svg	stimuli_distractor_trianglediamonds.svg	1	yes	57	0	419	0	0			0	0			1				0	
6.6.1	win	2023-07-13	20:25:16	20:32:06	405643	5ecc5d22a5e08e45bf551927	3	1	main_slash	7	main_slash	133	stimuli_distractor_diamondtriangles.svg	stimuli_distractor_diamondtriangles.svg	40	no	0	1	2000	0	0			0	0			1				0	
6.6.1	win	2023-07-13	20:25:16	20:32:06	405643	5ecc5d22a5e08e45bf551927	3	1	main_slash	7	advance_on_keypress_SLASH	134	stimuli_distractor_diamondtriangles.svg	stimuli_distractor_diamondtriangles.svg	40	no	57	0	386	0	0			0	0			1				0	
6.6.1	win	2023-07-13	20:25:16	20:32:08	407396	5ecc5d22a5e08e45bf551927	3	1	main_slash	7	main_slash	135	stimuli_distractor_trianglediamonds.svg	stimuli_target_diamondsquares.svg	28	yes	53	1	720	0	0			0	0			1				0	
6.6.1	win	2023-07-13	20:25:16	20:32:08	407396	5ecc5d22a5e08e45bf551927	3	1	main_slash	7	advance_on_keypress_SLASH	136	stimuli_distractor_trianglediamonds.svg	stimuli_target_diamondsquares.svg	28	yes	57	0	409	0	0			0	0			1				0	
6.6.1	win	2023-07-13	20:25:16	20:32:10	409261	5ecc5d22a5e08e45bf551927	3	1	main_slash	7	main_slash	137	stimuli_target_trianglesquares.svg	stimuli_distractor_trianglediamonds.svg	18	yes	53	1	804	0	0			0	0			1				0	
6.6.1	win	2023-07-13	20:25:16	20:32:10	409261	5ecc5d22a5e08e45bf551927	3	1	main_slash	7	advance_on_keypress_SLASH	138	stimuli_target_trianglesquares.svg	stimuli_distractor_trianglediamonds.svg	18	yes	57	0	490	0	0			0	0			1				0	
6.6.1	win	2023-07-13	20:25:16	20:32:13	412390	5ecc5d22a5e08e45bf551927	3	1	main_slash	7	main_slash	139	stimuli_distractor_diamondtriangles.svg	stimuli_distractor_trianglediamonds.svg	38	no	0	1	2000	0	0			0	0			1				0	
6.6.1	win	2023-07-13	20:25:16	20:32:13	412390	5ecc5d22a5e08e45bf551927	3	1	main_slash	7	advance_on_keypress_SLASH	140	stimuli_distractor_diamondtriangles.svg	stimuli_distractor_trianglediamonds.svg	38	no	57	0	569	0	0			0	0			1				0	
6.6.1	win	2023-07-13	20:25:16	20:32:15	414530	5ecc5d22a5e08e45bf551927	3	1	main_slash	7	main_slash	141	stimuli_target_diamondrectangles.svg	stimuli_distractor_trianglediamonds.svg	19	yes	53	1	924	0	0			0	0			1				0	
6.6.1	win	2023-07-13	20:25:16	20:32:15	414530	5ecc5d22a5e08e45bf551927	3	1	main_slash	7	advance_on_keypress_SLASH	142	stimuli_target_diamondrectangles.svg	stimuli_distractor_trianglediamonds.svg	19	yes	57	0	554	0	0			0	0			1				0	
6.6.1	win	2023-07-13	20:25:16	20:32:17	416716	5ecc5d22a5e08e45bf551927	3	1	main_slash	7	main_slash	143	stimuli_distractor_diamondtriangles.svg	stimuli_target_rectangletriangles.svg	13	yes	53	1	993	0	0			0	0			1				0	
6.6.1	win	2023-07-13	20:25:16	20:32:17	416716	5ecc5d22a5e08e45bf551927	3	1	main_slash	7	advance_on_keypress_SLASH	144	stimuli_distractor_diamondtriangles.svg	stimuli_target_rectangletriangles.svg	13	yes	57	0	625	0	0			0	0			1				0	
6.6.1	win	2023-07-13	20:25:16	20:32:19	418865	5ecc5d22a5e08e45bf551927	3	1	main_slash	7	main_slash	145	stimuli_distractor_diamondtriangles.svg	stimuli_target_squaretriangles.svg	15	yes	53	1	877	0	0			0	0			1				0	
6.6.1	win	2023-07-13	20:25:16	20:32:19	418865	5ecc5d22a5e08e45bf551927	3	1	main_slash	7	advance_on_keypress_SLASH	146	stimuli_distractor_diamondtriangles.svg	stimuli_target_squaretriangles.svg	15	yes	57	0	410	0	0			0	0			1				0	
6.6.1	win	2023-07-13	20:25:16	20:32:21	420590	5ecc5d22a5e08e45bf551927	3	1	main_slash	7	main_slash	147	stimuli_distractor_diamondtriangles.svg	stimuli_target_squarediamonds.svg	16	yes	53	1	653	0	0			0	0			1				0	
6.6.1	win	2023-07-13	20:25:16	20:32:21	420590	5ecc5d22a5e08e45bf551927	3	1	main_slash	7	advance_on_keypress_SLASH	148	stimuli_distractor_diamondtriangles.svg	stimuli_target_squarediamonds.svg	16	yes	57	0	459	0	0			0	0			1				0	
6.6.1	win	2023-07-13	20:25:16	20:32:24	423703	5ecc5d22a5e08e45bf551927	3	1	main_slash	7	main_slash	149	stimuli_distractor_trianglediamonds.svg	stimuli_distractor_trianglediamonds.svg	33	no	0	1	2000	0	0			0	0			1				0	
6.6.1	win	2023-07-13	20:25:16	20:32:24	423703	5ecc5d22a5e08e45bf551927	3	1	main_slash	7	advance_on_keypress_SLASH	150	stimuli_distractor_trianglediamonds.svg	stimuli_distractor_trianglediamonds.svg	33	no	57	0	332	0	0			0	0			1				0	
6.6.1	win	2023-07-13	20:25:16	20:32:26	425427	5ecc5d22a5e08e45bf551927	3	1	main_slash	7	main_slash	151	stimuli_target_rectangletriangles.svg	stimuli_distractor_diamondtriangles.svg	5	yes	53	1	741	0	0			0	0			1				0	
6.6.1	win	2023-07-13	20:25:16	20:32:26	425427	5ecc5d22a5e08e45bf551927	3	1	main_slash	7	advance_on_keypress_SLASH	152	stimuli_target_rectangletriangles.svg	stimuli_distractor_diamondtriangles.svg	5	yes	57	0	537	0	0			0	0			1				0	
6.6.1	win	2023-07-13	20:25:16	20:32:28	427407	5ecc5d22a5e08e45bf551927	3	1	main_slash	7	main_slash	153	stimuli_distractor_trianglediamonds.svg	stimuli_target_trianglerectangles.svg	25	yes	53	1	805	0	0			0	0			1				0	
6.6.1	win	2023-07-13	20:25:16	20:32:28	427407	5ecc5d22a5e08e45bf551927	3	1	main_slash	7	advance_on_keypress_SLASH	154	stimuli_distractor_trianglediamonds.svg	stimuli_target_trianglerectangles.svg	25	yes	57	0	482	0	0			0	0			1				0	
6.6.1	win	2023-07-13	20:25:16	20:32:30	429241	5ecc5d22a5e08e45bf551927	3	1	main_slash	7	main_slash	155	stimuli_target_squarediamonds.svg	stimuli_distractor_trianglediamonds.svg	4	yes	53	1	707	0	0			0	0			1				0	
6.6.1	win	2023-07-13	20:25:16	20:32:30	429241	5ecc5d22a5e08e45bf551927	3	1	main_slash	7	advance_on_keypress_SLASH	156	stimuli_target_squarediamonds.svg	stimuli_distractor_trianglediamonds.svg	4	yes	57	0	461	0	0			0	0			1				0	
6.6.1	win	2023-07-13	20:25:16	20:32:32	431023	5ecc5d22a5e08e45bf551927	3	1	main_slash	7	main_slash	157	stimuli_target_rectanglediamonds.svg	stimuli_distractor_diamondtriangles.svg	6	yes	53	1	672	0	0			0	0			1				0	
6.6.1	win	2023-07-13	20:25:16	20:32:32	431023	5ecc5d22a5e08e45bf551927	3	1	main_slash	7	advance_on_keypress_SLASH	158	stimuli_target_rectanglediamonds.svg	stimuli_distractor_diamondtriangles.svg	6	yes	57	0	479	0	0			0	0			1				0	
6.6.1	win	2023-07-13	20:25:16	20:32:35	434150	5ecc5d22a5e08e45bf551927	3	1	main_slash	7	main_slash	159	stimuli_target_diamondsquares.svg	stimuli_distractor_trianglediamonds.svg	20	yes	0	0	2000	0	0			0	0			1				0	
6.6.1	win	2023-07-13	20:25:16	20:32:35	434150	5ecc5d22a5e08e45bf551927	3	1	main_slash	7	advance_on_keypress_SLASH	160	stimuli_target_diamondsquares.svg	stimuli_distractor_trianglediamonds.svg	20	yes	57	0	416	0	0			0	0			1				0	
6.6.1	win	2023-07-13	20:25:16	20:33:02	461579	5ecc5d22a5e08e45bf551927	3	1	practice_z	9	practice_z	1	stimuli_target_rectanglediamonds.svg	stimuli_distractor_trianglediamonds.svg	4	yes	44	1	753	0	0			0	0			1				0	
6.6.1	win	2023-07-13	20:25:16	20:33:02	461579	5ecc5d22a5e08e45bf551927	3	1	practice_z	9	advance_on_keypress_ZEE	2	stimuli_target_rectanglediamonds.svg	stimuli_distractor_trianglediamonds.svg	4	yes	57	0	1291	0	0			0	0			1				0	
6.6.1	win	2023-07-13	20:25:16	20:33:06	465250	5ecc5d22a5e08e45bf551927	3	1	practice_z	9	practice_z	3	stimuli_distractor_trianglediamonds.svg	stimuli_target_diamondrectangles.svg	12	yes	44	1	742	0	0			0	0			1				0	
6.6.1	win	2023-07-13	20:25:16	20:33:06	465250	5ecc5d22a5e08e45bf551927	3	1	practice_z	9	advance_on_keypress_ZEE	4	stimuli_distractor_trianglediamonds.svg	stimuli_target_diamondrectangles.svg	12	yes	57	0	798	0	0			0	0			1				0	
6.6.1	win	2023-07-13	20:25:16	20:33:09	468429	5ecc5d22a5e08e45bf551927	3	1	practice_z	9	practice_z	5	stimuli_distractor_diamondtriangles.svg	stimuli_target_rectangletriangles.svg	7	yes	44	1	739	0	0			0	0			1				0	
6.6.1	win	2023-07-13	20:25:16	20:33:09	468429	5ecc5d22a5e08e45bf551927	3	1	practice_z	9	advance_on_keypress_ZEE	6	stimuli_distractor_diamondtriangles.svg	stimuli_target_rectangletriangles.svg	7	yes	57	0	383	0	0			0	0			1				0	
6.6.1	win	2023-07-13	20:25:16	20:33:12	471451	5ecc5d22a5e08e45bf551927	3	1	practice_z	9	practice_z	7	stimuli_distractor_trianglediamonds.svg	stimuli_distractor_trianglediamonds.svg	15	no	44	0	995	0	0			0	0			1				0	
6.6.1	win	2023-07-13	20:25:16	20:33:12	471451	5ecc5d22a5e08e45bf551927	3	1	practice_z	9	advance_on_keypress_ZEE	8	stimuli_distractor_trianglediamonds.svg	stimuli_distractor_trianglediamonds.svg	15	no	57	0	397	0	0			0	0			1				0	
6.6.1	win	2023-07-13	20:25:16	20:33:16	475505	5ecc5d22a5e08e45bf551927	3	1	practice_z	9	practice_z	9	stimuli_distractor_trianglediamonds.svg	stimuli_distractor_diamondtriangles.svg	16	no	0	1	2000	0	0			0	0			1				0	
6.6.1	win	2023-07-13	20:25:16	20:33:16	475505	5ecc5d22a5e08e45bf551927	3	1	practice_z	9	advance_on_keypress_ZEE	10	stimuli_distractor_trianglediamonds.svg	stimuli_distractor_diamondtriangles.svg	16	no	57	0	428	0	0			0	0			1				0	
6.6.1	win	2023-07-13	20:25:16	20:33:19	478224	5ecc5d22a5e08e45bf551927	3	1	practice_z	9	practice_z	11	stimuli_target_diamondsquares.svg	stimuli_distractor_diamondtriangles.svg	3	yes	44	1	637	0	0			0	0			1				0	
6.6.1	win	2023-07-13	20:25:16	20:33:19	478224	5ecc5d22a5e08e45bf551927	3	1	practice_z	9	advance_on_keypress_ZEE	12	stimuli_target_diamondsquares.svg	stimuli_distractor_diamondtriangles.svg	3	yes	57	0	330	0	0			0	0			1				0	
6.6.1	win	2023-07-13	20:25:16	20:33:21	480808	5ecc5d22a5e08e45bf551927	3	1	practice_z	9	practice_z	13	stimuli_target_diamondsquares.svg	stimuli_distractor_trianglediamonds.svg	6	yes	44	1	605	0	0			0	0			1				0	
6.6.1	win	2023-07-13	20:25:16	20:33:21	480808	5ecc5d22a5e08e45bf551927	3	1	practice_z	9	advance_on_keypress_ZEE	14	stimuli_target_diamondsquares.svg	stimuli_distractor_trianglediamonds.svg	6	yes	57	0	293	0	0			0	0			1				0	
6.6.1	win	2023-07-13	20:25:16	20:33:24	483332	5ecc5d22a5e08e45bf551927	3	1	practice_z	9	practice_z	15	stimuli_target_squarediamonds.svg	stimuli_distractor_diamondtriangles.svg	2	yes	44	1	580	0	0			0	0			1				0	
6.6.1	win	2023-07-13	20:25:16	20:33:24	483332	5ecc5d22a5e08e45bf551927	3	1	practice_z	9	advance_on_keypress_ZEE	16	stimuli_target_squarediamonds.svg	stimuli_distractor_diamondtriangles.svg	2	yes	57	0	276	0	0			0	0			1				0	
6.6.1	win	2023-07-13	20:25:16	20:33:26	485855	5ecc5d22a5e08e45bf551927	3	1	practice_z	9	practice_z	17	stimuli_target_rectanglediamonds.svg	stimuli_distractor_diamondtriangles.svg	1	yes	44	1	603	0	0			0	0			1				0	
6.6.1	win	2023-07-13	20:25:16	20:33:26	485855	5ecc5d22a5e08e45bf551927	3	1	practice_z	9	advance_on_keypress_ZEE	18	stimuli_target_rectanglediamonds.svg	stimuli_distractor_diamondtriangles.svg	1	yes	57	0	324	0	0			0	0			1				0	
6.6.1	win	2023-07-13	20:25:16	20:33:29	488444	5ecc5d22a5e08e45bf551927	3	1	practice_z	9	practice_z	19	stimuli_distractor_trianglediamonds.svg	stimuli_target_rectanglediamonds.svg	10	yes	44	1	610	0	0			0	0			1				0	
6.6.1	win	2023-07-13	20:25:16	20:33:29	488444	5ecc5d22a5e08e45bf551927	3	1	practice_z	9	advance_on_keypress_ZEE	20	stimuli_distractor_trianglediamonds.svg	stimuli_target_rectanglediamonds.svg	10	yes	57	0	1016	0	0			0	0			1				0	
6.6.1	win	2023-07-13	20:25:16	20:33:32	491875	5ecc5d22a5e08e45bf551927	3	1	practice_z	9	practice_z	21	stimuli_distractor_diamondtriangles.svg	stimuli_distractor_trianglediamonds.svg	14	no	44	0	759	0	0			0	0			1				0	
6.6.1	win	2023-07-13	20:25:16	20:33:32	491875	5ecc5d22a5e08e45bf551927	3	1	practice_z	9	advance_on_keypress_ZEE	22	stimuli_distractor_diamondtriangles.svg	stimuli_distractor_trianglediamonds.svg	14	no	57	0	371	0	0			0	0			1				0	
6.6.1	win	2023-07-13	20:25:16	20:33:35	494583	5ecc5d22a5e08e45bf551927	3	1	practice_z	9	practice_z	23	stimuli_target_squarediamonds.svg	stimuli_distractor_trianglediamonds.svg	5	yes	44	1	702	0	0			0	0			1				0	
6.6.1	win	2023-07-13	20:25:16	20:33:35	494583	5ecc5d22a5e08e45bf551927	3	1	practice_z	9	advance_on_keypress_ZEE	24	stimuli_target_squarediamonds.svg	stimuli_distractor_trianglediamonds.svg	5	yes	57	0	428	0	0			0	0			1				0	
6.6.1	win	2023-07-13	20:25:16	20:33:38	497417	5ecc5d22a5e08e45bf551927	3	1	practice_z	9	practice_z	25	stimuli_distractor_diamondtriangles.svg	stimuli_target_trianglerectangles.svg	9	yes	44	1	753	0	0			0	0			1				0	
6.6.1	win	2023-07-13	20:25:16	20:33:38	497417	5ecc5d22a5e08e45bf551927	3	1	practice_z	9	advance_on_keypress_ZEE	26	stimuli_distractor_diamondtriangles.svg	stimuli_target_trianglerectangles.svg	9	yes	57	0	238	0	0			0	0			1				0	
6.6.1	win	2023-07-13	20:25:16	20:33:42	501296	5ecc5d22a5e08e45bf551927	3	1	practice_z	9	practice_z	27	stimuli_distractor_diamondtriangles.svg	stimuli_distractor_diamondtriangles.svg	13	no	0	1	2000	0	0			0	0			1				0	
6.6.1	win	2023-07-13	20:25:16	20:33:42	501296	5ecc5d22a5e08e45bf551927	3	1	practice_z	9	advance_on_keypress_ZEE	28	stimuli_distractor_diamondtriangles.svg	stimuli_distractor_diamondtriangles.svg	13	no	57	0	291	0	0			0	0			1				0	
6.6.1	win	2023-07-13	20:25:16	20:33:44	503890	5ecc5d22a5e08e45bf551927	3	1	practice_z	9	practice_z	29	stimuli_distractor_trianglediamonds.svg	stimuli_target_squarediamonds.svg	11	yes	44	1	645	0	0			0	0			1				0	
6.6.1	win	2023-07-13	20:25:16	20:33:44	503890	5ecc5d22a5e08e45bf551927	3	1	practice_z	9	advance_on_keypress_ZEE	30	stimuli_distractor_trianglediamonds.svg	stimuli_target_squarediamonds.svg	11	yes	57	0	769	0	0			0	0			1				0	
6.6.1	win	2023-07-13	20:25:16	20:33:47	506911	5ecc5d22a5e08e45bf551927	3	1	practice_z	9	practice_z	31	stimuli_distractor_diamondtriangles.svg	stimuli_target_diamondrectangles.svg	8	yes	44	1	599	0	0			0	0			1				0	
6.6.1	win	2023-07-13	20:25:16	20:33:47	506911	5ecc5d22a5e08e45bf551927	3	1	practice_z	9	advance_on_keypress_ZEE	32	stimuli_distractor_diamondtriangles.svg	stimuli_target_diamondrectangles.svg	8	yes	57	0	218	0	0			0	0			1				0	
6.6.1	win	2023-07-13	20:25:16	20:33:55	514198	5ecc5d22a5e08e45bf551927	3	1	main_z	11	main_z	1	stimuli_target_trianglesquares.svg	stimuli_distractor_trianglediamonds.svg	18	yes	44	1	791	0	0			0	0			1				0	
6.6.1	win	2023-07-13	20:25:16	20:33:55	514198	5ecc5d22a5e08e45bf551927	3	1	main_z	11	advance_on_keypress_ZEE	2	stimuli_target_trianglesquares.svg	stimuli_distractor_trianglediamonds.svg	18	yes	57	0	611	0	0			0	0			1				0	
6.6.1	win	2023-07-13	20:25:16	20:33:58	517455	5ecc5d22a5e08e45bf551927	3	1	main_z	11	main_z	3	stimuli_distractor_trianglediamonds.svg	stimuli_distractor_trianglediamonds.svg	34	no	0	1	2000	0	0			0	0			1				0	
6.6.1	win	2023-07-13	20:25:16	20:33:58	517455	5ecc5d22a5e08e45bf551927	3	1	main_z	11	advance_on_keypress_ZEE	4	stimuli_distractor_trianglediamonds.svg	stimuli_distractor_trianglediamonds.svg	34	no	57	0	585	0	0			0	0			1				0	
6.6.1	win	2023-07-13	20:25:16	20:34:00	519437	5ecc5d22a5e08e45bf551927	3	1	main_z	11	main_z	5	stimuli_distractor_diamondtriangles.svg	stimuli_target_diamondsquares.svg	32	yes	44	1	749	0	0			0	0			1				0	
6.6.1	win	2023-07-13	20:25:16	20:34:00	519437	5ecc5d22a5e08e45bf551927	3	1	main_z	11	advance_on_keypress_ZEE	6	stimuli_distractor_diamondtriangles.svg	stimuli_target_diamondsquares.svg	32	yes	57	0	626	0	0			0	0			1				0	
6.6.1	win	2023-07-13	20:25:16	20:34:03	522149	5ecc5d22a5e08e45bf551927	3	1	main_z	11	main_z	7	stimuli_distractor_diamondtriangles.svg	stimuli_target_diamondrectangles.svg	31	yes	44	1	1446	0	0			0	0			1				0	
6.6.1	win	2023-07-13	20:25:16	20:34:03	522149	5ecc5d22a5e08e45bf551927	3	1	main_z	11	advance_on_keypress_ZEE	8	stimuli_distractor_diamondtriangles.svg	stimuli_target_diamondrectangles.svg	31	yes	57	0	794	0	0			0	0			1				0	
6.6.1	win	2023-07-13	20:25:16	20:34:06	525586	5ecc5d22a5e08e45bf551927	3	1	main_z	11	main_z	9	stimuli_distractor_diamondtriangles.svg	stimuli_distractor_diamondtriangles.svg	40	no	0	1	2000	0	0			0	0			1				0	
6.6.1	win	2023-07-13	20:25:16	20:34:06	525586	5ecc5d22a5e08e45bf551927	3	1	main_z	11	advance_on_keypress_ZEE	10	stimuli_distractor_diamondtriangles.svg	stimuli_distractor_diamondtriangles.svg	40	no	57	0	729	0	0			0	0			1				0	
6.6.1	win	2023-07-13	20:25:16	20:34:08	527974	5ecc5d22a5e08e45bf551927	3	1	main_z	11	main_z	11	stimuli_distractor_trianglediamonds.svg	stimuli_target_squaretriangles.svg	11	yes	44	1	1005	0	0			0	0			1				0	
6.6.1	win	2023-07-13	20:25:16	20:34:08	527974	5ecc5d22a5e08e45bf551927	3	1	main_z	11	advance_on_keypress_ZEE	12	stimuli_distractor_trianglediamonds.svg	stimuli_target_squaretriangles.svg	11	yes	57	0	678	0	0			0	0			1				0	
6.6.1	win	2023-07-13	20:25:16	20:34:11	530021	5ecc5d22a5e08e45bf551927	3	1	main_z	11	main_z	13	stimuli_distractor_diamondtriangles.svg	stimuli_target_squaretriangles.svg	15	yes	44	1	738	0	0			0	0			1				0	
6.6.1	win	2023-07-13	20:25:16	20:34:11	530021	5ecc5d22a5e08e45bf551927	3	1	main_z	11	advance_on_keypress_ZEE	14	stimuli_distractor_diamondtriangles.svg	stimuli_target_squaretriangles.svg	15	yes	57	0	548	0	0			0	0			1				0	
6.6.1	win	2023-07-13	20:25:16	20:34:12	531954	5ecc5d22a5e08e45bf551927	3	1	main_z	11	main_z	15	stimuli_distractor_trianglediamonds.svg	stimuli_target_diamondrectangles.svg	27	yes	44	1	738	0	0			0	0			1				0	
6.6.1	win	2023-07-13	20:25:16	20:34:12	531954	5ecc5d22a5e08e45bf551927	3	1	main_z	11	advance_on_keypress_ZEE	16	stimuli_distractor_trianglediamonds.svg	stimuli_target_diamondrectangles.svg	27	yes	57	0	751	0	0			0	0			1				0	
6.6.1	win	2023-07-13	20:25:16	20:34:15	534138	5ecc5d22a5e08e45bf551927	3	1	main_z	11	main_z	17	stimuli_distractor_trianglediamonds.svg	stimuli_target_rectanglediamonds.svg	10	yes	44	1	789	0	0			0	0			1				0	
6.6.1	win	2023-07-13	20:25:16	20:34:15	534138	5ecc5d22a5e08e45bf551927	3	1	main_z	11	advance_on_keypress_ZEE	18	stimuli_distractor_trianglediamonds.svg	stimuli_target_rectanglediamonds.svg	10	yes	57	0	615	0	0			0	0			1				0	
6.6.1	win	2023-07-13	20:25:16	20:34:17	536234	5ecc5d22a5e08e45bf551927	3	1	main_z	11	main_z	19	stimuli_target_rectanglediamonds.svg	stimuli_distractor_trianglediamonds.svg	2	yes	44	1	836	0	0			0	0			1				0	
6.6.1	win	2023-07-13	20:25:16	20:34:17	536234	5ecc5d22a5e08e45bf551927	3	1	main_z	11	advance_on_keypress_ZEE	20	stimuli_target_rectanglediamonds.svg	stimuli_distractor_trianglediamonds.svg	2	yes	57	0	1200	0	0			0	0			1				0	
6.6.1	win	2023-07-13	20:25:16	20:34:20	539031	5ecc5d22a5e08e45bf551927	3	1	main_z	11	main_z	21	stimuli_target_squaretriangles.svg	stimuli_distractor_diamondtriangles.svg	7	yes	44	1	950	0	0			0	0			1				0	
6.6.1	win	2023-07-13	20:25:16	20:34:20	539031	5ecc5d22a5e08e45bf551927	3	1	main_z	11	advance_on_keypress_ZEE	22	stimuli_target_squaretriangles.svg	stimuli_distractor_diamondtriangles.svg	7	yes	57	0	560	0	0			0	0			1				0	
6.6.1	win	2023-07-13	20:25:16	20:34:21	540948	5ecc5d22a5e08e45bf551927	3	1	main_z	11	main_z	23	stimuli_distractor_diamondtriangles.svg	stimuli_target_rectangletriangles.svg	13	yes	44	1	718	0	0			0	0			1				0	
6.6.1	win	2023-07-13	20:25:16	20:34:21	540948	5ecc5d22a5e08e45bf551927	3	1	main_z	11	advance_on_keypress_ZEE	24	stimuli_distractor_diamondtriangles.svg	stimuli_target_rectangletriangles.svg	13	yes	57	0	512	0	0			0	0			1				0	
6.6.1	win	2023-07-13	20:25:16	20:34:25	544113	5ecc5d22a5e08e45bf551927	3	1	main_z	11	main_z	25	stimuli_distractor_trianglediamonds.svg	stimuli_distractor_diamondtriangles.svg	36	no	0	1	2000	0	0			0	0			1				0	
6.6.1	win	2023-07-13	20:25:16	20:34:25	544113	5ecc5d22a5e08e45bf551927	3	1	main_z	11	advance_on_keypress_ZEE	26	stimuli_distractor_trianglediamonds.svg	stimuli_distractor_diamondtriangles.svg	36	no	57	0	407	0	0			0	0			1				0	
6.6.1	win	2023-07-13	20:25:16	20:34:26	545941	5ecc5d22a5e08e45bf551927	3	1	main_z	11	main_z	27	stimuli_target_trianglerectangles.svg	stimuli_distractor_diamondtriangles.svg	21	yes	44	1	780	0	0			0	0			1				0	
6.6.1	win	2023-07-13	20:25:16	20:34:26	545941	5ecc5d22a5e08e45bf551927	3	1	main_z	11	advance_on_keypress_ZEE	28	stimuli_target_trianglerectangles.svg	stimuli_distractor_diamondtriangles.svg	21	yes	57	0	573	0	0			0	0			1				0	
6.6.1	win	2023-07-13	20:25:16	20:34:30	549161	5ecc5d22a5e08e45bf551927	3	1	main_z	11	main_z	29	stimuli_distractor_diamondtriangles.svg	stimuli_distractor_trianglediamonds.svg	38	no	0	1	2000	0	0			0	0			1				0	
6.6.1	win	2023-07-13	20:25:16	20:34:30	549161	5ecc5d22a5e08e45bf551927	3	1	main_z	11	advance_on_keypress_ZEE	30	stimuli_distractor_diamondtriangles.svg	stimuli_distractor_trianglediamonds.svg	38	no	57	0	824	0	0			0	0			1				0	
6.6.1	win	2023-07-13	20:25:16	20:34:32	551381	5ecc5d22a5e08e45bf551927	3	1	main_z	11	main_z	31	stimuli_distractor_trianglediamonds.svg	stimuli_target_diamondsquares.svg	28	yes	44	1	755	0	0			0	0			1				0	
6.6.1	win	2023-07-13	20:25:16	20:34:32	551381	5ecc5d22a5e08e45bf551927	3	1	main_z	11	advance_on_keypress_ZEE	32	stimuli_distractor_trianglediamonds.svg	stimuli_target_diamondsquares.svg	28	yes	57	0	603	0	0			0	0			1				0	
6.6.1	win	2023-07-13	20:25:16	20:34:34	553456	5ecc5d22a5e08e45bf551927	3	1	main_z	11	main_z	33	stimuli_target_squarediamonds.svg	stimuli_distractor_trianglediamonds.svg	4	yes	44	1	830	0	0			0	0			1				0	
6.6.1	win	2023-07-13	20:25:16	20:34:34	553456	5ecc5d22a5e08e45bf551927	3	1	main_z	11	advance_on_keypress_ZEE	34	stimuli_target_squarediamonds.svg	stimuli_distractor_trianglediamonds.svg	4	yes	57	0	565	0	0			0	0			1				0	
6.6.1	win	2023-07-13	20:25:16	20:34:36	555387	5ecc5d22a5e08e45bf551927	3	1	main_z	11	main_z	35	stimuli_target_trianglesquares.svg	stimuli_distractor_diamondtriangles.svg	22	yes	44	1	711	0	0			0	0			1				0	
6.6.1	win	2023-07-13	20:25:16	20:34:36	555387	5ecc5d22a5e08e45bf551927	3	1	main_z	11	advance_on_keypress_ZEE	36	stimuli_target_trianglesquares.svg	stimuli_distractor_diamondtriangles.svg	22	yes	57	0	466	0	0			0	0			1				0	
6.6.1	win	2023-07-13	20:25:16	20:34:38	557266	5ecc5d22a5e08e45bf551927	3	1	main_z	11	main_z	37	stimuli_distractor_diamondtriangles.svg	stimuli_target_squarediamonds.svg	16	yes	44	1	759	0	0			0	0			1				0	
6.6.1	win	2023-07-13	20:25:16	20:34:38	557266	5ecc5d22a5e08e45bf551927	3	1	main_z	11	advance_on_keypress_ZEE	38	stimuli_distractor_diamondtriangles.svg	stimuli_target_squarediamonds.svg	16	yes	57	0	488	0	0			0	0			1				0	
6.6.1	win	2023-07-13	20:25:16	20:34:40	559162	5ecc5d22a5e08e45bf551927	3	1	main_z	11	main_z	39	stimuli_distractor_diamondtriangles.svg	stimuli_target_trianglesquares.svg	30	yes	44	1	772	0	0			0	0			1				0	
6.6.1	win	2023-07-13	20:25:16	20:34:40	559162	5ecc5d22a5e08e45bf551927	3	1	main_z	11	advance_on_keypress_ZEE	40	stimuli_distractor_diamondtriangles.svg	stimuli_target_trianglesquares.svg	30	yes	57	0	529	0	0			0	0			1				0	
6.6.1	win	2023-07-13	20:25:16	20:34:42	561205	5ecc5d22a5e08e45bf551927	3	1	main_z	11	main_z	41	stimuli_target_diamondsquares.svg	stimuli_distractor_trianglediamonds.svg	20	yes	44	1	881	0	0			0	0			1				0	
6.6.1	win	2023-07-13	20:25:16	20:34:42	561205	5ecc5d22a5e08e45bf551927	3	1	main_z	11	advance_on_keypress_ZEE	42	stimuli_target_diamondsquares.svg	stimuli_distractor_trianglediamonds.svg	20	yes	57	0	460	0	0			0	0			1				0	
6.6.1	win	2023-07-13	20:25:16	20:34:44	563305	5ecc5d22a5e08e45bf551927	3	1	main_z	11	main_z	43	stimuli_distractor_trianglediamonds.svg	stimuli_target_rectangletriangles.svg	9	yes	44	1	999	0	0			0	0			1				0	
6.6.1	win	2023-07-13	20:25:16	20:34:44	563305	5ecc5d22a5e08e45bf551927	3	1	main_z	11	advance_on_keypress_ZEE	44	stimuli_distractor_trianglediamonds.svg	stimuli_target_rectangletriangles.svg	9	yes	57	0	480	0	0			0	0			1				0	
6.6.1	win	2023-07-13	20:25:16	20:34:46	565229	5ecc5d22a5e08e45bf551927	3	1	main_z	11	main_z	45	stimuli_distractor_trianglediamonds.svg	stimuli_target_squarediamonds.svg	12	yes	44	1	791	0	0			0	0			1				0	
6.6.1	win	2023-07-13	20:25:16	20:34:46	565229	5ecc5d22a5e08e45bf551927	3	1	main_z	11	advance_on_keypress_ZEE	46	stimuli_distractor_trianglediamonds.svg	stimuli_target_squarediamonds.svg	12	yes	57	0	505	0	0			0	0			1				0	
6.6.1	win	2023-07-13	20:25:16	20:34:48	567055	5ecc5d22a5e08e45bf551927	3	1	main_z	11	main_z	47	stimuli_distractor_diamondtriangles.svg	stimuli_target_trianglerectangles.svg	29	yes	44	1	684	0	0			0	0			1				0	
6.6.1	win	2023-07-13	20:25:16	20:34:48	567055	5ecc5d22a5e08e45bf551927	3	1	main_z	11	advance_on_keypress_ZEE	48	stimuli_distractor_diamondtriangles.svg	stimuli_target_trianglerectangles.svg	29	yes	57	0	484	0	0			0	0			1				0	
6.6.1	win	2023-07-13	20:25:16	20:34:50	569424	5ecc5d22a5e08e45bf551927	3	1	main_z	11	main_z	49	stimuli_target_rectangletriangles.svg	stimuli_distractor_trianglediamonds.svg	1	yes	44	1	1237	0	0			0	0			1				0	
6.6.1	win	2023-07-13	20:25:16	20:34:50	569424	5ecc5d22a5e08e45bf551927	3	1	main_z	11	advance_on_keypress_ZEE	50	stimuli_target_rectangletriangles.svg	stimuli_distractor_trianglediamonds.svg	1	yes	57	0	585	0	0			0	0			1				0	
6.6.1	win	2023-07-13	20:25:16	20:34:52	571348	5ecc5d22a5e08e45bf551927	3	1	main_z	11	main_z	51	stimuli_target_diamondrectangles.svg	stimuli_distractor_trianglediamonds.svg	19	yes	44	1	695	0	0			0	0			1				0	
6.6.1	win	2023-07-13	20:25:16	20:34:52	571348	5ecc5d22a5e08e45bf551927	3	1	main_z	11	advance_on_keypress_ZEE	52	stimuli_target_diamondrectangles.svg	stimuli_distractor_trianglediamonds.svg	19	yes	57	0	451	0	0			0	0			1				0	
6.6.1	win	2023-07-13	20:25:16	20:34:54	573244	5ecc5d22a5e08e45bf551927	3	1	main_z	11	main_z	53	stimuli_target_squarediamonds.svg	stimuli_distractor_diamondtriangles.svg	8	yes	44	1	808	0	0			0	0			1				0	
6.6.1	win	2023-07-13	20:25:16	20:34:54	573244	5ecc5d22a5e08e45bf551927	3	1	main_z	11	advance_on_keypress_ZEE	54	stimuli_target_squarediamonds.svg	stimuli_distractor_diamondtriangles.svg	8	yes	57	0	609	0	0			0	0			1				0	
6.6.1	win	2023-07-13	20:25:16	20:34:56	575214	5ecc5d22a5e08e45bf551927	3	1	main_z	11	main_z	55	stimuli_target_rectangletriangles.svg	stimuli_distractor_diamondtriangles.svg	5	yes	44	1	729	0	0			0	0			1				0	
6.6.1	win	2023-07-13	20:25:16	20:34:56	575214	5ecc5d22a5e08e45bf551927	3	1	main_z	11	advance_on_keypress_ZEE	56	stimuli_target_rectangletriangles.svg	stimuli_distractor_diamondtriangles.svg	5	yes	57	0	515	0	0			0	0			1				0	
6.6.1	win	2023-07-13	20:25:16	20:34:58	577055	5ecc5d22a5e08e45bf551927	3	1	main_z	11	main_z	57	stimuli_distractor_trianglediamonds.svg	stimuli_target_trianglesquares.svg	26	yes	44	1	671	0	0			0	0			1				0	
6.6.1	win	2023-07-13	20:25:16	20:34:58	577055	5ecc5d22a5e08e45bf551927	3	1	main_z	11	advance_on_keypress_ZEE	58	stimuli_distractor_trianglediamonds.svg	stimuli_target_trianglesquares.svg	26	yes	57	0	518	0	0			0	0			1				0	
6.6.1	win	2023-07-13	20:25:16	20:34:59	578973	5ecc5d22a5e08e45bf551927	3	1	main_z	11	main_z	59	stimuli_target_squaretriangles.svg	stimuli_distractor_trianglediamonds.svg	3	yes	44	1	756	0	0			0	0			1				0	
6.6.1	win	2023-07-13	20:25:16	20:34:59	578973	5ecc5d22a5e08e45bf551927	3	1	main_z	11	advance_on_keypress_ZEE	60	stimuli_target_squaretriangles.svg	stimuli_distractor_trianglediamonds.svg	3	yes	57	0	608	0	0			0	0			1				0	
6.6.1	win	2023-07-13	20:25:16	20:35:02	581528	5ecc5d22a5e08e45bf551927	3	1	main_z	11	main_z	61	stimuli_target_trianglerectangles.svg	stimuli_distractor_trianglediamonds.svg	17	yes	44	1	1312	0	0			0	0			1				0	
6.6.1	win	2023-07-13	20:25:16	20:35:02	581528	5ecc5d22a5e08e45bf551927	3	1	main_z	11	advance_on_keypress_ZEE	62	stimuli_target_trianglerectangles.svg	stimuli_distractor_trianglediamonds.svg	17	yes	57	0	559	0	0			0	0			1				0	
6.6.1	win	2023-07-13	20:25:16	20:35:04	583579	5ecc5d22a5e08e45bf551927	3	1	main_z	11	main_z	63	stimuli_target_diamondrectangles.svg	stimuli_distractor_diamondtriangles.svg	23	yes	44	1	847	0	0			0	0			1				0	
6.6.1	win	2023-07-13	20:25:16	20:35:04	583579	5ecc5d22a5e08e45bf551927	3	1	main_z	11	advance_on_keypress_ZEE	64	stimuli_target_diamondrectangles.svg	stimuli_distractor_diamondtriangles.svg	23	yes	57	0	554	0	0			0	0			1				0	
6.6.1	win	2023-07-13	20:25:16	20:35:06	585977	5ecc5d22a5e08e45bf551927	3	1	main_z	11	main_z	65	stimuli_distractor_diamondtriangles.svg	stimuli_distractor_trianglediamonds.svg	37	no	44	0	1196	0	0			0	0			1				0	
6.6.1	win	2023-07-13	20:25:16	20:35:06	585977	5ecc5d22a5e08e45bf551927	3	1	main_z	11	advance_on_keypress_ZEE	66	stimuli_distractor_diamondtriangles.svg	stimuli_distractor_trianglediamonds.svg	37	no	57	0	511	0	0			0	0			1				0	
6.6.1	win	2023-07-13	20:25:16	20:35:10	589131	5ecc5d22a5e08e45bf551927	3	1	main_z	11	main_z	67	stimuli_distractor_trianglediamonds.svg	stimuli_distractor_diamondtriangles.svg	35	no	0	1	2000	0	0			0	0			1				0	
6.6.1	win	2023-07-13	20:25:16	20:35:10	589131	5ecc5d22a5e08e45bf551927	3	1	main_z	11	advance_on_keypress_ZEE	68	stimuli_distractor_trianglediamonds.svg	stimuli_distractor_diamondtriangles.svg	35	no	57	0	649	0	0			0	0			1				0	
6.6.1	win	2023-07-13	20:25:16	20:35:13	592429	5ecc5d22a5e08e45bf551927	3	1	main_z	11	main_z	69	stimuli_distractor_trianglediamonds.svg	stimuli_distractor_trianglediamonds.svg	33	no	0	1	2000	0	0			0	0			1				0	
6.6.1	win	2023-07-13	20:25:16	20:35:13	592429	5ecc5d22a5e08e45bf551927	3	1	main_z	11	advance_on_keypress_ZEE	70	stimuli_distractor_trianglediamonds.svg	stimuli_distractor_trianglediamonds.svg	33	no	57	0	395	0	0			0	0			1				0	
6.6.1	win	2023-07-13	20:25:16	20:35:16	595479	5ecc5d22a5e08e45bf551927	3	1	main_z	11	main_z	71	stimuli_distractor_diamondtriangles.svg	stimuli_distractor_diamondtriangles.svg	39	no	0	1	2000	0	0			0	0			1				0	
6.6.1	win	2023-07-13	20:25:16	20:35:16	595479	5ecc5d22a5e08e45bf551927	3	1	main_z	11	advance_on_keypress_ZEE	72	stimuli_distractor_diamondtriangles.svg	stimuli_distractor_diamondtriangles.svg	39	no	57	0	737	0	0			0	0			1				0	
6.6.1	win	2023-07-13	20:25:16	20:35:19	598861	5ecc5d22a5e08e45bf551927	3	1	main_z	11	main_z	73	stimuli_target_diamondsquares.svg	stimuli_distractor_diamondtriangles.svg	24	yes	0	0	2000	0	0			0	0			1				0	
6.6.1	win	2023-07-13	20:25:16	20:35:19	598861	5ecc5d22a5e08e45bf551927	3	1	main_z	11	advance_on_keypress_ZEE	74	stimuli_target_diamondsquares.svg	stimuli_distractor_diamondtriangles.svg	24	yes	57	0	904	0	0			0	0			1				0	
6.6.1	win	2023-07-13	20:25:16	20:35:22	601198	5ecc5d22a5e08e45bf551927	3	1	main_z	11	main_z	75	stimuli_distractor_trianglediamonds.svg	stimuli_target_trianglerectangles.svg	25	yes	44	1	788	0	0			0	0			1				0	
6.6.1	win	2023-07-13	20:25:16	20:35:22	601198	5ecc5d22a5e08e45bf551927	3	1	main_z	11	advance_on_keypress_ZEE	76	stimuli_distractor_trianglediamonds.svg	stimuli_target_trianglerectangles.svg	25	yes	57	0	550	0	0			0	0			1				0	
6.6.1	win	2023-07-13	20:25:16	20:35:24	603214	5ecc5d22a5e08e45bf551927	3	1	main_z	11	main_z	77	stimuli_distractor_diamondtriangles.svg	stimuli_target_rectanglediamonds.svg	14	yes	44	1	822	0	0			0	0			1				0	
6.6.1	win	2023-07-13	20:25:16	20:35:24	603214	5ecc5d22a5e08e45bf551927	3	1	main_z	11	advance_on_keypress_ZEE	78	stimuli_distractor_diamondtriangles.svg	stimuli_target_rectanglediamonds.svg	14	yes	57	0	531	0	0			0	0			1				0	
6.6.1	win	2023-07-13	20:25:16	20:35:26	605347	5ecc5d22a5e08e45bf551927	3	1	main_z	11	main_z	79	stimuli_target_rectanglediamonds.svg	stimuli_distractor_diamondtriangles.svg	6	yes	44	1	954	0	0			0	0			1				0	
6.6.1	win	2023-07-13	20:25:16	20:35:26	605347	5ecc5d22a5e08e45bf551927	3	1	main_z	11	advance_on_keypress_ZEE	80	stimuli_target_rectanglediamonds.svg	stimuli_distractor_diamondtriangles.svg	6	yes	57	0	475	0	0			0	0			1				0	
6.6.1	win	2023-07-13	20:25:16	20:35:28	607207	5ecc5d22a5e08e45bf551927	3	1	main_z	11	main_z	81	stimuli_target_trianglerectangles.svg	stimuli_distractor_diamondtriangles.svg	21	yes	44	1	750	0	0			0	0			1				0	
6.6.1	win	2023-07-13	20:25:16	20:35:28	607207	5ecc5d22a5e08e45bf551927	3	1	main_z	11	advance_on_keypress_ZEE	82	stimuli_target_trianglerectangles.svg	stimuli_distractor_diamondtriangles.svg	21	yes	57	0	456	0	0			0	0			1				0	
6.6.1	win	2023-07-13	20:25:16	20:35:30	609058	5ecc5d22a5e08e45bf551927	3	1	main_z	11	main_z	83	stimuli_target_squaretriangles.svg	stimuli_distractor_trianglediamonds.svg	3	yes	44	1	751	0	0			0	0			1				0	
6.6.1	win	2023-07-13	20:25:16	20:35:30	609058	5ecc5d22a5e08e45bf551927	3	1	main_z	11	advance_on_keypress_ZEE	84	stimuli_target_squaretriangles.svg	stimuli_distractor_trianglediamonds.svg	3	yes	57	0	443	0	0			0	0			1				0	
6.6.1	win	2023-07-13	20:25:16	20:35:31	610852	5ecc5d22a5e08e45bf551927	3	1	main_z	11	main_z	85	stimuli_distractor_trianglediamonds.svg	stimuli_target_rectanglediamonds.svg	10	yes	44	1	713	0	0			0	0			1				0	
6.6.1	win	2023-07-13	20:25:16	20:35:31	610852	5ecc5d22a5e08e45bf551927	3	1	main_z	11	advance_on_keypress_ZEE	86	stimuli_distractor_trianglediamonds.svg	stimuli_target_rectanglediamonds.svg	10	yes	57	0	477	0	0			0	0			1				0	
6.6.1	win	2023-07-13	20:25:16	20:35:33	612778	5ecc5d22a5e08e45bf551927	3	1	main_z	11	main_z	87	stimuli_distractor_trianglediamonds.svg	stimuli_target_squarediamonds.svg	12	yes	44	1	805	0	0			0	0			1				0	
6.6.1	win	2023-07-13	20:25:16	20:35:33	612778	5ecc5d22a5e08e45bf551927	3	1	main_z	11	advance_on_keypress_ZEE	88	stimuli_distractor_trianglediamonds.svg	stimuli_target_squarediamonds.svg	12	yes	57	0	471	0	0			0	0			1				0	
6.6.1	win	2023-07-13	20:25:16	20:35:36	615087	5ecc5d22a5e08e45bf551927	3	1	main_z	11	main_z	89	stimuli_distractor_trianglediamonds.svg	stimuli_target_diamondrectangles.svg	27	yes	44	1	1199	0	0			0	0			1				0	
6.6.1	win	2023-07-13	20:25:16	20:35:36	615087	5ecc5d22a5e08e45bf551927	3	1	main_z	11	advance_on_keypress_ZEE	90	stimuli_distractor_trianglediamonds.svg	stimuli_target_diamondrectangles.svg	27	yes	57	0	438	0	0			0	0			1				0	
6.6.1	win	2023-07-13	20:25:16	20:35:37	616938	5ecc5d22a5e08e45bf551927	3	1	main_z	11	main_z	91	stimuli_distractor_diamondtriangles.svg	stimuli_target_trianglesquares.svg	30	yes	44	1	767	0	0			0	0			1				0	
6.6.1	win	2023-07-13	20:25:16	20:35:37	616938	5ecc5d22a5e08e45bf551927	3	1	main_z	11	advance_on_keypress_ZEE	92	stimuli_distractor_diamondtriangles.svg	stimuli_target_trianglesquares.svg	30	yes	57	0	489	0	0			0	0			1				0	
6.6.1	win	2023-07-13	20:25:16	20:35:41	620070	5ecc5d22a5e08e45bf551927	3	1	main_z	11	main_z	93	stimuli_distractor_trianglediamonds.svg	stimuli_distractor_trianglediamonds.svg	33	no	0	1	2000	0	0			0	0			1				0	
6.6.1	win	2023-07-13	20:25:16	20:35:41	620070	5ecc5d22a5e08e45bf551927	3	1	main_z	11	advance_on_keypress_ZEE	94	stimuli_distractor_trianglediamonds.svg	stimuli_distractor_trianglediamonds.svg	33	no	57	0	456	0	0			0	0			1				0	
6.6.1	win	2023-07-13	20:25:16	20:35:42	621830	5ecc5d22a5e08e45bf551927	3	1	main_z	11	main_z	95	stimuli_distractor_diamondtriangles.svg	stimuli_target_squaretriangles.svg	15	yes	44	1	661	0	0			0	0			1				0	
6.6.1	win	2023-07-13	20:25:16	20:35:42	621830	5ecc5d22a5e08e45bf551927	3	1	main_z	11	advance_on_keypress_ZEE	96	stimuli_distractor_diamondtriangles.svg	stimuli_target_squaretriangles.svg	15	yes	57	0	449	0	0			0	0			1				0	
6.6.1	win	2023-07-13	20:25:16	20:35:44	623692	5ecc5d22a5e08e45bf551927	3	1	main_z	11	main_z	97	stimuli_target_diamondrectangles.svg	stimuli_distractor_trianglediamonds.svg	19	yes	44	1	773	0	0			0	0			1				0	
6.6.1	win	2023-07-13	20:25:16	20:35:44	623692	5ecc5d22a5e08e45bf551927	3	1	main_z	11	advance_on_keypress_ZEE	98	stimuli_target_diamondrectangles.svg	stimuli_distractor_trianglediamonds.svg	19	yes	57	0	528	0	0			0	0			1				0	
6.6.1	win	2023-07-13	20:25:16	20:35:46	625587	5ecc5d22a5e08e45bf551927	3	1	main_z	11	main_z	99	stimuli_distractor_diamondtriangles.svg	stimuli_target_diamondrectangles.svg	31	yes	44	1	736	0	0			0	0			1				0	
6.6.1	win	2023-07-13	20:25:16	20:35:46	625587	5ecc5d22a5e08e45bf551927	3	1	main_z	11	advance_on_keypress_ZEE	100	stimuli_distractor_diamondtriangles.svg	stimuli_target_diamondrectangles.svg	31	yes	57	0	479	0	0			0	0			1				0	
6.6.1	win	2023-07-13	20:25:16	20:35:49	628718	5ecc5d22a5e08e45bf551927	3	1	main_z	11	main_z	101	stimuli_distractor_diamondtriangles.svg	stimuli_distractor_trianglediamonds.svg	37	no	0	1	2000	0	0			0	0			1				0	
6.6.1	win	2023-07-13	20:25:16	20:35:49	628718	5ecc5d22a5e08e45bf551927	3	1	main_z	11	advance_on_keypress_ZEE	102	stimuli_distractor_diamondtriangles.svg	stimuli_distractor_trianglediamonds.svg	37	no	57	0	453	0	0			0	0			1				0	
6.6.1	win	2023-07-13	20:25:16	20:35:51	630567	5ecc5d22a5e08e45bf551927	3	1	main_z	11	main_z	103	stimuli_distractor_trianglediamonds.svg	stimuli_target_diamondsquares.svg	28	yes	44	1	751	0	0			0	0			1				0	
6.6.1	win	2023-07-13	20:25:16	20:35:51	630567	5ecc5d22a5e08e45bf551927	3	1	main_z	11	advance_on_keypress_ZEE	104	stimuli_distractor_trianglediamonds.svg	stimuli_target_diamondsquares.svg	28	yes	57	0	464	0	0			0	0			1				0	
6.6.1	win	2023-07-13	20:25:16	20:35:54	633682	5ecc5d22a5e08e45bf551927	3	1	main_z	11	main_z	105	stimuli_distractor_trianglediamonds.svg	stimuli_distractor_diamondtriangles.svg	36	no	0	1	2000	0	0			0	0			1				0	
6.6.1	win	2023-07-13	20:25:16	20:35:54	633682	5ecc5d22a5e08e45bf551927	3	1	main_z	11	advance_on_keypress_ZEE	106	stimuli_distractor_trianglediamonds.svg	stimuli_distractor_diamondtriangles.svg	36	no	57	0	351	0	0			0	0			1				0	
6.6.1	win	2023-07-13	20:25:16	20:35:56	635348	5ecc5d22a5e08e45bf551927	3	1	main_z	11	main_z	107	stimuli_target_diamondsquares.svg	stimuli_distractor_trianglediamonds.svg	20	yes	44	1	667	0	0			0	0			1				0	
6.6.1	win	2023-07-13	20:25:16	20:35:56	635348	5ecc5d22a5e08e45bf551927	3	1	main_z	11	advance_on_keypress_ZEE	108	stimuli_target_diamondsquares.svg	stimuli_distractor_trianglediamonds.svg	20	yes	57	0	485	0	0			0	0			1				0	
6.6.1	win	2023-07-13	20:25:16	20:35:58	637289	5ecc5d22a5e08e45bf551927	3	1	main_z	11	main_z	109	stimuli_distractor_trianglediamonds.svg	stimuli_target_trianglesquares.svg	26	yes	44	1	808	0	0			0	0			1				0	
6.6.1	win	2023-07-13	20:25:16	20:35:58	637289	5ecc5d22a5e08e45bf551927	3	1	main_z	11	advance_on_keypress_ZEE	110	stimuli_distractor_trianglediamonds.svg	stimuli_target_trianglesquares.svg	26	yes	57	0	466	0	0			0	0			1				0	
6.6.1	win	2023-07-13	20:25:16	20:36:00	639305	5ecc5d22a5e08e45bf551927	3	1	main_z	11	main_z	111	stimuli_distractor_trianglediamonds.svg	stimuli_target_squaretriangles.svg	11	yes	44	1	908	0	0			0	0			1				0	
6.6.1	win	2023-07-13	20:25:16	20:36:00	639305	5ecc5d22a5e08e45bf551927	3	1	main_z	11	advance_on_keypress_ZEE	112	stimuli_distractor_trianglediamonds.svg	stimuli_target_squaretriangles.svg	11	yes	57	0	534	0	0			0	0			1				0	
6.6.1	win	2023-07-13	20:25:16	20:36:03	642480	5ecc5d22a5e08e45bf551927	3	1	main_z	11	main_z	113	stimuli_distractor_diamondtriangles.svg	stimuli_target_diamondsquares.svg	32	yes	0	0	2000	0	0			0	0			1				0	
6.6.1	win	2023-07-13	20:25:16	20:36:03	642480	5ecc5d22a5e08e45bf551927	3	1	main_z	11	advance_on_keypress_ZEE	114	stimuli_distractor_diamondtriangles.svg	stimuli_target_diamondsquares.svg	32	yes	57	0	515	0	0			0	0			1				0	
6.6.1	win	2023-07-13	20:25:16	20:36:05	644436	5ecc5d22a5e08e45bf551927	3	1	main_z	11	main_z	115	stimuli_distractor_trianglediamonds.svg	stimuli_target_rectangletriangles.svg	9	yes	44	1	791	0	0			0	0			1				0	
6.6.1	win	2023-07-13	20:25:16	20:36:05	644436	5ecc5d22a5e08e45bf551927	3	1	main_z	11	advance_on_keypress_ZEE	116	stimuli_distractor_trianglediamonds.svg	stimuli_target_rectangletriangles.svg	9	yes	57	0	471	0	0			0	0			1				0	
6.6.1	win	2023-07-13	20:25:16	20:36:07	646320	5ecc5d22a5e08e45bf551927	3	1	main_z	11	main_z	117	stimuli_distractor_diamondtriangles.svg	stimuli_target_squarediamonds.svg	16	yes	44	1	776	0	0			0	0			1				0	
6.6.1	win	2023-07-13	20:25:16	20:36:07	646320	5ecc5d22a5e08e45bf551927	3	1	main_z	11	advance_on_keypress_ZEE	118	stimuli_distractor_diamondtriangles.svg	stimuli_target_squarediamonds.svg	16	yes	57	0	420	0	0			0	0			1				0	
6.6.1	win	2023-07-13	20:25:16	20:36:09	648188	5ecc5d22a5e08e45bf551927	3	1	main_z	11	main_z	119	stimuli_target_trianglesquares.svg	stimuli_distractor_trianglediamonds.svg	18	yes	44	1	811	0	0			0	0			1				0	
6.6.1	win	2023-07-13	20:25:16	20:36:09	648188	5ecc5d22a5e08e45bf551927	3	1	main_z	11	advance_on_keypress_ZEE	120	stimuli_target_trianglesquares.svg	stimuli_distractor_trianglediamonds.svg	18	yes	57	0	536	0	0			0	0			1				0	
6.6.1	win	2023-07-13	20:25:16	20:36:11	650103	5ecc5d22a5e08e45bf551927	3	1	main_z	11	main_z	121	stimuli_target_trianglesquares.svg	stimuli_distractor_diamondtriangles.svg	22	yes	44	1	743	0	0			0	0			1				0	
6.6.1	win	2023-07-13	20:25:16	20:36:11	650103	5ecc5d22a5e08e45bf551927	3	1	main_z	11	advance_on_keypress_ZEE	122	stimuli_target_trianglesquares.svg	stimuli_distractor_diamondtriangles.svg	22	yes	57	0	453	0	0			0	0			1				0	
6.6.1	win	2023-07-13	20:25:16	20:36:14	653193	5ecc5d22a5e08e45bf551927	3	1	main_z	11	main_z	123	stimuli_distractor_diamondtriangles.svg	stimuli_distractor_diamondtriangles.svg	39	no	0	1	2000	0	0			0	0			1				0	
6.6.1	win	2023-07-13	20:25:16	20:36:14	653193	5ecc5d22a5e08e45bf551927	3	1	main_z	11	advance_on_keypress_ZEE	124	stimuli_distractor_diamondtriangles.svg	stimuli_distractor_diamondtriangles.svg	39	no	57	0	348	0	0			0	0			1				0	
6.6.1	win	2023-07-13	20:25:16	20:36:17	656191	5ecc5d22a5e08e45bf551927	3	1	main_z	11	main_z	125	stimuli_distractor_diamondtriangles.svg	stimuli_distractor_diamondtriangles.svg	40	no	0	1	2000	0	0			0	0			1				0	
6.6.1	win	2023-07-13	20:25:16	20:36:17	656191	5ecc5d22a5e08e45bf551927	3	1	main_z	11	advance_on_keypress_ZEE	126	stimuli_distractor_diamondtriangles.svg	stimuli_distractor_diamondtriangles.svg	40	no	57	0	479	0	0			0	0			1				0	
6.6.1	win	2023-07-13	20:25:16	20:36:18	657953	5ecc5d22a5e08e45bf551927	3	1	main_z	11	main_z	127	stimuli_target_diamondsquares.svg	stimuli_distractor_diamondtriangles.svg	24	yes	44	1	630	0	0			0	0			1				0	
6.6.1	win	2023-07-13	20:25:16	20:36:18	657953	5ecc5d22a5e08e45bf551927	3	1	main_z	11	advance_on_keypress_ZEE	128	stimuli_target_diamondsquares.svg	stimuli_distractor_diamondtriangles.svg	24	yes	57	0	592	0	0			0	0			1				0	
6.6.1	win	2023-07-13	20:25:16	20:36:21	660018	5ecc5d22a5e08e45bf551927	3	1	main_z	11	main_z	129	stimuli_target_diamondrectangles.svg	stimuli_distractor_diamondtriangles.svg	23	yes	44	1	826	0	0			0	0			1				0	
6.6.1	win	2023-07-13	20:25:16	20:36:21	660018	5ecc5d22a5e08e45bf551927	3	1	main_z	11	advance_on_keypress_ZEE	130	stimuli_target_diamondrectangles.svg	stimuli_distractor_diamondtriangles.svg	23	yes	57	0	679	0	0			0	0			1				0	
6.6.1	win	2023-07-13	20:25:16	20:36:23	662070	5ecc5d22a5e08e45bf551927	3	1	main_z	11	main_z	131	stimuli_distractor_diamondtriangles.svg	stimuli_target_rectanglediamonds.svg	14	yes	44	1	713	0	0			0	0			1				0	
6.6.1	win	2023-07-13	20:25:16	20:36:23	662070	5ecc5d22a5e08e45bf551927	3	1	main_z	11	advance_on_keypress_ZEE	132	stimuli_distractor_diamondtriangles.svg	stimuli_target_rectanglediamonds.svg	14	yes	57	0	528	0	0			0	0			1				0	
6.6.1	win	2023-07-13	20:25:16	20:36:25	664025	5ecc5d22a5e08e45bf551927	3	1	main_z	11	main_z	133	stimuli_distractor_diamondtriangles.svg	stimuli_target_trianglerectangles.svg	29	yes	44	1	768	0	0			0	0			1				0	
6.6.1	win	2023-07-13	20:25:16	20:36:25	664025	5ecc5d22a5e08e45bf551927	3	1	main_z	11	advance_on_keypress_ZEE	134	stimuli_distractor_diamondtriangles.svg	stimuli_target_trianglerectangles.svg	29	yes	57	0	512	0	0			0	0			1				0	
6.6.1	win	2023-07-13	20:25:16	20:36:26	665970	5ecc5d22a5e08e45bf551927	3	1	main_z	11	main_z	135	stimuli_target_rectangletriangles.svg	stimuli_distractor_trianglediamonds.svg	1	yes	44	1	780	0	0			0	0			1				0	
6.6.1	win	2023-07-13	20:25:16	20:36:26	665970	5ecc5d22a5e08e45bf551927	3	1	main_z	11	advance_on_keypress_ZEE	136	stimuli_target_rectangletriangles.svg	stimuli_distractor_trianglediamonds.svg	1	yes	57	0	516	0	0			0	0			1				0	
6.6.1	win	2023-07-13	20:25:16	20:36:28	667965	5ecc5d22a5e08e45bf551927	3	1	main_z	11	main_z	137	stimuli_target_rectanglediamonds.svg	stimuli_distractor_trianglediamonds.svg	2	yes	44	1	827	0	0			0	0			1				0	
6.6.1	win	2023-07-13	20:25:16	20:36:28	667965	5ecc5d22a5e08e45bf551927	3	1	main_z	11	advance_on_keypress_ZEE	138	stimuli_target_rectanglediamonds.svg	stimuli_distractor_trianglediamonds.svg	2	yes	57	0	589	0	0			0	0			1				0	
6.6.1	win	2023-07-13	20:25:16	20:36:31	670013	5ecc5d22a5e08e45bf551927	3	1	main_z	11	main_z	139	stimuli_distractor_diamondtriangles.svg	stimuli_target_rectangletriangles.svg	13	yes	44	1	809	0	0			0	0			1				0	
6.6.1	win	2023-07-13	20:25:16	20:36:31	670013	5ecc5d22a5e08e45bf551927	3	1	main_z	11	advance_on_keypress_ZEE	140	stimuli_distractor_diamondtriangles.svg	stimuli_target_rectangletriangles.svg	13	yes	57	0	507	0	0			0	0			1				0	
6.6.1	win	2023-07-13	20:25:16	20:36:33	672394	5ecc5d22a5e08e45bf551927	3	1	main_z	11	main_z	141	stimuli_target_rectanglediamonds.svg	stimuli_distractor_diamondtriangles.svg	6	yes	44	1	1223	0	0			0	0			1				0	
6.6.1	win	2023-07-13	20:25:16	20:36:33	672394	5ecc5d22a5e08e45bf551927	3	1	main_z	11	advance_on_keypress_ZEE	142	stimuli_target_rectanglediamonds.svg	stimuli_distractor_diamondtriangles.svg	6	yes	57	0	517	0	0			0	0			1				0	
6.6.1	win	2023-07-13	20:25:16	20:36:36	675552	5ecc5d22a5e08e45bf551927	3	1	main_z	11	main_z	143	stimuli_distractor_trianglediamonds.svg	stimuli_distractor_diamondtriangles.svg	35	no	0	1	2000	0	0			0	0			1				0	
6.6.1	win	2023-07-13	20:25:16	20:36:36	675552	5ecc5d22a5e08e45bf551927	3	1	main_z	11	advance_on_keypress_ZEE	144	stimuli_distractor_trianglediamonds.svg	stimuli_distractor_diamondtriangles.svg	35	no	57	0	321	0	0			0	0			1				0	
6.6.1	win	2023-07-13	20:25:16	20:36:38	677289	5ecc5d22a5e08e45bf551927	3	1	main_z	11	main_z	145	stimuli_target_trianglerectangles.svg	stimuli_distractor_trianglediamonds.svg	17	yes	44	1	772	0	0			0	0			1				0	
6.6.1	win	2023-07-13	20:25:16	20:36:38	677289	5ecc5d22a5e08e45bf551927	3	1	main_z	11	advance_on_keypress_ZEE	146	stimuli_target_trianglerectangles.svg	stimuli_distractor_trianglediamonds.svg	17	yes	57	0	465	0	0			0	0			1				0	
6.6.1	win	2023-07-13	20:25:16	20:36:40	679469	5ecc5d22a5e08e45bf551927	3	1	main_z	11	main_z	147	stimuli_target_squarediamonds.svg	stimuli_distractor_trianglediamonds.svg	4	yes	44	1	1068	0	0			0	0			1				0	
6.6.1	win	2023-07-13	20:25:16	20:36:40	679469	5ecc5d22a5e08e45bf551927	3	1	main_z	11	advance_on_keypress_ZEE	148	stimuli_target_squarediamonds.svg	stimuli_distractor_trianglediamonds.svg	4	yes	57	0	472	0	0			0	0			1				0	
6.6.1	win	2023-07-13	20:25:16	20:36:42	681351	5ecc5d22a5e08e45bf551927	3	1	main_z	11	main_z	149	stimuli_target_squarediamonds.svg	stimuli_distractor_diamondtriangles.svg	8	yes	44	1	767	0	0			0	0			1				0	
6.6.1	win	2023-07-13	20:25:16	20:36:42	681351	5ecc5d22a5e08e45bf551927	3	1	main_z	11	advance_on_keypress_ZEE	150	stimuli_target_squarediamonds.svg	stimuli_distractor_diamondtriangles.svg	8	yes	57	0	430	0	0			0	0			1				0	
6.6.1	win	2023-07-13	20:25:16	20:36:45	684432	5ecc5d22a5e08e45bf551927	3	1	main_z	11	main_z	151	stimuli_distractor_trianglediamonds.svg	stimuli_distractor_trianglediamonds.svg	34	no	0	1	2000	0	0			0	0			1				0	
6.6.1	win	2023-07-13	20:25:16	20:36:45	684432	5ecc5d22a5e08e45bf551927	3	1	main_z	11	advance_on_keypress_ZEE	152	stimuli_distractor_trianglediamonds.svg	stimuli_distractor_trianglediamonds.svg	34	no	57	0	333	0	0			0	0			1				0	
6.6.1	win	2023-07-13	20:25:16	20:36:48	687414	5ecc5d22a5e08e45bf551927	3	1	main_z	11	main_z	153	stimuli_distractor_diamondtriangles.svg	stimuli_distractor_trianglediamonds.svg	38	no	0	1	2000	0	0			0	0			1				0	
6.6.1	win	2023-07-13	20:25:16	20:36:48	687414	5ecc5d22a5e08e45bf551927	3	1	main_z	11	advance_on_keypress_ZEE	154	stimuli_distractor_diamondtriangles.svg	stimuli_distractor_trianglediamonds.svg	38	no	57	0	474	0	0			0	0			1				0	
6.6.1	win	2023-07-13	20:25:16	20:36:50	689295	5ecc5d22a5e08e45bf551927	3	1	main_z	11	main_z	155	stimuli_target_rectangletriangles.svg	stimuli_distractor_diamondtriangles.svg	5	yes	44	1	765	0	0			0	0			1				0	
6.6.1	win	2023-07-13	20:25:16	20:36:50	689295	5ecc5d22a5e08e45bf551927	3	1	main_z	11	advance_on_keypress_ZEE	156	stimuli_target_rectangletriangles.svg	stimuli_distractor_diamondtriangles.svg	5	yes	57	0	488	0	0			0	0			1				0	
6.6.1	win	2023-07-13	20:25:16	20:36:52	691186	5ecc5d22a5e08e45bf551927	3	1	main_z	11	main_z	157	stimuli_target_squaretriangles.svg	stimuli_distractor_diamondtriangles.svg	7	yes	44	1	756	0	0			0	0			1				0	
6.6.1	win	2023-07-13	20:25:16	20:36:52	691186	5ecc5d22a5e08e45bf551927	3	1	main_z	11	advance_on_keypress_ZEE	158	stimuli_target_squaretriangles.svg	stimuli_distractor_diamondtriangles.svg	7	yes	57	0	457	0	0			0	0			1				0	
6.6.1	win	2023-07-13	20:25:16	20:36:55	694278	5ecc5d22a5e08e45bf551927	3	1	main_z	11	main_z	159	stimuli_distractor_trianglediamonds.svg	stimuli_target_trianglerectangles.svg	25	yes	0	0	2000	0	0			0	0			1				0	
6.6.1	win	2023-07-13	20:25:16	20:36:55	694278	5ecc5d22a5e08e45bf551927	3	1	main_z	11	advance_on_keypress_ZEE	160	stimuli_distractor_trianglediamonds.svg	stimuli_target_trianglerectangles.svg	25	yes	57	0	316	0	0			0	0			1				0	
6.6.1	win	2023-07-13	20:25:16	20:36:55	694278	5ecc5d22a5e08e45bf551927	3	1	headphonecheck_calibration	14	headphonecheck_calibrationIntro	1	stimuli_distractor_trianglediamonds.svg	stimuli_target_trianglerectangles.svg	25	yes	calibrationButton	0	3232	0	0			0	0			1				0	
6.6.1	win	2023-07-13	20:25:16	20:36:55	694278	5ecc5d22a5e08e45bf551927	3	1	headphonecheck_testphase	15	test_collectResponse	3	stimuli_distractor_trianglediamonds.svg	stimuli_target_trianglerectangles.svg	25	yes	third	1	1973	1	2	antiphase_hc_ios.wav	3	0	0			1				0	
6.6.1	win	2023-07-13	20:25:16	20:36:55	694278	5ecc5d22a5e08e45bf551927	3	1	headphonecheck_testphase	15	test_collectResponse	6	stimuli_distractor_trianglediamonds.svg	stimuli_target_trianglerectangles.svg	25	yes	second	1	859	2	5	antiphase_hc_osi.wav	2	0	0			1				0	
6.6.1	win	2023-07-13	20:25:16	20:36:55	694278	5ecc5d22a5e08e45bf551927	3	1	headphonecheck_testphase	15	test_collectResponse	9	stimuli_distractor_trianglediamonds.svg	stimuli_target_trianglerectangles.svg	25	yes	third	1	604	3	6	antiphase_hc_ois.wav	3	0	0			1				0	
6.6.1	win	2023-07-13	20:25:16	20:36:55	694278	5ecc5d22a5e08e45bf551927	3	1	headphonecheck_testphase	15	test_collectResponse	12	stimuli_distractor_trianglediamonds.svg	stimuli_target_trianglerectangles.svg	25	yes	second	1	572	4	1	antiphase_hc_iso.wav	2	0	0			1				0	
6.6.1	win	2023-07-13	20:25:16	20:36:55	694278	5ecc5d22a5e08e45bf551927	3	1	headphonecheck_testphase	15	test_collectResponse	15	stimuli_distractor_trianglediamonds.svg	stimuli_target_trianglerectangles.svg	25	yes	first	1	831	5	4	antiphase_hc_sio.wav	1	0	0			1				0	
6.6.1	win	2023-07-13	20:25:16	20:36:55	694278	5ecc5d22a5e08e45bf551927	3	1	headphonecheck_testphase	15	test_collectResponse	18	stimuli_distractor_trianglediamonds.svg	stimuli_target_trianglerectangles.svg	25	yes	first	1	619	6	3	antiphase_hc_soi.wav	1	0	0			1				0	
6.6.1	win	2023-07-13	20:25:16	20:36:55	694278	5ecc5d22a5e08e45bf551927	3	1	stereocheck_calibration	17	stereocheck_calibrationIntro	1	stimuli_distractor_trianglediamonds.svg	stimuli_target_trianglerectangles.svg	25	yes	stereocheck_calibrationButton	0	3054	6	3	antiphase_hc_soi.wav	1	0	0			1				0	
6.6.1	win	2023-07-13	20:25:16	20:36:55	694278	5ecc5d22a5e08e45bf551927	3	1	stereocheck_testphase	18	stereocheck_test_collectResponse	3	stimuli_distractor_trianglediamonds.svg	stimuli_target_trianglerectangles.svg	25	yes	stereocheck_left	1	691	6	3	antiphase_hc_soi.wav	1	1	3	noise_calib_stim_LEFT.wav	1	1				0	
6.6.1	win	2023-07-13	20:25:16	20:36:55	694278	5ecc5d22a5e08e45bf551927	3	1	stereocheck_testphase	18	stereocheck_test_collectResponse	6	stimuli_distractor_trianglediamonds.svg	stimuli_target_trianglerectangles.svg	25	yes	stereocheck_left	1	487	6	3	antiphase_hc_soi.wav	1	2	2	noise_calib_stim_LEFT.wav	1	1				0	
6.6.1	win	2023-07-13	20:25:16	20:36:55	694278	5ecc5d22a5e08e45bf551927	3	1	stereocheck_testphase	18	stereocheck_test_collectResponse	9	stimuli_distractor_trianglediamonds.svg	stimuli_target_trianglerectangles.svg	25	yes	stereocheck_left	1	510	6	3	antiphase_hc_soi.wav	1	3	1	noise_calib_stim_LEFT.wav	1	1				0	
6.6.1	win	2023-07-13	20:25:16	20:36:55	694278	5ecc5d22a5e08e45bf551927	3	1	stereocheck_testphase	18	stereocheck_test_collectResponse	12	stimuli_distractor_trianglediamonds.svg	stimuli_target_trianglerectangles.svg	25	yes	stereocheck_right	1	557	6	3	antiphase_hc_soi.wav	1	4	5	noise_calib_stim_RIGHT.wav	2	1				0	
6.6.1	win	2023-07-13	20:25:16	20:36:55	694278	5ecc5d22a5e08e45bf551927	3	1	stereocheck_testphase	18	stereocheck_test_collectResponse	15	stimuli_distractor_trianglediamonds.svg	stimuli_target_trianglerectangles.svg	25	yes	stereocheck_right	1	524	6	3	antiphase_hc_soi.wav	1	5	4	noise_calib_stim_RIGHT.wav	2	1				0	
6.6.1	win	2023-07-13	20:25:16	20:36:55	694278	5ecc5d22a5e08e45bf551927	3	1	stereocheck_testphase	18	stereocheck_test_collectResponse	18	stimuli_distractor_trianglediamonds.svg	stimuli_target_trianglerectangles.svg	25	yes	stereocheck_right	1	636	6	3	antiphase_hc_soi.wav	1	6	6	noise_calib_stim_RIGHT.wav	2	1				0	
6.6.1	win	2023-07-13	20:25:16	20:36:55	694278	5ecc5d22a5e08e45bf551927	3	1	DL_practice	21	DL_practice	2	stimuli_distractor_trianglediamonds.svg	stimuli_target_trianglerectangles.svg	25	yes	ka	0	1595	6	3	antiphase_hc_soi.wav	1	6	6	noise_calib_stim_RIGHT.wav	2	18	blb_dichoticlistening_ga-ta.mp3	ga	ta	1	other
6.6.1	win	2023-07-13	20:25:16	20:36:55	694278	5ecc5d22a5e08e45bf551927	3	1	DL_practice	21	DL_practice	3	stimuli_distractor_trianglediamonds.svg	stimuli_target_trianglerectangles.svg	25	yes	pa	1	1194	6	3	antiphase_hc_soi.wav	1	6	6	noise_calib_stim_RIGHT.wav	2	29	blb_dichoticlistening_pa-pa.mp3	pa	pa	0	left
6.6.1	win	2023-07-13	20:25:16	20:36:55	694278	5ecc5d22a5e08e45bf551927	3	1	DL_practice	21	DL_practice	4	stimuli_distractor_trianglediamonds.svg	stimuli_target_trianglerectangles.svg	25	yes	da	1	1704	6	3	antiphase_hc_soi.wav	1	6	6	noise_calib_stim_RIGHT.wav	2	8	blb_dichoticlistening_da-da.mp3	da	da	0	left
6.6.1	win	2023-07-13	20:25:16	20:36:55	694278	5ecc5d22a5e08e45bf551927	3	1	DL_practice	21	DL_practice	5	stimuli_distractor_trianglediamonds.svg	stimuli_target_trianglerectangles.svg	25	yes	ta	1	1395	6	3	antiphase_hc_soi.wav	1	6	6	noise_calib_stim_RIGHT.wav	2	36	blb_dichoticlistening_ta-ta.mp3	ta	ta	0	left
6.6.1	win	2023-07-13	20:25:16	20:36:55	694278	5ecc5d22a5e08e45bf551927	3	1	DL_practice	21	DL_practice	6	stimuli_distractor_trianglediamonds.svg	stimuli_target_trianglerectangles.svg	25	yes	ba	1	1458	6	3	antiphase_hc_soi.wav	1	6	6	noise_calib_stim_RIGHT.wav	2	1	blb_dichoticlistening_ba-ba.mp3	ba	ba	0	left
6.6.1	win	2023-07-13	20:25:16	20:36:55	694278	5ecc5d22a5e08e45bf551927	3	1	DL_practice	21	DL_practice	7	stimuli_distractor_trianglediamonds.svg	stimuli_target_trianglerectangles.svg	25	yes	pa	1	1708	6	3	antiphase_hc_soi.wav	1	6	6	noise_calib_stim_RIGHT.wav	2	23	blb_dichoticlistening_ka-pa.mp3	ka	pa	1	right
6.6.1	win	2023-07-13	20:25:16	20:36:55	694278	5ecc5d22a5e08e45bf551927	3	1	DL_practice	21	DL_practice	8	stimuli_distractor_trianglediamonds.svg	stimuli_target_trianglerectangles.svg	25	yes	ga	1	1318	6	3	antiphase_hc_soi.wav	1	6	6	noise_calib_stim_RIGHT.wav	2	15	blb_dichoticlistening_ga-ga.mp3	ga	ga	0	left
6.6.1	win	2023-07-13	20:25:16	20:36:55	694278	5ecc5d22a5e08e45bf551927	3	1	DL_practice	21	DL_practice	9	stimuli_distractor_trianglediamonds.svg	stimuli_target_trianglerectangles.svg	25	yes	ba	1	2177	6	3	antiphase_hc_soi.wav	1	6	6	noise_calib_stim_RIGHT.wav	2	7	blb_dichoticlistening_da-ba.mp3	da	ba	1	right
6.6.1	win	2023-07-13	20:25:16	20:36:55	694278	5ecc5d22a5e08e45bf551927	3	1	DL_practice	21	DL_practice	10	stimuli_distractor_trianglediamonds.svg	stimuli_target_trianglerectangles.svg	25	yes	ka	1	1264	6	3	antiphase_hc_soi.wav	1	6	6	noise_calib_stim_RIGHT.wav	2	22	blb_dichoticlistening_ka-ka.mp3	ka	ka	0	left
6.6.1	win	2023-07-13	20:25:16	20:36:55	694278	5ecc5d22a5e08e45bf551927	3	1	DL_test	23	DL_test	1	stimuli_distractor_trianglediamonds.svg	stimuli_target_trianglerectangles.svg	25	yes	ka	0	1117	6	3	antiphase_hc_soi.wav	1	6	6	noise_calib_stim_RIGHT.wav	2	18	blb_dichoticlistening_ga-ta.mp3	ga	ta	1	other
6.6.1	win	2023-07-13	20:25:16	20:36:55	694278	5ecc5d22a5e08e45bf551927	3	1	DL_test	23	DL_test	2	stimuli_distractor_trianglediamonds.svg	stimuli_target_trianglerectangles.svg	25	yes	pa	1	1896	6	3	antiphase_hc_soi.wav	1	6	6	noise_calib_stim_RIGHT.wav	2	23	blb_dichoticlistening_ka-pa.mp3	ka	pa	1	right
6.6.1	win	2023-07-13	20:25:16	20:36:55	694278	5ecc5d22a5e08e45bf551927	3	1	DL_test	23	DL_test	3	stimuli_distractor_trianglediamonds.svg	stimuli_target_trianglerectangles.svg	25	yes	ka	1	2044	6	3	antiphase_hc_soi.wav	1	6	6	noise_calib_stim_RIGHT.wav	2	16	blb_dichoticlistening_ga-ka.mp3	ga	ka	1	right
6.6.1	win	2023-07-13	20:25:16	20:36:55	694278	5ecc5d22a5e08e45bf551927	3	1	DL_test	23	DL_test	4	stimuli_distractor_trianglediamonds.svg	stimuli_target_trianglerectangles.svg	25	yes	ga	1	1085	6	3	antiphase_hc_soi.wav	1	6	6	noise_calib_stim_RIGHT.wav	2	15	blb_dichoticlistening_ga-ga.mp3	ga	ga	0	left
6.6.1	win	2023-07-13	20:25:16	20:36:55	694278	5ecc5d22a5e08e45bf551927	3	1	DL_test	23	DL_test	5	stimuli_distractor_trianglediamonds.svg	stimuli_target_trianglerectangles.svg	25	yes	pa	1	1212	6	3	antiphase_hc_soi.wav	1	6	6	noise_calib_stim_RIGHT.wav	2	17	blb_dichoticlistening_ga-pa.mp3	ga	pa	1	right
6.6.1	win	2023-07-13	20:25:16	20:36:55	694278	5ecc5d22a5e08e45bf551927	3	1	DL_test	23	DL_test	6	stimuli_distractor_trianglediamonds.svg	stimuli_target_trianglerectangles.svg	25	yes	ga	1	1180	6	3	antiphase_hc_soi.wav	1	6	6	noise_calib_stim_RIGHT.wav	2	9	blb_dichoticlistening_da-ga.mp3	da	ga	1	right
6.6.1	win	2023-07-13	20:25:16	20:36:55	694278	5ecc5d22a5e08e45bf551927	3	1	DL_test	23	DL_test	7	stimuli_distractor_trianglediamonds.svg	stimuli_target_trianglerectangles.svg	25	yes	ga	1	1124	6	3	antiphase_hc_soi.wav	1	6	6	noise_calib_stim_RIGHT.wav	2	14	blb_dichoticlistening_ga-da.mp3	ga	da	1	left
6.6.1	win	2023-07-13	20:25:16	20:36:55	694278	5ecc5d22a5e08e45bf551927	3	1	DL_test	23	DL_test	8	stimuli_distractor_trianglediamonds.svg	stimuli_target_trianglerectangles.svg	25	yes	da	1	1622	6	3	antiphase_hc_soi.wav	1	6	6	noise_calib_stim_RIGHT.wav	2	7	blb_dichoticlistening_da-ba.mp3	da	ba	1	left
6.6.1	win	2023-07-13	20:25:16	20:36:55	694278	5ecc5d22a5e08e45bf551927	3	1	DL_test	23	DL_test	9	stimuli_distractor_trianglediamonds.svg	stimuli_target_trianglerectangles.svg	25	yes	ka	0	2692	6	3	antiphase_hc_soi.wav	1	6	6	noise_calib_stim_RIGHT.wav	2	32	blb_dichoticlistening_ta-da.mp3	ta	da	1	other
6.6.1	win	2023-07-13	20:25:16	20:36:55	694278	5ecc5d22a5e08e45bf551927	3	1	DL_test	23	DL_test	10	stimuli_distractor_trianglediamonds.svg	stimuli_target_trianglerectangles.svg	25	yes	da	1	1306	6	3	antiphase_hc_soi.wav	1	6	6	noise_calib_stim_RIGHT.wav	2	8	blb_dichoticlistening_da-da.mp3	da	da	0	left
6.6.1	win	2023-07-13	20:25:16	20:36:55	694278	5ecc5d22a5e08e45bf551927	3	1	DL_test	23	DL_test	11	stimuli_distractor_trianglediamonds.svg	stimuli_target_trianglerectangles.svg	25	yes	pa	1	1418	6	3	antiphase_hc_soi.wav	1	6	6	noise_calib_stim_RIGHT.wav	2	35	blb_dichoticlistening_ta-pa.mp3	ta	pa	1	right
6.6.1	win	2023-07-13	20:25:16	20:36:55	694278	5ecc5d22a5e08e45bf551927	3	1	DL_test	23	DL_test	12	stimuli_distractor_trianglediamonds.svg	stimuli_target_trianglerectangles.svg	25	yes	ta	1	1343	6	3	antiphase_hc_soi.wav	1	6	6	noise_calib_stim_RIGHT.wav	2	36	blb_dichoticlistening_ta-ta.mp3	ta	ta	0	left
6.6.1	win	2023-07-13	20:25:16	20:36:55	694278	5ecc5d22a5e08e45bf551927	3	1	DL_test	23	DL_test	13	stimuli_distractor_trianglediamonds.svg	stimuli_target_trianglerectangles.svg	25	yes	ka	1	1392	6	3	antiphase_hc_soi.wav	1	6	6	noise_calib_stim_RIGHT.wav	2	28	blb_dichoticlistening_pa-ka.mp3	pa	ka	1	right
6.6.1	win	2023-07-13	20:25:16	20:36:55	694278	5ecc5d22a5e08e45bf551927	3	1	DL_test	23	DL_test	14	stimuli_distractor_trianglediamonds.svg	stimuli_target_trianglerectangles.svg	25	yes	ka	1	1177	6	3	antiphase_hc_soi.wav	1	6	6	noise_calib_stim_RIGHT.wav	2	21	blb_dichoticlistening_ka-ga.mp3	ka	ga	1	left
6.6.1	win	2023-07-13	20:25:16	20:36:55	694278	5ecc5d22a5e08e45bf551927	3	1	DL_test	23	DL_test	15	stimuli_distractor_trianglediamonds.svg	stimuli_target_trianglerectangles.svg	25	yes	pa	1	1270	6	3	antiphase_hc_soi.wav	1	6	6	noise_calib_stim_RIGHT.wav	2	27	blb_dichoticlistening_pa-ga.mp3	pa	ga	1	left
6.6.1	win	2023-07-13	20:25:16	20:36:55	694278	5ecc5d22a5e08e45bf551927	3	1	DL_test	23	DL_test	16	stimuli_distractor_trianglediamonds.svg	stimuli_target_trianglerectangles.svg	25	yes	ka	1	1071	6	3	antiphase_hc_soi.wav	1	6	6	noise_calib_stim_RIGHT.wav	2	34	blb_dichoticlistening_ta-ka.mp3	ta	ka	1	right
6.6.1	win	2023-07-13	20:25:16	20:36:55	694278	5ecc5d22a5e08e45bf551927	3	1	DL_test	23	DL_test	17	stimuli_distractor_trianglediamonds.svg	stimuli_target_trianglerectangles.svg	25	yes	ba	1	1669	6	3	antiphase_hc_soi.wav	1	6	6	noise_calib_stim_RIGHT.wav	2	1	blb_dichoticlistening_ba-ba.mp3	ba	ba	0	left
6.6.1	win	2023-07-13	20:25:16	20:36:55	694278	5ecc5d22a5e08e45bf551927	3	1	DL_test	23	DL_test	18	stimuli_distractor_trianglediamonds.svg	stimuli_target_trianglerectangles.svg	25	yes	pa	1	1472	6	3	antiphase_hc_soi.wav	1	6	6	noise_calib_stim_RIGHT.wav	2	26	blb_dichoticlistening_pa-da.mp3	pa	da	1	left
6.6.1	win	2023-07-13	20:25:16	20:36:55	694278	5ecc5d22a5e08e45bf551927	3	1	DL_test	23	DL_test	19	stimuli_distractor_trianglediamonds.svg	stimuli_target_trianglerectangles.svg	25	yes	pa	1	1267	6	3	antiphase_hc_soi.wav	1	6	6	noise_calib_stim_RIGHT.wav	2	30	blb_dichoticlistening_pa-ta.mp3	pa	ta	1	left
6.6.1	win	2023-07-13	20:25:16	20:36:55	694278	5ecc5d22a5e08e45bf551927	3	1	DL_test	23	DL_test	20	stimuli_distractor_trianglediamonds.svg	stimuli_target_trianglerectangles.svg	25	yes	ka	0	1163	6	3	antiphase_hc_soi.wav	1	6	6	noise_calib_stim_RIGHT.wav	2	33	blb_dichoticlistening_ta-ga.mp3	ta	ga	1	other
6.6.1	win	2023-07-13	20:25:16	20:36:55	694278	5ecc5d22a5e08e45bf551927	3	1	DL_test	23	DL_test	21	stimuli_distractor_trianglediamonds.svg	stimuli_target_trianglerectangles.svg	25	yes	ba	1	2230	6	3	antiphase_hc_soi.wav	1	6	6	noise_calib_stim_RIGHT.wav	2	13	blb_dichoticlistening_ga-ba.mp3	ga	ba	1	right
6.6.1	win	2023-07-13	20:25:16	20:36:55	694278	5ecc5d22a5e08e45bf551927	3	1	DL_test	23	DL_test	22	stimuli_distractor_trianglediamonds.svg	stimuli_target_trianglerectangles.svg	25	yes	ka	1	1142	6	3	antiphase_hc_soi.wav	1	6	6	noise_calib_stim_RIGHT.wav	2	22	blb_dichoticlistening_ka-ka.mp3	ka	ka	0	left
6.6.1	win	2023-07-13	20:25:16	20:36:55	694278	5ecc5d22a5e08e45bf551927	3	1	DL_test	23	DL_test	23	stimuli_distractor_trianglediamonds.svg	stimuli_target_trianglerectangles.svg	25	yes	pa	1	1062	6	3	antiphase_hc_soi.wav	1	6	6	noise_calib_stim_RIGHT.wav	2	5	blb_dichoticlistening_ba-pa.mp3	ba	pa	1	right
6.6.1	win	2023-07-13	20:25:16	20:36:55	694278	5ecc5d22a5e08e45bf551927	3	1	DL_test	23	DL_test	24	stimuli_distractor_trianglediamonds.svg	stimuli_target_trianglerectangles.svg	25	yes	ba	1	1640	6	3	antiphase_hc_soi.wav	1	6	6	noise_calib_stim_RIGHT.wav	2	2	blb_dichoticlistening_ba-da.mp3	ba	da	1	left
6.6.1	win	2023-07-13	20:25:16	20:36:55	694278	5ecc5d22a5e08e45bf551927	3	1	DL_test	23	DL_test	25	stimuli_distractor_trianglediamonds.svg	stimuli_target_trianglerectangles.svg	25	yes	ka	1	1166	6	3	antiphase_hc_soi.wav	1	6	6	noise_calib_stim_RIGHT.wav	2	20	blb_dichoticlistening_ka-da.mp3	ka	da	1	left
6.6.1	win	2023-07-13	20:25:16	20:36:55	694278	5ecc5d22a5e08e45bf551927	3	1	DL_test	23	DL_test	26	stimuli_distractor_trianglediamonds.svg	stimuli_target_trianglerectangles.svg	25	yes	pa	1	1212	6	3	antiphase_hc_soi.wav	1	6	6	noise_calib_stim_RIGHT.wav	2	29	blb_dichoticlistening_pa-pa.mp3	pa	pa	0	left
