build	computer.platform	date	time	timestamp	time_elapsed_ms	subject	group	session	blockcode	blocknum	trialcode	trialnum	stimulus_left	stimulus_right	stim_index	target_present	response	correct	latency	headphonecheck_countTestTrials	headphonecheck_index	headphonecheck_testSound	headphonecheck_correctResponse	stereocheck_countTestTrials	stereocheck_index	stereocheck_testSound	stereocheck_correctResponse	DL_index	DL_soundfile	DL_leftSound	DL_rightSound	DL_dualSound	DL_choice
6.6.1	win	2023-06-02	05:45:52	05:48:24	148913	55b42b7cfdf99b5244217cf4	4	1	practice_z	5	practice_z	1	stimuli_target_squarediamonds.svg	stimuli_distractor_trianglediamonds.svg	5	yes	44	1	531	0	0			0	0			1				0	
6.6.1	win	2023-06-02	05:45:52	05:48:24	148913	55b42b7cfdf99b5244217cf4	4	1	practice_z	5	advance_on_keypress_ZEE	2	stimuli_target_squarediamonds.svg	stimuli_distractor_trianglediamonds.svg	5	yes	57	0	1537	0	0			0	0			1				0	
6.6.1	win	2023-06-02	05:45:52	05:48:28	152906	55b42b7cfdf99b5244217cf4	4	1	practice_z	5	practice_z	3	stimuli_distractor_diamondtriangles.svg	stimuli_target_trianglerectangles.svg	9	yes	44	1	796	0	0			0	0			1				0	
6.6.1	win	2023-06-02	05:45:52	05:48:28	152906	55b42b7cfdf99b5244217cf4	4	1	practice_z	5	advance_on_keypress_ZEE	4	stimuli_distractor_diamondtriangles.svg	stimuli_target_trianglerectangles.svg	9	yes	57	0	649	0	0			0	0			1				0	
6.6.1	win	2023-06-02	05:45:52	05:48:31	155843	55b42b7cfdf99b5244217cf4	4	1	practice_z	5	practice_z	5	stimuli_target_rectanglediamonds.svg	stimuli_distractor_trianglediamonds.svg	4	yes	44	1	614	0	0			0	0			1				0	
6.6.1	win	2023-06-02	05:45:52	05:48:31	155843	55b42b7cfdf99b5244217cf4	4	1	practice_z	5	advance_on_keypress_ZEE	6	stimuli_target_rectanglediamonds.svg	stimuli_distractor_trianglediamonds.svg	4	yes	57	0	469	0	0			0	0			1				0	
6.6.1	win	2023-06-02	05:45:52	05:48:34	158832	55b42b7cfdf99b5244217cf4	4	1	practice_z	5	practice_z	7	stimuli_target_rectanglediamonds.svg	stimuli_distractor_diamondtriangles.svg	1	yes	44	1	857	0	0			0	0			1				0	
6.6.1	win	2023-06-02	05:45:52	05:48:34	158832	55b42b7cfdf99b5244217cf4	4	1	practice_z	5	advance_on_keypress_ZEE	8	stimuli_target_rectanglediamonds.svg	stimuli_distractor_diamondtriangles.svg	1	yes	57	0	427	0	0			0	0			1				0	
6.6.1	win	2023-06-02	05:45:52	05:48:38	162937	55b42b7cfdf99b5244217cf4	4	1	practice_z	5	practice_z	9	stimuli_target_diamondsquares.svg	stimuli_distractor_trianglediamonds.svg	6	yes	0	0	2000	0	0			0	0			1				0	
6.6.1	win	2023-06-02	05:45:52	05:48:38	162937	55b42b7cfdf99b5244217cf4	4	1	practice_z	5	advance_on_keypress_ZEE	10	stimuli_target_diamondsquares.svg	stimuli_distractor_trianglediamonds.svg	6	yes	57	0	443	0	0			0	0			1				0	
6.6.1	win	2023-06-02	05:45:52	05:48:42	167041	55b42b7cfdf99b5244217cf4	4	1	practice_z	5	practice_z	11	stimuli_distractor_diamondtriangles.svg	stimuli_distractor_diamondtriangles.svg	13	no	0	1	2000	0	0			0	0			1				0	
6.6.1	win	2023-06-02	05:45:52	05:48:42	167041	55b42b7cfdf99b5244217cf4	4	1	practice_z	5	advance_on_keypress_ZEE	12	stimuli_distractor_diamondtriangles.svg	stimuli_distractor_diamondtriangles.svg	13	no	57	0	999	0	0			0	0			1				0	
6.6.1	win	2023-06-02	05:45:52	05:48:47	171709	55b42b7cfdf99b5244217cf4	4	1	practice_z	5	practice_z	13	stimuli_distractor_trianglediamonds.svg	stimuli_distractor_diamondtriangles.svg	16	no	0	1	2000	0	0			0	0			1				0	
6.6.1	win	2023-06-02	05:45:52	05:48:47	171709	55b42b7cfdf99b5244217cf4	4	1	practice_z	5	advance_on_keypress_ZEE	14	stimuli_distractor_trianglediamonds.svg	stimuli_distractor_diamondtriangles.svg	16	no	57	0	770	0	0			0	0			1				0	
6.6.1	win	2023-06-02	05:45:52	05:48:50	174776	55b42b7cfdf99b5244217cf4	4	1	practice_z	5	practice_z	15	stimuli_distractor_trianglediamonds.svg	stimuli_target_rectanglediamonds.svg	10	yes	44	1	609	0	0			0	0			1				0	
6.6.1	win	2023-06-02	05:45:52	05:48:50	174776	55b42b7cfdf99b5244217cf4	4	1	practice_z	5	advance_on_keypress_ZEE	16	stimuli_distractor_trianglediamonds.svg	stimuli_target_rectanglediamonds.svg	10	yes	57	0	762	0	0			0	0			1				0	
6.6.1	win	2023-06-02	05:45:52	05:48:53	177796	55b42b7cfdf99b5244217cf4	4	1	practice_z	5	practice_z	17	stimuli_target_diamondsquares.svg	stimuli_distractor_diamondtriangles.svg	3	yes	44	1	589	0	0			0	0			1				0	
6.6.1	win	2023-06-02	05:45:52	05:48:53	177796	55b42b7cfdf99b5244217cf4	4	1	practice_z	5	advance_on_keypress_ZEE	18	stimuli_target_diamondsquares.svg	stimuli_distractor_diamondtriangles.svg	3	yes	57	0	1001	0	0			0	0			1				0	
6.6.1	win	2023-06-02	05:45:52	05:48:56	181210	55b42b7cfdf99b5244217cf4	4	1	practice_z	5	practice_z	19	stimuli_distractor_diamondtriangles.svg	stimuli_distractor_trianglediamonds.svg	14	no	44	0	765	0	0			0	0			1				0	
6.6.1	win	2023-06-02	05:45:52	05:48:56	181210	55b42b7cfdf99b5244217cf4	4	1	practice_z	5	advance_on_keypress_ZEE	20	stimuli_distractor_diamondtriangles.svg	stimuli_distractor_trianglediamonds.svg	14	no	57	0	664	0	0			0	0			1				0	
6.6.1	win	2023-06-02	05:45:52	05:48:59	184413	55b42b7cfdf99b5244217cf4	4	1	practice_z	5	practice_z	21	stimuli_distractor_trianglediamonds.svg	stimuli_target_diamondrectangles.svg	12	yes	44	1	872	0	0			0	0			1				0	
6.6.1	win	2023-06-02	05:45:52	05:48:59	184413	55b42b7cfdf99b5244217cf4	4	1	practice_z	5	advance_on_keypress_ZEE	22	stimuli_distractor_trianglediamonds.svg	stimuli_target_diamondrectangles.svg	12	yes	57	0	873	0	0			0	0			1				0	
6.6.1	win	2023-06-02	05:45:52	05:49:03	187729	55b42b7cfdf99b5244217cf4	4	1	practice_z	5	practice_z	23	stimuli_distractor_diamondtriangles.svg	stimuli_target_diamondrectangles.svg	8	yes	44	1	766	0	0			0	0			1				0	
6.6.1	win	2023-06-02	05:45:52	05:49:03	187729	55b42b7cfdf99b5244217cf4	4	1	practice_z	5	advance_on_keypress_ZEE	24	stimuli_distractor_diamondtriangles.svg	stimuli_target_diamondrectangles.svg	8	yes	57	0	578	0	0			0	0			1				0	
6.6.1	win	2023-06-02	05:45:52	05:49:06	190760	55b42b7cfdf99b5244217cf4	4	1	practice_z	5	practice_z	25	stimuli_distractor_trianglediamonds.svg	stimuli_distractor_trianglediamonds.svg	15	no	44	0	794	0	0			0	0			1				0	
6.6.1	win	2023-06-02	05:45:52	05:49:06	190760	55b42b7cfdf99b5244217cf4	4	1	practice_z	5	advance_on_keypress_ZEE	26	stimuli_distractor_trianglediamonds.svg	stimuli_distractor_trianglediamonds.svg	15	no	57	0	840	0	0			0	0			1				0	
6.6.1	win	2023-06-02	05:45:52	05:49:09	193781	55b42b7cfdf99b5244217cf4	4	1	practice_z	5	practice_z	27	stimuli_target_squarediamonds.svg	stimuli_distractor_diamondtriangles.svg	2	yes	44	1	544	0	0			0	0			1				0	
6.6.1	win	2023-06-02	05:45:52	05:49:09	193781	55b42b7cfdf99b5244217cf4	4	1	practice_z	5	advance_on_keypress_ZEE	28	stimuli_target_squarediamonds.svg	stimuli_distractor_diamondtriangles.svg	2	yes	57	0	466	0	0			0	0			1				0	
6.6.1	win	2023-06-02	05:45:52	05:49:12	196686	55b42b7cfdf99b5244217cf4	4	1	practice_z	5	practice_z	29	stimuli_distractor_diamondtriangles.svg	stimuli_target_rectangletriangles.svg	7	yes	44	1	766	0	0			0	0			1				0	
6.6.1	win	2023-06-02	05:45:52	05:49:12	196686	55b42b7cfdf99b5244217cf4	4	1	practice_z	5	advance_on_keypress_ZEE	30	stimuli_distractor_diamondtriangles.svg	stimuli_target_rectangletriangles.svg	7	yes	57	0	159	0	0			0	0			1				0	
6.6.1	win	2023-06-02	05:45:52	05:49:14	198955	55b42b7cfdf99b5244217cf4	4	1	practice_z	5	practice_z	31	stimuli_distractor_trianglediamonds.svg	stimuli_target_squarediamonds.svg	11	yes	44	1	437	0	0			0	0			1				0	
6.6.1	win	2023-06-02	05:45:52	05:49:14	198955	55b42b7cfdf99b5244217cf4	4	1	practice_z	5	advance_on_keypress_ZEE	32	stimuli_distractor_trianglediamonds.svg	stimuli_target_squarediamonds.svg	11	yes	57	0	295	0	0			0	0			1				0	
6.6.1	win	2023-06-02	05:45:52	05:52:07	372464	55b42b7cfdf99b5244217cf4	4	1	main_z	7	main_z	1	stimuli_distractor_trianglediamonds.svg	stimuli_target_squarediamonds.svg	12	yes	44	1	363	0	0			0	0			1				0	
6.6.1	win	2023-06-02	05:45:52	05:52:07	372464	55b42b7cfdf99b5244217cf4	4	1	main_z	7	advance_on_keypress_ZEE	2	stimuli_distractor_trianglediamonds.svg	stimuli_target_squarediamonds.svg	12	yes	57	0	1077	0	0			0	0			1				0	
6.6.1	win	2023-06-02	05:45:52	05:52:10	374796	55b42b7cfdf99b5244217cf4	4	1	main_z	7	main_z	3	stimuli_distractor_diamondtriangles.svg	stimuli_distractor_diamondtriangles.svg	39	no	44	0	594	0	0			0	0			1				0	
6.6.1	win	2023-06-02	05:45:52	05:52:10	374796	55b42b7cfdf99b5244217cf4	4	1	main_z	7	advance_on_keypress_ZEE	4	stimuli_distractor_diamondtriangles.svg	stimuli_distractor_diamondtriangles.svg	39	no	57	0	751	0	0			0	0			1				0	
6.6.1	win	2023-06-02	05:45:52	05:52:12	376926	55b42b7cfdf99b5244217cf4	4	1	main_z	7	main_z	5	stimuli_distractor_diamondtriangles.svg	stimuli_target_rectangletriangles.svg	13	yes	44	1	728	0	0			0	0			1				0	
6.6.1	win	2023-06-02	05:45:52	05:52:12	376926	55b42b7cfdf99b5244217cf4	4	1	main_z	7	advance_on_keypress_ZEE	6	stimuli_distractor_diamondtriangles.svg	stimuli_target_rectangletriangles.svg	13	yes	57	0	726	0	0			0	0			1				0	
6.6.1	win	2023-06-02	05:45:52	05:52:14	379227	55b42b7cfdf99b5244217cf4	4	1	main_z	7	main_z	7	stimuli_distractor_trianglediamonds.svg	stimuli_distractor_diamondtriangles.svg	36	no	44	0	907	0	0			0	0			1				0	
6.6.1	win	2023-06-02	05:45:52	05:52:14	379227	55b42b7cfdf99b5244217cf4	4	1	main_z	7	advance_on_keypress_ZEE	8	stimuli_distractor_trianglediamonds.svg	stimuli_distractor_diamondtriangles.svg	36	no	57	0	703	0	0			0	0			1				0	
6.6.1	win	2023-06-02	05:45:52	05:52:18	382591	55b42b7cfdf99b5244217cf4	4	1	main_z	7	main_z	9	stimuli_distractor_trianglediamonds.svg	stimuli_target_diamondrectangles.svg	27	yes	0	0	2000	0	0			0	0			1				0	
6.6.1	win	2023-06-02	05:45:52	05:52:18	382591	55b42b7cfdf99b5244217cf4	4	1	main_z	7	advance_on_keypress_ZEE	10	stimuli_distractor_trianglediamonds.svg	stimuli_target_diamondrectangles.svg	27	yes	57	0	644	0	0			0	0			1				0	
6.6.1	win	2023-06-02	05:45:52	05:52:19	384388	55b42b7cfdf99b5244217cf4	4	1	main_z	7	main_z	11	stimuli_target_squaretriangles.svg	stimuli_distractor_diamondtriangles.svg	7	yes	44	1	490	0	0			0	0			1				0	
6.6.1	win	2023-06-02	05:45:52	05:52:19	384388	55b42b7cfdf99b5244217cf4	4	1	main_z	7	advance_on_keypress_ZEE	12	stimuli_target_squaretriangles.svg	stimuli_distractor_diamondtriangles.svg	7	yes	57	0	654	0	0			0	0			1				0	
6.6.1	win	2023-06-02	05:45:52	05:52:21	386228	55b42b7cfdf99b5244217cf4	4	1	main_z	7	main_z	13	stimuli_distractor_trianglediamonds.svg	stimuli_target_squaretriangles.svg	11	yes	44	1	517	0	0			0	0			1				0	
6.6.1	win	2023-06-02	05:45:52	05:52:21	386228	55b42b7cfdf99b5244217cf4	4	1	main_z	7	advance_on_keypress_ZEE	14	stimuli_distractor_trianglediamonds.svg	stimuli_target_squaretriangles.svg	11	yes	57	0	573	0	0			0	0			1				0	
6.6.1	win	2023-06-02	05:45:52	05:52:23	388357	55b42b7cfdf99b5244217cf4	4	1	main_z	7	main_z	15	stimuli_distractor_diamondtriangles.svg	stimuli_target_squaretriangles.svg	15	yes	44	1	880	0	0			0	0			1				0	
6.6.1	win	2023-06-02	05:45:52	05:52:23	388357	55b42b7cfdf99b5244217cf4	4	1	main_z	7	advance_on_keypress_ZEE	16	stimuli_distractor_diamondtriangles.svg	stimuli_target_squaretriangles.svg	15	yes	57	0	664	0	0			0	0			1				0	
6.6.1	win	2023-06-02	05:45:52	05:52:26	390679	55b42b7cfdf99b5244217cf4	4	1	main_z	7	main_z	17	stimuli_distractor_diamondtriangles.svg	stimuli_distractor_trianglediamonds.svg	38	no	44	0	1012	0	0			0	0			1				0	
6.6.1	win	2023-06-02	05:45:52	05:52:26	390679	55b42b7cfdf99b5244217cf4	4	1	main_z	7	advance_on_keypress_ZEE	18	stimuli_distractor_diamondtriangles.svg	stimuli_distractor_trianglediamonds.svg	38	no	57	0	625	0	0			0	0			1				0	
6.6.1	win	2023-06-02	05:45:52	05:52:28	392485	55b42b7cfdf99b5244217cf4	4	1	main_z	7	main_z	19	stimuli_target_squarediamonds.svg	stimuli_distractor_diamondtriangles.svg	8	yes	44	1	506	0	0			0	0			1				0	
6.6.1	win	2023-06-02	05:45:52	05:52:28	392485	55b42b7cfdf99b5244217cf4	4	1	main_z	7	advance_on_keypress_ZEE	20	stimuli_target_squarediamonds.svg	stimuli_distractor_diamondtriangles.svg	8	yes	57	0	587	0	0			0	0			1				0	
6.6.1	win	2023-06-02	05:45:52	05:52:29	394345	55b42b7cfdf99b5244217cf4	4	1	main_z	7	main_z	21	stimuli_distractor_diamondtriangles.svg	stimuli_target_rectanglediamonds.svg	14	yes	44	1	610	0	0			0	0			1				0	
6.6.1	win	2023-06-02	05:45:52	05:52:29	394345	55b42b7cfdf99b5244217cf4	4	1	main_z	7	advance_on_keypress_ZEE	22	stimuli_distractor_diamondtriangles.svg	stimuli_target_rectanglediamonds.svg	14	yes	57	0	745	0	0			0	0			1				0	
6.6.1	win	2023-06-02	05:45:52	05:52:33	397763	55b42b7cfdf99b5244217cf4	4	1	main_z	7	main_z	23	stimuli_distractor_diamondtriangles.svg	stimuli_distractor_trianglediamonds.svg	37	no	0	1	2000	0	0			0	0			1				0	
6.6.1	win	2023-06-02	05:45:52	05:52:33	397763	55b42b7cfdf99b5244217cf4	4	1	main_z	7	advance_on_keypress_ZEE	24	stimuli_distractor_diamondtriangles.svg	stimuli_distractor_trianglediamonds.svg	37	no	57	0	428	0	0			0	0			1				0	
6.6.1	win	2023-06-02	05:45:52	05:52:34	399391	55b42b7cfdf99b5244217cf4	4	1	main_z	7	main_z	25	stimuli_target_diamondrectangles.svg	stimuli_distractor_trianglediamonds.svg	19	yes	44	1	544	0	0			0	0			1				0	
6.6.1	win	2023-06-02	05:45:52	05:52:34	399391	55b42b7cfdf99b5244217cf4	4	1	main_z	7	advance_on_keypress_ZEE	26	stimuli_target_diamondrectangles.svg	stimuli_distractor_trianglediamonds.svg	19	yes	57	0	1155	0	0			0	0			1				0	
6.6.1	win	2023-06-02	05:45:52	05:52:37	402356	55b42b7cfdf99b5244217cf4	4	1	main_z	7	main_z	27	stimuli_distractor_trianglediamonds.svg	stimuli_target_diamondsquares.svg	28	yes	44	1	1158	0	0			0	0			1				0	
6.6.1	win	2023-06-02	05:45:52	05:52:37	402356	55b42b7cfdf99b5244217cf4	4	1	main_z	7	advance_on_keypress_ZEE	28	stimuli_distractor_trianglediamonds.svg	stimuli_target_diamondsquares.svg	28	yes	57	0	1010	0	0			0	0			1				0	
6.6.1	win	2023-06-02	05:45:52	05:52:40	404663	55b42b7cfdf99b5244217cf4	4	1	main_z	7	main_z	29	stimuli_distractor_trianglediamonds.svg	stimuli_target_rectangletriangles.svg	9	yes	44	1	642	0	0			0	0			1				0	
6.6.1	win	2023-06-02	05:45:52	05:52:40	404663	55b42b7cfdf99b5244217cf4	4	1	main_z	7	advance_on_keypress_ZEE	30	stimuli_distractor_trianglediamonds.svg	stimuli_target_rectangletriangles.svg	9	yes	57	0	766	0	0			0	0			1				0	
6.6.1	win	2023-06-02	05:45:52	05:52:42	406922	55b42b7cfdf99b5244217cf4	4	1	main_z	7	main_z	31	stimuli_target_diamondsquares.svg	stimuli_distractor_trianglediamonds.svg	20	yes	44	1	839	0	0			0	0			1				0	
6.6.1	win	2023-06-02	05:45:52	05:52:42	406922	55b42b7cfdf99b5244217cf4	4	1	main_z	7	advance_on_keypress_ZEE	32	stimuli_target_diamondsquares.svg	stimuli_distractor_trianglediamonds.svg	20	yes	57	0	712	0	0			0	0			1				0	
6.6.1	win	2023-06-02	05:45:52	05:52:44	408921	55b42b7cfdf99b5244217cf4	4	1	main_z	7	main_z	33	stimuli_target_rectanglediamonds.svg	stimuli_distractor_diamondtriangles.svg	6	yes	44	1	635	0	0			0	0			1				0	
6.6.1	win	2023-06-02	05:45:52	05:52:44	408921	55b42b7cfdf99b5244217cf4	4	1	main_z	7	advance_on_keypress_ZEE	34	stimuli_target_rectanglediamonds.svg	stimuli_distractor_diamondtriangles.svg	6	yes	57	0	615	0	0			0	0			1				0	
6.6.1	win	2023-06-02	05:45:52	05:52:46	410935	55b42b7cfdf99b5244217cf4	4	1	main_z	7	main_z	35	stimuli_target_trianglerectangles.svg	stimuli_distractor_trianglediamonds.svg	17	yes	44	1	747	0	0			0	0			1				0	
6.6.1	win	2023-06-02	05:45:52	05:52:46	410935	55b42b7cfdf99b5244217cf4	4	1	main_z	7	advance_on_keypress_ZEE	36	stimuli_target_trianglerectangles.svg	stimuli_distractor_trianglediamonds.svg	17	yes	57	0	842	0	0			0	0			1				0	
6.6.1	win	2023-06-02	05:45:52	05:52:48	413216	55b42b7cfdf99b5244217cf4	4	1	main_z	7	main_z	37	stimuli_target_diamondsquares.svg	stimuli_distractor_diamondtriangles.svg	24	yes	44	1	785	0	0			0	0			1				0	
6.6.1	win	2023-06-02	05:45:52	05:52:48	413216	55b42b7cfdf99b5244217cf4	4	1	main_z	7	advance_on_keypress_ZEE	38	stimuli_target_diamondsquares.svg	stimuli_distractor_diamondtriangles.svg	24	yes	57	0	803	0	0			0	0			1				0	
6.6.1	win	2023-06-02	05:45:52	05:52:50	415351	55b42b7cfdf99b5244217cf4	4	1	main_z	7	main_z	39	stimuli_target_rectangletriangles.svg	stimuli_distractor_diamondtriangles.svg	5	yes	44	1	678	0	0			0	0			1				0	
6.6.1	win	2023-06-02	05:45:52	05:52:50	415351	55b42b7cfdf99b5244217cf4	4	1	main_z	7	advance_on_keypress_ZEE	40	stimuli_target_rectangletriangles.svg	stimuli_distractor_diamondtriangles.svg	5	yes	57	0	704	0	0			0	0			1				0	
6.6.1	win	2023-06-02	05:45:52	05:52:52	417167	55b42b7cfdf99b5244217cf4	4	1	main_z	7	main_z	41	stimuli_target_squaretriangles.svg	stimuli_distractor_trianglediamonds.svg	3	yes	44	1	448	0	0			0	0			1				0	
6.6.1	win	2023-06-02	05:45:52	05:52:52	417167	55b42b7cfdf99b5244217cf4	4	1	main_z	7	advance_on_keypress_ZEE	42	stimuli_target_squaretriangles.svg	stimuli_distractor_trianglediamonds.svg	3	yes	57	0	894	0	0			0	0			1				0	
6.6.1	win	2023-06-02	05:45:52	05:52:55	419533	55b42b7cfdf99b5244217cf4	4	1	main_z	7	main_z	43	stimuli_distractor_diamondtriangles.svg	stimuli_target_diamondrectangles.svg	31	yes	44	1	811	0	0			0	0			1				0	
6.6.1	win	2023-06-02	05:45:52	05:52:55	419533	55b42b7cfdf99b5244217cf4	4	1	main_z	7	advance_on_keypress_ZEE	44	stimuli_distractor_diamondtriangles.svg	stimuli_target_diamondrectangles.svg	31	yes	57	0	648	0	0			0	0			1				0	
6.6.1	win	2023-06-02	05:45:52	05:52:57	421601	55b42b7cfdf99b5244217cf4	4	1	main_z	7	main_z	45	stimuli_distractor_trianglediamonds.svg	stimuli_target_rectanglediamonds.svg	10	yes	44	1	772	0	0			0	0			1				0	
6.6.1	win	2023-06-02	05:45:52	05:52:57	421601	55b42b7cfdf99b5244217cf4	4	1	main_z	7	advance_on_keypress_ZEE	46	stimuli_distractor_trianglediamonds.svg	stimuli_target_rectanglediamonds.svg	10	yes	57	0	631	0	0			0	0			1				0	
6.6.1	win	2023-06-02	05:45:52	05:52:59	423736	55b42b7cfdf99b5244217cf4	4	1	main_z	7	main_z	47	stimuli_distractor_trianglediamonds.svg	stimuli_target_trianglerectangles.svg	25	yes	44	1	855	0	0			0	0			1				0	
6.6.1	win	2023-06-02	05:45:52	05:52:59	423736	55b42b7cfdf99b5244217cf4	4	1	main_z	7	advance_on_keypress_ZEE	48	stimuli_distractor_trianglediamonds.svg	stimuli_target_trianglerectangles.svg	25	yes	57	0	556	0	0			0	0			1				0	
6.6.1	win	2023-06-02	05:45:52	05:53:00	425472	55b42b7cfdf99b5244217cf4	4	1	main_z	7	main_z	49	stimuli_distractor_trianglediamonds.svg	stimuli_target_trianglesquares.svg	26	yes	44	1	536	0	0			0	0			1				0	
6.6.1	win	2023-06-02	05:45:52	05:53:00	425472	55b42b7cfdf99b5244217cf4	4	1	main_z	7	advance_on_keypress_ZEE	50	stimuli_distractor_trianglediamonds.svg	stimuli_target_trianglesquares.svg	26	yes	57	0	783	0	0			0	0			1				0	
6.6.1	win	2023-06-02	05:45:52	05:53:03	427714	55b42b7cfdf99b5244217cf4	4	1	main_z	7	main_z	51	stimuli_target_trianglerectangles.svg	stimuli_distractor_diamondtriangles.svg	21	yes	44	1	790	0	0			0	0			1				0	
6.6.1	win	2023-06-02	05:45:52	05:53:03	427714	55b42b7cfdf99b5244217cf4	4	1	main_z	7	advance_on_keypress_ZEE	52	stimuli_target_trianglerectangles.svg	stimuli_distractor_diamondtriangles.svg	21	yes	57	0	631	0	0			0	0			1				0	
6.6.1	win	2023-06-02	05:45:52	05:53:05	429683	55b42b7cfdf99b5244217cf4	4	1	main_z	7	main_z	53	stimuli_distractor_trianglediamonds.svg	stimuli_distractor_trianglediamonds.svg	33	no	44	0	675	0	0			0	0			1				0	
6.6.1	win	2023-06-02	05:45:52	05:53:05	429683	55b42b7cfdf99b5244217cf4	4	1	main_z	7	advance_on_keypress_ZEE	54	stimuli_distractor_trianglediamonds.svg	stimuli_distractor_trianglediamonds.svg	33	no	57	0	715	0	0			0	0			1				0	
6.6.1	win	2023-06-02	05:45:52	05:53:08	433072	55b42b7cfdf99b5244217cf4	4	1	main_z	7	main_z	55	stimuli_distractor_diamondtriangles.svg	stimuli_distractor_diamondtriangles.svg	40	no	0	1	2000	0	0			0	0			1				0	
6.6.1	win	2023-06-02	05:45:52	05:53:08	433072	55b42b7cfdf99b5244217cf4	4	1	main_z	7	advance_on_keypress_ZEE	56	stimuli_distractor_diamondtriangles.svg	stimuli_distractor_diamondtriangles.svg	40	no	57	0	566	0	0			0	0			1				0	
6.6.1	win	2023-06-02	05:45:52	05:53:11	436281	55b42b7cfdf99b5244217cf4	4	1	main_z	7	main_z	57	stimuli_distractor_trianglediamonds.svg	stimuli_distractor_trianglediamonds.svg	34	no	0	1	2000	0	0			0	0			1				0	
6.6.1	win	2023-06-02	05:45:52	05:53:11	436281	55b42b7cfdf99b5244217cf4	4	1	main_z	7	advance_on_keypress_ZEE	58	stimuli_distractor_trianglediamonds.svg	stimuli_distractor_trianglediamonds.svg	34	no	57	0	557	0	0			0	0			1				0	
6.6.1	win	2023-06-02	05:45:52	05:53:14	438672	55b42b7cfdf99b5244217cf4	4	1	main_z	7	main_z	59	stimuli_target_squarediamonds.svg	stimuli_distractor_trianglediamonds.svg	4	yes	44	1	1183	0	0			0	0			1				0	
6.6.1	win	2023-06-02	05:45:52	05:53:14	438672	55b42b7cfdf99b5244217cf4	4	1	main_z	7	advance_on_keypress_ZEE	60	stimuli_target_squarediamonds.svg	stimuli_distractor_trianglediamonds.svg	4	yes	57	0	568	0	0			0	0			1				0	
6.6.1	win	2023-06-02	05:45:52	05:53:16	440539	55b42b7cfdf99b5244217cf4	4	1	main_z	7	main_z	61	stimuli_distractor_diamondtriangles.svg	stimuli_target_squarediamonds.svg	16	yes	44	1	660	0	0			0	0			1				0	
6.6.1	win	2023-06-02	05:45:52	05:53:16	440539	55b42b7cfdf99b5244217cf4	4	1	main_z	7	advance_on_keypress_ZEE	62	stimuli_distractor_diamondtriangles.svg	stimuli_target_squarediamonds.svg	16	yes	57	0	713	0	0			0	0			1				0	
6.6.1	win	2023-06-02	05:45:52	05:53:18	442855	55b42b7cfdf99b5244217cf4	4	1	main_z	7	main_z	63	stimuli_distractor_diamondtriangles.svg	stimuli_target_trianglerectangles.svg	29	yes	44	1	931	0	0			0	0			1				0	
6.6.1	win	2023-06-02	05:45:52	05:53:18	442855	55b42b7cfdf99b5244217cf4	4	1	main_z	7	advance_on_keypress_ZEE	64	stimuli_distractor_diamondtriangles.svg	stimuli_target_trianglerectangles.svg	29	yes	57	0	514	0	0			0	0			1				0	
6.6.1	win	2023-06-02	05:45:52	05:53:20	444983	55b42b7cfdf99b5244217cf4	4	1	main_z	7	main_z	65	stimuli_target_diamondrectangles.svg	stimuli_distractor_diamondtriangles.svg	23	yes	44	1	947	0	0			0	0			1				0	
6.6.1	win	2023-06-02	05:45:52	05:53:20	444983	55b42b7cfdf99b5244217cf4	4	1	main_z	7	advance_on_keypress_ZEE	66	stimuli_target_diamondrectangles.svg	stimuli_distractor_diamondtriangles.svg	23	yes	57	0	748	0	0			0	0			1				0	
6.6.1	win	2023-06-02	05:45:52	05:53:22	447236	55b42b7cfdf99b5244217cf4	4	1	main_z	7	main_z	67	stimuli_target_trianglesquares.svg	stimuli_distractor_diamondtriangles.svg	22	yes	44	1	850	0	0			0	0			1				0	
6.6.1	win	2023-06-02	05:45:52	05:53:22	447236	55b42b7cfdf99b5244217cf4	4	1	main_z	7	advance_on_keypress_ZEE	68	stimuli_target_trianglesquares.svg	stimuli_distractor_diamondtriangles.svg	22	yes	57	0	719	0	0			0	0			1				0	
6.6.1	win	2023-06-02	05:45:52	05:53:26	450620	55b42b7cfdf99b5244217cf4	4	1	main_z	7	main_z	69	stimuli_distractor_trianglediamonds.svg	stimuli_distractor_diamondtriangles.svg	35	no	0	1	2000	0	0			0	0			1				0	
6.6.1	win	2023-06-02	05:45:52	05:53:26	450620	55b42b7cfdf99b5244217cf4	4	1	main_z	7	advance_on_keypress_ZEE	70	stimuli_distractor_trianglediamonds.svg	stimuli_distractor_diamondtriangles.svg	35	no	57	0	589	0	0			0	0			1				0	
6.6.1	win	2023-06-02	05:45:52	05:53:29	453876	55b42b7cfdf99b5244217cf4	4	1	main_z	7	main_z	71	stimuli_target_rectangletriangles.svg	stimuli_distractor_trianglediamonds.svg	1	yes	0	0	2000	0	0			0	0			1				0	
6.6.1	win	2023-06-02	05:45:52	05:53:29	453876	55b42b7cfdf99b5244217cf4	4	1	main_z	7	advance_on_keypress_ZEE	72	stimuli_target_rectangletriangles.svg	stimuli_distractor_trianglediamonds.svg	1	yes	57	0	356	0	0			0	0			1				0	
6.6.1	win	2023-06-02	05:45:52	05:53:31	455594	55b42b7cfdf99b5244217cf4	4	1	main_z	7	main_z	73	stimuli_distractor_diamondtriangles.svg	stimuli_target_diamondsquares.svg	32	yes	44	1	700	0	0			0	0			1				0	
6.6.1	win	2023-06-02	05:45:52	05:53:31	455594	55b42b7cfdf99b5244217cf4	4	1	main_z	7	advance_on_keypress_ZEE	74	stimuli_distractor_diamondtriangles.svg	stimuli_target_diamondsquares.svg	32	yes	57	0	730	0	0			0	0			1				0	
6.6.1	win	2023-06-02	05:45:52	05:53:33	457627	55b42b7cfdf99b5244217cf4	4	1	main_z	7	main_z	75	stimuli_target_rectanglediamonds.svg	stimuli_distractor_trianglediamonds.svg	2	yes	44	1	636	0	0			0	0			1				0	
6.6.1	win	2023-06-02	05:45:52	05:53:33	457627	55b42b7cfdf99b5244217cf4	4	1	main_z	7	advance_on_keypress_ZEE	76	stimuli_target_rectanglediamonds.svg	stimuli_distractor_trianglediamonds.svg	2	yes	57	0	643	0	0			0	0			1				0	
6.6.1	win	2023-06-02	05:45:52	05:53:35	459717	55b42b7cfdf99b5244217cf4	4	1	main_z	7	main_z	77	stimuli_distractor_diamondtriangles.svg	stimuli_target_trianglesquares.svg	30	yes	44	1	776	0	0			0	0			1				0	
6.6.1	win	2023-06-02	05:45:52	05:53:35	459717	55b42b7cfdf99b5244217cf4	4	1	main_z	7	advance_on_keypress_ZEE	78	stimuli_distractor_diamondtriangles.svg	stimuli_target_trianglesquares.svg	30	yes	57	0	620	0	0			0	0			1				0	
6.6.1	win	2023-06-02	05:45:52	05:53:37	461977	55b42b7cfdf99b5244217cf4	4	1	main_z	7	main_z	79	stimuli_target_trianglesquares.svg	stimuli_distractor_trianglediamonds.svg	18	yes	44	1	985	0	0			0	0			1				0	
6.6.1	win	2023-06-02	05:45:52	05:53:37	461977	55b42b7cfdf99b5244217cf4	4	1	main_z	7	advance_on_keypress_ZEE	80	stimuli_target_trianglesquares.svg	stimuli_distractor_trianglediamonds.svg	18	yes	57	0	539	0	0			0	0			1				0	
6.6.1	win	2023-06-02	05:45:52	05:53:40	465163	55b42b7cfdf99b5244217cf4	4	1	main_z	7	main_z	81	stimuli_distractor_diamondtriangles.svg	stimuli_target_rectanglediamonds.svg	14	yes	0	0	2000	0	0			0	0			1				0	
6.6.1	win	2023-06-02	05:45:52	05:53:40	465163	55b42b7cfdf99b5244217cf4	4	1	main_z	7	advance_on_keypress_ZEE	82	stimuli_distractor_diamondtriangles.svg	stimuli_target_rectanglediamonds.svg	14	yes	57	0	675	0	0			0	0			1				0	
6.6.1	win	2023-06-02	05:45:52	05:53:44	468495	55b42b7cfdf99b5244217cf4	4	1	main_z	7	main_z	83	stimuli_distractor_trianglediamonds.svg	stimuli_distractor_diamondtriangles.svg	35	no	0	1	2000	0	0			0	0			1				0	
6.6.1	win	2023-06-02	05:45:52	05:53:44	468495	55b42b7cfdf99b5244217cf4	4	1	main_z	7	advance_on_keypress_ZEE	84	stimuli_distractor_trianglediamonds.svg	stimuli_distractor_diamondtriangles.svg	35	no	57	0	338	0	0			0	0			1				0	
6.6.1	win	2023-06-02	05:45:52	05:53:47	471488	55b42b7cfdf99b5244217cf4	4	1	main_z	7	main_z	85	stimuli_distractor_diamondtriangles.svg	stimuli_distractor_diamondtriangles.svg	40	no	0	1	2000	0	0			0	0			1				0	
6.6.1	win	2023-06-02	05:45:52	05:53:47	471488	55b42b7cfdf99b5244217cf4	4	1	main_z	7	advance_on_keypress_ZEE	86	stimuli_distractor_diamondtriangles.svg	stimuli_distractor_diamondtriangles.svg	40	no	57	0	618	0	0			0	0			1				0	
6.6.1	win	2023-06-02	05:45:52	05:53:48	473295	55b42b7cfdf99b5244217cf4	4	1	main_z	7	main_z	87	stimuli_target_squarediamonds.svg	stimuli_distractor_diamondtriangles.svg	8	yes	44	1	541	0	0			0	0			1				0	
6.6.1	win	2023-06-02	05:45:52	05:53:48	473295	55b42b7cfdf99b5244217cf4	4	1	main_z	7	advance_on_keypress_ZEE	88	stimuli_target_squarediamonds.svg	stimuli_distractor_diamondtriangles.svg	8	yes	57	0	1030	0	0			0	0			1				0	
6.6.1	win	2023-06-02	05:45:52	05:53:51	475728	55b42b7cfdf99b5244217cf4	4	1	main_z	7	main_z	89	stimuli_target_diamondrectangles.svg	stimuli_distractor_trianglediamonds.svg	19	yes	44	1	731	0	0			0	0			1				0	
6.6.1	win	2023-06-02	05:45:52	05:53:51	475728	55b42b7cfdf99b5244217cf4	4	1	main_z	7	advance_on_keypress_ZEE	90	stimuli_target_diamondrectangles.svg	stimuli_distractor_trianglediamonds.svg	19	yes	57	0	652	0	0			0	0			1				0	
6.6.1	win	2023-06-02	05:45:52	05:53:53	478236	55b42b7cfdf99b5244217cf4	4	1	main_z	7	main_z	91	stimuli_target_trianglerectangles.svg	stimuli_distractor_trianglediamonds.svg	17	yes	44	1	1189	0	0			0	0			1				0	
6.6.1	win	2023-06-02	05:45:52	05:53:53	478236	55b42b7cfdf99b5244217cf4	4	1	main_z	7	advance_on_keypress_ZEE	92	stimuli_target_trianglerectangles.svg	stimuli_distractor_trianglediamonds.svg	17	yes	57	0	587	0	0			0	0			1				0	
6.6.1	win	2023-06-02	05:45:52	05:53:55	480340	55b42b7cfdf99b5244217cf4	4	1	main_z	7	main_z	93	stimuli_distractor_diamondtriangles.svg	stimuli_target_diamondrectangles.svg	31	yes	44	1	877	0	0			0	0			1				0	
6.6.1	win	2023-06-02	05:45:52	05:53:55	480340	55b42b7cfdf99b5244217cf4	4	1	main_z	7	advance_on_keypress_ZEE	94	stimuli_distractor_diamondtriangles.svg	stimuli_target_diamondrectangles.svg	31	yes	57	0	720	0	0			0	0			1				0	
6.6.1	win	2023-06-02	05:45:52	05:53:59	483712	55b42b7cfdf99b5244217cf4	4	1	main_z	7	main_z	95	stimuli_distractor_diamondtriangles.svg	stimuli_distractor_diamondtriangles.svg	39	no	0	1	2000	0	0			0	0			1				0	
6.6.1	win	2023-06-02	05:45:52	05:53:59	483712	55b42b7cfdf99b5244217cf4	4	1	main_z	7	advance_on_keypress_ZEE	96	stimuli_distractor_diamondtriangles.svg	stimuli_distractor_diamondtriangles.svg	39	no	57	0	519	0	0			0	0			1				0	
6.6.1	win	2023-06-02	05:45:52	05:54:00	485467	55b42b7cfdf99b5244217cf4	4	1	main_z	7	main_z	97	stimuli_distractor_trianglediamonds.svg	stimuli_target_trianglesquares.svg	26	yes	44	1	585	0	0			0	0			1				0	
6.6.1	win	2023-06-02	05:45:52	05:54:00	485467	55b42b7cfdf99b5244217cf4	4	1	main_z	7	advance_on_keypress_ZEE	98	stimuli_distractor_trianglediamonds.svg	stimuli_target_trianglesquares.svg	26	yes	57	0	627	0	0			0	0			1				0	
6.6.1	win	2023-06-02	05:45:52	05:54:03	487961	55b42b7cfdf99b5244217cf4	4	1	main_z	7	main_z	99	stimuli_distractor_trianglediamonds.svg	stimuli_target_squaretriangles.svg	11	yes	44	1	1203	0	0			0	0			1				0	
6.6.1	win	2023-06-02	05:45:52	05:54:03	487961	55b42b7cfdf99b5244217cf4	4	1	main_z	7	advance_on_keypress_ZEE	100	stimuli_distractor_trianglediamonds.svg	stimuli_target_squaretriangles.svg	11	yes	57	0	629	0	0			0	0			1				0	
6.6.1	win	2023-06-02	05:45:52	05:54:05	489952	55b42b7cfdf99b5244217cf4	4	1	main_z	7	main_z	101	stimuli_distractor_diamondtriangles.svg	stimuli_target_squarediamonds.svg	16	yes	44	1	704	0	0			0	0			1				0	
6.6.1	win	2023-06-02	05:45:52	05:54:05	489952	55b42b7cfdf99b5244217cf4	4	1	main_z	7	advance_on_keypress_ZEE	102	stimuli_distractor_diamondtriangles.svg	stimuli_target_squarediamonds.svg	16	yes	57	0	691	0	0			0	0			1				0	
6.6.1	win	2023-06-02	05:45:52	05:54:07	492074	55b42b7cfdf99b5244217cf4	4	1	main_z	7	main_z	103	stimuli_target_rectangletriangles.svg	stimuli_distractor_diamondtriangles.svg	5	yes	44	1	775	0	0			0	0			1				0	
6.6.1	win	2023-06-02	05:45:52	05:54:07	492074	55b42b7cfdf99b5244217cf4	4	1	main_z	7	advance_on_keypress_ZEE	104	stimuli_target_rectangletriangles.svg	stimuli_distractor_diamondtriangles.svg	5	yes	57	0	503	0	0			0	0			1				0	
6.6.1	win	2023-06-02	05:45:52	05:54:09	494058	55b42b7cfdf99b5244217cf4	4	1	main_z	7	main_z	105	stimuli_distractor_trianglediamonds.svg	stimuli_target_rectangletriangles.svg	9	yes	44	1	811	0	0			0	0			1				0	
6.6.1	win	2023-06-02	05:45:52	05:54:09	494058	55b42b7cfdf99b5244217cf4	4	1	main_z	7	advance_on_keypress_ZEE	106	stimuli_distractor_trianglediamonds.svg	stimuli_target_rectangletriangles.svg	9	yes	57	0	655	0	0			0	0			1				0	
6.6.1	win	2023-06-02	05:45:52	05:54:11	495965	55b42b7cfdf99b5244217cf4	4	1	main_z	7	main_z	107	stimuli_target_squaretriangles.svg	stimuli_distractor_trianglediamonds.svg	3	yes	44	1	605	0	0			0	0			1				0	
6.6.1	win	2023-06-02	05:45:52	05:54:11	495965	55b42b7cfdf99b5244217cf4	4	1	main_z	7	advance_on_keypress_ZEE	108	stimuli_target_squaretriangles.svg	stimuli_distractor_trianglediamonds.svg	3	yes	57	0	493	0	0			0	0			1				0	
6.6.1	win	2023-06-02	05:45:52	05:54:14	499102	55b42b7cfdf99b5244217cf4	4	1	main_z	7	main_z	109	stimuli_distractor_diamondtriangles.svg	stimuli_distractor_trianglediamonds.svg	38	no	0	1	2000	0	0			0	0			1				0	
6.6.1	win	2023-06-02	05:45:52	05:54:14	499102	55b42b7cfdf99b5244217cf4	4	1	main_z	7	advance_on_keypress_ZEE	110	stimuli_distractor_diamondtriangles.svg	stimuli_distractor_trianglediamonds.svg	38	no	57	0	415	0	0			0	0			1				0	
6.6.1	win	2023-06-02	05:45:52	05:54:16	501108	55b42b7cfdf99b5244217cf4	4	1	main_z	7	main_z	111	stimuli_distractor_trianglediamonds.svg	stimuli_target_rectanglediamonds.svg	10	yes	44	1	916	0	0			0	0			1				0	
6.6.1	win	2023-06-02	05:45:52	05:54:16	501108	55b42b7cfdf99b5244217cf4	4	1	main_z	7	advance_on_keypress_ZEE	112	stimuli_distractor_trianglediamonds.svg	stimuli_target_rectanglediamonds.svg	10	yes	57	0	637	0	0			0	0			1				0	
6.6.1	win	2023-06-02	05:45:52	05:54:18	503476	55b42b7cfdf99b5244217cf4	4	1	main_z	7	main_z	113	stimuli_distractor_diamondtriangles.svg	stimuli_target_trianglerectangles.svg	29	yes	44	1	1070	0	0			0	0			1				0	
6.6.1	win	2023-06-02	05:45:52	05:54:18	503476	55b42b7cfdf99b5244217cf4	4	1	main_z	7	advance_on_keypress_ZEE	114	stimuli_distractor_diamondtriangles.svg	stimuli_target_trianglerectangles.svg	29	yes	57	0	462	0	0			0	0			1				0	
6.6.1	win	2023-06-02	05:45:52	05:54:21	505491	55b42b7cfdf99b5244217cf4	4	1	main_z	7	main_z	115	stimuli_target_squarediamonds.svg	stimuli_distractor_trianglediamonds.svg	4	yes	44	1	887	0	0			0	0			1				0	
6.6.1	win	2023-06-02	05:45:52	05:54:21	505491	55b42b7cfdf99b5244217cf4	4	1	main_z	7	advance_on_keypress_ZEE	116	stimuli_target_squarediamonds.svg	stimuli_distractor_trianglediamonds.svg	4	yes	57	0	457	0	0			0	0			1				0	
6.6.1	win	2023-06-02	05:45:52	05:54:23	507876	55b42b7cfdf99b5244217cf4	4	1	main_z	7	main_z	117	stimuli_target_diamondrectangles.svg	stimuli_distractor_diamondtriangles.svg	23	yes	44	1	1259	0	0			0	0			1				0	
6.6.1	win	2023-06-02	05:45:52	05:54:23	507876	55b42b7cfdf99b5244217cf4	4	1	main_z	7	advance_on_keypress_ZEE	118	stimuli_target_diamondrectangles.svg	stimuli_distractor_diamondtriangles.svg	23	yes	57	0	482	0	0			0	0			1				0	
6.6.1	win	2023-06-02	05:45:52	05:54:25	509965	55b42b7cfdf99b5244217cf4	4	1	main_z	7	main_z	119	stimuli_distractor_diamondtriangles.svg	stimuli_target_trianglesquares.svg	30	yes	44	1	955	0	0			0	0			1				0	
6.6.1	win	2023-06-02	05:45:52	05:54:25	509965	55b42b7cfdf99b5244217cf4	4	1	main_z	7	advance_on_keypress_ZEE	120	stimuli_distractor_diamondtriangles.svg	stimuli_target_trianglesquares.svg	30	yes	57	0	420	0	0			0	0			1				0	
6.6.1	win	2023-06-02	05:45:52	05:54:27	512154	55b42b7cfdf99b5244217cf4	4	1	main_z	7	main_z	121	stimuli_target_trianglerectangles.svg	stimuli_distractor_diamondtriangles.svg	21	yes	44	1	1113	0	0			0	0			1				0	
6.6.1	win	2023-06-02	05:45:52	05:54:27	512154	55b42b7cfdf99b5244217cf4	4	1	main_z	7	advance_on_keypress_ZEE	122	stimuli_target_trianglerectangles.svg	stimuli_distractor_diamondtriangles.svg	21	yes	57	0	538	0	0			0	0			1				0	
6.6.1	win	2023-06-02	05:45:52	05:54:30	515379	55b42b7cfdf99b5244217cf4	4	1	main_z	7	main_z	123	stimuli_distractor_trianglediamonds.svg	stimuli_distractor_trianglediamonds.svg	34	no	0	1	2000	0	0			0	0			1				0	
6.6.1	win	2023-06-02	05:45:52	05:54:30	515379	55b42b7cfdf99b5244217cf4	4	1	main_z	7	advance_on_keypress_ZEE	124	stimuli_distractor_trianglediamonds.svg	stimuli_distractor_trianglediamonds.svg	34	no	57	0	531	0	0			0	0			1				0	
6.6.1	win	2023-06-02	05:45:52	05:54:32	517367	55b42b7cfdf99b5244217cf4	4	1	main_z	7	main_z	125	stimuli_distractor_trianglediamonds.svg	stimuli_target_diamondsquares.svg	28	yes	44	1	799	0	0			0	0			1				0	
6.6.1	win	2023-06-02	05:45:52	05:54:32	517367	55b42b7cfdf99b5244217cf4	4	1	main_z	7	advance_on_keypress_ZEE	126	stimuli_distractor_trianglediamonds.svg	stimuli_target_diamondsquares.svg	28	yes	57	0	490	0	0			0	0			1				0	
6.6.1	win	2023-06-02	05:45:52	05:54:35	519583	55b42b7cfdf99b5244217cf4	4	1	main_z	7	main_z	127	stimuli_target_rectangletriangles.svg	stimuli_distractor_trianglediamonds.svg	1	yes	44	1	1060	0	0			0	0			1				0	
6.6.1	win	2023-06-02	05:45:52	05:54:35	519583	55b42b7cfdf99b5244217cf4	4	1	main_z	7	advance_on_keypress_ZEE	128	stimuli_target_rectangletriangles.svg	stimuli_distractor_trianglediamonds.svg	1	yes	57	0	767	0	0			0	0			1				0	
6.6.1	win	2023-06-02	05:45:52	05:54:38	523022	55b42b7cfdf99b5244217cf4	4	1	main_z	7	main_z	129	stimuli_distractor_trianglediamonds.svg	stimuli_target_trianglerectangles.svg	25	yes	0	0	2000	0	0			0	0			1				0	
6.6.1	win	2023-06-02	05:45:52	05:54:38	523022	55b42b7cfdf99b5244217cf4	4	1	main_z	7	advance_on_keypress_ZEE	130	stimuli_distractor_trianglediamonds.svg	stimuli_target_trianglerectangles.svg	25	yes	57	0	565	0	0			0	0			1				0	
6.6.1	win	2023-06-02	05:45:52	05:54:40	525300	55b42b7cfdf99b5244217cf4	4	1	main_z	7	main_z	131	stimuli_target_diamondsquares.svg	stimuli_distractor_trianglediamonds.svg	20	yes	44	1	1047	0	0			0	0			1				0	
6.6.1	win	2023-06-02	05:45:52	05:54:40	525300	55b42b7cfdf99b5244217cf4	4	1	main_z	7	advance_on_keypress_ZEE	132	stimuli_target_diamondsquares.svg	stimuli_distractor_trianglediamonds.svg	20	yes	57	0	653	0	0			0	0			1				0	
6.6.1	win	2023-06-02	05:45:52	05:54:43	527499	55b42b7cfdf99b5244217cf4	4	1	main_z	7	main_z	133	stimuli_target_rectanglediamonds.svg	stimuli_distractor_trianglediamonds.svg	2	yes	44	1	885	0	0			0	0			1				0	
6.6.1	win	2023-06-02	05:45:52	05:54:43	527499	55b42b7cfdf99b5244217cf4	4	1	main_z	7	advance_on_keypress_ZEE	134	stimuli_target_rectanglediamonds.svg	stimuli_distractor_trianglediamonds.svg	2	yes	57	0	476	0	0			0	0			1				0	
6.6.1	win	2023-06-02	05:45:52	05:54:45	529960	55b42b7cfdf99b5244217cf4	4	1	main_z	7	main_z	135	stimuli_distractor_diamondtriangles.svg	stimuli_target_diamondsquares.svg	32	yes	44	1	1325	0	0			0	0			1				0	
6.6.1	win	2023-06-02	05:45:52	05:54:45	529960	55b42b7cfdf99b5244217cf4	4	1	main_z	7	advance_on_keypress_ZEE	136	stimuli_distractor_diamondtriangles.svg	stimuli_target_diamondsquares.svg	32	yes	57	0	500	0	0			0	0			1				0	
6.6.1	win	2023-06-02	05:45:52	05:54:48	533113	55b42b7cfdf99b5244217cf4	4	1	main_z	7	main_z	137	stimuli_distractor_diamondtriangles.svg	stimuli_distractor_trianglediamonds.svg	37	no	0	1	2000	0	0			0	0			1				0	
6.6.1	win	2023-06-02	05:45:52	05:54:48	533113	55b42b7cfdf99b5244217cf4	4	1	main_z	7	advance_on_keypress_ZEE	138	stimuli_distractor_diamondtriangles.svg	stimuli_distractor_trianglediamonds.svg	37	no	57	0	353	0	0			0	0			1				0	
6.6.1	win	2023-06-02	05:45:52	05:54:50	534711	55b42b7cfdf99b5244217cf4	4	1	main_z	7	main_z	139	stimuli_target_rectanglediamonds.svg	stimuli_distractor_diamondtriangles.svg	6	yes	44	1	598	0	0			0	0			1				0	
6.6.1	win	2023-06-02	05:45:52	05:54:50	534711	55b42b7cfdf99b5244217cf4	4	1	main_z	7	advance_on_keypress_ZEE	140	stimuli_target_rectanglediamonds.svg	stimuli_distractor_diamondtriangles.svg	6	yes	57	0	458	0	0			0	0			1				0	
6.6.1	win	2023-06-02	05:45:52	05:54:52	536845	55b42b7cfdf99b5244217cf4	4	1	main_z	7	main_z	141	stimuli_distractor_trianglediamonds.svg	stimuli_target_diamondrectangles.svg	27	yes	44	1	1021	0	0			0	0			1				0	
6.6.1	win	2023-06-02	05:45:52	05:54:52	536845	55b42b7cfdf99b5244217cf4	4	1	main_z	7	advance_on_keypress_ZEE	142	stimuli_distractor_trianglediamonds.svg	stimuli_target_diamondrectangles.svg	27	yes	57	0	406	0	0			0	0			1				0	
6.6.1	win	2023-06-02	05:45:52	05:54:55	539914	55b42b7cfdf99b5244217cf4	4	1	main_z	7	main_z	143	stimuli_distractor_diamondtriangles.svg	stimuli_target_squaretriangles.svg	15	yes	0	0	2000	0	0			0	0			1				0	
6.6.1	win	2023-06-02	05:45:52	05:54:55	539914	55b42b7cfdf99b5244217cf4	4	1	main_z	7	advance_on_keypress_ZEE	144	stimuli_distractor_diamondtriangles.svg	stimuli_target_squaretriangles.svg	15	yes	57	0	788	0	0			0	0			1				0	
6.6.1	win	2023-06-02	05:45:52	05:54:57	542092	55b42b7cfdf99b5244217cf4	4	1	main_z	7	main_z	145	stimuli_distractor_trianglediamonds.svg	stimuli_target_squarediamonds.svg	12	yes	44	1	738	0	0			0	0			1				0	
6.6.1	win	2023-06-02	05:45:52	05:54:57	542092	55b42b7cfdf99b5244217cf4	4	1	main_z	7	advance_on_keypress_ZEE	146	stimuli_distractor_trianglediamonds.svg	stimuli_target_squarediamonds.svg	12	yes	57	0	458	0	0			0	0			1				0	
6.6.1	win	2023-06-02	05:45:52	05:55:00	545218	55b42b7cfdf99b5244217cf4	4	1	main_z	7	main_z	147	stimuli_target_diamondsquares.svg	stimuli_distractor_diamondtriangles.svg	24	yes	0	0	2000	0	0			0	0			1				0	
6.6.1	win	2023-06-02	05:45:52	05:55:00	545218	55b42b7cfdf99b5244217cf4	4	1	main_z	7	advance_on_keypress_ZEE	148	stimuli_target_diamondsquares.svg	stimuli_distractor_diamondtriangles.svg	24	yes	57	0	466	0	0			0	0			1				0	
6.6.1	win	2023-06-02	05:45:52	05:55:02	547108	55b42b7cfdf99b5244217cf4	4	1	main_z	7	main_z	149	stimuli_target_squaretriangles.svg	stimuli_distractor_diamondtriangles.svg	7	yes	44	1	754	0	0			0	0			1				0	
6.6.1	win	2023-06-02	05:45:52	05:55:02	547108	55b42b7cfdf99b5244217cf4	4	1	main_z	7	advance_on_keypress_ZEE	150	stimuli_target_squaretriangles.svg	stimuli_distractor_diamondtriangles.svg	7	yes	57	0	500	0	0			0	0			1				0	
6.6.1	win	2023-06-02	05:45:52	05:55:05	550271	55b42b7cfdf99b5244217cf4	4	1	main_z	7	main_z	151	stimuli_distractor_trianglediamonds.svg	stimuli_distractor_diamondtriangles.svg	36	no	0	1	2000	0	0			0	0			1				0	
6.6.1	win	2023-06-02	05:45:52	05:55:05	550271	55b42b7cfdf99b5244217cf4	4	1	main_z	7	advance_on_keypress_ZEE	152	stimuli_distractor_trianglediamonds.svg	stimuli_distractor_diamondtriangles.svg	36	no	57	0	515	0	0			0	0			1				0	
6.6.1	win	2023-06-02	05:45:52	05:55:07	552200	55b42b7cfdf99b5244217cf4	4	1	main_z	7	main_z	153	stimuli_target_trianglesquares.svg	stimuli_distractor_diamondtriangles.svg	22	yes	44	1	755	0	0			0	0			1				0	
6.6.1	win	2023-06-02	05:45:52	05:55:07	552200	55b42b7cfdf99b5244217cf4	4	1	main_z	7	advance_on_keypress_ZEE	154	stimuli_target_trianglesquares.svg	stimuli_distractor_diamondtriangles.svg	22	yes	57	0	534	0	0			0	0			1				0	
6.6.1	win	2023-06-02	05:45:52	05:55:10	555388	55b42b7cfdf99b5244217cf4	4	1	main_z	7	main_z	155	stimuli_distractor_diamondtriangles.svg	stimuli_target_rectangletriangles.svg	13	yes	0	0	2000	0	0			0	0			1				0	
6.6.1	win	2023-06-02	05:45:52	05:55:10	555388	55b42b7cfdf99b5244217cf4	4	1	main_z	7	advance_on_keypress_ZEE	156	stimuli_distractor_diamondtriangles.svg	stimuli_target_rectangletriangles.svg	13	yes	57	0	509	0	0			0	0			1				0	
6.6.1	win	2023-06-02	05:45:52	05:55:14	558565	55b42b7cfdf99b5244217cf4	4	1	main_z	7	main_z	157	stimuli_distractor_trianglediamonds.svg	stimuli_distractor_trianglediamonds.svg	33	no	0	1	2000	0	0			0	0			1				0	
6.6.1	win	2023-06-02	05:45:52	05:55:14	558565	55b42b7cfdf99b5244217cf4	4	1	main_z	7	advance_on_keypress_ZEE	158	stimuli_distractor_trianglediamonds.svg	stimuli_distractor_trianglediamonds.svg	33	no	57	0	357	0	0			0	0			1				0	
6.6.1	win	2023-06-02	05:45:52	05:55:15	560291	55b42b7cfdf99b5244217cf4	4	1	main_z	7	main_z	159	stimuli_target_trianglesquares.svg	stimuli_distractor_trianglediamonds.svg	18	yes	44	1	710	0	0			0	0			1				0	
6.6.1	win	2023-06-02	05:45:52	05:55:15	560291	55b42b7cfdf99b5244217cf4	4	1	main_z	7	advance_on_keypress_ZEE	160	stimuli_target_trianglesquares.svg	stimuli_distractor_trianglediamonds.svg	18	yes	57	0	584	0	0			0	0			1				0	
6.6.1	win	2023-06-02	05:45:52	05:55:49	593769	55b42b7cfdf99b5244217cf4	4	1	practice_slash	9	practice_slash	1	stimuli_distractor_trianglediamonds.svg	stimuli_target_diamondrectangles.svg	12	yes	53	1	519	0	0			0	0			1				0	
6.6.1	win	2023-06-02	05:45:52	05:55:49	593769	55b42b7cfdf99b5244217cf4	4	1	practice_slash	9	advance_on_keypress_SLASH	2	stimuli_distractor_trianglediamonds.svg	stimuli_target_diamondrectangles.svg	12	yes	57	0	4684	0	0			0	0			1				0	
6.6.1	win	2023-06-02	05:45:52	05:55:57	602123	55b42b7cfdf99b5244217cf4	4	1	practice_slash	9	practice_slash	3	stimuli_distractor_trianglediamonds.svg	stimuli_distractor_trianglediamonds.svg	15	no	0	1	2000	0	0			0	0			1				0	
6.6.1	win	2023-06-02	05:45:52	05:55:57	602123	55b42b7cfdf99b5244217cf4	4	1	practice_slash	9	advance_on_keypress_SLASH	4	stimuli_distractor_trianglediamonds.svg	stimuli_distractor_trianglediamonds.svg	15	no	57	0	1338	0	0			0	0			1				0	
6.6.1	win	2023-06-02	05:45:52	05:56:01	605743	55b42b7cfdf99b5244217cf4	4	1	practice_slash	9	practice_slash	5	stimuli_target_diamondsquares.svg	stimuli_distractor_diamondtriangles.svg	3	yes	53	1	620	0	0			0	0			1				0	
6.6.1	win	2023-06-02	05:45:52	05:56:01	605743	55b42b7cfdf99b5244217cf4	4	1	practice_slash	9	advance_on_keypress_SLASH	6	stimuli_target_diamondsquares.svg	stimuli_distractor_diamondtriangles.svg	3	yes	57	0	586	0	0			0	0			1				0	
6.6.1	win	2023-06-02	05:45:52	05:56:05	609994	55b42b7cfdf99b5244217cf4	4	1	practice_slash	9	practice_slash	7	stimuli_target_rectanglediamonds.svg	stimuli_distractor_diamondtriangles.svg	1	yes	0	0	2000	0	0			0	0			1				0	
6.6.1	win	2023-06-02	05:45:52	05:56:05	609994	55b42b7cfdf99b5244217cf4	4	1	practice_slash	9	advance_on_keypress_SLASH	8	stimuli_target_rectanglediamonds.svg	stimuli_distractor_diamondtriangles.svg	1	yes	57	0	413	0	0			0	0			1				0	
6.6.1	win	2023-06-02	05:45:52	05:56:08	612605	55b42b7cfdf99b5244217cf4	4	1	practice_slash	9	practice_slash	9	stimuli_target_squarediamonds.svg	stimuli_distractor_diamondtriangles.svg	2	yes	53	1	528	0	0			0	0			1				0	
6.6.1	win	2023-06-02	05:45:52	05:56:08	612605	55b42b7cfdf99b5244217cf4	4	1	practice_slash	9	advance_on_keypress_SLASH	10	stimuli_target_squarediamonds.svg	stimuli_distractor_diamondtriangles.svg	2	yes	57	0	418	0	0			0	0			1				0	
6.6.1	win	2023-06-02	05:45:52	05:56:10	615197	55b42b7cfdf99b5244217cf4	4	1	practice_slash	9	practice_slash	11	stimuli_target_squarediamonds.svg	stimuli_distractor_trianglediamonds.svg	5	yes	53	1	520	0	0			0	0			1				0	
6.6.1	win	2023-06-02	05:45:52	05:56:10	615197	55b42b7cfdf99b5244217cf4	4	1	practice_slash	9	advance_on_keypress_SLASH	12	stimuli_target_squarediamonds.svg	stimuli_distractor_trianglediamonds.svg	5	yes	57	0	373	0	0			0	0			1				0	
6.6.1	win	2023-06-02	05:45:52	05:56:14	619243	55b42b7cfdf99b5244217cf4	4	1	practice_slash	9	practice_slash	13	stimuli_distractor_diamondtriangles.svg	stimuli_distractor_diamondtriangles.svg	13	no	0	1	2000	0	0			0	0			1				0	
6.6.1	win	2023-06-02	05:45:52	05:56:14	619243	55b42b7cfdf99b5244217cf4	4	1	practice_slash	9	advance_on_keypress_SLASH	14	stimuli_distractor_diamondtriangles.svg	stimuli_distractor_diamondtriangles.svg	13	no	57	0	392	0	0			0	0			1				0	
6.6.1	win	2023-06-02	05:45:52	05:56:17	621898	55b42b7cfdf99b5244217cf4	4	1	practice_slash	9	practice_slash	15	stimuli_target_diamondsquares.svg	stimuli_distractor_trianglediamonds.svg	6	yes	53	1	586	0	0			0	0			1				0	
6.6.1	win	2023-06-02	05:45:52	05:56:17	621898	55b42b7cfdf99b5244217cf4	4	1	practice_slash	9	advance_on_keypress_SLASH	16	stimuli_target_diamondsquares.svg	stimuli_distractor_trianglediamonds.svg	6	yes	57	0	522	0	0			0	0			1				0	
6.6.1	win	2023-06-02	05:45:52	05:56:20	624615	55b42b7cfdf99b5244217cf4	4	1	practice_slash	9	practice_slash	17	stimuli_distractor_diamondtriangles.svg	stimuli_target_diamondrectangles.svg	8	yes	53	1	519	0	0			0	0			1				0	
6.6.1	win	2023-06-02	05:45:52	05:56:20	624615	55b42b7cfdf99b5244217cf4	4	1	practice_slash	9	advance_on_keypress_SLASH	18	stimuli_distractor_diamondtriangles.svg	stimuli_target_diamondrectangles.svg	8	yes	57	0	430	0	0			0	0			1				0	
6.6.1	win	2023-06-02	05:45:52	05:56:24	628721	55b42b7cfdf99b5244217cf4	4	1	practice_slash	9	practice_slash	19	stimuli_distractor_trianglediamonds.svg	stimuli_distractor_diamondtriangles.svg	16	no	0	1	2000	0	0			0	0			1				0	
6.6.1	win	2023-06-02	05:45:52	05:56:24	628721	55b42b7cfdf99b5244217cf4	4	1	practice_slash	9	advance_on_keypress_SLASH	20	stimuli_distractor_trianglediamonds.svg	stimuli_distractor_diamondtriangles.svg	16	no	57	0	410	0	0			0	0			1				0	
6.6.1	win	2023-06-02	05:45:52	05:56:26	631409	55b42b7cfdf99b5244217cf4	4	1	practice_slash	9	practice_slash	21	stimuli_distractor_diamondtriangles.svg	stimuli_target_rectangletriangles.svg	7	yes	53	1	594	0	0			0	0			1				0	
6.6.1	win	2023-06-02	05:45:52	05:56:26	631409	55b42b7cfdf99b5244217cf4	4	1	practice_slash	9	advance_on_keypress_SLASH	22	stimuli_distractor_diamondtriangles.svg	stimuli_target_rectangletriangles.svg	7	yes	57	0	439	0	0			0	0			1				0	
6.6.1	win	2023-06-02	05:45:52	05:56:29	634277	55b42b7cfdf99b5244217cf4	4	1	practice_slash	9	practice_slash	23	stimuli_distractor_trianglediamonds.svg	stimuli_target_squarediamonds.svg	11	yes	53	1	756	0	0			0	0			1				0	
6.6.1	win	2023-06-02	05:45:52	05:56:29	634277	55b42b7cfdf99b5244217cf4	4	1	practice_slash	9	advance_on_keypress_SLASH	24	stimuli_distractor_trianglediamonds.svg	stimuli_target_squarediamonds.svg	11	yes	57	0	512	0	0			0	0			1				0	
6.6.1	win	2023-06-02	05:45:52	05:56:32	636970	55b42b7cfdf99b5244217cf4	4	1	practice_slash	9	practice_slash	25	stimuli_target_rectanglediamonds.svg	stimuli_distractor_trianglediamonds.svg	4	yes	53	1	522	0	0			0	0			1				0	
6.6.1	win	2023-06-02	05:45:52	05:56:32	636970	55b42b7cfdf99b5244217cf4	4	1	practice_slash	9	advance_on_keypress_SLASH	26	stimuli_target_rectanglediamonds.svg	stimuli_distractor_trianglediamonds.svg	4	yes	57	0	395	0	0			0	0			1				0	
6.6.1	win	2023-06-02	05:45:52	05:56:35	639963	55b42b7cfdf99b5244217cf4	4	1	practice_slash	9	practice_slash	27	stimuli_distractor_trianglediamonds.svg	stimuli_target_rectanglediamonds.svg	10	yes	53	1	936	0	0			0	0			1				0	
6.6.1	win	2023-06-02	05:45:52	05:56:35	639963	55b42b7cfdf99b5244217cf4	4	1	practice_slash	9	advance_on_keypress_SLASH	28	stimuli_distractor_trianglediamonds.svg	stimuli_target_rectanglediamonds.svg	10	yes	57	0	781	0	0			0	0			1				0	
6.6.1	win	2023-06-02	05:45:52	05:56:38	642971	55b42b7cfdf99b5244217cf4	4	1	practice_slash	9	practice_slash	29	stimuli_distractor_diamondtriangles.svg	stimuli_distractor_trianglediamonds.svg	14	no	53	0	559	0	0			0	0			1				0	
6.6.1	win	2023-06-02	05:45:52	05:56:38	642971	55b42b7cfdf99b5244217cf4	4	1	practice_slash	9	advance_on_keypress_SLASH	30	stimuli_distractor_diamondtriangles.svg	stimuli_distractor_trianglediamonds.svg	14	no	57	0	492	0	0			0	0			1				0	
6.6.1	win	2023-06-02	05:45:52	05:56:41	646021	55b42b7cfdf99b5244217cf4	4	1	practice_slash	9	practice_slash	31	stimuli_distractor_diamondtriangles.svg	stimuli_target_trianglerectangles.svg	9	yes	53	1	876	0	0			0	0			1				0	
6.6.1	win	2023-06-02	05:45:52	05:56:41	646021	55b42b7cfdf99b5244217cf4	4	1	practice_slash	9	advance_on_keypress_SLASH	32	stimuli_distractor_diamondtriangles.svg	stimuli_target_trianglerectangles.svg	9	yes	57	0	414	0	0			0	0			1				0	
6.6.1	win	2023-06-02	05:45:52	05:56:59	664435	55b42b7cfdf99b5244217cf4	4	1	main_slash	11	main_slash	1	stimuli_distractor_diamondtriangles.svg	stimuli_target_squarediamonds.svg	16	yes	53	1	427	0	0			0	0			1				0	
6.6.1	win	2023-06-02	05:45:52	05:56:59	664435	55b42b7cfdf99b5244217cf4	4	1	main_slash	11	advance_on_keypress_SLASH	2	stimuli_distractor_diamondtriangles.svg	stimuli_target_squarediamonds.svg	16	yes	57	0	689	0	0			0	0			1				0	
6.6.1	win	2023-06-02	05:45:52	05:57:01	666174	55b42b7cfdf99b5244217cf4	4	1	main_slash	11	main_slash	3	stimuli_distractor_trianglediamonds.svg	stimuli_target_squarediamonds.svg	12	yes	53	1	391	0	0			0	0			1				0	
6.6.1	win	2023-06-02	05:45:52	05:57:01	666174	55b42b7cfdf99b5244217cf4	4	1	main_slash	11	advance_on_keypress_SLASH	4	stimuli_distractor_trianglediamonds.svg	stimuli_target_squarediamonds.svg	12	yes	57	0	413	0	0			0	0			1				0	
6.6.1	win	2023-06-02	05:45:52	05:57:03	667674	55b42b7cfdf99b5244217cf4	4	1	main_slash	11	main_slash	5	stimuli_distractor_trianglediamonds.svg	stimuli_target_trianglerectangles.svg	25	yes	53	1	431	0	0			0	0			1				0	
6.6.1	win	2023-06-02	05:45:52	05:57:03	667674	55b42b7cfdf99b5244217cf4	4	1	main_slash	11	advance_on_keypress_SLASH	6	stimuli_distractor_trianglediamonds.svg	stimuli_target_trianglerectangles.svg	25	yes	57	0	469	0	0			0	0			1				0	
6.6.1	win	2023-06-02	05:45:52	05:57:04	669186	55b42b7cfdf99b5244217cf4	4	1	main_slash	11	main_slash	7	stimuli_distractor_trianglediamonds.svg	stimuli_target_diamondrectangles.svg	27	yes	53	1	386	0	0			0	0			1				0	
6.6.1	win	2023-06-02	05:45:52	05:57:04	669186	55b42b7cfdf99b5244217cf4	4	1	main_slash	11	advance_on_keypress_SLASH	8	stimuli_distractor_trianglediamonds.svg	stimuli_target_diamondrectangles.svg	27	yes	57	0	492	0	0			0	0			1				0	
6.6.1	win	2023-06-02	05:45:52	05:57:06	670933	55b42b7cfdf99b5244217cf4	4	1	main_slash	11	main_slash	9	stimuli_target_trianglerectangles.svg	stimuli_distractor_diamondtriangles.svg	21	yes	53	1	580	0	0			0	0			1				0	
6.6.1	win	2023-06-02	05:45:52	05:57:06	670933	55b42b7cfdf99b5244217cf4	4	1	main_slash	11	advance_on_keypress_SLASH	10	stimuli_target_trianglerectangles.svg	stimuli_distractor_diamondtriangles.svg	21	yes	57	0	464	0	0			0	0			1				0	
6.6.1	win	2023-06-02	05:45:52	05:57:08	672661	55b42b7cfdf99b5244217cf4	4	1	main_slash	11	main_slash	11	stimuli_distractor_trianglediamonds.svg	stimuli_distractor_diamondtriangles.svg	36	no	53	0	619	0	0			0	0			1				0	
6.6.1	win	2023-06-02	05:45:52	05:57:08	672661	55b42b7cfdf99b5244217cf4	4	1	main_slash	11	advance_on_keypress_SLASH	12	stimuli_distractor_trianglediamonds.svg	stimuli_distractor_diamondtriangles.svg	36	no	57	0	533	0	0			0	0			1				0	
6.6.1	win	2023-06-02	05:45:52	05:57:09	674285	55b42b7cfdf99b5244217cf4	4	1	main_slash	11	main_slash	13	stimuli_distractor_diamondtriangles.svg	stimuli_target_trianglesquares.svg	30	yes	53	1	440	0	0			0	0			1				0	
6.6.1	win	2023-06-02	05:45:52	05:57:09	674285	55b42b7cfdf99b5244217cf4	4	1	main_slash	11	advance_on_keypress_SLASH	14	stimuli_distractor_diamondtriangles.svg	stimuli_target_trianglesquares.svg	30	yes	57	0	454	0	0			0	0			1				0	
6.6.1	win	2023-06-02	05:45:52	05:57:11	675799	55b42b7cfdf99b5244217cf4	4	1	main_slash	11	main_slash	15	stimuli_distractor_diamondtriangles.svg	stimuli_target_diamondsquares.svg	32	yes	53	1	387	0	0			0	0			1				0	
6.6.1	win	2023-06-02	05:45:52	05:57:11	675799	55b42b7cfdf99b5244217cf4	4	1	main_slash	11	advance_on_keypress_SLASH	16	stimuli_distractor_diamondtriangles.svg	stimuli_target_diamondsquares.svg	32	yes	57	0	467	0	0			0	0			1				0	
6.6.1	win	2023-06-02	05:45:52	05:57:12	677321	55b42b7cfdf99b5244217cf4	4	1	main_slash	11	main_slash	17	stimuli_distractor_diamondtriangles.svg	stimuli_target_squaretriangles.svg	15	yes	53	1	400	0	0			0	0			1				0	
6.6.1	win	2023-06-02	05:45:52	05:57:12	677321	55b42b7cfdf99b5244217cf4	4	1	main_slash	11	advance_on_keypress_SLASH	18	stimuli_distractor_diamondtriangles.svg	stimuli_target_squaretriangles.svg	15	yes	57	0	816	0	0			0	0			1				0	
6.6.1	win	2023-06-02	05:45:52	05:57:14	679245	55b42b7cfdf99b5244217cf4	4	1	main_slash	11	main_slash	19	stimuli_target_rectanglediamonds.svg	stimuli_distractor_diamondtriangles.svg	6	yes	53	1	449	0	0			0	0			1				0	
6.6.1	win	2023-06-02	05:45:52	05:57:14	679245	55b42b7cfdf99b5244217cf4	4	1	main_slash	11	advance_on_keypress_SLASH	20	stimuli_target_rectanglediamonds.svg	stimuli_distractor_diamondtriangles.svg	6	yes	57	0	475	0	0			0	0			1				0	
6.6.1	win	2023-06-02	05:45:52	05:57:16	680880	55b42b7cfdf99b5244217cf4	4	1	main_slash	11	main_slash	21	stimuli_distractor_trianglediamonds.svg	stimuli_target_rectangletriangles.svg	9	yes	53	1	518	0	0			0	0			1				0	
6.6.1	win	2023-06-02	05:45:52	05:57:16	680880	55b42b7cfdf99b5244217cf4	4	1	main_slash	11	advance_on_keypress_SLASH	22	stimuli_distractor_trianglediamonds.svg	stimuli_target_rectangletriangles.svg	9	yes	57	0	468	0	0			0	0			1				0	
6.6.1	win	2023-06-02	05:45:52	05:57:18	682535	55b42b7cfdf99b5244217cf4	4	1	main_slash	11	main_slash	23	stimuli_target_rectangletriangles.svg	stimuli_distractor_diamondtriangles.svg	5	yes	53	1	524	0	0			0	0			1				0	
6.6.1	win	2023-06-02	05:45:52	05:57:18	682535	55b42b7cfdf99b5244217cf4	4	1	main_slash	11	advance_on_keypress_SLASH	24	stimuli_target_rectangletriangles.svg	stimuli_distractor_diamondtriangles.svg	5	yes	57	0	580	0	0			0	0			1				0	
6.6.1	win	2023-06-02	05:45:52	05:57:21	685803	55b42b7cfdf99b5244217cf4	4	1	main_slash	11	main_slash	25	stimuli_distractor_diamondtriangles.svg	stimuli_distractor_diamondtriangles.svg	39	no	0	1	2000	0	0			0	0			1				0	
6.6.1	win	2023-06-02	05:45:52	05:57:21	685803	55b42b7cfdf99b5244217cf4	4	1	main_slash	11	advance_on_keypress_SLASH	26	stimuli_distractor_diamondtriangles.svg	stimuli_distractor_diamondtriangles.svg	39	no	57	0	334	0	0			0	0			1				0	
6.6.1	win	2023-06-02	05:45:52	05:57:22	687286	55b42b7cfdf99b5244217cf4	4	1	main_slash	11	main_slash	27	stimuli_distractor_diamondtriangles.svg	stimuli_target_rectangletriangles.svg	13	yes	53	1	479	0	0			0	0			1				0	
6.6.1	win	2023-06-02	05:45:52	05:57:22	687286	55b42b7cfdf99b5244217cf4	4	1	main_slash	11	advance_on_keypress_SLASH	28	stimuli_distractor_diamondtriangles.svg	stimuli_target_rectangletriangles.svg	13	yes	57	0	455	0	0			0	0			1				0	
6.6.1	win	2023-06-02	05:45:52	05:57:24	688922	55b42b7cfdf99b5244217cf4	4	1	main_slash	11	main_slash	29	stimuli_target_squaretriangles.svg	stimuli_distractor_trianglediamonds.svg	3	yes	53	1	504	0	0			0	0			1				0	
6.6.1	win	2023-06-02	05:45:52	05:57:24	688922	55b42b7cfdf99b5244217cf4	4	1	main_slash	11	advance_on_keypress_SLASH	30	stimuli_target_squaretriangles.svg	stimuli_distractor_trianglediamonds.svg	3	yes	57	0	412	0	0			0	0			1				0	
6.6.1	win	2023-06-02	05:45:52	05:57:26	690566	55b42b7cfdf99b5244217cf4	4	1	main_slash	11	main_slash	31	stimuli_target_diamondrectangles.svg	stimuli_distractor_trianglediamonds.svg	19	yes	53	1	576	0	0			0	0			1				0	
6.6.1	win	2023-06-02	05:45:52	05:57:26	690566	55b42b7cfdf99b5244217cf4	4	1	main_slash	11	advance_on_keypress_SLASH	32	stimuli_target_diamondrectangles.svg	stimuli_distractor_trianglediamonds.svg	19	yes	57	0	609	0	0			0	0			1				0	
6.6.1	win	2023-06-02	05:45:52	05:57:27	692327	55b42b7cfdf99b5244217cf4	4	1	main_slash	11	main_slash	33	stimuli_distractor_diamondtriangles.svg	stimuli_target_diamondrectangles.svg	31	yes	53	1	485	0	0			0	0			1				0	
6.6.1	win	2023-06-02	05:45:52	05:57:27	692327	55b42b7cfdf99b5244217cf4	4	1	main_slash	11	advance_on_keypress_SLASH	34	stimuli_distractor_diamondtriangles.svg	stimuli_target_diamondrectangles.svg	31	yes	57	0	681	0	0			0	0			1				0	
6.6.1	win	2023-06-02	05:45:52	05:57:29	694116	55b42b7cfdf99b5244217cf4	4	1	main_slash	11	main_slash	35	stimuli_target_rectanglediamonds.svg	stimuli_distractor_trianglediamonds.svg	2	yes	53	1	454	0	0			0	0			1				0	
6.6.1	win	2023-06-02	05:45:52	05:57:29	694116	55b42b7cfdf99b5244217cf4	4	1	main_slash	11	advance_on_keypress_SLASH	36	stimuli_target_rectanglediamonds.svg	stimuli_distractor_trianglediamonds.svg	2	yes	57	0	573	0	0			0	0			1				0	
6.6.1	win	2023-06-02	05:45:52	05:57:31	695778	55b42b7cfdf99b5244217cf4	4	1	main_slash	11	main_slash	37	stimuli_target_diamondsquares.svg	stimuli_distractor_diamondtriangles.svg	24	yes	53	1	421	0	0			0	0			1				0	
6.6.1	win	2023-06-02	05:45:52	05:57:31	695778	55b42b7cfdf99b5244217cf4	4	1	main_slash	11	advance_on_keypress_SLASH	38	stimuli_target_diamondsquares.svg	stimuli_distractor_diamondtriangles.svg	24	yes	57	0	1051	0	0			0	0			1				0	
6.6.1	win	2023-06-02	05:45:52	05:57:33	697979	55b42b7cfdf99b5244217cf4	4	1	main_slash	11	main_slash	39	stimuli_distractor_trianglediamonds.svg	stimuli_target_trianglesquares.svg	26	yes	53	1	488	0	0			0	0			1				0	
6.6.1	win	2023-06-02	05:45:52	05:57:33	697979	55b42b7cfdf99b5244217cf4	4	1	main_slash	11	advance_on_keypress_SLASH	40	stimuli_distractor_trianglediamonds.svg	stimuli_target_trianglesquares.svg	26	yes	57	0	1178	0	0			0	0			1				0	
6.6.1	win	2023-06-02	05:45:52	05:57:35	700253	55b42b7cfdf99b5244217cf4	4	1	main_slash	11	main_slash	41	stimuli_distractor_trianglediamonds.svg	stimuli_target_rectanglediamonds.svg	10	yes	53	1	440	0	0			0	0			1				0	
6.6.1	win	2023-06-02	05:45:52	05:57:35	700253	55b42b7cfdf99b5244217cf4	4	1	main_slash	11	advance_on_keypress_SLASH	42	stimuli_distractor_trianglediamonds.svg	stimuli_target_rectanglediamonds.svg	10	yes	57	0	445	0	0			0	0			1				0	
6.6.1	win	2023-06-02	05:45:52	05:57:37	701951	55b42b7cfdf99b5244217cf4	4	1	main_slash	11	main_slash	43	stimuli_target_diamondrectangles.svg	stimuli_distractor_diamondtriangles.svg	23	yes	53	1	590	0	0			0	0			1				0	
6.6.1	win	2023-06-02	05:45:52	05:57:37	701951	55b42b7cfdf99b5244217cf4	4	1	main_slash	11	advance_on_keypress_SLASH	44	stimuli_target_diamondrectangles.svg	stimuli_distractor_diamondtriangles.svg	23	yes	57	0	526	0	0			0	0			1				0	
6.6.1	win	2023-06-02	05:45:52	05:57:39	703561	55b42b7cfdf99b5244217cf4	4	1	main_slash	11	main_slash	45	stimuli_distractor_trianglediamonds.svg	stimuli_target_squaretriangles.svg	11	yes	53	1	419	0	0			0	0			1				0	
6.6.1	win	2023-06-02	05:45:52	05:57:39	703561	55b42b7cfdf99b5244217cf4	4	1	main_slash	11	advance_on_keypress_SLASH	46	stimuli_distractor_trianglediamonds.svg	stimuli_target_squaretriangles.svg	11	yes	57	0	554	0	0			0	0			1				0	
6.6.1	win	2023-06-02	05:45:52	05:57:40	705295	55b42b7cfdf99b5244217cf4	4	1	main_slash	11	main_slash	47	stimuli_target_rectangletriangles.svg	stimuli_distractor_trianglediamonds.svg	1	yes	53	1	513	0	0			0	0			1				0	
6.6.1	win	2023-06-02	05:45:52	05:57:40	705295	55b42b7cfdf99b5244217cf4	4	1	main_slash	11	advance_on_keypress_SLASH	48	stimuli_target_rectangletriangles.svg	stimuli_distractor_trianglediamonds.svg	1	yes	57	0	639	0	0			0	0			1				0	
6.6.1	win	2023-06-02	05:45:52	05:57:42	707254	55b42b7cfdf99b5244217cf4	4	1	main_slash	11	main_slash	49	stimuli_distractor_trianglediamonds.svg	stimuli_distractor_trianglediamonds.svg	33	no	53	0	664	0	0			0	0			1				0	
6.6.1	win	2023-06-02	05:45:52	05:57:42	707254	55b42b7cfdf99b5244217cf4	4	1	main_slash	11	advance_on_keypress_SLASH	50	stimuli_distractor_trianglediamonds.svg	stimuli_distractor_trianglediamonds.svg	33	no	57	0	1490	0	0			0	0			1				0	
6.6.1	win	2023-06-02	05:45:52	05:57:45	710098	55b42b7cfdf99b5244217cf4	4	1	main_slash	11	main_slash	51	stimuli_target_trianglesquares.svg	stimuli_distractor_diamondtriangles.svg	22	yes	53	1	691	0	0			0	0			1				0	
6.6.1	win	2023-06-02	05:45:52	05:57:45	710098	55b42b7cfdf99b5244217cf4	4	1	main_slash	11	advance_on_keypress_SLASH	52	stimuli_target_trianglesquares.svg	stimuli_distractor_diamondtriangles.svg	22	yes	57	0	565	0	0			0	0			1				0	
6.6.1	win	2023-06-02	05:45:52	05:57:48	713321	55b42b7cfdf99b5244217cf4	4	1	main_slash	11	main_slash	53	stimuli_distractor_trianglediamonds.svg	stimuli_distractor_diamondtriangles.svg	35	no	0	1	2000	0	0			0	0			1				0	
6.6.1	win	2023-06-02	05:45:52	05:57:48	713321	55b42b7cfdf99b5244217cf4	4	1	main_slash	11	advance_on_keypress_SLASH	54	stimuli_distractor_trianglediamonds.svg	stimuli_distractor_diamondtriangles.svg	35	no	57	0	579	0	0			0	0			1				0	
6.6.1	win	2023-06-02	05:45:52	05:57:50	715073	55b42b7cfdf99b5244217cf4	4	1	main_slash	11	main_slash	55	stimuli_target_trianglerectangles.svg	stimuli_distractor_trianglediamonds.svg	17	yes	53	1	519	0	0			0	0			1				0	
6.6.1	win	2023-06-02	05:45:52	05:57:50	715073	55b42b7cfdf99b5244217cf4	4	1	main_slash	11	advance_on_keypress_SLASH	56	stimuli_target_trianglerectangles.svg	stimuli_distractor_trianglediamonds.svg	17	yes	57	0	435	0	0			0	0			1				0	
6.6.1	win	2023-06-02	05:45:52	05:57:52	716592	55b42b7cfdf99b5244217cf4	4	1	main_slash	11	main_slash	57	stimuli_target_squarediamonds.svg	stimuli_distractor_trianglediamonds.svg	4	yes	53	1	438	0	0			0	0			1				0	
6.6.1	win	2023-06-02	05:45:52	05:57:52	716592	55b42b7cfdf99b5244217cf4	4	1	main_slash	11	advance_on_keypress_SLASH	58	stimuli_target_squarediamonds.svg	stimuli_distractor_trianglediamonds.svg	4	yes	57	0	538	0	0			0	0			1				0	
6.6.1	win	2023-06-02	05:45:52	05:57:54	718612	55b42b7cfdf99b5244217cf4	4	1	main_slash	11	main_slash	59	stimuli_distractor_diamondtriangles.svg	stimuli_target_trianglerectangles.svg	29	yes	53	1	837	0	0			0	0			1				0	
6.6.1	win	2023-06-02	05:45:52	05:57:54	718612	55b42b7cfdf99b5244217cf4	4	1	main_slash	11	advance_on_keypress_SLASH	60	stimuli_distractor_diamondtriangles.svg	stimuli_target_trianglerectangles.svg	29	yes	57	0	437	0	0			0	0			1				0	
6.6.1	win	2023-06-02	05:45:52	05:57:55	720272	55b42b7cfdf99b5244217cf4	4	1	main_slash	11	main_slash	61	stimuli_target_diamondsquares.svg	stimuli_distractor_trianglediamonds.svg	20	yes	53	1	557	0	0			0	0			1				0	
6.6.1	win	2023-06-02	05:45:52	05:57:55	720272	55b42b7cfdf99b5244217cf4	4	1	main_slash	11	advance_on_keypress_SLASH	62	stimuli_target_diamondsquares.svg	stimuli_distractor_trianglediamonds.svg	20	yes	57	0	429	0	0			0	0			1				0	
6.6.1	win	2023-06-02	05:45:52	05:57:58	723357	55b42b7cfdf99b5244217cf4	4	1	main_slash	11	main_slash	63	stimuli_distractor_trianglediamonds.svg	stimuli_distractor_trianglediamonds.svg	34	no	0	1	2000	0	0			0	0			1				0	
6.6.1	win	2023-06-02	05:45:52	05:57:58	723357	55b42b7cfdf99b5244217cf4	4	1	main_slash	11	advance_on_keypress_SLASH	64	stimuli_distractor_trianglediamonds.svg	stimuli_distractor_trianglediamonds.svg	34	no	57	0	367	0	0			0	0			1				0	
6.6.1	win	2023-06-02	05:45:52	05:58:00	724931	55b42b7cfdf99b5244217cf4	4	1	main_slash	11	main_slash	65	stimuli_target_squarediamonds.svg	stimuli_distractor_diamondtriangles.svg	8	yes	53	1	545	0	0			0	0			1				0	
6.6.1	win	2023-06-02	05:45:52	05:58:00	724931	55b42b7cfdf99b5244217cf4	4	1	main_slash	11	advance_on_keypress_SLASH	66	stimuli_target_squarediamonds.svg	stimuli_distractor_diamondtriangles.svg	8	yes	57	0	430	0	0			0	0			1				0	
6.6.1	win	2023-06-02	05:45:52	05:58:03	728006	55b42b7cfdf99b5244217cf4	4	1	main_slash	11	main_slash	67	stimuli_distractor_diamondtriangles.svg	stimuli_distractor_trianglediamonds.svg	38	no	0	1	2000	0	0			0	0			1				0	
6.6.1	win	2023-06-02	05:45:52	05:58:03	728006	55b42b7cfdf99b5244217cf4	4	1	main_slash	11	advance_on_keypress_SLASH	68	stimuli_distractor_diamondtriangles.svg	stimuli_distractor_trianglediamonds.svg	38	no	57	0	384	0	0			0	0			1				0	
6.6.1	win	2023-06-02	05:45:52	05:58:05	729563	55b42b7cfdf99b5244217cf4	4	1	main_slash	11	main_slash	69	stimuli_target_trianglesquares.svg	stimuli_distractor_trianglediamonds.svg	18	yes	53	1	525	0	0			0	0			1				0	
6.6.1	win	2023-06-02	05:45:52	05:58:05	729563	55b42b7cfdf99b5244217cf4	4	1	main_slash	11	advance_on_keypress_SLASH	70	stimuli_target_trianglesquares.svg	stimuli_distractor_trianglediamonds.svg	18	yes	57	0	510	0	0			0	0			1				0	
6.6.1	win	2023-06-02	05:45:52	05:58:06	731377	55b42b7cfdf99b5244217cf4	4	1	main_slash	11	main_slash	71	stimuli_distractor_trianglediamonds.svg	stimuli_target_diamondsquares.svg	28	yes	53	1	655	0	0			0	0			1				0	
6.6.1	win	2023-06-02	05:45:52	05:58:06	731377	55b42b7cfdf99b5244217cf4	4	1	main_slash	11	advance_on_keypress_SLASH	72	stimuli_distractor_trianglediamonds.svg	stimuli_target_diamondsquares.svg	28	yes	57	0	405	0	0			0	0			1				0	
6.6.1	win	2023-06-02	05:45:52	05:58:09	734438	55b42b7cfdf99b5244217cf4	4	1	main_slash	11	main_slash	73	stimuli_distractor_diamondtriangles.svg	stimuli_target_rectanglediamonds.svg	14	yes	0	0	2000	0	0			0	0			1				0	
6.6.1	win	2023-06-02	05:45:52	05:58:09	734438	55b42b7cfdf99b5244217cf4	4	1	main_slash	11	advance_on_keypress_SLASH	74	stimuli_distractor_diamondtriangles.svg	stimuli_target_rectanglediamonds.svg	14	yes	57	0	386	0	0			0	0			1				0	
6.6.1	win	2023-06-02	05:45:52	05:58:11	736194	55b42b7cfdf99b5244217cf4	4	1	main_slash	11	main_slash	75	stimuli_target_squaretriangles.svg	stimuli_distractor_diamondtriangles.svg	7	yes	53	1	706	0	0			0	0			1				0	
6.6.1	win	2023-06-02	05:45:52	05:58:11	736194	55b42b7cfdf99b5244217cf4	4	1	main_slash	11	advance_on_keypress_SLASH	76	stimuli_target_squaretriangles.svg	stimuli_distractor_diamondtriangles.svg	7	yes	57	0	644	0	0			0	0			1				0	
6.6.1	win	2023-06-02	05:45:52	05:58:15	739496	55b42b7cfdf99b5244217cf4	4	1	main_slash	11	main_slash	77	stimuli_distractor_diamondtriangles.svg	stimuli_distractor_diamondtriangles.svg	40	no	0	1	2000	0	0			0	0			1				0	
6.6.1	win	2023-06-02	05:45:52	05:58:15	739496	55b42b7cfdf99b5244217cf4	4	1	main_slash	11	advance_on_keypress_SLASH	78	stimuli_distractor_diamondtriangles.svg	stimuli_distractor_diamondtriangles.svg	40	no	57	0	369	0	0			0	0			1				0	
6.6.1	win	2023-06-02	05:45:52	05:58:18	742513	55b42b7cfdf99b5244217cf4	4	1	main_slash	11	main_slash	79	stimuli_distractor_diamondtriangles.svg	stimuli_distractor_trianglediamonds.svg	37	no	0	1	2000	0	0			0	0			1				0	
6.6.1	win	2023-06-02	05:45:52	05:58:18	742513	55b42b7cfdf99b5244217cf4	4	1	main_slash	11	advance_on_keypress_SLASH	80	stimuli_distractor_diamondtriangles.svg	stimuli_distractor_trianglediamonds.svg	37	no	57	0	348	0	0			0	0			1				0	
6.6.1	win	2023-06-02	05:45:52	05:58:19	744059	55b42b7cfdf99b5244217cf4	4	1	main_slash	11	main_slash	81	stimuli_target_trianglerectangles.svg	stimuli_distractor_trianglediamonds.svg	17	yes	53	1	542	0	0			0	0			1				0	
6.6.1	win	2023-06-02	05:45:52	05:58:19	744059	55b42b7cfdf99b5244217cf4	4	1	main_slash	11	advance_on_keypress_SLASH	82	stimuli_target_trianglerectangles.svg	stimuli_distractor_trianglediamonds.svg	17	yes	57	0	508	0	0			0	0			1				0	
6.6.1	win	2023-06-02	05:45:52	05:58:21	745782	55b42b7cfdf99b5244217cf4	4	1	main_slash	11	main_slash	83	stimuli_target_trianglerectangles.svg	stimuli_distractor_diamondtriangles.svg	21	yes	53	1	558	0	0			0	0			1				0	
6.6.1	win	2023-06-02	05:45:52	05:58:21	745782	55b42b7cfdf99b5244217cf4	4	1	main_slash	11	advance_on_keypress_SLASH	84	stimuli_target_trianglerectangles.svg	stimuli_distractor_diamondtriangles.svg	21	yes	57	0	441	0	0			0	0			1				0	
6.6.1	win	2023-06-02	05:45:52	05:58:24	748893	55b42b7cfdf99b5244217cf4	4	1	main_slash	11	main_slash	85	stimuli_distractor_diamondtriangles.svg	stimuli_distractor_trianglediamonds.svg	37	no	0	1	2000	0	0			0	0			1				0	
6.6.1	win	2023-06-02	05:45:52	05:58:24	748893	55b42b7cfdf99b5244217cf4	4	1	main_slash	11	advance_on_keypress_SLASH	86	stimuli_distractor_diamondtriangles.svg	stimuli_distractor_trianglediamonds.svg	37	no	57	0	436	0	0			0	0			1				0	
6.6.1	win	2023-06-02	05:45:52	05:58:26	750746	55b42b7cfdf99b5244217cf4	4	1	main_slash	11	main_slash	87	stimuli_distractor_diamondtriangles.svg	stimuli_target_trianglerectangles.svg	29	yes	53	1	751	0	0			0	0			1				0	
6.6.1	win	2023-06-02	05:45:52	05:58:26	750746	55b42b7cfdf99b5244217cf4	4	1	main_slash	11	advance_on_keypress_SLASH	88	stimuli_distractor_diamondtriangles.svg	stimuli_target_trianglerectangles.svg	29	yes	57	0	520	0	0			0	0			1				0	
6.6.1	win	2023-06-02	05:45:52	05:58:29	753919	55b42b7cfdf99b5244217cf4	4	1	main_slash	11	main_slash	89	stimuli_distractor_trianglediamonds.svg	stimuli_distractor_diamondtriangles.svg	35	no	0	1	2000	0	0			0	0			1				0	
6.6.1	win	2023-06-02	05:45:52	05:58:29	753919	55b42b7cfdf99b5244217cf4	4	1	main_slash	11	advance_on_keypress_SLASH	90	stimuli_distractor_trianglediamonds.svg	stimuli_distractor_diamondtriangles.svg	35	no	57	0	348	0	0			0	0			1				0	
6.6.1	win	2023-06-02	05:45:52	05:58:31	755507	55b42b7cfdf99b5244217cf4	4	1	main_slash	11	main_slash	91	stimuli_target_squarediamonds.svg	stimuli_distractor_trianglediamonds.svg	4	yes	53	1	576	0	0			0	0			1				0	
6.6.1	win	2023-06-02	05:45:52	05:58:31	755507	55b42b7cfdf99b5244217cf4	4	1	main_slash	11	advance_on_keypress_SLASH	92	stimuli_target_squarediamonds.svg	stimuli_distractor_trianglediamonds.svg	4	yes	57	0	602	0	0			0	0			1				0	
6.6.1	win	2023-06-02	05:45:52	05:58:33	757671	55b42b7cfdf99b5244217cf4	4	1	main_slash	11	main_slash	93	stimuli_distractor_diamondtriangles.svg	stimuli_target_trianglesquares.svg	30	yes	53	1	917	0	0			0	0			1				0	
6.6.1	win	2023-06-02	05:45:52	05:58:33	757671	55b42b7cfdf99b5244217cf4	4	1	main_slash	11	advance_on_keypress_SLASH	94	stimuli_distractor_diamondtriangles.svg	stimuli_target_trianglesquares.svg	30	yes	57	0	561	0	0			0	0			1				0	
6.6.1	win	2023-06-02	05:45:52	05:58:35	759685	55b42b7cfdf99b5244217cf4	4	1	main_slash	11	main_slash	95	stimuli_distractor_trianglediamonds.svg	stimuli_target_trianglerectangles.svg	25	yes	53	1	789	0	0			0	0			1				0	
6.6.1	win	2023-06-02	05:45:52	05:58:35	759685	55b42b7cfdf99b5244217cf4	4	1	main_slash	11	advance_on_keypress_SLASH	96	stimuli_distractor_trianglediamonds.svg	stimuli_target_trianglerectangles.svg	25	yes	57	0	450	0	0			0	0			1				0	
6.6.1	win	2023-06-02	05:45:52	05:58:37	761555	55b42b7cfdf99b5244217cf4	4	1	main_slash	11	main_slash	97	stimuli_target_diamondsquares.svg	stimuli_distractor_trianglediamonds.svg	20	yes	53	1	763	0	0			0	0			1				0	
6.6.1	win	2023-06-02	05:45:52	05:58:37	761555	55b42b7cfdf99b5244217cf4	4	1	main_slash	11	advance_on_keypress_SLASH	98	stimuli_target_diamondsquares.svg	stimuli_distractor_trianglediamonds.svg	20	yes	57	0	477	0	0			0	0			1				0	
6.6.1	win	2023-06-02	05:45:52	05:58:40	764686	55b42b7cfdf99b5244217cf4	4	1	main_slash	11	main_slash	99	stimuli_distractor_trianglediamonds.svg	stimuli_target_squarediamonds.svg	12	yes	0	0	2000	0	0			0	0			1				0	
6.6.1	win	2023-06-02	05:45:52	05:58:40	764686	55b42b7cfdf99b5244217cf4	4	1	main_slash	11	advance_on_keypress_SLASH	100	stimuli_distractor_trianglediamonds.svg	stimuli_target_squarediamonds.svg	12	yes	57	0	389	0	0			0	0			1				0	
6.6.1	win	2023-06-02	05:45:52	05:58:42	766690	55b42b7cfdf99b5244217cf4	4	1	main_slash	11	main_slash	101	stimuli_distractor_diamondtriangles.svg	stimuli_target_rectangletriangles.svg	13	yes	53	1	960	0	0			0	0			1				0	
6.6.1	win	2023-06-02	05:45:52	05:58:42	766690	55b42b7cfdf99b5244217cf4	4	1	main_slash	11	advance_on_keypress_SLASH	102	stimuli_distractor_diamondtriangles.svg	stimuli_target_rectangletriangles.svg	13	yes	57	0	515	0	0			0	0			1				0	
6.6.1	win	2023-06-02	05:45:52	05:58:43	768471	55b42b7cfdf99b5244217cf4	4	1	main_slash	11	main_slash	103	stimuli_distractor_trianglediamonds.svg	stimuli_target_squaretriangles.svg	11	yes	53	1	604	0	0			0	0			1				0	
6.6.1	win	2023-06-02	05:45:52	05:58:43	768471	55b42b7cfdf99b5244217cf4	4	1	main_slash	11	advance_on_keypress_SLASH	104	stimuli_distractor_trianglediamonds.svg	stimuli_target_squaretriangles.svg	11	yes	57	0	449	0	0			0	0			1				0	
6.6.1	win	2023-06-02	05:45:52	05:58:45	770121	55b42b7cfdf99b5244217cf4	4	1	main_slash	11	main_slash	105	stimuli_target_rectangletriangles.svg	stimuli_distractor_trianglediamonds.svg	1	yes	53	1	547	0	0			0	0			1				0	
6.6.1	win	2023-06-02	05:45:52	05:58:45	770121	55b42b7cfdf99b5244217cf4	4	1	main_slash	11	advance_on_keypress_SLASH	106	stimuli_target_rectangletriangles.svg	stimuli_distractor_trianglediamonds.svg	1	yes	57	0	417	0	0			0	0			1				0	
6.6.1	win	2023-06-02	05:45:52	05:58:47	771647	55b42b7cfdf99b5244217cf4	4	1	main_slash	11	main_slash	107	stimuli_distractor_trianglediamonds.svg	stimuli_target_rectanglediamonds.svg	10	yes	53	1	462	0	0			0	0			1				0	
6.6.1	win	2023-06-02	05:45:52	05:58:47	771647	55b42b7cfdf99b5244217cf4	4	1	main_slash	11	advance_on_keypress_SLASH	108	stimuli_distractor_trianglediamonds.svg	stimuli_target_rectanglediamonds.svg	10	yes	57	0	501	0	0			0	0			1				0	
6.6.1	win	2023-06-02	05:45:52	05:58:48	773273	55b42b7cfdf99b5244217cf4	4	1	main_slash	11	main_slash	109	stimuli_distractor_diamondtriangles.svg	stimuli_target_squaretriangles.svg	15	yes	53	1	471	0	0			0	0			1				0	
6.6.1	win	2023-06-02	05:45:52	05:58:48	773273	55b42b7cfdf99b5244217cf4	4	1	main_slash	11	advance_on_keypress_SLASH	110	stimuli_distractor_diamondtriangles.svg	stimuli_target_squaretriangles.svg	15	yes	57	0	525	0	0			0	0			1				0	
6.6.1	win	2023-06-02	05:45:52	05:58:51	776436	55b42b7cfdf99b5244217cf4	4	1	main_slash	11	main_slash	111	stimuli_target_trianglesquares.svg	stimuli_distractor_diamondtriangles.svg	22	yes	0	0	2000	0	0			0	0			1				0	
6.6.1	win	2023-06-02	05:45:52	05:58:51	776436	55b42b7cfdf99b5244217cf4	4	1	main_slash	11	advance_on_keypress_SLASH	112	stimuli_target_trianglesquares.svg	stimuli_distractor_diamondtriangles.svg	22	yes	57	0	382	0	0			0	0			1				0	
6.6.1	win	2023-06-02	05:45:52	05:58:54	779478	55b42b7cfdf99b5244217cf4	4	1	main_slash	11	main_slash	113	stimuli_distractor_diamondtriangles.svg	stimuli_distractor_diamondtriangles.svg	39	no	0	1	2000	0	0			0	0			1				0	
6.6.1	win	2023-06-02	05:45:52	05:58:54	779478	55b42b7cfdf99b5244217cf4	4	1	main_slash	11	advance_on_keypress_SLASH	114	stimuli_distractor_diamondtriangles.svg	stimuli_distractor_diamondtriangles.svg	39	no	57	0	401	0	0			0	0			1				0	
6.6.1	win	2023-06-02	05:45:52	05:58:58	782523	55b42b7cfdf99b5244217cf4	4	1	main_slash	11	main_slash	115	stimuli_distractor_diamondtriangles.svg	stimuli_distractor_trianglediamonds.svg	38	no	0	1	2000	0	0			0	0			1				0	
6.6.1	win	2023-06-02	05:45:52	05:58:58	782523	55b42b7cfdf99b5244217cf4	4	1	main_slash	11	advance_on_keypress_SLASH	116	stimuli_distractor_diamondtriangles.svg	stimuli_distractor_trianglediamonds.svg	38	no	57	0	370	0	0			0	0			1				0	
6.6.1	win	2023-06-02	05:45:52	05:59:01	785553	55b42b7cfdf99b5244217cf4	4	1	main_slash	11	main_slash	117	stimuli_distractor_trianglediamonds.svg	stimuli_distractor_trianglediamonds.svg	33	no	0	1	2000	0	0			0	0			1				0	
6.6.1	win	2023-06-02	05:45:52	05:59:01	785553	55b42b7cfdf99b5244217cf4	4	1	main_slash	11	advance_on_keypress_SLASH	118	stimuli_distractor_trianglediamonds.svg	stimuli_distractor_trianglediamonds.svg	33	no	57	0	326	0	0			0	0			1				0	
6.6.1	win	2023-06-02	05:45:52	05:59:02	787263	55b42b7cfdf99b5244217cf4	4	1	main_slash	11	main_slash	119	stimuli_distractor_diamondtriangles.svg	stimuli_target_diamondsquares.svg	32	yes	53	1	716	0	0			0	0			1				0	
6.6.1	win	2023-06-02	05:45:52	05:59:02	787263	55b42b7cfdf99b5244217cf4	4	1	main_slash	11	advance_on_keypress_SLASH	120	stimuli_distractor_diamondtriangles.svg	stimuli_target_diamondsquares.svg	32	yes	57	0	482	0	0			0	0			1				0	
6.6.1	win	2023-06-02	05:45:52	05:59:04	789029	55b42b7cfdf99b5244217cf4	4	1	main_slash	11	main_slash	121	stimuli_target_squaretriangles.svg	stimuli_distractor_diamondtriangles.svg	7	yes	53	1	617	0	0			0	0			1				0	
6.6.1	win	2023-06-02	05:45:52	05:59:04	789029	55b42b7cfdf99b5244217cf4	4	1	main_slash	11	advance_on_keypress_SLASH	122	stimuli_target_squaretriangles.svg	stimuli_distractor_diamondtriangles.svg	7	yes	57	0	482	0	0			0	0			1				0	
6.6.1	win	2023-06-02	05:45:52	05:59:06	790618	55b42b7cfdf99b5244217cf4	4	1	main_slash	11	main_slash	123	stimuli_distractor_trianglediamonds.svg	stimuli_target_diamondsquares.svg	28	yes	53	1	437	0	0			0	0			1				0	
6.6.1	win	2023-06-02	05:45:52	05:59:06	790618	55b42b7cfdf99b5244217cf4	4	1	main_slash	11	advance_on_keypress_SLASH	124	stimuli_distractor_trianglediamonds.svg	stimuli_target_diamondsquares.svg	28	yes	57	0	586	0	0			0	0			1				0	
6.6.1	win	2023-06-02	05:45:52	05:59:07	792321	55b42b7cfdf99b5244217cf4	4	1	main_slash	11	main_slash	125	stimuli_target_rectanglediamonds.svg	stimuli_distractor_trianglediamonds.svg	2	yes	53	1	468	0	0			0	0			1				0	
6.6.1	win	2023-06-02	05:45:52	05:59:07	792321	55b42b7cfdf99b5244217cf4	4	1	main_slash	11	advance_on_keypress_SLASH	126	stimuli_target_rectanglediamonds.svg	stimuli_distractor_trianglediamonds.svg	2	yes	57	0	423	0	0			0	0			1				0	
6.6.1	win	2023-06-02	05:45:52	05:59:09	793808	55b42b7cfdf99b5244217cf4	4	1	main_slash	11	main_slash	127	stimuli_distractor_diamondtriangles.svg	stimuli_target_rectanglediamonds.svg	14	yes	53	1	398	0	0			0	0			1				0	
6.6.1	win	2023-06-02	05:45:52	05:59:09	793808	55b42b7cfdf99b5244217cf4	4	1	main_slash	11	advance_on_keypress_SLASH	128	stimuli_distractor_diamondtriangles.svg	stimuli_target_rectanglediamonds.svg	14	yes	57	0	500	0	0			0	0			1				0	
6.6.1	win	2023-06-02	05:45:52	05:59:10	795404	55b42b7cfdf99b5244217cf4	4	1	main_slash	11	main_slash	129	stimuli_target_diamondsquares.svg	stimuli_distractor_diamondtriangles.svg	24	yes	53	1	452	0	0			0	0			1				0	
6.6.1	win	2023-06-02	05:45:52	05:59:10	795404	55b42b7cfdf99b5244217cf4	4	1	main_slash	11	advance_on_keypress_SLASH	130	stimuli_target_diamondsquares.svg	stimuli_distractor_diamondtriangles.svg	24	yes	57	0	640	0	0			0	0			1				0	
6.6.1	win	2023-06-02	05:45:52	05:59:14	798685	55b42b7cfdf99b5244217cf4	4	1	main_slash	11	main_slash	131	stimuli_distractor_trianglediamonds.svg	stimuli_distractor_trianglediamonds.svg	34	no	0	1	2000	0	0			0	0			1				0	
6.6.1	win	2023-06-02	05:45:52	05:59:14	798685	55b42b7cfdf99b5244217cf4	4	1	main_slash	11	advance_on_keypress_SLASH	132	stimuli_distractor_trianglediamonds.svg	stimuli_distractor_trianglediamonds.svg	34	no	57	0	374	0	0			0	0			1				0	
6.6.1	win	2023-06-02	05:45:52	05:59:15	800247	55b42b7cfdf99b5244217cf4	4	1	main_slash	11	main_slash	133	stimuli_target_diamondrectangles.svg	stimuli_distractor_diamondtriangles.svg	23	yes	53	1	523	0	0			0	0			1				0	
6.6.1	win	2023-06-02	05:45:52	05:59:15	800247	55b42b7cfdf99b5244217cf4	4	1	main_slash	11	advance_on_keypress_SLASH	134	stimuli_target_diamondrectangles.svg	stimuli_distractor_diamondtriangles.svg	23	yes	57	0	425	0	0			0	0			1				0	
6.6.1	win	2023-06-02	05:45:52	05:59:17	801786	55b42b7cfdf99b5244217cf4	4	1	main_slash	11	main_slash	135	stimuli_target_rectanglediamonds.svg	stimuli_distractor_diamondtriangles.svg	6	yes	53	1	441	0	0			0	0			1				0	
6.6.1	win	2023-06-02	05:45:52	05:59:17	801786	55b42b7cfdf99b5244217cf4	4	1	main_slash	11	advance_on_keypress_SLASH	136	stimuli_target_rectanglediamonds.svg	stimuli_distractor_diamondtriangles.svg	6	yes	57	0	442	0	0			0	0			1				0	
6.6.1	win	2023-06-02	05:45:52	05:59:18	803371	55b42b7cfdf99b5244217cf4	4	1	main_slash	11	main_slash	137	stimuli_target_rectangletriangles.svg	stimuli_distractor_diamondtriangles.svg	5	yes	53	1	487	0	0			0	0			1				0	
6.6.1	win	2023-06-02	05:45:52	05:59:18	803371	55b42b7cfdf99b5244217cf4	4	1	main_slash	11	advance_on_keypress_SLASH	138	stimuli_target_rectangletriangles.svg	stimuli_distractor_diamondtriangles.svg	5	yes	57	0	421	0	0			0	0			1				0	
6.6.1	win	2023-06-02	05:45:52	05:59:20	804826	55b42b7cfdf99b5244217cf4	4	1	main_slash	11	main_slash	139	stimuli_distractor_trianglediamonds.svg	stimuli_target_diamondrectangles.svg	27	yes	53	1	391	0	0			0	0			1				0	
6.6.1	win	2023-06-02	05:45:52	05:59:20	804826	55b42b7cfdf99b5244217cf4	4	1	main_slash	11	advance_on_keypress_SLASH	140	stimuli_distractor_trianglediamonds.svg	stimuli_target_diamondrectangles.svg	27	yes	57	0	570	0	0			0	0			1				0	
6.6.1	win	2023-06-02	05:45:52	05:59:21	806440	55b42b7cfdf99b5244217cf4	4	1	main_slash	11	main_slash	141	stimuli_distractor_diamondtriangles.svg	stimuli_target_squarediamonds.svg	16	yes	53	1	383	0	0			0	0			1				0	
6.6.1	win	2023-06-02	05:45:52	05:59:21	806440	55b42b7cfdf99b5244217cf4	4	1	main_slash	11	advance_on_keypress_SLASH	142	stimuli_distractor_diamondtriangles.svg	stimuli_target_squarediamonds.svg	16	yes	57	0	557	0	0			0	0			1				0	
6.6.1	win	2023-06-02	05:45:52	05:59:23	808036	55b42b7cfdf99b5244217cf4	4	1	main_slash	11	main_slash	143	stimuli_target_trianglesquares.svg	stimuli_distractor_trianglediamonds.svg	18	yes	53	1	374	0	0			0	0			1				0	
6.6.1	win	2023-06-02	05:45:52	05:59:23	808036	55b42b7cfdf99b5244217cf4	4	1	main_slash	11	advance_on_keypress_SLASH	144	stimuli_target_trianglesquares.svg	stimuli_distractor_trianglediamonds.svg	18	yes	57	0	559	0	0			0	0			1				0	
6.6.1	win	2023-06-02	05:45:52	05:59:25	809623	55b42b7cfdf99b5244217cf4	4	1	main_slash	11	main_slash	145	stimuli_distractor_diamondtriangles.svg	stimuli_target_diamondrectangles.svg	31	yes	53	1	363	0	0			0	0			1				0	
6.6.1	win	2023-06-02	05:45:52	05:59:25	809623	55b42b7cfdf99b5244217cf4	4	1	main_slash	11	advance_on_keypress_SLASH	146	stimuli_distractor_diamondtriangles.svg	stimuli_target_diamondrectangles.svg	31	yes	57	0	535	0	0			0	0			1				0	
6.6.1	win	2023-06-02	05:45:52	05:59:26	811138	55b42b7cfdf99b5244217cf4	4	1	main_slash	11	main_slash	147	stimuli_distractor_trianglediamonds.svg	stimuli_target_trianglesquares.svg	26	yes	53	1	320	0	0			0	0			1				0	
6.6.1	win	2023-06-02	05:45:52	05:59:26	811138	55b42b7cfdf99b5244217cf4	4	1	main_slash	11	advance_on_keypress_SLASH	148	stimuli_distractor_trianglediamonds.svg	stimuli_target_trianglesquares.svg	26	yes	57	0	491	0	0			0	0			1				0	
6.6.1	win	2023-06-02	05:45:52	05:59:28	812578	55b42b7cfdf99b5244217cf4	4	1	main_slash	11	main_slash	149	stimuli_target_diamondrectangles.svg	stimuli_distractor_trianglediamonds.svg	19	yes	53	1	293	0	0			0	0			1				0	
6.6.1	win	2023-06-02	05:45:52	05:59:28	812578	55b42b7cfdf99b5244217cf4	4	1	main_slash	11	advance_on_keypress_SLASH	150	stimuli_target_diamondrectangles.svg	stimuli_distractor_trianglediamonds.svg	19	yes	57	0	556	0	0			0	0			1				0	
6.6.1	win	2023-06-02	05:45:52	05:59:29	814064	55b42b7cfdf99b5244217cf4	4	1	main_slash	11	main_slash	151	stimuli_target_squaretriangles.svg	stimuli_distractor_trianglediamonds.svg	3	yes	53	1	292	0	0			0	0			1				0	
6.6.1	win	2023-06-02	05:45:52	05:59:29	814064	55b42b7cfdf99b5244217cf4	4	1	main_slash	11	advance_on_keypress_SLASH	152	stimuli_target_squaretriangles.svg	stimuli_distractor_trianglediamonds.svg	3	yes	57	0	591	0	0			0	0			1				0	
6.6.1	win	2023-06-02	05:45:52	05:59:32	817331	55b42b7cfdf99b5244217cf4	4	1	main_slash	11	main_slash	153	stimuli_distractor_trianglediamonds.svg	stimuli_distractor_diamondtriangles.svg	36	no	0	1	2000	0	0			0	0			1				0	
6.6.1	win	2023-06-02	05:45:52	05:59:32	817331	55b42b7cfdf99b5244217cf4	4	1	main_slash	11	advance_on_keypress_SLASH	154	stimuli_distractor_trianglediamonds.svg	stimuli_distractor_diamondtriangles.svg	36	no	57	0	753	0	0			0	0			1				0	
6.6.1	win	2023-06-02	05:45:52	05:59:34	819304	55b42b7cfdf99b5244217cf4	4	1	main_slash	11	main_slash	155	stimuli_distractor_trianglediamonds.svg	stimuli_target_rectangletriangles.svg	9	yes	53	1	544	0	0			0	0			1				0	
6.6.1	win	2023-06-02	05:45:52	05:59:34	819304	55b42b7cfdf99b5244217cf4	4	1	main_slash	11	advance_on_keypress_SLASH	156	stimuli_distractor_trianglediamonds.svg	stimuli_target_rectangletriangles.svg	9	yes	57	0	457	0	0			0	0			1				0	
6.6.1	win	2023-06-02	05:45:52	05:59:36	820820	55b42b7cfdf99b5244217cf4	4	1	main_slash	11	main_slash	157	stimuli_target_squarediamonds.svg	stimuli_distractor_diamondtriangles.svg	8	yes	53	1	420	0	0			0	0			1				0	
6.6.1	win	2023-06-02	05:45:52	05:59:36	820820	55b42b7cfdf99b5244217cf4	4	1	main_slash	11	advance_on_keypress_SLASH	158	stimuli_target_squarediamonds.svg	stimuli_distractor_diamondtriangles.svg	8	yes	57	0	462	0	0			0	0			1				0	
6.6.1	win	2023-06-02	05:45:52	05:59:39	823933	55b42b7cfdf99b5244217cf4	4	1	main_slash	11	main_slash	159	stimuli_distractor_diamondtriangles.svg	stimuli_distractor_diamondtriangles.svg	40	no	0	1	2000	0	0			0	0			1				0	
6.6.1	win	2023-06-02	05:45:52	05:59:39	823933	55b42b7cfdf99b5244217cf4	4	1	main_slash	11	advance_on_keypress_SLASH	160	stimuli_distractor_diamondtriangles.svg	stimuli_distractor_diamondtriangles.svg	40	no	57	0	409	0	0			0	0			1				0	
6.6.1	win	2023-06-02	05:45:52	05:59:39	823933	55b42b7cfdf99b5244217cf4	4	1	headphonecheck_calibration	14	headphonecheck_calibrationIntro	1	stimuli_distractor_diamondtriangles.svg	stimuli_distractor_diamondtriangles.svg	40	no	calibrationButton	0	5258	0	0			0	0			1				0	
6.6.1	win	2023-06-02	05:45:52	05:59:39	823933	55b42b7cfdf99b5244217cf4	4	1	headphonecheck_testphase	15	test_collectResponse	3	stimuli_distractor_diamondtriangles.svg	stimuli_distractor_diamondtriangles.svg	40	no	third	1	844	1	2	antiphase_hc_ios.wav	3	0	0			1				0	
6.6.1	win	2023-06-02	05:45:52	05:59:39	823933	55b42b7cfdf99b5244217cf4	4	1	headphonecheck_testphase	15	test_collectResponse	6	stimuli_distractor_diamondtriangles.svg	stimuli_distractor_diamondtriangles.svg	40	no	second	1	430	2	5	antiphase_hc_osi.wav	2	0	0			1				0	
6.6.1	win	2023-06-02	05:45:52	05:59:39	823933	55b42b7cfdf99b5244217cf4	4	1	headphonecheck_testphase	15	test_collectResponse	9	stimuli_distractor_diamondtriangles.svg	stimuli_distractor_diamondtriangles.svg	40	no	second	1	362	3	1	antiphase_hc_iso.wav	2	0	0			1				0	
6.6.1	win	2023-06-02	05:45:52	05:59:39	823933	55b42b7cfdf99b5244217cf4	4	1	headphonecheck_testphase	15	test_collectResponse	12	stimuli_distractor_diamondtriangles.svg	stimuli_distractor_diamondtriangles.svg	40	no	first	1	275	4	4	antiphase_hc_sio.wav	1	0	0			1				0	
6.6.1	win	2023-06-02	05:45:52	05:59:39	823933	55b42b7cfdf99b5244217cf4	4	1	headphonecheck_testphase	15	test_collectResponse	15	stimuli_distractor_diamondtriangles.svg	stimuli_distractor_diamondtriangles.svg	40	no	third	1	209	5	6	antiphase_hc_ois.wav	3	0	0			1				0	
6.6.1	win	2023-06-02	05:45:52	05:59:39	823933	55b42b7cfdf99b5244217cf4	4	1	headphonecheck_testphase	15	test_collectResponse	18	stimuli_distractor_diamondtriangles.svg	stimuli_distractor_diamondtriangles.svg	40	no	first	1	636	6	3	antiphase_hc_soi.wav	1	0	0			1				0	
6.6.1	win	2023-06-02	05:45:52	05:59:39	823933	55b42b7cfdf99b5244217cf4	4	1	stereocheck_calibration	17	stereocheck_calibrationIntro	1	stimuli_distractor_diamondtriangles.svg	stimuli_distractor_diamondtriangles.svg	40	no	stereocheck_calibrationButton	0	5124	6	3	antiphase_hc_soi.wav	1	0	0			1				0	
6.6.1	win	2023-06-02	05:45:52	05:59:39	823933	55b42b7cfdf99b5244217cf4	4	1	stereocheck_testphase	18	stereocheck_test_collectResponse	3	stimuli_distractor_diamondtriangles.svg	stimuli_distractor_diamondtriangles.svg	40	no	stereocheck_left	1	6746	6	3	antiphase_hc_soi.wav	1	1	2	noise_calib_stim_LEFT.wav	1	1				0	
6.6.1	win	2023-06-02	05:45:52	05:59:39	823933	55b42b7cfdf99b5244217cf4	4	1	stereocheck_testphase	18	stereocheck_test_collectResponse	6	stimuli_distractor_diamondtriangles.svg	stimuli_distractor_diamondtriangles.svg	40	no	stereocheck_right	1	870	6	3	antiphase_hc_soi.wav	1	2	6	noise_calib_stim_RIGHT.wav	2	1				0	
6.6.1	win	2023-06-02	05:45:52	05:59:39	823933	55b42b7cfdf99b5244217cf4	4	1	stereocheck_testphase	18	stereocheck_test_collectResponse	9	stimuli_distractor_diamondtriangles.svg	stimuli_distractor_diamondtriangles.svg	40	no	stereocheck_left	1	701	6	3	antiphase_hc_soi.wav	1	3	1	noise_calib_stim_LEFT.wav	1	1				0	
6.6.1	win	2023-06-02	05:45:52	05:59:39	823933	55b42b7cfdf99b5244217cf4	4	1	stereocheck_testphase	18	stereocheck_test_collectResponse	12	stimuli_distractor_diamondtriangles.svg	stimuli_distractor_diamondtriangles.svg	40	no	stereocheck_right	1	761	6	3	antiphase_hc_soi.wav	1	4	5	noise_calib_stim_RIGHT.wav	2	1				0	
6.6.1	win	2023-06-02	05:45:52	05:59:39	823933	55b42b7cfdf99b5244217cf4	4	1	stereocheck_testphase	18	stereocheck_test_collectResponse	15	stimuli_distractor_diamondtriangles.svg	stimuli_distractor_diamondtriangles.svg	40	no	stereocheck_left	1	401	6	3	antiphase_hc_soi.wav	1	5	3	noise_calib_stim_LEFT.wav	1	1				0	
6.6.1	win	2023-06-02	05:45:52	05:59:39	823933	55b42b7cfdf99b5244217cf4	4	1	stereocheck_testphase	18	stereocheck_test_collectResponse	18	stimuli_distractor_diamondtriangles.svg	stimuli_distractor_diamondtriangles.svg	40	no	stereocheck_right	1	512	6	3	antiphase_hc_soi.wav	1	6	4	noise_calib_stim_RIGHT.wav	2	1				0	
6.6.1	win	2023-06-02	05:45:52	05:59:39	823933	55b42b7cfdf99b5244217cf4	4	1	DL_practice	21	DL_practice	2	stimuli_distractor_diamondtriangles.svg	stimuli_distractor_diamondtriangles.svg	40	no	ta	1	2762	6	3	antiphase_hc_soi.wav	1	6	4	noise_calib_stim_RIGHT.wav	2	36	blb_dichoticlistening_ta-ta.mp3	ta	ta	0	left
6.6.1	win	2023-06-02	05:45:52	05:59:39	823933	55b42b7cfdf99b5244217cf4	4	1	DL_practice	21	DL_practice	3	stimuli_distractor_diamondtriangles.svg	stimuli_distractor_diamondtriangles.svg	40	no	ka	1	1020	6	3	antiphase_hc_soi.wav	1	6	4	noise_calib_stim_RIGHT.wav	2	22	blb_dichoticlistening_ka-ka.mp3	ka	ka	0	left
6.6.1	win	2023-06-02	05:45:52	05:59:39	823933	55b42b7cfdf99b5244217cf4	4	1	DL_practice	21	DL_practice	4	stimuli_distractor_diamondtriangles.svg	stimuli_distractor_diamondtriangles.svg	40	no	da	1	1294	6	3	antiphase_hc_soi.wav	1	6	4	noise_calib_stim_RIGHT.wav	2	8	blb_dichoticlistening_da-da.mp3	da	da	0	left
6.6.1	win	2023-06-02	05:45:52	05:59:39	823933	55b42b7cfdf99b5244217cf4	4	1	DL_practice	21	DL_practice	5	stimuli_distractor_diamondtriangles.svg	stimuli_distractor_diamondtriangles.svg	40	no	ba	1	1110	6	3	antiphase_hc_soi.wav	1	6	4	noise_calib_stim_RIGHT.wav	2	1	blb_dichoticlistening_ba-ba.mp3	ba	ba	0	left
6.6.1	win	2023-06-02	05:45:52	05:59:39	823933	55b42b7cfdf99b5244217cf4	4	1	DL_practice	21	DL_practice	6	stimuli_distractor_diamondtriangles.svg	stimuli_distractor_diamondtriangles.svg	40	no	ga	1	3670	6	3	antiphase_hc_soi.wav	1	6	4	noise_calib_stim_RIGHT.wav	2	18	blb_dichoticlistening_ga-ta.mp3	ga	ta	1	left
6.6.1	win	2023-06-02	05:45:52	05:59:39	823933	55b42b7cfdf99b5244217cf4	4	1	DL_practice	21	DL_practice	7	stimuli_distractor_diamondtriangles.svg	stimuli_distractor_diamondtriangles.svg	40	no	ga	1	995	6	3	antiphase_hc_soi.wav	1	6	4	noise_calib_stim_RIGHT.wav	2	15	blb_dichoticlistening_ga-ga.mp3	ga	ga	0	left
6.6.1	win	2023-06-02	05:45:52	05:59:39	823933	55b42b7cfdf99b5244217cf4	4	1	DL_practice	21	DL_practice	8	stimuli_distractor_diamondtriangles.svg	stimuli_distractor_diamondtriangles.svg	40	no	da	1	1708	6	3	antiphase_hc_soi.wav	1	6	4	noise_calib_stim_RIGHT.wav	2	7	blb_dichoticlistening_da-ba.mp3	da	ba	1	left
6.6.1	win	2023-06-02	05:45:52	05:59:39	823933	55b42b7cfdf99b5244217cf4	4	1	DL_practice	21	DL_practice	9	stimuli_distractor_diamondtriangles.svg	stimuli_distractor_diamondtriangles.svg	40	no	pa	1	1406	6	3	antiphase_hc_soi.wav	1	6	4	noise_calib_stim_RIGHT.wav	2	29	blb_dichoticlistening_pa-pa.mp3	pa	pa	0	left
6.6.1	win	2023-06-02	05:45:52	05:59:39	823933	55b42b7cfdf99b5244217cf4	4	1	DL_practice	21	DL_practice	10	stimuli_distractor_diamondtriangles.svg	stimuli_distractor_diamondtriangles.svg	40	no	ka	1	1067	6	3	antiphase_hc_soi.wav	1	6	4	noise_calib_stim_RIGHT.wav	2	23	blb_dichoticlistening_ka-pa.mp3	ka	pa	1	left
6.6.1	win	2023-06-02	05:45:52	05:59:39	823933	55b42b7cfdf99b5244217cf4	4	1	DL_test	23	DL_test	1	stimuli_distractor_diamondtriangles.svg	stimuli_distractor_diamondtriangles.svg	40	no	pa	1	1280	6	3	antiphase_hc_soi.wav	1	6	4	noise_calib_stim_RIGHT.wav	2	25	blb_dichoticlistening_pa-ba.mp3	pa	ba	1	left
6.6.1	win	2023-06-02	05:45:52	05:59:39	823933	55b42b7cfdf99b5244217cf4	4	1	DL_test	23	DL_test	2	stimuli_distractor_diamondtriangles.svg	stimuli_distractor_diamondtriangles.svg	40	no	ba	1	2143	6	3	antiphase_hc_soi.wav	1	6	4	noise_calib_stim_RIGHT.wav	2	3	blb_dichoticlistening_ba-ga.mp3	ba	ga	1	left
6.6.1	win	2023-06-02	05:45:52	05:59:39	823933	55b42b7cfdf99b5244217cf4	4	1	DL_test	23	DL_test	3	stimuli_distractor_diamondtriangles.svg	stimuli_distractor_diamondtriangles.svg	40	no	ka	0	1289	6	3	antiphase_hc_soi.wav	1	6	4	noise_calib_stim_RIGHT.wav	2	18	blb_dichoticlistening_ga-ta.mp3	ga	ta	1	other
6.6.1	win	2023-06-02	05:45:52	05:59:39	823933	55b42b7cfdf99b5244217cf4	4	1	DL_test	23	DL_test	4	stimuli_distractor_diamondtriangles.svg	stimuli_distractor_diamondtriangles.svg	40	no	pa	1	2094	6	3	antiphase_hc_soi.wav	1	6	4	noise_calib_stim_RIGHT.wav	2	29	blb_dichoticlistening_pa-pa.mp3	pa	pa	0	left
6.6.1	win	2023-06-02	05:45:52	05:59:39	823933	55b42b7cfdf99b5244217cf4	4	1	DL_test	23	DL_test	5	stimuli_distractor_diamondtriangles.svg	stimuli_distractor_diamondtriangles.svg	40	no	ka	1	972	6	3	antiphase_hc_soi.wav	1	6	4	noise_calib_stim_RIGHT.wav	2	34	blb_dichoticlistening_ta-ka.mp3	ta	ka	1	right
6.6.1	win	2023-06-02	05:45:52	05:59:39	823933	55b42b7cfdf99b5244217cf4	4	1	DL_test	23	DL_test	6	stimuli_distractor_diamondtriangles.svg	stimuli_distractor_diamondtriangles.svg	40	no	ka	1	1557	6	3	antiphase_hc_soi.wav	1	6	4	noise_calib_stim_RIGHT.wav	2	28	blb_dichoticlistening_pa-ka.mp3	pa	ka	1	right
6.6.1	win	2023-06-02	05:45:52	05:59:39	823933	55b42b7cfdf99b5244217cf4	4	1	DL_test	23	DL_test	7	stimuli_distractor_diamondtriangles.svg	stimuli_distractor_diamondtriangles.svg	40	no	ga	1	1179	6	3	antiphase_hc_soi.wav	1	6	4	noise_calib_stim_RIGHT.wav	2	13	blb_dichoticlistening_ga-ba.mp3	ga	ba	1	left
6.6.1	win	2023-06-02	05:45:52	05:59:39	823933	55b42b7cfdf99b5244217cf4	4	1	DL_test	23	DL_test	8	stimuli_distractor_diamondtriangles.svg	stimuli_distractor_diamondtriangles.svg	40	no	ka	1	1066	6	3	antiphase_hc_soi.wav	1	6	4	noise_calib_stim_RIGHT.wav	2	22	blb_dichoticlistening_ka-ka.mp3	ka	ka	0	left
6.6.1	win	2023-06-02	05:45:52	05:59:39	823933	55b42b7cfdf99b5244217cf4	4	1	DL_test	23	DL_test	9	stimuli_distractor_diamondtriangles.svg	stimuli_distractor_diamondtriangles.svg	40	no	pa	1	1489	6	3	antiphase_hc_soi.wav	1	6	4	noise_calib_stim_RIGHT.wav	2	5	blb_dichoticlistening_ba-pa.mp3	ba	pa	1	right
6.6.1	win	2023-06-02	05:45:52	05:59:39	823933	55b42b7cfdf99b5244217cf4	4	1	DL_test	23	DL_test	10	stimuli_distractor_diamondtriangles.svg	stimuli_distractor_diamondtriangles.svg	40	no	ta	1	1059	6	3	antiphase_hc_soi.wav	1	6	4	noise_calib_stim_RIGHT.wav	2	31	blb_dichoticlistening_ta-ba.mp3	ta	ba	1	left
6.6.1	win	2023-06-02	05:45:52	05:59:39	823933	55b42b7cfdf99b5244217cf4	4	1	DL_test	23	DL_test	11	stimuli_distractor_diamondtriangles.svg	stimuli_distractor_diamondtriangles.svg	40	no	ka	1	1138	6	3	antiphase_hc_soi.wav	1	6	4	noise_calib_stim_RIGHT.wav	2	4	blb_dichoticlistening_ba-ka.mp3	ba	ka	1	right
6.6.1	win	2023-06-02	05:45:52	05:59:39	823933	55b42b7cfdf99b5244217cf4	4	1	DL_test	23	DL_test	12	stimuli_distractor_diamondtriangles.svg	stimuli_distractor_diamondtriangles.svg	40	no	da	1	1274	6	3	antiphase_hc_soi.wav	1	6	4	noise_calib_stim_RIGHT.wav	2	8	blb_dichoticlistening_da-da.mp3	da	da	0	left
6.6.1	win	2023-06-02	05:45:52	05:59:39	823933	55b42b7cfdf99b5244217cf4	4	1	DL_test	23	DL_test	13	stimuli_distractor_diamondtriangles.svg	stimuli_distractor_diamondtriangles.svg	40	no	ka	1	1096	6	3	antiphase_hc_soi.wav	1	6	4	noise_calib_stim_RIGHT.wav	2	21	blb_dichoticlistening_ka-ga.mp3	ka	ga	1	left
6.6.1	win	2023-06-02	05:45:52	05:59:39	823933	55b42b7cfdf99b5244217cf4	4	1	DL_test	23	DL_test	14	stimuli_distractor_diamondtriangles.svg	stimuli_distractor_diamondtriangles.svg	40	no	da	1	1159	6	3	antiphase_hc_soi.wav	1	6	4	noise_calib_stim_RIGHT.wav	2	7	blb_dichoticlistening_da-ba.mp3	da	ba	1	left
6.6.1	win	2023-06-02	05:45:52	05:59:39	823933	55b42b7cfdf99b5244217cf4	4	1	DL_test	23	DL_test	15	stimuli_distractor_diamondtriangles.svg	stimuli_distractor_diamondtriangles.svg	40	no	ba	1	1182	6	3	antiphase_hc_soi.wav	1	6	4	noise_calib_stim_RIGHT.wav	2	1	blb_dichoticlistening_ba-ba.mp3	ba	ba	0	left
6.6.1	win	2023-06-02	05:45:52	05:59:39	823933	55b42b7cfdf99b5244217cf4	4	1	DL_test	23	DL_test	16	stimuli_distractor_diamondtriangles.svg	stimuli_distractor_diamondtriangles.svg	40	no	da	1	1189	6	3	antiphase_hc_soi.wav	1	6	4	noise_calib_stim_RIGHT.wav	2	14	blb_dichoticlistening_ga-da.mp3	ga	da	1	right
6.6.1	win	2023-06-02	05:45:52	05:59:39	823933	55b42b7cfdf99b5244217cf4	4	1	DL_test	23	DL_test	17	stimuli_distractor_diamondtriangles.svg	stimuli_distractor_diamondtriangles.svg	40	no	ta	1	1602	6	3	antiphase_hc_soi.wav	1	6	4	noise_calib_stim_RIGHT.wav	2	35	blb_dichoticlistening_ta-pa.mp3	ta	pa	1	left
6.6.1	win	2023-06-02	05:45:52	05:59:39	823933	55b42b7cfdf99b5244217cf4	4	1	DL_test	23	DL_test	18	stimuli_distractor_diamondtriangles.svg	stimuli_distractor_diamondtriangles.svg	40	no	ka	1	2955	6	3	antiphase_hc_soi.wav	1	6	4	noise_calib_stim_RIGHT.wav	2	16	blb_dichoticlistening_ga-ka.mp3	ga	ka	1	right
6.6.1	win	2023-06-02	05:45:52	05:59:39	823933	55b42b7cfdf99b5244217cf4	4	1	DL_test	23	DL_test	19	stimuli_distractor_diamondtriangles.svg	stimuli_distractor_diamondtriangles.svg	40	no	ka	1	857	6	3	antiphase_hc_soi.wav	1	6	4	noise_calib_stim_RIGHT.wav	2	19	blb_dichoticlistening_ka-ba.mp3	ka	ba	1	left
6.6.1	win	2023-06-02	05:45:52	05:59:39	823933	55b42b7cfdf99b5244217cf4	4	1	DL_test	23	DL_test	20	stimuli_distractor_diamondtriangles.svg	stimuli_distractor_diamondtriangles.svg	40	no	ka	0	958	6	3	antiphase_hc_soi.wav	1	6	4	noise_calib_stim_RIGHT.wav	2	33	blb_dichoticlistening_ta-ga.mp3	ta	ga	1	other
6.6.1	win	2023-06-02	05:45:52	05:59:39	823933	55b42b7cfdf99b5244217cf4	4	1	DL_test	23	DL_test	21	stimuli_distractor_diamondtriangles.svg	stimuli_distractor_diamondtriangles.svg	40	no	ka	1	1000	6	3	antiphase_hc_soi.wav	1	6	4	noise_calib_stim_RIGHT.wav	2	20	blb_dichoticlistening_ka-da.mp3	ka	da	1	left
6.6.1	win	2023-06-02	05:45:52	05:59:39	823933	55b42b7cfdf99b5244217cf4	4	1	DL_test	23	DL_test	22	stimuli_distractor_diamondtriangles.svg	stimuli_distractor_diamondtriangles.svg	40	no	pa	1	796	6	3	antiphase_hc_soi.wav	1	6	4	noise_calib_stim_RIGHT.wav	2	30	blb_dichoticlistening_pa-ta.mp3	pa	ta	1	left
6.6.1	win	2023-06-02	05:45:52	05:59:39	823933	55b42b7cfdf99b5244217cf4	4	1	DL_test	23	DL_test	23	stimuli_distractor_diamondtriangles.svg	stimuli_distractor_diamondtriangles.svg	40	no	ta	0	1430	6	3	antiphase_hc_soi.wav	1	6	4	noise_calib_stim_RIGHT.wav	2	10	blb_dichoticlistening_da-ka.mp3	da	ka	1	other
6.6.1	win	2023-06-02	05:45:52	05:59:39	823933	55b42b7cfdf99b5244217cf4	4	1	DL_test	23	DL_test	24	stimuli_distractor_diamondtriangles.svg	stimuli_distractor_diamondtriangles.svg	40	no	ka	1	1103	6	3	antiphase_hc_soi.wav	1	6	4	noise_calib_stim_RIGHT.wav	2	23	blb_dichoticlistening_ka-pa.mp3	ka	pa	1	left
6.6.1	win	2023-06-02	05:45:52	05:59:39	823933	55b42b7cfdf99b5244217cf4	4	1	DL_test	23	DL_test	25	stimuli_distractor_diamondtriangles.svg	stimuli_distractor_diamondtriangles.svg	40	no	pa	0	1021	6	3	antiphase_hc_soi.wav	1	6	4	noise_calib_stim_RIGHT.wav	2	6	blb_dichoticlistening_ba-ta.mp3	ba	ta	1	other
