build	computer.platform	date	time	timestamp	time_elapsed_ms	subject	group	session	blockcode	blocknum	trialcode	trialnum	stimulus_left	stimulus_right	stim_index	target_present	response	correct	latency	headphonecheck_countTestTrials	headphonecheck_index	headphonecheck_testSound	headphonecheck_correctResponse	stereocheck_countTestTrials	stereocheck_index	stereocheck_testSound	stereocheck_correctResponse	DL_index	DL_soundfile	DL_leftSound	DL_rightSound	DL_dualSound	DL_choice
6.6.1	mac	2023-06-02	01:33:30	01:36:40	189294	614a125a754b4a9660643d88	4	1	practice_z	5	practice_z	1	stimuli_distractor_diamondtriangles.svg	stimuli_distractor_diamondtriangles.svg	13	no	0	1	2000	0	0			0	0			1				0	
6.6.1	mac	2023-06-02	01:33:30	01:36:40	189294	614a125a754b4a9660643d88	4	1	practice_z	5	advance_on_keypress_ZEE	2	stimuli_distractor_diamondtriangles.svg	stimuli_distractor_diamondtriangles.svg	13	no	57	0	3147	0	0			0	0			1				0	
6.6.1	mac	2023-06-02	01:33:30	01:36:47	196077	614a125a754b4a9660643d88	4	1	practice_z	5	practice_z	3	stimuli_distractor_trianglediamonds.svg	stimuli_target_squarediamonds.svg	11	yes	0	0	2000	0	0			0	0			1				0	
6.6.1	mac	2023-06-02	01:33:30	01:36:47	196077	614a125a754b4a9660643d88	4	1	practice_z	5	advance_on_keypress_ZEE	4	stimuli_distractor_trianglediamonds.svg	stimuli_target_squarediamonds.svg	11	yes	57	0	881	0	0			0	0			1				0	
6.6.1	mac	2023-06-02	01:33:30	01:36:51	199374	614a125a754b4a9660643d88	4	1	practice_z	5	practice_z	5	stimuli_distractor_diamondtriangles.svg	stimuli_distractor_trianglediamonds.svg	14	no	44	0	779	0	0			0	0			1				0	
6.6.1	mac	2023-06-02	01:33:30	01:36:51	199374	614a125a754b4a9660643d88	4	1	practice_z	5	advance_on_keypress_ZEE	6	stimuli_distractor_diamondtriangles.svg	stimuli_distractor_trianglediamonds.svg	14	no	57	0	996	0	0			0	0			1				0	
6.6.1	mac	2023-06-02	01:33:30	01:36:54	202933	614a125a754b4a9660643d88	4	1	practice_z	5	practice_z	7	stimuli_distractor_diamondtriangles.svg	stimuli_target_diamondrectangles.svg	8	yes	44	1	922	0	0			0	0			1				0	
6.6.1	mac	2023-06-02	01:33:30	01:36:54	202933	614a125a754b4a9660643d88	4	1	practice_z	5	advance_on_keypress_ZEE	8	stimuli_distractor_diamondtriangles.svg	stimuli_target_diamondrectangles.svg	8	yes	57	0	1984	0	0			0	0			1				0	
6.6.1	mac	2023-06-02	01:33:30	01:36:58	207281	614a125a754b4a9660643d88	4	1	practice_z	5	practice_z	9	stimuli_distractor_trianglediamonds.svg	stimuli_target_diamondrectangles.svg	12	yes	44	1	735	0	0			0	0			1				0	
6.6.1	mac	2023-06-02	01:33:30	01:36:58	207281	614a125a754b4a9660643d88	4	1	practice_z	5	advance_on_keypress_ZEE	10	stimuli_distractor_trianglediamonds.svg	stimuli_target_diamondrectangles.svg	12	yes	57	0	795	0	0			0	0			1				0	
6.6.1	mac	2023-06-02	01:33:30	01:37:02	210585	614a125a754b4a9660643d88	4	1	practice_z	5	practice_z	11	stimuli_target_diamondsquares.svg	stimuli_distractor_diamondtriangles.svg	3	yes	44	1	873	0	0			0	0			1				0	
6.6.1	mac	2023-06-02	01:33:30	01:37:02	210585	614a125a754b4a9660643d88	4	1	practice_z	5	advance_on_keypress_ZEE	12	stimuli_target_diamondsquares.svg	stimuli_distractor_diamondtriangles.svg	3	yes	57	0	645	0	0			0	0			1				0	
6.6.1	mac	2023-06-02	01:33:30	01:37:05	213468	614a125a754b4a9660643d88	4	1	practice_z	5	practice_z	13	stimuli_target_rectanglediamonds.svg	stimuli_distractor_diamondtriangles.svg	1	yes	44	1	605	0	0			0	0			1				0	
6.6.1	mac	2023-06-02	01:33:30	01:37:05	213468	614a125a754b4a9660643d88	4	1	practice_z	5	advance_on_keypress_ZEE	14	stimuli_target_rectanglediamonds.svg	stimuli_distractor_diamondtriangles.svg	1	yes	57	0	613	0	0			0	0			1				0	
6.6.1	mac	2023-06-02	01:33:30	01:37:07	216228	614a125a754b4a9660643d88	4	1	practice_z	5	practice_z	15	stimuli_distractor_diamondtriangles.svg	stimuli_target_rectangletriangles.svg	7	yes	44	1	516	0	0			0	0			1				0	
6.6.1	mac	2023-06-02	01:33:30	01:37:07	216228	614a125a754b4a9660643d88	4	1	practice_z	5	advance_on_keypress_ZEE	16	stimuli_distractor_diamondtriangles.svg	stimuli_target_rectangletriangles.svg	7	yes	57	0	463	0	0			0	0			1				0	
6.6.1	mac	2023-06-02	01:33:30	01:37:10	219101	614a125a754b4a9660643d88	4	1	practice_z	5	practice_z	17	stimuli_target_rectanglediamonds.svg	stimuli_distractor_trianglediamonds.svg	4	yes	44	1	771	0	0			0	0			1				0	
6.6.1	mac	2023-06-02	01:33:30	01:37:10	219101	614a125a754b4a9660643d88	4	1	practice_z	5	advance_on_keypress_ZEE	18	stimuli_target_rectanglediamonds.svg	stimuli_distractor_trianglediamonds.svg	4	yes	57	0	2034	0	0			0	0			1				0	
6.6.1	mac	2023-06-02	01:33:30	01:37:15	224319	614a125a754b4a9660643d88	4	1	practice_z	5	practice_z	19	stimuli_target_diamondsquares.svg	stimuli_distractor_trianglediamonds.svg	6	yes	44	1	1554	0	0			0	0			1				0	
6.6.1	mac	2023-06-02	01:33:30	01:37:15	224319	614a125a754b4a9660643d88	4	1	practice_z	5	advance_on_keypress_ZEE	20	stimuli_target_diamondsquares.svg	stimuli_distractor_trianglediamonds.svg	6	yes	57	0	1354	0	0			0	0			1				0	
6.6.1	mac	2023-06-02	01:33:30	01:37:20	228869	614a125a754b4a9660643d88	4	1	practice_z	5	practice_z	21	stimuli_distractor_trianglediamonds.svg	stimuli_target_rectanglediamonds.svg	10	yes	44	1	1570	0	0			0	0			1				0	
6.6.1	mac	2023-06-02	01:33:30	01:37:20	228869	614a125a754b4a9660643d88	4	1	practice_z	5	advance_on_keypress_ZEE	22	stimuli_distractor_trianglediamonds.svg	stimuli_target_rectanglediamonds.svg	10	yes	57	0	624	0	0			0	0			1				0	
6.6.1	mac	2023-06-02	01:33:30	01:37:23	232143	614a125a754b4a9660643d88	4	1	practice_z	5	practice_z	23	stimuli_distractor_diamondtriangles.svg	stimuli_target_trianglerectangles.svg	9	yes	44	1	1011	0	0			0	0			1				0	
6.6.1	mac	2023-06-02	01:33:30	01:37:23	232143	614a125a754b4a9660643d88	4	1	practice_z	5	advance_on_keypress_ZEE	24	stimuli_distractor_diamondtriangles.svg	stimuli_target_trianglerectangles.svg	9	yes	57	0	985	0	0			0	0			1				0	
6.6.1	mac	2023-06-02	01:33:30	01:37:28	236765	614a125a754b4a9660643d88	4	1	practice_z	5	practice_z	25	stimuli_distractor_trianglediamonds.svg	stimuli_distractor_diamondtriangles.svg	16	no	0	1	2000	0	0			0	0			1				0	
6.6.1	mac	2023-06-02	01:33:30	01:37:28	236765	614a125a754b4a9660643d88	4	1	practice_z	5	advance_on_keypress_ZEE	26	stimuli_distractor_trianglediamonds.svg	stimuli_distractor_diamondtriangles.svg	16	no	57	0	618	0	0			0	0			1				0	
6.6.1	mac	2023-06-02	01:33:30	01:37:31	239814	614a125a754b4a9660643d88	4	1	practice_z	5	practice_z	27	stimuli_target_squarediamonds.svg	stimuli_distractor_trianglediamonds.svg	5	yes	44	1	798	0	0			0	0			1				0	
6.6.1	mac	2023-06-02	01:33:30	01:37:31	239814	614a125a754b4a9660643d88	4	1	practice_z	5	advance_on_keypress_ZEE	28	stimuli_target_squarediamonds.svg	stimuli_distractor_trianglediamonds.svg	5	yes	57	0	726	0	0			0	0			1				0	
6.6.1	mac	2023-06-02	01:33:30	01:37:34	242830	614a125a754b4a9660643d88	4	1	practice_z	5	practice_z	29	stimuli_target_squarediamonds.svg	stimuli_distractor_diamondtriangles.svg	2	yes	44	1	664	0	0			0	0			1				0	
6.6.1	mac	2023-06-02	01:33:30	01:37:34	242830	614a125a754b4a9660643d88	4	1	practice_z	5	advance_on_keypress_ZEE	30	stimuli_target_squarediamonds.svg	stimuli_distractor_diamondtriangles.svg	2	yes	57	0	634	0	0			0	0			1				0	
6.6.1	mac	2023-06-02	01:33:30	01:37:38	247099	614a125a754b4a9660643d88	4	1	practice_z	5	practice_z	31	stimuli_distractor_trianglediamonds.svg	stimuli_distractor_trianglediamonds.svg	15	no	0	1	2000	0	0			0	0			1				0	
6.6.1	mac	2023-06-02	01:33:30	01:37:38	247099	614a125a754b4a9660643d88	4	1	practice_z	5	advance_on_keypress_ZEE	32	stimuli_distractor_trianglediamonds.svg	stimuli_distractor_trianglediamonds.svg	15	no	57	0	505	0	0			0	0			1				0	
6.6.1	mac	2023-06-02	01:33:30	01:37:45	254271	614a125a754b4a9660643d88	4	1	main_z	7	main_z	1	stimuli_target_rectangletriangles.svg	stimuli_distractor_trianglediamonds.svg	1	yes	44	1	903	0	0			0	0			1				0	
6.6.1	mac	2023-06-02	01:33:30	01:37:45	254271	614a125a754b4a9660643d88	4	1	main_z	7	advance_on_keypress_ZEE	2	stimuli_target_rectangletriangles.svg	stimuli_distractor_trianglediamonds.svg	1	yes	57	0	3602	0	0			0	0			1				0	
6.6.1	mac	2023-06-02	01:33:30	01:37:51	259783	614a125a754b4a9660643d88	4	1	main_z	7	main_z	3	stimuli_distractor_trianglediamonds.svg	stimuli_distractor_trianglediamonds.svg	34	no	44	0	1281	0	0			0	0			1				0	
6.6.1	mac	2023-06-02	01:33:30	01:37:51	259783	614a125a754b4a9660643d88	4	1	main_z	7	advance_on_keypress_ZEE	4	stimuli_distractor_trianglediamonds.svg	stimuli_distractor_trianglediamonds.svg	34	no	57	0	1216	0	0			0	0			1				0	
6.6.1	mac	2023-06-02	01:33:30	01:37:54	262703	614a125a754b4a9660643d88	4	1	main_z	7	main_z	5	stimuli_distractor_diamondtriangles.svg	stimuli_target_trianglerectangles.svg	29	yes	44	1	1068	0	0			0	0			1				0	
6.6.1	mac	2023-06-02	01:33:30	01:37:54	262703	614a125a754b4a9660643d88	4	1	main_z	7	advance_on_keypress_ZEE	6	stimuli_distractor_diamondtriangles.svg	stimuli_target_trianglerectangles.svg	29	yes	57	0	1037	0	0			0	0			1				0	
6.6.1	mac	2023-06-02	01:33:30	01:37:57	265498	614a125a754b4a9660643d88	4	1	main_z	7	main_z	7	stimuli_distractor_trianglediamonds.svg	stimuli_target_rectangletriangles.svg	9	yes	44	1	1128	0	0			0	0			1				0	
6.6.1	mac	2023-06-02	01:33:30	01:37:57	265498	614a125a754b4a9660643d88	4	1	main_z	7	advance_on_keypress_ZEE	8	stimuli_distractor_trianglediamonds.svg	stimuli_target_rectangletriangles.svg	9	yes	57	0	1686	0	0			0	0			1				0	
6.6.1	mac	2023-06-02	01:33:30	01:38:01	269817	614a125a754b4a9660643d88	4	1	main_z	7	main_z	9	stimuli_distractor_diamondtriangles.svg	stimuli_distractor_trianglediamonds.svg	37	no	0	1	2000	0	0			0	0			1				0	
6.6.1	mac	2023-06-02	01:33:30	01:38:01	269817	614a125a754b4a9660643d88	4	1	main_z	7	advance_on_keypress_ZEE	10	stimuli_distractor_diamondtriangles.svg	stimuli_distractor_trianglediamonds.svg	37	no	57	0	486	0	0			0	0			1				0	
6.6.1	mac	2023-06-02	01:33:30	01:38:04	272936	614a125a754b4a9660643d88	4	1	main_z	7	main_z	11	stimuli_target_trianglerectangles.svg	stimuli_distractor_diamondtriangles.svg	21	yes	0	0	2000	0	0			0	0			1				0	
6.6.1	mac	2023-06-02	01:33:30	01:38:04	272936	614a125a754b4a9660643d88	4	1	main_z	7	advance_on_keypress_ZEE	12	stimuli_target_trianglerectangles.svg	stimuli_distractor_diamondtriangles.svg	21	yes	57	0	774	0	0			0	0			1				0	
6.6.1	mac	2023-06-02	01:33:30	01:38:06	275199	614a125a754b4a9660643d88	4	1	main_z	7	main_z	13	stimuli_target_rectanglediamonds.svg	stimuli_distractor_diamondtriangles.svg	6	yes	44	1	862	0	0			0	0			1				0	
6.6.1	mac	2023-06-02	01:33:30	01:38:06	275199	614a125a754b4a9660643d88	4	1	main_z	7	advance_on_keypress_ZEE	14	stimuli_target_rectanglediamonds.svg	stimuli_distractor_diamondtriangles.svg	6	yes	57	0	753	0	0			0	0			1				0	
6.6.1	mac	2023-06-02	01:33:30	01:38:09	277559	614a125a754b4a9660643d88	4	1	main_z	7	main_z	15	stimuli_distractor_trianglediamonds.svg	stimuli_target_trianglesquares.svg	26	yes	44	1	971	0	0			0	0			1				0	
6.6.1	mac	2023-06-02	01:33:30	01:38:09	277559	614a125a754b4a9660643d88	4	1	main_z	7	advance_on_keypress_ZEE	16	stimuli_distractor_trianglediamonds.svg	stimuli_target_trianglesquares.svg	26	yes	57	0	764	0	0			0	0			1				0	
6.6.1	mac	2023-06-02	01:33:30	01:38:11	279781	614a125a754b4a9660643d88	4	1	main_z	7	main_z	17	stimuli_target_diamondsquares.svg	stimuli_distractor_trianglediamonds.svg	20	yes	44	1	826	0	0			0	0			1				0	
6.6.1	mac	2023-06-02	01:33:30	01:38:11	279781	614a125a754b4a9660643d88	4	1	main_z	7	advance_on_keypress_ZEE	18	stimuli_target_diamondsquares.svg	stimuli_distractor_trianglediamonds.svg	20	yes	57	0	567	0	0			0	0			1				0	
6.6.1	mac	2023-06-02	01:33:30	01:38:13	281863	614a125a754b4a9660643d88	4	1	main_z	7	main_z	19	stimuli_distractor_trianglediamonds.svg	stimuli_target_rectanglediamonds.svg	10	yes	44	1	892	0	0			0	0			1				0	
6.6.1	mac	2023-06-02	01:33:30	01:38:13	281863	614a125a754b4a9660643d88	4	1	main_z	7	advance_on_keypress_ZEE	20	stimuli_distractor_trianglediamonds.svg	stimuli_target_rectanglediamonds.svg	10	yes	57	0	563	0	0			0	0			1				0	
6.6.1	mac	2023-06-02	01:33:30	01:38:15	283969	614a125a754b4a9660643d88	4	1	main_z	7	main_z	21	stimuli_target_rectangletriangles.svg	stimuli_distractor_diamondtriangles.svg	5	yes	44	1	916	0	0			0	0			1				0	
6.6.1	mac	2023-06-02	01:33:30	01:38:15	283969	614a125a754b4a9660643d88	4	1	main_z	7	advance_on_keypress_ZEE	22	stimuli_target_rectangletriangles.svg	stimuli_distractor_diamondtriangles.svg	5	yes	57	0	512	0	0			0	0			1				0	
6.6.1	mac	2023-06-02	01:33:30	01:38:18	287120	614a125a754b4a9660643d88	4	1	main_z	7	main_z	23	stimuli_distractor_trianglediamonds.svg	stimuli_target_trianglerectangles.svg	25	yes	0	0	2000	0	0			0	0			1				0	
6.6.1	mac	2023-06-02	01:33:30	01:38:18	287120	614a125a754b4a9660643d88	4	1	main_z	7	advance_on_keypress_ZEE	24	stimuli_distractor_trianglediamonds.svg	stimuli_target_trianglerectangles.svg	25	yes	57	0	488	0	0			0	0			1				0	
6.6.1	mac	2023-06-02	01:33:30	01:38:20	289082	614a125a754b4a9660643d88	4	1	main_z	7	main_z	25	stimuli_distractor_diamondtriangles.svg	stimuli_target_squaretriangles.svg	15	yes	44	1	844	0	0			0	0			1				0	
6.6.1	mac	2023-06-02	01:33:30	01:38:20	289082	614a125a754b4a9660643d88	4	1	main_z	7	advance_on_keypress_ZEE	26	stimuli_distractor_diamondtriangles.svg	stimuli_target_squaretriangles.svg	15	yes	57	0	588	0	0			0	0			1				0	
6.6.1	mac	2023-06-02	01:33:30	01:38:22	291088	614a125a754b4a9660643d88	4	1	main_z	7	main_z	27	stimuli_distractor_diamondtriangles.svg	stimuli_target_rectanglediamonds.svg	14	yes	44	1	783	0	0			0	0			1				0	
6.6.1	mac	2023-06-02	01:33:30	01:38:22	291088	614a125a754b4a9660643d88	4	1	main_z	7	advance_on_keypress_ZEE	28	stimuli_distractor_diamondtriangles.svg	stimuli_target_rectanglediamonds.svg	14	yes	57	0	482	0	0			0	0			1				0	
6.6.1	mac	2023-06-02	01:33:30	01:38:24	292989	614a125a754b4a9660643d88	4	1	main_z	7	main_z	29	stimuli_target_squarediamonds.svg	stimuli_distractor_trianglediamonds.svg	4	yes	44	1	784	0	0			0	0			1				0	
6.6.1	mac	2023-06-02	01:33:30	01:38:24	292989	614a125a754b4a9660643d88	4	1	main_z	7	advance_on_keypress_ZEE	30	stimuli_target_squarediamonds.svg	stimuli_distractor_trianglediamonds.svg	4	yes	57	0	562	0	0			0	0			1				0	
6.6.1	mac	2023-06-02	01:33:30	01:38:27	296171	614a125a754b4a9660643d88	4	1	main_z	7	main_z	31	stimuli_target_diamondrectangles.svg	stimuli_distractor_diamondtriangles.svg	23	yes	0	0	2000	0	0			0	0			1				0	
6.6.1	mac	2023-06-02	01:33:30	01:38:27	296171	614a125a754b4a9660643d88	4	1	main_z	7	advance_on_keypress_ZEE	32	stimuli_target_diamondrectangles.svg	stimuli_distractor_diamondtriangles.svg	23	yes	57	0	504	0	0			0	0			1				0	
6.6.1	mac	2023-06-02	01:33:30	01:38:29	298053	614a125a754b4a9660643d88	4	1	main_z	7	main_z	33	stimuli_target_rectanglediamonds.svg	stimuli_distractor_trianglediamonds.svg	2	yes	44	1	747	0	0			0	0			1				0	
6.6.1	mac	2023-06-02	01:33:30	01:38:29	298053	614a125a754b4a9660643d88	4	1	main_z	7	advance_on_keypress_ZEE	34	stimuli_target_rectanglediamonds.svg	stimuli_distractor_trianglediamonds.svg	2	yes	57	0	842	0	0			0	0			1				0	
6.6.1	mac	2023-06-02	01:33:30	01:38:33	301522	614a125a754b4a9660643d88	4	1	main_z	7	main_z	35	stimuli_target_trianglesquares.svg	stimuli_distractor_diamondtriangles.svg	22	yes	0	0	2000	0	0			0	0			1				0	
6.6.1	mac	2023-06-02	01:33:30	01:38:33	301522	614a125a754b4a9660643d88	4	1	main_z	7	advance_on_keypress_ZEE	36	stimuli_target_trianglesquares.svg	stimuli_distractor_diamondtriangles.svg	22	yes	57	0	60	0	0			0	0			1				0	
6.6.1	mac	2023-06-02	01:33:30	01:38:34	302968	614a125a754b4a9660643d88	4	1	main_z	7	main_z	37	stimuli_target_squaretriangles.svg	stimuli_distractor_trianglediamonds.svg	3	yes	44	1	762	0	0			0	0			1				0	
6.6.1	mac	2023-06-02	01:33:30	01:38:34	302968	614a125a754b4a9660643d88	4	1	main_z	7	advance_on_keypress_ZEE	38	stimuli_target_squaretriangles.svg	stimuli_distractor_trianglediamonds.svg	3	yes	57	0	713	0	0			0	0			1				0	
6.6.1	mac	2023-06-02	01:33:30	01:38:36	305299	614a125a754b4a9660643d88	4	1	main_z	7	main_z	39	stimuli_distractor_diamondtriangles.svg	stimuli_target_diamondrectangles.svg	31	yes	44	1	976	0	0			0	0			1				0	
6.6.1	mac	2023-06-02	01:33:30	01:38:36	305299	614a125a754b4a9660643d88	4	1	main_z	7	advance_on_keypress_ZEE	40	stimuli_distractor_diamondtriangles.svg	stimuli_target_diamondrectangles.svg	31	yes	57	0	507	0	0			0	0			1				0	
6.6.1	mac	2023-06-02	01:33:30	01:38:39	307343	614a125a754b4a9660643d88	4	1	main_z	7	main_z	41	stimuli_distractor_diamondtriangles.svg	stimuli_target_trianglesquares.svg	30	yes	44	1	920	0	0			0	0			1				0	
6.6.1	mac	2023-06-02	01:33:30	01:38:39	307343	614a125a754b4a9660643d88	4	1	main_z	7	advance_on_keypress_ZEE	42	stimuli_distractor_diamondtriangles.svg	stimuli_target_trianglesquares.svg	30	yes	57	0	598	0	0			0	0			1				0	
6.6.1	mac	2023-06-02	01:33:30	01:38:41	309510	614a125a754b4a9660643d88	4	1	main_z	7	main_z	43	stimuli_distractor_diamondtriangles.svg	stimuli_target_squarediamonds.svg	16	yes	44	1	936	0	0			0	0			1				0	
6.6.1	mac	2023-06-02	01:33:30	01:38:41	309510	614a125a754b4a9660643d88	4	1	main_z	7	advance_on_keypress_ZEE	44	stimuli_distractor_diamondtriangles.svg	stimuli_target_squarediamonds.svg	16	yes	57	0	500	0	0			0	0			1				0	
6.6.1	mac	2023-06-02	01:33:30	01:38:43	311452	614a125a754b4a9660643d88	4	1	main_z	7	main_z	45	stimuli_distractor_trianglediamonds.svg	stimuli_target_squarediamonds.svg	12	yes	44	1	812	0	0			0	0			1				0	
6.6.1	mac	2023-06-02	01:33:30	01:38:43	311452	614a125a754b4a9660643d88	4	1	main_z	7	advance_on_keypress_ZEE	46	stimuli_distractor_trianglediamonds.svg	stimuli_target_squarediamonds.svg	12	yes	57	0	422	0	0			0	0			1				0	
6.6.1	mac	2023-06-02	01:33:30	01:38:44	313243	614a125a754b4a9660643d88	4	1	main_z	7	main_z	47	stimuli_distractor_diamondtriangles.svg	stimuli_target_diamondsquares.svg	32	yes	44	1	736	0	0			0	0			1				0	
6.6.1	mac	2023-06-02	01:33:30	01:38:44	313243	614a125a754b4a9660643d88	4	1	main_z	7	advance_on_keypress_ZEE	48	stimuli_distractor_diamondtriangles.svg	stimuli_target_diamondsquares.svg	32	yes	57	0	455	0	0			0	0			1				0	
6.6.1	mac	2023-06-02	01:33:30	01:38:46	315220	614a125a754b4a9660643d88	4	1	main_z	7	main_z	49	stimuli_target_trianglerectangles.svg	stimuli_distractor_trianglediamonds.svg	17	yes	44	1	894	0	0			0	0			1				0	
6.6.1	mac	2023-06-02	01:33:30	01:38:46	315220	614a125a754b4a9660643d88	4	1	main_z	7	advance_on_keypress_ZEE	50	stimuli_target_trianglerectangles.svg	stimuli_distractor_trianglediamonds.svg	17	yes	57	0	410	0	0			0	0			1				0	
6.6.1	mac	2023-06-02	01:33:30	01:38:49	318258	614a125a754b4a9660643d88	4	1	main_z	7	main_z	51	stimuli_distractor_diamondtriangles.svg	stimuli_distractor_diamondtriangles.svg	40	no	0	1	2000	0	0			0	0			1				0	
6.6.1	mac	2023-06-02	01:33:30	01:38:49	318258	614a125a754b4a9660643d88	4	1	main_z	7	advance_on_keypress_ZEE	52	stimuli_distractor_diamondtriangles.svg	stimuli_distractor_diamondtriangles.svg	40	no	57	0	292	0	0			0	0			1				0	
6.6.1	mac	2023-06-02	01:33:30	01:38:51	320099	614a125a754b4a9660643d88	4	1	main_z	7	main_z	53	stimuli_target_diamondsquares.svg	stimuli_distractor_diamondtriangles.svg	24	yes	44	1	923	0	0			0	0			1				0	
6.6.1	mac	2023-06-02	01:33:30	01:38:51	320099	614a125a754b4a9660643d88	4	1	main_z	7	advance_on_keypress_ZEE	54	stimuli_target_diamondsquares.svg	stimuli_distractor_diamondtriangles.svg	24	yes	57	0	466	0	0			0	0			1				0	
6.6.1	mac	2023-06-02	01:33:30	01:38:54	322431	614a125a754b4a9660643d88	4	1	main_z	7	main_z	55	stimuli_distractor_trianglediamonds.svg	stimuli_distractor_diamondtriangles.svg	36	no	44	0	1238	0	0			0	0			1				0	
6.6.1	mac	2023-06-02	01:33:30	01:38:54	322431	614a125a754b4a9660643d88	4	1	main_z	7	advance_on_keypress_ZEE	56	stimuli_distractor_trianglediamonds.svg	stimuli_distractor_diamondtriangles.svg	36	no	57	0	376	0	0			0	0			1				0	
6.6.1	mac	2023-06-02	01:33:30	01:38:56	324939	614a125a754b4a9660643d88	4	1	main_z	7	main_z	57	stimuli_distractor_trianglediamonds.svg	stimuli_target_squaretriangles.svg	11	yes	44	1	1513	0	0			0	0			1				0	
6.6.1	mac	2023-06-02	01:33:30	01:38:56	324939	614a125a754b4a9660643d88	4	1	main_z	7	advance_on_keypress_ZEE	58	stimuli_distractor_trianglediamonds.svg	stimuli_target_squaretriangles.svg	11	yes	57	0	406	0	0			0	0			1				0	
6.6.1	mac	2023-06-02	01:33:30	01:38:58	327082	614a125a754b4a9660643d88	4	1	main_z	7	main_z	59	stimuli_distractor_trianglediamonds.svg	stimuli_target_diamondsquares.svg	28	yes	44	1	1106	0	0			0	0			1				0	
6.6.1	mac	2023-06-02	01:33:30	01:38:58	327082	614a125a754b4a9660643d88	4	1	main_z	7	advance_on_keypress_ZEE	60	stimuli_distractor_trianglediamonds.svg	stimuli_target_diamondsquares.svg	28	yes	57	0	375	0	0			0	0			1				0	
6.6.1	mac	2023-06-02	01:33:30	01:39:00	329068	614a125a754b4a9660643d88	4	1	main_z	7	main_z	61	stimuli_target_trianglesquares.svg	stimuli_distractor_trianglediamonds.svg	18	yes	44	1	976	0	0			0	0			1				0	
6.6.1	mac	2023-06-02	01:33:30	01:39:00	329068	614a125a754b4a9660643d88	4	1	main_z	7	advance_on_keypress_ZEE	62	stimuli_target_trianglesquares.svg	stimuli_distractor_trianglediamonds.svg	18	yes	57	0	427	0	0			0	0			1				0	
6.6.1	mac	2023-06-02	01:33:30	01:39:03	332108	614a125a754b4a9660643d88	4	1	main_z	7	main_z	63	stimuli_distractor_diamondtriangles.svg	stimuli_distractor_trianglediamonds.svg	38	no	0	1	2000	0	0			0	0			1				0	
6.6.1	mac	2023-06-02	01:33:30	01:39:03	332108	614a125a754b4a9660643d88	4	1	main_z	7	advance_on_keypress_ZEE	64	stimuli_distractor_diamondtriangles.svg	stimuli_distractor_trianglediamonds.svg	38	no	57	0	379	0	0			0	0			1				0	
6.6.1	mac	2023-06-02	01:33:30	01:39:05	333784	614a125a754b4a9660643d88	4	1	main_z	7	main_z	65	stimuli_target_squaretriangles.svg	stimuli_distractor_diamondtriangles.svg	7	yes	44	1	657	0	0			0	0			1				0	
6.6.1	mac	2023-06-02	01:33:30	01:39:05	333784	614a125a754b4a9660643d88	4	1	main_z	7	advance_on_keypress_ZEE	66	stimuli_target_squaretriangles.svg	stimuli_distractor_diamondtriangles.svg	7	yes	57	0	673	0	0			0	0			1				0	
6.6.1	mac	2023-06-02	01:33:30	01:39:08	336654	614a125a754b4a9660643d88	4	1	main_z	7	main_z	67	stimuli_distractor_trianglediamonds.svg	stimuli_distractor_trianglediamonds.svg	33	no	44	0	1560	0	0			0	0			1				0	
6.6.1	mac	2023-06-02	01:33:30	01:39:08	336654	614a125a754b4a9660643d88	4	1	main_z	7	advance_on_keypress_ZEE	68	stimuli_distractor_trianglediamonds.svg	stimuli_distractor_trianglediamonds.svg	33	no	57	0	541	0	0			0	0			1				0	
6.6.1	mac	2023-06-02	01:33:30	01:39:10	338642	614a125a754b4a9660643d88	4	1	main_z	7	main_z	69	stimuli_target_squarediamonds.svg	stimuli_distractor_diamondtriangles.svg	8	yes	44	1	815	0	0			0	0			1				0	
6.6.1	mac	2023-06-02	01:33:30	01:39:10	338642	614a125a754b4a9660643d88	4	1	main_z	7	advance_on_keypress_ZEE	70	stimuli_target_squarediamonds.svg	stimuli_distractor_diamondtriangles.svg	8	yes	57	0	437	0	0			0	0			1				0	
6.6.1	mac	2023-06-02	01:33:30	01:39:12	340842	614a125a754b4a9660643d88	4	1	main_z	7	main_z	71	stimuli_distractor_trianglediamonds.svg	stimuli_target_diamondrectangles.svg	27	yes	44	1	1133	0	0			0	0			1				0	
6.6.1	mac	2023-06-02	01:33:30	01:39:12	340842	614a125a754b4a9660643d88	4	1	main_z	7	advance_on_keypress_ZEE	72	stimuli_distractor_trianglediamonds.svg	stimuli_target_diamondrectangles.svg	27	yes	57	0	361	0	0			0	0			1				0	
6.6.1	mac	2023-06-02	01:33:30	01:39:15	343578	614a125a754b4a9660643d88	4	1	main_z	7	main_z	73	stimuli_distractor_diamondtriangles.svg	stimuli_target_rectangletriangles.svg	13	yes	44	1	1734	0	0			0	0			1				0	
6.6.1	mac	2023-06-02	01:33:30	01:39:15	343578	614a125a754b4a9660643d88	4	1	main_z	7	advance_on_keypress_ZEE	74	stimuli_distractor_diamondtriangles.svg	stimuli_target_rectangletriangles.svg	13	yes	57	0	478	0	0			0	0			1				0	
6.6.1	mac	2023-06-02	01:33:30	01:39:18	346693	614a125a754b4a9660643d88	4	1	main_z	7	main_z	75	stimuli_distractor_trianglediamonds.svg	stimuli_distractor_diamondtriangles.svg	35	no	0	1	2000	0	0			0	0			1				0	
6.6.1	mac	2023-06-02	01:33:30	01:39:18	346693	614a125a754b4a9660643d88	4	1	main_z	7	advance_on_keypress_ZEE	76	stimuli_distractor_trianglediamonds.svg	stimuli_distractor_diamondtriangles.svg	35	no	57	0	315	0	0			0	0			1				0	
6.6.1	mac	2023-06-02	01:33:30	01:39:20	348552	614a125a754b4a9660643d88	4	1	main_z	7	main_z	77	stimuli_target_diamondrectangles.svg	stimuli_distractor_trianglediamonds.svg	19	yes	44	1	907	0	0			0	0			1				0	
6.6.1	mac	2023-06-02	01:33:30	01:39:20	348552	614a125a754b4a9660643d88	4	1	main_z	7	advance_on_keypress_ZEE	78	stimuli_target_diamondrectangles.svg	stimuli_distractor_trianglediamonds.svg	19	yes	57	0	496	0	0			0	0			1				0	
6.6.1	mac	2023-06-02	01:33:30	01:39:23	351678	614a125a754b4a9660643d88	4	1	main_z	7	main_z	79	stimuli_distractor_diamondtriangles.svg	stimuli_distractor_diamondtriangles.svg	39	no	0	1	2000	0	0			0	0			1				0	
6.6.1	mac	2023-06-02	01:33:30	01:39:23	351678	614a125a754b4a9660643d88	4	1	main_z	7	advance_on_keypress_ZEE	80	stimuli_distractor_diamondtriangles.svg	stimuli_distractor_diamondtriangles.svg	39	no	57	0	346	0	0			0	0			1				0	
6.6.1	mac	2023-06-02	01:33:30	01:39:25	353387	614a125a754b4a9660643d88	4	1	main_z	7	main_z	81	stimuli_distractor_diamondtriangles.svg	stimuli_target_trianglesquares.svg	30	yes	44	1	725	0	0			0	0			1				0	
6.6.1	mac	2023-06-02	01:33:30	01:39:25	353387	614a125a754b4a9660643d88	4	1	main_z	7	advance_on_keypress_ZEE	82	stimuli_distractor_diamondtriangles.svg	stimuli_target_trianglesquares.svg	30	yes	57	0	608	0	0			0	0			1				0	
6.6.1	mac	2023-06-02	01:33:30	01:39:26	355322	614a125a754b4a9660643d88	4	1	main_z	7	main_z	83	stimuli_distractor_diamondtriangles.svg	stimuli_target_rectangletriangles.svg	13	yes	44	1	694	0	0			0	0			1				0	
6.6.1	mac	2023-06-02	01:33:30	01:39:26	355322	614a125a754b4a9660643d88	4	1	main_z	7	advance_on_keypress_ZEE	84	stimuli_distractor_diamondtriangles.svg	stimuli_target_rectangletriangles.svg	13	yes	57	0	444	0	0			0	0			1				0	
6.6.1	mac	2023-06-02	01:33:30	01:39:29	357363	614a125a754b4a9660643d88	4	1	main_z	7	main_z	85	stimuli_distractor_trianglediamonds.svg	stimuli_target_diamondsquares.svg	28	yes	44	1	985	0	0			0	0			1				0	
6.6.1	mac	2023-06-02	01:33:30	01:39:29	357363	614a125a754b4a9660643d88	4	1	main_z	7	advance_on_keypress_ZEE	86	stimuli_distractor_trianglediamonds.svg	stimuli_target_diamondsquares.svg	28	yes	57	0	330	0	0			0	0			1				0	
6.6.1	mac	2023-06-02	01:33:30	01:39:32	360328	614a125a754b4a9660643d88	4	1	main_z	7	main_z	87	stimuli_distractor_trianglediamonds.svg	stimuli_target_squarediamonds.svg	12	yes	0	0	2000	0	0			0	0			1				0	
6.6.1	mac	2023-06-02	01:33:30	01:39:32	360328	614a125a754b4a9660643d88	4	1	main_z	7	advance_on_keypress_ZEE	88	stimuli_distractor_trianglediamonds.svg	stimuli_target_squarediamonds.svg	12	yes	57	0	466	0	0			0	0			1				0	
6.6.1	mac	2023-06-02	01:33:30	01:39:33	362138	614a125a754b4a9660643d88	4	1	main_z	7	main_z	89	stimuli_distractor_trianglediamonds.svg	stimuli_target_rectanglediamonds.svg	10	yes	44	1	709	0	0			0	0			1				0	
6.6.1	mac	2023-06-02	01:33:30	01:39:33	362138	614a125a754b4a9660643d88	4	1	main_z	7	advance_on_keypress_ZEE	90	stimuli_distractor_trianglediamonds.svg	stimuli_target_rectanglediamonds.svg	10	yes	57	0	599	0	0			0	0			1				0	
6.6.1	mac	2023-06-02	01:33:30	01:39:37	365362	614a125a754b4a9660643d88	4	1	main_z	7	main_z	91	stimuli_distractor_trianglediamonds.svg	stimuli_distractor_diamondtriangles.svg	35	no	0	1	2000	0	0			0	0			1				0	
6.6.1	mac	2023-06-02	01:33:30	01:39:37	365362	614a125a754b4a9660643d88	4	1	main_z	7	advance_on_keypress_ZEE	92	stimuli_distractor_trianglediamonds.svg	stimuli_distractor_diamondtriangles.svg	35	no	57	0	296	0	0			0	0			1				0	
6.6.1	mac	2023-06-02	01:33:30	01:39:38	366750	614a125a754b4a9660643d88	4	1	main_z	7	main_z	93	stimuli_distractor_trianglediamonds.svg	stimuli_target_squaretriangles.svg	11	yes	44	1	454	0	0			0	0			1				0	
6.6.1	mac	2023-06-02	01:33:30	01:39:38	366750	614a125a754b4a9660643d88	4	1	main_z	7	advance_on_keypress_ZEE	94	stimuli_distractor_trianglediamonds.svg	stimuli_target_squaretriangles.svg	11	yes	57	0	642	0	0			0	0			1				0	
6.6.1	mac	2023-06-02	01:33:30	01:39:40	368745	614a125a754b4a9660643d88	4	1	main_z	7	main_z	95	stimuli_target_diamondsquares.svg	stimuli_distractor_diamondtriangles.svg	24	yes	44	1	732	0	0			0	0			1				0	
6.6.1	mac	2023-06-02	01:33:30	01:39:40	368745	614a125a754b4a9660643d88	4	1	main_z	7	advance_on_keypress_ZEE	96	stimuli_target_diamondsquares.svg	stimuli_distractor_diamondtriangles.svg	24	yes	57	0	470	0	0			0	0			1				0	
6.6.1	mac	2023-06-02	01:33:30	01:39:42	370646	614a125a754b4a9660643d88	4	1	main_z	7	main_z	97	stimuli_distractor_diamondtriangles.svg	stimuli_target_trianglerectangles.svg	29	yes	44	1	799	0	0			0	0			1				0	
6.6.1	mac	2023-06-02	01:33:30	01:39:42	370646	614a125a754b4a9660643d88	4	1	main_z	7	advance_on_keypress_ZEE	98	stimuli_distractor_diamondtriangles.svg	stimuli_target_trianglerectangles.svg	29	yes	57	0	442	0	0			0	0			1				0	
6.6.1	mac	2023-06-02	01:33:30	01:39:44	372624	614a125a754b4a9660643d88	4	1	main_z	7	main_z	99	stimuli_target_trianglesquares.svg	stimuli_distractor_trianglediamonds.svg	18	yes	44	1	910	0	0			0	0			1				0	
6.6.1	mac	2023-06-02	01:33:30	01:39:44	372624	614a125a754b4a9660643d88	4	1	main_z	7	advance_on_keypress_ZEE	100	stimuli_target_trianglesquares.svg	stimuli_distractor_trianglediamonds.svg	18	yes	57	0	356	0	0			0	0			1				0	
6.6.1	mac	2023-06-02	01:33:30	01:39:46	374527	614a125a754b4a9660643d88	4	1	main_z	7	main_z	101	stimuli_distractor_trianglediamonds.svg	stimuli_target_diamondrectangles.svg	27	yes	44	1	930	0	0			0	0			1				0	
6.6.1	mac	2023-06-02	01:33:30	01:39:46	374527	614a125a754b4a9660643d88	4	1	main_z	7	advance_on_keypress_ZEE	102	stimuli_distractor_trianglediamonds.svg	stimuli_target_diamondrectangles.svg	27	yes	57	0	485	0	0			0	0			1				0	
6.6.1	mac	2023-06-02	01:33:30	01:39:48	377250	614a125a754b4a9660643d88	4	1	main_z	7	main_z	103	stimuli_distractor_trianglediamonds.svg	stimuli_target_trianglerectangles.svg	25	yes	44	1	1601	0	0			0	0			1				0	
6.6.1	mac	2023-06-02	01:33:30	01:39:48	377250	614a125a754b4a9660643d88	4	1	main_z	7	advance_on_keypress_ZEE	104	stimuli_distractor_trianglediamonds.svg	stimuli_target_trianglerectangles.svg	25	yes	57	0	410	0	0			0	0			1				0	
6.6.1	mac	2023-06-02	01:33:30	01:39:51	380280	614a125a754b4a9660643d88	4	1	main_z	7	main_z	105	stimuli_distractor_trianglediamonds.svg	stimuli_distractor_trianglediamonds.svg	34	no	0	1	2000	0	0			0	0			1				0	
6.6.1	mac	2023-06-02	01:33:30	01:39:51	380280	614a125a754b4a9660643d88	4	1	main_z	7	advance_on_keypress_ZEE	106	stimuli_distractor_trianglediamonds.svg	stimuli_distractor_trianglediamonds.svg	34	no	57	0	281	0	0			0	0			1				0	
6.6.1	mac	2023-06-02	01:33:30	01:39:54	383198	614a125a754b4a9660643d88	4	1	main_z	7	main_z	107	stimuli_distractor_diamondtriangles.svg	stimuli_distractor_trianglediamonds.svg	38	no	0	1	2000	0	0			0	0			1				0	
6.6.1	mac	2023-06-02	01:33:30	01:39:54	383198	614a125a754b4a9660643d88	4	1	main_z	7	advance_on_keypress_ZEE	108	stimuli_distractor_diamondtriangles.svg	stimuli_distractor_trianglediamonds.svg	38	no	57	0	363	0	0			0	0			1				0	
6.6.1	mac	2023-06-02	01:33:30	01:39:56	384919	614a125a754b4a9660643d88	4	1	main_z	7	main_z	109	stimuli_target_diamondsquares.svg	stimuli_distractor_trianglediamonds.svg	20	yes	44	1	720	0	0			0	0			1				0	
6.6.1	mac	2023-06-02	01:33:30	01:39:56	384919	614a125a754b4a9660643d88	4	1	main_z	7	advance_on_keypress_ZEE	110	stimuli_target_diamondsquares.svg	stimuli_distractor_trianglediamonds.svg	20	yes	57	0	386	0	0			0	0			1				0	
6.6.1	mac	2023-06-02	01:33:30	01:39:58	386700	614a125a754b4a9660643d88	4	1	main_z	7	main_z	111	stimuli_distractor_diamondtriangles.svg	stimuli_target_squarediamonds.svg	16	yes	44	1	768	0	0			0	0			1				0	
6.6.1	mac	2023-06-02	01:33:30	01:39:58	386700	614a125a754b4a9660643d88	4	1	main_z	7	advance_on_keypress_ZEE	112	stimuli_distractor_diamondtriangles.svg	stimuli_target_squarediamonds.svg	16	yes	57	0	330	0	0			0	0			1				0	
6.6.1	mac	2023-06-02	01:33:30	01:40:00	388521	614a125a754b4a9660643d88	4	1	main_z	7	main_z	113	stimuli_target_squaretriangles.svg	stimuli_distractor_trianglediamonds.svg	3	yes	44	1	838	0	0			0	0			1				0	
6.6.1	mac	2023-06-02	01:33:30	01:40:00	388521	614a125a754b4a9660643d88	4	1	main_z	7	advance_on_keypress_ZEE	114	stimuli_target_squaretriangles.svg	stimuli_distractor_trianglediamonds.svg	3	yes	57	0	403	0	0			0	0			1				0	
6.6.1	mac	2023-06-02	01:33:30	01:40:02	390469	614a125a754b4a9660643d88	4	1	main_z	7	main_z	115	stimuli_target_squaretriangles.svg	stimuli_distractor_diamondtriangles.svg	7	yes	44	1	920	0	0			0	0			1				0	
6.6.1	mac	2023-06-02	01:33:30	01:40:02	390469	614a125a754b4a9660643d88	4	1	main_z	7	advance_on_keypress_ZEE	116	stimuli_target_squaretriangles.svg	stimuli_distractor_diamondtriangles.svg	7	yes	57	0	482	0	0			0	0			1				0	
6.6.1	mac	2023-06-02	01:33:30	01:40:04	392404	614a125a754b4a9660643d88	4	1	main_z	7	main_z	117	stimuli_target_trianglerectangles.svg	stimuli_distractor_trianglediamonds.svg	17	yes	44	1	821	0	0			0	0			1				0	
6.6.1	mac	2023-06-02	01:33:30	01:40:04	392404	614a125a754b4a9660643d88	4	1	main_z	7	advance_on_keypress_ZEE	118	stimuli_target_trianglerectangles.svg	stimuli_distractor_trianglediamonds.svg	17	yes	57	0	410	0	0			0	0			1				0	
6.6.1	mac	2023-06-02	01:33:30	01:40:05	394215	614a125a754b4a9660643d88	4	1	main_z	7	main_z	119	stimuli_distractor_trianglediamonds.svg	stimuli_target_trianglesquares.svg	26	yes	44	1	783	0	0			0	0			1				0	
6.6.1	mac	2023-06-02	01:33:30	01:40:05	394215	614a125a754b4a9660643d88	4	1	main_z	7	advance_on_keypress_ZEE	120	stimuli_distractor_trianglediamonds.svg	stimuli_target_trianglesquares.svg	26	yes	57	0	430	0	0			0	0			1				0	
6.6.1	mac	2023-06-02	01:33:30	01:40:08	397282	614a125a754b4a9660643d88	4	1	main_z	7	main_z	121	stimuli_distractor_trianglediamonds.svg	stimuli_distractor_trianglediamonds.svg	33	no	0	1	2000	0	0			0	0			1				0	
6.6.1	mac	2023-06-02	01:33:30	01:40:08	397282	614a125a754b4a9660643d88	4	1	main_z	7	advance_on_keypress_ZEE	122	stimuli_distractor_trianglediamonds.svg	stimuli_distractor_trianglediamonds.svg	33	no	57	0	249	0	0			0	0			1				0	
6.6.1	mac	2023-06-02	01:33:30	01:40:10	398696	614a125a754b4a9660643d88	4	1	main_z	7	main_z	123	stimuli_distractor_diamondtriangles.svg	stimuli_target_rectanglediamonds.svg	14	yes	44	1	530	0	0			0	0			1				0	
6.6.1	mac	2023-06-02	01:33:30	01:40:10	398696	614a125a754b4a9660643d88	4	1	main_z	7	advance_on_keypress_ZEE	124	stimuli_distractor_diamondtriangles.svg	stimuli_target_rectanglediamonds.svg	14	yes	57	0	660	0	0			0	0			1				0	
6.6.1	mac	2023-06-02	01:33:30	01:40:12	400488	614a125a754b4a9660643d88	4	1	main_z	7	main_z	125	stimuli_target_rectangletriangles.svg	stimuli_distractor_diamondtriangles.svg	5	yes	44	1	504	0	0			0	0			1				0	
6.6.1	mac	2023-06-02	01:33:30	01:40:12	400488	614a125a754b4a9660643d88	4	1	main_z	7	advance_on_keypress_ZEE	126	stimuli_target_rectangletriangles.svg	stimuli_distractor_diamondtriangles.svg	5	yes	57	0	448	0	0			0	0			1				0	
6.6.1	mac	2023-06-02	01:33:30	01:40:13	402081	614a125a754b4a9660643d88	4	1	main_z	7	main_z	127	stimuli_target_rectanglediamonds.svg	stimuli_distractor_trianglediamonds.svg	2	yes	44	1	516	0	0			0	0			1				0	
6.6.1	mac	2023-06-02	01:33:30	01:40:13	402081	614a125a754b4a9660643d88	4	1	main_z	7	advance_on_keypress_ZEE	128	stimuli_target_rectanglediamonds.svg	stimuli_distractor_trianglediamonds.svg	2	yes	57	0	551	0	0			0	0			1				0	
6.6.1	mac	2023-06-02	01:33:30	01:40:16	405266	614a125a754b4a9660643d88	4	1	main_z	7	main_z	129	stimuli_target_trianglesquares.svg	stimuli_distractor_diamondtriangles.svg	22	yes	0	0	2000	0	0			0	0			1				0	
6.6.1	mac	2023-06-02	01:33:30	01:40:16	405266	614a125a754b4a9660643d88	4	1	main_z	7	advance_on_keypress_ZEE	130	stimuli_target_trianglesquares.svg	stimuli_distractor_diamondtriangles.svg	22	yes	57	0	281	0	0			0	0			1				0	
6.6.1	mac	2023-06-02	01:33:30	01:40:18	406868	614a125a754b4a9660643d88	4	1	main_z	7	main_z	131	stimuli_distractor_trianglediamonds.svg	stimuli_target_rectangletriangles.svg	9	yes	44	1	683	0	0			0	0			1				0	
6.6.1	mac	2023-06-02	01:33:30	01:40:18	406868	614a125a754b4a9660643d88	4	1	main_z	7	advance_on_keypress_ZEE	132	stimuli_distractor_trianglediamonds.svg	stimuli_target_rectangletriangles.svg	9	yes	57	0	623	0	0			0	0			1				0	
6.6.1	mac	2023-06-02	01:33:30	01:40:20	408707	614a125a754b4a9660643d88	4	1	main_z	7	main_z	133	stimuli_target_squarediamonds.svg	stimuli_distractor_diamondtriangles.svg	8	yes	44	1	589	0	0			0	0			1				0	
6.6.1	mac	2023-06-02	01:33:30	01:40:20	408707	614a125a754b4a9660643d88	4	1	main_z	7	advance_on_keypress_ZEE	134	stimuli_target_squarediamonds.svg	stimuli_distractor_diamondtriangles.svg	8	yes	57	0	367	0	0			0	0			1				0	
6.6.1	mac	2023-06-02	01:33:30	01:40:23	411701	614a125a754b4a9660643d88	4	1	main_z	7	main_z	135	stimuli_distractor_diamondtriangles.svg	stimuli_distractor_diamondtriangles.svg	39	no	0	1	2000	0	0			0	0			1				0	
6.6.1	mac	2023-06-02	01:33:30	01:40:23	411701	614a125a754b4a9660643d88	4	1	main_z	7	advance_on_keypress_ZEE	136	stimuli_distractor_diamondtriangles.svg	stimuli_distractor_diamondtriangles.svg	39	no	57	0	326	0	0			0	0			1				0	
6.6.1	mac	2023-06-02	01:33:30	01:40:26	414651	614a125a754b4a9660643d88	4	1	main_z	7	main_z	137	stimuli_distractor_diamondtriangles.svg	stimuli_distractor_trianglediamonds.svg	37	no	0	1	2000	0	0			0	0			1				0	
6.6.1	mac	2023-06-02	01:33:30	01:40:26	414651	614a125a754b4a9660643d88	4	1	main_z	7	advance_on_keypress_ZEE	138	stimuli_distractor_diamondtriangles.svg	stimuli_distractor_trianglediamonds.svg	37	no	57	0	627	0	0			0	0			1				0	
6.6.1	mac	2023-06-02	01:33:30	01:40:28	416706	614a125a754b4a9660643d88	4	1	main_z	7	main_z	139	stimuli_distractor_diamondtriangles.svg	stimuli_target_diamondsquares.svg	32	yes	44	1	804	0	0			0	0			1				0	
6.6.1	mac	2023-06-02	01:33:30	01:40:28	416706	614a125a754b4a9660643d88	4	1	main_z	7	advance_on_keypress_ZEE	140	stimuli_distractor_diamondtriangles.svg	stimuli_target_diamondsquares.svg	32	yes	57	0	370	0	0			0	0			1				0	
6.6.1	mac	2023-06-02	01:33:30	01:40:30	418496	614a125a754b4a9660643d88	4	1	main_z	7	main_z	141	stimuli_target_trianglerectangles.svg	stimuli_distractor_diamondtriangles.svg	21	yes	44	1	794	0	0			0	0			1				0	
6.6.1	mac	2023-06-02	01:33:30	01:40:30	418496	614a125a754b4a9660643d88	4	1	main_z	7	advance_on_keypress_ZEE	142	stimuli_target_trianglerectangles.svg	stimuli_distractor_diamondtriangles.svg	21	yes	57	0	289	0	0			0	0			1				0	
6.6.1	mac	2023-06-02	01:33:30	01:40:31	420149	614a125a754b4a9660643d88	4	1	main_z	7	main_z	143	stimuli_target_rectanglediamonds.svg	stimuli_distractor_diamondtriangles.svg	6	yes	44	1	730	0	0			0	0			1				0	
6.6.1	mac	2023-06-02	01:33:30	01:40:31	420149	614a125a754b4a9660643d88	4	1	main_z	7	advance_on_keypress_ZEE	144	stimuli_target_rectanglediamonds.svg	stimuli_distractor_diamondtriangles.svg	6	yes	57	0	342	0	0			0	0			1				0	
6.6.1	mac	2023-06-02	01:33:30	01:40:33	421991	614a125a754b4a9660643d88	4	1	main_z	7	main_z	145	stimuli_target_diamondrectangles.svg	stimuli_distractor_trianglediamonds.svg	19	yes	44	1	871	0	0			0	0			1				0	
6.6.1	mac	2023-06-02	01:33:30	01:40:33	421991	614a125a754b4a9660643d88	4	1	main_z	7	advance_on_keypress_ZEE	146	stimuli_target_diamondrectangles.svg	stimuli_distractor_trianglediamonds.svg	19	yes	57	0	271	0	0			0	0			1				0	
6.6.1	mac	2023-06-02	01:33:30	01:40:35	423697	614a125a754b4a9660643d88	4	1	main_z	7	main_z	147	stimuli_target_rectangletriangles.svg	stimuli_distractor_trianglediamonds.svg	1	yes	44	1	811	0	0			0	0			1				0	
6.6.1	mac	2023-06-02	01:33:30	01:40:35	423697	614a125a754b4a9660643d88	4	1	main_z	7	advance_on_keypress_ZEE	148	stimuli_target_rectangletriangles.svg	stimuli_distractor_trianglediamonds.svg	1	yes	57	0	335	0	0			0	0			1				0	
6.6.1	mac	2023-06-02	01:33:30	01:40:38	426668	614a125a754b4a9660643d88	4	1	main_z	7	main_z	149	stimuli_distractor_trianglediamonds.svg	stimuli_distractor_diamondtriangles.svg	36	no	0	1	2000	0	0			0	0			1				0	
6.6.1	mac	2023-06-02	01:33:30	01:40:38	426668	614a125a754b4a9660643d88	4	1	main_z	7	advance_on_keypress_ZEE	150	stimuli_distractor_trianglediamonds.svg	stimuli_distractor_diamondtriangles.svg	36	no	57	0	284	0	0			0	0			1				0	
6.6.1	mac	2023-06-02	01:33:30	01:40:40	428344	614a125a754b4a9660643d88	4	1	main_z	7	main_z	151	stimuli_distractor_diamondtriangles.svg	stimuli_target_squaretriangles.svg	15	yes	44	1	757	0	0			0	0			1				0	
6.6.1	mac	2023-06-02	01:33:30	01:40:40	428344	614a125a754b4a9660643d88	4	1	main_z	7	advance_on_keypress_ZEE	152	stimuli_distractor_diamondtriangles.svg	stimuli_target_squaretriangles.svg	15	yes	57	0	637	0	0			0	0			1				0	
6.6.1	mac	2023-06-02	01:33:30	01:40:43	431603	614a125a754b4a9660643d88	4	1	main_z	7	main_z	153	stimuli_distractor_diamondtriangles.svg	stimuli_distractor_diamondtriangles.svg	40	no	0	1	2000	0	0			0	0			1				0	
6.6.1	mac	2023-06-02	01:33:30	01:40:43	431603	614a125a754b4a9660643d88	4	1	main_z	7	advance_on_keypress_ZEE	154	stimuli_distractor_diamondtriangles.svg	stimuli_distractor_diamondtriangles.svg	40	no	57	0	369	0	0			0	0			1				0	
6.6.1	mac	2023-06-02	01:33:30	01:40:45	433382	614a125a754b4a9660643d88	4	1	main_z	7	main_z	155	stimuli_target_diamondrectangles.svg	stimuli_distractor_diamondtriangles.svg	23	yes	44	1	777	0	0			0	0			1				0	
6.6.1	mac	2023-06-02	01:33:30	01:40:45	433382	614a125a754b4a9660643d88	4	1	main_z	7	advance_on_keypress_ZEE	156	stimuli_target_diamondrectangles.svg	stimuli_distractor_diamondtriangles.svg	23	yes	57	0	382	0	0			0	0			1				0	
6.6.1	mac	2023-06-02	01:33:30	01:40:46	435249	614a125a754b4a9660643d88	4	1	main_z	7	main_z	157	stimuli_distractor_diamondtriangles.svg	stimuli_target_diamondrectangles.svg	31	yes	44	1	847	0	0			0	0			1				0	
6.6.1	mac	2023-06-02	01:33:30	01:40:46	435249	614a125a754b4a9660643d88	4	1	main_z	7	advance_on_keypress_ZEE	158	stimuli_distractor_diamondtriangles.svg	stimuli_target_diamondrectangles.svg	31	yes	57	0	329	0	0			0	0			1				0	
6.6.1	mac	2023-06-02	01:33:30	01:40:48	437050	614a125a754b4a9660643d88	4	1	main_z	7	main_z	159	stimuli_target_squarediamonds.svg	stimuli_distractor_trianglediamonds.svg	4	yes	44	1	829	0	0			0	0			1				0	
6.6.1	mac	2023-06-02	01:33:30	01:40:48	437050	614a125a754b4a9660643d88	4	1	main_z	7	advance_on_keypress_ZEE	160	stimuli_target_squarediamonds.svg	stimuli_distractor_trianglediamonds.svg	4	yes	57	0	343	0	0			0	0			1				0	
6.6.1	mac	2023-06-02	01:33:30	01:41:08	456972	614a125a754b4a9660643d88	4	1	practice_slash	9	practice_slash	1	stimuli_distractor_diamondtriangles.svg	stimuli_distractor_trianglediamonds.svg	14	no	53	0	731	0	0			0	0			1				0	
6.6.1	mac	2023-06-02	01:33:30	01:41:08	456972	614a125a754b4a9660643d88	4	1	practice_slash	9	advance_on_keypress_SLASH	2	stimuli_distractor_diamondtriangles.svg	stimuli_distractor_trianglediamonds.svg	14	no	57	0	2448	0	0			0	0			1				0	
6.6.1	mac	2023-06-02	01:33:30	01:41:13	461946	614a125a754b4a9660643d88	4	1	practice_slash	9	practice_slash	3	stimuli_distractor_diamondtriangles.svg	stimuli_target_diamondrectangles.svg	8	yes	53	1	890	0	0			0	0			1				0	
6.6.1	mac	2023-06-02	01:33:30	01:41:13	461946	614a125a754b4a9660643d88	4	1	practice_slash	9	advance_on_keypress_SLASH	4	stimuli_distractor_diamondtriangles.svg	stimuli_target_diamondrectangles.svg	8	yes	57	0	403	0	0			0	0			1				0	
6.6.1	mac	2023-06-02	01:33:30	01:41:16	464620	614a125a754b4a9660643d88	4	1	practice_slash	9	practice_slash	5	stimuli_target_squarediamonds.svg	stimuli_distractor_diamondtriangles.svg	2	yes	53	1	646	0	0			0	0			1				0	
6.6.1	mac	2023-06-02	01:33:30	01:41:16	464620	614a125a754b4a9660643d88	4	1	practice_slash	9	advance_on_keypress_SLASH	6	stimuli_target_squarediamonds.svg	stimuli_distractor_diamondtriangles.svg	2	yes	57	0	526	0	0			0	0			1				0	
6.6.1	mac	2023-06-02	01:33:30	01:41:19	467453	614a125a754b4a9660643d88	4	1	practice_slash	9	practice_slash	7	stimuli_distractor_diamondtriangles.svg	stimuli_target_rectangletriangles.svg	7	yes	53	1	679	0	0			0	0			1				0	
6.6.1	mac	2023-06-02	01:33:30	01:41:19	467453	614a125a754b4a9660643d88	4	1	practice_slash	9	advance_on_keypress_SLASH	8	stimuli_distractor_diamondtriangles.svg	stimuli_target_rectangletriangles.svg	7	yes	57	0	448	0	0			0	0			1				0	
6.6.1	mac	2023-06-02	01:33:30	01:41:23	471541	614a125a754b4a9660643d88	4	1	practice_slash	9	practice_slash	9	stimuli_distractor_trianglediamonds.svg	stimuli_distractor_diamondtriangles.svg	16	no	0	1	2000	0	0			0	0			1				0	
6.6.1	mac	2023-06-02	01:33:30	01:41:23	471541	614a125a754b4a9660643d88	4	1	practice_slash	9	advance_on_keypress_SLASH	10	stimuli_distractor_trianglediamonds.svg	stimuli_distractor_diamondtriangles.svg	16	no	57	0	407	0	0			0	0			1				0	
6.6.1	mac	2023-06-02	01:33:30	01:41:27	475575	614a125a754b4a9660643d88	4	1	practice_slash	9	practice_slash	11	stimuli_distractor_trianglediamonds.svg	stimuli_distractor_trianglediamonds.svg	15	no	0	1	2000	0	0			0	0			1				0	
6.6.1	mac	2023-06-02	01:33:30	01:41:27	475575	614a125a754b4a9660643d88	4	1	practice_slash	9	advance_on_keypress_SLASH	12	stimuli_distractor_trianglediamonds.svg	stimuli_distractor_trianglediamonds.svg	15	no	57	0	430	0	0			0	0			1				0	
6.6.1	mac	2023-06-02	01:33:30	01:41:30	478347	614a125a754b4a9660643d88	4	1	practice_slash	9	practice_slash	13	stimuli_target_rectanglediamonds.svg	stimuli_distractor_diamondtriangles.svg	1	yes	53	1	705	0	0			0	0			1				0	
6.6.1	mac	2023-06-02	01:33:30	01:41:30	478347	614a125a754b4a9660643d88	4	1	practice_slash	9	advance_on_keypress_SLASH	14	stimuli_target_rectanglediamonds.svg	stimuli_distractor_diamondtriangles.svg	1	yes	57	0	327	0	0			0	0			1				0	
6.6.1	mac	2023-06-02	01:33:30	01:41:32	481043	614a125a754b4a9660643d88	4	1	practice_slash	9	practice_slash	15	stimuli_target_rectanglediamonds.svg	stimuli_distractor_trianglediamonds.svg	4	yes	53	1	751	0	0			0	0			1				0	
6.6.1	mac	2023-06-02	01:33:30	01:41:32	481043	614a125a754b4a9660643d88	4	1	practice_slash	9	advance_on_keypress_SLASH	16	stimuli_target_rectanglediamonds.svg	stimuli_distractor_trianglediamonds.svg	4	yes	57	0	409	0	0			0	0			1				0	
6.6.1	mac	2023-06-02	01:33:30	01:41:35	483753	614a125a754b4a9660643d88	4	1	practice_slash	9	practice_slash	17	stimuli_target_squarediamonds.svg	stimuli_distractor_trianglediamonds.svg	5	yes	53	1	677	0	0			0	0			1				0	
6.6.1	mac	2023-06-02	01:33:30	01:41:35	483753	614a125a754b4a9660643d88	4	1	practice_slash	9	advance_on_keypress_SLASH	18	stimuli_target_squarediamonds.svg	stimuli_distractor_trianglediamonds.svg	5	yes	57	0	342	0	0			0	0			1				0	
6.6.1	mac	2023-06-02	01:33:30	01:41:38	486547	614a125a754b4a9660643d88	4	1	practice_slash	9	practice_slash	19	stimuli_distractor_diamondtriangles.svg	stimuli_target_trianglerectangles.svg	9	yes	53	1	836	0	0			0	0			1				0	
6.6.1	mac	2023-06-02	01:33:30	01:41:38	486547	614a125a754b4a9660643d88	4	1	practice_slash	9	advance_on_keypress_SLASH	20	stimuli_distractor_diamondtriangles.svg	stimuli_target_trianglerectangles.svg	9	yes	57	0	516	0	0			0	0			1				0	
6.6.1	mac	2023-06-02	01:33:30	01:41:41	489616	614a125a754b4a9660643d88	4	1	practice_slash	9	practice_slash	21	stimuli_distractor_trianglediamonds.svg	stimuli_target_diamondrectangles.svg	12	yes	53	1	922	0	0			0	0			1				0	
6.6.1	mac	2023-06-02	01:33:30	01:41:41	489616	614a125a754b4a9660643d88	4	1	practice_slash	9	advance_on_keypress_SLASH	22	stimuli_distractor_trianglediamonds.svg	stimuli_target_diamondrectangles.svg	12	yes	57	0	337	0	0			0	0			1				0	
6.6.1	mac	2023-06-02	01:33:30	01:41:44	492614	614a125a754b4a9660643d88	4	1	practice_slash	9	practice_slash	23	stimuli_target_diamondsquares.svg	stimuli_distractor_trianglediamonds.svg	6	yes	53	1	1035	0	0			0	0			1				0	
6.6.1	mac	2023-06-02	01:33:30	01:41:44	492614	614a125a754b4a9660643d88	4	1	practice_slash	9	advance_on_keypress_SLASH	24	stimuli_target_diamondsquares.svg	stimuli_distractor_trianglediamonds.svg	6	yes	57	0	436	0	0			0	0			1				0	
6.6.1	mac	2023-06-02	01:33:30	01:41:48	496679	614a125a754b4a9660643d88	4	1	practice_slash	9	practice_slash	25	stimuli_distractor_diamondtriangles.svg	stimuli_distractor_diamondtriangles.svg	13	no	0	1	2000	0	0			0	0			1				0	
6.6.1	mac	2023-06-02	01:33:30	01:41:48	496679	614a125a754b4a9660643d88	4	1	practice_slash	9	advance_on_keypress_SLASH	26	stimuli_distractor_diamondtriangles.svg	stimuli_distractor_diamondtriangles.svg	13	no	57	0	392	0	0			0	0			1				0	
6.6.1	mac	2023-06-02	01:33:30	01:41:51	499428	614a125a754b4a9660643d88	4	1	practice_slash	9	practice_slash	27	stimuli_distractor_trianglediamonds.svg	stimuli_target_rectanglediamonds.svg	10	yes	53	1	733	0	0			0	0			1				0	
6.6.1	mac	2023-06-02	01:33:30	01:41:51	499428	614a125a754b4a9660643d88	4	1	practice_slash	9	advance_on_keypress_SLASH	28	stimuli_distractor_trianglediamonds.svg	stimuli_target_rectanglediamonds.svg	10	yes	57	0	386	0	0			0	0			1				0	
6.6.1	mac	2023-06-02	01:33:30	01:41:53	502279	614a125a754b4a9660643d88	4	1	practice_slash	9	practice_slash	29	stimuli_target_diamondsquares.svg	stimuli_distractor_diamondtriangles.svg	3	yes	53	1	833	0	0			0	0			1				0	
6.6.1	mac	2023-06-02	01:33:30	01:41:53	502279	614a125a754b4a9660643d88	4	1	practice_slash	9	advance_on_keypress_SLASH	30	stimuli_target_diamondsquares.svg	stimuli_distractor_diamondtriangles.svg	3	yes	57	0	380	0	0			0	0			1				0	
6.6.1	mac	2023-06-02	01:33:30	01:41:56	505250	614a125a754b4a9660643d88	4	1	practice_slash	9	practice_slash	31	stimuli_distractor_trianglediamonds.svg	stimuli_target_squarediamonds.svg	11	yes	53	1	954	0	0			0	0			1				0	
6.6.1	mac	2023-06-02	01:33:30	01:41:56	505250	614a125a754b4a9660643d88	4	1	practice_slash	9	advance_on_keypress_SLASH	32	stimuli_distractor_trianglediamonds.svg	stimuli_target_squarediamonds.svg	11	yes	57	0	360	0	0			0	0			1				0	
6.6.1	mac	2023-06-02	01:33:30	01:42:00	509093	614a125a754b4a9660643d88	4	1	main_slash	11	main_slash	1	stimuli_distractor_diamondtriangles.svg	stimuli_target_diamondrectangles.svg	31	yes	53	1	714	0	0			0	0			1				0	
6.6.1	mac	2023-06-02	01:33:30	01:42:00	509093	614a125a754b4a9660643d88	4	1	main_slash	11	advance_on_keypress_SLASH	2	stimuli_distractor_diamondtriangles.svg	stimuli_target_diamondrectangles.svg	31	yes	57	0	486	0	0			0	0			1				0	
6.6.1	mac	2023-06-02	01:33:30	01:42:02	510883	614a125a754b4a9660643d88	4	1	main_slash	11	main_slash	3	stimuli_distractor_trianglediamonds.svg	stimuli_target_squaretriangles.svg	11	yes	53	1	669	0	0			0	0			1				0	
6.6.1	mac	2023-06-02	01:33:30	01:42:02	510883	614a125a754b4a9660643d88	4	1	main_slash	11	advance_on_keypress_SLASH	4	stimuli_distractor_trianglediamonds.svg	stimuli_target_squaretriangles.svg	11	yes	57	0	544	0	0			0	0			1				0	
6.6.1	mac	2023-06-02	01:33:30	01:42:04	512840	614a125a754b4a9660643d88	4	1	main_slash	11	main_slash	5	stimuli_distractor_diamondtriangles.svg	stimuli_target_trianglerectangles.svg	29	yes	53	1	778	0	0			0	0			1				0	
6.6.1	mac	2023-06-02	01:33:30	01:42:04	512840	614a125a754b4a9660643d88	4	1	main_slash	11	advance_on_keypress_SLASH	6	stimuli_distractor_diamondtriangles.svg	stimuli_target_trianglerectangles.svg	29	yes	57	0	399	0	0			0	0			1				0	
6.6.1	mac	2023-06-02	01:33:30	01:42:06	514518	614a125a754b4a9660643d88	4	1	main_slash	11	main_slash	7	stimuli_distractor_trianglediamonds.svg	stimuli_target_squarediamonds.svg	12	yes	53	1	639	0	0			0	0			1				0	
6.6.1	mac	2023-06-02	01:33:30	01:42:06	514518	614a125a754b4a9660643d88	4	1	main_slash	11	advance_on_keypress_SLASH	8	stimuli_distractor_trianglediamonds.svg	stimuli_target_squarediamonds.svg	12	yes	57	0	341	0	0			0	0			1				0	
6.6.1	mac	2023-06-02	01:33:30	01:42:07	516200	614a125a754b4a9660643d88	4	1	main_slash	11	main_slash	9	stimuli_target_diamondsquares.svg	stimuli_distractor_diamondtriangles.svg	24	yes	53	1	720	0	0			0	0			1				0	
6.6.1	mac	2023-06-02	01:33:30	01:42:07	516200	614a125a754b4a9660643d88	4	1	main_slash	11	advance_on_keypress_SLASH	10	stimuli_target_diamondsquares.svg	stimuli_distractor_diamondtriangles.svg	24	yes	57	0	346	0	0			0	0			1				0	
6.6.1	mac	2023-06-02	01:33:30	01:42:09	517889	614a125a754b4a9660643d88	4	1	main_slash	11	main_slash	11	stimuli_distractor_trianglediamonds.svg	stimuli_target_trianglesquares.svg	26	yes	53	1	709	0	0			0	0			1				0	
6.6.1	mac	2023-06-02	01:33:30	01:42:09	517889	614a125a754b4a9660643d88	4	1	main_slash	11	advance_on_keypress_SLASH	12	stimuli_distractor_trianglediamonds.svg	stimuli_target_trianglesquares.svg	26	yes	57	0	437	0	0			0	0			1				0	
6.6.1	mac	2023-06-02	01:33:30	01:42:11	519605	614a125a754b4a9660643d88	4	1	main_slash	11	main_slash	13	stimuli_distractor_trianglediamonds.svg	stimuli_target_diamondsquares.svg	28	yes	53	1	658	0	0			0	0			1				0	
6.6.1	mac	2023-06-02	01:33:30	01:42:11	519605	614a125a754b4a9660643d88	4	1	main_slash	11	advance_on_keypress_SLASH	14	stimuli_distractor_trianglediamonds.svg	stimuli_target_diamondsquares.svg	28	yes	57	0	395	0	0			0	0			1				0	
6.6.1	mac	2023-06-02	01:33:30	01:42:13	521347	614a125a754b4a9660643d88	4	1	main_slash	11	main_slash	15	stimuli_target_diamondsquares.svg	stimuli_distractor_trianglediamonds.svg	20	yes	53	1	717	0	0			0	0			1				0	
6.6.1	mac	2023-06-02	01:33:30	01:42:13	521347	614a125a754b4a9660643d88	4	1	main_slash	11	advance_on_keypress_SLASH	16	stimuli_target_diamondsquares.svg	stimuli_distractor_trianglediamonds.svg	20	yes	57	0	937	0	0			0	0			1				0	
6.6.1	mac	2023-06-02	01:33:30	01:42:16	524913	614a125a754b4a9660643d88	4	1	main_slash	11	main_slash	17	stimuli_distractor_diamondtriangles.svg	stimuli_distractor_diamondtriangles.svg	39	no	0	1	2000	0	0			0	0			1				0	
6.6.1	mac	2023-06-02	01:33:30	01:42:16	524913	614a125a754b4a9660643d88	4	1	main_slash	11	advance_on_keypress_SLASH	18	stimuli_distractor_diamondtriangles.svg	stimuli_distractor_diamondtriangles.svg	39	no	57	0	266	0	0			0	0			1				0	
6.6.1	mac	2023-06-02	01:33:30	01:42:18	526566	614a125a754b4a9660643d88	4	1	main_slash	11	main_slash	19	stimuli_target_trianglesquares.svg	stimuli_distractor_trianglediamonds.svg	18	yes	53	1	752	0	0			0	0			1				0	
6.6.1	mac	2023-06-02	01:33:30	01:42:18	526566	614a125a754b4a9660643d88	4	1	main_slash	11	advance_on_keypress_SLASH	20	stimuli_target_trianglesquares.svg	stimuli_distractor_trianglediamonds.svg	18	yes	57	0	472	0	0			0	0			1				0	
6.6.1	mac	2023-06-02	01:33:30	01:42:19	528150	614a125a754b4a9660643d88	4	1	main_slash	11	main_slash	21	stimuli_target_squarediamonds.svg	stimuli_distractor_trianglediamonds.svg	4	yes	53	1	486	0	0			0	0			1				0	
6.6.1	mac	2023-06-02	01:33:30	01:42:19	528150	614a125a754b4a9660643d88	4	1	main_slash	11	advance_on_keypress_SLASH	22	stimuli_target_squarediamonds.svg	stimuli_distractor_trianglediamonds.svg	4	yes	57	0	392	0	0			0	0			1				0	
6.6.1	mac	2023-06-02	01:33:30	01:42:21	529790	614a125a754b4a9660643d88	4	1	main_slash	11	main_slash	23	stimuli_distractor_trianglediamonds.svg	stimuli_target_rectangletriangles.svg	9	yes	53	1	627	0	0			0	0			1				0	
6.6.1	mac	2023-06-02	01:33:30	01:42:21	529790	614a125a754b4a9660643d88	4	1	main_slash	11	advance_on_keypress_SLASH	24	stimuli_distractor_trianglediamonds.svg	stimuli_target_rectangletriangles.svg	9	yes	57	0	268	0	0			0	0			1				0	
6.6.1	mac	2023-06-02	01:33:30	01:42:24	532681	614a125a754b4a9660643d88	4	1	main_slash	11	main_slash	25	stimuli_distractor_diamondtriangles.svg	stimuli_distractor_trianglediamonds.svg	37	no	0	1	2000	0	0			0	0			1				0	
6.6.1	mac	2023-06-02	01:33:30	01:42:24	532681	614a125a754b4a9660643d88	4	1	main_slash	11	advance_on_keypress_SLASH	26	stimuli_distractor_diamondtriangles.svg	stimuli_distractor_trianglediamonds.svg	37	no	57	0	276	0	0			0	0			1				0	
6.6.1	mac	2023-06-02	01:33:30	01:42:25	534271	614a125a754b4a9660643d88	4	1	main_slash	11	main_slash	27	stimuli_target_squaretriangles.svg	stimuli_distractor_trianglediamonds.svg	3	yes	53	1	689	0	0			0	0			1				0	
6.6.1	mac	2023-06-02	01:33:30	01:42:25	534271	614a125a754b4a9660643d88	4	1	main_slash	11	advance_on_keypress_SLASH	28	stimuli_target_squaretriangles.svg	stimuli_distractor_trianglediamonds.svg	3	yes	57	0	366	0	0			0	0			1				0	
6.6.1	mac	2023-06-02	01:33:30	01:42:27	536037	614a125a754b4a9660643d88	4	1	main_slash	11	main_slash	29	stimuli_target_trianglesquares.svg	stimuli_distractor_diamondtriangles.svg	22	yes	53	1	772	0	0			0	0			1				0	
6.6.1	mac	2023-06-02	01:33:30	01:42:27	536037	614a125a754b4a9660643d88	4	1	main_slash	11	advance_on_keypress_SLASH	30	stimuli_target_trianglesquares.svg	stimuli_distractor_diamondtriangles.svg	22	yes	57	0	414	0	0			0	0			1				0	
6.6.1	mac	2023-06-02	01:33:30	01:42:29	537922	614a125a754b4a9660643d88	4	1	main_slash	11	main_slash	31	stimuli_distractor_trianglediamonds.svg	stimuli_target_trianglerectangles.svg	25	yes	53	1	840	0	0			0	0			1				0	
6.6.1	mac	2023-06-02	01:33:30	01:42:29	537922	614a125a754b4a9660643d88	4	1	main_slash	11	advance_on_keypress_SLASH	32	stimuli_distractor_trianglediamonds.svg	stimuli_target_trianglerectangles.svg	25	yes	57	0	272	0	0			0	0			1				0	
6.6.1	mac	2023-06-02	01:33:30	01:42:31	539507	614a125a754b4a9660643d88	4	1	main_slash	11	main_slash	33	stimuli_target_squarediamonds.svg	stimuli_distractor_diamondtriangles.svg	8	yes	53	1	691	0	0			0	0			1				0	
6.6.1	mac	2023-06-02	01:33:30	01:42:31	539507	614a125a754b4a9660643d88	4	1	main_slash	11	advance_on_keypress_SLASH	34	stimuli_target_squarediamonds.svg	stimuli_distractor_diamondtriangles.svg	8	yes	57	0	292	0	0			0	0			1				0	
6.6.1	mac	2023-06-02	01:33:30	01:42:32	541172	614a125a754b4a9660643d88	4	1	main_slash	11	main_slash	35	stimuli_target_diamondrectangles.svg	stimuli_distractor_diamondtriangles.svg	23	yes	53	1	756	0	0			0	0			1				0	
6.6.1	mac	2023-06-02	01:33:30	01:42:32	541172	614a125a754b4a9660643d88	4	1	main_slash	11	advance_on_keypress_SLASH	36	stimuli_target_diamondrectangles.svg	stimuli_distractor_diamondtriangles.svg	23	yes	57	0	259	0	0			0	0			1				0	
6.6.1	mac	2023-06-02	01:33:30	01:42:34	542743	614a125a754b4a9660643d88	4	1	main_slash	11	main_slash	37	stimuli_target_squaretriangles.svg	stimuli_distractor_diamondtriangles.svg	7	yes	53	1	693	0	0			0	0			1				0	
6.6.1	mac	2023-06-02	01:33:30	01:42:34	542743	614a125a754b4a9660643d88	4	1	main_slash	11	advance_on_keypress_SLASH	38	stimuli_target_squaretriangles.svg	stimuli_distractor_diamondtriangles.svg	7	yes	57	0	257	0	0			0	0			1				0	
6.6.1	mac	2023-06-02	01:33:30	01:42:37	545631	614a125a754b4a9660643d88	4	1	main_slash	11	main_slash	39	stimuli_distractor_diamondtriangles.svg	stimuli_target_rectanglediamonds.svg	14	yes	0	0	2000	0	0			0	0			1				0	
6.6.1	mac	2023-06-02	01:33:30	01:42:37	545631	614a125a754b4a9660643d88	4	1	main_slash	11	advance_on_keypress_SLASH	40	stimuli_distractor_diamondtriangles.svg	stimuli_target_rectanglediamonds.svg	14	yes	57	0	426	0	0			0	0			1				0	
6.6.1	mac	2023-06-02	01:33:30	01:42:40	548682	614a125a754b4a9660643d88	4	1	main_slash	11	main_slash	41	stimuli_target_trianglerectangles.svg	stimuli_distractor_trianglediamonds.svg	17	yes	0	0	2000	0	0			0	0			1				0	
6.6.1	mac	2023-06-02	01:33:30	01:42:40	548682	614a125a754b4a9660643d88	4	1	main_slash	11	advance_on_keypress_SLASH	42	stimuli_target_trianglerectangles.svg	stimuli_distractor_trianglediamonds.svg	17	yes	57	0	882	0	0			0	0			1				0	
6.6.1	mac	2023-06-02	01:33:30	01:42:42	551092	614a125a754b4a9660643d88	4	1	main_slash	11	main_slash	43	stimuli_distractor_trianglediamonds.svg	stimuli_distractor_diamondtriangles.svg	35	no	53	0	892	0	0			0	0			1				0	
6.6.1	mac	2023-06-02	01:33:30	01:42:42	551092	614a125a754b4a9660643d88	4	1	main_slash	11	advance_on_keypress_SLASH	44	stimuli_distractor_trianglediamonds.svg	stimuli_distractor_diamondtriangles.svg	35	no	57	0	373	0	0			0	0			1				0	
6.6.1	mac	2023-06-02	01:33:30	01:42:44	552846	614a125a754b4a9660643d88	4	1	main_slash	11	main_slash	45	stimuli_distractor_trianglediamonds.svg	stimuli_target_diamondrectangles.svg	27	yes	53	1	762	0	0			0	0			1				0	
6.6.1	mac	2023-06-02	01:33:30	01:42:44	552846	614a125a754b4a9660643d88	4	1	main_slash	11	advance_on_keypress_SLASH	46	stimuli_distractor_trianglediamonds.svg	stimuli_target_diamondrectangles.svg	27	yes	57	0	360	0	0			0	0			1				0	
6.6.1	mac	2023-06-02	01:33:30	01:42:46	554562	614a125a754b4a9660643d88	4	1	main_slash	11	main_slash	47	stimuli_distractor_trianglediamonds.svg	stimuli_target_rectanglediamonds.svg	10	yes	53	1	728	0	0			0	0			1				0	
6.6.1	mac	2023-06-02	01:33:30	01:42:46	554562	614a125a754b4a9660643d88	4	1	main_slash	11	advance_on_keypress_SLASH	48	stimuli_distractor_trianglediamonds.svg	stimuli_target_rectanglediamonds.svg	10	yes	57	0	383	0	0			0	0			1				0	
6.6.1	mac	2023-06-02	01:33:30	01:42:48	556414	614a125a754b4a9660643d88	4	1	main_slash	11	main_slash	49	stimuli_target_rectanglediamonds.svg	stimuli_distractor_trianglediamonds.svg	2	yes	53	1	829	0	0			0	0			1				0	
6.6.1	mac	2023-06-02	01:33:30	01:42:48	556414	614a125a754b4a9660643d88	4	1	main_slash	11	advance_on_keypress_SLASH	50	stimuli_target_rectanglediamonds.svg	stimuli_distractor_trianglediamonds.svg	2	yes	57	0	1046	0	0			0	0			1				0	
6.6.1	mac	2023-06-02	01:33:30	01:42:50	559212	614a125a754b4a9660643d88	4	1	main_slash	11	main_slash	51	stimuli_target_rectangletriangles.svg	stimuli_distractor_diamondtriangles.svg	5	yes	53	1	1111	0	0			0	0			1				0	
6.6.1	mac	2023-06-02	01:33:30	01:42:50	559212	614a125a754b4a9660643d88	4	1	main_slash	11	advance_on_keypress_SLASH	52	stimuli_target_rectangletriangles.svg	stimuli_distractor_diamondtriangles.svg	5	yes	57	0	602	0	0			0	0			1				0	
6.6.1	mac	2023-06-02	01:33:30	01:42:53	561404	614a125a754b4a9660643d88	4	1	main_slash	11	main_slash	53	stimuli_distractor_diamondtriangles.svg	stimuli_target_squaretriangles.svg	15	yes	53	1	952	0	0			0	0			1				0	
6.6.1	mac	2023-06-02	01:33:30	01:42:53	561404	614a125a754b4a9660643d88	4	1	main_slash	11	advance_on_keypress_SLASH	54	stimuli_distractor_diamondtriangles.svg	stimuli_target_squaretriangles.svg	15	yes	57	0	656	0	0			0	0			1				0	
6.6.1	mac	2023-06-02	01:33:30	01:42:55	563603	614a125a754b4a9660643d88	4	1	main_slash	11	main_slash	55	stimuli_distractor_diamondtriangles.svg	stimuli_target_squarediamonds.svg	16	yes	53	1	918	0	0			0	0			1				0	
6.6.1	mac	2023-06-02	01:33:30	01:42:55	563603	614a125a754b4a9660643d88	4	1	main_slash	11	advance_on_keypress_SLASH	56	stimuli_distractor_diamondtriangles.svg	stimuli_target_squarediamonds.svg	16	yes	57	0	592	0	0			0	0			1				0	
6.6.1	mac	2023-06-02	01:33:30	01:42:58	566818	614a125a754b4a9660643d88	4	1	main_slash	11	main_slash	57	stimuli_distractor_diamondtriangles.svg	stimuli_distractor_diamondtriangles.svg	40	no	0	1	2000	0	0			0	0			1				0	
6.6.1	mac	2023-06-02	01:33:30	01:42:58	566818	614a125a754b4a9660643d88	4	1	main_slash	11	advance_on_keypress_SLASH	58	stimuli_distractor_diamondtriangles.svg	stimuli_distractor_diamondtriangles.svg	40	no	57	0	382	0	0			0	0			1				0	
6.6.1	mac	2023-06-02	01:33:30	01:43:01	569834	614a125a754b4a9660643d88	4	1	main_slash	11	main_slash	59	stimuli_distractor_trianglediamonds.svg	stimuli_distractor_diamondtriangles.svg	36	no	0	1	2000	0	0			0	0			1				0	
6.6.1	mac	2023-06-02	01:33:30	01:43:01	569834	614a125a754b4a9660643d88	4	1	main_slash	11	advance_on_keypress_SLASH	60	stimuli_distractor_trianglediamonds.svg	stimuli_distractor_diamondtriangles.svg	36	no	57	0	359	0	0			0	0			1				0	
6.6.1	mac	2023-06-02	01:33:30	01:43:04	572819	614a125a754b4a9660643d88	4	1	main_slash	11	main_slash	61	stimuli_distractor_trianglediamonds.svg	stimuli_distractor_trianglediamonds.svg	34	no	0	1	2000	0	0			0	0			1				0	
6.6.1	mac	2023-06-02	01:33:30	01:43:04	572819	614a125a754b4a9660643d88	4	1	main_slash	11	advance_on_keypress_SLASH	62	stimuli_distractor_trianglediamonds.svg	stimuli_distractor_trianglediamonds.svg	34	no	57	0	273	0	0			0	0			1				0	
6.6.1	mac	2023-06-02	01:33:30	01:43:07	575719	614a125a754b4a9660643d88	4	1	main_slash	11	main_slash	63	stimuli_distractor_diamondtriangles.svg	stimuli_distractor_trianglediamonds.svg	38	no	0	1	2000	0	0			0	0			1				0	
6.6.1	mac	2023-06-02	01:33:30	01:43:07	575719	614a125a754b4a9660643d88	4	1	main_slash	11	advance_on_keypress_SLASH	64	stimuli_distractor_diamondtriangles.svg	stimuli_distractor_trianglediamonds.svg	38	no	57	0	287	0	0			0	0			1				0	
6.6.1	mac	2023-06-02	01:33:30	01:43:09	577502	614a125a754b4a9660643d88	4	1	main_slash	11	main_slash	65	stimuli_target_trianglerectangles.svg	stimuli_distractor_diamondtriangles.svg	21	yes	53	1	865	0	0			0	0			1				0	
6.6.1	mac	2023-06-02	01:33:30	01:43:09	577502	614a125a754b4a9660643d88	4	1	main_slash	11	advance_on_keypress_SLASH	66	stimuli_target_trianglerectangles.svg	stimuli_distractor_diamondtriangles.svg	21	yes	57	0	385	0	0			0	0			1				0	
6.6.1	mac	2023-06-02	01:33:30	01:43:12	580336	614a125a754b4a9660643d88	4	1	main_slash	11	main_slash	67	stimuli_target_rectanglediamonds.svg	stimuli_distractor_diamondtriangles.svg	6	yes	53	1	1814	0	0			0	0			1				0	
6.6.1	mac	2023-06-02	01:33:30	01:43:12	580336	614a125a754b4a9660643d88	4	1	main_slash	11	advance_on_keypress_SLASH	68	stimuli_target_rectanglediamonds.svg	stimuli_distractor_diamondtriangles.svg	6	yes	57	0	500	0	0			0	0			1				0	
6.6.1	mac	2023-06-02	01:33:30	01:43:13	582246	614a125a754b4a9660643d88	4	1	main_slash	11	main_slash	69	stimuli_distractor_diamondtriangles.svg	stimuli_target_rectangletriangles.svg	13	yes	53	1	776	0	0			0	0			1				0	
6.6.1	mac	2023-06-02	01:33:30	01:43:13	582246	614a125a754b4a9660643d88	4	1	main_slash	11	advance_on_keypress_SLASH	70	stimuli_distractor_diamondtriangles.svg	stimuli_target_rectangletriangles.svg	13	yes	57	0	367	0	0			0	0			1				0	
6.6.1	mac	2023-06-02	01:33:30	01:43:16	585236	614a125a754b4a9660643d88	4	1	main_slash	11	main_slash	71	stimuli_target_diamondrectangles.svg	stimuli_distractor_trianglediamonds.svg	19	yes	0	0	2000	0	0			0	0			1				0	
6.6.1	mac	2023-06-02	01:33:30	01:43:16	585236	614a125a754b4a9660643d88	4	1	main_slash	11	advance_on_keypress_SLASH	72	stimuli_target_diamondrectangles.svg	stimuli_distractor_trianglediamonds.svg	19	yes	57	0	318	0	0			0	0			1				0	
6.6.1	mac	2023-06-02	01:33:30	01:43:18	587037	614a125a754b4a9660643d88	4	1	main_slash	11	main_slash	73	stimuli_distractor_diamondtriangles.svg	stimuli_target_diamondsquares.svg	32	yes	53	1	850	0	0			0	0			1				0	
6.6.1	mac	2023-06-02	01:33:30	01:43:18	587037	614a125a754b4a9660643d88	4	1	main_slash	11	advance_on_keypress_SLASH	74	stimuli_distractor_diamondtriangles.svg	stimuli_target_diamondsquares.svg	32	yes	57	0	286	0	0			0	0			1				0	
6.6.1	mac	2023-06-02	01:33:30	01:43:20	589234	614a125a754b4a9660643d88	4	1	main_slash	11	main_slash	75	stimuli_distractor_diamondtriangles.svg	stimuli_target_trianglesquares.svg	30	yes	53	1	1280	0	0			0	0			1				0	
6.6.1	mac	2023-06-02	01:33:30	01:43:20	589234	614a125a754b4a9660643d88	4	1	main_slash	11	advance_on_keypress_SLASH	76	stimuli_distractor_diamondtriangles.svg	stimuli_target_trianglesquares.svg	30	yes	57	0	259	0	0			0	0			1				0	
6.6.1	mac	2023-06-02	01:33:30	01:43:22	591064	614a125a754b4a9660643d88	4	1	main_slash	11	main_slash	77	stimuli_target_rectangletriangles.svg	stimuli_distractor_trianglediamonds.svg	1	yes	53	1	942	0	0			0	0			1				0	
6.6.1	mac	2023-06-02	01:33:30	01:43:22	591064	614a125a754b4a9660643d88	4	1	main_slash	11	advance_on_keypress_SLASH	78	stimuli_target_rectangletriangles.svg	stimuli_distractor_trianglediamonds.svg	1	yes	57	0	244	0	0			0	0			1				0	
6.6.1	mac	2023-06-02	01:33:30	01:43:25	593920	614a125a754b4a9660643d88	4	1	main_slash	11	main_slash	79	stimuli_distractor_trianglediamonds.svg	stimuli_distractor_trianglediamonds.svg	33	no	0	1	2000	0	0			0	0			1				0	
6.6.1	mac	2023-06-02	01:33:30	01:43:25	593920	614a125a754b4a9660643d88	4	1	main_slash	11	advance_on_keypress_SLASH	80	stimuli_distractor_trianglediamonds.svg	stimuli_distractor_trianglediamonds.svg	33	no	57	0	286	0	0			0	0			1				0	
6.6.1	mac	2023-06-02	01:33:30	01:43:27	595670	614a125a754b4a9660643d88	4	1	main_slash	11	main_slash	81	stimuli_target_trianglesquares.svg	stimuli_distractor_trianglediamonds.svg	18	yes	53	1	832	0	0			0	0			1				0	
6.6.1	mac	2023-06-02	01:33:30	01:43:27	595670	614a125a754b4a9660643d88	4	1	main_slash	11	advance_on_keypress_SLASH	82	stimuli_target_trianglesquares.svg	stimuli_distractor_trianglediamonds.svg	18	yes	57	0	238	0	0			0	0			1				0	
6.6.1	mac	2023-06-02	01:33:30	01:43:30	598537	614a125a754b4a9660643d88	4	1	main_slash	11	main_slash	83	stimuli_distractor_diamondtriangles.svg	stimuli_distractor_diamondtriangles.svg	40	no	0	1	2000	0	0			0	0			1				0	
6.6.1	mac	2023-06-02	01:33:30	01:43:30	598537	614a125a754b4a9660643d88	4	1	main_slash	11	advance_on_keypress_SLASH	84	stimuli_distractor_diamondtriangles.svg	stimuli_distractor_diamondtriangles.svg	40	no	57	0	276	0	0			0	0			1				0	
6.6.1	mac	2023-06-02	01:33:30	01:43:31	600303	614a125a754b4a9660643d88	4	1	main_slash	11	main_slash	85	stimuli_distractor_diamondtriangles.svg	stimuli_target_rectanglediamonds.svg	14	yes	53	1	864	0	0			0	0			1				0	
6.6.1	mac	2023-06-02	01:33:30	01:43:31	600303	614a125a754b4a9660643d88	4	1	main_slash	11	advance_on_keypress_SLASH	86	stimuli_distractor_diamondtriangles.svg	stimuli_target_rectanglediamonds.svg	14	yes	57	0	282	0	0			0	0			1				0	
6.6.1	mac	2023-06-02	01:33:30	01:43:33	602010	614a125a754b4a9660643d88	4	1	main_slash	11	main_slash	87	stimuli_distractor_trianglediamonds.svg	stimuli_target_rectanglediamonds.svg	10	yes	53	1	788	0	0			0	0			1				0	
6.6.1	mac	2023-06-02	01:33:30	01:43:33	602010	614a125a754b4a9660643d88	4	1	main_slash	11	advance_on_keypress_SLASH	88	stimuli_distractor_trianglediamonds.svg	stimuli_target_rectanglediamonds.svg	10	yes	57	0	260	0	0			0	0			1				0	
6.6.1	mac	2023-06-02	01:33:30	01:43:35	603624	614a125a754b4a9660643d88	4	1	main_slash	11	main_slash	89	stimuli_distractor_diamondtriangles.svg	stimuli_target_diamondsquares.svg	32	yes	53	1	719	0	0			0	0			1				0	
6.6.1	mac	2023-06-02	01:33:30	01:43:35	603624	614a125a754b4a9660643d88	4	1	main_slash	11	advance_on_keypress_SLASH	90	stimuli_distractor_diamondtriangles.svg	stimuli_target_diamondsquares.svg	32	yes	57	0	270	0	0			0	0			1				0	
6.6.1	mac	2023-06-02	01:33:30	01:43:36	605274	614a125a754b4a9660643d88	4	1	main_slash	11	main_slash	91	stimuli_distractor_diamondtriangles.svg	stimuli_target_trianglerectangles.svg	29	yes	53	1	751	0	0			0	0			1				0	
6.6.1	mac	2023-06-02	01:33:30	01:43:36	605274	614a125a754b4a9660643d88	4	1	main_slash	11	advance_on_keypress_SLASH	92	stimuli_distractor_diamondtriangles.svg	stimuli_target_trianglerectangles.svg	29	yes	57	0	324	0	0			0	0			1				0	
6.6.1	mac	2023-06-02	01:33:30	01:43:39	607493	614a125a754b4a9660643d88	4	1	main_slash	11	main_slash	93	stimuli_target_rectangletriangles.svg	stimuli_distractor_diamondtriangles.svg	5	yes	53	1	1270	0	0			0	0			1				0	
6.6.1	mac	2023-06-02	01:33:30	01:43:39	607493	614a125a754b4a9660643d88	4	1	main_slash	11	advance_on_keypress_SLASH	94	stimuli_target_rectangletriangles.svg	stimuli_distractor_diamondtriangles.svg	5	yes	57	0	297	0	0			0	0			1				0	
6.6.1	mac	2023-06-02	01:33:30	01:43:40	609111	614a125a754b4a9660643d88	4	1	main_slash	11	main_slash	95	stimuli_distractor_trianglediamonds.svg	stimuli_target_squaretriangles.svg	11	yes	53	1	689	0	0			0	0			1				0	
6.6.1	mac	2023-06-02	01:33:30	01:43:40	609111	614a125a754b4a9660643d88	4	1	main_slash	11	advance_on_keypress_SLASH	96	stimuli_distractor_trianglediamonds.svg	stimuli_target_squaretriangles.svg	11	yes	57	0	456	0	0			0	0			1				0	
6.6.1	mac	2023-06-02	01:33:30	01:43:42	610863	614a125a754b4a9660643d88	4	1	main_slash	11	main_slash	97	stimuli_target_squarediamonds.svg	stimuli_distractor_diamondtriangles.svg	8	yes	53	1	672	0	0			0	0			1				0	
6.6.1	mac	2023-06-02	01:33:30	01:43:42	610863	614a125a754b4a9660643d88	4	1	main_slash	11	advance_on_keypress_SLASH	98	stimuli_target_squarediamonds.svg	stimuli_distractor_diamondtriangles.svg	8	yes	57	0	336	0	0			0	0			1				0	
6.6.1	mac	2023-06-02	01:33:30	01:43:44	612577	614a125a754b4a9660643d88	4	1	main_slash	11	main_slash	99	stimuli_distractor_diamondtriangles.svg	stimuli_target_squarediamonds.svg	16	yes	53	1	753	0	0			0	0			1				0	
6.6.1	mac	2023-06-02	01:33:30	01:43:44	612577	614a125a754b4a9660643d88	4	1	main_slash	11	advance_on_keypress_SLASH	100	stimuli_distractor_diamondtriangles.svg	stimuli_target_squarediamonds.svg	16	yes	57	0	324	0	0			0	0			1				0	
6.6.1	mac	2023-06-02	01:33:30	01:43:46	614469	614a125a754b4a9660643d88	4	1	main_slash	11	main_slash	101	stimuli_distractor_trianglediamonds.svg	stimuli_distractor_diamondtriangles.svg	35	no	53	0	945	0	0			0	0			1				0	
6.6.1	mac	2023-06-02	01:33:30	01:43:46	614469	614a125a754b4a9660643d88	4	1	main_slash	11	advance_on_keypress_SLASH	102	stimuli_distractor_trianglediamonds.svg	stimuli_distractor_diamondtriangles.svg	35	no	57	0	314	0	0			0	0			1				0	
6.6.1	mac	2023-06-02	01:33:30	01:43:47	616154	614a125a754b4a9660643d88	4	1	main_slash	11	main_slash	103	stimuli_distractor_diamondtriangles.svg	stimuli_target_rectangletriangles.svg	13	yes	53	1	730	0	0			0	0			1				0	
6.6.1	mac	2023-06-02	01:33:30	01:43:47	616154	614a125a754b4a9660643d88	4	1	main_slash	11	advance_on_keypress_SLASH	104	stimuli_distractor_diamondtriangles.svg	stimuli_target_rectangletriangles.svg	13	yes	57	0	366	0	0			0	0			1				0	
6.6.1	mac	2023-06-02	01:33:30	01:43:49	618319	614a125a754b4a9660643d88	4	1	main_slash	11	main_slash	105	stimuli_target_diamondrectangles.svg	stimuli_distractor_trianglediamonds.svg	19	yes	53	1	1160	0	0			0	0			1				0	
6.6.1	mac	2023-06-02	01:33:30	01:43:49	618319	614a125a754b4a9660643d88	4	1	main_slash	11	advance_on_keypress_SLASH	106	stimuli_target_diamondrectangles.svg	stimuli_distractor_trianglediamonds.svg	19	yes	57	0	377	0	0			0	0			1				0	
6.6.1	mac	2023-06-02	01:33:30	01:43:51	620164	614a125a754b4a9660643d88	4	1	main_slash	11	main_slash	107	stimuli_target_rectanglediamonds.svg	stimuli_distractor_diamondtriangles.svg	6	yes	53	1	839	0	0			0	0			1				0	
6.6.1	mac	2023-06-02	01:33:30	01:43:51	620164	614a125a754b4a9660643d88	4	1	main_slash	11	advance_on_keypress_SLASH	108	stimuli_target_rectanglediamonds.svg	stimuli_distractor_diamondtriangles.svg	6	yes	57	0	342	0	0			0	0			1				0	
6.6.1	mac	2023-06-02	01:33:30	01:43:53	621830	614a125a754b4a9660643d88	4	1	main_slash	11	main_slash	109	stimuli_distractor_trianglediamonds.svg	stimuli_target_squarediamonds.svg	12	yes	53	1	705	0	0			0	0			1				0	
6.6.1	mac	2023-06-02	01:33:30	01:43:53	621830	614a125a754b4a9660643d88	4	1	main_slash	11	advance_on_keypress_SLASH	110	stimuli_distractor_trianglediamonds.svg	stimuli_target_squarediamonds.svg	12	yes	57	0	372	0	0			0	0			1				0	
6.6.1	mac	2023-06-02	01:33:30	01:43:55	623683	614a125a754b4a9660643d88	4	1	main_slash	11	main_slash	111	stimuli_target_diamondrectangles.svg	stimuli_distractor_diamondtriangles.svg	23	yes	53	1	857	0	0			0	0			1				0	
6.6.1	mac	2023-06-02	01:33:30	01:43:55	623683	614a125a754b4a9660643d88	4	1	main_slash	11	advance_on_keypress_SLASH	112	stimuli_target_diamondrectangles.svg	stimuli_distractor_diamondtriangles.svg	23	yes	57	0	287	0	0			0	0			1				0	
6.6.1	mac	2023-06-02	01:33:30	01:43:58	626590	614a125a754b4a9660643d88	4	1	main_slash	11	main_slash	113	stimuli_distractor_trianglediamonds.svg	stimuli_distractor_trianglediamonds.svg	33	no	0	1	2000	0	0			0	0			1				0	
6.6.1	mac	2023-06-02	01:33:30	01:43:58	626590	614a125a754b4a9660643d88	4	1	main_slash	11	advance_on_keypress_SLASH	114	stimuli_distractor_trianglediamonds.svg	stimuli_distractor_trianglediamonds.svg	33	no	57	0	295	0	0			0	0			1				0	
6.6.1	mac	2023-06-02	01:33:30	01:44:00	628779	614a125a754b4a9660643d88	4	1	main_slash	11	main_slash	115	stimuli_distractor_trianglediamonds.svg	stimuli_target_diamondrectangles.svg	27	yes	53	1	1254	0	0			0	0			1				0	
6.6.1	mac	2023-06-02	01:33:30	01:44:00	628779	614a125a754b4a9660643d88	4	1	main_slash	11	advance_on_keypress_SLASH	116	stimuli_distractor_trianglediamonds.svg	stimuli_target_diamondrectangles.svg	27	yes	57	0	247	0	0			0	0			1				0	
6.6.1	mac	2023-06-02	01:33:30	01:44:02	630524	614a125a754b4a9660643d88	4	1	main_slash	11	main_slash	117	stimuli_target_trianglerectangles.svg	stimuli_distractor_trianglediamonds.svg	17	yes	53	1	865	0	0			0	0			1				0	
6.6.1	mac	2023-06-02	01:33:30	01:44:02	630524	614a125a754b4a9660643d88	4	1	main_slash	11	advance_on_keypress_SLASH	118	stimuli_target_trianglerectangles.svg	stimuli_distractor_trianglediamonds.svg	17	yes	57	0	332	0	0			0	0			1				0	
6.6.1	mac	2023-06-02	01:33:30	01:44:03	632239	614a125a754b4a9660643d88	4	1	main_slash	11	main_slash	119	stimuli_target_squarediamonds.svg	stimuli_distractor_trianglediamonds.svg	4	yes	53	1	748	0	0			0	0			1				0	
6.6.1	mac	2023-06-02	01:33:30	01:44:03	632239	614a125a754b4a9660643d88	4	1	main_slash	11	advance_on_keypress_SLASH	120	stimuli_target_squarediamonds.svg	stimuli_distractor_trianglediamonds.svg	4	yes	57	0	249	0	0			0	0			1				0	
6.6.1	mac	2023-06-02	01:33:30	01:44:05	633964	614a125a754b4a9660643d88	4	1	main_slash	11	main_slash	121	stimuli_distractor_diamondtriangles.svg	stimuli_target_diamondrectangles.svg	31	yes	53	1	838	0	0			0	0			1				0	
6.6.1	mac	2023-06-02	01:33:30	01:44:05	633964	614a125a754b4a9660643d88	4	1	main_slash	11	advance_on_keypress_SLASH	122	stimuli_distractor_diamondtriangles.svg	stimuli_target_diamondrectangles.svg	31	yes	57	0	302	0	0			0	0			1				0	
6.6.1	mac	2023-06-02	01:33:30	01:44:07	635672	614a125a754b4a9660643d88	4	1	main_slash	11	main_slash	123	stimuli_target_diamondsquares.svg	stimuli_distractor_trianglediamonds.svg	20	yes	53	1	780	0	0			0	0			1				0	
6.6.1	mac	2023-06-02	01:33:30	01:44:07	635672	614a125a754b4a9660643d88	4	1	main_slash	11	advance_on_keypress_SLASH	124	stimuli_target_diamondsquares.svg	stimuli_distractor_trianglediamonds.svg	20	yes	57	0	425	0	0			0	0			1				0	
6.6.1	mac	2023-06-02	01:33:30	01:44:09	637477	614a125a754b4a9660643d88	4	1	main_slash	11	main_slash	125	stimuli_distractor_trianglediamonds.svg	stimuli_target_trianglerectangles.svg	25	yes	53	1	751	0	0			0	0			1				0	
6.6.1	mac	2023-06-02	01:33:30	01:44:09	637477	614a125a754b4a9660643d88	4	1	main_slash	11	advance_on_keypress_SLASH	126	stimuli_distractor_trianglediamonds.svg	stimuli_target_trianglerectangles.svg	25	yes	57	0	277	0	0			0	0			1				0	
6.6.1	mac	2023-06-02	01:33:30	01:44:12	640376	614a125a754b4a9660643d88	4	1	main_slash	11	main_slash	127	stimuli_distractor_trianglediamonds.svg	stimuli_distractor_trianglediamonds.svg	34	no	0	1	2000	0	0			0	0			1				0	
6.6.1	mac	2023-06-02	01:33:30	01:44:12	640376	614a125a754b4a9660643d88	4	1	main_slash	11	advance_on_keypress_SLASH	128	stimuli_distractor_trianglediamonds.svg	stimuli_distractor_trianglediamonds.svg	34	no	57	0	277	0	0			0	0			1				0	
6.6.1	mac	2023-06-02	01:33:30	01:44:13	642090	614a125a754b4a9660643d88	4	1	main_slash	11	main_slash	129	stimuli_distractor_diamondtriangles.svg	stimuli_distractor_trianglediamonds.svg	37	no	53	0	813	0	0			0	0			1				0	
6.6.1	mac	2023-06-02	01:33:30	01:44:13	642090	614a125a754b4a9660643d88	4	1	main_slash	11	advance_on_keypress_SLASH	130	stimuli_distractor_diamondtriangles.svg	stimuli_distractor_trianglediamonds.svg	37	no	57	0	474	0	0			0	0			1				0	
6.6.1	mac	2023-06-02	01:33:30	01:44:15	643879	614a125a754b4a9660643d88	4	1	main_slash	11	main_slash	131	stimuli_target_trianglesquares.svg	stimuli_distractor_diamondtriangles.svg	22	yes	53	1	685	0	0			0	0			1				0	
6.6.1	mac	2023-06-02	01:33:30	01:44:15	643879	614a125a754b4a9660643d88	4	1	main_slash	11	advance_on_keypress_SLASH	132	stimuli_target_trianglesquares.svg	stimuli_distractor_diamondtriangles.svg	22	yes	57	0	283	0	0			0	0			1				0	
6.6.1	mac	2023-06-02	01:33:30	01:44:18	646792	614a125a754b4a9660643d88	4	1	main_slash	11	main_slash	133	stimuli_distractor_diamondtriangles.svg	stimuli_distractor_diamondtriangles.svg	39	no	0	1	2000	0	0			0	0			1				0	
6.6.1	mac	2023-06-02	01:33:30	01:44:18	646792	614a125a754b4a9660643d88	4	1	main_slash	11	advance_on_keypress_SLASH	134	stimuli_distractor_diamondtriangles.svg	stimuli_distractor_diamondtriangles.svg	39	no	57	0	265	0	0			0	0			1				0	
6.6.1	mac	2023-06-02	01:33:30	01:44:20	648524	614a125a754b4a9660643d88	4	1	main_slash	11	main_slash	135	stimuli_target_rectanglediamonds.svg	stimuli_distractor_trianglediamonds.svg	2	yes	53	1	830	0	0			0	0			1				0	
6.6.1	mac	2023-06-02	01:33:30	01:44:20	648524	614a125a754b4a9660643d88	4	1	main_slash	11	advance_on_keypress_SLASH	136	stimuli_target_rectanglediamonds.svg	stimuli_distractor_trianglediamonds.svg	2	yes	57	0	234	0	0			0	0			1				0	
6.6.1	mac	2023-06-02	01:33:30	01:44:23	651393	614a125a754b4a9660643d88	4	1	main_slash	11	main_slash	137	stimuli_distractor_trianglediamonds.svg	stimuli_distractor_diamondtriangles.svg	36	no	0	1	2000	0	0			0	0			1				0	
6.6.1	mac	2023-06-02	01:33:30	01:44:23	651393	614a125a754b4a9660643d88	4	1	main_slash	11	advance_on_keypress_SLASH	138	stimuli_distractor_trianglediamonds.svg	stimuli_distractor_diamondtriangles.svg	36	no	57	0	380	0	0			0	0			1				0	
6.6.1	mac	2023-06-02	01:33:30	01:44:25	653970	614a125a754b4a9660643d88	4	1	main_slash	11	main_slash	139	stimuli_distractor_diamondtriangles.svg	stimuli_target_squaretriangles.svg	15	yes	53	1	1558	0	0			0	0			1				0	
6.6.1	mac	2023-06-02	01:33:30	01:44:25	653970	614a125a754b4a9660643d88	4	1	main_slash	11	advance_on_keypress_SLASH	140	stimuli_distractor_diamondtriangles.svg	stimuli_target_squaretriangles.svg	15	yes	57	0	262	0	0			0	0			1				0	
6.6.1	mac	2023-06-02	01:33:30	01:44:28	656860	614a125a754b4a9660643d88	4	1	main_slash	11	main_slash	141	stimuli_distractor_diamondtriangles.svg	stimuli_distractor_trianglediamonds.svg	38	no	0	1	2000	0	0			0	0			1				0	
6.6.1	mac	2023-06-02	01:33:30	01:44:28	656860	614a125a754b4a9660643d88	4	1	main_slash	11	advance_on_keypress_SLASH	142	stimuli_distractor_diamondtriangles.svg	stimuli_distractor_trianglediamonds.svg	38	no	57	0	277	0	0			0	0			1				0	
6.6.1	mac	2023-06-02	01:33:30	01:44:30	658398	614a125a754b4a9660643d88	4	1	main_slash	11	main_slash	143	stimuli_target_squaretriangles.svg	stimuli_distractor_trianglediamonds.svg	3	yes	53	1	619	0	0			0	0			1				0	
6.6.1	mac	2023-06-02	01:33:30	01:44:30	658398	614a125a754b4a9660643d88	4	1	main_slash	11	advance_on_keypress_SLASH	144	stimuli_target_squaretriangles.svg	stimuli_distractor_trianglediamonds.svg	3	yes	57	0	397	0	0			0	0			1				0	
6.6.1	mac	2023-06-02	01:33:30	01:44:31	660067	614a125a754b4a9660643d88	4	1	main_slash	11	main_slash	145	stimuli_distractor_diamondtriangles.svg	stimuli_target_trianglesquares.svg	30	yes	53	1	640	0	0			0	0			1				0	
6.6.1	mac	2023-06-02	01:33:30	01:44:31	660067	614a125a754b4a9660643d88	4	1	main_slash	11	advance_on_keypress_SLASH	146	stimuli_distractor_diamondtriangles.svg	stimuli_target_trianglesquares.svg	30	yes	57	0	450	0	0			0	0			1				0	
6.6.1	mac	2023-06-02	01:33:30	01:44:33	661780	614a125a754b4a9660643d88	4	1	main_slash	11	main_slash	147	stimuli_distractor_trianglediamonds.svg	stimuli_target_rectangletriangles.svg	9	yes	53	1	635	0	0			0	0			1				0	
6.6.1	mac	2023-06-02	01:33:30	01:44:33	661780	614a125a754b4a9660643d88	4	1	main_slash	11	advance_on_keypress_SLASH	148	stimuli_distractor_trianglediamonds.svg	stimuli_target_rectangletriangles.svg	9	yes	57	0	292	0	0			0	0			1				0	
6.6.1	mac	2023-06-02	01:33:30	01:44:35	663387	614a125a754b4a9660643d88	4	1	main_slash	11	main_slash	149	stimuli_target_diamondsquares.svg	stimuli_distractor_diamondtriangles.svg	24	yes	53	1	692	0	0			0	0			1				0	
6.6.1	mac	2023-06-02	01:33:30	01:44:35	663387	614a125a754b4a9660643d88	4	1	main_slash	11	advance_on_keypress_SLASH	150	stimuli_target_diamondsquares.svg	stimuli_distractor_diamondtriangles.svg	24	yes	57	0	321	0	0			0	0			1				0	
6.6.1	mac	2023-06-02	01:33:30	01:44:36	665052	614a125a754b4a9660643d88	4	1	main_slash	11	main_slash	151	stimuli_distractor_trianglediamonds.svg	stimuli_target_diamondsquares.svg	28	yes	53	1	722	0	0			0	0			1				0	
6.6.1	mac	2023-06-02	01:33:30	01:44:36	665052	614a125a754b4a9660643d88	4	1	main_slash	11	advance_on_keypress_SLASH	152	stimuli_distractor_trianglediamonds.svg	stimuli_target_diamondsquares.svg	28	yes	57	0	317	0	0			0	0			1				0	
6.6.1	mac	2023-06-02	01:33:30	01:44:38	666746	614a125a754b4a9660643d88	4	1	main_slash	11	main_slash	153	stimuli_distractor_trianglediamonds.svg	stimuli_target_trianglesquares.svg	26	yes	53	1	751	0	0			0	0			1				0	
6.6.1	mac	2023-06-02	01:33:30	01:44:38	666746	614a125a754b4a9660643d88	4	1	main_slash	11	advance_on_keypress_SLASH	154	stimuli_distractor_trianglediamonds.svg	stimuli_target_trianglesquares.svg	26	yes	57	0	267	0	0			0	0			1				0	
6.6.1	mac	2023-06-02	01:33:30	01:44:40	668913	614a125a754b4a9660643d88	4	1	main_slash	11	main_slash	155	stimuli_target_rectangletriangles.svg	stimuli_distractor_trianglediamonds.svg	1	yes	53	1	1268	0	0			0	0			1				0	
6.6.1	mac	2023-06-02	01:33:30	01:44:40	668913	614a125a754b4a9660643d88	4	1	main_slash	11	advance_on_keypress_SLASH	156	stimuli_target_rectangletriangles.svg	stimuli_distractor_trianglediamonds.svg	1	yes	57	0	540	0	0			0	0			1				0	
6.6.1	mac	2023-06-02	01:33:30	01:44:42	671270	614a125a754b4a9660643d88	4	1	main_slash	11	main_slash	157	stimuli_target_trianglerectangles.svg	stimuli_distractor_diamondtriangles.svg	21	yes	53	1	1190	0	0			0	0			1				0	
6.6.1	mac	2023-06-02	01:33:30	01:44:42	671270	614a125a754b4a9660643d88	4	1	main_slash	11	advance_on_keypress_SLASH	158	stimuli_target_trianglerectangles.svg	stimuli_distractor_diamondtriangles.svg	21	yes	57	0	262	0	0			0	0			1				0	
6.6.1	mac	2023-06-02	01:33:30	01:44:44	672914	614a125a754b4a9660643d88	4	1	main_slash	11	main_slash	159	stimuli_target_squaretriangles.svg	stimuli_distractor_diamondtriangles.svg	7	yes	53	1	750	0	0			0	0			1				0	
6.6.1	mac	2023-06-02	01:33:30	01:44:44	672914	614a125a754b4a9660643d88	4	1	main_slash	11	advance_on_keypress_SLASH	160	stimuli_target_squaretriangles.svg	stimuli_distractor_diamondtriangles.svg	7	yes	57	0	285	0	0			0	0			1				0	
6.6.1	mac	2023-06-02	01:33:30	01:44:44	672914	614a125a754b4a9660643d88	4	1	headphonecheck_calibration	14	headphonecheck_calibrationIntro	1	stimuli_target_squaretriangles.svg	stimuli_distractor_diamondtriangles.svg	7	yes	calibrationButton	0	1607	0	0			0	0			1				0	
6.6.1	mac	2023-06-02	01:33:30	01:44:44	672914	614a125a754b4a9660643d88	4	1	headphonecheck_testphase	15	test_collectResponse	3	stimuli_target_squaretriangles.svg	stimuli_distractor_diamondtriangles.svg	7	yes	third	0	773	1	3	antiphase_hc_soi.wav	1	0	0			1				0	
6.6.1	mac	2023-06-02	01:33:30	01:44:44	672914	614a125a754b4a9660643d88	4	1	headphonecheck_testphase	15	test_collectResponse	6	stimuli_target_squaretriangles.svg	stimuli_distractor_diamondtriangles.svg	7	yes	third	1	140	2	6	antiphase_hc_ois.wav	3	0	0			1				0	
6.6.1	mac	2023-06-02	01:33:30	01:44:44	672914	614a125a754b4a9660643d88	4	1	headphonecheck_testphase	15	test_collectResponse	9	stimuli_target_squaretriangles.svg	stimuli_distractor_diamondtriangles.svg	7	yes	second	1	141	3	1	antiphase_hc_iso.wav	2	0	0			1				0	
6.6.1	mac	2023-06-02	01:33:30	01:44:44	672914	614a125a754b4a9660643d88	4	1	headphonecheck_testphase	15	test_collectResponse	12	stimuli_target_squaretriangles.svg	stimuli_distractor_diamondtriangles.svg	7	yes	third	1	5757	4	2	antiphase_hc_ios.wav	3	0	0			1				0	
6.6.1	mac	2023-06-02	01:33:30	01:44:44	672914	614a125a754b4a9660643d88	4	1	headphonecheck_testphase	15	test_collectResponse	15	stimuli_target_squaretriangles.svg	stimuli_distractor_diamondtriangles.svg	7	yes	second	1	639	5	5	antiphase_hc_osi.wav	2	0	0			1				0	
6.6.1	mac	2023-06-02	01:33:30	01:44:44	672914	614a125a754b4a9660643d88	4	1	headphonecheck_testphase	15	test_collectResponse	18	stimuli_target_squaretriangles.svg	stimuli_distractor_diamondtriangles.svg	7	yes	first	1	157	6	4	antiphase_hc_sio.wav	1	0	0			1				0	
6.6.1	mac	2023-06-02	01:33:30	01:44:44	672914	614a125a754b4a9660643d88	4	1	stereocheck_calibration	17	stereocheck_calibrationIntro	1	stimuli_target_squaretriangles.svg	stimuli_distractor_diamondtriangles.svg	7	yes	stereocheck_calibrationButton	0	3608	6	4	antiphase_hc_sio.wav	1	0	0			1				0	
6.6.1	mac	2023-06-02	01:33:30	01:44:44	672914	614a125a754b4a9660643d88	4	1	stereocheck_testphase	18	stereocheck_test_collectResponse	3	stimuli_target_squaretriangles.svg	stimuli_distractor_diamondtriangles.svg	7	yes	stereocheck_left	1	740	6	4	antiphase_hc_sio.wav	1	1	3	noise_calib_stim_LEFT.wav	1	1				0	
6.6.1	mac	2023-06-02	01:33:30	01:44:44	672914	614a125a754b4a9660643d88	4	1	stereocheck_testphase	18	stereocheck_test_collectResponse	6	stimuli_target_squaretriangles.svg	stimuli_distractor_diamondtriangles.svg	7	yes	stereocheck_right	1	340	6	4	antiphase_hc_sio.wav	1	2	6	noise_calib_stim_RIGHT.wav	2	1				0	
6.6.1	mac	2023-06-02	01:33:30	01:44:44	672914	614a125a754b4a9660643d88	4	1	stereocheck_testphase	18	stereocheck_test_collectResponse	9	stimuli_target_squaretriangles.svg	stimuli_distractor_diamondtriangles.svg	7	yes	stereocheck_right	1	374	6	4	antiphase_hc_sio.wav	1	3	5	noise_calib_stim_RIGHT.wav	2	1				0	
6.6.1	mac	2023-06-02	01:33:30	01:44:44	672914	614a125a754b4a9660643d88	4	1	stereocheck_testphase	18	stereocheck_test_collectResponse	12	stimuli_target_squaretriangles.svg	stimuli_distractor_diamondtriangles.svg	7	yes	stereocheck_left	1	424	6	4	antiphase_hc_sio.wav	1	4	1	noise_calib_stim_LEFT.wav	1	1				0	
6.6.1	mac	2023-06-02	01:33:30	01:44:44	672914	614a125a754b4a9660643d88	4	1	stereocheck_testphase	18	stereocheck_test_collectResponse	15	stimuli_target_squaretriangles.svg	stimuli_distractor_diamondtriangles.svg	7	yes	stereocheck_right	1	591	6	4	antiphase_hc_sio.wav	1	5	4	noise_calib_stim_RIGHT.wav	2	1				0	
6.6.1	mac	2023-06-02	01:33:30	01:44:44	672914	614a125a754b4a9660643d88	4	1	stereocheck_testphase	18	stereocheck_test_collectResponse	18	stimuli_target_squaretriangles.svg	stimuli_distractor_diamondtriangles.svg	7	yes	stereocheck_left	1	477	6	4	antiphase_hc_sio.wav	1	6	2	noise_calib_stim_LEFT.wav	1	1				0	
6.6.1	mac	2023-06-02	01:33:30	01:44:44	672914	614a125a754b4a9660643d88	4	1	DL_practice	21	DL_practice	2	stimuli_target_squaretriangles.svg	stimuli_distractor_diamondtriangles.svg	7	yes	ta	1	2491	6	4	antiphase_hc_sio.wav	1	6	2	noise_calib_stim_LEFT.wav	1	36	blb_dichoticlistening_ta-ta.mp3	ta	ta	0	left
6.6.1	mac	2023-06-02	01:33:30	01:44:44	672914	614a125a754b4a9660643d88	4	1	DL_practice	21	DL_practice	3	stimuli_target_squaretriangles.svg	stimuli_distractor_diamondtriangles.svg	7	yes	ba	1	2375	6	4	antiphase_hc_sio.wav	1	6	2	noise_calib_stim_LEFT.wav	1	1	blb_dichoticlistening_ba-ba.mp3	ba	ba	0	left
6.6.1	mac	2023-06-02	01:33:30	01:44:44	672914	614a125a754b4a9660643d88	4	1	DL_practice	21	DL_practice	4	stimuli_target_squaretriangles.svg	stimuli_distractor_diamondtriangles.svg	7	yes	ga	1	1957	6	4	antiphase_hc_sio.wav	1	6	2	noise_calib_stim_LEFT.wav	1	18	blb_dichoticlistening_ga-ta.mp3	ga	ta	1	left
6.6.1	mac	2023-06-02	01:33:30	01:44:44	672914	614a125a754b4a9660643d88	4	1	DL_practice	21	DL_practice	5	stimuli_target_squaretriangles.svg	stimuli_distractor_diamondtriangles.svg	7	yes	pa	1	1208	6	4	antiphase_hc_sio.wav	1	6	2	noise_calib_stim_LEFT.wav	1	29	blb_dichoticlistening_pa-pa.mp3	pa	pa	0	left
6.6.1	mac	2023-06-02	01:33:30	01:44:44	672914	614a125a754b4a9660643d88	4	1	DL_practice	21	DL_practice	6	stimuli_target_squaretriangles.svg	stimuli_distractor_diamondtriangles.svg	7	yes	ga	1	1142	6	4	antiphase_hc_sio.wav	1	6	2	noise_calib_stim_LEFT.wav	1	15	blb_dichoticlistening_ga-ga.mp3	ga	ga	0	left
6.6.1	mac	2023-06-02	01:33:30	01:44:44	672914	614a125a754b4a9660643d88	4	1	DL_practice	21	DL_practice	7	stimuli_target_squaretriangles.svg	stimuli_distractor_diamondtriangles.svg	7	yes	ka	1	1724	6	4	antiphase_hc_sio.wav	1	6	2	noise_calib_stim_LEFT.wav	1	22	blb_dichoticlistening_ka-ka.mp3	ka	ka	0	left
6.6.1	mac	2023-06-02	01:33:30	01:44:44	672914	614a125a754b4a9660643d88	4	1	DL_practice	21	DL_practice	8	stimuli_target_squaretriangles.svg	stimuli_distractor_diamondtriangles.svg	7	yes	da	1	1407	6	4	antiphase_hc_sio.wav	1	6	2	noise_calib_stim_LEFT.wav	1	8	blb_dichoticlistening_da-da.mp3	da	da	0	left
6.6.1	mac	2023-06-02	01:33:30	01:44:44	672914	614a125a754b4a9660643d88	4	1	DL_practice	21	DL_practice	9	stimuli_target_squaretriangles.svg	stimuli_distractor_diamondtriangles.svg	7	yes	da	1	991	6	4	antiphase_hc_sio.wav	1	6	2	noise_calib_stim_LEFT.wav	1	7	blb_dichoticlistening_da-ba.mp3	da	ba	1	left
6.6.1	mac	2023-06-02	01:33:30	01:44:44	672914	614a125a754b4a9660643d88	4	1	DL_practice	21	DL_practice	10	stimuli_target_squaretriangles.svg	stimuli_distractor_diamondtriangles.svg	7	yes	ka	1	1257	6	4	antiphase_hc_sio.wav	1	6	2	noise_calib_stim_LEFT.wav	1	23	blb_dichoticlistening_ka-pa.mp3	ka	pa	1	left
6.6.1	mac	2023-06-02	01:33:30	01:44:44	672914	614a125a754b4a9660643d88	4	1	DL_test	23	DL_test	1	stimuli_target_squaretriangles.svg	stimuli_distractor_diamondtriangles.svg	7	yes	ka	1	1358	6	4	antiphase_hc_sio.wav	1	6	2	noise_calib_stim_LEFT.wav	1	19	blb_dichoticlistening_ka-ba.mp3	ka	ba	1	left
6.6.1	mac	2023-06-02	01:33:30	01:44:44	672914	614a125a754b4a9660643d88	4	1	DL_test	23	DL_test	2	stimuli_target_squaretriangles.svg	stimuli_distractor_diamondtriangles.svg	7	yes	ba	1	1440	6	4	antiphase_hc_sio.wav	1	6	2	noise_calib_stim_LEFT.wav	1	1	blb_dichoticlistening_ba-ba.mp3	ba	ba	0	left
6.6.1	mac	2023-06-02	01:33:30	01:44:44	672914	614a125a754b4a9660643d88	4	1	DL_test	23	DL_test	3	stimuli_target_squaretriangles.svg	stimuli_distractor_diamondtriangles.svg	7	yes	ba	1	1124	6	4	antiphase_hc_sio.wav	1	6	2	noise_calib_stim_LEFT.wav	1	13	blb_dichoticlistening_ga-ba.mp3	ga	ba	1	right
6.6.1	mac	2023-06-02	01:33:30	01:44:44	672914	614a125a754b4a9660643d88	4	1	DL_test	23	DL_test	4	stimuli_target_squaretriangles.svg	stimuli_distractor_diamondtriangles.svg	7	yes	pa	1	1559	6	4	antiphase_hc_sio.wav	1	6	2	noise_calib_stim_LEFT.wav	1	29	blb_dichoticlistening_pa-pa.mp3	pa	pa	0	left
6.6.1	mac	2023-06-02	01:33:30	01:44:44	672914	614a125a754b4a9660643d88	4	1	DL_test	23	DL_test	5	stimuli_target_squaretriangles.svg	stimuli_distractor_diamondtriangles.svg	7	yes	da	1	1291	6	4	antiphase_hc_sio.wav	1	6	2	noise_calib_stim_LEFT.wav	1	2	blb_dichoticlistening_ba-da.mp3	ba	da	1	right
6.6.1	mac	2023-06-02	01:33:30	01:44:44	672914	614a125a754b4a9660643d88	4	1	DL_test	23	DL_test	6	stimuli_target_squaretriangles.svg	stimuli_distractor_diamondtriangles.svg	7	yes	pa	1	1125	6	4	antiphase_hc_sio.wav	1	6	2	noise_calib_stim_LEFT.wav	1	11	blb_dichoticlistening_da-pa.mp3	da	pa	1	right
6.6.1	mac	2023-06-02	01:33:30	01:44:44	672914	614a125a754b4a9660643d88	4	1	DL_test	23	DL_test	7	stimuli_target_squaretriangles.svg	stimuli_distractor_diamondtriangles.svg	7	yes	ka	1	1208	6	4	antiphase_hc_sio.wav	1	6	2	noise_calib_stim_LEFT.wav	1	20	blb_dichoticlistening_ka-da.mp3	ka	da	1	left
6.6.1	mac	2023-06-02	01:33:30	01:44:44	672914	614a125a754b4a9660643d88	4	1	DL_test	23	DL_test	8	stimuli_target_squaretriangles.svg	stimuli_distractor_diamondtriangles.svg	7	yes	da	1	941	6	4	antiphase_hc_sio.wav	1	6	2	noise_calib_stim_LEFT.wav	1	8	blb_dichoticlistening_da-da.mp3	da	da	0	left
6.6.1	mac	2023-06-02	01:33:30	01:44:44	672914	614a125a754b4a9660643d88	4	1	DL_test	23	DL_test	9	stimuli_target_squaretriangles.svg	stimuli_distractor_diamondtriangles.svg	7	yes	pa	0	1073	6	4	antiphase_hc_sio.wav	1	6	2	noise_calib_stim_LEFT.wav	1	31	blb_dichoticlistening_ta-ba.mp3	ta	ba	1	other
6.6.1	mac	2023-06-02	01:33:30	01:44:44	672914	614a125a754b4a9660643d88	4	1	DL_test	23	DL_test	10	stimuli_target_squaretriangles.svg	stimuli_distractor_diamondtriangles.svg	7	yes	ta	1	742	6	4	antiphase_hc_sio.wav	1	6	2	noise_calib_stim_LEFT.wav	1	36	blb_dichoticlistening_ta-ta.mp3	ta	ta	0	left
6.6.1	mac	2023-06-02	01:33:30	01:44:44	672914	614a125a754b4a9660643d88	4	1	DL_test	23	DL_test	11	stimuli_target_squaretriangles.svg	stimuli_distractor_diamondtriangles.svg	7	yes	ka	1	1007	6	4	antiphase_hc_sio.wav	1	6	2	noise_calib_stim_LEFT.wav	1	34	blb_dichoticlistening_ta-ka.mp3	ta	ka	1	right
6.6.1	mac	2023-06-02	01:33:30	01:44:44	672914	614a125a754b4a9660643d88	4	1	DL_test	23	DL_test	12	stimuli_target_squaretriangles.svg	stimuli_distractor_diamondtriangles.svg	7	yes	ga	1	1141	6	4	antiphase_hc_sio.wav	1	6	2	noise_calib_stim_LEFT.wav	1	3	blb_dichoticlistening_ba-ga.mp3	ba	ga	1	right
6.6.1	mac	2023-06-02	01:33:30	01:44:44	672914	614a125a754b4a9660643d88	4	1	DL_test	23	DL_test	13	stimuli_target_squaretriangles.svg	stimuli_distractor_diamondtriangles.svg	7	yes	pa	1	1741	6	4	antiphase_hc_sio.wav	1	6	2	noise_calib_stim_LEFT.wav	1	17	blb_dichoticlistening_ga-pa.mp3	ga	pa	1	right
6.6.1	mac	2023-06-02	01:33:30	01:44:44	672914	614a125a754b4a9660643d88	4	1	DL_test	23	DL_test	14	stimuli_target_squaretriangles.svg	stimuli_distractor_diamondtriangles.svg	7	yes	pa	1	1090	6	4	antiphase_hc_sio.wav	1	6	2	noise_calib_stim_LEFT.wav	1	23	blb_dichoticlistening_ka-pa.mp3	ka	pa	1	right
6.6.1	mac	2023-06-02	01:33:30	01:44:44	672914	614a125a754b4a9660643d88	4	1	DL_test	23	DL_test	15	stimuli_target_squaretriangles.svg	stimuli_distractor_diamondtriangles.svg	7	yes	ka	1	1841	6	4	antiphase_hc_sio.wav	1	6	2	noise_calib_stim_LEFT.wav	1	22	blb_dichoticlistening_ka-ka.mp3	ka	ka	0	left
6.6.1	mac	2023-06-02	01:33:30	01:44:44	672914	614a125a754b4a9660643d88	4	1	DL_test	23	DL_test	16	stimuli_target_squaretriangles.svg	stimuli_distractor_diamondtriangles.svg	7	yes	ka	1	892	6	4	antiphase_hc_sio.wav	1	6	2	noise_calib_stim_LEFT.wav	1	21	blb_dichoticlistening_ka-ga.mp3	ka	ga	1	left
6.6.1	mac	2023-06-02	01:33:30	01:44:44	672914	614a125a754b4a9660643d88	4	1	DL_test	23	DL_test	17	stimuli_target_squaretriangles.svg	stimuli_distractor_diamondtriangles.svg	7	yes	ka	0	874	6	4	antiphase_hc_sio.wav	1	6	2	noise_calib_stim_LEFT.wav	1	33	blb_dichoticlistening_ta-ga.mp3	ta	ga	1	other
6.6.1	mac	2023-06-02	01:33:30	01:44:44	672914	614a125a754b4a9660643d88	4	1	DL_test	23	DL_test	18	stimuli_target_squaretriangles.svg	stimuli_distractor_diamondtriangles.svg	7	yes	da	1	1408	6	4	antiphase_hc_sio.wav	1	6	2	noise_calib_stim_LEFT.wav	1	32	blb_dichoticlistening_ta-da.mp3	ta	da	1	right
6.6.1	mac	2023-06-02	01:33:30	01:44:44	672914	614a125a754b4a9660643d88	4	1	DL_test	23	DL_test	19	stimuli_target_squaretriangles.svg	stimuli_distractor_diamondtriangles.svg	7	yes	pa	1	1157	6	4	antiphase_hc_sio.wav	1	6	2	noise_calib_stim_LEFT.wav	1	25	blb_dichoticlistening_pa-ba.mp3	pa	ba	1	left
6.6.1	mac	2023-06-02	01:33:30	01:44:44	672914	614a125a754b4a9660643d88	4	1	DL_test	23	DL_test	20	stimuli_target_squaretriangles.svg	stimuli_distractor_diamondtriangles.svg	7	yes	da	1	2226	6	4	antiphase_hc_sio.wav	1	6	2	noise_calib_stim_LEFT.wav	1	7	blb_dichoticlistening_da-ba.mp3	da	ba	1	left
6.6.1	mac	2023-06-02	01:33:30	01:44:44	672914	614a125a754b4a9660643d88	4	1	DL_test	23	DL_test	21	stimuli_target_squaretriangles.svg	stimuli_distractor_diamondtriangles.svg	7	yes	ka	1	1142	6	4	antiphase_hc_sio.wav	1	6	2	noise_calib_stim_LEFT.wav	1	4	blb_dichoticlistening_ba-ka.mp3	ba	ka	1	right
6.6.1	mac	2023-06-02	01:33:30	01:44:44	672914	614a125a754b4a9660643d88	4	1	DL_test	23	DL_test	22	stimuli_target_squaretriangles.svg	stimuli_distractor_diamondtriangles.svg	7	yes	pa	1	1808	6	4	antiphase_hc_sio.wav	1	6	2	noise_calib_stim_LEFT.wav	1	26	blb_dichoticlistening_pa-da.mp3	pa	da	1	left
6.6.1	mac	2023-06-02	01:33:30	01:44:44	672914	614a125a754b4a9660643d88	4	1	DL_test	23	DL_test	23	stimuli_target_squaretriangles.svg	stimuli_distractor_diamondtriangles.svg	7	yes	da	1	1408	6	4	antiphase_hc_sio.wav	1	6	2	noise_calib_stim_LEFT.wav	1	9	blb_dichoticlistening_da-ga.mp3	da	ga	1	left
6.6.1	mac	2023-06-02	01:33:30	01:44:44	672914	614a125a754b4a9660643d88	4	1	DL_test	23	DL_test	24	stimuli_target_squaretriangles.svg	stimuli_distractor_diamondtriangles.svg	7	yes	ta	1	1907	6	4	antiphase_hc_sio.wav	1	6	2	noise_calib_stim_LEFT.wav	1	6	blb_dichoticlistening_ba-ta.mp3	ba	ta	1	right
6.6.1	mac	2023-06-02	01:33:30	01:44:44	672914	614a125a754b4a9660643d88	4	1	DL_test	23	DL_test	25	stimuli_target_squaretriangles.svg	stimuli_distractor_diamondtriangles.svg	7	yes	ta	1	992	6	4	antiphase_hc_sio.wav	1	6	2	noise_calib_stim_LEFT.wav	1	18	blb_dichoticlistening_ga-ta.mp3	ga	ta	1	right
6.6.1	mac	2023-06-02	01:33:30	01:44:44	672914	614a125a754b4a9660643d88	4	1	DL_test	23	DL_test	26	stimuli_target_squaretriangles.svg	stimuli_distractor_diamondtriangles.svg	7	yes	ga	1	1057	6	4	antiphase_hc_sio.wav	1	6	2	noise_calib_stim_LEFT.wav	1	15	blb_dichoticlistening_ga-ga.mp3	ga	ga	0	left
