build	computer.platform	date	time	timestamp	time_elapsed_ms	subject	group	session	blockcode	blocknum	trialcode	trialnum	stimulus_left	stimulus_right	stim_index	target_present	response	correct	latency	headphonecheck_countTestTrials	headphonecheck_index	headphonecheck_testSound	headphonecheck_correctResponse	stereocheck_countTestTrials	stereocheck_index	stereocheck_testSound	stereocheck_correctResponse	DL_index	DL_soundfile	DL_leftSound	DL_rightSound	DL_dualSound	DL_choice
6.6.1	win	2023-06-27	09:12:28	0	0	63ed0a8a65ddbf9edae99a16	2	1	headphonecheck_calibration	4	headphonecheck_calibrationIntro	1			0		calibrationButton	0	3816	0	0			0	0			1				0	
6.6.1	win	2023-06-27	09:12:28	0	0	63ed0a8a65ddbf9edae99a16	2	1	headphonecheck_testphase	5	test_collectResponse	3			0		first	1	799	1	4	antiphase_hc_sio.wav	1	0	0			1				0	
6.6.1	win	2023-06-27	09:12:28	0	0	63ed0a8a65ddbf9edae99a16	2	1	headphonecheck_testphase	5	test_collectResponse	6			0		second	1	850	2	1	antiphase_hc_iso.wav	2	0	0			1				0	
6.6.1	win	2023-06-27	09:12:28	0	0	63ed0a8a65ddbf9edae99a16	2	1	headphonecheck_testphase	5	test_collectResponse	9			0		first	1	362	3	3	antiphase_hc_soi.wav	1	0	0			1				0	
6.6.1	win	2023-06-27	09:12:28	0	0	63ed0a8a65ddbf9edae99a16	2	1	headphonecheck_testphase	5	test_collectResponse	12			0		second	1	2301	4	5	antiphase_hc_osi.wav	2	0	0			1				0	
6.6.1	win	2023-06-27	09:12:28	0	0	63ed0a8a65ddbf9edae99a16	2	1	headphonecheck_testphase	5	test_collectResponse	15			0		third	1	503	5	6	antiphase_hc_ois.wav	3	0	0			1				0	
6.6.1	win	2023-06-27	09:12:28	0	0	63ed0a8a65ddbf9edae99a16	2	1	headphonecheck_testphase	5	test_collectResponse	18			0		third	1	418	6	2	antiphase_hc_ios.wav	3	0	0			1				0	
6.6.1	win	2023-06-27	09:12:28	0	0	63ed0a8a65ddbf9edae99a16	2	1	stereocheck_calibration	7	stereocheck_calibrationIntro	1			0		stereocheck_calibrationButton	0	5463	6	2	antiphase_hc_ios.wav	3	0	0			1				0	
6.6.1	win	2023-06-27	09:12:28	0	0	63ed0a8a65ddbf9edae99a16	2	1	stereocheck_testphase	8	stereocheck_test_collectResponse	3			0		stereocheck_left	1	282	6	2	antiphase_hc_ios.wav	3	1	2	noise_calib_stim_LEFT.wav	1	1				0	
6.6.1	win	2023-06-27	09:12:28	0	0	63ed0a8a65ddbf9edae99a16	2	1	stereocheck_testphase	8	stereocheck_test_collectResponse	6			0		stereocheck_left	1	308	6	2	antiphase_hc_ios.wav	3	2	1	noise_calib_stim_LEFT.wav	1	1				0	
6.6.1	win	2023-06-27	09:12:28	0	0	63ed0a8a65ddbf9edae99a16	2	1	stereocheck_testphase	8	stereocheck_test_collectResponse	9			0		stereocheck_right	1	346	6	2	antiphase_hc_ios.wav	3	3	5	noise_calib_stim_RIGHT.wav	2	1				0	
6.6.1	win	2023-06-27	09:12:28	0	0	63ed0a8a65ddbf9edae99a16	2	1	stereocheck_testphase	8	stereocheck_test_collectResponse	12			0		stereocheck_left	1	328	6	2	antiphase_hc_ios.wav	3	4	3	noise_calib_stim_LEFT.wav	1	1				0	
6.6.1	win	2023-06-27	09:12:28	0	0	63ed0a8a65ddbf9edae99a16	2	1	stereocheck_testphase	8	stereocheck_test_collectResponse	15			0		stereocheck_right	1	704	6	2	antiphase_hc_ios.wav	3	5	6	noise_calib_stim_RIGHT.wav	2	1				0	
6.6.1	win	2023-06-27	09:12:28	0	0	63ed0a8a65ddbf9edae99a16	2	1	stereocheck_testphase	8	stereocheck_test_collectResponse	18			0		stereocheck_right	1	631	6	2	antiphase_hc_ios.wav	3	6	4	noise_calib_stim_RIGHT.wav	2	1				0	
6.6.1	win	2023-06-27	09:12:28	0	0	63ed0a8a65ddbf9edae99a16	2	1	DL_practice	11	DL_practice	2			0		pa	1	920	6	2	antiphase_hc_ios.wav	3	6	4	noise_calib_stim_RIGHT.wav	2	29	blb_dichoticlistening_pa-pa.mp3	pa	pa	0	left
6.6.1	win	2023-06-27	09:12:28	0	0	63ed0a8a65ddbf9edae99a16	2	1	DL_practice	11	DL_practice	3			0		da	1	1237	6	2	antiphase_hc_ios.wav	3	6	4	noise_calib_stim_RIGHT.wav	2	8	blb_dichoticlistening_da-da.mp3	da	da	0	left
6.6.1	win	2023-06-27	09:12:28	0	0	63ed0a8a65ddbf9edae99a16	2	1	DL_practice	11	DL_practice	4			0		ka	0	1647	6	2	antiphase_hc_ios.wav	3	6	4	noise_calib_stim_RIGHT.wav	2	18	blb_dichoticlistening_ga-ta.mp3	ga	ta	1	other
6.6.1	win	2023-06-27	09:12:28	0	0	63ed0a8a65ddbf9edae99a16	2	1	DL_practice	11	DL_practice	5			0		pa	1	1041	6	2	antiphase_hc_ios.wav	3	6	4	noise_calib_stim_RIGHT.wav	2	23	blb_dichoticlistening_ka-pa.mp3	ka	pa	1	right
6.6.1	win	2023-06-27	09:12:28	0	0	63ed0a8a65ddbf9edae99a16	2	1	DL_practice	11	DL_practice	6			0		ga	1	947	6	2	antiphase_hc_ios.wav	3	6	4	noise_calib_stim_RIGHT.wav	2	15	blb_dichoticlistening_ga-ga.mp3	ga	ga	0	left
6.6.1	win	2023-06-27	09:12:28	0	0	63ed0a8a65ddbf9edae99a16	2	1	DL_practice	11	DL_practice	7			0		ka	1	1182	6	2	antiphase_hc_ios.wav	3	6	4	noise_calib_stim_RIGHT.wav	2	22	blb_dichoticlistening_ka-ka.mp3	ka	ka	0	left
6.6.1	win	2023-06-27	09:12:28	0	0	63ed0a8a65ddbf9edae99a16	2	1	DL_practice	11	DL_practice	8			0		ta	1	865	6	2	antiphase_hc_ios.wav	3	6	4	noise_calib_stim_RIGHT.wav	2	36	blb_dichoticlistening_ta-ta.mp3	ta	ta	0	left
6.6.1	win	2023-06-27	09:12:28	0	0	63ed0a8a65ddbf9edae99a16	2	1	DL_practice	11	DL_practice	9			0		ba	1	1170	6	2	antiphase_hc_ios.wav	3	6	4	noise_calib_stim_RIGHT.wav	2	1	blb_dichoticlistening_ba-ba.mp3	ba	ba	0	left
6.6.1	win	2023-06-27	09:12:28	0	0	63ed0a8a65ddbf9edae99a16	2	1	DL_practice	11	DL_practice	10			0		ba	1	1177	6	2	antiphase_hc_ios.wav	3	6	4	noise_calib_stim_RIGHT.wav	2	7	blb_dichoticlistening_da-ba.mp3	da	ba	1	right
6.6.1	win	2023-06-27	09:12:28	0	0	63ed0a8a65ddbf9edae99a16	2	1	DL_test	13	DL_test	1			0		ga	1	728	6	2	antiphase_hc_ios.wav	3	6	4	noise_calib_stim_RIGHT.wav	2	15	blb_dichoticlistening_ga-ga.mp3	ga	ga	0	left
6.6.1	win	2023-06-27	09:12:28	0	0	63ed0a8a65ddbf9edae99a16	2	1	DL_test	13	DL_test	2			0		ka	1	1440	6	2	antiphase_hc_ios.wav	3	6	4	noise_calib_stim_RIGHT.wav	2	19	blb_dichoticlistening_ka-ba.mp3	ka	ba	1	left
6.6.1	win	2023-06-27	09:12:28	0	0	63ed0a8a65ddbf9edae99a16	2	1	DL_test	13	DL_test	3			0		ka	0	752	6	2	antiphase_hc_ios.wav	3	6	4	noise_calib_stim_RIGHT.wav	2	17	blb_dichoticlistening_ga-pa.mp3	ga	pa	1	other
6.6.1	win	2023-06-27	09:12:28	0	0	63ed0a8a65ddbf9edae99a16	2	1	DL_test	13	DL_test	4			0		ka	1	698	6	2	antiphase_hc_ios.wav	3	6	4	noise_calib_stim_RIGHT.wav	2	23	blb_dichoticlistening_ka-pa.mp3	ka	pa	1	left
6.6.1	win	2023-06-27	09:12:28	0	0	63ed0a8a65ddbf9edae99a16	2	1	DL_test	13	DL_test	5			0		da	1	1086	6	2	antiphase_hc_ios.wav	3	6	4	noise_calib_stim_RIGHT.wav	2	2	blb_dichoticlistening_ba-da.mp3	ba	da	1	right
6.6.1	win	2023-06-27	09:12:28	0	0	63ed0a8a65ddbf9edae99a16	2	1	DL_test	13	DL_test	6			0		ta	0	1172	6	2	antiphase_hc_ios.wav	3	6	4	noise_calib_stim_RIGHT.wav	2	26	blb_dichoticlistening_pa-da.mp3	pa	da	1	other
6.6.1	win	2023-06-27	09:12:28	0	0	63ed0a8a65ddbf9edae99a16	2	1	DL_test	13	DL_test	7			0		da	1	1323	6	2	antiphase_hc_ios.wav	3	6	4	noise_calib_stim_RIGHT.wav	2	9	blb_dichoticlistening_da-ga.mp3	da	ga	1	left
6.6.1	win	2023-06-27	09:12:28	0	0	63ed0a8a65ddbf9edae99a16	2	1	DL_test	13	DL_test	8			0		ta	1	1111	6	2	antiphase_hc_ios.wav	3	6	4	noise_calib_stim_RIGHT.wav	2	30	blb_dichoticlistening_pa-ta.mp3	pa	ta	1	right
6.6.1	win	2023-06-27	09:12:28	0	0	63ed0a8a65ddbf9edae99a16	2	1	DL_test	13	DL_test	9			0		ka	1	986	6	2	antiphase_hc_ios.wav	3	6	4	noise_calib_stim_RIGHT.wav	2	34	blb_dichoticlistening_ta-ka.mp3	ta	ka	1	right
6.6.1	win	2023-06-27	09:12:28	0	0	63ed0a8a65ddbf9edae99a16	2	1	DL_test	13	DL_test	10			0		ka	1	833	6	2	antiphase_hc_ios.wav	3	6	4	noise_calib_stim_RIGHT.wav	2	20	blb_dichoticlistening_ka-da.mp3	ka	da	1	left
6.6.1	win	2023-06-27	09:12:28	0	0	63ed0a8a65ddbf9edae99a16	2	1	DL_test	13	DL_test	11			0		ka	0	1432	6	2	antiphase_hc_ios.wav	3	6	4	noise_calib_stim_RIGHT.wav	2	27	blb_dichoticlistening_pa-ga.mp3	pa	ga	1	other
6.6.1	win	2023-06-27	09:12:28	0	0	63ed0a8a65ddbf9edae99a16	2	1	DL_test	13	DL_test	12			0		ta	1	1160	6	2	antiphase_hc_ios.wav	3	6	4	noise_calib_stim_RIGHT.wav	2	35	blb_dichoticlistening_ta-pa.mp3	ta	pa	1	left
6.6.1	win	2023-06-27	09:12:28	0	0	63ed0a8a65ddbf9edae99a16	2	1	DL_test	13	DL_test	13			0		ka	1	1040	6	2	antiphase_hc_ios.wav	3	6	4	noise_calib_stim_RIGHT.wav	2	28	blb_dichoticlistening_pa-ka.mp3	pa	ka	1	right
6.6.1	win	2023-06-27	09:12:28	0	0	63ed0a8a65ddbf9edae99a16	2	1	DL_test	13	DL_test	14			0		ta	1	839	6	2	antiphase_hc_ios.wav	3	6	4	noise_calib_stim_RIGHT.wav	2	36	blb_dichoticlistening_ta-ta.mp3	ta	ta	0	left
6.6.1	win	2023-06-27	09:12:28	0	0	63ed0a8a65ddbf9edae99a16	2	1	DL_test	13	DL_test	15			0		pa	0	881	6	2	antiphase_hc_ios.wav	3	6	4	noise_calib_stim_RIGHT.wav	2	10	blb_dichoticlistening_da-ka.mp3	da	ka	1	other
6.6.1	win	2023-06-27	09:12:28	0	0	63ed0a8a65ddbf9edae99a16	2	1	DL_test	13	DL_test	16			0		ka	1	873	6	2	antiphase_hc_ios.wav	3	6	4	noise_calib_stim_RIGHT.wav	2	22	blb_dichoticlistening_ka-ka.mp3	ka	ka	0	left
6.6.1	win	2023-06-27	09:12:28	0	0	63ed0a8a65ddbf9edae99a16	2	1	DL_test	13	DL_test	17			0		ba	1	1039	6	2	antiphase_hc_ios.wav	3	6	4	noise_calib_stim_RIGHT.wav	2	13	blb_dichoticlistening_ga-ba.mp3	ga	ba	1	right
6.6.1	win	2023-06-27	09:12:28	0	0	63ed0a8a65ddbf9edae99a16	2	1	DL_test	13	DL_test	18			0		ka	1	702	6	2	antiphase_hc_ios.wav	3	6	4	noise_calib_stim_RIGHT.wav	2	4	blb_dichoticlistening_ba-ka.mp3	ba	ka	1	right
6.6.1	win	2023-06-27	09:12:28	0	0	63ed0a8a65ddbf9edae99a16	2	1	DL_test	13	DL_test	19			0		pa	1	1430	6	2	antiphase_hc_ios.wav	3	6	4	noise_calib_stim_RIGHT.wav	2	29	blb_dichoticlistening_pa-pa.mp3	pa	pa	0	left
6.6.1	win	2023-06-27	09:12:28	0	0	63ed0a8a65ddbf9edae99a16	2	1	DL_test	13	DL_test	20			0		pa	1	846	6	2	antiphase_hc_ios.wav	3	6	4	noise_calib_stim_RIGHT.wav	2	5	blb_dichoticlistening_ba-pa.mp3	ba	pa	1	right
6.6.1	win	2023-06-27	09:12:28	0	0	63ed0a8a65ddbf9edae99a16	2	1	DL_test	13	DL_test	21			0		pa	1	859	6	2	antiphase_hc_ios.wav	3	6	4	noise_calib_stim_RIGHT.wav	2	25	blb_dichoticlistening_pa-ba.mp3	pa	ba	1	left
6.6.1	win	2023-06-27	09:12:28	0	0	63ed0a8a65ddbf9edae99a16	2	1	DL_test	13	DL_test	22			0		ta	1	860	6	2	antiphase_hc_ios.wav	3	6	4	noise_calib_stim_RIGHT.wav	2	12	blb_dichoticlistening_da-ta.mp3	da	ta	1	right
6.6.1	win	2023-06-27	09:12:28	0	0	63ed0a8a65ddbf9edae99a16	2	1	DL_test	13	DL_test	23			0		ba	1	1250	6	2	antiphase_hc_ios.wav	3	6	4	noise_calib_stim_RIGHT.wav	2	7	blb_dichoticlistening_da-ba.mp3	da	ba	1	right
6.6.1	win	2023-06-27	09:12:28	0	0	63ed0a8a65ddbf9edae99a16	2	1	DL_test	13	DL_test	24			0		ta	1	1278	6	2	antiphase_hc_ios.wav	3	6	4	noise_calib_stim_RIGHT.wav	2	32	blb_dichoticlistening_ta-da.mp3	ta	da	1	left
6.6.1	win	2023-06-27	09:12:28	0	0	63ed0a8a65ddbf9edae99a16	2	1	DL_test	13	DL_test	25			0		ta	1	1821	6	2	antiphase_hc_ios.wav	3	6	4	noise_calib_stim_RIGHT.wav	2	31	blb_dichoticlistening_ta-ba.mp3	ta	ba	1	left
6.6.1	win	2023-06-27	09:12:28	0	0	63ed0a8a65ddbf9edae99a16	2	1	DL_test	13	DL_test	26			0		ta	1	1007	6	2	antiphase_hc_ios.wav	3	6	4	noise_calib_stim_RIGHT.wav	2	33	blb_dichoticlistening_ta-ga.mp3	ta	ga	1	left
6.6.1	win	2023-06-27	09:12:28	0	0	63ed0a8a65ddbf9edae99a16	2	1	DL_test	13	DL_test	27			0		da	1	1362	6	2	antiphase_hc_ios.wav	3	6	4	noise_calib_stim_RIGHT.wav	2	14	blb_dichoticlistening_ga-da.mp3	ga	da	1	right
6.6.1	win	2023-06-27	09:12:28	0	0	63ed0a8a65ddbf9edae99a16	2	1	DL_test	13	DL_test	28			0		da	1	1241	6	2	antiphase_hc_ios.wav	3	6	4	noise_calib_stim_RIGHT.wav	2	8	blb_dichoticlistening_da-da.mp3	da	da	0	left
6.6.1	win	2023-06-27	09:12:28	0	0	63ed0a8a65ddbf9edae99a16	2	1	DL_test	13	DL_test	29			0		ka	1	819	6	2	antiphase_hc_ios.wav	3	6	4	noise_calib_stim_RIGHT.wav	2	21	blb_dichoticlistening_ka-ga.mp3	ka	ga	1	left
6.6.1	win	2023-06-27	09:12:28	0	0	63ed0a8a65ddbf9edae99a16	2	1	DL_test	13	DL_test	30			0		pa	1	1204	6	2	antiphase_hc_ios.wav	3	6	4	noise_calib_stim_RIGHT.wav	2	11	blb_dichoticlistening_da-pa.mp3	da	pa	1	right
6.6.1	win	2023-06-27	09:12:28	0	0	63ed0a8a65ddbf9edae99a16	2	1	DL_test	13	DL_test	31			0		ba	1	1221	6	2	antiphase_hc_ios.wav	3	6	4	noise_calib_stim_RIGHT.wav	2	3	blb_dichoticlistening_ba-ga.mp3	ba	ga	1	left
6.6.1	win	2023-06-27	09:12:28	0	0	63ed0a8a65ddbf9edae99a16	2	1	DL_test	13	DL_test	32			0		ka	1	1004	6	2	antiphase_hc_ios.wav	3	6	4	noise_calib_stim_RIGHT.wav	2	24	blb_dichoticlistening_ka-ta.mp3	ka	ta	1	left
6.6.1	win	2023-06-27	09:12:28	0	0	63ed0a8a65ddbf9edae99a16	2	1	DL_test	13	DL_test	33			0		ta	1	1159	6	2	antiphase_hc_ios.wav	3	6	4	noise_calib_stim_RIGHT.wav	2	6	blb_dichoticlistening_ba-ta.mp3	ba	ta	1	right
6.6.1	win	2023-06-27	09:12:28	0	0	63ed0a8a65ddbf9edae99a16	2	1	DL_test	13	DL_test	34			0		ka	0	946	6	2	antiphase_hc_ios.wav	3	6	4	noise_calib_stim_RIGHT.wav	2	18	blb_dichoticlistening_ga-ta.mp3	ga	ta	1	other
6.6.1	win	2023-06-27	09:12:28	0	0	63ed0a8a65ddbf9edae99a16	2	1	DL_test	13	DL_test	35			0		ka	1	839	6	2	antiphase_hc_ios.wav	3	6	4	noise_calib_stim_RIGHT.wav	2	16	blb_dichoticlistening_ga-ka.mp3	ga	ka	1	right
6.6.1	win	2023-06-27	09:12:28	0	0	63ed0a8a65ddbf9edae99a16	2	1	DL_test	13	DL_test	36			0		ba	1	1091	6	2	antiphase_hc_ios.wav	3	6	4	noise_calib_stim_RIGHT.wav	2	1	blb_dichoticlistening_ba-ba.mp3	ba	ba	0	left
6.6.1	win	2023-06-27	09:12:28	0	0	63ed0a8a65ddbf9edae99a16	2	1	DL_test	14	DL_test	1			0		pa	1	845	6	2	antiphase_hc_ios.wav	3	6	4	noise_calib_stim_RIGHT.wav	2	5	blb_dichoticlistening_ba-pa.mp3	ba	pa	1	right
6.6.1	win	2023-06-27	09:12:28	0	0	63ed0a8a65ddbf9edae99a16	2	1	DL_test	14	DL_test	2			0		da	1	1011	6	2	antiphase_hc_ios.wav	3	6	4	noise_calib_stim_RIGHT.wav	2	9	blb_dichoticlistening_da-ga.mp3	da	ga	1	left
6.6.1	win	2023-06-27	09:12:28	0	0	63ed0a8a65ddbf9edae99a16	2	1	DL_test	14	DL_test	3			0		ka	1	989	6	2	antiphase_hc_ios.wav	3	6	4	noise_calib_stim_RIGHT.wav	2	22	blb_dichoticlistening_ka-ka.mp3	ka	ka	0	left
6.6.1	win	2023-06-27	09:12:28	0	0	63ed0a8a65ddbf9edae99a16	2	1	DL_test	14	DL_test	4			0		da	1	941	6	2	antiphase_hc_ios.wav	3	6	4	noise_calib_stim_RIGHT.wav	2	2	blb_dichoticlistening_ba-da.mp3	ba	da	1	right
6.6.1	win	2023-06-27	09:12:28	0	0	63ed0a8a65ddbf9edae99a16	2	1	DL_test	14	DL_test	5			0		pa	1	967	6	2	antiphase_hc_ios.wav	3	6	4	noise_calib_stim_RIGHT.wav	2	17	blb_dichoticlistening_ga-pa.mp3	ga	pa	1	right
6.6.1	win	2023-06-27	09:12:28	0	0	63ed0a8a65ddbf9edae99a16	2	1	DL_test	14	DL_test	6			0		da	1	851	6	2	antiphase_hc_ios.wav	3	6	4	noise_calib_stim_RIGHT.wav	2	14	blb_dichoticlistening_ga-da.mp3	ga	da	1	right
6.6.1	win	2023-06-27	09:12:28	0	0	63ed0a8a65ddbf9edae99a16	2	1	DL_test	14	DL_test	7			0		ka	1	2046	6	2	antiphase_hc_ios.wav	3	6	4	noise_calib_stim_RIGHT.wav	2	23	blb_dichoticlistening_ka-pa.mp3	ka	pa	1	left
6.6.1	win	2023-06-27	09:12:28	0	0	63ed0a8a65ddbf9edae99a16	2	1	DL_test	14	DL_test	8			0		ka	1	858	6	2	antiphase_hc_ios.wav	3	6	4	noise_calib_stim_RIGHT.wav	2	20	blb_dichoticlistening_ka-da.mp3	ka	da	1	left
6.6.1	win	2023-06-27	09:12:28	0	0	63ed0a8a65ddbf9edae99a16	2	1	DL_test	14	DL_test	9			0		ka	0	744	6	2	antiphase_hc_ios.wav	3	6	4	noise_calib_stim_RIGHT.wav	2	33	blb_dichoticlistening_ta-ga.mp3	ta	ga	1	other
6.6.1	win	2023-06-27	09:12:28	0	0	63ed0a8a65ddbf9edae99a16	2	1	DL_test	14	DL_test	10			0		ka	1	673	6	2	antiphase_hc_ios.wav	3	6	4	noise_calib_stim_RIGHT.wav	2	4	blb_dichoticlistening_ba-ka.mp3	ba	ka	1	right
6.6.1	win	2023-06-27	09:12:28	0	0	63ed0a8a65ddbf9edae99a16	2	1	DL_test	14	DL_test	11			0		pa	1	757	6	2	antiphase_hc_ios.wav	3	6	4	noise_calib_stim_RIGHT.wav	2	11	blb_dichoticlistening_da-pa.mp3	da	pa	1	right
6.6.1	win	2023-06-27	09:12:28	0	0	63ed0a8a65ddbf9edae99a16	2	1	DL_test	14	DL_test	12			0		ka	1	938	6	2	antiphase_hc_ios.wav	3	6	4	noise_calib_stim_RIGHT.wav	2	19	blb_dichoticlistening_ka-ba.mp3	ka	ba	1	left
6.6.1	win	2023-06-27	09:12:28	0	0	63ed0a8a65ddbf9edae99a16	2	1	DL_test	14	DL_test	13			0		ta	0	811	6	2	antiphase_hc_ios.wav	3	6	4	noise_calib_stim_RIGHT.wav	2	26	blb_dichoticlistening_pa-da.mp3	pa	da	1	other
6.6.1	win	2023-06-27	09:12:28	0	0	63ed0a8a65ddbf9edae99a16	2	1	DL_test	14	DL_test	14			0		ba	1	1022	6	2	antiphase_hc_ios.wav	3	6	4	noise_calib_stim_RIGHT.wav	2	13	blb_dichoticlistening_ga-ba.mp3	ga	ba	1	right
6.6.1	win	2023-06-27	09:12:28	0	0	63ed0a8a65ddbf9edae99a16	2	1	DL_test	14	DL_test	15			0		ka	0	1373	6	2	antiphase_hc_ios.wav	3	6	4	noise_calib_stim_RIGHT.wav	2	27	blb_dichoticlistening_pa-ga.mp3	pa	ga	1	other
6.6.1	win	2023-06-27	09:12:28	0	0	63ed0a8a65ddbf9edae99a16	2	1	DL_test	14	DL_test	16			0		ta	1	1517	6	2	antiphase_hc_ios.wav	3	6	4	noise_calib_stim_RIGHT.wav	2	30	blb_dichoticlistening_pa-ta.mp3	pa	ta	1	right
6.6.1	win	2023-06-27	09:12:28	0	0	63ed0a8a65ddbf9edae99a16	2	1	DL_test	14	DL_test	17			0		pa	1	1355	6	2	antiphase_hc_ios.wav	3	6	4	noise_calib_stim_RIGHT.wav	2	29	blb_dichoticlistening_pa-pa.mp3	pa	pa	0	left
6.6.1	win	2023-06-27	09:12:28	0	0	63ed0a8a65ddbf9edae99a16	2	1	DL_test	14	DL_test	18			0		ga	1	825	6	2	antiphase_hc_ios.wav	3	6	4	noise_calib_stim_RIGHT.wav	2	3	blb_dichoticlistening_ba-ga.mp3	ba	ga	1	right
6.6.1	win	2023-06-27	09:12:28	0	0	63ed0a8a65ddbf9edae99a16	2	1	DL_test	14	DL_test	19			0		ka	0	1639	6	2	antiphase_hc_ios.wav	3	6	4	noise_calib_stim_RIGHT.wav	2	6	blb_dichoticlistening_ba-ta.mp3	ba	ta	1	other
6.6.1	win	2023-06-27	09:12:28	0	0	63ed0a8a65ddbf9edae99a16	2	1	DL_test	14	DL_test	20			0		ta	1	1096	6	2	antiphase_hc_ios.wav	3	6	4	noise_calib_stim_RIGHT.wav	2	35	blb_dichoticlistening_ta-pa.mp3	ta	pa	1	left
6.6.1	win	2023-06-27	09:12:28	0	0	63ed0a8a65ddbf9edae99a16	2	1	DL_test	14	DL_test	21			0		ka	1	1783	6	2	antiphase_hc_ios.wav	3	6	4	noise_calib_stim_RIGHT.wav	2	34	blb_dichoticlistening_ta-ka.mp3	ta	ka	1	right
6.6.1	win	2023-06-27	09:12:28	0	0	63ed0a8a65ddbf9edae99a16	2	1	DL_test	14	DL_test	22			0		ba	1	968	6	2	antiphase_hc_ios.wav	3	6	4	noise_calib_stim_RIGHT.wav	2	1	blb_dichoticlistening_ba-ba.mp3	ba	ba	0	left
6.6.1	win	2023-06-27	09:12:28	0	0	63ed0a8a65ddbf9edae99a16	2	1	DL_test	14	DL_test	23			0		pa	0	1205	6	2	antiphase_hc_ios.wav	3	6	4	noise_calib_stim_RIGHT.wav	2	10	blb_dichoticlistening_da-ka.mp3	da	ka	1	other
6.6.1	win	2023-06-27	09:12:28	0	0	63ed0a8a65ddbf9edae99a16	2	1	DL_test	14	DL_test	24			0		ta	1	951	6	2	antiphase_hc_ios.wav	3	6	4	noise_calib_stim_RIGHT.wav	2	12	blb_dichoticlistening_da-ta.mp3	da	ta	1	right
6.6.1	win	2023-06-27	09:12:28	0	0	63ed0a8a65ddbf9edae99a16	2	1	DL_test	14	DL_test	25			0		ka	0	962	6	2	antiphase_hc_ios.wav	3	6	4	noise_calib_stim_RIGHT.wav	2	18	blb_dichoticlistening_ga-ta.mp3	ga	ta	1	other
6.6.1	win	2023-06-27	09:12:28	0	0	63ed0a8a65ddbf9edae99a16	2	1	DL_test	14	DL_test	26			0		ka	1	883	6	2	antiphase_hc_ios.wav	3	6	4	noise_calib_stim_RIGHT.wav	2	28	blb_dichoticlistening_pa-ka.mp3	pa	ka	1	right
6.6.1	win	2023-06-27	09:12:28	0	0	63ed0a8a65ddbf9edae99a16	2	1	DL_test	14	DL_test	27			0		ta	1	1118	6	2	antiphase_hc_ios.wav	3	6	4	noise_calib_stim_RIGHT.wav	2	36	blb_dichoticlistening_ta-ta.mp3	ta	ta	0	left
6.6.1	win	2023-06-27	09:12:28	0	0	63ed0a8a65ddbf9edae99a16	2	1	DL_test	14	DL_test	28			0		ka	1	1936	6	2	antiphase_hc_ios.wav	3	6	4	noise_calib_stim_RIGHT.wav	2	24	blb_dichoticlistening_ka-ta.mp3	ka	ta	1	left
6.6.1	win	2023-06-27	09:12:28	0	0	63ed0a8a65ddbf9edae99a16	2	1	DL_test	14	DL_test	29			0		pa	0	976	6	2	antiphase_hc_ios.wav	3	6	4	noise_calib_stim_RIGHT.wav	2	31	blb_dichoticlistening_ta-ba.mp3	ta	ba	1	other
6.6.1	win	2023-06-27	09:12:28	0	0	63ed0a8a65ddbf9edae99a16	2	1	DL_test	14	DL_test	30			0		pa	1	1120	6	2	antiphase_hc_ios.wav	3	6	4	noise_calib_stim_RIGHT.wav	2	25	blb_dichoticlistening_pa-ba.mp3	pa	ba	1	left
6.6.1	win	2023-06-27	09:12:28	0	0	63ed0a8a65ddbf9edae99a16	2	1	DL_test	14	DL_test	31			0		da	1	662	6	2	antiphase_hc_ios.wav	3	6	4	noise_calib_stim_RIGHT.wav	2	8	blb_dichoticlistening_da-da.mp3	da	da	0	left
6.6.1	win	2023-06-27	09:12:28	0	0	63ed0a8a65ddbf9edae99a16	2	1	DL_test	14	DL_test	32			0		ga	1	815	6	2	antiphase_hc_ios.wav	3	6	4	noise_calib_stim_RIGHT.wav	2	15	blb_dichoticlistening_ga-ga.mp3	ga	ga	0	left
6.6.1	win	2023-06-27	09:12:28	0	0	63ed0a8a65ddbf9edae99a16	2	1	DL_test	14	DL_test	33			0		ba	1	1239	6	2	antiphase_hc_ios.wav	3	6	4	noise_calib_stim_RIGHT.wav	2	7	blb_dichoticlistening_da-ba.mp3	da	ba	1	right
6.6.1	win	2023-06-27	09:12:28	0	0	63ed0a8a65ddbf9edae99a16	2	1	DL_test	14	DL_test	34			0		ka	1	1266	6	2	antiphase_hc_ios.wav	3	6	4	noise_calib_stim_RIGHT.wav	2	21	blb_dichoticlistening_ka-ga.mp3	ka	ga	1	left
6.6.1	win	2023-06-27	09:12:28	0	0	63ed0a8a65ddbf9edae99a16	2	1	DL_test	14	DL_test	35			0		ta	1	1071	6	2	antiphase_hc_ios.wav	3	6	4	noise_calib_stim_RIGHT.wav	2	32	blb_dichoticlistening_ta-da.mp3	ta	da	1	left
6.6.1	win	2023-06-27	09:12:28	0	0	63ed0a8a65ddbf9edae99a16	2	1	DL_test	14	DL_test	36			0		ka	1	1188	6	2	antiphase_hc_ios.wav	3	6	4	noise_calib_stim_RIGHT.wav	2	16	blb_dichoticlistening_ga-ka.mp3	ga	ka	1	right
6.6.1	win	2023-06-27	09:12:28	0	0	63ed0a8a65ddbf9edae99a16	2	1	DL_test	15	DL_test	1			0		ta	1	3504	6	2	antiphase_hc_ios.wav	3	6	4	noise_calib_stim_RIGHT.wav	2	35	blb_dichoticlistening_ta-pa.mp3	ta	pa	1	left
6.6.1	win	2023-06-27	09:12:28	0	0	63ed0a8a65ddbf9edae99a16	2	1	DL_test	15	DL_test	2			0		ka	0	951	6	2	antiphase_hc_ios.wav	3	6	4	noise_calib_stim_RIGHT.wav	2	18	blb_dichoticlistening_ga-ta.mp3	ga	ta	1	other
6.6.1	win	2023-06-27	09:12:28	0	0	63ed0a8a65ddbf9edae99a16	2	1	DL_test	15	DL_test	3			0		ga	1	1137	6	2	antiphase_hc_ios.wav	3	6	4	noise_calib_stim_RIGHT.wav	2	3	blb_dichoticlistening_ba-ga.mp3	ba	ga	1	right
6.6.1	win	2023-06-27	09:12:28	0	0	63ed0a8a65ddbf9edae99a16	2	1	DL_test	15	DL_test	4			0		pa	1	845	6	2	antiphase_hc_ios.wav	3	6	4	noise_calib_stim_RIGHT.wav	2	25	blb_dichoticlistening_pa-ba.mp3	pa	ba	1	left
6.6.1	win	2023-06-27	09:12:28	0	0	63ed0a8a65ddbf9edae99a16	2	1	DL_test	15	DL_test	5			0		ka	1	1180	6	2	antiphase_hc_ios.wav	3	6	4	noise_calib_stim_RIGHT.wav	2	24	blb_dichoticlistening_ka-ta.mp3	ka	ta	1	left
6.6.1	win	2023-06-27	09:12:28	0	0	63ed0a8a65ddbf9edae99a16	2	1	DL_test	15	DL_test	6			0		ka	1	1374	6	2	antiphase_hc_ios.wav	3	6	4	noise_calib_stim_RIGHT.wav	2	19	blb_dichoticlistening_ka-ba.mp3	ka	ba	1	left
6.6.1	win	2023-06-27	09:12:28	0	0	63ed0a8a65ddbf9edae99a16	2	1	DL_test	15	DL_test	7			0		ta	1	1042	6	2	antiphase_hc_ios.wav	3	6	4	noise_calib_stim_RIGHT.wav	2	36	blb_dichoticlistening_ta-ta.mp3	ta	ta	0	left
6.6.1	win	2023-06-27	09:12:28	0	0	63ed0a8a65ddbf9edae99a16	2	1	DL_test	15	DL_test	8			0		pa	1	1602	6	2	antiphase_hc_ios.wav	3	6	4	noise_calib_stim_RIGHT.wav	2	27	blb_dichoticlistening_pa-ga.mp3	pa	ga	1	left
6.6.1	win	2023-06-27	09:12:28	0	0	63ed0a8a65ddbf9edae99a16	2	1	DL_test	15	DL_test	9			0		pa	0	1646	6	2	antiphase_hc_ios.wav	3	6	4	noise_calib_stim_RIGHT.wav	2	31	blb_dichoticlistening_ta-ba.mp3	ta	ba	1	other
6.6.1	win	2023-06-27	09:12:28	0	0	63ed0a8a65ddbf9edae99a16	2	1	DL_test	15	DL_test	10			0		ka	0	897	6	2	antiphase_hc_ios.wav	3	6	4	noise_calib_stim_RIGHT.wav	2	33	blb_dichoticlistening_ta-ga.mp3	ta	ga	1	other
6.6.1	win	2023-06-27	09:12:28	0	0	63ed0a8a65ddbf9edae99a16	2	1	DL_test	15	DL_test	11			0		pa	1	952	6	2	antiphase_hc_ios.wav	3	6	4	noise_calib_stim_RIGHT.wav	2	29	blb_dichoticlistening_pa-pa.mp3	pa	pa	0	left
6.6.1	win	2023-06-27	09:12:28	0	0	63ed0a8a65ddbf9edae99a16	2	1	DL_test	15	DL_test	12			0		ka	1	1028	6	2	antiphase_hc_ios.wav	3	6	4	noise_calib_stim_RIGHT.wav	2	22	blb_dichoticlistening_ka-ka.mp3	ka	ka	0	left
6.6.1	win	2023-06-27	09:12:28	0	0	63ed0a8a65ddbf9edae99a16	2	1	DL_test	15	DL_test	13			0		pa	0	1059	6	2	antiphase_hc_ios.wav	3	6	4	noise_calib_stim_RIGHT.wav	2	10	blb_dichoticlistening_da-ka.mp3	da	ka	1	other
6.6.1	win	2023-06-27	09:12:28	0	0	63ed0a8a65ddbf9edae99a16	2	1	DL_test	15	DL_test	14			0		ta	1	1031	6	2	antiphase_hc_ios.wav	3	6	4	noise_calib_stim_RIGHT.wav	2	32	blb_dichoticlistening_ta-da.mp3	ta	da	1	left
6.6.1	win	2023-06-27	09:12:28	0	0	63ed0a8a65ddbf9edae99a16	2	1	DL_test	15	DL_test	15			0		ga	1	868	6	2	antiphase_hc_ios.wav	3	6	4	noise_calib_stim_RIGHT.wav	2	15	blb_dichoticlistening_ga-ga.mp3	ga	ga	0	left
6.6.1	win	2023-06-27	09:12:28	0	0	63ed0a8a65ddbf9edae99a16	2	1	DL_test	15	DL_test	16			0		ka	1	1200	6	2	antiphase_hc_ios.wav	3	6	4	noise_calib_stim_RIGHT.wav	2	28	blb_dichoticlistening_pa-ka.mp3	pa	ka	1	right
6.6.1	win	2023-06-27	09:12:28	0	0	63ed0a8a65ddbf9edae99a16	2	1	DL_test	15	DL_test	17			0		ta	0	1281	6	2	antiphase_hc_ios.wav	3	6	4	noise_calib_stim_RIGHT.wav	2	26	blb_dichoticlistening_pa-da.mp3	pa	da	1	other
6.6.1	win	2023-06-27	09:12:28	0	0	63ed0a8a65ddbf9edae99a16	2	1	DL_test	15	DL_test	18			0		ka	1	795	6	2	antiphase_hc_ios.wav	3	6	4	noise_calib_stim_RIGHT.wav	2	4	blb_dichoticlistening_ba-ka.mp3	ba	ka	1	right
6.6.1	win	2023-06-27	09:12:28	0	0	63ed0a8a65ddbf9edae99a16	2	1	DL_test	15	DL_test	19			0		pa	1	1032	6	2	antiphase_hc_ios.wav	3	6	4	noise_calib_stim_RIGHT.wav	2	17	blb_dichoticlistening_ga-pa.mp3	ga	pa	1	right
6.6.1	win	2023-06-27	09:12:28	0	0	63ed0a8a65ddbf9edae99a16	2	1	DL_test	15	DL_test	20			0		ba	1	1106	6	2	antiphase_hc_ios.wav	3	6	4	noise_calib_stim_RIGHT.wav	2	1	blb_dichoticlistening_ba-ba.mp3	ba	ba	0	left
6.6.1	win	2023-06-27	09:12:28	0	0	63ed0a8a65ddbf9edae99a16	2	1	DL_test	15	DL_test	21			0		ta	1	1547	6	2	antiphase_hc_ios.wav	3	6	4	noise_calib_stim_RIGHT.wav	2	30	blb_dichoticlistening_pa-ta.mp3	pa	ta	1	right
6.6.1	win	2023-06-27	09:12:28	0	0	63ed0a8a65ddbf9edae99a16	2	1	DL_test	15	DL_test	22			0		ba	1	1264	6	2	antiphase_hc_ios.wav	3	6	4	noise_calib_stim_RIGHT.wav	2	13	blb_dichoticlistening_ga-ba.mp3	ga	ba	1	right
6.6.1	win	2023-06-27	09:12:28	0	0	63ed0a8a65ddbf9edae99a16	2	1	DL_test	15	DL_test	23			0		ka	1	1073	6	2	antiphase_hc_ios.wav	3	6	4	noise_calib_stim_RIGHT.wav	2	20	blb_dichoticlistening_ka-da.mp3	ka	da	1	left
6.6.1	win	2023-06-27	09:12:28	0	0	63ed0a8a65ddbf9edae99a16	2	1	DL_test	15	DL_test	24			0		ga	0	3374	6	2	antiphase_hc_ios.wav	3	6	4	noise_calib_stim_RIGHT.wav	2	34	blb_dichoticlistening_ta-ka.mp3	ta	ka	1	other
6.6.1	win	2023-06-27	09:12:28	0	0	63ed0a8a65ddbf9edae99a16	2	1	DL_test	15	DL_test	25			0		ka	1	940	6	2	antiphase_hc_ios.wav	3	6	4	noise_calib_stim_RIGHT.wav	2	16	blb_dichoticlistening_ga-ka.mp3	ga	ka	1	right
6.6.1	win	2023-06-27	09:12:28	0	0	63ed0a8a65ddbf9edae99a16	2	1	DL_test	15	DL_test	26			0		ka	1	1277	6	2	antiphase_hc_ios.wav	3	6	4	noise_calib_stim_RIGHT.wav	2	21	blb_dichoticlistening_ka-ga.mp3	ka	ga	1	left
6.6.1	win	2023-06-27	09:12:28	0	0	63ed0a8a65ddbf9edae99a16	2	1	DL_test	15	DL_test	27			0		ba	1	895	6	2	antiphase_hc_ios.wav	3	6	4	noise_calib_stim_RIGHT.wav	2	7	blb_dichoticlistening_da-ba.mp3	da	ba	1	right
6.6.1	win	2023-06-27	09:12:28	0	0	63ed0a8a65ddbf9edae99a16	2	1	DL_test	15	DL_test	28			0		pa	1	1030	6	2	antiphase_hc_ios.wav	3	6	4	noise_calib_stim_RIGHT.wav	2	11	blb_dichoticlistening_da-pa.mp3	da	pa	1	right
6.6.1	win	2023-06-27	09:12:28	0	0	63ed0a8a65ddbf9edae99a16	2	1	DL_test	15	DL_test	29			0		da	1	1020	6	2	antiphase_hc_ios.wav	3	6	4	noise_calib_stim_RIGHT.wav	2	8	blb_dichoticlistening_da-da.mp3	da	da	0	left
6.6.1	win	2023-06-27	09:12:28	0	0	63ed0a8a65ddbf9edae99a16	2	1	DL_test	15	DL_test	30			0		pa	1	1534	6	2	antiphase_hc_ios.wav	3	6	4	noise_calib_stim_RIGHT.wav	2	5	blb_dichoticlistening_ba-pa.mp3	ba	pa	1	right
6.6.1	win	2023-06-27	09:12:28	0	0	63ed0a8a65ddbf9edae99a16	2	1	DL_test	15	DL_test	31			0		ta	1	983	6	2	antiphase_hc_ios.wav	3	6	4	noise_calib_stim_RIGHT.wav	2	6	blb_dichoticlistening_ba-ta.mp3	ba	ta	1	right
6.6.1	win	2023-06-27	09:12:28	0	0	63ed0a8a65ddbf9edae99a16	2	1	DL_test	15	DL_test	32			0		da	1	1239	6	2	antiphase_hc_ios.wav	3	6	4	noise_calib_stim_RIGHT.wav	2	14	blb_dichoticlistening_ga-da.mp3	ga	da	1	right
6.6.1	win	2023-06-27	09:12:28	0	0	63ed0a8a65ddbf9edae99a16	2	1	DL_test	15	DL_test	33			0		pa	1	1793	6	2	antiphase_hc_ios.wav	3	6	4	noise_calib_stim_RIGHT.wav	2	23	blb_dichoticlistening_ka-pa.mp3	ka	pa	1	right
6.6.1	win	2023-06-27	09:12:28	0	0	63ed0a8a65ddbf9edae99a16	2	1	DL_test	15	DL_test	34			0		ga	1	828	6	2	antiphase_hc_ios.wav	3	6	4	noise_calib_stim_RIGHT.wav	2	9	blb_dichoticlistening_da-ga.mp3	da	ga	1	right
6.6.1	win	2023-06-27	09:12:28	0	0	63ed0a8a65ddbf9edae99a16	2	1	DL_test	15	DL_test	35			0		da	1	1512	6	2	antiphase_hc_ios.wav	3	6	4	noise_calib_stim_RIGHT.wav	2	2	blb_dichoticlistening_ba-da.mp3	ba	da	1	right
6.6.1	win	2023-06-27	09:12:28	0	0	63ed0a8a65ddbf9edae99a16	2	1	DL_test	15	DL_test	36			0		ta	1	995	6	2	antiphase_hc_ios.wav	3	6	4	noise_calib_stim_RIGHT.wav	2	12	blb_dichoticlistening_da-ta.mp3	da	ta	1	right
6.6.1	win	2023-06-27	09:12:28	0	0	63ed0a8a65ddbf9edae99a16	2	1	DL_test	16	DL_test	1			0		ta	1	851	6	2	antiphase_hc_ios.wav	3	6	4	noise_calib_stim_RIGHT.wav	2	12	blb_dichoticlistening_da-ta.mp3	da	ta	1	right
6.6.1	win	2023-06-27	09:12:28	0	0	63ed0a8a65ddbf9edae99a16	2	1	DL_test	16	DL_test	2			0		ka	1	1281	6	2	antiphase_hc_ios.wav	3	6	4	noise_calib_stim_RIGHT.wav	2	19	blb_dichoticlistening_ka-ba.mp3	ka	ba	1	left
6.6.1	win	2023-06-27	09:12:28	0	0	63ed0a8a65ddbf9edae99a16	2	1	DL_test	16	DL_test	3			0		da	1	871	6	2	antiphase_hc_ios.wav	3	6	4	noise_calib_stim_RIGHT.wav	2	9	blb_dichoticlistening_da-ga.mp3	da	ga	1	left
6.6.1	win	2023-06-27	09:12:28	0	0	63ed0a8a65ddbf9edae99a16	2	1	DL_test	16	DL_test	4			0		ka	1	902	6	2	antiphase_hc_ios.wav	3	6	4	noise_calib_stim_RIGHT.wav	2	20	blb_dichoticlistening_ka-da.mp3	ka	da	1	left
6.6.1	win	2023-06-27	09:12:28	0	0	63ed0a8a65ddbf9edae99a16	2	1	DL_test	16	DL_test	5			0		ba	1	889	6	2	antiphase_hc_ios.wav	3	6	4	noise_calib_stim_RIGHT.wav	2	7	blb_dichoticlistening_da-ba.mp3	da	ba	1	right
6.6.1	win	2023-06-27	09:12:28	0	0	63ed0a8a65ddbf9edae99a16	2	1	DL_test	16	DL_test	6			0		ta	1	833	6	2	antiphase_hc_ios.wav	3	6	4	noise_calib_stim_RIGHT.wav	2	30	blb_dichoticlistening_pa-ta.mp3	pa	ta	1	right
6.6.1	win	2023-06-27	09:12:28	0	0	63ed0a8a65ddbf9edae99a16	2	1	DL_test	16	DL_test	7			0		ta	0	990	6	2	antiphase_hc_ios.wav	3	6	4	noise_calib_stim_RIGHT.wav	2	26	blb_dichoticlistening_pa-da.mp3	pa	da	1	other
6.6.1	win	2023-06-27	09:12:28	0	0	63ed0a8a65ddbf9edae99a16	2	1	DL_test	16	DL_test	8			0		pa	1	863	6	2	antiphase_hc_ios.wav	3	6	4	noise_calib_stim_RIGHT.wav	2	25	blb_dichoticlistening_pa-ba.mp3	pa	ba	1	left
6.6.1	win	2023-06-27	09:12:28	0	0	63ed0a8a65ddbf9edae99a16	2	1	DL_test	16	DL_test	9			0		ga	1	676	6	2	antiphase_hc_ios.wav	3	6	4	noise_calib_stim_RIGHT.wav	2	15	blb_dichoticlistening_ga-ga.mp3	ga	ga	0	left
6.6.1	win	2023-06-27	09:12:28	0	0	63ed0a8a65ddbf9edae99a16	2	1	DL_test	16	DL_test	10			0		ka	1	1564	6	2	antiphase_hc_ios.wav	3	6	4	noise_calib_stim_RIGHT.wav	2	16	blb_dichoticlistening_ga-ka.mp3	ga	ka	1	right
6.6.1	win	2023-06-27	09:12:28	0	0	63ed0a8a65ddbf9edae99a16	2	1	DL_test	16	DL_test	11			0		ka	1	1681	6	2	antiphase_hc_ios.wav	3	6	4	noise_calib_stim_RIGHT.wav	2	28	blb_dichoticlistening_pa-ka.mp3	pa	ka	1	right
6.6.1	win	2023-06-27	09:12:28	0	0	63ed0a8a65ddbf9edae99a16	2	1	DL_test	16	DL_test	12			0		ba	1	883	6	2	antiphase_hc_ios.wav	3	6	4	noise_calib_stim_RIGHT.wav	2	13	blb_dichoticlistening_ga-ba.mp3	ga	ba	1	right
6.6.1	win	2023-06-27	09:12:28	0	0	63ed0a8a65ddbf9edae99a16	2	1	DL_test	16	DL_test	13			0		ka	1	1087	6	2	antiphase_hc_ios.wav	3	6	4	noise_calib_stim_RIGHT.wav	2	4	blb_dichoticlistening_ba-ka.mp3	ba	ka	1	right
6.6.1	win	2023-06-27	09:12:28	0	0	63ed0a8a65ddbf9edae99a16	2	1	DL_test	16	DL_test	14			0		pa	1	1282	6	2	antiphase_hc_ios.wav	3	6	4	noise_calib_stim_RIGHT.wav	2	11	blb_dichoticlistening_da-pa.mp3	da	pa	1	right
6.6.1	win	2023-06-27	09:12:28	0	0	63ed0a8a65ddbf9edae99a16	2	1	DL_test	16	DL_test	15			0		ga	1	1039	6	2	antiphase_hc_ios.wav	3	6	4	noise_calib_stim_RIGHT.wav	2	3	blb_dichoticlistening_ba-ga.mp3	ba	ga	1	right
6.6.1	win	2023-06-27	09:12:28	0	0	63ed0a8a65ddbf9edae99a16	2	1	DL_test	16	DL_test	16			0		ta	1	1138	6	2	antiphase_hc_ios.wav	3	6	4	noise_calib_stim_RIGHT.wav	2	35	blb_dichoticlistening_ta-pa.mp3	ta	pa	1	left
6.6.1	win	2023-06-27	09:12:28	0	0	63ed0a8a65ddbf9edae99a16	2	1	DL_test	16	DL_test	17			0		ta	1	902	6	2	antiphase_hc_ios.wav	3	6	4	noise_calib_stim_RIGHT.wav	2	6	blb_dichoticlistening_ba-ta.mp3	ba	ta	1	right
6.6.1	win	2023-06-27	09:12:28	0	0	63ed0a8a65ddbf9edae99a16	2	1	DL_test	16	DL_test	18			0		ka	0	1003	6	2	antiphase_hc_ios.wav	3	6	4	noise_calib_stim_RIGHT.wav	2	33	blb_dichoticlistening_ta-ga.mp3	ta	ga	1	other
6.6.1	win	2023-06-27	09:12:28	0	0	63ed0a8a65ddbf9edae99a16	2	1	DL_test	16	DL_test	19			0		ta	1	1109	6	2	antiphase_hc_ios.wav	3	6	4	noise_calib_stim_RIGHT.wav	2	32	blb_dichoticlistening_ta-da.mp3	ta	da	1	left
6.6.1	win	2023-06-27	09:12:28	0	0	63ed0a8a65ddbf9edae99a16	2	1	DL_test	16	DL_test	20			0		ka	1	951	6	2	antiphase_hc_ios.wav	3	6	4	noise_calib_stim_RIGHT.wav	2	22	blb_dichoticlistening_ka-ka.mp3	ka	ka	0	left
6.6.1	win	2023-06-27	09:12:28	0	0	63ed0a8a65ddbf9edae99a16	2	1	DL_test	16	DL_test	21			0		ka	0	1165	6	2	antiphase_hc_ios.wav	3	6	4	noise_calib_stim_RIGHT.wav	2	18	blb_dichoticlistening_ga-ta.mp3	ga	ta	1	other
6.6.1	win	2023-06-27	09:12:28	0	0	63ed0a8a65ddbf9edae99a16	2	1	DL_test	16	DL_test	22			0		pa	1	1052	6	2	antiphase_hc_ios.wav	3	6	4	noise_calib_stim_RIGHT.wav	2	23	blb_dichoticlistening_ka-pa.mp3	ka	pa	1	right
6.6.1	win	2023-06-27	09:12:28	0	0	63ed0a8a65ddbf9edae99a16	2	1	DL_test	16	DL_test	23			0		da	1	845	6	2	antiphase_hc_ios.wav	3	6	4	noise_calib_stim_RIGHT.wav	2	8	blb_dichoticlistening_da-da.mp3	da	da	0	left
6.6.1	win	2023-06-27	09:12:28	0	0	63ed0a8a65ddbf9edae99a16	2	1	DL_test	16	DL_test	24			0		ta	1	1192	6	2	antiphase_hc_ios.wav	3	6	4	noise_calib_stim_RIGHT.wav	2	36	blb_dichoticlistening_ta-ta.mp3	ta	ta	0	left
6.6.1	win	2023-06-27	09:12:28	0	0	63ed0a8a65ddbf9edae99a16	2	1	DL_test	16	DL_test	25			0		pa	1	1147	6	2	antiphase_hc_ios.wav	3	6	4	noise_calib_stim_RIGHT.wav	2	29	blb_dichoticlistening_pa-pa.mp3	pa	pa	0	left
6.6.1	win	2023-06-27	09:12:28	0	0	63ed0a8a65ddbf9edae99a16	2	1	DL_test	16	DL_test	26			0		pa	0	1081	6	2	antiphase_hc_ios.wav	3	6	4	noise_calib_stim_RIGHT.wav	2	31	blb_dichoticlistening_ta-ba.mp3	ta	ba	1	other
6.6.1	win	2023-06-27	09:12:28	0	0	63ed0a8a65ddbf9edae99a16	2	1	DL_test	16	DL_test	27			0		ba	1	940	6	2	antiphase_hc_ios.wav	3	6	4	noise_calib_stim_RIGHT.wav	2	1	blb_dichoticlistening_ba-ba.mp3	ba	ba	0	left
6.6.1	win	2023-06-27	09:12:28	0	0	63ed0a8a65ddbf9edae99a16	2	1	DL_test	16	DL_test	28			0		ga	1	2305	6	2	antiphase_hc_ios.wav	3	6	4	noise_calib_stim_RIGHT.wav	2	27	blb_dichoticlistening_pa-ga.mp3	pa	ga	1	right
6.6.1	win	2023-06-27	09:12:28	0	0	63ed0a8a65ddbf9edae99a16	2	1	DL_test	16	DL_test	29			0		ka	1	1306	6	2	antiphase_hc_ios.wav	3	6	4	noise_calib_stim_RIGHT.wav	2	21	blb_dichoticlistening_ka-ga.mp3	ka	ga	1	left
6.6.1	win	2023-06-27	09:12:28	0	0	63ed0a8a65ddbf9edae99a16	2	1	DL_test	16	DL_test	30			0		ka	1	1367	6	2	antiphase_hc_ios.wav	3	6	4	noise_calib_stim_RIGHT.wav	2	34	blb_dichoticlistening_ta-ka.mp3	ta	ka	1	right
6.6.1	win	2023-06-27	09:12:28	0	0	63ed0a8a65ddbf9edae99a16	2	1	DL_test	16	DL_test	31			0		ka	1	1460	6	2	antiphase_hc_ios.wav	3	6	4	noise_calib_stim_RIGHT.wav	2	24	blb_dichoticlistening_ka-ta.mp3	ka	ta	1	left
6.6.1	win	2023-06-27	09:12:28	0	0	63ed0a8a65ddbf9edae99a16	2	1	DL_test	16	DL_test	32			0		da	1	802	6	2	antiphase_hc_ios.wav	3	6	4	noise_calib_stim_RIGHT.wav	2	14	blb_dichoticlistening_ga-da.mp3	ga	da	1	right
6.6.1	win	2023-06-27	09:12:28	0	0	63ed0a8a65ddbf9edae99a16	2	1	DL_test	16	DL_test	33			0		pa	1	925	6	2	antiphase_hc_ios.wav	3	6	4	noise_calib_stim_RIGHT.wav	2	17	blb_dichoticlistening_ga-pa.mp3	ga	pa	1	right
6.6.1	win	2023-06-27	09:12:28	0	0	63ed0a8a65ddbf9edae99a16	2	1	DL_test	16	DL_test	34			0		pa	0	735	6	2	antiphase_hc_ios.wav	3	6	4	noise_calib_stim_RIGHT.wav	2	10	blb_dichoticlistening_da-ka.mp3	da	ka	1	other
6.6.1	win	2023-06-27	09:12:28	0	0	63ed0a8a65ddbf9edae99a16	2	1	DL_test	16	DL_test	35			0		pa	1	843	6	2	antiphase_hc_ios.wav	3	6	4	noise_calib_stim_RIGHT.wav	2	5	blb_dichoticlistening_ba-pa.mp3	ba	pa	1	right
6.6.1	win	2023-06-27	09:12:28	0	0	63ed0a8a65ddbf9edae99a16	2	1	DL_test	16	DL_test	36			0		da	1	1000	6	2	antiphase_hc_ios.wav	3	6	4	noise_calib_stim_RIGHT.wav	2	2	blb_dichoticlistening_ba-da.mp3	ba	da	1	right
6.6.1	win	2023-06-27	09:12:28	09:26:27	835611	63ed0a8a65ddbf9edae99a16	2	1	practice_z	22	practice_z	1	stimuli_distractor_diamondtriangles.svg	stimuli_target_diamondrectangles.svg	8	yes	44	1	1721	6	2	antiphase_hc_ios.wav	3	6	4	noise_calib_stim_RIGHT.wav	2	2	blb_dichoticlistening_ba-da.mp3	ba	da	1	right
6.6.1	win	2023-06-27	09:12:28	09:26:27	835611	63ed0a8a65ddbf9edae99a16	2	1	practice_z	22	advance_on_keypress_ZEE	2	stimuli_distractor_diamondtriangles.svg	stimuli_target_diamondrectangles.svg	8	yes	57	0	2472	6	2	antiphase_hc_ios.wav	3	6	4	noise_calib_stim_RIGHT.wav	2	2	blb_dichoticlistening_ba-da.mp3	ba	da	1	right
6.6.1	win	2023-06-27	09:12:28	09:26:32	840935	63ed0a8a65ddbf9edae99a16	2	1	practice_z	22	practice_z	3	stimuli_distractor_trianglediamonds.svg	stimuli_target_rectanglediamonds.svg	10	yes	44	1	1226	6	2	antiphase_hc_ios.wav	3	6	4	noise_calib_stim_RIGHT.wav	2	2	blb_dichoticlistening_ba-da.mp3	ba	da	1	right
6.6.1	win	2023-06-27	09:12:28	09:26:32	840935	63ed0a8a65ddbf9edae99a16	2	1	practice_z	22	advance_on_keypress_ZEE	4	stimuli_distractor_trianglediamonds.svg	stimuli_target_rectanglediamonds.svg	10	yes	57	0	681	6	2	antiphase_hc_ios.wav	3	6	4	noise_calib_stim_RIGHT.wav	2	2	blb_dichoticlistening_ba-da.mp3	ba	da	1	right
6.6.1	win	2023-06-27	09:12:28	09:26:36	844415	63ed0a8a65ddbf9edae99a16	2	1	practice_z	22	practice_z	5	stimuli_distractor_diamondtriangles.svg	stimuli_target_rectangletriangles.svg	7	yes	44	1	1185	6	2	antiphase_hc_ios.wav	3	6	4	noise_calib_stim_RIGHT.wav	2	2	blb_dichoticlistening_ba-da.mp3	ba	da	1	right
6.6.1	win	2023-06-27	09:12:28	09:26:36	844415	63ed0a8a65ddbf9edae99a16	2	1	practice_z	22	advance_on_keypress_ZEE	6	stimuli_distractor_diamondtriangles.svg	stimuli_target_rectangletriangles.svg	7	yes	57	0	694	6	2	antiphase_hc_ios.wav	3	6	4	noise_calib_stim_RIGHT.wav	2	2	blb_dichoticlistening_ba-da.mp3	ba	da	1	right
6.6.1	win	2023-06-27	09:12:28	09:26:40	848733	63ed0a8a65ddbf9edae99a16	2	1	practice_z	22	practice_z	7	stimuli_distractor_diamondtriangles.svg	stimuli_distractor_trianglediamonds.svg	14	no	0	1	2003	6	2	antiphase_hc_ios.wav	3	6	4	noise_calib_stim_RIGHT.wav	2	2	blb_dichoticlistening_ba-da.mp3	ba	da	1	right
6.6.1	win	2023-06-27	09:12:28	09:26:40	848733	63ed0a8a65ddbf9edae99a16	2	1	practice_z	22	advance_on_keypress_ZEE	8	stimuli_distractor_diamondtriangles.svg	stimuli_distractor_trianglediamonds.svg	14	no	57	0	442	6	2	antiphase_hc_ios.wav	3	6	4	noise_calib_stim_RIGHT.wav	2	2	blb_dichoticlistening_ba-da.mp3	ba	da	1	right
6.6.1	win	2023-06-27	09:12:28	09:26:43	851918	63ed0a8a65ddbf9edae99a16	2	1	practice_z	22	practice_z	9	stimuli_target_diamondsquares.svg	stimuli_distractor_diamondtriangles.svg	3	yes	44	1	1125	6	2	antiphase_hc_ios.wav	3	6	4	noise_calib_stim_RIGHT.wav	2	2	blb_dichoticlistening_ba-da.mp3	ba	da	1	right
6.6.1	win	2023-06-27	09:12:28	09:26:43	851918	63ed0a8a65ddbf9edae99a16	2	1	practice_z	22	advance_on_keypress_ZEE	10	stimuli_target_diamondsquares.svg	stimuli_distractor_diamondtriangles.svg	3	yes	57	0	522	6	2	antiphase_hc_ios.wav	3	6	4	noise_calib_stim_RIGHT.wav	2	2	blb_dichoticlistening_ba-da.mp3	ba	da	1	right
6.6.1	win	2023-06-27	09:12:28	09:26:46	855186	63ed0a8a65ddbf9edae99a16	2	1	practice_z	22	practice_z	11	stimuli_target_rectanglediamonds.svg	stimuli_distractor_diamondtriangles.svg	1	yes	44	1	1130	6	2	antiphase_hc_ios.wav	3	6	4	noise_calib_stim_RIGHT.wav	2	2	blb_dichoticlistening_ba-da.mp3	ba	da	1	right
6.6.1	win	2023-06-27	09:12:28	09:26:46	855186	63ed0a8a65ddbf9edae99a16	2	1	practice_z	22	advance_on_keypress_ZEE	12	stimuli_target_rectanglediamonds.svg	stimuli_distractor_diamondtriangles.svg	1	yes	57	0	658	6	2	antiphase_hc_ios.wav	3	6	4	noise_calib_stim_RIGHT.wav	2	2	blb_dichoticlistening_ba-da.mp3	ba	da	1	right
6.6.1	win	2023-06-27	09:12:28	09:26:50	858590	63ed0a8a65ddbf9edae99a16	2	1	practice_z	22	practice_z	13	stimuli_target_rectanglediamonds.svg	stimuli_distractor_trianglediamonds.svg	4	yes	44	1	1131	6	2	antiphase_hc_ios.wav	3	6	4	noise_calib_stim_RIGHT.wav	2	2	blb_dichoticlistening_ba-da.mp3	ba	da	1	right
6.6.1	win	2023-06-27	09:12:28	09:26:50	858590	63ed0a8a65ddbf9edae99a16	2	1	practice_z	22	advance_on_keypress_ZEE	14	stimuli_target_rectanglediamonds.svg	stimuli_distractor_trianglediamonds.svg	4	yes	57	0	512	6	2	antiphase_hc_ios.wav	3	6	4	noise_calib_stim_RIGHT.wav	2	2	blb_dichoticlistening_ba-da.mp3	ba	da	1	right
6.6.1	win	2023-06-27	09:12:28	09:26:54	862726	63ed0a8a65ddbf9edae99a16	2	1	practice_z	22	practice_z	15	stimuli_distractor_diamondtriangles.svg	stimuli_distractor_diamondtriangles.svg	13	no	0	1	2003	6	2	antiphase_hc_ios.wav	3	6	4	noise_calib_stim_RIGHT.wav	2	2	blb_dichoticlistening_ba-da.mp3	ba	da	1	right
6.6.1	win	2023-06-27	09:12:28	09:26:54	862726	63ed0a8a65ddbf9edae99a16	2	1	practice_z	22	advance_on_keypress_ZEE	16	stimuli_distractor_diamondtriangles.svg	stimuli_distractor_diamondtriangles.svg	13	no	57	0	588	6	2	antiphase_hc_ios.wav	3	6	4	noise_calib_stim_RIGHT.wav	2	2	blb_dichoticlistening_ba-da.mp3	ba	da	1	right
6.6.1	win	2023-06-27	09:12:28	09:26:57	866173	63ed0a8a65ddbf9edae99a16	2	1	practice_z	22	practice_z	17	stimuli_distractor_trianglediamonds.svg	stimuli_target_squarediamonds.svg	11	yes	44	1	1243	6	2	antiphase_hc_ios.wav	3	6	4	noise_calib_stim_RIGHT.wav	2	2	blb_dichoticlistening_ba-da.mp3	ba	da	1	right
6.6.1	win	2023-06-27	09:12:28	09:26:57	866173	63ed0a8a65ddbf9edae99a16	2	1	practice_z	22	advance_on_keypress_ZEE	18	stimuli_distractor_trianglediamonds.svg	stimuli_target_squarediamonds.svg	11	yes	57	0	473	6	2	antiphase_hc_ios.wav	3	6	4	noise_calib_stim_RIGHT.wav	2	2	blb_dichoticlistening_ba-da.mp3	ba	da	1	right
6.6.1	win	2023-06-27	09:12:28	09:27:01	869386	63ed0a8a65ddbf9edae99a16	2	1	practice_z	22	practice_z	19	stimuli_target_squarediamonds.svg	stimuli_distractor_trianglediamonds.svg	5	yes	44	1	1121	6	2	antiphase_hc_ios.wav	3	6	4	noise_calib_stim_RIGHT.wav	2	2	blb_dichoticlistening_ba-da.mp3	ba	da	1	right
6.6.1	win	2023-06-27	09:12:28	09:27:01	869386	63ed0a8a65ddbf9edae99a16	2	1	practice_z	22	advance_on_keypress_ZEE	20	stimuli_target_squarediamonds.svg	stimuli_distractor_trianglediamonds.svg	5	yes	57	0	504	6	2	antiphase_hc_ios.wav	3	6	4	noise_calib_stim_RIGHT.wav	2	2	blb_dichoticlistening_ba-da.mp3	ba	da	1	right
6.6.1	win	2023-06-27	09:12:28	09:27:04	872593	63ed0a8a65ddbf9edae99a16	2	1	practice_z	22	practice_z	21	stimuli_target_squarediamonds.svg	stimuli_distractor_diamondtriangles.svg	2	yes	44	1	1092	6	2	antiphase_hc_ios.wav	3	6	4	noise_calib_stim_RIGHT.wav	2	2	blb_dichoticlistening_ba-da.mp3	ba	da	1	right
6.6.1	win	2023-06-27	09:12:28	09:27:04	872593	63ed0a8a65ddbf9edae99a16	2	1	practice_z	22	advance_on_keypress_ZEE	22	stimuli_target_squarediamonds.svg	stimuli_distractor_diamondtriangles.svg	2	yes	57	0	387	6	2	antiphase_hc_ios.wav	3	6	4	noise_calib_stim_RIGHT.wav	2	2	blb_dichoticlistening_ba-da.mp3	ba	da	1	right
6.6.1	win	2023-06-27	09:12:28	09:27:07	875745	63ed0a8a65ddbf9edae99a16	2	1	practice_z	22	practice_z	23	stimuli_distractor_trianglediamonds.svg	stimuli_target_diamondrectangles.svg	12	yes	44	1	1147	6	2	antiphase_hc_ios.wav	3	6	4	noise_calib_stim_RIGHT.wav	2	2	blb_dichoticlistening_ba-da.mp3	ba	da	1	right
6.6.1	win	2023-06-27	09:12:28	09:27:07	875745	63ed0a8a65ddbf9edae99a16	2	1	practice_z	22	advance_on_keypress_ZEE	24	stimuli_distractor_trianglediamonds.svg	stimuli_target_diamondrectangles.svg	12	yes	57	0	418	6	2	antiphase_hc_ios.wav	3	6	4	noise_calib_stim_RIGHT.wav	2	2	blb_dichoticlistening_ba-da.mp3	ba	da	1	right
6.6.1	win	2023-06-27	09:12:28	09:27:11	879782	63ed0a8a65ddbf9edae99a16	2	1	practice_z	22	practice_z	25	stimuli_distractor_trianglediamonds.svg	stimuli_distractor_diamondtriangles.svg	16	no	0	1	2003	6	2	antiphase_hc_ios.wav	3	6	4	noise_calib_stim_RIGHT.wav	2	2	blb_dichoticlistening_ba-da.mp3	ba	da	1	right
6.6.1	win	2023-06-27	09:12:28	09:27:11	879782	63ed0a8a65ddbf9edae99a16	2	1	practice_z	22	advance_on_keypress_ZEE	26	stimuli_distractor_trianglediamonds.svg	stimuli_distractor_diamondtriangles.svg	16	no	57	0	372	6	2	antiphase_hc_ios.wav	3	6	4	noise_calib_stim_RIGHT.wav	2	2	blb_dichoticlistening_ba-da.mp3	ba	da	1	right
6.6.1	win	2023-06-27	09:12:28	09:27:15	883768	63ed0a8a65ddbf9edae99a16	2	1	practice_z	22	practice_z	27	stimuli_distractor_trianglediamonds.svg	stimuli_distractor_trianglediamonds.svg	15	no	0	1	2003	6	2	antiphase_hc_ios.wav	3	6	4	noise_calib_stim_RIGHT.wav	2	2	blb_dichoticlistening_ba-da.mp3	ba	da	1	right
6.6.1	win	2023-06-27	09:12:28	09:27:15	883768	63ed0a8a65ddbf9edae99a16	2	1	practice_z	22	advance_on_keypress_ZEE	28	stimuli_distractor_trianglediamonds.svg	stimuli_distractor_trianglediamonds.svg	15	no	57	0	294	6	2	antiphase_hc_ios.wav	3	6	4	noise_calib_stim_RIGHT.wav	2	2	blb_dichoticlistening_ba-da.mp3	ba	da	1	right
6.6.1	win	2023-06-27	09:12:28	09:27:18	886932	63ed0a8a65ddbf9edae99a16	2	1	practice_z	22	practice_z	29	stimuli_target_diamondsquares.svg	stimuli_distractor_trianglediamonds.svg	6	yes	44	1	1259	6	2	antiphase_hc_ios.wav	3	6	4	noise_calib_stim_RIGHT.wav	2	2	blb_dichoticlistening_ba-da.mp3	ba	da	1	right
6.6.1	win	2023-06-27	09:12:28	09:27:18	886932	63ed0a8a65ddbf9edae99a16	2	1	practice_z	22	advance_on_keypress_ZEE	30	stimuli_target_diamondsquares.svg	stimuli_distractor_trianglediamonds.svg	6	yes	57	0	443	6	2	antiphase_hc_ios.wav	3	6	4	noise_calib_stim_RIGHT.wav	2	2	blb_dichoticlistening_ba-da.mp3	ba	da	1	right
6.6.1	win	2023-06-27	09:12:28	09:27:21	890129	63ed0a8a65ddbf9edae99a16	2	1	practice_z	22	practice_z	31	stimuli_distractor_diamondtriangles.svg	stimuli_target_trianglerectangles.svg	9	yes	44	1	1135	6	2	antiphase_hc_ios.wav	3	6	4	noise_calib_stim_RIGHT.wav	2	2	blb_dichoticlistening_ba-da.mp3	ba	da	1	right
6.6.1	win	2023-06-27	09:12:28	09:27:21	890129	63ed0a8a65ddbf9edae99a16	2	1	practice_z	22	advance_on_keypress_ZEE	32	stimuli_distractor_diamondtriangles.svg	stimuli_target_trianglerectangles.svg	9	yes	57	0	361	6	2	antiphase_hc_ios.wav	3	6	4	noise_calib_stim_RIGHT.wav	2	2	blb_dichoticlistening_ba-da.mp3	ba	da	1	right
6.6.1	win	2023-06-27	09:12:28	09:27:33	901329	63ed0a8a65ddbf9edae99a16	2	1	main_z	24	main_z	1	stimuli_distractor_diamondtriangles.svg	stimuli_distractor_diamondtriangles.svg	40	no	0	1	2003	6	2	antiphase_hc_ios.wav	3	6	4	noise_calib_stim_RIGHT.wav	2	2	blb_dichoticlistening_ba-da.mp3	ba	da	1	right
6.6.1	win	2023-06-27	09:12:28	09:27:33	901329	63ed0a8a65ddbf9edae99a16	2	1	main_z	24	advance_on_keypress_ZEE	2	stimuli_distractor_diamondtriangles.svg	stimuli_distractor_diamondtriangles.svg	40	no	57	0	1211	6	2	antiphase_hc_ios.wav	3	6	4	noise_calib_stim_RIGHT.wav	2	2	blb_dichoticlistening_ba-da.mp3	ba	da	1	right
6.6.1	win	2023-06-27	09:12:28	09:27:35	904111	63ed0a8a65ddbf9edae99a16	2	1	main_z	24	main_z	3	stimuli_target_trianglerectangles.svg	stimuli_distractor_trianglediamonds.svg	17	yes	44	1	952	6	2	antiphase_hc_ios.wav	3	6	4	noise_calib_stim_RIGHT.wav	2	2	blb_dichoticlistening_ba-da.mp3	ba	da	1	right
6.6.1	win	2023-06-27	09:12:28	09:27:35	904111	63ed0a8a65ddbf9edae99a16	2	1	main_z	24	advance_on_keypress_ZEE	4	stimuli_target_trianglerectangles.svg	stimuli_distractor_trianglediamonds.svg	17	yes	57	0	789	6	2	antiphase_hc_ios.wav	3	6	4	noise_calib_stim_RIGHT.wav	2	2	blb_dichoticlistening_ba-da.mp3	ba	da	1	right
6.6.1	win	2023-06-27	09:12:28	09:27:38	906527	63ed0a8a65ddbf9edae99a16	2	1	main_z	24	main_z	5	stimuli_target_diamondsquares.svg	stimuli_distractor_diamondtriangles.svg	24	yes	44	1	1013	6	2	antiphase_hc_ios.wav	3	6	4	noise_calib_stim_RIGHT.wav	2	2	blb_dichoticlistening_ba-da.mp3	ba	da	1	right
6.6.1	win	2023-06-27	09:12:28	09:27:38	906527	63ed0a8a65ddbf9edae99a16	2	1	main_z	24	advance_on_keypress_ZEE	6	stimuli_target_diamondsquares.svg	stimuli_distractor_diamondtriangles.svg	24	yes	57	0	656	6	2	antiphase_hc_ios.wav	3	6	4	noise_calib_stim_RIGHT.wav	2	2	blb_dichoticlistening_ba-da.mp3	ba	da	1	right
6.6.1	win	2023-06-27	09:12:28	09:27:40	908775	63ed0a8a65ddbf9edae99a16	2	1	main_z	24	main_z	7	stimuli_target_trianglerectangles.svg	stimuli_distractor_diamondtriangles.svg	21	yes	44	1	976	6	2	antiphase_hc_ios.wav	3	6	4	noise_calib_stim_RIGHT.wav	2	2	blb_dichoticlistening_ba-da.mp3	ba	da	1	right
6.6.1	win	2023-06-27	09:12:28	09:27:40	908775	63ed0a8a65ddbf9edae99a16	2	1	main_z	24	advance_on_keypress_ZEE	8	stimuli_target_trianglerectangles.svg	stimuli_distractor_diamondtriangles.svg	21	yes	57	0	693	6	2	antiphase_hc_ios.wav	3	6	4	noise_calib_stim_RIGHT.wav	2	2	blb_dichoticlistening_ba-da.mp3	ba	da	1	right
6.6.1	win	2023-06-27	09:12:28	09:27:43	912086	63ed0a8a65ddbf9edae99a16	2	1	main_z	24	main_z	9	stimuli_distractor_diamondtriangles.svg	stimuli_distractor_trianglediamonds.svg	38	no	0	1	2003	6	2	antiphase_hc_ios.wav	3	6	4	noise_calib_stim_RIGHT.wav	2	2	blb_dichoticlistening_ba-da.mp3	ba	da	1	right
6.6.1	win	2023-06-27	09:12:28	09:27:43	912086	63ed0a8a65ddbf9edae99a16	2	1	main_z	24	advance_on_keypress_ZEE	10	stimuli_distractor_diamondtriangles.svg	stimuli_distractor_trianglediamonds.svg	38	no	57	0	484	6	2	antiphase_hc_ios.wav	3	6	4	noise_calib_stim_RIGHT.wav	2	2	blb_dichoticlistening_ba-da.mp3	ba	da	1	right
6.6.1	win	2023-06-27	09:12:28	09:27:45	914174	63ed0a8a65ddbf9edae99a16	2	1	main_z	24	main_z	11	stimuli_target_trianglesquares.svg	stimuli_distractor_trianglediamonds.svg	18	yes	44	1	993	6	2	antiphase_hc_ios.wav	3	6	4	noise_calib_stim_RIGHT.wav	2	2	blb_dichoticlistening_ba-da.mp3	ba	da	1	right
6.6.1	win	2023-06-27	09:12:28	09:27:45	914174	63ed0a8a65ddbf9edae99a16	2	1	main_z	24	advance_on_keypress_ZEE	12	stimuli_target_trianglesquares.svg	stimuli_distractor_trianglediamonds.svg	18	yes	57	0	689	6	2	antiphase_hc_ios.wav	3	6	4	noise_calib_stim_RIGHT.wav	2	2	blb_dichoticlistening_ba-da.mp3	ba	da	1	right
6.6.1	win	2023-06-27	09:12:28	09:27:49	917482	63ed0a8a65ddbf9edae99a16	2	1	main_z	24	main_z	13	stimuli_distractor_trianglediamonds.svg	stimuli_distractor_diamondtriangles.svg	35	no	0	1	2003	6	2	antiphase_hc_ios.wav	3	6	4	noise_calib_stim_RIGHT.wav	2	2	blb_dichoticlistening_ba-da.mp3	ba	da	1	right
6.6.1	win	2023-06-27	09:12:28	09:27:49	917482	63ed0a8a65ddbf9edae99a16	2	1	main_z	24	advance_on_keypress_ZEE	14	stimuli_distractor_trianglediamonds.svg	stimuli_distractor_diamondtriangles.svg	35	no	57	0	460	6	2	antiphase_hc_ios.wav	3	6	4	noise_calib_stim_RIGHT.wav	2	2	blb_dichoticlistening_ba-da.mp3	ba	da	1	right
6.6.1	win	2023-06-27	09:12:28	09:27:52	920558	63ed0a8a65ddbf9edae99a16	2	1	main_z	24	main_z	15	stimuli_distractor_trianglediamonds.svg	stimuli_distractor_trianglediamonds.svg	33	no	0	1	2003	6	2	antiphase_hc_ios.wav	3	6	4	noise_calib_stim_RIGHT.wav	2	2	blb_dichoticlistening_ba-da.mp3	ba	da	1	right
6.6.1	win	2023-06-27	09:12:28	09:27:52	920558	63ed0a8a65ddbf9edae99a16	2	1	main_z	24	advance_on_keypress_ZEE	16	stimuli_distractor_trianglediamonds.svg	stimuli_distractor_trianglediamonds.svg	33	no	57	0	399	6	2	antiphase_hc_ios.wav	3	6	4	noise_calib_stim_RIGHT.wav	2	2	blb_dichoticlistening_ba-da.mp3	ba	da	1	right
6.6.1	win	2023-06-27	09:12:28	09:27:54	922594	63ed0a8a65ddbf9edae99a16	2	1	main_z	24	main_z	17	stimuli_distractor_trianglediamonds.svg	stimuli_target_rectanglediamonds.svg	10	yes	44	1	1024	6	2	antiphase_hc_ios.wav	3	6	4	noise_calib_stim_RIGHT.wav	2	2	blb_dichoticlistening_ba-da.mp3	ba	da	1	right
6.6.1	win	2023-06-27	09:12:28	09:27:54	922594	63ed0a8a65ddbf9edae99a16	2	1	main_z	24	advance_on_keypress_ZEE	18	stimuli_distractor_trianglediamonds.svg	stimuli_target_rectanglediamonds.svg	10	yes	57	0	1181	6	2	antiphase_hc_ios.wav	3	6	4	noise_calib_stim_RIGHT.wav	2	2	blb_dichoticlistening_ba-da.mp3	ba	da	1	right
6.6.1	win	2023-06-27	09:12:28	09:27:57	925386	63ed0a8a65ddbf9edae99a16	2	1	main_z	24	main_z	19	stimuli_target_rectanglediamonds.svg	stimuli_distractor_trianglediamonds.svg	2	yes	44	1	997	6	2	antiphase_hc_ios.wav	3	6	4	noise_calib_stim_RIGHT.wav	2	2	blb_dichoticlistening_ba-da.mp3	ba	da	1	right
6.6.1	win	2023-06-27	09:12:28	09:27:57	925386	63ed0a8a65ddbf9edae99a16	2	1	main_z	24	advance_on_keypress_ZEE	20	stimuli_target_rectanglediamonds.svg	stimuli_distractor_trianglediamonds.svg	2	yes	57	0	613	6	2	antiphase_hc_ios.wav	3	6	4	noise_calib_stim_RIGHT.wav	2	2	blb_dichoticlistening_ba-da.mp3	ba	da	1	right
6.6.1	win	2023-06-27	09:12:28	09:27:59	927566	63ed0a8a65ddbf9edae99a16	2	1	main_z	24	main_z	21	stimuli_target_rectangletriangles.svg	stimuli_distractor_diamondtriangles.svg	5	yes	44	1	955	6	2	antiphase_hc_ios.wav	3	6	4	noise_calib_stim_RIGHT.wav	2	2	blb_dichoticlistening_ba-da.mp3	ba	da	1	right
6.6.1	win	2023-06-27	09:12:28	09:27:59	927566	63ed0a8a65ddbf9edae99a16	2	1	main_z	24	advance_on_keypress_ZEE	22	stimuli_target_rectangletriangles.svg	stimuli_distractor_diamondtriangles.svg	5	yes	57	0	804	6	2	antiphase_hc_ios.wav	3	6	4	noise_calib_stim_RIGHT.wav	2	2	blb_dichoticlistening_ba-da.mp3	ba	da	1	right
6.6.1	win	2023-06-27	09:12:28	09:28:01	930010	63ed0a8a65ddbf9edae99a16	2	1	main_z	24	main_z	23	stimuli_target_squarediamonds.svg	stimuli_distractor_diamondtriangles.svg	8	yes	44	1	1024	6	2	antiphase_hc_ios.wav	3	6	4	noise_calib_stim_RIGHT.wav	2	2	blb_dichoticlistening_ba-da.mp3	ba	da	1	right
6.6.1	win	2023-06-27	09:12:28	09:28:01	930010	63ed0a8a65ddbf9edae99a16	2	1	main_z	24	advance_on_keypress_ZEE	24	stimuli_target_squarediamonds.svg	stimuli_distractor_diamondtriangles.svg	8	yes	57	0	632	6	2	antiphase_hc_ios.wav	3	6	4	noise_calib_stim_RIGHT.wav	2	2	blb_dichoticlistening_ba-da.mp3	ba	da	1	right
6.6.1	win	2023-06-27	09:12:28	09:28:04	932218	63ed0a8a65ddbf9edae99a16	2	1	main_z	24	main_z	25	stimuli_target_rectanglediamonds.svg	stimuli_distractor_diamondtriangles.svg	6	yes	44	1	961	6	2	antiphase_hc_ios.wav	3	6	4	noise_calib_stim_RIGHT.wav	2	2	blb_dichoticlistening_ba-da.mp3	ba	da	1	right
6.6.1	win	2023-06-27	09:12:28	09:28:04	932218	63ed0a8a65ddbf9edae99a16	2	1	main_z	24	advance_on_keypress_ZEE	26	stimuli_target_rectanglediamonds.svg	stimuli_distractor_diamondtriangles.svg	6	yes	57	0	627	6	2	antiphase_hc_ios.wav	3	6	4	noise_calib_stim_RIGHT.wav	2	2	blb_dichoticlistening_ba-da.mp3	ba	da	1	right
6.6.1	win	2023-06-27	09:12:28	09:28:06	934829	63ed0a8a65ddbf9edae99a16	2	1	main_z	24	main_z	27	stimuli_distractor_diamondtriangles.svg	stimuli_target_rectanglediamonds.svg	14	yes	44	1	1371	6	2	antiphase_hc_ios.wav	3	6	4	noise_calib_stim_RIGHT.wav	2	2	blb_dichoticlistening_ba-da.mp3	ba	da	1	right
6.6.1	win	2023-06-27	09:12:28	09:28:06	934829	63ed0a8a65ddbf9edae99a16	2	1	main_z	24	advance_on_keypress_ZEE	28	stimuli_distractor_diamondtriangles.svg	stimuli_target_rectanglediamonds.svg	14	yes	57	0	556	6	2	antiphase_hc_ios.wav	3	6	4	noise_calib_stim_RIGHT.wav	2	2	blb_dichoticlistening_ba-da.mp3	ba	da	1	right
6.6.1	win	2023-06-27	09:12:28	09:28:08	937081	63ed0a8a65ddbf9edae99a16	2	1	main_z	24	main_z	29	stimuli_distractor_trianglediamonds.svg	stimuli_target_trianglerectangles.svg	25	yes	44	1	1081	6	2	antiphase_hc_ios.wav	3	6	4	noise_calib_stim_RIGHT.wav	2	2	blb_dichoticlistening_ba-da.mp3	ba	da	1	right
6.6.1	win	2023-06-27	09:12:28	09:28:08	937081	63ed0a8a65ddbf9edae99a16	2	1	main_z	24	advance_on_keypress_ZEE	30	stimuli_distractor_trianglediamonds.svg	stimuli_target_trianglerectangles.svg	25	yes	57	0	503	6	2	antiphase_hc_ios.wav	3	6	4	noise_calib_stim_RIGHT.wav	2	2	blb_dichoticlistening_ba-da.mp3	ba	da	1	right
6.6.1	win	2023-06-27	09:12:28	09:28:11	940204	63ed0a8a65ddbf9edae99a16	2	1	main_z	24	main_z	31	stimuli_distractor_trianglediamonds.svg	stimuli_distractor_trianglediamonds.svg	34	no	0	1	2003	6	2	antiphase_hc_ios.wav	3	6	4	noise_calib_stim_RIGHT.wav	2	2	blb_dichoticlistening_ba-da.mp3	ba	da	1	right
6.6.1	win	2023-06-27	09:12:28	09:28:11	940204	63ed0a8a65ddbf9edae99a16	2	1	main_z	24	advance_on_keypress_ZEE	32	stimuli_distractor_trianglediamonds.svg	stimuli_distractor_trianglediamonds.svg	34	no	57	0	901	6	2	antiphase_hc_ios.wav	3	6	4	noise_calib_stim_RIGHT.wav	2	2	blb_dichoticlistening_ba-da.mp3	ba	da	1	right
6.6.1	win	2023-06-27	09:12:28	09:28:14	942681	63ed0a8a65ddbf9edae99a16	2	1	main_z	24	main_z	33	stimuli_target_diamondsquares.svg	stimuli_distractor_trianglediamonds.svg	20	yes	44	1	959	6	2	antiphase_hc_ios.wav	3	6	4	noise_calib_stim_RIGHT.wav	2	2	blb_dichoticlistening_ba-da.mp3	ba	da	1	right
6.6.1	win	2023-06-27	09:12:28	09:28:14	942681	63ed0a8a65ddbf9edae99a16	2	1	main_z	24	advance_on_keypress_ZEE	34	stimuli_target_diamondsquares.svg	stimuli_distractor_trianglediamonds.svg	20	yes	57	0	506	6	2	antiphase_hc_ios.wav	3	6	4	noise_calib_stim_RIGHT.wav	2	2	blb_dichoticlistening_ba-da.mp3	ba	da	1	right
6.6.1	win	2023-06-27	09:12:28	09:28:16	945081	63ed0a8a65ddbf9edae99a16	2	1	main_z	24	main_z	35	stimuli_distractor_trianglediamonds.svg	stimuli_target_diamondrectangles.svg	27	yes	44	1	1276	6	2	antiphase_hc_ios.wav	3	6	4	noise_calib_stim_RIGHT.wav	2	2	blb_dichoticlistening_ba-da.mp3	ba	da	1	right
6.6.1	win	2023-06-27	09:12:28	09:28:16	945081	63ed0a8a65ddbf9edae99a16	2	1	main_z	24	advance_on_keypress_ZEE	36	stimuli_distractor_trianglediamonds.svg	stimuli_target_diamondrectangles.svg	27	yes	57	0	595	6	2	antiphase_hc_ios.wav	3	6	4	noise_calib_stim_RIGHT.wav	2	2	blb_dichoticlistening_ba-da.mp3	ba	da	1	right
6.6.1	win	2023-06-27	09:12:28	09:28:19	947325	63ed0a8a65ddbf9edae99a16	2	1	main_z	24	main_z	37	stimuli_distractor_diamondtriangles.svg	stimuli_target_trianglerectangles.svg	29	yes	44	1	1033	6	2	antiphase_hc_ios.wav	3	6	4	noise_calib_stim_RIGHT.wav	2	2	blb_dichoticlistening_ba-da.mp3	ba	da	1	right
6.6.1	win	2023-06-27	09:12:28	09:28:19	947325	63ed0a8a65ddbf9edae99a16	2	1	main_z	24	advance_on_keypress_ZEE	38	stimuli_distractor_diamondtriangles.svg	stimuli_target_trianglerectangles.svg	29	yes	57	0	508	6	2	antiphase_hc_ios.wav	3	6	4	noise_calib_stim_RIGHT.wav	2	2	blb_dichoticlistening_ba-da.mp3	ba	da	1	right
6.6.1	win	2023-06-27	09:12:28	09:28:21	949437	63ed0a8a65ddbf9edae99a16	2	1	main_z	24	main_z	39	stimuli_distractor_diamondtriangles.svg	stimuli_target_diamondrectangles.svg	31	yes	44	1	986	6	2	antiphase_hc_ios.wav	3	6	4	noise_calib_stim_RIGHT.wav	2	2	blb_dichoticlistening_ba-da.mp3	ba	da	1	right
6.6.1	win	2023-06-27	09:12:28	09:28:21	949437	63ed0a8a65ddbf9edae99a16	2	1	main_z	24	advance_on_keypress_ZEE	40	stimuli_distractor_diamondtriangles.svg	stimuli_target_diamondrectangles.svg	31	yes	57	0	573	6	2	antiphase_hc_ios.wav	3	6	4	noise_calib_stim_RIGHT.wav	2	2	blb_dichoticlistening_ba-da.mp3	ba	da	1	right
6.6.1	win	2023-06-27	09:12:28	09:28:23	951853	63ed0a8a65ddbf9edae99a16	2	1	main_z	24	main_z	41	stimuli_distractor_trianglediamonds.svg	stimuli_distractor_diamondtriangles.svg	36	no	44	0	1228	6	2	antiphase_hc_ios.wav	3	6	4	noise_calib_stim_RIGHT.wav	2	2	blb_dichoticlistening_ba-da.mp3	ba	da	1	right
6.6.1	win	2023-06-27	09:12:28	09:28:23	951853	63ed0a8a65ddbf9edae99a16	2	1	main_z	24	advance_on_keypress_ZEE	42	stimuli_distractor_trianglediamonds.svg	stimuli_distractor_diamondtriangles.svg	36	no	57	0	408	6	2	antiphase_hc_ios.wav	3	6	4	noise_calib_stim_RIGHT.wav	2	2	blb_dichoticlistening_ba-da.mp3	ba	da	1	right
6.6.1	win	2023-06-27	09:12:28	09:28:25	953877	63ed0a8a65ddbf9edae99a16	2	1	main_z	24	main_z	43	stimuli_target_diamondrectangles.svg	stimuli_distractor_diamondtriangles.svg	23	yes	44	1	995	6	2	antiphase_hc_ios.wav	3	6	4	noise_calib_stim_RIGHT.wav	2	2	blb_dichoticlistening_ba-da.mp3	ba	da	1	right
6.6.1	win	2023-06-27	09:12:28	09:28:25	953877	63ed0a8a65ddbf9edae99a16	2	1	main_z	24	advance_on_keypress_ZEE	44	stimuli_target_diamondrectangles.svg	stimuli_distractor_diamondtriangles.svg	23	yes	57	0	414	6	2	antiphase_hc_ios.wav	3	6	4	noise_calib_stim_RIGHT.wav	2	2	blb_dichoticlistening_ba-da.mp3	ba	da	1	right
6.6.1	win	2023-06-27	09:12:28	09:28:27	956188	63ed0a8a65ddbf9edae99a16	2	1	main_z	24	main_z	45	stimuli_distractor_trianglediamonds.svg	stimuli_target_trianglesquares.svg	26	yes	44	1	1285	6	2	antiphase_hc_ios.wav	3	6	4	noise_calib_stim_RIGHT.wav	2	2	blb_dichoticlistening_ba-da.mp3	ba	da	1	right
6.6.1	win	2023-06-27	09:12:28	09:28:27	956188	63ed0a8a65ddbf9edae99a16	2	1	main_z	24	advance_on_keypress_ZEE	46	stimuli_distractor_trianglediamonds.svg	stimuli_target_trianglesquares.svg	26	yes	57	0	538	6	2	antiphase_hc_ios.wav	3	6	4	noise_calib_stim_RIGHT.wav	2	2	blb_dichoticlistening_ba-da.mp3	ba	da	1	right
6.6.1	win	2023-06-27	09:12:28	09:28:31	959350	63ed0a8a65ddbf9edae99a16	2	1	main_z	24	main_z	47	stimuli_distractor_trianglediamonds.svg	stimuli_target_squaretriangles.svg	11	yes	0	0	2003	6	2	antiphase_hc_ios.wav	3	6	4	noise_calib_stim_RIGHT.wav	2	2	blb_dichoticlistening_ba-da.mp3	ba	da	1	right
6.6.1	win	2023-06-27	09:12:28	09:28:31	959350	63ed0a8a65ddbf9edae99a16	2	1	main_z	24	advance_on_keypress_ZEE	48	stimuli_distractor_trianglediamonds.svg	stimuli_target_squaretriangles.svg	11	yes	57	0	462	6	2	antiphase_hc_ios.wav	3	6	4	noise_calib_stim_RIGHT.wav	2	2	blb_dichoticlistening_ba-da.mp3	ba	da	1	right
6.6.1	win	2023-06-27	09:12:28	09:28:33	961348	63ed0a8a65ddbf9edae99a16	2	1	main_z	24	main_z	49	stimuli_distractor_diamondtriangles.svg	stimuli_target_squarediamonds.svg	16	yes	44	1	925	6	2	antiphase_hc_ios.wav	3	6	4	noise_calib_stim_RIGHT.wav	2	2	blb_dichoticlistening_ba-da.mp3	ba	da	1	right
6.6.1	win	2023-06-27	09:12:28	09:28:33	961348	63ed0a8a65ddbf9edae99a16	2	1	main_z	24	advance_on_keypress_ZEE	50	stimuli_distractor_diamondtriangles.svg	stimuli_target_squarediamonds.svg	16	yes	57	0	518	6	2	antiphase_hc_ios.wav	3	6	4	noise_calib_stim_RIGHT.wav	2	2	blb_dichoticlistening_ba-da.mp3	ba	da	1	right
6.6.1	win	2023-06-27	09:12:28	09:28:35	963432	63ed0a8a65ddbf9edae99a16	2	1	main_z	24	main_z	51	stimuli_distractor_trianglediamonds.svg	stimuli_target_rectangletriangles.svg	9	yes	44	1	953	6	2	antiphase_hc_ios.wav	3	6	4	noise_calib_stim_RIGHT.wav	2	2	blb_dichoticlistening_ba-da.mp3	ba	da	1	right
6.6.1	win	2023-06-27	09:12:28	09:28:35	963432	63ed0a8a65ddbf9edae99a16	2	1	main_z	24	advance_on_keypress_ZEE	52	stimuli_distractor_trianglediamonds.svg	stimuli_target_rectangletriangles.svg	9	yes	57	0	475	6	2	antiphase_hc_ios.wav	3	6	4	noise_calib_stim_RIGHT.wav	2	2	blb_dichoticlistening_ba-da.mp3	ba	da	1	right
6.6.1	win	2023-06-27	09:12:28	09:28:37	965628	63ed0a8a65ddbf9edae99a16	2	1	main_z	24	main_z	53	stimuli_distractor_diamondtriangles.svg	stimuli_target_squaretriangles.svg	15	yes	44	1	1107	6	2	antiphase_hc_ios.wav	3	6	4	noise_calib_stim_RIGHT.wav	2	2	blb_dichoticlistening_ba-da.mp3	ba	da	1	right
6.6.1	win	2023-06-27	09:12:28	09:28:37	965628	63ed0a8a65ddbf9edae99a16	2	1	main_z	24	advance_on_keypress_ZEE	54	stimuli_distractor_diamondtriangles.svg	stimuli_target_squaretriangles.svg	15	yes	57	0	496	6	2	antiphase_hc_ios.wav	3	6	4	noise_calib_stim_RIGHT.wav	2	2	blb_dichoticlistening_ba-da.mp3	ba	da	1	right
6.6.1	win	2023-06-27	09:12:28	09:28:39	967788	63ed0a8a65ddbf9edae99a16	2	1	main_z	24	main_z	55	stimuli_target_squaretriangles.svg	stimuli_distractor_diamondtriangles.svg	7	yes	44	1	1052	6	2	antiphase_hc_ios.wav	3	6	4	noise_calib_stim_RIGHT.wav	2	2	blb_dichoticlistening_ba-da.mp3	ba	da	1	right
6.6.1	win	2023-06-27	09:12:28	09:28:39	967788	63ed0a8a65ddbf9edae99a16	2	1	main_z	24	advance_on_keypress_ZEE	56	stimuli_target_squaretriangles.svg	stimuli_distractor_diamondtriangles.svg	7	yes	57	0	517	6	2	antiphase_hc_ios.wav	3	6	4	noise_calib_stim_RIGHT.wav	2	2	blb_dichoticlistening_ba-da.mp3	ba	da	1	right
6.6.1	win	2023-06-27	09:12:28	09:28:41	969908	63ed0a8a65ddbf9edae99a16	2	1	main_z	24	main_z	57	stimuli_distractor_diamondtriangles.svg	stimuli_target_rectangletriangles.svg	13	yes	44	1	992	6	2	antiphase_hc_ios.wav	3	6	4	noise_calib_stim_RIGHT.wav	2	2	blb_dichoticlistening_ba-da.mp3	ba	da	1	right
6.6.1	win	2023-06-27	09:12:28	09:28:41	969908	63ed0a8a65ddbf9edae99a16	2	1	main_z	24	advance_on_keypress_ZEE	58	stimuli_distractor_diamondtriangles.svg	stimuli_target_rectangletriangles.svg	13	yes	57	0	400	6	2	antiphase_hc_ios.wav	3	6	4	noise_calib_stim_RIGHT.wav	2	2	blb_dichoticlistening_ba-da.mp3	ba	da	1	right
6.6.1	win	2023-06-27	09:12:28	09:28:43	972164	63ed0a8a65ddbf9edae99a16	2	1	main_z	24	main_z	59	stimuli_target_squaretriangles.svg	stimuli_distractor_trianglediamonds.svg	3	yes	44	1	1241	6	2	antiphase_hc_ios.wav	3	6	4	noise_calib_stim_RIGHT.wav	2	2	blb_dichoticlistening_ba-da.mp3	ba	da	1	right
6.6.1	win	2023-06-27	09:12:28	09:28:43	972164	63ed0a8a65ddbf9edae99a16	2	1	main_z	24	advance_on_keypress_ZEE	60	stimuli_target_squaretriangles.svg	stimuli_distractor_trianglediamonds.svg	3	yes	57	0	470	6	2	antiphase_hc_ios.wav	3	6	4	noise_calib_stim_RIGHT.wav	2	2	blb_dichoticlistening_ba-da.mp3	ba	da	1	right
6.6.1	win	2023-06-27	09:12:28	09:28:45	974188	63ed0a8a65ddbf9edae99a16	2	1	main_z	24	main_z	61	stimuli_target_trianglesquares.svg	stimuli_distractor_diamondtriangles.svg	22	yes	44	1	945	6	2	antiphase_hc_ios.wav	3	6	4	noise_calib_stim_RIGHT.wav	2	2	blb_dichoticlistening_ba-da.mp3	ba	da	1	right
6.6.1	win	2023-06-27	09:12:28	09:28:45	974188	63ed0a8a65ddbf9edae99a16	2	1	main_z	24	advance_on_keypress_ZEE	62	stimuli_target_trianglesquares.svg	stimuli_distractor_diamondtriangles.svg	22	yes	57	0	486	6	2	antiphase_hc_ios.wav	3	6	4	noise_calib_stim_RIGHT.wav	2	2	blb_dichoticlistening_ba-da.mp3	ba	da	1	right
6.6.1	win	2023-06-27	09:12:28	09:28:49	977294	63ed0a8a65ddbf9edae99a16	2	1	main_z	24	main_z	63	stimuli_distractor_diamondtriangles.svg	stimuli_distractor_diamondtriangles.svg	39	no	0	1	2003	6	2	antiphase_hc_ios.wav	3	6	4	noise_calib_stim_RIGHT.wav	2	2	blb_dichoticlistening_ba-da.mp3	ba	da	1	right
6.6.1	win	2023-06-27	09:12:28	09:28:49	977294	63ed0a8a65ddbf9edae99a16	2	1	main_z	24	advance_on_keypress_ZEE	64	stimuli_distractor_diamondtriangles.svg	stimuli_distractor_diamondtriangles.svg	39	no	57	0	509	6	2	antiphase_hc_ios.wav	3	6	4	noise_calib_stim_RIGHT.wav	2	2	blb_dichoticlistening_ba-da.mp3	ba	da	1	right
6.6.1	win	2023-06-27	09:12:28	09:28:51	979415	63ed0a8a65ddbf9edae99a16	2	1	main_z	24	main_z	65	stimuli_distractor_trianglediamonds.svg	stimuli_target_squarediamonds.svg	12	yes	44	1	999	6	2	antiphase_hc_ios.wav	3	6	4	noise_calib_stim_RIGHT.wav	2	2	blb_dichoticlistening_ba-da.mp3	ba	da	1	right
6.6.1	win	2023-06-27	09:12:28	09:28:51	979415	63ed0a8a65ddbf9edae99a16	2	1	main_z	24	advance_on_keypress_ZEE	66	stimuli_distractor_trianglediamonds.svg	stimuli_target_squarediamonds.svg	12	yes	57	0	460	6	2	antiphase_hc_ios.wav	3	6	4	noise_calib_stim_RIGHT.wav	2	2	blb_dichoticlistening_ba-da.mp3	ba	da	1	right
6.6.1	win	2023-06-27	09:12:28	09:28:53	981471	63ed0a8a65ddbf9edae99a16	2	1	main_z	24	main_z	67	stimuli_target_squarediamonds.svg	stimuli_distractor_trianglediamonds.svg	4	yes	44	1	978	6	2	antiphase_hc_ios.wav	3	6	4	noise_calib_stim_RIGHT.wav	2	2	blb_dichoticlistening_ba-da.mp3	ba	da	1	right
6.6.1	win	2023-06-27	09:12:28	09:28:53	981471	63ed0a8a65ddbf9edae99a16	2	1	main_z	24	advance_on_keypress_ZEE	68	stimuli_target_squarediamonds.svg	stimuli_distractor_trianglediamonds.svg	4	yes	57	0	424	6	2	antiphase_hc_ios.wav	3	6	4	noise_calib_stim_RIGHT.wav	2	2	blb_dichoticlistening_ba-da.mp3	ba	da	1	right
6.6.1	win	2023-06-27	09:12:28	09:28:55	983558	63ed0a8a65ddbf9edae99a16	2	1	main_z	24	main_z	69	stimuli_distractor_diamondtriangles.svg	stimuli_target_diamondsquares.svg	32	yes	44	1	1046	6	2	antiphase_hc_ios.wav	3	6	4	noise_calib_stim_RIGHT.wav	2	2	blb_dichoticlistening_ba-da.mp3	ba	da	1	right
6.6.1	win	2023-06-27	09:12:28	09:28:55	983558	63ed0a8a65ddbf9edae99a16	2	1	main_z	24	advance_on_keypress_ZEE	70	stimuli_distractor_diamondtriangles.svg	stimuli_target_diamondsquares.svg	32	yes	57	0	333	6	2	antiphase_hc_ios.wav	3	6	4	noise_calib_stim_RIGHT.wav	2	2	blb_dichoticlistening_ba-da.mp3	ba	da	1	right
6.6.1	win	2023-06-27	09:12:28	09:28:57	985446	63ed0a8a65ddbf9edae99a16	2	1	main_z	24	main_z	71	stimuli_target_diamondrectangles.svg	stimuli_distractor_trianglediamonds.svg	19	yes	44	1	941	6	2	antiphase_hc_ios.wav	3	6	4	noise_calib_stim_RIGHT.wav	2	2	blb_dichoticlistening_ba-da.mp3	ba	da	1	right
6.6.1	win	2023-06-27	09:12:28	09:28:57	985446	63ed0a8a65ddbf9edae99a16	2	1	main_z	24	advance_on_keypress_ZEE	72	stimuli_target_diamondrectangles.svg	stimuli_distractor_trianglediamonds.svg	19	yes	57	0	364	6	2	antiphase_hc_ios.wav	3	6	4	noise_calib_stim_RIGHT.wav	2	2	blb_dichoticlistening_ba-da.mp3	ba	da	1	right
6.6.1	win	2023-06-27	09:12:28	09:28:59	987658	63ed0a8a65ddbf9edae99a16	2	1	main_z	24	main_z	73	stimuli_target_rectangletriangles.svg	stimuli_distractor_trianglediamonds.svg	1	yes	44	1	1236	6	2	antiphase_hc_ios.wav	3	6	4	noise_calib_stim_RIGHT.wav	2	2	blb_dichoticlistening_ba-da.mp3	ba	da	1	right
6.6.1	win	2023-06-27	09:12:28	09:28:59	987658	63ed0a8a65ddbf9edae99a16	2	1	main_z	24	advance_on_keypress_ZEE	74	stimuli_target_rectangletriangles.svg	stimuli_distractor_trianglediamonds.svg	1	yes	57	0	349	6	2	antiphase_hc_ios.wav	3	6	4	noise_calib_stim_RIGHT.wav	2	2	blb_dichoticlistening_ba-da.mp3	ba	da	1	right
6.6.1	win	2023-06-27	09:12:28	09:29:01	989686	63ed0a8a65ddbf9edae99a16	2	1	main_z	24	main_z	75	stimuli_distractor_diamondtriangles.svg	stimuli_target_trianglesquares.svg	30	yes	44	1	1063	6	2	antiphase_hc_ios.wav	3	6	4	noise_calib_stim_RIGHT.wav	2	2	blb_dichoticlistening_ba-da.mp3	ba	da	1	right
6.6.1	win	2023-06-27	09:12:28	09:29:01	989686	63ed0a8a65ddbf9edae99a16	2	1	main_z	24	advance_on_keypress_ZEE	76	stimuli_distractor_diamondtriangles.svg	stimuli_target_trianglesquares.svg	30	yes	57	0	321	6	2	antiphase_hc_ios.wav	3	6	4	noise_calib_stim_RIGHT.wav	2	2	blb_dichoticlistening_ba-da.mp3	ba	da	1	right
6.6.1	win	2023-06-27	09:12:28	09:29:04	992627	63ed0a8a65ddbf9edae99a16	2	1	main_z	24	main_z	77	stimuli_distractor_diamondtriangles.svg	stimuli_distractor_trianglediamonds.svg	37	no	0	1	2003	6	2	antiphase_hc_ios.wav	3	6	4	noise_calib_stim_RIGHT.wav	2	2	blb_dichoticlistening_ba-da.mp3	ba	da	1	right
6.6.1	win	2023-06-27	09:12:28	09:29:04	992627	63ed0a8a65ddbf9edae99a16	2	1	main_z	24	advance_on_keypress_ZEE	78	stimuli_distractor_diamondtriangles.svg	stimuli_distractor_trianglediamonds.svg	37	no	57	0	308	6	2	antiphase_hc_ios.wav	3	6	4	noise_calib_stim_RIGHT.wav	2	2	blb_dichoticlistening_ba-da.mp3	ba	da	1	right
6.6.1	win	2023-06-27	09:12:28	09:29:06	994454	63ed0a8a65ddbf9edae99a16	2	1	main_z	24	main_z	79	stimuli_distractor_trianglediamonds.svg	stimuli_target_diamondsquares.svg	28	yes	44	1	907	6	2	antiphase_hc_ios.wav	3	6	4	noise_calib_stim_RIGHT.wav	2	2	blb_dichoticlistening_ba-da.mp3	ba	da	1	right
6.6.1	win	2023-06-27	09:12:28	09:29:06	994454	63ed0a8a65ddbf9edae99a16	2	1	main_z	24	advance_on_keypress_ZEE	80	stimuli_distractor_trianglediamonds.svg	stimuli_target_diamondsquares.svg	28	yes	57	0	357	6	2	antiphase_hc_ios.wav	3	6	4	noise_calib_stim_RIGHT.wav	2	2	blb_dichoticlistening_ba-da.mp3	ba	da	1	right
6.6.1	win	2023-06-27	09:12:28	09:29:08	996393	63ed0a8a65ddbf9edae99a16	2	1	main_z	24	main_z	81	stimuli_distractor_diamondtriangles.svg	stimuli_target_trianglerectangles.svg	29	yes	44	1	971	6	2	antiphase_hc_ios.wav	3	6	4	noise_calib_stim_RIGHT.wav	2	2	blb_dichoticlistening_ba-da.mp3	ba	da	1	right
6.6.1	win	2023-06-27	09:12:28	09:29:08	996393	63ed0a8a65ddbf9edae99a16	2	1	main_z	24	advance_on_keypress_ZEE	82	stimuli_distractor_diamondtriangles.svg	stimuli_target_trianglerectangles.svg	29	yes	57	0	300	6	2	antiphase_hc_ios.wav	3	6	4	noise_calib_stim_RIGHT.wav	2	2	blb_dichoticlistening_ba-da.mp3	ba	da	1	right
6.6.1	win	2023-06-27	09:12:28	09:29:10	998457	63ed0a8a65ddbf9edae99a16	2	1	main_z	24	main_z	83	stimuli_distractor_trianglediamonds.svg	stimuli_target_diamondsquares.svg	28	yes	44	1	1146	6	2	antiphase_hc_ios.wav	3	6	4	noise_calib_stim_RIGHT.wav	2	2	blb_dichoticlistening_ba-da.mp3	ba	da	1	right
6.6.1	win	2023-06-27	09:12:28	09:29:10	998457	63ed0a8a65ddbf9edae99a16	2	1	main_z	24	advance_on_keypress_ZEE	84	stimuli_distractor_trianglediamonds.svg	stimuli_target_diamondsquares.svg	28	yes	57	0	329	6	2	antiphase_hc_ios.wav	3	6	4	noise_calib_stim_RIGHT.wav	2	2	blb_dichoticlistening_ba-da.mp3	ba	da	1	right
6.6.1	win	2023-06-27	09:12:28	09:29:12	1000569	63ed0a8a65ddbf9edae99a16	2	1	main_z	24	main_z	85	stimuli_target_trianglesquares.svg	stimuli_distractor_diamondtriangles.svg	22	yes	44	1	1168	6	2	antiphase_hc_ios.wav	3	6	4	noise_calib_stim_RIGHT.wav	2	2	blb_dichoticlistening_ba-da.mp3	ba	da	1	right
6.6.1	win	2023-06-27	09:12:28	09:29:12	1000569	63ed0a8a65ddbf9edae99a16	2	1	main_z	24	advance_on_keypress_ZEE	86	stimuli_target_trianglesquares.svg	stimuli_distractor_diamondtriangles.svg	22	yes	57	0	386	6	2	antiphase_hc_ios.wav	3	6	4	noise_calib_stim_RIGHT.wav	2	2	blb_dichoticlistening_ba-da.mp3	ba	da	1	right
6.6.1	win	2023-06-27	09:12:28	09:29:14	1002589	63ed0a8a65ddbf9edae99a16	2	1	main_z	24	main_z	87	stimuli_target_squarediamonds.svg	stimuli_distractor_diamondtriangles.svg	8	yes	44	1	1021	6	2	antiphase_hc_ios.wav	3	6	4	noise_calib_stim_RIGHT.wav	2	2	blb_dichoticlistening_ba-da.mp3	ba	da	1	right
6.6.1	win	2023-06-27	09:12:28	09:29:14	1002589	63ed0a8a65ddbf9edae99a16	2	1	main_z	24	advance_on_keypress_ZEE	88	stimuli_target_squarediamonds.svg	stimuli_distractor_diamondtriangles.svg	8	yes	57	0	349	6	2	antiphase_hc_ios.wav	3	6	4	noise_calib_stim_RIGHT.wav	2	2	blb_dichoticlistening_ba-da.mp3	ba	da	1	right
6.6.1	win	2023-06-27	09:12:28	09:29:16	1004505	63ed0a8a65ddbf9edae99a16	2	1	main_z	24	main_z	89	stimuli_target_diamondsquares.svg	stimuli_distractor_diamondtriangles.svg	24	yes	44	1	951	6	2	antiphase_hc_ios.wav	3	6	4	noise_calib_stim_RIGHT.wav	2	2	blb_dichoticlistening_ba-da.mp3	ba	da	1	right
6.6.1	win	2023-06-27	09:12:28	09:29:16	1004505	63ed0a8a65ddbf9edae99a16	2	1	main_z	24	advance_on_keypress_ZEE	90	stimuli_target_diamondsquares.svg	stimuli_distractor_diamondtriangles.svg	24	yes	57	0	333	6	2	antiphase_hc_ios.wav	3	6	4	noise_calib_stim_RIGHT.wav	2	2	blb_dichoticlistening_ba-da.mp3	ba	da	1	right
6.6.1	win	2023-06-27	09:12:28	09:29:18	1006505	63ed0a8a65ddbf9edae99a16	2	1	main_z	24	main_z	91	stimuli_distractor_diamondtriangles.svg	stimuli_target_rectangletriangles.svg	13	yes	44	1	1048	6	2	antiphase_hc_ios.wav	3	6	4	noise_calib_stim_RIGHT.wav	2	2	blb_dichoticlistening_ba-da.mp3	ba	da	1	right
6.6.1	win	2023-06-27	09:12:28	09:29:18	1006505	63ed0a8a65ddbf9edae99a16	2	1	main_z	24	advance_on_keypress_ZEE	92	stimuli_distractor_diamondtriangles.svg	stimuli_target_rectangletriangles.svg	13	yes	57	0	369	6	2	antiphase_hc_ios.wav	3	6	4	noise_calib_stim_RIGHT.wav	2	2	blb_dichoticlistening_ba-da.mp3	ba	da	1	right
6.6.1	win	2023-06-27	09:12:28	09:29:20	1008457	63ed0a8a65ddbf9edae99a16	2	1	main_z	24	main_z	93	stimuli_target_trianglesquares.svg	stimuli_distractor_trianglediamonds.svg	18	yes	44	1	966	6	2	antiphase_hc_ios.wav	3	6	4	noise_calib_stim_RIGHT.wav	2	2	blb_dichoticlistening_ba-da.mp3	ba	da	1	right
6.6.1	win	2023-06-27	09:12:28	09:29:20	1008457	63ed0a8a65ddbf9edae99a16	2	1	main_z	24	advance_on_keypress_ZEE	94	stimuli_target_trianglesquares.svg	stimuli_distractor_trianglediamonds.svg	18	yes	57	0	345	6	2	antiphase_hc_ios.wav	3	6	4	noise_calib_stim_RIGHT.wav	2	2	blb_dichoticlistening_ba-da.mp3	ba	da	1	right
6.6.1	win	2023-06-27	09:12:28	09:29:23	1011418	63ed0a8a65ddbf9edae99a16	2	1	main_z	24	main_z	95	stimuli_distractor_trianglediamonds.svg	stimuli_distractor_trianglediamonds.svg	34	no	0	1	2003	6	2	antiphase_hc_ios.wav	3	6	4	noise_calib_stim_RIGHT.wav	2	2	blb_dichoticlistening_ba-da.mp3	ba	da	1	right
6.6.1	win	2023-06-27	09:12:28	09:29:23	1011418	63ed0a8a65ddbf9edae99a16	2	1	main_z	24	advance_on_keypress_ZEE	96	stimuli_distractor_trianglediamonds.svg	stimuli_distractor_trianglediamonds.svg	34	no	57	0	435	6	2	antiphase_hc_ios.wav	3	6	4	noise_calib_stim_RIGHT.wav	2	2	blb_dichoticlistening_ba-da.mp3	ba	da	1	right
6.6.1	win	2023-06-27	09:12:28	09:29:26	1014467	63ed0a8a65ddbf9edae99a16	2	1	main_z	24	main_z	97	stimuli_distractor_trianglediamonds.svg	stimuli_distractor_trianglediamonds.svg	33	no	0	1	2003	6	2	antiphase_hc_ios.wav	3	6	4	noise_calib_stim_RIGHT.wav	2	2	blb_dichoticlistening_ba-da.mp3	ba	da	1	right
6.6.1	win	2023-06-27	09:12:28	09:29:26	1014467	63ed0a8a65ddbf9edae99a16	2	1	main_z	24	advance_on_keypress_ZEE	98	stimuli_distractor_trianglediamonds.svg	stimuli_distractor_trianglediamonds.svg	33	no	57	0	463	6	2	antiphase_hc_ios.wav	3	6	4	noise_calib_stim_RIGHT.wav	2	2	blb_dichoticlistening_ba-da.mp3	ba	da	1	right
6.6.1	win	2023-06-27	09:12:28	09:29:28	1016396	63ed0a8a65ddbf9edae99a16	2	1	main_z	24	main_z	99	stimuli_target_rectanglediamonds.svg	stimuli_distractor_trianglediamonds.svg	2	yes	44	1	856	6	2	antiphase_hc_ios.wav	3	6	4	noise_calib_stim_RIGHT.wav	2	2	blb_dichoticlistening_ba-da.mp3	ba	da	1	right
6.6.1	win	2023-06-27	09:12:28	09:29:28	1016396	63ed0a8a65ddbf9edae99a16	2	1	main_z	24	advance_on_keypress_ZEE	100	stimuli_target_rectanglediamonds.svg	stimuli_distractor_trianglediamonds.svg	2	yes	57	0	335	6	2	antiphase_hc_ios.wav	3	6	4	noise_calib_stim_RIGHT.wav	2	2	blb_dichoticlistening_ba-da.mp3	ba	da	1	right
6.6.1	win	2023-06-27	09:12:28	09:29:30	1018252	63ed0a8a65ddbf9edae99a16	2	1	main_z	24	main_z	101	stimuli_distractor_diamondtriangles.svg	stimuli_target_diamondrectangles.svg	31	yes	44	1	907	6	2	antiphase_hc_ios.wav	3	6	4	noise_calib_stim_RIGHT.wav	2	2	blb_dichoticlistening_ba-da.mp3	ba	da	1	right
6.6.1	win	2023-06-27	09:12:28	09:29:30	1018252	63ed0a8a65ddbf9edae99a16	2	1	main_z	24	advance_on_keypress_ZEE	102	stimuli_distractor_diamondtriangles.svg	stimuli_target_diamondrectangles.svg	31	yes	57	0	305	6	2	antiphase_hc_ios.wav	3	6	4	noise_calib_stim_RIGHT.wav	2	2	blb_dichoticlistening_ba-da.mp3	ba	da	1	right
6.6.1	win	2023-06-27	09:12:28	09:29:31	1020052	63ed0a8a65ddbf9edae99a16	2	1	main_z	24	main_z	103	stimuli_distractor_diamondtriangles.svg	stimuli_target_diamondsquares.svg	32	yes	44	1	880	6	2	antiphase_hc_ios.wav	3	6	4	noise_calib_stim_RIGHT.wav	2	2	blb_dichoticlistening_ba-da.mp3	ba	da	1	right
6.6.1	win	2023-06-27	09:12:28	09:29:31	1020052	63ed0a8a65ddbf9edae99a16	2	1	main_z	24	advance_on_keypress_ZEE	104	stimuli_distractor_diamondtriangles.svg	stimuli_target_diamondsquares.svg	32	yes	57	0	327	6	2	antiphase_hc_ios.wav	3	6	4	noise_calib_stim_RIGHT.wav	2	2	blb_dichoticlistening_ba-da.mp3	ba	da	1	right
6.6.1	win	2023-06-27	09:12:28	09:29:34	1023002	63ed0a8a65ddbf9edae99a16	2	1	main_z	24	main_z	105	stimuli_distractor_diamondtriangles.svg	stimuli_distractor_diamondtriangles.svg	40	no	0	1	2003	6	2	antiphase_hc_ios.wav	3	6	4	noise_calib_stim_RIGHT.wav	2	2	blb_dichoticlistening_ba-da.mp3	ba	da	1	right
6.6.1	win	2023-06-27	09:12:28	09:29:34	1023002	63ed0a8a65ddbf9edae99a16	2	1	main_z	24	advance_on_keypress_ZEE	106	stimuli_distractor_diamondtriangles.svg	stimuli_distractor_diamondtriangles.svg	40	no	57	0	531	6	2	antiphase_hc_ios.wav	3	6	4	noise_calib_stim_RIGHT.wav	2	2	blb_dichoticlistening_ba-da.mp3	ba	da	1	right
6.6.1	win	2023-06-27	09:12:28	09:29:36	1024964	63ed0a8a65ddbf9edae99a16	2	1	main_z	24	main_z	107	stimuli_target_squarediamonds.svg	stimuli_distractor_trianglediamonds.svg	4	yes	44	1	820	6	2	antiphase_hc_ios.wav	3	6	4	noise_calib_stim_RIGHT.wav	2	2	blb_dichoticlistening_ba-da.mp3	ba	da	1	right
6.6.1	win	2023-06-27	09:12:28	09:29:36	1024964	63ed0a8a65ddbf9edae99a16	2	1	main_z	24	advance_on_keypress_ZEE	108	stimuli_target_squarediamonds.svg	stimuli_distractor_trianglediamonds.svg	4	yes	57	0	330	6	2	antiphase_hc_ios.wav	3	6	4	noise_calib_stim_RIGHT.wav	2	2	blb_dichoticlistening_ba-da.mp3	ba	da	1	right
6.6.1	win	2023-06-27	09:12:28	09:29:38	1026728	63ed0a8a65ddbf9edae99a16	2	1	main_z	24	main_z	109	stimuli_distractor_diamondtriangles.svg	stimuli_target_trianglesquares.svg	30	yes	44	1	820	6	2	antiphase_hc_ios.wav	3	6	4	noise_calib_stim_RIGHT.wav	2	2	blb_dichoticlistening_ba-da.mp3	ba	da	1	right
6.6.1	win	2023-06-27	09:12:28	09:29:38	1026728	63ed0a8a65ddbf9edae99a16	2	1	main_z	24	advance_on_keypress_ZEE	110	stimuli_distractor_diamondtriangles.svg	stimuli_target_trianglesquares.svg	30	yes	57	0	322	6	2	antiphase_hc_ios.wav	3	6	4	noise_calib_stim_RIGHT.wav	2	2	blb_dichoticlistening_ba-da.mp3	ba	da	1	right
6.6.1	win	2023-06-27	09:12:28	09:29:41	1029668	63ed0a8a65ddbf9edae99a16	2	1	main_z	24	main_z	111	stimuli_distractor_trianglediamonds.svg	stimuli_distractor_diamondtriangles.svg	35	no	0	1	2003	6	2	antiphase_hc_ios.wav	3	6	4	noise_calib_stim_RIGHT.wav	2	2	blb_dichoticlistening_ba-da.mp3	ba	da	1	right
6.6.1	win	2023-06-27	09:12:28	09:29:41	1029668	63ed0a8a65ddbf9edae99a16	2	1	main_z	24	advance_on_keypress_ZEE	112	stimuli_distractor_trianglediamonds.svg	stimuli_distractor_diamondtriangles.svg	35	no	57	0	280	6	2	antiphase_hc_ios.wav	3	6	4	noise_calib_stim_RIGHT.wav	2	2	blb_dichoticlistening_ba-da.mp3	ba	da	1	right
6.6.1	win	2023-06-27	09:12:28	09:29:44	1032564	63ed0a8a65ddbf9edae99a16	2	1	main_z	24	main_z	113	stimuli_distractor_diamondtriangles.svg	stimuli_distractor_trianglediamonds.svg	37	no	0	1	2003	6	2	antiphase_hc_ios.wav	3	6	4	noise_calib_stim_RIGHT.wav	2	2	blb_dichoticlistening_ba-da.mp3	ba	da	1	right
6.6.1	win	2023-06-27	09:12:28	09:29:44	1032564	63ed0a8a65ddbf9edae99a16	2	1	main_z	24	advance_on_keypress_ZEE	114	stimuli_distractor_diamondtriangles.svg	stimuli_distractor_trianglediamonds.svg	37	no	57	0	317	6	2	antiphase_hc_ios.wav	3	6	4	noise_calib_stim_RIGHT.wav	2	2	blb_dichoticlistening_ba-da.mp3	ba	da	1	right
6.6.1	win	2023-06-27	09:12:28	09:29:46	1034336	63ed0a8a65ddbf9edae99a16	2	1	main_z	24	main_z	115	stimuli_target_diamondrectangles.svg	stimuli_distractor_diamondtriangles.svg	23	yes	44	1	845	6	2	antiphase_hc_ios.wav	3	6	4	noise_calib_stim_RIGHT.wav	2	2	blb_dichoticlistening_ba-da.mp3	ba	da	1	right
6.6.1	win	2023-06-27	09:12:28	09:29:46	1034336	63ed0a8a65ddbf9edae99a16	2	1	main_z	24	advance_on_keypress_ZEE	116	stimuli_target_diamondrectangles.svg	stimuli_distractor_diamondtriangles.svg	23	yes	57	0	402	6	2	antiphase_hc_ios.wav	3	6	4	noise_calib_stim_RIGHT.wav	2	2	blb_dichoticlistening_ba-da.mp3	ba	da	1	right
6.6.1	win	2023-06-27	09:12:28	09:29:47	1036188	63ed0a8a65ddbf9edae99a16	2	1	main_z	24	main_z	117	stimuli_target_squaretriangles.svg	stimuli_distractor_diamondtriangles.svg	7	yes	44	1	836	6	2	antiphase_hc_ios.wav	3	6	4	noise_calib_stim_RIGHT.wav	2	2	blb_dichoticlistening_ba-da.mp3	ba	da	1	right
6.6.1	win	2023-06-27	09:12:28	09:29:47	1036188	63ed0a8a65ddbf9edae99a16	2	1	main_z	24	advance_on_keypress_ZEE	118	stimuli_target_squaretriangles.svg	stimuli_distractor_diamondtriangles.svg	7	yes	57	0	456	6	2	antiphase_hc_ios.wav	3	6	4	noise_calib_stim_RIGHT.wav	2	2	blb_dichoticlistening_ba-da.mp3	ba	da	1	right
6.6.1	win	2023-06-27	09:12:28	09:29:51	1039258	63ed0a8a65ddbf9edae99a16	2	1	main_z	24	main_z	119	stimuli_distractor_trianglediamonds.svg	stimuli_distractor_diamondtriangles.svg	36	no	0	1	2003	6	2	antiphase_hc_ios.wav	3	6	4	noise_calib_stim_RIGHT.wav	2	2	blb_dichoticlistening_ba-da.mp3	ba	da	1	right
6.6.1	win	2023-06-27	09:12:28	09:29:51	1039258	63ed0a8a65ddbf9edae99a16	2	1	main_z	24	advance_on_keypress_ZEE	120	stimuli_distractor_trianglediamonds.svg	stimuli_distractor_diamondtriangles.svg	36	no	57	0	277	6	2	antiphase_hc_ios.wav	3	6	4	noise_calib_stim_RIGHT.wav	2	2	blb_dichoticlistening_ba-da.mp3	ba	da	1	right
6.6.1	win	2023-06-27	09:12:28	09:29:53	1042154	63ed0a8a65ddbf9edae99a16	2	1	main_z	24	main_z	121	stimuli_distractor_diamondtriangles.svg	stimuli_distractor_diamondtriangles.svg	39	no	0	1	2003	6	2	antiphase_hc_ios.wav	3	6	4	noise_calib_stim_RIGHT.wav	2	2	blb_dichoticlistening_ba-da.mp3	ba	da	1	right
6.6.1	win	2023-06-27	09:12:28	09:29:53	1042154	63ed0a8a65ddbf9edae99a16	2	1	main_z	24	advance_on_keypress_ZEE	122	stimuli_distractor_diamondtriangles.svg	stimuli_distractor_diamondtriangles.svg	39	no	57	0	397	6	2	antiphase_hc_ios.wav	3	6	4	noise_calib_stim_RIGHT.wav	2	2	blb_dichoticlistening_ba-da.mp3	ba	da	1	right
6.6.1	win	2023-06-27	09:12:28	09:29:56	1044279	63ed0a8a65ddbf9edae99a16	2	1	main_z	24	main_z	123	stimuli_distractor_diamondtriangles.svg	stimuli_target_squarediamonds.svg	16	yes	44	1	1114	6	2	antiphase_hc_ios.wav	3	6	4	noise_calib_stim_RIGHT.wav	2	2	blb_dichoticlistening_ba-da.mp3	ba	da	1	right
6.6.1	win	2023-06-27	09:12:28	09:29:56	1044279	63ed0a8a65ddbf9edae99a16	2	1	main_z	24	advance_on_keypress_ZEE	124	stimuli_distractor_diamondtriangles.svg	stimuli_target_squarediamonds.svg	16	yes	57	0	352	6	2	antiphase_hc_ios.wav	3	6	4	noise_calib_stim_RIGHT.wav	2	2	blb_dichoticlistening_ba-da.mp3	ba	da	1	right
6.6.1	win	2023-06-27	09:12:28	09:29:57	1046167	63ed0a8a65ddbf9edae99a16	2	1	main_z	24	main_z	125	stimuli_target_rectanglediamonds.svg	stimuli_distractor_diamondtriangles.svg	6	yes	44	1	926	6	2	antiphase_hc_ios.wav	3	6	4	noise_calib_stim_RIGHT.wav	2	2	blb_dichoticlistening_ba-da.mp3	ba	da	1	right
6.6.1	win	2023-06-27	09:12:28	09:29:57	1046167	63ed0a8a65ddbf9edae99a16	2	1	main_z	24	advance_on_keypress_ZEE	126	stimuli_target_rectanglediamonds.svg	stimuli_distractor_diamondtriangles.svg	6	yes	57	0	540	6	2	antiphase_hc_ios.wav	3	6	4	noise_calib_stim_RIGHT.wav	2	2	blb_dichoticlistening_ba-da.mp3	ba	da	1	right
6.6.1	win	2023-06-27	09:12:28	09:29:59	1048139	63ed0a8a65ddbf9edae99a16	2	1	main_z	24	main_z	127	stimuli_distractor_trianglediamonds.svg	stimuli_target_squarediamonds.svg	12	yes	44	1	821	6	2	antiphase_hc_ios.wav	3	6	4	noise_calib_stim_RIGHT.wav	2	2	blb_dichoticlistening_ba-da.mp3	ba	da	1	right
6.6.1	win	2023-06-27	09:12:28	09:29:59	1048139	63ed0a8a65ddbf9edae99a16	2	1	main_z	24	advance_on_keypress_ZEE	128	stimuli_distractor_trianglediamonds.svg	stimuli_target_squarediamonds.svg	12	yes	57	0	434	6	2	antiphase_hc_ios.wav	3	6	4	noise_calib_stim_RIGHT.wav	2	2	blb_dichoticlistening_ba-da.mp3	ba	da	1	right
6.6.1	win	2023-06-27	09:12:28	09:30:01	1050139	63ed0a8a65ddbf9edae99a16	2	1	main_z	24	main_z	129	stimuli_distractor_trianglediamonds.svg	stimuli_target_diamondrectangles.svg	27	yes	44	1	953	6	2	antiphase_hc_ios.wav	3	6	4	noise_calib_stim_RIGHT.wav	2	2	blb_dichoticlistening_ba-da.mp3	ba	da	1	right
6.6.1	win	2023-06-27	09:12:28	09:30:01	1050139	63ed0a8a65ddbf9edae99a16	2	1	main_z	24	advance_on_keypress_ZEE	130	stimuli_distractor_trianglediamonds.svg	stimuli_target_diamondrectangles.svg	27	yes	57	0	375	6	2	antiphase_hc_ios.wav	3	6	4	noise_calib_stim_RIGHT.wav	2	2	blb_dichoticlistening_ba-da.mp3	ba	da	1	right
6.6.1	win	2023-06-27	09:12:28	09:30:04	1053133	63ed0a8a65ddbf9edae99a16	2	1	main_z	24	main_z	131	stimuli_distractor_trianglediamonds.svg	stimuli_target_squaretriangles.svg	11	yes	0	0	2003	6	2	antiphase_hc_ios.wav	3	6	4	noise_calib_stim_RIGHT.wav	2	2	blb_dichoticlistening_ba-da.mp3	ba	da	1	right
6.6.1	win	2023-06-27	09:12:28	09:30:04	1053133	63ed0a8a65ddbf9edae99a16	2	1	main_z	24	advance_on_keypress_ZEE	132	stimuli_distractor_trianglediamonds.svg	stimuli_target_squaretriangles.svg	11	yes	57	0	1065	6	2	antiphase_hc_ios.wav	3	6	4	noise_calib_stim_RIGHT.wav	2	2	blb_dichoticlistening_ba-da.mp3	ba	da	1	right
6.6.1	win	2023-06-27	09:12:28	09:30:07	1055723	63ed0a8a65ddbf9edae99a16	2	1	main_z	24	main_z	133	stimuli_target_diamondsquares.svg	stimuli_distractor_trianglediamonds.svg	20	yes	44	1	912	6	2	antiphase_hc_ios.wav	3	6	4	noise_calib_stim_RIGHT.wav	2	2	blb_dichoticlistening_ba-da.mp3	ba	da	1	right
6.6.1	win	2023-06-27	09:12:28	09:30:07	1055723	63ed0a8a65ddbf9edae99a16	2	1	main_z	24	advance_on_keypress_ZEE	134	stimuli_target_diamondsquares.svg	stimuli_distractor_trianglediamonds.svg	20	yes	57	0	467	6	2	antiphase_hc_ios.wav	3	6	4	noise_calib_stim_RIGHT.wav	2	2	blb_dichoticlistening_ba-da.mp3	ba	da	1	right
6.6.1	win	2023-06-27	09:12:28	09:30:09	1057682	63ed0a8a65ddbf9edae99a16	2	1	main_z	24	main_z	135	stimuli_target_trianglerectangles.svg	stimuli_distractor_diamondtriangles.svg	21	yes	44	1	878	6	2	antiphase_hc_ios.wav	3	6	4	noise_calib_stim_RIGHT.wav	2	2	blb_dichoticlistening_ba-da.mp3	ba	da	1	right
6.6.1	win	2023-06-27	09:12:28	09:30:09	1057682	63ed0a8a65ddbf9edae99a16	2	1	main_z	24	advance_on_keypress_ZEE	136	stimuli_target_trianglerectangles.svg	stimuli_distractor_diamondtriangles.svg	21	yes	57	0	416	6	2	antiphase_hc_ios.wav	3	6	4	noise_calib_stim_RIGHT.wav	2	2	blb_dichoticlistening_ba-da.mp3	ba	da	1	right
6.6.1	win	2023-06-27	09:12:28	09:30:11	1059570	63ed0a8a65ddbf9edae99a16	2	1	main_z	24	main_z	137	stimuli_target_diamondrectangles.svg	stimuli_distractor_trianglediamonds.svg	19	yes	44	1	856	6	2	antiphase_hc_ios.wav	3	6	4	noise_calib_stim_RIGHT.wav	2	2	blb_dichoticlistening_ba-da.mp3	ba	da	1	right
6.6.1	win	2023-06-27	09:12:28	09:30:11	1059570	63ed0a8a65ddbf9edae99a16	2	1	main_z	24	advance_on_keypress_ZEE	138	stimuli_target_diamondrectangles.svg	stimuli_distractor_trianglediamonds.svg	19	yes	57	0	431	6	2	antiphase_hc_ios.wav	3	6	4	noise_calib_stim_RIGHT.wav	2	2	blb_dichoticlistening_ba-da.mp3	ba	da	1	right
6.6.1	win	2023-06-27	09:12:28	09:30:13	1061534	63ed0a8a65ddbf9edae99a16	2	1	main_z	24	main_z	139	stimuli_target_squaretriangles.svg	stimuli_distractor_trianglediamonds.svg	3	yes	44	1	917	6	2	antiphase_hc_ios.wav	3	6	4	noise_calib_stim_RIGHT.wav	2	2	blb_dichoticlistening_ba-da.mp3	ba	da	1	right
6.6.1	win	2023-06-27	09:12:28	09:30:13	1061534	63ed0a8a65ddbf9edae99a16	2	1	main_z	24	advance_on_keypress_ZEE	140	stimuli_target_squaretriangles.svg	stimuli_distractor_trianglediamonds.svg	3	yes	57	0	410	6	2	antiphase_hc_ios.wav	3	6	4	noise_calib_stim_RIGHT.wav	2	2	blb_dichoticlistening_ba-da.mp3	ba	da	1	right
6.6.1	win	2023-06-27	09:12:28	09:30:15	1063370	63ed0a8a65ddbf9edae99a16	2	1	main_z	24	main_z	141	stimuli_target_rectangletriangles.svg	stimuli_distractor_trianglediamonds.svg	1	yes	44	1	809	6	2	antiphase_hc_ios.wav	3	6	4	noise_calib_stim_RIGHT.wav	2	2	blb_dichoticlistening_ba-da.mp3	ba	da	1	right
6.6.1	win	2023-06-27	09:12:28	09:30:15	1063370	63ed0a8a65ddbf9edae99a16	2	1	main_z	24	advance_on_keypress_ZEE	142	stimuli_target_rectangletriangles.svg	stimuli_distractor_trianglediamonds.svg	1	yes	57	0	416	6	2	antiphase_hc_ios.wav	3	6	4	noise_calib_stim_RIGHT.wav	2	2	blb_dichoticlistening_ba-da.mp3	ba	da	1	right
6.6.1	win	2023-06-27	09:12:28	09:30:17	1065258	63ed0a8a65ddbf9edae99a16	2	1	main_z	24	main_z	143	stimuli_distractor_trianglediamonds.svg	stimuli_target_rectangletriangles.svg	9	yes	44	1	857	6	2	antiphase_hc_ios.wav	3	6	4	noise_calib_stim_RIGHT.wav	2	2	blb_dichoticlistening_ba-da.mp3	ba	da	1	right
6.6.1	win	2023-06-27	09:12:28	09:30:17	1065258	63ed0a8a65ddbf9edae99a16	2	1	main_z	24	advance_on_keypress_ZEE	144	stimuli_distractor_trianglediamonds.svg	stimuli_target_rectangletriangles.svg	9	yes	57	0	387	6	2	antiphase_hc_ios.wav	3	6	4	noise_calib_stim_RIGHT.wav	2	2	blb_dichoticlistening_ba-da.mp3	ba	da	1	right
6.6.1	win	2023-06-27	09:12:28	09:30:18	1067126	63ed0a8a65ddbf9edae99a16	2	1	main_z	24	main_z	145	stimuli_target_rectangletriangles.svg	stimuli_distractor_diamondtriangles.svg	5	yes	44	1	863	6	2	antiphase_hc_ios.wav	3	6	4	noise_calib_stim_RIGHT.wav	2	2	blb_dichoticlistening_ba-da.mp3	ba	da	1	right
6.6.1	win	2023-06-27	09:12:28	09:30:18	1067126	63ed0a8a65ddbf9edae99a16	2	1	main_z	24	advance_on_keypress_ZEE	146	stimuli_target_rectangletriangles.svg	stimuli_distractor_diamondtriangles.svg	5	yes	57	0	431	6	2	antiphase_hc_ios.wav	3	6	4	noise_calib_stim_RIGHT.wav	2	2	blb_dichoticlistening_ba-da.mp3	ba	da	1	right
6.6.1	win	2023-06-27	09:12:28	09:30:20	1069078	63ed0a8a65ddbf9edae99a16	2	1	main_z	24	main_z	147	stimuli_distractor_trianglediamonds.svg	stimuli_target_rectanglediamonds.svg	10	yes	44	1	906	6	2	antiphase_hc_ios.wav	3	6	4	noise_calib_stim_RIGHT.wav	2	2	blb_dichoticlistening_ba-da.mp3	ba	da	1	right
6.6.1	win	2023-06-27	09:12:28	09:30:20	1069078	63ed0a8a65ddbf9edae99a16	2	1	main_z	24	advance_on_keypress_ZEE	148	stimuli_distractor_trianglediamonds.svg	stimuli_target_rectanglediamonds.svg	10	yes	57	0	388	6	2	antiphase_hc_ios.wav	3	6	4	noise_calib_stim_RIGHT.wav	2	2	blb_dichoticlistening_ba-da.mp3	ba	da	1	right
6.6.1	win	2023-06-27	09:12:28	09:30:22	1071078	63ed0a8a65ddbf9edae99a16	2	1	main_z	24	main_z	149	stimuli_distractor_trianglediamonds.svg	stimuli_target_trianglesquares.svg	26	yes	44	1	996	6	2	antiphase_hc_ios.wav	3	6	4	noise_calib_stim_RIGHT.wav	2	2	blb_dichoticlistening_ba-da.mp3	ba	da	1	right
6.6.1	win	2023-06-27	09:12:28	09:30:22	1071078	63ed0a8a65ddbf9edae99a16	2	1	main_z	24	advance_on_keypress_ZEE	150	stimuli_distractor_trianglediamonds.svg	stimuli_target_trianglesquares.svg	26	yes	57	0	356	6	2	antiphase_hc_ios.wav	3	6	4	noise_calib_stim_RIGHT.wav	2	2	blb_dichoticlistening_ba-da.mp3	ba	da	1	right
6.6.1	win	2023-06-27	09:12:28	09:30:24	1073038	63ed0a8a65ddbf9edae99a16	2	1	main_z	24	main_z	151	stimuli_distractor_trianglediamonds.svg	stimuli_target_trianglerectangles.svg	25	yes	44	1	991	6	2	antiphase_hc_ios.wav	3	6	4	noise_calib_stim_RIGHT.wav	2	2	blb_dichoticlistening_ba-da.mp3	ba	da	1	right
6.6.1	win	2023-06-27	09:12:28	09:30:24	1073038	63ed0a8a65ddbf9edae99a16	2	1	main_z	24	advance_on_keypress_ZEE	152	stimuli_distractor_trianglediamonds.svg	stimuli_target_trianglerectangles.svg	25	yes	57	0	387	6	2	antiphase_hc_ios.wav	3	6	4	noise_calib_stim_RIGHT.wav	2	2	blb_dichoticlistening_ba-da.mp3	ba	da	1	right
6.6.1	win	2023-06-27	09:12:28	09:30:26	1074902	63ed0a8a65ddbf9edae99a16	2	1	main_z	24	main_z	153	stimuli_distractor_diamondtriangles.svg	stimuli_target_rectanglediamonds.svg	14	yes	44	1	855	6	2	antiphase_hc_ios.wav	3	6	4	noise_calib_stim_RIGHT.wav	2	2	blb_dichoticlistening_ba-da.mp3	ba	da	1	right
6.6.1	win	2023-06-27	09:12:28	09:30:26	1074902	63ed0a8a65ddbf9edae99a16	2	1	main_z	24	advance_on_keypress_ZEE	154	stimuli_distractor_diamondtriangles.svg	stimuli_target_rectanglediamonds.svg	14	yes	57	0	366	6	2	antiphase_hc_ios.wav	3	6	4	noise_calib_stim_RIGHT.wav	2	2	blb_dichoticlistening_ba-da.mp3	ba	da	1	right
6.6.1	win	2023-06-27	09:12:28	09:30:29	1077883	63ed0a8a65ddbf9edae99a16	2	1	main_z	24	main_z	155	stimuli_distractor_diamondtriangles.svg	stimuli_target_squaretriangles.svg	15	yes	0	0	2003	6	2	antiphase_hc_ios.wav	3	6	4	noise_calib_stim_RIGHT.wav	2	2	blb_dichoticlistening_ba-da.mp3	ba	da	1	right
6.6.1	win	2023-06-27	09:12:28	09:30:29	1077883	63ed0a8a65ddbf9edae99a16	2	1	main_z	24	advance_on_keypress_ZEE	156	stimuli_distractor_diamondtriangles.svg	stimuli_target_squaretriangles.svg	15	yes	57	0	371	6	2	antiphase_hc_ios.wav	3	6	4	noise_calib_stim_RIGHT.wav	2	2	blb_dichoticlistening_ba-da.mp3	ba	da	1	right
6.6.1	win	2023-06-27	09:12:28	09:30:31	1079765	63ed0a8a65ddbf9edae99a16	2	1	main_z	24	main_z	157	stimuli_target_trianglerectangles.svg	stimuli_distractor_trianglediamonds.svg	17	yes	44	1	898	6	2	antiphase_hc_ios.wav	3	6	4	noise_calib_stim_RIGHT.wav	2	2	blb_dichoticlistening_ba-da.mp3	ba	da	1	right
6.6.1	win	2023-06-27	09:12:28	09:30:31	1079765	63ed0a8a65ddbf9edae99a16	2	1	main_z	24	advance_on_keypress_ZEE	158	stimuli_target_trianglerectangles.svg	stimuli_distractor_trianglediamonds.svg	17	yes	57	0	364	6	2	antiphase_hc_ios.wav	3	6	4	noise_calib_stim_RIGHT.wav	2	2	blb_dichoticlistening_ba-da.mp3	ba	da	1	right
6.6.1	win	2023-06-27	09:12:28	09:30:34	1082744	63ed0a8a65ddbf9edae99a16	2	1	main_z	24	main_z	159	stimuli_distractor_diamondtriangles.svg	stimuli_distractor_trianglediamonds.svg	38	no	0	1	2003	6	2	antiphase_hc_ios.wav	3	6	4	noise_calib_stim_RIGHT.wav	2	2	blb_dichoticlistening_ba-da.mp3	ba	da	1	right
6.6.1	win	2023-06-27	09:12:28	09:30:34	1082744	63ed0a8a65ddbf9edae99a16	2	1	main_z	24	advance_on_keypress_ZEE	160	stimuli_distractor_diamondtriangles.svg	stimuli_distractor_trianglediamonds.svg	38	no	57	0	400	6	2	antiphase_hc_ios.wav	3	6	4	noise_calib_stim_RIGHT.wav	2	2	blb_dichoticlistening_ba-da.mp3	ba	da	1	right
6.6.1	win	2023-06-27	09:12:28	09:31:49	1157386	63ed0a8a65ddbf9edae99a16	2	1	practice_slash	26	practice_slash	1	stimuli_target_squarediamonds.svg	stimuli_distractor_trianglediamonds.svg	5	yes	53	1	492	6	2	antiphase_hc_ios.wav	3	6	4	noise_calib_stim_RIGHT.wav	2	2	blb_dichoticlistening_ba-da.mp3	ba	da	1	right
6.6.1	win	2023-06-27	09:12:28	09:31:49	1157386	63ed0a8a65ddbf9edae99a16	2	1	practice_slash	26	advance_on_keypress_SLASH	2	stimuli_target_squarediamonds.svg	stimuli_distractor_trianglediamonds.svg	5	yes	57	0	324	6	2	antiphase_hc_ios.wav	3	6	4	noise_calib_stim_RIGHT.wav	2	2	blb_dichoticlistening_ba-da.mp3	ba	da	1	right
6.6.1	win	2023-06-27	09:12:28	09:31:51	1159981	63ed0a8a65ddbf9edae99a16	2	1	practice_slash	26	practice_slash	3	stimuli_target_squarediamonds.svg	stimuli_distractor_diamondtriangles.svg	2	yes	53	1	651	6	2	antiphase_hc_ios.wav	3	6	4	noise_calib_stim_RIGHT.wav	2	2	blb_dichoticlistening_ba-da.mp3	ba	da	1	right
6.6.1	win	2023-06-27	09:12:28	09:31:51	1159981	63ed0a8a65ddbf9edae99a16	2	1	practice_slash	26	advance_on_keypress_SLASH	4	stimuli_target_squarediamonds.svg	stimuli_distractor_diamondtriangles.svg	2	yes	57	0	297	6	2	antiphase_hc_ios.wav	3	6	4	noise_calib_stim_RIGHT.wav	2	2	blb_dichoticlistening_ba-da.mp3	ba	da	1	right
6.6.1	win	2023-06-27	09:12:28	09:31:55	1163897	63ed0a8a65ddbf9edae99a16	2	1	practice_slash	26	practice_slash	5	stimuli_distractor_diamondtriangles.svg	stimuli_distractor_diamondtriangles.svg	13	no	0	1	2003	6	2	antiphase_hc_ios.wav	3	6	4	noise_calib_stim_RIGHT.wav	2	2	blb_dichoticlistening_ba-da.mp3	ba	da	1	right
6.6.1	win	2023-06-27	09:12:28	09:31:55	1163897	63ed0a8a65ddbf9edae99a16	2	1	practice_slash	26	advance_on_keypress_SLASH	6	stimuli_distractor_diamondtriangles.svg	stimuli_distractor_diamondtriangles.svg	13	no	57	0	365	6	2	antiphase_hc_ios.wav	3	6	4	noise_calib_stim_RIGHT.wav	2	2	blb_dichoticlistening_ba-da.mp3	ba	da	1	right
6.6.1	win	2023-06-27	09:12:28	09:31:58	1166873	63ed0a8a65ddbf9edae99a16	2	1	practice_slash	26	practice_slash	7	stimuli_distractor_diamondtriangles.svg	stimuli_target_rectangletriangles.svg	7	yes	53	1	1000	6	2	antiphase_hc_ios.wav	3	6	4	noise_calib_stim_RIGHT.wav	2	2	blb_dichoticlistening_ba-da.mp3	ba	da	1	right
6.6.1	win	2023-06-27	09:12:28	09:31:58	1166873	63ed0a8a65ddbf9edae99a16	2	1	practice_slash	26	advance_on_keypress_SLASH	8	stimuli_distractor_diamondtriangles.svg	stimuli_target_rectangletriangles.svg	7	yes	57	0	425	6	2	antiphase_hc_ios.wav	3	6	4	noise_calib_stim_RIGHT.wav	2	2	blb_dichoticlistening_ba-da.mp3	ba	da	1	right
6.6.1	win	2023-06-27	09:12:28	09:32:02	1170918	63ed0a8a65ddbf9edae99a16	2	1	practice_slash	26	practice_slash	9	stimuli_distractor_diamondtriangles.svg	stimuli_distractor_trianglediamonds.svg	14	no	0	1	2003	6	2	antiphase_hc_ios.wav	3	6	4	noise_calib_stim_RIGHT.wav	2	2	blb_dichoticlistening_ba-da.mp3	ba	da	1	right
6.6.1	win	2023-06-27	09:12:28	09:32:02	1170918	63ed0a8a65ddbf9edae99a16	2	1	practice_slash	26	advance_on_keypress_SLASH	10	stimuli_distractor_diamondtriangles.svg	stimuli_distractor_trianglediamonds.svg	14	no	57	0	252	6	2	antiphase_hc_ios.wav	3	6	4	noise_calib_stim_RIGHT.wav	2	2	blb_dichoticlistening_ba-da.mp3	ba	da	1	right
6.6.1	win	2023-06-27	09:12:28	09:32:05	1173709	63ed0a8a65ddbf9edae99a16	2	1	practice_slash	26	practice_slash	11	stimuli_target_diamondsquares.svg	stimuli_distractor_trianglediamonds.svg	6	yes	53	1	927	6	2	antiphase_hc_ios.wav	3	6	4	noise_calib_stim_RIGHT.wav	2	2	blb_dichoticlistening_ba-da.mp3	ba	da	1	right
6.6.1	win	2023-06-27	09:12:28	09:32:05	1173709	63ed0a8a65ddbf9edae99a16	2	1	practice_slash	26	advance_on_keypress_SLASH	12	stimuli_target_diamondsquares.svg	stimuli_distractor_trianglediamonds.svg	6	yes	57	0	480	6	2	antiphase_hc_ios.wav	3	6	4	noise_calib_stim_RIGHT.wav	2	2	blb_dichoticlistening_ba-da.mp3	ba	da	1	right
6.6.1	win	2023-06-27	09:12:28	09:32:08	1176772	63ed0a8a65ddbf9edae99a16	2	1	practice_slash	26	practice_slash	13	stimuli_distractor_diamondtriangles.svg	stimuli_target_trianglerectangles.svg	9	yes	53	1	970	6	2	antiphase_hc_ios.wav	3	6	4	noise_calib_stim_RIGHT.wav	2	2	blb_dichoticlistening_ba-da.mp3	ba	da	1	right
6.6.1	win	2023-06-27	09:12:28	09:32:08	1176772	63ed0a8a65ddbf9edae99a16	2	1	practice_slash	26	advance_on_keypress_SLASH	14	stimuli_distractor_diamondtriangles.svg	stimuli_target_trianglerectangles.svg	9	yes	57	0	626	6	2	antiphase_hc_ios.wav	3	6	4	noise_calib_stim_RIGHT.wav	2	2	blb_dichoticlistening_ba-da.mp3	ba	da	1	right
6.6.1	win	2023-06-27	09:12:28	09:32:11	1179889	63ed0a8a65ddbf9edae99a16	2	1	practice_slash	26	practice_slash	15	stimuli_distractor_trianglediamonds.svg	stimuli_target_rectanglediamonds.svg	10	yes	53	1	878	6	2	antiphase_hc_ios.wav	3	6	4	noise_calib_stim_RIGHT.wav	2	2	blb_dichoticlistening_ba-da.mp3	ba	da	1	right
6.6.1	win	2023-06-27	09:12:28	09:32:11	1179889	63ed0a8a65ddbf9edae99a16	2	1	practice_slash	26	advance_on_keypress_SLASH	16	stimuli_distractor_trianglediamonds.svg	stimuli_target_rectanglediamonds.svg	10	yes	57	0	368	6	2	antiphase_hc_ios.wav	3	6	4	noise_calib_stim_RIGHT.wav	2	2	blb_dichoticlistening_ba-da.mp3	ba	da	1	right
6.6.1	win	2023-06-27	09:12:28	09:32:14	1182777	63ed0a8a65ddbf9edae99a16	2	1	practice_slash	26	practice_slash	17	stimuli_distractor_trianglediamonds.svg	stimuli_target_diamondrectangles.svg	12	yes	53	1	904	6	2	antiphase_hc_ios.wav	3	6	4	noise_calib_stim_RIGHT.wav	2	2	blb_dichoticlistening_ba-da.mp3	ba	da	1	right
6.6.1	win	2023-06-27	09:12:28	09:32:14	1182777	63ed0a8a65ddbf9edae99a16	2	1	practice_slash	26	advance_on_keypress_SLASH	18	stimuli_distractor_trianglediamonds.svg	stimuli_target_diamondrectangles.svg	12	yes	57	0	422	6	2	antiphase_hc_ios.wav	3	6	4	noise_calib_stim_RIGHT.wav	2	2	blb_dichoticlistening_ba-da.mp3	ba	da	1	right
