build	computer.platform	date	time	timestamp	time_elapsed_ms	subject	group	session	blockcode	blocknum	trialcode	trialnum	stimulus_left	stimulus_right	stim_index	target_present	response	correct	latency	headphonecheck_countTestTrials	headphonecheck_index	headphonecheck_testSound	headphonecheck_correctResponse	stereocheck_countTestTrials	stereocheck_index	stereocheck_testSound	stereocheck_correctResponse	DL_index	DL_soundfile	DL_leftSound	DL_rightSound	DL_dualSound	DL_choice
6.6.1	win	2023-06-15	01:40:52	01:44:03	188050	5abd5f3b5cd105000161f167	3	1	practice_slash	5	practice_slash	1	stimuli_distractor_diamondtriangles.svg	stimuli_target_rectangletriangles.svg	7	yes	0	0	2000	0	0			0	0			1				0	
6.6.1	win	2023-06-15	01:40:52	01:44:03	188050	5abd5f3b5cd105000161f167	3	1	practice_slash	5	advance_on_keypress_SLASH	2	stimuli_distractor_diamondtriangles.svg	stimuli_target_rectangletriangles.svg	7	yes	57	0	3428	0	0			0	0			1				0	
6.6.1	win	2023-06-15	01:40:52	01:44:08	193678	5abd5f3b5cd105000161f167	3	1	practice_slash	5	practice_slash	3	stimuli_distractor_diamondtriangles.svg	stimuli_target_diamondrectangles.svg	8	yes	53	1	556	0	0			0	0			1				0	
6.6.1	win	2023-06-15	01:40:52	01:44:08	193678	5abd5f3b5cd105000161f167	3	1	practice_slash	5	advance_on_keypress_SLASH	4	stimuli_distractor_diamondtriangles.svg	stimuli_target_diamondrectangles.svg	8	yes	57	0	8941	0	0			0	0			1				0	
6.6.1	win	2023-06-15	01:40:52	01:44:19	204648	5abd5f3b5cd105000161f167	3	1	practice_slash	5	practice_slash	5	stimuli_target_squarediamonds.svg	stimuli_distractor_diamondtriangles.svg	2	yes	53	1	368	0	0			0	0			1				0	
6.6.1	win	2023-06-15	01:40:52	01:44:19	204648	5abd5f3b5cd105000161f167	3	1	practice_slash	5	advance_on_keypress_SLASH	6	stimuli_target_squarediamonds.svg	stimuli_distractor_diamondtriangles.svg	2	yes	57	0	3131	0	0			0	0			1				0	
6.6.1	win	2023-06-15	01:40:52	01:44:25	209872	5abd5f3b5cd105000161f167	3	1	practice_slash	5	practice_slash	7	stimuli_distractor_diamondtriangles.svg	stimuli_distractor_trianglediamonds.svg	14	no	53	0	454	0	0			0	0			1				0	
6.6.1	win	2023-06-15	01:40:52	01:44:25	209872	5abd5f3b5cd105000161f167	3	1	practice_slash	5	advance_on_keypress_SLASH	8	stimuli_distractor_diamondtriangles.svg	stimuli_distractor_trianglediamonds.svg	14	no	57	0	1233	0	0			0	0			1				0	
6.6.1	win	2023-06-15	01:40:52	01:44:28	213103	5abd5f3b5cd105000161f167	3	1	practice_slash	5	practice_slash	9	stimuli_distractor_trianglediamonds.svg	stimuli_target_squarediamonds.svg	11	yes	53	1	350	0	0			0	0			1				0	
6.6.1	win	2023-06-15	01:40:52	01:44:28	213103	5abd5f3b5cd105000161f167	3	1	practice_slash	5	advance_on_keypress_SLASH	10	stimuli_distractor_trianglediamonds.svg	stimuli_target_squarediamonds.svg	11	yes	57	0	836	0	0			0	0			1				0	
6.6.1	win	2023-06-15	01:40:52	01:44:31	215995	5abd5f3b5cd105000161f167	3	1	practice_slash	5	practice_slash	11	stimuli_distractor_diamondtriangles.svg	stimuli_target_trianglerectangles.svg	9	yes	53	1	405	0	0			0	0			1				0	
6.6.1	win	2023-06-15	01:40:52	01:44:31	215995	5abd5f3b5cd105000161f167	3	1	practice_slash	5	advance_on_keypress_SLASH	12	stimuli_distractor_diamondtriangles.svg	stimuli_target_trianglerectangles.svg	9	yes	57	0	476	0	0			0	0			1				0	
6.6.1	win	2023-06-15	01:40:52	01:44:35	220109	5abd5f3b5cd105000161f167	3	1	practice_slash	5	practice_slash	13	stimuli_distractor_diamondtriangles.svg	stimuli_distractor_diamondtriangles.svg	13	no	0	1	2000	0	0			0	0			1				0	
6.6.1	win	2023-06-15	01:40:52	01:44:35	220109	5abd5f3b5cd105000161f167	3	1	practice_slash	5	advance_on_keypress_SLASH	14	stimuli_distractor_diamondtriangles.svg	stimuli_distractor_diamondtriangles.svg	13	no	57	0	1351	0	0			0	0			1				0	
6.6.1	win	2023-06-15	01:40:52	01:44:38	223595	5abd5f3b5cd105000161f167	3	1	practice_slash	5	practice_slash	15	stimuli_target_diamondsquares.svg	stimuli_distractor_diamondtriangles.svg	3	yes	53	1	484	0	0			0	0			1				0	
6.6.1	win	2023-06-15	01:40:52	01:44:38	223595	5abd5f3b5cd105000161f167	3	1	practice_slash	5	advance_on_keypress_SLASH	16	stimuli_target_diamondsquares.svg	stimuli_distractor_diamondtriangles.svg	3	yes	57	0	433	0	0			0	0			1				0	
6.6.1	win	2023-06-15	01:40:52	01:44:41	226064	5abd5f3b5cd105000161f167	3	1	practice_slash	5	practice_slash	17	stimuli_target_rectanglediamonds.svg	stimuli_distractor_diamondtriangles.svg	1	yes	53	1	366	0	0			0	0			1				0	
6.6.1	win	2023-06-15	01:40:52	01:44:41	226064	5abd5f3b5cd105000161f167	3	1	practice_slash	5	advance_on_keypress_SLASH	18	stimuli_target_rectanglediamonds.svg	stimuli_distractor_diamondtriangles.svg	1	yes	57	0	365	0	0			0	0			1				0	
6.6.1	win	2023-06-15	01:40:52	01:44:45	230083	5abd5f3b5cd105000161f167	3	1	practice_slash	5	practice_slash	19	stimuli_distractor_trianglediamonds.svg	stimuli_distractor_diamondtriangles.svg	16	no	0	1	2000	0	0			0	0			1				0	
6.6.1	win	2023-06-15	01:40:52	01:44:45	230083	5abd5f3b5cd105000161f167	3	1	practice_slash	5	advance_on_keypress_SLASH	20	stimuli_distractor_trianglediamonds.svg	stimuli_distractor_diamondtriangles.svg	16	no	57	0	623	0	0			0	0			1				0	
6.6.1	win	2023-06-15	01:40:52	01:44:47	232789	5abd5f3b5cd105000161f167	3	1	practice_slash	5	practice_slash	21	stimuli_distractor_trianglediamonds.svg	stimuli_target_rectanglediamonds.svg	10	yes	53	1	438	0	0			0	0			1				0	
6.6.1	win	2023-06-15	01:40:52	01:44:47	232789	5abd5f3b5cd105000161f167	3	1	practice_slash	5	advance_on_keypress_SLASH	22	stimuli_distractor_trianglediamonds.svg	stimuli_target_rectanglediamonds.svg	10	yes	57	0	545	0	0			0	0			1				0	
6.6.1	win	2023-06-15	01:40:52	01:44:50	235313	5abd5f3b5cd105000161f167	3	1	practice_slash	5	practice_slash	23	stimuli_target_diamondsquares.svg	stimuli_distractor_trianglediamonds.svg	6	yes	53	1	342	0	0			0	0			1				0	
6.6.1	win	2023-06-15	01:40:52	01:44:50	235313	5abd5f3b5cd105000161f167	3	1	practice_slash	5	advance_on_keypress_SLASH	24	stimuli_target_diamondsquares.svg	stimuli_distractor_trianglediamonds.svg	6	yes	57	0	555	0	0			0	0			1				0	
6.6.1	win	2023-06-15	01:40:52	01:44:53	237889	5abd5f3b5cd105000161f167	3	1	practice_slash	5	practice_slash	25	stimuli_distractor_trianglediamonds.svg	stimuli_target_diamondrectangles.svg	12	yes	53	1	379	0	0			0	0			1				0	
6.6.1	win	2023-06-15	01:40:52	01:44:53	237889	5abd5f3b5cd105000161f167	3	1	practice_slash	5	advance_on_keypress_SLASH	26	stimuli_distractor_trianglediamonds.svg	stimuli_target_diamondrectangles.svg	12	yes	57	0	321	0	0			0	0			1				0	
6.6.1	win	2023-06-15	01:40:52	01:44:55	240128	5abd5f3b5cd105000161f167	3	1	practice_slash	5	practice_slash	27	stimuli_target_rectanglediamonds.svg	stimuli_distractor_trianglediamonds.svg	4	yes	53	1	271	0	0			0	0			1				0	
6.6.1	win	2023-06-15	01:40:52	01:44:55	240128	5abd5f3b5cd105000161f167	3	1	practice_slash	5	advance_on_keypress_SLASH	28	stimuli_target_rectanglediamonds.svg	stimuli_distractor_trianglediamonds.svg	4	yes	57	0	359	0	0			0	0			1				0	
6.6.1	win	2023-06-15	01:40:52	01:44:57	242433	5abd5f3b5cd105000161f167	3	1	practice_slash	5	practice_slash	29	stimuli_target_squarediamonds.svg	stimuli_distractor_trianglediamonds.svg	5	yes	53	1	307	0	0			0	0			1				0	
6.6.1	win	2023-06-15	01:40:52	01:44:57	242433	5abd5f3b5cd105000161f167	3	1	practice_slash	5	advance_on_keypress_SLASH	30	stimuli_target_squarediamonds.svg	stimuli_distractor_trianglediamonds.svg	5	yes	57	0	328	0	0			0	0			1				0	
6.6.1	win	2023-06-15	01:40:52	01:45:01	246394	5abd5f3b5cd105000161f167	3	1	practice_slash	5	practice_slash	31	stimuli_distractor_trianglediamonds.svg	stimuli_distractor_trianglediamonds.svg	15	no	0	1	2000	0	0			0	0			1				0	
6.6.1	win	2023-06-15	01:40:52	01:45:01	246394	5abd5f3b5cd105000161f167	3	1	practice_slash	5	advance_on_keypress_SLASH	32	stimuli_distractor_trianglediamonds.svg	stimuli_distractor_trianglediamonds.svg	15	no	57	0	449	0	0			0	0			1				0	
6.6.1	win	2023-06-15	01:40:52	01:45:16	261324	5abd5f3b5cd105000161f167	3	1	main_slash	7	main_slash	1	stimuli_target_trianglerectangles.svg	stimuli_distractor_trianglediamonds.svg	17	yes	53	1	419	0	0			0	0			1				0	
6.6.1	win	2023-06-15	01:40:52	01:45:16	261324	5abd5f3b5cd105000161f167	3	1	main_slash	7	advance_on_keypress_SLASH	2	stimuli_target_trianglerectangles.svg	stimuli_distractor_trianglediamonds.svg	17	yes	57	0	1165	0	0			0	0			1				0	
6.6.1	win	2023-06-15	01:40:52	01:45:18	263461	5abd5f3b5cd105000161f167	3	1	main_slash	7	main_slash	3	stimuli_distractor_trianglediamonds.svg	stimuli_target_rectanglediamonds.svg	10	yes	53	1	336	0	0			0	0			1				0	
6.6.1	win	2023-06-15	01:40:52	01:45:18	263461	5abd5f3b5cd105000161f167	3	1	main_slash	7	advance_on_keypress_SLASH	4	stimuli_distractor_trianglediamonds.svg	stimuli_target_rectanglediamonds.svg	10	yes	57	0	1322	0	0			0	0			1				0	
6.6.1	win	2023-06-15	01:40:52	01:45:20	265792	5abd5f3b5cd105000161f167	3	1	main_slash	7	main_slash	5	stimuli_distractor_trianglediamonds.svg	stimuli_target_trianglerectangles.svg	25	yes	53	1	367	0	0			0	0			1				0	
6.6.1	win	2023-06-15	01:40:52	01:45:20	265792	5abd5f3b5cd105000161f167	3	1	main_slash	7	advance_on_keypress_SLASH	6	stimuli_distractor_trianglediamonds.svg	stimuli_target_trianglerectangles.svg	25	yes	57	0	687	0	0			0	0			1				0	
6.6.1	win	2023-06-15	01:40:52	01:45:22	267564	5abd5f3b5cd105000161f167	3	1	main_slash	7	main_slash	7	stimuli_distractor_trianglediamonds.svg	stimuli_distractor_diamondtriangles.svg	35	no	53	0	436	0	0			0	0			1				0	
6.6.1	win	2023-06-15	01:40:52	01:45:22	267564	5abd5f3b5cd105000161f167	3	1	main_slash	7	advance_on_keypress_SLASH	8	stimuli_distractor_trianglediamonds.svg	stimuli_distractor_diamondtriangles.svg	35	no	57	0	655	0	0			0	0			1				0	
6.6.1	win	2023-06-15	01:40:52	01:45:24	269460	5abd5f3b5cd105000161f167	3	1	main_slash	7	main_slash	9	stimuli_distractor_diamondtriangles.svg	stimuli_target_diamondrectangles.svg	31	yes	53	1	598	0	0			0	0			1				0	
6.6.1	win	2023-06-15	01:40:52	01:45:24	269460	5abd5f3b5cd105000161f167	3	1	main_slash	7	advance_on_keypress_SLASH	10	stimuli_distractor_diamondtriangles.svg	stimuli_target_diamondrectangles.svg	31	yes	57	0	2209	0	0			0	0			1				0	
6.6.1	win	2023-06-15	01:40:52	01:45:27	272681	5abd5f3b5cd105000161f167	3	1	main_slash	7	main_slash	11	stimuli_distractor_trianglediamonds.svg	stimuli_target_rectangletriangles.svg	9	yes	53	1	370	0	0			0	0			1				0	
6.6.1	win	2023-06-15	01:40:52	01:45:27	272681	5abd5f3b5cd105000161f167	3	1	main_slash	7	advance_on_keypress_SLASH	12	stimuli_distractor_trianglediamonds.svg	stimuli_target_rectangletriangles.svg	9	yes	57	0	941	0	0			0	0			1				0	
6.6.1	win	2023-06-15	01:40:52	01:45:29	274651	5abd5f3b5cd105000161f167	3	1	main_slash	7	main_slash	13	stimuli_target_rectangletriangles.svg	stimuli_distractor_diamondtriangles.svg	5	yes	53	1	385	0	0			0	0			1				0	
6.6.1	win	2023-06-15	01:40:52	01:45:29	274651	5abd5f3b5cd105000161f167	3	1	main_slash	7	advance_on_keypress_SLASH	14	stimuli_target_rectangletriangles.svg	stimuli_distractor_diamondtriangles.svg	5	yes	57	0	697	0	0			0	0			1				0	
6.6.1	win	2023-06-15	01:40:52	01:45:31	276367	5abd5f3b5cd105000161f167	3	1	main_slash	7	main_slash	15	stimuli_distractor_diamondtriangles.svg	stimuli_target_squarediamonds.svg	16	yes	53	1	371	0	0			0	0			1				0	
6.6.1	win	2023-06-15	01:40:52	01:45:31	276367	5abd5f3b5cd105000161f167	3	1	main_slash	7	advance_on_keypress_SLASH	16	stimuli_distractor_diamondtriangles.svg	stimuli_target_squarediamonds.svg	16	yes	57	0	474	0	0			0	0			1				0	
6.6.1	win	2023-06-15	01:40:52	01:45:33	277847	5abd5f3b5cd105000161f167	3	1	main_slash	7	main_slash	17	stimuli_distractor_diamondtriangles.svg	stimuli_target_trianglerectangles.svg	29	yes	53	1	362	0	0			0	0			1				0	
6.6.1	win	2023-06-15	01:40:52	01:45:33	277847	5abd5f3b5cd105000161f167	3	1	main_slash	7	advance_on_keypress_SLASH	18	stimuli_distractor_diamondtriangles.svg	stimuli_target_trianglerectangles.svg	29	yes	57	0	486	0	0			0	0			1				0	
6.6.1	win	2023-06-15	01:40:52	01:45:36	280970	5abd5f3b5cd105000161f167	3	1	main_slash	7	main_slash	19	stimuli_distractor_trianglediamonds.svg	stimuli_distractor_trianglediamonds.svg	34	no	0	1	2000	0	0			0	0			1				0	
6.6.1	win	2023-06-15	01:40:52	01:45:36	280970	5abd5f3b5cd105000161f167	3	1	main_slash	7	advance_on_keypress_SLASH	20	stimuli_distractor_trianglediamonds.svg	stimuli_distractor_trianglediamonds.svg	34	no	57	0	579	0	0			0	0			1				0	
6.6.1	win	2023-06-15	01:40:52	01:45:37	282572	5abd5f3b5cd105000161f167	3	1	main_slash	7	main_slash	21	stimuli_distractor_trianglediamonds.svg	stimuli_target_squaretriangles.svg	11	yes	53	1	370	0	0			0	0			1				0	
6.6.1	win	2023-06-15	01:40:52	01:45:37	282572	5abd5f3b5cd105000161f167	3	1	main_slash	7	advance_on_keypress_SLASH	22	stimuli_distractor_trianglediamonds.svg	stimuli_target_squaretriangles.svg	11	yes	57	0	486	0	0			0	0			1				0	
6.6.1	win	2023-06-15	01:40:52	01:45:39	284102	5abd5f3b5cd105000161f167	3	1	main_slash	7	main_slash	23	stimuli_target_rectanglediamonds.svg	stimuli_distractor_diamondtriangles.svg	6	yes	53	1	396	0	0			0	0			1				0	
6.6.1	win	2023-06-15	01:40:52	01:45:39	284102	5abd5f3b5cd105000161f167	3	1	main_slash	7	advance_on_keypress_SLASH	24	stimuli_target_rectanglediamonds.svg	stimuli_distractor_diamondtriangles.svg	6	yes	57	0	591	0	0			0	0			1				0	
6.6.1	win	2023-06-15	01:40:52	01:45:42	287324	5abd5f3b5cd105000161f167	3	1	main_slash	7	main_slash	25	stimuli_distractor_trianglediamonds.svg	stimuli_distractor_diamondtriangles.svg	36	no	0	1	2000	0	0			0	0			1				0	
6.6.1	win	2023-06-15	01:40:52	01:45:42	287324	5abd5f3b5cd105000161f167	3	1	main_slash	7	advance_on_keypress_SLASH	26	stimuli_distractor_trianglediamonds.svg	stimuli_distractor_diamondtriangles.svg	36	no	57	0	515	0	0			0	0			1				0	
6.6.1	win	2023-06-15	01:40:52	01:45:44	289118	5abd5f3b5cd105000161f167	3	1	main_slash	7	main_slash	27	stimuli_distractor_diamondtriangles.svg	stimuli_target_rectanglediamonds.svg	14	yes	53	1	625	0	0			0	0			1				0	
6.6.1	win	2023-06-15	01:40:52	01:45:44	289118	5abd5f3b5cd105000161f167	3	1	main_slash	7	advance_on_keypress_SLASH	28	stimuli_distractor_diamondtriangles.svg	stimuli_target_rectanglediamonds.svg	14	yes	57	0	954	0	0			0	0			1				0	
6.6.1	win	2023-06-15	01:40:52	01:45:46	291102	5abd5f3b5cd105000161f167	3	1	main_slash	7	main_slash	29	stimuli_target_squaretriangles.svg	stimuli_distractor_trianglediamonds.svg	3	yes	53	1	390	0	0			0	0			1				0	
6.6.1	win	2023-06-15	01:40:52	01:45:46	291102	5abd5f3b5cd105000161f167	3	1	main_slash	7	advance_on_keypress_SLASH	30	stimuli_target_squaretriangles.svg	stimuli_distractor_trianglediamonds.svg	3	yes	57	0	457	0	0			0	0			1				0	
6.6.1	win	2023-06-15	01:40:52	01:45:48	292833	5abd5f3b5cd105000161f167	3	1	main_slash	7	main_slash	31	stimuli_target_trianglerectangles.svg	stimuli_distractor_diamondtriangles.svg	21	yes	53	1	637	0	0			0	0			1				0	
6.6.1	win	2023-06-15	01:40:52	01:45:48	292833	5abd5f3b5cd105000161f167	3	1	main_slash	7	advance_on_keypress_SLASH	32	stimuli_target_trianglerectangles.svg	stimuli_distractor_diamondtriangles.svg	21	yes	57	0	447	0	0			0	0			1				0	
6.6.1	win	2023-06-15	01:40:52	01:45:49	294229	5abd5f3b5cd105000161f167	3	1	main_slash	7	main_slash	33	stimuli_distractor_diamondtriangles.svg	stimuli_target_squaretriangles.svg	15	yes	53	1	315	0	0			0	0			1				0	
6.6.1	win	2023-06-15	01:40:52	01:45:49	294229	5abd5f3b5cd105000161f167	3	1	main_slash	7	advance_on_keypress_SLASH	34	stimuli_distractor_diamondtriangles.svg	stimuli_target_squaretriangles.svg	15	yes	57	0	594	0	0			0	0			1				0	
6.6.1	win	2023-06-15	01:40:52	01:45:52	297448	5abd5f3b5cd105000161f167	3	1	main_slash	7	main_slash	35	stimuli_distractor_diamondtriangles.svg	stimuli_distractor_diamondtriangles.svg	39	no	0	1	2000	0	0			0	0			1				0	
6.6.1	win	2023-06-15	01:40:52	01:45:52	297448	5abd5f3b5cd105000161f167	3	1	main_slash	7	advance_on_keypress_SLASH	36	stimuli_distractor_diamondtriangles.svg	stimuli_distractor_diamondtriangles.svg	39	no	57	0	459	0	0			0	0			1				0	
6.6.1	win	2023-06-15	01:40:52	01:45:54	299017	5abd5f3b5cd105000161f167	3	1	main_slash	7	main_slash	37	stimuli_distractor_trianglediamonds.svg	stimuli_target_trianglesquares.svg	26	yes	53	1	483	0	0			0	0			1				0	
6.6.1	win	2023-06-15	01:40:52	01:45:54	299017	5abd5f3b5cd105000161f167	3	1	main_slash	7	advance_on_keypress_SLASH	38	stimuli_distractor_trianglediamonds.svg	stimuli_target_trianglesquares.svg	26	yes	57	0	542	0	0			0	0			1				0	
6.6.1	win	2023-06-15	01:40:52	01:45:55	300540	5abd5f3b5cd105000161f167	3	1	main_slash	7	main_slash	39	stimuli_distractor_trianglediamonds.svg	stimuli_target_diamondsquares.svg	28	yes	53	1	339	0	0			0	0			1				0	
6.6.1	win	2023-06-15	01:40:52	01:45:55	300540	5abd5f3b5cd105000161f167	3	1	main_slash	7	advance_on_keypress_SLASH	40	stimuli_distractor_trianglediamonds.svg	stimuli_target_diamondsquares.svg	28	yes	57	0	532	0	0			0	0			1				0	
6.6.1	win	2023-06-15	01:40:52	01:45:57	302116	5abd5f3b5cd105000161f167	3	1	main_slash	7	main_slash	41	stimuli_distractor_diamondtriangles.svg	stimuli_target_diamondsquares.svg	32	yes	53	1	396	0	0			0	0			1				0	
6.6.1	win	2023-06-15	01:40:52	01:45:57	302116	5abd5f3b5cd105000161f167	3	1	main_slash	7	advance_on_keypress_SLASH	42	stimuli_distractor_diamondtriangles.svg	stimuli_target_diamondsquares.svg	32	yes	57	0	592	0	0			0	0			1				0	
6.6.1	win	2023-06-15	01:40:52	01:45:58	303684	5abd5f3b5cd105000161f167	3	1	main_slash	7	main_slash	43	stimuli_target_trianglesquares.svg	stimuli_distractor_trianglediamonds.svg	18	yes	53	1	347	0	0			0	0			1				0	
6.6.1	win	2023-06-15	01:40:52	01:45:58	303684	5abd5f3b5cd105000161f167	3	1	main_slash	7	advance_on_keypress_SLASH	44	stimuli_target_trianglesquares.svg	stimuli_distractor_trianglediamonds.svg	18	yes	57	0	424	0	0			0	0			1				0	
6.6.1	win	2023-06-15	01:40:52	01:46:00	305096	5abd5f3b5cd105000161f167	3	1	main_slash	7	main_slash	45	stimuli_distractor_diamondtriangles.svg	stimuli_target_rectangletriangles.svg	13	yes	53	1	357	0	0			0	0			1				0	
6.6.1	win	2023-06-15	01:40:52	01:46:00	305096	5abd5f3b5cd105000161f167	3	1	main_slash	7	advance_on_keypress_SLASH	46	stimuli_distractor_diamondtriangles.svg	stimuli_target_rectangletriangles.svg	13	yes	57	0	302	0	0			0	0			1				0	
6.6.1	win	2023-06-15	01:40:52	01:46:01	306423	5abd5f3b5cd105000161f167	3	1	main_slash	7	main_slash	47	stimuli_target_squaretriangles.svg	stimuli_distractor_diamondtriangles.svg	7	yes	53	1	380	0	0			0	0			1				0	
6.6.1	win	2023-06-15	01:40:52	01:46:01	306423	5abd5f3b5cd105000161f167	3	1	main_slash	7	advance_on_keypress_SLASH	48	stimuli_target_squaretriangles.svg	stimuli_distractor_diamondtriangles.svg	7	yes	57	0	400	0	0			0	0			1				0	
6.6.1	win	2023-06-15	01:40:52	01:46:03	307803	5abd5f3b5cd105000161f167	3	1	main_slash	7	main_slash	49	stimuli_distractor_trianglediamonds.svg	stimuli_target_squarediamonds.svg	12	yes	53	1	329	0	0			0	0			1				0	
6.6.1	win	2023-06-15	01:40:52	01:46:03	307803	5abd5f3b5cd105000161f167	3	1	main_slash	7	advance_on_keypress_SLASH	50	stimuli_distractor_trianglediamonds.svg	stimuli_target_squarediamonds.svg	12	yes	57	0	323	0	0			0	0			1				0	
6.6.1	win	2023-06-15	01:40:52	01:46:04	309141	5abd5f3b5cd105000161f167	3	1	main_slash	7	main_slash	51	stimuli_distractor_diamondtriangles.svg	stimuli_target_trianglesquares.svg	30	yes	53	1	373	0	0			0	0			1				0	
6.6.1	win	2023-06-15	01:40:52	01:46:04	309141	5abd5f3b5cd105000161f167	3	1	main_slash	7	advance_on_keypress_SLASH	52	stimuli_distractor_diamondtriangles.svg	stimuli_target_trianglesquares.svg	30	yes	57	0	264	0	0			0	0			1				0	
6.6.1	win	2023-06-15	01:40:52	01:46:05	310359	5abd5f3b5cd105000161f167	3	1	main_slash	7	main_slash	53	stimuli_target_squarediamonds.svg	stimuli_distractor_diamondtriangles.svg	8	yes	53	1	316	0	0			0	0			1				0	
6.6.1	win	2023-06-15	01:40:52	01:46:05	310359	5abd5f3b5cd105000161f167	3	1	main_slash	7	advance_on_keypress_SLASH	54	stimuli_target_squarediamonds.svg	stimuli_distractor_diamondtriangles.svg	8	yes	57	0	306	0	0			0	0			1				0	
6.6.1	win	2023-06-15	01:40:52	01:46:06	311647	5abd5f3b5cd105000161f167	3	1	main_slash	7	main_slash	55	stimuli_distractor_diamondtriangles.svg	stimuli_distractor_trianglediamonds.svg	38	no	53	0	337	0	0			0	0			1				0	
6.6.1	win	2023-06-15	01:40:52	01:46:06	311647	5abd5f3b5cd105000161f167	3	1	main_slash	7	advance_on_keypress_SLASH	56	stimuli_distractor_diamondtriangles.svg	stimuli_distractor_trianglediamonds.svg	38	no	57	0	942	0	0			0	0			1				0	
6.6.1	win	2023-06-15	01:40:52	01:46:08	313639	5abd5f3b5cd105000161f167	3	1	main_slash	7	main_slash	57	stimuli_target_diamondsquares.svg	stimuli_distractor_trianglediamonds.svg	20	yes	53	1	411	0	0			0	0			1				0	
6.6.1	win	2023-06-15	01:40:52	01:46:08	313639	5abd5f3b5cd105000161f167	3	1	main_slash	7	advance_on_keypress_SLASH	58	stimuli_target_diamondsquares.svg	stimuli_distractor_trianglediamonds.svg	20	yes	57	0	385	0	0			0	0			1				0	
6.6.1	win	2023-06-15	01:40:52	01:46:11	316663	5abd5f3b5cd105000161f167	3	1	main_slash	7	main_slash	59	stimuli_distractor_trianglediamonds.svg	stimuli_distractor_trianglediamonds.svg	33	no	0	1	2000	0	0			0	0			1				0	
6.6.1	win	2023-06-15	01:40:52	01:46:11	316663	5abd5f3b5cd105000161f167	3	1	main_slash	7	advance_on_keypress_SLASH	60	stimuli_distractor_trianglediamonds.svg	stimuli_distractor_trianglediamonds.svg	33	no	57	0	310	0	0			0	0			1				0	
6.6.1	win	2023-06-15	01:40:52	01:46:13	318095	5abd5f3b5cd105000161f167	3	1	main_slash	7	main_slash	61	stimuli_target_diamondrectangles.svg	stimuli_distractor_trianglediamonds.svg	19	yes	53	1	480	0	0			0	0			1				0	
6.6.1	win	2023-06-15	01:40:52	01:46:13	318095	5abd5f3b5cd105000161f167	3	1	main_slash	7	advance_on_keypress_SLASH	62	stimuli_target_diamondrectangles.svg	stimuli_distractor_trianglediamonds.svg	19	yes	57	0	376	0	0			0	0			1				0	
6.6.1	win	2023-06-15	01:40:52	01:46:14	319538	5abd5f3b5cd105000161f167	3	1	main_slash	7	main_slash	63	stimuli_target_diamondrectangles.svg	stimuli_distractor_diamondtriangles.svg	23	yes	53	1	440	0	0			0	0			1				0	
6.6.1	win	2023-06-15	01:40:52	01:46:14	319538	5abd5f3b5cd105000161f167	3	1	main_slash	7	advance_on_keypress_SLASH	64	stimuli_target_diamondrectangles.svg	stimuli_distractor_diamondtriangles.svg	23	yes	57	0	413	0	0			0	0			1				0	
6.6.1	win	2023-06-15	01:40:52	01:46:16	320978	5abd5f3b5cd105000161f167	3	1	main_slash	7	main_slash	65	stimuli_target_squarediamonds.svg	stimuli_distractor_trianglediamonds.svg	4	yes	53	1	395	0	0			0	0			1				0	
6.6.1	win	2023-06-15	01:40:52	01:46:16	320978	5abd5f3b5cd105000161f167	3	1	main_slash	7	advance_on_keypress_SLASH	66	stimuli_target_squarediamonds.svg	stimuli_distractor_trianglediamonds.svg	4	yes	57	0	459	0	0			0	0			1				0	
6.6.1	win	2023-06-15	01:40:52	01:46:19	324068	5abd5f3b5cd105000161f167	3	1	main_slash	7	main_slash	67	stimuli_distractor_diamondtriangles.svg	stimuli_distractor_diamondtriangles.svg	40	no	0	1	2000	0	0			0	0			1				0	
6.6.1	win	2023-06-15	01:40:52	01:46:19	324068	5abd5f3b5cd105000161f167	3	1	main_slash	7	advance_on_keypress_SLASH	68	stimuli_distractor_diamondtriangles.svg	stimuli_distractor_diamondtriangles.svg	40	no	57	0	426	0	0			0	0			1				0	
6.6.1	win	2023-06-15	01:40:52	01:46:20	325520	5abd5f3b5cd105000161f167	3	1	main_slash	7	main_slash	69	stimuli_distractor_trianglediamonds.svg	stimuli_target_diamondrectangles.svg	27	yes	53	1	380	0	0			0	0			1				0	
6.6.1	win	2023-06-15	01:40:52	01:46:20	325520	5abd5f3b5cd105000161f167	3	1	main_slash	7	advance_on_keypress_SLASH	70	stimuli_distractor_trianglediamonds.svg	stimuli_target_diamondrectangles.svg	27	yes	57	0	491	0	0			0	0			1				0	
6.6.1	win	2023-06-15	01:40:52	01:46:22	327038	5abd5f3b5cd105000161f167	3	1	main_slash	7	main_slash	71	stimuli_target_diamondsquares.svg	stimuli_distractor_diamondtriangles.svg	24	yes	53	1	370	0	0			0	0			1				0	
6.6.1	win	2023-06-15	01:40:52	01:46:22	327038	5abd5f3b5cd105000161f167	3	1	main_slash	7	advance_on_keypress_SLASH	72	stimuli_target_diamondsquares.svg	stimuli_distractor_diamondtriangles.svg	24	yes	57	0	325	0	0			0	0			1				0	
6.6.1	win	2023-06-15	01:40:52	01:46:24	328949	5abd5f3b5cd105000161f167	3	1	main_slash	7	main_slash	73	stimuli_target_rectangletriangles.svg	stimuli_distractor_trianglediamonds.svg	1	yes	53	1	943	0	0			0	0			1				0	
6.6.1	win	2023-06-15	01:40:52	01:46:24	328949	5abd5f3b5cd105000161f167	3	1	main_slash	7	advance_on_keypress_SLASH	74	stimuli_target_rectangletriangles.svg	stimuli_distractor_trianglediamonds.svg	1	yes	57	0	668	0	0			0	0			1				0	
6.6.1	win	2023-06-15	01:40:52	01:46:25	330733	5abd5f3b5cd105000161f167	3	1	main_slash	7	main_slash	75	stimuli_target_trianglesquares.svg	stimuli_distractor_diamondtriangles.svg	22	yes	53	1	475	0	0			0	0			1				0	
6.6.1	win	2023-06-15	01:40:52	01:46:25	330733	5abd5f3b5cd105000161f167	3	1	main_slash	7	advance_on_keypress_SLASH	76	stimuli_target_trianglesquares.svg	stimuli_distractor_diamondtriangles.svg	22	yes	57	0	475	0	0			0	0			1				0	
6.6.1	win	2023-06-15	01:40:52	01:46:27	332233	5abd5f3b5cd105000161f167	3	1	main_slash	7	main_slash	77	stimuli_target_rectanglediamonds.svg	stimuli_distractor_trianglediamonds.svg	2	yes	53	1	391	0	0			0	0			1				0	
6.6.1	win	2023-06-15	01:40:52	01:46:27	332233	5abd5f3b5cd105000161f167	3	1	main_slash	7	advance_on_keypress_SLASH	78	stimuli_target_rectanglediamonds.svg	stimuli_distractor_trianglediamonds.svg	2	yes	57	0	370	0	0			0	0			1				0	
6.6.1	win	2023-06-15	01:40:52	01:46:29	333908	5abd5f3b5cd105000161f167	3	1	main_slash	7	main_slash	79	stimuli_distractor_diamondtriangles.svg	stimuli_distractor_trianglediamonds.svg	37	no	53	0	666	0	0			0	0			1				0	
6.6.1	win	2023-06-15	01:40:52	01:46:29	333908	5abd5f3b5cd105000161f167	3	1	main_slash	7	advance_on_keypress_SLASH	80	stimuli_distractor_diamondtriangles.svg	stimuli_distractor_trianglediamonds.svg	37	no	57	0	514	0	0			0	0			1				0	
6.6.1	win	2023-06-15	01:40:52	01:46:30	335512	5abd5f3b5cd105000161f167	3	1	main_slash	7	main_slash	81	stimuli_target_diamondrectangles.svg	stimuli_distractor_diamondtriangles.svg	23	yes	53	1	452	0	0			0	0			1				0	
6.6.1	win	2023-06-15	01:40:52	01:46:30	335512	5abd5f3b5cd105000161f167	3	1	main_slash	7	advance_on_keypress_SLASH	82	stimuli_target_diamondrectangles.svg	stimuli_distractor_diamondtriangles.svg	23	yes	57	0	372	0	0			0	0			1				0	
6.6.1	win	2023-06-15	01:40:52	01:46:32	336988	5abd5f3b5cd105000161f167	3	1	main_slash	7	main_slash	83	stimuli_distractor_trianglediamonds.svg	stimuli_target_diamondsquares.svg	28	yes	53	1	460	0	0			0	0			1				0	
6.6.1	win	2023-06-15	01:40:52	01:46:32	336988	5abd5f3b5cd105000161f167	3	1	main_slash	7	advance_on_keypress_SLASH	84	stimuli_distractor_trianglediamonds.svg	stimuli_target_diamondsquares.svg	28	yes	57	0	513	0	0			0	0			1				0	
6.6.1	win	2023-06-15	01:40:52	01:46:35	340130	5abd5f3b5cd105000161f167	3	1	main_slash	7	main_slash	85	stimuli_distractor_diamondtriangles.svg	stimuli_target_squaretriangles.svg	15	yes	0	0	2000	0	0			0	0			1				0	
6.6.1	win	2023-06-15	01:40:52	01:46:35	340130	5abd5f3b5cd105000161f167	3	1	main_slash	7	advance_on_keypress_SLASH	86	stimuli_distractor_diamondtriangles.svg	stimuli_target_squaretriangles.svg	15	yes	57	0	414	0	0			0	0			1				0	
6.6.1	win	2023-06-15	01:40:52	01:46:37	341847	5abd5f3b5cd105000161f167	3	1	main_slash	7	main_slash	87	stimuli_target_squarediamonds.svg	stimuli_distractor_diamondtriangles.svg	8	yes	53	1	665	0	0			0	0			1				0	
6.6.1	win	2023-06-15	01:40:52	01:46:37	341847	5abd5f3b5cd105000161f167	3	1	main_slash	7	advance_on_keypress_SLASH	88	stimuli_target_squarediamonds.svg	stimuli_distractor_diamondtriangles.svg	8	yes	57	0	733	0	0			0	0			1				0	
6.6.1	win	2023-06-15	01:40:52	01:46:40	345217	5abd5f3b5cd105000161f167	3	1	main_slash	7	main_slash	89	stimuli_distractor_trianglediamonds.svg	stimuli_distractor_trianglediamonds.svg	33	no	0	1	2000	0	0			0	0			1				0	
6.6.1	win	2023-06-15	01:40:52	01:46:40	345217	5abd5f3b5cd105000161f167	3	1	main_slash	7	advance_on_keypress_SLASH	90	stimuli_distractor_trianglediamonds.svg	stimuli_distractor_trianglediamonds.svg	33	no	57	0	331	0	0			0	0			1				0	
6.6.1	win	2023-06-15	01:40:52	01:46:41	346599	5abd5f3b5cd105000161f167	3	1	main_slash	7	main_slash	91	stimuli_distractor_diamondtriangles.svg	stimuli_target_rectanglediamonds.svg	14	yes	53	1	413	0	0			0	0			1				0	
6.6.1	win	2023-06-15	01:40:52	01:46:41	346599	5abd5f3b5cd105000161f167	3	1	main_slash	7	advance_on_keypress_SLASH	92	stimuli_distractor_diamondtriangles.svg	stimuli_target_rectanglediamonds.svg	14	yes	57	0	496	0	0			0	0			1				0	
6.6.1	win	2023-06-15	01:40:52	01:46:44	349721	5abd5f3b5cd105000161f167	3	1	main_slash	7	main_slash	93	stimuli_distractor_diamondtriangles.svg	stimuli_distractor_trianglediamonds.svg	38	no	0	1	2000	0	0			0	0			1				0	
6.6.1	win	2023-06-15	01:40:52	01:46:44	349721	5abd5f3b5cd105000161f167	3	1	main_slash	7	advance_on_keypress_SLASH	94	stimuli_distractor_diamondtriangles.svg	stimuli_distractor_trianglediamonds.svg	38	no	57	0	296	0	0			0	0			1				0	
6.6.1	win	2023-06-15	01:40:52	01:46:46	351407	5abd5f3b5cd105000161f167	3	1	main_slash	7	main_slash	95	stimuli_target_squarediamonds.svg	stimuli_distractor_trianglediamonds.svg	4	yes	53	1	751	0	0			0	0			1				0	
6.6.1	win	2023-06-15	01:40:52	01:46:46	351407	5abd5f3b5cd105000161f167	3	1	main_slash	7	advance_on_keypress_SLASH	96	stimuli_target_squarediamonds.svg	stimuli_distractor_trianglediamonds.svg	4	yes	57	0	519	0	0			0	0			1				0	
6.6.1	win	2023-06-15	01:40:52	01:46:48	353014	5abd5f3b5cd105000161f167	3	1	main_slash	7	main_slash	97	stimuli_distractor_diamondtriangles.svg	stimuli_target_rectangletriangles.svg	13	yes	53	1	440	0	0			0	0			1				0	
6.6.1	win	2023-06-15	01:40:52	01:46:48	353014	5abd5f3b5cd105000161f167	3	1	main_slash	7	advance_on_keypress_SLASH	98	stimuli_distractor_diamondtriangles.svg	stimuli_target_rectangletriangles.svg	13	yes	57	0	318	0	0			0	0			1				0	
6.6.1	win	2023-06-15	01:40:52	01:46:49	354590	5abd5f3b5cd105000161f167	3	1	main_slash	7	main_slash	99	stimuli_target_trianglerectangles.svg	stimuli_distractor_trianglediamonds.svg	17	yes	53	1	616	0	0			0	0			1				0	
6.6.1	win	2023-06-15	01:40:52	01:46:49	354590	5abd5f3b5cd105000161f167	3	1	main_slash	7	advance_on_keypress_SLASH	100	stimuli_target_trianglerectangles.svg	stimuli_distractor_trianglediamonds.svg	17	yes	57	0	325	0	0			0	0			1				0	
6.6.1	win	2023-06-15	01:40:52	01:46:51	356076	5abd5f3b5cd105000161f167	3	1	main_slash	7	main_slash	101	stimuli_distractor_diamondtriangles.svg	stimuli_target_diamondrectangles.svg	31	yes	53	1	513	0	0			0	0			1				0	
6.6.1	win	2023-06-15	01:40:52	01:46:51	356076	5abd5f3b5cd105000161f167	3	1	main_slash	7	advance_on_keypress_SLASH	102	stimuli_distractor_diamondtriangles.svg	stimuli_target_diamondrectangles.svg	31	yes	57	0	276	0	0			0	0			1				0	
6.6.1	win	2023-06-15	01:40:52	01:46:52	357393	5abd5f3b5cd105000161f167	3	1	main_slash	7	main_slash	103	stimuli_distractor_trianglediamonds.svg	stimuli_target_trianglesquares.svg	26	yes	53	1	400	0	0			0	0			1				0	
6.6.1	win	2023-06-15	01:40:52	01:46:52	357393	5abd5f3b5cd105000161f167	3	1	main_slash	7	advance_on_keypress_SLASH	104	stimuli_distractor_trianglediamonds.svg	stimuli_target_trianglesquares.svg	26	yes	57	0	514	0	0			0	0			1				0	
6.6.1	win	2023-06-15	01:40:52	01:46:54	358928	5abd5f3b5cd105000161f167	3	1	main_slash	7	main_slash	105	stimuli_distractor_trianglediamonds.svg	stimuli_target_squarediamonds.svg	12	yes	53	1	372	0	0			0	0			1				0	
6.6.1	win	2023-06-15	01:40:52	01:46:54	358928	5abd5f3b5cd105000161f167	3	1	main_slash	7	advance_on_keypress_SLASH	106	stimuli_distractor_trianglediamonds.svg	stimuli_target_squarediamonds.svg	12	yes	57	0	447	0	0			0	0			1				0	
6.6.1	win	2023-06-15	01:40:52	01:46:57	362013	5abd5f3b5cd105000161f167	3	1	main_slash	7	main_slash	107	stimuli_distractor_diamondtriangles.svg	stimuli_distractor_diamondtriangles.svg	39	no	0	1	2000	0	0			0	0			1				0	
6.6.1	win	2023-06-15	01:40:52	01:46:57	362013	5abd5f3b5cd105000161f167	3	1	main_slash	7	advance_on_keypress_SLASH	108	stimuli_distractor_diamondtriangles.svg	stimuli_distractor_diamondtriangles.svg	39	no	57	0	334	0	0			0	0			1				0	
6.6.1	win	2023-06-15	01:40:52	01:46:58	363525	5abd5f3b5cd105000161f167	3	1	main_slash	7	main_slash	109	stimuli_distractor_trianglediamonds.svg	stimuli_target_rectanglediamonds.svg	10	yes	53	1	527	0	0			0	0			1				0	
6.6.1	win	2023-06-15	01:40:52	01:46:58	363525	5abd5f3b5cd105000161f167	3	1	main_slash	7	advance_on_keypress_SLASH	110	stimuli_distractor_trianglediamonds.svg	stimuli_target_rectanglediamonds.svg	10	yes	57	0	592	0	0			0	0			1				0	
6.6.1	win	2023-06-15	01:40:52	01:47:01	366750	5abd5f3b5cd105000161f167	3	1	main_slash	7	main_slash	111	stimuli_distractor_diamondtriangles.svg	stimuli_distractor_diamondtriangles.svg	40	no	0	1	2000	0	0			0	0			1				0	
6.6.1	win	2023-06-15	01:40:52	01:47:01	366750	5abd5f3b5cd105000161f167	3	1	main_slash	7	advance_on_keypress_SLASH	112	stimuli_distractor_diamondtriangles.svg	stimuli_distractor_diamondtriangles.svg	40	no	57	0	309	0	0			0	0			1				0	
6.6.1	win	2023-06-15	01:40:52	01:47:03	368085	5abd5f3b5cd105000161f167	3	1	main_slash	7	main_slash	113	stimuli_distractor_diamondtriangles.svg	stimuli_target_trianglesquares.svg	30	yes	53	1	383	0	0			0	0			1				0	
6.6.1	win	2023-06-15	01:40:52	01:47:03	368085	5abd5f3b5cd105000161f167	3	1	main_slash	7	advance_on_keypress_SLASH	114	stimuli_distractor_diamondtriangles.svg	stimuli_target_trianglesquares.svg	30	yes	57	0	370	0	0			0	0			1				0	
6.6.1	win	2023-06-15	01:40:52	01:47:04	369624	5abd5f3b5cd105000161f167	3	1	main_slash	7	main_slash	115	stimuli_distractor_trianglediamonds.svg	stimuli_distractor_diamondtriangles.svg	36	no	53	0	522	0	0			0	0			1				0	
6.6.1	win	2023-06-15	01:40:52	01:47:04	369624	5abd5f3b5cd105000161f167	3	1	main_slash	7	advance_on_keypress_SLASH	116	stimuli_distractor_trianglediamonds.svg	stimuli_distractor_diamondtriangles.svg	36	no	57	0	652	0	0			0	0			1				0	
6.6.1	win	2023-06-15	01:40:52	01:47:06	371312	5abd5f3b5cd105000161f167	3	1	main_slash	7	main_slash	117	stimuli_target_trianglesquares.svg	stimuli_distractor_diamondtriangles.svg	22	yes	53	1	392	0	0			0	0			1				0	
6.6.1	win	2023-06-15	01:40:52	01:47:06	371312	5abd5f3b5cd105000161f167	3	1	main_slash	7	advance_on_keypress_SLASH	118	stimuli_target_trianglesquares.svg	stimuli_distractor_diamondtriangles.svg	22	yes	57	0	263	0	0			0	0			1				0	
6.6.1	win	2023-06-15	01:40:52	01:47:07	372571	5abd5f3b5cd105000161f167	3	1	main_slash	7	main_slash	119	stimuli_target_diamondsquares.svg	stimuli_distractor_diamondtriangles.svg	24	yes	53	1	367	0	0			0	0			1				0	
6.6.1	win	2023-06-15	01:40:52	01:47:07	372571	5abd5f3b5cd105000161f167	3	1	main_slash	7	advance_on_keypress_SLASH	120	stimuli_target_diamondsquares.svg	stimuli_distractor_diamondtriangles.svg	24	yes	57	0	247	0	0			0	0			1				0	
6.6.1	win	2023-06-15	01:40:52	01:47:09	373811	5abd5f3b5cd105000161f167	3	1	main_slash	7	main_slash	121	stimuli_target_rectangletriangles.svg	stimuli_distractor_trianglediamonds.svg	1	yes	53	1	355	0	0			0	0			1				0	
6.6.1	win	2023-06-15	01:40:52	01:47:09	373811	5abd5f3b5cd105000161f167	3	1	main_slash	7	advance_on_keypress_SLASH	122	stimuli_target_rectangletriangles.svg	stimuli_distractor_trianglediamonds.svg	1	yes	57	0	392	0	0			0	0			1				0	
6.6.1	win	2023-06-15	01:40:52	01:47:10	375223	5abd5f3b5cd105000161f167	3	1	main_slash	7	main_slash	123	stimuli_distractor_trianglediamonds.svg	stimuli_target_diamondrectangles.svg	27	yes	53	1	371	0	0			0	0			1				0	
6.6.1	win	2023-06-15	01:40:52	01:47:10	375223	5abd5f3b5cd105000161f167	3	1	main_slash	7	advance_on_keypress_SLASH	124	stimuli_distractor_trianglediamonds.svg	stimuli_target_diamondrectangles.svg	27	yes	57	0	219	0	0			0	0			1				0	
6.6.1	win	2023-06-15	01:40:52	01:47:11	376479	5abd5f3b5cd105000161f167	3	1	main_slash	7	main_slash	125	stimuli_distractor_diamondtriangles.svg	stimuli_target_squarediamonds.svg	16	yes	53	1	388	0	0			0	0			1				0	
6.6.1	win	2023-06-15	01:40:52	01:47:11	376479	5abd5f3b5cd105000161f167	3	1	main_slash	7	advance_on_keypress_SLASH	126	stimuli_distractor_diamondtriangles.svg	stimuli_target_squarediamonds.svg	16	yes	57	0	215	0	0			0	0			1				0	
6.6.1	win	2023-06-15	01:40:52	01:47:12	377747	5abd5f3b5cd105000161f167	3	1	main_slash	7	main_slash	127	stimuli_distractor_trianglediamonds.svg	stimuli_target_trianglerectangles.svg	25	yes	53	1	405	0	0			0	0			1				0	
6.6.1	win	2023-06-15	01:40:52	01:47:12	377747	5abd5f3b5cd105000161f167	3	1	main_slash	7	advance_on_keypress_SLASH	128	stimuli_distractor_trianglediamonds.svg	stimuli_target_trianglerectangles.svg	25	yes	57	0	231	0	0			0	0			1				0	
6.6.1	win	2023-06-15	01:40:52	01:47:14	378967	5abd5f3b5cd105000161f167	3	1	main_slash	7	main_slash	129	stimuli_target_rectanglediamonds.svg	stimuli_distractor_diamondtriangles.svg	6	yes	53	1	357	0	0			0	0			1				0	
6.6.1	win	2023-06-15	01:40:52	01:47:14	378967	5abd5f3b5cd105000161f167	3	1	main_slash	7	advance_on_keypress_SLASH	130	stimuli_target_rectanglediamonds.svg	stimuli_distractor_diamondtriangles.svg	6	yes	57	0	210	0	0			0	0			1				0	
6.6.1	win	2023-06-15	01:40:52	01:47:15	380207	5abd5f3b5cd105000161f167	3	1	main_slash	7	main_slash	131	stimuli_target_squaretriangles.svg	stimuli_distractor_trianglediamonds.svg	3	yes	53	1	396	0	0			0	0			1				0	
6.6.1	win	2023-06-15	01:40:52	01:47:15	380207	5abd5f3b5cd105000161f167	3	1	main_slash	7	advance_on_keypress_SLASH	132	stimuli_target_squaretriangles.svg	stimuli_distractor_trianglediamonds.svg	3	yes	57	0	199	0	0			0	0			1				0	
6.6.1	win	2023-06-15	01:40:52	01:47:16	381363	5abd5f3b5cd105000161f167	3	1	main_slash	7	main_slash	133	stimuli_distractor_diamondtriangles.svg	stimuli_target_trianglerectangles.svg	29	yes	53	1	318	0	0			0	0			1				0	
6.6.1	win	2023-06-15	01:40:52	01:47:16	381363	5abd5f3b5cd105000161f167	3	1	main_slash	7	advance_on_keypress_SLASH	134	stimuli_distractor_diamondtriangles.svg	stimuli_target_trianglerectangles.svg	29	yes	57	0	97	0	0			0	0			1				0	
6.6.1	win	2023-06-15	01:40:52	01:47:17	382479	5abd5f3b5cd105000161f167	3	1	main_slash	7	main_slash	135	stimuli_target_rectangletriangles.svg	stimuli_distractor_diamondtriangles.svg	5	yes	53	1	371	0	0			0	0			1				0	
6.6.1	win	2023-06-15	01:40:52	01:47:17	382479	5abd5f3b5cd105000161f167	3	1	main_slash	7	advance_on_keypress_SLASH	136	stimuli_target_rectangletriangles.svg	stimuli_distractor_diamondtriangles.svg	5	yes	57	0	146	0	0			0	0			1				0	
6.6.1	win	2023-06-15	01:40:52	01:47:18	383646	5abd5f3b5cd105000161f167	3	1	main_slash	7	main_slash	137	stimuli_target_trianglerectangles.svg	stimuli_distractor_diamondtriangles.svg	21	yes	53	1	372	0	0			0	0			1				0	
6.6.1	win	2023-06-15	01:40:52	01:47:18	383646	5abd5f3b5cd105000161f167	3	1	main_slash	7	advance_on_keypress_SLASH	138	stimuli_target_trianglerectangles.svg	stimuli_distractor_diamondtriangles.svg	21	yes	57	0	123	0	0			0	0			1				0	
6.6.1	win	2023-06-15	01:40:52	01:47:20	384806	5abd5f3b5cd105000161f167	3	1	main_slash	7	main_slash	139	stimuli_target_squaretriangles.svg	stimuli_distractor_diamondtriangles.svg	7	yes	53	1	393	0	0			0	0			1				0	
6.6.1	win	2023-06-15	01:40:52	01:47:20	384806	5abd5f3b5cd105000161f167	3	1	main_slash	7	advance_on_keypress_SLASH	140	stimuli_target_squaretriangles.svg	stimuli_distractor_diamondtriangles.svg	7	yes	57	0	588	0	0			0	0			1				0	
6.6.1	win	2023-06-15	01:40:52	01:47:21	386367	5abd5f3b5cd105000161f167	3	1	main_slash	7	main_slash	141	stimuli_distractor_trianglediamonds.svg	stimuli_target_rectangletriangles.svg	9	yes	53	1	335	0	0			0	0			1				0	
6.6.1	win	2023-06-15	01:40:52	01:47:21	386367	5abd5f3b5cd105000161f167	3	1	main_slash	7	advance_on_keypress_SLASH	142	stimuli_distractor_trianglediamonds.svg	stimuli_target_rectangletriangles.svg	9	yes	57	0	196	0	0			0	0			1				0	
6.6.1	win	2023-06-15	01:40:52	01:47:22	387605	5abd5f3b5cd105000161f167	3	1	main_slash	7	main_slash	143	stimuli_distractor_trianglediamonds.svg	stimuli_target_squaretriangles.svg	11	yes	53	1	406	0	0			0	0			1				0	
6.6.1	win	2023-06-15	01:40:52	01:47:22	387605	5abd5f3b5cd105000161f167	3	1	main_slash	7	advance_on_keypress_SLASH	144	stimuli_distractor_trianglediamonds.svg	stimuli_target_squaretriangles.svg	11	yes	57	0	201	0	0			0	0			1				0	
6.6.1	win	2023-06-15	01:40:52	01:47:24	388838	5abd5f3b5cd105000161f167	3	1	main_slash	7	main_slash	145	stimuli_target_rectanglediamonds.svg	stimuli_distractor_trianglediamonds.svg	2	yes	53	1	387	0	0			0	0			1				0	
6.6.1	win	2023-06-15	01:40:52	01:47:24	388838	5abd5f3b5cd105000161f167	3	1	main_slash	7	advance_on_keypress_SLASH	146	stimuli_target_rectanglediamonds.svg	stimuli_distractor_trianglediamonds.svg	2	yes	57	0	179	0	0			0	0			1				0	
6.6.1	win	2023-06-15	01:40:52	01:47:25	389985	5abd5f3b5cd105000161f167	3	1	main_slash	7	main_slash	147	stimuli_target_diamondsquares.svg	stimuli_distractor_trianglediamonds.svg	20	yes	53	1	334	0	0			0	0			1				0	
6.6.1	win	2023-06-15	01:40:52	01:47:25	389985	5abd5f3b5cd105000161f167	3	1	main_slash	7	advance_on_keypress_SLASH	148	stimuli_target_diamondsquares.svg	stimuli_distractor_trianglediamonds.svg	20	yes	57	0	168	0	0			0	0			1				0	
6.6.1	win	2023-06-15	01:40:52	01:47:26	391149	5abd5f3b5cd105000161f167	3	1	main_slash	7	main_slash	149	stimuli_target_diamondrectangles.svg	stimuli_distractor_trianglediamonds.svg	19	yes	53	1	347	0	0			0	0			1				0	
6.6.1	win	2023-06-15	01:40:52	01:47:26	391149	5abd5f3b5cd105000161f167	3	1	main_slash	7	advance_on_keypress_SLASH	150	stimuli_target_diamondrectangles.svg	stimuli_distractor_trianglediamonds.svg	19	yes	57	0	165	0	0			0	0			1				0	
6.6.1	win	2023-06-15	01:40:52	01:47:29	393936	5abd5f3b5cd105000161f167	3	1	main_slash	7	main_slash	151	stimuli_distractor_trianglediamonds.svg	stimuli_distractor_diamondtriangles.svg	35	no	0	1	2000	0	0			0	0			1				0	
6.6.1	win	2023-06-15	01:40:52	01:47:29	393936	5abd5f3b5cd105000161f167	3	1	main_slash	7	advance_on_keypress_SLASH	152	stimuli_distractor_trianglediamonds.svg	stimuli_distractor_diamondtriangles.svg	35	no	57	0	602	0	0			0	0			1				0	
6.6.1	win	2023-06-15	01:40:52	01:47:30	395657	5abd5f3b5cd105000161f167	3	1	main_slash	7	main_slash	153	stimuli_distractor_diamondtriangles.svg	stimuli_target_diamondsquares.svg	32	yes	53	1	468	0	0			0	0			1				0	
6.6.1	win	2023-06-15	01:40:52	01:47:30	395657	5abd5f3b5cd105000161f167	3	1	main_slash	7	advance_on_keypress_SLASH	154	stimuli_distractor_diamondtriangles.svg	stimuli_target_diamondsquares.svg	32	yes	57	0	348	0	0			0	0			1				0	
6.6.1	win	2023-06-15	01:40:52	01:47:33	398657	5abd5f3b5cd105000161f167	3	1	main_slash	7	main_slash	155	stimuli_distractor_trianglediamonds.svg	stimuli_distractor_trianglediamonds.svg	34	no	0	1	2000	0	0			0	0			1				0	
6.6.1	win	2023-06-15	01:40:52	01:47:33	398657	5abd5f3b5cd105000161f167	3	1	main_slash	7	advance_on_keypress_SLASH	156	stimuli_distractor_trianglediamonds.svg	stimuli_distractor_trianglediamonds.svg	34	no	57	0	310	0	0			0	0			1				0	
6.6.1	win	2023-06-15	01:40:52	01:47:35	400024	5abd5f3b5cd105000161f167	3	1	main_slash	7	main_slash	157	stimuli_distractor_diamondtriangles.svg	stimuli_distractor_trianglediamonds.svg	37	no	53	0	416	0	0			0	0			1				0	
6.6.1	win	2023-06-15	01:40:52	01:47:35	400024	5abd5f3b5cd105000161f167	3	1	main_slash	7	advance_on_keypress_SLASH	158	stimuli_distractor_diamondtriangles.svg	stimuli_distractor_trianglediamonds.svg	37	no	57	0	1158	0	0			0	0			1				0	
6.6.1	win	2023-06-15	01:40:52	01:47:37	402420	5abd5f3b5cd105000161f167	3	1	main_slash	7	main_slash	159	stimuli_target_trianglesquares.svg	stimuli_distractor_trianglediamonds.svg	18	yes	53	1	594	0	0			0	0			1				0	
6.6.1	win	2023-06-15	01:40:52	01:47:37	402420	5abd5f3b5cd105000161f167	3	1	main_slash	7	advance_on_keypress_SLASH	160	stimuli_target_trianglesquares.svg	stimuli_distractor_trianglediamonds.svg	18	yes	57	0	744	0	0			0	0			1				0	
6.6.1	win	2023-06-15	01:40:52	01:48:30	454934	5abd5f3b5cd105000161f167	3	1	practice_z	9	practice_z	1	stimuli_distractor_diamondtriangles.svg	stimuli_target_diamondrectangles.svg	8	yes	44	1	419	0	0			0	0			1				0	
6.6.1	win	2023-06-15	01:40:52	01:48:30	454934	5abd5f3b5cd105000161f167	3	1	practice_z	9	advance_on_keypress_ZEE	2	stimuli_distractor_diamondtriangles.svg	stimuli_target_diamondrectangles.svg	8	yes	57	0	604	0	0			0	0			1				0	
6.6.1	win	2023-06-15	01:40:52	01:48:32	457530	5abd5f3b5cd105000161f167	3	1	practice_z	9	practice_z	3	stimuli_distractor_trianglediamonds.svg	stimuli_target_rectanglediamonds.svg	10	yes	44	1	346	0	0			0	0			1				0	
6.6.1	win	2023-06-15	01:40:52	01:48:32	457530	5abd5f3b5cd105000161f167	3	1	practice_z	9	advance_on_keypress_ZEE	4	stimuli_distractor_trianglediamonds.svg	stimuli_target_rectanglediamonds.svg	10	yes	57	0	351	0	0			0	0			1				0	
6.6.1	win	2023-06-15	01:40:52	01:48:35	459903	5abd5f3b5cd105000161f167	3	1	practice_z	9	practice_z	5	stimuli_distractor_trianglediamonds.svg	stimuli_target_diamondrectangles.svg	12	yes	44	1	367	0	0			0	0			1				0	
6.6.1	win	2023-06-15	01:40:52	01:48:35	459903	5abd5f3b5cd105000161f167	3	1	practice_z	9	advance_on_keypress_ZEE	6	stimuli_distractor_trianglediamonds.svg	stimuli_target_diamondrectangles.svg	12	yes	57	0	305	0	0			0	0			1				0	
6.6.1	win	2023-06-15	01:40:52	01:48:37	462330	5abd5f3b5cd105000161f167	3	1	practice_z	9	practice_z	7	stimuli_target_diamondsquares.svg	stimuli_distractor_trianglediamonds.svg	6	yes	44	1	476	0	0			0	0			1				0	
6.6.1	win	2023-06-15	01:40:52	01:48:37	462330	5abd5f3b5cd105000161f167	3	1	practice_z	9	advance_on_keypress_ZEE	8	stimuli_target_diamondsquares.svg	stimuli_distractor_trianglediamonds.svg	6	yes	57	0	255	0	0			0	0			1				0	
6.6.1	win	2023-06-15	01:40:52	01:48:39	464766	5abd5f3b5cd105000161f167	3	1	practice_z	9	practice_z	9	stimuli_distractor_trianglediamonds.svg	stimuli_target_squarediamonds.svg	11	yes	44	1	543	0	0			0	0			1				0	
6.6.1	win	2023-06-15	01:40:52	01:48:39	464766	5abd5f3b5cd105000161f167	3	1	practice_z	9	advance_on_keypress_ZEE	10	stimuli_distractor_trianglediamonds.svg	stimuli_target_squarediamonds.svg	11	yes	57	0	267	0	0			0	0			1				0	
6.6.1	win	2023-06-15	01:40:52	01:48:42	467149	5abd5f3b5cd105000161f167	3	1	practice_z	9	practice_z	11	stimuli_target_rectanglediamonds.svg	stimuli_distractor_trianglediamonds.svg	4	yes	44	1	475	0	0			0	0			1				0	
6.6.1	win	2023-06-15	01:40:52	01:48:42	467149	5abd5f3b5cd105000161f167	3	1	practice_z	9	advance_on_keypress_ZEE	12	stimuli_target_rectanglediamonds.svg	stimuli_distractor_trianglediamonds.svg	4	yes	57	0	258	0	0			0	0			1				0	
6.6.1	win	2023-06-15	01:40:52	01:48:44	469464	5abd5f3b5cd105000161f167	3	1	practice_z	9	practice_z	13	stimuli_distractor_diamondtriangles.svg	stimuli_distractor_trianglediamonds.svg	14	no	44	0	421	0	0			0	0			1				0	
6.6.1	win	2023-06-15	01:40:52	01:48:44	469464	5abd5f3b5cd105000161f167	3	1	practice_z	9	advance_on_keypress_ZEE	14	stimuli_distractor_diamondtriangles.svg	stimuli_distractor_trianglediamonds.svg	14	no	57	0	307	0	0			0	0			1				0	
6.6.1	win	2023-06-15	01:40:52	01:48:48	473412	5abd5f3b5cd105000161f167	3	1	practice_z	9	practice_z	15	stimuli_distractor_trianglediamonds.svg	stimuli_distractor_diamondtriangles.svg	16	no	0	1	2000	0	0			0	0			1				0	
6.6.1	win	2023-06-15	01:40:52	01:48:48	473412	5abd5f3b5cd105000161f167	3	1	practice_z	9	advance_on_keypress_ZEE	16	stimuli_distractor_trianglediamonds.svg	stimuli_distractor_diamondtriangles.svg	16	no	57	0	334	0	0			0	0			1				0	
6.6.1	win	2023-06-15	01:40:52	01:48:51	475808	5abd5f3b5cd105000161f167	3	1	practice_z	9	practice_z	17	stimuli_target_rectanglediamonds.svg	stimuli_distractor_diamondtriangles.svg	1	yes	44	1	411	0	0			0	0			1				0	
6.6.1	win	2023-06-15	01:40:52	01:48:51	475808	5abd5f3b5cd105000161f167	3	1	practice_z	9	advance_on_keypress_ZEE	18	stimuli_target_rectanglediamonds.svg	stimuli_distractor_diamondtriangles.svg	1	yes	57	0	309	0	0			0	0			1				0	
6.6.1	win	2023-06-15	01:40:52	01:48:53	478180	5abd5f3b5cd105000161f167	3	1	practice_z	9	practice_z	19	stimuli_target_diamondsquares.svg	stimuli_distractor_diamondtriangles.svg	3	yes	44	1	431	0	0			0	0			1				0	
6.6.1	win	2023-06-15	01:40:52	01:48:53	478180	5abd5f3b5cd105000161f167	3	1	practice_z	9	advance_on_keypress_ZEE	20	stimuli_target_diamondsquares.svg	stimuli_distractor_diamondtriangles.svg	3	yes	57	0	339	0	0			0	0			1				0	
6.6.1	win	2023-06-15	01:40:52	01:48:55	480535	5abd5f3b5cd105000161f167	3	1	practice_z	9	practice_z	21	stimuli_distractor_diamondtriangles.svg	stimuli_target_rectangletriangles.svg	7	yes	44	1	381	0	0			0	0			1				0	
6.6.1	win	2023-06-15	01:40:52	01:48:55	480535	5abd5f3b5cd105000161f167	3	1	practice_z	9	advance_on_keypress_ZEE	22	stimuli_distractor_diamondtriangles.svg	stimuli_target_rectangletriangles.svg	7	yes	57	0	475	0	0			0	0			1				0	
6.6.1	win	2023-06-15	01:40:52	01:48:58	483036	5abd5f3b5cd105000161f167	3	1	practice_z	9	practice_z	23	stimuli_target_squarediamonds.svg	stimuli_distractor_trianglediamonds.svg	5	yes	44	1	378	0	0			0	0			1				0	
6.6.1	win	2023-06-15	01:40:52	01:48:58	483036	5abd5f3b5cd105000161f167	3	1	practice_z	9	advance_on_keypress_ZEE	24	stimuli_target_squarediamonds.svg	stimuli_distractor_trianglediamonds.svg	5	yes	57	0	317	0	0			0	0			1				0	
6.6.1	win	2023-06-15	01:40:52	01:49:00	485403	5abd5f3b5cd105000161f167	3	1	practice_z	9	practice_z	25	stimuli_distractor_diamondtriangles.svg	stimuli_target_trianglerectangles.svg	9	yes	44	1	399	0	0			0	0			1				0	
6.6.1	win	2023-06-15	01:40:52	01:49:00	485403	5abd5f3b5cd105000161f167	3	1	practice_z	9	advance_on_keypress_ZEE	26	stimuli_distractor_diamondtriangles.svg	stimuli_target_trianglerectangles.svg	9	yes	57	0	344	0	0			0	0			1				0	
6.6.1	win	2023-06-15	01:40:52	01:49:02	487655	5abd5f3b5cd105000161f167	3	1	practice_z	9	practice_z	27	stimuli_distractor_trianglediamonds.svg	stimuli_distractor_trianglediamonds.svg	15	no	44	0	281	0	0			0	0			1				0	
6.6.1	win	2023-06-15	01:40:52	01:49:02	487655	5abd5f3b5cd105000161f167	3	1	practice_z	9	advance_on_keypress_ZEE	28	stimuli_distractor_trianglediamonds.svg	stimuli_distractor_trianglediamonds.svg	15	no	57	0	400	0	0			0	0			1				0	
6.6.1	win	2023-06-15	01:40:52	01:49:05	490107	5abd5f3b5cd105000161f167	3	1	practice_z	9	practice_z	29	stimuli_target_squarediamonds.svg	stimuli_distractor_diamondtriangles.svg	2	yes	44	1	398	0	0			0	0			1				0	
6.6.1	win	2023-06-15	01:40:52	01:49:05	490107	5abd5f3b5cd105000161f167	3	1	practice_z	9	advance_on_keypress_ZEE	30	stimuli_target_squarediamonds.svg	stimuli_distractor_diamondtriangles.svg	2	yes	57	0	353	0	0			0	0			1				0	
6.6.1	win	2023-06-15	01:40:52	01:49:09	494094	5abd5f3b5cd105000161f167	3	1	practice_z	9	practice_z	31	stimuli_distractor_diamondtriangles.svg	stimuli_distractor_diamondtriangles.svg	13	no	0	1	2000	0	0			0	0			1				0	
6.6.1	win	2023-06-15	01:40:52	01:49:09	494094	5abd5f3b5cd105000161f167	3	1	practice_z	9	advance_on_keypress_ZEE	32	stimuli_distractor_diamondtriangles.svg	stimuli_distractor_diamondtriangles.svg	13	no	57	0	406	0	0			0	0			1				0	
6.6.1	win	2023-06-15	01:40:52	01:49:17	502680	5abd5f3b5cd105000161f167	3	1	main_z	11	main_z	1	stimuli_target_rectangletriangles.svg	stimuli_distractor_diamondtriangles.svg	5	yes	44	1	346	0	0			0	0			1				0	
6.6.1	win	2023-06-15	01:40:52	01:49:17	502680	5abd5f3b5cd105000161f167	3	1	main_z	11	advance_on_keypress_ZEE	2	stimuli_target_rectangletriangles.svg	stimuli_distractor_diamondtriangles.svg	5	yes	57	0	1451	0	0			0	0			1				0	
6.6.1	win	2023-06-15	01:40:52	01:49:20	505153	5abd5f3b5cd105000161f167	3	1	main_z	11	main_z	3	stimuli_distractor_diamondtriangles.svg	stimuli_target_rectanglediamonds.svg	14	yes	44	1	382	0	0			0	0			1				0	
6.6.1	win	2023-06-15	01:40:52	01:49:20	505153	5abd5f3b5cd105000161f167	3	1	main_z	11	advance_on_keypress_ZEE	4	stimuli_distractor_diamondtriangles.svg	stimuli_target_rectanglediamonds.svg	14	yes	57	0	598	0	0			0	0			1				0	
6.6.1	win	2023-06-15	01:40:52	01:49:21	506739	5abd5f3b5cd105000161f167	3	1	main_z	11	main_z	5	stimuli_distractor_trianglediamonds.svg	stimuli_target_trianglesquares.svg	26	yes	44	1	352	0	0			0	0			1				0	
6.6.1	win	2023-06-15	01:40:52	01:49:21	506739	5abd5f3b5cd105000161f167	3	1	main_z	11	advance_on_keypress_ZEE	6	stimuli_distractor_trianglediamonds.svg	stimuli_target_trianglesquares.svg	26	yes	57	0	493	0	0			0	0			1				0	
6.6.1	win	2023-06-15	01:40:52	01:49:23	508199	5abd5f3b5cd105000161f167	3	1	main_z	11	main_z	7	stimuli_target_trianglesquares.svg	stimuli_distractor_diamondtriangles.svg	22	yes	44	1	328	0	0			0	0			1				0	
6.6.1	win	2023-06-15	01:40:52	01:49:23	508199	5abd5f3b5cd105000161f167	3	1	main_z	11	advance_on_keypress_ZEE	8	stimuli_target_trianglesquares.svg	stimuli_distractor_diamondtriangles.svg	22	yes	57	0	454	0	0			0	0			1				0	
6.6.1	win	2023-06-15	01:40:52	01:49:24	509611	5abd5f3b5cd105000161f167	3	1	main_z	11	main_z	9	stimuli_distractor_trianglediamonds.svg	stimuli_distractor_trianglediamonds.svg	34	no	44	0	322	0	0			0	0			1				0	
6.6.1	win	2023-06-15	01:40:52	01:49:24	509611	5abd5f3b5cd105000161f167	3	1	main_z	11	advance_on_keypress_ZEE	10	stimuli_distractor_trianglediamonds.svg	stimuli_distractor_trianglediamonds.svg	34	no	57	0	708	0	0			0	0			1				0	
6.6.1	win	2023-06-15	01:40:52	01:49:26	511341	5abd5f3b5cd105000161f167	3	1	main_z	11	main_z	11	stimuli_target_diamondrectangles.svg	stimuli_distractor_diamondtriangles.svg	23	yes	44	1	382	0	0			0	0			1				0	
6.6.1	win	2023-06-15	01:40:52	01:49:26	511341	5abd5f3b5cd105000161f167	3	1	main_z	11	advance_on_keypress_ZEE	12	stimuli_target_diamondrectangles.svg	stimuli_distractor_diamondtriangles.svg	23	yes	57	0	474	0	0			0	0			1				0	
6.6.1	win	2023-06-15	01:40:52	01:49:28	512975	5abd5f3b5cd105000161f167	3	1	main_z	11	main_z	13	stimuli_distractor_diamondtriangles.svg	stimuli_target_diamondsquares.svg	32	yes	44	1	509	0	0			0	0			1				0	
6.6.1	win	2023-06-15	01:40:52	01:49:28	512975	5abd5f3b5cd105000161f167	3	1	main_z	11	advance_on_keypress_ZEE	14	stimuli_distractor_diamondtriangles.svg	stimuli_target_diamondsquares.svg	32	yes	57	0	383	0	0			0	0			1				0	
6.6.1	win	2023-06-15	01:40:52	01:49:29	514543	5abd5f3b5cd105000161f167	3	1	main_z	11	main_z	15	stimuli_distractor_trianglediamonds.svg	stimuli_target_diamondsquares.svg	28	yes	44	1	534	0	0			0	0			1				0	
6.6.1	win	2023-06-15	01:40:52	01:49:29	514543	5abd5f3b5cd105000161f167	3	1	main_z	11	advance_on_keypress_ZEE	16	stimuli_distractor_trianglediamonds.svg	stimuli_target_diamondsquares.svg	28	yes	57	0	458	0	0			0	0			1				0	
6.6.1	win	2023-06-15	01:40:52	01:49:31	516211	5abd5f3b5cd105000161f167	3	1	main_z	11	main_z	17	stimuli_distractor_trianglediamonds.svg	stimuli_target_rectanglediamonds.svg	10	yes	44	1	567	0	0			0	0			1				0	
6.6.1	win	2023-06-15	01:40:52	01:49:31	516211	5abd5f3b5cd105000161f167	3	1	main_z	11	advance_on_keypress_ZEE	18	stimuli_distractor_trianglediamonds.svg	stimuli_target_rectanglediamonds.svg	10	yes	57	0	397	0	0			0	0			1				0	
6.6.1	win	2023-06-15	01:40:52	01:49:32	517642	5abd5f3b5cd105000161f167	3	1	main_z	11	main_z	19	stimuli_distractor_trianglediamonds.svg	stimuli_target_squarediamonds.svg	12	yes	44	1	397	0	0			0	0			1				0	
6.6.1	win	2023-06-15	01:40:52	01:49:32	517642	5abd5f3b5cd105000161f167	3	1	main_z	11	advance_on_keypress_ZEE	20	stimuli_distractor_trianglediamonds.svg	stimuli_target_squarediamonds.svg	12	yes	57	0	448	0	0			0	0			1				0	
6.6.1	win	2023-06-15	01:40:52	01:49:34	519230	5abd5f3b5cd105000161f167	3	1	main_z	11	main_z	21	stimuli_target_squaretriangles.svg	stimuli_distractor_diamondtriangles.svg	7	yes	44	1	509	0	0			0	0			1				0	
6.6.1	win	2023-06-15	01:40:52	01:49:34	519230	5abd5f3b5cd105000161f167	3	1	main_z	11	advance_on_keypress_ZEE	22	stimuli_target_squaretriangles.svg	stimuli_distractor_diamondtriangles.svg	7	yes	57	0	911	0	0			0	0			1				0	
6.6.1	win	2023-06-15	01:40:52	01:49:37	522781	5abd5f3b5cd105000161f167	3	1	main_z	11	main_z	23	stimuli_distractor_diamondtriangles.svg	stimuli_distractor_diamondtriangles.svg	39	no	0	1	2000	0	0			0	0			1				0	
6.6.1	win	2023-06-15	01:40:52	01:49:37	522781	5abd5f3b5cd105000161f167	3	1	main_z	11	advance_on_keypress_ZEE	24	stimuli_distractor_diamondtriangles.svg	stimuli_distractor_diamondtriangles.svg	39	no	57	0	446	0	0			0	0			1				0	
6.6.1	win	2023-06-15	01:40:52	01:49:39	524418	5abd5f3b5cd105000161f167	3	1	main_z	11	main_z	25	stimuli_distractor_diamondtriangles.svg	stimuli_target_rectangletriangles.svg	13	yes	44	1	551	0	0			0	0			1				0	
6.6.1	win	2023-06-15	01:40:52	01:49:39	524418	5abd5f3b5cd105000161f167	3	1	main_z	11	advance_on_keypress_ZEE	26	stimuli_distractor_diamondtriangles.svg	stimuli_target_rectangletriangles.svg	13	yes	57	0	451	0	0			0	0			1				0	
6.6.1	win	2023-06-15	01:40:52	01:49:41	525910	5abd5f3b5cd105000161f167	3	1	main_z	11	main_z	27	stimuli_target_rectangletriangles.svg	stimuli_distractor_trianglediamonds.svg	1	yes	44	1	392	0	0			0	0			1				0	
6.6.1	win	2023-06-15	01:40:52	01:49:41	525910	5abd5f3b5cd105000161f167	3	1	main_z	11	advance_on_keypress_ZEE	28	stimuli_target_rectangletriangles.svg	stimuli_distractor_trianglediamonds.svg	1	yes	57	0	367	0	0			0	0			1				0	
6.6.1	win	2023-06-15	01:40:52	01:49:42	527302	5abd5f3b5cd105000161f167	3	1	main_z	11	main_z	29	stimuli_target_squaretriangles.svg	stimuli_distractor_trianglediamonds.svg	3	yes	44	1	367	0	0			0	0			1				0	
6.6.1	win	2023-06-15	01:40:52	01:49:42	527302	5abd5f3b5cd105000161f167	3	1	main_z	11	advance_on_keypress_ZEE	30	stimuli_target_squaretriangles.svg	stimuli_distractor_trianglediamonds.svg	3	yes	57	0	393	0	0			0	0			1				0	
6.6.1	win	2023-06-15	01:40:52	01:49:43	528741	5abd5f3b5cd105000161f167	3	1	main_z	11	main_z	31	stimuli_target_trianglerectangles.svg	stimuli_distractor_diamondtriangles.svg	21	yes	44	1	405	0	0			0	0			1				0	
6.6.1	win	2023-06-15	01:40:52	01:49:43	528741	5abd5f3b5cd105000161f167	3	1	main_z	11	advance_on_keypress_ZEE	32	stimuli_target_trianglerectangles.svg	stimuli_distractor_diamondtriangles.svg	21	yes	57	0	460	0	0			0	0			1				0	
6.6.1	win	2023-06-15	01:40:52	01:49:45	530466	5abd5f3b5cd105000161f167	3	1	main_z	11	main_z	33	stimuli_target_squarediamonds.svg	stimuli_distractor_diamondtriangles.svg	8	yes	44	1	628	0	0			0	0			1				0	
6.6.1	win	2023-06-15	01:40:52	01:49:45	530466	5abd5f3b5cd105000161f167	3	1	main_z	11	advance_on_keypress_ZEE	34	stimuli_target_squarediamonds.svg	stimuli_distractor_diamondtriangles.svg	8	yes	57	0	537	0	0			0	0			1				0	
6.6.1	win	2023-06-15	01:40:52	01:49:47	532169	5abd5f3b5cd105000161f167	3	1	main_z	11	main_z	35	stimuli_distractor_trianglediamonds.svg	stimuli_target_diamondrectangles.svg	27	yes	44	1	529	0	0			0	0			1				0	
6.6.1	win	2023-06-15	01:40:52	01:49:47	532169	5abd5f3b5cd105000161f167	3	1	main_z	11	advance_on_keypress_ZEE	36	stimuli_distractor_trianglediamonds.svg	stimuli_target_diamondrectangles.svg	27	yes	57	0	387	0	0			0	0			1				0	
6.6.1	win	2023-06-15	01:40:52	01:49:48	533592	5abd5f3b5cd105000161f167	3	1	main_z	11	main_z	37	stimuli_target_diamondrectangles.svg	stimuli_distractor_trianglediamonds.svg	19	yes	44	1	401	0	0			0	0			1				0	
6.6.1	win	2023-06-15	01:40:52	01:49:48	533592	5abd5f3b5cd105000161f167	3	1	main_z	11	advance_on_keypress_ZEE	38	stimuli_target_diamondrectangles.svg	stimuli_distractor_trianglediamonds.svg	19	yes	57	0	380	0	0			0	0			1				0	
6.6.1	win	2023-06-15	01:40:52	01:49:50	535104	5abd5f3b5cd105000161f167	3	1	main_z	11	main_z	39	stimuli_distractor_diamondtriangles.svg	stimuli_target_trianglesquares.svg	30	yes	44	1	496	0	0			0	0			1				0	
6.6.1	win	2023-06-15	01:40:52	01:49:50	535104	5abd5f3b5cd105000161f167	3	1	main_z	11	advance_on_keypress_ZEE	40	stimuli_distractor_diamondtriangles.svg	stimuli_target_trianglesquares.svg	30	yes	57	0	363	0	0			0	0			1				0	
6.6.1	win	2023-06-15	01:40:52	01:49:53	538093	5abd5f3b5cd105000161f167	3	1	main_z	11	main_z	41	stimuli_distractor_trianglediamonds.svg	stimuli_distractor_diamondtriangles.svg	36	no	0	1	2000	0	0			0	0			1				0	
6.6.1	win	2023-06-15	01:40:52	01:49:53	538093	5abd5f3b5cd105000161f167	3	1	main_z	11	advance_on_keypress_ZEE	42	stimuli_distractor_trianglediamonds.svg	stimuli_distractor_diamondtriangles.svg	36	no	57	0	365	0	0			0	0			1				0	
6.6.1	win	2023-06-15	01:40:52	01:49:54	539496	5abd5f3b5cd105000161f167	3	1	main_z	11	main_z	43	stimuli_target_rectanglediamonds.svg	stimuli_distractor_diamondtriangles.svg	6	yes	44	1	401	0	0			0	0			1				0	
6.6.1	win	2023-06-15	01:40:52	01:49:54	539496	5abd5f3b5cd105000161f167	3	1	main_z	11	advance_on_keypress_ZEE	44	stimuli_target_rectanglediamonds.svg	stimuli_distractor_diamondtriangles.svg	6	yes	57	0	416	0	0			0	0			1				0	
6.6.1	win	2023-06-15	01:40:52	01:49:57	542563	5abd5f3b5cd105000161f167	3	1	main_z	11	main_z	45	stimuli_distractor_trianglediamonds.svg	stimuli_distractor_trianglediamonds.svg	33	no	0	1	2000	0	0			0	0			1				0	
6.6.1	win	2023-06-15	01:40:52	01:49:57	542563	5abd5f3b5cd105000161f167	3	1	main_z	11	advance_on_keypress_ZEE	46	stimuli_distractor_trianglediamonds.svg	stimuli_distractor_trianglediamonds.svg	33	no	57	0	331	0	0			0	0			1				0	
6.6.1	win	2023-06-15	01:40:52	01:49:59	543947	5abd5f3b5cd105000161f167	3	1	main_z	11	main_z	47	stimuli_distractor_diamondtriangles.svg	stimuli_target_trianglerectangles.svg	29	yes	44	1	416	0	0			0	0			1				0	
6.6.1	win	2023-06-15	01:40:52	01:49:59	543947	5abd5f3b5cd105000161f167	3	1	main_z	11	advance_on_keypress_ZEE	48	stimuli_distractor_diamondtriangles.svg	stimuli_target_trianglerectangles.svg	29	yes	57	0	474	0	0			0	0			1				0	
6.6.1	win	2023-06-15	01:40:52	01:50:00	545463	5abd5f3b5cd105000161f167	3	1	main_z	11	main_z	49	stimuli_target_diamondsquares.svg	stimuli_distractor_trianglediamonds.svg	20	yes	44	1	398	0	0			0	0			1				0	
6.6.1	win	2023-06-15	01:40:52	01:50:00	545463	5abd5f3b5cd105000161f167	3	1	main_z	11	advance_on_keypress_ZEE	50	stimuli_target_diamondsquares.svg	stimuli_distractor_trianglediamonds.svg	20	yes	57	0	256	0	0			0	0			1				0	
6.6.1	win	2023-06-15	01:40:52	01:50:01	546764	5abd5f3b5cd105000161f167	3	1	main_z	11	main_z	51	stimuli_distractor_trianglediamonds.svg	stimuli_target_rectangletriangles.svg	9	yes	44	1	413	0	0			0	0			1				0	
6.6.1	win	2023-06-15	01:40:52	01:50:01	546764	5abd5f3b5cd105000161f167	3	1	main_z	11	advance_on_keypress_ZEE	52	stimuli_distractor_trianglediamonds.svg	stimuli_target_rectangletriangles.svg	9	yes	57	0	176	0	0			0	0			1				0	
6.6.1	win	2023-06-15	01:40:52	01:50:03	548084	5abd5f3b5cd105000161f167	3	1	main_z	11	main_z	53	stimuli_distractor_diamondtriangles.svg	stimuli_target_squarediamonds.svg	16	yes	44	1	515	0	0			0	0			1				0	
6.6.1	win	2023-06-15	01:40:52	01:50:03	548084	5abd5f3b5cd105000161f167	3	1	main_z	11	advance_on_keypress_ZEE	54	stimuli_distractor_diamondtriangles.svg	stimuli_target_squarediamonds.svg	16	yes	57	0	232	0	0			0	0			1				0	
6.6.1	win	2023-06-15	01:40:52	01:50:04	549450	5abd5f3b5cd105000161f167	3	1	main_z	11	main_z	55	stimuli_distractor_diamondtriangles.svg	stimuli_target_diamondrectangles.svg	31	yes	44	1	481	0	0			0	0			1				0	
6.6.1	win	2023-06-15	01:40:52	01:50:04	549450	5abd5f3b5cd105000161f167	3	1	main_z	11	advance_on_keypress_ZEE	56	stimuli_distractor_diamondtriangles.svg	stimuli_target_diamondrectangles.svg	31	yes	57	0	229	0	0			0	0			1				0	
6.6.1	win	2023-06-15	01:40:52	01:50:07	552303	5abd5f3b5cd105000161f167	3	1	main_z	11	main_z	57	stimuli_distractor_diamondtriangles.svg	stimuli_distractor_diamondtriangles.svg	40	no	0	1	2000	0	0			0	0			1				0	
6.6.1	win	2023-06-15	01:40:52	01:50:07	552303	5abd5f3b5cd105000161f167	3	1	main_z	11	advance_on_keypress_ZEE	58	stimuli_distractor_diamondtriangles.svg	stimuli_distractor_diamondtriangles.svg	40	no	57	0	480	0	0			0	0			1				0	
6.6.1	win	2023-06-15	01:40:52	01:50:08	553770	5abd5f3b5cd105000161f167	3	1	main_z	11	main_z	59	stimuli_target_trianglesquares.svg	stimuli_distractor_trianglediamonds.svg	18	yes	44	1	348	0	0			0	0			1				0	
6.6.1	win	2023-06-15	01:40:52	01:50:08	553770	5abd5f3b5cd105000161f167	3	1	main_z	11	advance_on_keypress_ZEE	60	stimuli_target_trianglesquares.svg	stimuli_distractor_trianglediamonds.svg	18	yes	57	0	405	0	0			0	0			1				0	
6.6.1	win	2023-06-15	01:40:52	01:50:10	555170	5abd5f3b5cd105000161f167	3	1	main_z	11	main_z	61	stimuli_distractor_trianglediamonds.svg	stimuli_target_squaretriangles.svg	11	yes	44	1	363	0	0			0	0			1				0	
6.6.1	win	2023-06-15	01:40:52	01:50:10	555170	5abd5f3b5cd105000161f167	3	1	main_z	11	advance_on_keypress_ZEE	62	stimuli_distractor_trianglediamonds.svg	stimuli_target_squaretriangles.svg	11	yes	57	0	336	0	0			0	0			1				0	
6.6.1	win	2023-06-15	01:40:52	01:50:11	556554	5abd5f3b5cd105000161f167	3	1	main_z	11	main_z	63	stimuli_target_squarediamonds.svg	stimuli_distractor_trianglediamonds.svg	4	yes	44	1	413	0	0			0	0			1				0	
6.6.1	win	2023-06-15	01:40:52	01:50:11	556554	5abd5f3b5cd105000161f167	3	1	main_z	11	advance_on_keypress_ZEE	64	stimuli_target_squarediamonds.svg	stimuli_distractor_trianglediamonds.svg	4	yes	57	0	356	0	0			0	0			1				0	
6.6.1	win	2023-06-15	01:40:52	01:50:14	559542	5abd5f3b5cd105000161f167	3	1	main_z	11	main_z	65	stimuli_distractor_diamondtriangles.svg	stimuli_distractor_trianglediamonds.svg	38	no	0	1	2000	0	0			0	0			1				0	
6.6.1	win	2023-06-15	01:40:52	01:50:14	559542	5abd5f3b5cd105000161f167	3	1	main_z	11	advance_on_keypress_ZEE	66	stimuli_distractor_diamondtriangles.svg	stimuli_distractor_trianglediamonds.svg	38	no	57	0	350	0	0			0	0			1				0	
6.6.1	win	2023-06-15	01:40:52	01:50:17	562544	5abd5f3b5cd105000161f167	3	1	main_z	11	main_z	67	stimuli_distractor_diamondtriangles.svg	stimuli_distractor_trianglediamonds.svg	37	no	0	1	2000	0	0			0	0			1				0	
6.6.1	win	2023-06-15	01:40:52	01:50:17	562544	5abd5f3b5cd105000161f167	3	1	main_z	11	advance_on_keypress_ZEE	68	stimuli_distractor_diamondtriangles.svg	stimuli_distractor_trianglediamonds.svg	37	no	57	0	315	0	0			0	0			1				0	
6.6.1	win	2023-06-15	01:40:52	01:50:19	563989	5abd5f3b5cd105000161f167	3	1	main_z	11	main_z	69	stimuli_distractor_trianglediamonds.svg	stimuli_target_trianglerectangles.svg	25	yes	44	1	476	0	0			0	0			1				0	
6.6.1	win	2023-06-15	01:40:52	01:50:19	563989	5abd5f3b5cd105000161f167	3	1	main_z	11	advance_on_keypress_ZEE	70	stimuli_distractor_trianglediamonds.svg	stimuli_target_trianglerectangles.svg	25	yes	57	0	392	0	0			0	0			1				0	
6.6.1	win	2023-06-15	01:40:52	01:50:20	565508	5abd5f3b5cd105000161f167	3	1	main_z	11	main_z	71	stimuli_target_diamondsquares.svg	stimuli_distractor_diamondtriangles.svg	24	yes	44	1	494	0	0			0	0			1				0	
6.6.1	win	2023-06-15	01:40:52	01:50:20	565508	5abd5f3b5cd105000161f167	3	1	main_z	11	advance_on_keypress_ZEE	72	stimuli_target_diamondsquares.svg	stimuli_distractor_diamondtriangles.svg	24	yes	57	0	314	0	0			0	0			1				0	
6.6.1	win	2023-06-15	01:40:52	01:50:23	568448	5abd5f3b5cd105000161f167	3	1	main_z	11	main_z	73	stimuli_distractor_trianglediamonds.svg	stimuli_distractor_diamondtriangles.svg	35	no	0	1	2000	0	0			0	0			1				0	
6.6.1	win	2023-06-15	01:40:52	01:50:23	568448	5abd5f3b5cd105000161f167	3	1	main_z	11	advance_on_keypress_ZEE	74	stimuli_distractor_trianglediamonds.svg	stimuli_distractor_diamondtriangles.svg	35	no	57	0	293	0	0			0	0			1				0	
6.6.1	win	2023-06-15	01:40:52	01:50:25	569928	5abd5f3b5cd105000161f167	3	1	main_z	11	main_z	75	stimuli_target_rectanglediamonds.svg	stimuli_distractor_trianglediamonds.svg	2	yes	44	1	544	0	0			0	0			1				0	
6.6.1	win	2023-06-15	01:40:52	01:50:25	569928	5abd5f3b5cd105000161f167	3	1	main_z	11	advance_on_keypress_ZEE	76	stimuli_target_rectanglediamonds.svg	stimuli_distractor_trianglediamonds.svg	2	yes	57	0	869	0	0			0	0			1				0	
6.6.1	win	2023-06-15	01:40:52	01:50:27	571988	5abd5f3b5cd105000161f167	3	1	main_z	11	main_z	77	stimuli_distractor_diamondtriangles.svg	stimuli_target_squaretriangles.svg	15	yes	44	1	553	0	0			0	0			1				0	
6.6.1	win	2023-06-15	01:40:52	01:50:27	571988	5abd5f3b5cd105000161f167	3	1	main_z	11	advance_on_keypress_ZEE	78	stimuli_distractor_diamondtriangles.svg	stimuli_target_squaretriangles.svg	15	yes	57	0	329	0	0			0	0			1				0	
6.6.1	win	2023-06-15	01:40:52	01:50:28	573532	5abd5f3b5cd105000161f167	3	1	main_z	11	main_z	79	stimuli_target_trianglerectangles.svg	stimuli_distractor_trianglediamonds.svg	17	yes	44	1	579	0	0			0	0			1				0	
6.6.1	win	2023-06-15	01:40:52	01:50:28	573532	5abd5f3b5cd105000161f167	3	1	main_z	11	advance_on_keypress_ZEE	80	stimuli_target_trianglerectangles.svg	stimuli_distractor_trianglediamonds.svg	17	yes	57	0	383	0	0			0	0			1				0	
6.6.1	win	2023-06-15	01:40:52	01:50:30	574940	5abd5f3b5cd105000161f167	3	1	main_z	11	main_z	81	stimuli_target_trianglesquares.svg	stimuli_distractor_diamondtriangles.svg	22	yes	44	1	386	0	0			0	0			1				0	
6.6.1	win	2023-06-15	01:40:52	01:50:30	574940	5abd5f3b5cd105000161f167	3	1	main_z	11	advance_on_keypress_ZEE	82	stimuli_target_trianglesquares.svg	stimuli_distractor_diamondtriangles.svg	22	yes	57	0	213	0	0			0	0			1				0	
6.6.1	win	2023-06-15	01:40:52	01:50:31	576207	5abd5f3b5cd105000161f167	3	1	main_z	11	main_z	83	stimuli_target_diamondrectangles.svg	stimuli_distractor_diamondtriangles.svg	23	yes	44	1	419	0	0			0	0			1				0	
6.6.1	win	2023-06-15	01:40:52	01:50:31	576207	5abd5f3b5cd105000161f167	3	1	main_z	11	advance_on_keypress_ZEE	84	stimuli_target_diamondrectangles.svg	stimuli_distractor_diamondtriangles.svg	23	yes	57	0	205	0	0			0	0			1				0	
6.6.1	win	2023-06-15	01:40:52	01:50:32	577495	5abd5f3b5cd105000161f167	3	1	main_z	11	main_z	85	stimuli_target_diamondrectangles.svg	stimuli_distractor_trianglediamonds.svg	19	yes	44	1	440	0	0			0	0			1				0	
6.6.1	win	2023-06-15	01:40:52	01:50:32	577495	5abd5f3b5cd105000161f167	3	1	main_z	11	advance_on_keypress_ZEE	86	stimuli_target_diamondrectangles.svg	stimuli_distractor_trianglediamonds.svg	19	yes	57	0	249	0	0			0	0			1				0	
6.6.1	win	2023-06-15	01:40:52	01:50:34	578811	5abd5f3b5cd105000161f167	3	1	main_z	11	main_z	87	stimuli_distractor_trianglediamonds.svg	stimuli_target_diamondsquares.svg	28	yes	44	1	420	0	0			0	0			1				0	
6.6.1	win	2023-06-15	01:40:52	01:50:34	578811	5abd5f3b5cd105000161f167	3	1	main_z	11	advance_on_keypress_ZEE	88	stimuli_distractor_trianglediamonds.svg	stimuli_target_diamondsquares.svg	28	yes	57	0	227	0	0			0	0			1				0	
6.6.1	win	2023-06-15	01:40:52	01:50:35	580067	5abd5f3b5cd105000161f167	3	1	main_z	11	main_z	89	stimuli_target_squaretriangles.svg	stimuli_distractor_diamondtriangles.svg	7	yes	44	1	393	0	0			0	0			1				0	
6.6.1	win	2023-06-15	01:40:52	01:50:35	580067	5abd5f3b5cd105000161f167	3	1	main_z	11	advance_on_keypress_ZEE	90	stimuli_target_squaretriangles.svg	stimuli_distractor_diamondtriangles.svg	7	yes	57	0	215	0	0			0	0			1				0	
6.6.1	win	2023-06-15	01:40:52	01:50:36	581309	5abd5f3b5cd105000161f167	3	1	main_z	11	main_z	91	stimuli_target_squaretriangles.svg	stimuli_distractor_trianglediamonds.svg	3	yes	44	1	377	0	0			0	0			1				0	
6.6.1	win	2023-06-15	01:40:52	01:50:36	581309	5abd5f3b5cd105000161f167	3	1	main_z	11	advance_on_keypress_ZEE	92	stimuli_target_squaretriangles.svg	stimuli_distractor_trianglediamonds.svg	3	yes	57	0	184	0	0			0	0			1				0	
6.6.1	win	2023-06-15	01:40:52	01:50:37	582554	5abd5f3b5cd105000161f167	3	1	main_z	11	main_z	93	stimuli_target_rectanglediamonds.svg	stimuli_distractor_trianglediamonds.svg	2	yes	44	1	412	0	0			0	0			1				0	
6.6.1	win	2023-06-15	01:40:52	01:50:37	582554	5abd5f3b5cd105000161f167	3	1	main_z	11	advance_on_keypress_ZEE	94	stimuli_target_rectanglediamonds.svg	stimuli_distractor_trianglediamonds.svg	2	yes	57	0	218	0	0			0	0			1				0	
6.6.1	win	2023-06-15	01:40:52	01:50:40	585411	5abd5f3b5cd105000161f167	3	1	main_z	11	main_z	95	stimuli_distractor_trianglediamonds.svg	stimuli_distractor_diamondtriangles.svg	35	no	0	1	2000	0	0			0	0			1				0	
6.6.1	win	2023-06-15	01:40:52	01:50:40	585411	5abd5f3b5cd105000161f167	3	1	main_z	11	advance_on_keypress_ZEE	96	stimuli_distractor_trianglediamonds.svg	stimuli_distractor_diamondtriangles.svg	35	no	57	0	360	0	0			0	0			1				0	
6.6.1	win	2023-06-15	01:40:52	01:50:42	586870	5abd5f3b5cd105000161f167	3	1	main_z	11	main_z	97	stimuli_distractor_diamondtriangles.svg	stimuli_target_diamondrectangles.svg	31	yes	44	1	457	0	0			0	0			1				0	
6.6.1	win	2023-06-15	01:40:52	01:50:42	586870	5abd5f3b5cd105000161f167	3	1	main_z	11	advance_on_keypress_ZEE	98	stimuli_distractor_diamondtriangles.svg	stimuli_target_diamondrectangles.svg	31	yes	57	0	513	0	0			0	0			1				0	
6.6.1	win	2023-06-15	01:40:52	01:50:43	588677	5abd5f3b5cd105000161f167	3	1	main_z	11	main_z	99	stimuli_distractor_trianglediamonds.svg	stimuli_target_trianglerectangles.svg	25	yes	44	1	664	0	0			0	0			1				0	
6.6.1	win	2023-06-15	01:40:52	01:50:43	588677	5abd5f3b5cd105000161f167	3	1	main_z	11	advance_on_keypress_ZEE	100	stimuli_distractor_trianglediamonds.svg	stimuli_target_trianglerectangles.svg	25	yes	57	0	544	0	0			0	0			1				0	
6.6.1	win	2023-06-15	01:40:52	01:50:45	590330	5abd5f3b5cd105000161f167	3	1	main_z	11	main_z	101	stimuli_target_trianglesquares.svg	stimuli_distractor_trianglediamonds.svg	18	yes	44	1	481	0	0			0	0			1				0	
6.6.1	win	2023-06-15	01:40:52	01:50:45	590330	5abd5f3b5cd105000161f167	3	1	main_z	11	advance_on_keypress_ZEE	102	stimuli_target_trianglesquares.svg	stimuli_distractor_trianglediamonds.svg	18	yes	57	0	289	0	0			0	0			1				0	
6.6.1	win	2023-06-15	01:40:52	01:50:47	591782	5abd5f3b5cd105000161f167	3	1	main_z	11	main_z	103	stimuli_distractor_diamondtriangles.svg	stimuli_target_squarediamonds.svg	16	yes	44	1	532	0	0			0	0			1				0	
6.6.1	win	2023-06-15	01:40:52	01:50:47	591782	5abd5f3b5cd105000161f167	3	1	main_z	11	advance_on_keypress_ZEE	104	stimuli_distractor_diamondtriangles.svg	stimuli_target_squarediamonds.svg	16	yes	57	0	202	0	0			0	0			1				0	
6.6.1	win	2023-06-15	01:40:52	01:50:48	593134	5abd5f3b5cd105000161f167	3	1	main_z	11	main_z	105	stimuli_distractor_trianglediamonds.svg	stimuli_target_rectanglediamonds.svg	10	yes	44	1	516	0	0			0	0			1				0	
6.6.1	win	2023-06-15	01:40:52	01:50:48	593134	5abd5f3b5cd105000161f167	3	1	main_z	11	advance_on_keypress_ZEE	106	stimuli_distractor_trianglediamonds.svg	stimuli_target_rectanglediamonds.svg	10	yes	57	0	262	0	0			0	0			1				0	
6.6.1	win	2023-06-15	01:40:52	01:50:49	594454	5abd5f3b5cd105000161f167	3	1	main_z	11	main_z	107	stimuli_distractor_trianglediamonds.svg	stimuli_target_diamondrectangles.svg	27	yes	44	1	419	0	0			0	0			1				0	
6.6.1	win	2023-06-15	01:40:52	01:50:49	594454	5abd5f3b5cd105000161f167	3	1	main_z	11	advance_on_keypress_ZEE	108	stimuli_distractor_trianglediamonds.svg	stimuli_target_diamondrectangles.svg	27	yes	57	0	256	0	0			0	0			1				0	
6.6.1	win	2023-06-15	01:40:52	01:50:52	597353	5abd5f3b5cd105000161f167	3	1	main_z	11	main_z	109	stimuli_distractor_diamondtriangles.svg	stimuli_distractor_trianglediamonds.svg	37	no	0	1	2000	0	0			0	0			1				0	
6.6.1	win	2023-06-15	01:40:52	01:50:52	597353	5abd5f3b5cd105000161f167	3	1	main_z	11	advance_on_keypress_ZEE	110	stimuli_distractor_diamondtriangles.svg	stimuli_distractor_trianglediamonds.svg	37	no	57	0	329	0	0			0	0			1				0	
6.6.1	win	2023-06-15	01:40:52	01:50:53	598705	5abd5f3b5cd105000161f167	3	1	main_z	11	main_z	111	stimuli_target_squarediamonds.svg	stimuli_distractor_diamondtriangles.svg	8	yes	44	1	371	0	0			0	0			1				0	
6.6.1	win	2023-06-15	01:40:52	01:50:53	598705	5abd5f3b5cd105000161f167	3	1	main_z	11	advance_on_keypress_ZEE	112	stimuli_target_squarediamonds.svg	stimuli_distractor_diamondtriangles.svg	8	yes	57	0	190	0	0			0	0			1				0	
6.6.1	win	2023-06-15	01:40:52	01:50:55	599924	5abd5f3b5cd105000161f167	3	1	main_z	11	main_z	113	stimuli_target_diamondsquares.svg	stimuli_distractor_diamondtriangles.svg	24	yes	44	1	384	0	0			0	0			1				0	
6.6.1	win	2023-06-15	01:40:52	01:50:55	599924	5abd5f3b5cd105000161f167	3	1	main_z	11	advance_on_keypress_ZEE	114	stimuli_target_diamondsquares.svg	stimuli_distractor_diamondtriangles.svg	24	yes	57	0	273	0	0			0	0			1				0	
6.6.1	win	2023-06-15	01:40:52	01:50:58	602840	5abd5f3b5cd105000161f167	3	1	main_z	11	main_z	115	stimuli_distractor_diamondtriangles.svg	stimuli_distractor_diamondtriangles.svg	39	no	0	1	2000	0	0			0	0			1				0	
6.6.1	win	2023-06-15	01:40:52	01:50:58	602840	5abd5f3b5cd105000161f167	3	1	main_z	11	advance_on_keypress_ZEE	116	stimuli_distractor_diamondtriangles.svg	stimuli_distractor_diamondtriangles.svg	39	no	57	0	493	0	0			0	0			1				0	
6.6.1	win	2023-06-15	01:40:52	01:50:59	604312	5abd5f3b5cd105000161f167	3	1	main_z	11	main_z	117	stimuli_distractor_diamondtriangles.svg	stimuli_distractor_trianglediamonds.svg	38	no	44	0	336	0	0			0	0			1				0	
6.6.1	win	2023-06-15	01:40:52	01:50:59	604312	5abd5f3b5cd105000161f167	3	1	main_z	11	advance_on_keypress_ZEE	118	stimuli_distractor_diamondtriangles.svg	stimuli_distractor_trianglediamonds.svg	38	no	57	0	785	0	0			0	0			1				0	
6.6.1	win	2023-06-15	01:40:52	01:51:02	607744	5abd5f3b5cd105000161f167	3	1	main_z	11	main_z	119	stimuli_distractor_diamondtriangles.svg	stimuli_distractor_diamondtriangles.svg	40	no	0	1	2000	0	0			0	0			1				0	
6.6.1	win	2023-06-15	01:40:52	01:51:02	607744	5abd5f3b5cd105000161f167	3	1	main_z	11	advance_on_keypress_ZEE	120	stimuli_distractor_diamondtriangles.svg	stimuli_distractor_diamondtriangles.svg	40	no	57	0	401	0	0			0	0			1				0	
6.6.1	win	2023-06-15	01:40:52	01:51:04	609204	5abd5f3b5cd105000161f167	3	1	main_z	11	main_z	121	stimuli_target_rectangletriangles.svg	stimuli_distractor_trianglediamonds.svg	1	yes	44	1	408	0	0			0	0			1				0	
6.6.1	win	2023-06-15	01:40:52	01:51:04	609204	5abd5f3b5cd105000161f167	3	1	main_z	11	advance_on_keypress_ZEE	122	stimuli_target_rectangletriangles.svg	stimuli_distractor_trianglediamonds.svg	1	yes	57	0	226	0	0			0	0			1				0	
6.6.1	win	2023-06-15	01:40:52	01:51:05	610464	5abd5f3b5cd105000161f167	3	1	main_z	11	main_z	123	stimuli_target_rectangletriangles.svg	stimuli_distractor_diamondtriangles.svg	5	yes	44	1	400	0	0			0	0			1				0	
6.6.1	win	2023-06-15	01:40:52	01:51:05	610464	5abd5f3b5cd105000161f167	3	1	main_z	11	advance_on_keypress_ZEE	124	stimuli_target_rectangletriangles.svg	stimuli_distractor_diamondtriangles.svg	5	yes	57	0	167	0	0			0	0			1				0	
6.6.1	win	2023-06-15	01:40:52	01:51:08	613282	5abd5f3b5cd105000161f167	3	1	main_z	11	main_z	125	stimuli_distractor_trianglediamonds.svg	stimuli_distractor_trianglediamonds.svg	33	no	0	1	2000	0	0			0	0			1				0	
6.6.1	win	2023-06-15	01:40:52	01:51:08	613282	5abd5f3b5cd105000161f167	3	1	main_z	11	advance_on_keypress_ZEE	126	stimuli_distractor_trianglediamonds.svg	stimuli_distractor_trianglediamonds.svg	33	no	57	0	431	0	0			0	0			1				0	
6.6.1	win	2023-06-15	01:40:52	01:51:09	614734	5abd5f3b5cd105000161f167	3	1	main_z	11	main_z	127	stimuli_target_rectanglediamonds.svg	stimuli_distractor_diamondtriangles.svg	6	yes	44	1	376	0	0			0	0			1				0	
6.6.1	win	2023-06-15	01:40:52	01:51:09	614734	5abd5f3b5cd105000161f167	3	1	main_z	11	advance_on_keypress_ZEE	128	stimuli_target_rectanglediamonds.svg	stimuli_distractor_diamondtriangles.svg	6	yes	57	0	264	0	0			0	0			1				0	
6.6.1	win	2023-06-15	01:40:52	01:51:11	616078	5abd5f3b5cd105000161f167	3	1	main_z	11	main_z	129	stimuli_target_trianglerectangles.svg	stimuli_distractor_trianglediamonds.svg	17	yes	44	1	444	0	0			0	0			1				0	
6.6.1	win	2023-06-15	01:40:52	01:51:11	616078	5abd5f3b5cd105000161f167	3	1	main_z	11	advance_on_keypress_ZEE	130	stimuli_target_trianglerectangles.svg	stimuli_distractor_trianglediamonds.svg	17	yes	57	0	313	0	0			0	0			1				0	
6.6.1	win	2023-06-15	01:40:52	01:51:12	617470	5abd5f3b5cd105000161f167	3	1	main_z	11	main_z	131	stimuli_distractor_trianglediamonds.svg	stimuli_distractor_diamondtriangles.svg	36	no	44	0	452	0	0			0	0			1				0	
6.6.1	win	2023-06-15	01:40:52	01:51:12	617470	5abd5f3b5cd105000161f167	3	1	main_z	11	advance_on_keypress_ZEE	132	stimuli_distractor_trianglediamonds.svg	stimuli_distractor_diamondtriangles.svg	36	no	57	0	660	0	0			0	0			1				0	
6.6.1	win	2023-06-15	01:40:52	01:51:14	619370	5abd5f3b5cd105000161f167	3	1	main_z	11	main_z	133	stimuli_target_trianglerectangles.svg	stimuli_distractor_diamondtriangles.svg	21	yes	44	1	600	0	0			0	0			1				0	
6.6.1	win	2023-06-15	01:40:52	01:51:14	619370	5abd5f3b5cd105000161f167	3	1	main_z	11	advance_on_keypress_ZEE	134	stimuli_target_trianglerectangles.svg	stimuli_distractor_diamondtriangles.svg	21	yes	57	0	491	0	0			0	0			1				0	
6.6.1	win	2023-06-15	01:40:52	01:51:16	620854	5abd5f3b5cd105000161f167	3	1	main_z	11	main_z	135	stimuli_distractor_diamondtriangles.svg	stimuli_target_rectangletriangles.svg	13	yes	44	1	349	0	0			0	0			1				0	
6.6.1	win	2023-06-15	01:40:52	01:51:16	620854	5abd5f3b5cd105000161f167	3	1	main_z	11	advance_on_keypress_ZEE	136	stimuli_distractor_diamondtriangles.svg	stimuli_target_rectangletriangles.svg	13	yes	57	0	270	0	0			0	0			1				0	
6.6.1	win	2023-06-15	01:40:52	01:51:17	622156	5abd5f3b5cd105000161f167	3	1	main_z	11	main_z	137	stimuli_distractor_trianglediamonds.svg	stimuli_target_trianglesquares.svg	26	yes	44	1	377	0	0			0	0			1				0	
6.6.1	win	2023-06-15	01:40:52	01:51:17	622156	5abd5f3b5cd105000161f167	3	1	main_z	11	advance_on_keypress_ZEE	138	stimuli_distractor_trianglediamonds.svg	stimuli_target_trianglesquares.svg	26	yes	57	0	369	0	0			0	0			1				0	
6.6.1	win	2023-06-15	01:40:52	01:51:18	623594	5abd5f3b5cd105000161f167	3	1	main_z	11	main_z	139	stimuli_distractor_diamondtriangles.svg	stimuli_target_trianglesquares.svg	30	yes	44	1	420	0	0			0	0			1				0	
6.6.1	win	2023-06-15	01:40:52	01:51:18	623594	5abd5f3b5cd105000161f167	3	1	main_z	11	advance_on_keypress_ZEE	140	stimuli_distractor_diamondtriangles.svg	stimuli_target_trianglesquares.svg	30	yes	57	0	258	0	0			0	0			1				0	
6.6.1	win	2023-06-15	01:40:52	01:51:21	626491	5abd5f3b5cd105000161f167	3	1	main_z	11	main_z	141	stimuli_distractor_trianglediamonds.svg	stimuli_distractor_trianglediamonds.svg	34	no	0	1	2000	0	0			0	0			1				0	
6.6.1	win	2023-06-15	01:40:52	01:51:21	626491	5abd5f3b5cd105000161f167	3	1	main_z	11	advance_on_keypress_ZEE	142	stimuli_distractor_trianglediamonds.svg	stimuli_distractor_trianglediamonds.svg	34	no	57	0	500	0	0			0	0			1				0	
6.6.1	win	2023-06-15	01:40:52	01:51:23	628027	5abd5f3b5cd105000161f167	3	1	main_z	11	main_z	143	stimuli_distractor_trianglediamonds.svg	stimuli_target_squarediamonds.svg	12	yes	44	1	382	0	0			0	0			1				0	
6.6.1	win	2023-06-15	01:40:52	01:51:23	628027	5abd5f3b5cd105000161f167	3	1	main_z	11	advance_on_keypress_ZEE	144	stimuli_distractor_trianglediamonds.svg	stimuli_target_squarediamonds.svg	12	yes	57	0	230	0	0			0	0			1				0	
6.6.1	win	2023-06-15	01:40:52	01:51:24	629240	5abd5f3b5cd105000161f167	3	1	main_z	11	main_z	145	stimuli_distractor_diamondtriangles.svg	stimuli_target_squaretriangles.svg	15	yes	44	1	346	0	0			0	0			1				0	
6.6.1	win	2023-06-15	01:40:52	01:51:24	629240	5abd5f3b5cd105000161f167	3	1	main_z	11	advance_on_keypress_ZEE	146	stimuli_distractor_diamondtriangles.svg	stimuli_target_squaretriangles.svg	15	yes	57	0	240	0	0			0	0			1				0	
6.6.1	win	2023-06-15	01:40:52	01:51:25	630495	5abd5f3b5cd105000161f167	3	1	main_z	11	main_z	147	stimuli_distractor_diamondtriangles.svg	stimuli_target_rectanglediamonds.svg	14	yes	44	1	373	0	0			0	0			1				0	
6.6.1	win	2023-06-15	01:40:52	01:51:25	630495	5abd5f3b5cd105000161f167	3	1	main_z	11	advance_on_keypress_ZEE	148	stimuli_distractor_diamondtriangles.svg	stimuli_target_rectanglediamonds.svg	14	yes	57	0	204	0	0			0	0			1				0	
6.6.1	win	2023-06-15	01:40:52	01:51:26	631729	5abd5f3b5cd105000161f167	3	1	main_z	11	main_z	149	stimuli_distractor_trianglediamonds.svg	stimuli_target_rectangletriangles.svg	9	yes	44	1	375	0	0			0	0			1				0	
6.6.1	win	2023-06-15	01:40:52	01:51:26	631729	5abd5f3b5cd105000161f167	3	1	main_z	11	advance_on_keypress_ZEE	150	stimuli_distractor_trianglediamonds.svg	stimuli_target_rectangletriangles.svg	9	yes	57	0	174	0	0			0	0			1				0	
6.6.1	win	2023-06-15	01:40:52	01:51:28	632940	5abd5f3b5cd105000161f167	3	1	main_z	11	main_z	151	stimuli_distractor_diamondtriangles.svg	stimuli_target_trianglerectangles.svg	29	yes	44	1	393	0	0			0	0			1				0	
6.6.1	win	2023-06-15	01:40:52	01:51:28	632940	5abd5f3b5cd105000161f167	3	1	main_z	11	advance_on_keypress_ZEE	152	stimuli_distractor_diamondtriangles.svg	stimuli_target_trianglerectangles.svg	29	yes	57	0	213	0	0			0	0			1				0	
6.6.1	win	2023-06-15	01:40:52	01:51:29	634101	5abd5f3b5cd105000161f167	3	1	main_z	11	main_z	153	stimuli_target_diamondsquares.svg	stimuli_distractor_trianglediamonds.svg	20	yes	44	1	319	0	0			0	0			1				0	
6.6.1	win	2023-06-15	01:40:52	01:51:29	634101	5abd5f3b5cd105000161f167	3	1	main_z	11	advance_on_keypress_ZEE	154	stimuli_target_diamondsquares.svg	stimuli_distractor_trianglediamonds.svg	20	yes	57	0	206	0	0			0	0			1				0	
6.6.1	win	2023-06-15	01:40:52	01:51:30	635304	5abd5f3b5cd105000161f167	3	1	main_z	11	main_z	155	stimuli_target_squarediamonds.svg	stimuli_distractor_trianglediamonds.svg	4	yes	44	1	356	0	0			0	0			1				0	
6.6.1	win	2023-06-15	01:40:52	01:51:30	635304	5abd5f3b5cd105000161f167	3	1	main_z	11	advance_on_keypress_ZEE	156	stimuli_target_squarediamonds.svg	stimuli_distractor_trianglediamonds.svg	4	yes	57	0	209	0	0			0	0			1				0	
6.6.1	win	2023-06-15	01:40:52	01:51:31	636460	5abd5f3b5cd105000161f167	3	1	main_z	11	main_z	157	stimuli_distractor_diamondtriangles.svg	stimuli_target_diamondsquares.svg	32	yes	44	1	311	0	0			0	0			1				0	
6.6.1	win	2023-06-15	01:40:52	01:51:31	636460	5abd5f3b5cd105000161f167	3	1	main_z	11	advance_on_keypress_ZEE	158	stimuli_distractor_diamondtriangles.svg	stimuli_target_diamondsquares.svg	32	yes	57	0	185	0	0			0	0			1				0	
6.6.1	win	2023-06-15	01:40:52	01:51:32	637576	5abd5f3b5cd105000161f167	3	1	main_z	11	main_z	159	stimuli_distractor_trianglediamonds.svg	stimuli_target_squaretriangles.svg	11	yes	44	1	292	0	0			0	0			1				0	
6.6.1	win	2023-06-15	01:40:52	01:51:32	637576	5abd5f3b5cd105000161f167	3	1	main_z	11	advance_on_keypress_ZEE	160	stimuli_distractor_trianglediamonds.svg	stimuli_target_squaretriangles.svg	11	yes	57	0	160	0	0			0	0			1				0	
6.6.1	win	2023-06-15	01:40:52	01:51:32	637576	5abd5f3b5cd105000161f167	3	1	headphonecheck_calibration	14	headphonecheck_calibrationIntro	1	stimuli_distractor_trianglediamonds.svg	stimuli_target_squaretriangles.svg	11	yes	calibrationButton	0	3613	0	0			0	0			1				0	
6.6.1	win	2023-06-15	01:40:52	01:51:32	637576	5abd5f3b5cd105000161f167	3	1	headphonecheck_testphase	15	test_collectResponse	3	stimuli_distractor_trianglediamonds.svg	stimuli_target_squaretriangles.svg	11	yes	first	1	7074	1	3	antiphase_hc_soi.wav	1	0	0			1				0	
6.6.1	win	2023-06-15	01:40:52	01:51:32	637576	5abd5f3b5cd105000161f167	3	1	headphonecheck_testphase	15	test_collectResponse	6	stimuli_distractor_trianglediamonds.svg	stimuli_target_squaretriangles.svg	11	yes	second	1	1781	2	1	antiphase_hc_iso.wav	2	0	0			1				0	
6.6.1	win	2023-06-15	01:40:52	01:51:32	637576	5abd5f3b5cd105000161f167	3	1	headphonecheck_testphase	15	test_collectResponse	9	stimuli_distractor_trianglediamonds.svg	stimuli_target_squaretriangles.svg	11	yes	second	1	3463	3	5	antiphase_hc_osi.wav	2	0	0			1				0	
6.6.1	win	2023-06-15	01:40:52	01:51:32	637576	5abd5f3b5cd105000161f167	3	1	headphonecheck_testphase	15	test_collectResponse	12	stimuli_distractor_trianglediamonds.svg	stimuli_target_squaretriangles.svg	11	yes	third	1	502	4	6	antiphase_hc_ois.wav	3	0	0			1				0	
6.6.1	win	2023-06-15	01:40:52	01:51:32	637576	5abd5f3b5cd105000161f167	3	1	headphonecheck_testphase	15	test_collectResponse	15	stimuli_distractor_trianglediamonds.svg	stimuli_target_squaretriangles.svg	11	yes	third	1	375	5	2	antiphase_hc_ios.wav	3	0	0			1				0	
6.6.1	win	2023-06-15	01:40:52	01:51:32	637576	5abd5f3b5cd105000161f167	3	1	headphonecheck_testphase	15	test_collectResponse	18	stimuli_distractor_trianglediamonds.svg	stimuli_target_squaretriangles.svg	11	yes	first	1	448	6	4	antiphase_hc_sio.wav	1	0	0			1				0	
6.6.1	win	2023-06-15	01:40:52	01:51:32	637576	5abd5f3b5cd105000161f167	3	1	stereocheck_calibration	17	stereocheck_calibrationIntro	1	stimuli_distractor_trianglediamonds.svg	stimuli_target_squaretriangles.svg	11	yes	stereocheck_calibrationButton	0	2684	6	4	antiphase_hc_sio.wav	1	0	0			1				0	
6.6.1	win	2023-06-15	01:40:52	01:51:32	637576	5abd5f3b5cd105000161f167	3	1	stereocheck_testphase	18	stereocheck_test_collectResponse	3	stimuli_distractor_trianglediamonds.svg	stimuli_target_squaretriangles.svg	11	yes	stereocheck_right	1	587	6	4	antiphase_hc_sio.wav	1	1	5	noise_calib_stim_RIGHT.wav	2	1				0	
6.6.1	win	2023-06-15	01:40:52	01:51:32	637576	5abd5f3b5cd105000161f167	3	1	stereocheck_testphase	18	stereocheck_test_collectResponse	6	stimuli_distractor_trianglediamonds.svg	stimuli_target_squaretriangles.svg	11	yes	stereocheck_left	1	237	6	4	antiphase_hc_sio.wav	1	2	1	noise_calib_stim_LEFT.wav	1	1				0	
6.6.1	win	2023-06-15	01:40:52	01:51:32	637576	5abd5f3b5cd105000161f167	3	1	stereocheck_testphase	18	stereocheck_test_collectResponse	9	stimuli_distractor_trianglediamonds.svg	stimuli_target_squaretriangles.svg	11	yes	stereocheck_left	1	270	6	4	antiphase_hc_sio.wav	1	3	3	noise_calib_stim_LEFT.wav	1	1				0	
6.6.1	win	2023-06-15	01:40:52	01:51:32	637576	5abd5f3b5cd105000161f167	3	1	stereocheck_testphase	18	stereocheck_test_collectResponse	12	stimuli_distractor_trianglediamonds.svg	stimuli_target_squaretriangles.svg	11	yes	stereocheck_right	1	284	6	4	antiphase_hc_sio.wav	1	4	6	noise_calib_stim_RIGHT.wav	2	1				0	
6.6.1	win	2023-06-15	01:40:52	01:51:32	637576	5abd5f3b5cd105000161f167	3	1	stereocheck_testphase	18	stereocheck_test_collectResponse	15	stimuli_distractor_trianglediamonds.svg	stimuli_target_squaretriangles.svg	11	yes	stereocheck_left	1	286	6	4	antiphase_hc_sio.wav	1	5	2	noise_calib_stim_LEFT.wav	1	1				0	
6.6.1	win	2023-06-15	01:40:52	01:51:32	637576	5abd5f3b5cd105000161f167	3	1	stereocheck_testphase	18	stereocheck_test_collectResponse	18	stimuli_distractor_trianglediamonds.svg	stimuli_target_squaretriangles.svg	11	yes	stereocheck_right	1	241	6	4	antiphase_hc_sio.wav	1	6	4	noise_calib_stim_RIGHT.wav	2	1				0	
6.6.1	win	2023-06-15	01:40:52	01:51:32	637576	5abd5f3b5cd105000161f167	3	1	DL_practice	21	DL_practice	2	stimuli_distractor_trianglediamonds.svg	stimuli_target_squaretriangles.svg	11	yes	ba	1	1582	6	4	antiphase_hc_sio.wav	1	6	4	noise_calib_stim_RIGHT.wav	2	1	blb_dichoticlistening_ba-ba.mp3	ba	ba	0	left
6.6.1	win	2023-06-15	01:40:52	01:51:32	637576	5abd5f3b5cd105000161f167	3	1	DL_practice	21	DL_practice	3	stimuli_distractor_trianglediamonds.svg	stimuli_target_squaretriangles.svg	11	yes	ga	1	1132	6	4	antiphase_hc_sio.wav	1	6	4	noise_calib_stim_RIGHT.wav	2	15	blb_dichoticlistening_ga-ga.mp3	ga	ga	0	left
6.6.1	win	2023-06-15	01:40:52	01:51:32	637576	5abd5f3b5cd105000161f167	3	1	DL_practice	21	DL_practice	4	stimuli_distractor_trianglediamonds.svg	stimuli_target_squaretriangles.svg	11	yes	ka	1	1225	6	4	antiphase_hc_sio.wav	1	6	4	noise_calib_stim_RIGHT.wav	2	22	blb_dichoticlistening_ka-ka.mp3	ka	ka	0	left
6.6.1	win	2023-06-15	01:40:52	01:51:32	637576	5abd5f3b5cd105000161f167	3	1	DL_practice	21	DL_practice	5	stimuli_distractor_trianglediamonds.svg	stimuli_target_squaretriangles.svg	11	yes	pa	1	4157	6	4	antiphase_hc_sio.wav	1	6	4	noise_calib_stim_RIGHT.wav	2	23	blb_dichoticlistening_ka-pa.mp3	ka	pa	1	right
6.6.1	win	2023-06-15	01:40:52	01:51:32	637576	5abd5f3b5cd105000161f167	3	1	DL_practice	21	DL_practice	6	stimuli_distractor_trianglediamonds.svg	stimuli_target_squaretriangles.svg	11	yes	ba	1	1960	6	4	antiphase_hc_sio.wav	1	6	4	noise_calib_stim_RIGHT.wav	2	7	blb_dichoticlistening_da-ba.mp3	da	ba	1	right
6.6.1	win	2023-06-15	01:40:52	01:51:32	637576	5abd5f3b5cd105000161f167	3	1	DL_practice	21	DL_practice	7	stimuli_distractor_trianglediamonds.svg	stimuli_target_squaretriangles.svg	11	yes	pa	1	1324	6	4	antiphase_hc_sio.wav	1	6	4	noise_calib_stim_RIGHT.wav	2	29	blb_dichoticlistening_pa-pa.mp3	pa	pa	0	left
6.6.1	win	2023-06-15	01:40:52	01:51:32	637576	5abd5f3b5cd105000161f167	3	1	DL_practice	21	DL_practice	8	stimuli_distractor_trianglediamonds.svg	stimuli_target_squaretriangles.svg	11	yes	da	0	1282	6	4	antiphase_hc_sio.wav	1	6	4	noise_calib_stim_RIGHT.wav	2	18	blb_dichoticlistening_ga-ta.mp3	ga	ta	1	other
6.6.1	win	2023-06-15	01:40:52	01:51:32	637576	5abd5f3b5cd105000161f167	3	1	DL_practice	21	DL_practice	9	stimuli_distractor_trianglediamonds.svg	stimuli_target_squaretriangles.svg	11	yes	ta	1	1119	6	4	antiphase_hc_sio.wav	1	6	4	noise_calib_stim_RIGHT.wav	2	36	blb_dichoticlistening_ta-ta.mp3	ta	ta	0	left
6.6.1	win	2023-06-15	01:40:52	01:51:32	637576	5abd5f3b5cd105000161f167	3	1	DL_practice	21	DL_practice	10	stimuli_distractor_trianglediamonds.svg	stimuli_target_squaretriangles.svg	11	yes	da	1	1008	6	4	antiphase_hc_sio.wav	1	6	4	noise_calib_stim_RIGHT.wav	2	8	blb_dichoticlistening_da-da.mp3	da	da	0	left
6.6.1	win	2023-06-15	01:40:52	01:51:32	637576	5abd5f3b5cd105000161f167	3	1	DL_test	23	DL_test	1	stimuli_distractor_trianglediamonds.svg	stimuli_target_squaretriangles.svg	11	yes	pa	0	2044	6	4	antiphase_hc_sio.wav	1	6	4	noise_calib_stim_RIGHT.wav	2	31	blb_dichoticlistening_ta-ba.mp3	ta	ba	1	other
6.6.1	win	2023-06-15	01:40:52	01:51:32	637576	5abd5f3b5cd105000161f167	3	1	DL_test	23	DL_test	2	stimuli_distractor_trianglediamonds.svg	stimuli_target_squaretriangles.svg	11	yes	ba	1	1527	6	4	antiphase_hc_sio.wav	1	6	4	noise_calib_stim_RIGHT.wav	2	3	blb_dichoticlistening_ba-ga.mp3	ba	ga	1	left
6.6.1	win	2023-06-15	01:40:52	01:51:32	637576	5abd5f3b5cd105000161f167	3	1	DL_test	23	DL_test	3	stimuli_distractor_trianglediamonds.svg	stimuli_target_squaretriangles.svg	11	yes	pa	1	1469	6	4	antiphase_hc_sio.wav	1	6	4	noise_calib_stim_RIGHT.wav	2	27	blb_dichoticlistening_pa-ga.mp3	pa	ga	1	left
6.6.1	win	2023-06-15	01:40:52	01:51:32	637576	5abd5f3b5cd105000161f167	3	1	DL_test	23	DL_test	4	stimuli_distractor_trianglediamonds.svg	stimuli_target_squaretriangles.svg	11	yes	ta	1	1049	6	4	antiphase_hc_sio.wav	1	6	4	noise_calib_stim_RIGHT.wav	2	18	blb_dichoticlistening_ga-ta.mp3	ga	ta	1	right
6.6.1	win	2023-06-15	01:40:52	01:51:32	637576	5abd5f3b5cd105000161f167	3	1	DL_test	23	DL_test	5	stimuli_distractor_trianglediamonds.svg	stimuli_target_squaretriangles.svg	11	yes	pa	1	1601	6	4	antiphase_hc_sio.wav	1	6	4	noise_calib_stim_RIGHT.wav	2	23	blb_dichoticlistening_ka-pa.mp3	ka	pa	1	right
6.6.1	win	2023-06-15	01:40:52	01:51:32	637576	5abd5f3b5cd105000161f167	3	1	DL_test	23	DL_test	6	stimuli_distractor_trianglediamonds.svg	stimuli_target_squaretriangles.svg	11	yes	pa	0	724	6	4	antiphase_hc_sio.wav	1	6	4	noise_calib_stim_RIGHT.wav	2	10	blb_dichoticlistening_da-ka.mp3	da	ka	1	other
6.6.1	win	2023-06-15	01:40:52	01:51:32	637576	5abd5f3b5cd105000161f167	3	1	DL_test	23	DL_test	7	stimuli_distractor_trianglediamonds.svg	stimuli_target_squaretriangles.svg	11	yes	ba	1	910	6	4	antiphase_hc_sio.wav	1	6	4	noise_calib_stim_RIGHT.wav	2	7	blb_dichoticlistening_da-ba.mp3	da	ba	1	right
6.6.1	win	2023-06-15	01:40:52	01:51:32	637576	5abd5f3b5cd105000161f167	3	1	DL_test	23	DL_test	8	stimuli_distractor_trianglediamonds.svg	stimuli_target_squaretriangles.svg	11	yes	ga	1	819	6	4	antiphase_hc_sio.wav	1	6	4	noise_calib_stim_RIGHT.wav	2	15	blb_dichoticlistening_ga-ga.mp3	ga	ga	0	left
6.6.1	win	2023-06-15	01:40:52	01:51:32	637576	5abd5f3b5cd105000161f167	3	1	DL_test	23	DL_test	9	stimuli_distractor_trianglediamonds.svg	stimuli_target_squaretriangles.svg	11	yes	pa	1	1184	6	4	antiphase_hc_sio.wav	1	6	4	noise_calib_stim_RIGHT.wav	2	35	blb_dichoticlistening_ta-pa.mp3	ta	pa	1	right
6.6.1	win	2023-06-15	01:40:52	01:51:32	637576	5abd5f3b5cd105000161f167	3	1	DL_test	23	DL_test	10	stimuli_distractor_trianglediamonds.svg	stimuli_target_squaretriangles.svg	11	yes	da	1	948	6	4	antiphase_hc_sio.wav	1	6	4	noise_calib_stim_RIGHT.wav	2	14	blb_dichoticlistening_ga-da.mp3	ga	da	1	right
6.6.1	win	2023-06-15	01:40:52	01:51:32	637576	5abd5f3b5cd105000161f167	3	1	DL_test	23	DL_test	11	stimuli_distractor_trianglediamonds.svg	stimuli_target_squaretriangles.svg	11	yes	ta	1	978	6	4	antiphase_hc_sio.wav	1	6	4	noise_calib_stim_RIGHT.wav	2	24	blb_dichoticlistening_ka-ta.mp3	ka	ta	1	right
6.6.1	win	2023-06-15	01:40:52	01:51:32	637576	5abd5f3b5cd105000161f167	3	1	DL_test	23	DL_test	12	stimuli_distractor_trianglediamonds.svg	stimuli_target_squaretriangles.svg	11	yes	ta	1	791	6	4	antiphase_hc_sio.wav	1	6	4	noise_calib_stim_RIGHT.wav	2	34	blb_dichoticlistening_ta-ka.mp3	ta	ka	1	left
6.6.1	win	2023-06-15	01:40:52	01:51:32	637576	5abd5f3b5cd105000161f167	3	1	DL_test	23	DL_test	13	stimuli_distractor_trianglediamonds.svg	stimuli_target_squaretriangles.svg	11	yes	pa	1	1150	6	4	antiphase_hc_sio.wav	1	6	4	noise_calib_stim_RIGHT.wav	2	25	blb_dichoticlistening_pa-ba.mp3	pa	ba	1	left
6.6.1	win	2023-06-15	01:40:52	01:51:32	637576	5abd5f3b5cd105000161f167	3	1	DL_test	23	DL_test	14	stimuli_distractor_trianglediamonds.svg	stimuli_target_squaretriangles.svg	11	yes	ba	1	1022	6	4	antiphase_hc_sio.wav	1	6	4	noise_calib_stim_RIGHT.wav	2	1	blb_dichoticlistening_ba-ba.mp3	ba	ba	0	left
6.6.1	win	2023-06-15	01:40:52	01:51:32	637576	5abd5f3b5cd105000161f167	3	1	DL_test	23	DL_test	15	stimuli_distractor_trianglediamonds.svg	stimuli_target_squaretriangles.svg	11	yes	ka	1	968	6	4	antiphase_hc_sio.wav	1	6	4	noise_calib_stim_RIGHT.wav	2	16	blb_dichoticlistening_ga-ka.mp3	ga	ka	1	right
6.6.1	win	2023-06-15	01:40:52	01:51:32	637576	5abd5f3b5cd105000161f167	3	1	DL_test	23	DL_test	16	stimuli_distractor_trianglediamonds.svg	stimuli_target_squaretriangles.svg	11	yes	ta	1	1427	6	4	antiphase_hc_sio.wav	1	6	4	noise_calib_stim_RIGHT.wav	2	6	blb_dichoticlistening_ba-ta.mp3	ba	ta	1	right
6.6.1	win	2023-06-15	01:40:52	01:51:32	637576	5abd5f3b5cd105000161f167	3	1	DL_test	23	DL_test	17	stimuli_distractor_trianglediamonds.svg	stimuli_target_squaretriangles.svg	11	yes	ka	1	1680	6	4	antiphase_hc_sio.wav	1	6	4	noise_calib_stim_RIGHT.wav	2	19	blb_dichoticlistening_ka-ba.mp3	ka	ba	1	left
6.6.1	win	2023-06-15	01:40:52	01:51:32	637576	5abd5f3b5cd105000161f167	3	1	DL_test	23	DL_test	18	stimuli_distractor_trianglediamonds.svg	stimuli_target_squaretriangles.svg	11	yes	ka	1	731	6	4	antiphase_hc_sio.wav	1	6	4	noise_calib_stim_RIGHT.wav	2	22	blb_dichoticlistening_ka-ka.mp3	ka	ka	0	left
6.6.1	win	2023-06-15	01:40:52	01:51:32	637576	5abd5f3b5cd105000161f167	3	1	DL_test	23	DL_test	19	stimuli_distractor_trianglediamonds.svg	stimuli_target_squaretriangles.svg	11	yes	pa	1	2049	6	4	antiphase_hc_sio.wav	1	6	4	noise_calib_stim_RIGHT.wav	2	28	blb_dichoticlistening_pa-ka.mp3	pa	ka	1	left
6.6.1	win	2023-06-15	01:40:52	01:51:32	637576	5abd5f3b5cd105000161f167	3	1	DL_test	23	DL_test	20	stimuli_distractor_trianglediamonds.svg	stimuli_target_squaretriangles.svg	11	yes	da	1	1268	6	4	antiphase_hc_sio.wav	1	6	4	noise_calib_stim_RIGHT.wav	2	9	blb_dichoticlistening_da-ga.mp3	da	ga	1	left
6.6.1	win	2023-06-15	01:40:52	01:51:32	637576	5abd5f3b5cd105000161f167	3	1	DL_test	23	DL_test	21	stimuli_distractor_trianglediamonds.svg	stimuli_target_squaretriangles.svg	11	yes	da	1	1092	6	4	antiphase_hc_sio.wav	1	6	4	noise_calib_stim_RIGHT.wav	2	32	blb_dichoticlistening_ta-da.mp3	ta	da	1	right
6.6.1	win	2023-06-15	01:40:52	01:51:32	637576	5abd5f3b5cd105000161f167	3	1	DL_test	23	DL_test	22	stimuli_distractor_trianglediamonds.svg	stimuli_target_squaretriangles.svg	11	yes	ka	1	1447	6	4	antiphase_hc_sio.wav	1	6	4	noise_calib_stim_RIGHT.wav	2	21	blb_dichoticlistening_ka-ga.mp3	ka	ga	1	left
6.6.1	win	2023-06-15	01:40:52	01:51:32	637576	5abd5f3b5cd105000161f167	3	1	DL_test	23	DL_test	23	stimuli_distractor_trianglediamonds.svg	stimuli_target_squaretriangles.svg	11	yes	ba	1	1590	6	4	antiphase_hc_sio.wav	1	6	4	noise_calib_stim_RIGHT.wav	2	13	blb_dichoticlistening_ga-ba.mp3	ga	ba	1	right
6.6.1	win	2023-06-15	01:40:52	01:51:32	637576	5abd5f3b5cd105000161f167	3	1	DL_test	23	DL_test	24	stimuli_distractor_trianglediamonds.svg	stimuli_target_squaretriangles.svg	11	yes	ta	1	1170	6	4	antiphase_hc_sio.wav	1	6	4	noise_calib_stim_RIGHT.wav	2	12	blb_dichoticlistening_da-ta.mp3	da	ta	1	right
6.6.1	win	2023-06-15	01:40:52	01:51:32	637576	5abd5f3b5cd105000161f167	3	1	DL_test	23	DL_test	25	stimuli_distractor_trianglediamonds.svg	stimuli_target_squaretriangles.svg	11	yes	ta	0	1294	6	4	antiphase_hc_sio.wav	1	6	4	noise_calib_stim_RIGHT.wav	2	4	blb_dichoticlistening_ba-ka.mp3	ba	ka	1	other
6.6.1	win	2023-06-15	01:40:52	01:51:32	637576	5abd5f3b5cd105000161f167	3	1	DL_test	23	DL_test	26	stimuli_distractor_trianglediamonds.svg	stimuli_target_squaretriangles.svg	11	yes	da	1	1223	6	4	antiphase_hc_sio.wav	1	6	4	noise_calib_stim_RIGHT.wav	2	8	blb_dichoticlistening_da-da.mp3	da	da	0	left
