build	computer.platform	date	time	timestamp	time_elapsed_ms	subject	group	session	blockcode	blocknum	trialcode	trialnum	stimulus_left	stimulus_right	stim_index	target_present	response	correct	latency	headphonecheck_countTestTrials	headphonecheck_index	headphonecheck_testSound	headphonecheck_correctResponse	stereocheck_countTestTrials	stereocheck_index	stereocheck_testSound	stereocheck_correctResponse	DL_index	DL_soundfile	DL_leftSound	DL_rightSound	DL_dualSound	DL_choice
6.6.1	win	2023-07-10	12:23:07	0	0	6329f8bd8622aaba8e13a6d7	2	1	headphonecheck_calibration	4	headphonecheck_calibrationIntro	1			0		calibrationButton	0	2926	0	0			0	0			1				0	
6.6.1	win	2023-07-10	12:23:07	0	0	6329f8bd8622aaba8e13a6d7	2	1	headphonecheck_testphase	5	test_collectResponse	3			0		second	1	254	1	5	antiphase_hc_osi.wav	2	0	0			1				0	
6.6.1	win	2023-07-10	12:23:07	0	0	6329f8bd8622aaba8e13a6d7	2	1	headphonecheck_testphase	5	test_collectResponse	6			0		third	1	266	2	2	antiphase_hc_ios.wav	3	0	0			1				0	
6.6.1	win	2023-07-10	12:23:07	0	0	6329f8bd8622aaba8e13a6d7	2	1	headphonecheck_testphase	5	test_collectResponse	9			0		third	1	271	3	6	antiphase_hc_ois.wav	3	0	0			1				0	
6.6.1	win	2023-07-10	12:23:07	0	0	6329f8bd8622aaba8e13a6d7	2	1	headphonecheck_testphase	5	test_collectResponse	12			0		first	1	706	4	4	antiphase_hc_sio.wav	1	0	0			1				0	
6.6.1	win	2023-07-10	12:23:07	0	0	6329f8bd8622aaba8e13a6d7	2	1	headphonecheck_testphase	5	test_collectResponse	15			0		first	1	1715	5	3	antiphase_hc_soi.wav	1	0	0			1				0	
6.6.1	win	2023-07-10	12:23:07	0	0	6329f8bd8622aaba8e13a6d7	2	1	headphonecheck_testphase	5	test_collectResponse	18			0		second	1	315	6	1	antiphase_hc_iso.wav	2	0	0			1				0	
6.6.1	win	2023-07-10	12:23:07	0	0	6329f8bd8622aaba8e13a6d7	2	1	stereocheck_calibration	7	stereocheck_calibrationIntro	1			0		stereocheck_calibrationButton	0	2941	6	1	antiphase_hc_iso.wav	2	0	0			1				0	
6.6.1	win	2023-07-10	12:23:07	0	0	6329f8bd8622aaba8e13a6d7	2	1	stereocheck_testphase	8	stereocheck_test_collectResponse	3			0		stereocheck_right	1	279	6	1	antiphase_hc_iso.wav	2	1	5	noise_calib_stim_RIGHT.wav	2	1				0	
6.6.1	win	2023-07-10	12:23:07	0	0	6329f8bd8622aaba8e13a6d7	2	1	stereocheck_testphase	8	stereocheck_test_collectResponse	6			0		stereocheck_right	1	315	6	1	antiphase_hc_iso.wav	2	2	4	noise_calib_stim_RIGHT.wav	2	1				0	
6.6.1	win	2023-07-10	12:23:07	0	0	6329f8bd8622aaba8e13a6d7	2	1	stereocheck_testphase	8	stereocheck_test_collectResponse	9			0		stereocheck_left	1	232	6	1	antiphase_hc_iso.wav	2	3	2	noise_calib_stim_LEFT.wav	1	1				0	
6.6.1	win	2023-07-10	12:23:07	0	0	6329f8bd8622aaba8e13a6d7	2	1	stereocheck_testphase	8	stereocheck_test_collectResponse	12			0		stereocheck_right	1	321	6	1	antiphase_hc_iso.wav	2	4	6	noise_calib_stim_RIGHT.wav	2	1				0	
6.6.1	win	2023-07-10	12:23:07	0	0	6329f8bd8622aaba8e13a6d7	2	1	stereocheck_testphase	8	stereocheck_test_collectResponse	15			0		stereocheck_left	1	231	6	1	antiphase_hc_iso.wav	2	5	3	noise_calib_stim_LEFT.wav	1	1				0	
6.6.1	win	2023-07-10	12:23:07	0	0	6329f8bd8622aaba8e13a6d7	2	1	stereocheck_testphase	8	stereocheck_test_collectResponse	18			0		stereocheck_left	1	227	6	1	antiphase_hc_iso.wav	2	6	1	noise_calib_stim_LEFT.wav	1	1				0	
6.6.1	win	2023-07-10	12:23:07	0	0	6329f8bd8622aaba8e13a6d7	2	1	DL_practice	11	DL_practice	2			0		da	1	2523	6	1	antiphase_hc_iso.wav	2	6	1	noise_calib_stim_LEFT.wav	1	7	blb_dichoticlistening_da-ba.mp3	da	ba	1	left
6.6.1	win	2023-07-10	12:23:07	0	0	6329f8bd8622aaba8e13a6d7	2	1	DL_practice	11	DL_practice	3			0		pa	1	1171	6	1	antiphase_hc_iso.wav	2	6	1	noise_calib_stim_LEFT.wav	1	29	blb_dichoticlistening_pa-pa.mp3	pa	pa	0	left
6.6.1	win	2023-07-10	12:23:07	0	0	6329f8bd8622aaba8e13a6d7	2	1	DL_practice	11	DL_practice	4			0		ba	1	1045	6	1	antiphase_hc_iso.wav	2	6	1	noise_calib_stim_LEFT.wav	1	1	blb_dichoticlistening_ba-ba.mp3	ba	ba	0	left
6.6.1	win	2023-07-10	12:23:07	0	0	6329f8bd8622aaba8e13a6d7	2	1	DL_practice	11	DL_practice	5			0		ka	1	704	6	1	antiphase_hc_iso.wav	2	6	1	noise_calib_stim_LEFT.wav	1	22	blb_dichoticlistening_ka-ka.mp3	ka	ka	0	left
6.6.1	win	2023-07-10	12:23:07	0	0	6329f8bd8622aaba8e13a6d7	2	1	DL_practice	11	DL_practice	6			0		ga	1	680	6	1	antiphase_hc_iso.wav	2	6	1	noise_calib_stim_LEFT.wav	1	15	blb_dichoticlistening_ga-ga.mp3	ga	ga	0	left
6.6.1	win	2023-07-10	12:23:07	0	0	6329f8bd8622aaba8e13a6d7	2	1	DL_practice	11	DL_practice	7			0		da	0	4567	6	1	antiphase_hc_iso.wav	2	6	1	noise_calib_stim_LEFT.wav	1	18	blb_dichoticlistening_ga-ta.mp3	ga	ta	1	other
6.6.1	win	2023-07-10	12:23:07	0	0	6329f8bd8622aaba8e13a6d7	2	1	DL_practice	11	DL_practice	8			0		da	1	1451	6	1	antiphase_hc_iso.wav	2	6	1	noise_calib_stim_LEFT.wav	1	8	blb_dichoticlistening_da-da.mp3	da	da	0	left
6.6.1	win	2023-07-10	12:23:07	0	0	6329f8bd8622aaba8e13a6d7	2	1	DL_practice	11	DL_practice	9			0		pa	1	1927	6	1	antiphase_hc_iso.wav	2	6	1	noise_calib_stim_LEFT.wav	1	23	blb_dichoticlistening_ka-pa.mp3	ka	pa	1	right
6.6.1	win	2023-07-10	12:23:07	0	0	6329f8bd8622aaba8e13a6d7	2	1	DL_practice	11	DL_practice	10			0		ta	1	1270	6	1	antiphase_hc_iso.wav	2	6	1	noise_calib_stim_LEFT.wav	1	36	blb_dichoticlistening_ta-ta.mp3	ta	ta	0	left
6.6.1	win	2023-07-10	12:23:07	0	0	6329f8bd8622aaba8e13a6d7	2	1	DL_test	13	DL_test	1			0		da	1	2397	6	1	antiphase_hc_iso.wav	2	6	1	noise_calib_stim_LEFT.wav	1	7	blb_dichoticlistening_da-ba.mp3	da	ba	1	left
6.6.1	win	2023-07-10	12:23:07	0	0	6329f8bd8622aaba8e13a6d7	2	1	DL_test	13	DL_test	2			0		da	1	2245	6	1	antiphase_hc_iso.wav	2	6	1	noise_calib_stim_LEFT.wav	1	26	blb_dichoticlistening_pa-da.mp3	pa	da	1	right
6.6.1	win	2023-07-10	12:23:07	0	0	6329f8bd8622aaba8e13a6d7	2	1	DL_test	13	DL_test	3			0		ta	1	1805	6	1	antiphase_hc_iso.wav	2	6	1	noise_calib_stim_LEFT.wav	1	30	blb_dichoticlistening_pa-ta.mp3	pa	ta	1	right
6.6.1	win	2023-07-10	12:23:07	0	0	6329f8bd8622aaba8e13a6d7	2	1	DL_test	13	DL_test	4			0		ka	1	1064	6	1	antiphase_hc_iso.wav	2	6	1	noise_calib_stim_LEFT.wav	1	16	blb_dichoticlistening_ga-ka.mp3	ga	ka	1	right
6.6.1	win	2023-07-10	12:23:07	0	0	6329f8bd8622aaba8e13a6d7	2	1	DL_test	13	DL_test	5			0		ga	1	1200	6	1	antiphase_hc_iso.wav	2	6	1	noise_calib_stim_LEFT.wav	1	27	blb_dichoticlistening_pa-ga.mp3	pa	ga	1	right
6.6.1	win	2023-07-10	12:23:07	0	0	6329f8bd8622aaba8e13a6d7	2	1	DL_test	13	DL_test	6			0		ga	1	803	6	1	antiphase_hc_iso.wav	2	6	1	noise_calib_stim_LEFT.wav	1	15	blb_dichoticlistening_ga-ga.mp3	ga	ga	0	left
6.6.1	win	2023-07-10	12:23:07	0	0	6329f8bd8622aaba8e13a6d7	2	1	DL_test	13	DL_test	7			0		ba	1	1381	6	1	antiphase_hc_iso.wav	2	6	1	noise_calib_stim_LEFT.wav	1	13	blb_dichoticlistening_ga-ba.mp3	ga	ba	1	right
6.6.1	win	2023-07-10	12:23:07	0	0	6329f8bd8622aaba8e13a6d7	2	1	DL_test	13	DL_test	8			0		ta	1	1235	6	1	antiphase_hc_iso.wav	2	6	1	noise_calib_stim_LEFT.wav	1	6	blb_dichoticlistening_ba-ta.mp3	ba	ta	1	right
6.6.1	win	2023-07-10	12:23:07	0	0	6329f8bd8622aaba8e13a6d7	2	1	DL_test	13	DL_test	9			0		ka	1	840	6	1	antiphase_hc_iso.wav	2	6	1	noise_calib_stim_LEFT.wav	1	22	blb_dichoticlistening_ka-ka.mp3	ka	ka	0	left
6.6.1	win	2023-07-10	12:23:07	0	0	6329f8bd8622aaba8e13a6d7	2	1	DL_test	13	DL_test	10			0		ta	1	1241	6	1	antiphase_hc_iso.wav	2	6	1	noise_calib_stim_LEFT.wav	1	12	blb_dichoticlistening_da-ta.mp3	da	ta	1	right
6.6.1	win	2023-07-10	12:23:07	0	0	6329f8bd8622aaba8e13a6d7	2	1	DL_test	13	DL_test	11			0		ka	1	875	6	1	antiphase_hc_iso.wav	2	6	1	noise_calib_stim_LEFT.wav	1	34	blb_dichoticlistening_ta-ka.mp3	ta	ka	1	right
6.6.1	win	2023-07-10	12:23:07	0	0	6329f8bd8622aaba8e13a6d7	2	1	DL_test	13	DL_test	12			0		ka	1	713	6	1	antiphase_hc_iso.wav	2	6	1	noise_calib_stim_LEFT.wav	1	24	blb_dichoticlistening_ka-ta.mp3	ka	ta	1	left
6.6.1	win	2023-07-10	12:23:07	0	0	6329f8bd8622aaba8e13a6d7	2	1	DL_test	13	DL_test	13			0		ga	1	730	6	1	antiphase_hc_iso.wav	2	6	1	noise_calib_stim_LEFT.wav	1	14	blb_dichoticlistening_ga-da.mp3	ga	da	1	left
6.6.1	win	2023-07-10	12:23:07	0	0	6329f8bd8622aaba8e13a6d7	2	1	DL_test	13	DL_test	14			0		pa	0	921	6	1	antiphase_hc_iso.wav	2	6	1	noise_calib_stim_LEFT.wav	1	10	blb_dichoticlistening_da-ka.mp3	da	ka	1	other
6.6.1	win	2023-07-10	12:23:07	0	0	6329f8bd8622aaba8e13a6d7	2	1	DL_test	13	DL_test	15			0		pa	1	963	6	1	antiphase_hc_iso.wav	2	6	1	noise_calib_stim_LEFT.wav	1	17	blb_dichoticlistening_ga-pa.mp3	ga	pa	1	right
6.6.1	win	2023-07-10	12:23:07	0	0	6329f8bd8622aaba8e13a6d7	2	1	DL_test	13	DL_test	16			0		da	1	987	6	1	antiphase_hc_iso.wav	2	6	1	noise_calib_stim_LEFT.wav	1	20	blb_dichoticlistening_ka-da.mp3	ka	da	1	right
6.6.1	win	2023-07-10	12:23:07	0	0	6329f8bd8622aaba8e13a6d7	2	1	DL_test	13	DL_test	17			0		da	1	795	6	1	antiphase_hc_iso.wav	2	6	1	noise_calib_stim_LEFT.wav	1	8	blb_dichoticlistening_da-da.mp3	da	da	0	left
6.6.1	win	2023-07-10	12:23:07	0	0	6329f8bd8622aaba8e13a6d7	2	1	DL_test	13	DL_test	18			0		ba	1	880	6	1	antiphase_hc_iso.wav	2	6	1	noise_calib_stim_LEFT.wav	1	1	blb_dichoticlistening_ba-ba.mp3	ba	ba	0	left
6.6.1	win	2023-07-10	12:23:07	0	0	6329f8bd8622aaba8e13a6d7	2	1	DL_test	13	DL_test	19			0		pa	1	1104	6	1	antiphase_hc_iso.wav	2	6	1	noise_calib_stim_LEFT.wav	1	29	blb_dichoticlistening_pa-pa.mp3	pa	pa	0	left
6.6.1	win	2023-07-10	12:23:07	0	0	6329f8bd8622aaba8e13a6d7	2	1	DL_test	13	DL_test	20			0		pa	1	1593	6	1	antiphase_hc_iso.wav	2	6	1	noise_calib_stim_LEFT.wav	1	23	blb_dichoticlistening_ka-pa.mp3	ka	pa	1	right
6.6.1	win	2023-07-10	12:23:07	0	0	6329f8bd8622aaba8e13a6d7	2	1	DL_test	13	DL_test	21			0		ta	1	993	6	1	antiphase_hc_iso.wav	2	6	1	noise_calib_stim_LEFT.wav	1	36	blb_dichoticlistening_ta-ta.mp3	ta	ta	0	left
6.6.1	win	2023-07-10	12:23:07	0	0	6329f8bd8622aaba8e13a6d7	2	1	DL_test	13	DL_test	22			0		da	1	932	6	1	antiphase_hc_iso.wav	2	6	1	noise_calib_stim_LEFT.wav	1	32	blb_dichoticlistening_ta-da.mp3	ta	da	1	right
6.6.1	win	2023-07-10	12:23:07	0	0	6329f8bd8622aaba8e13a6d7	2	1	DL_test	13	DL_test	23			0		ba	1	1447	6	1	antiphase_hc_iso.wav	2	6	1	noise_calib_stim_LEFT.wav	1	25	blb_dichoticlistening_pa-ba.mp3	pa	ba	1	right
6.6.1	win	2023-07-10	12:23:07	0	0	6329f8bd8622aaba8e13a6d7	2	1	DL_test	13	DL_test	24			0		da	1	984	6	1	antiphase_hc_iso.wav	2	6	1	noise_calib_stim_LEFT.wav	1	2	blb_dichoticlistening_ba-da.mp3	ba	da	1	right
6.6.1	win	2023-07-10	12:23:07	0	0	6329f8bd8622aaba8e13a6d7	2	1	DL_test	13	DL_test	25			0		ga	1	791	6	1	antiphase_hc_iso.wav	2	6	1	noise_calib_stim_LEFT.wav	1	33	blb_dichoticlistening_ta-ga.mp3	ta	ga	1	right
6.6.1	win	2023-07-10	12:23:07	0	0	6329f8bd8622aaba8e13a6d7	2	1	DL_test	13	DL_test	26			0		ga	1	1033	6	1	antiphase_hc_iso.wav	2	6	1	noise_calib_stim_LEFT.wav	1	3	blb_dichoticlistening_ba-ga.mp3	ba	ga	1	right
6.6.1	win	2023-07-10	12:23:07	0	0	6329f8bd8622aaba8e13a6d7	2	1	DL_test	13	DL_test	27			0		pa	1	971	6	1	antiphase_hc_iso.wav	2	6	1	noise_calib_stim_LEFT.wav	1	35	blb_dichoticlistening_ta-pa.mp3	ta	pa	1	right
6.6.1	win	2023-07-10	12:23:07	0	0	6329f8bd8622aaba8e13a6d7	2	1	DL_test	13	DL_test	28			0		pa	1	822	6	1	antiphase_hc_iso.wav	2	6	1	noise_calib_stim_LEFT.wav	1	5	blb_dichoticlistening_ba-pa.mp3	ba	pa	1	right
6.6.1	win	2023-07-10	12:23:07	0	0	6329f8bd8622aaba8e13a6d7	2	1	DL_test	13	DL_test	29			0		ga	1	827	6	1	antiphase_hc_iso.wav	2	6	1	noise_calib_stim_LEFT.wav	1	9	blb_dichoticlistening_da-ga.mp3	da	ga	1	right
6.6.1	win	2023-07-10	12:23:07	0	0	6329f8bd8622aaba8e13a6d7	2	1	DL_test	13	DL_test	30			0		da	0	1349	6	1	antiphase_hc_iso.wav	2	6	1	noise_calib_stim_LEFT.wav	1	31	blb_dichoticlistening_ta-ba.mp3	ta	ba	1	other
6.6.1	win	2023-07-10	12:23:07	0	0	6329f8bd8622aaba8e13a6d7	2	1	DL_test	13	DL_test	31			0		ga	1	860	6	1	antiphase_hc_iso.wav	2	6	1	noise_calib_stim_LEFT.wav	1	21	blb_dichoticlistening_ka-ga.mp3	ka	ga	1	right
6.6.1	win	2023-07-10	12:23:07	0	0	6329f8bd8622aaba8e13a6d7	2	1	DL_test	13	DL_test	32			0		ka	0	1705	6	1	antiphase_hc_iso.wav	2	6	1	noise_calib_stim_LEFT.wav	1	18	blb_dichoticlistening_ga-ta.mp3	ga	ta	1	other
6.6.1	win	2023-07-10	12:23:07	0	0	6329f8bd8622aaba8e13a6d7	2	1	DL_test	13	DL_test	33			0		ba	1	1557	6	1	antiphase_hc_iso.wav	2	6	1	noise_calib_stim_LEFT.wav	1	19	blb_dichoticlistening_ka-ba.mp3	ka	ba	1	right
6.6.1	win	2023-07-10	12:23:07	0	0	6329f8bd8622aaba8e13a6d7	2	1	DL_test	13	DL_test	34			0		ka	1	1027	6	1	antiphase_hc_iso.wav	2	6	1	noise_calib_stim_LEFT.wav	1	28	blb_dichoticlistening_pa-ka.mp3	pa	ka	1	right
6.6.1	win	2023-07-10	12:23:07	0	0	6329f8bd8622aaba8e13a6d7	2	1	DL_test	13	DL_test	35			0		pa	1	1042	6	1	antiphase_hc_iso.wav	2	6	1	noise_calib_stim_LEFT.wav	1	11	blb_dichoticlistening_da-pa.mp3	da	pa	1	right
6.6.1	win	2023-07-10	12:23:07	0	0	6329f8bd8622aaba8e13a6d7	2	1	DL_test	13	DL_test	36			0		ka	1	855	6	1	antiphase_hc_iso.wav	2	6	1	noise_calib_stim_LEFT.wav	1	4	blb_dichoticlistening_ba-ka.mp3	ba	ka	1	right
6.6.1	win	2023-07-10	12:23:07	0	0	6329f8bd8622aaba8e13a6d7	2	1	DL_test	14	DL_test	1			0		ba	1	970	6	1	antiphase_hc_iso.wav	2	6	1	noise_calib_stim_LEFT.wav	1	1	blb_dichoticlistening_ba-ba.mp3	ba	ba	0	left
6.6.1	win	2023-07-10	12:23:07	0	0	6329f8bd8622aaba8e13a6d7	2	1	DL_test	14	DL_test	2			0		ka	1	1009	6	1	antiphase_hc_iso.wav	2	6	1	noise_calib_stim_LEFT.wav	1	4	blb_dichoticlistening_ba-ka.mp3	ba	ka	1	right
6.6.1	win	2023-07-10	12:23:07	0	0	6329f8bd8622aaba8e13a6d7	2	1	DL_test	14	DL_test	3			0		da	1	729	6	1	antiphase_hc_iso.wav	2	6	1	noise_calib_stim_LEFT.wav	1	8	blb_dichoticlistening_da-da.mp3	da	da	0	left
6.6.1	win	2023-07-10	12:23:07	0	0	6329f8bd8622aaba8e13a6d7	2	1	DL_test	14	DL_test	4			0		ka	1	838	6	1	antiphase_hc_iso.wav	2	6	1	noise_calib_stim_LEFT.wav	1	24	blb_dichoticlistening_ka-ta.mp3	ka	ta	1	left
6.6.1	win	2023-07-10	12:23:07	0	0	6329f8bd8622aaba8e13a6d7	2	1	DL_test	14	DL_test	5			0		pa	1	1016	6	1	antiphase_hc_iso.wav	2	6	1	noise_calib_stim_LEFT.wav	1	11	blb_dichoticlistening_da-pa.mp3	da	pa	1	right
6.6.1	win	2023-07-10	12:23:07	0	0	6329f8bd8622aaba8e13a6d7	2	1	DL_test	14	DL_test	6			0		ga	1	1001	6	1	antiphase_hc_iso.wav	2	6	1	noise_calib_stim_LEFT.wav	1	33	blb_dichoticlistening_ta-ga.mp3	ta	ga	1	right
6.6.1	win	2023-07-10	12:23:07	0	0	6329f8bd8622aaba8e13a6d7	2	1	DL_test	14	DL_test	7			0		da	1	910	6	1	antiphase_hc_iso.wav	2	6	1	noise_calib_stim_LEFT.wav	1	32	blb_dichoticlistening_ta-da.mp3	ta	da	1	right
6.6.1	win	2023-07-10	12:23:07	0	0	6329f8bd8622aaba8e13a6d7	2	1	DL_test	14	DL_test	8			0		ba	1	1026	6	1	antiphase_hc_iso.wav	2	6	1	noise_calib_stim_LEFT.wav	1	31	blb_dichoticlistening_ta-ba.mp3	ta	ba	1	right
6.6.1	win	2023-07-10	12:23:07	0	0	6329f8bd8622aaba8e13a6d7	2	1	DL_test	14	DL_test	9			0		ta	1	1198	6	1	antiphase_hc_iso.wav	2	6	1	noise_calib_stim_LEFT.wav	1	12	blb_dichoticlistening_da-ta.mp3	da	ta	1	right
6.6.1	win	2023-07-10	12:23:07	0	0	6329f8bd8622aaba8e13a6d7	2	1	DL_test	14	DL_test	10			0		ga	1	911	6	1	antiphase_hc_iso.wav	2	6	1	noise_calib_stim_LEFT.wav	1	3	blb_dichoticlistening_ba-ga.mp3	ba	ga	1	right
6.6.1	win	2023-07-10	12:23:07	0	0	6329f8bd8622aaba8e13a6d7	2	1	DL_test	14	DL_test	11			0		pa	1	993	6	1	antiphase_hc_iso.wav	2	6	1	noise_calib_stim_LEFT.wav	1	29	blb_dichoticlistening_pa-pa.mp3	pa	pa	0	left
6.6.1	win	2023-07-10	12:23:07	0	0	6329f8bd8622aaba8e13a6d7	2	1	DL_test	14	DL_test	12			0		pa	1	819	6	1	antiphase_hc_iso.wav	2	6	1	noise_calib_stim_LEFT.wav	1	5	blb_dichoticlistening_ba-pa.mp3	ba	pa	1	right
6.6.1	win	2023-07-10	12:23:07	0	0	6329f8bd8622aaba8e13a6d7	2	1	DL_test	14	DL_test	13			0		ka	1	838	6	1	antiphase_hc_iso.wav	2	6	1	noise_calib_stim_LEFT.wav	1	34	blb_dichoticlistening_ta-ka.mp3	ta	ka	1	right
6.6.1	win	2023-07-10	12:23:07	0	0	6329f8bd8622aaba8e13a6d7	2	1	DL_test	14	DL_test	14			0		ka	0	1388	6	1	antiphase_hc_iso.wav	2	6	1	noise_calib_stim_LEFT.wav	1	17	blb_dichoticlistening_ga-pa.mp3	ga	pa	1	other
6.6.1	win	2023-07-10	12:23:07	0	0	6329f8bd8622aaba8e13a6d7	2	1	DL_test	14	DL_test	15			0		ta	1	1116	6	1	antiphase_hc_iso.wav	2	6	1	noise_calib_stim_LEFT.wav	1	6	blb_dichoticlistening_ba-ta.mp3	ba	ta	1	right
6.6.1	win	2023-07-10	12:23:07	0	0	6329f8bd8622aaba8e13a6d7	2	1	DL_test	14	DL_test	16			0		pa	1	890	6	1	antiphase_hc_iso.wav	2	6	1	noise_calib_stim_LEFT.wav	1	35	blb_dichoticlistening_ta-pa.mp3	ta	pa	1	right
6.6.1	win	2023-07-10	12:23:07	0	0	6329f8bd8622aaba8e13a6d7	2	1	DL_test	14	DL_test	17			0		da	1	1105	6	1	antiphase_hc_iso.wav	2	6	1	noise_calib_stim_LEFT.wav	1	26	blb_dichoticlistening_pa-da.mp3	pa	da	1	right
6.6.1	win	2023-07-10	12:23:07	0	0	6329f8bd8622aaba8e13a6d7	2	1	DL_test	14	DL_test	18			0		ga	1	732	6	1	antiphase_hc_iso.wav	2	6	1	noise_calib_stim_LEFT.wav	1	15	blb_dichoticlistening_ga-ga.mp3	ga	ga	0	left
6.6.1	win	2023-07-10	12:23:07	0	0	6329f8bd8622aaba8e13a6d7	2	1	DL_test	14	DL_test	19			0		da	1	932	6	1	antiphase_hc_iso.wav	2	6	1	noise_calib_stim_LEFT.wav	1	2	blb_dichoticlistening_ba-da.mp3	ba	da	1	right
6.6.1	win	2023-07-10	12:23:07	0	0	6329f8bd8622aaba8e13a6d7	2	1	DL_test	14	DL_test	20			0		ka	1	893	6	1	antiphase_hc_iso.wav	2	6	1	noise_calib_stim_LEFT.wav	1	23	blb_dichoticlistening_ka-pa.mp3	ka	pa	1	left
6.6.1	win	2023-07-10	12:23:07	0	0	6329f8bd8622aaba8e13a6d7	2	1	DL_test	14	DL_test	21			0		ta	1	1476	6	1	antiphase_hc_iso.wav	2	6	1	noise_calib_stim_LEFT.wav	1	18	blb_dichoticlistening_ga-ta.mp3	ga	ta	1	right
6.6.1	win	2023-07-10	12:23:07	0	0	6329f8bd8622aaba8e13a6d7	2	1	DL_test	14	DL_test	22			0		pa	0	1038	6	1	antiphase_hc_iso.wav	2	6	1	noise_calib_stim_LEFT.wav	1	10	blb_dichoticlistening_da-ka.mp3	da	ka	1	other
6.6.1	win	2023-07-10	12:23:07	0	0	6329f8bd8622aaba8e13a6d7	2	1	DL_test	14	DL_test	23			0		ka	1	894	6	1	antiphase_hc_iso.wav	2	6	1	noise_calib_stim_LEFT.wav	1	16	blb_dichoticlistening_ga-ka.mp3	ga	ka	1	right
6.6.1	win	2023-07-10	12:23:07	0	0	6329f8bd8622aaba8e13a6d7	2	1	DL_test	14	DL_test	24			0		ka	1	793	6	1	antiphase_hc_iso.wav	2	6	1	noise_calib_stim_LEFT.wav	1	22	blb_dichoticlistening_ka-ka.mp3	ka	ka	0	left
6.6.1	win	2023-07-10	12:23:07	0	0	6329f8bd8622aaba8e13a6d7	2	1	DL_test	14	DL_test	25			0		da	1	912	6	1	antiphase_hc_iso.wav	2	6	1	noise_calib_stim_LEFT.wav	1	14	blb_dichoticlistening_ga-da.mp3	ga	da	1	right
6.6.1	win	2023-07-10	12:23:07	0	0	6329f8bd8622aaba8e13a6d7	2	1	DL_test	14	DL_test	26			0		ba	1	864	6	1	antiphase_hc_iso.wav	2	6	1	noise_calib_stim_LEFT.wav	1	7	blb_dichoticlistening_da-ba.mp3	da	ba	1	right
6.6.1	win	2023-07-10	12:23:07	0	0	6329f8bd8622aaba8e13a6d7	2	1	DL_test	14	DL_test	27			0		ba	1	1054	6	1	antiphase_hc_iso.wav	2	6	1	noise_calib_stim_LEFT.wav	1	13	blb_dichoticlistening_ga-ba.mp3	ga	ba	1	right
6.6.1	win	2023-07-10	12:23:07	0	0	6329f8bd8622aaba8e13a6d7	2	1	DL_test	14	DL_test	28			0		ba	1	1062	6	1	antiphase_hc_iso.wav	2	6	1	noise_calib_stim_LEFT.wav	1	19	blb_dichoticlistening_ka-ba.mp3	ka	ba	1	right
6.6.1	win	2023-07-10	12:23:07	0	0	6329f8bd8622aaba8e13a6d7	2	1	DL_test	14	DL_test	29			0		ga	0	962	6	1	antiphase_hc_iso.wav	2	6	1	noise_calib_stim_LEFT.wav	1	20	blb_dichoticlistening_ka-da.mp3	ka	da	1	other
6.6.1	win	2023-07-10	12:23:07	0	0	6329f8bd8622aaba8e13a6d7	2	1	DL_test	14	DL_test	30			0		ka	1	684	6	1	antiphase_hc_iso.wav	2	6	1	noise_calib_stim_LEFT.wav	1	28	blb_dichoticlistening_pa-ka.mp3	pa	ka	1	right
6.6.1	win	2023-07-10	12:23:07	0	0	6329f8bd8622aaba8e13a6d7	2	1	DL_test	14	DL_test	31			0		ta	1	1314	6	1	antiphase_hc_iso.wav	2	6	1	noise_calib_stim_LEFT.wav	1	36	blb_dichoticlistening_ta-ta.mp3	ta	ta	0	left
6.6.1	win	2023-07-10	12:23:07	0	0	6329f8bd8622aaba8e13a6d7	2	1	DL_test	14	DL_test	32			0		ga	1	784	6	1	antiphase_hc_iso.wav	2	6	1	noise_calib_stim_LEFT.wav	1	27	blb_dichoticlistening_pa-ga.mp3	pa	ga	1	right
6.6.1	win	2023-07-10	12:23:07	0	0	6329f8bd8622aaba8e13a6d7	2	1	DL_test	14	DL_test	33			0		ga	1	722	6	1	antiphase_hc_iso.wav	2	6	1	noise_calib_stim_LEFT.wav	1	21	blb_dichoticlistening_ka-ga.mp3	ka	ga	1	right
6.6.1	win	2023-07-10	12:23:07	0	0	6329f8bd8622aaba8e13a6d7	2	1	DL_test	14	DL_test	34			0		ta	1	970	6	1	antiphase_hc_iso.wav	2	6	1	noise_calib_stim_LEFT.wav	1	30	blb_dichoticlistening_pa-ta.mp3	pa	ta	1	right
6.6.1	win	2023-07-10	12:23:07	0	0	6329f8bd8622aaba8e13a6d7	2	1	DL_test	14	DL_test	35			0		ga	1	681	6	1	antiphase_hc_iso.wav	2	6	1	noise_calib_stim_LEFT.wav	1	9	blb_dichoticlistening_da-ga.mp3	da	ga	1	right
6.6.1	win	2023-07-10	12:23:07	0	0	6329f8bd8622aaba8e13a6d7	2	1	DL_test	14	DL_test	36			0		ba	1	1696	6	1	antiphase_hc_iso.wav	2	6	1	noise_calib_stim_LEFT.wav	1	25	blb_dichoticlistening_pa-ba.mp3	pa	ba	1	right
6.6.1	win	2023-07-10	12:23:07	0	0	6329f8bd8622aaba8e13a6d7	2	1	DL_test	15	DL_test	1			0		ba	1	1021	6	1	antiphase_hc_iso.wav	2	6	1	noise_calib_stim_LEFT.wav	1	19	blb_dichoticlistening_ka-ba.mp3	ka	ba	1	right
6.6.1	win	2023-07-10	12:23:07	0	0	6329f8bd8622aaba8e13a6d7	2	1	DL_test	15	DL_test	2			0		ga	1	755	6	1	antiphase_hc_iso.wav	2	6	1	noise_calib_stim_LEFT.wav	1	9	blb_dichoticlistening_da-ga.mp3	da	ga	1	right
6.6.1	win	2023-07-10	12:23:07	0	0	6329f8bd8622aaba8e13a6d7	2	1	DL_test	15	DL_test	3			0		ka	1	719	6	1	antiphase_hc_iso.wav	2	6	1	noise_calib_stim_LEFT.wav	1	24	blb_dichoticlistening_ka-ta.mp3	ka	ta	1	left
6.6.1	win	2023-07-10	12:23:07	0	0	6329f8bd8622aaba8e13a6d7	2	1	DL_test	15	DL_test	4			0		ka	1	669	6	1	antiphase_hc_iso.wav	2	6	1	noise_calib_stim_LEFT.wav	1	28	blb_dichoticlistening_pa-ka.mp3	pa	ka	1	right
6.6.1	win	2023-07-10	12:23:07	0	0	6329f8bd8622aaba8e13a6d7	2	1	DL_test	15	DL_test	5			0		ga	1	1050	6	1	antiphase_hc_iso.wav	2	6	1	noise_calib_stim_LEFT.wav	1	27	blb_dichoticlistening_pa-ga.mp3	pa	ga	1	right
6.6.1	win	2023-07-10	12:23:07	0	0	6329f8bd8622aaba8e13a6d7	2	1	DL_test	15	DL_test	6			0		ba	1	948	6	1	antiphase_hc_iso.wav	2	6	1	noise_calib_stim_LEFT.wav	1	7	blb_dichoticlistening_da-ba.mp3	da	ba	1	right
6.6.1	win	2023-07-10	12:23:07	0	0	6329f8bd8622aaba8e13a6d7	2	1	DL_test	15	DL_test	7			0		da	1	1047	6	1	antiphase_hc_iso.wav	2	6	1	noise_calib_stim_LEFT.wav	1	32	blb_dichoticlistening_ta-da.mp3	ta	da	1	right
6.6.1	win	2023-07-10	12:23:07	0	0	6329f8bd8622aaba8e13a6d7	2	1	DL_test	15	DL_test	8			0		ta	1	1507	6	1	antiphase_hc_iso.wav	2	6	1	noise_calib_stim_LEFT.wav	1	12	blb_dichoticlistening_da-ta.mp3	da	ta	1	right
6.6.1	win	2023-07-10	12:23:07	0	0	6329f8bd8622aaba8e13a6d7	2	1	DL_test	15	DL_test	9			0		pa	1	1182	6	1	antiphase_hc_iso.wav	2	6	1	noise_calib_stim_LEFT.wav	1	23	blb_dichoticlistening_ka-pa.mp3	ka	pa	1	right
6.6.1	win	2023-07-10	12:23:07	0	0	6329f8bd8622aaba8e13a6d7	2	1	DL_test	15	DL_test	10			0		ga	1	774	6	1	antiphase_hc_iso.wav	2	6	1	noise_calib_stim_LEFT.wav	1	14	blb_dichoticlistening_ga-da.mp3	ga	da	1	left
6.6.1	win	2023-07-10	12:23:07	0	0	6329f8bd8622aaba8e13a6d7	2	1	DL_test	15	DL_test	11			0		pa	0	1220	6	1	antiphase_hc_iso.wav	2	6	1	noise_calib_stim_LEFT.wav	1	10	blb_dichoticlistening_da-ka.mp3	da	ka	1	other
6.6.1	win	2023-07-10	12:23:07	0	0	6329f8bd8622aaba8e13a6d7	2	1	DL_test	15	DL_test	12			0		da	1	1122	6	1	antiphase_hc_iso.wav	2	6	1	noise_calib_stim_LEFT.wav	1	2	blb_dichoticlistening_ba-da.mp3	ba	da	1	right
6.6.1	win	2023-07-10	12:23:07	0	0	6329f8bd8622aaba8e13a6d7	2	1	DL_test	15	DL_test	13			0		pa	1	820	6	1	antiphase_hc_iso.wav	2	6	1	noise_calib_stim_LEFT.wav	1	29	blb_dichoticlistening_pa-pa.mp3	pa	pa	0	left
6.6.1	win	2023-07-10	12:23:07	0	0	6329f8bd8622aaba8e13a6d7	2	1	DL_test	15	DL_test	14			0		pa	1	829	6	1	antiphase_hc_iso.wav	2	6	1	noise_calib_stim_LEFT.wav	1	11	blb_dichoticlistening_da-pa.mp3	da	pa	1	right
6.6.1	win	2023-07-10	12:23:07	0	0	6329f8bd8622aaba8e13a6d7	2	1	DL_test	15	DL_test	15			0		pa	1	693	6	1	antiphase_hc_iso.wav	2	6	1	noise_calib_stim_LEFT.wav	1	5	blb_dichoticlistening_ba-pa.mp3	ba	pa	1	right
6.6.1	win	2023-07-10	12:23:07	0	0	6329f8bd8622aaba8e13a6d7	2	1	DL_test	15	DL_test	16			0		pa	1	888	6	1	antiphase_hc_iso.wav	2	6	1	noise_calib_stim_LEFT.wav	1	17	blb_dichoticlistening_ga-pa.mp3	ga	pa	1	right
6.6.1	win	2023-07-10	12:23:07	0	0	6329f8bd8622aaba8e13a6d7	2	1	DL_test	15	DL_test	17			0		da	1	893	6	1	antiphase_hc_iso.wav	2	6	1	noise_calib_stim_LEFT.wav	1	8	blb_dichoticlistening_da-da.mp3	da	da	0	left
6.6.1	win	2023-07-10	12:23:07	0	0	6329f8bd8622aaba8e13a6d7	2	1	DL_test	15	DL_test	18			0		ga	0	846	6	1	antiphase_hc_iso.wav	2	6	1	noise_calib_stim_LEFT.wav	1	20	blb_dichoticlistening_ka-da.mp3	ka	da	1	other
6.6.1	win	2023-07-10	12:23:07	0	0	6329f8bd8622aaba8e13a6d7	2	1	DL_test	15	DL_test	19			0		ba	1	1078	6	1	antiphase_hc_iso.wav	2	6	1	noise_calib_stim_LEFT.wav	1	1	blb_dichoticlistening_ba-ba.mp3	ba	ba	0	left
6.6.1	win	2023-07-10	12:23:07	0	0	6329f8bd8622aaba8e13a6d7	2	1	DL_test	15	DL_test	20			0		ga	1	928	6	1	antiphase_hc_iso.wav	2	6	1	noise_calib_stim_LEFT.wav	1	3	blb_dichoticlistening_ba-ga.mp3	ba	ga	1	right
6.6.1	win	2023-07-10	12:23:07	0	0	6329f8bd8622aaba8e13a6d7	2	1	DL_test	15	DL_test	21			0		ga	1	842	6	1	antiphase_hc_iso.wav	2	6	1	noise_calib_stim_LEFT.wav	1	15	blb_dichoticlistening_ga-ga.mp3	ga	ga	0	left
6.6.1	win	2023-07-10	12:23:07	0	0	6329f8bd8622aaba8e13a6d7	2	1	DL_test	15	DL_test	22			0		ka	0	867	6	1	antiphase_hc_iso.wav	2	6	1	noise_calib_stim_LEFT.wav	1	6	blb_dichoticlistening_ba-ta.mp3	ba	ta	1	other
6.6.1	win	2023-07-10	12:23:07	0	0	6329f8bd8622aaba8e13a6d7	2	1	DL_test	15	DL_test	23			0		ba	1	1078	6	1	antiphase_hc_iso.wav	2	6	1	noise_calib_stim_LEFT.wav	1	13	blb_dichoticlistening_ga-ba.mp3	ga	ba	1	right
6.6.1	win	2023-07-10	12:23:07	0	0	6329f8bd8622aaba8e13a6d7	2	1	DL_test	15	DL_test	24			0		ka	1	1004	6	1	antiphase_hc_iso.wav	2	6	1	noise_calib_stim_LEFT.wav	1	22	blb_dichoticlistening_ka-ka.mp3	ka	ka	0	left
6.6.1	win	2023-07-10	12:23:07	0	0	6329f8bd8622aaba8e13a6d7	2	1	DL_test	15	DL_test	25			0		ka	1	805	6	1	antiphase_hc_iso.wav	2	6	1	noise_calib_stim_LEFT.wav	1	16	blb_dichoticlistening_ga-ka.mp3	ga	ka	1	right
6.6.1	win	2023-07-10	12:23:07	0	0	6329f8bd8622aaba8e13a6d7	2	1	DL_test	15	DL_test	26			0		ga	1	746	6	1	antiphase_hc_iso.wav	2	6	1	noise_calib_stim_LEFT.wav	1	21	blb_dichoticlistening_ka-ga.mp3	ka	ga	1	right
6.6.1	win	2023-07-10	12:23:07	0	0	6329f8bd8622aaba8e13a6d7	2	1	DL_test	15	DL_test	27			0		ga	1	700	6	1	antiphase_hc_iso.wav	2	6	1	noise_calib_stim_LEFT.wav	1	33	blb_dichoticlistening_ta-ga.mp3	ta	ga	1	right
6.6.1	win	2023-07-10	12:23:07	0	0	6329f8bd8622aaba8e13a6d7	2	1	DL_test	15	DL_test	28			0		ba	1	1065	6	1	antiphase_hc_iso.wav	2	6	1	noise_calib_stim_LEFT.wav	1	25	blb_dichoticlistening_pa-ba.mp3	pa	ba	1	right
6.6.1	win	2023-07-10	12:23:07	0	0	6329f8bd8622aaba8e13a6d7	2	1	DL_test	15	DL_test	29			0		ka	1	890	6	1	antiphase_hc_iso.wav	2	6	1	noise_calib_stim_LEFT.wav	1	34	blb_dichoticlistening_ta-ka.mp3	ta	ka	1	right
6.6.1	win	2023-07-10	12:23:07	0	0	6329f8bd8622aaba8e13a6d7	2	1	DL_test	15	DL_test	30			0		ba	1	1199	6	1	antiphase_hc_iso.wav	2	6	1	noise_calib_stim_LEFT.wav	1	31	blb_dichoticlistening_ta-ba.mp3	ta	ba	1	right
6.6.1	win	2023-07-10	12:23:07	0	0	6329f8bd8622aaba8e13a6d7	2	1	DL_test	15	DL_test	31			0		pa	1	1053	6	1	antiphase_hc_iso.wav	2	6	1	noise_calib_stim_LEFT.wav	1	35	blb_dichoticlistening_ta-pa.mp3	ta	pa	1	right
6.6.1	win	2023-07-10	12:23:07	0	0	6329f8bd8622aaba8e13a6d7	2	1	DL_test	15	DL_test	32			0		ta	1	1314	6	1	antiphase_hc_iso.wav	2	6	1	noise_calib_stim_LEFT.wav	1	30	blb_dichoticlistening_pa-ta.mp3	pa	ta	1	right
6.6.1	win	2023-07-10	12:23:07	0	0	6329f8bd8622aaba8e13a6d7	2	1	DL_test	15	DL_test	33			0		da	1	1077	6	1	antiphase_hc_iso.wav	2	6	1	noise_calib_stim_LEFT.wav	1	26	blb_dichoticlistening_pa-da.mp3	pa	da	1	right
6.6.1	win	2023-07-10	12:23:07	0	0	6329f8bd8622aaba8e13a6d7	2	1	DL_test	15	DL_test	34			0		ka	0	1182	6	1	antiphase_hc_iso.wav	2	6	1	noise_calib_stim_LEFT.wav	1	18	blb_dichoticlistening_ga-ta.mp3	ga	ta	1	other
6.6.1	win	2023-07-10	12:23:07	0	0	6329f8bd8622aaba8e13a6d7	2	1	DL_test	15	DL_test	35			0		ka	1	859	6	1	antiphase_hc_iso.wav	2	6	1	noise_calib_stim_LEFT.wav	1	4	blb_dichoticlistening_ba-ka.mp3	ba	ka	1	right
6.6.1	win	2023-07-10	12:23:07	0	0	6329f8bd8622aaba8e13a6d7	2	1	DL_test	15	DL_test	36			0		ta	1	1152	6	1	antiphase_hc_iso.wav	2	6	1	noise_calib_stim_LEFT.wav	1	36	blb_dichoticlistening_ta-ta.mp3	ta	ta	0	left
6.6.1	win	2023-07-10	12:23:07	0	0	6329f8bd8622aaba8e13a6d7	2	1	DL_test	16	DL_test	1			0		ka	1	762	6	1	antiphase_hc_iso.wav	2	6	1	noise_calib_stim_LEFT.wav	1	4	blb_dichoticlistening_ba-ka.mp3	ba	ka	1	right
6.6.1	win	2023-07-10	12:23:07	0	0	6329f8bd8622aaba8e13a6d7	2	1	DL_test	16	DL_test	2			0		ka	1	582	6	1	antiphase_hc_iso.wav	2	6	1	noise_calib_stim_LEFT.wav	1	24	blb_dichoticlistening_ka-ta.mp3	ka	ta	1	left
6.6.1	win	2023-07-10	12:23:07	0	0	6329f8bd8622aaba8e13a6d7	2	1	DL_test	16	DL_test	3			0		pa	1	1074	6	1	antiphase_hc_iso.wav	2	6	1	noise_calib_stim_LEFT.wav	1	11	blb_dichoticlistening_da-pa.mp3	da	pa	1	right
6.6.1	win	2023-07-10	12:23:07	0	0	6329f8bd8622aaba8e13a6d7	2	1	DL_test	16	DL_test	4			0		pa	1	777	6	1	antiphase_hc_iso.wav	2	6	1	noise_calib_stim_LEFT.wav	1	35	blb_dichoticlistening_ta-pa.mp3	ta	pa	1	right
6.6.1	win	2023-07-10	12:23:07	0	0	6329f8bd8622aaba8e13a6d7	2	1	DL_test	16	DL_test	5			0		da	1	1086	6	1	antiphase_hc_iso.wav	2	6	1	noise_calib_stim_LEFT.wav	1	8	blb_dichoticlistening_da-da.mp3	da	da	0	left
6.6.1	win	2023-07-10	12:23:07	0	0	6329f8bd8622aaba8e13a6d7	2	1	DL_test	16	DL_test	6			0		ka	1	796	6	1	antiphase_hc_iso.wav	2	6	1	noise_calib_stim_LEFT.wav	1	34	blb_dichoticlistening_ta-ka.mp3	ta	ka	1	right
6.6.1	win	2023-07-10	12:23:07	0	0	6329f8bd8622aaba8e13a6d7	2	1	DL_test	16	DL_test	7			0		ga	0	934	6	1	antiphase_hc_iso.wav	2	6	1	noise_calib_stim_LEFT.wav	1	32	blb_dichoticlistening_ta-da.mp3	ta	da	1	other
6.6.1	win	2023-07-10	12:23:07	0	0	6329f8bd8622aaba8e13a6d7	2	1	DL_test	16	DL_test	8			0		pa	1	888	6	1	antiphase_hc_iso.wav	2	6	1	noise_calib_stim_LEFT.wav	1	17	blb_dichoticlistening_ga-pa.mp3	ga	pa	1	right
6.6.1	win	2023-07-10	12:23:07	0	0	6329f8bd8622aaba8e13a6d7	2	1	DL_test	16	DL_test	9			0		ka	1	904	6	1	antiphase_hc_iso.wav	2	6	1	noise_calib_stim_LEFT.wav	1	16	blb_dichoticlistening_ga-ka.mp3	ga	ka	1	right
6.6.1	win	2023-07-10	12:23:07	0	0	6329f8bd8622aaba8e13a6d7	2	1	DL_test	16	DL_test	10			0		ka	0	662	6	1	antiphase_hc_iso.wav	2	6	1	noise_calib_stim_LEFT.wav	1	18	blb_dichoticlistening_ga-ta.mp3	ga	ta	1	other
6.6.1	win	2023-07-10	12:23:07	0	0	6329f8bd8622aaba8e13a6d7	2	1	DL_test	16	DL_test	11			0		ba	1	1235	6	1	antiphase_hc_iso.wav	2	6	1	noise_calib_stim_LEFT.wav	1	19	blb_dichoticlistening_ka-ba.mp3	ka	ba	1	right
6.6.1	win	2023-07-10	12:23:07	0	0	6329f8bd8622aaba8e13a6d7	2	1	DL_test	16	DL_test	12			0		ta	1	1361	6	1	antiphase_hc_iso.wav	2	6	1	noise_calib_stim_LEFT.wav	1	12	blb_dichoticlistening_da-ta.mp3	da	ta	1	right
6.6.1	win	2023-07-10	12:23:07	0	0	6329f8bd8622aaba8e13a6d7	2	1	DL_test	16	DL_test	13			0		ba	1	1245	6	1	antiphase_hc_iso.wav	2	6	1	noise_calib_stim_LEFT.wav	1	31	blb_dichoticlistening_ta-ba.mp3	ta	ba	1	right
6.6.1	win	2023-07-10	12:23:07	0	0	6329f8bd8622aaba8e13a6d7	2	1	DL_test	16	DL_test	14			0		da	1	814	6	1	antiphase_hc_iso.wav	2	6	1	noise_calib_stim_LEFT.wav	1	2	blb_dichoticlistening_ba-da.mp3	ba	da	1	right
6.6.1	win	2023-07-10	12:23:07	0	0	6329f8bd8622aaba8e13a6d7	2	1	DL_test	16	DL_test	15			0		ga	1	696	6	1	antiphase_hc_iso.wav	2	6	1	noise_calib_stim_LEFT.wav	1	15	blb_dichoticlistening_ga-ga.mp3	ga	ga	0	left
6.6.1	win	2023-07-10	12:23:07	0	0	6329f8bd8622aaba8e13a6d7	2	1	DL_test	16	DL_test	16			0		ta	1	1128	6	1	antiphase_hc_iso.wav	2	6	1	noise_calib_stim_LEFT.wav	1	30	blb_dichoticlistening_pa-ta.mp3	pa	ta	1	right
6.6.1	win	2023-07-10	12:23:07	0	0	6329f8bd8622aaba8e13a6d7	2	1	DL_test	16	DL_test	17			0		ta	1	817	6	1	antiphase_hc_iso.wav	2	6	1	noise_calib_stim_LEFT.wav	1	6	blb_dichoticlistening_ba-ta.mp3	ba	ta	1	right
6.6.1	win	2023-07-10	12:23:07	0	0	6329f8bd8622aaba8e13a6d7	2	1	DL_test	16	DL_test	18			0		pa	1	962	6	1	antiphase_hc_iso.wav	2	6	1	noise_calib_stim_LEFT.wav	1	5	blb_dichoticlistening_ba-pa.mp3	ba	pa	1	right
6.6.1	win	2023-07-10	12:23:07	0	0	6329f8bd8622aaba8e13a6d7	2	1	DL_test	16	DL_test	19			0		ba	1	1076	6	1	antiphase_hc_iso.wav	2	6	1	noise_calib_stim_LEFT.wav	1	1	blb_dichoticlistening_ba-ba.mp3	ba	ba	0	left
6.6.1	win	2023-07-10	12:23:07	0	0	6329f8bd8622aaba8e13a6d7	2	1	DL_test	16	DL_test	20			0		ba	1	931	6	1	antiphase_hc_iso.wav	2	6	1	noise_calib_stim_LEFT.wav	1	25	blb_dichoticlistening_pa-ba.mp3	pa	ba	1	right
6.6.1	win	2023-07-10	12:23:07	0	0	6329f8bd8622aaba8e13a6d7	2	1	DL_test	16	DL_test	21			0		ga	1	1111	6	1	antiphase_hc_iso.wav	2	6	1	noise_calib_stim_LEFT.wav	1	9	blb_dichoticlistening_da-ga.mp3	da	ga	1	right
6.6.1	win	2023-07-10	12:23:07	0	0	6329f8bd8622aaba8e13a6d7	2	1	DL_test	16	DL_test	22			0		da	1	979	6	1	antiphase_hc_iso.wav	2	6	1	noise_calib_stim_LEFT.wav	1	26	blb_dichoticlistening_pa-da.mp3	pa	da	1	right
6.6.1	win	2023-07-10	12:23:07	0	0	6329f8bd8622aaba8e13a6d7	2	1	DL_test	16	DL_test	23			0		ga	1	836	6	1	antiphase_hc_iso.wav	2	6	1	noise_calib_stim_LEFT.wav	1	33	blb_dichoticlistening_ta-ga.mp3	ta	ga	1	right
6.6.1	win	2023-07-10	12:23:07	0	0	6329f8bd8622aaba8e13a6d7	2	1	DL_test	16	DL_test	24			0		da	1	998	6	1	antiphase_hc_iso.wav	2	6	1	noise_calib_stim_LEFT.wav	1	14	blb_dichoticlistening_ga-da.mp3	ga	da	1	right
6.6.1	win	2023-07-10	12:23:07	0	0	6329f8bd8622aaba8e13a6d7	2	1	DL_test	16	DL_test	25			0		ka	1	861	6	1	antiphase_hc_iso.wav	2	6	1	noise_calib_stim_LEFT.wav	1	22	blb_dichoticlistening_ka-ka.mp3	ka	ka	0	left
6.6.1	win	2023-07-10	12:23:07	0	0	6329f8bd8622aaba8e13a6d7	2	1	DL_test	16	DL_test	26			0		ka	1	917	6	1	antiphase_hc_iso.wav	2	6	1	noise_calib_stim_LEFT.wav	1	28	blb_dichoticlistening_pa-ka.mp3	pa	ka	1	right
6.6.1	win	2023-07-10	12:23:07	0	0	6329f8bd8622aaba8e13a6d7	2	1	DL_test	16	DL_test	27			0		ga	1	821	6	1	antiphase_hc_iso.wav	2	6	1	noise_calib_stim_LEFT.wav	1	21	blb_dichoticlistening_ka-ga.mp3	ka	ga	1	right
6.6.1	win	2023-07-10	12:23:07	0	0	6329f8bd8622aaba8e13a6d7	2	1	DL_test	16	DL_test	28			0		ta	1	1040	6	1	antiphase_hc_iso.wav	2	6	1	noise_calib_stim_LEFT.wav	1	36	blb_dichoticlistening_ta-ta.mp3	ta	ta	0	left
6.6.1	win	2023-07-10	12:23:07	0	0	6329f8bd8622aaba8e13a6d7	2	1	DL_test	16	DL_test	29			0		da	0	992	6	1	antiphase_hc_iso.wav	2	6	1	noise_calib_stim_LEFT.wav	1	13	blb_dichoticlistening_ga-ba.mp3	ga	ba	1	other
6.6.1	win	2023-07-10	12:23:07	0	0	6329f8bd8622aaba8e13a6d7	2	1	DL_test	16	DL_test	30			0		pa	1	1255	6	1	antiphase_hc_iso.wav	2	6	1	noise_calib_stim_LEFT.wav	1	29	blb_dichoticlistening_pa-pa.mp3	pa	pa	0	left
6.6.1	win	2023-07-10	12:23:07	0	0	6329f8bd8622aaba8e13a6d7	2	1	DL_test	16	DL_test	31			0		da	1	931	6	1	antiphase_hc_iso.wav	2	6	1	noise_calib_stim_LEFT.wav	1	20	blb_dichoticlistening_ka-da.mp3	ka	da	1	right
6.6.1	win	2023-07-10	12:23:07	0	0	6329f8bd8622aaba8e13a6d7	2	1	DL_test	16	DL_test	32			0		ba	1	1079	6	1	antiphase_hc_iso.wav	2	6	1	noise_calib_stim_LEFT.wav	1	7	blb_dichoticlistening_da-ba.mp3	da	ba	1	right
6.6.1	win	2023-07-10	12:23:07	0	0	6329f8bd8622aaba8e13a6d7	2	1	DL_test	16	DL_test	33			0		ga	1	831	6	1	antiphase_hc_iso.wav	2	6	1	noise_calib_stim_LEFT.wav	1	3	blb_dichoticlistening_ba-ga.mp3	ba	ga	1	right
6.6.1	win	2023-07-10	12:23:07	0	0	6329f8bd8622aaba8e13a6d7	2	1	DL_test	16	DL_test	34			0		pa	0	1224	6	1	antiphase_hc_iso.wav	2	6	1	noise_calib_stim_LEFT.wav	1	10	blb_dichoticlistening_da-ka.mp3	da	ka	1	other
6.6.1	win	2023-07-10	12:23:07	0	0	6329f8bd8622aaba8e13a6d7	2	1	DL_test	16	DL_test	35			0		pa	1	919	6	1	antiphase_hc_iso.wav	2	6	1	noise_calib_stim_LEFT.wav	1	23	blb_dichoticlistening_ka-pa.mp3	ka	pa	1	right
6.6.1	win	2023-07-10	12:23:07	0	0	6329f8bd8622aaba8e13a6d7	2	1	DL_test	16	DL_test	36			0		ga	1	1168	6	1	antiphase_hc_iso.wav	2	6	1	noise_calib_stim_LEFT.wav	1	27	blb_dichoticlistening_pa-ga.mp3	pa	ga	1	right
6.6.1	win	2023-07-10	12:23:07	12:31:54	523425	6329f8bd8622aaba8e13a6d7	2	1	practice_z	22	practice_z	1	stimuli_distractor_diamondtriangles.svg	stimuli_target_trianglerectangles.svg	9	yes	44	1	772	6	1	antiphase_hc_iso.wav	2	6	1	noise_calib_stim_LEFT.wav	1	27	blb_dichoticlistening_pa-ga.mp3	pa	ga	1	right
6.6.1	win	2023-07-10	12:23:07	12:31:54	523425	6329f8bd8622aaba8e13a6d7	2	1	practice_z	22	advance_on_keypress_ZEE	2	stimuli_distractor_diamondtriangles.svg	stimuli_target_trianglerectangles.svg	9	yes	57	0	1429	6	1	antiphase_hc_iso.wav	2	6	1	noise_calib_stim_LEFT.wav	1	27	blb_dichoticlistening_pa-ga.mp3	pa	ga	1	right
6.6.1	win	2023-07-10	12:23:07	12:31:58	527219	6329f8bd8622aaba8e13a6d7	2	1	practice_z	22	practice_z	3	stimuli_distractor_trianglediamonds.svg	stimuli_target_diamondrectangles.svg	12	yes	44	1	715	6	1	antiphase_hc_iso.wav	2	6	1	noise_calib_stim_LEFT.wav	1	27	blb_dichoticlistening_pa-ga.mp3	pa	ga	1	right
6.6.1	win	2023-07-10	12:23:07	12:31:58	527219	6329f8bd8622aaba8e13a6d7	2	1	practice_z	22	advance_on_keypress_ZEE	4	stimuli_distractor_trianglediamonds.svg	stimuli_target_diamondrectangles.svg	12	yes	57	0	605	6	1	antiphase_hc_iso.wav	2	6	1	noise_calib_stim_LEFT.wav	1	27	blb_dichoticlistening_pa-ga.mp3	pa	ga	1	right
6.6.1	win	2023-07-10	12:23:07	12:32:01	530034	6329f8bd8622aaba8e13a6d7	2	1	practice_z	22	practice_z	5	stimuli_target_diamondsquares.svg	stimuli_distractor_trianglediamonds.svg	6	yes	44	1	564	6	1	antiphase_hc_iso.wav	2	6	1	noise_calib_stim_LEFT.wav	1	27	blb_dichoticlistening_pa-ga.mp3	pa	ga	1	right
6.6.1	win	2023-07-10	12:23:07	12:32:01	530034	6329f8bd8622aaba8e13a6d7	2	1	practice_z	22	advance_on_keypress_ZEE	6	stimuli_target_diamondsquares.svg	stimuli_distractor_trianglediamonds.svg	6	yes	57	0	453	6	1	antiphase_hc_iso.wav	2	6	1	noise_calib_stim_LEFT.wav	1	27	blb_dichoticlistening_pa-ga.mp3	pa	ga	1	right
6.6.1	win	2023-07-10	12:23:07	12:32:04	532841	6329f8bd8622aaba8e13a6d7	2	1	practice_z	22	practice_z	7	stimuli_distractor_diamondtriangles.svg	stimuli_target_rectangletriangles.svg	7	yes	44	1	705	6	1	antiphase_hc_iso.wav	2	6	1	noise_calib_stim_LEFT.wav	1	27	blb_dichoticlistening_pa-ga.mp3	pa	ga	1	right
6.6.1	win	2023-07-10	12:23:07	12:32:04	532841	6329f8bd8622aaba8e13a6d7	2	1	practice_z	22	advance_on_keypress_ZEE	8	stimuli_distractor_diamondtriangles.svg	stimuli_target_rectangletriangles.svg	7	yes	57	0	733	6	1	antiphase_hc_iso.wav	2	6	1	noise_calib_stim_LEFT.wav	1	27	blb_dichoticlistening_pa-ga.mp3	pa	ga	1	right
6.6.1	win	2023-07-10	12:23:07	12:32:07	535897	6329f8bd8622aaba8e13a6d7	2	1	practice_z	22	practice_z	9	stimuli_target_diamondsquares.svg	stimuli_distractor_diamondtriangles.svg	3	yes	44	1	678	6	1	antiphase_hc_iso.wav	2	6	1	noise_calib_stim_LEFT.wav	1	27	blb_dichoticlistening_pa-ga.mp3	pa	ga	1	right
6.6.1	win	2023-07-10	12:23:07	12:32:07	535897	6329f8bd8622aaba8e13a6d7	2	1	practice_z	22	advance_on_keypress_ZEE	10	stimuli_target_diamondsquares.svg	stimuli_distractor_diamondtriangles.svg	3	yes	57	0	451	6	1	antiphase_hc_iso.wav	2	6	1	noise_calib_stim_LEFT.wav	1	27	blb_dichoticlistening_pa-ga.mp3	pa	ga	1	right
6.6.1	win	2023-07-10	12:23:07	12:32:11	539986	6329f8bd8622aaba8e13a6d7	2	1	practice_z	22	practice_z	11	stimuli_distractor_trianglediamonds.svg	stimuli_distractor_trianglediamonds.svg	15	no	0	1	2000	6	1	antiphase_hc_iso.wav	2	6	1	noise_calib_stim_LEFT.wav	1	27	blb_dichoticlistening_pa-ga.mp3	pa	ga	1	right
6.6.1	win	2023-07-10	12:23:07	12:32:11	539986	6329f8bd8622aaba8e13a6d7	2	1	practice_z	22	advance_on_keypress_ZEE	12	stimuli_distractor_trianglediamonds.svg	stimuli_distractor_trianglediamonds.svg	15	no	57	0	696	6	1	antiphase_hc_iso.wav	2	6	1	noise_calib_stim_LEFT.wav	1	27	blb_dichoticlistening_pa-ga.mp3	pa	ga	1	right
6.6.1	win	2023-07-10	12:23:07	12:32:14	543114	6329f8bd8622aaba8e13a6d7	2	1	practice_z	22	practice_z	13	stimuli_target_rectanglediamonds.svg	stimuli_distractor_trianglediamonds.svg	4	yes	44	1	778	6	1	antiphase_hc_iso.wav	2	6	1	noise_calib_stim_LEFT.wav	1	27	blb_dichoticlistening_pa-ga.mp3	pa	ga	1	right
6.6.1	win	2023-07-10	12:23:07	12:32:14	543114	6329f8bd8622aaba8e13a6d7	2	1	practice_z	22	advance_on_keypress_ZEE	14	stimuli_target_rectanglediamonds.svg	stimuli_distractor_trianglediamonds.svg	4	yes	57	0	532	6	1	antiphase_hc_iso.wav	2	6	1	noise_calib_stim_LEFT.wav	1	27	blb_dichoticlistening_pa-ga.mp3	pa	ga	1	right
6.6.1	win	2023-07-10	12:23:07	12:32:17	545858	6329f8bd8622aaba8e13a6d7	2	1	practice_z	22	practice_z	15	stimuli_distractor_trianglediamonds.svg	stimuli_target_rectanglediamonds.svg	10	yes	44	1	573	6	1	antiphase_hc_iso.wav	2	6	1	noise_calib_stim_LEFT.wav	1	27	blb_dichoticlistening_pa-ga.mp3	pa	ga	1	right
6.6.1	win	2023-07-10	12:23:07	12:32:17	545858	6329f8bd8622aaba8e13a6d7	2	1	practice_z	22	advance_on_keypress_ZEE	16	stimuli_distractor_trianglediamonds.svg	stimuli_target_rectanglediamonds.svg	10	yes	57	0	517	6	1	antiphase_hc_iso.wav	2	6	1	noise_calib_stim_LEFT.wav	1	27	blb_dichoticlistening_pa-ga.mp3	pa	ga	1	right
6.6.1	win	2023-07-10	12:23:07	12:32:21	550020	6329f8bd8622aaba8e13a6d7	2	1	practice_z	22	practice_z	17	stimuli_distractor_trianglediamonds.svg	stimuli_distractor_diamondtriangles.svg	16	no	0	1	2000	6	1	antiphase_hc_iso.wav	2	6	1	noise_calib_stim_LEFT.wav	1	27	blb_dichoticlistening_pa-ga.mp3	pa	ga	1	right
6.6.1	win	2023-07-10	12:23:07	12:32:21	550020	6329f8bd8622aaba8e13a6d7	2	1	practice_z	22	advance_on_keypress_ZEE	18	stimuli_distractor_trianglediamonds.svg	stimuli_distractor_diamondtriangles.svg	16	no	57	0	510	6	1	antiphase_hc_iso.wav	2	6	1	noise_calib_stim_LEFT.wav	1	27	blb_dichoticlistening_pa-ga.mp3	pa	ga	1	right
6.6.1	win	2023-07-10	12:23:07	12:32:25	554169	6329f8bd8622aaba8e13a6d7	2	1	practice_z	22	practice_z	19	stimuli_distractor_diamondtriangles.svg	stimuli_distractor_diamondtriangles.svg	13	no	0	1	2000	6	1	antiphase_hc_iso.wav	2	6	1	noise_calib_stim_LEFT.wav	1	27	blb_dichoticlistening_pa-ga.mp3	pa	ga	1	right
6.6.1	win	2023-07-10	12:23:07	12:32:25	554169	6329f8bd8622aaba8e13a6d7	2	1	practice_z	22	advance_on_keypress_ZEE	20	stimuli_distractor_diamondtriangles.svg	stimuli_distractor_diamondtriangles.svg	13	no	57	0	504	6	1	antiphase_hc_iso.wav	2	6	1	noise_calib_stim_LEFT.wav	1	27	blb_dichoticlistening_pa-ga.mp3	pa	ga	1	right
6.6.1	win	2023-07-10	12:23:07	12:32:28	557187	6329f8bd8622aaba8e13a6d7	2	1	practice_z	22	practice_z	21	stimuli_distractor_diamondtriangles.svg	stimuli_distractor_trianglediamonds.svg	14	no	44	0	867	6	1	antiphase_hc_iso.wav	2	6	1	noise_calib_stim_LEFT.wav	1	27	blb_dichoticlistening_pa-ga.mp3	pa	ga	1	right
6.6.1	win	2023-07-10	12:23:07	12:32:28	557187	6329f8bd8622aaba8e13a6d7	2	1	practice_z	22	advance_on_keypress_ZEE	22	stimuli_distractor_diamondtriangles.svg	stimuli_distractor_trianglediamonds.svg	14	no	57	0	488	6	1	antiphase_hc_iso.wav	2	6	1	noise_calib_stim_LEFT.wav	1	27	blb_dichoticlistening_pa-ga.mp3	pa	ga	1	right
6.6.1	win	2023-07-10	12:23:07	12:32:31	560235	6329f8bd8622aaba8e13a6d7	2	1	practice_z	22	practice_z	23	stimuli_target_squarediamonds.svg	stimuli_distractor_trianglediamonds.svg	5	yes	44	1	916	6	1	antiphase_hc_iso.wav	2	6	1	noise_calib_stim_LEFT.wav	1	27	blb_dichoticlistening_pa-ga.mp3	pa	ga	1	right
6.6.1	win	2023-07-10	12:23:07	12:32:31	560235	6329f8bd8622aaba8e13a6d7	2	1	practice_z	22	advance_on_keypress_ZEE	24	stimuli_target_squarediamonds.svg	stimuli_distractor_trianglediamonds.svg	5	yes	57	0	438	6	1	antiphase_hc_iso.wav	2	6	1	noise_calib_stim_LEFT.wav	1	27	blb_dichoticlistening_pa-ga.mp3	pa	ga	1	right
6.6.1	win	2023-07-10	12:23:07	12:32:34	563169	6329f8bd8622aaba8e13a6d7	2	1	practice_z	22	practice_z	25	stimuli_distractor_trianglediamonds.svg	stimuli_target_squarediamonds.svg	11	yes	44	1	851	6	1	antiphase_hc_iso.wav	2	6	1	noise_calib_stim_LEFT.wav	1	27	blb_dichoticlistening_pa-ga.mp3	pa	ga	1	right
6.6.1	win	2023-07-10	12:23:07	12:32:34	563169	6329f8bd8622aaba8e13a6d7	2	1	practice_z	22	advance_on_keypress_ZEE	26	stimuli_distractor_trianglediamonds.svg	stimuli_target_squarediamonds.svg	11	yes	57	0	385	6	1	antiphase_hc_iso.wav	2	6	1	noise_calib_stim_LEFT.wav	1	27	blb_dichoticlistening_pa-ga.mp3	pa	ga	1	right
6.6.1	win	2023-07-10	12:23:07	12:32:37	565962	6329f8bd8622aaba8e13a6d7	2	1	practice_z	22	practice_z	27	stimuli_target_rectanglediamonds.svg	stimuli_distractor_diamondtriangles.svg	1	yes	44	1	761	6	1	antiphase_hc_iso.wav	2	6	1	noise_calib_stim_LEFT.wav	1	27	blb_dichoticlistening_pa-ga.mp3	pa	ga	1	right
6.6.1	win	2023-07-10	12:23:07	12:32:37	565962	6329f8bd8622aaba8e13a6d7	2	1	practice_z	22	advance_on_keypress_ZEE	28	stimuli_target_rectanglediamonds.svg	stimuli_distractor_diamondtriangles.svg	1	yes	57	0	353	6	1	antiphase_hc_iso.wav	2	6	1	noise_calib_stim_LEFT.wav	1	27	blb_dichoticlistening_pa-ga.mp3	pa	ga	1	right
6.6.1	win	2023-07-10	12:23:07	12:32:39	568553	6329f8bd8622aaba8e13a6d7	2	1	practice_z	22	practice_z	29	stimuli_target_squarediamonds.svg	stimuli_distractor_diamondtriangles.svg	2	yes	44	1	602	6	1	antiphase_hc_iso.wav	2	6	1	noise_calib_stim_LEFT.wav	1	27	blb_dichoticlistening_pa-ga.mp3	pa	ga	1	right
6.6.1	win	2023-07-10	12:23:07	12:32:39	568553	6329f8bd8622aaba8e13a6d7	2	1	practice_z	22	advance_on_keypress_ZEE	30	stimuli_target_squarediamonds.svg	stimuli_distractor_diamondtriangles.svg	2	yes	57	0	410	6	1	antiphase_hc_iso.wav	2	6	1	noise_calib_stim_LEFT.wav	1	27	blb_dichoticlistening_pa-ga.mp3	pa	ga	1	right
6.6.1	win	2023-07-10	12:23:07	12:32:42	571329	6329f8bd8622aaba8e13a6d7	2	1	practice_z	22	practice_z	31	stimuli_distractor_diamondtriangles.svg	stimuli_target_diamondrectangles.svg	8	yes	44	1	728	6	1	antiphase_hc_iso.wav	2	6	1	noise_calib_stim_LEFT.wav	1	27	blb_dichoticlistening_pa-ga.mp3	pa	ga	1	right
6.6.1	win	2023-07-10	12:23:07	12:32:42	571329	6329f8bd8622aaba8e13a6d7	2	1	practice_z	22	advance_on_keypress_ZEE	32	stimuli_distractor_diamondtriangles.svg	stimuli_target_diamondrectangles.svg	8	yes	57	0	371	6	1	antiphase_hc_iso.wav	2	6	1	noise_calib_stim_LEFT.wav	1	27	blb_dichoticlistening_pa-ga.mp3	pa	ga	1	right
6.6.1	win	2023-07-10	12:23:07	12:32:50	579117	6329f8bd8622aaba8e13a6d7	2	1	main_z	24	main_z	1	stimuli_distractor_trianglediamonds.svg	stimuli_distractor_trianglediamonds.svg	34	no	0	1	2000	6	1	antiphase_hc_iso.wav	2	6	1	noise_calib_stim_LEFT.wav	1	27	blb_dichoticlistening_pa-ga.mp3	pa	ga	1	right
6.6.1	win	2023-07-10	12:23:07	12:32:50	579117	6329f8bd8622aaba8e13a6d7	2	1	main_z	24	advance_on_keypress_ZEE	2	stimuli_distractor_trianglediamonds.svg	stimuli_distractor_trianglediamonds.svg	34	no	57	0	507	6	1	antiphase_hc_iso.wav	2	6	1	noise_calib_stim_LEFT.wav	1	27	blb_dichoticlistening_pa-ga.mp3	pa	ga	1	right
6.6.1	win	2023-07-10	12:23:07	12:32:52	580783	6329f8bd8622aaba8e13a6d7	2	1	main_z	24	main_z	3	stimuli_distractor_trianglediamonds.svg	stimuli_target_squarediamonds.svg	12	yes	44	1	503	6	1	antiphase_hc_iso.wav	2	6	1	noise_calib_stim_LEFT.wav	1	27	blb_dichoticlistening_pa-ga.mp3	pa	ga	1	right
6.6.1	win	2023-07-10	12:23:07	12:32:52	580783	6329f8bd8622aaba8e13a6d7	2	1	main_z	24	advance_on_keypress_ZEE	4	stimuli_distractor_trianglediamonds.svg	stimuli_target_squarediamonds.svg	12	yes	57	0	872	6	1	antiphase_hc_iso.wav	2	6	1	noise_calib_stim_LEFT.wav	1	27	blb_dichoticlistening_pa-ga.mp3	pa	ga	1	right
6.6.1	win	2023-07-10	12:23:07	12:32:54	582745	6329f8bd8622aaba8e13a6d7	2	1	main_z	24	main_z	5	stimuli_target_rectanglediamonds.svg	stimuli_distractor_trianglediamonds.svg	2	yes	44	1	445	6	1	antiphase_hc_iso.wav	2	6	1	noise_calib_stim_LEFT.wav	1	27	blb_dichoticlistening_pa-ga.mp3	pa	ga	1	right
6.6.1	win	2023-07-10	12:23:07	12:32:54	582745	6329f8bd8622aaba8e13a6d7	2	1	main_z	24	advance_on_keypress_ZEE	6	stimuli_target_rectanglediamonds.svg	stimuli_distractor_trianglediamonds.svg	2	yes	57	0	523	6	1	antiphase_hc_iso.wav	2	6	1	noise_calib_stim_LEFT.wav	1	27	blb_dichoticlistening_pa-ga.mp3	pa	ga	1	right
6.6.1	win	2023-07-10	12:23:07	12:32:55	584377	6329f8bd8622aaba8e13a6d7	2	1	main_z	24	main_z	7	stimuli_distractor_diamondtriangles.svg	stimuli_target_squaretriangles.svg	15	yes	44	1	477	6	1	antiphase_hc_iso.wav	2	6	1	noise_calib_stim_LEFT.wav	1	27	blb_dichoticlistening_pa-ga.mp3	pa	ga	1	right
6.6.1	win	2023-07-10	12:23:07	12:32:55	584377	6329f8bd8622aaba8e13a6d7	2	1	main_z	24	advance_on_keypress_ZEE	8	stimuli_distractor_diamondtriangles.svg	stimuli_target_squaretriangles.svg	15	yes	57	0	369	6	1	antiphase_hc_iso.wav	2	6	1	noise_calib_stim_LEFT.wav	1	27	blb_dichoticlistening_pa-ga.mp3	pa	ga	1	right
6.6.1	win	2023-07-10	12:23:07	12:32:57	586025	6329f8bd8622aaba8e13a6d7	2	1	main_z	24	main_z	9	stimuli_distractor_diamondtriangles.svg	stimuli_target_rectanglediamonds.svg	14	yes	44	1	641	6	1	antiphase_hc_iso.wav	2	6	1	noise_calib_stim_LEFT.wav	1	27	blb_dichoticlistening_pa-ga.mp3	pa	ga	1	right
6.6.1	win	2023-07-10	12:23:07	12:32:57	586025	6329f8bd8622aaba8e13a6d7	2	1	main_z	24	advance_on_keypress_ZEE	10	stimuli_distractor_diamondtriangles.svg	stimuli_target_rectanglediamonds.svg	14	yes	57	0	279	6	1	antiphase_hc_iso.wav	2	6	1	noise_calib_stim_LEFT.wav	1	27	blb_dichoticlistening_pa-ga.mp3	pa	ga	1	right
6.6.1	win	2023-07-10	12:23:07	12:32:59	587681	6329f8bd8622aaba8e13a6d7	2	1	main_z	24	main_z	11	stimuli_distractor_diamondtriangles.svg	stimuli_target_diamondsquares.svg	32	yes	44	1	747	6	1	antiphase_hc_iso.wav	2	6	1	noise_calib_stim_LEFT.wav	1	27	blb_dichoticlistening_pa-ga.mp3	pa	ga	1	right
6.6.1	win	2023-07-10	12:23:07	12:32:59	587681	6329f8bd8622aaba8e13a6d7	2	1	main_z	24	advance_on_keypress_ZEE	12	stimuli_distractor_diamondtriangles.svg	stimuli_target_diamondsquares.svg	32	yes	57	0	197	6	1	antiphase_hc_iso.wav	2	6	1	noise_calib_stim_LEFT.wav	1	27	blb_dichoticlistening_pa-ga.mp3	pa	ga	1	right
6.6.1	win	2023-07-10	12:23:07	12:33:00	589035	6329f8bd8622aaba8e13a6d7	2	1	main_z	24	main_z	13	stimuli_distractor_diamondtriangles.svg	stimuli_target_rectangletriangles.svg	13	yes	44	1	516	6	1	antiphase_hc_iso.wav	2	6	1	noise_calib_stim_LEFT.wav	1	27	blb_dichoticlistening_pa-ga.mp3	pa	ga	1	right
6.6.1	win	2023-07-10	12:23:07	12:33:00	589035	6329f8bd8622aaba8e13a6d7	2	1	main_z	24	advance_on_keypress_ZEE	14	stimuli_distractor_diamondtriangles.svg	stimuli_target_rectangletriangles.svg	13	yes	57	0	191	6	1	antiphase_hc_iso.wav	2	6	1	noise_calib_stim_LEFT.wav	1	27	blb_dichoticlistening_pa-ga.mp3	pa	ga	1	right
6.6.1	win	2023-07-10	12:23:07	12:33:01	590593	6329f8bd8622aaba8e13a6d7	2	1	main_z	24	main_z	15	stimuli_target_trianglerectangles.svg	stimuli_distractor_trianglediamonds.svg	17	yes	44	1	726	6	1	antiphase_hc_iso.wav	2	6	1	noise_calib_stim_LEFT.wav	1	27	blb_dichoticlistening_pa-ga.mp3	pa	ga	1	right
6.6.1	win	2023-07-10	12:23:07	12:33:01	590593	6329f8bd8622aaba8e13a6d7	2	1	main_z	24	advance_on_keypress_ZEE	16	stimuli_target_trianglerectangles.svg	stimuli_distractor_trianglediamonds.svg	17	yes	57	0	185	6	1	antiphase_hc_iso.wav	2	6	1	noise_calib_stim_LEFT.wav	1	27	blb_dichoticlistening_pa-ga.mp3	pa	ga	1	right
6.6.1	win	2023-07-10	12:23:07	12:33:03	591985	6329f8bd8622aaba8e13a6d7	2	1	main_z	24	main_z	17	stimuli_target_squaretriangles.svg	stimuli_distractor_diamondtriangles.svg	7	yes	44	1	568	6	1	antiphase_hc_iso.wav	2	6	1	noise_calib_stim_LEFT.wav	1	27	blb_dichoticlistening_pa-ga.mp3	pa	ga	1	right
6.6.1	win	2023-07-10	12:23:07	12:33:03	591985	6329f8bd8622aaba8e13a6d7	2	1	main_z	24	advance_on_keypress_ZEE	18	stimuli_target_squaretriangles.svg	stimuli_distractor_diamondtriangles.svg	7	yes	57	0	137	6	1	antiphase_hc_iso.wav	2	6	1	noise_calib_stim_LEFT.wav	1	27	blb_dichoticlistening_pa-ga.mp3	pa	ga	1	right
6.6.1	win	2023-07-10	12:23:07	12:33:04	593313	6329f8bd8622aaba8e13a6d7	2	1	main_z	24	main_z	19	stimuli_distractor_trianglediamonds.svg	stimuli_target_squaretriangles.svg	11	yes	44	1	547	6	1	antiphase_hc_iso.wav	2	6	1	noise_calib_stim_LEFT.wav	1	27	blb_dichoticlistening_pa-ga.mp3	pa	ga	1	right
6.6.1	win	2023-07-10	12:23:07	12:33:04	593313	6329f8bd8622aaba8e13a6d7	2	1	main_z	24	advance_on_keypress_ZEE	20	stimuli_distractor_trianglediamonds.svg	stimuli_target_squaretriangles.svg	11	yes	57	0	148	6	1	antiphase_hc_iso.wav	2	6	1	noise_calib_stim_LEFT.wav	1	27	blb_dichoticlistening_pa-ga.mp3	pa	ga	1	right
6.6.1	win	2023-07-10	12:23:07	12:33:05	594616	6329f8bd8622aaba8e13a6d7	2	1	main_z	24	main_z	21	stimuli_distractor_trianglediamonds.svg	stimuli_target_rectanglediamonds.svg	10	yes	44	1	509	6	1	antiphase_hc_iso.wav	2	6	1	noise_calib_stim_LEFT.wav	1	27	blb_dichoticlistening_pa-ga.mp3	pa	ga	1	right
6.6.1	win	2023-07-10	12:23:07	12:33:05	594616	6329f8bd8622aaba8e13a6d7	2	1	main_z	24	advance_on_keypress_ZEE	22	stimuli_distractor_trianglediamonds.svg	stimuli_target_rectanglediamonds.svg	10	yes	57	0	97	6	1	antiphase_hc_iso.wav	2	6	1	noise_calib_stim_LEFT.wav	1	27	blb_dichoticlistening_pa-ga.mp3	pa	ga	1	right
6.6.1	win	2023-07-10	12:23:07	12:33:07	595793	6329f8bd8622aaba8e13a6d7	2	1	main_z	24	main_z	23	stimuli_target_rectangletriangles.svg	stimuli_distractor_trianglediamonds.svg	1	yes	44	1	444	6	1	antiphase_hc_iso.wav	2	6	1	noise_calib_stim_LEFT.wav	1	27	blb_dichoticlistening_pa-ga.mp3	pa	ga	1	right
6.6.1	win	2023-07-10	12:23:07	12:33:07	595793	6329f8bd8622aaba8e13a6d7	2	1	main_z	24	advance_on_keypress_ZEE	24	stimuli_target_rectangletriangles.svg	stimuli_distractor_trianglediamonds.svg	1	yes	57	0	105	6	1	antiphase_hc_iso.wav	2	6	1	noise_calib_stim_LEFT.wav	1	27	blb_dichoticlistening_pa-ga.mp3	pa	ga	1	right
6.6.1	win	2023-07-10	12:23:07	12:33:08	597336	6329f8bd8622aaba8e13a6d7	2	1	main_z	24	main_z	25	stimuli_distractor_diamondtriangles.svg	stimuli_target_trianglerectangles.svg	29	yes	44	1	804	6	1	antiphase_hc_iso.wav	2	6	1	noise_calib_stim_LEFT.wav	1	27	blb_dichoticlistening_pa-ga.mp3	pa	ga	1	right
6.6.1	win	2023-07-10	12:23:07	12:33:08	597336	6329f8bd8622aaba8e13a6d7	2	1	main_z	24	advance_on_keypress_ZEE	26	stimuli_distractor_diamondtriangles.svg	stimuli_target_trianglerectangles.svg	29	yes	57	0	83	6	1	antiphase_hc_iso.wav	2	6	1	noise_calib_stim_LEFT.wav	1	27	blb_dichoticlistening_pa-ga.mp3	pa	ga	1	right
6.6.1	win	2023-07-10	12:23:07	12:33:09	598584	6329f8bd8622aaba8e13a6d7	2	1	main_z	24	main_z	27	stimuli_target_diamondrectangles.svg	stimuli_distractor_diamondtriangles.svg	23	yes	44	1	518	6	1	antiphase_hc_iso.wav	2	6	1	noise_calib_stim_LEFT.wav	1	27	blb_dichoticlistening_pa-ga.mp3	pa	ga	1	right
6.6.1	win	2023-07-10	12:23:07	12:33:09	598584	6329f8bd8622aaba8e13a6d7	2	1	main_z	24	advance_on_keypress_ZEE	28	stimuli_target_diamondrectangles.svg	stimuli_distractor_diamondtriangles.svg	23	yes	57	0	81	6	1	antiphase_hc_iso.wav	2	6	1	noise_calib_stim_LEFT.wav	1	27	blb_dichoticlistening_pa-ga.mp3	pa	ga	1	right
6.6.1	win	2023-07-10	12:23:07	12:33:11	599753	6329f8bd8622aaba8e13a6d7	2	1	main_z	24	main_z	29	stimuli_target_squarediamonds.svg	stimuli_distractor_trianglediamonds.svg	4	yes	44	1	436	6	1	antiphase_hc_iso.wav	2	6	1	noise_calib_stim_LEFT.wav	1	27	blb_dichoticlistening_pa-ga.mp3	pa	ga	1	right
6.6.1	win	2023-07-10	12:23:07	12:33:11	599753	6329f8bd8622aaba8e13a6d7	2	1	main_z	24	advance_on_keypress_ZEE	30	stimuli_target_squarediamonds.svg	stimuli_distractor_trianglediamonds.svg	4	yes	57	0	92	6	1	antiphase_hc_iso.wav	2	6	1	noise_calib_stim_LEFT.wav	1	27	blb_dichoticlistening_pa-ga.mp3	pa	ga	1	right
6.6.1	win	2023-07-10	12:23:07	12:33:12	600962	6329f8bd8622aaba8e13a6d7	2	1	main_z	24	main_z	31	stimuli_target_diamondsquares.svg	stimuli_distractor_diamondtriangles.svg	24	yes	44	1	479	6	1	antiphase_hc_iso.wav	2	6	1	noise_calib_stim_LEFT.wav	1	27	blb_dichoticlistening_pa-ga.mp3	pa	ga	1	right
6.6.1	win	2023-07-10	12:23:07	12:33:12	600962	6329f8bd8622aaba8e13a6d7	2	1	main_z	24	advance_on_keypress_ZEE	32	stimuli_target_diamondsquares.svg	stimuli_distractor_diamondtriangles.svg	24	yes	57	0	75	6	1	antiphase_hc_iso.wav	2	6	1	noise_calib_stim_LEFT.wav	1	27	blb_dichoticlistening_pa-ga.mp3	pa	ga	1	right
6.6.1	win	2023-07-10	12:23:07	12:33:13	602121	6329f8bd8622aaba8e13a6d7	2	1	main_z	24	main_z	33	stimuli_distractor_diamondtriangles.svg	stimuli_target_diamondrectangles.svg	31	yes	44	1	454	6	1	antiphase_hc_iso.wav	2	6	1	noise_calib_stim_LEFT.wav	1	27	blb_dichoticlistening_pa-ga.mp3	pa	ga	1	right
6.6.1	win	2023-07-10	12:23:07	12:33:13	602121	6329f8bd8622aaba8e13a6d7	2	1	main_z	24	advance_on_keypress_ZEE	34	stimuli_distractor_diamondtriangles.svg	stimuli_target_diamondrectangles.svg	31	yes	57	0	100	6	1	antiphase_hc_iso.wav	2	6	1	noise_calib_stim_LEFT.wav	1	27	blb_dichoticlistening_pa-ga.mp3	pa	ga	1	right
6.6.1	win	2023-07-10	12:23:07	12:33:14	603382	6329f8bd8622aaba8e13a6d7	2	1	main_z	24	main_z	35	stimuli_target_squaretriangles.svg	stimuli_distractor_trianglediamonds.svg	3	yes	44	1	510	6	1	antiphase_hc_iso.wav	2	6	1	noise_calib_stim_LEFT.wav	1	27	blb_dichoticlistening_pa-ga.mp3	pa	ga	1	right
6.6.1	win	2023-07-10	12:23:07	12:33:14	603382	6329f8bd8622aaba8e13a6d7	2	1	main_z	24	advance_on_keypress_ZEE	36	stimuli_target_squaretriangles.svg	stimuli_distractor_trianglediamonds.svg	3	yes	57	0	105	6	1	antiphase_hc_iso.wav	2	6	1	noise_calib_stim_LEFT.wav	1	27	blb_dichoticlistening_pa-ga.mp3	pa	ga	1	right
6.6.1	win	2023-07-10	12:23:07	12:33:16	604657	6329f8bd8622aaba8e13a6d7	2	1	main_z	24	main_z	37	stimuli_distractor_diamondtriangles.svg	stimuli_distractor_trianglediamonds.svg	37	no	44	0	524	6	1	antiphase_hc_iso.wav	2	6	1	noise_calib_stim_LEFT.wav	1	27	blb_dichoticlistening_pa-ga.mp3	pa	ga	1	right
6.6.1	win	2023-07-10	12:23:07	12:33:16	604657	6329f8bd8622aaba8e13a6d7	2	1	main_z	24	advance_on_keypress_ZEE	38	stimuli_distractor_diamondtriangles.svg	stimuli_distractor_trianglediamonds.svg	37	no	57	0	103	6	1	antiphase_hc_iso.wav	2	6	1	noise_calib_stim_LEFT.wav	1	27	blb_dichoticlistening_pa-ga.mp3	pa	ga	1	right
6.6.1	win	2023-07-10	12:23:07	12:33:18	607400	6329f8bd8622aaba8e13a6d7	2	1	main_z	24	main_z	39	stimuli_distractor_trianglediamonds.svg	stimuli_distractor_diamondtriangles.svg	35	no	0	1	2000	6	1	antiphase_hc_iso.wav	2	6	1	noise_calib_stim_LEFT.wav	1	27	blb_dichoticlistening_pa-ga.mp3	pa	ga	1	right
6.6.1	win	2023-07-10	12:23:07	12:33:18	607400	6329f8bd8622aaba8e13a6d7	2	1	main_z	24	advance_on_keypress_ZEE	40	stimuli_distractor_trianglediamonds.svg	stimuli_distractor_diamondtriangles.svg	35	no	57	0	569	6	1	antiphase_hc_iso.wav	2	6	1	noise_calib_stim_LEFT.wav	1	27	blb_dichoticlistening_pa-ga.mp3	pa	ga	1	right
6.6.1	win	2023-07-10	12:23:07	12:33:20	609209	6329f8bd8622aaba8e13a6d7	2	1	main_z	24	main_z	41	stimuli_distractor_diamondtriangles.svg	stimuli_distractor_trianglediamonds.svg	38	no	44	0	593	6	1	antiphase_hc_iso.wav	2	6	1	noise_calib_stim_LEFT.wav	1	27	blb_dichoticlistening_pa-ga.mp3	pa	ga	1	right
6.6.1	win	2023-07-10	12:23:07	12:33:20	609209	6329f8bd8622aaba8e13a6d7	2	1	main_z	24	advance_on_keypress_ZEE	42	stimuli_distractor_diamondtriangles.svg	stimuli_distractor_trianglediamonds.svg	38	no	57	0	145	6	1	antiphase_hc_iso.wav	2	6	1	noise_calib_stim_LEFT.wav	1	27	blb_dichoticlistening_pa-ga.mp3	pa	ga	1	right
6.6.1	win	2023-07-10	12:23:07	12:33:22	611128	6329f8bd8622aaba8e13a6d7	2	1	main_z	24	main_z	43	stimuli_target_rectanglediamonds.svg	stimuli_distractor_diamondtriangles.svg	6	yes	44	1	1146	6	1	antiphase_hc_iso.wav	2	6	1	noise_calib_stim_LEFT.wav	1	27	blb_dichoticlistening_pa-ga.mp3	pa	ga	1	right
6.6.1	win	2023-07-10	12:23:07	12:33:22	611128	6329f8bd8622aaba8e13a6d7	2	1	main_z	24	advance_on_keypress_ZEE	44	stimuli_target_rectanglediamonds.svg	stimuli_distractor_diamondtriangles.svg	6	yes	57	0	116	6	1	antiphase_hc_iso.wav	2	6	1	noise_calib_stim_LEFT.wav	1	27	blb_dichoticlistening_pa-ga.mp3	pa	ga	1	right
6.6.1	win	2023-07-10	12:23:07	12:33:23	612545	6329f8bd8622aaba8e13a6d7	2	1	main_z	24	main_z	45	stimuli_target_diamondrectangles.svg	stimuli_distractor_trianglediamonds.svg	19	yes	44	1	662	6	1	antiphase_hc_iso.wav	2	6	1	noise_calib_stim_LEFT.wav	1	27	blb_dichoticlistening_pa-ga.mp3	pa	ga	1	right
6.6.1	win	2023-07-10	12:23:07	12:33:23	612545	6329f8bd8622aaba8e13a6d7	2	1	main_z	24	advance_on_keypress_ZEE	46	stimuli_target_diamondrectangles.svg	stimuli_distractor_trianglediamonds.svg	19	yes	57	0	92	6	1	antiphase_hc_iso.wav	2	6	1	noise_calib_stim_LEFT.wav	1	27	blb_dichoticlistening_pa-ga.mp3	pa	ga	1	right
6.6.1	win	2023-07-10	12:23:07	12:33:25	613929	6329f8bd8622aaba8e13a6d7	2	1	main_z	24	main_z	47	stimuli_distractor_trianglediamonds.svg	stimuli_target_diamondrectangles.svg	27	yes	44	1	664	6	1	antiphase_hc_iso.wav	2	6	1	noise_calib_stim_LEFT.wav	1	27	blb_dichoticlistening_pa-ga.mp3	pa	ga	1	right
6.6.1	win	2023-07-10	12:23:07	12:33:25	613929	6329f8bd8622aaba8e13a6d7	2	1	main_z	24	advance_on_keypress_ZEE	48	stimuli_distractor_trianglediamonds.svg	stimuli_target_diamondrectangles.svg	27	yes	57	0	60	6	1	antiphase_hc_iso.wav	2	6	1	noise_calib_stim_LEFT.wav	1	27	blb_dichoticlistening_pa-ga.mp3	pa	ga	1	right
6.6.1	win	2023-07-10	12:23:07	12:33:27	615689	6329f8bd8622aaba8e13a6d7	2	1	main_z	24	main_z	49	stimuli_distractor_trianglediamonds.svg	stimuli_distractor_trianglediamonds.svg	33	no	44	0	1073	6	1	antiphase_hc_iso.wav	2	6	1	noise_calib_stim_LEFT.wav	1	27	blb_dichoticlistening_pa-ga.mp3	pa	ga	1	right
6.6.1	win	2023-07-10	12:23:07	12:33:27	615689	6329f8bd8622aaba8e13a6d7	2	1	main_z	24	advance_on_keypress_ZEE	50	stimuli_distractor_trianglediamonds.svg	stimuli_distractor_trianglediamonds.svg	33	no	57	0	86	6	1	antiphase_hc_iso.wav	2	6	1	noise_calib_stim_LEFT.wav	1	27	blb_dichoticlistening_pa-ga.mp3	pa	ga	1	right
6.6.1	win	2023-07-10	12:23:07	12:33:28	617401	6329f8bd8622aaba8e13a6d7	2	1	main_z	24	main_z	51	stimuli_distractor_trianglediamonds.svg	stimuli_target_diamondsquares.svg	28	yes	44	1	985	6	1	antiphase_hc_iso.wav	2	6	1	noise_calib_stim_LEFT.wav	1	27	blb_dichoticlistening_pa-ga.mp3	pa	ga	1	right
6.6.1	win	2023-07-10	12:23:07	12:33:28	617401	6329f8bd8622aaba8e13a6d7	2	1	main_z	24	advance_on_keypress_ZEE	52	stimuli_distractor_trianglediamonds.svg	stimuli_target_diamondsquares.svg	28	yes	57	0	97	6	1	antiphase_hc_iso.wav	2	6	1	noise_calib_stim_LEFT.wav	1	27	blb_dichoticlistening_pa-ga.mp3	pa	ga	1	right
6.6.1	win	2023-07-10	12:23:07	12:33:30	618944	6329f8bd8622aaba8e13a6d7	2	1	main_z	24	main_z	53	stimuli_distractor_diamondtriangles.svg	stimuli_target_trianglesquares.svg	30	yes	44	1	796	6	1	antiphase_hc_iso.wav	2	6	1	noise_calib_stim_LEFT.wav	1	27	blb_dichoticlistening_pa-ga.mp3	pa	ga	1	right
6.6.1	win	2023-07-10	12:23:07	12:33:30	618944	6329f8bd8622aaba8e13a6d7	2	1	main_z	24	advance_on_keypress_ZEE	54	stimuli_distractor_diamondtriangles.svg	stimuli_target_trianglesquares.svg	30	yes	57	0	76	6	1	antiphase_hc_iso.wav	2	6	1	noise_calib_stim_LEFT.wav	1	27	blb_dichoticlistening_pa-ga.mp3	pa	ga	1	right
6.6.1	win	2023-07-10	12:23:07	12:33:31	620209	6329f8bd8622aaba8e13a6d7	2	1	main_z	24	main_z	55	stimuli_target_trianglesquares.svg	stimuli_distractor_diamondtriangles.svg	22	yes	44	1	560	6	1	antiphase_hc_iso.wav	2	6	1	noise_calib_stim_LEFT.wav	1	27	blb_dichoticlistening_pa-ga.mp3	pa	ga	1	right
6.6.1	win	2023-07-10	12:23:07	12:33:31	620209	6329f8bd8622aaba8e13a6d7	2	1	main_z	24	advance_on_keypress_ZEE	56	stimuli_target_trianglesquares.svg	stimuli_distractor_diamondtriangles.svg	22	yes	57	0	89	6	1	antiphase_hc_iso.wav	2	6	1	noise_calib_stim_LEFT.wav	1	27	blb_dichoticlistening_pa-ga.mp3	pa	ga	1	right
6.6.1	win	2023-07-10	12:23:07	12:33:32	621450	6329f8bd8622aaba8e13a6d7	2	1	main_z	24	main_z	57	stimuli_target_trianglesquares.svg	stimuli_distractor_trianglediamonds.svg	18	yes	44	1	516	6	1	antiphase_hc_iso.wav	2	6	1	noise_calib_stim_LEFT.wav	1	27	blb_dichoticlistening_pa-ga.mp3	pa	ga	1	right
6.6.1	win	2023-07-10	12:23:07	12:33:32	621450	6329f8bd8622aaba8e13a6d7	2	1	main_z	24	advance_on_keypress_ZEE	58	stimuli_target_trianglesquares.svg	stimuli_distractor_trianglediamonds.svg	18	yes	57	0	71	6	1	antiphase_hc_iso.wav	2	6	1	noise_calib_stim_LEFT.wav	1	27	blb_dichoticlistening_pa-ga.mp3	pa	ga	1	right
6.6.1	win	2023-07-10	12:23:07	12:33:34	623401	6329f8bd8622aaba8e13a6d7	2	1	main_z	24	main_z	59	stimuli_distractor_diamondtriangles.svg	stimuli_distractor_diamondtriangles.svg	40	no	44	0	1235	6	1	antiphase_hc_iso.wav	2	6	1	noise_calib_stim_LEFT.wav	1	27	blb_dichoticlistening_pa-ga.mp3	pa	ga	1	right
6.6.1	win	2023-07-10	12:23:07	12:33:34	623401	6329f8bd8622aaba8e13a6d7	2	1	main_z	24	advance_on_keypress_ZEE	60	stimuli_distractor_diamondtriangles.svg	stimuli_distractor_diamondtriangles.svg	40	no	57	0	41	6	1	antiphase_hc_iso.wav	2	6	1	noise_calib_stim_LEFT.wav	1	27	blb_dichoticlistening_pa-ga.mp3	pa	ga	1	right
6.6.1	win	2023-07-10	12:23:07	12:33:36	624729	6329f8bd8622aaba8e13a6d7	2	1	main_z	24	main_z	61	stimuli_distractor_diamondtriangles.svg	stimuli_target_squarediamonds.svg	16	yes	44	1	647	6	1	antiphase_hc_iso.wav	2	6	1	noise_calib_stim_LEFT.wav	1	27	blb_dichoticlistening_pa-ga.mp3	pa	ga	1	right
6.6.1	win	2023-07-10	12:23:07	12:33:36	624729	6329f8bd8622aaba8e13a6d7	2	1	main_z	24	advance_on_keypress_ZEE	62	stimuli_distractor_diamondtriangles.svg	stimuli_target_squarediamonds.svg	16	yes	57	0	61	6	1	antiphase_hc_iso.wav	2	6	1	noise_calib_stim_LEFT.wav	1	27	blb_dichoticlistening_pa-ga.mp3	pa	ga	1	right
6.6.1	win	2023-07-10	12:23:07	12:33:37	626521	6329f8bd8622aaba8e13a6d7	2	1	main_z	24	main_z	63	stimuli_target_squarediamonds.svg	stimuli_distractor_diamondtriangles.svg	8	yes	44	1	1105	6	1	antiphase_hc_iso.wav	2	6	1	noise_calib_stim_LEFT.wav	1	27	blb_dichoticlistening_pa-ga.mp3	pa	ga	1	right
6.6.1	win	2023-07-10	12:23:07	12:33:37	626521	6329f8bd8622aaba8e13a6d7	2	1	main_z	24	advance_on_keypress_ZEE	64	stimuli_target_squarediamonds.svg	stimuli_distractor_diamondtriangles.svg	8	yes	57	0	85	6	1	antiphase_hc_iso.wav	2	6	1	noise_calib_stim_LEFT.wav	1	27	blb_dichoticlistening_pa-ga.mp3	pa	ga	1	right
6.6.1	win	2023-07-10	12:23:07	12:33:39	627873	6329f8bd8622aaba8e13a6d7	2	1	main_z	24	main_z	65	stimuli_target_rectangletriangles.svg	stimuli_distractor_diamondtriangles.svg	5	yes	44	1	624	6	1	antiphase_hc_iso.wav	2	6	1	noise_calib_stim_LEFT.wav	1	27	blb_dichoticlistening_pa-ga.mp3	pa	ga	1	right
6.6.1	win	2023-07-10	12:23:07	12:33:39	627873	6329f8bd8622aaba8e13a6d7	2	1	main_z	24	advance_on_keypress_ZEE	66	stimuli_target_rectangletriangles.svg	stimuli_distractor_diamondtriangles.svg	5	yes	57	0	71	6	1	antiphase_hc_iso.wav	2	6	1	noise_calib_stim_LEFT.wav	1	27	blb_dichoticlistening_pa-ga.mp3	pa	ga	1	right
6.6.1	win	2023-07-10	12:23:07	12:33:40	629321	6329f8bd8622aaba8e13a6d7	2	1	main_z	24	main_z	67	stimuli_distractor_trianglediamonds.svg	stimuli_target_trianglesquares.svg	26	yes	44	1	739	6	1	antiphase_hc_iso.wav	2	6	1	noise_calib_stim_LEFT.wav	1	27	blb_dichoticlistening_pa-ga.mp3	pa	ga	1	right
6.6.1	win	2023-07-10	12:23:07	12:33:40	629321	6329f8bd8622aaba8e13a6d7	2	1	main_z	24	advance_on_keypress_ZEE	68	stimuli_distractor_trianglediamonds.svg	stimuli_target_trianglesquares.svg	26	yes	57	0	70	6	1	antiphase_hc_iso.wav	2	6	1	noise_calib_stim_LEFT.wav	1	27	blb_dichoticlistening_pa-ga.mp3	pa	ga	1	right
6.6.1	win	2023-07-10	12:23:07	12:33:43	632032	6329f8bd8622aaba8e13a6d7	2	1	main_z	24	main_z	69	stimuli_distractor_diamondtriangles.svg	stimuli_distractor_diamondtriangles.svg	39	no	0	1	2000	6	1	antiphase_hc_iso.wav	2	6	1	noise_calib_stim_LEFT.wav	1	27	blb_dichoticlistening_pa-ga.mp3	pa	ga	1	right
6.6.1	win	2023-07-10	12:23:07	12:33:43	632032	6329f8bd8622aaba8e13a6d7	2	1	main_z	24	advance_on_keypress_ZEE	70	stimuli_distractor_diamondtriangles.svg	stimuli_distractor_diamondtriangles.svg	39	no	57	0	320	6	1	antiphase_hc_iso.wav	2	6	1	noise_calib_stim_LEFT.wav	1	27	blb_dichoticlistening_pa-ga.mp3	pa	ga	1	right
6.6.1	win	2023-07-10	12:23:07	12:33:44	633577	6329f8bd8622aaba8e13a6d7	2	1	main_z	24	main_z	71	stimuli_target_diamondsquares.svg	stimuli_distractor_trianglediamonds.svg	20	yes	44	1	578	6	1	antiphase_hc_iso.wav	2	6	1	noise_calib_stim_LEFT.wav	1	27	blb_dichoticlistening_pa-ga.mp3	pa	ga	1	right
6.6.1	win	2023-07-10	12:23:07	12:33:44	633577	6329f8bd8622aaba8e13a6d7	2	1	main_z	24	advance_on_keypress_ZEE	72	stimuli_target_diamondsquares.svg	stimuli_distractor_trianglediamonds.svg	20	yes	57	0	51	6	1	antiphase_hc_iso.wav	2	6	1	noise_calib_stim_LEFT.wav	1	27	blb_dichoticlistening_pa-ga.mp3	pa	ga	1	right
6.6.1	win	2023-07-10	12:23:07	12:33:47	636266	6329f8bd8622aaba8e13a6d7	2	1	main_z	24	main_z	73	stimuli_distractor_trianglediamonds.svg	stimuli_distractor_diamondtriangles.svg	36	no	0	1	2000	6	1	antiphase_hc_iso.wav	2	6	1	noise_calib_stim_LEFT.wav	1	27	blb_dichoticlistening_pa-ga.mp3	pa	ga	1	right
6.6.1	win	2023-07-10	12:23:07	12:33:47	636266	6329f8bd8622aaba8e13a6d7	2	1	main_z	24	advance_on_keypress_ZEE	74	stimuli_distractor_trianglediamonds.svg	stimuli_distractor_diamondtriangles.svg	36	no	57	0	495	6	1	antiphase_hc_iso.wav	2	6	1	noise_calib_stim_LEFT.wav	1	27	blb_dichoticlistening_pa-ga.mp3	pa	ga	1	right
6.6.1	win	2023-07-10	12:23:07	12:33:49	638177	6329f8bd8622aaba8e13a6d7	2	1	main_z	24	main_z	75	stimuli_distractor_trianglediamonds.svg	stimuli_target_trianglerectangles.svg	25	yes	44	1	779	6	1	antiphase_hc_iso.wav	2	6	1	noise_calib_stim_LEFT.wav	1	27	blb_dichoticlistening_pa-ga.mp3	pa	ga	1	right
6.6.1	win	2023-07-10	12:23:07	12:33:49	638177	6329f8bd8622aaba8e13a6d7	2	1	main_z	24	advance_on_keypress_ZEE	76	stimuli_distractor_trianglediamonds.svg	stimuli_target_trianglerectangles.svg	25	yes	57	0	76	6	1	antiphase_hc_iso.wav	2	6	1	noise_calib_stim_LEFT.wav	1	27	blb_dichoticlistening_pa-ga.mp3	pa	ga	1	right
6.6.1	win	2023-07-10	12:23:07	12:33:50	639537	6329f8bd8622aaba8e13a6d7	2	1	main_z	24	main_z	77	stimuli_distractor_trianglediamonds.svg	stimuli_target_rectangletriangles.svg	9	yes	44	1	655	6	1	antiphase_hc_iso.wav	2	6	1	noise_calib_stim_LEFT.wav	1	27	blb_dichoticlistening_pa-ga.mp3	pa	ga	1	right
6.6.1	win	2023-07-10	12:23:07	12:33:50	639537	6329f8bd8622aaba8e13a6d7	2	1	main_z	24	advance_on_keypress_ZEE	78	stimuli_distractor_trianglediamonds.svg	stimuli_target_rectangletriangles.svg	9	yes	57	0	44	6	1	antiphase_hc_iso.wav	2	6	1	noise_calib_stim_LEFT.wav	1	27	blb_dichoticlistening_pa-ga.mp3	pa	ga	1	right
6.6.1	win	2023-07-10	12:23:07	12:33:53	642215	6329f8bd8622aaba8e13a6d7	2	1	main_z	24	main_z	79	stimuli_target_trianglerectangles.svg	stimuli_distractor_diamondtriangles.svg	21	yes	0	0	2000	6	1	antiphase_hc_iso.wav	2	6	1	noise_calib_stim_LEFT.wav	1	27	blb_dichoticlistening_pa-ga.mp3	pa	ga	1	right
6.6.1	win	2023-07-10	12:23:07	12:33:53	642215	6329f8bd8622aaba8e13a6d7	2	1	main_z	24	advance_on_keypress_ZEE	80	stimuli_target_trianglerectangles.svg	stimuli_distractor_diamondtriangles.svg	21	yes	57	0	385	6	1	antiphase_hc_iso.wav	2	6	1	noise_calib_stim_LEFT.wav	1	27	blb_dichoticlistening_pa-ga.mp3	pa	ga	1	right
6.6.1	win	2023-07-10	12:23:07	12:33:55	643913	6329f8bd8622aaba8e13a6d7	2	1	main_z	24	main_z	81	stimuli_target_squarediamonds.svg	stimuli_distractor_trianglediamonds.svg	4	yes	44	1	666	6	1	antiphase_hc_iso.wav	2	6	1	noise_calib_stim_LEFT.wav	1	27	blb_dichoticlistening_pa-ga.mp3	pa	ga	1	right
6.6.1	win	2023-07-10	12:23:07	12:33:55	643913	6329f8bd8622aaba8e13a6d7	2	1	main_z	24	advance_on_keypress_ZEE	82	stimuli_target_squarediamonds.svg	stimuli_distractor_trianglediamonds.svg	4	yes	57	0	53	6	1	antiphase_hc_iso.wav	2	6	1	noise_calib_stim_LEFT.wav	1	27	blb_dichoticlistening_pa-ga.mp3	pa	ga	1	right
6.6.1	win	2023-07-10	12:23:07	12:33:56	645177	6329f8bd8622aaba8e13a6d7	2	1	main_z	24	main_z	83	stimuli_target_rectanglediamonds.svg	stimuli_distractor_trianglediamonds.svg	2	yes	44	1	562	6	1	antiphase_hc_iso.wav	2	6	1	noise_calib_stim_LEFT.wav	1	27	blb_dichoticlistening_pa-ga.mp3	pa	ga	1	right
6.6.1	win	2023-07-10	12:23:07	12:33:56	645177	6329f8bd8622aaba8e13a6d7	2	1	main_z	24	advance_on_keypress_ZEE	84	stimuli_target_rectanglediamonds.svg	stimuli_distractor_trianglediamonds.svg	2	yes	57	0	51	6	1	antiphase_hc_iso.wav	2	6	1	noise_calib_stim_LEFT.wav	1	27	blb_dichoticlistening_pa-ga.mp3	pa	ga	1	right
6.6.1	win	2023-07-10	12:23:07	12:33:58	647513	6329f8bd8622aaba8e13a6d7	2	1	main_z	24	main_z	85	stimuli_target_diamondsquares.svg	stimuli_distractor_trianglediamonds.svg	20	yes	44	1	1648	6	1	antiphase_hc_iso.wav	2	6	1	noise_calib_stim_LEFT.wav	1	27	blb_dichoticlistening_pa-ga.mp3	pa	ga	1	right
6.6.1	win	2023-07-10	12:23:07	12:33:58	647513	6329f8bd8622aaba8e13a6d7	2	1	main_z	24	advance_on_keypress_ZEE	86	stimuli_target_diamondsquares.svg	stimuli_distractor_trianglediamonds.svg	20	yes	57	0	29	6	1	antiphase_hc_iso.wav	2	6	1	noise_calib_stim_LEFT.wav	1	27	blb_dichoticlistening_pa-ga.mp3	pa	ga	1	right
6.6.1	win	2023-07-10	12:23:07	12:34:00	648889	6329f8bd8622aaba8e13a6d7	2	1	main_z	24	main_z	87	stimuli_target_diamondsquares.svg	stimuli_distractor_diamondtriangles.svg	24	yes	44	1	707	6	1	antiphase_hc_iso.wav	2	6	1	noise_calib_stim_LEFT.wav	1	27	blb_dichoticlistening_pa-ga.mp3	pa	ga	1	right
6.6.1	win	2023-07-10	12:23:07	12:34:00	648889	6329f8bd8622aaba8e13a6d7	2	1	main_z	24	advance_on_keypress_ZEE	88	stimuli_target_diamondsquares.svg	stimuli_distractor_diamondtriangles.svg	24	yes	57	0	87	6	1	antiphase_hc_iso.wav	2	6	1	noise_calib_stim_LEFT.wav	1	27	blb_dichoticlistening_pa-ga.mp3	pa	ga	1	right
6.6.1	win	2023-07-10	12:23:07	12:34:02	651615	6329f8bd8622aaba8e13a6d7	2	1	main_z	24	main_z	89	stimuli_distractor_trianglediamonds.svg	stimuli_distractor_trianglediamonds.svg	33	no	0	1	2000	6	1	antiphase_hc_iso.wav	2	6	1	noise_calib_stim_LEFT.wav	1	27	blb_dichoticlistening_pa-ga.mp3	pa	ga	1	right
6.6.1	win	2023-07-10	12:23:07	12:34:02	651615	6329f8bd8622aaba8e13a6d7	2	1	main_z	24	advance_on_keypress_ZEE	90	stimuli_distractor_trianglediamonds.svg	stimuli_distractor_trianglediamonds.svg	33	no	57	0	362	6	1	antiphase_hc_iso.wav	2	6	1	noise_calib_stim_LEFT.wav	1	27	blb_dichoticlistening_pa-ga.mp3	pa	ga	1	right
6.6.1	win	2023-07-10	12:23:07	12:34:05	654615	6329f8bd8622aaba8e13a6d7	2	1	main_z	24	main_z	91	stimuli_distractor_diamondtriangles.svg	stimuli_distractor_trianglediamonds.svg	37	no	0	1	2000	6	1	antiphase_hc_iso.wav	2	6	1	noise_calib_stim_LEFT.wav	1	27	blb_dichoticlistening_pa-ga.mp3	pa	ga	1	right
6.6.1	win	2023-07-10	12:23:07	12:34:05	654615	6329f8bd8622aaba8e13a6d7	2	1	main_z	24	advance_on_keypress_ZEE	92	stimuli_distractor_diamondtriangles.svg	stimuli_distractor_trianglediamonds.svg	37	no	57	0	306	6	1	antiphase_hc_iso.wav	2	6	1	noise_calib_stim_LEFT.wav	1	27	blb_dichoticlistening_pa-ga.mp3	pa	ga	1	right
6.6.1	win	2023-07-10	12:23:07	12:34:07	656360	6329f8bd8622aaba8e13a6d7	2	1	main_z	24	main_z	93	stimuli_distractor_diamondtriangles.svg	stimuli_target_trianglesquares.svg	30	yes	44	1	796	6	1	antiphase_hc_iso.wav	2	6	1	noise_calib_stim_LEFT.wav	1	27	blb_dichoticlistening_pa-ga.mp3	pa	ga	1	right
6.6.1	win	2023-07-10	12:23:07	12:34:07	656360	6329f8bd8622aaba8e13a6d7	2	1	main_z	24	advance_on_keypress_ZEE	94	stimuli_distractor_diamondtriangles.svg	stimuli_target_trianglesquares.svg	30	yes	57	0	68	6	1	antiphase_hc_iso.wav	2	6	1	noise_calib_stim_LEFT.wav	1	27	blb_dichoticlistening_pa-ga.mp3	pa	ga	1	right
6.6.1	win	2023-07-10	12:23:07	12:34:09	658330	6329f8bd8622aaba8e13a6d7	2	1	main_z	24	main_z	95	stimuli_target_squarediamonds.svg	stimuli_distractor_diamondtriangles.svg	8	yes	44	1	1265	6	1	antiphase_hc_iso.wav	2	6	1	noise_calib_stim_LEFT.wav	1	27	blb_dichoticlistening_pa-ga.mp3	pa	ga	1	right
6.6.1	win	2023-07-10	12:23:07	12:34:09	658330	6329f8bd8622aaba8e13a6d7	2	1	main_z	24	advance_on_keypress_ZEE	96	stimuli_target_squarediamonds.svg	stimuli_distractor_diamondtriangles.svg	8	yes	57	0	54	6	1	antiphase_hc_iso.wav	2	6	1	noise_calib_stim_LEFT.wav	1	27	blb_dichoticlistening_pa-ga.mp3	pa	ga	1	right
6.6.1	win	2023-07-10	12:23:07	12:34:10	659600	6329f8bd8622aaba8e13a6d7	2	1	main_z	24	main_z	97	stimuli_distractor_diamondtriangles.svg	stimuli_target_rectangletriangles.svg	13	yes	44	1	570	6	1	antiphase_hc_iso.wav	2	6	1	noise_calib_stim_LEFT.wav	1	27	blb_dichoticlistening_pa-ga.mp3	pa	ga	1	right
6.6.1	win	2023-07-10	12:23:07	12:34:10	659600	6329f8bd8622aaba8e13a6d7	2	1	main_z	24	advance_on_keypress_ZEE	98	stimuli_distractor_diamondtriangles.svg	stimuli_target_rectangletriangles.svg	13	yes	57	0	42	6	1	antiphase_hc_iso.wav	2	6	1	noise_calib_stim_LEFT.wav	1	27	blb_dichoticlistening_pa-ga.mp3	pa	ga	1	right
6.6.1	win	2023-07-10	12:23:07	12:34:13	662281	6329f8bd8622aaba8e13a6d7	2	1	main_z	24	main_z	99	stimuli_distractor_trianglediamonds.svg	stimuli_distractor_trianglediamonds.svg	34	no	0	1	2000	6	1	antiphase_hc_iso.wav	2	6	1	noise_calib_stim_LEFT.wav	1	27	blb_dichoticlistening_pa-ga.mp3	pa	ga	1	right
6.6.1	win	2023-07-10	12:23:07	12:34:13	662281	6329f8bd8622aaba8e13a6d7	2	1	main_z	24	advance_on_keypress_ZEE	100	stimuli_distractor_trianglediamonds.svg	stimuli_distractor_trianglediamonds.svg	34	no	57	0	279	6	1	antiphase_hc_iso.wav	2	6	1	noise_calib_stim_LEFT.wav	1	27	blb_dichoticlistening_pa-ga.mp3	pa	ga	1	right
6.6.1	win	2023-07-10	12:23:07	12:34:16	665198	6329f8bd8622aaba8e13a6d7	2	1	main_z	24	main_z	101	stimuli_distractor_diamondtriangles.svg	stimuli_distractor_diamondtriangles.svg	39	no	0	1	2000	6	1	antiphase_hc_iso.wav	2	6	1	noise_calib_stim_LEFT.wav	1	27	blb_dichoticlistening_pa-ga.mp3	pa	ga	1	right
6.6.1	win	2023-07-10	12:23:07	12:34:16	665198	6329f8bd8622aaba8e13a6d7	2	1	main_z	24	advance_on_keypress_ZEE	102	stimuli_distractor_diamondtriangles.svg	stimuli_distractor_diamondtriangles.svg	39	no	57	0	339	6	1	antiphase_hc_iso.wav	2	6	1	noise_calib_stim_LEFT.wav	1	27	blb_dichoticlistening_pa-ga.mp3	pa	ga	1	right
6.6.1	win	2023-07-10	12:23:07	12:34:18	666945	6329f8bd8622aaba8e13a6d7	2	1	main_z	24	main_z	103	stimuli_target_diamondrectangles.svg	stimuli_distractor_diamondtriangles.svg	23	yes	44	1	764	6	1	antiphase_hc_iso.wav	2	6	1	noise_calib_stim_LEFT.wav	1	27	blb_dichoticlistening_pa-ga.mp3	pa	ga	1	right
6.6.1	win	2023-07-10	12:23:07	12:34:18	666945	6329f8bd8622aaba8e13a6d7	2	1	main_z	24	advance_on_keypress_ZEE	104	stimuli_target_diamondrectangles.svg	stimuli_distractor_diamondtriangles.svg	23	yes	57	0	30	6	1	antiphase_hc_iso.wav	2	6	1	noise_calib_stim_LEFT.wav	1	27	blb_dichoticlistening_pa-ga.mp3	pa	ga	1	right
6.6.1	win	2023-07-10	12:23:07	12:34:19	668153	6329f8bd8622aaba8e13a6d7	2	1	main_z	24	main_z	105	stimuli_target_trianglesquares.svg	stimuli_distractor_trianglediamonds.svg	18	yes	44	1	539	6	1	antiphase_hc_iso.wav	2	6	1	noise_calib_stim_LEFT.wav	1	27	blb_dichoticlistening_pa-ga.mp3	pa	ga	1	right
6.6.1	win	2023-07-10	12:23:07	12:34:19	668153	6329f8bd8622aaba8e13a6d7	2	1	main_z	24	advance_on_keypress_ZEE	106	stimuli_target_trianglesquares.svg	stimuli_distractor_trianglediamonds.svg	18	yes	57	0	29	6	1	antiphase_hc_iso.wav	2	6	1	noise_calib_stim_LEFT.wav	1	27	blb_dichoticlistening_pa-ga.mp3	pa	ga	1	right
6.6.1	win	2023-07-10	12:23:07	12:34:20	669609	6329f8bd8622aaba8e13a6d7	2	1	main_z	24	main_z	107	stimuli_distractor_trianglediamonds.svg	stimuli_target_diamondsquares.svg	28	yes	44	1	796	6	1	antiphase_hc_iso.wav	2	6	1	noise_calib_stim_LEFT.wav	1	27	blb_dichoticlistening_pa-ga.mp3	pa	ga	1	right
6.6.1	win	2023-07-10	12:23:07	12:34:20	669609	6329f8bd8622aaba8e13a6d7	2	1	main_z	24	advance_on_keypress_ZEE	108	stimuli_distractor_trianglediamonds.svg	stimuli_target_diamondsquares.svg	28	yes	57	0	27	6	1	antiphase_hc_iso.wav	2	6	1	noise_calib_stim_LEFT.wav	1	27	blb_dichoticlistening_pa-ga.mp3	pa	ga	1	right
6.6.1	win	2023-07-10	12:23:07	12:34:23	672264	6329f8bd8622aaba8e13a6d7	2	1	main_z	24	main_z	109	stimuli_distractor_trianglediamonds.svg	stimuli_distractor_diamondtriangles.svg	35	no	0	1	2000	6	1	antiphase_hc_iso.wav	2	6	1	noise_calib_stim_LEFT.wav	1	27	blb_dichoticlistening_pa-ga.mp3	pa	ga	1	right
6.6.1	win	2023-07-10	12:23:07	12:34:23	672264	6329f8bd8622aaba8e13a6d7	2	1	main_z	24	advance_on_keypress_ZEE	110	stimuli_distractor_trianglediamonds.svg	stimuli_distractor_diamondtriangles.svg	35	no	57	0	280	6	1	antiphase_hc_iso.wav	2	6	1	noise_calib_stim_LEFT.wav	1	27	blb_dichoticlistening_pa-ga.mp3	pa	ga	1	right
6.6.1	win	2023-07-10	12:23:07	12:34:26	675180	6329f8bd8622aaba8e13a6d7	2	1	main_z	24	main_z	111	stimuli_distractor_diamondtriangles.svg	stimuli_distractor_diamondtriangles.svg	40	no	0	1	2000	6	1	antiphase_hc_iso.wav	2	6	1	noise_calib_stim_LEFT.wav	1	27	blb_dichoticlistening_pa-ga.mp3	pa	ga	1	right
6.6.1	win	2023-07-10	12:23:07	12:34:26	675180	6329f8bd8622aaba8e13a6d7	2	1	main_z	24	advance_on_keypress_ZEE	112	stimuli_distractor_diamondtriangles.svg	stimuli_distractor_diamondtriangles.svg	40	no	57	0	268	6	1	antiphase_hc_iso.wav	2	6	1	noise_calib_stim_LEFT.wav	1	27	blb_dichoticlistening_pa-ga.mp3	pa	ga	1	right
6.6.1	win	2023-07-10	12:23:07	12:34:28	676801	6329f8bd8622aaba8e13a6d7	2	1	main_z	24	main_z	113	stimuli_distractor_trianglediamonds.svg	stimuli_target_trianglesquares.svg	26	yes	44	1	705	6	1	antiphase_hc_iso.wav	2	6	1	noise_calib_stim_LEFT.wav	1	27	blb_dichoticlistening_pa-ga.mp3	pa	ga	1	right
6.6.1	win	2023-07-10	12:23:07	12:34:28	676801	6329f8bd8622aaba8e13a6d7	2	1	main_z	24	advance_on_keypress_ZEE	114	stimuli_distractor_trianglediamonds.svg	stimuli_target_trianglesquares.svg	26	yes	57	0	51	6	1	antiphase_hc_iso.wav	2	6	1	noise_calib_stim_LEFT.wav	1	27	blb_dichoticlistening_pa-ga.mp3	pa	ga	1	right
6.6.1	win	2023-07-10	12:23:07	12:34:29	678105	6329f8bd8622aaba8e13a6d7	2	1	main_z	24	main_z	115	stimuli_distractor_trianglediamonds.svg	stimuli_target_trianglerectangles.svg	25	yes	44	1	608	6	1	antiphase_hc_iso.wav	2	6	1	noise_calib_stim_LEFT.wav	1	27	blb_dichoticlistening_pa-ga.mp3	pa	ga	1	right
6.6.1	win	2023-07-10	12:23:07	12:34:29	678105	6329f8bd8622aaba8e13a6d7	2	1	main_z	24	advance_on_keypress_ZEE	116	stimuli_distractor_trianglediamonds.svg	stimuli_target_trianglerectangles.svg	25	yes	57	0	31	6	1	antiphase_hc_iso.wav	2	6	1	noise_calib_stim_LEFT.wav	1	27	blb_dichoticlistening_pa-ga.mp3	pa	ga	1	right
6.6.1	win	2023-07-10	12:23:07	12:34:32	680780	6329f8bd8622aaba8e13a6d7	2	1	main_z	24	main_z	117	stimuli_distractor_diamondtriangles.svg	stimuli_distractor_trianglediamonds.svg	38	no	0	1	2000	6	1	antiphase_hc_iso.wav	2	6	1	noise_calib_stim_LEFT.wav	1	27	blb_dichoticlistening_pa-ga.mp3	pa	ga	1	right
6.6.1	win	2023-07-10	12:23:07	12:34:32	680780	6329f8bd8622aaba8e13a6d7	2	1	main_z	24	advance_on_keypress_ZEE	118	stimuli_distractor_diamondtriangles.svg	stimuli_distractor_trianglediamonds.svg	38	no	57	0	284	6	1	antiphase_hc_iso.wav	2	6	1	noise_calib_stim_LEFT.wav	1	27	blb_dichoticlistening_pa-ga.mp3	pa	ga	1	right
6.6.1	win	2023-07-10	12:23:07	12:34:33	682185	6329f8bd8622aaba8e13a6d7	2	1	main_z	24	main_z	119	stimuli_distractor_diamondtriangles.svg	stimuli_target_squarediamonds.svg	16	yes	44	1	471	6	1	antiphase_hc_iso.wav	2	6	1	noise_calib_stim_LEFT.wav	1	27	blb_dichoticlistening_pa-ga.mp3	pa	ga	1	right
6.6.1	win	2023-07-10	12:23:07	12:34:33	682185	6329f8bd8622aaba8e13a6d7	2	1	main_z	24	advance_on_keypress_ZEE	120	stimuli_distractor_diamondtriangles.svg	stimuli_target_squarediamonds.svg	16	yes	57	0	52	6	1	antiphase_hc_iso.wav	2	6	1	noise_calib_stim_LEFT.wav	1	27	blb_dichoticlistening_pa-ga.mp3	pa	ga	1	right
6.6.1	win	2023-07-10	12:23:07	12:34:34	683569	6329f8bd8622aaba8e13a6d7	2	1	main_z	24	main_z	121	stimuli_distractor_trianglediamonds.svg	stimuli_target_diamondrectangles.svg	27	yes	44	1	690	6	1	antiphase_hc_iso.wav	2	6	1	noise_calib_stim_LEFT.wav	1	27	blb_dichoticlistening_pa-ga.mp3	pa	ga	1	right
6.6.1	win	2023-07-10	12:23:07	12:34:34	683569	6329f8bd8622aaba8e13a6d7	2	1	main_z	24	advance_on_keypress_ZEE	122	stimuli_distractor_trianglediamonds.svg	stimuli_target_diamondrectangles.svg	27	yes	57	0	54	6	1	antiphase_hc_iso.wav	2	6	1	noise_calib_stim_LEFT.wav	1	27	blb_dichoticlistening_pa-ga.mp3	pa	ga	1	right
6.6.1	win	2023-07-10	12:23:07	12:34:36	684953	6329f8bd8622aaba8e13a6d7	2	1	main_z	24	main_z	123	stimuli_target_diamondrectangles.svg	stimuli_distractor_trianglediamonds.svg	19	yes	44	1	689	6	1	antiphase_hc_iso.wav	2	6	1	noise_calib_stim_LEFT.wav	1	27	blb_dichoticlistening_pa-ga.mp3	pa	ga	1	right
6.6.1	win	2023-07-10	12:23:07	12:34:36	684953	6329f8bd8622aaba8e13a6d7	2	1	main_z	24	advance_on_keypress_ZEE	124	stimuli_target_diamondrectangles.svg	stimuli_distractor_trianglediamonds.svg	19	yes	57	0	4	6	1	antiphase_hc_iso.wav	2	6	1	noise_calib_stim_LEFT.wav	1	27	blb_dichoticlistening_pa-ga.mp3	pa	ga	1	right
6.6.1	win	2023-07-10	12:23:07	12:34:37	686193	6329f8bd8622aaba8e13a6d7	2	1	main_z	24	main_z	125	stimuli_distractor_diamondtriangles.svg	stimuli_target_squaretriangles.svg	15	yes	44	1	579	6	1	antiphase_hc_iso.wav	2	6	1	noise_calib_stim_LEFT.wav	1	27	blb_dichoticlistening_pa-ga.mp3	pa	ga	1	right
6.6.1	win	2023-07-10	12:23:07	12:34:37	686193	6329f8bd8622aaba8e13a6d7	2	1	main_z	24	advance_on_keypress_ZEE	126	stimuli_distractor_diamondtriangles.svg	stimuli_target_squaretriangles.svg	15	yes	57	0	76	6	1	antiphase_hc_iso.wav	2	6	1	noise_calib_stim_LEFT.wav	1	27	blb_dichoticlistening_pa-ga.mp3	pa	ga	1	right
6.6.1	win	2023-07-10	12:23:07	12:34:38	687489	6329f8bd8622aaba8e13a6d7	2	1	main_z	24	main_z	127	stimuli_distractor_trianglediamonds.svg	stimuli_target_squaretriangles.svg	11	yes	44	1	592	6	1	antiphase_hc_iso.wav	2	6	1	noise_calib_stim_LEFT.wav	1	27	blb_dichoticlistening_pa-ga.mp3	pa	ga	1	right
6.6.1	win	2023-07-10	12:23:07	12:34:38	687489	6329f8bd8622aaba8e13a6d7	2	1	main_z	24	advance_on_keypress_ZEE	128	stimuli_distractor_trianglediamonds.svg	stimuli_target_squaretriangles.svg	11	yes	57	0	64	6	1	antiphase_hc_iso.wav	2	6	1	noise_calib_stim_LEFT.wav	1	27	blb_dichoticlistening_pa-ga.mp3	pa	ga	1	right
6.6.1	win	2023-07-10	12:23:07	12:34:40	688713	6329f8bd8622aaba8e13a6d7	2	1	main_z	24	main_z	129	stimuli_target_rectangletriangles.svg	stimuli_distractor_diamondtriangles.svg	5	yes	44	1	500	6	1	antiphase_hc_iso.wav	2	6	1	noise_calib_stim_LEFT.wav	1	27	blb_dichoticlistening_pa-ga.mp3	pa	ga	1	right
6.6.1	win	2023-07-10	12:23:07	12:34:40	688713	6329f8bd8622aaba8e13a6d7	2	1	main_z	24	advance_on_keypress_ZEE	130	stimuli_target_rectangletriangles.svg	stimuli_distractor_diamondtriangles.svg	5	yes	57	0	48	6	1	antiphase_hc_iso.wav	2	6	1	noise_calib_stim_LEFT.wav	1	27	blb_dichoticlistening_pa-ga.mp3	pa	ga	1	right
6.6.1	win	2023-07-10	12:23:07	12:34:41	689857	6329f8bd8622aaba8e13a6d7	2	1	main_z	24	main_z	131	stimuli_target_squaretriangles.svg	stimuli_distractor_diamondtriangles.svg	7	yes	44	1	443	6	1	antiphase_hc_iso.wav	2	6	1	noise_calib_stim_LEFT.wav	1	27	blb_dichoticlistening_pa-ga.mp3	pa	ga	1	right
6.6.1	win	2023-07-10	12:23:07	12:34:41	689857	6329f8bd8622aaba8e13a6d7	2	1	main_z	24	advance_on_keypress_ZEE	132	stimuli_target_squaretriangles.svg	stimuli_distractor_diamondtriangles.svg	7	yes	57	0	49	6	1	antiphase_hc_iso.wav	2	6	1	noise_calib_stim_LEFT.wav	1	27	blb_dichoticlistening_pa-ga.mp3	pa	ga	1	right
6.6.1	win	2023-07-10	12:23:07	12:34:42	691104	6329f8bd8622aaba8e13a6d7	2	1	main_z	24	main_z	133	stimuli_distractor_trianglediamonds.svg	stimuli_target_rectangletriangles.svg	9	yes	44	1	558	6	1	antiphase_hc_iso.wav	2	6	1	noise_calib_stim_LEFT.wav	1	27	blb_dichoticlistening_pa-ga.mp3	pa	ga	1	right
6.6.1	win	2023-07-10	12:23:07	12:34:42	691104	6329f8bd8622aaba8e13a6d7	2	1	main_z	24	advance_on_keypress_ZEE	134	stimuli_distractor_trianglediamonds.svg	stimuli_target_rectangletriangles.svg	9	yes	57	0	24	6	1	antiphase_hc_iso.wav	2	6	1	noise_calib_stim_LEFT.wav	1	27	blb_dichoticlistening_pa-ga.mp3	pa	ga	1	right
6.6.1	win	2023-07-10	12:23:07	12:34:43	692499	6329f8bd8622aaba8e13a6d7	2	1	main_z	24	main_z	135	stimuli_distractor_diamondtriangles.svg	stimuli_target_diamondrectangles.svg	31	yes	44	1	734	6	1	antiphase_hc_iso.wav	2	6	1	noise_calib_stim_LEFT.wav	1	27	blb_dichoticlistening_pa-ga.mp3	pa	ga	1	right
6.6.1	win	2023-07-10	12:23:07	12:34:43	692499	6329f8bd8622aaba8e13a6d7	2	1	main_z	24	advance_on_keypress_ZEE	136	stimuli_distractor_diamondtriangles.svg	stimuli_target_diamondrectangles.svg	31	yes	57	0	33	6	1	antiphase_hc_iso.wav	2	6	1	noise_calib_stim_LEFT.wav	1	27	blb_dichoticlistening_pa-ga.mp3	pa	ga	1	right
6.6.1	win	2023-07-10	12:23:07	12:34:45	694632	6329f8bd8622aaba8e13a6d7	2	1	main_z	24	main_z	137	stimuli_distractor_diamondtriangles.svg	stimuli_target_trianglerectangles.svg	29	yes	44	1	1453	6	1	antiphase_hc_iso.wav	2	6	1	noise_calib_stim_LEFT.wav	1	27	blb_dichoticlistening_pa-ga.mp3	pa	ga	1	right
6.6.1	win	2023-07-10	12:23:07	12:34:45	694632	6329f8bd8622aaba8e13a6d7	2	1	main_z	24	advance_on_keypress_ZEE	138	stimuli_distractor_diamondtriangles.svg	stimuli_target_trianglerectangles.svg	29	yes	57	0	18	6	1	antiphase_hc_iso.wav	2	6	1	noise_calib_stim_LEFT.wav	1	27	blb_dichoticlistening_pa-ga.mp3	pa	ga	1	right
6.6.1	win	2023-07-10	12:23:07	12:34:47	695833	6329f8bd8622aaba8e13a6d7	2	1	main_z	24	main_z	139	stimuli_distractor_diamondtriangles.svg	stimuli_target_rectanglediamonds.svg	14	yes	44	1	536	6	1	antiphase_hc_iso.wav	2	6	1	noise_calib_stim_LEFT.wav	1	27	blb_dichoticlistening_pa-ga.mp3	pa	ga	1	right
6.6.1	win	2023-07-10	12:23:07	12:34:47	695833	6329f8bd8622aaba8e13a6d7	2	1	main_z	24	advance_on_keypress_ZEE	140	stimuli_distractor_diamondtriangles.svg	stimuli_target_rectanglediamonds.svg	14	yes	57	0	50	6	1	antiphase_hc_iso.wav	2	6	1	noise_calib_stim_LEFT.wav	1	27	blb_dichoticlistening_pa-ga.mp3	pa	ga	1	right
6.6.1	win	2023-07-10	12:23:07	12:34:48	697569	6329f8bd8622aaba8e13a6d7	2	1	main_z	24	main_z	141	stimuli_target_trianglesquares.svg	stimuli_distractor_diamondtriangles.svg	22	yes	44	1	1039	6	1	antiphase_hc_iso.wav	2	6	1	noise_calib_stim_LEFT.wav	1	27	blb_dichoticlistening_pa-ga.mp3	pa	ga	1	right
6.6.1	win	2023-07-10	12:23:07	12:34:48	697569	6329f8bd8622aaba8e13a6d7	2	1	main_z	24	advance_on_keypress_ZEE	142	stimuli_target_trianglesquares.svg	stimuli_distractor_diamondtriangles.svg	22	yes	57	0	6	6	1	antiphase_hc_iso.wav	2	6	1	noise_calib_stim_LEFT.wav	1	27	blb_dichoticlistening_pa-ga.mp3	pa	ga	1	right
6.6.1	win	2023-07-10	12:23:07	12:34:50	698705	6329f8bd8622aaba8e13a6d7	2	1	main_z	24	main_z	143	stimuli_target_trianglerectangles.svg	stimuli_distractor_diamondtriangles.svg	21	yes	44	1	475	6	1	antiphase_hc_iso.wav	2	6	1	noise_calib_stim_LEFT.wav	1	27	blb_dichoticlistening_pa-ga.mp3	pa	ga	1	right
6.6.1	win	2023-07-10	12:23:07	12:34:50	698705	6329f8bd8622aaba8e13a6d7	2	1	main_z	24	advance_on_keypress_ZEE	144	stimuli_target_trianglerectangles.svg	stimuli_distractor_diamondtriangles.svg	21	yes	57	0	40	6	1	antiphase_hc_iso.wav	2	6	1	noise_calib_stim_LEFT.wav	1	27	blb_dichoticlistening_pa-ga.mp3	pa	ga	1	right
6.6.1	win	2023-07-10	12:23:07	12:34:51	700449	6329f8bd8622aaba8e13a6d7	2	1	main_z	24	main_z	145	stimuli_distractor_trianglediamonds.svg	stimuli_target_squarediamonds.svg	12	yes	44	1	1069	6	1	antiphase_hc_iso.wav	2	6	1	noise_calib_stim_LEFT.wav	1	27	blb_dichoticlistening_pa-ga.mp3	pa	ga	1	right
6.6.1	win	2023-07-10	12:23:07	12:34:51	700449	6329f8bd8622aaba8e13a6d7	2	1	main_z	24	advance_on_keypress_ZEE	146	stimuli_distractor_trianglediamonds.svg	stimuli_target_squarediamonds.svg	12	yes	57	0	18	6	1	antiphase_hc_iso.wav	2	6	1	noise_calib_stim_LEFT.wav	1	27	blb_dichoticlistening_pa-ga.mp3	pa	ga	1	right
6.6.1	win	2023-07-10	12:23:07	12:34:52	701633	6329f8bd8622aaba8e13a6d7	2	1	main_z	24	main_z	147	stimuli_target_squaretriangles.svg	stimuli_distractor_trianglediamonds.svg	3	yes	44	1	521	6	1	antiphase_hc_iso.wav	2	6	1	noise_calib_stim_LEFT.wav	1	27	blb_dichoticlistening_pa-ga.mp3	pa	ga	1	right
6.6.1	win	2023-07-10	12:23:07	12:34:52	701633	6329f8bd8622aaba8e13a6d7	2	1	main_z	24	advance_on_keypress_ZEE	148	stimuli_target_squaretriangles.svg	stimuli_distractor_trianglediamonds.svg	3	yes	57	0	66	6	1	antiphase_hc_iso.wav	2	6	1	noise_calib_stim_LEFT.wav	1	27	blb_dichoticlistening_pa-ga.mp3	pa	ga	1	right
6.6.1	win	2023-07-10	12:23:07	12:34:54	702873	6329f8bd8622aaba8e13a6d7	2	1	main_z	24	main_z	149	stimuli_distractor_trianglediamonds.svg	stimuli_target_rectanglediamonds.svg	10	yes	44	1	527	6	1	antiphase_hc_iso.wav	2	6	1	noise_calib_stim_LEFT.wav	1	27	blb_dichoticlistening_pa-ga.mp3	pa	ga	1	right
6.6.1	win	2023-07-10	12:23:07	12:34:54	702873	6329f8bd8622aaba8e13a6d7	2	1	main_z	24	advance_on_keypress_ZEE	150	stimuli_distractor_trianglediamonds.svg	stimuli_target_rectanglediamonds.svg	10	yes	57	0	57	6	1	antiphase_hc_iso.wav	2	6	1	noise_calib_stim_LEFT.wav	1	27	blb_dichoticlistening_pa-ga.mp3	pa	ga	1	right
6.6.1	win	2023-07-10	12:23:07	12:34:56	705563	6329f8bd8622aaba8e13a6d7	2	1	main_z	24	main_z	151	stimuli_distractor_trianglediamonds.svg	stimuli_distractor_diamondtriangles.svg	36	no	0	1	2000	6	1	antiphase_hc_iso.wav	2	6	1	noise_calib_stim_LEFT.wav	1	27	blb_dichoticlistening_pa-ga.mp3	pa	ga	1	right
6.6.1	win	2023-07-10	12:23:07	12:34:56	705563	6329f8bd8622aaba8e13a6d7	2	1	main_z	24	advance_on_keypress_ZEE	152	stimuli_distractor_trianglediamonds.svg	stimuli_distractor_diamondtriangles.svg	36	no	57	0	333	6	1	antiphase_hc_iso.wav	2	6	1	noise_calib_stim_LEFT.wav	1	27	blb_dichoticlistening_pa-ga.mp3	pa	ga	1	right
6.6.1	win	2023-07-10	12:23:07	12:34:58	707025	6329f8bd8622aaba8e13a6d7	2	1	main_z	24	main_z	153	stimuli_target_rectangletriangles.svg	stimuli_distractor_trianglediamonds.svg	1	yes	44	1	480	6	1	antiphase_hc_iso.wav	2	6	1	noise_calib_stim_LEFT.wav	1	27	blb_dichoticlistening_pa-ga.mp3	pa	ga	1	right
6.6.1	win	2023-07-10	12:23:07	12:34:58	707025	6329f8bd8622aaba8e13a6d7	2	1	main_z	24	advance_on_keypress_ZEE	154	stimuli_target_rectangletriangles.svg	stimuli_distractor_trianglediamonds.svg	1	yes	57	0	51	6	1	antiphase_hc_iso.wav	2	6	1	noise_calib_stim_LEFT.wav	1	27	blb_dichoticlistening_pa-ga.mp3	pa	ga	1	right
6.6.1	win	2023-07-10	12:23:07	12:34:59	708584	6329f8bd8622aaba8e13a6d7	2	1	main_z	24	main_z	155	stimuli_target_trianglerectangles.svg	stimuli_distractor_trianglediamonds.svg	17	yes	44	1	872	6	1	antiphase_hc_iso.wav	2	6	1	noise_calib_stim_LEFT.wav	1	27	blb_dichoticlistening_pa-ga.mp3	pa	ga	1	right
6.6.1	win	2023-07-10	12:23:07	12:34:59	708584	6329f8bd8622aaba8e13a6d7	2	1	main_z	24	advance_on_keypress_ZEE	156	stimuli_target_trianglerectangles.svg	stimuli_distractor_trianglediamonds.svg	17	yes	57	0	93	6	1	antiphase_hc_iso.wav	2	6	1	noise_calib_stim_LEFT.wav	1	27	blb_dichoticlistening_pa-ga.mp3	pa	ga	1	right
6.6.1	win	2023-07-10	12:23:07	12:35:01	710001	6329f8bd8622aaba8e13a6d7	2	1	main_z	24	main_z	157	stimuli_distractor_diamondtriangles.svg	stimuli_target_diamondsquares.svg	32	yes	44	1	688	6	1	antiphase_hc_iso.wav	2	6	1	noise_calib_stim_LEFT.wav	1	27	blb_dichoticlistening_pa-ga.mp3	pa	ga	1	right
6.6.1	win	2023-07-10	12:23:07	12:35:01	710001	6329f8bd8622aaba8e13a6d7	2	1	main_z	24	advance_on_keypress_ZEE	158	stimuli_distractor_diamondtriangles.svg	stimuli_target_diamondsquares.svg	32	yes	57	0	44	6	1	antiphase_hc_iso.wav	2	6	1	noise_calib_stim_LEFT.wav	1	27	blb_dichoticlistening_pa-ga.mp3	pa	ga	1	right
6.6.1	win	2023-07-10	12:23:07	12:35:02	711305	6329f8bd8622aaba8e13a6d7	2	1	main_z	24	main_z	159	stimuli_target_rectanglediamonds.svg	stimuli_distractor_diamondtriangles.svg	6	yes	44	1	625	6	1	antiphase_hc_iso.wav	2	6	1	noise_calib_stim_LEFT.wav	1	27	blb_dichoticlistening_pa-ga.mp3	pa	ga	1	right
6.6.1	win	2023-07-10	12:23:07	12:35:02	711305	6329f8bd8622aaba8e13a6d7	2	1	main_z	24	advance_on_keypress_ZEE	160	stimuli_target_rectanglediamonds.svg	stimuli_distractor_diamondtriangles.svg	6	yes	57	0	40	6	1	antiphase_hc_iso.wav	2	6	1	noise_calib_stim_LEFT.wav	1	27	blb_dichoticlistening_pa-ga.mp3	pa	ga	1	right
6.6.1	win	2023-07-10	12:23:07	12:35:19	728002	6329f8bd8622aaba8e13a6d7	2	1	practice_slash	26	practice_slash	1	stimuli_distractor_diamondtriangles.svg	stimuli_target_trianglerectangles.svg	9	yes	53	1	689	6	1	antiphase_hc_iso.wav	2	6	1	noise_calib_stim_LEFT.wav	1	27	blb_dichoticlistening_pa-ga.mp3	pa	ga	1	right
6.6.1	win	2023-07-10	12:23:07	12:35:19	728002	6329f8bd8622aaba8e13a6d7	2	1	practice_slash	26	advance_on_keypress_SLASH	2	stimuli_distractor_diamondtriangles.svg	stimuli_target_trianglerectangles.svg	9	yes	57	0	413	6	1	antiphase_hc_iso.wav	2	6	1	noise_calib_stim_LEFT.wav	1	27	blb_dichoticlistening_pa-ga.mp3	pa	ga	1	right
6.6.1	win	2023-07-10	12:23:07	12:35:21	730595	6329f8bd8622aaba8e13a6d7	2	1	practice_slash	26	practice_slash	3	stimuli_target_rectanglediamonds.svg	stimuli_distractor_trianglediamonds.svg	4	yes	53	1	531	6	1	antiphase_hc_iso.wav	2	6	1	noise_calib_stim_LEFT.wav	1	27	blb_dichoticlistening_pa-ga.mp3	pa	ga	1	right
6.6.1	win	2023-07-10	12:23:07	12:35:21	730595	6329f8bd8622aaba8e13a6d7	2	1	practice_slash	26	advance_on_keypress_SLASH	4	stimuli_target_rectanglediamonds.svg	stimuli_distractor_trianglediamonds.svg	4	yes	57	0	269	6	1	antiphase_hc_iso.wav	2	6	1	noise_calib_stim_LEFT.wav	1	27	blb_dichoticlistening_pa-ga.mp3	pa	ga	1	right
6.6.1	win	2023-07-10	12:23:07	12:35:24	732979	6329f8bd8622aaba8e13a6d7	2	1	practice_slash	26	practice_slash	5	stimuli_distractor_diamondtriangles.svg	stimuli_target_rectangletriangles.svg	7	yes	53	1	465	6	1	antiphase_hc_iso.wav	2	6	1	noise_calib_stim_LEFT.wav	1	27	blb_dichoticlistening_pa-ga.mp3	pa	ga	1	right
6.6.1	win	2023-07-10	12:23:07	12:35:24	732979	6329f8bd8622aaba8e13a6d7	2	1	practice_slash	26	advance_on_keypress_SLASH	6	stimuli_distractor_diamondtriangles.svg	stimuli_target_rectangletriangles.svg	7	yes	57	0	517	6	1	antiphase_hc_iso.wav	2	6	1	noise_calib_stim_LEFT.wav	1	27	blb_dichoticlistening_pa-ga.mp3	pa	ga	1	right
6.6.1	win	2023-07-10	12:23:07	12:35:26	735563	6329f8bd8622aaba8e13a6d7	2	1	practice_slash	26	practice_slash	7	stimuli_distractor_trianglediamonds.svg	stimuli_target_rectanglediamonds.svg	10	yes	53	1	416	6	1	antiphase_hc_iso.wav	2	6	1	noise_calib_stim_LEFT.wav	1	27	blb_dichoticlistening_pa-ga.mp3	pa	ga	1	right
6.6.1	win	2023-07-10	12:23:07	12:35:26	735563	6329f8bd8622aaba8e13a6d7	2	1	practice_slash	26	advance_on_keypress_SLASH	8	stimuli_distractor_trianglediamonds.svg	stimuli_target_rectanglediamonds.svg	10	yes	57	0	278	6	1	antiphase_hc_iso.wav	2	6	1	noise_calib_stim_LEFT.wav	1	27	blb_dichoticlistening_pa-ga.mp3	pa	ga	1	right
6.6.1	win	2023-07-10	12:23:07	12:35:29	737953	6329f8bd8622aaba8e13a6d7	2	1	practice_slash	26	practice_slash	9	stimuli_target_diamondsquares.svg	stimuli_distractor_diamondtriangles.svg	3	yes	53	1	474	6	1	antiphase_hc_iso.wav	2	6	1	noise_calib_stim_LEFT.wav	1	27	blb_dichoticlistening_pa-ga.mp3	pa	ga	1	right
6.6.1	win	2023-07-10	12:23:07	12:35:29	737953	6329f8bd8622aaba8e13a6d7	2	1	practice_slash	26	advance_on_keypress_SLASH	10	stimuli_target_diamondsquares.svg	stimuli_distractor_diamondtriangles.svg	3	yes	57	0	447	6	1	antiphase_hc_iso.wav	2	6	1	noise_calib_stim_LEFT.wav	1	27	blb_dichoticlistening_pa-ga.mp3	pa	ga	1	right
6.6.1	win	2023-07-10	12:23:07	12:35:31	740522	6329f8bd8622aaba8e13a6d7	2	1	practice_slash	26	practice_slash	11	stimuli_target_squarediamonds.svg	stimuli_distractor_diamondtriangles.svg	2	yes	53	1	477	6	1	antiphase_hc_iso.wav	2	6	1	noise_calib_stim_LEFT.wav	1	27	blb_dichoticlistening_pa-ga.mp3	pa	ga	1	right
6.6.1	win	2023-07-10	12:23:07	12:35:31	740522	6329f8bd8622aaba8e13a6d7	2	1	practice_slash	26	advance_on_keypress_SLASH	12	stimuli_target_squarediamonds.svg	stimuli_distractor_diamondtriangles.svg	2	yes	57	0	8	6	1	antiphase_hc_iso.wav	2	6	1	noise_calib_stim_LEFT.wav	1	27	blb_dichoticlistening_pa-ga.mp3	pa	ga	1	right
6.6.1	win	2023-07-10	12:23:07	12:35:34	742658	6329f8bd8622aaba8e13a6d7	2	1	practice_slash	26	practice_slash	13	stimuli_target_squarediamonds.svg	stimuli_distractor_trianglediamonds.svg	5	yes	53	1	479	6	1	antiphase_hc_iso.wav	2	6	1	noise_calib_stim_LEFT.wav	1	27	blb_dichoticlistening_pa-ga.mp3	pa	ga	1	right
6.6.1	win	2023-07-10	12:23:07	12:35:34	742658	6329f8bd8622aaba8e13a6d7	2	1	practice_slash	26	advance_on_keypress_SLASH	14	stimuli_target_squarediamonds.svg	stimuli_distractor_trianglediamonds.svg	5	yes	57	0	299	6	1	antiphase_hc_iso.wav	2	6	1	noise_calib_stim_LEFT.wav	1	27	blb_dichoticlistening_pa-ga.mp3	pa	ga	1	right
6.6.1	win	2023-07-10	12:23:07	12:35:36	745242	6329f8bd8622aaba8e13a6d7	2	1	practice_slash	26	practice_slash	15	stimuli_target_diamondsquares.svg	stimuli_distractor_trianglediamonds.svg	6	yes	53	1	646	6	1	antiphase_hc_iso.wav	2	6	1	noise_calib_stim_LEFT.wav	1	27	blb_dichoticlistening_pa-ga.mp3	pa	ga	1	right
6.6.1	win	2023-07-10	12:23:07	12:35:36	745242	6329f8bd8622aaba8e13a6d7	2	1	practice_slash	26	advance_on_keypress_SLASH	16	stimuli_target_diamondsquares.svg	stimuli_distractor_trianglediamonds.svg	6	yes	57	0	452	6	1	antiphase_hc_iso.wav	2	6	1	noise_calib_stim_LEFT.wav	1	27	blb_dichoticlistening_pa-ga.mp3	pa	ga	1	right
6.6.1	win	2023-07-10	12:23:07	12:35:40	749329	6329f8bd8622aaba8e13a6d7	2	1	practice_slash	26	practice_slash	17	stimuli_distractor_trianglediamonds.svg	stimuli_distractor_trianglediamonds.svg	15	no	0	1	2000	6	1	antiphase_hc_iso.wav	2	6	1	noise_calib_stim_LEFT.wav	1	27	blb_dichoticlistening_pa-ga.mp3	pa	ga	1	right
6.6.1	win	2023-07-10	12:23:07	12:35:40	749329	6329f8bd8622aaba8e13a6d7	2	1	practice_slash	26	advance_on_keypress_SLASH	18	stimuli_distractor_trianglediamonds.svg	stimuli_distractor_trianglediamonds.svg	15	no	57	0	441	6	1	antiphase_hc_iso.wav	2	6	1	noise_calib_stim_LEFT.wav	1	27	blb_dichoticlistening_pa-ga.mp3	pa	ga	1	right
6.6.1	win	2023-07-10	12:23:07	12:35:43	752050	6329f8bd8622aaba8e13a6d7	2	1	practice_slash	26	practice_slash	19	stimuli_distractor_trianglediamonds.svg	stimuli_target_diamondrectangles.svg	12	yes	53	1	638	6	1	antiphase_hc_iso.wav	2	6	1	noise_calib_stim_LEFT.wav	1	27	blb_dichoticlistening_pa-ga.mp3	pa	ga	1	right
