build	computer.platform	date	time	timestamp	time_elapsed_ms	subject	group	session	blockcode	blocknum	trialcode	trialnum	stimulus_left	stimulus_right	stim_index	target_present	response	correct	latency	headphonecheck_countTestTrials	headphonecheck_index	headphonecheck_testSound	headphonecheck_correctResponse	stereocheck_countTestTrials	stereocheck_index	stereocheck_testSound	stereocheck_correctResponse	DL_index	DL_soundfile	DL_leftSound	DL_rightSound	DL_dualSound	DL_choice
6.6.1	win	2023-07-10	10:32:56	10:35:49	169951	62e0c40c68eaa2ad1508eae6	3	1	practice_slash	5	practice_slash	1	stimuli_distractor_diamondtriangles.svg	stimuli_target_diamondrectangles.svg	8	yes	0	0	2000	0	0			0	0			1				0	
6.6.1	win	2023-07-10	10:32:56	10:35:49	169951	62e0c40c68eaa2ad1508eae6	3	1	practice_slash	5	advance_on_keypress_SLASH	2	stimuli_distractor_diamondtriangles.svg	stimuli_target_diamondrectangles.svg	8	yes	57	0	3479	0	0			0	0			1				0	
6.6.1	win	2023-07-10	10:32:56	10:35:54	175396	62e0c40c68eaa2ad1508eae6	3	1	practice_slash	5	practice_slash	3	stimuli_target_squarediamonds.svg	stimuli_distractor_trianglediamonds.svg	5	yes	53	1	311	0	0			0	0			1				0	
6.6.1	win	2023-07-10	10:32:56	10:35:54	175396	62e0c40c68eaa2ad1508eae6	3	1	practice_slash	5	advance_on_keypress_SLASH	4	stimuli_target_squarediamonds.svg	stimuli_distractor_trianglediamonds.svg	5	yes	57	0	546	0	0			0	0			1				0	
6.6.1	win	2023-07-10	10:32:56	10:35:57	177809	62e0c40c68eaa2ad1508eae6	3	1	practice_slash	5	practice_slash	5	stimuli_target_rectanglediamonds.svg	stimuli_distractor_diamondtriangles.svg	1	yes	53	1	225	0	0			0	0			1				0	
6.6.1	win	2023-07-10	10:32:56	10:35:57	177809	62e0c40c68eaa2ad1508eae6	3	1	practice_slash	5	advance_on_keypress_SLASH	6	stimuli_target_rectanglediamonds.svg	stimuli_distractor_diamondtriangles.svg	1	yes	57	0	3187	0	0			0	0			1				0	
6.6.1	win	2023-07-10	10:32:56	10:36:02	182979	62e0c40c68eaa2ad1508eae6	3	1	practice_slash	5	practice_slash	7	stimuli_distractor_trianglediamonds.svg	stimuli_target_diamondrectangles.svg	12	yes	53	1	345	0	0			0	0			1				0	
6.6.1	win	2023-07-10	10:32:56	10:36:02	182979	62e0c40c68eaa2ad1508eae6	3	1	practice_slash	5	advance_on_keypress_SLASH	8	stimuli_distractor_trianglediamonds.svg	stimuli_target_diamondrectangles.svg	12	yes	57	0	410	0	0			0	0			1				0	
6.6.1	win	2023-07-10	10:32:56	10:36:04	185373	62e0c40c68eaa2ad1508eae6	3	1	practice_slash	5	practice_slash	9	stimuli_distractor_diamondtriangles.svg	stimuli_target_rectangletriangles.svg	7	yes	53	1	322	0	0			0	0			1				0	
6.6.1	win	2023-07-10	10:32:56	10:36:04	185373	62e0c40c68eaa2ad1508eae6	3	1	practice_slash	5	advance_on_keypress_SLASH	10	stimuli_distractor_diamondtriangles.svg	stimuli_target_rectangletriangles.svg	7	yes	57	0	611	0	0			0	0			1				0	
6.6.1	win	2023-07-10	10:32:56	10:36:07	188033	62e0c40c68eaa2ad1508eae6	3	1	practice_slash	5	practice_slash	11	stimuli_target_squarediamonds.svg	stimuli_distractor_diamondtriangles.svg	2	yes	53	1	415	0	0			0	0			1				0	
6.6.1	win	2023-07-10	10:32:56	10:36:07	188033	62e0c40c68eaa2ad1508eae6	3	1	practice_slash	5	advance_on_keypress_SLASH	12	stimuli_target_squarediamonds.svg	stimuli_distractor_diamondtriangles.svg	2	yes	57	0	2540	0	0			0	0			1				0	
6.6.1	win	2023-07-10	10:32:56	10:36:12	192600	62e0c40c68eaa2ad1508eae6	3	1	practice_slash	5	practice_slash	13	stimuli_distractor_diamondtriangles.svg	stimuli_distractor_diamondtriangles.svg	13	no	53	0	373	0	0			0	0			1				0	
6.6.1	win	2023-07-10	10:32:56	10:36:12	192600	62e0c40c68eaa2ad1508eae6	3	1	practice_slash	5	advance_on_keypress_SLASH	14	stimuli_distractor_diamondtriangles.svg	stimuli_distractor_diamondtriangles.svg	13	no	57	0	502	0	0			0	0			1				0	
6.6.1	win	2023-07-10	10:32:56	10:36:16	196751	62e0c40c68eaa2ad1508eae6	3	1	practice_slash	5	practice_slash	15	stimuli_distractor_trianglediamonds.svg	stimuli_distractor_trianglediamonds.svg	15	no	0	1	2000	0	0			0	0			1				0	
6.6.1	win	2023-07-10	10:32:56	10:36:16	196751	62e0c40c68eaa2ad1508eae6	3	1	practice_slash	5	advance_on_keypress_SLASH	16	stimuli_distractor_trianglediamonds.svg	stimuli_distractor_trianglediamonds.svg	15	no	57	0	3043	0	0			0	0			1				0	
6.6.1	win	2023-07-10	10:32:56	10:36:21	201817	62e0c40c68eaa2ad1508eae6	3	1	practice_slash	5	practice_slash	17	stimuli_distractor_trianglediamonds.svg	stimuli_target_squarediamonds.svg	11	yes	53	1	374	0	0			0	0			1				0	
6.6.1	win	2023-07-10	10:32:56	10:36:21	201817	62e0c40c68eaa2ad1508eae6	3	1	practice_slash	5	advance_on_keypress_SLASH	18	stimuli_distractor_trianglediamonds.svg	stimuli_target_squarediamonds.svg	11	yes	57	0	2305	0	0			0	0			1				0	
6.6.1	win	2023-07-10	10:32:56	10:36:25	206220	62e0c40c68eaa2ad1508eae6	3	1	practice_slash	5	practice_slash	19	stimuli_target_diamondsquares.svg	stimuli_distractor_diamondtriangles.svg	3	yes	53	1	454	0	0			0	0			1				0	
6.6.1	win	2023-07-10	10:32:56	10:36:25	206220	62e0c40c68eaa2ad1508eae6	3	1	practice_slash	5	advance_on_keypress_SLASH	20	stimuli_target_diamondsquares.svg	stimuli_distractor_diamondtriangles.svg	3	yes	57	0	1307	0	0			0	0			1				0	
6.6.1	win	2023-07-10	10:32:56	10:36:29	209707	62e0c40c68eaa2ad1508eae6	3	1	practice_slash	5	practice_slash	21	stimuli_distractor_diamondtriangles.svg	stimuli_target_trianglerectangles.svg	9	yes	53	1	540	0	0			0	0			1				0	
6.6.1	win	2023-07-10	10:32:56	10:36:29	209707	62e0c40c68eaa2ad1508eae6	3	1	practice_slash	5	advance_on_keypress_SLASH	22	stimuli_distractor_diamondtriangles.svg	stimuli_target_trianglerectangles.svg	9	yes	57	0	319	0	0			0	0			1				0	
6.6.1	win	2023-07-10	10:32:56	10:36:31	212140	62e0c40c68eaa2ad1508eae6	3	1	practice_slash	5	practice_slash	23	stimuli_target_diamondsquares.svg	stimuli_distractor_trianglediamonds.svg	6	yes	53	1	474	0	0			0	0			1				0	
6.6.1	win	2023-07-10	10:32:56	10:36:31	212140	62e0c40c68eaa2ad1508eae6	3	1	practice_slash	5	advance_on_keypress_SLASH	24	stimuli_target_diamondsquares.svg	stimuli_distractor_trianglediamonds.svg	6	yes	57	0	206	0	0			0	0			1				0	
6.6.1	win	2023-07-10	10:32:56	10:36:34	214773	62e0c40c68eaa2ad1508eae6	3	1	practice_slash	5	practice_slash	25	stimuli_target_rectanglediamonds.svg	stimuli_distractor_trianglediamonds.svg	4	yes	53	1	789	0	0			0	0			1				0	
6.6.1	win	2023-07-10	10:32:56	10:36:34	214773	62e0c40c68eaa2ad1508eae6	3	1	practice_slash	5	advance_on_keypress_SLASH	26	stimuli_target_rectanglediamonds.svg	stimuli_distractor_trianglediamonds.svg	4	yes	57	0	297	0	0			0	0			1				0	
6.6.1	win	2023-07-10	10:32:56	10:36:38	218717	62e0c40c68eaa2ad1508eae6	3	1	practice_slash	5	practice_slash	27	stimuli_distractor_trianglediamonds.svg	stimuli_distractor_diamondtriangles.svg	16	no	0	1	2000	0	0			0	0			1				0	
6.6.1	win	2023-07-10	10:32:56	10:36:38	218717	62e0c40c68eaa2ad1508eae6	3	1	practice_slash	5	advance_on_keypress_SLASH	28	stimuli_distractor_trianglediamonds.svg	stimuli_distractor_diamondtriangles.svg	16	no	57	0	473	0	0			0	0			1				0	
6.6.1	win	2023-07-10	10:32:56	10:36:41	221514	62e0c40c68eaa2ad1508eae6	3	1	practice_slash	5	practice_slash	29	stimuli_distractor_trianglediamonds.svg	stimuli_target_rectanglediamonds.svg	10	yes	53	1	681	0	0			0	0			1				0	
6.6.1	win	2023-07-10	10:32:56	10:36:41	221514	62e0c40c68eaa2ad1508eae6	3	1	practice_slash	5	advance_on_keypress_SLASH	30	stimuli_distractor_trianglediamonds.svg	stimuli_target_rectanglediamonds.svg	10	yes	57	0	222	0	0			0	0			1				0	
6.6.1	win	2023-07-10	10:32:56	10:36:44	225384	62e0c40c68eaa2ad1508eae6	3	1	practice_slash	5	practice_slash	31	stimuli_distractor_diamondtriangles.svg	stimuli_distractor_trianglediamonds.svg	14	no	0	1	2000	0	0			0	0			1				0	
6.6.1	win	2023-07-10	10:32:56	10:36:44	225384	62e0c40c68eaa2ad1508eae6	3	1	practice_slash	5	advance_on_keypress_SLASH	32	stimuli_distractor_diamondtriangles.svg	stimuli_distractor_trianglediamonds.svg	14	no	57	0	532	0	0			0	0			1				0	
6.6.1	win	2023-07-10	10:32:56	10:40:19	439834	62e0c40c68eaa2ad1508eae6	3	1	main_slash	7	main_slash	1	stimuli_target_trianglerectangles.svg	stimuli_distractor_diamondtriangles.svg	21	yes	53	1	607	0	0			0	0			1				0	
6.6.1	win	2023-07-10	10:32:56	10:40:19	439834	62e0c40c68eaa2ad1508eae6	3	1	main_slash	7	advance_on_keypress_SLASH	2	stimuli_target_trianglerectangles.svg	stimuli_distractor_diamondtriangles.svg	21	yes	57	0	1031	0	0			0	0			1				0	
6.6.1	win	2023-07-10	10:32:56	10:40:21	441962	62e0c40c68eaa2ad1508eae6	3	1	main_slash	7	main_slash	3	stimuli_distractor_trianglediamonds.svg	stimuli_target_rectanglediamonds.svg	10	yes	53	1	452	0	0			0	0			1				0	
6.6.1	win	2023-07-10	10:32:56	10:40:21	441962	62e0c40c68eaa2ad1508eae6	3	1	main_slash	7	advance_on_keypress_SLASH	4	stimuli_distractor_trianglediamonds.svg	stimuli_target_rectanglediamonds.svg	10	yes	57	0	1498	0	0			0	0			1				0	
6.6.1	win	2023-07-10	10:32:56	10:40:25	446110	62e0c40c68eaa2ad1508eae6	3	1	main_slash	7	main_slash	5	stimuli_distractor_trianglediamonds.svg	stimuli_distractor_trianglediamonds.svg	33	no	0	1	2000	0	0			0	0			1				0	
6.6.1	win	2023-07-10	10:32:56	10:40:25	446110	62e0c40c68eaa2ad1508eae6	3	1	main_slash	7	advance_on_keypress_SLASH	6	stimuli_distractor_trianglediamonds.svg	stimuli_distractor_trianglediamonds.svg	33	no	57	0	292	0	0			0	0			1				0	
6.6.1	win	2023-07-10	10:32:56	10:40:27	447595	62e0c40c68eaa2ad1508eae6	3	1	main_slash	7	main_slash	7	stimuli_target_rectanglediamonds.svg	stimuli_distractor_diamondtriangles.svg	6	yes	53	1	552	0	0			0	0			1				0	
6.6.1	win	2023-07-10	10:32:56	10:40:27	447595	62e0c40c68eaa2ad1508eae6	3	1	main_slash	7	advance_on_keypress_SLASH	8	stimuli_target_rectanglediamonds.svg	stimuli_distractor_diamondtriangles.svg	6	yes	57	0	1949	0	0			0	0			1				0	
6.6.1	win	2023-07-10	10:32:56	10:40:30	450978	62e0c40c68eaa2ad1508eae6	3	1	main_slash	7	main_slash	9	stimuli_target_squaretriangles.svg	stimuli_distractor_trianglediamonds.svg	3	yes	53	1	784	0	0			0	0			1				0	
6.6.1	win	2023-07-10	10:32:56	10:40:30	450978	62e0c40c68eaa2ad1508eae6	3	1	main_slash	7	advance_on_keypress_SLASH	10	stimuli_target_squaretriangles.svg	stimuli_distractor_trianglediamonds.svg	3	yes	57	0	745	0	0			0	0			1				0	
6.6.1	win	2023-07-10	10:32:56	10:40:32	453014	62e0c40c68eaa2ad1508eae6	3	1	main_slash	7	main_slash	11	stimuli_target_diamondsquares.svg	stimuli_distractor_trianglediamonds.svg	20	yes	53	1	654	0	0			0	0			1				0	
6.6.1	win	2023-07-10	10:32:56	10:40:32	453014	62e0c40c68eaa2ad1508eae6	3	1	main_slash	7	advance_on_keypress_SLASH	12	stimuli_target_diamondsquares.svg	stimuli_distractor_trianglediamonds.svg	20	yes	57	0	873	0	0			0	0			1				0	
6.6.1	win	2023-07-10	10:32:56	10:40:34	455198	62e0c40c68eaa2ad1508eae6	3	1	main_slash	7	main_slash	13	stimuli_distractor_diamondtriangles.svg	stimuli_target_diamondsquares.svg	32	yes	53	1	671	0	0			0	0			1				0	
6.6.1	win	2023-07-10	10:32:56	10:40:34	455198	62e0c40c68eaa2ad1508eae6	3	1	main_slash	7	advance_on_keypress_SLASH	14	stimuli_distractor_diamondtriangles.svg	stimuli_target_diamondsquares.svg	32	yes	57	0	666	0	0			0	0			1				0	
6.6.1	win	2023-07-10	10:32:56	10:40:36	457058	62e0c40c68eaa2ad1508eae6	3	1	main_slash	7	main_slash	15	stimuli_target_diamondrectangles.svg	stimuli_distractor_diamondtriangles.svg	23	yes	53	1	548	0	0			0	0			1				0	
6.6.1	win	2023-07-10	10:32:56	10:40:36	457058	62e0c40c68eaa2ad1508eae6	3	1	main_slash	7	advance_on_keypress_SLASH	16	stimuli_target_diamondrectangles.svg	stimuli_distractor_diamondtriangles.svg	23	yes	57	0	971	0	0			0	0			1				0	
6.6.1	win	2023-07-10	10:32:56	10:40:40	460676	62e0c40c68eaa2ad1508eae6	3	1	main_slash	7	main_slash	17	stimuli_distractor_trianglediamonds.svg	stimuli_distractor_diamondtriangles.svg	36	no	0	1	2000	0	0			0	0			1				0	
6.6.1	win	2023-07-10	10:32:56	10:40:40	460676	62e0c40c68eaa2ad1508eae6	3	1	main_slash	7	advance_on_keypress_SLASH	18	stimuli_distractor_trianglediamonds.svg	stimuli_distractor_diamondtriangles.svg	36	no	57	0	284	0	0			0	0			1				0	
6.6.1	win	2023-07-10	10:32:56	10:40:41	462126	62e0c40c68eaa2ad1508eae6	3	1	main_slash	7	main_slash	19	stimuli_distractor_trianglediamonds.svg	stimuli_target_trianglesquares.svg	26	yes	53	1	514	0	0			0	0			1				0	
6.6.1	win	2023-07-10	10:32:56	10:40:41	462126	62e0c40c68eaa2ad1508eae6	3	1	main_slash	7	advance_on_keypress_SLASH	20	stimuli_distractor_trianglediamonds.svg	stimuli_target_trianglesquares.svg	26	yes	57	0	761	0	0			0	0			1				0	
6.6.1	win	2023-07-10	10:32:56	10:40:43	464055	62e0c40c68eaa2ad1508eae6	3	1	main_slash	7	main_slash	21	stimuli_distractor_trianglediamonds.svg	stimuli_target_squarediamonds.svg	12	yes	53	1	528	0	0			0	0			1				0	
6.6.1	win	2023-07-10	10:32:56	10:40:43	464055	62e0c40c68eaa2ad1508eae6	3	1	main_slash	7	advance_on_keypress_SLASH	22	stimuli_distractor_trianglediamonds.svg	stimuli_target_squarediamonds.svg	12	yes	57	0	980	0	0			0	0			1				0	
6.6.1	win	2023-07-10	10:32:56	10:40:46	466992	62e0c40c68eaa2ad1508eae6	3	1	main_slash	7	main_slash	23	stimuli_distractor_diamondtriangles.svg	stimuli_target_rectangletriangles.svg	13	yes	53	1	1316	0	0			0	0			1				0	
6.6.1	win	2023-07-10	10:32:56	10:40:46	466992	62e0c40c68eaa2ad1508eae6	3	1	main_slash	7	advance_on_keypress_SLASH	24	stimuli_distractor_diamondtriangles.svg	stimuli_target_rectangletriangles.svg	13	yes	57	0	536	0	0			0	0			1				0	
6.6.1	win	2023-07-10	10:32:56	10:40:48	469069	62e0c40c68eaa2ad1508eae6	3	1	main_slash	7	main_slash	25	stimuli_target_diamondsquares.svg	stimuli_distractor_diamondtriangles.svg	24	yes	53	1	893	0	0			0	0			1				0	
6.6.1	win	2023-07-10	10:32:56	10:40:48	469069	62e0c40c68eaa2ad1508eae6	3	1	main_slash	7	advance_on_keypress_SLASH	26	stimuli_target_diamondsquares.svg	stimuli_distractor_diamondtriangles.svg	24	yes	57	0	526	0	0			0	0			1				0	
6.6.1	win	2023-07-10	10:32:56	10:40:50	471080	62e0c40c68eaa2ad1508eae6	3	1	main_slash	7	main_slash	27	stimuli_distractor_trianglediamonds.svg	stimuli_target_squaretriangles.svg	11	yes	53	1	854	0	0			0	0			1				0	
6.6.1	win	2023-07-10	10:32:56	10:40:50	471080	62e0c40c68eaa2ad1508eae6	3	1	main_slash	7	advance_on_keypress_SLASH	28	stimuli_distractor_trianglediamonds.svg	stimuli_target_squaretriangles.svg	11	yes	57	0	427	0	0			0	0			1				0	
6.6.1	win	2023-07-10	10:32:56	10:40:53	474143	62e0c40c68eaa2ad1508eae6	3	1	main_slash	7	main_slash	29	stimuli_distractor_trianglediamonds.svg	stimuli_distractor_trianglediamonds.svg	34	no	0	1	2000	0	0			0	0			1				0	
6.6.1	win	2023-07-10	10:32:56	10:40:53	474143	62e0c40c68eaa2ad1508eae6	3	1	main_slash	7	advance_on_keypress_SLASH	30	stimuli_distractor_trianglediamonds.svg	stimuli_distractor_trianglediamonds.svg	34	no	57	0	505	0	0			0	0			1				0	
6.6.1	win	2023-07-10	10:32:56	10:40:55	475857	62e0c40c68eaa2ad1508eae6	3	1	main_slash	7	main_slash	31	stimuli_target_rectanglediamonds.svg	stimuli_distractor_trianglediamonds.svg	2	yes	53	1	564	0	0			0	0			1				0	
6.6.1	win	2023-07-10	10:32:56	10:40:55	475857	62e0c40c68eaa2ad1508eae6	3	1	main_slash	7	advance_on_keypress_SLASH	32	stimuli_target_rectanglediamonds.svg	stimuli_distractor_trianglediamonds.svg	2	yes	57	0	607	0	0			0	0			1				0	
6.6.1	win	2023-07-10	10:32:56	10:40:57	477549	62e0c40c68eaa2ad1508eae6	3	1	main_slash	7	main_slash	33	stimuli_distractor_diamondtriangles.svg	stimuli_target_rectanglediamonds.svg	14	yes	53	1	439	0	0			0	0			1				0	
6.6.1	win	2023-07-10	10:32:56	10:40:57	477549	62e0c40c68eaa2ad1508eae6	3	1	main_slash	7	advance_on_keypress_SLASH	34	stimuli_distractor_diamondtriangles.svg	stimuli_target_rectanglediamonds.svg	14	yes	57	0	489	0	0			0	0			1				0	
6.6.1	win	2023-07-10	10:32:56	10:40:58	479234	62e0c40c68eaa2ad1508eae6	3	1	main_slash	7	main_slash	35	stimuli_target_squaretriangles.svg	stimuli_distractor_diamondtriangles.svg	7	yes	53	1	558	0	0			0	0			1				0	
6.6.1	win	2023-07-10	10:32:56	10:40:58	479234	62e0c40c68eaa2ad1508eae6	3	1	main_slash	7	advance_on_keypress_SLASH	36	stimuli_target_squaretriangles.svg	stimuli_distractor_diamondtriangles.svg	7	yes	57	0	410	0	0			0	0			1				0	
6.6.1	win	2023-07-10	10:32:56	10:41:00	480792	62e0c40c68eaa2ad1508eae6	3	1	main_slash	7	main_slash	37	stimuli_target_trianglesquares.svg	stimuli_distractor_diamondtriangles.svg	22	yes	53	1	512	0	0			0	0			1				0	
6.6.1	win	2023-07-10	10:32:56	10:41:00	480792	62e0c40c68eaa2ad1508eae6	3	1	main_slash	7	advance_on_keypress_SLASH	38	stimuli_target_trianglesquares.svg	stimuli_distractor_diamondtriangles.svg	22	yes	57	0	388	0	0			0	0			1				0	
6.6.1	win	2023-07-10	10:32:56	10:41:03	483826	62e0c40c68eaa2ad1508eae6	3	1	main_slash	7	main_slash	39	stimuli_distractor_diamondtriangles.svg	stimuli_distractor_diamondtriangles.svg	40	no	0	1	2000	0	0			0	0			1				0	
6.6.1	win	2023-07-10	10:32:56	10:41:03	483826	62e0c40c68eaa2ad1508eae6	3	1	main_slash	7	advance_on_keypress_SLASH	40	stimuli_distractor_diamondtriangles.svg	stimuli_distractor_diamondtriangles.svg	40	no	57	0	570	0	0			0	0			1				0	
6.6.1	win	2023-07-10	10:32:56	10:41:05	485513	62e0c40c68eaa2ad1508eae6	3	1	main_slash	7	main_slash	41	stimuli_distractor_trianglediamonds.svg	stimuli_target_rectangletriangles.svg	9	yes	53	1	471	0	0			0	0			1				0	
6.6.1	win	2023-07-10	10:32:56	10:41:05	485513	62e0c40c68eaa2ad1508eae6	3	1	main_slash	7	advance_on_keypress_SLASH	42	stimuli_distractor_trianglediamonds.svg	stimuli_target_rectangletriangles.svg	9	yes	57	0	432	0	0			0	0			1				0	
6.6.1	win	2023-07-10	10:32:56	10:41:06	486977	62e0c40c68eaa2ad1508eae6	3	1	main_slash	7	main_slash	43	stimuli_target_trianglerectangles.svg	stimuli_distractor_trianglediamonds.svg	17	yes	53	1	384	0	0			0	0			1				0	
6.6.1	win	2023-07-10	10:32:56	10:41:06	486977	62e0c40c68eaa2ad1508eae6	3	1	main_slash	7	advance_on_keypress_SLASH	44	stimuli_target_trianglerectangles.svg	stimuli_distractor_trianglediamonds.svg	17	yes	57	0	424	0	0			0	0			1				0	
6.6.1	win	2023-07-10	10:32:56	10:41:07	488439	62e0c40c68eaa2ad1508eae6	3	1	main_slash	7	main_slash	45	stimuli_distractor_diamondtriangles.svg	stimuli_target_diamondrectangles.svg	31	yes	53	1	397	0	0			0	0			1				0	
6.6.1	win	2023-07-10	10:32:56	10:41:07	488439	62e0c40c68eaa2ad1508eae6	3	1	main_slash	7	advance_on_keypress_SLASH	46	stimuli_distractor_diamondtriangles.svg	stimuli_target_diamondrectangles.svg	31	yes	57	0	370	0	0			0	0			1				0	
6.6.1	win	2023-07-10	10:32:56	10:41:09	489863	62e0c40c68eaa2ad1508eae6	3	1	main_slash	7	main_slash	47	stimuli_target_trianglesquares.svg	stimuli_distractor_trianglediamonds.svg	18	yes	53	1	420	0	0			0	0			1				0	
6.6.1	win	2023-07-10	10:32:56	10:41:09	489863	62e0c40c68eaa2ad1508eae6	3	1	main_slash	7	advance_on_keypress_SLASH	48	stimuli_target_trianglesquares.svg	stimuli_distractor_trianglediamonds.svg	18	yes	57	0	321	0	0			0	0			1				0	
6.6.1	win	2023-07-10	10:32:56	10:41:12	492826	62e0c40c68eaa2ad1508eae6	3	1	main_slash	7	main_slash	49	stimuli_distractor_diamondtriangles.svg	stimuli_distractor_trianglediamonds.svg	37	no	0	1	2000	0	0			0	0			1				0	
6.6.1	win	2023-07-10	10:32:56	10:41:12	492826	62e0c40c68eaa2ad1508eae6	3	1	main_slash	7	advance_on_keypress_SLASH	50	stimuli_distractor_diamondtriangles.svg	stimuli_distractor_trianglediamonds.svg	37	no	57	0	1264	0	0			0	0			1				0	
6.6.1	win	2023-07-10	10:32:56	10:41:14	495313	62e0c40c68eaa2ad1508eae6	3	1	main_slash	7	main_slash	51	stimuli_target_squarediamonds.svg	stimuli_distractor_diamondtriangles.svg	8	yes	53	1	571	0	0			0	0			1				0	
6.6.1	win	2023-07-10	10:32:56	10:41:14	495313	62e0c40c68eaa2ad1508eae6	3	1	main_slash	7	advance_on_keypress_SLASH	52	stimuli_target_squarediamonds.svg	stimuli_distractor_diamondtriangles.svg	8	yes	57	0	434	0	0			0	0			1				0	
6.6.1	win	2023-07-10	10:32:56	10:41:16	496806	62e0c40c68eaa2ad1508eae6	3	1	main_slash	7	main_slash	53	stimuli_distractor_trianglediamonds.svg	stimuli_target_diamondrectangles.svg	27	yes	53	1	413	0	0			0	0			1				0	
6.6.1	win	2023-07-10	10:32:56	10:41:16	496806	62e0c40c68eaa2ad1508eae6	3	1	main_slash	7	advance_on_keypress_SLASH	54	stimuli_distractor_trianglediamonds.svg	stimuli_target_diamondrectangles.svg	27	yes	57	0	367	0	0			0	0			1				0	
6.6.1	win	2023-07-10	10:32:56	10:41:17	498222	62e0c40c68eaa2ad1508eae6	3	1	main_slash	7	main_slash	55	stimuli_distractor_diamondtriangles.svg	stimuli_target_trianglesquares.svg	30	yes	53	1	414	0	0			0	0			1				0	
6.6.1	win	2023-07-10	10:32:56	10:41:17	498222	62e0c40c68eaa2ad1508eae6	3	1	main_slash	7	advance_on_keypress_SLASH	56	stimuli_distractor_diamondtriangles.svg	stimuli_target_trianglesquares.svg	30	yes	57	0	387	0	0			0	0			1				0	
6.6.1	win	2023-07-10	10:32:56	10:41:19	499625	62e0c40c68eaa2ad1508eae6	3	1	main_slash	7	main_slash	57	stimuli_distractor_trianglediamonds.svg	stimuli_target_diamondsquares.svg	28	yes	53	1	380	0	0			0	0			1				0	
6.6.1	win	2023-07-10	10:32:56	10:41:19	499625	62e0c40c68eaa2ad1508eae6	3	1	main_slash	7	advance_on_keypress_SLASH	58	stimuli_distractor_trianglediamonds.svg	stimuli_target_diamondsquares.svg	28	yes	57	0	320	0	0			0	0			1				0	
6.6.1	win	2023-07-10	10:32:56	10:41:20	500996	62e0c40c68eaa2ad1508eae6	3	1	main_slash	7	main_slash	59	stimuli_distractor_diamondtriangles.svg	stimuli_target_trianglerectangles.svg	29	yes	53	1	404	0	0			0	0			1				0	
6.6.1	win	2023-07-10	10:32:56	10:41:20	500996	62e0c40c68eaa2ad1508eae6	3	1	main_slash	7	advance_on_keypress_SLASH	60	stimuli_distractor_diamondtriangles.svg	stimuli_target_trianglerectangles.svg	29	yes	57	0	339	0	0			0	0			1				0	
6.6.1	win	2023-07-10	10:32:56	10:41:21	502401	62e0c40c68eaa2ad1508eae6	3	1	main_slash	7	main_slash	61	stimuli_distractor_diamondtriangles.svg	stimuli_target_squaretriangles.svg	15	yes	53	1	426	0	0			0	0			1				0	
6.6.1	win	2023-07-10	10:32:56	10:41:21	502401	62e0c40c68eaa2ad1508eae6	3	1	main_slash	7	advance_on_keypress_SLASH	62	stimuli_distractor_diamondtriangles.svg	stimuli_target_squaretriangles.svg	15	yes	57	0	338	0	0			0	0			1				0	
6.6.1	win	2023-07-10	10:32:56	10:41:23	503810	62e0c40c68eaa2ad1508eae6	3	1	main_slash	7	main_slash	63	stimuli_distractor_diamondtriangles.svg	stimuli_distractor_trianglediamonds.svg	38	no	53	0	435	0	0			0	0			1				0	
6.6.1	win	2023-07-10	10:32:56	10:41:23	503810	62e0c40c68eaa2ad1508eae6	3	1	main_slash	7	advance_on_keypress_SLASH	64	stimuli_distractor_diamondtriangles.svg	stimuli_distractor_trianglediamonds.svg	38	no	57	0	1458	0	0			0	0			1				0	
6.6.1	win	2023-07-10	10:32:56	10:41:25	506336	62e0c40c68eaa2ad1508eae6	3	1	main_slash	7	main_slash	65	stimuli_distractor_trianglediamonds.svg	stimuli_distractor_diamondtriangles.svg	35	no	53	0	428	0	0			0	0			1				0	
6.6.1	win	2023-07-10	10:32:56	10:41:25	506336	62e0c40c68eaa2ad1508eae6	3	1	main_slash	7	advance_on_keypress_SLASH	66	stimuli_distractor_trianglediamonds.svg	stimuli_distractor_diamondtriangles.svg	35	no	57	0	594	0	0			0	0			1				0	
6.6.1	win	2023-07-10	10:32:56	10:41:27	508423	62e0c40c68eaa2ad1508eae6	3	1	main_slash	7	main_slash	67	stimuli_target_diamondrectangles.svg	stimuli_distractor_trianglediamonds.svg	19	yes	53	1	864	0	0			0	0			1				0	
6.6.1	win	2023-07-10	10:32:56	10:41:27	508423	62e0c40c68eaa2ad1508eae6	3	1	main_slash	7	advance_on_keypress_SLASH	68	stimuli_target_diamondrectangles.svg	stimuli_distractor_trianglediamonds.svg	19	yes	57	0	726	0	0			0	0			1				0	
6.6.1	win	2023-07-10	10:32:56	10:41:31	511792	62e0c40c68eaa2ad1508eae6	3	1	main_slash	7	main_slash	69	stimuli_distractor_diamondtriangles.svg	stimuli_distractor_diamondtriangles.svg	39	no	0	1	2000	0	0			0	0			1				0	
6.6.1	win	2023-07-10	10:32:56	10:41:31	511792	62e0c40c68eaa2ad1508eae6	3	1	main_slash	7	advance_on_keypress_SLASH	70	stimuli_distractor_diamondtriangles.svg	stimuli_distractor_diamondtriangles.svg	39	no	57	0	304	0	0			0	0			1				0	
6.6.1	win	2023-07-10	10:32:56	10:41:32	513354	62e0c40c68eaa2ad1508eae6	3	1	main_slash	7	main_slash	71	stimuli_target_squarediamonds.svg	stimuli_distractor_trianglediamonds.svg	4	yes	53	1	612	0	0			0	0			1				0	
6.6.1	win	2023-07-10	10:32:56	10:41:32	513354	62e0c40c68eaa2ad1508eae6	3	1	main_slash	7	advance_on_keypress_SLASH	72	stimuli_target_squarediamonds.svg	stimuli_distractor_trianglediamonds.svg	4	yes	57	0	370	0	0			0	0			1				0	
6.6.1	win	2023-07-10	10:32:56	10:41:35	515824	62e0c40c68eaa2ad1508eae6	3	1	main_slash	7	main_slash	73	stimuli_distractor_trianglediamonds.svg	stimuli_target_trianglerectangles.svg	25	yes	53	1	1465	0	0			0	0			1				0	
6.6.1	win	2023-07-10	10:32:56	10:41:35	515824	62e0c40c68eaa2ad1508eae6	3	1	main_slash	7	advance_on_keypress_SLASH	74	stimuli_distractor_trianglediamonds.svg	stimuli_target_trianglerectangles.svg	25	yes	57	0	409	0	0			0	0			1				0	
6.6.1	win	2023-07-10	10:32:56	10:41:38	518875	62e0c40c68eaa2ad1508eae6	3	1	main_slash	7	main_slash	75	stimuli_distractor_diamondtriangles.svg	stimuli_target_squarediamonds.svg	16	yes	0	0	2000	0	0			0	0			1				0	
6.6.1	win	2023-07-10	10:32:56	10:41:38	518875	62e0c40c68eaa2ad1508eae6	3	1	main_slash	7	advance_on_keypress_SLASH	76	stimuli_distractor_diamondtriangles.svg	stimuli_target_squarediamonds.svg	16	yes	57	0	1842	0	0			0	0			1				0	
6.6.1	win	2023-07-10	10:32:56	10:41:41	522239	62e0c40c68eaa2ad1508eae6	3	1	main_slash	7	main_slash	77	stimuli_target_rectangletriangles.svg	stimuli_distractor_trianglediamonds.svg	1	yes	53	1	881	0	0			0	0			1				0	
6.6.1	win	2023-07-10	10:32:56	10:41:41	522239	62e0c40c68eaa2ad1508eae6	3	1	main_slash	7	advance_on_keypress_SLASH	78	stimuli_target_rectangletriangles.svg	stimuli_distractor_trianglediamonds.svg	1	yes	57	0	435	0	0			0	0			1				0	
6.6.1	win	2023-07-10	10:32:56	10:41:44	524687	62e0c40c68eaa2ad1508eae6	3	1	main_slash	7	main_slash	79	stimuli_target_rectangletriangles.svg	stimuli_distractor_diamondtriangles.svg	5	yes	53	1	1363	0	0			0	0			1				0	
6.6.1	win	2023-07-10	10:32:56	10:41:44	524687	62e0c40c68eaa2ad1508eae6	3	1	main_slash	7	advance_on_keypress_SLASH	80	stimuli_target_rectangletriangles.svg	stimuli_distractor_diamondtriangles.svg	5	yes	57	0	291	0	0			0	0			1				0	
6.6.1	win	2023-07-10	10:32:56	10:41:47	527608	62e0c40c68eaa2ad1508eae6	3	1	main_slash	7	main_slash	81	stimuli_target_diamondsquares.svg	stimuli_distractor_trianglediamonds.svg	20	yes	0	0	2000	0	0			0	0			1				0	
6.6.1	win	2023-07-10	10:32:56	10:41:47	527608	62e0c40c68eaa2ad1508eae6	3	1	main_slash	7	advance_on_keypress_SLASH	82	stimuli_target_diamondsquares.svg	stimuli_distractor_trianglediamonds.svg	20	yes	57	0	389	0	0			0	0			1				0	
6.6.1	win	2023-07-10	10:32:56	10:41:50	530499	62e0c40c68eaa2ad1508eae6	3	1	main_slash	7	main_slash	83	stimuli_target_trianglesquares.svg	stimuli_distractor_diamondtriangles.svg	22	yes	53	1	1857	0	0			0	0			1				0	
6.6.1	win	2023-07-10	10:32:56	10:41:50	530499	62e0c40c68eaa2ad1508eae6	3	1	main_slash	7	advance_on_keypress_SLASH	84	stimuli_target_trianglesquares.svg	stimuli_distractor_diamondtriangles.svg	22	yes	57	0	271203	0	0			0	0			1				0	
6.6.1	win	2023-07-10	10:32:56	10:46:22	802887	62e0c40c68eaa2ad1508eae6	3	1	main_slash	7	main_slash	85	stimuli_target_squaretriangles.svg	stimuli_distractor_diamondtriangles.svg	7	yes	53	1	536	0	0			0	0			1				0	
6.6.1	win	2023-07-10	10:32:56	10:46:22	802887	62e0c40c68eaa2ad1508eae6	3	1	main_slash	7	advance_on_keypress_SLASH	86	stimuli_target_squaretriangles.svg	stimuli_distractor_diamondtriangles.svg	7	yes	57	0	365	0	0			0	0			1				0	
6.6.1	win	2023-07-10	10:32:56	10:46:24	804495	62e0c40c68eaa2ad1508eae6	3	1	main_slash	7	main_slash	87	stimuli_target_trianglerectangles.svg	stimuli_distractor_diamondtriangles.svg	21	yes	53	1	593	0	0			0	0			1				0	
6.6.1	win	2023-07-10	10:32:56	10:46:24	804495	62e0c40c68eaa2ad1508eae6	3	1	main_slash	7	advance_on_keypress_SLASH	88	stimuli_target_trianglerectangles.svg	stimuli_distractor_diamondtriangles.svg	21	yes	57	0	426	0	0			0	0			1				0	
6.6.1	win	2023-07-10	10:32:56	10:46:25	806073	62e0c40c68eaa2ad1508eae6	3	1	main_slash	7	main_slash	89	stimuli_target_trianglesquares.svg	stimuli_distractor_trianglediamonds.svg	18	yes	53	1	521	0	0			0	0			1				0	
6.6.1	win	2023-07-10	10:32:56	10:46:25	806073	62e0c40c68eaa2ad1508eae6	3	1	main_slash	7	advance_on_keypress_SLASH	90	stimuli_target_trianglesquares.svg	stimuli_distractor_trianglediamonds.svg	18	yes	57	0	800	0	0			0	0			1				0	
6.6.1	win	2023-07-10	10:32:56	10:46:27	808046	62e0c40c68eaa2ad1508eae6	3	1	main_slash	7	main_slash	91	stimuli_distractor_trianglediamonds.svg	stimuli_target_diamondrectangles.svg	27	yes	53	1	529	0	0			0	0			1				0	
6.6.1	win	2023-07-10	10:32:56	10:46:27	808046	62e0c40c68eaa2ad1508eae6	3	1	main_slash	7	advance_on_keypress_SLASH	92	stimuli_distractor_trianglediamonds.svg	stimuli_target_diamondrectangles.svg	27	yes	57	0	372	0	0			0	0			1				0	
6.6.1	win	2023-07-10	10:32:56	10:46:29	809954	62e0c40c68eaa2ad1508eae6	3	1	main_slash	7	main_slash	93	stimuli_target_diamondrectangles.svg	stimuli_distractor_trianglediamonds.svg	19	yes	53	1	903	0	0			0	0			1				0	
6.6.1	win	2023-07-10	10:32:56	10:46:29	809954	62e0c40c68eaa2ad1508eae6	3	1	main_slash	7	advance_on_keypress_SLASH	94	stimuli_target_diamondrectangles.svg	stimuli_distractor_trianglediamonds.svg	19	yes	57	0	344	0	0			0	0			1				0	
6.6.1	win	2023-07-10	10:32:56	10:46:31	811790	62e0c40c68eaa2ad1508eae6	3	1	main_slash	7	main_slash	95	stimuli_target_rectanglediamonds.svg	stimuli_distractor_trianglediamonds.svg	2	yes	53	1	856	0	0			0	0			1				0	
6.6.1	win	2023-07-10	10:32:56	10:46:31	811790	62e0c40c68eaa2ad1508eae6	3	1	main_slash	7	advance_on_keypress_SLASH	96	stimuli_target_rectanglediamonds.svg	stimuli_distractor_trianglediamonds.svg	2	yes	57	0	428	0	0			0	0			1				0	
6.6.1	win	2023-07-10	10:32:56	10:46:34	814851	62e0c40c68eaa2ad1508eae6	3	1	main_slash	7	main_slash	97	stimuli_distractor_trianglediamonds.svg	stimuli_distractor_trianglediamonds.svg	34	no	0	1	2000	0	0			0	0			1				0	
6.6.1	win	2023-07-10	10:32:56	10:46:34	814851	62e0c40c68eaa2ad1508eae6	3	1	main_slash	7	advance_on_keypress_SLASH	98	stimuli_distractor_trianglediamonds.svg	stimuli_distractor_trianglediamonds.svg	34	no	57	0	358	0	0			0	0			1				0	
6.6.1	win	2023-07-10	10:32:56	10:46:36	816537	62e0c40c68eaa2ad1508eae6	3	1	main_slash	7	main_slash	99	stimuli_target_squaretriangles.svg	stimuli_distractor_trianglediamonds.svg	3	yes	53	1	686	0	0			0	0			1				0	
6.6.1	win	2023-07-10	10:32:56	10:46:36	816537	62e0c40c68eaa2ad1508eae6	3	1	main_slash	7	advance_on_keypress_SLASH	100	stimuli_target_squaretriangles.svg	stimuli_distractor_trianglediamonds.svg	3	yes	57	0	1222	0	0			0	0			1				0	
6.6.1	win	2023-07-10	10:32:56	10:46:39	820401	62e0c40c68eaa2ad1508eae6	3	1	main_slash	7	main_slash	101	stimuli_distractor_diamondtriangles.svg	stimuli_distractor_diamondtriangles.svg	39	no	0	1	2000	0	0			0	0			1				0	
6.6.1	win	2023-07-10	10:32:56	10:46:39	820401	62e0c40c68eaa2ad1508eae6	3	1	main_slash	7	advance_on_keypress_SLASH	102	stimuli_distractor_diamondtriangles.svg	stimuli_distractor_diamondtriangles.svg	39	no	57	0	304	0	0			0	0			1				0	
6.6.1	win	2023-07-10	10:32:56	10:46:41	822033	62e0c40c68eaa2ad1508eae6	3	1	main_slash	7	main_slash	103	stimuli_target_squarediamonds.svg	stimuli_distractor_diamondtriangles.svg	8	yes	53	1	683	0	0			0	0			1				0	
6.6.1	win	2023-07-10	10:32:56	10:46:41	822033	62e0c40c68eaa2ad1508eae6	3	1	main_slash	7	advance_on_keypress_SLASH	104	stimuli_target_squarediamonds.svg	stimuli_distractor_diamondtriangles.svg	8	yes	57	0	442	0	0			0	0			1				0	
6.6.1	win	2023-07-10	10:32:56	10:46:44	824868	62e0c40c68eaa2ad1508eae6	3	1	main_slash	7	main_slash	105	stimuli_distractor_diamondtriangles.svg	stimuli_distractor_trianglediamonds.svg	37	no	53	0	1751	0	0			0	0			1				0	
6.6.1	win	2023-07-10	10:32:56	10:46:44	824868	62e0c40c68eaa2ad1508eae6	3	1	main_slash	7	advance_on_keypress_SLASH	106	stimuli_distractor_diamondtriangles.svg	stimuli_distractor_trianglediamonds.svg	37	no	57	0	803	0	0			0	0			1				0	
6.6.1	win	2023-07-10	10:32:56	10:46:46	826982	62e0c40c68eaa2ad1508eae6	3	1	main_slash	7	main_slash	107	stimuli_target_rectangletriangles.svg	stimuli_distractor_trianglediamonds.svg	1	yes	53	1	665	0	0			0	0			1				0	
6.6.1	win	2023-07-10	10:32:56	10:46:46	826982	62e0c40c68eaa2ad1508eae6	3	1	main_slash	7	advance_on_keypress_SLASH	108	stimuli_target_rectangletriangles.svg	stimuli_distractor_trianglediamonds.svg	1	yes	57	0	587	0	0			0	0			1				0	
6.6.1	win	2023-07-10	10:32:56	10:46:48	828830	62e0c40c68eaa2ad1508eae6	3	1	main_slash	7	main_slash	109	stimuli_distractor_trianglediamonds.svg	stimuli_target_squarediamonds.svg	12	yes	53	1	612	0	0			0	0			1				0	
6.6.1	win	2023-07-10	10:32:56	10:46:48	828830	62e0c40c68eaa2ad1508eae6	3	1	main_slash	7	advance_on_keypress_SLASH	110	stimuli_distractor_trianglediamonds.svg	stimuli_target_squarediamonds.svg	12	yes	57	0	478	0	0			0	0			1				0	
6.6.1	win	2023-07-10	10:32:56	10:46:50	830507	62e0c40c68eaa2ad1508eae6	3	1	main_slash	7	main_slash	111	stimuli_distractor_trianglediamonds.svg	stimuli_target_diamondsquares.svg	28	yes	53	1	574	0	0			0	0			1				0	
6.6.1	win	2023-07-10	10:32:56	10:46:50	830507	62e0c40c68eaa2ad1508eae6	3	1	main_slash	7	advance_on_keypress_SLASH	112	stimuli_distractor_trianglediamonds.svg	stimuli_target_diamondsquares.svg	28	yes	57	0	461	0	0			0	0			1				0	
6.6.1	win	2023-07-10	10:32:56	10:46:51	832267	62e0c40c68eaa2ad1508eae6	3	1	main_slash	7	main_slash	113	stimuli_target_rectangletriangles.svg	stimuli_distractor_diamondtriangles.svg	5	yes	53	1	667	0	0			0	0			1				0	
6.6.1	win	2023-07-10	10:32:56	10:46:51	832267	62e0c40c68eaa2ad1508eae6	3	1	main_slash	7	advance_on_keypress_SLASH	114	stimuli_target_rectangletriangles.svg	stimuli_distractor_diamondtriangles.svg	5	yes	57	0	418	0	0			0	0			1				0	
6.6.1	win	2023-07-10	10:32:56	10:46:54	835334	62e0c40c68eaa2ad1508eae6	3	1	main_slash	7	main_slash	115	stimuli_distractor_diamondtriangles.svg	stimuli_target_rectanglediamonds.svg	14	yes	0	0	2000	0	0			0	0			1				0	
6.6.1	win	2023-07-10	10:32:56	10:46:54	835334	62e0c40c68eaa2ad1508eae6	3	1	main_slash	7	advance_on_keypress_SLASH	116	stimuli_distractor_diamondtriangles.svg	stimuli_target_rectanglediamonds.svg	14	yes	57	0	1334	0	0			0	0			1				0	
6.6.1	win	2023-07-10	10:32:56	10:46:57	837961	62e0c40c68eaa2ad1508eae6	3	1	main_slash	7	main_slash	117	stimuli_target_diamondsquares.svg	stimuli_distractor_diamondtriangles.svg	24	yes	53	1	644	0	0			0	0			1				0	
6.6.1	win	2023-07-10	10:32:56	10:46:57	837961	62e0c40c68eaa2ad1508eae6	3	1	main_slash	7	advance_on_keypress_SLASH	118	stimuli_target_diamondsquares.svg	stimuli_distractor_diamondtriangles.svg	24	yes	57	0	469	0	0			0	0			1				0	
6.6.1	win	2023-07-10	10:32:56	10:47:00	841067	62e0c40c68eaa2ad1508eae6	3	1	main_slash	7	main_slash	119	stimuli_distractor_diamondtriangles.svg	stimuli_distractor_diamondtriangles.svg	40	no	0	1	2000	0	0			0	0			1				0	
6.6.1	win	2023-07-10	10:32:56	10:47:00	841067	62e0c40c68eaa2ad1508eae6	3	1	main_slash	7	advance_on_keypress_SLASH	120	stimuli_distractor_diamondtriangles.svg	stimuli_distractor_diamondtriangles.svg	40	no	57	0	391	0	0			0	0			1				0	
6.6.1	win	2023-07-10	10:32:56	10:47:03	844101	62e0c40c68eaa2ad1508eae6	3	1	main_slash	7	main_slash	121	stimuli_distractor_trianglediamonds.svg	stimuli_distractor_diamondtriangles.svg	36	no	0	1	2000	0	0			0	0			1				0	
6.6.1	win	2023-07-10	10:32:56	10:47:03	844101	62e0c40c68eaa2ad1508eae6	3	1	main_slash	7	advance_on_keypress_SLASH	122	stimuli_distractor_trianglediamonds.svg	stimuli_distractor_diamondtriangles.svg	36	no	57	0	435	0	0			0	0			1				0	
6.6.1	win	2023-07-10	10:32:56	10:47:05	845703	62e0c40c68eaa2ad1508eae6	3	1	main_slash	7	main_slash	123	stimuli_distractor_diamondtriangles.svg	stimuli_target_trianglerectangles.svg	29	yes	53	1	520	0	0			0	0			1				0	
6.6.1	win	2023-07-10	10:32:56	10:47:05	845703	62e0c40c68eaa2ad1508eae6	3	1	main_slash	7	advance_on_keypress_SLASH	124	stimuli_distractor_diamondtriangles.svg	stimuli_target_trianglerectangles.svg	29	yes	57	0	495	0	0			0	0			1				0	
6.6.1	win	2023-07-10	10:32:56	10:47:06	847217	62e0c40c68eaa2ad1508eae6	3	1	main_slash	7	main_slash	125	stimuli_distractor_diamondtriangles.svg	stimuli_target_squaretriangles.svg	15	yes	53	1	376	0	0			0	0			1				0	
6.6.1	win	2023-07-10	10:32:56	10:47:06	847217	62e0c40c68eaa2ad1508eae6	3	1	main_slash	7	advance_on_keypress_SLASH	126	stimuli_distractor_diamondtriangles.svg	stimuli_target_squaretriangles.svg	15	yes	57	0	342	0	0			0	0			1				0	
6.6.1	win	2023-07-10	10:32:56	10:47:08	849150	62e0c40c68eaa2ad1508eae6	3	1	main_slash	7	main_slash	127	stimuli_target_diamondrectangles.svg	stimuli_distractor_diamondtriangles.svg	23	yes	53	1	949	0	0			0	0			1				0	
6.6.1	win	2023-07-10	10:32:56	10:47:08	849150	62e0c40c68eaa2ad1508eae6	3	1	main_slash	7	advance_on_keypress_SLASH	128	stimuli_target_diamondrectangles.svg	stimuli_distractor_diamondtriangles.svg	23	yes	57	0	391	0	0			0	0			1				0	
6.6.1	win	2023-07-10	10:32:56	10:47:11	852184	62e0c40c68eaa2ad1508eae6	3	1	main_slash	7	main_slash	129	stimuli_distractor_diamondtriangles.svg	stimuli_distractor_trianglediamonds.svg	38	no	0	1	2000	0	0			0	0			1				0	
6.6.1	win	2023-07-10	10:32:56	10:47:11	852184	62e0c40c68eaa2ad1508eae6	3	1	main_slash	7	advance_on_keypress_SLASH	130	stimuli_distractor_diamondtriangles.svg	stimuli_distractor_trianglediamonds.svg	38	no	57	0	406	0	0			0	0			1				0	
6.6.1	win	2023-07-10	10:32:56	10:47:13	853798	62e0c40c68eaa2ad1508eae6	3	1	main_slash	7	main_slash	131	stimuli_target_squarediamonds.svg	stimuli_distractor_trianglediamonds.svg	4	yes	53	1	564	0	0			0	0			1				0	
6.6.1	win	2023-07-10	10:32:56	10:47:13	853798	62e0c40c68eaa2ad1508eae6	3	1	main_slash	7	advance_on_keypress_SLASH	132	stimuli_target_squarediamonds.svg	stimuli_distractor_trianglediamonds.svg	4	yes	57	0	553	0	0			0	0			1				0	
6.6.1	win	2023-07-10	10:32:56	10:47:15	855675	62e0c40c68eaa2ad1508eae6	3	1	main_slash	7	main_slash	133	stimuli_distractor_trianglediamonds.svg	stimuli_target_rectangletriangles.svg	9	yes	53	1	675	0	0			0	0			1				0	
6.6.1	win	2023-07-10	10:32:56	10:47:15	855675	62e0c40c68eaa2ad1508eae6	3	1	main_slash	7	advance_on_keypress_SLASH	134	stimuli_distractor_trianglediamonds.svg	stimuli_target_rectangletriangles.svg	9	yes	57	0	772	0	0			0	0			1				0	
6.6.1	win	2023-07-10	10:32:56	10:47:17	857573	62e0c40c68eaa2ad1508eae6	3	1	main_slash	7	main_slash	135	stimuli_distractor_diamondtriangles.svg	stimuli_target_rectangletriangles.svg	13	yes	53	1	490	0	0			0	0			1				0	
6.6.1	win	2023-07-10	10:32:56	10:47:17	857573	62e0c40c68eaa2ad1508eae6	3	1	main_slash	7	advance_on_keypress_SLASH	136	stimuli_distractor_diamondtriangles.svg	stimuli_target_rectangletriangles.svg	13	yes	57	0	413	0	0			0	0			1				0	
6.6.1	win	2023-07-10	10:32:56	10:47:18	859000	62e0c40c68eaa2ad1508eae6	3	1	main_slash	7	main_slash	137	stimuli_distractor_diamondtriangles.svg	stimuli_target_trianglesquares.svg	30	yes	53	1	378	0	0			0	0			1				0	
6.6.1	win	2023-07-10	10:32:56	10:47:18	859000	62e0c40c68eaa2ad1508eae6	3	1	main_slash	7	advance_on_keypress_SLASH	138	stimuli_distractor_diamondtriangles.svg	stimuli_target_trianglesquares.svg	30	yes	57	0	311	0	0			0	0			1				0	
6.6.1	win	2023-07-10	10:32:56	10:47:19	860337	62e0c40c68eaa2ad1508eae6	3	1	main_slash	7	main_slash	139	stimuli_target_rectanglediamonds.svg	stimuli_distractor_diamondtriangles.svg	6	yes	53	1	387	0	0			0	0			1				0	
6.6.1	win	2023-07-10	10:32:56	10:47:19	860337	62e0c40c68eaa2ad1508eae6	3	1	main_slash	7	advance_on_keypress_SLASH	140	stimuli_target_rectanglediamonds.svg	stimuli_distractor_diamondtriangles.svg	6	yes	57	0	269	0	0			0	0			1				0	
6.6.1	win	2023-07-10	10:32:56	10:47:21	861633	62e0c40c68eaa2ad1508eae6	3	1	main_slash	7	main_slash	141	stimuli_distractor_diamondtriangles.svg	stimuli_target_squarediamonds.svg	16	yes	53	1	380	0	0			0	0			1				0	
6.6.1	win	2023-07-10	10:32:56	10:47:21	861633	62e0c40c68eaa2ad1508eae6	3	1	main_slash	7	advance_on_keypress_SLASH	142	stimuli_distractor_diamondtriangles.svg	stimuli_target_squarediamonds.svg	16	yes	57	0	220	0	0			0	0			1				0	
6.6.1	win	2023-07-10	10:32:56	10:47:22	862925	62e0c40c68eaa2ad1508eae6	3	1	main_slash	7	main_slash	143	stimuli_distractor_trianglediamonds.svg	stimuli_target_trianglerectangles.svg	25	yes	53	1	426	0	0			0	0			1				0	
6.6.1	win	2023-07-10	10:32:56	10:47:22	862925	62e0c40c68eaa2ad1508eae6	3	1	main_slash	7	advance_on_keypress_SLASH	144	stimuli_distractor_trianglediamonds.svg	stimuli_target_trianglerectangles.svg	25	yes	57	0	316	0	0			0	0			1				0	
6.6.1	win	2023-07-10	10:32:56	10:47:25	865883	62e0c40c68eaa2ad1508eae6	3	1	main_slash	7	main_slash	145	stimuli_distractor_trianglediamonds.svg	stimuli_distractor_diamondtriangles.svg	35	no	0	1	2000	0	0			0	0			1				0	
6.6.1	win	2023-07-10	10:32:56	10:47:25	865883	62e0c40c68eaa2ad1508eae6	3	1	main_slash	7	advance_on_keypress_SLASH	146	stimuli_distractor_trianglediamonds.svg	stimuli_distractor_diamondtriangles.svg	35	no	57	0	599	0	0			0	0			1				0	
6.6.1	win	2023-07-10	10:32:56	10:47:28	869133	62e0c40c68eaa2ad1508eae6	3	1	main_slash	7	main_slash	147	stimuli_distractor_trianglediamonds.svg	stimuli_distractor_trianglediamonds.svg	33	no	0	1	2000	0	0			0	0			1				0	
6.6.1	win	2023-07-10	10:32:56	10:47:28	869133	62e0c40c68eaa2ad1508eae6	3	1	main_slash	7	advance_on_keypress_SLASH	148	stimuli_distractor_trianglediamonds.svg	stimuli_distractor_trianglediamonds.svg	33	no	57	0	378	0	0			0	0			1				0	
6.6.1	win	2023-07-10	10:32:56	10:47:30	870560	62e0c40c68eaa2ad1508eae6	3	1	main_slash	7	main_slash	149	stimuli_distractor_diamondtriangles.svg	stimuli_target_diamondsquares.svg	32	yes	53	1	411	0	0			0	0			1				0	
6.6.1	win	2023-07-10	10:32:56	10:47:30	870560	62e0c40c68eaa2ad1508eae6	3	1	main_slash	7	advance_on_keypress_SLASH	150	stimuli_distractor_diamondtriangles.svg	stimuli_target_diamondsquares.svg	32	yes	57	0	348	0	0			0	0			1				0	
6.6.1	win	2023-07-10	10:32:56	10:47:31	871933	62e0c40c68eaa2ad1508eae6	3	1	main_slash	7	main_slash	151	stimuli_distractor_trianglediamonds.svg	stimuli_target_squaretriangles.svg	11	yes	53	1	377	0	0			0	0			1				0	
6.6.1	win	2023-07-10	10:32:56	10:47:31	871933	62e0c40c68eaa2ad1508eae6	3	1	main_slash	7	advance_on_keypress_SLASH	152	stimuli_distractor_trianglediamonds.svg	stimuli_target_squaretriangles.svg	11	yes	57	0	280	0	0			0	0			1				0	
6.6.1	win	2023-07-10	10:32:56	10:47:32	873231	62e0c40c68eaa2ad1508eae6	3	1	main_slash	7	main_slash	153	stimuli_distractor_diamondtriangles.svg	stimuli_target_diamondrectangles.svg	31	yes	53	1	364	0	0			0	0			1				0	
6.6.1	win	2023-07-10	10:32:56	10:47:32	873231	62e0c40c68eaa2ad1508eae6	3	1	main_slash	7	advance_on_keypress_SLASH	154	stimuli_distractor_diamondtriangles.svg	stimuli_target_diamondrectangles.svg	31	yes	57	0	625	0	0			0	0			1				0	
6.6.1	win	2023-07-10	10:32:56	10:47:34	875043	62e0c40c68eaa2ad1508eae6	3	1	main_slash	7	main_slash	155	stimuli_target_trianglerectangles.svg	stimuli_distractor_trianglediamonds.svg	17	yes	53	1	544	0	0			0	0			1				0	
6.6.1	win	2023-07-10	10:32:56	10:47:34	875043	62e0c40c68eaa2ad1508eae6	3	1	main_slash	7	advance_on_keypress_SLASH	156	stimuli_target_trianglerectangles.svg	stimuli_distractor_trianglediamonds.svg	17	yes	57	0	319	0	0			0	0			1				0	
6.6.1	win	2023-07-10	10:32:56	10:47:35	876383	62e0c40c68eaa2ad1508eae6	3	1	main_slash	7	main_slash	157	stimuli_distractor_trianglediamonds.svg	stimuli_target_rectanglediamonds.svg	10	yes	53	1	370	0	0			0	0			1				0	
6.6.1	win	2023-07-10	10:32:56	10:47:35	876383	62e0c40c68eaa2ad1508eae6	3	1	main_slash	7	advance_on_keypress_SLASH	158	stimuli_distractor_trianglediamonds.svg	stimuli_target_rectanglediamonds.svg	10	yes	57	0	731010	0	0			0	0			1				0	
6.6.1	win	2023-07-10	10:32:56	10:59:47	1608376	62e0c40c68eaa2ad1508eae6	3	1	main_slash	7	main_slash	159	stimuli_distractor_trianglediamonds.svg	stimuli_target_trianglesquares.svg	26	yes	53	1	345	0	0			0	0			1				0	
6.6.1	win	2023-07-10	10:32:56	10:59:47	1608376	62e0c40c68eaa2ad1508eae6	3	1	main_slash	7	advance_on_keypress_SLASH	160	stimuli_distractor_trianglediamonds.svg	stimuli_target_trianglesquares.svg	26	yes	57	0	375	0	0			0	0			1				0	
6.6.1	win	2023-07-10	10:32:56	11:00:13	1633843	62e0c40c68eaa2ad1508eae6	3	1	practice_z	9	practice_z	1	stimuli_target_squarediamonds.svg	stimuli_distractor_diamondtriangles.svg	2	yes	44	1	312	0	0			0	0			1				0	
6.6.1	win	2023-07-10	10:32:56	11:00:13	1633843	62e0c40c68eaa2ad1508eae6	3	1	practice_z	9	advance_on_keypress_ZEE	2	stimuli_target_squarediamonds.svg	stimuli_distractor_diamondtriangles.svg	2	yes	57	0	14140	0	0			0	0			1				0	
6.6.1	win	2023-07-10	10:32:56	11:00:29	1650185	62e0c40c68eaa2ad1508eae6	3	1	practice_z	9	practice_z	3	stimuli_distractor_diamondtriangles.svg	stimuli_target_rectangletriangles.svg	7	yes	44	1	553	0	0			0	0			1				0	
6.6.1	win	2023-07-10	10:32:56	11:00:29	1650185	62e0c40c68eaa2ad1508eae6	3	1	practice_z	9	advance_on_keypress_ZEE	4	stimuli_distractor_diamondtriangles.svg	stimuli_target_rectangletriangles.svg	7	yes	57	0	351	0	0			0	0			1				0	
6.6.1	win	2023-07-10	10:32:56	11:00:32	1652616	62e0c40c68eaa2ad1508eae6	3	1	practice_z	9	practice_z	5	stimuli_distractor_trianglediamonds.svg	stimuli_target_squarediamonds.svg	11	yes	44	1	435	0	0			0	0			1				0	
6.6.1	win	2023-07-10	10:32:56	11:00:32	1652616	62e0c40c68eaa2ad1508eae6	3	1	practice_z	9	advance_on_keypress_ZEE	6	stimuli_distractor_trianglediamonds.svg	stimuli_target_squarediamonds.svg	11	yes	57	0	323	0	0			0	0			1				0	
6.6.1	win	2023-07-10	10:32:56	11:00:36	1656582	62e0c40c68eaa2ad1508eae6	3	1	practice_z	9	practice_z	7	stimuli_distractor_diamondtriangles.svg	stimuli_distractor_trianglediamonds.svg	14	no	0	1	2000	0	0			0	0			1				0	
6.6.1	win	2023-07-10	10:32:56	11:00:36	1656582	62e0c40c68eaa2ad1508eae6	3	1	practice_z	9	advance_on_keypress_ZEE	8	stimuli_distractor_diamondtriangles.svg	stimuli_distractor_trianglediamonds.svg	14	no	57	0	613	0	0			0	0			1				0	
6.6.1	win	2023-07-10	10:32:56	11:00:38	1659379	62e0c40c68eaa2ad1508eae6	3	1	practice_z	9	practice_z	9	stimuli_distractor_trianglediamonds.svg	stimuli_target_rectanglediamonds.svg	10	yes	44	1	531	0	0			0	0			1				0	
6.6.1	win	2023-07-10	10:32:56	11:00:38	1659379	62e0c40c68eaa2ad1508eae6	3	1	practice_z	9	advance_on_keypress_ZEE	10	stimuli_distractor_trianglediamonds.svg	stimuli_target_rectanglediamonds.svg	10	yes	57	0	796	0	0			0	0			1				0	
6.6.1	win	2023-07-10	10:32:56	11:00:42	1662911	62e0c40c68eaa2ad1508eae6	3	1	practice_z	9	practice_z	11	stimuli_distractor_trianglediamonds.svg	stimuli_target_diamondrectangles.svg	12	yes	44	1	1081	0	0			0	0			1				0	
6.6.1	win	2023-07-10	10:32:56	11:00:42	1662911	62e0c40c68eaa2ad1508eae6	3	1	practice_z	9	advance_on_keypress_ZEE	12	stimuli_distractor_trianglediamonds.svg	stimuli_target_diamondrectangles.svg	12	yes	57	0	626	0	0			0	0			1				0	
6.6.1	win	2023-07-10	10:32:56	11:00:46	1667181	62e0c40c68eaa2ad1508eae6	3	1	practice_z	9	practice_z	13	stimuli_distractor_diamondtriangles.svg	stimuli_distractor_diamondtriangles.svg	13	no	0	1	2000	0	0			0	0			1				0	
6.6.1	win	2023-07-10	10:32:56	11:00:46	1667181	62e0c40c68eaa2ad1508eae6	3	1	practice_z	9	advance_on_keypress_ZEE	14	stimuli_distractor_diamondtriangles.svg	stimuli_distractor_diamondtriangles.svg	13	no	57	0	369	0	0			0	0			1				0	
6.6.1	win	2023-07-10	10:32:56	11:00:49	1669582	62e0c40c68eaa2ad1508eae6	3	1	practice_z	9	practice_z	15	stimuli_target_rectanglediamonds.svg	stimuli_distractor_trianglediamonds.svg	4	yes	44	1	384	0	0			0	0			1				0	
6.6.1	win	2023-07-10	10:32:56	11:00:49	1669582	62e0c40c68eaa2ad1508eae6	3	1	practice_z	9	advance_on_keypress_ZEE	16	stimuli_target_rectanglediamonds.svg	stimuli_distractor_trianglediamonds.svg	4	yes	57	0	390	0	0			0	0			1				0	
6.6.1	win	2023-07-10	10:32:56	11:00:51	1672061	62e0c40c68eaa2ad1508eae6	3	1	practice_z	9	practice_z	17	stimuli_target_rectanglediamonds.svg	stimuli_distractor_diamondtriangles.svg	1	yes	44	1	446	0	0			0	0			1				0	
6.6.1	win	2023-07-10	10:32:56	11:00:51	1672061	62e0c40c68eaa2ad1508eae6	3	1	practice_z	9	advance_on_keypress_ZEE	18	stimuli_target_rectanglediamonds.svg	stimuli_distractor_diamondtriangles.svg	1	yes	57	0	206	0	0			0	0			1				0	
6.6.1	win	2023-07-10	10:32:56	11:00:55	1675915	62e0c40c68eaa2ad1508eae6	3	1	practice_z	9	practice_z	19	stimuli_distractor_trianglediamonds.svg	stimuli_distractor_trianglediamonds.svg	15	no	0	1	2000	0	0			0	0			1				0	
6.6.1	win	2023-07-10	10:32:56	11:00:55	1675915	62e0c40c68eaa2ad1508eae6	3	1	practice_z	9	advance_on_keypress_ZEE	20	stimuli_distractor_trianglediamonds.svg	stimuli_distractor_trianglediamonds.svg	15	no	57	0	287	0	0			0	0			1				0	
6.6.1	win	2023-07-10	10:32:56	11:00:58	1678460	62e0c40c68eaa2ad1508eae6	3	1	practice_z	9	practice_z	21	stimuli_target_diamondsquares.svg	stimuli_distractor_diamondtriangles.svg	3	yes	44	1	612	0	0			0	0			1				0	
6.6.1	win	2023-07-10	10:32:56	11:00:58	1678460	62e0c40c68eaa2ad1508eae6	3	1	practice_z	9	advance_on_keypress_ZEE	22	stimuli_target_diamondsquares.svg	stimuli_distractor_diamondtriangles.svg	3	yes	57	0	405	0	0			0	0			1				0	
6.6.1	win	2023-07-10	10:32:56	11:01:02	1682498	62e0c40c68eaa2ad1508eae6	3	1	practice_z	9	practice_z	23	stimuli_distractor_trianglediamonds.svg	stimuli_distractor_diamondtriangles.svg	16	no	0	1	2000	0	0			0	0			1				0	
6.6.1	win	2023-07-10	10:32:56	11:01:02	1682498	62e0c40c68eaa2ad1508eae6	3	1	practice_z	9	advance_on_keypress_ZEE	24	stimuli_distractor_trianglediamonds.svg	stimuli_distractor_diamondtriangles.svg	16	no	57	0	277	0	0			0	0			1				0	
6.6.1	win	2023-07-10	10:32:56	11:01:04	1685110	62e0c40c68eaa2ad1508eae6	3	1	practice_z	9	practice_z	25	stimuli_distractor_diamondtriangles.svg	stimuli_target_diamondrectangles.svg	8	yes	44	1	696	0	0			0	0			1				0	
6.6.1	win	2023-07-10	10:32:56	11:01:04	1685110	62e0c40c68eaa2ad1508eae6	3	1	practice_z	9	advance_on_keypress_ZEE	26	stimuli_distractor_diamondtriangles.svg	stimuli_target_diamondrectangles.svg	8	yes	57	0	98	0	0			0	0			1				0	
6.6.1	win	2023-07-10	10:32:56	11:01:06	1687302	62e0c40c68eaa2ad1508eae6	3	1	practice_z	9	practice_z	27	stimuli_target_squarediamonds.svg	stimuli_distractor_trianglediamonds.svg	5	yes	44	1	438	0	0			0	0			1				0	
6.6.1	win	2023-07-10	10:32:56	11:01:06	1687302	62e0c40c68eaa2ad1508eae6	3	1	practice_z	9	advance_on_keypress_ZEE	28	stimuli_target_squarediamonds.svg	stimuli_distractor_trianglediamonds.svg	5	yes	57	0	272	0	0			0	0			1				0	
6.6.1	win	2023-07-10	10:32:56	11:01:09	1689596	62e0c40c68eaa2ad1508eae6	3	1	practice_z	9	practice_z	29	stimuli_target_diamondsquares.svg	stimuli_distractor_trianglediamonds.svg	6	yes	44	1	378	0	0			0	0			1				0	
6.6.1	win	2023-07-10	10:32:56	11:01:09	1689596	62e0c40c68eaa2ad1508eae6	3	1	practice_z	9	advance_on_keypress_ZEE	30	stimuli_target_diamondsquares.svg	stimuli_distractor_trianglediamonds.svg	6	yes	57	0	219	0	0			0	0			1				0	
6.6.1	win	2023-07-10	10:32:56	11:01:11	1691859	62e0c40c68eaa2ad1508eae6	3	1	practice_z	9	practice_z	31	stimuli_distractor_diamondtriangles.svg	stimuli_target_trianglerectangles.svg	9	yes	44	1	396	0	0			0	0			1				0	
6.6.1	win	2023-07-10	10:32:56	11:01:11	1691859	62e0c40c68eaa2ad1508eae6	3	1	practice_z	9	advance_on_keypress_ZEE	32	stimuli_distractor_diamondtriangles.svg	stimuli_target_trianglerectangles.svg	9	yes	57	0	246	0	0			0	0			1				0	
6.6.1	win	2023-07-10	10:32:56	11:01:15	1695520	62e0c40c68eaa2ad1508eae6	3	1	main_z	11	main_z	1	stimuli_target_diamondrectangles.svg	stimuli_distractor_trianglediamonds.svg	19	yes	44	1	440	0	0			0	0			1				0	
6.6.1	win	2023-07-10	10:32:56	11:01:15	1695520	62e0c40c68eaa2ad1508eae6	3	1	main_z	11	advance_on_keypress_ZEE	2	stimuli_target_diamondrectangles.svg	stimuli_distractor_trianglediamonds.svg	19	yes	57	0	1213	0	0			0	0			1				0	
6.6.1	win	2023-07-10	10:32:56	11:01:17	1697731	62e0c40c68eaa2ad1508eae6	3	1	main_z	11	main_z	3	stimuli_distractor_trianglediamonds.svg	stimuli_target_diamondsquares.svg	28	yes	44	1	352	0	0			0	0			1				0	
6.6.1	win	2023-07-10	10:32:56	11:01:17	1697731	62e0c40c68eaa2ad1508eae6	3	1	main_z	11	advance_on_keypress_ZEE	4	stimuli_distractor_trianglediamonds.svg	stimuli_target_diamondsquares.svg	28	yes	57	0	539	0	0			0	0			1				0	
6.6.1	win	2023-07-10	10:32:56	11:01:18	1699321	62e0c40c68eaa2ad1508eae6	3	1	main_z	11	main_z	5	stimuli_target_rectangletriangles.svg	stimuli_distractor_diamondtriangles.svg	5	yes	44	1	408	0	0			0	0			1				0	
6.6.1	win	2023-07-10	10:32:56	11:01:18	1699321	62e0c40c68eaa2ad1508eae6	3	1	main_z	11	advance_on_keypress_ZEE	6	stimuli_target_rectangletriangles.svg	stimuli_distractor_diamondtriangles.svg	5	yes	57	0	387	0	0			0	0			1				0	
6.6.1	win	2023-07-10	10:32:56	11:01:21	1702346	62e0c40c68eaa2ad1508eae6	3	1	main_z	11	main_z	7	stimuli_distractor_diamondtriangles.svg	stimuli_distractor_diamondtriangles.svg	39	no	0	1	2000	0	0			0	0			1				0	
6.6.1	win	2023-07-10	10:32:56	11:01:21	1702346	62e0c40c68eaa2ad1508eae6	3	1	main_z	11	advance_on_keypress_ZEE	8	stimuli_distractor_diamondtriangles.svg	stimuli_distractor_diamondtriangles.svg	39	no	57	0	273	0	0			0	0			1				0	
6.6.1	win	2023-07-10	10:32:56	11:01:23	1703579	62e0c40c68eaa2ad1508eae6	3	1	main_z	11	main_z	9	stimuli_distractor_trianglediamonds.svg	stimuli_target_squaretriangles.svg	11	yes	44	1	317	0	0			0	0			1				0	
6.6.1	win	2023-07-10	10:32:56	11:01:23	1703579	62e0c40c68eaa2ad1508eae6	3	1	main_z	11	advance_on_keypress_ZEE	10	stimuli_distractor_trianglediamonds.svg	stimuli_target_squaretriangles.svg	11	yes	57	0	360	0	0			0	0			1				0	
6.6.1	win	2023-07-10	10:32:56	11:01:24	1705097	62e0c40c68eaa2ad1508eae6	3	1	main_z	11	main_z	11	stimuli_target_trianglerectangles.svg	stimuli_distractor_trianglediamonds.svg	17	yes	44	1	517	0	0			0	0			1				0	
6.6.1	win	2023-07-10	10:32:56	11:01:24	1705097	62e0c40c68eaa2ad1508eae6	3	1	main_z	11	advance_on_keypress_ZEE	12	stimuli_target_trianglerectangles.svg	stimuli_distractor_trianglediamonds.svg	17	yes	57	0	587	0	0			0	0			1				0	
6.6.1	win	2023-07-10	10:32:56	11:01:26	1706739	62e0c40c68eaa2ad1508eae6	3	1	main_z	11	main_z	13	stimuli_target_diamondsquares.svg	stimuli_distractor_trianglediamonds.svg	20	yes	44	1	410	0	0			0	0			1				0	
6.6.1	win	2023-07-10	10:32:56	11:01:26	1706739	62e0c40c68eaa2ad1508eae6	3	1	main_z	11	advance_on_keypress_ZEE	14	stimuli_target_diamondsquares.svg	stimuli_distractor_trianglediamonds.svg	20	yes	57	0	350	0	0			0	0			1				0	
6.6.1	win	2023-07-10	10:32:56	11:01:29	1709729	62e0c40c68eaa2ad1508eae6	3	1	main_z	11	main_z	15	stimuli_distractor_diamondtriangles.svg	stimuli_distractor_trianglediamonds.svg	37	no	0	1	2000	0	0			0	0			1				0	
6.6.1	win	2023-07-10	10:32:56	11:01:29	1709729	62e0c40c68eaa2ad1508eae6	3	1	main_z	11	advance_on_keypress_ZEE	16	stimuli_distractor_diamondtriangles.svg	stimuli_distractor_trianglediamonds.svg	37	no	57	0	762	0	0			0	0			1				0	
6.6.1	win	2023-07-10	10:32:56	11:01:31	1711441	62e0c40c68eaa2ad1508eae6	3	1	main_z	11	main_z	17	stimuli_distractor_diamondtriangles.svg	stimuli_target_trianglesquares.svg	30	yes	44	1	312	0	0			0	0			1				0	
6.6.1	win	2023-07-10	10:32:56	11:01:31	1711441	62e0c40c68eaa2ad1508eae6	3	1	main_z	11	advance_on_keypress_ZEE	18	stimuli_distractor_diamondtriangles.svg	stimuli_target_trianglesquares.svg	30	yes	57	0	262	0	0			0	0			1				0	
6.6.1	win	2023-07-10	10:32:56	11:01:32	1713375	62e0c40c68eaa2ad1508eae6	3	1	main_z	11	main_z	19	stimuli_distractor_diamondtriangles.svg	stimuli_target_rectangletriangles.svg	13	yes	44	1	1045	0	0			0	0			1				0	
6.6.1	win	2023-07-10	10:32:56	11:01:32	1713375	62e0c40c68eaa2ad1508eae6	3	1	main_z	11	advance_on_keypress_ZEE	20	stimuli_distractor_diamondtriangles.svg	stimuli_target_rectangletriangles.svg	13	yes	57	0	732	0	0			0	0			1				0	
6.6.1	win	2023-07-10	10:32:56	11:01:34	1715304	62e0c40c68eaa2ad1508eae6	3	1	main_z	11	main_z	21	stimuli_target_diamondsquares.svg	stimuli_distractor_diamondtriangles.svg	24	yes	44	1	558	0	0			0	0			1				0	
6.6.1	win	2023-07-10	10:32:56	11:01:34	1715304	62e0c40c68eaa2ad1508eae6	3	1	main_z	11	advance_on_keypress_ZEE	22	stimuli_target_diamondsquares.svg	stimuli_distractor_diamondtriangles.svg	24	yes	57	0	363	0	0			0	0			1				0	
6.6.1	win	2023-07-10	10:32:56	11:01:36	1716696	62e0c40c68eaa2ad1508eae6	3	1	main_z	11	main_z	23	stimuli_target_trianglesquares.svg	stimuli_distractor_trianglediamonds.svg	18	yes	44	1	374	0	0			0	0			1				0	
6.6.1	win	2023-07-10	10:32:56	11:01:36	1716696	62e0c40c68eaa2ad1508eae6	3	1	main_z	11	advance_on_keypress_ZEE	24	stimuli_target_trianglesquares.svg	stimuli_distractor_trianglediamonds.svg	18	yes	57	0	287	0	0			0	0			1				0	
6.6.1	win	2023-07-10	10:32:56	11:01:37	1718264	62e0c40c68eaa2ad1508eae6	3	1	main_z	11	main_z	25	stimuli_target_diamondrectangles.svg	stimuli_distractor_diamondtriangles.svg	23	yes	44	1	636	0	0			0	0			1				0	
6.6.1	win	2023-07-10	10:32:56	11:01:37	1718264	62e0c40c68eaa2ad1508eae6	3	1	main_z	11	advance_on_keypress_ZEE	26	stimuli_target_diamondrectangles.svg	stimuli_distractor_diamondtriangles.svg	23	yes	57	0	362	0	0			0	0			1				0	
6.6.1	win	2023-07-10	10:32:56	11:01:39	1719669	62e0c40c68eaa2ad1508eae6	3	1	main_z	11	main_z	27	stimuli_distractor_diamondtriangles.svg	stimuli_target_diamondrectangles.svg	31	yes	44	1	390	0	0			0	0			1				0	
6.6.1	win	2023-07-10	10:32:56	11:01:39	1719669	62e0c40c68eaa2ad1508eae6	3	1	main_z	11	advance_on_keypress_ZEE	28	stimuli_distractor_diamondtriangles.svg	stimuli_target_diamondrectangles.svg	31	yes	57	0	267	0	0			0	0			1				0	
6.6.1	win	2023-07-10	10:32:56	11:01:40	1720962	62e0c40c68eaa2ad1508eae6	3	1	main_z	11	main_z	29	stimuli_target_rectangletriangles.svg	stimuli_distractor_trianglediamonds.svg	1	yes	44	1	375	0	0			0	0			1				0	
6.6.1	win	2023-07-10	10:32:56	11:01:40	1720962	62e0c40c68eaa2ad1508eae6	3	1	main_z	11	advance_on_keypress_ZEE	30	stimuli_target_rectangletriangles.svg	stimuli_distractor_trianglediamonds.svg	1	yes	57	0	325	0	0			0	0			1				0	
6.6.1	win	2023-07-10	10:32:56	11:01:41	1722256	62e0c40c68eaa2ad1508eae6	3	1	main_z	11	main_z	31	stimuli_target_squarediamonds.svg	stimuli_distractor_trianglediamonds.svg	4	yes	44	1	328	0	0			0	0			1				0	
6.6.1	win	2023-07-10	10:32:56	11:01:41	1722256	62e0c40c68eaa2ad1508eae6	3	1	main_z	11	advance_on_keypress_ZEE	32	stimuli_target_squarediamonds.svg	stimuli_distractor_trianglediamonds.svg	4	yes	57	0	243	0	0			0	0			1				0	
6.6.1	win	2023-07-10	10:32:56	11:01:43	1723471	62e0c40c68eaa2ad1508eae6	3	1	main_z	11	main_z	33	stimuli_distractor_trianglediamonds.svg	stimuli_target_rectanglediamonds.svg	10	yes	44	1	342	0	0			0	0			1				0	
6.6.1	win	2023-07-10	10:32:56	11:01:43	1723471	62e0c40c68eaa2ad1508eae6	3	1	main_z	11	advance_on_keypress_ZEE	34	stimuli_distractor_trianglediamonds.svg	stimuli_target_rectanglediamonds.svg	10	yes	57	0	244	0	0			0	0			1				0	
6.6.1	win	2023-07-10	10:32:56	11:01:44	1724653	62e0c40c68eaa2ad1508eae6	3	1	main_z	11	main_z	35	stimuli_distractor_diamondtriangles.svg	stimuli_target_rectanglediamonds.svg	14	yes	44	1	308	0	0			0	0			1				0	
6.6.1	win	2023-07-10	10:32:56	11:01:44	1724653	62e0c40c68eaa2ad1508eae6	3	1	main_z	11	advance_on_keypress_ZEE	36	stimuli_distractor_diamondtriangles.svg	stimuli_target_rectanglediamonds.svg	14	yes	57	0	280	0	0			0	0			1				0	
6.6.1	win	2023-07-10	10:32:56	11:01:45	1725859	62e0c40c68eaa2ad1508eae6	3	1	main_z	11	main_z	37	stimuli_distractor_diamondtriangles.svg	stimuli_target_squaretriangles.svg	15	yes	44	1	296	0	0			0	0			1				0	
6.6.1	win	2023-07-10	10:32:56	11:01:45	1725859	62e0c40c68eaa2ad1508eae6	3	1	main_z	11	advance_on_keypress_ZEE	38	stimuli_distractor_diamondtriangles.svg	stimuli_target_squaretriangles.svg	15	yes	57	0	297	0	0			0	0			1				0	
6.6.1	win	2023-07-10	10:32:56	11:01:46	1727091	62e0c40c68eaa2ad1508eae6	3	1	main_z	11	main_z	39	stimuli_distractor_trianglediamonds.svg	stimuli_target_squarediamonds.svg	12	yes	44	1	296	0	0			0	0			1				0	
6.6.1	win	2023-07-10	10:32:56	11:01:46	1727091	62e0c40c68eaa2ad1508eae6	3	1	main_z	11	advance_on_keypress_ZEE	40	stimuli_distractor_trianglediamonds.svg	stimuli_target_squarediamonds.svg	12	yes	57	0	281	0	0			0	0			1				0	
6.6.1	win	2023-07-10	10:32:56	11:01:47	1728288	62e0c40c68eaa2ad1508eae6	3	1	main_z	11	main_z	41	stimuli_distractor_trianglediamonds.svg	stimuli_distractor_diamondtriangles.svg	35	no	44	0	275	0	0			0	0			1				0	
6.6.1	win	2023-07-10	10:32:56	11:01:47	1728288	62e0c40c68eaa2ad1508eae6	3	1	main_z	11	advance_on_keypress_ZEE	42	stimuli_distractor_trianglediamonds.svg	stimuli_distractor_diamondtriangles.svg	35	no	57	0	323	0	0			0	0			1				0	
6.6.1	win	2023-07-10	10:32:56	11:01:49	1729773	62e0c40c68eaa2ad1508eae6	3	1	main_z	11	main_z	43	stimuli_target_rectanglediamonds.svg	stimuli_distractor_diamondtriangles.svg	6	yes	44	1	528	0	0			0	0			1				0	
6.6.1	win	2023-07-10	10:32:56	11:01:49	1729773	62e0c40c68eaa2ad1508eae6	3	1	main_z	11	advance_on_keypress_ZEE	44	stimuli_target_rectanglediamonds.svg	stimuli_distractor_diamondtriangles.svg	6	yes	57	0	367	0	0			0	0			1				0	
6.6.1	win	2023-07-10	10:32:56	11:01:52	1732779	62e0c40c68eaa2ad1508eae6	3	1	main_z	11	main_z	45	stimuli_distractor_trianglediamonds.svg	stimuli_distractor_trianglediamonds.svg	33	no	0	1	2000	0	0			0	0			1				0	
6.6.1	win	2023-07-10	10:32:56	11:01:52	1732779	62e0c40c68eaa2ad1508eae6	3	1	main_z	11	advance_on_keypress_ZEE	46	stimuli_distractor_trianglediamonds.svg	stimuli_distractor_trianglediamonds.svg	33	no	57	0	270	0	0			0	0			1				0	
6.6.1	win	2023-07-10	10:32:56	11:01:53	1734211	62e0c40c68eaa2ad1508eae6	3	1	main_z	11	main_z	47	stimuli_distractor_trianglediamonds.svg	stimuli_distractor_diamondtriangles.svg	36	no	44	0	504	0	0			0	0			1				0	
6.6.1	win	2023-07-10	10:32:56	11:01:53	1734211	62e0c40c68eaa2ad1508eae6	3	1	main_z	11	advance_on_keypress_ZEE	48	stimuli_distractor_trianglediamonds.svg	stimuli_distractor_diamondtriangles.svg	36	no	57	0	541	0	0			0	0			1				0	
6.6.1	win	2023-07-10	10:32:56	11:01:56	1736537	62e0c40c68eaa2ad1508eae6	3	1	main_z	11	main_z	49	stimuli_target_squarediamonds.svg	stimuli_distractor_diamondtriangles.svg	8	yes	44	1	1142	0	0			0	0			1				0	
6.6.1	win	2023-07-10	10:32:56	11:01:56	1736537	62e0c40c68eaa2ad1508eae6	3	1	main_z	11	advance_on_keypress_ZEE	50	stimuli_target_squarediamonds.svg	stimuli_distractor_diamondtriangles.svg	8	yes	57	0	365	0	0			0	0			1				0	
6.6.1	win	2023-07-10	10:32:56	11:01:57	1737928	62e0c40c68eaa2ad1508eae6	3	1	main_z	11	main_z	51	stimuli_target_squaretriangles.svg	stimuli_distractor_diamondtriangles.svg	7	yes	44	1	378	0	0			0	0			1				0	
6.6.1	win	2023-07-10	10:32:56	11:01:57	1737928	62e0c40c68eaa2ad1508eae6	3	1	main_z	11	advance_on_keypress_ZEE	52	stimuli_target_squaretriangles.svg	stimuli_distractor_diamondtriangles.svg	7	yes	57	0	266	0	0			0	0			1				0	
6.6.1	win	2023-07-10	10:32:56	11:01:58	1739408	62e0c40c68eaa2ad1508eae6	3	1	main_z	11	main_z	53	stimuli_distractor_diamondtriangles.svg	stimuli_target_diamondsquares.svg	32	yes	44	1	562	0	0			0	0			1				0	
6.6.1	win	2023-07-10	10:32:56	11:01:58	1739408	62e0c40c68eaa2ad1508eae6	3	1	main_z	11	advance_on_keypress_ZEE	54	stimuli_distractor_diamondtriangles.svg	stimuli_target_diamondsquares.svg	32	yes	57	0	266	0	0			0	0			1				0	
6.6.1	win	2023-07-10	10:32:56	11:02:00	1740786	62e0c40c68eaa2ad1508eae6	3	1	main_z	11	main_z	55	stimuli_distractor_trianglediamonds.svg	stimuli_target_trianglesquares.svg	26	yes	44	1	474	0	0			0	0			1				0	
6.6.1	win	2023-07-10	10:32:56	11:02:00	1740786	62e0c40c68eaa2ad1508eae6	3	1	main_z	11	advance_on_keypress_ZEE	56	stimuli_distractor_trianglediamonds.svg	stimuli_target_trianglesquares.svg	26	yes	57	0	307	0	0			0	0			1				0	
6.6.1	win	2023-07-10	10:32:56	11:02:03	1743728	62e0c40c68eaa2ad1508eae6	3	1	main_z	11	main_z	57	stimuli_distractor_diamondtriangles.svg	stimuli_distractor_trianglediamonds.svg	38	no	0	1	2000	0	0			0	0			1				0	
6.6.1	win	2023-07-10	10:32:56	11:02:03	1743728	62e0c40c68eaa2ad1508eae6	3	1	main_z	11	advance_on_keypress_ZEE	58	stimuli_distractor_diamondtriangles.svg	stimuli_distractor_trianglediamonds.svg	38	no	57	0	507	0	0			0	0			1				0	
6.6.1	win	2023-07-10	10:32:56	11:02:04	1745263	62e0c40c68eaa2ad1508eae6	3	1	main_z	11	main_z	59	stimuli_distractor_diamondtriangles.svg	stimuli_target_squarediamonds.svg	16	yes	44	1	385	0	0			0	0			1				0	
6.6.1	win	2023-07-10	10:32:56	11:02:04	1745263	62e0c40c68eaa2ad1508eae6	3	1	main_z	11	advance_on_keypress_ZEE	60	stimuli_distractor_diamondtriangles.svg	stimuli_target_squarediamonds.svg	16	yes	57	0	366	0	0			0	0			1				0	
6.6.1	win	2023-07-10	10:32:56	11:02:06	1746707	62e0c40c68eaa2ad1508eae6	3	1	main_z	11	main_z	61	stimuli_target_squaretriangles.svg	stimuli_distractor_trianglediamonds.svg	3	yes	44	1	428	0	0			0	0			1				0	
6.6.1	win	2023-07-10	10:32:56	11:02:06	1746707	62e0c40c68eaa2ad1508eae6	3	1	main_z	11	advance_on_keypress_ZEE	62	stimuli_target_squaretriangles.svg	stimuli_distractor_trianglediamonds.svg	3	yes	57	0	269	0	0			0	0			1				0	
6.6.1	win	2023-07-10	10:32:56	11:02:09	1749612	62e0c40c68eaa2ad1508eae6	3	1	main_z	11	main_z	63	stimuli_distractor_diamondtriangles.svg	stimuli_distractor_diamondtriangles.svg	40	no	0	1	2000	0	0			0	0			1				0	
6.6.1	win	2023-07-10	10:32:56	11:02:09	1749612	62e0c40c68eaa2ad1508eae6	3	1	main_z	11	advance_on_keypress_ZEE	64	stimuli_distractor_diamondtriangles.svg	stimuli_distractor_diamondtriangles.svg	40	no	57	0	505	0	0			0	0			1				0	
6.6.1	win	2023-07-10	10:32:56	11:02:10	1751150	62e0c40c68eaa2ad1508eae6	3	1	main_z	11	main_z	65	stimuli_distractor_trianglediamonds.svg	stimuli_target_rectangletriangles.svg	9	yes	44	1	389	0	0			0	0			1				0	
6.6.1	win	2023-07-10	10:32:56	11:02:10	1751150	62e0c40c68eaa2ad1508eae6	3	1	main_z	11	advance_on_keypress_ZEE	66	stimuli_distractor_trianglediamonds.svg	stimuli_target_rectangletriangles.svg	9	yes	57	0	269	0	0			0	0			1				0	
6.6.1	win	2023-07-10	10:32:56	11:02:12	1752777	62e0c40c68eaa2ad1508eae6	3	1	main_z	11	main_z	67	stimuli_target_trianglerectangles.svg	stimuli_distractor_diamondtriangles.svg	21	yes	44	1	715	0	0			0	0			1				0	
6.6.1	win	2023-07-10	10:32:56	11:02:12	1752777	62e0c40c68eaa2ad1508eae6	3	1	main_z	11	advance_on_keypress_ZEE	68	stimuli_target_trianglerectangles.svg	stimuli_distractor_diamondtriangles.svg	21	yes	57	0	358	0	0			0	0			1				0	
6.6.1	win	2023-07-10	10:32:56	11:02:13	1754294	62e0c40c68eaa2ad1508eae6	3	1	main_z	11	main_z	69	stimuli_distractor_trianglediamonds.svg	stimuli_target_diamondrectangles.svg	27	yes	44	1	509	0	0			0	0			1				0	
6.6.1	win	2023-07-10	10:32:56	11:02:13	1754294	62e0c40c68eaa2ad1508eae6	3	1	main_z	11	advance_on_keypress_ZEE	70	stimuli_distractor_trianglediamonds.svg	stimuli_target_diamondrectangles.svg	27	yes	57	0	362	0	0			0	0			1				0	
6.6.1	win	2023-07-10	10:32:56	11:02:15	1755944	62e0c40c68eaa2ad1508eae6	3	1	main_z	11	main_z	71	stimuli_distractor_trianglediamonds.svg	stimuli_target_trianglerectangles.svg	25	yes	44	1	650	0	0			0	0			1				0	
6.6.1	win	2023-07-10	10:32:56	11:02:15	1755944	62e0c40c68eaa2ad1508eae6	3	1	main_z	11	advance_on_keypress_ZEE	72	stimuli_distractor_trianglediamonds.svg	stimuli_target_trianglerectangles.svg	25	yes	57	0	374	0	0			0	0			1				0	
6.6.1	win	2023-07-10	10:32:56	11:02:18	1758961	62e0c40c68eaa2ad1508eae6	3	1	main_z	11	main_z	73	stimuli_distractor_trianglediamonds.svg	stimuli_distractor_trianglediamonds.svg	34	no	0	1	2000	0	0			0	0			1				0	
6.6.1	win	2023-07-10	10:32:56	11:02:18	1758961	62e0c40c68eaa2ad1508eae6	3	1	main_z	11	advance_on_keypress_ZEE	74	stimuli_distractor_trianglediamonds.svg	stimuli_distractor_trianglediamonds.svg	34	no	57	0	421	0	0			0	0			1				0	
6.6.1	win	2023-07-10	10:32:56	11:02:20	1760449	62e0c40c68eaa2ad1508eae6	3	1	main_z	11	main_z	75	stimuli_target_rectanglediamonds.svg	stimuli_distractor_trianglediamonds.svg	2	yes	44	1	421	0	0			0	0			1				0	
6.6.1	win	2023-07-10	10:32:56	11:02:20	1760449	62e0c40c68eaa2ad1508eae6	3	1	main_z	11	advance_on_keypress_ZEE	76	stimuli_target_rectanglediamonds.svg	stimuli_distractor_trianglediamonds.svg	2	yes	57	0	289	0	0			0	0			1				0	
6.6.1	win	2023-07-10	10:32:56	11:02:21	1761787	62e0c40c68eaa2ad1508eae6	3	1	main_z	11	main_z	77	stimuli_target_trianglesquares.svg	stimuli_distractor_diamondtriangles.svg	22	yes	44	1	410	0	0			0	0			1				0	
6.6.1	win	2023-07-10	10:32:56	11:02:21	1761787	62e0c40c68eaa2ad1508eae6	3	1	main_z	11	advance_on_keypress_ZEE	78	stimuli_target_trianglesquares.svg	stimuli_distractor_diamondtriangles.svg	22	yes	57	0	226	0	0			0	0			1				0	
6.6.1	win	2023-07-10	10:32:56	11:02:22	1762977	62e0c40c68eaa2ad1508eae6	3	1	main_z	11	main_z	79	stimuli_distractor_diamondtriangles.svg	stimuli_target_trianglerectangles.svg	29	yes	44	1	332	0	0			0	0			1				0	
6.6.1	win	2023-07-10	10:32:56	11:02:22	1762977	62e0c40c68eaa2ad1508eae6	3	1	main_z	11	advance_on_keypress_ZEE	80	stimuli_distractor_diamondtriangles.svg	stimuli_target_trianglerectangles.svg	29	yes	57	0	216	0	0			0	0			1				0	
6.6.1	win	2023-07-10	10:32:56	11:02:23	1764169	62e0c40c68eaa2ad1508eae6	3	1	main_z	11	main_z	81	stimuli_distractor_diamondtriangles.svg	stimuli_target_squarediamonds.svg	16	yes	44	1	325	0	0			0	0			1				0	
6.6.1	win	2023-07-10	10:32:56	11:02:23	1764169	62e0c40c68eaa2ad1508eae6	3	1	main_z	11	advance_on_keypress_ZEE	82	stimuli_distractor_diamondtriangles.svg	stimuli_target_squarediamonds.svg	16	yes	57	0	232	0	0			0	0			1				0	
6.6.1	win	2023-07-10	10:32:56	11:02:24	1765378	62e0c40c68eaa2ad1508eae6	3	1	main_z	11	main_z	83	stimuli_distractor_trianglediamonds.svg	stimuli_target_rectanglediamonds.svg	10	yes	44	1	334	0	0			0	0			1				0	
6.6.1	win	2023-07-10	10:32:56	11:02:24	1765378	62e0c40c68eaa2ad1508eae6	3	1	main_z	11	advance_on_keypress_ZEE	84	stimuli_distractor_trianglediamonds.svg	stimuli_target_rectanglediamonds.svg	10	yes	57	0	204	0	0			0	0			1				0	
6.6.1	win	2023-07-10	10:32:56	11:02:26	1766530	62e0c40c68eaa2ad1508eae6	3	1	main_z	11	main_z	85	stimuli_distractor_diamondtriangles.svg	stimuli_distractor_diamondtriangles.svg	39	no	44	0	302	0	0			0	0			1				0	
6.6.1	win	2023-07-10	10:32:56	11:02:26	1766530	62e0c40c68eaa2ad1508eae6	3	1	main_z	11	advance_on_keypress_ZEE	86	stimuli_distractor_diamondtriangles.svg	stimuli_distractor_diamondtriangles.svg	39	no	57	0	778	0	0			0	0			1				0	
6.6.1	win	2023-07-10	10:32:56	11:02:28	1768618	62e0c40c68eaa2ad1508eae6	3	1	main_z	11	main_z	87	stimuli_distractor_diamondtriangles.svg	stimuli_target_diamondrectangles.svg	31	yes	44	1	673	0	0			0	0			1				0	
6.6.1	win	2023-07-10	10:32:56	11:02:28	1768618	62e0c40c68eaa2ad1508eae6	3	1	main_z	11	advance_on_keypress_ZEE	88	stimuli_distractor_diamondtriangles.svg	stimuli_target_diamondrectangles.svg	31	yes	57	0	279	0	0			0	0			1				0	
6.6.1	win	2023-07-10	10:32:56	11:02:29	1769953	62e0c40c68eaa2ad1508eae6	3	1	main_z	11	main_z	89	stimuli_target_trianglerectangles.svg	stimuli_distractor_diamondtriangles.svg	21	yes	44	1	426	0	0			0	0			1				0	
6.6.1	win	2023-07-10	10:32:56	11:02:29	1769953	62e0c40c68eaa2ad1508eae6	3	1	main_z	11	advance_on_keypress_ZEE	90	stimuli_target_trianglerectangles.svg	stimuli_distractor_diamondtriangles.svg	21	yes	57	0	314	0	0			0	0			1				0	
6.6.1	win	2023-07-10	10:32:56	11:02:30	1771347	62e0c40c68eaa2ad1508eae6	3	1	main_z	11	main_z	91	stimuli_target_diamondsquares.svg	stimuli_distractor_trianglediamonds.svg	20	yes	44	1	436	0	0			0	0			1				0	
6.6.1	win	2023-07-10	10:32:56	11:02:30	1771347	62e0c40c68eaa2ad1508eae6	3	1	main_z	11	advance_on_keypress_ZEE	92	stimuli_target_diamondsquares.svg	stimuli_distractor_trianglediamonds.svg	20	yes	57	0	311	0	0			0	0			1				0	
6.6.1	win	2023-07-10	10:32:56	11:02:32	1772694	62e0c40c68eaa2ad1508eae6	3	1	main_z	11	main_z	93	stimuli_target_squarediamonds.svg	stimuli_distractor_diamondtriangles.svg	8	yes	44	1	400	0	0			0	0			1				0	
6.6.1	win	2023-07-10	10:32:56	11:02:32	1772694	62e0c40c68eaa2ad1508eae6	3	1	main_z	11	advance_on_keypress_ZEE	94	stimuli_target_squarediamonds.svg	stimuli_distractor_diamondtriangles.svg	8	yes	57	0	292	0	0			0	0			1				0	
6.6.1	win	2023-07-10	10:32:56	11:02:33	1774039	62e0c40c68eaa2ad1508eae6	3	1	main_z	11	main_z	95	stimuli_target_diamondrectangles.svg	stimuli_distractor_diamondtriangles.svg	23	yes	44	1	411	0	0			0	0			1				0	
6.6.1	win	2023-07-10	10:32:56	11:02:33	1774039	62e0c40c68eaa2ad1508eae6	3	1	main_z	11	advance_on_keypress_ZEE	96	stimuli_target_diamondrectangles.svg	stimuli_distractor_diamondtriangles.svg	23	yes	57	0	329	0	0			0	0			1				0	
6.6.1	win	2023-07-10	10:32:56	11:02:34	1775368	62e0c40c68eaa2ad1508eae6	3	1	main_z	11	main_z	97	stimuli_target_rectangletriangles.svg	stimuli_distractor_trianglediamonds.svg	1	yes	44	1	358	0	0			0	0			1				0	
6.6.1	win	2023-07-10	10:32:56	11:02:34	1775368	62e0c40c68eaa2ad1508eae6	3	1	main_z	11	advance_on_keypress_ZEE	98	stimuli_target_rectangletriangles.svg	stimuli_distractor_trianglediamonds.svg	1	yes	57	0	336	0	0			0	0			1				0	
6.6.1	win	2023-07-10	10:32:56	11:02:37	1778038	62e0c40c68eaa2ad1508eae6	3	1	main_z	11	main_z	99	stimuli_distractor_diamondtriangles.svg	stimuli_target_squaretriangles.svg	15	yes	44	1	1694	0	0			0	0			1				0	
6.6.1	win	2023-07-10	10:32:56	11:02:37	1778038	62e0c40c68eaa2ad1508eae6	3	1	main_z	11	advance_on_keypress_ZEE	100	stimuli_distractor_diamondtriangles.svg	stimuli_target_squaretriangles.svg	15	yes	57	0	570	0	0			0	0			1				0	
6.6.1	win	2023-07-10	10:32:56	11:02:39	1779676	62e0c40c68eaa2ad1508eae6	3	1	main_z	11	main_z	101	stimuli_target_squarediamonds.svg	stimuli_distractor_trianglediamonds.svg	4	yes	44	1	431	0	0			0	0			1				0	
6.6.1	win	2023-07-10	10:32:56	11:02:39	1779676	62e0c40c68eaa2ad1508eae6	3	1	main_z	11	advance_on_keypress_ZEE	102	stimuli_target_squarediamonds.svg	stimuli_distractor_trianglediamonds.svg	4	yes	57	0	377	0	0			0	0			1				0	
6.6.1	win	2023-07-10	10:32:56	11:02:40	1781120	62e0c40c68eaa2ad1508eae6	3	1	main_z	11	main_z	103	stimuli_target_squaretriangles.svg	stimuli_distractor_diamondtriangles.svg	7	yes	44	1	425	0	0			0	0			1				0	
6.6.1	win	2023-07-10	10:32:56	11:02:40	1781120	62e0c40c68eaa2ad1508eae6	3	1	main_z	11	advance_on_keypress_ZEE	104	stimuli_target_squaretriangles.svg	stimuli_distractor_diamondtriangles.svg	7	yes	57	0	321	0	0			0	0			1				0	
6.6.1	win	2023-07-10	10:32:56	11:02:42	1782530	62e0c40c68eaa2ad1508eae6	3	1	main_z	11	main_z	105	stimuli_target_trianglesquares.svg	stimuli_distractor_diamondtriangles.svg	22	yes	44	1	452	0	0			0	0			1				0	
6.6.1	win	2023-07-10	10:32:56	11:02:42	1782530	62e0c40c68eaa2ad1508eae6	3	1	main_z	11	advance_on_keypress_ZEE	106	stimuli_target_trianglesquares.svg	stimuli_distractor_diamondtriangles.svg	22	yes	57	0	306	0	0			0	0			1				0	
6.6.1	win	2023-07-10	10:32:56	11:02:43	1783860	62e0c40c68eaa2ad1508eae6	3	1	main_z	11	main_z	107	stimuli_target_diamondsquares.svg	stimuli_distractor_diamondtriangles.svg	24	yes	44	1	369	0	0			0	0			1				0	
6.6.1	win	2023-07-10	10:32:56	11:02:43	1783860	62e0c40c68eaa2ad1508eae6	3	1	main_z	11	advance_on_keypress_ZEE	108	stimuli_target_diamondsquares.svg	stimuli_distractor_diamondtriangles.svg	24	yes	57	0	494	0	0			0	0			1				0	
6.6.1	win	2023-07-10	10:32:56	11:02:46	1786994	62e0c40c68eaa2ad1508eae6	3	1	main_z	11	main_z	109	stimuli_distractor_trianglediamonds.svg	stimuli_distractor_diamondtriangles.svg	35	no	0	1	2000	0	0			0	0			1				0	
6.6.1	win	2023-07-10	10:32:56	11:02:46	1786994	62e0c40c68eaa2ad1508eae6	3	1	main_z	11	advance_on_keypress_ZEE	110	stimuli_distractor_trianglediamonds.svg	stimuli_distractor_diamondtriangles.svg	35	no	57	0	1278	0	0			0	0			1				0	
6.6.1	win	2023-07-10	10:32:56	11:02:48	1789321	62e0c40c68eaa2ad1508eae6	3	1	main_z	11	main_z	111	stimuli_distractor_diamondtriangles.svg	stimuli_distractor_trianglediamonds.svg	38	no	44	0	411	0	0			0	0			1				0	
6.6.1	win	2023-07-10	10:32:56	11:02:48	1789321	62e0c40c68eaa2ad1508eae6	3	1	main_z	11	advance_on_keypress_ZEE	112	stimuli_distractor_diamondtriangles.svg	stimuli_distractor_trianglediamonds.svg	38	no	57	0	802	0	0			0	0			1				0	
6.6.1	win	2023-07-10	10:32:56	11:02:51	1791461	62e0c40c68eaa2ad1508eae6	3	1	main_z	11	main_z	113	stimuli_distractor_diamondtriangles.svg	stimuli_target_trianglesquares.svg	30	yes	44	1	701	0	0			0	0			1				0	
6.6.1	win	2023-07-10	10:32:56	11:02:51	1791461	62e0c40c68eaa2ad1508eae6	3	1	main_z	11	advance_on_keypress_ZEE	114	stimuli_distractor_diamondtriangles.svg	stimuli_target_trianglesquares.svg	30	yes	57	0	524	0	0			0	0			1				0	
6.6.1	win	2023-07-10	10:32:56	11:02:53	1794080	62e0c40c68eaa2ad1508eae6	3	1	main_z	11	main_z	115	stimuli_distractor_trianglediamonds.svg	stimuli_target_squaretriangles.svg	11	yes	44	1	1453	0	0			0	0			1				0	
6.6.1	win	2023-07-10	10:32:56	11:02:53	1794080	62e0c40c68eaa2ad1508eae6	3	1	main_z	11	advance_on_keypress_ZEE	116	stimuli_distractor_trianglediamonds.svg	stimuli_target_squaretriangles.svg	11	yes	57	0	669	0	0			0	0			1				0	
6.6.1	win	2023-07-10	10:32:56	11:02:55	1795859	62e0c40c68eaa2ad1508eae6	3	1	main_z	11	main_z	117	stimuli_target_rectanglediamonds.svg	stimuli_distractor_trianglediamonds.svg	2	yes	44	1	465	0	0			0	0			1				0	
6.6.1	win	2023-07-10	10:32:56	11:02:55	1795859	62e0c40c68eaa2ad1508eae6	3	1	main_z	11	advance_on_keypress_ZEE	118	stimuli_target_rectanglediamonds.svg	stimuli_distractor_trianglediamonds.svg	2	yes	57	0	294	0	0			0	0			1				0	
6.6.1	win	2023-07-10	10:32:56	11:02:58	1798794	62e0c40c68eaa2ad1508eae6	3	1	main_z	11	main_z	119	stimuli_distractor_trianglediamonds.svg	stimuli_distractor_trianglediamonds.svg	34	no	0	1	2000	0	0			0	0			1				0	
6.6.1	win	2023-07-10	10:32:56	11:02:58	1798794	62e0c40c68eaa2ad1508eae6	3	1	main_z	11	advance_on_keypress_ZEE	120	stimuli_distractor_trianglediamonds.svg	stimuli_distractor_trianglediamonds.svg	34	no	57	0	232	0	0			0	0			1				0	
6.6.1	win	2023-07-10	10:32:56	11:02:59	1800090	62e0c40c68eaa2ad1508eae6	3	1	main_z	11	main_z	121	stimuli_distractor_diamondtriangles.svg	stimuli_target_rectanglediamonds.svg	14	yes	44	1	414	0	0			0	0			1				0	
6.6.1	win	2023-07-10	10:32:56	11:02:59	1800090	62e0c40c68eaa2ad1508eae6	3	1	main_z	11	advance_on_keypress_ZEE	122	stimuli_distractor_diamondtriangles.svg	stimuli_target_rectanglediamonds.svg	14	yes	57	0	280	0	0			0	0			1				0	
6.6.1	win	2023-07-10	10:32:56	11:03:00	1801333	62e0c40c68eaa2ad1508eae6	3	1	main_z	11	main_z	123	stimuli_distractor_trianglediamonds.svg	stimuli_target_diamondrectangles.svg	27	yes	44	1	322	0	0			0	0			1				0	
6.6.1	win	2023-07-10	10:32:56	11:03:00	1801333	62e0c40c68eaa2ad1508eae6	3	1	main_z	11	advance_on_keypress_ZEE	124	stimuli_distractor_trianglediamonds.svg	stimuli_target_diamondrectangles.svg	27	yes	57	0	284	0	0			0	0			1				0	
6.6.1	win	2023-07-10	10:32:56	11:03:02	1802605	62e0c40c68eaa2ad1508eae6	3	1	main_z	11	main_z	125	stimuli_distractor_diamondtriangles.svg	stimuli_distractor_diamondtriangles.svg	40	no	44	0	345	0	0			0	0			1				0	
6.6.1	win	2023-07-10	10:32:56	11:03:02	1802605	62e0c40c68eaa2ad1508eae6	3	1	main_z	11	advance_on_keypress_ZEE	126	stimuli_distractor_diamondtriangles.svg	stimuli_distractor_diamondtriangles.svg	40	no	57	0	846	0	0			0	0			1				0	
6.6.1	win	2023-07-10	10:32:56	11:03:05	1806094	62e0c40c68eaa2ad1508eae6	3	1	main_z	11	main_z	127	stimuli_distractor_trianglediamonds.svg	stimuli_distractor_trianglediamonds.svg	33	no	0	1	2000	0	0			0	0			1				0	
6.6.1	win	2023-07-10	10:32:56	11:03:05	1806094	62e0c40c68eaa2ad1508eae6	3	1	main_z	11	advance_on_keypress_ZEE	128	stimuli_distractor_trianglediamonds.svg	stimuli_distractor_trianglediamonds.svg	33	no	57	0	399	0	0			0	0			1				0	
6.6.1	win	2023-07-10	10:32:56	11:03:07	1807630	62e0c40c68eaa2ad1508eae6	3	1	main_z	11	main_z	129	stimuli_target_squaretriangles.svg	stimuli_distractor_trianglediamonds.svg	3	yes	44	1	487	0	0			0	0			1				0	
6.6.1	win	2023-07-10	10:32:56	11:03:07	1807630	62e0c40c68eaa2ad1508eae6	3	1	main_z	11	advance_on_keypress_ZEE	130	stimuli_target_squaretriangles.svg	stimuli_distractor_trianglediamonds.svg	3	yes	57	0	350	0	0			0	0			1				0	
6.6.1	win	2023-07-10	10:32:56	11:03:09	1809807	62e0c40c68eaa2ad1508eae6	3	1	main_z	11	main_z	131	stimuli_distractor_diamondtriangles.svg	stimuli_target_rectangletriangles.svg	13	yes	44	1	1180	0	0			0	0			1				0	
6.6.1	win	2023-07-10	10:32:56	11:03:09	1809807	62e0c40c68eaa2ad1508eae6	3	1	main_z	11	advance_on_keypress_ZEE	132	stimuli_distractor_diamondtriangles.svg	stimuli_target_rectangletriangles.svg	13	yes	57	0	679	0	0			0	0			1				0	
6.6.1	win	2023-07-10	10:32:56	11:03:11	1811587	62e0c40c68eaa2ad1508eae6	3	1	main_z	11	main_z	133	stimuli_target_trianglesquares.svg	stimuli_distractor_trianglediamonds.svg	18	yes	44	1	460	0	0			0	0			1				0	
6.6.1	win	2023-07-10	10:32:56	11:03:11	1811587	62e0c40c68eaa2ad1508eae6	3	1	main_z	11	advance_on_keypress_ZEE	134	stimuli_target_trianglesquares.svg	stimuli_distractor_trianglediamonds.svg	18	yes	57	0	359	0	0			0	0			1				0	
6.6.1	win	2023-07-10	10:32:56	11:03:12	1813007	62e0c40c68eaa2ad1508eae6	3	1	main_z	11	main_z	135	stimuli_distractor_trianglediamonds.svg	stimuli_target_trianglerectangles.svg	25	yes	44	1	430	0	0			0	0			1				0	
6.6.1	win	2023-07-10	10:32:56	11:03:12	1813007	62e0c40c68eaa2ad1508eae6	3	1	main_z	11	advance_on_keypress_ZEE	136	stimuli_distractor_trianglediamonds.svg	stimuli_target_trianglerectangles.svg	25	yes	57	0	314	0	0			0	0			1				0	
6.6.1	win	2023-07-10	10:32:56	11:03:14	1814452	62e0c40c68eaa2ad1508eae6	3	1	main_z	11	main_z	137	stimuli_target_diamondrectangles.svg	stimuli_distractor_trianglediamonds.svg	19	yes	44	1	492	0	0			0	0			1				0	
6.6.1	win	2023-07-10	10:32:56	11:03:14	1814452	62e0c40c68eaa2ad1508eae6	3	1	main_z	11	advance_on_keypress_ZEE	138	stimuli_target_diamondrectangles.svg	stimuli_distractor_trianglediamonds.svg	19	yes	57	0	280	0	0			0	0			1				0	
6.6.1	win	2023-07-10	10:32:56	11:03:15	1815825	62e0c40c68eaa2ad1508eae6	3	1	main_z	11	main_z	139	stimuli_distractor_diamondtriangles.svg	stimuli_target_trianglerectangles.svg	29	yes	44	1	449	0	0			0	0			1				0	
6.6.1	win	2023-07-10	10:32:56	11:03:15	1815825	62e0c40c68eaa2ad1508eae6	3	1	main_z	11	advance_on_keypress_ZEE	140	stimuli_distractor_diamondtriangles.svg	stimuli_target_trianglerectangles.svg	29	yes	57	0	284	0	0			0	0			1				0	
6.6.1	win	2023-07-10	10:32:56	11:03:16	1817167	62e0c40c68eaa2ad1508eae6	3	1	main_z	11	main_z	141	stimuli_distractor_trianglediamonds.svg	stimuli_target_diamondsquares.svg	28	yes	44	1	408	0	0			0	0			1				0	
6.6.1	win	2023-07-10	10:32:56	11:03:16	1817167	62e0c40c68eaa2ad1508eae6	3	1	main_z	11	advance_on_keypress_ZEE	142	stimuli_distractor_trianglediamonds.svg	stimuli_target_diamondsquares.svg	28	yes	57	0	294	0	0			0	0			1				0	
6.6.1	win	2023-07-10	10:32:56	11:03:18	1818509	62e0c40c68eaa2ad1508eae6	3	1	main_z	11	main_z	143	stimuli_distractor_diamondtriangles.svg	stimuli_distractor_trianglediamonds.svg	37	no	44	0	415	0	0			0	0			1				0	
6.6.1	win	2023-07-10	10:32:56	11:03:18	1818509	62e0c40c68eaa2ad1508eae6	3	1	main_z	11	advance_on_keypress_ZEE	144	stimuli_distractor_diamondtriangles.svg	stimuli_distractor_trianglediamonds.svg	37	no	57	0	718	0	0			0	0			1				0	
6.6.1	win	2023-07-10	10:32:56	11:03:20	1820528	62e0c40c68eaa2ad1508eae6	3	1	main_z	11	main_z	145	stimuli_distractor_diamondtriangles.svg	stimuli_target_diamondsquares.svg	32	yes	44	1	652	0	0			0	0			1				0	
6.6.1	win	2023-07-10	10:32:56	11:03:20	1820528	62e0c40c68eaa2ad1508eae6	3	1	main_z	11	advance_on_keypress_ZEE	146	stimuli_distractor_diamondtriangles.svg	stimuli_target_diamondsquares.svg	32	yes	57	0	324	0	0			0	0			1				0	
6.6.1	win	2023-07-10	10:32:56	11:03:21	1822179	62e0c40c68eaa2ad1508eae6	3	1	main_z	11	main_z	147	stimuli_target_rectangletriangles.svg	stimuli_distractor_diamondtriangles.svg	5	yes	44	1	685	0	0			0	0			1				0	
6.6.1	win	2023-07-10	10:32:56	11:03:21	1822179	62e0c40c68eaa2ad1508eae6	3	1	main_z	11	advance_on_keypress_ZEE	148	stimuli_target_rectangletriangles.svg	stimuli_distractor_diamondtriangles.svg	5	yes	57	0	319	0	0			0	0			1				0	
6.6.1	win	2023-07-10	10:32:56	11:03:23	1823703	62e0c40c68eaa2ad1508eae6	3	1	main_z	11	main_z	149	stimuli_target_trianglerectangles.svg	stimuli_distractor_trianglediamonds.svg	17	yes	44	1	560	0	0			0	0			1				0	
6.6.1	win	2023-07-10	10:32:56	11:03:23	1823703	62e0c40c68eaa2ad1508eae6	3	1	main_z	11	advance_on_keypress_ZEE	150	stimuli_target_trianglerectangles.svg	stimuli_distractor_trianglediamonds.svg	17	yes	57	0	289	0	0			0	0			1				0	
6.6.1	win	2023-07-10	10:32:56	11:03:26	1826626	62e0c40c68eaa2ad1508eae6	3	1	main_z	11	main_z	151	stimuli_distractor_trianglediamonds.svg	stimuli_distractor_diamondtriangles.svg	36	no	0	1	2000	0	0			0	0			1				0	
6.6.1	win	2023-07-10	10:32:56	11:03:26	1826626	62e0c40c68eaa2ad1508eae6	3	1	main_z	11	advance_on_keypress_ZEE	152	stimuli_distractor_trianglediamonds.svg	stimuli_distractor_diamondtriangles.svg	36	no	57	0	726	0	0			0	0			1				0	
6.6.1	win	2023-07-10	10:32:56	11:03:28	1828459	62e0c40c68eaa2ad1508eae6	3	1	main_z	11	main_z	153	stimuli_distractor_trianglediamonds.svg	stimuli_target_trianglesquares.svg	26	yes	44	1	466	0	0			0	0			1				0	
6.6.1	win	2023-07-10	10:32:56	11:03:28	1828459	62e0c40c68eaa2ad1508eae6	3	1	main_z	11	advance_on_keypress_ZEE	154	stimuli_distractor_trianglediamonds.svg	stimuli_target_trianglesquares.svg	26	yes	57	0	322	0	0			0	0			1				0	
6.6.1	win	2023-07-10	10:32:56	11:03:29	1829815	62e0c40c68eaa2ad1508eae6	3	1	main_z	11	main_z	155	stimuli_target_rectanglediamonds.svg	stimuli_distractor_diamondtriangles.svg	6	yes	44	1	389	0	0			0	0			1				0	
6.6.1	win	2023-07-10	10:32:56	11:03:29	1829815	62e0c40c68eaa2ad1508eae6	3	1	main_z	11	advance_on_keypress_ZEE	156	stimuli_target_rectanglediamonds.svg	stimuli_distractor_diamondtriangles.svg	6	yes	57	0	269	0	0			0	0			1				0	
6.6.1	win	2023-07-10	10:32:56	11:03:30	1831168	62e0c40c68eaa2ad1508eae6	3	1	main_z	11	main_z	157	stimuli_distractor_trianglediamonds.svg	stimuli_target_squarediamonds.svg	12	yes	44	1	442	0	0			0	0			1				0	
6.6.1	win	2023-07-10	10:32:56	11:03:30	1831168	62e0c40c68eaa2ad1508eae6	3	1	main_z	11	advance_on_keypress_ZEE	158	stimuli_distractor_trianglediamonds.svg	stimuli_target_squarediamonds.svg	12	yes	57	0	254	0	0			0	0			1				0	
6.6.1	win	2023-07-10	10:32:56	11:03:32	1832746	62e0c40c68eaa2ad1508eae6	3	1	main_z	11	main_z	159	stimuli_distractor_trianglediamonds.svg	stimuli_target_rectangletriangles.svg	9	yes	44	1	687	0	0			0	0			1				0	
6.6.1	win	2023-07-10	10:32:56	11:03:32	1832746	62e0c40c68eaa2ad1508eae6	3	1	main_z	11	advance_on_keypress_ZEE	160	stimuli_distractor_trianglediamonds.svg	stimuli_target_rectangletriangles.svg	9	yes	57	0	281	0	0			0	0			1				0	
6.6.1	win	2023-07-10	10:32:56	11:03:32	1832746	62e0c40c68eaa2ad1508eae6	3	1	headphonecheck_calibration	14	headphonecheck_calibrationIntro	1	stimuli_distractor_trianglediamonds.svg	stimuli_target_rectangletriangles.svg	9	yes	calibrationButton	0	2066	0	0			0	0			1				0	
6.6.1	win	2023-07-10	10:32:56	11:03:32	1832746	62e0c40c68eaa2ad1508eae6	3	1	headphonecheck_testphase	15	test_collectResponse	3	stimuli_distractor_trianglediamonds.svg	stimuli_target_rectangletriangles.svg	9	yes	third	0	488	1	1	antiphase_hc_iso.wav	2	0	0			1				0	
6.6.1	win	2023-07-10	10:32:56	11:03:32	1832746	62e0c40c68eaa2ad1508eae6	3	1	headphonecheck_testphase	15	test_collectResponse	6	stimuli_distractor_trianglediamonds.svg	stimuli_target_rectangletriangles.svg	9	yes	third	1	360	2	6	antiphase_hc_ois.wav	3	0	0			1				0	
6.6.1	win	2023-07-10	10:32:56	11:03:32	1832746	62e0c40c68eaa2ad1508eae6	3	1	headphonecheck_testphase	15	test_collectResponse	9	stimuli_distractor_trianglediamonds.svg	stimuli_target_rectangletriangles.svg	9	yes	first	1	349	3	3	antiphase_hc_soi.wav	1	0	0			1				0	
6.6.1	win	2023-07-10	10:32:56	11:03:32	1832746	62e0c40c68eaa2ad1508eae6	3	1	headphonecheck_testphase	15	test_collectResponse	12	stimuli_distractor_trianglediamonds.svg	stimuli_target_rectangletriangles.svg	9	yes	first	1	226	4	4	antiphase_hc_sio.wav	1	0	0			1				0	
6.6.1	win	2023-07-10	10:32:56	11:03:32	1832746	62e0c40c68eaa2ad1508eae6	3	1	headphonecheck_testphase	15	test_collectResponse	15	stimuli_distractor_trianglediamonds.svg	stimuli_target_rectangletriangles.svg	9	yes	second	1	800	5	5	antiphase_hc_osi.wav	2	0	0			1				0	
6.6.1	win	2023-07-10	10:32:56	11:03:32	1832746	62e0c40c68eaa2ad1508eae6	3	1	headphonecheck_testphase	15	test_collectResponse	18	stimuli_distractor_trianglediamonds.svg	stimuli_target_rectangletriangles.svg	9	yes	first	0	6969	6	2	antiphase_hc_ios.wav	3	0	0			1				0	
6.6.1	win	2023-07-10	10:32:56	11:03:32	1832746	62e0c40c68eaa2ad1508eae6	3	1	stereocheck_calibration	17	stereocheck_calibrationIntro	1	stimuli_distractor_trianglediamonds.svg	stimuli_target_rectangletriangles.svg	9	yes	stereocheck_calibrationButton	0	2486	6	2	antiphase_hc_ios.wav	3	0	0			1				0	
6.6.1	win	2023-07-10	10:32:56	11:03:32	1832746	62e0c40c68eaa2ad1508eae6	3	1	stereocheck_testphase	18	stereocheck_test_collectResponse	3	stimuli_distractor_trianglediamonds.svg	stimuli_target_rectangletriangles.svg	9	yes	stereocheck_right	1	1350	6	2	antiphase_hc_ios.wav	3	1	5	noise_calib_stim_RIGHT.wav	2	1				0	
6.6.1	win	2023-07-10	10:32:56	11:03:32	1832746	62e0c40c68eaa2ad1508eae6	3	1	stereocheck_testphase	18	stereocheck_test_collectResponse	6	stimuli_distractor_trianglediamonds.svg	stimuli_target_rectangletriangles.svg	9	yes	stereocheck_right	1	430	6	2	antiphase_hc_ios.wav	3	2	6	noise_calib_stim_RIGHT.wav	2	1				0	
6.6.1	win	2023-07-10	10:32:56	11:03:32	1832746	62e0c40c68eaa2ad1508eae6	3	1	stereocheck_testphase	18	stereocheck_test_collectResponse	9	stimuli_distractor_trianglediamonds.svg	stimuli_target_rectangletriangles.svg	9	yes	stereocheck_left	1	442	6	2	antiphase_hc_ios.wav	3	3	3	noise_calib_stim_LEFT.wav	1	1				0	
6.6.1	win	2023-07-10	10:32:56	11:03:32	1832746	62e0c40c68eaa2ad1508eae6	3	1	stereocheck_testphase	18	stereocheck_test_collectResponse	12	stimuli_distractor_trianglediamonds.svg	stimuli_target_rectangletriangles.svg	9	yes	stereocheck_left	1	415	6	2	antiphase_hc_ios.wav	3	4	2	noise_calib_stim_LEFT.wav	1	1				0	
6.6.1	win	2023-07-10	10:32:56	11:03:32	1832746	62e0c40c68eaa2ad1508eae6	3	1	stereocheck_testphase	18	stereocheck_test_collectResponse	15	stimuli_distractor_trianglediamonds.svg	stimuli_target_rectangletriangles.svg	9	yes	stereocheck_right	1	461	6	2	antiphase_hc_ios.wav	3	5	4	noise_calib_stim_RIGHT.wav	2	1				0	
6.6.1	win	2023-07-10	10:32:56	11:03:32	1832746	62e0c40c68eaa2ad1508eae6	3	1	stereocheck_testphase	18	stereocheck_test_collectResponse	18	stimuli_distractor_trianglediamonds.svg	stimuli_target_rectangletriangles.svg	9	yes	stereocheck_left	1	325	6	2	antiphase_hc_ios.wav	3	6	1	noise_calib_stim_LEFT.wav	1	1				0	
6.6.1	win	2023-07-10	10:32:56	11:03:32	1832746	62e0c40c68eaa2ad1508eae6	3	1	DL_practice	21	DL_practice	2	stimuli_distractor_trianglediamonds.svg	stimuli_target_rectangletriangles.svg	9	yes	ba	1	2444	6	2	antiphase_hc_ios.wav	3	6	1	noise_calib_stim_LEFT.wav	1	1	blb_dichoticlistening_ba-ba.mp3	ba	ba	0	left
6.6.1	win	2023-07-10	10:32:56	11:03:32	1832746	62e0c40c68eaa2ad1508eae6	3	1	DL_practice	21	DL_practice	3	stimuli_distractor_trianglediamonds.svg	stimuli_target_rectangletriangles.svg	9	yes	pa	1	2106	6	2	antiphase_hc_ios.wav	3	6	1	noise_calib_stim_LEFT.wav	1	23	blb_dichoticlistening_ka-pa.mp3	ka	pa	1	right
6.6.1	win	2023-07-10	10:32:56	11:03:32	1832746	62e0c40c68eaa2ad1508eae6	3	1	DL_practice	21	DL_practice	4	stimuli_distractor_trianglediamonds.svg	stimuli_target_rectangletriangles.svg	9	yes	pa	0	3063	6	2	antiphase_hc_ios.wav	3	6	1	noise_calib_stim_LEFT.wav	1	36	blb_dichoticlistening_ta-ta.mp3	ta	ta	0	other
6.6.1	win	2023-07-10	10:32:56	11:03:32	1832746	62e0c40c68eaa2ad1508eae6	3	1	DL_practice	21	DL_practice	5	stimuli_distractor_trianglediamonds.svg	stimuli_target_rectangletriangles.svg	9	yes	ga	1	1172	6	2	antiphase_hc_ios.wav	3	6	1	noise_calib_stim_LEFT.wav	1	15	blb_dichoticlistening_ga-ga.mp3	ga	ga	0	left
6.6.1	win	2023-07-10	10:32:56	11:03:32	1832746	62e0c40c68eaa2ad1508eae6	3	1	DL_practice	21	DL_practice	6	stimuli_distractor_trianglediamonds.svg	stimuli_target_rectangletriangles.svg	9	yes	pa	1	1430	6	2	antiphase_hc_ios.wav	3	6	1	noise_calib_stim_LEFT.wav	1	29	blb_dichoticlistening_pa-pa.mp3	pa	pa	0	left
6.6.1	win	2023-07-10	10:32:56	11:03:32	1832746	62e0c40c68eaa2ad1508eae6	3	1	DL_practice	21	DL_practice	7	stimuli_distractor_trianglediamonds.svg	stimuli_target_rectangletriangles.svg	9	yes	ka	0	1458	6	2	antiphase_hc_ios.wav	3	6	1	noise_calib_stim_LEFT.wav	1	18	blb_dichoticlistening_ga-ta.mp3	ga	ta	1	other
6.6.1	win	2023-07-10	10:32:56	11:03:32	1832746	62e0c40c68eaa2ad1508eae6	3	1	DL_practice	21	DL_practice	8	stimuli_distractor_trianglediamonds.svg	stimuli_target_rectangletriangles.svg	9	yes	ga	0	2379	6	2	antiphase_hc_ios.wav	3	6	1	noise_calib_stim_LEFT.wav	1	8	blb_dichoticlistening_da-da.mp3	da	da	0	other
6.6.1	win	2023-07-10	10:32:56	11:03:32	1832746	62e0c40c68eaa2ad1508eae6	3	1	DL_practice	21	DL_practice	9	stimuli_distractor_trianglediamonds.svg	stimuli_target_rectangletriangles.svg	9	yes	ga	0	3372	6	2	antiphase_hc_ios.wav	3	6	1	noise_calib_stim_LEFT.wav	1	7	blb_dichoticlistening_da-ba.mp3	da	ba	1	other
6.6.1	win	2023-07-10	10:32:56	11:03:32	1832746	62e0c40c68eaa2ad1508eae6	3	1	DL_practice	21	DL_practice	10	stimuli_distractor_trianglediamonds.svg	stimuli_target_rectangletriangles.svg	9	yes	ka	1	1419	6	2	antiphase_hc_ios.wav	3	6	1	noise_calib_stim_LEFT.wav	1	22	blb_dichoticlistening_ka-ka.mp3	ka	ka	0	left
6.6.1	win	2023-07-10	10:32:56	11:03:32	1832746	62e0c40c68eaa2ad1508eae6	3	1	DL_test	23	DL_test	1	stimuli_distractor_trianglediamonds.svg	stimuli_target_rectangletriangles.svg	9	yes	pa	1	2282	6	2	antiphase_hc_ios.wav	3	6	1	noise_calib_stim_LEFT.wav	1	23	blb_dichoticlistening_ka-pa.mp3	ka	pa	1	right
6.6.1	win	2023-07-10	10:32:56	11:03:32	1832746	62e0c40c68eaa2ad1508eae6	3	1	DL_test	23	DL_test	2	stimuli_distractor_trianglediamonds.svg	stimuli_target_rectangletriangles.svg	9	yes	ta	1	1859	6	2	antiphase_hc_ios.wav	3	6	1	noise_calib_stim_LEFT.wav	1	32	blb_dichoticlistening_ta-da.mp3	ta	da	1	left
6.6.1	win	2023-07-10	10:32:56	11:03:32	1832746	62e0c40c68eaa2ad1508eae6	3	1	DL_test	23	DL_test	3	stimuli_distractor_trianglediamonds.svg	stimuli_target_rectangletriangles.svg	9	yes	ga	1	4066	6	2	antiphase_hc_ios.wav	3	6	1	noise_calib_stim_LEFT.wav	1	27	blb_dichoticlistening_pa-ga.mp3	pa	ga	1	right
6.6.1	win	2023-07-10	10:32:56	11:03:32	1832746	62e0c40c68eaa2ad1508eae6	3	1	DL_test	23	DL_test	4	stimuli_distractor_trianglediamonds.svg	stimuli_target_rectangletriangles.svg	9	yes	ga	0	1799	6	2	antiphase_hc_ios.wav	3	6	1	noise_calib_stim_LEFT.wav	1	8	blb_dichoticlistening_da-da.mp3	da	da	0	other
6.6.1	win	2023-07-10	10:32:56	11:03:32	1832746	62e0c40c68eaa2ad1508eae6	3	1	DL_test	23	DL_test	5	stimuli_distractor_trianglediamonds.svg	stimuli_target_rectangletriangles.svg	9	yes	ka	1	1437	6	2	antiphase_hc_ios.wav	3	6	1	noise_calib_stim_LEFT.wav	1	24	blb_dichoticlistening_ka-ta.mp3	ka	ta	1	left
6.6.1	win	2023-07-10	10:32:56	11:03:32	1832746	62e0c40c68eaa2ad1508eae6	3	1	DL_test	23	DL_test	6	stimuli_distractor_trianglediamonds.svg	stimuli_target_rectangletriangles.svg	9	yes	ga	1	1217	6	2	antiphase_hc_ios.wav	3	6	1	noise_calib_stim_LEFT.wav	1	14	blb_dichoticlistening_ga-da.mp3	ga	da	1	left
6.6.1	win	2023-07-10	10:32:56	11:03:32	1832746	62e0c40c68eaa2ad1508eae6	3	1	DL_test	23	DL_test	7	stimuli_distractor_trianglediamonds.svg	stimuli_target_rectangletriangles.svg	9	yes	pa	0	1651	6	2	antiphase_hc_ios.wav	3	6	1	noise_calib_stim_LEFT.wav	1	6	blb_dichoticlistening_ba-ta.mp3	ba	ta	1	other
6.6.1	win	2023-07-10	10:32:56	11:03:32	1832746	62e0c40c68eaa2ad1508eae6	3	1	DL_test	23	DL_test	8	stimuli_distractor_trianglediamonds.svg	stimuli_target_rectangletriangles.svg	9	yes	pa	0	2939	6	2	antiphase_hc_ios.wav	3	6	1	noise_calib_stim_LEFT.wav	1	1	blb_dichoticlistening_ba-ba.mp3	ba	ba	0	other
6.6.1	win	2023-07-10	10:32:56	11:03:32	1832746	62e0c40c68eaa2ad1508eae6	3	1	DL_test	23	DL_test	9	stimuli_distractor_trianglediamonds.svg	stimuli_target_rectangletriangles.svg	9	yes	pa	0	1297	6	2	antiphase_hc_ios.wav	3	6	1	noise_calib_stim_LEFT.wav	1	10	blb_dichoticlistening_da-ka.mp3	da	ka	1	other
6.6.1	win	2023-07-10	10:32:56	11:03:32	1832746	62e0c40c68eaa2ad1508eae6	3	1	DL_test	23	DL_test	10	stimuli_distractor_trianglediamonds.svg	stimuli_target_rectangletriangles.svg	9	yes	ka	0	1236	6	2	antiphase_hc_ios.wav	3	6	1	noise_calib_stim_LEFT.wav	1	33	blb_dichoticlistening_ta-ga.mp3	ta	ga	1	other
6.6.1	win	2023-07-10	10:32:56	11:03:32	1832746	62e0c40c68eaa2ad1508eae6	3	1	DL_test	23	DL_test	11	stimuli_distractor_trianglediamonds.svg	stimuli_target_rectangletriangles.svg	9	yes	pa	1	1408	6	2	antiphase_hc_ios.wav	3	6	1	noise_calib_stim_LEFT.wav	1	29	blb_dichoticlistening_pa-pa.mp3	pa	pa	0	left
6.6.1	win	2023-07-10	10:32:56	11:03:32	1832746	62e0c40c68eaa2ad1508eae6	3	1	DL_test	23	DL_test	12	stimuli_distractor_trianglediamonds.svg	stimuli_target_rectangletriangles.svg	9	yes	ta	0	2995	6	2	antiphase_hc_ios.wav	3	6	1	noise_calib_stim_LEFT.wav	1	2	blb_dichoticlistening_ba-da.mp3	ba	da	1	other
6.6.1	win	2023-07-10	10:32:56	11:03:32	1832746	62e0c40c68eaa2ad1508eae6	3	1	DL_test	23	DL_test	13	stimuli_distractor_trianglediamonds.svg	stimuli_target_rectangletriangles.svg	9	yes	ka	1	1221	6	2	antiphase_hc_ios.wav	3	6	1	noise_calib_stim_LEFT.wav	1	34	blb_dichoticlistening_ta-ka.mp3	ta	ka	1	right
6.6.1	win	2023-07-10	10:32:56	11:03:32	1832746	62e0c40c68eaa2ad1508eae6	3	1	DL_test	23	DL_test	14	stimuli_distractor_trianglediamonds.svg	stimuli_target_rectangletriangles.svg	9	yes	pa	0	1695	6	2	antiphase_hc_ios.wav	3	6	1	noise_calib_stim_LEFT.wav	1	7	blb_dichoticlistening_da-ba.mp3	da	ba	1	other
6.6.1	win	2023-07-10	10:32:56	11:03:32	1832746	62e0c40c68eaa2ad1508eae6	3	1	DL_test	23	DL_test	15	stimuli_distractor_trianglediamonds.svg	stimuli_target_rectangletriangles.svg	9	yes	ka	1	1078	6	2	antiphase_hc_ios.wav	3	6	1	noise_calib_stim_LEFT.wav	1	19	blb_dichoticlistening_ka-ba.mp3	ka	ba	1	left
6.6.1	win	2023-07-10	10:32:56	11:03:32	1832746	62e0c40c68eaa2ad1508eae6	3	1	DL_test	23	DL_test	16	stimuli_distractor_trianglediamonds.svg	stimuli_target_rectangletriangles.svg	9	yes	ka	0	1041	6	2	antiphase_hc_ios.wav	3	6	1	noise_calib_stim_LEFT.wav	1	26	blb_dichoticlistening_pa-da.mp3	pa	da	1	other
6.6.1	win	2023-07-10	10:32:56	11:03:32	1832746	62e0c40c68eaa2ad1508eae6	3	1	DL_test	23	DL_test	17	stimuli_distractor_trianglediamonds.svg	stimuli_target_rectangletriangles.svg	9	yes	pa	1	1158	6	2	antiphase_hc_ios.wav	3	6	1	noise_calib_stim_LEFT.wav	1	25	blb_dichoticlistening_pa-ba.mp3	pa	ba	1	left
6.6.1	win	2023-07-10	10:32:56	11:03:32	1832746	62e0c40c68eaa2ad1508eae6	3	1	DL_test	23	DL_test	18	stimuli_distractor_trianglediamonds.svg	stimuli_target_rectangletriangles.svg	9	yes	pa	1	997	6	2	antiphase_hc_ios.wav	3	6	1	noise_calib_stim_LEFT.wav	1	11	blb_dichoticlistening_da-pa.mp3	da	pa	1	right
6.6.1	win	2023-07-10	10:32:56	11:03:32	1832746	62e0c40c68eaa2ad1508eae6	3	1	DL_test	23	DL_test	19	stimuli_distractor_trianglediamonds.svg	stimuli_target_rectangletriangles.svg	9	yes	ka	0	2747	6	2	antiphase_hc_ios.wav	3	6	1	noise_calib_stim_LEFT.wav	1	31	blb_dichoticlistening_ta-ba.mp3	ta	ba	1	other
6.6.1	win	2023-07-10	10:32:56	11:03:32	1832746	62e0c40c68eaa2ad1508eae6	3	1	DL_test	23	DL_test	20	stimuli_distractor_trianglediamonds.svg	stimuli_target_rectangletriangles.svg	9	yes	pa	1	829	6	2	antiphase_hc_ios.wav	3	6	1	noise_calib_stim_LEFT.wav	1	35	blb_dichoticlistening_ta-pa.mp3	ta	pa	1	right
6.6.1	win	2023-07-10	10:32:56	11:03:32	1832746	62e0c40c68eaa2ad1508eae6	3	1	DL_test	23	DL_test	21	stimuli_distractor_trianglediamonds.svg	stimuli_target_rectangletriangles.svg	9	yes	ka	0	912	6	2	antiphase_hc_ios.wav	3	6	1	noise_calib_stim_LEFT.wav	1	18	blb_dichoticlistening_ga-ta.mp3	ga	ta	1	other
6.6.1	win	2023-07-10	10:32:56	11:03:32	1832746	62e0c40c68eaa2ad1508eae6	3	1	DL_test	23	DL_test	22	stimuli_distractor_trianglediamonds.svg	stimuli_target_rectangletriangles.svg	9	yes	ka	1	866	6	2	antiphase_hc_ios.wav	3	6	1	noise_calib_stim_LEFT.wav	1	21	blb_dichoticlistening_ka-ga.mp3	ka	ga	1	left
6.6.1	win	2023-07-10	10:32:56	11:03:32	1832746	62e0c40c68eaa2ad1508eae6	3	1	DL_test	23	DL_test	23	stimuli_distractor_trianglediamonds.svg	stimuli_target_rectangletriangles.svg	9	yes	ga	1	1548	6	2	antiphase_hc_ios.wav	3	6	1	noise_calib_stim_LEFT.wav	1	3	blb_dichoticlistening_ba-ga.mp3	ba	ga	1	right
6.6.1	win	2023-07-10	10:32:56	11:03:32	1832746	62e0c40c68eaa2ad1508eae6	3	1	DL_test	23	DL_test	24	stimuli_distractor_trianglediamonds.svg	stimuli_target_rectangletriangles.svg	9	yes	ka	1	1098	6	2	antiphase_hc_ios.wav	3	6	1	noise_calib_stim_LEFT.wav	1	16	blb_dichoticlistening_ga-ka.mp3	ga	ka	1	right
6.6.1	win	2023-07-10	10:32:56	11:03:32	1832746	62e0c40c68eaa2ad1508eae6	3	1	DL_test	23	DL_test	25	stimuli_distractor_trianglediamonds.svg	stimuli_target_rectangletriangles.svg	9	yes	ka	0	1489	6	2	antiphase_hc_ios.wav	3	6	1	noise_calib_stim_LEFT.wav	1	36	blb_dichoticlistening_ta-ta.mp3	ta	ta	0	other
