build	computer.platform	date	time	timestamp	time_elapsed_ms	subject	group	session	blockcode	blocknum	trialcode	trialnum	stimulus_left	stimulus_right	stim_index	target_present	response	correct	latency	headphonecheck_countTestTrials	headphonecheck_index	headphonecheck_testSound	headphonecheck_correctResponse	stereocheck_countTestTrials	stereocheck_index	stereocheck_testSound	stereocheck_correctResponse	DL_index	DL_soundfile	DL_leftSound	DL_rightSound	DL_dualSound	DL_choice
6.6.1	win	2023-07-07	15:44:35	15:48:16	215732	5e456129f5b428000b5b0f81	4	1	practice_z	5	practice_z	1	stimuli_distractor_diamondtriangles.svg	stimuli_distractor_trianglediamonds.svg	14	no	44	0	696	0	0			0	0			1				0	
6.6.1	win	2023-07-07	15:44:35	15:48:16	215732	5e456129f5b428000b5b0f81	4	1	practice_z	5	advance_on_keypress_ZEE	2	stimuli_distractor_diamondtriangles.svg	stimuli_distractor_trianglediamonds.svg	14	no	57	0	772	0	0			0	0			1				0	
6.6.1	win	2023-07-07	15:44:35	15:48:19	219088	5e456129f5b428000b5b0f81	4	1	practice_z	5	practice_z	3	stimuli_target_rectanglediamonds.svg	stimuli_distractor_trianglediamonds.svg	4	yes	44	1	922	0	0			0	0			1				0	
6.6.1	win	2023-07-07	15:44:35	15:48:19	219088	5e456129f5b428000b5b0f81	4	1	practice_z	5	advance_on_keypress_ZEE	4	stimuli_target_rectanglediamonds.svg	stimuli_distractor_trianglediamonds.svg	4	yes	57	0	1350	0	0			0	0			1				0	
6.6.1	win	2023-07-07	15:44:35	15:48:23	223187	5e456129f5b428000b5b0f81	4	1	practice_z	5	practice_z	5	stimuli_distractor_trianglediamonds.svg	stimuli_target_rectanglediamonds.svg	10	yes	44	1	1109	0	0			0	0			1				0	
6.6.1	win	2023-07-07	15:44:35	15:48:23	223187	5e456129f5b428000b5b0f81	4	1	practice_z	5	advance_on_keypress_ZEE	6	stimuli_distractor_trianglediamonds.svg	stimuli_target_rectanglediamonds.svg	10	yes	57	0	798	0	0			0	0			1				0	
6.6.1	win	2023-07-07	15:44:35	15:48:27	226898	5e456129f5b428000b5b0f81	4	1	practice_z	5	practice_z	7	stimuli_target_squarediamonds.svg	stimuli_distractor_trianglediamonds.svg	5	yes	44	1	1256	0	0			0	0			1				0	
6.6.1	win	2023-07-07	15:44:35	15:48:27	226898	5e456129f5b428000b5b0f81	4	1	practice_z	5	advance_on_keypress_ZEE	8	stimuli_target_squarediamonds.svg	stimuli_distractor_trianglediamonds.svg	5	yes	57	0	757	0	0			0	0			1				0	
6.6.1	win	2023-07-07	15:44:35	15:48:32	231305	5e456129f5b428000b5b0f81	4	1	practice_z	5	practice_z	9	stimuli_distractor_diamondtriangles.svg	stimuli_target_trianglerectangles.svg	9	yes	0	0	2000	0	0			0	0			1				0	
6.6.1	win	2023-07-07	15:44:35	15:48:32	231305	5e456129f5b428000b5b0f81	4	1	practice_z	5	advance_on_keypress_ZEE	10	stimuli_distractor_diamondtriangles.svg	stimuli_target_trianglerectangles.svg	9	yes	57	0	677	0	0			0	0			1				0	
6.6.1	win	2023-07-07	15:44:35	15:48:35	234907	5e456129f5b428000b5b0f81	4	1	practice_z	5	practice_z	11	stimuli_target_squarediamonds.svg	stimuli_distractor_diamondtriangles.svg	2	yes	44	1	1272	0	0			0	0			1				0	
6.6.1	win	2023-07-07	15:44:35	15:48:35	234907	5e456129f5b428000b5b0f81	4	1	practice_z	5	advance_on_keypress_ZEE	12	stimuli_target_squarediamonds.svg	stimuli_distractor_diamondtriangles.svg	2	yes	57	0	436	0	0			0	0			1				0	
6.6.1	win	2023-07-07	15:44:35	15:48:38	238008	5e456129f5b428000b5b0f81	4	1	practice_z	5	practice_z	13	stimuli_target_rectanglediamonds.svg	stimuli_distractor_diamondtriangles.svg	1	yes	44	1	1026	0	0			0	0			1				0	
6.6.1	win	2023-07-07	15:44:35	15:48:38	238008	5e456129f5b428000b5b0f81	4	1	practice_z	5	advance_on_keypress_ZEE	14	stimuli_target_rectanglediamonds.svg	stimuli_distractor_diamondtriangles.svg	1	yes	57	0	341	0	0			0	0			1				0	
6.6.1	win	2023-07-07	15:44:35	15:48:42	241658	5e456129f5b428000b5b0f81	4	1	practice_z	5	practice_z	15	stimuli_distractor_diamondtriangles.svg	stimuli_target_diamondrectangles.svg	8	yes	44	1	1646	0	0			0	0			1				0	
6.6.1	win	2023-07-07	15:44:35	15:48:42	241658	5e456129f5b428000b5b0f81	4	1	practice_z	5	advance_on_keypress_ZEE	16	stimuli_distractor_diamondtriangles.svg	stimuli_target_diamondrectangles.svg	8	yes	57	0	568	0	0			0	0			1				0	
6.6.1	win	2023-07-07	15:44:35	15:48:46	245875	5e456129f5b428000b5b0f81	4	1	practice_z	5	practice_z	17	stimuli_distractor_trianglediamonds.svg	stimuli_distractor_diamondtriangles.svg	16	no	0	1	2000	0	0			0	0			1				0	
6.6.1	win	2023-07-07	15:44:35	15:48:46	245875	5e456129f5b428000b5b0f81	4	1	practice_z	5	advance_on_keypress_ZEE	18	stimuli_distractor_trianglediamonds.svg	stimuli_distractor_diamondtriangles.svg	16	no	57	0	404	0	0			0	0			1				0	
6.6.1	win	2023-07-07	15:44:35	15:48:49	248984	5e456129f5b428000b5b0f81	4	1	practice_z	5	practice_z	19	stimuli_distractor_trianglediamonds.svg	stimuli_target_squarediamonds.svg	11	yes	44	1	1063	0	0			0	0			1				0	
6.6.1	win	2023-07-07	15:44:35	15:48:49	248984	5e456129f5b428000b5b0f81	4	1	practice_z	5	advance_on_keypress_ZEE	20	stimuli_distractor_trianglediamonds.svg	stimuli_target_squarediamonds.svg	11	yes	57	0	886	0	0			0	0			1				0	
6.6.1	win	2023-07-07	15:44:35	15:48:53	252648	5e456129f5b428000b5b0f81	4	1	practice_z	5	practice_z	21	stimuli_distractor_trianglediamonds.svg	stimuli_distractor_trianglediamonds.svg	15	no	44	0	1131	0	0			0	0			1				0	
6.6.1	win	2023-07-07	15:44:35	15:48:53	252648	5e456129f5b428000b5b0f81	4	1	practice_z	5	advance_on_keypress_ZEE	22	stimuli_distractor_trianglediamonds.svg	stimuli_distractor_trianglediamonds.svg	15	no	57	0	459	0	0			0	0			1				0	
6.6.1	win	2023-07-07	15:44:35	15:48:56	255735	5e456129f5b428000b5b0f81	4	1	practice_z	5	practice_z	23	stimuli_target_diamondsquares.svg	stimuli_distractor_trianglediamonds.svg	6	yes	44	1	971	0	0			0	0			1				0	
6.6.1	win	2023-07-07	15:44:35	15:48:56	255735	5e456129f5b428000b5b0f81	4	1	practice_z	5	advance_on_keypress_ZEE	24	stimuli_target_diamondsquares.svg	stimuli_distractor_trianglediamonds.svg	6	yes	57	0	436	0	0			0	0			1				0	
6.6.1	win	2023-07-07	15:44:35	15:48:59	258767	5e456129f5b428000b5b0f81	4	1	practice_z	5	practice_z	25	stimuli_target_diamondsquares.svg	stimuli_distractor_diamondtriangles.svg	3	yes	44	1	956	0	0			0	0			1				0	
6.6.1	win	2023-07-07	15:44:35	15:48:59	258767	5e456129f5b428000b5b0f81	4	1	practice_z	5	advance_on_keypress_ZEE	26	stimuli_target_diamondsquares.svg	stimuli_distractor_diamondtriangles.svg	3	yes	57	0	308	0	0			0	0			1				0	
6.6.1	win	2023-07-07	15:44:35	15:49:03	262708	5e456129f5b428000b5b0f81	4	1	practice_z	5	practice_z	27	stimuli_distractor_diamondtriangles.svg	stimuli_distractor_diamondtriangles.svg	13	no	0	1	2000	0	0			0	0			1				0	
6.6.1	win	2023-07-07	15:44:35	15:49:03	262708	5e456129f5b428000b5b0f81	4	1	practice_z	5	advance_on_keypress_ZEE	28	stimuli_distractor_diamondtriangles.svg	stimuli_distractor_diamondtriangles.svg	13	no	57	0	450	0	0			0	0			1				0	
6.6.1	win	2023-07-07	15:44:35	15:49:06	266003	5e456129f5b428000b5b0f81	4	1	practice_z	5	practice_z	29	stimuli_distractor_trianglediamonds.svg	stimuli_target_diamondrectangles.svg	12	yes	44	1	1197	0	0			0	0			1				0	
6.6.1	win	2023-07-07	15:44:35	15:49:06	266003	5e456129f5b428000b5b0f81	4	1	practice_z	5	advance_on_keypress_ZEE	30	stimuli_distractor_trianglediamonds.svg	stimuli_target_diamondrectangles.svg	12	yes	57	0	504	0	0			0	0			1				0	
6.6.1	win	2023-07-07	15:44:35	15:49:10	269314	5e456129f5b428000b5b0f81	4	1	practice_z	5	practice_z	31	stimuli_distractor_diamondtriangles.svg	stimuli_target_rectangletriangles.svg	7	yes	44	1	1163	0	0			0	0			1				0	
6.6.1	win	2023-07-07	15:44:35	15:49:10	269314	5e456129f5b428000b5b0f81	4	1	practice_z	5	advance_on_keypress_ZEE	32	stimuli_distractor_diamondtriangles.svg	stimuli_target_rectangletriangles.svg	7	yes	57	0	233	0	0			0	0			1				0	
6.6.1	win	2023-07-07	15:44:35	15:49:22	281905	5e456129f5b428000b5b0f81	4	1	main_z	7	main_z	1	stimuli_distractor_diamondtriangles.svg	stimuli_distractor_diamondtriangles.svg	40	no	0	1	2000	0	0			0	0			1				0	
6.6.1	win	2023-07-07	15:44:35	15:49:22	281905	5e456129f5b428000b5b0f81	4	1	main_z	7	advance_on_keypress_ZEE	2	stimuli_distractor_diamondtriangles.svg	stimuli_distractor_diamondtriangles.svg	40	no	57	0	654	0	0			0	0			1				0	
6.6.1	win	2023-07-07	15:44:35	15:49:24	283915	5e456129f5b428000b5b0f81	4	1	main_z	7	main_z	3	stimuli_target_squaretriangles.svg	stimuli_distractor_trianglediamonds.svg	3	yes	44	1	714	0	0			0	0			1				0	
6.6.1	win	2023-07-07	15:44:35	15:49:24	283915	5e456129f5b428000b5b0f81	4	1	main_z	7	advance_on_keypress_ZEE	4	stimuli_target_squaretriangles.svg	stimuli_distractor_trianglediamonds.svg	3	yes	57	0	1249	0	0			0	0			1				0	
6.6.1	win	2023-07-07	15:44:35	15:49:27	286708	5e456129f5b428000b5b0f81	4	1	main_z	7	main_z	5	stimuli_target_rectanglediamonds.svg	stimuli_distractor_diamondtriangles.svg	6	yes	44	1	893	0	0			0	0			1				0	
6.6.1	win	2023-07-07	15:44:35	15:49:27	286708	5e456129f5b428000b5b0f81	4	1	main_z	7	advance_on_keypress_ZEE	6	stimuli_target_rectanglediamonds.svg	stimuli_distractor_diamondtriangles.svg	6	yes	57	0	517	0	0			0	0			1				0	
6.6.1	win	2023-07-07	15:44:35	15:49:29	288653	5e456129f5b428000b5b0f81	4	1	main_z	7	main_z	7	stimuli_distractor_diamondtriangles.svg	stimuli_target_squarediamonds.svg	16	yes	44	1	788	0	0			0	0			1				0	
6.6.1	win	2023-07-07	15:44:35	15:49:29	288653	5e456129f5b428000b5b0f81	4	1	main_z	7	advance_on_keypress_ZEE	8	stimuli_distractor_diamondtriangles.svg	stimuli_target_squarediamonds.svg	16	yes	57	0	988	0	0			0	0			1				0	
6.6.1	win	2023-07-07	15:44:35	15:49:31	290772	5e456129f5b428000b5b0f81	4	1	main_z	7	main_z	9	stimuli_distractor_trianglediamonds.svg	stimuli_target_rectanglediamonds.svg	10	yes	44	1	494	0	0			0	0			1				0	
6.6.1	win	2023-07-07	15:44:35	15:49:31	290772	5e456129f5b428000b5b0f81	4	1	main_z	7	advance_on_keypress_ZEE	10	stimuli_distractor_trianglediamonds.svg	stimuli_target_rectanglediamonds.svg	10	yes	57	0	771	0	0			0	0			1				0	
6.6.1	win	2023-07-07	15:44:35	15:49:33	292797	5e456129f5b428000b5b0f81	4	1	main_z	7	main_z	11	stimuli_distractor_trianglediamonds.svg	stimuli_target_diamondrectangles.svg	27	yes	44	1	603	0	0			0	0			1				0	
6.6.1	win	2023-07-07	15:44:35	15:49:33	292797	5e456129f5b428000b5b0f81	4	1	main_z	7	advance_on_keypress_ZEE	12	stimuli_distractor_trianglediamonds.svg	stimuli_target_diamondrectangles.svg	27	yes	57	0	572	0	0			0	0			1				0	
6.6.1	win	2023-07-07	15:44:35	15:49:35	294727	5e456129f5b428000b5b0f81	4	1	main_z	7	main_z	13	stimuli_distractor_trianglediamonds.svg	stimuli_target_diamondsquares.svg	28	yes	44	1	719	0	0			0	0			1				0	
6.6.1	win	2023-07-07	15:44:35	15:49:35	294727	5e456129f5b428000b5b0f81	4	1	main_z	7	advance_on_keypress_ZEE	14	stimuli_distractor_trianglediamonds.svg	stimuli_target_diamondsquares.svg	28	yes	57	0	616	0	0			0	0			1				0	
6.6.1	win	2023-07-07	15:44:35	15:49:38	297990	5e456129f5b428000b5b0f81	4	1	main_z	7	main_z	15	stimuli_distractor_diamondtriangles.svg	stimuli_distractor_diamondtriangles.svg	39	no	0	1	2000	0	0			0	0			1				0	
6.6.1	win	2023-07-07	15:44:35	15:49:38	297990	5e456129f5b428000b5b0f81	4	1	main_z	7	advance_on_keypress_ZEE	16	stimuli_distractor_diamondtriangles.svg	stimuli_distractor_diamondtriangles.svg	39	no	57	0	428	0	0			0	0			1				0	
6.6.1	win	2023-07-07	15:44:35	15:49:41	300506	5e456129f5b428000b5b0f81	4	1	main_z	7	main_z	17	stimuli_target_trianglerectangles.svg	stimuli_distractor_diamondtriangles.svg	21	yes	44	1	1436	0	0			0	0			1				0	
6.6.1	win	2023-07-07	15:44:35	15:49:41	300506	5e456129f5b428000b5b0f81	4	1	main_z	7	advance_on_keypress_ZEE	18	stimuli_target_trianglerectangles.svg	stimuli_distractor_diamondtriangles.svg	21	yes	57	0	632	0	0			0	0			1				0	
6.6.1	win	2023-07-07	15:44:35	15:49:43	302646	5e456129f5b428000b5b0f81	4	1	main_z	7	main_z	19	stimuli_distractor_trianglediamonds.svg	stimuli_target_trianglesquares.svg	26	yes	44	1	862	0	0			0	0			1				0	
6.6.1	win	2023-07-07	15:44:35	15:49:43	302646	5e456129f5b428000b5b0f81	4	1	main_z	7	advance_on_keypress_ZEE	20	stimuli_distractor_trianglediamonds.svg	stimuli_target_trianglesquares.svg	26	yes	57	0	593	0	0			0	0			1				0	
6.6.1	win	2023-07-07	15:44:35	15:49:45	304839	5e456129f5b428000b5b0f81	4	1	main_z	7	main_z	21	stimuli_distractor_diamondtriangles.svg	stimuli_target_trianglesquares.svg	30	yes	44	1	957	0	0			0	0			1				0	
6.6.1	win	2023-07-07	15:44:35	15:49:45	304839	5e456129f5b428000b5b0f81	4	1	main_z	7	advance_on_keypress_ZEE	22	stimuli_distractor_diamondtriangles.svg	stimuli_target_trianglesquares.svg	30	yes	57	0	621	0	0			0	0			1				0	
6.6.1	win	2023-07-07	15:44:35	15:49:47	307044	5e456129f5b428000b5b0f81	4	1	main_z	7	main_z	23	stimuli_distractor_diamondtriangles.svg	stimuli_target_squaretriangles.svg	15	yes	44	1	946	0	0			0	0			1				0	
6.6.1	win	2023-07-07	15:44:35	15:49:47	307044	5e456129f5b428000b5b0f81	4	1	main_z	7	advance_on_keypress_ZEE	24	stimuli_distractor_diamondtriangles.svg	stimuli_target_squaretriangles.svg	15	yes	57	0	591	0	0			0	0			1				0	
6.6.1	win	2023-07-07	15:44:35	15:49:50	310277	5e456129f5b428000b5b0f81	4	1	main_z	7	main_z	25	stimuli_distractor_trianglediamonds.svg	stimuli_distractor_diamondtriangles.svg	35	no	0	1	2000	0	0			0	0			1				0	
6.6.1	win	2023-07-07	15:44:35	15:49:50	310277	5e456129f5b428000b5b0f81	4	1	main_z	7	advance_on_keypress_ZEE	26	stimuli_distractor_trianglediamonds.svg	stimuli_distractor_diamondtriangles.svg	35	no	57	0	466	0	0			0	0			1				0	
6.6.1	win	2023-07-07	15:44:35	15:49:52	312246	5e456129f5b428000b5b0f81	4	1	main_z	7	main_z	27	stimuli_target_rectanglediamonds.svg	stimuli_distractor_trianglediamonds.svg	2	yes	44	1	854	0	0			0	0			1				0	
6.6.1	win	2023-07-07	15:44:35	15:49:52	312246	5e456129f5b428000b5b0f81	4	1	main_z	7	advance_on_keypress_ZEE	28	stimuli_target_rectanglediamonds.svg	stimuli_distractor_trianglediamonds.svg	2	yes	57	0	536	0	0			0	0			1				0	
6.6.1	win	2023-07-07	15:44:35	15:49:56	315423	5e456129f5b428000b5b0f81	4	1	main_z	7	main_z	29	stimuli_distractor_trianglediamonds.svg	stimuli_distractor_diamondtriangles.svg	36	no	0	1	2000	0	0			0	0			1				0	
6.6.1	win	2023-07-07	15:44:35	15:49:56	315423	5e456129f5b428000b5b0f81	4	1	main_z	7	advance_on_keypress_ZEE	30	stimuli_distractor_trianglediamonds.svg	stimuli_distractor_diamondtriangles.svg	36	no	57	0	288	0	0			0	0			1				0	
6.6.1	win	2023-07-07	15:44:35	15:49:58	317296	5e456129f5b428000b5b0f81	4	1	main_z	7	main_z	31	stimuli_target_squaretriangles.svg	stimuli_distractor_diamondtriangles.svg	7	yes	44	1	943	0	0			0	0			1				0	
6.6.1	win	2023-07-07	15:44:35	15:49:58	317296	5e456129f5b428000b5b0f81	4	1	main_z	7	advance_on_keypress_ZEE	32	stimuli_target_squaretriangles.svg	stimuli_distractor_diamondtriangles.svg	7	yes	57	0	493	0	0			0	0			1				0	
6.6.1	win	2023-07-07	15:44:35	15:50:00	319485	5e456129f5b428000b5b0f81	4	1	main_z	7	main_z	33	stimuli_target_squarediamonds.svg	stimuli_distractor_diamondtriangles.svg	8	yes	44	1	1067	0	0			0	0			1				0	
6.6.1	win	2023-07-07	15:44:35	15:50:00	319485	5e456129f5b428000b5b0f81	4	1	main_z	7	advance_on_keypress_ZEE	34	stimuli_target_squarediamonds.svg	stimuli_distractor_diamondtriangles.svg	8	yes	57	0	649	0	0			0	0			1				0	
6.6.1	win	2023-07-07	15:44:35	15:50:02	321665	5e456129f5b428000b5b0f81	4	1	main_z	7	main_z	35	stimuli_target_trianglesquares.svg	stimuli_distractor_trianglediamonds.svg	18	yes	44	1	882	0	0			0	0			1				0	
6.6.1	win	2023-07-07	15:44:35	15:50:02	321665	5e456129f5b428000b5b0f81	4	1	main_z	7	advance_on_keypress_ZEE	36	stimuli_target_trianglesquares.svg	stimuli_distractor_trianglediamonds.svg	18	yes	57	0	1584	0	0			0	0			1				0	
6.6.1	win	2023-07-07	15:44:35	15:50:05	324652	5e456129f5b428000b5b0f81	4	1	main_z	7	main_z	37	stimuli_distractor_trianglediamonds.svg	stimuli_target_trianglerectangles.svg	25	yes	44	1	755	0	0			0	0			1				0	
6.6.1	win	2023-07-07	15:44:35	15:50:05	324652	5e456129f5b428000b5b0f81	4	1	main_z	7	advance_on_keypress_ZEE	38	stimuli_distractor_trianglediamonds.svg	stimuli_target_trianglerectangles.svg	25	yes	57	0	503	0	0			0	0			1				0	
6.6.1	win	2023-07-07	15:44:35	15:50:07	326622	5e456129f5b428000b5b0f81	4	1	main_z	7	main_z	39	stimuli_target_trianglesquares.svg	stimuli_distractor_diamondtriangles.svg	22	yes	44	1	827	0	0			0	0			1				0	
6.6.1	win	2023-07-07	15:44:35	15:50:07	326622	5e456129f5b428000b5b0f81	4	1	main_z	7	advance_on_keypress_ZEE	40	stimuli_target_trianglesquares.svg	stimuli_distractor_diamondtriangles.svg	22	yes	57	0	512	0	0			0	0			1				0	
6.6.1	win	2023-07-07	15:44:35	15:50:09	328865	5e456129f5b428000b5b0f81	4	1	main_z	7	main_z	41	stimuli_target_diamondsquares.svg	stimuli_distractor_trianglediamonds.svg	20	yes	44	1	1073	0	0			0	0			1				0	
6.6.1	win	2023-07-07	15:44:35	15:50:09	328865	5e456129f5b428000b5b0f81	4	1	main_z	7	advance_on_keypress_ZEE	42	stimuli_target_diamondsquares.svg	stimuli_distractor_trianglediamonds.svg	20	yes	57	0	415	0	0			0	0			1				0	
6.6.1	win	2023-07-07	15:44:35	15:50:12	331924	5e456129f5b428000b5b0f81	4	1	main_z	7	main_z	43	stimuli_distractor_trianglediamonds.svg	stimuli_target_squarediamonds.svg	12	yes	0	0	2000	0	0			0	0			1				0	
6.6.1	win	2023-07-07	15:44:35	15:50:12	331924	5e456129f5b428000b5b0f81	4	1	main_z	7	advance_on_keypress_ZEE	44	stimuli_distractor_trianglediamonds.svg	stimuli_target_squarediamonds.svg	12	yes	57	0	598	0	0			0	0			1				0	
6.6.1	win	2023-07-07	15:44:35	15:50:14	334076	5e456129f5b428000b5b0f81	4	1	main_z	7	main_z	45	stimuli_distractor_diamondtriangles.svg	stimuli_target_rectanglediamonds.svg	14	yes	44	1	905	0	0			0	0			1				0	
6.6.1	win	2023-07-07	15:44:35	15:50:14	334076	5e456129f5b428000b5b0f81	4	1	main_z	7	advance_on_keypress_ZEE	46	stimuli_distractor_diamondtriangles.svg	stimuli_target_rectanglediamonds.svg	14	yes	57	0	424	0	0			0	0			1				0	
6.6.1	win	2023-07-07	15:44:35	15:50:16	336006	5e456129f5b428000b5b0f81	4	1	main_z	7	main_z	47	stimuli_distractor_diamondtriangles.svg	stimuli_target_trianglerectangles.svg	29	yes	44	1	870	0	0			0	0			1				0	
6.6.1	win	2023-07-07	15:44:35	15:50:16	336006	5e456129f5b428000b5b0f81	4	1	main_z	7	advance_on_keypress_ZEE	48	stimuli_distractor_diamondtriangles.svg	stimuli_target_trianglerectangles.svg	29	yes	57	0	457	0	0			0	0			1				0	
6.6.1	win	2023-07-07	15:44:35	15:50:18	338095	5e456129f5b428000b5b0f81	4	1	main_z	7	main_z	49	stimuli_distractor_diamondtriangles.svg	stimuli_distractor_trianglediamonds.svg	38	no	44	0	994	0	0			0	0			1				0	
6.6.1	win	2023-07-07	15:44:35	15:50:18	338095	5e456129f5b428000b5b0f81	4	1	main_z	7	advance_on_keypress_ZEE	50	stimuli_distractor_diamondtriangles.svg	stimuli_distractor_trianglediamonds.svg	38	no	57	0	425	0	0			0	0			1				0	
6.6.1	win	2023-07-07	15:44:35	15:50:20	340075	5e456129f5b428000b5b0f81	4	1	main_z	7	main_z	51	stimuli_target_trianglerectangles.svg	stimuli_distractor_trianglediamonds.svg	17	yes	44	1	910	0	0			0	0			1				0	
6.6.1	win	2023-07-07	15:44:35	15:50:20	340075	5e456129f5b428000b5b0f81	4	1	main_z	7	advance_on_keypress_ZEE	52	stimuli_target_trianglerectangles.svg	stimuli_distractor_trianglediamonds.svg	17	yes	57	0	387	0	0			0	0			1				0	
6.6.1	win	2023-07-07	15:44:35	15:50:22	341980	5e456129f5b428000b5b0f81	4	1	main_z	7	main_z	53	stimuli_distractor_diamondtriangles.svg	stimuli_target_rectangletriangles.svg	13	yes	44	1	867	0	0			0	0			1				0	
6.6.1	win	2023-07-07	15:44:35	15:50:22	341980	5e456129f5b428000b5b0f81	4	1	main_z	7	advance_on_keypress_ZEE	54	stimuli_distractor_diamondtriangles.svg	stimuli_target_rectangletriangles.svg	13	yes	57	0	438	0	0			0	0			1				0	
6.6.1	win	2023-07-07	15:44:35	15:50:24	343875	5e456129f5b428000b5b0f81	4	1	main_z	7	main_z	55	stimuli_distractor_diamondtriangles.svg	stimuli_target_diamondsquares.svg	32	yes	44	1	813	0	0			0	0			1				0	
6.6.1	win	2023-07-07	15:44:35	15:50:24	343875	5e456129f5b428000b5b0f81	4	1	main_z	7	advance_on_keypress_ZEE	56	stimuli_distractor_diamondtriangles.svg	stimuli_target_diamondsquares.svg	32	yes	57	0	385	0	0			0	0			1				0	
6.6.1	win	2023-07-07	15:44:35	15:50:26	345562	5e456129f5b428000b5b0f81	4	1	main_z	7	main_z	57	stimuli_target_diamondrectangles.svg	stimuli_distractor_trianglediamonds.svg	19	yes	44	1	651	0	0			0	0			1				0	
6.6.1	win	2023-07-07	15:44:35	15:50:26	345562	5e456129f5b428000b5b0f81	4	1	main_z	7	advance_on_keypress_ZEE	58	stimuli_target_diamondrectangles.svg	stimuli_distractor_trianglediamonds.svg	19	yes	57	0	493	0	0			0	0			1				0	
6.6.1	win	2023-07-07	15:44:35	15:50:28	347596	5e456129f5b428000b5b0f81	4	1	main_z	7	main_z	59	stimuli_target_rectangletriangles.svg	stimuli_distractor_diamondtriangles.svg	5	yes	44	1	904	0	0			0	0			1				0	
6.6.1	win	2023-07-07	15:44:35	15:50:28	347596	5e456129f5b428000b5b0f81	4	1	main_z	7	advance_on_keypress_ZEE	60	stimuli_target_rectangletriangles.svg	stimuli_distractor_diamondtriangles.svg	5	yes	57	0	427	0	0			0	0			1				0	
6.6.1	win	2023-07-07	15:44:35	15:50:30	350268	5e456129f5b428000b5b0f81	4	1	main_z	7	main_z	61	stimuli_target_squarediamonds.svg	stimuli_distractor_trianglediamonds.svg	4	yes	44	1	1612	0	0			0	0			1				0	
6.6.1	win	2023-07-07	15:44:35	15:50:30	350268	5e456129f5b428000b5b0f81	4	1	main_z	7	advance_on_keypress_ZEE	62	stimuli_target_squarediamonds.svg	stimuli_distractor_trianglediamonds.svg	4	yes	57	0	599	0	0			0	0			1				0	
6.6.1	win	2023-07-07	15:44:35	15:50:33	352554	5e456129f5b428000b5b0f81	4	1	main_z	7	main_z	63	stimuli_distractor_trianglediamonds.svg	stimuli_target_rectangletriangles.svg	9	yes	44	1	1033	0	0			0	0			1				0	
6.6.1	win	2023-07-07	15:44:35	15:50:33	352554	5e456129f5b428000b5b0f81	4	1	main_z	7	advance_on_keypress_ZEE	64	stimuli_distractor_trianglediamonds.svg	stimuli_target_rectangletriangles.svg	9	yes	57	0	426	0	0			0	0			1				0	
6.6.1	win	2023-07-07	15:44:35	15:50:35	355235	5e456129f5b428000b5b0f81	4	1	main_z	7	main_z	65	stimuli_distractor_diamondtriangles.svg	stimuli_distractor_trianglediamonds.svg	37	no	44	0	1600	0	0			0	0			1				0	
6.6.1	win	2023-07-07	15:44:35	15:50:35	355235	5e456129f5b428000b5b0f81	4	1	main_z	7	advance_on_keypress_ZEE	66	stimuli_distractor_diamondtriangles.svg	stimuli_distractor_trianglediamonds.svg	37	no	57	0	563	0	0			0	0			1				0	
6.6.1	win	2023-07-07	15:44:35	15:50:37	357275	5e456129f5b428000b5b0f81	4	1	main_z	7	main_z	67	stimuli_distractor_diamondtriangles.svg	stimuli_target_diamondrectangles.svg	31	yes	44	1	825	0	0			0	0			1				0	
6.6.1	win	2023-07-07	15:44:35	15:50:37	357275	5e456129f5b428000b5b0f81	4	1	main_z	7	advance_on_keypress_ZEE	68	stimuli_distractor_diamondtriangles.svg	stimuli_target_diamondrectangles.svg	31	yes	57	0	452	0	0			0	0			1				0	
6.6.1	win	2023-07-07	15:44:35	15:50:39	359264	5e456129f5b428000b5b0f81	4	1	main_z	7	main_z	69	stimuli_target_rectangletriangles.svg	stimuli_distractor_trianglediamonds.svg	1	yes	44	1	900	0	0			0	0			1				0	
6.6.1	win	2023-07-07	15:44:35	15:50:39	359264	5e456129f5b428000b5b0f81	4	1	main_z	7	advance_on_keypress_ZEE	70	stimuli_target_rectangletriangles.svg	stimuli_distractor_trianglediamonds.svg	1	yes	57	0	758	0	0			0	0			1				0	
6.6.1	win	2023-07-07	15:44:35	15:50:42	361480	5e456129f5b428000b5b0f81	4	1	main_z	7	main_z	71	stimuli_distractor_trianglediamonds.svg	stimuli_distractor_trianglediamonds.svg	34	no	44	0	818	0	0			0	0			1				0	
6.6.1	win	2023-07-07	15:44:35	15:50:42	361480	5e456129f5b428000b5b0f81	4	1	main_z	7	advance_on_keypress_ZEE	72	stimuli_distractor_trianglediamonds.svg	stimuli_distractor_trianglediamonds.svg	34	no	57	0	383	0	0			0	0			1				0	
6.6.1	win	2023-07-07	15:44:35	15:50:45	364510	5e456129f5b428000b5b0f81	4	1	main_z	7	main_z	73	stimuli_distractor_trianglediamonds.svg	stimuli_distractor_trianglediamonds.svg	33	no	0	1	2000	0	0			0	0			1				0	
6.6.1	win	2023-07-07	15:44:35	15:50:45	364510	5e456129f5b428000b5b0f81	4	1	main_z	7	advance_on_keypress_ZEE	74	stimuli_distractor_trianglediamonds.svg	stimuli_distractor_trianglediamonds.svg	33	no	57	0	331	0	0			0	0			1				0	
6.6.1	win	2023-07-07	15:44:35	15:50:46	366177	5e456129f5b428000b5b0f81	4	1	main_z	7	main_z	75	stimuli_target_diamondrectangles.svg	stimuli_distractor_diamondtriangles.svg	23	yes	44	1	686	0	0			0	0			1				0	
6.6.1	win	2023-07-07	15:44:35	15:50:46	366177	5e456129f5b428000b5b0f81	4	1	main_z	7	advance_on_keypress_ZEE	76	stimuli_target_diamondrectangles.svg	stimuli_distractor_diamondtriangles.svg	23	yes	57	0	415	0	0			0	0			1				0	
6.6.1	win	2023-07-07	15:44:35	15:50:48	368137	5e456129f5b428000b5b0f81	4	1	main_z	7	main_z	77	stimuli_target_diamondsquares.svg	stimuli_distractor_diamondtriangles.svg	24	yes	44	1	897	0	0			0	0			1				0	
6.6.1	win	2023-07-07	15:44:35	15:50:48	368137	5e456129f5b428000b5b0f81	4	1	main_z	7	advance_on_keypress_ZEE	78	stimuli_target_diamondsquares.svg	stimuli_distractor_diamondtriangles.svg	24	yes	57	0	408	0	0			0	0			1				0	
6.6.1	win	2023-07-07	15:44:35	15:50:50	370012	5e456129f5b428000b5b0f81	4	1	main_z	7	main_z	79	stimuli_distractor_trianglediamonds.svg	stimuli_target_squaretriangles.svg	11	yes	44	1	825	0	0			0	0			1				0	
6.6.1	win	2023-07-07	15:44:35	15:50:50	370012	5e456129f5b428000b5b0f81	4	1	main_z	7	advance_on_keypress_ZEE	80	stimuli_distractor_trianglediamonds.svg	stimuli_target_squaretriangles.svg	11	yes	57	0	387	0	0			0	0			1				0	
6.6.1	win	2023-07-07	15:44:35	15:50:53	373036	5e456129f5b428000b5b0f81	4	1	main_z	7	main_z	81	stimuli_distractor_diamondtriangles.svg	stimuli_distractor_diamondtriangles.svg	40	no	0	1	2000	0	0			0	0			1				0	
6.6.1	win	2023-07-07	15:44:35	15:50:53	373036	5e456129f5b428000b5b0f81	4	1	main_z	7	advance_on_keypress_ZEE	82	stimuli_distractor_diamondtriangles.svg	stimuli_distractor_diamondtriangles.svg	40	no	57	0	258	0	0			0	0			1				0	
6.6.1	win	2023-07-07	15:44:35	15:50:55	374745	5e456129f5b428000b5b0f81	4	1	main_z	7	main_z	83	stimuli_distractor_diamondtriangles.svg	stimuli_target_diamondsquares.svg	32	yes	44	1	812	0	0			0	0			1				0	
6.6.1	win	2023-07-07	15:44:35	15:50:55	374745	5e456129f5b428000b5b0f81	4	1	main_z	7	advance_on_keypress_ZEE	84	stimuli_distractor_diamondtriangles.svg	stimuli_target_diamondsquares.svg	32	yes	57	0	409	0	0			0	0			1				0	
6.6.1	win	2023-07-07	15:44:35	15:50:57	376710	5e456129f5b428000b5b0f81	4	1	main_z	7	main_z	85	stimuli_target_rectanglediamonds.svg	stimuli_distractor_trianglediamonds.svg	2	yes	44	1	896	0	0			0	0			1				0	
6.6.1	win	2023-07-07	15:44:35	15:50:57	376710	5e456129f5b428000b5b0f81	4	1	main_z	7	advance_on_keypress_ZEE	86	stimuli_target_rectanglediamonds.svg	stimuli_distractor_trianglediamonds.svg	2	yes	57	0	424	0	0			0	0			1				0	
6.6.1	win	2023-07-07	15:44:35	15:50:59	378680	5e456129f5b428000b5b0f81	4	1	main_z	7	main_z	87	stimuli_target_trianglesquares.svg	stimuli_distractor_trianglediamonds.svg	18	yes	44	1	901	0	0			0	0			1				0	
6.6.1	win	2023-07-07	15:44:35	15:50:59	378680	5e456129f5b428000b5b0f81	4	1	main_z	7	advance_on_keypress_ZEE	88	stimuli_target_trianglesquares.svg	stimuli_distractor_trianglediamonds.svg	18	yes	57	0	399	0	0			0	0			1				0	
6.6.1	win	2023-07-07	15:44:35	15:51:01	380595	5e456129f5b428000b5b0f81	4	1	main_z	7	main_z	89	stimuli_distractor_diamondtriangles.svg	stimuli_target_squaretriangles.svg	15	yes	44	1	867	0	0			0	0			1				0	
6.6.1	win	2023-07-07	15:44:35	15:51:01	380595	5e456129f5b428000b5b0f81	4	1	main_z	7	advance_on_keypress_ZEE	90	stimuli_distractor_diamondtriangles.svg	stimuli_target_squaretriangles.svg	15	yes	57	0	360	0	0			0	0			1				0	
6.6.1	win	2023-07-07	15:44:35	15:51:03	382486	5e456129f5b428000b5b0f81	4	1	main_z	7	main_z	91	stimuli_distractor_trianglediamonds.svg	stimuli_target_trianglerectangles.svg	25	yes	44	1	894	0	0			0	0			1				0	
6.6.1	win	2023-07-07	15:44:35	15:51:03	382486	5e456129f5b428000b5b0f81	4	1	main_z	7	advance_on_keypress_ZEE	92	stimuli_distractor_trianglediamonds.svg	stimuli_target_trianglerectangles.svg	25	yes	57	0	401	0	0			0	0			1				0	
6.6.1	win	2023-07-07	15:44:35	15:51:05	384426	5e456129f5b428000b5b0f81	4	1	main_z	7	main_z	93	stimuli_target_rectangletriangles.svg	stimuli_distractor_trianglediamonds.svg	1	yes	44	1	886	0	0			0	0			1				0	
6.6.1	win	2023-07-07	15:44:35	15:51:05	384426	5e456129f5b428000b5b0f81	4	1	main_z	7	advance_on_keypress_ZEE	94	stimuli_target_rectangletriangles.svg	stimuli_distractor_trianglediamonds.svg	1	yes	57	0	425	0	0			0	0			1				0	
6.6.1	win	2023-07-07	15:44:35	15:51:07	386331	5e456129f5b428000b5b0f81	4	1	main_z	7	main_z	95	stimuli_target_trianglesquares.svg	stimuli_distractor_diamondtriangles.svg	22	yes	44	1	843	0	0			0	0			1				0	
6.6.1	win	2023-07-07	15:44:35	15:51:07	386331	5e456129f5b428000b5b0f81	4	1	main_z	7	advance_on_keypress_ZEE	96	stimuli_target_trianglesquares.svg	stimuli_distractor_diamondtriangles.svg	22	yes	57	0	353	0	0			0	0			1				0	
6.6.1	win	2023-07-07	15:44:35	15:51:08	388186	5e456129f5b428000b5b0f81	4	1	main_z	7	main_z	97	stimuli_distractor_diamondtriangles.svg	stimuli_target_squarediamonds.svg	16	yes	44	1	866	0	0			0	0			1				0	
6.6.1	win	2023-07-07	15:44:35	15:51:08	388186	5e456129f5b428000b5b0f81	4	1	main_z	7	advance_on_keypress_ZEE	98	stimuli_distractor_diamondtriangles.svg	stimuli_target_squarediamonds.svg	16	yes	57	0	377	0	0			0	0			1				0	
6.6.1	win	2023-07-07	15:44:35	15:51:10	390032	5e456129f5b428000b5b0f81	4	1	main_z	7	main_z	99	stimuli_target_trianglerectangles.svg	stimuli_distractor_diamondtriangles.svg	21	yes	44	1	813	0	0			0	0			1				0	
6.6.1	win	2023-07-07	15:44:35	15:51:10	390032	5e456129f5b428000b5b0f81	4	1	main_z	7	advance_on_keypress_ZEE	100	stimuli_target_trianglerectangles.svg	stimuli_distractor_diamondtriangles.svg	21	yes	57	0	395	0	0			0	0			1				0	
6.6.1	win	2023-07-07	15:44:35	15:51:12	391977	5e456129f5b428000b5b0f81	4	1	main_z	7	main_z	101	stimuli_target_diamondsquares.svg	stimuli_distractor_trianglediamonds.svg	20	yes	44	1	894	0	0			0	0			1				0	
6.6.1	win	2023-07-07	15:44:35	15:51:12	391977	5e456129f5b428000b5b0f81	4	1	main_z	7	advance_on_keypress_ZEE	102	stimuli_target_diamondsquares.svg	stimuli_distractor_trianglediamonds.svg	20	yes	57	0	403	0	0			0	0			1				0	
6.6.1	win	2023-07-07	15:44:35	15:51:15	394441	5e456129f5b428000b5b0f81	4	1	main_z	7	main_z	103	stimuli_distractor_trianglediamonds.svg	stimuli_target_diamondsquares.svg	28	yes	44	1	1409	0	0			0	0			1				0	
6.6.1	win	2023-07-07	15:44:35	15:51:15	394441	5e456129f5b428000b5b0f81	4	1	main_z	7	advance_on_keypress_ZEE	104	stimuli_distractor_trianglediamonds.svg	stimuli_target_diamondsquares.svg	28	yes	57	0	563	0	0			0	0			1				0	
6.6.1	win	2023-07-07	15:44:35	15:51:17	396615	5e456129f5b428000b5b0f81	4	1	main_z	7	main_z	105	stimuli_distractor_trianglediamonds.svg	stimuli_target_trianglesquares.svg	26	yes	44	1	969	0	0			0	0			1				0	
6.6.1	win	2023-07-07	15:44:35	15:51:17	396615	5e456129f5b428000b5b0f81	4	1	main_z	7	advance_on_keypress_ZEE	106	stimuli_distractor_trianglediamonds.svg	stimuli_target_trianglesquares.svg	26	yes	57	0	471	0	0			0	0			1				0	
6.6.1	win	2023-07-07	15:44:35	15:51:19	398675	5e456129f5b428000b5b0f81	4	1	main_z	7	main_z	107	stimuli_distractor_diamondtriangles.svg	stimuli_target_trianglesquares.svg	30	yes	44	1	948	0	0			0	0			1				0	
6.6.1	win	2023-07-07	15:44:35	15:51:19	398675	5e456129f5b428000b5b0f81	4	1	main_z	7	advance_on_keypress_ZEE	108	stimuli_distractor_diamondtriangles.svg	stimuli_target_trianglesquares.svg	30	yes	57	0	362	0	0			0	0			1				0	
6.6.1	win	2023-07-07	15:44:35	15:51:22	401692	5e456129f5b428000b5b0f81	4	1	main_z	7	main_z	109	stimuli_distractor_diamondtriangles.svg	stimuli_distractor_trianglediamonds.svg	38	no	0	1	2000	0	0			0	0			1				0	
6.6.1	win	2023-07-07	15:44:35	15:51:22	401692	5e456129f5b428000b5b0f81	4	1	main_z	7	advance_on_keypress_ZEE	110	stimuli_distractor_diamondtriangles.svg	stimuli_distractor_trianglediamonds.svg	38	no	57	0	344	0	0			0	0			1				0	
6.6.1	win	2023-07-07	15:44:35	15:51:24	403533	5e456129f5b428000b5b0f81	4	1	main_z	7	main_z	111	stimuli_target_squaretriangles.svg	stimuli_distractor_trianglediamonds.svg	3	yes	44	1	843	0	0			0	0			1				0	
6.6.1	win	2023-07-07	15:44:35	15:51:24	403533	5e456129f5b428000b5b0f81	4	1	main_z	7	advance_on_keypress_ZEE	112	stimuli_target_squaretriangles.svg	stimuli_distractor_trianglediamonds.svg	3	yes	57	0	503	0	0			0	0			1				0	
6.6.1	win	2023-07-07	15:44:35	15:51:26	405503	5e456129f5b428000b5b0f81	4	1	main_z	7	main_z	113	stimuli_distractor_diamondtriangles.svg	stimuli_target_rectangletriangles.svg	13	yes	44	1	832	0	0			0	0			1				0	
6.6.1	win	2023-07-07	15:44:35	15:51:26	405503	5e456129f5b428000b5b0f81	4	1	main_z	7	advance_on_keypress_ZEE	114	stimuli_distractor_diamondtriangles.svg	stimuli_target_rectangletriangles.svg	13	yes	57	0	433	0	0			0	0			1				0	
6.6.1	win	2023-07-07	15:44:35	15:51:28	407543	5e456129f5b428000b5b0f81	4	1	main_z	7	main_z	115	stimuli_target_squaretriangles.svg	stimuli_distractor_diamondtriangles.svg	7	yes	44	1	957	0	0			0	0			1				0	
6.6.1	win	2023-07-07	15:44:35	15:51:28	407543	5e456129f5b428000b5b0f81	4	1	main_z	7	advance_on_keypress_ZEE	116	stimuli_target_squaretriangles.svg	stimuli_distractor_diamondtriangles.svg	7	yes	57	0	401	0	0			0	0			1				0	
6.6.1	win	2023-07-07	15:44:35	15:51:30	409952	5e456129f5b428000b5b0f81	4	1	main_z	7	main_z	117	stimuli_distractor_trianglediamonds.svg	stimuli_distractor_trianglediamonds.svg	33	no	44	0	1368	0	0			0	0			1				0	
6.6.1	win	2023-07-07	15:44:35	15:51:30	409952	5e456129f5b428000b5b0f81	4	1	main_z	7	advance_on_keypress_ZEE	118	stimuli_distractor_trianglediamonds.svg	stimuli_distractor_trianglediamonds.svg	33	no	57	0	397	0	0			0	0			1				0	
6.6.1	win	2023-07-07	15:44:35	15:51:32	411912	5e456129f5b428000b5b0f81	4	1	main_z	7	main_z	119	stimuli_distractor_trianglediamonds.svg	stimuli_target_squaretriangles.svg	11	yes	44	1	914	0	0			0	0			1				0	
6.6.1	win	2023-07-07	15:44:35	15:51:32	411912	5e456129f5b428000b5b0f81	4	1	main_z	7	advance_on_keypress_ZEE	120	stimuli_distractor_trianglediamonds.svg	stimuli_target_squaretriangles.svg	11	yes	57	0	381	0	0			0	0			1				0	
6.6.1	win	2023-07-07	15:44:35	15:51:34	413867	5e456129f5b428000b5b0f81	4	1	main_z	7	main_z	121	stimuli_distractor_trianglediamonds.svg	stimuli_target_squarediamonds.svg	12	yes	44	1	921	0	0			0	0			1				0	
6.6.1	win	2023-07-07	15:44:35	15:51:34	413867	5e456129f5b428000b5b0f81	4	1	main_z	7	advance_on_keypress_ZEE	122	stimuli_distractor_trianglediamonds.svg	stimuli_target_squarediamonds.svg	12	yes	57	0	423	0	0			0	0			1				0	
6.6.1	win	2023-07-07	15:44:35	15:51:36	415922	5e456129f5b428000b5b0f81	4	1	main_z	7	main_z	123	stimuli_target_squarediamonds.svg	stimuli_distractor_trianglediamonds.svg	4	yes	44	1	994	0	0			0	0			1				0	
6.6.1	win	2023-07-07	15:44:35	15:51:36	415922	5e456129f5b428000b5b0f81	4	1	main_z	7	advance_on_keypress_ZEE	124	stimuli_target_squarediamonds.svg	stimuli_distractor_trianglediamonds.svg	4	yes	57	0	373	0	0			0	0			1				0	
6.6.1	win	2023-07-07	15:44:35	15:51:39	418942	5e456129f5b428000b5b0f81	4	1	main_z	7	main_z	125	stimuli_distractor_trianglediamonds.svg	stimuli_distractor_diamondtriangles.svg	36	no	0	1	2000	0	0			0	0			1				0	
6.6.1	win	2023-07-07	15:44:35	15:51:39	418942	5e456129f5b428000b5b0f81	4	1	main_z	7	advance_on_keypress_ZEE	126	stimuli_distractor_trianglediamonds.svg	stimuli_distractor_diamondtriangles.svg	36	no	57	0	297	0	0			0	0			1				0	
6.6.1	win	2023-07-07	15:44:35	15:51:41	420945	5e456129f5b428000b5b0f81	4	1	main_z	7	main_z	127	stimuli_distractor_diamondtriangles.svg	stimuli_target_rectanglediamonds.svg	14	yes	44	1	1055	0	0			0	0			1				0	
6.6.1	win	2023-07-07	15:44:35	15:51:41	420945	5e456129f5b428000b5b0f81	4	1	main_z	7	advance_on_keypress_ZEE	128	stimuli_distractor_diamondtriangles.svg	stimuli_target_rectanglediamonds.svg	14	yes	57	0	344	0	0			0	0			1				0	
6.6.1	win	2023-07-07	15:44:35	15:51:44	423938	5e456129f5b428000b5b0f81	4	1	main_z	7	main_z	129	stimuli_distractor_trianglediamonds.svg	stimuli_distractor_trianglediamonds.svg	34	no	0	1	2000	0	0			0	0			1				0	
6.6.1	win	2023-07-07	15:44:35	15:51:44	423938	5e456129f5b428000b5b0f81	4	1	main_z	7	advance_on_keypress_ZEE	130	stimuli_distractor_trianglediamonds.svg	stimuli_distractor_trianglediamonds.svg	34	no	57	0	284	0	0			0	0			1				0	
6.6.1	win	2023-07-07	15:44:35	15:51:46	425738	5e456129f5b428000b5b0f81	4	1	main_z	7	main_z	131	stimuli_distractor_diamondtriangles.svg	stimuli_target_trianglerectangles.svg	29	yes	44	1	869	0	0			0	0			1				0	
6.6.1	win	2023-07-07	15:44:35	15:51:46	425738	5e456129f5b428000b5b0f81	4	1	main_z	7	advance_on_keypress_ZEE	132	stimuli_distractor_diamondtriangles.svg	stimuli_target_trianglerectangles.svg	29	yes	57	0	465	0	0			0	0			1				0	
6.6.1	win	2023-07-07	15:44:35	15:51:48	427698	5e456129f5b428000b5b0f81	4	1	main_z	7	main_z	133	stimuli_distractor_trianglediamonds.svg	stimuli_target_rectangletriangles.svg	9	yes	44	1	848	0	0			0	0			1				0	
6.6.1	win	2023-07-07	15:44:35	15:51:48	427698	5e456129f5b428000b5b0f81	4	1	main_z	7	advance_on_keypress_ZEE	134	stimuli_distractor_trianglediamonds.svg	stimuli_target_rectangletriangles.svg	9	yes	57	0	677	0	0			0	0			1				0	
6.6.1	win	2023-07-07	15:44:35	15:51:50	429957	5e456129f5b428000b5b0f81	4	1	main_z	7	main_z	135	stimuli_target_rectanglediamonds.svg	stimuli_distractor_diamondtriangles.svg	6	yes	44	1	925	0	0			0	0			1				0	
6.6.1	win	2023-07-07	15:44:35	15:51:50	429957	5e456129f5b428000b5b0f81	4	1	main_z	7	advance_on_keypress_ZEE	136	stimuli_target_rectanglediamonds.svg	stimuli_distractor_diamondtriangles.svg	6	yes	57	0	583	0	0			0	0			1				0	
6.6.1	win	2023-07-07	15:44:35	15:51:52	432057	5e456129f5b428000b5b0f81	4	1	main_z	7	main_z	137	stimuli_distractor_trianglediamonds.svg	stimuli_target_rectanglediamonds.svg	10	yes	44	1	878	0	0			0	0			1				0	
6.6.1	win	2023-07-07	15:44:35	15:51:52	432057	5e456129f5b428000b5b0f81	4	1	main_z	7	advance_on_keypress_ZEE	138	stimuli_distractor_trianglediamonds.svg	stimuli_target_rectanglediamonds.svg	10	yes	57	0	413	0	0			0	0			1				0	
6.6.1	win	2023-07-07	15:44:35	15:51:54	434052	5e456129f5b428000b5b0f81	4	1	main_z	7	main_z	139	stimuli_target_diamondsquares.svg	stimuli_distractor_diamondtriangles.svg	24	yes	44	1	925	0	0			0	0			1				0	
6.6.1	win	2023-07-07	15:44:35	15:51:54	434052	5e456129f5b428000b5b0f81	4	1	main_z	7	advance_on_keypress_ZEE	140	stimuli_target_diamondsquares.svg	stimuli_distractor_diamondtriangles.svg	24	yes	57	0	367	0	0			0	0			1				0	
6.6.1	win	2023-07-07	15:44:35	15:51:56	435987	5e456129f5b428000b5b0f81	4	1	main_z	7	main_z	141	stimuli_target_diamondrectangles.svg	stimuli_distractor_diamondtriangles.svg	23	yes	44	1	928	0	0			0	0			1				0	
6.6.1	win	2023-07-07	15:44:35	15:51:56	435987	5e456129f5b428000b5b0f81	4	1	main_z	7	advance_on_keypress_ZEE	142	stimuli_target_diamondrectangles.svg	stimuli_distractor_diamondtriangles.svg	23	yes	57	0	369	0	0			0	0			1				0	
6.6.1	win	2023-07-07	15:44:35	15:51:59	439007	5e456129f5b428000b5b0f81	4	1	main_z	7	main_z	143	stimuli_distractor_trianglediamonds.svg	stimuli_distractor_diamondtriangles.svg	35	no	0	1	2000	0	0			0	0			1				0	
6.6.1	win	2023-07-07	15:44:35	15:51:59	439007	5e456129f5b428000b5b0f81	4	1	main_z	7	advance_on_keypress_ZEE	144	stimuli_distractor_trianglediamonds.svg	stimuli_distractor_diamondtriangles.svg	35	no	57	0	313	0	0			0	0			1				0	
6.6.1	win	2023-07-07	15:44:35	15:52:02	441971	5e456129f5b428000b5b0f81	4	1	main_z	7	main_z	145	stimuli_distractor_diamondtriangles.svg	stimuli_target_diamondrectangles.svg	31	yes	0	0	2000	0	0			0	0			1				0	
6.6.1	win	2023-07-07	15:44:35	15:52:02	441971	5e456129f5b428000b5b0f81	4	1	main_z	7	advance_on_keypress_ZEE	146	stimuli_distractor_diamondtriangles.svg	stimuli_target_diamondrectangles.svg	31	yes	57	0	297	0	0			0	0			1				0	
6.6.1	win	2023-07-07	15:44:35	15:52:04	443807	5e456129f5b428000b5b0f81	4	1	main_z	7	main_z	147	stimuli_distractor_trianglediamonds.svg	stimuli_target_diamondrectangles.svg	27	yes	44	1	889	0	0			0	0			1				0	
6.6.1	win	2023-07-07	15:44:35	15:52:04	443807	5e456129f5b428000b5b0f81	4	1	main_z	7	advance_on_keypress_ZEE	148	stimuli_distractor_trianglediamonds.svg	stimuli_target_diamondrectangles.svg	27	yes	57	0	500	0	0			0	0			1				0	
6.6.1	win	2023-07-07	15:44:35	15:52:06	445937	5e456129f5b428000b5b0f81	4	1	main_z	7	main_z	149	stimuli_target_squarediamonds.svg	stimuli_distractor_diamondtriangles.svg	8	yes	44	1	987	0	0			0	0			1				0	
6.6.1	win	2023-07-07	15:44:35	15:52:06	445937	5e456129f5b428000b5b0f81	4	1	main_z	7	advance_on_keypress_ZEE	150	stimuli_target_squarediamonds.svg	stimuli_distractor_diamondtriangles.svg	8	yes	57	0	458	0	0			0	0			1				0	
6.6.1	win	2023-07-07	15:44:35	15:52:08	447942	5e456129f5b428000b5b0f81	4	1	main_z	7	main_z	151	stimuli_target_rectangletriangles.svg	stimuli_distractor_diamondtriangles.svg	5	yes	44	1	911	0	0			0	0			1				0	
6.6.1	win	2023-07-07	15:44:35	15:52:08	447942	5e456129f5b428000b5b0f81	4	1	main_z	7	advance_on_keypress_ZEE	152	stimuli_target_rectangletriangles.svg	stimuli_distractor_diamondtriangles.svg	5	yes	57	0	384	0	0			0	0			1				0	
6.6.1	win	2023-07-07	15:44:35	15:52:11	450979	5e456129f5b428000b5b0f81	4	1	main_z	7	main_z	153	stimuli_distractor_diamondtriangles.svg	stimuli_distractor_diamondtriangles.svg	39	no	0	1	2000	0	0			0	0			1				0	
6.6.1	win	2023-07-07	15:44:35	15:52:11	450979	5e456129f5b428000b5b0f81	4	1	main_z	7	advance_on_keypress_ZEE	154	stimuli_distractor_diamondtriangles.svg	stimuli_distractor_diamondtriangles.svg	39	no	57	0	271	0	0			0	0			1				0	
6.6.1	win	2023-07-07	15:44:35	15:52:13	452800	5e456129f5b428000b5b0f81	4	1	main_z	7	main_z	155	stimuli_target_diamondrectangles.svg	stimuli_distractor_trianglediamonds.svg	19	yes	44	1	907	0	0			0	0			1				0	
6.6.1	win	2023-07-07	15:44:35	15:52:13	452800	5e456129f5b428000b5b0f81	4	1	main_z	7	advance_on_keypress_ZEE	156	stimuli_target_diamondrectangles.svg	stimuli_distractor_trianglediamonds.svg	19	yes	57	0	426	0	0			0	0			1				0	
6.6.1	win	2023-07-07	15:44:35	15:52:15	454855	5e456129f5b428000b5b0f81	4	1	main_z	7	main_z	157	stimuli_target_trianglerectangles.svg	stimuli_distractor_trianglediamonds.svg	17	yes	44	1	997	0	0			0	0			1				0	
6.6.1	win	2023-07-07	15:44:35	15:52:15	454855	5e456129f5b428000b5b0f81	4	1	main_z	7	advance_on_keypress_ZEE	158	stimuli_target_trianglerectangles.svg	stimuli_distractor_trianglediamonds.svg	17	yes	57	0	412	0	0			0	0			1				0	
6.6.1	win	2023-07-07	15:44:35	15:52:18	457923	5e456129f5b428000b5b0f81	4	1	main_z	7	main_z	159	stimuli_distractor_diamondtriangles.svg	stimuli_distractor_trianglediamonds.svg	37	no	0	1	2000	0	0			0	0			1				0	
6.6.1	win	2023-07-07	15:44:35	15:52:18	457923	5e456129f5b428000b5b0f81	4	1	main_z	7	advance_on_keypress_ZEE	160	stimuli_distractor_diamondtriangles.svg	stimuli_distractor_trianglediamonds.svg	37	no	57	0	294	0	0			0	0			1				0	
6.6.1	win	2023-07-07	15:44:35	15:52:42	482116	5e456129f5b428000b5b0f81	4	1	practice_slash	9	practice_slash	1	stimuli_target_rectanglediamonds.svg	stimuli_distractor_trianglediamonds.svg	4	yes	53	1	1063	0	0			0	0			1				0	
6.6.1	win	2023-07-07	15:44:35	15:52:42	482116	5e456129f5b428000b5b0f81	4	1	practice_slash	9	advance_on_keypress_SLASH	2	stimuli_target_rectanglediamonds.svg	stimuli_distractor_trianglediamonds.svg	4	yes	57	0	493	0	0			0	0			1				0	
6.6.1	win	2023-07-07	15:44:35	15:52:45	485168	5e456129f5b428000b5b0f81	4	1	practice_slash	9	practice_slash	3	stimuli_distractor_diamondtriangles.svg	stimuli_target_trianglerectangles.svg	9	yes	53	1	902	0	0			0	0			1				0	
6.6.1	win	2023-07-07	15:44:35	15:52:45	485168	5e456129f5b428000b5b0f81	4	1	practice_slash	9	advance_on_keypress_SLASH	4	stimuli_distractor_diamondtriangles.svg	stimuli_target_trianglerectangles.svg	9	yes	57	0	324	0	0			0	0			1				0	
6.6.1	win	2023-07-07	15:44:35	15:52:48	487826	5e456129f5b428000b5b0f81	4	1	practice_slash	9	practice_slash	5	stimuli_distractor_trianglediamonds.svg	stimuli_target_rectanglediamonds.svg	10	yes	53	1	696	0	0			0	0			1				0	
6.6.1	win	2023-07-07	15:44:35	15:52:48	487826	5e456129f5b428000b5b0f81	4	1	practice_slash	9	advance_on_keypress_SLASH	6	stimuli_distractor_trianglediamonds.svg	stimuli_target_rectanglediamonds.svg	10	yes	57	0	344	0	0			0	0			1				0	
6.6.1	win	2023-07-07	15:44:35	15:52:51	490530	5e456129f5b428000b5b0f81	4	1	practice_slash	9	practice_slash	7	stimuli_target_diamondsquares.svg	stimuli_distractor_diamondtriangles.svg	3	yes	53	1	702	0	0			0	0			1				0	
6.6.1	win	2023-07-07	15:44:35	15:52:51	490530	5e456129f5b428000b5b0f81	4	1	practice_slash	9	advance_on_keypress_SLASH	8	stimuli_target_diamondsquares.svg	stimuli_distractor_diamondtriangles.svg	3	yes	57	0	239	0	0			0	0			1				0	
6.6.1	win	2023-07-07	15:44:35	15:52:53	493189	5e456129f5b428000b5b0f81	4	1	practice_slash	9	practice_slash	9	stimuli_target_diamondsquares.svg	stimuli_distractor_trianglediamonds.svg	6	yes	53	1	780	0	0			0	0			1				0	
6.6.1	win	2023-07-07	15:44:35	15:52:53	493189	5e456129f5b428000b5b0f81	4	1	practice_slash	9	advance_on_keypress_SLASH	10	stimuli_target_diamondsquares.svg	stimuli_distractor_trianglediamonds.svg	6	yes	57	0	248	0	0			0	0			1				0	
6.6.1	win	2023-07-07	15:44:35	15:52:56	495782	5e456129f5b428000b5b0f81	4	1	practice_slash	9	practice_slash	11	stimuli_distractor_trianglediamonds.svg	stimuli_target_squarediamonds.svg	11	yes	53	1	692	0	0			0	0			1				0	
6.6.1	win	2023-07-07	15:44:35	15:52:56	495782	5e456129f5b428000b5b0f81	4	1	practice_slash	9	advance_on_keypress_SLASH	12	stimuli_distractor_trianglediamonds.svg	stimuli_target_squarediamonds.svg	11	yes	57	0	305	0	0			0	0			1				0	
6.6.1	win	2023-07-07	15:44:35	15:52:59	498950	5e456129f5b428000b5b0f81	4	1	practice_slash	9	practice_slash	13	stimuli_target_squarediamonds.svg	stimuli_distractor_trianglediamonds.svg	5	yes	53	1	1212	0	0			0	0			1				0	
6.6.1	win	2023-07-07	15:44:35	15:52:59	498950	5e456129f5b428000b5b0f81	4	1	practice_slash	9	advance_on_keypress_SLASH	14	stimuli_target_squarediamonds.svg	stimuli_distractor_trianglediamonds.svg	5	yes	57	0	237	0	0			0	0			1				0	
6.6.1	win	2023-07-07	15:44:35	15:53:02	501866	5e456129f5b428000b5b0f81	4	1	practice_slash	9	practice_slash	15	stimuli_distractor_diamondtriangles.svg	stimuli_distractor_trianglediamonds.svg	14	no	53	0	1031	0	0			0	0			1				0	
6.6.1	win	2023-07-07	15:44:35	15:53:02	501866	5e456129f5b428000b5b0f81	4	1	practice_slash	9	advance_on_keypress_SLASH	16	stimuli_distractor_diamondtriangles.svg	stimuli_distractor_trianglediamonds.svg	14	no	57	0	895	0	0			0	0			1				0	
6.6.1	win	2023-07-07	15:44:35	15:53:06	505502	5e456129f5b428000b5b0f81	4	1	practice_slash	9	practice_slash	17	stimuli_distractor_diamondtriangles.svg	stimuli_target_rectangletriangles.svg	7	yes	53	1	1087	0	0			0	0			1				0	
6.6.1	win	2023-07-07	15:44:35	15:53:06	505502	5e456129f5b428000b5b0f81	4	1	practice_slash	9	advance_on_keypress_SLASH	18	stimuli_distractor_diamondtriangles.svg	stimuli_target_rectangletriangles.svg	7	yes	57	0	247	0	0			0	0			1				0	
6.6.1	win	2023-07-07	15:44:35	15:53:10	509395	5e456129f5b428000b5b0f81	4	1	practice_slash	9	practice_slash	19	stimuli_distractor_trianglediamonds.svg	stimuli_distractor_trianglediamonds.svg	15	no	0	1	2000	0	0			0	0			1				0	
6.6.1	win	2023-07-07	15:44:35	15:53:10	509395	5e456129f5b428000b5b0f81	4	1	practice_slash	9	advance_on_keypress_SLASH	20	stimuli_distractor_trianglediamonds.svg	stimuli_distractor_trianglediamonds.svg	15	no	57	0	305	0	0			0	0			1				0	
6.6.1	win	2023-07-07	15:44:35	15:53:12	512045	5e456129f5b428000b5b0f81	4	1	practice_slash	9	practice_slash	21	stimuli_target_rectanglediamonds.svg	stimuli_distractor_diamondtriangles.svg	1	yes	53	1	704	0	0			0	0			1				0	
6.6.1	win	2023-07-07	15:44:35	15:53:12	512045	5e456129f5b428000b5b0f81	4	1	practice_slash	9	advance_on_keypress_SLASH	22	stimuli_target_rectanglediamonds.svg	stimuli_distractor_diamondtriangles.svg	1	yes	57	0	217	0	0			0	0			1				0	
6.6.1	win	2023-07-07	15:44:35	15:53:15	514688	5e456129f5b428000b5b0f81	4	1	practice_slash	9	practice_slash	23	stimuli_target_squarediamonds.svg	stimuli_distractor_diamondtriangles.svg	2	yes	53	1	783	0	0			0	0			1				0	
6.6.1	win	2023-07-07	15:44:35	15:53:15	514688	5e456129f5b428000b5b0f81	4	1	practice_slash	9	advance_on_keypress_SLASH	24	stimuli_target_squarediamonds.svg	stimuli_distractor_diamondtriangles.svg	2	yes	57	0	213	0	0			0	0			1				0	
6.6.1	win	2023-07-07	15:44:35	15:53:18	517471	5e456129f5b428000b5b0f81	4	1	practice_slash	9	practice_slash	25	stimuli_distractor_trianglediamonds.svg	stimuli_target_diamondrectangles.svg	12	yes	53	1	919	0	0			0	0			1				0	
6.6.1	win	2023-07-07	15:44:35	15:53:18	517471	5e456129f5b428000b5b0f81	4	1	practice_slash	9	advance_on_keypress_SLASH	26	stimuli_distractor_trianglediamonds.svg	stimuli_target_diamondrectangles.svg	12	yes	57	0	524	0	0			0	0			1				0	
6.6.1	win	2023-07-07	15:44:35	15:53:21	520554	5e456129f5b428000b5b0f81	4	1	practice_slash	9	practice_slash	27	stimuli_distractor_diamondtriangles.svg	stimuli_target_diamondrectangles.svg	8	yes	53	1	921	0	0			0	0			1				0	
6.6.1	win	2023-07-07	15:44:35	15:53:21	520554	5e456129f5b428000b5b0f81	4	1	practice_slash	9	advance_on_keypress_SLASH	28	stimuli_distractor_diamondtriangles.svg	stimuli_target_diamondrectangles.svg	8	yes	57	0	197	0	0			0	0			1				0	
6.6.1	win	2023-07-07	15:44:35	15:53:24	523443	5e456129f5b428000b5b0f81	4	1	practice_slash	9	practice_slash	29	stimuli_distractor_diamondtriangles.svg	stimuli_distractor_diamondtriangles.svg	13	no	53	0	1044	0	0			0	0			1				0	
6.6.1	win	2023-07-07	15:44:35	15:53:24	523443	5e456129f5b428000b5b0f81	4	1	practice_slash	9	advance_on_keypress_SLASH	30	stimuli_distractor_diamondtriangles.svg	stimuli_distractor_diamondtriangles.svg	13	no	57	0	327	0	0			0	0			1				0	
6.6.1	win	2023-07-07	15:44:35	15:53:28	527427	5e456129f5b428000b5b0f81	4	1	practice_slash	9	practice_slash	31	stimuli_distractor_trianglediamonds.svg	stimuli_distractor_diamondtriangles.svg	16	no	0	1	2000	0	0			0	0			1				0	
6.6.1	win	2023-07-07	15:44:35	15:53:28	527427	5e456129f5b428000b5b0f81	4	1	practice_slash	9	advance_on_keypress_SLASH	32	stimuli_distractor_trianglediamonds.svg	stimuli_distractor_diamondtriangles.svg	16	no	57	0	242	0	0			0	0			1				0	
6.6.1	win	2023-07-07	15:44:35	15:53:33	532668	5e456129f5b428000b5b0f81	4	1	main_slash	11	main_slash	1	stimuli_distractor_trianglediamonds.svg	stimuli_distractor_trianglediamonds.svg	33	no	53	0	983	0	0			0	0			1				0	
6.6.1	win	2023-07-07	15:44:35	15:53:33	532668	5e456129f5b428000b5b0f81	4	1	main_slash	11	advance_on_keypress_SLASH	2	stimuli_distractor_trianglediamonds.svg	stimuli_distractor_trianglediamonds.svg	33	no	57	0	892	0	0			0	0			1				0	
6.6.1	win	2023-07-07	15:44:35	15:53:35	534913	5e456129f5b428000b5b0f81	4	1	main_slash	11	main_slash	3	stimuli_distractor_diamondtriangles.svg	stimuli_target_diamondrectangles.svg	31	yes	53	1	714	0	0			0	0			1				0	
6.6.1	win	2023-07-07	15:44:35	15:53:35	534913	5e456129f5b428000b5b0f81	4	1	main_slash	11	advance_on_keypress_SLASH	4	stimuli_distractor_diamondtriangles.svg	stimuli_target_diamondrectangles.svg	31	yes	57	0	510	0	0			0	0			1				0	
6.6.1	win	2023-07-07	15:44:35	15:53:37	536927	5e456129f5b428000b5b0f81	4	1	main_slash	11	main_slash	5	stimuli_distractor_diamondtriangles.svg	stimuli_target_trianglesquares.svg	30	yes	53	1	846	0	0			0	0			1				0	
6.6.1	win	2023-07-07	15:44:35	15:53:37	536927	5e456129f5b428000b5b0f81	4	1	main_slash	11	advance_on_keypress_SLASH	6	stimuli_distractor_diamondtriangles.svg	stimuli_target_trianglesquares.svg	30	yes	57	0	415	0	0			0	0			1				0	
6.6.1	win	2023-07-07	15:44:35	15:53:39	538868	5e456129f5b428000b5b0f81	4	1	main_slash	11	main_slash	7	stimuli_target_diamondsquares.svg	stimuli_distractor_diamondtriangles.svg	24	yes	53	1	872	0	0			0	0			1				0	
6.6.1	win	2023-07-07	15:44:35	15:53:39	538868	5e456129f5b428000b5b0f81	4	1	main_slash	11	advance_on_keypress_SLASH	8	stimuli_target_diamondsquares.svg	stimuli_distractor_diamondtriangles.svg	24	yes	57	0	438	0	0			0	0			1				0	
6.6.1	win	2023-07-07	15:44:35	15:53:41	540784	5e456129f5b428000b5b0f81	4	1	main_slash	11	main_slash	9	stimuli_distractor_diamondtriangles.svg	stimuli_target_trianglerectangles.svg	29	yes	53	1	839	0	0			0	0			1				0	
6.6.1	win	2023-07-07	15:44:35	15:53:41	540784	5e456129f5b428000b5b0f81	4	1	main_slash	11	advance_on_keypress_SLASH	10	stimuli_distractor_diamondtriangles.svg	stimuli_target_trianglerectangles.svg	29	yes	57	0	389	0	0			0	0			1				0	
6.6.1	win	2023-07-07	15:44:35	15:53:43	542623	5e456129f5b428000b5b0f81	4	1	main_slash	11	main_slash	11	stimuli_target_trianglerectangles.svg	stimuli_distractor_diamondtriangles.svg	21	yes	53	1	814	0	0			0	0			1				0	
6.6.1	win	2023-07-07	15:44:35	15:53:43	542623	5e456129f5b428000b5b0f81	4	1	main_slash	11	advance_on_keypress_SLASH	12	stimuli_target_trianglerectangles.svg	stimuli_distractor_diamondtriangles.svg	21	yes	57	0	477	0	0			0	0			1				0	
6.6.1	win	2023-07-07	15:44:35	15:53:46	545741	5e456129f5b428000b5b0f81	4	1	main_slash	11	main_slash	13	stimuli_distractor_trianglediamonds.svg	stimuli_distractor_diamondtriangles.svg	35	no	0	1	2000	0	0			0	0			1				0	
6.6.1	win	2023-07-07	15:44:35	15:53:46	545741	5e456129f5b428000b5b0f81	4	1	main_slash	11	advance_on_keypress_SLASH	14	stimuli_distractor_trianglediamonds.svg	stimuli_distractor_diamondtriangles.svg	35	no	57	0	285	0	0			0	0			1				0	
6.6.1	win	2023-07-07	15:44:35	15:53:49	548671	5e456129f5b428000b5b0f81	4	1	main_slash	11	main_slash	15	stimuli_distractor_diamondtriangles.svg	stimuli_distractor_diamondtriangles.svg	40	no	0	1	2000	0	0			0	0			1				0	
6.6.1	win	2023-07-07	15:44:35	15:53:49	548671	5e456129f5b428000b5b0f81	4	1	main_slash	11	advance_on_keypress_SLASH	16	stimuli_distractor_diamondtriangles.svg	stimuli_distractor_diamondtriangles.svg	40	no	57	0	307	0	0			0	0			1				0	
6.6.1	win	2023-07-07	15:44:35	15:53:52	551618	5e456129f5b428000b5b0f81	4	1	main_slash	11	main_slash	17	stimuli_distractor_diamondtriangles.svg	stimuli_distractor_trianglediamonds.svg	37	no	0	1	2000	0	0			0	0			1				0	
6.6.1	win	2023-07-07	15:44:35	15:53:52	551618	5e456129f5b428000b5b0f81	4	1	main_slash	11	advance_on_keypress_SLASH	18	stimuli_distractor_diamondtriangles.svg	stimuli_distractor_trianglediamonds.svg	37	no	57	0	262	0	0			0	0			1				0	
6.6.1	win	2023-07-07	15:44:35	15:53:54	553311	5e456129f5b428000b5b0f81	4	1	main_slash	11	main_slash	19	stimuli_target_trianglesquares.svg	stimuli_distractor_trianglediamonds.svg	18	yes	53	1	779	0	0			0	0			1				0	
6.6.1	win	2023-07-07	15:44:35	15:53:54	553311	5e456129f5b428000b5b0f81	4	1	main_slash	11	advance_on_keypress_SLASH	20	stimuli_target_trianglesquares.svg	stimuli_distractor_trianglediamonds.svg	18	yes	57	0	573	0	0			0	0			1				0	
6.6.1	win	2023-07-07	15:44:35	15:53:56	555441	5e456129f5b428000b5b0f81	4	1	main_slash	11	main_slash	21	stimuli_target_rectangletriangles.svg	stimuli_distractor_diamondtriangles.svg	5	yes	53	1	911	0	0			0	0			1				0	
6.6.1	win	2023-07-07	15:44:35	15:53:56	555441	5e456129f5b428000b5b0f81	4	1	main_slash	11	advance_on_keypress_SLASH	22	stimuli_target_rectangletriangles.svg	stimuli_distractor_diamondtriangles.svg	5	yes	57	0	431	0	0			0	0			1				0	
6.6.1	win	2023-07-07	15:44:35	15:53:59	558529	5e456129f5b428000b5b0f81	4	1	main_slash	11	main_slash	23	stimuli_distractor_trianglediamonds.svg	stimuli_distractor_diamondtriangles.svg	36	no	0	1	2000	0	0			0	0			1				0	
6.6.1	win	2023-07-07	15:44:35	15:53:59	558529	5e456129f5b428000b5b0f81	4	1	main_slash	11	advance_on_keypress_SLASH	24	stimuli_distractor_trianglediamonds.svg	stimuli_distractor_diamondtriangles.svg	36	no	57	0	369	0	0			0	0			1				0	
6.6.1	win	2023-07-07	15:44:35	15:54:02	561543	5e456129f5b428000b5b0f81	4	1	main_slash	11	main_slash	25	stimuli_distractor_trianglediamonds.svg	stimuli_distractor_trianglediamonds.svg	34	no	0	1	2000	0	0			0	0			1				0	
6.6.1	win	2023-07-07	15:44:35	15:54:02	561543	5e456129f5b428000b5b0f81	4	1	main_slash	11	advance_on_keypress_SLASH	26	stimuli_distractor_trianglediamonds.svg	stimuli_distractor_trianglediamonds.svg	34	no	57	0	253	0	0			0	0			1				0	
6.6.1	win	2023-07-07	15:44:35	15:54:03	563211	5e456129f5b428000b5b0f81	4	1	main_slash	11	main_slash	27	stimuli_distractor_trianglediamonds.svg	stimuli_target_trianglerectangles.svg	25	yes	53	1	771	0	0			0	0			1				0	
6.6.1	win	2023-07-07	15:44:35	15:54:03	563211	5e456129f5b428000b5b0f81	4	1	main_slash	11	advance_on_keypress_SLASH	28	stimuli_distractor_trianglediamonds.svg	stimuli_target_trianglerectangles.svg	25	yes	57	0	548	0	0			0	0			1				0	
6.6.1	win	2023-07-07	15:44:35	15:54:05	565271	5e456129f5b428000b5b0f81	4	1	main_slash	11	main_slash	29	stimuli_distractor_diamondtriangles.svg	stimuli_target_diamondsquares.svg	32	yes	53	1	866	0	0			0	0			1				0	
6.6.1	win	2023-07-07	15:44:35	15:54:05	565271	5e456129f5b428000b5b0f81	4	1	main_slash	11	advance_on_keypress_SLASH	30	stimuli_distractor_diamondtriangles.svg	stimuli_target_diamondsquares.svg	32	yes	57	0	548	0	0			0	0			1				0	
6.6.1	win	2023-07-07	15:44:35	15:54:08	567550	5e456129f5b428000b5b0f81	4	1	main_slash	11	main_slash	31	stimuli_target_diamondrectangles.svg	stimuli_distractor_trianglediamonds.svg	19	yes	53	1	1081	0	0			0	0			1				0	
6.6.1	win	2023-07-07	15:44:35	15:54:08	567550	5e456129f5b428000b5b0f81	4	1	main_slash	11	advance_on_keypress_SLASH	32	stimuli_target_diamondrectangles.svg	stimuli_distractor_trianglediamonds.svg	19	yes	57	0	394	0	0			0	0			1				0	
6.6.1	win	2023-07-07	15:44:35	15:54:09	569251	5e456129f5b428000b5b0f81	4	1	main_slash	11	main_slash	33	stimuli_target_squaretriangles.svg	stimuli_distractor_trianglediamonds.svg	3	yes	53	1	667	0	0			0	0			1				0	
6.6.1	win	2023-07-07	15:44:35	15:54:09	569251	5e456129f5b428000b5b0f81	4	1	main_slash	11	advance_on_keypress_SLASH	34	stimuli_target_squaretriangles.svg	stimuli_distractor_trianglediamonds.svg	3	yes	57	0	489	0	0			0	0			1				0	
6.6.1	win	2023-07-07	15:44:35	15:54:11	571216	5e456129f5b428000b5b0f81	4	1	main_slash	11	main_slash	35	stimuli_target_squarediamonds.svg	stimuli_distractor_diamondtriangles.svg	8	yes	53	1	834	0	0			0	0			1				0	
6.6.1	win	2023-07-07	15:44:35	15:54:11	571216	5e456129f5b428000b5b0f81	4	1	main_slash	11	advance_on_keypress_SLASH	36	stimuli_target_squarediamonds.svg	stimuli_distractor_diamondtriangles.svg	8	yes	57	0	439	0	0			0	0			1				0	
6.6.1	win	2023-07-07	15:44:35	15:54:13	572928	5e456129f5b428000b5b0f81	4	1	main_slash	11	main_slash	37	stimuli_distractor_trianglediamonds.svg	stimuli_target_diamondsquares.svg	28	yes	53	1	630	0	0			0	0			1				0	
6.6.1	win	2023-07-07	15:44:35	15:54:13	572928	5e456129f5b428000b5b0f81	4	1	main_slash	11	advance_on_keypress_SLASH	38	stimuli_distractor_trianglediamonds.svg	stimuli_target_diamondsquares.svg	28	yes	57	0	469	0	0			0	0			1				0	
6.6.1	win	2023-07-07	15:44:35	15:54:16	576046	5e456129f5b428000b5b0f81	4	1	main_slash	11	main_slash	39	stimuli_distractor_diamondtriangles.svg	stimuli_distractor_diamondtriangles.svg	39	no	0	1	2000	0	0			0	0			1				0	
6.6.1	win	2023-07-07	15:44:35	15:54:16	576046	5e456129f5b428000b5b0f81	4	1	main_slash	11	advance_on_keypress_SLASH	40	stimuli_distractor_diamondtriangles.svg	stimuli_distractor_diamondtriangles.svg	39	no	57	0	318	0	0			0	0			1				0	
6.6.1	win	2023-07-07	15:44:35	15:54:18	577809	5e456129f5b428000b5b0f81	4	1	main_slash	11	main_slash	41	stimuli_distractor_trianglediamonds.svg	stimuli_target_squarediamonds.svg	12	yes	53	1	800	0	0			0	0			1				0	
6.6.1	win	2023-07-07	15:44:35	15:54:18	577809	5e456129f5b428000b5b0f81	4	1	main_slash	11	advance_on_keypress_SLASH	42	stimuli_distractor_trianglediamonds.svg	stimuli_target_squarediamonds.svg	12	yes	57	0	554	0	0			0	0			1				0	
6.6.1	win	2023-07-07	15:44:35	15:54:20	579699	5e456129f5b428000b5b0f81	4	1	main_slash	11	main_slash	43	stimuli_target_rectanglediamonds.svg	stimuli_distractor_diamondtriangles.svg	6	yes	53	1	691	0	0			0	0			1				0	
6.6.1	win	2023-07-07	15:44:35	15:54:20	579699	5e456129f5b428000b5b0f81	4	1	main_slash	11	advance_on_keypress_SLASH	44	stimuli_target_rectanglediamonds.svg	stimuli_distractor_diamondtriangles.svg	6	yes	57	0	452	0	0			0	0			1				0	
6.6.1	win	2023-07-07	15:44:35	15:54:22	581440	5e456129f5b428000b5b0f81	4	1	main_slash	11	main_slash	45	stimuli_target_trianglesquares.svg	stimuli_distractor_diamondtriangles.svg	22	yes	53	1	651	0	0			0	0			1				0	
6.6.1	win	2023-07-07	15:44:35	15:54:22	581440	5e456129f5b428000b5b0f81	4	1	main_slash	11	advance_on_keypress_SLASH	46	stimuli_target_trianglesquares.svg	stimuli_distractor_diamondtriangles.svg	22	yes	57	0	470	0	0			0	0			1				0	
6.6.1	win	2023-07-07	15:44:35	15:54:24	583305	5e456129f5b428000b5b0f81	4	1	main_slash	11	main_slash	47	stimuli_distractor_trianglediamonds.svg	stimuli_target_rectangletriangles.svg	9	yes	53	1	751	0	0			0	0			1				0	
6.6.1	win	2023-07-07	15:44:35	15:54:24	583305	5e456129f5b428000b5b0f81	4	1	main_slash	11	advance_on_keypress_SLASH	48	stimuli_distractor_trianglediamonds.svg	stimuli_target_rectangletriangles.svg	9	yes	57	0	399	0	0			0	0			1				0	
6.6.1	win	2023-07-07	15:44:35	15:54:25	584906	5e456129f5b428000b5b0f81	4	1	main_slash	11	main_slash	49	stimuli_target_diamondsquares.svg	stimuli_distractor_trianglediamonds.svg	20	yes	53	1	554	0	0			0	0			1				0	
6.6.1	win	2023-07-07	15:44:35	15:54:25	584906	5e456129f5b428000b5b0f81	4	1	main_slash	11	advance_on_keypress_SLASH	50	stimuli_target_diamondsquares.svg	stimuli_distractor_trianglediamonds.svg	20	yes	57	0	467	0	0			0	0			1				0	
6.6.1	win	2023-07-07	15:44:35	15:54:27	586757	5e456129f5b428000b5b0f81	4	1	main_slash	11	main_slash	51	stimuli_distractor_diamondtriangles.svg	stimuli_target_rectangletriangles.svg	13	yes	53	1	705	0	0			0	0			1				0	
6.6.1	win	2023-07-07	15:44:35	15:54:27	586757	5e456129f5b428000b5b0f81	4	1	main_slash	11	advance_on_keypress_SLASH	52	stimuli_distractor_diamondtriangles.svg	stimuli_target_rectangletriangles.svg	13	yes	57	0	372	0	0			0	0			1				0	
6.6.1	win	2023-07-07	15:44:35	15:54:29	588422	5e456129f5b428000b5b0f81	4	1	main_slash	11	main_slash	53	stimuli_target_rectanglediamonds.svg	stimuli_distractor_trianglediamonds.svg	2	yes	53	1	640	0	0			0	0			1				0	
6.6.1	win	2023-07-07	15:44:35	15:54:29	588422	5e456129f5b428000b5b0f81	4	1	main_slash	11	advance_on_keypress_SLASH	54	stimuli_target_rectanglediamonds.svg	stimuli_distractor_trianglediamonds.svg	2	yes	57	0	405	0	0			0	0			1				0	
6.6.1	win	2023-07-07	15:44:35	15:54:30	590048	5e456129f5b428000b5b0f81	4	1	main_slash	11	main_slash	55	stimuli_target_trianglerectangles.svg	stimuli_distractor_trianglediamonds.svg	17	yes	53	1	583	0	0			0	0			1				0	
6.6.1	win	2023-07-07	15:44:35	15:54:30	590048	5e456129f5b428000b5b0f81	4	1	main_slash	11	advance_on_keypress_SLASH	56	stimuli_target_trianglerectangles.svg	stimuli_distractor_trianglediamonds.svg	17	yes	57	0	449	0	0			0	0			1				0	
6.6.1	win	2023-07-07	15:44:35	15:54:33	593146	5e456129f5b428000b5b0f81	4	1	main_slash	11	main_slash	57	stimuli_distractor_trianglediamonds.svg	stimuli_target_diamondrectangles.svg	27	yes	0	0	2000	0	0			0	0			1				0	
6.6.1	win	2023-07-07	15:44:35	15:54:33	593146	5e456129f5b428000b5b0f81	4	1	main_slash	11	advance_on_keypress_SLASH	58	stimuli_distractor_trianglediamonds.svg	stimuli_target_diamondrectangles.svg	27	yes	57	0	334	0	0			0	0			1				0	
6.6.1	win	2023-07-07	15:44:35	15:54:35	594861	5e456129f5b428000b5b0f81	4	1	main_slash	11	main_slash	59	stimuli_distractor_diamondtriangles.svg	stimuli_target_rectanglediamonds.svg	14	yes	53	1	734	0	0			0	0			1				0	
6.6.1	win	2023-07-07	15:44:35	15:54:35	594861	5e456129f5b428000b5b0f81	4	1	main_slash	11	advance_on_keypress_SLASH	60	stimuli_distractor_diamondtriangles.svg	stimuli_target_rectanglediamonds.svg	14	yes	57	0	689	0	0			0	0			1				0	
6.6.1	win	2023-07-07	15:44:35	15:54:37	596699	5e456129f5b428000b5b0f81	4	1	main_slash	11	main_slash	61	stimuli_distractor_trianglediamonds.svg	stimuli_target_squaretriangles.svg	11	yes	53	1	505	0	0			0	0			1				0	
6.6.1	win	2023-07-07	15:44:35	15:54:37	596699	5e456129f5b428000b5b0f81	4	1	main_slash	11	advance_on_keypress_SLASH	62	stimuli_distractor_trianglediamonds.svg	stimuli_target_squaretriangles.svg	11	yes	57	0	513	0	0			0	0			1				0	
6.6.1	win	2023-07-07	15:44:35	15:54:39	598352	5e456129f5b428000b5b0f81	4	1	main_slash	11	main_slash	63	stimuli_distractor_trianglediamonds.svg	stimuli_target_trianglesquares.svg	26	yes	53	1	495	0	0			0	0			1				0	
6.6.1	win	2023-07-07	15:44:35	15:54:39	598352	5e456129f5b428000b5b0f81	4	1	main_slash	11	advance_on_keypress_SLASH	64	stimuli_distractor_trianglediamonds.svg	stimuli_target_trianglesquares.svg	26	yes	57	0	487	0	0			0	0			1				0	
6.6.1	win	2023-07-07	15:44:35	15:54:40	600032	5e456129f5b428000b5b0f81	4	1	main_slash	11	main_slash	65	stimuli_distractor_diamondtriangles.svg	stimuli_target_squarediamonds.svg	16	yes	53	1	545	0	0			0	0			1				0	
6.6.1	win	2023-07-07	15:44:35	15:54:40	600032	5e456129f5b428000b5b0f81	4	1	main_slash	11	advance_on_keypress_SLASH	66	stimuli_distractor_diamondtriangles.svg	stimuli_target_squarediamonds.svg	16	yes	57	0	452	0	0			0	0			1				0	
6.6.1	win	2023-07-07	15:44:35	15:54:42	601624	5e456129f5b428000b5b0f81	4	1	main_slash	11	main_slash	67	stimuli_target_rectangletriangles.svg	stimuli_distractor_trianglediamonds.svg	1	yes	53	1	487	0	0			0	0			1				0	
6.6.1	win	2023-07-07	15:44:35	15:54:42	601624	5e456129f5b428000b5b0f81	4	1	main_slash	11	advance_on_keypress_SLASH	68	stimuli_target_rectangletriangles.svg	stimuli_distractor_trianglediamonds.svg	1	yes	57	0	436	0	0			0	0			1				0	
6.6.1	win	2023-07-07	15:44:35	15:54:43	603090	5e456129f5b428000b5b0f81	4	1	main_slash	11	main_slash	69	stimuli_distractor_diamondtriangles.svg	stimuli_target_squaretriangles.svg	15	yes	53	1	388	0	0			0	0			1				0	
6.6.1	win	2023-07-07	15:44:35	15:54:43	603090	5e456129f5b428000b5b0f81	4	1	main_slash	11	advance_on_keypress_SLASH	70	stimuli_distractor_diamondtriangles.svg	stimuli_target_squaretriangles.svg	15	yes	57	0	453	0	0			0	0			1				0	
6.6.1	win	2023-07-07	15:44:35	15:54:45	604626	5e456129f5b428000b5b0f81	4	1	main_slash	11	main_slash	71	stimuli_target_diamondrectangles.svg	stimuli_distractor_diamondtriangles.svg	23	yes	53	1	442	0	0			0	0			1				0	
6.6.1	win	2023-07-07	15:44:35	15:54:45	604626	5e456129f5b428000b5b0f81	4	1	main_slash	11	advance_on_keypress_SLASH	72	stimuli_target_diamondrectangles.svg	stimuli_distractor_diamondtriangles.svg	23	yes	57	0	422	0	0			0	0			1				0	
6.6.1	win	2023-07-07	15:44:35	15:54:46	606152	5e456129f5b428000b5b0f81	4	1	main_slash	11	main_slash	73	stimuli_distractor_trianglediamonds.svg	stimuli_target_rectanglediamonds.svg	10	yes	53	1	469	0	0			0	0			1				0	
6.6.1	win	2023-07-07	15:44:35	15:54:46	606152	5e456129f5b428000b5b0f81	4	1	main_slash	11	advance_on_keypress_SLASH	74	stimuli_distractor_trianglediamonds.svg	stimuli_target_rectanglediamonds.svg	10	yes	57	0	441	0	0			0	0			1				0	
6.6.1	win	2023-07-07	15:44:35	15:54:48	607773	5e456129f5b428000b5b0f81	4	1	main_slash	11	main_slash	75	stimuli_distractor_diamondtriangles.svg	stimuli_distractor_trianglediamonds.svg	38	no	53	0	542	0	0			0	0			1				0	
6.6.1	win	2023-07-07	15:44:35	15:54:48	607773	5e456129f5b428000b5b0f81	4	1	main_slash	11	advance_on_keypress_SLASH	76	stimuli_distractor_diamondtriangles.svg	stimuli_distractor_trianglediamonds.svg	38	no	57	0	482	0	0			0	0			1				0	
6.6.1	win	2023-07-07	15:44:35	15:54:50	609474	5e456129f5b428000b5b0f81	4	1	main_slash	11	main_slash	77	stimuli_target_squarediamonds.svg	stimuli_distractor_trianglediamonds.svg	4	yes	53	1	578	0	0			0	0			1				0	
6.6.1	win	2023-07-07	15:44:35	15:54:50	609474	5e456129f5b428000b5b0f81	4	1	main_slash	11	advance_on_keypress_SLASH	78	stimuli_target_squarediamonds.svg	stimuli_distractor_trianglediamonds.svg	4	yes	57	0	374	0	0			0	0			1				0	
6.6.1	win	2023-07-07	15:44:35	15:54:51	610871	5e456129f5b428000b5b0f81	4	1	main_slash	11	main_slash	79	stimuli_target_squaretriangles.svg	stimuli_distractor_diamondtriangles.svg	7	yes	53	1	376	0	0			0	0			1				0	
6.6.1	win	2023-07-07	15:44:35	15:54:51	610871	5e456129f5b428000b5b0f81	4	1	main_slash	11	advance_on_keypress_SLASH	80	stimuli_target_squaretriangles.svg	stimuli_distractor_diamondtriangles.svg	7	yes	57	0	427	0	0			0	0			1				0	
6.6.1	win	2023-07-07	15:44:35	15:54:53	612371	5e456129f5b428000b5b0f81	4	1	main_slash	11	main_slash	81	stimuli_target_trianglesquares.svg	stimuli_distractor_trianglediamonds.svg	18	yes	53	1	428	0	0			0	0			1				0	
6.6.1	win	2023-07-07	15:44:35	15:54:53	612371	5e456129f5b428000b5b0f81	4	1	main_slash	11	advance_on_keypress_SLASH	82	stimuli_target_trianglesquares.svg	stimuli_distractor_trianglediamonds.svg	18	yes	57	0	403	0	0			0	0			1				0	
6.6.1	win	2023-07-07	15:44:35	15:54:54	613799	5e456129f5b428000b5b0f81	4	1	main_slash	11	main_slash	83	stimuli_distractor_trianglediamonds.svg	stimuli_target_squaretriangles.svg	11	yes	53	1	370	0	0			0	0			1				0	
6.6.1	win	2023-07-07	15:44:35	15:54:54	613799	5e456129f5b428000b5b0f81	4	1	main_slash	11	advance_on_keypress_SLASH	84	stimuli_distractor_trianglediamonds.svg	stimuli_target_squaretriangles.svg	11	yes	57	0	460	0	0			0	0			1				0	
6.6.1	win	2023-07-07	15:44:35	15:54:55	615254	5e456129f5b428000b5b0f81	4	1	main_slash	11	main_slash	85	stimuli_distractor_diamondtriangles.svg	stimuli_target_squarediamonds.svg	16	yes	53	1	364	0	0			0	0			1				0	
6.6.1	win	2023-07-07	15:44:35	15:54:55	615254	5e456129f5b428000b5b0f81	4	1	main_slash	11	advance_on_keypress_SLASH	86	stimuli_distractor_diamondtriangles.svg	stimuli_target_squarediamonds.svg	16	yes	57	0	410	0	0			0	0			1				0	
6.6.1	win	2023-07-07	15:44:35	15:54:57	616671	5e456129f5b428000b5b0f81	4	1	main_slash	11	main_slash	87	stimuli_distractor_diamondtriangles.svg	stimuli_target_rectanglediamonds.svg	14	yes	53	1	365	0	0			0	0			1				0	
6.6.1	win	2023-07-07	15:44:35	15:54:57	616671	5e456129f5b428000b5b0f81	4	1	main_slash	11	advance_on_keypress_SLASH	88	stimuli_distractor_diamondtriangles.svg	stimuli_target_rectanglediamonds.svg	14	yes	57	0	591	0	0			0	0			1				0	
6.6.1	win	2023-07-07	15:44:35	15:54:59	618412	5e456129f5b428000b5b0f81	4	1	main_slash	11	main_slash	89	stimuli_target_trianglerectangles.svg	stimuli_distractor_diamondtriangles.svg	21	yes	53	1	507	0	0			0	0			1				0	
6.6.1	win	2023-07-07	15:44:35	15:54:59	618412	5e456129f5b428000b5b0f81	4	1	main_slash	11	advance_on_keypress_SLASH	90	stimuli_target_trianglerectangles.svg	stimuli_distractor_diamondtriangles.svg	21	yes	57	0	684	0	0			0	0			1				0	
6.6.1	win	2023-07-07	15:44:35	15:55:00	620142	5e456129f5b428000b5b0f81	4	1	main_slash	11	main_slash	91	stimuli_target_rectanglediamonds.svg	stimuli_distractor_diamondtriangles.svg	6	yes	53	1	406	0	0			0	0			1				0	
6.6.1	win	2023-07-07	15:44:35	15:55:00	620142	5e456129f5b428000b5b0f81	4	1	main_slash	11	advance_on_keypress_SLASH	92	stimuli_target_rectanglediamonds.svg	stimuli_distractor_diamondtriangles.svg	6	yes	57	0	439	0	0			0	0			1				0	
6.6.1	win	2023-07-07	15:44:35	15:55:02	621628	5e456129f5b428000b5b0f81	4	1	main_slash	11	main_slash	93	stimuli_target_squaretriangles.svg	stimuli_distractor_trianglediamonds.svg	3	yes	53	1	410	0	0			0	0			1				0	
6.6.1	win	2023-07-07	15:44:35	15:55:02	621628	5e456129f5b428000b5b0f81	4	1	main_slash	11	advance_on_keypress_SLASH	94	stimuli_target_squaretriangles.svg	stimuli_distractor_trianglediamonds.svg	3	yes	57	0	423	0	0			0	0			1				0	
6.6.1	win	2023-07-07	15:44:35	15:55:03	623201	5e456129f5b428000b5b0f81	4	1	main_slash	11	main_slash	95	stimuli_distractor_trianglediamonds.svg	stimuli_distractor_diamondtriangles.svg	35	no	53	0	516	0	0			0	0			1				0	
6.6.1	win	2023-07-07	15:44:35	15:55:03	623201	5e456129f5b428000b5b0f81	4	1	main_slash	11	advance_on_keypress_SLASH	96	stimuli_distractor_trianglediamonds.svg	stimuli_distractor_diamondtriangles.svg	35	no	57	0	433	0	0			0	0			1				0	
6.6.1	win	2023-07-07	15:44:35	15:55:06	626282	5e456129f5b428000b5b0f81	4	1	main_slash	11	main_slash	97	stimuli_distractor_trianglediamonds.svg	stimuli_distractor_trianglediamonds.svg	34	no	0	1	2000	0	0			0	0			1				0	
6.6.1	win	2023-07-07	15:44:35	15:55:06	626282	5e456129f5b428000b5b0f81	4	1	main_slash	11	advance_on_keypress_SLASH	98	stimuli_distractor_trianglediamonds.svg	stimuli_distractor_trianglediamonds.svg	34	no	57	0	290	0	0			0	0			1				0	
6.6.1	win	2023-07-07	15:44:35	15:55:08	627738	5e456129f5b428000b5b0f81	4	1	main_slash	11	main_slash	99	stimuli_distractor_diamondtriangles.svg	stimuli_target_diamondsquares.svg	32	yes	53	1	526	0	0			0	0			1				0	
6.6.1	win	2023-07-07	15:44:35	15:55:08	627738	5e456129f5b428000b5b0f81	4	1	main_slash	11	advance_on_keypress_SLASH	100	stimuli_distractor_diamondtriangles.svg	stimuli_target_diamondsquares.svg	32	yes	57	0	516	0	0			0	0			1				0	
6.6.1	win	2023-07-07	15:44:35	15:55:10	629533	5e456129f5b428000b5b0f81	4	1	main_slash	11	main_slash	101	stimuli_distractor_diamondtriangles.svg	stimuli_target_rectangletriangles.svg	13	yes	53	1	639	0	0			0	0			1				0	
6.6.1	win	2023-07-07	15:44:35	15:55:10	629533	5e456129f5b428000b5b0f81	4	1	main_slash	11	advance_on_keypress_SLASH	102	stimuli_distractor_diamondtriangles.svg	stimuli_target_rectangletriangles.svg	13	yes	57	0	389	0	0			0	0			1				0	
6.6.1	win	2023-07-07	15:44:35	15:55:11	631149	5e456129f5b428000b5b0f81	4	1	main_slash	11	main_slash	103	stimuli_distractor_trianglediamonds.svg	stimuli_target_trianglerectangles.svg	25	yes	53	1	590	0	0			0	0			1				0	
6.6.1	win	2023-07-07	15:44:35	15:55:11	631149	5e456129f5b428000b5b0f81	4	1	main_slash	11	advance_on_keypress_SLASH	104	stimuli_distractor_trianglediamonds.svg	stimuli_target_trianglerectangles.svg	25	yes	57	0	380	0	0			0	0			1				0	
6.6.1	win	2023-07-07	15:44:35	15:55:13	632760	5e456129f5b428000b5b0f81	4	1	main_slash	11	main_slash	105	stimuli_target_trianglerectangles.svg	stimuli_distractor_trianglediamonds.svg	17	yes	53	1	585	0	0			0	0			1				0	
6.6.1	win	2023-07-07	15:44:35	15:55:13	632760	5e456129f5b428000b5b0f81	4	1	main_slash	11	advance_on_keypress_SLASH	106	stimuli_target_trianglerectangles.svg	stimuli_distractor_trianglediamonds.svg	17	yes	57	0	506	0	0			0	0			1				0	
6.6.1	win	2023-07-07	15:44:35	15:55:16	635403	5e456129f5b428000b5b0f81	4	1	main_slash	11	main_slash	107	stimuli_distractor_trianglediamonds.svg	stimuli_target_diamondrectangles.svg	27	yes	53	1	1497	0	0			0	0			1				0	
6.6.1	win	2023-07-07	15:44:35	15:55:16	635403	5e456129f5b428000b5b0f81	4	1	main_slash	11	advance_on_keypress_SLASH	108	stimuli_distractor_trianglediamonds.svg	stimuli_target_diamondrectangles.svg	27	yes	57	0	457	0	0			0	0			1				0	
6.6.1	win	2023-07-07	15:44:35	15:55:17	637119	5e456129f5b428000b5b0f81	4	1	main_slash	11	main_slash	109	stimuli_distractor_diamondtriangles.svg	stimuli_target_diamondrectangles.svg	31	yes	53	1	615	0	0			0	0			1				0	
6.6.1	win	2023-07-07	15:44:35	15:55:17	637119	5e456129f5b428000b5b0f81	4	1	main_slash	11	advance_on_keypress_SLASH	110	stimuli_distractor_diamondtriangles.svg	stimuli_target_diamondrectangles.svg	31	yes	57	0	372	0	0			0	0			1				0	
6.6.1	win	2023-07-07	15:44:35	15:55:20	640136	5e456129f5b428000b5b0f81	4	1	main_slash	11	main_slash	111	stimuli_distractor_diamondtriangles.svg	stimuli_distractor_diamondtriangles.svg	39	no	0	1	2000	0	0			0	0			1				0	
6.6.1	win	2023-07-07	15:44:35	15:55:20	640136	5e456129f5b428000b5b0f81	4	1	main_slash	11	advance_on_keypress_SLASH	112	stimuli_distractor_diamondtriangles.svg	stimuli_distractor_diamondtriangles.svg	39	no	57	0	305	0	0			0	0			1				0	
6.6.1	win	2023-07-07	15:44:35	15:55:22	641668	5e456129f5b428000b5b0f81	4	1	main_slash	11	main_slash	113	stimuli_target_rectangletriangles.svg	stimuli_distractor_trianglediamonds.svg	1	yes	53	1	585	0	0			0	0			1				0	
6.6.1	win	2023-07-07	15:44:35	15:55:22	641668	5e456129f5b428000b5b0f81	4	1	main_slash	11	advance_on_keypress_SLASH	114	stimuli_target_rectangletriangles.svg	stimuli_distractor_trianglediamonds.svg	1	yes	57	0	379	0	0			0	0			1				0	
6.6.1	win	2023-07-07	15:44:35	15:55:23	643248	5e456129f5b428000b5b0f81	4	1	main_slash	11	main_slash	115	stimuli_distractor_trianglediamonds.svg	stimuli_target_diamondsquares.svg	28	yes	53	1	550	0	0			0	0			1				0	
6.6.1	win	2023-07-07	15:44:35	15:55:23	643248	5e456129f5b428000b5b0f81	4	1	main_slash	11	advance_on_keypress_SLASH	116	stimuli_distractor_trianglediamonds.svg	stimuli_target_diamondsquares.svg	28	yes	57	0	368	0	0			0	0			1				0	
6.6.1	win	2023-07-07	15:44:35	15:55:25	644894	5e456129f5b428000b5b0f81	4	1	main_slash	11	main_slash	117	stimuli_distractor_diamondtriangles.svg	stimuli_distractor_diamondtriangles.svg	40	no	53	0	631	0	0			0	0			1				0	
6.6.1	win	2023-07-07	15:44:35	15:55:25	644894	5e456129f5b428000b5b0f81	4	1	main_slash	11	advance_on_keypress_SLASH	118	stimuli_distractor_diamondtriangles.svg	stimuli_distractor_diamondtriangles.svg	40	no	57	0	446	0	0			0	0			1				0	
6.6.1	win	2023-07-07	15:44:35	15:55:27	646545	5e456129f5b428000b5b0f81	4	1	main_slash	11	main_slash	119	stimuli_target_squaretriangles.svg	stimuli_distractor_diamondtriangles.svg	7	yes	53	1	550	0	0			0	0			1				0	
6.6.1	win	2023-07-07	15:44:35	15:55:27	646545	5e456129f5b428000b5b0f81	4	1	main_slash	11	advance_on_keypress_SLASH	120	stimuli_target_squaretriangles.svg	stimuli_distractor_diamondtriangles.svg	7	yes	57	0	384	0	0			0	0			1				0	
6.6.1	win	2023-07-07	15:44:35	15:55:30	649577	5e456129f5b428000b5b0f81	4	1	main_slash	11	main_slash	121	stimuli_distractor_diamondtriangles.svg	stimuli_distractor_trianglediamonds.svg	38	no	0	1	2000	0	0			0	0			1				0	
6.6.1	win	2023-07-07	15:44:35	15:55:30	649577	5e456129f5b428000b5b0f81	4	1	main_slash	11	advance_on_keypress_SLASH	122	stimuli_distractor_diamondtriangles.svg	stimuli_distractor_trianglediamonds.svg	38	no	57	0	206	0	0			0	0			1				0	
6.6.1	win	2023-07-07	15:44:35	15:55:31	650815	5e456129f5b428000b5b0f81	4	1	main_slash	11	main_slash	123	stimuli_target_rectanglediamonds.svg	stimuli_distractor_trianglediamonds.svg	2	yes	53	1	391	0	0			0	0			1				0	
6.6.1	win	2023-07-07	15:44:35	15:55:31	650815	5e456129f5b428000b5b0f81	4	1	main_slash	11	advance_on_keypress_SLASH	124	stimuli_target_rectanglediamonds.svg	stimuli_distractor_trianglediamonds.svg	2	yes	57	0	395	0	0			0	0			1				0	
6.6.1	win	2023-07-07	15:44:35	15:55:32	652290	5e456129f5b428000b5b0f81	4	1	main_slash	11	main_slash	125	stimuli_target_diamondsquares.svg	stimuli_distractor_trianglediamonds.svg	20	yes	53	1	434	0	0			0	0			1				0	
6.6.1	win	2023-07-07	15:44:35	15:55:32	652290	5e456129f5b428000b5b0f81	4	1	main_slash	11	advance_on_keypress_SLASH	126	stimuli_target_diamondsquares.svg	stimuli_distractor_trianglediamonds.svg	20	yes	57	0	359	0	0			0	0			1				0	
6.6.1	win	2023-07-07	15:44:35	15:55:34	653757	5e456129f5b428000b5b0f81	4	1	main_slash	11	main_slash	127	stimuli_target_rectangletriangles.svg	stimuli_distractor_diamondtriangles.svg	5	yes	53	1	469	0	0			0	0			1				0	
6.6.1	win	2023-07-07	15:44:35	15:55:34	653757	5e456129f5b428000b5b0f81	4	1	main_slash	11	advance_on_keypress_SLASH	128	stimuli_target_rectangletriangles.svg	stimuli_distractor_diamondtriangles.svg	5	yes	57	0	309	0	0			0	0			1				0	
6.6.1	win	2023-07-07	15:44:35	15:55:35	655123	5e456129f5b428000b5b0f81	4	1	main_slash	11	main_slash	129	stimuli_target_squarediamonds.svg	stimuli_distractor_diamondtriangles.svg	8	yes	53	1	420	0	0			0	0			1				0	
6.6.1	win	2023-07-07	15:44:35	15:55:35	655123	5e456129f5b428000b5b0f81	4	1	main_slash	11	advance_on_keypress_SLASH	130	stimuli_target_squarediamonds.svg	stimuli_distractor_diamondtriangles.svg	8	yes	57	0	357	0	0			0	0			1				0	
6.6.1	win	2023-07-07	15:44:35	15:55:37	656505	5e456129f5b428000b5b0f81	4	1	main_slash	11	main_slash	131	stimuli_target_squarediamonds.svg	stimuli_distractor_trianglediamonds.svg	4	yes	53	1	387	0	0			0	0			1				0	
6.6.1	win	2023-07-07	15:44:35	15:55:37	656505	5e456129f5b428000b5b0f81	4	1	main_slash	11	advance_on_keypress_SLASH	132	stimuli_target_squarediamonds.svg	stimuli_distractor_trianglediamonds.svg	4	yes	57	0	396	0	0			0	0			1				0	
6.6.1	win	2023-07-07	15:44:35	15:55:38	657924	5e456129f5b428000b5b0f81	4	1	main_slash	11	main_slash	133	stimuli_target_diamondsquares.svg	stimuli_distractor_diamondtriangles.svg	24	yes	53	1	370	0	0			0	0			1				0	
6.6.1	win	2023-07-07	15:44:35	15:55:38	657924	5e456129f5b428000b5b0f81	4	1	main_slash	11	advance_on_keypress_SLASH	134	stimuli_target_diamondsquares.svg	stimuli_distractor_diamondtriangles.svg	24	yes	57	0	426	0	0			0	0			1				0	
6.6.1	win	2023-07-07	15:44:35	15:55:40	659561	5e456129f5b428000b5b0f81	4	1	main_slash	11	main_slash	135	stimuli_distractor_trianglediamonds.svg	stimuli_distractor_diamondtriangles.svg	36	no	53	0	579	0	0			0	0			1				0	
6.6.1	win	2023-07-07	15:44:35	15:55:40	659561	5e456129f5b428000b5b0f81	4	1	main_slash	11	advance_on_keypress_SLASH	136	stimuli_distractor_trianglediamonds.svg	stimuli_distractor_diamondtriangles.svg	36	no	57	0	429	0	0			0	0			1				0	
6.6.1	win	2023-07-07	15:44:35	15:55:41	661113	5e456129f5b428000b5b0f81	4	1	main_slash	11	main_slash	137	stimuli_distractor_trianglediamonds.svg	stimuli_target_trianglesquares.svg	26	yes	53	1	464	0	0			0	0			1				0	
6.6.1	win	2023-07-07	15:44:35	15:55:41	661113	5e456129f5b428000b5b0f81	4	1	main_slash	11	advance_on_keypress_SLASH	138	stimuli_distractor_trianglediamonds.svg	stimuli_target_trianglesquares.svg	26	yes	57	0	456	0	0			0	0			1				0	
6.6.1	win	2023-07-07	15:44:35	15:55:43	662983	5e456129f5b428000b5b0f81	4	1	main_slash	11	main_slash	139	stimuli_distractor_diamondtriangles.svg	stimuli_target_trianglesquares.svg	30	yes	53	1	770	0	0			0	0			1				0	
6.6.1	win	2023-07-07	15:44:35	15:55:43	662983	5e456129f5b428000b5b0f81	4	1	main_slash	11	advance_on_keypress_SLASH	140	stimuli_distractor_diamondtriangles.svg	stimuli_target_trianglesquares.svg	30	yes	57	0	322	0	0			0	0			1				0	
6.6.1	win	2023-07-07	15:44:35	15:55:45	664389	5e456129f5b428000b5b0f81	4	1	main_slash	11	main_slash	141	stimuli_distractor_trianglediamonds.svg	stimuli_target_rectanglediamonds.svg	10	yes	53	1	444	0	0			0	0			1				0	
6.6.1	win	2023-07-07	15:44:35	15:55:45	664389	5e456129f5b428000b5b0f81	4	1	main_slash	11	advance_on_keypress_SLASH	142	stimuli_distractor_trianglediamonds.svg	stimuli_target_rectanglediamonds.svg	10	yes	57	0	389	0	0			0	0			1				0	
6.6.1	win	2023-07-07	15:44:35	15:55:46	666025	5e456129f5b428000b5b0f81	4	1	main_slash	11	main_slash	143	stimuli_distractor_diamondtriangles.svg	stimuli_target_squaretriangles.svg	15	yes	53	1	598	0	0			0	0			1				0	
6.6.1	win	2023-07-07	15:44:35	15:55:46	666025	5e456129f5b428000b5b0f81	4	1	main_slash	11	advance_on_keypress_SLASH	144	stimuli_distractor_diamondtriangles.svg	stimuli_target_squaretriangles.svg	15	yes	57	0	442	0	0			0	0			1				0	
6.6.1	win	2023-07-07	15:44:35	15:55:48	667895	5e456129f5b428000b5b0f81	4	1	main_slash	11	main_slash	145	stimuli_target_trianglesquares.svg	stimuli_distractor_diamondtriangles.svg	22	yes	53	1	770	0	0			0	0			1				0	
6.6.1	win	2023-07-07	15:44:35	15:55:48	667895	5e456129f5b428000b5b0f81	4	1	main_slash	11	advance_on_keypress_SLASH	146	stimuli_target_trianglesquares.svg	stimuli_distractor_diamondtriangles.svg	22	yes	57	0	377	0	0			0	0			1				0	
6.6.1	win	2023-07-07	15:44:35	15:55:50	669742	5e456129f5b428000b5b0f81	4	1	main_slash	11	main_slash	147	stimuli_distractor_diamondtriangles.svg	stimuli_target_trianglerectangles.svg	29	yes	53	1	818	0	0			0	0			1				0	
6.6.1	win	2023-07-07	15:44:35	15:55:50	669742	5e456129f5b428000b5b0f81	4	1	main_slash	11	advance_on_keypress_SLASH	148	stimuli_distractor_diamondtriangles.svg	stimuli_target_trianglerectangles.svg	29	yes	57	0	429	0	0			0	0			1				0	
6.6.1	win	2023-07-07	15:44:35	15:55:53	672822	5e456129f5b428000b5b0f81	4	1	main_slash	11	main_slash	149	stimuli_distractor_diamondtriangles.svg	stimuli_distractor_trianglediamonds.svg	37	no	0	1	2000	0	0			0	0			1				0	
6.6.1	win	2023-07-07	15:44:35	15:55:53	672822	5e456129f5b428000b5b0f81	4	1	main_slash	11	advance_on_keypress_SLASH	150	stimuli_distractor_diamondtriangles.svg	stimuli_distractor_trianglediamonds.svg	37	no	57	0	410	0	0			0	0			1				0	
6.6.1	win	2023-07-07	15:44:35	15:55:55	674304	5e456129f5b428000b5b0f81	4	1	main_slash	11	main_slash	151	stimuli_distractor_trianglediamonds.svg	stimuli_target_rectangletriangles.svg	9	yes	53	1	419	0	0			0	0			1				0	
6.6.1	win	2023-07-07	15:44:35	15:55:55	674304	5e456129f5b428000b5b0f81	4	1	main_slash	11	advance_on_keypress_SLASH	152	stimuli_distractor_trianglediamonds.svg	stimuli_target_rectangletriangles.svg	9	yes	57	0	355	0	0			0	0			1				0	
6.6.1	win	2023-07-07	15:44:35	15:55:58	677301	5e456129f5b428000b5b0f81	4	1	main_slash	11	main_slash	153	stimuli_target_diamondrectangles.svg	stimuli_distractor_diamondtriangles.svg	23	yes	0	0	2000	0	0			0	0			1				0	
6.6.1	win	2023-07-07	15:44:35	15:55:58	677301	5e456129f5b428000b5b0f81	4	1	main_slash	11	advance_on_keypress_SLASH	154	stimuli_target_diamondrectangles.svg	stimuli_distractor_diamondtriangles.svg	23	yes	57	0	255	0	0			0	0			1				0	
6.6.1	win	2023-07-07	15:44:35	15:56:00	680198	5e456129f5b428000b5b0f81	4	1	main_slash	11	main_slash	155	stimuli_distractor_trianglediamonds.svg	stimuli_distractor_trianglediamonds.svg	33	no	0	1	2000	0	0			0	0			1				0	
6.6.1	win	2023-07-07	15:44:35	15:56:00	680198	5e456129f5b428000b5b0f81	4	1	main_slash	11	advance_on_keypress_SLASH	156	stimuli_distractor_trianglediamonds.svg	stimuli_distractor_trianglediamonds.svg	33	no	57	0	286	0	0			0	0			1				0	
6.6.1	win	2023-07-07	15:44:35	15:56:02	681706	5e456129f5b428000b5b0f81	4	1	main_slash	11	main_slash	157	stimuli_target_diamondrectangles.svg	stimuli_distractor_trianglediamonds.svg	19	yes	53	1	577	0	0			0	0			1				0	
6.6.1	win	2023-07-07	15:44:35	15:56:02	681706	5e456129f5b428000b5b0f81	4	1	main_slash	11	advance_on_keypress_SLASH	158	stimuli_target_diamondrectangles.svg	stimuli_distractor_trianglediamonds.svg	19	yes	57	0	575	0	0			0	0			1				0	
6.6.1	win	2023-07-07	15:44:35	15:56:04	683500	5e456129f5b428000b5b0f81	4	1	main_slash	11	main_slash	159	stimuli_distractor_trianglediamonds.svg	stimuli_target_squarediamonds.svg	12	yes	53	1	557	0	0			0	0			1				0	
6.6.1	win	2023-07-07	15:44:35	15:56:04	683500	5e456129f5b428000b5b0f81	4	1	main_slash	11	advance_on_keypress_SLASH	160	stimuli_distractor_trianglediamonds.svg	stimuli_target_squarediamonds.svg	12	yes	57	0	420	0	0			0	0			1				0	
6.6.1	win	2023-07-07	15:44:35	15:56:04	683500	5e456129f5b428000b5b0f81	4	1	headphonecheck_calibration	14	headphonecheck_calibrationIntro	1	stimuli_distractor_trianglediamonds.svg	stimuli_target_squarediamonds.svg	12	yes	calibrationButton	0	4181	0	0			0	0			1				0	
6.6.1	win	2023-07-07	15:44:35	15:56:04	683500	5e456129f5b428000b5b0f81	4	1	headphonecheck_testphase	15	test_collectResponse	3	stimuli_distractor_trianglediamonds.svg	stimuli_target_squarediamonds.svg	12	yes	second	1	391	1	1	antiphase_hc_iso.wav	2	0	0			1				0	
6.6.1	win	2023-07-07	15:44:35	15:56:04	683500	5e456129f5b428000b5b0f81	4	1	headphonecheck_testphase	15	test_collectResponse	6	stimuli_distractor_trianglediamonds.svg	stimuli_target_squarediamonds.svg	12	yes	third	1	410	2	6	antiphase_hc_ois.wav	3	0	0			1				0	
6.6.1	win	2023-07-07	15:44:35	15:56:04	683500	5e456129f5b428000b5b0f81	4	1	headphonecheck_testphase	15	test_collectResponse	9	stimuli_distractor_trianglediamonds.svg	stimuli_target_squarediamonds.svg	12	yes	second	1	1275	3	5	antiphase_hc_osi.wav	2	0	0			1				0	
6.6.1	win	2023-07-07	15:44:35	15:56:04	683500	5e456129f5b428000b5b0f81	4	1	headphonecheck_testphase	15	test_collectResponse	12	stimuli_distractor_trianglediamonds.svg	stimuli_target_squarediamonds.svg	12	yes	third	1	461	4	2	antiphase_hc_ios.wav	3	0	0			1				0	
6.6.1	win	2023-07-07	15:44:35	15:56:04	683500	5e456129f5b428000b5b0f81	4	1	headphonecheck_testphase	15	test_collectResponse	15	stimuli_distractor_trianglediamonds.svg	stimuli_target_squarediamonds.svg	12	yes	first	1	485	5	4	antiphase_hc_sio.wav	1	0	0			1				0	
6.6.1	win	2023-07-07	15:44:35	15:56:04	683500	5e456129f5b428000b5b0f81	4	1	headphonecheck_testphase	15	test_collectResponse	18	stimuli_distractor_trianglediamonds.svg	stimuli_target_squarediamonds.svg	12	yes	third	0	944	6	3	antiphase_hc_soi.wav	1	0	0			1				0	
6.6.1	win	2023-07-07	15:44:35	15:56:04	683500	5e456129f5b428000b5b0f81	4	1	stereocheck_calibration	17	stereocheck_calibrationIntro	1	stimuli_distractor_trianglediamonds.svg	stimuli_target_squarediamonds.svg	12	yes	stereocheck_calibrationButton	0	3889	6	3	antiphase_hc_soi.wav	1	0	0			1				0	
6.6.1	win	2023-07-07	15:44:35	15:56:04	683500	5e456129f5b428000b5b0f81	4	1	stereocheck_testphase	18	stereocheck_test_collectResponse	3	stimuli_distractor_trianglediamonds.svg	stimuli_target_squarediamonds.svg	12	yes	stereocheck_right	1	713	6	3	antiphase_hc_soi.wav	1	1	5	noise_calib_stim_RIGHT.wav	2	1				0	
6.6.1	win	2023-07-07	15:44:35	15:56:04	683500	5e456129f5b428000b5b0f81	4	1	stereocheck_testphase	18	stereocheck_test_collectResponse	6	stimuli_distractor_trianglediamonds.svg	stimuli_target_squarediamonds.svg	12	yes	stereocheck_right	1	493	6	3	antiphase_hc_soi.wav	1	2	6	noise_calib_stim_RIGHT.wav	2	1				0	
6.6.1	win	2023-07-07	15:44:35	15:56:04	683500	5e456129f5b428000b5b0f81	4	1	stereocheck_testphase	18	stereocheck_test_collectResponse	9	stimuli_distractor_trianglediamonds.svg	stimuli_target_squarediamonds.svg	12	yes	stereocheck_left	1	1083	6	3	antiphase_hc_soi.wav	1	3	1	noise_calib_stim_LEFT.wav	1	1				0	
6.6.1	win	2023-07-07	15:44:35	15:56:04	683500	5e456129f5b428000b5b0f81	4	1	stereocheck_testphase	18	stereocheck_test_collectResponse	12	stimuli_distractor_trianglediamonds.svg	stimuli_target_squarediamonds.svg	12	yes	stereocheck_left	1	531	6	3	antiphase_hc_soi.wav	1	4	2	noise_calib_stim_LEFT.wav	1	1				0	
6.6.1	win	2023-07-07	15:44:35	15:56:04	683500	5e456129f5b428000b5b0f81	4	1	stereocheck_testphase	18	stereocheck_test_collectResponse	15	stimuli_distractor_trianglediamonds.svg	stimuli_target_squarediamonds.svg	12	yes	stereocheck_left	1	501	6	3	antiphase_hc_soi.wav	1	5	3	noise_calib_stim_LEFT.wav	1	1				0	
6.6.1	win	2023-07-07	15:44:35	15:56:04	683500	5e456129f5b428000b5b0f81	4	1	stereocheck_testphase	18	stereocheck_test_collectResponse	18	stimuli_distractor_trianglediamonds.svg	stimuli_target_squarediamonds.svg	12	yes	stereocheck_right	1	606	6	3	antiphase_hc_soi.wav	1	6	4	noise_calib_stim_RIGHT.wav	2	1				0	
6.6.1	win	2023-07-07	15:44:35	15:56:04	683500	5e456129f5b428000b5b0f81	4	1	DL_practice	21	DL_practice	2	stimuli_distractor_trianglediamonds.svg	stimuli_target_squarediamonds.svg	12	yes	ga	1	1478	6	3	antiphase_hc_soi.wav	1	6	4	noise_calib_stim_RIGHT.wav	2	15	blb_dichoticlistening_ga-ga.mp3	ga	ga	0	left
6.6.1	win	2023-07-07	15:44:35	15:56:04	683500	5e456129f5b428000b5b0f81	4	1	DL_practice	21	DL_practice	3	stimuli_distractor_trianglediamonds.svg	stimuli_target_squarediamonds.svg	12	yes	ta	1	1965	6	3	antiphase_hc_soi.wav	1	6	4	noise_calib_stim_RIGHT.wav	2	36	blb_dichoticlistening_ta-ta.mp3	ta	ta	0	left
6.6.1	win	2023-07-07	15:44:35	15:56:04	683500	5e456129f5b428000b5b0f81	4	1	DL_practice	21	DL_practice	4	stimuli_distractor_trianglediamonds.svg	stimuli_target_squarediamonds.svg	12	yes	pa	1	1887	6	3	antiphase_hc_soi.wav	1	6	4	noise_calib_stim_RIGHT.wav	2	23	blb_dichoticlistening_ka-pa.mp3	ka	pa	1	right
6.6.1	win	2023-07-07	15:44:35	15:56:04	683500	5e456129f5b428000b5b0f81	4	1	DL_practice	21	DL_practice	5	stimuli_distractor_trianglediamonds.svg	stimuli_target_squarediamonds.svg	12	yes	da	1	1330	6	3	antiphase_hc_soi.wav	1	6	4	noise_calib_stim_RIGHT.wav	2	7	blb_dichoticlistening_da-ba.mp3	da	ba	1	left
6.6.1	win	2023-07-07	15:44:35	15:56:04	683500	5e456129f5b428000b5b0f81	4	1	DL_practice	21	DL_practice	6	stimuli_distractor_trianglediamonds.svg	stimuli_target_squarediamonds.svg	12	yes	pa	1	1387	6	3	antiphase_hc_soi.wav	1	6	4	noise_calib_stim_RIGHT.wav	2	29	blb_dichoticlistening_pa-pa.mp3	pa	pa	0	left
6.6.1	win	2023-07-07	15:44:35	15:56:04	683500	5e456129f5b428000b5b0f81	4	1	DL_practice	21	DL_practice	7	stimuli_distractor_trianglediamonds.svg	stimuli_target_squarediamonds.svg	12	yes	da	1	1066	6	3	antiphase_hc_soi.wav	1	6	4	noise_calib_stim_RIGHT.wav	2	8	blb_dichoticlistening_da-da.mp3	da	da	0	left
6.6.1	win	2023-07-07	15:44:35	15:56:04	683500	5e456129f5b428000b5b0f81	4	1	DL_practice	21	DL_practice	8	stimuli_distractor_trianglediamonds.svg	stimuli_target_squarediamonds.svg	12	yes	ka	0	1759	6	3	antiphase_hc_soi.wav	1	6	4	noise_calib_stim_RIGHT.wav	2	18	blb_dichoticlistening_ga-ta.mp3	ga	ta	1	other
6.6.1	win	2023-07-07	15:44:35	15:56:04	683500	5e456129f5b428000b5b0f81	4	1	DL_practice	21	DL_practice	9	stimuli_distractor_trianglediamonds.svg	stimuli_target_squarediamonds.svg	12	yes	ka	1	718	6	3	antiphase_hc_soi.wav	1	6	4	noise_calib_stim_RIGHT.wav	2	22	blb_dichoticlistening_ka-ka.mp3	ka	ka	0	left
6.6.1	win	2023-07-07	15:44:35	15:56:04	683500	5e456129f5b428000b5b0f81	4	1	DL_practice	21	DL_practice	10	stimuli_distractor_trianglediamonds.svg	stimuli_target_squarediamonds.svg	12	yes	ba	1	1134	6	3	antiphase_hc_soi.wav	1	6	4	noise_calib_stim_RIGHT.wav	2	1	blb_dichoticlistening_ba-ba.mp3	ba	ba	0	left
6.6.1	win	2023-07-07	15:44:35	15:56:04	683500	5e456129f5b428000b5b0f81	4	1	DL_test	23	DL_test	1	stimuli_distractor_trianglediamonds.svg	stimuli_target_squarediamonds.svg	12	yes	ka	1	997	6	3	antiphase_hc_soi.wav	1	6	4	noise_calib_stim_RIGHT.wav	2	22	blb_dichoticlistening_ka-ka.mp3	ka	ka	0	left
6.6.1	win	2023-07-07	15:44:35	15:56:04	683500	5e456129f5b428000b5b0f81	4	1	DL_test	23	DL_test	2	stimuli_distractor_trianglediamonds.svg	stimuli_target_squarediamonds.svg	12	yes	da	1	1704	6	3	antiphase_hc_soi.wav	1	6	4	noise_calib_stim_RIGHT.wav	2	26	blb_dichoticlistening_pa-da.mp3	pa	da	1	right
6.6.1	win	2023-07-07	15:44:35	15:56:04	683500	5e456129f5b428000b5b0f81	4	1	DL_test	23	DL_test	3	stimuli_distractor_trianglediamonds.svg	stimuli_target_squarediamonds.svg	12	yes	ta	1	2615	6	3	antiphase_hc_soi.wav	1	6	4	noise_calib_stim_RIGHT.wav	2	6	blb_dichoticlistening_ba-ta.mp3	ba	ta	1	right
6.6.1	win	2023-07-07	15:44:35	15:56:04	683500	5e456129f5b428000b5b0f81	4	1	DL_test	23	DL_test	4	stimuli_distractor_trianglediamonds.svg	stimuli_target_squarediamonds.svg	12	yes	ka	1	947	6	3	antiphase_hc_soi.wav	1	6	4	noise_calib_stim_RIGHT.wav	2	4	blb_dichoticlistening_ba-ka.mp3	ba	ka	1	right
6.6.1	win	2023-07-07	15:44:35	15:56:04	683500	5e456129f5b428000b5b0f81	4	1	DL_test	23	DL_test	5	stimuli_distractor_trianglediamonds.svg	stimuli_target_squarediamonds.svg	12	yes	ta	1	1472	6	3	antiphase_hc_soi.wav	1	6	4	noise_calib_stim_RIGHT.wav	2	36	blb_dichoticlistening_ta-ta.mp3	ta	ta	0	left
6.6.1	win	2023-07-07	15:44:35	15:56:04	683500	5e456129f5b428000b5b0f81	4	1	DL_test	23	DL_test	6	stimuli_distractor_trianglediamonds.svg	stimuli_target_squarediamonds.svg	12	yes	ka	0	831	6	3	antiphase_hc_soi.wav	1	6	4	noise_calib_stim_RIGHT.wav	2	18	blb_dichoticlistening_ga-ta.mp3	ga	ta	1	other
6.6.1	win	2023-07-07	15:44:35	15:56:04	683500	5e456129f5b428000b5b0f81	4	1	DL_test	23	DL_test	7	stimuli_distractor_trianglediamonds.svg	stimuli_target_squarediamonds.svg	12	yes	ga	1	980	6	3	antiphase_hc_soi.wav	1	6	4	noise_calib_stim_RIGHT.wav	2	33	blb_dichoticlistening_ta-ga.mp3	ta	ga	1	right
6.6.1	win	2023-07-07	15:44:35	15:56:04	683500	5e456129f5b428000b5b0f81	4	1	DL_test	23	DL_test	8	stimuli_distractor_trianglediamonds.svg	stimuli_target_squarediamonds.svg	12	yes	pa	0	1932	6	3	antiphase_hc_soi.wav	1	6	4	noise_calib_stim_RIGHT.wav	2	10	blb_dichoticlistening_da-ka.mp3	da	ka	1	other
6.6.1	win	2023-07-07	15:44:35	15:56:04	683500	5e456129f5b428000b5b0f81	4	1	DL_test	23	DL_test	9	stimuli_distractor_trianglediamonds.svg	stimuli_target_squarediamonds.svg	12	yes	ka	1	1834	6	3	antiphase_hc_soi.wav	1	6	4	noise_calib_stim_RIGHT.wav	2	20	blb_dichoticlistening_ka-da.mp3	ka	da	1	left
6.6.1	win	2023-07-07	15:44:35	15:56:04	683500	5e456129f5b428000b5b0f81	4	1	DL_test	23	DL_test	10	stimuli_distractor_trianglediamonds.svg	stimuli_target_squarediamonds.svg	12	yes	da	1	1235	6	3	antiphase_hc_soi.wav	1	6	4	noise_calib_stim_RIGHT.wav	2	2	blb_dichoticlistening_ba-da.mp3	ba	da	1	right
6.6.1	win	2023-07-07	15:44:35	15:56:04	683500	5e456129f5b428000b5b0f81	4	1	DL_test	23	DL_test	11	stimuli_distractor_trianglediamonds.svg	stimuli_target_squarediamonds.svg	12	yes	ta	0	2663	6	3	antiphase_hc_soi.wav	1	6	4	noise_calib_stim_RIGHT.wav	2	19	blb_dichoticlistening_ka-ba.mp3	ka	ba	1	other
6.6.1	win	2023-07-07	15:44:35	15:56:04	683500	5e456129f5b428000b5b0f81	4	1	DL_test	23	DL_test	12	stimuli_distractor_trianglediamonds.svg	stimuli_target_squarediamonds.svg	12	yes	ka	1	1305	6	3	antiphase_hc_soi.wav	1	6	4	noise_calib_stim_RIGHT.wav	2	23	blb_dichoticlistening_ka-pa.mp3	ka	pa	1	left
6.6.1	win	2023-07-07	15:44:35	15:56:04	683500	5e456129f5b428000b5b0f81	4	1	DL_test	23	DL_test	13	stimuli_distractor_trianglediamonds.svg	stimuli_target_squarediamonds.svg	12	yes	pa	1	1592	6	3	antiphase_hc_soi.wav	1	6	4	noise_calib_stim_RIGHT.wav	2	11	blb_dichoticlistening_da-pa.mp3	da	pa	1	right
6.6.1	win	2023-07-07	15:44:35	15:56:04	683500	5e456129f5b428000b5b0f81	4	1	DL_test	23	DL_test	14	stimuli_distractor_trianglediamonds.svg	stimuli_target_squarediamonds.svg	12	yes	pa	1	987	6	3	antiphase_hc_soi.wav	1	6	4	noise_calib_stim_RIGHT.wav	2	29	blb_dichoticlistening_pa-pa.mp3	pa	pa	0	left
6.6.1	win	2023-07-07	15:44:35	15:56:04	683500	5e456129f5b428000b5b0f81	4	1	DL_test	23	DL_test	15	stimuli_distractor_trianglediamonds.svg	stimuli_target_squarediamonds.svg	12	yes	ka	1	835	6	3	antiphase_hc_soi.wav	1	6	4	noise_calib_stim_RIGHT.wav	2	28	blb_dichoticlistening_pa-ka.mp3	pa	ka	1	right
6.6.1	win	2023-07-07	15:44:35	15:56:04	683500	5e456129f5b428000b5b0f81	4	1	DL_test	23	DL_test	16	stimuli_distractor_trianglediamonds.svg	stimuli_target_squarediamonds.svg	12	yes	ka	1	644	6	3	antiphase_hc_soi.wav	1	6	4	noise_calib_stim_RIGHT.wav	2	34	blb_dichoticlistening_ta-ka.mp3	ta	ka	1	right
6.6.1	win	2023-07-07	15:44:35	15:56:04	683500	5e456129f5b428000b5b0f81	4	1	DL_test	23	DL_test	17	stimuli_distractor_trianglediamonds.svg	stimuli_target_squarediamonds.svg	12	yes	da	1	1162	6	3	antiphase_hc_soi.wav	1	6	4	noise_calib_stim_RIGHT.wav	2	8	blb_dichoticlistening_da-da.mp3	da	da	0	left
6.6.1	win	2023-07-07	15:44:35	15:56:04	683500	5e456129f5b428000b5b0f81	4	1	DL_test	23	DL_test	18	stimuli_distractor_trianglediamonds.svg	stimuli_target_squarediamonds.svg	12	yes	pa	1	1808	6	3	antiphase_hc_soi.wav	1	6	4	noise_calib_stim_RIGHT.wav	2	5	blb_dichoticlistening_ba-pa.mp3	ba	pa	1	right
6.6.1	win	2023-07-07	15:44:35	15:56:04	683500	5e456129f5b428000b5b0f81	4	1	DL_test	23	DL_test	19	stimuli_distractor_trianglediamonds.svg	stimuli_target_squarediamonds.svg	12	yes	ba	1	1116	6	3	antiphase_hc_soi.wav	1	6	4	noise_calib_stim_RIGHT.wav	2	25	blb_dichoticlistening_pa-ba.mp3	pa	ba	1	right
6.6.1	win	2023-07-07	15:44:35	15:56:04	683500	5e456129f5b428000b5b0f81	4	1	DL_test	23	DL_test	20	stimuli_distractor_trianglediamonds.svg	stimuli_target_squarediamonds.svg	12	yes	ka	1	1071	6	3	antiphase_hc_soi.wav	1	6	4	noise_calib_stim_RIGHT.wav	2	16	blb_dichoticlistening_ga-ka.mp3	ga	ka	1	right
6.6.1	win	2023-07-07	15:44:35	15:56:04	683500	5e456129f5b428000b5b0f81	4	1	DL_test	23	DL_test	21	stimuli_distractor_trianglediamonds.svg	stimuli_target_squarediamonds.svg	12	yes	ga	1	903	6	3	antiphase_hc_soi.wav	1	6	4	noise_calib_stim_RIGHT.wav	2	3	blb_dichoticlistening_ba-ga.mp3	ba	ga	1	right
6.6.1	win	2023-07-07	15:44:35	15:56:04	683500	5e456129f5b428000b5b0f81	4	1	DL_test	23	DL_test	22	stimuli_distractor_trianglediamonds.svg	stimuli_target_squarediamonds.svg	12	yes	ga	1	1453	6	3	antiphase_hc_soi.wav	1	6	4	noise_calib_stim_RIGHT.wav	2	21	blb_dichoticlistening_ka-ga.mp3	ka	ga	1	right
6.6.1	win	2023-07-07	15:44:35	15:56:04	683500	5e456129f5b428000b5b0f81	4	1	DL_test	23	DL_test	23	stimuli_distractor_trianglediamonds.svg	stimuli_target_squarediamonds.svg	12	yes	ga	1	668	6	3	antiphase_hc_soi.wav	1	6	4	noise_calib_stim_RIGHT.wav	2	15	blb_dichoticlistening_ga-ga.mp3	ga	ga	0	left
6.6.1	win	2023-07-07	15:44:35	15:56:04	683500	5e456129f5b428000b5b0f81	4	1	DL_test	23	DL_test	24	stimuli_distractor_trianglediamonds.svg	stimuli_target_squarediamonds.svg	12	yes	ka	0	1186	6	3	antiphase_hc_soi.wav	1	6	4	noise_calib_stim_RIGHT.wav	2	35	blb_dichoticlistening_ta-pa.mp3	ta	pa	1	other
6.6.1	win	2023-07-07	15:44:35	15:56:04	683500	5e456129f5b428000b5b0f81	4	1	DL_test	23	DL_test	25	stimuli_distractor_trianglediamonds.svg	stimuli_target_squarediamonds.svg	12	yes	ba	1	1414	6	3	antiphase_hc_soi.wav	1	6	4	noise_calib_stim_RIGHT.wav	2	1	blb_dichoticlistening_ba-ba.mp3	ba	ba	0	left
6.6.1	win	2023-07-07	15:44:35	15:56:04	683500	5e456129f5b428000b5b0f81	4	1	DL_test	23	DL_test	26	stimuli_distractor_trianglediamonds.svg	stimuli_target_squarediamonds.svg	12	yes	da	0	1257	6	3	antiphase_hc_soi.wav	1	6	4	noise_calib_stim_RIGHT.wav	2	13	blb_dichoticlistening_ga-ba.mp3	ga	ba	1	other
