build	computer.platform	date	time	timestamp	time_elapsed_ms	subject	group	session	blockcode	blocknum	trialcode	trialnum	stimulus_left	stimulus_right	stim_index	target_present	response	correct	latency	headphonecheck_countTestTrials	headphonecheck_index	headphonecheck_testSound	headphonecheck_correctResponse	stereocheck_countTestTrials	stereocheck_index	stereocheck_testSound	stereocheck_correctResponse	DL_index	DL_soundfile	DL_leftSound	DL_rightSound	DL_dualSound	DL_choice
6.6.1	win	2023-07-06	22:22:09	0	0	5ab10212fb22320001bacdfe	1	1	headphonecheck_calibration	4	headphonecheck_calibrationIntro	1			0		calibrationButton	0	3349	0	0			0	0			1				0	
6.6.1	win	2023-07-06	22:22:09	0	0	5ab10212fb22320001bacdfe	1	1	headphonecheck_testphase	5	test_collectResponse	3			0		third	1	525	1	6	antiphase_hc_ois.wav	3	0	0			1				0	
6.6.1	win	2023-07-06	22:22:09	0	0	5ab10212fb22320001bacdfe	1	1	headphonecheck_testphase	5	test_collectResponse	6			0		third	0	366	2	1	antiphase_hc_iso.wav	2	0	0			1				0	
6.6.1	win	2023-07-06	22:22:09	0	0	5ab10212fb22320001bacdfe	1	1	headphonecheck_testphase	5	test_collectResponse	9			0		third	0	252	3	4	antiphase_hc_sio.wav	1	0	0			1				0	
6.6.1	win	2023-07-06	22:22:09	0	0	5ab10212fb22320001bacdfe	1	1	headphonecheck_testphase	5	test_collectResponse	12			0		first	0	266	4	5	antiphase_hc_osi.wav	2	0	0			1				0	
6.6.1	win	2023-07-06	22:22:09	0	0	5ab10212fb22320001bacdfe	1	1	headphonecheck_testphase	5	test_collectResponse	15			0		second	0	250	5	3	antiphase_hc_soi.wav	1	0	0			1				0	
6.6.1	win	2023-07-06	22:22:09	0	0	5ab10212fb22320001bacdfe	1	1	headphonecheck_testphase	5	test_collectResponse	18			0		third	1	247	6	2	antiphase_hc_ios.wav	3	0	0			1				0	
6.6.1	win	2023-07-06	22:22:09	0	0	5ab10212fb22320001bacdfe	1	1	stereocheck_calibration	7	stereocheck_calibrationIntro	1			0		stereocheck_calibrationButton	0	4520	6	2	antiphase_hc_ios.wav	3	0	0			1				0	
6.6.1	win	2023-07-06	22:22:09	0	0	5ab10212fb22320001bacdfe	1	1	stereocheck_testphase	8	stereocheck_test_collectResponse	3			0		stereocheck_left	1	374	6	2	antiphase_hc_ios.wav	3	1	3	noise_calib_stim_LEFT.wav	1	1				0	
6.6.1	win	2023-07-06	22:22:09	0	0	5ab10212fb22320001bacdfe	1	1	stereocheck_testphase	8	stereocheck_test_collectResponse	6			0		stereocheck_right	1	298	6	2	antiphase_hc_ios.wav	3	2	4	noise_calib_stim_RIGHT.wav	2	1				0	
6.6.1	win	2023-07-06	22:22:09	0	0	5ab10212fb22320001bacdfe	1	1	stereocheck_testphase	8	stereocheck_test_collectResponse	9			0		stereocheck_left	1	235	6	2	antiphase_hc_ios.wav	3	3	2	noise_calib_stim_LEFT.wav	1	1				0	
6.6.1	win	2023-07-06	22:22:09	0	0	5ab10212fb22320001bacdfe	1	1	stereocheck_testphase	8	stereocheck_test_collectResponse	12			0		stereocheck_right	1	240	6	2	antiphase_hc_ios.wav	3	4	5	noise_calib_stim_RIGHT.wav	2	1				0	
6.6.1	win	2023-07-06	22:22:09	0	0	5ab10212fb22320001bacdfe	1	1	stereocheck_testphase	8	stereocheck_test_collectResponse	15			0		stereocheck_left	1	222	6	2	antiphase_hc_ios.wav	3	5	1	noise_calib_stim_LEFT.wav	1	1				0	
6.6.1	win	2023-07-06	22:22:09	0	0	5ab10212fb22320001bacdfe	1	1	stereocheck_testphase	8	stereocheck_test_collectResponse	18			0		stereocheck_right	1	271	6	2	antiphase_hc_ios.wav	3	6	6	noise_calib_stim_RIGHT.wav	2	1				0	
6.6.1	win	2023-07-06	22:22:09	0	0	5ab10212fb22320001bacdfe	1	1	DL_practice	11	DL_practice	2			0		pa	1	1059	6	2	antiphase_hc_ios.wav	3	6	6	noise_calib_stim_RIGHT.wav	2	29	blb_dichoticlistening_pa-pa.mp3	pa	pa	0	left
6.6.1	win	2023-07-06	22:22:09	0	0	5ab10212fb22320001bacdfe	1	1	DL_practice	11	DL_practice	3			0		ga	1	1112	6	2	antiphase_hc_ios.wav	3	6	6	noise_calib_stim_RIGHT.wav	2	15	blb_dichoticlistening_ga-ga.mp3	ga	ga	0	left
6.6.1	win	2023-07-06	22:22:09	0	0	5ab10212fb22320001bacdfe	1	1	DL_practice	11	DL_practice	4			0		ba	1	1200	6	2	antiphase_hc_ios.wav	3	6	6	noise_calib_stim_RIGHT.wav	2	1	blb_dichoticlistening_ba-ba.mp3	ba	ba	0	left
6.6.1	win	2023-07-06	22:22:09	0	0	5ab10212fb22320001bacdfe	1	1	DL_practice	11	DL_practice	5			0		ta	1	1461	6	2	antiphase_hc_ios.wav	3	6	6	noise_calib_stim_RIGHT.wav	2	36	blb_dichoticlistening_ta-ta.mp3	ta	ta	0	left
6.6.1	win	2023-07-06	22:22:09	0	0	5ab10212fb22320001bacdfe	1	1	DL_practice	11	DL_practice	6			0		da	1	5385	6	2	antiphase_hc_ios.wav	3	6	6	noise_calib_stim_RIGHT.wav	2	8	blb_dichoticlistening_da-da.mp3	da	da	0	left
6.6.1	win	2023-07-06	22:22:09	0	0	5ab10212fb22320001bacdfe	1	1	DL_practice	11	DL_practice	7			0		ka	1	994	6	2	antiphase_hc_ios.wav	3	6	6	noise_calib_stim_RIGHT.wav	2	23	blb_dichoticlistening_ka-pa.mp3	ka	pa	1	left
6.6.1	win	2023-07-06	22:22:09	0	0	5ab10212fb22320001bacdfe	1	1	DL_practice	11	DL_practice	8			0		ka	0	674	6	2	antiphase_hc_ios.wav	3	6	6	noise_calib_stim_RIGHT.wav	2	18	blb_dichoticlistening_ga-ta.mp3	ga	ta	1	other
6.6.1	win	2023-07-06	22:22:09	0	0	5ab10212fb22320001bacdfe	1	1	DL_practice	11	DL_practice	9			0		ba	1	1755	6	2	antiphase_hc_ios.wav	3	6	6	noise_calib_stim_RIGHT.wav	2	7	blb_dichoticlistening_da-ba.mp3	da	ba	1	right
6.6.1	win	2023-07-06	22:22:09	0	0	5ab10212fb22320001bacdfe	1	1	DL_practice	11	DL_practice	10			0		ka	1	859	6	2	antiphase_hc_ios.wav	3	6	6	noise_calib_stim_RIGHT.wav	2	22	blb_dichoticlistening_ka-ka.mp3	ka	ka	0	left
6.6.1	win	2023-07-06	22:22:09	0	0	5ab10212fb22320001bacdfe	1	1	DL_test	13	DL_test	1			0		ta	1	1244	6	2	antiphase_hc_ios.wav	3	6	6	noise_calib_stim_RIGHT.wav	2	12	blb_dichoticlistening_da-ta.mp3	da	ta	1	right
6.6.1	win	2023-07-06	22:22:09	0	0	5ab10212fb22320001bacdfe	1	1	DL_test	13	DL_test	2			0		pa	1	1260	6	2	antiphase_hc_ios.wav	3	6	6	noise_calib_stim_RIGHT.wav	2	17	blb_dichoticlistening_ga-pa.mp3	ga	pa	1	right
6.6.1	win	2023-07-06	22:22:09	0	0	5ab10212fb22320001bacdfe	1	1	DL_test	13	DL_test	3			0		ta	1	852	6	2	antiphase_hc_ios.wav	3	6	6	noise_calib_stim_RIGHT.wav	2	32	blb_dichoticlistening_ta-da.mp3	ta	da	1	left
6.6.1	win	2023-07-06	22:22:09	0	0	5ab10212fb22320001bacdfe	1	1	DL_test	13	DL_test	4			0		ka	1	799	6	2	antiphase_hc_ios.wav	3	6	6	noise_calib_stim_RIGHT.wav	2	21	blb_dichoticlistening_ka-ga.mp3	ka	ga	1	left
6.6.1	win	2023-07-06	22:22:09	0	0	5ab10212fb22320001bacdfe	1	1	DL_test	13	DL_test	5			0		pa	1	1085	6	2	antiphase_hc_ios.wav	3	6	6	noise_calib_stim_RIGHT.wav	2	28	blb_dichoticlistening_pa-ka.mp3	pa	ka	1	left
6.6.1	win	2023-07-06	22:22:09	0	0	5ab10212fb22320001bacdfe	1	1	DL_test	13	DL_test	6			0		ka	1	1036	6	2	antiphase_hc_ios.wav	3	6	6	noise_calib_stim_RIGHT.wav	2	24	blb_dichoticlistening_ka-ta.mp3	ka	ta	1	left
6.6.1	win	2023-07-06	22:22:09	0	0	5ab10212fb22320001bacdfe	1	1	DL_test	13	DL_test	7			0		ka	0	808	6	2	antiphase_hc_ios.wav	3	6	6	noise_calib_stim_RIGHT.wav	2	35	blb_dichoticlistening_ta-pa.mp3	ta	pa	1	other
6.6.1	win	2023-07-06	22:22:09	0	0	5ab10212fb22320001bacdfe	1	1	DL_test	13	DL_test	8			0		pa	0	878	6	2	antiphase_hc_ios.wav	3	6	6	noise_calib_stim_RIGHT.wav	2	6	blb_dichoticlistening_ba-ta.mp3	ba	ta	1	other
6.6.1	win	2023-07-06	22:22:09	0	0	5ab10212fb22320001bacdfe	1	1	DL_test	13	DL_test	9			0		pa	1	989	6	2	antiphase_hc_ios.wav	3	6	6	noise_calib_stim_RIGHT.wav	2	11	blb_dichoticlistening_da-pa.mp3	da	pa	1	right
6.6.1	win	2023-07-06	22:22:09	0	0	5ab10212fb22320001bacdfe	1	1	DL_test	13	DL_test	10			0		pa	1	1722	6	2	antiphase_hc_ios.wav	3	6	6	noise_calib_stim_RIGHT.wav	2	23	blb_dichoticlistening_ka-pa.mp3	ka	pa	1	right
6.6.1	win	2023-07-06	22:22:09	0	0	5ab10212fb22320001bacdfe	1	1	DL_test	13	DL_test	11			0		da	1	1304	6	2	antiphase_hc_ios.wav	3	6	6	noise_calib_stim_RIGHT.wav	2	2	blb_dichoticlistening_ba-da.mp3	ba	da	1	right
6.6.1	win	2023-07-06	22:22:09	0	0	5ab10212fb22320001bacdfe	1	1	DL_test	13	DL_test	12			0		ta	1	1239	6	2	antiphase_hc_ios.wav	3	6	6	noise_calib_stim_RIGHT.wav	2	33	blb_dichoticlistening_ta-ga.mp3	ta	ga	1	left
6.6.1	win	2023-07-06	22:22:09	0	0	5ab10212fb22320001bacdfe	1	1	DL_test	13	DL_test	13			0		pa	1	852	6	2	antiphase_hc_ios.wav	3	6	6	noise_calib_stim_RIGHT.wav	2	27	blb_dichoticlistening_pa-ga.mp3	pa	ga	1	left
6.6.1	win	2023-07-06	22:22:09	0	0	5ab10212fb22320001bacdfe	1	1	DL_test	13	DL_test	14			0		ta	1	1120	6	2	antiphase_hc_ios.wav	3	6	6	noise_calib_stim_RIGHT.wav	2	36	blb_dichoticlistening_ta-ta.mp3	ta	ta	0	left
6.6.1	win	2023-07-06	22:22:09	0	0	5ab10212fb22320001bacdfe	1	1	DL_test	13	DL_test	15			0		pa	0	1253	6	2	antiphase_hc_ios.wav	3	6	6	noise_calib_stim_RIGHT.wav	2	10	blb_dichoticlistening_da-ka.mp3	da	ka	1	other
6.6.1	win	2023-07-06	22:22:09	0	0	5ab10212fb22320001bacdfe	1	1	DL_test	13	DL_test	16			0		pa	1	540	6	2	antiphase_hc_ios.wav	3	6	6	noise_calib_stim_RIGHT.wav	2	29	blb_dichoticlistening_pa-pa.mp3	pa	pa	0	left
6.6.1	win	2023-07-06	22:22:09	0	0	5ab10212fb22320001bacdfe	1	1	DL_test	13	DL_test	17			0		ka	1	890	6	2	antiphase_hc_ios.wav	3	6	6	noise_calib_stim_RIGHT.wav	2	22	blb_dichoticlistening_ka-ka.mp3	ka	ka	0	left
6.6.1	win	2023-07-06	22:22:09	0	0	5ab10212fb22320001bacdfe	1	1	DL_test	13	DL_test	18			0		da	1	907	6	2	antiphase_hc_ios.wav	3	6	6	noise_calib_stim_RIGHT.wav	2	9	blb_dichoticlistening_da-ga.mp3	da	ga	1	left
6.6.1	win	2023-07-06	22:22:09	0	0	5ab10212fb22320001bacdfe	1	1	DL_test	13	DL_test	19			0		ga	1	611	6	2	antiphase_hc_ios.wav	3	6	6	noise_calib_stim_RIGHT.wav	2	14	blb_dichoticlistening_ga-da.mp3	ga	da	1	left
6.6.1	win	2023-07-06	22:22:09	0	0	5ab10212fb22320001bacdfe	1	1	DL_test	13	DL_test	20			0		ba	1	1249	6	2	antiphase_hc_ios.wav	3	6	6	noise_calib_stim_RIGHT.wav	2	13	blb_dichoticlistening_ga-ba.mp3	ga	ba	1	right
6.6.1	win	2023-07-06	22:22:09	0	0	5ab10212fb22320001bacdfe	1	1	DL_test	13	DL_test	21			0		ka	1	909	6	2	antiphase_hc_ios.wav	3	6	6	noise_calib_stim_RIGHT.wav	2	19	blb_dichoticlistening_ka-ba.mp3	ka	ba	1	left
6.6.1	win	2023-07-06	22:22:09	0	0	5ab10212fb22320001bacdfe	1	1	DL_test	13	DL_test	22			0		ta	1	1232	6	2	antiphase_hc_ios.wav	3	6	6	noise_calib_stim_RIGHT.wav	2	30	blb_dichoticlistening_pa-ta.mp3	pa	ta	1	right
6.6.1	win	2023-07-06	22:22:09	0	0	5ab10212fb22320001bacdfe	1	1	DL_test	13	DL_test	23			0		ka	1	836	6	2	antiphase_hc_ios.wav	3	6	6	noise_calib_stim_RIGHT.wav	2	4	blb_dichoticlistening_ba-ka.mp3	ba	ka	1	right
6.6.1	win	2023-07-06	22:22:09	0	0	5ab10212fb22320001bacdfe	1	1	DL_test	13	DL_test	24			0		ka	1	757	6	2	antiphase_hc_ios.wav	3	6	6	noise_calib_stim_RIGHT.wav	2	16	blb_dichoticlistening_ga-ka.mp3	ga	ka	1	right
6.6.1	win	2023-07-06	22:22:09	0	0	5ab10212fb22320001bacdfe	1	1	DL_test	13	DL_test	25			0		ka	1	543	6	2	antiphase_hc_ios.wav	3	6	6	noise_calib_stim_RIGHT.wav	2	34	blb_dichoticlistening_ta-ka.mp3	ta	ka	1	right
6.6.1	win	2023-07-06	22:22:09	0	0	5ab10212fb22320001bacdfe	1	1	DL_test	13	DL_test	26			0		pa	1	862	6	2	antiphase_hc_ios.wav	3	6	6	noise_calib_stim_RIGHT.wav	2	25	blb_dichoticlistening_pa-ba.mp3	pa	ba	1	left
6.6.1	win	2023-07-06	22:22:09	0	0	5ab10212fb22320001bacdfe	1	1	DL_test	13	DL_test	27			0		da	1	1060	6	2	antiphase_hc_ios.wav	3	6	6	noise_calib_stim_RIGHT.wav	2	8	blb_dichoticlistening_da-da.mp3	da	da	0	left
6.6.1	win	2023-07-06	22:22:09	0	0	5ab10212fb22320001bacdfe	1	1	DL_test	13	DL_test	28			0		ka	1	994	6	2	antiphase_hc_ios.wav	3	6	6	noise_calib_stim_RIGHT.wav	2	20	blb_dichoticlistening_ka-da.mp3	ka	da	1	left
6.6.1	win	2023-07-06	22:22:09	0	0	5ab10212fb22320001bacdfe	1	1	DL_test	13	DL_test	29			0		ba	1	1682	6	2	antiphase_hc_ios.wav	3	6	6	noise_calib_stim_RIGHT.wav	2	7	blb_dichoticlistening_da-ba.mp3	da	ba	1	right
6.6.1	win	2023-07-06	22:22:09	0	0	5ab10212fb22320001bacdfe	1	1	DL_test	13	DL_test	30			0		ta	1	1271	6	2	antiphase_hc_ios.wav	3	6	6	noise_calib_stim_RIGHT.wav	2	31	blb_dichoticlistening_ta-ba.mp3	ta	ba	1	left
6.6.1	win	2023-07-06	22:22:09	0	0	5ab10212fb22320001bacdfe	1	1	DL_test	13	DL_test	31			0		ba	1	1991	6	2	antiphase_hc_ios.wav	3	6	6	noise_calib_stim_RIGHT.wav	2	1	blb_dichoticlistening_ba-ba.mp3	ba	ba	0	left
6.6.1	win	2023-07-06	22:22:09	0	0	5ab10212fb22320001bacdfe	1	1	DL_test	13	DL_test	32			0		ba	1	1151	6	2	antiphase_hc_ios.wav	3	6	6	noise_calib_stim_RIGHT.wav	2	3	blb_dichoticlistening_ba-ga.mp3	ba	ga	1	left
6.6.1	win	2023-07-06	22:22:09	0	0	5ab10212fb22320001bacdfe	1	1	DL_test	13	DL_test	33			0		ka	0	938	6	2	antiphase_hc_ios.wav	3	6	6	noise_calib_stim_RIGHT.wav	2	18	blb_dichoticlistening_ga-ta.mp3	ga	ta	1	other
6.6.1	win	2023-07-06	22:22:09	0	0	5ab10212fb22320001bacdfe	1	1	DL_test	13	DL_test	34			0		ga	1	1050	6	2	antiphase_hc_ios.wav	3	6	6	noise_calib_stim_RIGHT.wav	2	15	blb_dichoticlistening_ga-ga.mp3	ga	ga	0	left
6.6.1	win	2023-07-06	22:22:09	0	0	5ab10212fb22320001bacdfe	1	1	DL_test	13	DL_test	35			0		pa	1	1076	6	2	antiphase_hc_ios.wav	3	6	6	noise_calib_stim_RIGHT.wav	2	5	blb_dichoticlistening_ba-pa.mp3	ba	pa	1	right
6.6.1	win	2023-07-06	22:22:09	0	0	5ab10212fb22320001bacdfe	1	1	DL_test	13	DL_test	36			0		ba	0	2699	6	2	antiphase_hc_ios.wav	3	6	6	noise_calib_stim_RIGHT.wav	2	26	blb_dichoticlistening_pa-da.mp3	pa	da	1	other
6.6.1	win	2023-07-06	22:22:09	0	0	5ab10212fb22320001bacdfe	1	1	DL_test	14	DL_test	1			0		ba	1	1594	6	2	antiphase_hc_ios.wav	3	6	6	noise_calib_stim_RIGHT.wav	2	7	blb_dichoticlistening_da-ba.mp3	da	ba	1	right
6.6.1	win	2023-07-06	22:22:09	0	0	5ab10212fb22320001bacdfe	1	1	DL_test	14	DL_test	2			0		pa	1	1140	6	2	antiphase_hc_ios.wav	3	6	6	noise_calib_stim_RIGHT.wav	2	17	blb_dichoticlistening_ga-pa.mp3	ga	pa	1	right
6.6.1	win	2023-07-06	22:22:09	0	0	5ab10212fb22320001bacdfe	1	1	DL_test	14	DL_test	3			0		ta	1	1295	6	2	antiphase_hc_ios.wav	3	6	6	noise_calib_stim_RIGHT.wav	2	31	blb_dichoticlistening_ta-ba.mp3	ta	ba	1	left
6.6.1	win	2023-07-06	22:22:09	0	0	5ab10212fb22320001bacdfe	1	1	DL_test	14	DL_test	4			0		ba	1	1364	6	2	antiphase_hc_ios.wav	3	6	6	noise_calib_stim_RIGHT.wav	2	3	blb_dichoticlistening_ba-ga.mp3	ba	ga	1	left
6.6.1	win	2023-07-06	22:22:09	0	0	5ab10212fb22320001bacdfe	1	1	DL_test	14	DL_test	5			0		pa	1	1552	6	2	antiphase_hc_ios.wav	3	6	6	noise_calib_stim_RIGHT.wav	2	28	blb_dichoticlistening_pa-ka.mp3	pa	ka	1	left
6.6.1	win	2023-07-06	22:22:09	0	0	5ab10212fb22320001bacdfe	1	1	DL_test	14	DL_test	6			0		ka	1	950	6	2	antiphase_hc_ios.wav	3	6	6	noise_calib_stim_RIGHT.wav	2	16	blb_dichoticlistening_ga-ka.mp3	ga	ka	1	right
6.6.1	win	2023-07-06	22:22:09	0	0	5ab10212fb22320001bacdfe	1	1	DL_test	14	DL_test	7			0		ba	1	953	6	2	antiphase_hc_ios.wav	3	6	6	noise_calib_stim_RIGHT.wav	2	1	blb_dichoticlistening_ba-ba.mp3	ba	ba	0	left
6.6.1	win	2023-07-06	22:22:09	0	0	5ab10212fb22320001bacdfe	1	1	DL_test	14	DL_test	8			0		ka	1	956	6	2	antiphase_hc_ios.wav	3	6	6	noise_calib_stim_RIGHT.wav	2	22	blb_dichoticlistening_ka-ka.mp3	ka	ka	0	left
6.6.1	win	2023-07-06	22:22:09	0	0	5ab10212fb22320001bacdfe	1	1	DL_test	14	DL_test	9			0		ga	1	1129	6	2	antiphase_hc_ios.wav	3	6	6	noise_calib_stim_RIGHT.wav	2	14	blb_dichoticlistening_ga-da.mp3	ga	da	1	left
6.6.1	win	2023-07-06	22:22:09	0	0	5ab10212fb22320001bacdfe	1	1	DL_test	14	DL_test	10			0		pa	1	1075	6	2	antiphase_hc_ios.wav	3	6	6	noise_calib_stim_RIGHT.wav	2	26	blb_dichoticlistening_pa-da.mp3	pa	da	1	left
6.6.1	win	2023-07-06	22:22:09	0	0	5ab10212fb22320001bacdfe	1	1	DL_test	14	DL_test	11			0		ka	1	766	6	2	antiphase_hc_ios.wav	3	6	6	noise_calib_stim_RIGHT.wav	2	21	blb_dichoticlistening_ka-ga.mp3	ka	ga	1	left
6.6.1	win	2023-07-06	22:22:09	0	0	5ab10212fb22320001bacdfe	1	1	DL_test	14	DL_test	12			0		pa	1	724	6	2	antiphase_hc_ios.wav	3	6	6	noise_calib_stim_RIGHT.wav	2	5	blb_dichoticlistening_ba-pa.mp3	ba	pa	1	right
6.6.1	win	2023-07-06	22:22:09	0	0	5ab10212fb22320001bacdfe	1	1	DL_test	14	DL_test	13			0		da	1	2742	6	2	antiphase_hc_ios.wav	3	6	6	noise_calib_stim_RIGHT.wav	2	2	blb_dichoticlistening_ba-da.mp3	ba	da	1	right
6.6.1	win	2023-07-06	22:22:09	0	0	5ab10212fb22320001bacdfe	1	1	DL_test	14	DL_test	14			0		ka	1	924	6	2	antiphase_hc_ios.wav	3	6	6	noise_calib_stim_RIGHT.wav	2	20	blb_dichoticlistening_ka-da.mp3	ka	da	1	left
6.6.1	win	2023-07-06	22:22:09	0	0	5ab10212fb22320001bacdfe	1	1	DL_test	14	DL_test	15			0		ta	1	1348	6	2	antiphase_hc_ios.wav	3	6	6	noise_calib_stim_RIGHT.wav	2	32	blb_dichoticlistening_ta-da.mp3	ta	da	1	left
6.6.1	win	2023-07-06	22:22:09	0	0	5ab10212fb22320001bacdfe	1	1	DL_test	14	DL_test	16			0		ta	1	1295	6	2	antiphase_hc_ios.wav	3	6	6	noise_calib_stim_RIGHT.wav	2	35	blb_dichoticlistening_ta-pa.mp3	ta	pa	1	left
6.6.1	win	2023-07-06	22:22:09	0	0	5ab10212fb22320001bacdfe	1	1	DL_test	14	DL_test	17			0		ta	1	817	6	2	antiphase_hc_ios.wav	3	6	6	noise_calib_stim_RIGHT.wav	2	33	blb_dichoticlistening_ta-ga.mp3	ta	ga	1	left
6.6.1	win	2023-07-06	22:22:09	0	0	5ab10212fb22320001bacdfe	1	1	DL_test	14	DL_test	18			0		da	1	913	6	2	antiphase_hc_ios.wav	3	6	6	noise_calib_stim_RIGHT.wav	2	8	blb_dichoticlistening_da-da.mp3	da	da	0	left
6.6.1	win	2023-07-06	22:22:09	0	0	5ab10212fb22320001bacdfe	1	1	DL_test	14	DL_test	19			0		pa	1	1485	6	2	antiphase_hc_ios.wav	3	6	6	noise_calib_stim_RIGHT.wav	2	11	blb_dichoticlistening_da-pa.mp3	da	pa	1	right
6.6.1	win	2023-07-06	22:22:09	0	0	5ab10212fb22320001bacdfe	1	1	DL_test	14	DL_test	20			0		ka	1	749	6	2	antiphase_hc_ios.wav	3	6	6	noise_calib_stim_RIGHT.wav	2	23	blb_dichoticlistening_ka-pa.mp3	ka	pa	1	left
6.6.1	win	2023-07-06	22:22:09	0	0	5ab10212fb22320001bacdfe	1	1	DL_test	14	DL_test	21			0		pa	1	1387	6	2	antiphase_hc_ios.wav	3	6	6	noise_calib_stim_RIGHT.wav	2	29	blb_dichoticlistening_pa-pa.mp3	pa	pa	0	left
6.6.1	win	2023-07-06	22:22:09	0	0	5ab10212fb22320001bacdfe	1	1	DL_test	14	DL_test	22			0		pa	0	2116	6	2	antiphase_hc_ios.wav	3	6	6	noise_calib_stim_RIGHT.wav	2	12	blb_dichoticlistening_da-ta.mp3	da	ta	1	other
6.6.1	win	2023-07-06	22:22:09	0	0	5ab10212fb22320001bacdfe	1	1	DL_test	14	DL_test	23			0		da	1	1803	6	2	antiphase_hc_ios.wav	3	6	6	noise_calib_stim_RIGHT.wav	2	9	blb_dichoticlistening_da-ga.mp3	da	ga	1	left
6.6.1	win	2023-07-06	22:22:09	0	0	5ab10212fb22320001bacdfe	1	1	DL_test	14	DL_test	24			0		ga	1	758	6	2	antiphase_hc_ios.wav	3	6	6	noise_calib_stim_RIGHT.wav	2	15	blb_dichoticlistening_ga-ga.mp3	ga	ga	0	left
6.6.1	win	2023-07-06	22:22:09	0	0	5ab10212fb22320001bacdfe	1	1	DL_test	14	DL_test	25			0		pa	1	971	6	2	antiphase_hc_ios.wav	3	6	6	noise_calib_stim_RIGHT.wav	2	27	blb_dichoticlistening_pa-ga.mp3	pa	ga	1	left
6.6.1	win	2023-07-06	22:22:09	0	0	5ab10212fb22320001bacdfe	1	1	DL_test	14	DL_test	26			0		ta	1	1146	6	2	antiphase_hc_ios.wav	3	6	6	noise_calib_stim_RIGHT.wav	2	30	blb_dichoticlistening_pa-ta.mp3	pa	ta	1	right
6.6.1	win	2023-07-06	22:22:09	0	0	5ab10212fb22320001bacdfe	1	1	DL_test	14	DL_test	27			0		ka	1	720	6	2	antiphase_hc_ios.wav	3	6	6	noise_calib_stim_RIGHT.wav	2	34	blb_dichoticlistening_ta-ka.mp3	ta	ka	1	right
6.6.1	win	2023-07-06	22:22:09	0	0	5ab10212fb22320001bacdfe	1	1	DL_test	14	DL_test	28			0		ka	1	690	6	2	antiphase_hc_ios.wav	3	6	6	noise_calib_stim_RIGHT.wav	2	24	blb_dichoticlistening_ka-ta.mp3	ka	ta	1	left
6.6.1	win	2023-07-06	22:22:09	0	0	5ab10212fb22320001bacdfe	1	1	DL_test	14	DL_test	29			0		ba	1	967	6	2	antiphase_hc_ios.wav	3	6	6	noise_calib_stim_RIGHT.wav	2	13	blb_dichoticlistening_ga-ba.mp3	ga	ba	1	right
6.6.1	win	2023-07-06	22:22:09	0	0	5ab10212fb22320001bacdfe	1	1	DL_test	14	DL_test	30			0		pa	1	1002	6	2	antiphase_hc_ios.wav	3	6	6	noise_calib_stim_RIGHT.wav	2	25	blb_dichoticlistening_pa-ba.mp3	pa	ba	1	left
6.6.1	win	2023-07-06	22:22:09	0	0	5ab10212fb22320001bacdfe	1	1	DL_test	14	DL_test	31			0		ta	1	1869	6	2	antiphase_hc_ios.wav	3	6	6	noise_calib_stim_RIGHT.wav	2	36	blb_dichoticlistening_ta-ta.mp3	ta	ta	0	left
6.6.1	win	2023-07-06	22:22:09	0	0	5ab10212fb22320001bacdfe	1	1	DL_test	14	DL_test	32			0		ka	1	1703	6	2	antiphase_hc_ios.wav	3	6	6	noise_calib_stim_RIGHT.wav	2	4	blb_dichoticlistening_ba-ka.mp3	ba	ka	1	right
6.6.1	win	2023-07-06	22:22:09	0	0	5ab10212fb22320001bacdfe	1	1	DL_test	14	DL_test	33			0		ka	0	1821	6	2	antiphase_hc_ios.wav	3	6	6	noise_calib_stim_RIGHT.wav	2	18	blb_dichoticlistening_ga-ta.mp3	ga	ta	1	other
6.6.1	win	2023-07-06	22:22:09	0	0	5ab10212fb22320001bacdfe	1	1	DL_test	14	DL_test	34			0		ka	1	525	6	2	antiphase_hc_ios.wav	3	6	6	noise_calib_stim_RIGHT.wav	2	19	blb_dichoticlistening_ka-ba.mp3	ka	ba	1	left
6.6.1	win	2023-07-06	22:22:09	0	0	5ab10212fb22320001bacdfe	1	1	DL_test	14	DL_test	35			0		ta	1	908	6	2	antiphase_hc_ios.wav	3	6	6	noise_calib_stim_RIGHT.wav	2	6	blb_dichoticlistening_ba-ta.mp3	ba	ta	1	right
6.6.1	win	2023-07-06	22:22:09	0	0	5ab10212fb22320001bacdfe	1	1	DL_test	14	DL_test	36			0		pa	0	885	6	2	antiphase_hc_ios.wav	3	6	6	noise_calib_stim_RIGHT.wav	2	10	blb_dichoticlistening_da-ka.mp3	da	ka	1	other
6.6.1	win	2023-07-06	22:22:09	0	0	5ab10212fb22320001bacdfe	1	1	DL_test	15	DL_test	1			0		ga	1	2151	6	2	antiphase_hc_ios.wav	3	6	6	noise_calib_stim_RIGHT.wav	2	14	blb_dichoticlistening_ga-da.mp3	ga	da	1	left
6.6.1	win	2023-07-06	22:22:09	0	0	5ab10212fb22320001bacdfe	1	1	DL_test	15	DL_test	2			0		pa	1	1547	6	2	antiphase_hc_ios.wav	3	6	6	noise_calib_stim_RIGHT.wav	2	11	blb_dichoticlistening_da-pa.mp3	da	pa	1	right
6.6.1	win	2023-07-06	22:22:09	0	0	5ab10212fb22320001bacdfe	1	1	DL_test	15	DL_test	3			0		da	1	1379	6	2	antiphase_hc_ios.wav	3	6	6	noise_calib_stim_RIGHT.wav	2	2	blb_dichoticlistening_ba-da.mp3	ba	da	1	right
6.6.1	win	2023-07-06	22:22:09	0	0	5ab10212fb22320001bacdfe	1	1	DL_test	15	DL_test	4			0		ka	1	669	6	2	antiphase_hc_ios.wav	3	6	6	noise_calib_stim_RIGHT.wav	2	22	blb_dichoticlistening_ka-ka.mp3	ka	ka	0	left
6.6.1	win	2023-07-06	22:22:09	0	0	5ab10212fb22320001bacdfe	1	1	DL_test	15	DL_test	5			0		ka	1	592	6	2	antiphase_hc_ios.wav	3	6	6	noise_calib_stim_RIGHT.wav	2	24	blb_dichoticlistening_ka-ta.mp3	ka	ta	1	left
6.6.1	win	2023-07-06	22:22:09	0	0	5ab10212fb22320001bacdfe	1	1	DL_test	15	DL_test	6			0		da	1	820	6	2	antiphase_hc_ios.wav	3	6	6	noise_calib_stim_RIGHT.wav	2	8	blb_dichoticlistening_da-da.mp3	da	da	0	left
6.6.1	win	2023-07-06	22:22:09	0	0	5ab10212fb22320001bacdfe	1	1	DL_test	15	DL_test	7			0		ga	0	1823	6	2	antiphase_hc_ios.wav	3	6	6	noise_calib_stim_RIGHT.wav	2	28	blb_dichoticlistening_pa-ka.mp3	pa	ka	1	other
6.6.1	win	2023-07-06	22:22:09	0	0	5ab10212fb22320001bacdfe	1	1	DL_test	15	DL_test	8			0		ga	1	781	6	2	antiphase_hc_ios.wav	3	6	6	noise_calib_stim_RIGHT.wav	2	21	blb_dichoticlistening_ka-ga.mp3	ka	ga	1	right
6.6.1	win	2023-07-06	22:22:09	0	0	5ab10212fb22320001bacdfe	1	1	DL_test	15	DL_test	9			0		pa	1	932	6	2	antiphase_hc_ios.wav	3	6	6	noise_calib_stim_RIGHT.wav	2	17	blb_dichoticlistening_ga-pa.mp3	ga	pa	1	right
6.6.1	win	2023-07-06	22:22:09	0	0	5ab10212fb22320001bacdfe	1	1	DL_test	15	DL_test	10			0		ga	1	947	6	2	antiphase_hc_ios.wav	3	6	6	noise_calib_stim_RIGHT.wav	2	9	blb_dichoticlistening_da-ga.mp3	da	ga	1	right
6.6.1	win	2023-07-06	22:22:09	0	0	5ab10212fb22320001bacdfe	1	1	DL_test	15	DL_test	11			0		ba	1	1418	6	2	antiphase_hc_ios.wav	3	6	6	noise_calib_stim_RIGHT.wav	2	13	blb_dichoticlistening_ga-ba.mp3	ga	ba	1	right
6.6.1	win	2023-07-06	22:22:09	0	0	5ab10212fb22320001bacdfe	1	1	DL_test	15	DL_test	12			0		ta	1	1308	6	2	antiphase_hc_ios.wav	3	6	6	noise_calib_stim_RIGHT.wav	2	36	blb_dichoticlistening_ta-ta.mp3	ta	ta	0	left
6.6.1	win	2023-07-06	22:22:09	0	0	5ab10212fb22320001bacdfe	1	1	DL_test	15	DL_test	13			0		ba	1	1976	6	2	antiphase_hc_ios.wav	3	6	6	noise_calib_stim_RIGHT.wav	2	7	blb_dichoticlistening_da-ba.mp3	da	ba	1	right
6.6.1	win	2023-07-06	22:22:09	0	0	5ab10212fb22320001bacdfe	1	1	DL_test	15	DL_test	14			0		ga	1	793	6	2	antiphase_hc_ios.wav	3	6	6	noise_calib_stim_RIGHT.wav	2	15	blb_dichoticlistening_ga-ga.mp3	ga	ga	0	left
6.6.1	win	2023-07-06	22:22:09	0	0	5ab10212fb22320001bacdfe	1	1	DL_test	15	DL_test	15			0		ka	1	1222	6	2	antiphase_hc_ios.wav	3	6	6	noise_calib_stim_RIGHT.wav	2	16	blb_dichoticlistening_ga-ka.mp3	ga	ka	1	right
6.6.1	win	2023-07-06	22:22:09	0	0	5ab10212fb22320001bacdfe	1	1	DL_test	15	DL_test	16			0		pa	1	810	6	2	antiphase_hc_ios.wav	3	6	6	noise_calib_stim_RIGHT.wav	2	26	blb_dichoticlistening_pa-da.mp3	pa	da	1	left
6.6.1	win	2023-07-06	22:22:09	0	0	5ab10212fb22320001bacdfe	1	1	DL_test	15	DL_test	17			0		ba	1	1201	6	2	antiphase_hc_ios.wav	3	6	6	noise_calib_stim_RIGHT.wav	2	3	blb_dichoticlistening_ba-ga.mp3	ba	ga	1	left
6.6.1	win	2023-07-06	22:22:09	0	0	5ab10212fb22320001bacdfe	1	1	DL_test	15	DL_test	18			0		pa	1	1064	6	2	antiphase_hc_ios.wav	3	6	6	noise_calib_stim_RIGHT.wav	2	27	blb_dichoticlistening_pa-ga.mp3	pa	ga	1	left
6.6.1	win	2023-07-06	22:22:09	0	0	5ab10212fb22320001bacdfe	1	1	DL_test	15	DL_test	19			0		ba	1	1362	6	2	antiphase_hc_ios.wav	3	6	6	noise_calib_stim_RIGHT.wav	2	1	blb_dichoticlistening_ba-ba.mp3	ba	ba	0	left
6.6.1	win	2023-07-06	22:22:09	0	0	5ab10212fb22320001bacdfe	1	1	DL_test	15	DL_test	20			0		pa	1	1060	6	2	antiphase_hc_ios.wav	3	6	6	noise_calib_stim_RIGHT.wav	2	25	blb_dichoticlistening_pa-ba.mp3	pa	ba	1	left
6.6.1	win	2023-07-06	22:22:09	0	0	5ab10212fb22320001bacdfe	1	1	DL_test	15	DL_test	21			0		ka	1	922	6	2	antiphase_hc_ios.wav	3	6	6	noise_calib_stim_RIGHT.wav	2	4	blb_dichoticlistening_ba-ka.mp3	ba	ka	1	right
6.6.1	win	2023-07-06	22:22:09	0	0	5ab10212fb22320001bacdfe	1	1	DL_test	15	DL_test	22			0		ka	0	671	6	2	antiphase_hc_ios.wav	3	6	6	noise_calib_stim_RIGHT.wav	2	33	blb_dichoticlistening_ta-ga.mp3	ta	ga	1	other
6.6.1	win	2023-07-06	22:22:09	0	0	5ab10212fb22320001bacdfe	1	1	DL_test	15	DL_test	23			0		ka	1	502	6	2	antiphase_hc_ios.wav	3	6	6	noise_calib_stim_RIGHT.wav	2	20	blb_dichoticlistening_ka-da.mp3	ka	da	1	left
6.6.1	win	2023-07-06	22:22:09	0	0	5ab10212fb22320001bacdfe	1	1	DL_test	15	DL_test	24			0		ta	1	833	6	2	antiphase_hc_ios.wav	3	6	6	noise_calib_stim_RIGHT.wav	2	12	blb_dichoticlistening_da-ta.mp3	da	ta	1	right
6.6.1	win	2023-07-06	22:22:09	0	0	5ab10212fb22320001bacdfe	1	1	DL_test	15	DL_test	25			0		pa	0	939	6	2	antiphase_hc_ios.wav	3	6	6	noise_calib_stim_RIGHT.wav	2	6	blb_dichoticlistening_ba-ta.mp3	ba	ta	1	other
6.6.1	win	2023-07-06	22:22:09	0	0	5ab10212fb22320001bacdfe	1	1	DL_test	15	DL_test	26			0		ka	1	667	6	2	antiphase_hc_ios.wav	3	6	6	noise_calib_stim_RIGHT.wav	2	19	blb_dichoticlistening_ka-ba.mp3	ka	ba	1	left
6.6.1	win	2023-07-06	22:22:09	0	0	5ab10212fb22320001bacdfe	1	1	DL_test	15	DL_test	27			0		ta	1	1668	6	2	antiphase_hc_ios.wav	3	6	6	noise_calib_stim_RIGHT.wav	2	31	blb_dichoticlistening_ta-ba.mp3	ta	ba	1	left
6.6.1	win	2023-07-06	22:22:09	0	0	5ab10212fb22320001bacdfe	1	1	DL_test	15	DL_test	28			0		pa	1	1054	6	2	antiphase_hc_ios.wav	3	6	6	noise_calib_stim_RIGHT.wav	2	30	blb_dichoticlistening_pa-ta.mp3	pa	ta	1	left
6.6.1	win	2023-07-06	22:22:09	0	0	5ab10212fb22320001bacdfe	1	1	DL_test	15	DL_test	29			0		ta	1	1683	6	2	antiphase_hc_ios.wav	3	6	6	noise_calib_stim_RIGHT.wav	2	32	blb_dichoticlistening_ta-da.mp3	ta	da	1	left
6.6.1	win	2023-07-06	22:22:09	0	0	5ab10212fb22320001bacdfe	1	1	DL_test	15	DL_test	30			0		ta	1	909	6	2	antiphase_hc_ios.wav	3	6	6	noise_calib_stim_RIGHT.wav	2	35	blb_dichoticlistening_ta-pa.mp3	ta	pa	1	left
6.6.1	win	2023-07-06	22:22:09	0	0	5ab10212fb22320001bacdfe	1	1	DL_test	15	DL_test	31			0		pa	1	920	6	2	antiphase_hc_ios.wav	3	6	6	noise_calib_stim_RIGHT.wav	2	29	blb_dichoticlistening_pa-pa.mp3	pa	pa	0	left
6.6.1	win	2023-07-06	22:22:09	0	0	5ab10212fb22320001bacdfe	1	1	DL_test	15	DL_test	32			0		ta	0	1882	6	2	antiphase_hc_ios.wav	3	6	6	noise_calib_stim_RIGHT.wav	2	10	blb_dichoticlistening_da-ka.mp3	da	ka	1	other
6.6.1	win	2023-07-06	22:22:09	0	0	5ab10212fb22320001bacdfe	1	1	DL_test	15	DL_test	33			0		ga	0	1011	6	2	antiphase_hc_ios.wav	3	6	6	noise_calib_stim_RIGHT.wav	2	23	blb_dichoticlistening_ka-pa.mp3	ka	pa	1	other
6.6.1	win	2023-07-06	22:22:09	0	0	5ab10212fb22320001bacdfe	1	1	DL_test	15	DL_test	34			0		pa	1	917	6	2	antiphase_hc_ios.wav	3	6	6	noise_calib_stim_RIGHT.wav	2	5	blb_dichoticlistening_ba-pa.mp3	ba	pa	1	right
6.6.1	win	2023-07-06	22:22:09	0	0	5ab10212fb22320001bacdfe	1	1	DL_test	15	DL_test	35			0		pa	0	2329	6	2	antiphase_hc_ios.wav	3	6	6	noise_calib_stim_RIGHT.wav	2	18	blb_dichoticlistening_ga-ta.mp3	ga	ta	1	other
6.6.1	win	2023-07-06	22:22:09	0	0	5ab10212fb22320001bacdfe	1	1	DL_test	15	DL_test	36			0		ka	1	655	6	2	antiphase_hc_ios.wav	3	6	6	noise_calib_stim_RIGHT.wav	2	34	blb_dichoticlistening_ta-ka.mp3	ta	ka	1	right
6.6.1	win	2023-07-06	22:22:09	0	0	5ab10212fb22320001bacdfe	1	1	DL_test	16	DL_test	1			0		pa	0	1770	6	2	antiphase_hc_ios.wav	3	6	6	noise_calib_stim_RIGHT.wav	2	31	blb_dichoticlistening_ta-ba.mp3	ta	ba	1	other
6.6.1	win	2023-07-06	22:22:09	0	0	5ab10212fb22320001bacdfe	1	1	DL_test	16	DL_test	2			0		ta	1	904	6	2	antiphase_hc_ios.wav	3	6	6	noise_calib_stim_RIGHT.wav	2	36	blb_dichoticlistening_ta-ta.mp3	ta	ta	0	left
6.6.1	win	2023-07-06	22:22:09	0	0	5ab10212fb22320001bacdfe	1	1	DL_test	16	DL_test	3			0		pa	0	2851	6	2	antiphase_hc_ios.wav	3	6	6	noise_calib_stim_RIGHT.wav	2	32	blb_dichoticlistening_ta-da.mp3	ta	da	1	other
6.6.1	win	2023-07-06	22:22:09	0	0	5ab10212fb22320001bacdfe	1	1	DL_test	16	DL_test	4			0		pa	0	4118	6	2	antiphase_hc_ios.wav	3	6	6	noise_calib_stim_RIGHT.wav	2	6	blb_dichoticlistening_ba-ta.mp3	ba	ta	1	other
6.6.1	win	2023-07-06	22:22:09	0	0	5ab10212fb22320001bacdfe	1	1	DL_test	16	DL_test	5			0		ka	1	903	6	2	antiphase_hc_ios.wav	3	6	6	noise_calib_stim_RIGHT.wav	2	16	blb_dichoticlistening_ga-ka.mp3	ga	ka	1	right
6.6.1	win	2023-07-06	22:22:09	0	0	5ab10212fb22320001bacdfe	1	1	DL_test	16	DL_test	6			0		ka	1	702	6	2	antiphase_hc_ios.wav	3	6	6	noise_calib_stim_RIGHT.wav	2	19	blb_dichoticlistening_ka-ba.mp3	ka	ba	1	left
6.6.1	win	2023-07-06	22:22:09	0	0	5ab10212fb22320001bacdfe	1	1	DL_test	16	DL_test	7			0		ka	1	652	6	2	antiphase_hc_ios.wav	3	6	6	noise_calib_stim_RIGHT.wav	2	20	blb_dichoticlistening_ka-da.mp3	ka	da	1	left
6.6.1	win	2023-07-06	22:22:09	0	0	5ab10212fb22320001bacdfe	1	1	DL_test	16	DL_test	8			0		ta	1	1036	6	2	antiphase_hc_ios.wav	3	6	6	noise_calib_stim_RIGHT.wav	2	35	blb_dichoticlistening_ta-pa.mp3	ta	pa	1	left
6.6.1	win	2023-07-06	22:22:09	0	0	5ab10212fb22320001bacdfe	1	1	DL_test	16	DL_test	9			0		pa	1	818	6	2	antiphase_hc_ios.wav	3	6	6	noise_calib_stim_RIGHT.wav	2	5	blb_dichoticlistening_ba-pa.mp3	ba	pa	1	right
6.6.1	win	2023-07-06	22:22:09	0	0	5ab10212fb22320001bacdfe	1	1	DL_test	16	DL_test	10			0		da	1	967	6	2	antiphase_hc_ios.wav	3	6	6	noise_calib_stim_RIGHT.wav	2	7	blb_dichoticlistening_da-ba.mp3	da	ba	1	left
6.6.1	win	2023-07-06	22:22:09	0	0	5ab10212fb22320001bacdfe	1	1	DL_test	16	DL_test	11			0		ka	1	839	6	2	antiphase_hc_ios.wav	3	6	6	noise_calib_stim_RIGHT.wav	2	23	blb_dichoticlistening_ka-pa.mp3	ka	pa	1	left
6.6.1	win	2023-07-06	22:22:09	0	0	5ab10212fb22320001bacdfe	1	1	DL_test	16	DL_test	12			0		ga	1	628	6	2	antiphase_hc_ios.wav	3	6	6	noise_calib_stim_RIGHT.wav	2	15	blb_dichoticlistening_ga-ga.mp3	ga	ga	0	left
6.6.1	win	2023-07-06	22:22:09	0	0	5ab10212fb22320001bacdfe	1	1	DL_test	16	DL_test	13			0		ba	1	1471	6	2	antiphase_hc_ios.wav	3	6	6	noise_calib_stim_RIGHT.wav	2	1	blb_dichoticlistening_ba-ba.mp3	ba	ba	0	left
6.6.1	win	2023-07-06	22:22:09	0	0	5ab10212fb22320001bacdfe	1	1	DL_test	16	DL_test	14			0		da	1	418	6	2	antiphase_hc_ios.wav	3	6	6	noise_calib_stim_RIGHT.wav	2	9	blb_dichoticlistening_da-ga.mp3	da	ga	1	left
6.6.1	win	2023-07-06	22:22:09	0	0	5ab10212fb22320001bacdfe	1	1	DL_test	16	DL_test	15			0		ka	1	682	6	2	antiphase_hc_ios.wav	3	6	6	noise_calib_stim_RIGHT.wav	2	4	blb_dichoticlistening_ba-ka.mp3	ba	ka	1	right
6.6.1	win	2023-07-06	22:22:09	0	0	5ab10212fb22320001bacdfe	1	1	DL_test	16	DL_test	16			0		ba	1	1021	6	2	antiphase_hc_ios.wav	3	6	6	noise_calib_stim_RIGHT.wav	2	3	blb_dichoticlistening_ba-ga.mp3	ba	ga	1	left
6.6.1	win	2023-07-06	22:22:09	0	0	5ab10212fb22320001bacdfe	1	1	DL_test	16	DL_test	17			0		ta	0	1089	6	2	antiphase_hc_ios.wav	3	6	6	noise_calib_stim_RIGHT.wav	2	10	blb_dichoticlistening_da-ka.mp3	da	ka	1	other
6.6.1	win	2023-07-06	22:22:09	0	0	5ab10212fb22320001bacdfe	1	1	DL_test	16	DL_test	18			0		ka	1	794	6	2	antiphase_hc_ios.wav	3	6	6	noise_calib_stim_RIGHT.wav	2	21	blb_dichoticlistening_ka-ga.mp3	ka	ga	1	left
6.6.1	win	2023-07-06	22:22:09	0	0	5ab10212fb22320001bacdfe	1	1	DL_test	16	DL_test	19			0		pa	1	1100	6	2	antiphase_hc_ios.wav	3	6	6	noise_calib_stim_RIGHT.wav	2	11	blb_dichoticlistening_da-pa.mp3	da	pa	1	right
6.6.1	win	2023-07-06	22:22:09	0	0	5ab10212fb22320001bacdfe	1	1	DL_test	16	DL_test	20			0		ka	1	1651	6	2	antiphase_hc_ios.wav	3	6	6	noise_calib_stim_RIGHT.wav	2	24	blb_dichoticlistening_ka-ta.mp3	ka	ta	1	left
6.6.1	win	2023-07-06	22:22:09	0	0	5ab10212fb22320001bacdfe	1	1	DL_test	16	DL_test	21			0		pa	1	1259	6	2	antiphase_hc_ios.wav	3	6	6	noise_calib_stim_RIGHT.wav	2	17	blb_dichoticlistening_ga-pa.mp3	ga	pa	1	right
6.6.1	win	2023-07-06	22:22:09	0	0	5ab10212fb22320001bacdfe	1	1	DL_test	16	DL_test	22			0		pa	1	814	6	2	antiphase_hc_ios.wav	3	6	6	noise_calib_stim_RIGHT.wav	2	28	blb_dichoticlistening_pa-ka.mp3	pa	ka	1	left
6.6.1	win	2023-07-06	22:22:09	0	0	5ab10212fb22320001bacdfe	1	1	DL_test	16	DL_test	23			0		ka	0	1418	6	2	antiphase_hc_ios.wav	3	6	6	noise_calib_stim_RIGHT.wav	2	33	blb_dichoticlistening_ta-ga.mp3	ta	ga	1	other
6.6.1	win	2023-07-06	22:22:09	0	0	5ab10212fb22320001bacdfe	1	1	DL_test	16	DL_test	24			0		ta	1	1151	6	2	antiphase_hc_ios.wav	3	6	6	noise_calib_stim_RIGHT.wav	2	12	blb_dichoticlistening_da-ta.mp3	da	ta	1	right
6.6.1	win	2023-07-06	22:22:09	0	0	5ab10212fb22320001bacdfe	1	1	DL_test	16	DL_test	25			0		ba	1	1239	6	2	antiphase_hc_ios.wav	3	6	6	noise_calib_stim_RIGHT.wav	2	13	blb_dichoticlistening_ga-ba.mp3	ga	ba	1	right
6.6.1	win	2023-07-06	22:22:09	0	0	5ab10212fb22320001bacdfe	1	1	DL_test	16	DL_test	26			0		pa	1	1507	6	2	antiphase_hc_ios.wav	3	6	6	noise_calib_stim_RIGHT.wav	2	29	blb_dichoticlistening_pa-pa.mp3	pa	pa	0	left
6.6.1	win	2023-07-06	22:22:09	0	0	5ab10212fb22320001bacdfe	1	1	DL_test	16	DL_test	27			0		da	1	1184	6	2	antiphase_hc_ios.wav	3	6	6	noise_calib_stim_RIGHT.wav	2	8	blb_dichoticlistening_da-da.mp3	da	da	0	left
6.6.1	win	2023-07-06	22:22:09	0	0	5ab10212fb22320001bacdfe	1	1	DL_test	16	DL_test	28			0		pa	1	958	6	2	antiphase_hc_ios.wav	3	6	6	noise_calib_stim_RIGHT.wav	2	26	blb_dichoticlistening_pa-da.mp3	pa	da	1	left
6.6.1	win	2023-07-06	22:22:09	0	0	5ab10212fb22320001bacdfe	1	1	DL_test	16	DL_test	29			0		da	1	875	6	2	antiphase_hc_ios.wav	3	6	6	noise_calib_stim_RIGHT.wav	2	2	blb_dichoticlistening_ba-da.mp3	ba	da	1	right
6.6.1	win	2023-07-06	22:22:09	0	0	5ab10212fb22320001bacdfe	1	1	DL_test	16	DL_test	30			0		ga	1	1181	6	2	antiphase_hc_ios.wav	3	6	6	noise_calib_stim_RIGHT.wav	2	14	blb_dichoticlistening_ga-da.mp3	ga	da	1	left
6.6.1	win	2023-07-06	22:22:09	0	0	5ab10212fb22320001bacdfe	1	1	DL_test	16	DL_test	31			0		ka	0	1438	6	2	antiphase_hc_ios.wav	3	6	6	noise_calib_stim_RIGHT.wav	2	18	blb_dichoticlistening_ga-ta.mp3	ga	ta	1	other
6.6.1	win	2023-07-06	22:22:09	0	0	5ab10212fb22320001bacdfe	1	1	DL_test	16	DL_test	32			0		ka	1	658	6	2	antiphase_hc_ios.wav	3	6	6	noise_calib_stim_RIGHT.wav	2	22	blb_dichoticlistening_ka-ka.mp3	ka	ka	0	left
6.6.1	win	2023-07-06	22:22:09	0	0	5ab10212fb22320001bacdfe	1	1	DL_test	16	DL_test	33			0		ta	1	803	6	2	antiphase_hc_ios.wav	3	6	6	noise_calib_stim_RIGHT.wav	2	30	blb_dichoticlistening_pa-ta.mp3	pa	ta	1	right
6.6.1	win	2023-07-06	22:22:09	0	0	5ab10212fb22320001bacdfe	1	1	DL_test	16	DL_test	34			0		pa	1	803	6	2	antiphase_hc_ios.wav	3	6	6	noise_calib_stim_RIGHT.wav	2	25	blb_dichoticlistening_pa-ba.mp3	pa	ba	1	left
6.6.1	win	2023-07-06	22:22:09	0	0	5ab10212fb22320001bacdfe	1	1	DL_test	16	DL_test	35			0		ka	1	809	6	2	antiphase_hc_ios.wav	3	6	6	noise_calib_stim_RIGHT.wav	2	34	blb_dichoticlistening_ta-ka.mp3	ta	ka	1	right
6.6.1	win	2023-07-06	22:22:09	0	0	5ab10212fb22320001bacdfe	1	1	DL_test	16	DL_test	36			0		pa	1	776	6	2	antiphase_hc_ios.wav	3	6	6	noise_calib_stim_RIGHT.wav	2	27	blb_dichoticlistening_pa-ga.mp3	pa	ga	1	left
6.6.1	win	2023-07-06	22:22:09	22:32:36	621407	5ab10212fb22320001bacdfe	1	1	practice_slash	22	practice_slash	1	stimuli_target_squarediamonds.svg	stimuli_distractor_diamondtriangles.svg	2	yes	53	1	487	6	2	antiphase_hc_ios.wav	3	6	6	noise_calib_stim_RIGHT.wav	2	27	blb_dichoticlistening_pa-ga.mp3	pa	ga	1	left
6.6.1	win	2023-07-06	22:22:09	22:32:36	621407	5ab10212fb22320001bacdfe	1	1	practice_slash	22	advance_on_keypress_SLASH	2	stimuli_target_squarediamonds.svg	stimuli_distractor_diamondtriangles.svg	2	yes	57	0	1303	6	2	antiphase_hc_ios.wav	3	6	6	noise_calib_stim_RIGHT.wav	2	27	blb_dichoticlistening_pa-ga.mp3	pa	ga	1	left
6.6.1	win	2023-07-06	22:22:09	22:32:41	626375	5ab10212fb22320001bacdfe	1	1	practice_slash	22	practice_slash	3	stimuli_target_diamondsquares.svg	stimuli_distractor_trianglediamonds.svg	6	yes	0	0	2000	6	2	antiphase_hc_ios.wav	3	6	6	noise_calib_stim_RIGHT.wav	2	27	blb_dichoticlistening_pa-ga.mp3	pa	ga	1	left
6.6.1	win	2023-07-06	22:22:09	22:32:41	626375	5ab10212fb22320001bacdfe	1	1	practice_slash	22	advance_on_keypress_SLASH	4	stimuli_target_diamondsquares.svg	stimuli_distractor_trianglediamonds.svg	6	yes	57	0	1919	6	2	antiphase_hc_ios.wav	3	6	6	noise_calib_stim_RIGHT.wav	2	27	blb_dichoticlistening_pa-ga.mp3	pa	ga	1	left
6.6.1	win	2023-07-06	22:22:09	22:32:45	630396	5ab10212fb22320001bacdfe	1	1	practice_slash	22	practice_slash	5	stimuli_target_squarediamonds.svg	stimuli_distractor_trianglediamonds.svg	5	yes	53	1	456	6	2	antiphase_hc_ios.wav	3	6	6	noise_calib_stim_RIGHT.wav	2	27	blb_dichoticlistening_pa-ga.mp3	pa	ga	1	left
6.6.1	win	2023-07-06	22:22:09	22:32:45	630396	5ab10212fb22320001bacdfe	1	1	practice_slash	22	advance_on_keypress_SLASH	6	stimuli_target_squarediamonds.svg	stimuli_distractor_trianglediamonds.svg	5	yes	57	0	1950	6	2	antiphase_hc_ios.wav	3	6	6	noise_calib_stim_RIGHT.wav	2	27	blb_dichoticlistening_pa-ga.mp3	pa	ga	1	left
6.6.1	win	2023-07-06	22:22:09	22:32:50	634491	5ab10212fb22320001bacdfe	1	1	practice_slash	22	practice_slash	7	stimuli_distractor_trianglediamonds.svg	stimuli_target_squarediamonds.svg	11	yes	53	1	493	6	2	antiphase_hc_ios.wav	3	6	6	noise_calib_stim_RIGHT.wav	2	27	blb_dichoticlistening_pa-ga.mp3	pa	ga	1	left
6.6.1	win	2023-07-06	22:22:09	22:32:50	634491	5ab10212fb22320001bacdfe	1	1	practice_slash	22	advance_on_keypress_SLASH	8	stimuli_distractor_trianglediamonds.svg	stimuli_target_squarediamonds.svg	11	yes	57	0	1747	6	2	antiphase_hc_ios.wav	3	6	6	noise_calib_stim_RIGHT.wav	2	27	blb_dichoticlistening_pa-ga.mp3	pa	ga	1	left
6.6.1	win	2023-07-06	22:22:09	22:32:53	638440	5ab10212fb22320001bacdfe	1	1	practice_slash	22	practice_slash	9	stimuli_distractor_diamondtriangles.svg	stimuli_target_rectangletriangles.svg	7	yes	53	1	553	6	2	antiphase_hc_ios.wav	3	6	6	noise_calib_stim_RIGHT.wav	2	27	blb_dichoticlistening_pa-ga.mp3	pa	ga	1	left
6.6.1	win	2023-07-06	22:22:09	22:32:53	638440	5ab10212fb22320001bacdfe	1	1	practice_slash	22	advance_on_keypress_SLASH	10	stimuli_distractor_diamondtriangles.svg	stimuli_target_rectangletriangles.svg	7	yes	57	0	1684	6	2	antiphase_hc_ios.wav	3	6	6	noise_calib_stim_RIGHT.wav	2	27	blb_dichoticlistening_pa-ga.mp3	pa	ga	1	left
6.6.1	win	2023-07-06	22:22:09	22:32:59	643772	5ab10212fb22320001bacdfe	1	1	practice_slash	22	practice_slash	11	stimuli_distractor_diamondtriangles.svg	stimuli_distractor_diamondtriangles.svg	13	no	0	1	2000	6	2	antiphase_hc_ios.wav	3	6	6	noise_calib_stim_RIGHT.wav	2	27	blb_dichoticlistening_pa-ga.mp3	pa	ga	1	left
6.6.1	win	2023-07-06	22:22:09	22:32:59	643772	5ab10212fb22320001bacdfe	1	1	practice_slash	22	advance_on_keypress_SLASH	12	stimuli_distractor_diamondtriangles.svg	stimuli_distractor_diamondtriangles.svg	13	no	57	0	681	6	2	antiphase_hc_ios.wav	3	6	6	noise_calib_stim_RIGHT.wav	2	27	blb_dichoticlistening_pa-ga.mp3	pa	ga	1	left
6.6.1	win	2023-07-06	22:22:09	22:33:02	646851	5ab10212fb22320001bacdfe	1	1	practice_slash	22	practice_slash	13	stimuli_distractor_trianglediamonds.svg	stimuli_target_diamondrectangles.svg	12	yes	53	1	749	6	2	antiphase_hc_ios.wav	3	6	6	noise_calib_stim_RIGHT.wav	2	27	blb_dichoticlistening_pa-ga.mp3	pa	ga	1	left
6.6.1	win	2023-07-06	22:22:09	22:33:02	646851	5ab10212fb22320001bacdfe	1	1	practice_slash	22	advance_on_keypress_SLASH	14	stimuli_distractor_trianglediamonds.svg	stimuli_target_diamondrectangles.svg	12	yes	57	0	772	6	2	antiphase_hc_ios.wav	3	6	6	noise_calib_stim_RIGHT.wav	2	27	blb_dichoticlistening_pa-ga.mp3	pa	ga	1	left
6.6.1	win	2023-07-06	22:22:09	22:33:06	651272	5ab10212fb22320001bacdfe	1	1	practice_slash	22	practice_slash	15	stimuli_distractor_trianglediamonds.svg	stimuli_distractor_trianglediamonds.svg	15	no	0	1	2000	6	2	antiphase_hc_ios.wav	3	6	6	noise_calib_stim_RIGHT.wav	2	27	blb_dichoticlistening_pa-ga.mp3	pa	ga	1	left
6.6.1	win	2023-07-06	22:22:09	22:33:06	651272	5ab10212fb22320001bacdfe	1	1	practice_slash	22	advance_on_keypress_SLASH	16	stimuli_distractor_trianglediamonds.svg	stimuli_distractor_trianglediamonds.svg	15	no	57	0	555	6	2	antiphase_hc_ios.wav	3	6	6	noise_calib_stim_RIGHT.wav	2	27	blb_dichoticlistening_pa-ga.mp3	pa	ga	1	left
6.6.1	win	2023-07-06	22:22:09	22:33:11	655476	5ab10212fb22320001bacdfe	1	1	practice_slash	22	practice_slash	17	stimuli_distractor_diamondtriangles.svg	stimuli_distractor_trianglediamonds.svg	14	no	0	1	2000	6	2	antiphase_hc_ios.wav	3	6	6	noise_calib_stim_RIGHT.wav	2	27	blb_dichoticlistening_pa-ga.mp3	pa	ga	1	left
6.6.1	win	2023-07-06	22:22:09	22:33:11	655476	5ab10212fb22320001bacdfe	1	1	practice_slash	22	advance_on_keypress_SLASH	18	stimuli_distractor_diamondtriangles.svg	stimuli_distractor_trianglediamonds.svg	14	no	57	0	630	6	2	antiphase_hc_ios.wav	3	6	6	noise_calib_stim_RIGHT.wav	2	27	blb_dichoticlistening_pa-ga.mp3	pa	ga	1	left
6.6.1	win	2023-07-06	22:22:09	22:33:14	658498	5ab10212fb22320001bacdfe	1	1	practice_slash	22	practice_slash	19	stimuli_distractor_trianglediamonds.svg	stimuli_target_rectanglediamonds.svg	10	yes	53	1	745	6	2	antiphase_hc_ios.wav	3	6	6	noise_calib_stim_RIGHT.wav	2	27	blb_dichoticlistening_pa-ga.mp3	pa	ga	1	left
6.6.1	win	2023-07-06	22:22:09	22:33:14	658498	5ab10212fb22320001bacdfe	1	1	practice_slash	22	advance_on_keypress_SLASH	20	stimuli_distractor_trianglediamonds.svg	stimuli_target_rectanglediamonds.svg	10	yes	57	0	1006	6	2	antiphase_hc_ios.wav	3	6	6	noise_calib_stim_RIGHT.wav	2	27	blb_dichoticlistening_pa-ga.mp3	pa	ga	1	left
6.6.1	win	2023-07-06	22:22:09	22:33:17	661576	5ab10212fb22320001bacdfe	1	1	practice_slash	22	practice_slash	21	stimuli_target_rectanglediamonds.svg	stimuli_distractor_trianglediamonds.svg	4	yes	53	1	418	6	2	antiphase_hc_ios.wav	3	6	6	noise_calib_stim_RIGHT.wav	2	27	blb_dichoticlistening_pa-ga.mp3	pa	ga	1	left
6.6.1	win	2023-07-06	22:22:09	22:33:17	661576	5ab10212fb22320001bacdfe	1	1	practice_slash	22	advance_on_keypress_SLASH	22	stimuli_target_rectanglediamonds.svg	stimuli_distractor_trianglediamonds.svg	4	yes	57	0	435	6	2	antiphase_hc_ios.wav	3	6	6	noise_calib_stim_RIGHT.wav	2	27	blb_dichoticlistening_pa-ga.mp3	pa	ga	1	left
6.6.1	win	2023-07-06	22:22:09	22:33:19	664064	5ab10212fb22320001bacdfe	1	1	practice_slash	22	practice_slash	23	stimuli_target_rectanglediamonds.svg	stimuli_distractor_diamondtriangles.svg	1	yes	53	1	403	6	2	antiphase_hc_ios.wav	3	6	6	noise_calib_stim_RIGHT.wav	2	27	blb_dichoticlistening_pa-ga.mp3	pa	ga	1	left
6.6.1	win	2023-07-06	22:22:09	22:33:19	664064	5ab10212fb22320001bacdfe	1	1	practice_slash	22	advance_on_keypress_SLASH	24	stimuli_target_rectanglediamonds.svg	stimuli_distractor_diamondtriangles.svg	1	yes	57	0	887	6	2	antiphase_hc_ios.wav	3	6	6	noise_calib_stim_RIGHT.wav	2	27	blb_dichoticlistening_pa-ga.mp3	pa	ga	1	left
6.6.1	win	2023-07-06	22:22:09	22:33:22	667087	5ab10212fb22320001bacdfe	1	1	practice_slash	22	practice_slash	25	stimuli_distractor_diamondtriangles.svg	stimuli_target_diamondrectangles.svg	8	yes	53	1	489	6	2	antiphase_hc_ios.wav	3	6	6	noise_calib_stim_RIGHT.wav	2	27	blb_dichoticlistening_pa-ga.mp3	pa	ga	1	left
6.6.1	win	2023-07-06	22:22:09	22:33:22	667087	5ab10212fb22320001bacdfe	1	1	practice_slash	22	advance_on_keypress_SLASH	26	stimuli_distractor_diamondtriangles.svg	stimuli_target_diamondrectangles.svg	8	yes	57	0	374	6	2	antiphase_hc_ios.wav	3	6	6	noise_calib_stim_RIGHT.wav	2	27	blb_dichoticlistening_pa-ga.mp3	pa	ga	1	left
6.6.1	win	2023-07-06	22:22:09	22:33:25	669473	5ab10212fb22320001bacdfe	1	1	practice_slash	22	practice_slash	27	stimuli_distractor_diamondtriangles.svg	stimuli_target_trianglerectangles.svg	9	yes	53	1	364	6	2	antiphase_hc_ios.wav	3	6	6	noise_calib_stim_RIGHT.wav	2	27	blb_dichoticlistening_pa-ga.mp3	pa	ga	1	left
6.6.1	win	2023-07-06	22:22:09	22:33:25	669473	5ab10212fb22320001bacdfe	1	1	practice_slash	22	advance_on_keypress_SLASH	28	stimuli_distractor_diamondtriangles.svg	stimuli_target_trianglerectangles.svg	9	yes	57	0	351	6	2	antiphase_hc_ios.wav	3	6	6	noise_calib_stim_RIGHT.wav	2	27	blb_dichoticlistening_pa-ga.mp3	pa	ga	1	left
6.6.1	win	2023-07-06	22:22:09	22:33:29	673475	5ab10212fb22320001bacdfe	1	1	practice_slash	22	practice_slash	29	stimuli_distractor_trianglediamonds.svg	stimuli_distractor_diamondtriangles.svg	16	no	0	1	2000	6	2	antiphase_hc_ios.wav	3	6	6	noise_calib_stim_RIGHT.wav	2	27	blb_dichoticlistening_pa-ga.mp3	pa	ga	1	left
6.6.1	win	2023-07-06	22:22:09	22:33:29	673475	5ab10212fb22320001bacdfe	1	1	practice_slash	22	advance_on_keypress_SLASH	30	stimuli_distractor_trianglediamonds.svg	stimuli_distractor_diamondtriangles.svg	16	no	57	0	490	6	2	antiphase_hc_ios.wav	3	6	6	noise_calib_stim_RIGHT.wav	2	27	blb_dichoticlistening_pa-ga.mp3	pa	ga	1	left
6.6.1	win	2023-07-06	22:22:09	22:33:31	676012	5ab10212fb22320001bacdfe	1	1	practice_slash	22	practice_slash	31	stimuli_target_diamondsquares.svg	stimuli_distractor_diamondtriangles.svg	3	yes	53	1	400	6	2	antiphase_hc_ios.wav	3	6	6	noise_calib_stim_RIGHT.wav	2	27	blb_dichoticlistening_pa-ga.mp3	pa	ga	1	left
6.6.1	win	2023-07-06	22:22:09	22:33:31	676012	5ab10212fb22320001bacdfe	1	1	practice_slash	22	advance_on_keypress_SLASH	32	stimuli_target_diamondsquares.svg	stimuli_distractor_diamondtriangles.svg	3	yes	57	0	677	6	2	antiphase_hc_ios.wav	3	6	6	noise_calib_stim_RIGHT.wav	2	27	blb_dichoticlistening_pa-ga.mp3	pa	ga	1	left
6.6.1	win	2023-07-06	22:22:09	22:33:39	684025	5ab10212fb22320001bacdfe	1	1	main_slash	24	main_slash	1	stimuli_target_trianglerectangles.svg	stimuli_distractor_trianglediamonds.svg	17	yes	0	0	2000	6	2	antiphase_hc_ios.wav	3	6	6	noise_calib_stim_RIGHT.wav	2	27	blb_dichoticlistening_pa-ga.mp3	pa	ga	1	left
6.6.1	win	2023-07-06	22:22:09	22:33:39	684025	5ab10212fb22320001bacdfe	1	1	main_slash	24	advance_on_keypress_SLASH	2	stimuli_target_trianglerectangles.svg	stimuli_distractor_trianglediamonds.svg	17	yes	57	0	1310	6	2	antiphase_hc_ios.wav	3	6	6	noise_calib_stim_RIGHT.wav	2	27	blb_dichoticlistening_pa-ga.mp3	pa	ga	1	left
6.6.1	win	2023-07-06	22:22:09	22:33:42	686495	5ab10212fb22320001bacdfe	1	1	main_slash	24	main_slash	3	stimuli_target_diamondsquares.svg	stimuli_distractor_diamondtriangles.svg	24	yes	53	1	500	6	2	antiphase_hc_ios.wav	3	6	6	noise_calib_stim_RIGHT.wav	2	27	blb_dichoticlistening_pa-ga.mp3	pa	ga	1	left
6.6.1	win	2023-07-06	22:22:09	22:33:42	686495	5ab10212fb22320001bacdfe	1	1	main_slash	24	advance_on_keypress_SLASH	4	stimuli_target_diamondsquares.svg	stimuli_distractor_diamondtriangles.svg	24	yes	57	0	1811	6	2	antiphase_hc_ios.wav	3	6	6	noise_calib_stim_RIGHT.wav	2	27	blb_dichoticlistening_pa-ga.mp3	pa	ga	1	left
6.6.1	win	2023-07-06	22:22:09	22:33:44	689304	5ab10212fb22320001bacdfe	1	1	main_slash	24	main_slash	5	stimuli_target_rectangletriangles.svg	stimuli_distractor_diamondtriangles.svg	5	yes	53	1	350	6	2	antiphase_hc_ios.wav	3	6	6	noise_calib_stim_RIGHT.wav	2	27	blb_dichoticlistening_pa-ga.mp3	pa	ga	1	left
6.6.1	win	2023-07-06	22:22:09	22:33:44	689304	5ab10212fb22320001bacdfe	1	1	main_slash	24	advance_on_keypress_SLASH	6	stimuli_target_rectangletriangles.svg	stimuli_distractor_diamondtriangles.svg	5	yes	57	0	658	6	2	antiphase_hc_ios.wav	3	6	6	noise_calib_stim_RIGHT.wav	2	27	blb_dichoticlistening_pa-ga.mp3	pa	ga	1	left
6.6.1	win	2023-07-06	22:22:09	22:33:46	691030	5ab10212fb22320001bacdfe	1	1	main_slash	24	main_slash	7	stimuli_target_squarediamonds.svg	stimuli_distractor_diamondtriangles.svg	8	yes	53	1	425	6	2	antiphase_hc_ios.wav	3	6	6	noise_calib_stim_RIGHT.wav	2	27	blb_dichoticlistening_pa-ga.mp3	pa	ga	1	left
6.6.1	win	2023-07-06	22:22:09	22:33:46	691030	5ab10212fb22320001bacdfe	1	1	main_slash	24	advance_on_keypress_SLASH	8	stimuli_target_squarediamonds.svg	stimuli_distractor_diamondtriangles.svg	8	yes	57	0	434	6	2	antiphase_hc_ios.wav	3	6	6	noise_calib_stim_RIGHT.wav	2	27	blb_dichoticlistening_pa-ga.mp3	pa	ga	1	left
6.6.1	win	2023-07-06	22:22:09	22:33:49	694110	5ab10212fb22320001bacdfe	1	1	main_slash	24	main_slash	9	stimuli_distractor_trianglediamonds.svg	stimuli_distractor_trianglediamonds.svg	34	no	0	1	2000	6	2	antiphase_hc_ios.wav	3	6	6	noise_calib_stim_RIGHT.wav	2	27	blb_dichoticlistening_pa-ga.mp3	pa	ga	1	left
6.6.1	win	2023-07-06	22:22:09	22:33:49	694110	5ab10212fb22320001bacdfe	1	1	main_slash	24	advance_on_keypress_SLASH	10	stimuli_distractor_trianglediamonds.svg	stimuli_distractor_trianglediamonds.svg	34	no	57	0	649	6	2	antiphase_hc_ios.wav	3	6	6	noise_calib_stim_RIGHT.wav	2	27	blb_dichoticlistening_pa-ga.mp3	pa	ga	1	left
6.6.1	win	2023-07-06	22:22:09	22:33:51	695743	5ab10212fb22320001bacdfe	1	1	main_slash	24	main_slash	11	stimuli_target_rectanglediamonds.svg	stimuli_distractor_diamondtriangles.svg	6	yes	53	1	349	6	2	antiphase_hc_ios.wav	3	6	6	noise_calib_stim_RIGHT.wav	2	27	blb_dichoticlistening_pa-ga.mp3	pa	ga	1	left
6.6.1	win	2023-07-06	22:22:09	22:33:51	695743	5ab10212fb22320001bacdfe	1	1	main_slash	24	advance_on_keypress_SLASH	12	stimuli_target_rectanglediamonds.svg	stimuli_distractor_diamondtriangles.svg	6	yes	57	0	1701	6	2	antiphase_hc_ios.wav	3	6	6	noise_calib_stim_RIGHT.wav	2	27	blb_dichoticlistening_pa-ga.mp3	pa	ga	1	left
6.6.1	win	2023-07-06	22:22:09	22:33:53	698432	5ab10212fb22320001bacdfe	1	1	main_slash	24	main_slash	13	stimuli_distractor_trianglediamonds.svg	stimuli_target_rectanglediamonds.svg	10	yes	53	1	343	6	2	antiphase_hc_ios.wav	3	6	6	noise_calib_stim_RIGHT.wav	2	27	blb_dichoticlistening_pa-ga.mp3	pa	ga	1	left
6.6.1	win	2023-07-06	22:22:09	22:33:53	698432	5ab10212fb22320001bacdfe	1	1	main_slash	24	advance_on_keypress_SLASH	14	stimuli_distractor_trianglediamonds.svg	stimuli_target_rectanglediamonds.svg	10	yes	57	0	731	6	2	antiphase_hc_ios.wav	3	6	6	noise_calib_stim_RIGHT.wav	2	27	blb_dichoticlistening_pa-ga.mp3	pa	ga	1	left
6.6.1	win	2023-07-06	22:22:09	22:33:55	700115	5ab10212fb22320001bacdfe	1	1	main_slash	24	main_slash	15	stimuli_distractor_trianglediamonds.svg	stimuli_target_squarediamonds.svg	12	yes	53	1	308	6	2	antiphase_hc_ios.wav	3	6	6	noise_calib_stim_RIGHT.wav	2	27	blb_dichoticlistening_pa-ga.mp3	pa	ga	1	left
6.6.1	win	2023-07-06	22:22:09	22:33:55	700115	5ab10212fb22320001bacdfe	1	1	main_slash	24	advance_on_keypress_SLASH	16	stimuli_distractor_trianglediamonds.svg	stimuli_target_squarediamonds.svg	12	yes	57	0	1183	6	2	antiphase_hc_ios.wav	3	6	6	noise_calib_stim_RIGHT.wav	2	27	blb_dichoticlistening_pa-ga.mp3	pa	ga	1	left
6.6.1	win	2023-07-06	22:22:09	22:33:57	702332	5ab10212fb22320001bacdfe	1	1	main_slash	24	main_slash	17	stimuli_target_trianglesquares.svg	stimuli_distractor_diamondtriangles.svg	22	yes	53	1	394	6	2	antiphase_hc_ios.wav	3	6	6	noise_calib_stim_RIGHT.wav	2	27	blb_dichoticlistening_pa-ga.mp3	pa	ga	1	left
6.6.1	win	2023-07-06	22:22:09	22:33:57	702332	5ab10212fb22320001bacdfe	1	1	main_slash	24	advance_on_keypress_SLASH	18	stimuli_target_trianglesquares.svg	stimuli_distractor_diamondtriangles.svg	22	yes	57	0	639	6	2	antiphase_hc_ios.wav	3	6	6	noise_calib_stim_RIGHT.wav	2	27	blb_dichoticlistening_pa-ga.mp3	pa	ga	1	left
6.6.1	win	2023-07-06	22:22:09	22:34:01	705609	5ab10212fb22320001bacdfe	1	1	main_slash	24	main_slash	19	stimuli_distractor_trianglediamonds.svg	stimuli_distractor_diamondtriangles.svg	35	no	0	1	2000	6	2	antiphase_hc_ios.wav	3	6	6	noise_calib_stim_RIGHT.wav	2	27	blb_dichoticlistening_pa-ga.mp3	pa	ga	1	left
6.6.1	win	2023-07-06	22:22:09	22:34:01	705609	5ab10212fb22320001bacdfe	1	1	main_slash	24	advance_on_keypress_SLASH	20	stimuli_distractor_trianglediamonds.svg	stimuli_distractor_diamondtriangles.svg	35	no	57	0	545	6	2	antiphase_hc_ios.wav	3	6	6	noise_calib_stim_RIGHT.wav	2	27	blb_dichoticlistening_pa-ga.mp3	pa	ga	1	left
6.6.1	win	2023-07-06	22:22:09	22:34:03	707998	5ab10212fb22320001bacdfe	1	1	main_slash	24	main_slash	21	stimuli_distractor_trianglediamonds.svg	stimuli_distractor_diamondtriangles.svg	36	no	53	0	1191	6	2	antiphase_hc_ios.wav	3	6	6	noise_calib_stim_RIGHT.wav	2	27	blb_dichoticlistening_pa-ga.mp3	pa	ga	1	left
6.6.1	win	2023-07-06	22:22:09	22:34:03	707998	5ab10212fb22320001bacdfe	1	1	main_slash	24	advance_on_keypress_SLASH	22	stimuli_distractor_trianglediamonds.svg	stimuli_distractor_diamondtriangles.svg	36	no	57	0	1426	6	2	antiphase_hc_ios.wav	3	6	6	noise_calib_stim_RIGHT.wav	2	27	blb_dichoticlistening_pa-ga.mp3	pa	ga	1	left
6.6.1	win	2023-07-06	22:22:09	22:34:06	710510	5ab10212fb22320001bacdfe	1	1	main_slash	24	main_slash	23	stimuli_distractor_diamondtriangles.svg	stimuli_target_trianglerectangles.svg	29	yes	53	1	427	6	2	antiphase_hc_ios.wav	3	6	6	noise_calib_stim_RIGHT.wav	2	27	blb_dichoticlistening_pa-ga.mp3	pa	ga	1	left
6.6.1	win	2023-07-06	22:22:09	22:34:06	710510	5ab10212fb22320001bacdfe	1	1	main_slash	24	advance_on_keypress_SLASH	24	stimuli_distractor_diamondtriangles.svg	stimuli_target_trianglerectangles.svg	29	yes	57	0	561	6	2	antiphase_hc_ios.wav	3	6	6	noise_calib_stim_RIGHT.wav	2	27	blb_dichoticlistening_pa-ga.mp3	pa	ga	1	left
6.6.1	win	2023-07-06	22:22:09	22:34:09	713723	5ab10212fb22320001bacdfe	1	1	main_slash	24	main_slash	25	stimuli_distractor_diamondtriangles.svg	stimuli_distractor_trianglediamonds.svg	37	no	0	1	2000	6	2	antiphase_hc_ios.wav	3	6	6	noise_calib_stim_RIGHT.wav	2	27	blb_dichoticlistening_pa-ga.mp3	pa	ga	1	left
6.6.1	win	2023-07-06	22:22:09	22:34:09	713723	5ab10212fb22320001bacdfe	1	1	main_slash	24	advance_on_keypress_SLASH	26	stimuli_distractor_diamondtriangles.svg	stimuli_distractor_trianglediamonds.svg	37	no	57	0	438	6	2	antiphase_hc_ios.wav	3	6	6	noise_calib_stim_RIGHT.wav	2	27	blb_dichoticlistening_pa-ga.mp3	pa	ga	1	left
6.6.1	win	2023-07-06	22:22:09	22:34:10	715114	5ab10212fb22320001bacdfe	1	1	main_slash	24	main_slash	27	stimuli_distractor_trianglediamonds.svg	stimuli_target_trianglesquares.svg	26	yes	53	1	301	6	2	antiphase_hc_ios.wav	3	6	6	noise_calib_stim_RIGHT.wav	2	27	blb_dichoticlistening_pa-ga.mp3	pa	ga	1	left
6.6.1	win	2023-07-06	22:22:09	22:34:10	715114	5ab10212fb22320001bacdfe	1	1	main_slash	24	advance_on_keypress_SLASH	28	stimuli_distractor_trianglediamonds.svg	stimuli_target_trianglesquares.svg	26	yes	57	0	497	6	2	antiphase_hc_ios.wav	3	6	6	noise_calib_stim_RIGHT.wav	2	27	blb_dichoticlistening_pa-ga.mp3	pa	ga	1	left
6.6.1	win	2023-07-06	22:22:09	22:34:13	718255	5ab10212fb22320001bacdfe	1	1	main_slash	24	main_slash	29	stimuli_distractor_diamondtriangles.svg	stimuli_distractor_trianglediamonds.svg	38	no	0	1	2000	6	2	antiphase_hc_ios.wav	3	6	6	noise_calib_stim_RIGHT.wav	2	27	blb_dichoticlistening_pa-ga.mp3	pa	ga	1	left
6.6.1	win	2023-07-06	22:22:09	22:34:13	718255	5ab10212fb22320001bacdfe	1	1	main_slash	24	advance_on_keypress_SLASH	30	stimuli_distractor_diamondtriangles.svg	stimuli_distractor_trianglediamonds.svg	38	no	57	0	276	6	2	antiphase_hc_ios.wav	3	6	6	noise_calib_stim_RIGHT.wav	2	27	blb_dichoticlistening_pa-ga.mp3	pa	ga	1	left
6.6.1	win	2023-07-06	22:22:09	22:34:16	721177	5ab10212fb22320001bacdfe	1	1	main_slash	24	main_slash	31	stimuli_distractor_trianglediamonds.svg	stimuli_distractor_trianglediamonds.svg	33	no	0	1	2000	6	2	antiphase_hc_ios.wav	3	6	6	noise_calib_stim_RIGHT.wav	2	27	blb_dichoticlistening_pa-ga.mp3	pa	ga	1	left
6.6.1	win	2023-07-06	22:22:09	22:34:16	721177	5ab10212fb22320001bacdfe	1	1	main_slash	24	advance_on_keypress_SLASH	32	stimuli_distractor_trianglediamonds.svg	stimuli_distractor_trianglediamonds.svg	33	no	57	0	429	6	2	antiphase_hc_ios.wav	3	6	6	noise_calib_stim_RIGHT.wav	2	27	blb_dichoticlistening_pa-ga.mp3	pa	ga	1	left
6.6.1	win	2023-07-06	22:22:09	22:34:18	722581	5ab10212fb22320001bacdfe	1	1	main_slash	24	main_slash	33	stimuli_distractor_trianglediamonds.svg	stimuli_target_diamondsquares.svg	28	yes	53	1	337	6	2	antiphase_hc_ios.wav	3	6	6	noise_calib_stim_RIGHT.wav	2	27	blb_dichoticlistening_pa-ga.mp3	pa	ga	1	left
6.6.1	win	2023-07-06	22:22:09	22:34:18	722581	5ab10212fb22320001bacdfe	1	1	main_slash	24	advance_on_keypress_SLASH	34	stimuli_distractor_trianglediamonds.svg	stimuli_target_diamondsquares.svg	28	yes	57	0	605	6	2	antiphase_hc_ios.wav	3	6	6	noise_calib_stim_RIGHT.wav	2	27	blb_dichoticlistening_pa-ga.mp3	pa	ga	1	left
6.6.1	win	2023-07-06	22:22:09	22:34:19	724228	5ab10212fb22320001bacdfe	1	1	main_slash	24	main_slash	35	stimuli_target_diamondrectangles.svg	stimuli_distractor_trianglediamonds.svg	19	yes	53	1	390	6	2	antiphase_hc_ios.wav	3	6	6	noise_calib_stim_RIGHT.wav	2	27	blb_dichoticlistening_pa-ga.mp3	pa	ga	1	left
6.6.1	win	2023-07-06	22:22:09	22:34:19	724228	5ab10212fb22320001bacdfe	1	1	main_slash	24	advance_on_keypress_SLASH	36	stimuli_target_diamondrectangles.svg	stimuli_distractor_trianglediamonds.svg	19	yes	57	0	498	6	2	antiphase_hc_ios.wav	3	6	6	noise_calib_stim_RIGHT.wav	2	27	blb_dichoticlistening_pa-ga.mp3	pa	ga	1	left
6.6.1	win	2023-07-06	22:22:09	22:34:21	725733	5ab10212fb22320001bacdfe	1	1	main_slash	24	main_slash	37	stimuli_target_trianglerectangles.svg	stimuli_distractor_diamondtriangles.svg	21	yes	53	1	363	6	2	antiphase_hc_ios.wav	3	6	6	noise_calib_stim_RIGHT.wav	2	27	blb_dichoticlistening_pa-ga.mp3	pa	ga	1	left
6.6.1	win	2023-07-06	22:22:09	22:34:21	725733	5ab10212fb22320001bacdfe	1	1	main_slash	24	advance_on_keypress_SLASH	38	stimuli_target_trianglerectangles.svg	stimuli_distractor_diamondtriangles.svg	21	yes	57	0	483	6	2	antiphase_hc_ios.wav	3	6	6	noise_calib_stim_RIGHT.wav	2	27	blb_dichoticlistening_pa-ga.mp3	pa	ga	1	left
6.6.1	win	2023-07-06	22:22:09	22:34:22	727241	5ab10212fb22320001bacdfe	1	1	main_slash	24	main_slash	39	stimuli_distractor_diamondtriangles.svg	stimuli_target_trianglesquares.svg	30	yes	53	1	379	6	2	antiphase_hc_ios.wav	3	6	6	noise_calib_stim_RIGHT.wav	2	27	blb_dichoticlistening_pa-ga.mp3	pa	ga	1	left
6.6.1	win	2023-07-06	22:22:09	22:34:22	727241	5ab10212fb22320001bacdfe	1	1	main_slash	24	advance_on_keypress_SLASH	40	stimuli_distractor_diamondtriangles.svg	stimuli_target_trianglesquares.svg	30	yes	57	0	509	6	2	antiphase_hc_ios.wav	3	6	6	noise_calib_stim_RIGHT.wav	2	27	blb_dichoticlistening_pa-ga.mp3	pa	ga	1	left
6.6.1	win	2023-07-06	22:22:09	22:34:24	728707	5ab10212fb22320001bacdfe	1	1	main_slash	24	main_slash	41	stimuli_distractor_trianglediamonds.svg	stimuli_target_trianglerectangles.svg	25	yes	53	1	316	6	2	antiphase_hc_ios.wav	3	6	6	noise_calib_stim_RIGHT.wav	2	27	blb_dichoticlistening_pa-ga.mp3	pa	ga	1	left
6.6.1	win	2023-07-06	22:22:09	22:34:24	728707	5ab10212fb22320001bacdfe	1	1	main_slash	24	advance_on_keypress_SLASH	42	stimuli_distractor_trianglediamonds.svg	stimuli_target_trianglerectangles.svg	25	yes	57	0	1275	6	2	antiphase_hc_ios.wav	3	6	6	noise_calib_stim_RIGHT.wav	2	27	blb_dichoticlistening_pa-ga.mp3	pa	ga	1	left
6.6.1	win	2023-07-06	22:22:09	22:34:26	730942	5ab10212fb22320001bacdfe	1	1	main_slash	24	main_slash	43	stimuli_distractor_diamondtriangles.svg	stimuli_target_diamondrectangles.svg	31	yes	53	1	319	6	2	antiphase_hc_ios.wav	3	6	6	noise_calib_stim_RIGHT.wav	2	27	blb_dichoticlistening_pa-ga.mp3	pa	ga	1	left
6.6.1	win	2023-07-06	22:22:09	22:34:26	730942	5ab10212fb22320001bacdfe	1	1	main_slash	24	advance_on_keypress_SLASH	44	stimuli_distractor_diamondtriangles.svg	stimuli_target_diamondrectangles.svg	31	yes	57	0	458	6	2	antiphase_hc_ios.wav	3	6	6	noise_calib_stim_RIGHT.wav	2	27	blb_dichoticlistening_pa-ga.mp3	pa	ga	1	left
6.6.1	win	2023-07-06	22:22:09	22:34:27	732339	5ab10212fb22320001bacdfe	1	1	main_slash	24	main_slash	45	stimuli_target_rectangletriangles.svg	stimuli_distractor_trianglediamonds.svg	1	yes	53	1	300	6	2	antiphase_hc_ios.wav	3	6	6	noise_calib_stim_RIGHT.wav	2	27	blb_dichoticlistening_pa-ga.mp3	pa	ga	1	left
6.6.1	win	2023-07-06	22:22:09	22:34:27	732339	5ab10212fb22320001bacdfe	1	1	main_slash	24	advance_on_keypress_SLASH	46	stimuli_target_rectangletriangles.svg	stimuli_distractor_trianglediamonds.svg	1	yes	57	0	388	6	2	antiphase_hc_ios.wav	3	6	6	noise_calib_stim_RIGHT.wav	2	27	blb_dichoticlistening_pa-ga.mp3	pa	ga	1	left
6.6.1	win	2023-07-06	22:22:09	22:34:29	733677	5ab10212fb22320001bacdfe	1	1	main_slash	24	main_slash	47	stimuli_distractor_trianglediamonds.svg	stimuli_target_squaretriangles.svg	11	yes	53	1	303	6	2	antiphase_hc_ios.wav	3	6	6	noise_calib_stim_RIGHT.wav	2	27	blb_dichoticlistening_pa-ga.mp3	pa	ga	1	left
6.6.1	win	2023-07-06	22:22:09	22:34:29	733677	5ab10212fb22320001bacdfe	1	1	main_slash	24	advance_on_keypress_SLASH	48	stimuli_distractor_trianglediamonds.svg	stimuli_target_squaretriangles.svg	11	yes	57	0	697	6	2	antiphase_hc_ios.wav	3	6	6	noise_calib_stim_RIGHT.wav	2	27	blb_dichoticlistening_pa-ga.mp3	pa	ga	1	left
6.6.1	win	2023-07-06	22:22:09	22:34:31	735586	5ab10212fb22320001bacdfe	1	1	main_slash	24	main_slash	49	stimuli_distractor_diamondtriangles.svg	stimuli_target_squarediamonds.svg	16	yes	53	1	566	6	2	antiphase_hc_ios.wav	3	6	6	noise_calib_stim_RIGHT.wav	2	27	blb_dichoticlistening_pa-ga.mp3	pa	ga	1	left
6.6.1	win	2023-07-06	22:22:09	22:34:31	735586	5ab10212fb22320001bacdfe	1	1	main_slash	24	advance_on_keypress_SLASH	50	stimuli_distractor_diamondtriangles.svg	stimuli_target_squarediamonds.svg	16	yes	57	0	590	6	2	antiphase_hc_ios.wav	3	6	6	noise_calib_stim_RIGHT.wav	2	27	blb_dichoticlistening_pa-ga.mp3	pa	ga	1	left
6.6.1	win	2023-07-06	22:22:09	22:34:32	737214	5ab10212fb22320001bacdfe	1	1	main_slash	24	main_slash	51	stimuli_distractor_diamondtriangles.svg	stimuli_target_squaretriangles.svg	15	yes	53	1	394	6	2	antiphase_hc_ios.wav	3	6	6	noise_calib_stim_RIGHT.wav	2	27	blb_dichoticlistening_pa-ga.mp3	pa	ga	1	left
6.6.1	win	2023-07-06	22:22:09	22:34:32	737214	5ab10212fb22320001bacdfe	1	1	main_slash	24	advance_on_keypress_SLASH	52	stimuli_distractor_diamondtriangles.svg	stimuli_target_squaretriangles.svg	15	yes	57	0	995	6	2	antiphase_hc_ios.wav	3	6	6	noise_calib_stim_RIGHT.wav	2	27	blb_dichoticlistening_pa-ga.mp3	pa	ga	1	left
6.6.1	win	2023-07-06	22:22:09	22:34:34	739261	5ab10212fb22320001bacdfe	1	1	main_slash	24	main_slash	53	stimuli_distractor_diamondtriangles.svg	stimuli_target_rectanglediamonds.svg	14	yes	53	1	408	6	2	antiphase_hc_ios.wav	3	6	6	noise_calib_stim_RIGHT.wav	2	27	blb_dichoticlistening_pa-ga.mp3	pa	ga	1	left
6.6.1	win	2023-07-06	22:22:09	22:34:34	739261	5ab10212fb22320001bacdfe	1	1	main_slash	24	advance_on_keypress_SLASH	54	stimuli_distractor_diamondtriangles.svg	stimuli_target_rectanglediamonds.svg	14	yes	57	0	528	6	2	antiphase_hc_ios.wav	3	6	6	noise_calib_stim_RIGHT.wav	2	27	blb_dichoticlistening_pa-ga.mp3	pa	ga	1	left
6.6.1	win	2023-07-06	22:22:09	22:34:36	740752	5ab10212fb22320001bacdfe	1	1	main_slash	24	main_slash	55	stimuli_target_trianglesquares.svg	stimuli_distractor_trianglediamonds.svg	18	yes	53	1	318	6	2	antiphase_hc_ios.wav	3	6	6	noise_calib_stim_RIGHT.wav	2	27	blb_dichoticlistening_pa-ga.mp3	pa	ga	1	left
6.6.1	win	2023-07-06	22:22:09	22:34:36	740752	5ab10212fb22320001bacdfe	1	1	main_slash	24	advance_on_keypress_SLASH	56	stimuli_target_trianglesquares.svg	stimuli_distractor_trianglediamonds.svg	18	yes	57	0	585	6	2	antiphase_hc_ios.wav	3	6	6	noise_calib_stim_RIGHT.wav	2	27	blb_dichoticlistening_pa-ga.mp3	pa	ga	1	left
6.6.1	win	2023-07-06	22:22:09	22:34:39	743976	5ab10212fb22320001bacdfe	1	1	main_slash	24	main_slash	57	stimuli_distractor_diamondtriangles.svg	stimuli_distractor_diamondtriangles.svg	40	no	0	1	2000	6	2	antiphase_hc_ios.wav	3	6	6	noise_calib_stim_RIGHT.wav	2	27	blb_dichoticlistening_pa-ga.mp3	pa	ga	1	left
6.6.1	win	2023-07-06	22:22:09	22:34:39	743976	5ab10212fb22320001bacdfe	1	1	main_slash	24	advance_on_keypress_SLASH	58	stimuli_distractor_diamondtriangles.svg	stimuli_distractor_diamondtriangles.svg	40	no	57	0	406	6	2	antiphase_hc_ios.wav	3	6	6	noise_calib_stim_RIGHT.wav	2	27	blb_dichoticlistening_pa-ga.mp3	pa	ga	1	left
6.6.1	win	2023-07-06	22:22:09	22:34:40	745399	5ab10212fb22320001bacdfe	1	1	main_slash	24	main_slash	59	stimuli_distractor_trianglediamonds.svg	stimuli_target_diamondrectangles.svg	27	yes	53	1	361	6	2	antiphase_hc_ios.wav	3	6	6	noise_calib_stim_RIGHT.wav	2	27	blb_dichoticlistening_pa-ga.mp3	pa	ga	1	left
6.6.1	win	2023-07-06	22:22:09	22:34:40	745399	5ab10212fb22320001bacdfe	1	1	main_slash	24	advance_on_keypress_SLASH	60	stimuli_distractor_trianglediamonds.svg	stimuli_target_diamondrectangles.svg	27	yes	57	0	659	6	2	antiphase_hc_ios.wav	3	6	6	noise_calib_stim_RIGHT.wav	2	27	blb_dichoticlistening_pa-ga.mp3	pa	ga	1	left
6.6.1	win	2023-07-06	22:22:09	22:34:42	747040	5ab10212fb22320001bacdfe	1	1	main_slash	24	main_slash	61	stimuli_target_squarediamonds.svg	stimuli_distractor_trianglediamonds.svg	4	yes	53	1	346	6	2	antiphase_hc_ios.wav	3	6	6	noise_calib_stim_RIGHT.wav	2	27	blb_dichoticlistening_pa-ga.mp3	pa	ga	1	left
6.6.1	win	2023-07-06	22:22:09	22:34:42	747040	5ab10212fb22320001bacdfe	1	1	main_slash	24	advance_on_keypress_SLASH	62	stimuli_target_squarediamonds.svg	stimuli_distractor_trianglediamonds.svg	4	yes	57	0	366	6	2	antiphase_hc_ios.wav	3	6	6	noise_calib_stim_RIGHT.wav	2	27	blb_dichoticlistening_pa-ga.mp3	pa	ga	1	left
6.6.1	win	2023-07-06	22:22:09	22:34:43	748400	5ab10212fb22320001bacdfe	1	1	main_slash	24	main_slash	63	stimuli_distractor_diamondtriangles.svg	stimuli_target_diamondsquares.svg	32	yes	53	1	350	6	2	antiphase_hc_ios.wav	3	6	6	noise_calib_stim_RIGHT.wav	2	27	blb_dichoticlistening_pa-ga.mp3	pa	ga	1	left
6.6.1	win	2023-07-06	22:22:09	22:34:43	748400	5ab10212fb22320001bacdfe	1	1	main_slash	24	advance_on_keypress_SLASH	64	stimuli_distractor_diamondtriangles.svg	stimuli_target_diamondsquares.svg	32	yes	57	0	460	6	2	antiphase_hc_ios.wav	3	6	6	noise_calib_stim_RIGHT.wav	2	27	blb_dichoticlistening_pa-ga.mp3	pa	ga	1	left
6.6.1	win	2023-07-06	22:22:09	22:34:45	749761	5ab10212fb22320001bacdfe	1	1	main_slash	24	main_slash	65	stimuli_target_rectanglediamonds.svg	stimuli_distractor_trianglediamonds.svg	2	yes	53	1	260	6	2	antiphase_hc_ios.wav	3	6	6	noise_calib_stim_RIGHT.wav	2	27	blb_dichoticlistening_pa-ga.mp3	pa	ga	1	left
6.6.1	win	2023-07-06	22:22:09	22:34:45	749761	5ab10212fb22320001bacdfe	1	1	main_slash	24	advance_on_keypress_SLASH	66	stimuli_target_rectanglediamonds.svg	stimuli_distractor_trianglediamonds.svg	2	yes	57	0	822	6	2	antiphase_hc_ios.wav	3	6	6	noise_calib_stim_RIGHT.wav	2	27	blb_dichoticlistening_pa-ga.mp3	pa	ga	1	left
6.6.1	win	2023-07-06	22:22:09	22:34:47	751549	5ab10212fb22320001bacdfe	1	1	main_slash	24	main_slash	67	stimuli_target_squaretriangles.svg	stimuli_distractor_trianglediamonds.svg	3	yes	53	1	314	6	2	antiphase_hc_ios.wav	3	6	6	noise_calib_stim_RIGHT.wav	2	27	blb_dichoticlistening_pa-ga.mp3	pa	ga	1	left
6.6.1	win	2023-07-06	22:22:09	22:34:47	751549	5ab10212fb22320001bacdfe	1	1	main_slash	24	advance_on_keypress_SLASH	68	stimuli_target_squaretriangles.svg	stimuli_distractor_trianglediamonds.svg	3	yes	57	0	2731	6	2	antiphase_hc_ios.wav	3	6	6	noise_calib_stim_RIGHT.wav	2	27	blb_dichoticlistening_pa-ga.mp3	pa	ga	1	left
6.6.1	win	2023-07-06	22:22:09	22:34:50	755395	5ab10212fb22320001bacdfe	1	1	main_slash	24	main_slash	69	stimuli_target_diamondrectangles.svg	stimuli_distractor_diamondtriangles.svg	23	yes	53	1	475	6	2	antiphase_hc_ios.wav	3	6	6	noise_calib_stim_RIGHT.wav	2	27	blb_dichoticlistening_pa-ga.mp3	pa	ga	1	left
6.6.1	win	2023-07-06	22:22:09	22:34:50	755395	5ab10212fb22320001bacdfe	1	1	main_slash	24	advance_on_keypress_SLASH	70	stimuli_target_diamondrectangles.svg	stimuli_distractor_diamondtriangles.svg	23	yes	57	0	579	6	2	antiphase_hc_ios.wav	3	6	6	noise_calib_stim_RIGHT.wav	2	27	blb_dichoticlistening_pa-ga.mp3	pa	ga	1	left
6.6.1	win	2023-07-06	22:22:09	22:34:52	756927	5ab10212fb22320001bacdfe	1	1	main_slash	24	main_slash	71	stimuli_distractor_diamondtriangles.svg	stimuli_target_rectangletriangles.svg	13	yes	53	1	316	6	2	antiphase_hc_ios.wav	3	6	6	noise_calib_stim_RIGHT.wav	2	27	blb_dichoticlistening_pa-ga.mp3	pa	ga	1	left
6.6.1	win	2023-07-06	22:22:09	22:34:52	756927	5ab10212fb22320001bacdfe	1	1	main_slash	24	advance_on_keypress_SLASH	72	stimuli_distractor_diamondtriangles.svg	stimuli_target_rectangletriangles.svg	13	yes	57	0	450	6	2	antiphase_hc_ios.wav	3	6	6	noise_calib_stim_RIGHT.wav	2	27	blb_dichoticlistening_pa-ga.mp3	pa	ga	1	left
6.6.1	win	2023-07-06	22:22:09	22:34:53	758300	5ab10212fb22320001bacdfe	1	1	main_slash	24	main_slash	73	stimuli_target_diamondsquares.svg	stimuli_distractor_trianglediamonds.svg	20	yes	53	1	273	6	2	antiphase_hc_ios.wav	3	6	6	noise_calib_stim_RIGHT.wav	2	27	blb_dichoticlistening_pa-ga.mp3	pa	ga	1	left
6.6.1	win	2023-07-06	22:22:09	22:34:53	758300	5ab10212fb22320001bacdfe	1	1	main_slash	24	advance_on_keypress_SLASH	74	stimuli_target_diamondsquares.svg	stimuli_distractor_trianglediamonds.svg	20	yes	57	0	1091	6	2	antiphase_hc_ios.wav	3	6	6	noise_calib_stim_RIGHT.wav	2	27	blb_dichoticlistening_pa-ga.mp3	pa	ga	1	left
6.6.1	win	2023-07-06	22:22:09	22:34:55	760243	5ab10212fb22320001bacdfe	1	1	main_slash	24	main_slash	75	stimuli_distractor_trianglediamonds.svg	stimuli_target_rectangletriangles.svg	9	yes	53	1	195	6	2	antiphase_hc_ios.wav	3	6	6	noise_calib_stim_RIGHT.wav	2	27	blb_dichoticlistening_pa-ga.mp3	pa	ga	1	left
6.6.1	win	2023-07-06	22:22:09	22:34:55	760243	5ab10212fb22320001bacdfe	1	1	main_slash	24	advance_on_keypress_SLASH	76	stimuli_distractor_trianglediamonds.svg	stimuli_target_rectangletriangles.svg	9	yes	57	0	409	6	2	antiphase_hc_ios.wav	3	6	6	noise_calib_stim_RIGHT.wav	2	27	blb_dichoticlistening_pa-ga.mp3	pa	ga	1	left
6.6.1	win	2023-07-06	22:22:09	22:34:57	761540	5ab10212fb22320001bacdfe	1	1	main_slash	24	main_slash	77	stimuli_distractor_diamondtriangles.svg	stimuli_distractor_diamondtriangles.svg	39	no	53	0	231	6	2	antiphase_hc_ios.wav	3	6	6	noise_calib_stim_RIGHT.wav	2	27	blb_dichoticlistening_pa-ga.mp3	pa	ga	1	left
6.6.1	win	2023-07-06	22:22:09	22:34:57	761540	5ab10212fb22320001bacdfe	1	1	main_slash	24	advance_on_keypress_SLASH	78	stimuli_distractor_diamondtriangles.svg	stimuli_distractor_diamondtriangles.svg	39	no	57	0	515	6	2	antiphase_hc_ios.wav	3	6	6	noise_calib_stim_RIGHT.wav	2	27	blb_dichoticlistening_pa-ga.mp3	pa	ga	1	left
6.6.1	win	2023-07-06	22:22:09	22:34:58	763209	5ab10212fb22320001bacdfe	1	1	main_slash	24	main_slash	79	stimuli_target_squaretriangles.svg	stimuli_distractor_diamondtriangles.svg	7	yes	53	1	511	6	2	antiphase_hc_ios.wav	3	6	6	noise_calib_stim_RIGHT.wav	2	27	blb_dichoticlistening_pa-ga.mp3	pa	ga	1	left
6.6.1	win	2023-07-06	22:22:09	22:34:58	763209	5ab10212fb22320001bacdfe	1	1	main_slash	24	advance_on_keypress_SLASH	80	stimuli_target_squaretriangles.svg	stimuli_distractor_diamondtriangles.svg	7	yes	57	0	398	6	2	antiphase_hc_ios.wav	3	6	6	noise_calib_stim_RIGHT.wav	2	27	blb_dichoticlistening_pa-ga.mp3	pa	ga	1	left
6.6.1	win	2023-07-06	22:22:09	22:35:00	764592	5ab10212fb22320001bacdfe	1	1	main_slash	24	main_slash	81	stimuli_target_squarediamonds.svg	stimuli_distractor_diamondtriangles.svg	8	yes	53	1	326	6	2	antiphase_hc_ios.wav	3	6	6	noise_calib_stim_RIGHT.wav	2	27	blb_dichoticlistening_pa-ga.mp3	pa	ga	1	left
6.6.1	win	2023-07-06	22:22:09	22:35:00	764592	5ab10212fb22320001bacdfe	1	1	main_slash	24	advance_on_keypress_SLASH	82	stimuli_target_squarediamonds.svg	stimuli_distractor_diamondtriangles.svg	8	yes	57	0	457	6	2	antiphase_hc_ios.wav	3	6	6	noise_calib_stim_RIGHT.wav	2	27	blb_dichoticlistening_pa-ga.mp3	pa	ga	1	left
6.6.1	win	2023-07-06	22:22:09	22:35:01	765932	5ab10212fb22320001bacdfe	1	1	main_slash	24	main_slash	83	stimuli_target_trianglerectangles.svg	stimuli_distractor_diamondtriangles.svg	21	yes	53	1	241	6	2	antiphase_hc_ios.wav	3	6	6	noise_calib_stim_RIGHT.wav	2	27	blb_dichoticlistening_pa-ga.mp3	pa	ga	1	left
6.6.1	win	2023-07-06	22:22:09	22:35:01	765932	5ab10212fb22320001bacdfe	1	1	main_slash	24	advance_on_keypress_SLASH	84	stimuli_target_trianglerectangles.svg	stimuli_distractor_diamondtriangles.svg	21	yes	57	0	488	6	2	antiphase_hc_ios.wav	3	6	6	noise_calib_stim_RIGHT.wav	2	27	blb_dichoticlistening_pa-ga.mp3	pa	ga	1	left
6.6.1	win	2023-07-06	22:22:09	22:35:02	767387	5ab10212fb22320001bacdfe	1	1	main_slash	24	main_slash	85	stimuli_target_diamondrectangles.svg	stimuli_distractor_trianglediamonds.svg	19	yes	53	1	314	6	2	antiphase_hc_ios.wav	3	6	6	noise_calib_stim_RIGHT.wav	2	27	blb_dichoticlistening_pa-ga.mp3	pa	ga	1	left
6.6.1	win	2023-07-06	22:22:09	22:35:02	767387	5ab10212fb22320001bacdfe	1	1	main_slash	24	advance_on_keypress_SLASH	86	stimuli_target_diamondrectangles.svg	stimuli_distractor_trianglediamonds.svg	19	yes	57	0	1002	6	2	antiphase_hc_ios.wav	3	6	6	noise_calib_stim_RIGHT.wav	2	27	blb_dichoticlistening_pa-ga.mp3	pa	ga	1	left
6.6.1	win	2023-07-06	22:22:09	22:35:04	769383	5ab10212fb22320001bacdfe	1	1	main_slash	24	main_slash	87	stimuli_distractor_diamondtriangles.svg	stimuli_target_trianglerectangles.svg	29	yes	53	1	346	6	2	antiphase_hc_ios.wav	3	6	6	noise_calib_stim_RIGHT.wav	2	27	blb_dichoticlistening_pa-ga.mp3	pa	ga	1	left
6.6.1	win	2023-07-06	22:22:09	22:35:04	769383	5ab10212fb22320001bacdfe	1	1	main_slash	24	advance_on_keypress_SLASH	88	stimuli_distractor_diamondtriangles.svg	stimuli_target_trianglerectangles.svg	29	yes	57	0	658	6	2	antiphase_hc_ios.wav	3	6	6	noise_calib_stim_RIGHT.wav	2	27	blb_dichoticlistening_pa-ga.mp3	pa	ga	1	left
6.6.1	win	2023-07-06	22:22:09	22:35:06	771205	5ab10212fb22320001bacdfe	1	1	main_slash	24	main_slash	89	stimuli_distractor_trianglediamonds.svg	stimuli_target_rectanglediamonds.svg	10	yes	53	1	514	6	2	antiphase_hc_ios.wav	3	6	6	noise_calib_stim_RIGHT.wav	2	27	blb_dichoticlistening_pa-ga.mp3	pa	ga	1	left
6.6.1	win	2023-07-06	22:22:09	22:35:06	771205	5ab10212fb22320001bacdfe	1	1	main_slash	24	advance_on_keypress_SLASH	90	stimuli_distractor_trianglediamonds.svg	stimuli_target_rectanglediamonds.svg	10	yes	57	0	322	6	2	antiphase_hc_ios.wav	3	6	6	noise_calib_stim_RIGHT.wav	2	27	blb_dichoticlistening_pa-ga.mp3	pa	ga	1	left
6.6.1	win	2023-07-06	22:22:09	22:35:08	772515	5ab10212fb22320001bacdfe	1	1	main_slash	24	main_slash	91	stimuli_distractor_diamondtriangles.svg	stimuli_target_diamondrectangles.svg	31	yes	53	1	346	6	2	antiphase_hc_ios.wav	3	6	6	noise_calib_stim_RIGHT.wav	2	27	blb_dichoticlistening_pa-ga.mp3	pa	ga	1	left
6.6.1	win	2023-07-06	22:22:09	22:35:08	772515	5ab10212fb22320001bacdfe	1	1	main_slash	24	advance_on_keypress_SLASH	92	stimuli_distractor_diamondtriangles.svg	stimuli_target_diamondrectangles.svg	31	yes	57	0	580	6	2	antiphase_hc_ios.wav	3	6	6	noise_calib_stim_RIGHT.wav	2	27	blb_dichoticlistening_pa-ga.mp3	pa	ga	1	left
6.6.1	win	2023-07-06	22:22:09	22:35:11	775735	5ab10212fb22320001bacdfe	1	1	main_slash	24	main_slash	93	stimuli_distractor_diamondtriangles.svg	stimuli_distractor_diamondtriangles.svg	39	no	0	1	2000	6	2	antiphase_hc_ios.wav	3	6	6	noise_calib_stim_RIGHT.wav	2	27	blb_dichoticlistening_pa-ga.mp3	pa	ga	1	left
6.6.1	win	2023-07-06	22:22:09	22:35:11	775735	5ab10212fb22320001bacdfe	1	1	main_slash	24	advance_on_keypress_SLASH	94	stimuli_distractor_diamondtriangles.svg	stimuli_distractor_diamondtriangles.svg	39	no	57	0	1620	6	2	antiphase_hc_ios.wav	3	6	6	noise_calib_stim_RIGHT.wav	2	27	blb_dichoticlistening_pa-ga.mp3	pa	ga	1	left
6.6.1	win	2023-07-06	22:22:09	22:35:13	778390	5ab10212fb22320001bacdfe	1	1	main_slash	24	main_slash	95	stimuli_target_squaretriangles.svg	stimuli_distractor_diamondtriangles.svg	7	yes	53	1	381	6	2	antiphase_hc_ios.wav	3	6	6	noise_calib_stim_RIGHT.wav	2	27	blb_dichoticlistening_pa-ga.mp3	pa	ga	1	left
6.6.1	win	2023-07-06	22:22:09	22:35:13	778390	5ab10212fb22320001bacdfe	1	1	main_slash	24	advance_on_keypress_SLASH	96	stimuli_target_squaretriangles.svg	stimuli_distractor_diamondtriangles.svg	7	yes	57	0	470	6	2	antiphase_hc_ios.wav	3	6	6	noise_calib_stim_RIGHT.wav	2	27	blb_dichoticlistening_pa-ga.mp3	pa	ga	1	left
6.6.1	win	2023-07-06	22:22:09	22:35:15	779843	5ab10212fb22320001bacdfe	1	1	main_slash	24	main_slash	97	stimuli_distractor_trianglediamonds.svg	stimuli_target_squarediamonds.svg	12	yes	53	1	342	6	2	antiphase_hc_ios.wav	3	6	6	noise_calib_stim_RIGHT.wav	2	27	blb_dichoticlistening_pa-ga.mp3	pa	ga	1	left
6.6.1	win	2023-07-06	22:22:09	22:35:15	779843	5ab10212fb22320001bacdfe	1	1	main_slash	24	advance_on_keypress_SLASH	98	stimuli_distractor_trianglediamonds.svg	stimuli_target_squarediamonds.svg	12	yes	57	0	346	6	2	antiphase_hc_ios.wav	3	6	6	noise_calib_stim_RIGHT.wav	2	27	blb_dichoticlistening_pa-ga.mp3	pa	ga	1	left
6.6.1	win	2023-07-06	22:22:09	22:35:16	781182	5ab10212fb22320001bacdfe	1	1	main_slash	24	main_slash	99	stimuli_distractor_trianglediamonds.svg	stimuli_target_diamondsquares.svg	28	yes	53	1	348	6	2	antiphase_hc_ios.wav	3	6	6	noise_calib_stim_RIGHT.wav	2	27	blb_dichoticlistening_pa-ga.mp3	pa	ga	1	left
6.6.1	win	2023-07-06	22:22:09	22:35:16	781182	5ab10212fb22320001bacdfe	1	1	main_slash	24	advance_on_keypress_SLASH	100	stimuli_distractor_trianglediamonds.svg	stimuli_target_diamondsquares.svg	28	yes	57	0	396	6	2	antiphase_hc_ios.wav	3	6	6	noise_calib_stim_RIGHT.wav	2	27	blb_dichoticlistening_pa-ga.mp3	pa	ga	1	left
6.6.1	win	2023-07-06	22:22:09	22:35:18	782491	5ab10212fb22320001bacdfe	1	1	main_slash	24	main_slash	101	stimuli_distractor_trianglediamonds.svg	stimuli_target_squaretriangles.svg	11	yes	53	1	268	6	2	antiphase_hc_ios.wav	3	6	6	noise_calib_stim_RIGHT.wav	2	27	blb_dichoticlistening_pa-ga.mp3	pa	ga	1	left
6.6.1	win	2023-07-06	22:22:09	22:35:18	782491	5ab10212fb22320001bacdfe	1	1	main_slash	24	advance_on_keypress_SLASH	102	stimuli_distractor_trianglediamonds.svg	stimuli_target_squaretriangles.svg	11	yes	57	0	358	6	2	antiphase_hc_ios.wav	3	6	6	noise_calib_stim_RIGHT.wav	2	27	blb_dichoticlistening_pa-ga.mp3	pa	ga	1	left
6.6.1	win	2023-07-06	22:22:09	22:35:19	783860	5ab10212fb22320001bacdfe	1	1	main_slash	24	main_slash	103	stimuli_target_trianglesquares.svg	stimuli_distractor_trianglediamonds.svg	18	yes	53	1	359	6	2	antiphase_hc_ios.wav	3	6	6	noise_calib_stim_RIGHT.wav	2	27	blb_dichoticlistening_pa-ga.mp3	pa	ga	1	left
6.6.1	win	2023-07-06	22:22:09	22:35:19	783860	5ab10212fb22320001bacdfe	1	1	main_slash	24	advance_on_keypress_SLASH	104	stimuli_target_trianglesquares.svg	stimuli_distractor_trianglediamonds.svg	18	yes	57	0	639	6	2	antiphase_hc_ios.wav	3	6	6	noise_calib_stim_RIGHT.wav	2	27	blb_dichoticlistening_pa-ga.mp3	pa	ga	1	left
6.6.1	win	2023-07-06	22:22:09	22:35:21	786028	5ab10212fb22320001bacdfe	1	1	main_slash	24	main_slash	105	stimuli_target_rectangletriangles.svg	stimuli_distractor_trianglediamonds.svg	1	yes	53	1	885	6	2	antiphase_hc_ios.wav	3	6	6	noise_calib_stim_RIGHT.wav	2	27	blb_dichoticlistening_pa-ga.mp3	pa	ga	1	left
6.6.1	win	2023-07-06	22:22:09	22:35:21	786028	5ab10212fb22320001bacdfe	1	1	main_slash	24	advance_on_keypress_SLASH	106	stimuli_target_rectangletriangles.svg	stimuli_distractor_trianglediamonds.svg	1	yes	57	0	597	6	2	antiphase_hc_ios.wav	3	6	6	noise_calib_stim_RIGHT.wav	2	27	blb_dichoticlistening_pa-ga.mp3	pa	ga	1	left
6.6.1	win	2023-07-06	22:22:09	22:35:23	787536	5ab10212fb22320001bacdfe	1	1	main_slash	24	main_slash	107	stimuli_distractor_trianglediamonds.svg	stimuli_target_rectangletriangles.svg	9	yes	53	1	259	6	2	antiphase_hc_ios.wav	3	6	6	noise_calib_stim_RIGHT.wav	2	27	blb_dichoticlistening_pa-ga.mp3	pa	ga	1	left
6.6.1	win	2023-07-06	22:22:09	22:35:23	787536	5ab10212fb22320001bacdfe	1	1	main_slash	24	advance_on_keypress_SLASH	108	stimuli_distractor_trianglediamonds.svg	stimuli_target_rectangletriangles.svg	9	yes	57	0	396	6	2	antiphase_hc_ios.wav	3	6	6	noise_calib_stim_RIGHT.wav	2	27	blb_dichoticlistening_pa-ga.mp3	pa	ga	1	left
6.6.1	win	2023-07-06	22:22:09	22:35:24	788813	5ab10212fb22320001bacdfe	1	1	main_slash	24	main_slash	109	stimuli_distractor_trianglediamonds.svg	stimuli_distractor_trianglediamonds.svg	34	no	53	0	235	6	2	antiphase_hc_ios.wav	3	6	6	noise_calib_stim_RIGHT.wav	2	27	blb_dichoticlistening_pa-ga.mp3	pa	ga	1	left
6.6.1	win	2023-07-06	22:22:09	22:35:24	788813	5ab10212fb22320001bacdfe	1	1	main_slash	24	advance_on_keypress_SLASH	110	stimuli_distractor_trianglediamonds.svg	stimuli_distractor_trianglediamonds.svg	34	no	57	0	515	6	2	antiphase_hc_ios.wav	3	6	6	noise_calib_stim_RIGHT.wav	2	27	blb_dichoticlistening_pa-ga.mp3	pa	ga	1	left
6.6.1	win	2023-07-06	22:22:09	22:35:25	790433	5ab10212fb22320001bacdfe	1	1	main_slash	24	main_slash	111	stimuli_distractor_diamondtriangles.svg	stimuli_target_rectanglediamonds.svg	14	yes	53	1	461	6	2	antiphase_hc_ios.wav	3	6	6	noise_calib_stim_RIGHT.wav	2	27	blb_dichoticlistening_pa-ga.mp3	pa	ga	1	left
6.6.1	win	2023-07-06	22:22:09	22:35:25	790433	5ab10212fb22320001bacdfe	1	1	main_slash	24	advance_on_keypress_SLASH	112	stimuli_distractor_diamondtriangles.svg	stimuli_target_rectanglediamonds.svg	14	yes	57	0	529	6	2	antiphase_hc_ios.wav	3	6	6	noise_calib_stim_RIGHT.wav	2	27	blb_dichoticlistening_pa-ga.mp3	pa	ga	1	left
6.6.1	win	2023-07-06	22:22:09	22:35:27	792022	5ab10212fb22320001bacdfe	1	1	main_slash	24	main_slash	113	stimuli_target_trianglerectangles.svg	stimuli_distractor_trianglediamonds.svg	17	yes	53	1	411	6	2	antiphase_hc_ios.wav	3	6	6	noise_calib_stim_RIGHT.wav	2	27	blb_dichoticlistening_pa-ga.mp3	pa	ga	1	left
6.6.1	win	2023-07-06	22:22:09	22:35:27	792022	5ab10212fb22320001bacdfe	1	1	main_slash	24	advance_on_keypress_SLASH	114	stimuli_target_trianglerectangles.svg	stimuli_distractor_trianglediamonds.svg	17	yes	57	0	329	6	2	antiphase_hc_ios.wav	3	6	6	noise_calib_stim_RIGHT.wav	2	27	blb_dichoticlistening_pa-ga.mp3	pa	ga	1	left
6.6.1	win	2023-07-06	22:22:09	22:35:29	793474	5ab10212fb22320001bacdfe	1	1	main_slash	24	main_slash	115	stimuli_distractor_diamondtriangles.svg	stimuli_target_trianglesquares.svg	30	yes	53	1	470	6	2	antiphase_hc_ios.wav	3	6	6	noise_calib_stim_RIGHT.wav	2	27	blb_dichoticlistening_pa-ga.mp3	pa	ga	1	left
6.6.1	win	2023-07-06	22:22:09	22:35:29	793474	5ab10212fb22320001bacdfe	1	1	main_slash	24	advance_on_keypress_SLASH	116	stimuli_distractor_diamondtriangles.svg	stimuli_target_trianglesquares.svg	30	yes	57	0	413	6	2	antiphase_hc_ios.wav	3	6	6	noise_calib_stim_RIGHT.wav	2	27	blb_dichoticlistening_pa-ga.mp3	pa	ga	1	left
6.6.1	win	2023-07-06	22:22:09	22:35:30	794844	5ab10212fb22320001bacdfe	1	1	main_slash	24	main_slash	117	stimuli_distractor_diamondtriangles.svg	stimuli_target_squaretriangles.svg	15	yes	53	1	309	6	2	antiphase_hc_ios.wav	3	6	6	noise_calib_stim_RIGHT.wav	2	27	blb_dichoticlistening_pa-ga.mp3	pa	ga	1	left
6.6.1	win	2023-07-06	22:22:09	22:35:30	794844	5ab10212fb22320001bacdfe	1	1	main_slash	24	advance_on_keypress_SLASH	118	stimuli_distractor_diamondtriangles.svg	stimuli_target_squaretriangles.svg	15	yes	57	0	408	6	2	antiphase_hc_ios.wav	3	6	6	noise_calib_stim_RIGHT.wav	2	27	blb_dichoticlistening_pa-ga.mp3	pa	ga	1	left
6.6.1	win	2023-07-06	22:22:09	22:35:31	796246	5ab10212fb22320001bacdfe	1	1	main_slash	24	main_slash	119	stimuli_distractor_trianglediamonds.svg	stimuli_distractor_diamondtriangles.svg	36	no	53	0	350	6	2	antiphase_hc_ios.wav	3	6	6	noise_calib_stim_RIGHT.wav	2	27	blb_dichoticlistening_pa-ga.mp3	pa	ga	1	left
6.6.1	win	2023-07-06	22:22:09	22:35:31	796246	5ab10212fb22320001bacdfe	1	1	main_slash	24	advance_on_keypress_SLASH	120	stimuli_distractor_trianglediamonds.svg	stimuli_distractor_diamondtriangles.svg	36	no	57	0	550	6	2	antiphase_hc_ios.wav	3	6	6	noise_calib_stim_RIGHT.wav	2	27	blb_dichoticlistening_pa-ga.mp3	pa	ga	1	left
6.6.1	win	2023-07-06	22:22:09	22:35:33	797803	5ab10212fb22320001bacdfe	1	1	main_slash	24	main_slash	121	stimuli_distractor_diamondtriangles.svg	stimuli_target_squarediamonds.svg	16	yes	53	1	366	6	2	antiphase_hc_ios.wav	3	6	6	noise_calib_stim_RIGHT.wav	2	27	blb_dichoticlistening_pa-ga.mp3	pa	ga	1	left
6.6.1	win	2023-07-06	22:22:09	22:35:33	797803	5ab10212fb22320001bacdfe	1	1	main_slash	24	advance_on_keypress_SLASH	122	stimuli_distractor_diamondtriangles.svg	stimuli_target_squarediamonds.svg	16	yes	57	0	347	6	2	antiphase_hc_ios.wav	3	6	6	noise_calib_stim_RIGHT.wav	2	27	blb_dichoticlistening_pa-ga.mp3	pa	ga	1	left
6.6.1	win	2023-07-06	22:22:09	22:35:34	799136	5ab10212fb22320001bacdfe	1	1	main_slash	24	main_slash	123	stimuli_target_trianglesquares.svg	stimuli_distractor_diamondtriangles.svg	22	yes	53	1	342	6	2	antiphase_hc_ios.wav	3	6	6	noise_calib_stim_RIGHT.wav	2	27	blb_dichoticlistening_pa-ga.mp3	pa	ga	1	left
6.6.1	win	2023-07-06	22:22:09	22:35:34	799136	5ab10212fb22320001bacdfe	1	1	main_slash	24	advance_on_keypress_SLASH	124	stimuli_target_trianglesquares.svg	stimuli_distractor_diamondtriangles.svg	22	yes	57	0	455	6	2	antiphase_hc_ios.wav	3	6	6	noise_calib_stim_RIGHT.wav	2	27	blb_dichoticlistening_pa-ga.mp3	pa	ga	1	left
6.6.1	win	2023-07-06	22:22:09	22:35:36	800541	5ab10212fb22320001bacdfe	1	1	main_slash	24	main_slash	125	stimuli_distractor_trianglediamonds.svg	stimuli_target_trianglesquares.svg	26	yes	53	1	306	6	2	antiphase_hc_ios.wav	3	6	6	noise_calib_stim_RIGHT.wav	2	27	blb_dichoticlistening_pa-ga.mp3	pa	ga	1	left
6.6.1	win	2023-07-06	22:22:09	22:35:36	800541	5ab10212fb22320001bacdfe	1	1	main_slash	24	advance_on_keypress_SLASH	126	stimuli_distractor_trianglediamonds.svg	stimuli_target_trianglesquares.svg	26	yes	57	0	339	6	2	antiphase_hc_ios.wav	3	6	6	noise_calib_stim_RIGHT.wav	2	27	blb_dichoticlistening_pa-ga.mp3	pa	ga	1	left
6.6.1	win	2023-07-06	22:22:09	22:35:37	801919	5ab10212fb22320001bacdfe	1	1	main_slash	24	main_slash	127	stimuli_target_squarediamonds.svg	stimuli_distractor_trianglediamonds.svg	4	yes	53	1	390	6	2	antiphase_hc_ios.wav	3	6	6	noise_calib_stim_RIGHT.wav	2	27	blb_dichoticlistening_pa-ga.mp3	pa	ga	1	left
6.6.1	win	2023-07-06	22:22:09	22:35:37	801919	5ab10212fb22320001bacdfe	1	1	main_slash	24	advance_on_keypress_SLASH	128	stimuli_target_squarediamonds.svg	stimuli_distractor_trianglediamonds.svg	4	yes	57	0	349	6	2	antiphase_hc_ios.wav	3	6	6	noise_calib_stim_RIGHT.wav	2	27	blb_dichoticlistening_pa-ga.mp3	pa	ga	1	left
6.6.1	win	2023-07-06	22:22:09	22:35:38	803432	5ab10212fb22320001bacdfe	1	1	main_slash	24	main_slash	129	stimuli_target_rectangletriangles.svg	stimuli_distractor_diamondtriangles.svg	5	yes	53	1	518	6	2	antiphase_hc_ios.wav	3	6	6	noise_calib_stim_RIGHT.wav	2	27	blb_dichoticlistening_pa-ga.mp3	pa	ga	1	left
6.6.1	win	2023-07-06	22:22:09	22:35:38	803432	5ab10212fb22320001bacdfe	1	1	main_slash	24	advance_on_keypress_SLASH	130	stimuli_target_rectangletriangles.svg	stimuli_distractor_diamondtriangles.svg	5	yes	57	0	342	6	2	antiphase_hc_ios.wav	3	6	6	noise_calib_stim_RIGHT.wav	2	27	blb_dichoticlistening_pa-ga.mp3	pa	ga	1	left
6.6.1	win	2023-07-06	22:22:09	22:35:41	806424	5ab10212fb22320001bacdfe	1	1	main_slash	24	main_slash	131	stimuli_distractor_trianglediamonds.svg	stimuli_distractor_trianglediamonds.svg	33	no	0	1	2000	6	2	antiphase_hc_ios.wav	3	6	6	noise_calib_stim_RIGHT.wav	2	27	blb_dichoticlistening_pa-ga.mp3	pa	ga	1	left
6.6.1	win	2023-07-06	22:22:09	22:35:41	806424	5ab10212fb22320001bacdfe	1	1	main_slash	24	advance_on_keypress_SLASH	132	stimuli_distractor_trianglediamonds.svg	stimuli_distractor_trianglediamonds.svg	33	no	57	0	1633	6	2	antiphase_hc_ios.wav	3	6	6	noise_calib_stim_RIGHT.wav	2	27	blb_dichoticlistening_pa-ga.mp3	pa	ga	1	left
6.6.1	win	2023-07-06	22:22:09	22:35:44	809020	5ab10212fb22320001bacdfe	1	1	main_slash	24	main_slash	133	stimuli_target_squaretriangles.svg	stimuli_distractor_trianglediamonds.svg	3	yes	53	1	319	6	2	antiphase_hc_ios.wav	3	6	6	noise_calib_stim_RIGHT.wav	2	27	blb_dichoticlistening_pa-ga.mp3	pa	ga	1	left
6.6.1	win	2023-07-06	22:22:09	22:35:44	809020	5ab10212fb22320001bacdfe	1	1	main_slash	24	advance_on_keypress_SLASH	134	stimuli_target_squaretriangles.svg	stimuli_distractor_trianglediamonds.svg	3	yes	57	0	352	6	2	antiphase_hc_ios.wav	3	6	6	noise_calib_stim_RIGHT.wav	2	27	blb_dichoticlistening_pa-ga.mp3	pa	ga	1	left
6.6.1	win	2023-07-06	22:22:09	22:35:45	810437	5ab10212fb22320001bacdfe	1	1	main_slash	24	main_slash	135	stimuli_target_diamondrectangles.svg	stimuli_distractor_diamondtriangles.svg	23	yes	53	1	417	6	2	antiphase_hc_ios.wav	3	6	6	noise_calib_stim_RIGHT.wav	2	27	blb_dichoticlistening_pa-ga.mp3	pa	ga	1	left
6.6.1	win	2023-07-06	22:22:09	22:35:45	810437	5ab10212fb22320001bacdfe	1	1	main_slash	24	advance_on_keypress_SLASH	136	stimuli_target_diamondrectangles.svg	stimuli_distractor_diamondtriangles.svg	23	yes	57	0	320	6	2	antiphase_hc_ios.wav	3	6	6	noise_calib_stim_RIGHT.wav	2	27	blb_dichoticlistening_pa-ga.mp3	pa	ga	1	left
6.6.1	win	2023-07-06	22:22:09	22:35:48	813412	5ab10212fb22320001bacdfe	1	1	main_slash	24	main_slash	137	stimuli_distractor_trianglediamonds.svg	stimuli_distractor_diamondtriangles.svg	35	no	0	1	2000	6	2	antiphase_hc_ios.wav	3	6	6	noise_calib_stim_RIGHT.wav	2	27	blb_dichoticlistening_pa-ga.mp3	pa	ga	1	left
6.6.1	win	2023-07-06	22:22:09	22:35:48	813412	5ab10212fb22320001bacdfe	1	1	main_slash	24	advance_on_keypress_SLASH	138	stimuli_distractor_trianglediamonds.svg	stimuli_distractor_diamondtriangles.svg	35	no	57	0	417	6	2	antiphase_hc_ios.wav	3	6	6	noise_calib_stim_RIGHT.wav	2	27	blb_dichoticlistening_pa-ga.mp3	pa	ga	1	left
6.6.1	win	2023-07-06	22:22:09	22:35:50	814925	5ab10212fb22320001bacdfe	1	1	main_slash	24	main_slash	139	stimuli_target_diamondsquares.svg	stimuli_distractor_diamondtriangles.svg	24	yes	53	1	451	6	2	antiphase_hc_ios.wav	3	6	6	noise_calib_stim_RIGHT.wav	2	27	blb_dichoticlistening_pa-ga.mp3	pa	ga	1	left
6.6.1	win	2023-07-06	22:22:09	22:35:50	814925	5ab10212fb22320001bacdfe	1	1	main_slash	24	advance_on_keypress_SLASH	140	stimuli_target_diamondsquares.svg	stimuli_distractor_diamondtriangles.svg	24	yes	57	0	341	6	2	antiphase_hc_ios.wav	3	6	6	noise_calib_stim_RIGHT.wav	2	27	blb_dichoticlistening_pa-ga.mp3	pa	ga	1	left
6.6.1	win	2023-07-06	22:22:09	22:35:51	816315	5ab10212fb22320001bacdfe	1	1	main_slash	24	main_slash	141	stimuli_distractor_diamondtriangles.svg	stimuli_target_diamondsquares.svg	32	yes	53	1	400	6	2	antiphase_hc_ios.wav	3	6	6	noise_calib_stim_RIGHT.wav	2	27	blb_dichoticlistening_pa-ga.mp3	pa	ga	1	left
6.6.1	win	2023-07-06	22:22:09	22:35:51	816315	5ab10212fb22320001bacdfe	1	1	main_slash	24	advance_on_keypress_SLASH	142	stimuli_distractor_diamondtriangles.svg	stimuli_target_diamondsquares.svg	32	yes	57	0	438	6	2	antiphase_hc_ios.wav	3	6	6	noise_calib_stim_RIGHT.wav	2	27	blb_dichoticlistening_pa-ga.mp3	pa	ga	1	left
6.6.1	win	2023-07-06	22:22:09	22:35:53	817674	5ab10212fb22320001bacdfe	1	1	main_slash	24	main_slash	143	stimuli_distractor_trianglediamonds.svg	stimuli_target_diamondrectangles.svg	27	yes	53	1	270	6	2	antiphase_hc_ios.wav	3	6	6	noise_calib_stim_RIGHT.wav	2	27	blb_dichoticlistening_pa-ga.mp3	pa	ga	1	left
6.6.1	win	2023-07-06	22:22:09	22:35:53	817674	5ab10212fb22320001bacdfe	1	1	main_slash	24	advance_on_keypress_SLASH	144	stimuli_distractor_trianglediamonds.svg	stimuli_target_diamondrectangles.svg	27	yes	57	0	359	6	2	antiphase_hc_ios.wav	3	6	6	noise_calib_stim_RIGHT.wav	2	27	blb_dichoticlistening_pa-ga.mp3	pa	ga	1	left
6.6.1	win	2023-07-06	22:22:09	22:35:54	819027	5ab10212fb22320001bacdfe	1	1	main_slash	24	main_slash	145	stimuli_target_rectanglediamonds.svg	stimuli_distractor_diamondtriangles.svg	6	yes	53	1	348	6	2	antiphase_hc_ios.wav	3	6	6	noise_calib_stim_RIGHT.wav	2	27	blb_dichoticlistening_pa-ga.mp3	pa	ga	1	left
6.6.1	win	2023-07-06	22:22:09	22:35:54	819027	5ab10212fb22320001bacdfe	1	1	main_slash	24	advance_on_keypress_SLASH	146	stimuli_target_rectanglediamonds.svg	stimuli_distractor_diamondtriangles.svg	6	yes	57	0	391	6	2	antiphase_hc_ios.wav	3	6	6	noise_calib_stim_RIGHT.wav	2	27	blb_dichoticlistening_pa-ga.mp3	pa	ga	1	left
6.6.1	win	2023-07-06	22:22:09	22:35:57	822065	5ab10212fb22320001bacdfe	1	1	main_slash	24	main_slash	147	stimuli_distractor_diamondtriangles.svg	stimuli_distractor_trianglediamonds.svg	37	no	0	1	2000	6	2	antiphase_hc_ios.wav	3	6	6	noise_calib_stim_RIGHT.wav	2	27	blb_dichoticlistening_pa-ga.mp3	pa	ga	1	left
6.6.1	win	2023-07-06	22:22:09	22:35:57	822065	5ab10212fb22320001bacdfe	1	1	main_slash	24	advance_on_keypress_SLASH	148	stimuli_distractor_diamondtriangles.svg	stimuli_distractor_trianglediamonds.svg	37	no	57	0	1262	6	2	antiphase_hc_ios.wav	3	6	6	noise_calib_stim_RIGHT.wav	2	27	blb_dichoticlistening_pa-ga.mp3	pa	ga	1	left
6.6.1	win	2023-07-06	22:22:09	22:36:01	825969	5ab10212fb22320001bacdfe	1	1	main_slash	24	main_slash	149	stimuli_distractor_diamondtriangles.svg	stimuli_distractor_diamondtriangles.svg	40	no	0	1	2000	6	2	antiphase_hc_ios.wav	3	6	6	noise_calib_stim_RIGHT.wav	2	27	blb_dichoticlistening_pa-ga.mp3	pa	ga	1	left
6.6.1	win	2023-07-06	22:22:09	22:36:01	825969	5ab10212fb22320001bacdfe	1	1	main_slash	24	advance_on_keypress_SLASH	150	stimuli_distractor_diamondtriangles.svg	stimuli_distractor_diamondtriangles.svg	40	no	57	0	330	6	2	antiphase_hc_ios.wav	3	6	6	noise_calib_stim_RIGHT.wav	2	27	blb_dichoticlistening_pa-ga.mp3	pa	ga	1	left
6.6.1	win	2023-07-06	22:22:09	22:36:04	828946	5ab10212fb22320001bacdfe	1	1	main_slash	24	main_slash	151	stimuli_distractor_diamondtriangles.svg	stimuli_distractor_trianglediamonds.svg	38	no	0	1	2000	6	2	antiphase_hc_ios.wav	3	6	6	noise_calib_stim_RIGHT.wav	2	27	blb_dichoticlistening_pa-ga.mp3	pa	ga	1	left
6.6.1	win	2023-07-06	22:22:09	22:36:04	828946	5ab10212fb22320001bacdfe	1	1	main_slash	24	advance_on_keypress_SLASH	152	stimuli_distractor_diamondtriangles.svg	stimuli_distractor_trianglediamonds.svg	38	no	57	0	312	6	2	antiphase_hc_ios.wav	3	6	6	noise_calib_stim_RIGHT.wav	2	27	blb_dichoticlistening_pa-ga.mp3	pa	ga	1	left
6.6.1	win	2023-07-06	22:22:09	22:36:05	830294	5ab10212fb22320001bacdfe	1	1	main_slash	24	main_slash	153	stimuli_distractor_diamondtriangles.svg	stimuli_target_rectangletriangles.svg	13	yes	53	1	388	6	2	antiphase_hc_ios.wav	3	6	6	noise_calib_stim_RIGHT.wav	2	27	blb_dichoticlistening_pa-ga.mp3	pa	ga	1	left
6.6.1	win	2023-07-06	22:22:09	22:36:05	830294	5ab10212fb22320001bacdfe	1	1	main_slash	24	advance_on_keypress_SLASH	154	stimuli_distractor_diamondtriangles.svg	stimuli_target_rectangletriangles.svg	13	yes	57	0	485	6	2	antiphase_hc_ios.wav	3	6	6	noise_calib_stim_RIGHT.wav	2	27	blb_dichoticlistening_pa-ga.mp3	pa	ga	1	left
6.6.1	win	2023-07-06	22:22:09	22:36:07	831789	5ab10212fb22320001bacdfe	1	1	main_slash	24	main_slash	155	stimuli_target_diamondsquares.svg	stimuli_distractor_trianglediamonds.svg	20	yes	53	1	367	6	2	antiphase_hc_ios.wav	3	6	6	noise_calib_stim_RIGHT.wav	2	27	blb_dichoticlistening_pa-ga.mp3	pa	ga	1	left
6.6.1	win	2023-07-06	22:22:09	22:36:07	831789	5ab10212fb22320001bacdfe	1	1	main_slash	24	advance_on_keypress_SLASH	156	stimuli_target_diamondsquares.svg	stimuli_distractor_trianglediamonds.svg	20	yes	57	0	353	6	2	antiphase_hc_ios.wav	3	6	6	noise_calib_stim_RIGHT.wav	2	27	blb_dichoticlistening_pa-ga.mp3	pa	ga	1	left
6.6.1	win	2023-07-06	22:22:09	22:36:08	833108	5ab10212fb22320001bacdfe	1	1	main_slash	24	main_slash	157	stimuli_distractor_trianglediamonds.svg	stimuli_target_trianglerectangles.svg	25	yes	53	1	329	6	2	antiphase_hc_ios.wav	3	6	6	noise_calib_stim_RIGHT.wav	2	27	blb_dichoticlistening_pa-ga.mp3	pa	ga	1	left
6.6.1	win	2023-07-06	22:22:09	22:36:08	833108	5ab10212fb22320001bacdfe	1	1	main_slash	24	advance_on_keypress_SLASH	158	stimuli_distractor_trianglediamonds.svg	stimuli_target_trianglerectangles.svg	25	yes	57	0	349	6	2	antiphase_hc_ios.wav	3	6	6	noise_calib_stim_RIGHT.wav	2	27	blb_dichoticlistening_pa-ga.mp3	pa	ga	1	left
6.6.1	win	2023-07-06	22:22:09	22:36:09	834423	5ab10212fb22320001bacdfe	1	1	main_slash	24	main_slash	159	stimuli_target_rectanglediamonds.svg	stimuli_distractor_trianglediamonds.svg	2	yes	53	1	322	6	2	antiphase_hc_ios.wav	3	6	6	noise_calib_stim_RIGHT.wav	2	27	blb_dichoticlistening_pa-ga.mp3	pa	ga	1	left
6.6.1	win	2023-07-06	22:22:09	22:36:09	834423	5ab10212fb22320001bacdfe	1	1	main_slash	24	advance_on_keypress_SLASH	160	stimuli_target_rectanglediamonds.svg	stimuli_distractor_trianglediamonds.svg	2	yes	57	0	363	6	2	antiphase_hc_ios.wav	3	6	6	noise_calib_stim_RIGHT.wav	2	27	blb_dichoticlistening_pa-ga.mp3	pa	ga	1	left
6.6.1	win	2023-07-06	22:22:09	22:36:30	855403	5ab10212fb22320001bacdfe	1	1	practice_z	26	practice_z	1	stimuli_target_rectanglediamonds.svg	stimuli_distractor_diamondtriangles.svg	1	yes	44	1	397	6	2	antiphase_hc_ios.wav	3	6	6	noise_calib_stim_RIGHT.wav	2	27	blb_dichoticlistening_pa-ga.mp3	pa	ga	1	left
6.6.1	win	2023-07-06	22:22:09	22:36:30	855403	5ab10212fb22320001bacdfe	1	1	practice_z	26	advance_on_keypress_ZEE	2	stimuli_target_rectanglediamonds.svg	stimuli_distractor_diamondtriangles.svg	1	yes	57	0	995	6	2	antiphase_hc_ios.wav	3	6	6	noise_calib_stim_RIGHT.wav	2	27	blb_dichoticlistening_pa-ga.mp3	pa	ga	1	left
6.6.1	win	2023-07-06	22:22:09	22:36:33	858325	5ab10212fb22320001bacdfe	1	1	practice_z	26	practice_z	3	stimuli_distractor_diamondtriangles.svg	stimuli_distractor_trianglediamonds.svg	14	no	44	0	280	6	2	antiphase_hc_ios.wav	3	6	6	noise_calib_stim_RIGHT.wav	2	27	blb_dichoticlistening_pa-ga.mp3	pa	ga	1	left
6.6.1	win	2023-07-06	22:22:09	22:36:33	858325	5ab10212fb22320001bacdfe	1	1	practice_z	26	advance_on_keypress_ZEE	4	stimuli_distractor_diamondtriangles.svg	stimuli_distractor_trianglediamonds.svg	14	no	57	0	1007	6	2	antiphase_hc_ios.wav	3	6	6	noise_calib_stim_RIGHT.wav	2	27	blb_dichoticlistening_pa-ga.mp3	pa	ga	1	left
6.6.1	win	2023-07-06	22:22:09	22:36:38	862980	5ab10212fb22320001bacdfe	1	1	practice_z	26	practice_z	5	stimuli_distractor_trianglediamonds.svg	stimuli_distractor_diamondtriangles.svg	16	no	0	1	2000	6	2	antiphase_hc_ios.wav	3	6	6	noise_calib_stim_RIGHT.wav	2	27	blb_dichoticlistening_pa-ga.mp3	pa	ga	1	left
6.6.1	win	2023-07-06	22:22:09	22:36:38	862980	5ab10212fb22320001bacdfe	1	1	practice_z	26	advance_on_keypress_ZEE	6	stimuli_distractor_trianglediamonds.svg	stimuli_distractor_diamondtriangles.svg	16	no	57	0	674	6	2	antiphase_hc_ios.wav	3	6	6	noise_calib_stim_RIGHT.wav	2	27	blb_dichoticlistening_pa-ga.mp3	pa	ga	1	left
6.6.1	win	2023-07-06	22:22:09	22:36:41	865889	5ab10212fb22320001bacdfe	1	1	practice_z	26	practice_z	7	stimuli_target_diamondsquares.svg	stimuli_distractor_diamondtriangles.svg	3	yes	44	1	584	6	2	antiphase_hc_ios.wav	3	6	6	noise_calib_stim_RIGHT.wav	2	27	blb_dichoticlistening_pa-ga.mp3	pa	ga	1	left
6.6.1	win	2023-07-06	22:22:09	22:36:41	865889	5ab10212fb22320001bacdfe	1	1	practice_z	26	advance_on_keypress_ZEE	8	stimuli_target_diamondsquares.svg	stimuli_distractor_diamondtriangles.svg	3	yes	57	0	439	6	2	antiphase_hc_ios.wav	3	6	6	noise_calib_stim_RIGHT.wav	2	27	blb_dichoticlistening_pa-ga.mp3	pa	ga	1	left
6.6.1	win	2023-07-06	22:22:09	22:36:43	868292	5ab10212fb22320001bacdfe	1	1	practice_z	26	practice_z	9	stimuli_target_squarediamonds.svg	stimuli_distractor_diamondtriangles.svg	2	yes	44	1	316	6	2	antiphase_hc_ios.wav	3	6	6	noise_calib_stim_RIGHT.wav	2	27	blb_dichoticlistening_pa-ga.mp3	pa	ga	1	left
6.6.1	win	2023-07-06	22:22:09	22:36:43	868292	5ab10212fb22320001bacdfe	1	1	practice_z	26	advance_on_keypress_ZEE	10	stimuli_target_squarediamonds.svg	stimuli_distractor_diamondtriangles.svg	2	yes	57	0	998	6	2	antiphase_hc_ios.wav	3	6	6	noise_calib_stim_RIGHT.wav	2	27	blb_dichoticlistening_pa-ga.mp3	pa	ga	1	left
6.6.1	win	2023-07-06	22:22:09	22:36:46	871376	5ab10212fb22320001bacdfe	1	1	practice_z	26	practice_z	11	stimuli_target_diamondsquares.svg	stimuli_distractor_trianglediamonds.svg	6	yes	44	1	434	6	2	antiphase_hc_ios.wav	3	6	6	noise_calib_stim_RIGHT.wav	2	27	blb_dichoticlistening_pa-ga.mp3	pa	ga	1	left
6.6.1	win	2023-07-06	22:22:09	22:36:46	871376	5ab10212fb22320001bacdfe	1	1	practice_z	26	advance_on_keypress_ZEE	12	stimuli_target_diamondsquares.svg	stimuli_distractor_trianglediamonds.svg	6	yes	57	0	316	6	2	antiphase_hc_ios.wav	3	6	6	noise_calib_stim_RIGHT.wav	2	27	blb_dichoticlistening_pa-ga.mp3	pa	ga	1	left
6.6.1	win	2023-07-06	22:22:09	22:36:50	875339	5ab10212fb22320001bacdfe	1	1	practice_z	26	practice_z	13	stimuli_distractor_trianglediamonds.svg	stimuli_distractor_trianglediamonds.svg	15	no	0	1	2000	6	2	antiphase_hc_ios.wav	3	6	6	noise_calib_stim_RIGHT.wav	2	27	blb_dichoticlistening_pa-ga.mp3	pa	ga	1	left
6.6.1	win	2023-07-06	22:22:09	22:36:50	875339	5ab10212fb22320001bacdfe	1	1	practice_z	26	advance_on_keypress_ZEE	14	stimuli_distractor_trianglediamonds.svg	stimuli_distractor_trianglediamonds.svg	15	no	57	0	390	6	2	antiphase_hc_ios.wav	3	6	6	noise_calib_stim_RIGHT.wav	2	27	blb_dichoticlistening_pa-ga.mp3	pa	ga	1	left
6.6.1	win	2023-07-06	22:22:09	22:36:53	877787	5ab10212fb22320001bacdfe	1	1	practice_z	26	practice_z	15	stimuli_distractor_diamondtriangles.svg	stimuli_target_rectangletriangles.svg	7	yes	44	1	409	6	2	antiphase_hc_ios.wav	3	6	6	noise_calib_stim_RIGHT.wav	2	27	blb_dichoticlistening_pa-ga.mp3	pa	ga	1	left
