build	computer.platform	date	time	timestamp	time_elapsed_ms	subject	group	session	blockcode	blocknum	trialcode	trialnum	stimulus_left	stimulus_right	stim_index	target_present	response	correct	latency	headphonecheck_countTestTrials	headphonecheck_index	headphonecheck_testSound	headphonecheck_correctResponse	stereocheck_countTestTrials	stereocheck_index	stereocheck_testSound	stereocheck_correctResponse	DL_index	DL_soundfile	DL_leftSound	DL_rightSound	DL_dualSound	DL_choice
6.6.1	mac	2023-06-13	11:18:28	11:25:16	400044	61f2adfaa09e72f23cbaf9da	3	1	practice_slash	5	practice_slash	1	stimuli_distractor_diamondtriangles.svg	stimuli_distractor_diamondtriangles.svg	13	no	0	1	2000	0	0			0	0			1				0	
6.6.1	mac	2023-06-13	11:18:28	11:25:16	400044	61f2adfaa09e72f23cbaf9da	3	1	practice_slash	5	advance_on_keypress_SLASH	2	stimuli_distractor_diamondtriangles.svg	stimuli_distractor_diamondtriangles.svg	13	no	57	0	2990	0	0			0	0			1				0	
6.6.1	mac	2023-06-13	11:18:28	11:25:22	406336	61f2adfaa09e72f23cbaf9da	3	1	practice_slash	5	practice_slash	3	stimuli_target_squarediamonds.svg	stimuli_distractor_diamondtriangles.svg	2	yes	53	1	1660	0	0			0	0			1				0	
6.6.1	mac	2023-06-13	11:18:28	11:25:22	406336	61f2adfaa09e72f23cbaf9da	3	1	practice_slash	5	advance_on_keypress_SLASH	4	stimuli_target_squarediamonds.svg	stimuli_distractor_diamondtriangles.svg	2	yes	57	0	573	0	0			0	0			1				0	
6.6.1	mac	2023-06-13	11:18:28	11:25:26	410192	61f2adfaa09e72f23cbaf9da	3	1	practice_slash	5	practice_slash	5	stimuli_target_rectanglediamonds.svg	stimuli_distractor_trianglediamonds.svg	4	yes	53	1	1652	0	0			0	0			1				0	
6.6.1	mac	2023-06-13	11:18:28	11:25:26	410192	61f2adfaa09e72f23cbaf9da	3	1	practice_slash	5	advance_on_keypress_SLASH	6	stimuli_target_rectanglediamonds.svg	stimuli_distractor_trianglediamonds.svg	4	yes	57	0	406	0	0			0	0			1				0	
6.6.1	mac	2023-06-13	11:18:28	11:25:30	413960	61f2adfaa09e72f23cbaf9da	3	1	practice_slash	5	practice_slash	7	stimuli_target_rectanglediamonds.svg	stimuli_distractor_diamondtriangles.svg	1	yes	53	1	1717	0	0			0	0			1				0	
6.6.1	mac	2023-06-13	11:18:28	11:25:30	413960	61f2adfaa09e72f23cbaf9da	3	1	practice_slash	5	advance_on_keypress_SLASH	8	stimuli_target_rectanglediamonds.svg	stimuli_distractor_diamondtriangles.svg	1	yes	57	0	1568	0	0			0	0			1				0	
6.6.1	mac	2023-06-13	11:18:28	11:25:35	419164	61f2adfaa09e72f23cbaf9da	3	1	practice_slash	5	practice_slash	9	stimuli_target_diamondsquares.svg	stimuli_distractor_diamondtriangles.svg	3	yes	0	0	2000	0	0			0	0			1				0	
6.6.1	mac	2023-06-13	11:18:28	11:25:35	419164	61f2adfaa09e72f23cbaf9da	3	1	practice_slash	5	advance_on_keypress_SLASH	10	stimuli_target_diamondsquares.svg	stimuli_distractor_diamondtriangles.svg	3	yes	57	0	825	0	0			0	0			1				0	
6.6.1	mac	2023-06-13	11:18:28	11:25:39	423071	61f2adfaa09e72f23cbaf9da	3	1	practice_slash	5	practice_slash	11	stimuli_distractor_trianglediamonds.svg	stimuli_target_diamondrectangles.svg	12	yes	53	1	1447	0	0			0	0			1				0	
6.6.1	mac	2023-06-13	11:18:28	11:25:39	423071	61f2adfaa09e72f23cbaf9da	3	1	practice_slash	5	advance_on_keypress_SLASH	12	stimuli_distractor_trianglediamonds.svg	stimuli_target_diamondrectangles.svg	12	yes	57	0	957	0	0			0	0			1				0	
6.6.1	mac	2023-06-13	11:18:28	11:25:42	426823	61f2adfaa09e72f23cbaf9da	3	1	practice_slash	5	practice_slash	13	stimuli_distractor_trianglediamonds.svg	stimuli_target_rectanglediamonds.svg	10	yes	53	1	1160	0	0			0	0			1				0	
6.6.1	mac	2023-06-13	11:18:28	11:25:42	426823	61f2adfaa09e72f23cbaf9da	3	1	practice_slash	5	advance_on_keypress_SLASH	14	stimuli_distractor_trianglediamonds.svg	stimuli_target_rectanglediamonds.svg	10	yes	57	0	844	0	0			0	0			1				0	
6.6.1	mac	2023-06-13	11:18:28	11:25:46	430311	61f2adfaa09e72f23cbaf9da	3	1	practice_slash	5	practice_slash	15	stimuli_distractor_trianglediamonds.svg	stimuli_target_squarediamonds.svg	11	yes	53	1	1011	0	0			0	0			1				0	
6.6.1	mac	2023-06-13	11:18:28	11:25:46	430311	61f2adfaa09e72f23cbaf9da	3	1	practice_slash	5	advance_on_keypress_SLASH	16	stimuli_distractor_trianglediamonds.svg	stimuli_target_squarediamonds.svg	11	yes	57	0	804	0	0			0	0			1				0	
6.6.1	mac	2023-06-13	11:18:28	11:25:50	434757	61f2adfaa09e72f23cbaf9da	3	1	practice_slash	5	practice_slash	17	stimuli_distractor_diamondtriangles.svg	stimuli_distractor_trianglediamonds.svg	14	no	0	1	2000	0	0			0	0			1				0	
6.6.1	mac	2023-06-13	11:18:28	11:25:50	434757	61f2adfaa09e72f23cbaf9da	3	1	practice_slash	5	advance_on_keypress_SLASH	18	stimuli_distractor_diamondtriangles.svg	stimuli_distractor_trianglediamonds.svg	14	no	57	0	630	0	0			0	0			1				0	
6.6.1	mac	2023-06-13	11:18:28	11:25:55	439025	61f2adfaa09e72f23cbaf9da	3	1	practice_slash	5	practice_slash	19	stimuli_distractor_diamondtriangles.svg	stimuli_target_trianglerectangles.svg	9	yes	0	0	2000	0	0			0	0			1				0	
6.6.1	mac	2023-06-13	11:18:28	11:25:55	439025	61f2adfaa09e72f23cbaf9da	3	1	practice_slash	5	advance_on_keypress_SLASH	20	stimuli_distractor_diamondtriangles.svg	stimuli_target_trianglerectangles.svg	9	yes	57	0	741	0	0			0	0			1				0	
6.6.1	mac	2023-06-13	11:18:28	11:25:59	443391	61f2adfaa09e72f23cbaf9da	3	1	practice_slash	5	practice_slash	21	stimuli_target_diamondsquares.svg	stimuli_distractor_trianglediamonds.svg	6	yes	0	0	2000	0	0			0	0			1				0	
6.6.1	mac	2023-06-13	11:18:28	11:25:59	443391	61f2adfaa09e72f23cbaf9da	3	1	practice_slash	5	advance_on_keypress_SLASH	22	stimuli_target_diamondsquares.svg	stimuli_distractor_trianglediamonds.svg	6	yes	57	0	440	0	0			0	0			1				0	
6.6.1	mac	2023-06-13	11:18:28	11:26:03	447470	61f2adfaa09e72f23cbaf9da	3	1	practice_slash	5	practice_slash	23	stimuli_distractor_trianglediamonds.svg	stimuli_distractor_trianglediamonds.svg	15	no	0	1	2000	0	0			0	0			1				0	
6.6.1	mac	2023-06-13	11:18:28	11:26:03	447470	61f2adfaa09e72f23cbaf9da	3	1	practice_slash	5	advance_on_keypress_SLASH	24	stimuli_distractor_trianglediamonds.svg	stimuli_distractor_trianglediamonds.svg	15	no	57	0	601	0	0			0	0			1				0	
6.6.1	mac	2023-06-13	11:18:28	11:26:06	450656	61f2adfaa09e72f23cbaf9da	3	1	practice_slash	5	practice_slash	25	stimuli_distractor_trianglediamonds.svg	stimuli_distractor_diamondtriangles.svg	16	no	53	0	944	0	0			0	0			1				0	
6.6.1	mac	2023-06-13	11:18:28	11:26:06	450656	61f2adfaa09e72f23cbaf9da	3	1	practice_slash	5	advance_on_keypress_SLASH	26	stimuli_distractor_trianglediamonds.svg	stimuli_distractor_diamondtriangles.svg	16	no	57	0	386	0	0			0	0			1				0	
6.6.1	mac	2023-06-13	11:18:28	11:26:09	453568	61f2adfaa09e72f23cbaf9da	3	1	practice_slash	5	practice_slash	27	stimuli_distractor_diamondtriangles.svg	stimuli_target_rectangletriangles.svg	7	yes	53	1	879	0	0			0	0			1				0	
6.6.1	mac	2023-06-13	11:18:28	11:26:09	453568	61f2adfaa09e72f23cbaf9da	3	1	practice_slash	5	advance_on_keypress_SLASH	28	stimuli_distractor_diamondtriangles.svg	stimuli_target_rectangletriangles.svg	7	yes	57	0	489	0	0			0	0			1				0	
6.6.1	mac	2023-06-13	11:18:28	11:26:12	456520	61f2adfaa09e72f23cbaf9da	3	1	practice_slash	5	practice_slash	29	stimuli_target_squarediamonds.svg	stimuli_distractor_trianglediamonds.svg	5	yes	53	1	819	0	0			0	0			1				0	
6.6.1	mac	2023-06-13	11:18:28	11:26:12	456520	61f2adfaa09e72f23cbaf9da	3	1	practice_slash	5	advance_on_keypress_SLASH	30	stimuli_target_squarediamonds.svg	stimuli_distractor_trianglediamonds.svg	5	yes	57	0	345	0	0			0	0			1				0	
6.6.1	mac	2023-06-13	11:18:28	11:26:15	459751	61f2adfaa09e72f23cbaf9da	3	1	practice_slash	5	practice_slash	31	stimuli_distractor_diamondtriangles.svg	stimuli_target_diamondrectangles.svg	8	yes	53	1	1255	0	0			0	0			1				0	
6.6.1	mac	2023-06-13	11:18:28	11:26:15	459751	61f2adfaa09e72f23cbaf9da	3	1	practice_slash	5	advance_on_keypress_SLASH	32	stimuli_distractor_diamondtriangles.svg	stimuli_target_diamondrectangles.svg	8	yes	57	0	390	0	0			0	0			1				0	
6.6.1	mac	2023-06-13	11:18:28	11:26:26	470287	61f2adfaa09e72f23cbaf9da	3	1	main_slash	7	main_slash	1	stimuli_target_squaretriangles.svg	stimuli_distractor_trianglediamonds.svg	3	yes	53	1	694	0	0			0	0			1				0	
6.6.1	mac	2023-06-13	11:18:28	11:26:26	470287	61f2adfaa09e72f23cbaf9da	3	1	main_slash	7	advance_on_keypress_SLASH	2	stimuli_target_squaretriangles.svg	stimuli_distractor_trianglediamonds.svg	3	yes	57	0	1273	0	0			0	0			1				0	
6.6.1	mac	2023-06-13	11:18:28	11:26:29	472959	61f2adfaa09e72f23cbaf9da	3	1	main_slash	7	main_slash	3	stimuli_distractor_trianglediamonds.svg	stimuli_target_rectanglediamonds.svg	10	yes	53	1	767	0	0			0	0			1				0	
6.6.1	mac	2023-06-13	11:18:28	11:26:29	472959	61f2adfaa09e72f23cbaf9da	3	1	main_slash	7	advance_on_keypress_SLASH	4	stimuli_distractor_trianglediamonds.svg	stimuli_target_rectanglediamonds.svg	10	yes	57	0	782	0	0			0	0			1				0	
6.6.1	mac	2023-06-13	11:18:28	11:26:32	476381	61f2adfaa09e72f23cbaf9da	3	1	main_slash	7	main_slash	5	stimuli_distractor_trianglediamonds.svg	stimuli_target_diamondsquares.svg	28	yes	0	0	2000	0	0			0	0			1				0	
6.6.1	mac	2023-06-13	11:18:28	11:26:32	476381	61f2adfaa09e72f23cbaf9da	3	1	main_slash	7	advance_on_keypress_SLASH	6	stimuli_distractor_trianglediamonds.svg	stimuli_target_diamondsquares.svg	28	yes	57	0	679	0	0			0	0			1				0	
6.6.1	mac	2023-06-13	11:18:28	11:26:35	479701	61f2adfaa09e72f23cbaf9da	3	1	main_slash	7	main_slash	7	stimuli_distractor_diamondtriangles.svg	stimuli_target_trianglesquares.svg	30	yes	0	0	2000	0	0			0	0			1				0	
6.6.1	mac	2023-06-13	11:18:28	11:26:35	479701	61f2adfaa09e72f23cbaf9da	3	1	main_slash	7	advance_on_keypress_SLASH	8	stimuli_distractor_diamondtriangles.svg	stimuli_target_trianglesquares.svg	30	yes	57	0	529	0	0			0	0			1				0	
6.6.1	mac	2023-06-13	11:18:28	11:26:37	481393	61f2adfaa09e72f23cbaf9da	3	1	main_slash	7	main_slash	9	stimuli_distractor_diamondtriangles.svg	stimuli_target_squarediamonds.svg	16	yes	53	1	529	0	0			0	0			1				0	
6.6.1	mac	2023-06-13	11:18:28	11:26:37	481393	61f2adfaa09e72f23cbaf9da	3	1	main_slash	7	advance_on_keypress_SLASH	10	stimuli_distractor_diamondtriangles.svg	stimuli_target_squarediamonds.svg	16	yes	57	0	1131	0	0			0	0			1				0	
6.6.1	mac	2023-06-13	11:18:28	11:26:40	484087	61f2adfaa09e72f23cbaf9da	3	1	main_slash	7	main_slash	11	stimuli_distractor_diamondtriangles.svg	stimuli_target_rectangletriangles.svg	13	yes	53	1	927	0	0			0	0			1				0	
6.6.1	mac	2023-06-13	11:18:28	11:26:40	484087	61f2adfaa09e72f23cbaf9da	3	1	main_slash	7	advance_on_keypress_SLASH	12	stimuli_distractor_diamondtriangles.svg	stimuli_target_rectangletriangles.svg	13	yes	57	0	1180	0	0			0	0			1				0	
6.6.1	mac	2023-06-13	11:18:28	11:26:42	486767	61f2adfaa09e72f23cbaf9da	3	1	main_slash	7	main_slash	13	stimuli_distractor_diamondtriangles.svg	stimuli_target_squaretriangles.svg	15	yes	53	1	862	0	0			0	0			1				0	
6.6.1	mac	2023-06-13	11:18:28	11:26:42	486767	61f2adfaa09e72f23cbaf9da	3	1	main_slash	7	advance_on_keypress_SLASH	14	stimuli_distractor_diamondtriangles.svg	stimuli_target_squaretriangles.svg	15	yes	57	0	940	0	0			0	0			1				0	
6.6.1	mac	2023-06-13	11:18:28	11:26:45	489199	61f2adfaa09e72f23cbaf9da	3	1	main_slash	7	main_slash	15	stimuli_target_squaretriangles.svg	stimuli_distractor_diamondtriangles.svg	7	yes	53	1	863	0	0			0	0			1				0	
6.6.1	mac	2023-06-13	11:18:28	11:26:45	489199	61f2adfaa09e72f23cbaf9da	3	1	main_slash	7	advance_on_keypress_SLASH	16	stimuli_target_squaretriangles.svg	stimuli_distractor_diamondtriangles.svg	7	yes	57	0	830	0	0			0	0			1				0	
6.6.1	mac	2023-06-13	11:18:28	11:26:47	491503	61f2adfaa09e72f23cbaf9da	3	1	main_slash	7	main_slash	17	stimuli_target_squarediamonds.svg	stimuli_distractor_diamondtriangles.svg	8	yes	53	1	840	0	0			0	0			1				0	
6.6.1	mac	2023-06-13	11:18:28	11:26:47	491503	61f2adfaa09e72f23cbaf9da	3	1	main_slash	7	advance_on_keypress_SLASH	18	stimuli_target_squarediamonds.svg	stimuli_distractor_diamondtriangles.svg	8	yes	57	0	711	0	0			0	0			1				0	
6.6.1	mac	2023-06-13	11:18:28	11:26:50	494857	61f2adfaa09e72f23cbaf9da	3	1	main_slash	7	main_slash	19	stimuli_target_diamondsquares.svg	stimuli_distractor_trianglediamonds.svg	20	yes	0	0	2000	0	0			0	0			1				0	
6.6.1	mac	2023-06-13	11:18:28	11:26:50	494857	61f2adfaa09e72f23cbaf9da	3	1	main_slash	7	advance_on_keypress_SLASH	20	stimuli_target_diamondsquares.svg	stimuli_distractor_trianglediamonds.svg	20	yes	57	0	699	0	0			0	0			1				0	
6.6.1	mac	2023-06-13	11:18:28	11:26:53	497207	61f2adfaa09e72f23cbaf9da	3	1	main_slash	7	main_slash	21	stimuli_distractor_diamondtriangles.svg	stimuli_distractor_diamondtriangles.svg	39	no	53	0	1011	0	0			0	0			1				0	
6.6.1	mac	2023-06-13	11:18:28	11:26:53	497207	61f2adfaa09e72f23cbaf9da	3	1	main_slash	7	advance_on_keypress_SLASH	22	stimuli_distractor_diamondtriangles.svg	stimuli_distractor_diamondtriangles.svg	39	no	57	0	724	0	0			0	0			1				0	
6.6.1	mac	2023-06-13	11:18:28	11:26:56	500556	61f2adfaa09e72f23cbaf9da	3	1	main_slash	7	main_slash	23	stimuli_distractor_trianglediamonds.svg	stimuli_distractor_diamondtriangles.svg	35	no	0	1	2000	0	0			0	0			1				0	
6.6.1	mac	2023-06-13	11:18:28	11:26:56	500556	61f2adfaa09e72f23cbaf9da	3	1	main_slash	7	advance_on_keypress_SLASH	24	stimuli_distractor_trianglediamonds.svg	stimuli_distractor_diamondtriangles.svg	35	no	57	0	707	0	0			0	0			1				0	
6.6.1	mac	2023-06-13	11:18:28	11:26:59	503889	61f2adfaa09e72f23cbaf9da	3	1	main_slash	7	main_slash	25	stimuli_target_trianglerectangles.svg	stimuli_distractor_trianglediamonds.svg	17	yes	0	0	2000	0	0			0	0			1				0	
6.6.1	mac	2023-06-13	11:18:28	11:26:59	503889	61f2adfaa09e72f23cbaf9da	3	1	main_slash	7	advance_on_keypress_SLASH	26	stimuli_target_trianglerectangles.svg	stimuli_distractor_trianglediamonds.svg	17	yes	57	0	544	0	0			0	0			1				0	
6.6.1	mac	2023-06-13	11:18:28	11:27:01	505895	61f2adfaa09e72f23cbaf9da	3	1	main_slash	7	main_slash	27	stimuli_distractor_diamondtriangles.svg	stimuli_distractor_diamondtriangles.svg	40	no	53	0	822	0	0			0	0			1				0	
6.6.1	mac	2023-06-13	11:18:28	11:27:01	505895	61f2adfaa09e72f23cbaf9da	3	1	main_slash	7	advance_on_keypress_SLASH	28	stimuli_distractor_diamondtriangles.svg	stimuli_distractor_diamondtriangles.svg	40	no	57	0	1273	0	0			0	0			1				0	
6.6.1	mac	2023-06-13	11:18:28	11:27:05	509103	61f2adfaa09e72f23cbaf9da	3	1	main_slash	7	main_slash	29	stimuli_distractor_trianglediamonds.svg	stimuli_target_diamondrectangles.svg	27	yes	53	1	1287	0	0			0	0			1				0	
6.6.1	mac	2023-06-13	11:18:28	11:27:05	509103	61f2adfaa09e72f23cbaf9da	3	1	main_slash	7	advance_on_keypress_SLASH	30	stimuli_distractor_trianglediamonds.svg	stimuli_target_diamondrectangles.svg	27	yes	57	0	911	0	0			0	0			1				0	
6.6.1	mac	2023-06-13	11:18:28	11:27:08	512642	61f2adfaa09e72f23cbaf9da	3	1	main_slash	7	main_slash	31	stimuli_distractor_trianglediamonds.svg	stimuli_distractor_trianglediamonds.svg	34	no	0	1	2000	0	0			0	0			1				0	
6.6.1	mac	2023-06-13	11:18:28	11:27:08	512642	61f2adfaa09e72f23cbaf9da	3	1	main_slash	7	advance_on_keypress_SLASH	32	stimuli_distractor_trianglediamonds.svg	stimuli_distractor_trianglediamonds.svg	34	no	57	0	505	0	0			0	0			1				0	
6.6.1	mac	2023-06-13	11:18:28	11:27:10	514831	61f2adfaa09e72f23cbaf9da	3	1	main_slash	7	main_slash	33	stimuli_target_trianglesquares.svg	stimuli_distractor_diamondtriangles.svg	22	yes	53	1	1048	0	0			0	0			1				0	
6.6.1	mac	2023-06-13	11:18:28	11:27:10	514831	61f2adfaa09e72f23cbaf9da	3	1	main_slash	7	advance_on_keypress_SLASH	34	stimuli_target_trianglesquares.svg	stimuli_distractor_diamondtriangles.svg	22	yes	57	0	1165	0	0			0	0			1				0	
6.6.1	mac	2023-06-13	11:18:28	11:27:13	517583	61f2adfaa09e72f23cbaf9da	3	1	main_slash	7	main_slash	35	stimuli_distractor_diamondtriangles.svg	stimuli_target_diamondrectangles.svg	31	yes	53	1	956	0	0			0	0			1				0	
6.6.1	mac	2023-06-13	11:18:28	11:27:13	517583	61f2adfaa09e72f23cbaf9da	3	1	main_slash	7	advance_on_keypress_SLASH	36	stimuli_distractor_diamondtriangles.svg	stimuli_target_diamondrectangles.svg	31	yes	57	0	1036	0	0			0	0			1				0	
6.6.1	mac	2023-06-13	11:18:28	11:27:16	520135	61f2adfaa09e72f23cbaf9da	3	1	main_slash	7	main_slash	37	stimuli_distractor_diamondtriangles.svg	stimuli_target_rectanglediamonds.svg	14	yes	53	1	884	0	0			0	0			1				0	
6.6.1	mac	2023-06-13	11:18:28	11:27:16	520135	61f2adfaa09e72f23cbaf9da	3	1	main_slash	7	advance_on_keypress_SLASH	38	stimuli_distractor_diamondtriangles.svg	stimuli_target_rectanglediamonds.svg	14	yes	57	0	1011	0	0			0	0			1				0	
6.6.1	mac	2023-06-13	11:18:28	11:27:18	522527	61f2adfaa09e72f23cbaf9da	3	1	main_slash	7	main_slash	39	stimuli_distractor_trianglediamonds.svg	stimuli_target_squaretriangles.svg	11	yes	53	1	745	0	0			0	0			1				0	
6.6.1	mac	2023-06-13	11:18:28	11:27:18	522527	61f2adfaa09e72f23cbaf9da	3	1	main_slash	7	advance_on_keypress_SLASH	40	stimuli_distractor_trianglediamonds.svg	stimuli_target_squaretriangles.svg	11	yes	57	0	1014	0	0			0	0			1				0	
6.6.1	mac	2023-06-13	11:18:28	11:27:22	526175	61f2adfaa09e72f23cbaf9da	3	1	main_slash	7	main_slash	41	stimuli_distractor_trianglediamonds.svg	stimuli_target_trianglesquares.svg	26	yes	0	0	2000	0	0			0	0			1				0	
6.6.1	mac	2023-06-13	11:18:28	11:27:22	526175	61f2adfaa09e72f23cbaf9da	3	1	main_slash	7	advance_on_keypress_SLASH	42	stimuli_distractor_trianglediamonds.svg	stimuli_target_trianglesquares.svg	26	yes	57	0	544	0	0			0	0			1				0	
6.6.1	mac	2023-06-13	11:18:28	11:27:24	528153	61f2adfaa09e72f23cbaf9da	3	1	main_slash	7	main_slash	43	stimuli_distractor_diamondtriangles.svg	stimuli_target_diamondsquares.svg	32	yes	53	1	807	0	0			0	0			1				0	
6.6.1	mac	2023-06-13	11:18:28	11:27:24	528153	61f2adfaa09e72f23cbaf9da	3	1	main_slash	7	advance_on_keypress_SLASH	44	stimuli_distractor_diamondtriangles.svg	stimuli_target_diamondsquares.svg	32	yes	57	0	922	0	0			0	0			1				0	
6.6.1	mac	2023-06-13	11:18:28	11:27:26	530655	61f2adfaa09e72f23cbaf9da	3	1	main_slash	7	main_slash	45	stimuli_target_rectanglediamonds.svg	stimuli_distractor_diamondtriangles.svg	6	yes	53	1	951	0	0			0	0			1				0	
6.6.1	mac	2023-06-13	11:18:28	11:27:26	530655	61f2adfaa09e72f23cbaf9da	3	1	main_slash	7	advance_on_keypress_SLASH	46	stimuli_target_rectanglediamonds.svg	stimuli_distractor_diamondtriangles.svg	6	yes	57	0	835	0	0			0	0			1				0	
6.6.1	mac	2023-06-13	11:18:28	11:27:30	534113	61f2adfaa09e72f23cbaf9da	3	1	main_slash	7	main_slash	47	stimuli_distractor_trianglediamonds.svg	stimuli_distractor_trianglediamonds.svg	33	no	0	1	2000	0	0			0	0			1				0	
6.6.1	mac	2023-06-13	11:18:28	11:27:30	534113	61f2adfaa09e72f23cbaf9da	3	1	main_slash	7	advance_on_keypress_SLASH	48	stimuli_distractor_trianglediamonds.svg	stimuli_distractor_trianglediamonds.svg	33	no	57	0	1172	0	0			0	0			1				0	
6.6.1	mac	2023-06-13	11:18:28	11:27:32	536863	61f2adfaa09e72f23cbaf9da	3	1	main_slash	7	main_slash	49	stimuli_target_diamondrectangles.svg	stimuli_distractor_diamondtriangles.svg	23	yes	53	1	946	0	0			0	0			1				0	
6.6.1	mac	2023-06-13	11:18:28	11:27:32	536863	61f2adfaa09e72f23cbaf9da	3	1	main_slash	7	advance_on_keypress_SLASH	50	stimuli_target_diamondrectangles.svg	stimuli_distractor_diamondtriangles.svg	23	yes	57	0	909	0	0			0	0			1				0	
6.6.1	mac	2023-06-13	11:18:28	11:27:35	539344	61f2adfaa09e72f23cbaf9da	3	1	main_slash	7	main_slash	51	stimuli_target_rectangletriangles.svg	stimuli_distractor_diamondtriangles.svg	5	yes	53	1	920	0	0			0	0			1				0	
6.6.1	mac	2023-06-13	11:18:28	11:27:35	539344	61f2adfaa09e72f23cbaf9da	3	1	main_slash	7	advance_on_keypress_SLASH	52	stimuli_target_rectangletriangles.svg	stimuli_distractor_diamondtriangles.svg	5	yes	57	0	742	0	0			0	0			1				0	
6.6.1	mac	2023-06-13	11:18:28	11:27:37	541591	61f2adfaa09e72f23cbaf9da	3	1	main_slash	7	main_slash	53	stimuli_target_trianglerectangles.svg	stimuli_distractor_diamondtriangles.svg	21	yes	53	1	857	0	0			0	0			1				0	
6.6.1	mac	2023-06-13	11:18:28	11:27:37	541591	61f2adfaa09e72f23cbaf9da	3	1	main_slash	7	advance_on_keypress_SLASH	54	stimuli_target_trianglerectangles.svg	stimuli_distractor_diamondtriangles.svg	21	yes	57	0	624	0	0			0	0			1				0	
6.6.1	mac	2023-06-13	11:18:28	11:27:39	543655	61f2adfaa09e72f23cbaf9da	3	1	main_slash	7	main_slash	55	stimuli_target_squarediamonds.svg	stimuli_distractor_trianglediamonds.svg	4	yes	53	1	792	0	0			0	0			1				0	
6.6.1	mac	2023-06-13	11:18:28	11:27:39	543655	61f2adfaa09e72f23cbaf9da	3	1	main_slash	7	advance_on_keypress_SLASH	56	stimuli_target_squarediamonds.svg	stimuli_distractor_trianglediamonds.svg	4	yes	57	0	520	0	0			0	0			1				0	
6.6.1	mac	2023-06-13	11:18:28	11:27:41	545583	61f2adfaa09e72f23cbaf9da	3	1	main_slash	7	main_slash	57	stimuli_distractor_trianglediamonds.svg	stimuli_target_squarediamonds.svg	12	yes	53	1	773	0	0			0	0			1				0	
6.6.1	mac	2023-06-13	11:18:28	11:27:41	545583	61f2adfaa09e72f23cbaf9da	3	1	main_slash	7	advance_on_keypress_SLASH	58	stimuli_distractor_trianglediamonds.svg	stimuli_target_squarediamonds.svg	12	yes	57	0	620	0	0			0	0			1				0	
6.6.1	mac	2023-06-13	11:18:28	11:27:44	548825	61f2adfaa09e72f23cbaf9da	3	1	main_slash	7	main_slash	59	stimuli_distractor_trianglediamonds.svg	stimuli_target_trianglerectangles.svg	25	yes	0	0	2000	0	0			0	0			1				0	
6.6.1	mac	2023-06-13	11:18:28	11:27:44	548825	61f2adfaa09e72f23cbaf9da	3	1	main_slash	7	advance_on_keypress_SLASH	60	stimuli_distractor_trianglediamonds.svg	stimuli_target_trianglerectangles.svg	25	yes	57	0	513	0	0			0	0			1				0	
6.6.1	mac	2023-06-13	11:18:28	11:27:48	551979	61f2adfaa09e72f23cbaf9da	3	1	main_slash	7	main_slash	61	stimuli_distractor_diamondtriangles.svg	stimuli_target_trianglerectangles.svg	29	yes	0	0	2000	0	0			0	0			1				0	
6.6.1	mac	2023-06-13	11:18:28	11:27:48	551979	61f2adfaa09e72f23cbaf9da	3	1	main_slash	7	advance_on_keypress_SLASH	62	stimuli_distractor_diamondtriangles.svg	stimuli_target_trianglerectangles.svg	29	yes	57	0	496	0	0			0	0			1				0	
6.6.1	mac	2023-06-13	11:18:28	11:27:49	553824	61f2adfaa09e72f23cbaf9da	3	1	main_slash	7	main_slash	63	stimuli_distractor_trianglediamonds.svg	stimuli_target_rectangletriangles.svg	9	yes	53	1	714	0	0			0	0			1				0	
6.6.1	mac	2023-06-13	11:18:28	11:27:49	553824	61f2adfaa09e72f23cbaf9da	3	1	main_slash	7	advance_on_keypress_SLASH	64	stimuli_distractor_trianglediamonds.svg	stimuli_target_rectangletriangles.svg	9	yes	57	0	562	0	0			0	0			1				0	
6.6.1	mac	2023-06-13	11:18:28	11:27:52	556111	61f2adfaa09e72f23cbaf9da	3	1	main_slash	7	main_slash	65	stimuli_target_diamondsquares.svg	stimuli_distractor_diamondtriangles.svg	24	yes	53	1	1086	0	0			0	0			1				0	
6.6.1	mac	2023-06-13	11:18:28	11:27:52	556111	61f2adfaa09e72f23cbaf9da	3	1	main_slash	7	advance_on_keypress_SLASH	66	stimuli_target_diamondsquares.svg	stimuli_distractor_diamondtriangles.svg	24	yes	57	0	606	0	0			0	0			1				0	
6.6.1	mac	2023-06-13	11:18:28	11:27:54	558583	61f2adfaa09e72f23cbaf9da	3	1	main_slash	7	main_slash	67	stimuli_distractor_trianglediamonds.svg	stimuli_distractor_diamondtriangles.svg	36	no	53	0	1233	0	0			0	0			1				0	
6.6.1	mac	2023-06-13	11:18:28	11:27:54	558583	61f2adfaa09e72f23cbaf9da	3	1	main_slash	7	advance_on_keypress_SLASH	68	stimuli_distractor_trianglediamonds.svg	stimuli_distractor_diamondtriangles.svg	36	no	57	0	606	0	0			0	0			1				0	
6.6.1	mac	2023-06-13	11:18:28	11:27:57	561808	61f2adfaa09e72f23cbaf9da	3	1	main_slash	7	main_slash	69	stimuli_target_trianglesquares.svg	stimuli_distractor_trianglediamonds.svg	18	yes	0	0	2000	0	0			0	0			1				0	
6.6.1	mac	2023-06-13	11:18:28	11:27:57	561808	61f2adfaa09e72f23cbaf9da	3	1	main_slash	7	advance_on_keypress_SLASH	70	stimuli_target_trianglesquares.svg	stimuli_distractor_trianglediamonds.svg	18	yes	57	0	387	0	0			0	0			1				0	
6.6.1	mac	2023-06-13	11:18:28	11:28:00	564087	61f2adfaa09e72f23cbaf9da	3	1	main_slash	7	main_slash	71	stimuli_distractor_diamondtriangles.svg	stimuli_distractor_trianglediamonds.svg	38	no	53	0	1272	0	0			0	0			1				0	
6.6.1	mac	2023-06-13	11:18:28	11:28:00	564087	61f2adfaa09e72f23cbaf9da	3	1	main_slash	7	advance_on_keypress_SLASH	72	stimuli_distractor_diamondtriangles.svg	stimuli_distractor_trianglediamonds.svg	38	no	57	0	671	0	0			0	0			1				0	
6.6.1	mac	2023-06-13	11:18:28	11:28:02	566519	61f2adfaa09e72f23cbaf9da	3	1	main_slash	7	main_slash	73	stimuli_target_rectanglediamonds.svg	stimuli_distractor_trianglediamonds.svg	2	yes	53	1	1113	0	0			0	0			1				0	
6.6.1	mac	2023-06-13	11:18:28	11:28:02	566519	61f2adfaa09e72f23cbaf9da	3	1	main_slash	7	advance_on_keypress_SLASH	74	stimuli_target_rectanglediamonds.svg	stimuli_distractor_trianglediamonds.svg	2	yes	57	0	596	0	0			0	0			1				0	
6.6.1	mac	2023-06-13	11:18:28	11:28:05	568943	61f2adfaa09e72f23cbaf9da	3	1	main_slash	7	main_slash	75	stimuli_target_diamondrectangles.svg	stimuli_distractor_trianglediamonds.svg	19	yes	53	1	1193	0	0			0	0			1				0	
6.6.1	mac	2023-06-13	11:18:28	11:28:05	568943	61f2adfaa09e72f23cbaf9da	3	1	main_slash	7	advance_on_keypress_SLASH	76	stimuli_target_diamondrectangles.svg	stimuli_distractor_trianglediamonds.svg	19	yes	57	0	640	0	0			0	0			1				0	
6.6.1	mac	2023-06-13	11:18:28	11:28:07	571207	61f2adfaa09e72f23cbaf9da	3	1	main_slash	7	main_slash	77	stimuli_target_rectangletriangles.svg	stimuli_distractor_trianglediamonds.svg	1	yes	53	1	979	0	0			0	0			1				0	
6.6.1	mac	2023-06-13	11:18:28	11:28:07	571207	61f2adfaa09e72f23cbaf9da	3	1	main_slash	7	advance_on_keypress_SLASH	78	stimuli_target_rectangletriangles.svg	stimuli_distractor_trianglediamonds.svg	1	yes	57	0	540	0	0			0	0			1				0	
6.6.1	mac	2023-06-13	11:18:28	11:28:10	574371	61f2adfaa09e72f23cbaf9da	3	1	main_slash	7	main_slash	79	stimuli_distractor_diamondtriangles.svg	stimuli_distractor_trianglediamonds.svg	37	no	0	1	2000	0	0			0	0			1				0	
6.6.1	mac	2023-06-13	11:18:28	11:28:10	574371	61f2adfaa09e72f23cbaf9da	3	1	main_slash	7	advance_on_keypress_SLASH	80	stimuli_distractor_diamondtriangles.svg	stimuli_distractor_trianglediamonds.svg	37	no	57	0	494	0	0			0	0			1				0	
6.6.1	mac	2023-06-13	11:18:28	11:28:12	576591	61f2adfaa09e72f23cbaf9da	3	1	main_slash	7	main_slash	81	stimuli_distractor_diamondtriangles.svg	stimuli_target_diamondsquares.svg	32	yes	53	1	1095	0	0			0	0			1				0	
6.6.1	mac	2023-06-13	11:18:28	11:28:12	576591	61f2adfaa09e72f23cbaf9da	3	1	main_slash	7	advance_on_keypress_SLASH	82	stimuli_distractor_diamondtriangles.svg	stimuli_target_diamondsquares.svg	32	yes	57	0	571	0	0			0	0			1				0	
6.6.1	mac	2023-06-13	11:18:28	11:28:14	578735	61f2adfaa09e72f23cbaf9da	3	1	main_slash	7	main_slash	83	stimuli_target_squarediamonds.svg	stimuli_distractor_trianglediamonds.svg	4	yes	53	1	941	0	0			0	0			1				0	
6.6.1	mac	2023-06-13	11:18:28	11:28:14	578735	61f2adfaa09e72f23cbaf9da	3	1	main_slash	7	advance_on_keypress_SLASH	84	stimuli_target_squarediamonds.svg	stimuli_distractor_trianglediamonds.svg	4	yes	57	0	530	0	0			0	0			1				0	
6.6.1	mac	2023-06-13	11:18:28	11:28:17	581901	61f2adfaa09e72f23cbaf9da	3	1	main_slash	7	main_slash	85	stimuli_distractor_trianglediamonds.svg	stimuli_target_diamondrectangles.svg	27	yes	0	0	2000	0	0			0	0			1				0	
6.6.1	mac	2023-06-13	11:18:28	11:28:17	581901	61f2adfaa09e72f23cbaf9da	3	1	main_slash	7	advance_on_keypress_SLASH	86	stimuli_distractor_trianglediamonds.svg	stimuli_target_diamondrectangles.svg	27	yes	57	0	388	0	0			0	0			1				0	
6.6.1	mac	2023-06-13	11:18:28	11:28:20	584924	61f2adfaa09e72f23cbaf9da	3	1	main_slash	7	main_slash	87	stimuli_target_trianglesquares.svg	stimuli_distractor_trianglediamonds.svg	18	yes	0	0	2000	0	0			0	0			1				0	
6.6.1	mac	2023-06-13	11:18:28	11:28:20	584924	61f2adfaa09e72f23cbaf9da	3	1	main_slash	7	advance_on_keypress_SLASH	88	stimuli_target_trianglesquares.svg	stimuli_distractor_trianglediamonds.svg	18	yes	57	0	631	0	0			0	0			1				0	
6.6.1	mac	2023-06-13	11:18:28	11:28:24	588186	61f2adfaa09e72f23cbaf9da	3	1	main_slash	7	main_slash	89	stimuli_distractor_trianglediamonds.svg	stimuli_distractor_diamondtriangles.svg	36	no	0	1	2000	0	0			0	0			1				0	
6.6.1	mac	2023-06-13	11:18:28	11:28:24	588186	61f2adfaa09e72f23cbaf9da	3	1	main_slash	7	advance_on_keypress_SLASH	90	stimuli_distractor_trianglediamonds.svg	stimuli_distractor_diamondtriangles.svg	36	no	57	0	681	0	0			0	0			1				0	
6.6.1	mac	2023-06-13	11:18:28	11:28:26	590463	61f2adfaa09e72f23cbaf9da	3	1	main_slash	7	main_slash	91	stimuli_target_diamondrectangles.svg	stimuli_distractor_trianglediamonds.svg	19	yes	53	1	965	0	0			0	0			1				0	
6.6.1	mac	2023-06-13	11:18:28	11:28:26	590463	61f2adfaa09e72f23cbaf9da	3	1	main_slash	7	advance_on_keypress_SLASH	92	stimuli_target_diamondrectangles.svg	stimuli_distractor_trianglediamonds.svg	19	yes	57	0	936	0	0			0	0			1				0	
6.6.1	mac	2023-06-13	11:18:28	11:28:29	593319	61f2adfaa09e72f23cbaf9da	3	1	main_slash	7	main_slash	93	stimuli_target_diamondrectangles.svg	stimuli_distractor_diamondtriangles.svg	23	yes	53	1	1291	0	0			0	0			1				0	
6.6.1	mac	2023-06-13	11:18:28	11:28:29	593319	61f2adfaa09e72f23cbaf9da	3	1	main_slash	7	advance_on_keypress_SLASH	94	stimuli_target_diamondrectangles.svg	stimuli_distractor_diamondtriangles.svg	23	yes	57	0	499	0	0			0	0			1				0	
6.6.1	mac	2023-06-13	11:18:28	11:28:31	595567	61f2adfaa09e72f23cbaf9da	3	1	main_slash	7	main_slash	95	stimuli_distractor_diamondtriangles.svg	stimuli_distractor_trianglediamonds.svg	38	no	53	0	1112	0	0			0	0			1				0	
6.6.1	mac	2023-06-13	11:18:28	11:28:31	595567	61f2adfaa09e72f23cbaf9da	3	1	main_slash	7	advance_on_keypress_SLASH	96	stimuli_distractor_diamondtriangles.svg	stimuli_distractor_trianglediamonds.svg	38	no	57	0	494	0	0			0	0			1				0	
6.6.1	mac	2023-06-13	11:18:28	11:28:34	598697	61f2adfaa09e72f23cbaf9da	3	1	main_slash	7	main_slash	97	stimuli_distractor_trianglediamonds.svg	stimuli_target_trianglerectangles.svg	25	yes	0	0	2000	0	0			0	0			1				0	
6.6.1	mac	2023-06-13	11:18:28	11:28:34	598697	61f2adfaa09e72f23cbaf9da	3	1	main_slash	7	advance_on_keypress_SLASH	98	stimuli_distractor_trianglediamonds.svg	stimuli_target_trianglerectangles.svg	25	yes	57	0	493	0	0			0	0			1				0	
6.6.1	mac	2023-06-13	11:18:28	11:28:36	600903	61f2adfaa09e72f23cbaf9da	3	1	main_slash	7	main_slash	99	stimuli_distractor_diamondtriangles.svg	stimuli_distractor_diamondtriangles.svg	39	no	53	0	1079	0	0			0	0			1				0	
6.6.1	mac	2023-06-13	11:18:28	11:28:36	600903	61f2adfaa09e72f23cbaf9da	3	1	main_slash	7	advance_on_keypress_SLASH	100	stimuli_distractor_diamondtriangles.svg	stimuli_distractor_diamondtriangles.svg	39	no	57	0	523	0	0			0	0			1				0	
6.6.1	mac	2023-06-13	11:18:28	11:28:39	603263	61f2adfaa09e72f23cbaf9da	3	1	main_slash	7	main_slash	101	stimuli_distractor_trianglediamonds.svg	stimuli_target_diamondsquares.svg	28	yes	53	1	1207	0	0			0	0			1				0	
6.6.1	mac	2023-06-13	11:18:28	11:28:39	603263	61f2adfaa09e72f23cbaf9da	3	1	main_slash	7	advance_on_keypress_SLASH	102	stimuli_distractor_trianglediamonds.svg	stimuli_target_diamondsquares.svg	28	yes	57	0	497	0	0			0	0			1				0	
6.6.1	mac	2023-06-13	11:18:28	11:28:41	605487	61f2adfaa09e72f23cbaf9da	3	1	main_slash	7	main_slash	103	stimuli_target_trianglerectangles.svg	stimuli_distractor_diamondtriangles.svg	21	yes	53	1	1090	0	0			0	0			1				0	
6.6.1	mac	2023-06-13	11:18:28	11:28:41	605487	61f2adfaa09e72f23cbaf9da	3	1	main_slash	7	advance_on_keypress_SLASH	104	stimuli_target_trianglerectangles.svg	stimuli_distractor_diamondtriangles.svg	21	yes	57	0	462	0	0			0	0			1				0	
6.6.1	mac	2023-06-13	11:18:28	11:28:43	607623	61f2adfaa09e72f23cbaf9da	3	1	main_slash	7	main_slash	105	stimuli_distractor_diamondtriangles.svg	stimuli_target_squaretriangles.svg	15	yes	53	1	1047	0	0			0	0			1				0	
6.6.1	mac	2023-06-13	11:18:28	11:28:43	607623	61f2adfaa09e72f23cbaf9da	3	1	main_slash	7	advance_on_keypress_SLASH	106	stimuli_distractor_diamondtriangles.svg	stimuli_target_squaretriangles.svg	15	yes	57	0	479	0	0			0	0			1				0	
6.6.1	mac	2023-06-13	11:18:28	11:28:45	609712	61f2adfaa09e72f23cbaf9da	3	1	main_slash	7	main_slash	107	stimuli_target_squaretriangles.svg	stimuli_distractor_diamondtriangles.svg	7	yes	53	1	973	0	0			0	0			1				0	
6.6.1	mac	2023-06-13	11:18:28	11:28:45	609712	61f2adfaa09e72f23cbaf9da	3	1	main_slash	7	advance_on_keypress_SLASH	108	stimuli_target_squaretriangles.svg	stimuli_distractor_diamondtriangles.svg	7	yes	57	0	495	0	0			0	0			1				0	
6.6.1	mac	2023-06-13	11:18:28	11:28:47	611663	61f2adfaa09e72f23cbaf9da	3	1	main_slash	7	main_slash	109	stimuli_distractor_trianglediamonds.svg	stimuli_target_rectanglediamonds.svg	10	yes	53	1	812	0	0			0	0			1				0	
6.6.1	mac	2023-06-13	11:18:28	11:28:47	611663	61f2adfaa09e72f23cbaf9da	3	1	main_slash	7	advance_on_keypress_SLASH	110	stimuli_distractor_trianglediamonds.svg	stimuli_target_rectanglediamonds.svg	10	yes	57	0	458	0	0			0	0			1				0	
6.6.1	mac	2023-06-13	11:18:28	11:28:49	613583	61f2adfaa09e72f23cbaf9da	3	1	main_slash	7	main_slash	111	stimuli_target_diamondsquares.svg	stimuli_distractor_trianglediamonds.svg	20	yes	53	1	817	0	0			0	0			1				0	
6.6.1	mac	2023-06-13	11:18:28	11:28:49	613583	61f2adfaa09e72f23cbaf9da	3	1	main_slash	7	advance_on_keypress_SLASH	112	stimuli_target_diamondsquares.svg	stimuli_distractor_trianglediamonds.svg	20	yes	57	0	389	0	0			0	0			1				0	
6.6.1	mac	2023-06-13	11:18:28	11:28:51	615439	61f2adfaa09e72f23cbaf9da	3	1	main_slash	7	main_slash	113	stimuli_distractor_diamondtriangles.svg	stimuli_target_squarediamonds.svg	16	yes	53	1	839	0	0			0	0			1				0	
6.6.1	mac	2023-06-13	11:18:28	11:28:51	615439	61f2adfaa09e72f23cbaf9da	3	1	main_slash	7	advance_on_keypress_SLASH	114	stimuli_distractor_diamondtriangles.svg	stimuli_target_squarediamonds.svg	16	yes	57	0	516	0	0			0	0			1				0	
6.6.1	mac	2023-06-13	11:18:28	11:28:54	618581	61f2adfaa09e72f23cbaf9da	3	1	main_slash	7	main_slash	115	stimuli_distractor_diamondtriangles.svg	stimuli_target_trianglesquares.svg	30	yes	0	0	2000	0	0			0	0			1				0	
6.6.1	mac	2023-06-13	11:18:28	11:28:54	618581	61f2adfaa09e72f23cbaf9da	3	1	main_slash	7	advance_on_keypress_SLASH	116	stimuli_distractor_diamondtriangles.svg	stimuli_target_trianglesquares.svg	30	yes	57	0	524	0	0			0	0			1				0	
6.6.1	mac	2023-06-13	11:18:28	11:28:57	621738	61f2adfaa09e72f23cbaf9da	3	1	main_slash	7	main_slash	117	stimuli_distractor_trianglediamonds.svg	stimuli_distractor_trianglediamonds.svg	33	no	0	1	2000	0	0			0	0			1				0	
6.6.1	mac	2023-06-13	11:18:28	11:28:57	621738	61f2adfaa09e72f23cbaf9da	3	1	main_slash	7	advance_on_keypress_SLASH	118	stimuli_distractor_trianglediamonds.svg	stimuli_distractor_trianglediamonds.svg	33	no	57	0	712	0	0			0	0			1				0	
6.6.1	mac	2023-06-13	11:18:28	11:29:00	623991	61f2adfaa09e72f23cbaf9da	3	1	main_slash	7	main_slash	119	stimuli_target_rectangletriangles.svg	stimuli_distractor_diamondtriangles.svg	5	yes	53	1	912	0	0			0	0			1				0	
6.6.1	mac	2023-06-13	11:18:28	11:29:00	623991	61f2adfaa09e72f23cbaf9da	3	1	main_slash	7	advance_on_keypress_SLASH	120	stimuli_target_rectangletriangles.svg	stimuli_distractor_diamondtriangles.svg	5	yes	57	0	559	0	0			0	0			1				0	
6.6.1	mac	2023-06-13	11:18:28	11:29:02	626055	61f2adfaa09e72f23cbaf9da	3	1	main_slash	7	main_slash	121	stimuli_distractor_trianglediamonds.svg	stimuli_target_rectangletriangles.svg	9	yes	53	1	866	0	0			0	0			1				0	
6.6.1	mac	2023-06-13	11:18:28	11:29:02	626055	61f2adfaa09e72f23cbaf9da	3	1	main_slash	7	advance_on_keypress_SLASH	122	stimuli_distractor_trianglediamonds.svg	stimuli_target_rectangletriangles.svg	9	yes	57	0	470	0	0			0	0			1				0	
6.6.1	mac	2023-06-13	11:18:28	11:29:04	628095	61f2adfaa09e72f23cbaf9da	3	1	main_slash	7	main_slash	123	stimuli_distractor_trianglediamonds.svg	stimuli_distractor_diamondtriangles.svg	35	no	53	0	943	0	0			0	0			1				0	
6.6.1	mac	2023-06-13	11:18:28	11:29:04	628095	61f2adfaa09e72f23cbaf9da	3	1	main_slash	7	advance_on_keypress_SLASH	124	stimuli_distractor_trianglediamonds.svg	stimuli_distractor_diamondtriangles.svg	35	no	57	0	460	0	0			0	0			1				0	
6.6.1	mac	2023-06-13	11:18:28	11:29:06	629999	61f2adfaa09e72f23cbaf9da	3	1	main_slash	7	main_slash	125	stimuli_target_rectanglediamonds.svg	stimuli_distractor_trianglediamonds.svg	2	yes	53	1	797	0	0			0	0			1				0	
6.6.1	mac	2023-06-13	11:18:28	11:29:06	629999	61f2adfaa09e72f23cbaf9da	3	1	main_slash	7	advance_on_keypress_SLASH	126	stimuli_target_rectanglediamonds.svg	stimuli_distractor_trianglediamonds.svg	2	yes	57	0	451	0	0			0	0			1				0	
6.6.1	mac	2023-06-13	11:18:28	11:29:09	633084	61f2adfaa09e72f23cbaf9da	3	1	main_slash	7	main_slash	127	stimuli_distractor_trianglediamonds.svg	stimuli_target_trianglesquares.svg	26	yes	0	0	2000	0	0			0	0			1				0	
6.6.1	mac	2023-06-13	11:18:28	11:29:09	633084	61f2adfaa09e72f23cbaf9da	3	1	main_slash	7	advance_on_keypress_SLASH	128	stimuli_distractor_trianglediamonds.svg	stimuli_target_trianglesquares.svg	26	yes	57	0	406	0	0			0	0			1				0	
6.6.1	mac	2023-06-13	11:18:28	11:29:11	635271	61f2adfaa09e72f23cbaf9da	3	1	main_slash	7	main_slash	129	stimuli_distractor_diamondtriangles.svg	stimuli_target_rectanglediamonds.svg	14	yes	53	1	1145	0	0			0	0			1				0	
6.6.1	mac	2023-06-13	11:18:28	11:29:11	635271	61f2adfaa09e72f23cbaf9da	3	1	main_slash	7	advance_on_keypress_SLASH	130	stimuli_distractor_diamondtriangles.svg	stimuli_target_rectanglediamonds.svg	14	yes	57	0	482	0	0			0	0			1				0	
6.6.1	mac	2023-06-13	11:18:28	11:29:13	637271	61f2adfaa09e72f23cbaf9da	3	1	main_slash	7	main_slash	131	stimuli_target_squaretriangles.svg	stimuli_distractor_trianglediamonds.svg	3	yes	53	1	880	0	0			0	0			1				0	
6.6.1	mac	2023-06-13	11:18:28	11:29:13	637271	61f2adfaa09e72f23cbaf9da	3	1	main_slash	7	advance_on_keypress_SLASH	132	stimuli_target_squaretriangles.svg	stimuli_distractor_trianglediamonds.svg	3	yes	57	0	510	0	0			0	0			1				0	
6.6.1	mac	2023-06-13	11:18:28	11:29:15	639215	61f2adfaa09e72f23cbaf9da	3	1	main_slash	7	main_slash	133	stimuli_distractor_trianglediamonds.svg	stimuli_target_squarediamonds.svg	12	yes	53	1	794	0	0			0	0			1				0	
6.6.1	mac	2023-06-13	11:18:28	11:29:15	639215	61f2adfaa09e72f23cbaf9da	3	1	main_slash	7	advance_on_keypress_SLASH	134	stimuli_distractor_trianglediamonds.svg	stimuli_target_squarediamonds.svg	12	yes	57	0	457	0	0			0	0			1				0	
6.6.1	mac	2023-06-13	11:18:28	11:29:17	641399	61f2adfaa09e72f23cbaf9da	3	1	main_slash	7	main_slash	135	stimuli_distractor_diamondtriangles.svg	stimuli_target_diamondrectangles.svg	31	yes	53	1	1096	0	0			0	0			1				0	
6.6.1	mac	2023-06-13	11:18:28	11:29:17	641399	61f2adfaa09e72f23cbaf9da	3	1	main_slash	7	advance_on_keypress_SLASH	136	stimuli_distractor_diamondtriangles.svg	stimuli_target_diamondrectangles.svg	31	yes	57	0	465	0	0			0	0			1				0	
6.6.1	mac	2023-06-13	11:18:28	11:29:19	643312	61f2adfaa09e72f23cbaf9da	3	1	main_slash	7	main_slash	137	stimuli_target_squarediamonds.svg	stimuli_distractor_diamondtriangles.svg	8	yes	53	1	810	0	0			0	0			1				0	
6.6.1	mac	2023-06-13	11:18:28	11:29:19	643312	61f2adfaa09e72f23cbaf9da	3	1	main_slash	7	advance_on_keypress_SLASH	138	stimuli_target_squarediamonds.svg	stimuli_distractor_diamondtriangles.svg	8	yes	57	0	487	0	0			0	0			1				0	
6.6.1	mac	2023-06-13	11:18:28	11:29:21	645391	61f2adfaa09e72f23cbaf9da	3	1	main_slash	7	main_slash	139	stimuli_target_diamondsquares.svg	stimuli_distractor_diamondtriangles.svg	24	yes	53	1	956	0	0			0	0			1				0	
6.6.1	mac	2023-06-13	11:18:28	11:29:21	645391	61f2adfaa09e72f23cbaf9da	3	1	main_slash	7	advance_on_keypress_SLASH	140	stimuli_target_diamondsquares.svg	stimuli_distractor_diamondtriangles.svg	24	yes	57	0	477	0	0			0	0			1				0	
6.6.1	mac	2023-06-13	11:18:28	11:29:24	648496	61f2adfaa09e72f23cbaf9da	3	1	main_slash	7	main_slash	141	stimuli_target_trianglesquares.svg	stimuli_distractor_diamondtriangles.svg	22	yes	0	0	2000	0	0			0	0			1				0	
6.6.1	mac	2023-06-13	11:18:28	11:29:24	648496	61f2adfaa09e72f23cbaf9da	3	1	main_slash	7	advance_on_keypress_SLASH	142	stimuli_target_trianglesquares.svg	stimuli_distractor_diamondtriangles.svg	22	yes	57	0	442	0	0			0	0			1				0	
6.6.1	mac	2023-06-13	11:18:28	11:29:26	650479	61f2adfaa09e72f23cbaf9da	3	1	main_slash	7	main_slash	143	stimuli_distractor_trianglediamonds.svg	stimuli_target_squaretriangles.svg	11	yes	53	1	900	0	0			0	0			1				0	
6.6.1	mac	2023-06-13	11:18:28	11:29:26	650479	61f2adfaa09e72f23cbaf9da	3	1	main_slash	7	advance_on_keypress_SLASH	144	stimuli_distractor_trianglediamonds.svg	stimuli_target_squaretriangles.svg	11	yes	57	0	517	0	0			0	0			1				0	
6.6.1	mac	2023-06-13	11:18:28	11:29:29	653626	61f2adfaa09e72f23cbaf9da	3	1	main_slash	7	main_slash	145	stimuli_distractor_trianglediamonds.svg	stimuli_distractor_trianglediamonds.svg	34	no	0	1	2000	0	0			0	0			1				0	
6.6.1	mac	2023-06-13	11:18:28	11:29:29	653626	61f2adfaa09e72f23cbaf9da	3	1	main_slash	7	advance_on_keypress_SLASH	146	stimuli_distractor_trianglediamonds.svg	stimuli_distractor_trianglediamonds.svg	34	no	57	0	484	0	0			0	0			1				0	
6.6.1	mac	2023-06-13	11:18:28	11:29:32	656744	61f2adfaa09e72f23cbaf9da	3	1	main_slash	7	main_slash	147	stimuli_target_trianglerectangles.svg	stimuli_distractor_trianglediamonds.svg	17	yes	0	0	2000	0	0			0	0			1				0	
6.6.1	mac	2023-06-13	11:18:28	11:29:32	656744	61f2adfaa09e72f23cbaf9da	3	1	main_slash	7	advance_on_keypress_SLASH	148	stimuli_target_trianglerectangles.svg	stimuli_distractor_trianglediamonds.svg	17	yes	57	0	532	0	0			0	0			1				0	
6.6.1	mac	2023-06-13	11:18:28	11:29:34	658751	61f2adfaa09e72f23cbaf9da	3	1	main_slash	7	main_slash	149	stimuli_target_rectangletriangles.svg	stimuli_distractor_trianglediamonds.svg	1	yes	53	1	844	0	0			0	0			1				0	
6.6.1	mac	2023-06-13	11:18:28	11:29:34	658751	61f2adfaa09e72f23cbaf9da	3	1	main_slash	7	advance_on_keypress_SLASH	150	stimuli_target_rectangletriangles.svg	stimuli_distractor_trianglediamonds.svg	1	yes	57	0	429	0	0			0	0			1				0	
6.6.1	mac	2023-06-13	11:18:28	11:29:36	660591	61f2adfaa09e72f23cbaf9da	3	1	main_slash	7	main_slash	151	stimuli_distractor_diamondtriangles.svg	stimuli_target_rectangletriangles.svg	13	yes	53	1	774	0	0			0	0			1				0	
6.6.1	mac	2023-06-13	11:18:28	11:29:36	660591	61f2adfaa09e72f23cbaf9da	3	1	main_slash	7	advance_on_keypress_SLASH	152	stimuli_distractor_diamondtriangles.svg	stimuli_target_rectangletriangles.svg	13	yes	57	0	430	0	0			0	0			1				0	
6.6.1	mac	2023-06-13	11:18:28	11:29:38	662439	61f2adfaa09e72f23cbaf9da	3	1	main_slash	7	main_slash	153	stimuli_target_rectanglediamonds.svg	stimuli_distractor_diamondtriangles.svg	6	yes	53	1	788	0	0			0	0			1				0	
6.6.1	mac	2023-06-13	11:18:28	11:29:38	662439	61f2adfaa09e72f23cbaf9da	3	1	main_slash	7	advance_on_keypress_SLASH	154	stimuli_target_rectanglediamonds.svg	stimuli_distractor_diamondtriangles.svg	6	yes	57	0	443	0	0			0	0			1				0	
6.6.1	mac	2023-06-13	11:18:28	11:29:40	664351	61f2adfaa09e72f23cbaf9da	3	1	main_slash	7	main_slash	155	stimuli_distractor_diamondtriangles.svg	stimuli_target_trianglerectangles.svg	29	yes	53	1	833	0	0			0	0			1				0	
6.6.1	mac	2023-06-13	11:18:28	11:29:40	664351	61f2adfaa09e72f23cbaf9da	3	1	main_slash	7	advance_on_keypress_SLASH	156	stimuli_distractor_diamondtriangles.svg	stimuli_target_trianglerectangles.svg	29	yes	57	0	404	0	0			0	0			1				0	
6.6.1	mac	2023-06-13	11:18:28	11:29:42	666407	61f2adfaa09e72f23cbaf9da	3	1	main_slash	7	main_slash	157	stimuli_distractor_diamondtriangles.svg	stimuli_distractor_diamondtriangles.svg	40	no	53	0	1023	0	0			0	0			1				0	
6.6.1	mac	2023-06-13	11:18:28	11:29:42	666407	61f2adfaa09e72f23cbaf9da	3	1	main_slash	7	advance_on_keypress_SLASH	158	stimuli_distractor_diamondtriangles.svg	stimuli_distractor_diamondtriangles.svg	40	no	57	0	411	0	0			0	0			1				0	
6.6.1	mac	2023-06-13	11:18:28	11:29:44	668351	61f2adfaa09e72f23cbaf9da	3	1	main_slash	7	main_slash	159	stimuli_distractor_diamondtriangles.svg	stimuli_distractor_trianglediamonds.svg	37	no	53	0	901	0	0			0	0			1				0	
6.6.1	mac	2023-06-13	11:18:28	11:29:44	668351	61f2adfaa09e72f23cbaf9da	3	1	main_slash	7	advance_on_keypress_SLASH	160	stimuli_distractor_diamondtriangles.svg	stimuli_distractor_trianglediamonds.svg	37	no	57	0	431	0	0			0	0			1				0	
6.6.1	mac	2023-06-13	11:18:28	11:30:33	717798	61f2adfaa09e72f23cbaf9da	3	1	practice_z	9	practice_z	1	stimuli_distractor_trianglediamonds.svg	stimuli_distractor_diamondtriangles.svg	16	no	0	1	2000	0	0			0	0			1				0	
6.6.1	mac	2023-06-13	11:18:28	11:30:33	717798	61f2adfaa09e72f23cbaf9da	3	1	practice_z	9	advance_on_keypress_ZEE	2	stimuli_distractor_trianglediamonds.svg	stimuli_distractor_diamondtriangles.svg	16	no	57	0	686	0	0			0	0			1				0	
6.6.1	mac	2023-06-13	11:18:28	11:30:37	721216	61f2adfaa09e72f23cbaf9da	3	1	practice_z	9	practice_z	3	stimuli_distractor_diamondtriangles.svg	stimuli_target_diamondrectangles.svg	8	yes	44	1	1097	0	0			0	0			1				0	
6.6.1	mac	2023-06-13	11:18:28	11:30:37	721216	61f2adfaa09e72f23cbaf9da	3	1	practice_z	9	advance_on_keypress_ZEE	4	stimuli_distractor_diamondtriangles.svg	stimuli_target_diamondrectangles.svg	8	yes	57	0	602	0	0			0	0			1				0	
6.6.1	mac	2023-06-13	11:18:28	11:30:40	724384	61f2adfaa09e72f23cbaf9da	3	1	practice_z	9	practice_z	5	stimuli_distractor_diamondtriangles.svg	stimuli_target_rectangletriangles.svg	7	yes	44	1	929	0	0			0	0			1				0	
6.6.1	mac	2023-06-13	11:18:28	11:30:40	724384	61f2adfaa09e72f23cbaf9da	3	1	practice_z	9	advance_on_keypress_ZEE	6	stimuli_distractor_diamondtriangles.svg	stimuli_target_rectangletriangles.svg	7	yes	57	0	295	0	0			0	0			1				0	
6.6.1	mac	2023-06-13	11:18:28	11:30:43	727111	61f2adfaa09e72f23cbaf9da	3	1	practice_z	9	practice_z	7	stimuli_distractor_trianglediamonds.svg	stimuli_target_squarediamonds.svg	11	yes	44	1	801	0	0			0	0			1				0	
6.6.1	mac	2023-06-13	11:18:28	11:30:43	727111	61f2adfaa09e72f23cbaf9da	3	1	practice_z	9	advance_on_keypress_ZEE	8	stimuli_distractor_trianglediamonds.svg	stimuli_target_squarediamonds.svg	11	yes	57	0	1165	0	0			0	0			1				0	
6.6.1	mac	2023-06-13	11:18:28	11:30:46	730775	61f2adfaa09e72f23cbaf9da	3	1	practice_z	9	practice_z	9	stimuli_target_rectanglediamonds.svg	stimuli_distractor_trianglediamonds.svg	4	yes	44	1	867	0	0			0	0			1				0	
6.6.1	mac	2023-06-13	11:18:28	11:30:46	730775	61f2adfaa09e72f23cbaf9da	3	1	practice_z	9	advance_on_keypress_ZEE	10	stimuli_target_rectanglediamonds.svg	stimuli_distractor_trianglediamonds.svg	4	yes	57	0	747	0	0			0	0			1				0	
6.6.1	mac	2023-06-13	11:18:28	11:30:50	734183	61f2adfaa09e72f23cbaf9da	3	1	practice_z	9	practice_z	11	stimuli_target_squarediamonds.svg	stimuli_distractor_trianglediamonds.svg	5	yes	44	1	1021	0	0			0	0			1				0	
6.6.1	mac	2023-06-13	11:18:28	11:30:50	734183	61f2adfaa09e72f23cbaf9da	3	1	practice_z	9	advance_on_keypress_ZEE	12	stimuli_target_squarediamonds.svg	stimuli_distractor_trianglediamonds.svg	5	yes	57	0	538	0	0			0	0			1				0	
6.6.1	mac	2023-06-13	11:18:28	11:30:53	737231	61f2adfaa09e72f23cbaf9da	3	1	practice_z	9	practice_z	13	stimuli_distractor_diamondtriangles.svg	stimuli_target_trianglerectangles.svg	9	yes	44	1	867	0	0			0	0			1				0	
6.6.1	mac	2023-06-13	11:18:28	11:30:53	737231	61f2adfaa09e72f23cbaf9da	3	1	practice_z	9	advance_on_keypress_ZEE	14	stimuli_distractor_diamondtriangles.svg	stimuli_target_trianglerectangles.svg	9	yes	57	0	0	0	0			0	0			1				0	
6.6.1	mac	2023-06-13	11:18:28	11:30:55	739783	61f2adfaa09e72f23cbaf9da	3	1	practice_z	9	practice_z	15	stimuli_target_diamondsquares.svg	stimuli_distractor_trianglediamonds.svg	6	yes	44	1	904	0	0			0	0			1				0	
6.6.1	mac	2023-06-13	11:18:28	11:30:55	739783	61f2adfaa09e72f23cbaf9da	3	1	practice_z	9	advance_on_keypress_ZEE	16	stimuli_target_diamondsquares.svg	stimuli_distractor_trianglediamonds.svg	6	yes	57	0	695	0	0			0	0			1				0	
6.6.1	mac	2023-06-13	11:18:28	11:30:59	743095	61f2adfaa09e72f23cbaf9da	3	1	practice_z	9	practice_z	17	stimuli_target_rectanglediamonds.svg	stimuli_distractor_diamondtriangles.svg	1	yes	44	1	976	0	0			0	0			1				0	
6.6.1	mac	2023-06-13	11:18:28	11:30:59	743095	61f2adfaa09e72f23cbaf9da	3	1	practice_z	9	advance_on_keypress_ZEE	18	stimuli_target_rectanglediamonds.svg	stimuli_distractor_diamondtriangles.svg	1	yes	57	0	10	0	0			0	0			1				0	
6.6.1	mac	2023-06-13	11:18:28	11:31:02	746191	61f2adfaa09e72f23cbaf9da	3	1	practice_z	9	practice_z	19	stimuli_distractor_trianglediamonds.svg	stimuli_target_diamondrectangles.svg	12	yes	44	1	1442	0	0			0	0			1				0	
6.6.1	mac	2023-06-13	11:18:28	11:31:02	746191	61f2adfaa09e72f23cbaf9da	3	1	practice_z	9	advance_on_keypress_ZEE	20	stimuli_distractor_trianglediamonds.svg	stimuli_target_diamondrectangles.svg	12	yes	57	0	550	0	0			0	0			1				0	
6.6.1	mac	2023-06-13	11:18:28	11:31:05	749271	61f2adfaa09e72f23cbaf9da	3	1	practice_z	9	practice_z	21	stimuli_distractor_trianglediamonds.svg	stimuli_target_rectanglediamonds.svg	10	yes	44	1	887	0	0			0	0			1				0	
6.6.1	mac	2023-06-13	11:18:28	11:31:05	749271	61f2adfaa09e72f23cbaf9da	3	1	practice_z	9	advance_on_keypress_ZEE	22	stimuli_distractor_trianglediamonds.svg	stimuli_target_rectanglediamonds.svg	10	yes	57	0	612	0	0			0	0			1				0	
6.6.1	mac	2023-06-13	11:18:28	11:31:08	752535	61f2adfaa09e72f23cbaf9da	3	1	practice_z	9	practice_z	23	stimuli_target_squarediamonds.svg	stimuli_distractor_diamondtriangles.svg	2	yes	44	1	1024	0	0			0	0			1				0	
6.6.1	mac	2023-06-13	11:18:28	11:31:08	752535	61f2adfaa09e72f23cbaf9da	3	1	practice_z	9	advance_on_keypress_ZEE	24	stimuli_target_squarediamonds.svg	stimuli_distractor_diamondtriangles.svg	2	yes	57	0	475	0	0			0	0			1				0	
6.6.1	mac	2023-06-13	11:18:28	11:31:12	756648	61f2adfaa09e72f23cbaf9da	3	1	practice_z	9	practice_z	25	stimuli_distractor_trianglediamonds.svg	stimuli_distractor_trianglediamonds.svg	15	no	0	1	2000	0	0			0	0			1				0	
6.6.1	mac	2023-06-13	11:18:28	11:31:12	756648	61f2adfaa09e72f23cbaf9da	3	1	practice_z	9	advance_on_keypress_ZEE	26	stimuli_distractor_trianglediamonds.svg	stimuli_distractor_trianglediamonds.svg	15	no	57	0	456	0	0			0	0			1				0	
6.6.1	mac	2023-06-13	11:18:28	11:31:15	759695	61f2adfaa09e72f23cbaf9da	3	1	practice_z	9	practice_z	27	stimuli_distractor_diamondtriangles.svg	stimuli_distractor_trianglediamonds.svg	14	no	44	0	957	0	0			0	0			1				0	
6.6.1	mac	2023-06-13	11:18:28	11:31:15	759695	61f2adfaa09e72f23cbaf9da	3	1	practice_z	9	advance_on_keypress_ZEE	28	stimuli_distractor_diamondtriangles.svg	stimuli_distractor_trianglediamonds.svg	14	no	57	0	470	0	0			0	0			1				0	
6.6.1	mac	2023-06-13	11:18:28	11:31:18	762847	61f2adfaa09e72f23cbaf9da	3	1	practice_z	9	practice_z	29	stimuli_distractor_diamondtriangles.svg	stimuli_distractor_diamondtriangles.svg	13	no	44	0	1048	0	0			0	0			1				0	
6.6.1	mac	2023-06-13	11:18:28	11:31:18	762847	61f2adfaa09e72f23cbaf9da	3	1	practice_z	9	advance_on_keypress_ZEE	30	stimuli_distractor_diamondtriangles.svg	stimuli_distractor_diamondtriangles.svg	13	no	57	0	63	0	0			0	0			1				0	
6.6.1	mac	2023-06-13	11:18:28	11:31:22	766538	61f2adfaa09e72f23cbaf9da	3	1	practice_z	9	practice_z	31	stimuli_target_diamondsquares.svg	stimuli_distractor_diamondtriangles.svg	3	yes	0	0	2000	0	0			0	0			1				0	
6.6.1	mac	2023-06-13	11:18:28	11:31:22	766538	61f2adfaa09e72f23cbaf9da	3	1	practice_z	9	advance_on_keypress_ZEE	32	stimuli_target_diamondsquares.svg	stimuli_distractor_diamondtriangles.svg	3	yes	57	0	394	0	0			0	0			1				0	
6.6.1	mac	2023-06-13	11:18:28	11:31:28	772175	61f2adfaa09e72f23cbaf9da	3	1	main_z	11	main_z	1	stimuli_target_diamondsquares.svg	stimuli_distractor_trianglediamonds.svg	20	yes	44	1	769	0	0			0	0			1				0	
6.6.1	mac	2023-06-13	11:18:28	11:31:28	772175	61f2adfaa09e72f23cbaf9da	3	1	main_z	11	advance_on_keypress_ZEE	2	stimuli_target_diamondsquares.svg	stimuli_distractor_trianglediamonds.svg	20	yes	57	0	1236	0	0			0	0			1				0	
6.6.1	mac	2023-06-13	11:18:28	11:31:32	776040	61f2adfaa09e72f23cbaf9da	3	1	main_z	11	main_z	3	stimuli_target_trianglerectangles.svg	stimuli_distractor_trianglediamonds.svg	17	yes	0	0	2000	0	0			0	0			1				0	
6.6.1	mac	2023-06-13	11:18:28	11:31:32	776040	61f2adfaa09e72f23cbaf9da	3	1	main_z	11	advance_on_keypress_ZEE	4	stimuli_target_trianglerectangles.svg	stimuli_distractor_trianglediamonds.svg	17	yes	57	0	445	0	0			0	0			1				0	
6.6.1	mac	2023-06-13	11:18:28	11:31:35	779117	61f2adfaa09e72f23cbaf9da	3	1	main_z	11	main_z	5	stimuli_distractor_trianglediamonds.svg	stimuli_distractor_trianglediamonds.svg	34	no	0	1	2000	0	0			0	0			1				0	
6.6.1	mac	2023-06-13	11:18:28	11:31:35	779117	61f2adfaa09e72f23cbaf9da	3	1	main_z	11	advance_on_keypress_ZEE	6	stimuli_distractor_trianglediamonds.svg	stimuli_distractor_trianglediamonds.svg	34	no	57	0	716	0	0			0	0			1				0	
6.6.1	mac	2023-06-13	11:18:28	11:31:38	782465	61f2adfaa09e72f23cbaf9da	3	1	main_z	11	main_z	7	stimuli_distractor_diamondtriangles.svg	stimuli_target_trianglesquares.svg	30	yes	0	0	2000	0	0			0	0			1				0	
6.6.1	mac	2023-06-13	11:18:28	11:31:38	782465	61f2adfaa09e72f23cbaf9da	3	1	main_z	11	advance_on_keypress_ZEE	8	stimuli_distractor_diamondtriangles.svg	stimuli_target_trianglesquares.svg	30	yes	57	0	640	0	0			0	0			1				0	
6.6.1	mac	2023-06-13	11:18:28	11:31:40	784527	61f2adfaa09e72f23cbaf9da	3	1	main_z	11	main_z	9	stimuli_distractor_trianglediamonds.svg	stimuli_target_squarediamonds.svg	12	yes	44	1	788	0	0			0	0			1				0	
6.6.1	mac	2023-06-13	11:18:28	11:31:40	784527	61f2adfaa09e72f23cbaf9da	3	1	main_z	11	advance_on_keypress_ZEE	10	stimuli_distractor_trianglediamonds.svg	stimuli_target_squarediamonds.svg	12	yes	57	0	978	0	0			0	0			1				0	
6.6.1	mac	2023-06-13	11:18:28	11:31:44	788146	61f2adfaa09e72f23cbaf9da	3	1	main_z	11	main_z	11	stimuli_distractor_trianglediamonds.svg	stimuli_target_trianglesquares.svg	26	yes	0	0	2000	0	0			0	0			1				0	
6.6.1	mac	2023-06-13	11:18:28	11:31:44	788146	61f2adfaa09e72f23cbaf9da	3	1	main_z	11	advance_on_keypress_ZEE	12	stimuli_distractor_trianglediamonds.svg	stimuli_target_trianglesquares.svg	26	yes	57	0	587	0	0			0	0			1				0	
6.6.1	mac	2023-06-13	11:18:28	11:31:46	790263	61f2adfaa09e72f23cbaf9da	3	1	main_z	11	main_z	13	stimuli_target_rectangletriangles.svg	stimuli_distractor_trianglediamonds.svg	1	yes	44	1	897	0	0			0	0			1				0	
6.6.1	mac	2023-06-13	11:18:28	11:31:46	790263	61f2adfaa09e72f23cbaf9da	3	1	main_z	11	advance_on_keypress_ZEE	14	stimuli_target_rectangletriangles.svg	stimuli_distractor_trianglediamonds.svg	1	yes	57	0	957	0	0			0	0			1				0	
6.6.1	mac	2023-06-13	11:18:28	11:31:48	792903	61f2adfaa09e72f23cbaf9da	3	1	main_z	11	main_z	15	stimuli_target_rectangletriangles.svg	stimuli_distractor_diamondtriangles.svg	5	yes	44	1	1055	0	0			0	0			1				0	
6.6.1	mac	2023-06-13	11:18:28	11:31:48	792903	61f2adfaa09e72f23cbaf9da	3	1	main_z	11	advance_on_keypress_ZEE	16	stimuli_target_rectangletriangles.svg	stimuli_distractor_diamondtriangles.svg	5	yes	57	0	890	0	0			0	0			1				0	
6.6.1	mac	2023-06-13	11:18:28	11:31:51	795271	61f2adfaa09e72f23cbaf9da	3	1	main_z	11	main_z	17	stimuli_target_rectanglediamonds.svg	stimuli_distractor_trianglediamonds.svg	2	yes	44	1	847	0	0			0	0			1				0	
6.6.1	mac	2023-06-13	11:18:28	11:31:51	795271	61f2adfaa09e72f23cbaf9da	3	1	main_z	11	advance_on_keypress_ZEE	18	stimuli_target_rectanglediamonds.svg	stimuli_distractor_trianglediamonds.svg	2	yes	57	0	789	0	0			0	0			1				0	
6.6.1	mac	2023-06-13	11:18:28	11:31:53	797543	61f2adfaa09e72f23cbaf9da	3	1	main_z	11	main_z	19	stimuli_distractor_trianglediamonds.svg	stimuli_target_rectanglediamonds.svg	10	yes	44	1	860	0	0			0	0			1				0	
6.6.1	mac	2023-06-13	11:18:28	11:31:53	797543	61f2adfaa09e72f23cbaf9da	3	1	main_z	11	advance_on_keypress_ZEE	20	stimuli_distractor_trianglediamonds.svg	stimuli_target_rectanglediamonds.svg	10	yes	57	0	795	0	0			0	0			1				0	
6.6.1	mac	2023-06-13	11:18:28	11:31:55	799911	61f2adfaa09e72f23cbaf9da	3	1	main_z	11	main_z	21	stimuli_distractor_diamondtriangles.svg	stimuli_distractor_trianglediamonds.svg	37	no	44	0	932	0	0			0	0			1				0	
6.6.1	mac	2023-06-13	11:18:28	11:31:55	799911	61f2adfaa09e72f23cbaf9da	3	1	main_z	11	advance_on_keypress_ZEE	22	stimuli_distractor_diamondtriangles.svg	stimuli_distractor_trianglediamonds.svg	37	no	57	0	751	0	0			0	0			1				0	
6.6.1	mac	2023-06-13	11:18:28	11:31:59	803288	61f2adfaa09e72f23cbaf9da	3	1	main_z	11	main_z	23	stimuli_distractor_diamondtriangles.svg	stimuli_target_trianglerectangles.svg	29	yes	0	0	2000	0	0			0	0			1				0	
6.6.1	mac	2023-06-13	11:18:28	11:31:59	803288	61f2adfaa09e72f23cbaf9da	3	1	main_z	11	advance_on_keypress_ZEE	24	stimuli_distractor_diamondtriangles.svg	stimuli_target_trianglerectangles.svg	29	yes	57	0	699	0	0			0	0			1				0	
6.6.1	mac	2023-06-13	11:18:28	11:32:01	805911	61f2adfaa09e72f23cbaf9da	3	1	main_z	11	main_z	25	stimuli_target_trianglerectangles.svg	stimuli_distractor_diamondtriangles.svg	21	yes	44	1	1284	0	0			0	0			1				0	
6.6.1	mac	2023-06-13	11:18:28	11:32:01	805911	61f2adfaa09e72f23cbaf9da	3	1	main_z	11	advance_on_keypress_ZEE	26	stimuli_target_trianglerectangles.svg	stimuli_distractor_diamondtriangles.svg	21	yes	57	0	723	0	0			0	0			1				0	
6.6.1	mac	2023-06-13	11:18:28	11:32:04	808367	61f2adfaa09e72f23cbaf9da	3	1	main_z	11	main_z	27	stimuli_distractor_trianglediamonds.svg	stimuli_target_diamondsquares.svg	28	yes	44	1	1093	0	0			0	0			1				0	
6.6.1	mac	2023-06-13	11:18:28	11:32:04	808367	61f2adfaa09e72f23cbaf9da	3	1	main_z	11	advance_on_keypress_ZEE	28	stimuli_distractor_trianglediamonds.svg	stimuli_target_diamondsquares.svg	28	yes	57	0	574	0	0			0	0			1				0	
6.6.1	mac	2023-06-13	11:18:28	11:32:07	811580	61f2adfaa09e72f23cbaf9da	3	1	main_z	11	main_z	29	stimuli_target_diamondrectangles.svg	stimuli_distractor_trianglediamonds.svg	19	yes	0	0	2000	0	0			0	0			1				0	
6.6.1	mac	2023-06-13	11:18:28	11:32:07	811580	61f2adfaa09e72f23cbaf9da	3	1	main_z	11	advance_on_keypress_ZEE	30	stimuli_target_diamondrectangles.svg	stimuli_distractor_trianglediamonds.svg	19	yes	57	0	652	0	0			0	0			1				0	
6.6.1	mac	2023-06-13	11:18:28	11:32:09	813544	61f2adfaa09e72f23cbaf9da	3	1	main_z	11	main_z	31	stimuli_distractor_diamondtriangles.svg	stimuli_target_rectanglediamonds.svg	14	yes	44	1	679	0	0			0	0			1				0	
6.6.1	mac	2023-06-13	11:18:28	11:32:09	813544	61f2adfaa09e72f23cbaf9da	3	1	main_z	11	advance_on_keypress_ZEE	32	stimuli_distractor_diamondtriangles.svg	stimuli_target_rectanglediamonds.svg	14	yes	57	0	665	0	0			0	0			1				0	
6.6.1	mac	2023-06-13	11:18:28	11:32:11	815535	61f2adfaa09e72f23cbaf9da	3	1	main_z	11	main_z	33	stimuli_target_squaretriangles.svg	stimuli_distractor_diamondtriangles.svg	7	yes	44	1	686	0	0			0	0			1				0	
6.6.1	mac	2023-06-13	11:18:28	11:32:11	815535	61f2adfaa09e72f23cbaf9da	3	1	main_z	11	advance_on_keypress_ZEE	34	stimuli_target_squaretriangles.svg	stimuli_distractor_diamondtriangles.svg	7	yes	57	0	556	0	0			0	0			1				0	
6.6.1	mac	2023-06-13	11:18:28	11:32:13	817527	61f2adfaa09e72f23cbaf9da	3	1	main_z	11	main_z	35	stimuli_distractor_diamondtriangles.svg	stimuli_target_diamondsquares.svg	32	yes	44	1	814	0	0			0	0			1				0	
6.6.1	mac	2023-06-13	11:18:28	11:32:13	817527	61f2adfaa09e72f23cbaf9da	3	1	main_z	11	advance_on_keypress_ZEE	36	stimuli_distractor_diamondtriangles.svg	stimuli_target_diamondsquares.svg	32	yes	57	0	620	0	0			0	0			1				0	
6.6.1	mac	2023-06-13	11:18:28	11:32:15	819320	61f2adfaa09e72f23cbaf9da	3	1	main_z	11	main_z	37	stimuli_target_rectanglediamonds.svg	stimuli_distractor_diamondtriangles.svg	6	yes	44	1	541	0	0			0	0			1				0	
6.6.1	mac	2023-06-13	11:18:28	11:32:15	819320	61f2adfaa09e72f23cbaf9da	3	1	main_z	11	advance_on_keypress_ZEE	38	stimuli_target_rectanglediamonds.svg	stimuli_distractor_diamondtriangles.svg	6	yes	57	0	534	0	0			0	0			1				0	
6.6.1	mac	2023-06-13	11:18:28	11:32:17	821303	61f2adfaa09e72f23cbaf9da	3	1	main_z	11	main_z	39	stimuli_distractor_trianglediamonds.svg	stimuli_target_diamondrectangles.svg	27	yes	44	1	809	0	0			0	0			1				0	
6.6.1	mac	2023-06-13	11:18:28	11:32:17	821303	61f2adfaa09e72f23cbaf9da	3	1	main_z	11	advance_on_keypress_ZEE	40	stimuli_distractor_trianglediamonds.svg	stimuli_target_diamondrectangles.svg	27	yes	57	0	572	0	0			0	0			1				0	
6.6.1	mac	2023-06-13	11:18:28	11:32:19	823239	61f2adfaa09e72f23cbaf9da	3	1	main_z	11	main_z	41	stimuli_target_squarediamonds.svg	stimuli_distractor_diamondtriangles.svg	8	yes	44	1	711	0	0			0	0			1				0	
6.6.1	mac	2023-06-13	11:18:28	11:32:19	823239	61f2adfaa09e72f23cbaf9da	3	1	main_z	11	advance_on_keypress_ZEE	42	stimuli_target_squarediamonds.svg	stimuli_distractor_diamondtriangles.svg	8	yes	57	0	609	0	0			0	0			1				0	
6.6.1	mac	2023-06-13	11:18:28	11:32:21	825231	61f2adfaa09e72f23cbaf9da	3	1	main_z	11	main_z	43	stimuli_distractor_trianglediamonds.svg	stimuli_target_squaretriangles.svg	11	yes	44	1	736	0	0			0	0			1				0	
6.6.1	mac	2023-06-13	11:18:28	11:32:21	825231	61f2adfaa09e72f23cbaf9da	3	1	main_z	11	advance_on_keypress_ZEE	44	stimuli_distractor_trianglediamonds.svg	stimuli_target_squaretriangles.svg	11	yes	57	0	704	0	0			0	0			1				0	
6.6.1	mac	2023-06-13	11:18:28	11:32:24	828561	61f2adfaa09e72f23cbaf9da	3	1	main_z	11	main_z	45	stimuli_target_trianglesquares.svg	stimuli_distractor_diamondtriangles.svg	22	yes	0	0	2000	0	0			0	0			1				0	
6.6.1	mac	2023-06-13	11:18:28	11:32:24	828561	61f2adfaa09e72f23cbaf9da	3	1	main_z	11	advance_on_keypress_ZEE	46	stimuli_target_trianglesquares.svg	stimuli_distractor_diamondtriangles.svg	22	yes	57	0	417	0	0			0	0			1				0	
6.6.1	mac	2023-06-13	11:18:28	11:32:27	831617	61f2adfaa09e72f23cbaf9da	3	1	main_z	11	main_z	47	stimuli_target_diamondsquares.svg	stimuli_distractor_diamondtriangles.svg	24	yes	0	0	2000	0	0			0	0			1				0	
6.6.1	mac	2023-06-13	11:18:28	11:32:27	831617	61f2adfaa09e72f23cbaf9da	3	1	main_z	11	advance_on_keypress_ZEE	48	stimuli_target_diamondsquares.svg	stimuli_distractor_diamondtriangles.svg	24	yes	57	0	394	0	0			0	0			1				0	
6.6.1	mac	2023-06-13	11:18:28	11:32:29	833847	61f2adfaa09e72f23cbaf9da	3	1	main_z	11	main_z	49	stimuli_target_diamondrectangles.svg	stimuli_distractor_diamondtriangles.svg	23	yes	44	1	1199	0	0			0	0			1				0	
6.6.1	mac	2023-06-13	11:18:28	11:32:29	833847	61f2adfaa09e72f23cbaf9da	3	1	main_z	11	advance_on_keypress_ZEE	50	stimuli_target_diamondrectangles.svg	stimuli_distractor_diamondtriangles.svg	23	yes	57	0	556	0	0			0	0			1				0	
6.6.1	mac	2023-06-13	11:18:28	11:32:31	835743	61f2adfaa09e72f23cbaf9da	3	1	main_z	11	main_z	51	stimuli_distractor_diamondtriangles.svg	stimuli_target_squarediamonds.svg	16	yes	44	1	696	0	0			0	0			1				0	
6.6.1	mac	2023-06-13	11:18:28	11:32:31	835743	61f2adfaa09e72f23cbaf9da	3	1	main_z	11	advance_on_keypress_ZEE	52	stimuli_distractor_diamondtriangles.svg	stimuli_target_squarediamonds.svg	16	yes	57	0	559	0	0			0	0			1				0	
6.6.1	mac	2023-06-13	11:18:28	11:32:33	837679	61f2adfaa09e72f23cbaf9da	3	1	main_z	11	main_z	53	stimuli_distractor_diamondtriangles.svg	stimuli_target_squaretriangles.svg	15	yes	44	1	738	0	0			0	0			1				0	
6.6.1	mac	2023-06-13	11:18:28	11:32:33	837679	61f2adfaa09e72f23cbaf9da	3	1	main_z	11	advance_on_keypress_ZEE	54	stimuli_distractor_diamondtriangles.svg	stimuli_target_squaretriangles.svg	15	yes	57	0	644	0	0			0	0			1				0	
6.6.1	mac	2023-06-13	11:18:28	11:32:37	840953	61f2adfaa09e72f23cbaf9da	3	1	main_z	11	main_z	55	stimuli_distractor_diamondtriangles.svg	stimuli_distractor_trianglediamonds.svg	38	no	0	1	2000	0	0			0	0			1				0	
6.6.1	mac	2023-06-13	11:18:28	11:32:37	840953	61f2adfaa09e72f23cbaf9da	3	1	main_z	11	advance_on_keypress_ZEE	56	stimuli_distractor_diamondtriangles.svg	stimuli_distractor_trianglediamonds.svg	38	no	57	0	337	0	0			0	0			1				0	
6.6.1	mac	2023-06-13	11:18:28	11:32:38	842551	61f2adfaa09e72f23cbaf9da	3	1	main_z	11	main_z	57	stimuli_target_squarediamonds.svg	stimuli_distractor_trianglediamonds.svg	4	yes	44	1	624	0	0			0	0			1				0	
6.6.1	mac	2023-06-13	11:18:28	11:32:38	842551	61f2adfaa09e72f23cbaf9da	3	1	main_z	11	advance_on_keypress_ZEE	58	stimuli_target_squarediamonds.svg	stimuli_distractor_trianglediamonds.svg	4	yes	57	0	526	0	0			0	0			1				0	
6.6.1	mac	2023-06-13	11:18:28	11:32:40	844591	61f2adfaa09e72f23cbaf9da	3	1	main_z	11	main_z	59	stimuli_distractor_diamondtriangles.svg	stimuli_target_diamondrectangles.svg	31	yes	44	1	880	0	0			0	0			1				0	
6.6.1	mac	2023-06-13	11:18:28	11:32:40	844591	61f2adfaa09e72f23cbaf9da	3	1	main_z	11	advance_on_keypress_ZEE	60	stimuli_distractor_diamondtriangles.svg	stimuli_target_diamondrectangles.svg	31	yes	57	0	413	0	0			0	0			1				0	
6.6.1	mac	2023-06-13	11:18:28	11:32:43	847637	61f2adfaa09e72f23cbaf9da	3	1	main_z	11	main_z	61	stimuli_target_trianglesquares.svg	stimuli_distractor_trianglediamonds.svg	18	yes	0	0	2000	0	0			0	0			1				0	
6.6.1	mac	2023-06-13	11:18:28	11:32:43	847637	61f2adfaa09e72f23cbaf9da	3	1	main_z	11	advance_on_keypress_ZEE	62	stimuli_target_trianglesquares.svg	stimuli_distractor_trianglediamonds.svg	18	yes	57	0	365	0	0			0	0			1				0	
6.6.1	mac	2023-06-13	11:18:28	11:32:45	849367	61f2adfaa09e72f23cbaf9da	3	1	main_z	11	main_z	63	stimuli_distractor_diamondtriangles.svg	stimuli_target_rectangletriangles.svg	13	yes	44	1	721	0	0			0	0			1				0	
6.6.1	mac	2023-06-13	11:18:28	11:32:45	849367	61f2adfaa09e72f23cbaf9da	3	1	main_z	11	advance_on_keypress_ZEE	64	stimuli_distractor_diamondtriangles.svg	stimuli_target_rectangletriangles.svg	13	yes	57	0	492	0	0			0	0			1				0	
6.6.1	mac	2023-06-13	11:18:28	11:32:48	852493	61f2adfaa09e72f23cbaf9da	3	1	main_z	11	main_z	65	stimuli_distractor_trianglediamonds.svg	stimuli_distractor_diamondtriangles.svg	35	no	0	1	2000	0	0			0	0			1				0	
6.6.1	mac	2023-06-13	11:18:28	11:32:48	852493	61f2adfaa09e72f23cbaf9da	3	1	main_z	11	advance_on_keypress_ZEE	66	stimuli_distractor_trianglediamonds.svg	stimuli_distractor_diamondtriangles.svg	35	no	57	0	375	0	0			0	0			1				0	
6.6.1	mac	2023-06-13	11:18:28	11:32:51	855494	61f2adfaa09e72f23cbaf9da	3	1	main_z	11	main_z	67	stimuli_distractor_trianglediamonds.svg	stimuli_target_trianglerectangles.svg	25	yes	0	0	2000	0	0			0	0			1				0	
6.6.1	mac	2023-06-13	11:18:28	11:32:51	855494	61f2adfaa09e72f23cbaf9da	3	1	main_z	11	advance_on_keypress_ZEE	68	stimuli_distractor_trianglediamonds.svg	stimuli_target_trianglerectangles.svg	25	yes	57	0	684	0	0			0	0			1				0	
6.6.1	mac	2023-06-13	11:18:28	11:32:54	858119	61f2adfaa09e72f23cbaf9da	3	1	main_z	11	main_z	69	stimuli_distractor_trianglediamonds.svg	stimuli_distractor_diamondtriangles.svg	36	no	44	0	1310	0	0			0	0			1				0	
6.6.1	mac	2023-06-13	11:18:28	11:32:54	858119	61f2adfaa09e72f23cbaf9da	3	1	main_z	11	advance_on_keypress_ZEE	70	stimuli_distractor_trianglediamonds.svg	stimuli_distractor_diamondtriangles.svg	36	no	57	0	671	0	0			0	0			1				0	
6.6.1	mac	2023-06-13	11:18:28	11:32:57	861415	61f2adfaa09e72f23cbaf9da	3	1	main_z	11	main_z	71	stimuli_distractor_diamondtriangles.svg	stimuli_distractor_diamondtriangles.svg	39	no	0	1	2000	0	0			0	0			1				0	
6.6.1	mac	2023-06-13	11:18:28	11:32:57	861415	61f2adfaa09e72f23cbaf9da	3	1	main_z	11	advance_on_keypress_ZEE	72	stimuli_distractor_diamondtriangles.svg	stimuli_distractor_diamondtriangles.svg	39	no	57	0	483	0	0			0	0			1				0	
6.6.1	mac	2023-06-13	11:18:28	11:32:59	863327	61f2adfaa09e72f23cbaf9da	3	1	main_z	11	main_z	73	stimuli_distractor_trianglediamonds.svg	stimuli_target_rectangletriangles.svg	9	yes	44	1	796	0	0			0	0			1				0	
6.6.1	mac	2023-06-13	11:18:28	11:32:59	863327	61f2adfaa09e72f23cbaf9da	3	1	main_z	11	advance_on_keypress_ZEE	74	stimuli_distractor_trianglediamonds.svg	stimuli_target_rectangletriangles.svg	9	yes	57	0	717	0	0			0	0			1				0	
6.6.1	mac	2023-06-13	11:18:28	11:33:02	866674	61f2adfaa09e72f23cbaf9da	3	1	main_z	11	main_z	75	stimuli_distractor_trianglediamonds.svg	stimuli_distractor_trianglediamonds.svg	33	no	0	1	2000	0	0			0	0			1				0	
6.6.1	mac	2023-06-13	11:18:28	11:33:02	866674	61f2adfaa09e72f23cbaf9da	3	1	main_z	11	advance_on_keypress_ZEE	76	stimuli_distractor_trianglediamonds.svg	stimuli_distractor_trianglediamonds.svg	33	no	57	0	361	0	0			0	0			1				0	
6.6.1	mac	2023-06-13	11:18:28	11:33:04	868303	61f2adfaa09e72f23cbaf9da	3	1	main_z	11	main_z	77	stimuli_target_squaretriangles.svg	stimuli_distractor_trianglediamonds.svg	3	yes	44	1	640	0	0			0	0			1				0	
6.6.1	mac	2023-06-13	11:18:28	11:33:04	868303	61f2adfaa09e72f23cbaf9da	3	1	main_z	11	advance_on_keypress_ZEE	78	stimuli_target_squaretriangles.svg	stimuli_distractor_trianglediamonds.svg	3	yes	57	0	560	0	0			0	0			1				0	
6.6.1	mac	2023-06-13	11:18:28	11:33:07	871507	61f2adfaa09e72f23cbaf9da	3	1	main_z	11	main_z	79	stimuli_distractor_diamondtriangles.svg	stimuli_distractor_diamondtriangles.svg	40	no	0	1	2000	0	0			0	0			1				0	
6.6.1	mac	2023-06-13	11:18:28	11:33:07	871507	61f2adfaa09e72f23cbaf9da	3	1	main_z	11	advance_on_keypress_ZEE	80	stimuli_distractor_diamondtriangles.svg	stimuli_distractor_diamondtriangles.svg	40	no	57	0	472	0	0			0	0			1				0	
6.6.1	mac	2023-06-13	11:18:28	11:33:10	874611	61f2adfaa09e72f23cbaf9da	3	1	main_z	11	main_z	81	stimuli_target_diamondsquares.svg	stimuli_distractor_diamondtriangles.svg	24	yes	0	0	2000	0	0			0	0			1				0	
6.6.1	mac	2023-06-13	11:18:28	11:33:10	874611	61f2adfaa09e72f23cbaf9da	3	1	main_z	11	advance_on_keypress_ZEE	82	stimuli_target_diamondsquares.svg	stimuli_distractor_diamondtriangles.svg	24	yes	57	0	273	0	0			0	0			1				0	
6.6.1	mac	2023-06-13	11:18:28	11:33:13	877522	61f2adfaa09e72f23cbaf9da	3	1	main_z	11	main_z	83	stimuli_distractor_diamondtriangles.svg	stimuli_target_trianglesquares.svg	30	yes	0	0	2000	0	0			0	0			1				0	
6.6.1	mac	2023-06-13	11:18:28	11:33:13	877522	61f2adfaa09e72f23cbaf9da	3	1	main_z	11	advance_on_keypress_ZEE	84	stimuli_distractor_diamondtriangles.svg	stimuli_target_trianglesquares.svg	30	yes	57	0	96	0	0			0	0			1				0	
6.6.1	mac	2023-06-13	11:18:28	11:33:16	880252	61f2adfaa09e72f23cbaf9da	3	1	main_z	11	main_z	85	stimuli_distractor_diamondtriangles.svg	stimuli_distractor_diamondtriangles.svg	40	no	0	1	2000	0	0			0	0			1				0	
6.6.1	mac	2023-06-13	11:18:28	11:33:16	880252	61f2adfaa09e72f23cbaf9da	3	1	main_z	11	advance_on_keypress_ZEE	86	stimuli_distractor_diamondtriangles.svg	stimuli_distractor_diamondtriangles.svg	40	no	57	0	2	0	0			0	0			1				0	
6.6.1	mac	2023-06-13	11:18:28	11:33:17	881743	61f2adfaa09e72f23cbaf9da	3	1	main_z	11	main_z	87	stimuli_target_squarediamonds.svg	stimuli_distractor_trianglediamonds.svg	4	yes	44	1	842	0	0			0	0			1				0	
6.6.1	mac	2023-06-13	11:18:28	11:33:17	881743	61f2adfaa09e72f23cbaf9da	3	1	main_z	11	advance_on_keypress_ZEE	88	stimuli_target_squarediamonds.svg	stimuli_distractor_trianglediamonds.svg	4	yes	57	0	551	0	0			0	0			1				0	
6.6.1	mac	2023-06-13	11:18:28	11:33:20	884923	61f2adfaa09e72f23cbaf9da	3	1	main_z	11	main_z	89	stimuli_target_trianglesquares.svg	stimuli_distractor_diamondtriangles.svg	22	yes	0	0	2000	0	0			0	0			1				0	
6.6.1	mac	2023-06-13	11:18:28	11:33:20	884923	61f2adfaa09e72f23cbaf9da	3	1	main_z	11	advance_on_keypress_ZEE	90	stimuli_target_trianglesquares.svg	stimuli_distractor_diamondtriangles.svg	22	yes	57	0	808	0	0			0	0			1				0	
6.6.1	mac	2023-06-13	11:18:28	11:33:24	888361	61f2adfaa09e72f23cbaf9da	3	1	main_z	11	main_z	91	stimuli_target_trianglerectangles.svg	stimuli_distractor_trianglediamonds.svg	17	yes	0	0	2000	0	0			0	0			1				0	
6.6.1	mac	2023-06-13	11:18:28	11:33:24	888361	61f2adfaa09e72f23cbaf9da	3	1	main_z	11	advance_on_keypress_ZEE	92	stimuli_target_trianglerectangles.svg	stimuli_distractor_trianglediamonds.svg	17	yes	57	0	508	0	0			0	0			1				0	
6.6.1	mac	2023-06-13	11:18:28	11:33:26	890472	61f2adfaa09e72f23cbaf9da	3	1	main_z	11	main_z	93	stimuli_target_rectanglediamonds.svg	stimuli_distractor_trianglediamonds.svg	2	yes	44	1	978	0	0			0	0			1				0	
6.6.1	mac	2023-06-13	11:18:28	11:33:26	890472	61f2adfaa09e72f23cbaf9da	3	1	main_z	11	advance_on_keypress_ZEE	94	stimuli_target_rectanglediamonds.svg	stimuli_distractor_trianglediamonds.svg	2	yes	57	0	845	0	0			0	0			1				0	
6.6.1	mac	2023-06-13	11:18:28	11:33:30	893952	61f2adfaa09e72f23cbaf9da	3	1	main_z	11	main_z	95	stimuli_distractor_trianglediamonds.svg	stimuli_target_squaretriangles.svg	11	yes	0	0	2000	0	0			0	0			1				0	
6.6.1	mac	2023-06-13	11:18:28	11:33:30	893952	61f2adfaa09e72f23cbaf9da	3	1	main_z	11	advance_on_keypress_ZEE	96	stimuli_distractor_trianglediamonds.svg	stimuli_target_squaretriangles.svg	11	yes	57	0	884	0	0			0	0			1				0	
6.6.1	mac	2023-06-13	11:18:28	11:33:33	897471	61f2adfaa09e72f23cbaf9da	3	1	main_z	11	main_z	97	stimuli_distractor_diamondtriangles.svg	stimuli_target_squaretriangles.svg	15	yes	0	0	2000	0	0			0	0			1				0	
6.6.1	mac	2023-06-13	11:18:28	11:33:33	897471	61f2adfaa09e72f23cbaf9da	3	1	main_z	11	advance_on_keypress_ZEE	98	stimuli_distractor_diamondtriangles.svg	stimuli_target_squaretriangles.svg	15	yes	57	0	800	0	0			0	0			1				0	
6.6.1	mac	2023-06-13	11:18:28	11:33:35	899575	61f2adfaa09e72f23cbaf9da	3	1	main_z	11	main_z	99	stimuli_target_rectanglediamonds.svg	stimuli_distractor_diamondtriangles.svg	6	yes	44	1	678	0	0			0	0			1				0	
6.6.1	mac	2023-06-13	11:18:28	11:33:35	899575	61f2adfaa09e72f23cbaf9da	3	1	main_z	11	advance_on_keypress_ZEE	100	stimuli_target_rectanglediamonds.svg	stimuli_distractor_diamondtriangles.svg	6	yes	57	0	746	0	0			0	0			1				0	
6.6.1	mac	2023-06-13	11:18:28	11:33:39	902952	61f2adfaa09e72f23cbaf9da	3	1	main_z	11	main_z	101	stimuli_distractor_diamondtriangles.svg	stimuli_target_trianglerectangles.svg	29	yes	0	0	2000	0	0			0	0			1				0	
6.6.1	mac	2023-06-13	11:18:28	11:33:39	902952	61f2adfaa09e72f23cbaf9da	3	1	main_z	11	advance_on_keypress_ZEE	102	stimuli_distractor_diamondtriangles.svg	stimuli_target_trianglerectangles.svg	29	yes	57	0	619	0	0			0	0			1				0	
6.6.1	mac	2023-06-13	11:18:28	11:33:41	905103	61f2adfaa09e72f23cbaf9da	3	1	main_z	11	main_z	103	stimuli_distractor_diamondtriangles.svg	stimuli_target_rectanglediamonds.svg	14	yes	44	1	896	0	0			0	0			1				0	
6.6.1	mac	2023-06-13	11:18:28	11:33:41	905103	61f2adfaa09e72f23cbaf9da	3	1	main_z	11	advance_on_keypress_ZEE	104	stimuli_distractor_diamondtriangles.svg	stimuli_target_rectanglediamonds.svg	14	yes	57	0	668	0	0			0	0			1				0	
6.6.1	mac	2023-06-13	11:18:28	11:33:44	908403	61f2adfaa09e72f23cbaf9da	3	1	main_z	11	main_z	105	stimuli_distractor_trianglediamonds.svg	stimuli_distractor_diamondtriangles.svg	36	no	0	1	2000	0	0			0	0			1				0	
6.6.1	mac	2023-06-13	11:18:28	11:33:44	908403	61f2adfaa09e72f23cbaf9da	3	1	main_z	11	advance_on_keypress_ZEE	106	stimuli_distractor_trianglediamonds.svg	stimuli_distractor_diamondtriangles.svg	36	no	57	0	379	0	0			0	0			1				0	
6.6.1	mac	2023-06-13	11:18:28	11:33:47	911411	61f2adfaa09e72f23cbaf9da	3	1	main_z	11	main_z	107	stimuli_distractor_trianglediamonds.svg	stimuli_target_diamondrectangles.svg	27	yes	0	0	2000	0	0			0	0			1				0	
6.6.1	mac	2023-06-13	11:18:28	11:33:47	911411	61f2adfaa09e72f23cbaf9da	3	1	main_z	11	advance_on_keypress_ZEE	108	stimuli_distractor_trianglediamonds.svg	stimuli_target_diamondrectangles.svg	27	yes	57	0	567	0	0			0	0			1				0	
6.6.1	mac	2023-06-13	11:18:28	11:33:49	913375	61f2adfaa09e72f23cbaf9da	3	1	main_z	11	main_z	109	stimuli_target_squaretriangles.svg	stimuli_distractor_trianglediamonds.svg	3	yes	44	1	765	0	0			0	0			1				0	
6.6.1	mac	2023-06-13	11:18:28	11:33:49	913375	61f2adfaa09e72f23cbaf9da	3	1	main_z	11	advance_on_keypress_ZEE	110	stimuli_target_squaretriangles.svg	stimuli_distractor_trianglediamonds.svg	3	yes	57	0	725	0	0			0	0			1				0	
6.6.1	mac	2023-06-13	11:18:28	11:33:51	915337	61f2adfaa09e72f23cbaf9da	3	1	main_z	11	main_z	111	stimuli_distractor_trianglediamonds.svg	stimuli_target_squarediamonds.svg	12	yes	44	1	598	0	0			0	0			1				0	
6.6.1	mac	2023-06-13	11:18:28	11:33:51	915337	61f2adfaa09e72f23cbaf9da	3	1	main_z	11	advance_on_keypress_ZEE	112	stimuli_distractor_trianglediamonds.svg	stimuli_target_squarediamonds.svg	12	yes	57	0	521	0	0			0	0			1				0	
6.6.1	mac	2023-06-13	11:18:28	11:33:53	917183	61f2adfaa09e72f23cbaf9da	3	1	main_z	11	main_z	113	stimuli_distractor_trianglediamonds.svg	stimuli_target_rectangletriangles.svg	9	yes	44	1	698	0	0			0	0			1				0	
6.6.1	mac	2023-06-13	11:18:28	11:33:53	917183	61f2adfaa09e72f23cbaf9da	3	1	main_z	11	advance_on_keypress_ZEE	114	stimuli_distractor_trianglediamonds.svg	stimuli_target_rectangletriangles.svg	9	yes	57	0	468	0	0			0	0			1				0	
6.6.1	mac	2023-06-13	11:18:28	11:33:54	918887	61f2adfaa09e72f23cbaf9da	3	1	main_z	11	main_z	115	stimuli_target_rectangletriangles.svg	stimuli_distractor_trianglediamonds.svg	1	yes	44	1	601	0	0			0	0			1				0	
6.6.1	mac	2023-06-13	11:18:28	11:33:54	918887	61f2adfaa09e72f23cbaf9da	3	1	main_z	11	advance_on_keypress_ZEE	116	stimuli_target_rectangletriangles.svg	stimuli_distractor_trianglediamonds.svg	1	yes	57	0	478	0	0			0	0			1				0	
6.6.1	mac	2023-06-13	11:18:28	11:33:58	922000	61f2adfaa09e72f23cbaf9da	3	1	main_z	11	main_z	117	stimuli_distractor_trianglediamonds.svg	stimuli_target_trianglesquares.svg	26	yes	0	0	2000	0	0			0	0			1				0	
6.6.1	mac	2023-06-13	11:18:28	11:33:58	922000	61f2adfaa09e72f23cbaf9da	3	1	main_z	11	advance_on_keypress_ZEE	118	stimuli_distractor_trianglediamonds.svg	stimuli_target_trianglesquares.svg	26	yes	57	0	361	0	0			0	0			1				0	
6.6.1	mac	2023-06-13	11:18:28	11:34:01	924990	61f2adfaa09e72f23cbaf9da	3	1	main_z	11	main_z	119	stimuli_distractor_trianglediamonds.svg	stimuli_distractor_trianglediamonds.svg	33	no	0	1	2000	0	0			0	0			1				0	
6.6.1	mac	2023-06-13	11:18:28	11:34:01	924990	61f2adfaa09e72f23cbaf9da	3	1	main_z	11	advance_on_keypress_ZEE	120	stimuli_distractor_trianglediamonds.svg	stimuli_distractor_trianglediamonds.svg	33	no	57	0	765	0	0			0	0			1				0	
6.6.1	mac	2023-06-13	11:18:28	11:34:04	928385	61f2adfaa09e72f23cbaf9da	3	1	main_z	11	main_z	121	stimuli_distractor_trianglediamonds.svg	stimuli_target_diamondsquares.svg	28	yes	0	0	2000	0	0			0	0			1				0	
6.6.1	mac	2023-06-13	11:18:28	11:34:04	928385	61f2adfaa09e72f23cbaf9da	3	1	main_z	11	advance_on_keypress_ZEE	122	stimuli_distractor_trianglediamonds.svg	stimuli_target_diamondsquares.svg	28	yes	57	0	467	0	0			0	0			1				0	
6.6.1	mac	2023-06-13	11:18:28	11:34:07	931494	61f2adfaa09e72f23cbaf9da	3	1	main_z	11	main_z	123	stimuli_distractor_diamondtriangles.svg	stimuli_distractor_diamondtriangles.svg	39	no	0	1	2000	0	0			0	0			1				0	
6.6.1	mac	2023-06-13	11:18:28	11:34:07	931494	61f2adfaa09e72f23cbaf9da	3	1	main_z	11	advance_on_keypress_ZEE	124	stimuli_distractor_diamondtriangles.svg	stimuli_distractor_diamondtriangles.svg	39	no	57	0	477	0	0			0	0			1				0	
6.6.1	mac	2023-06-13	11:18:28	11:34:10	934605	61f2adfaa09e72f23cbaf9da	3	1	main_z	11	main_z	125	stimuli_distractor_diamondtriangles.svg	stimuli_target_diamondsquares.svg	32	yes	0	0	2000	0	0			0	0			1				0	
6.6.1	mac	2023-06-13	11:18:28	11:34:10	934605	61f2adfaa09e72f23cbaf9da	3	1	main_z	11	advance_on_keypress_ZEE	126	stimuli_distractor_diamondtriangles.svg	stimuli_target_diamondsquares.svg	32	yes	57	0	630	0	0			0	0			1				0	
6.6.1	mac	2023-06-13	11:18:28	11:34:13	937867	61f2adfaa09e72f23cbaf9da	3	1	main_z	11	main_z	127	stimuli_target_trianglesquares.svg	stimuli_distractor_trianglediamonds.svg	18	yes	0	0	2000	0	0			0	0			1				0	
6.6.1	mac	2023-06-13	11:18:28	11:34:13	937867	61f2adfaa09e72f23cbaf9da	3	1	main_z	11	advance_on_keypress_ZEE	128	stimuli_target_trianglesquares.svg	stimuli_distractor_trianglediamonds.svg	18	yes	57	0	402	0	0			0	0			1				0	
6.6.1	mac	2023-06-13	11:18:28	11:34:15	939871	61f2adfaa09e72f23cbaf9da	3	1	main_z	11	main_z	129	stimuli_distractor_trianglediamonds.svg	stimuli_target_rectanglediamonds.svg	10	yes	44	1	959	0	0			0	0			1				0	
6.6.1	mac	2023-06-13	11:18:28	11:34:15	939871	61f2adfaa09e72f23cbaf9da	3	1	main_z	11	advance_on_keypress_ZEE	130	stimuli_distractor_trianglediamonds.svg	stimuli_target_rectanglediamonds.svg	10	yes	57	0	504	0	0			0	0			1				0	
6.6.1	mac	2023-06-13	11:18:28	11:34:19	943008	61f2adfaa09e72f23cbaf9da	3	1	main_z	11	main_z	131	stimuli_distractor_diamondtriangles.svg	stimuli_distractor_trianglediamonds.svg	37	no	0	1	2000	0	0			0	0			1				0	
6.6.1	mac	2023-06-13	11:18:28	11:34:19	943008	61f2adfaa09e72f23cbaf9da	3	1	main_z	11	advance_on_keypress_ZEE	132	stimuli_distractor_diamondtriangles.svg	stimuli_distractor_trianglediamonds.svg	37	no	57	0	452	0	0			0	0			1				0	
6.6.1	mac	2023-06-13	11:18:28	11:34:20	944703	61f2adfaa09e72f23cbaf9da	3	1	main_z	11	main_z	133	stimuli_target_squaretriangles.svg	stimuli_distractor_diamondtriangles.svg	7	yes	44	1	599	0	0			0	0			1				0	
6.6.1	mac	2023-06-13	11:18:28	11:34:20	944703	61f2adfaa09e72f23cbaf9da	3	1	main_z	11	advance_on_keypress_ZEE	134	stimuli_target_squaretriangles.svg	stimuli_distractor_diamondtriangles.svg	7	yes	57	0	677	0	0			0	0			1				0	
6.6.1	mac	2023-06-13	11:18:28	11:34:24	948017	61f2adfaa09e72f23cbaf9da	3	1	main_z	11	main_z	135	stimuli_distractor_trianglediamonds.svg	stimuli_distractor_trianglediamonds.svg	34	no	0	1	2000	0	0			0	0			1				0	
6.6.1	mac	2023-06-13	11:18:28	11:34:24	948017	61f2adfaa09e72f23cbaf9da	3	1	main_z	11	advance_on_keypress_ZEE	136	stimuli_distractor_trianglediamonds.svg	stimuli_distractor_trianglediamonds.svg	34	no	57	0	413	0	0			0	0			1				0	
6.6.1	mac	2023-06-13	11:18:28	11:34:25	949664	61f2adfaa09e72f23cbaf9da	3	1	main_z	11	main_z	137	stimuli_distractor_diamondtriangles.svg	stimuli_target_rectangletriangles.svg	13	yes	44	1	593	0	0			0	0			1				0	
6.6.1	mac	2023-06-13	11:18:28	11:34:25	949664	61f2adfaa09e72f23cbaf9da	3	1	main_z	11	advance_on_keypress_ZEE	138	stimuli_distractor_diamondtriangles.svg	stimuli_target_rectangletriangles.svg	13	yes	57	0	464	0	0			0	0			1				0	
6.6.1	mac	2023-06-13	11:18:28	11:34:28	952767	61f2adfaa09e72f23cbaf9da	3	1	main_z	11	main_z	139	stimuli_target_rectangletriangles.svg	stimuli_distractor_diamondtriangles.svg	5	yes	0	0	2000	0	0			0	0			1				0	
6.6.1	mac	2023-06-13	11:18:28	11:34:28	952767	61f2adfaa09e72f23cbaf9da	3	1	main_z	11	advance_on_keypress_ZEE	140	stimuli_target_rectangletriangles.svg	stimuli_distractor_diamondtriangles.svg	5	yes	57	0	1507	0	0			0	0			1				0	
6.6.1	mac	2023-06-13	11:18:28	11:34:32	956908	61f2adfaa09e72f23cbaf9da	3	1	main_z	11	main_z	141	stimuli_target_diamondrectangles.svg	stimuli_distractor_trianglediamonds.svg	19	yes	0	0	2000	0	0			0	0			1				0	
6.6.1	mac	2023-06-13	11:18:28	11:34:32	956908	61f2adfaa09e72f23cbaf9da	3	1	main_z	11	advance_on_keypress_ZEE	142	stimuli_target_diamondrectangles.svg	stimuli_distractor_trianglediamonds.svg	19	yes	57	0	725	0	0			0	0			1				0	
6.6.1	mac	2023-06-13	11:18:28	11:34:35	959839	61f2adfaa09e72f23cbaf9da	3	1	main_z	11	main_z	143	stimuli_distractor_trianglediamonds.svg	stimuli_distractor_diamondtriangles.svg	35	no	44	0	1565	0	0			0	0			1				0	
6.6.1	mac	2023-06-13	11:18:28	11:34:35	959839	61f2adfaa09e72f23cbaf9da	3	1	main_z	11	advance_on_keypress_ZEE	144	stimuli_distractor_trianglediamonds.svg	stimuli_distractor_diamondtriangles.svg	35	no	57	0	535	0	0			0	0			1				0	
6.6.1	mac	2023-06-13	11:18:28	11:34:37	961719	61f2adfaa09e72f23cbaf9da	3	1	main_z	11	main_z	145	stimuli_distractor_diamondtriangles.svg	stimuli_target_squarediamonds.svg	16	yes	44	1	716	0	0			0	0			1				0	
6.6.1	mac	2023-06-13	11:18:28	11:34:37	961719	61f2adfaa09e72f23cbaf9da	3	1	main_z	11	advance_on_keypress_ZEE	146	stimuli_distractor_diamondtriangles.svg	stimuli_target_squarediamonds.svg	16	yes	57	0	525	0	0			0	0			1				0	
6.6.1	mac	2023-06-13	11:18:28	11:34:40	964207	61f2adfaa09e72f23cbaf9da	3	1	main_z	11	main_z	147	stimuli_target_diamondsquares.svg	stimuli_distractor_trianglediamonds.svg	20	yes	44	1	1344	0	0			0	0			1				0	
6.6.1	mac	2023-06-13	11:18:28	11:34:40	964207	61f2adfaa09e72f23cbaf9da	3	1	main_z	11	advance_on_keypress_ZEE	148	stimuli_target_diamondsquares.svg	stimuli_distractor_trianglediamonds.svg	20	yes	57	0	384	0	0			0	0			1				0	
6.6.1	mac	2023-06-13	11:18:28	11:34:43	967222	61f2adfaa09e72f23cbaf9da	3	1	main_z	11	main_z	149	stimuli_distractor_trianglediamonds.svg	stimuli_target_trianglerectangles.svg	25	yes	0	0	2000	0	0			0	0			1				0	
6.6.1	mac	2023-06-13	11:18:28	11:34:43	967222	61f2adfaa09e72f23cbaf9da	3	1	main_z	11	advance_on_keypress_ZEE	150	stimuli_distractor_trianglediamonds.svg	stimuli_target_trianglerectangles.svg	25	yes	57	0	505	0	0			0	0			1				0	
6.6.1	mac	2023-06-13	11:18:28	11:34:44	968863	61f2adfaa09e72f23cbaf9da	3	1	main_z	11	main_z	151	stimuli_target_squarediamonds.svg	stimuli_distractor_diamondtriangles.svg	8	yes	44	1	506	0	0			0	0			1				0	
6.6.1	mac	2023-06-13	11:18:28	11:34:44	968863	61f2adfaa09e72f23cbaf9da	3	1	main_z	11	advance_on_keypress_ZEE	152	stimuli_target_squarediamonds.svg	stimuli_distractor_diamondtriangles.svg	8	yes	57	0	501	0	0			0	0			1				0	
6.6.1	mac	2023-06-13	11:18:28	11:34:48	972020	61f2adfaa09e72f23cbaf9da	3	1	main_z	11	main_z	153	stimuli_target_diamondrectangles.svg	stimuli_distractor_diamondtriangles.svg	23	yes	0	0	2000	0	0			0	0			1				0	
6.6.1	mac	2023-06-13	11:18:28	11:34:48	972020	61f2adfaa09e72f23cbaf9da	3	1	main_z	11	advance_on_keypress_ZEE	154	stimuli_target_diamondrectangles.svg	stimuli_distractor_diamondtriangles.svg	23	yes	57	0	301	0	0			0	0			1				0	
6.6.1	mac	2023-06-13	11:18:28	11:34:51	974960	61f2adfaa09e72f23cbaf9da	3	1	main_z	11	main_z	155	stimuli_distractor_diamondtriangles.svg	stimuli_target_diamondrectangles.svg	31	yes	0	0	2000	0	0			0	0			1				0	
6.6.1	mac	2023-06-13	11:18:28	11:34:51	974960	61f2adfaa09e72f23cbaf9da	3	1	main_z	11	advance_on_keypress_ZEE	156	stimuli_distractor_diamondtriangles.svg	stimuli_target_diamondrectangles.svg	31	yes	57	0	451	0	0			0	0			1				0	
6.6.1	mac	2023-06-13	11:18:28	11:34:54	978040	61f2adfaa09e72f23cbaf9da	3	1	main_z	11	main_z	157	stimuli_target_trianglerectangles.svg	stimuli_distractor_diamondtriangles.svg	21	yes	0	0	2000	0	0			0	0			1				0	
6.6.1	mac	2023-06-13	11:18:28	11:34:54	978040	61f2adfaa09e72f23cbaf9da	3	1	main_z	11	advance_on_keypress_ZEE	158	stimuli_target_trianglerectangles.svg	stimuli_distractor_diamondtriangles.svg	21	yes	57	0	361	0	0			0	0			1				0	
6.6.1	mac	2023-06-13	11:18:28	11:34:57	981021	61f2adfaa09e72f23cbaf9da	3	1	main_z	11	main_z	159	stimuli_distractor_diamondtriangles.svg	stimuli_distractor_trianglediamonds.svg	38	no	0	1	2000	0	0			0	0			1				0	
6.6.1	mac	2023-06-13	11:18:28	11:34:57	981021	61f2adfaa09e72f23cbaf9da	3	1	main_z	11	advance_on_keypress_ZEE	160	stimuli_distractor_diamondtriangles.svg	stimuli_distractor_trianglediamonds.svg	38	no	57	0	792	0	0			0	0			1				0	
6.6.1	mac	2023-06-13	11:18:28	11:34:57	981021	61f2adfaa09e72f23cbaf9da	3	1	headphonecheck_calibration	14	headphonecheck_calibrationIntro	1	stimuli_distractor_diamondtriangles.svg	stimuli_distractor_trianglediamonds.svg	38	no	calibrationButton	0	7417	0	0			0	0			1				0	
6.6.1	mac	2023-06-13	11:18:28	11:34:57	981021	61f2adfaa09e72f23cbaf9da	3	1	headphonecheck_testphase	15	test_collectResponse	3	stimuli_distractor_diamondtriangles.svg	stimuli_distractor_trianglediamonds.svg	38	no	third	1	4802	1	6	antiphase_hc_ois.wav	3	0	0			1				0	
6.6.1	mac	2023-06-13	11:18:28	11:34:57	981021	61f2adfaa09e72f23cbaf9da	3	1	headphonecheck_testphase	15	test_collectResponse	6	stimuli_distractor_diamondtriangles.svg	stimuli_distractor_trianglediamonds.svg	38	no	second	1	375	2	5	antiphase_hc_osi.wav	2	0	0			1				0	
6.6.1	mac	2023-06-13	11:18:28	11:34:57	981021	61f2adfaa09e72f23cbaf9da	3	1	headphonecheck_testphase	15	test_collectResponse	9	stimuli_distractor_diamondtriangles.svg	stimuli_distractor_trianglediamonds.svg	38	no	third	0	575	3	3	antiphase_hc_soi.wav	1	0	0			1				0	
6.6.1	mac	2023-06-13	11:18:28	11:34:57	981021	61f2adfaa09e72f23cbaf9da	3	1	headphonecheck_testphase	15	test_collectResponse	12	stimuli_distractor_diamondtriangles.svg	stimuli_distractor_trianglediamonds.svg	38	no	second	1	136	4	1	antiphase_hc_iso.wav	2	0	0			1				0	
6.6.1	mac	2023-06-13	11:18:28	11:34:57	981021	61f2adfaa09e72f23cbaf9da	3	1	headphonecheck_testphase	15	test_collectResponse	15	stimuli_distractor_diamondtriangles.svg	stimuli_distractor_trianglediamonds.svg	38	no	third	0	192	5	4	antiphase_hc_sio.wav	1	0	0			1				0	
6.6.1	mac	2023-06-13	11:18:28	11:34:57	981021	61f2adfaa09e72f23cbaf9da	3	1	headphonecheck_testphase	15	test_collectResponse	18	stimuli_distractor_diamondtriangles.svg	stimuli_distractor_trianglediamonds.svg	38	no	third	1	213	6	2	antiphase_hc_ios.wav	3	0	0			1				0	
6.6.1	mac	2023-06-13	11:18:28	11:34:57	981021	61f2adfaa09e72f23cbaf9da	3	1	stereocheck_calibration	17	stereocheck_calibrationIntro	1	stimuli_distractor_diamondtriangles.svg	stimuli_distractor_trianglediamonds.svg	38	no	stereocheck_calibrationButton	0	6646	6	2	antiphase_hc_ios.wav	3	0	0			1				0	
6.6.1	mac	2023-06-13	11:18:28	11:34:57	981021	61f2adfaa09e72f23cbaf9da	3	1	stereocheck_testphase	18	stereocheck_test_collectResponse	3	stimuli_distractor_diamondtriangles.svg	stimuli_distractor_trianglediamonds.svg	38	no	stereocheck_right	1	15169	6	2	antiphase_hc_ios.wav	3	1	4	noise_calib_stim_RIGHT.wav	2	1				0	
6.6.1	mac	2023-06-13	11:18:28	11:34:57	981021	61f2adfaa09e72f23cbaf9da	3	1	stereocheck_testphase	18	stereocheck_test_collectResponse	6	stimuli_distractor_diamondtriangles.svg	stimuli_distractor_trianglediamonds.svg	38	no	stereocheck_left	1	1293	6	2	antiphase_hc_ios.wav	3	2	3	noise_calib_stim_LEFT.wav	1	1				0	
6.6.1	mac	2023-06-13	11:18:28	11:34:57	981021	61f2adfaa09e72f23cbaf9da	3	1	stereocheck_testphase	18	stereocheck_test_collectResponse	9	stimuli_distractor_diamondtriangles.svg	stimuli_distractor_trianglediamonds.svg	38	no	stereocheck_left	1	363	6	2	antiphase_hc_ios.wav	3	3	2	noise_calib_stim_LEFT.wav	1	1				0	
6.6.1	mac	2023-06-13	11:18:28	11:34:57	981021	61f2adfaa09e72f23cbaf9da	3	1	stereocheck_testphase	18	stereocheck_test_collectResponse	12	stimuli_distractor_diamondtriangles.svg	stimuli_distractor_trianglediamonds.svg	38	no	stereocheck_right	1	314	6	2	antiphase_hc_ios.wav	3	4	6	noise_calib_stim_RIGHT.wav	2	1				0	
6.6.1	mac	2023-06-13	11:18:28	11:34:57	981021	61f2adfaa09e72f23cbaf9da	3	1	stereocheck_testphase	18	stereocheck_test_collectResponse	15	stimuli_distractor_diamondtriangles.svg	stimuli_distractor_trianglediamonds.svg	38	no	stereocheck_right	1	343	6	2	antiphase_hc_ios.wav	3	5	5	noise_calib_stim_RIGHT.wav	2	1				0	
6.6.1	mac	2023-06-13	11:18:28	11:34:57	981021	61f2adfaa09e72f23cbaf9da	3	1	stereocheck_testphase	18	stereocheck_test_collectResponse	18	stimuli_distractor_diamondtriangles.svg	stimuli_distractor_trianglediamonds.svg	38	no	stereocheck_left	1	306	6	2	antiphase_hc_ios.wav	3	6	1	noise_calib_stim_LEFT.wav	1	1				0	
6.6.1	mac	2023-06-13	11:18:28	11:34:57	981021	61f2adfaa09e72f23cbaf9da	3	1	DL_practice	21	DL_practice	2	stimuli_distractor_diamondtriangles.svg	stimuli_distractor_trianglediamonds.svg	38	no	ta	1	1819	6	2	antiphase_hc_ios.wav	3	6	1	noise_calib_stim_LEFT.wav	1	36	blb_dichoticlistening_ta-ta.mp3	ta	ta	0	left
6.6.1	mac	2023-06-13	11:18:28	11:34:57	981021	61f2adfaa09e72f23cbaf9da	3	1	DL_practice	21	DL_practice	3	stimuli_distractor_diamondtriangles.svg	stimuli_distractor_trianglediamonds.svg	38	no	ka	1	1274	6	2	antiphase_hc_ios.wav	3	6	1	noise_calib_stim_LEFT.wav	1	22	blb_dichoticlistening_ka-ka.mp3	ka	ka	0	left
6.6.1	mac	2023-06-13	11:18:28	11:34:57	981021	61f2adfaa09e72f23cbaf9da	3	1	DL_practice	21	DL_practice	4	stimuli_distractor_diamondtriangles.svg	stimuli_distractor_trianglediamonds.svg	38	no	ka	1	1358	6	2	antiphase_hc_ios.wav	3	6	1	noise_calib_stim_LEFT.wav	1	23	blb_dichoticlistening_ka-pa.mp3	ka	pa	1	left
6.6.1	mac	2023-06-13	11:18:28	11:34:57	981021	61f2adfaa09e72f23cbaf9da	3	1	DL_practice	21	DL_practice	5	stimuli_distractor_diamondtriangles.svg	stimuli_distractor_trianglediamonds.svg	38	no	ga	1	790	6	2	antiphase_hc_ios.wav	3	6	1	noise_calib_stim_LEFT.wav	1	18	blb_dichoticlistening_ga-ta.mp3	ga	ta	1	left
6.6.1	mac	2023-06-13	11:18:28	11:34:57	981021	61f2adfaa09e72f23cbaf9da	3	1	DL_practice	21	DL_practice	6	stimuli_distractor_diamondtriangles.svg	stimuli_distractor_trianglediamonds.svg	38	no	pa	1	1164	6	2	antiphase_hc_ios.wav	3	6	1	noise_calib_stim_LEFT.wav	1	29	blb_dichoticlistening_pa-pa.mp3	pa	pa	0	left
6.6.1	mac	2023-06-13	11:18:28	11:34:57	981021	61f2adfaa09e72f23cbaf9da	3	1	DL_practice	21	DL_practice	7	stimuli_distractor_diamondtriangles.svg	stimuli_distractor_trianglediamonds.svg	38	no	ga	1	973	6	2	antiphase_hc_ios.wav	3	6	1	noise_calib_stim_LEFT.wav	1	15	blb_dichoticlistening_ga-ga.mp3	ga	ga	0	left
6.6.1	mac	2023-06-13	11:18:28	11:34:57	981021	61f2adfaa09e72f23cbaf9da	3	1	DL_practice	21	DL_practice	8	stimuli_distractor_diamondtriangles.svg	stimuli_distractor_trianglediamonds.svg	38	no	ba	1	2453	6	2	antiphase_hc_ios.wav	3	6	1	noise_calib_stim_LEFT.wav	1	1	blb_dichoticlistening_ba-ba.mp3	ba	ba	0	left
6.6.1	mac	2023-06-13	11:18:28	11:34:57	981021	61f2adfaa09e72f23cbaf9da	3	1	DL_practice	21	DL_practice	9	stimuli_distractor_diamondtriangles.svg	stimuli_distractor_trianglediamonds.svg	38	no	pa	0	1815	6	2	antiphase_hc_ios.wav	3	6	1	noise_calib_stim_LEFT.wav	1	7	blb_dichoticlistening_da-ba.mp3	da	ba	1	other
6.6.1	mac	2023-06-13	11:18:28	11:34:57	981021	61f2adfaa09e72f23cbaf9da	3	1	DL_practice	21	DL_practice	10	stimuli_distractor_diamondtriangles.svg	stimuli_distractor_trianglediamonds.svg	38	no	ta	0	1245	6	2	antiphase_hc_ios.wav	3	6	1	noise_calib_stim_LEFT.wav	1	8	blb_dichoticlistening_da-da.mp3	da	da	0	other
6.6.1	mac	2023-06-13	11:18:28	11:34:57	981021	61f2adfaa09e72f23cbaf9da	3	1	DL_test	23	DL_test	1	stimuli_distractor_diamondtriangles.svg	stimuli_distractor_trianglediamonds.svg	38	no	pa	0	1079	6	2	antiphase_hc_ios.wav	3	6	1	noise_calib_stim_LEFT.wav	1	6	blb_dichoticlistening_ba-ta.mp3	ba	ta	1	other
6.6.1	mac	2023-06-13	11:18:28	11:34:57	981021	61f2adfaa09e72f23cbaf9da	3	1	DL_test	23	DL_test	2	stimuli_distractor_diamondtriangles.svg	stimuli_distractor_trianglediamonds.svg	38	no	ga	1	965	6	2	antiphase_hc_ios.wav	3	6	1	noise_calib_stim_LEFT.wav	1	17	blb_dichoticlistening_ga-pa.mp3	ga	pa	1	left
6.6.1	mac	2023-06-13	11:18:28	11:34:57	981021	61f2adfaa09e72f23cbaf9da	3	1	DL_test	23	DL_test	3	stimuli_distractor_diamondtriangles.svg	stimuli_distractor_trianglediamonds.svg	38	no	ta	0	1851	6	2	antiphase_hc_ios.wav	3	6	1	noise_calib_stim_LEFT.wav	1	20	blb_dichoticlistening_ka-da.mp3	ka	da	1	other
6.6.1	mac	2023-06-13	11:18:28	11:34:57	981021	61f2adfaa09e72f23cbaf9da	3	1	DL_test	23	DL_test	4	stimuli_distractor_diamondtriangles.svg	stimuli_distractor_trianglediamonds.svg	38	no	ga	1	1035	6	2	antiphase_hc_ios.wav	3	6	1	noise_calib_stim_LEFT.wav	1	18	blb_dichoticlistening_ga-ta.mp3	ga	ta	1	left
6.6.1	mac	2023-06-13	11:18:28	11:34:57	981021	61f2adfaa09e72f23cbaf9da	3	1	DL_test	23	DL_test	5	stimuli_distractor_diamondtriangles.svg	stimuli_distractor_trianglediamonds.svg	38	no	ta	1	1611	6	2	antiphase_hc_ios.wav	3	6	1	noise_calib_stim_LEFT.wav	1	33	blb_dichoticlistening_ta-ga.mp3	ta	ga	1	left
6.6.1	mac	2023-06-13	11:18:28	11:34:57	981021	61f2adfaa09e72f23cbaf9da	3	1	DL_test	23	DL_test	6	stimuli_distractor_diamondtriangles.svg	stimuli_distractor_trianglediamonds.svg	38	no	ta	1	1464	6	2	antiphase_hc_ios.wav	3	6	1	noise_calib_stim_LEFT.wav	1	34	blb_dichoticlistening_ta-ka.mp3	ta	ka	1	left
6.6.1	mac	2023-06-13	11:18:28	11:34:57	981021	61f2adfaa09e72f23cbaf9da	3	1	DL_test	23	DL_test	7	stimuli_distractor_diamondtriangles.svg	stimuli_distractor_trianglediamonds.svg	38	no	pa	0	1180	6	2	antiphase_hc_ios.wav	3	6	1	noise_calib_stim_LEFT.wav	1	19	blb_dichoticlistening_ka-ba.mp3	ka	ba	1	other
6.6.1	mac	2023-06-13	11:18:28	11:34:57	981021	61f2adfaa09e72f23cbaf9da	3	1	DL_test	23	DL_test	8	stimuli_distractor_diamondtriangles.svg	stimuli_distractor_trianglediamonds.svg	38	no	ta	0	1004	6	2	antiphase_hc_ios.wav	3	6	1	noise_calib_stim_LEFT.wav	1	8	blb_dichoticlistening_da-da.mp3	da	da	0	other
6.6.1	mac	2023-06-13	11:18:28	11:34:57	981021	61f2adfaa09e72f23cbaf9da	3	1	DL_test	23	DL_test	9	stimuli_distractor_diamondtriangles.svg	stimuli_distractor_trianglediamonds.svg	38	no	ka	1	1891	6	2	antiphase_hc_ios.wav	3	6	1	noise_calib_stim_LEFT.wav	1	24	blb_dichoticlistening_ka-ta.mp3	ka	ta	1	left
6.6.1	mac	2023-06-13	11:18:28	11:34:57	981021	61f2adfaa09e72f23cbaf9da	3	1	DL_test	23	DL_test	10	stimuli_distractor_diamondtriangles.svg	stimuli_distractor_trianglediamonds.svg	38	no	pa	0	1146	6	2	antiphase_hc_ios.wav	3	6	1	noise_calib_stim_LEFT.wav	1	31	blb_dichoticlistening_ta-ba.mp3	ta	ba	1	other
6.6.1	mac	2023-06-13	11:18:28	11:34:57	981021	61f2adfaa09e72f23cbaf9da	3	1	DL_test	23	DL_test	11	stimuli_distractor_diamondtriangles.svg	stimuli_distractor_trianglediamonds.svg	38	no	ta	0	947	6	2	antiphase_hc_ios.wav	3	6	1	noise_calib_stim_LEFT.wav	1	14	blb_dichoticlistening_ga-da.mp3	ga	da	1	other
6.6.1	mac	2023-06-13	11:18:28	11:34:57	981021	61f2adfaa09e72f23cbaf9da	3	1	DL_test	23	DL_test	12	stimuli_distractor_diamondtriangles.svg	stimuli_distractor_trianglediamonds.svg	38	no	ta	0	1162	6	2	antiphase_hc_ios.wav	3	6	1	noise_calib_stim_LEFT.wav	1	11	blb_dichoticlistening_da-pa.mp3	da	pa	1	other
6.6.1	mac	2023-06-13	11:18:28	11:34:57	981021	61f2adfaa09e72f23cbaf9da	3	1	DL_test	23	DL_test	13	stimuli_distractor_diamondtriangles.svg	stimuli_distractor_trianglediamonds.svg	38	no	ga	1	1154	6	2	antiphase_hc_ios.wav	3	6	1	noise_calib_stim_LEFT.wav	1	16	blb_dichoticlistening_ga-ka.mp3	ga	ka	1	left
6.6.1	mac	2023-06-13	11:18:28	11:34:57	981021	61f2adfaa09e72f23cbaf9da	3	1	DL_test	23	DL_test	14	stimuli_distractor_diamondtriangles.svg	stimuli_distractor_trianglediamonds.svg	38	no	ta	1	1242	6	2	antiphase_hc_ios.wav	3	6	1	noise_calib_stim_LEFT.wav	1	12	blb_dichoticlistening_da-ta.mp3	da	ta	1	right
6.6.1	mac	2023-06-13	11:18:28	11:34:57	981021	61f2adfaa09e72f23cbaf9da	3	1	DL_test	23	DL_test	15	stimuli_distractor_diamondtriangles.svg	stimuli_distractor_trianglediamonds.svg	38	no	pa	0	807	6	2	antiphase_hc_ios.wav	3	6	1	noise_calib_stim_LEFT.wav	1	4	blb_dichoticlistening_ba-ka.mp3	ba	ka	1	other
6.6.1	mac	2023-06-13	11:18:28	11:34:57	981021	61f2adfaa09e72f23cbaf9da	3	1	DL_test	23	DL_test	16	stimuli_distractor_diamondtriangles.svg	stimuli_distractor_trianglediamonds.svg	38	no	ga	1	1213	6	2	antiphase_hc_ios.wav	3	6	1	noise_calib_stim_LEFT.wav	1	21	blb_dichoticlistening_ka-ga.mp3	ka	ga	1	right
6.6.1	mac	2023-06-13	11:18:28	11:34:57	981021	61f2adfaa09e72f23cbaf9da	3	1	DL_test	23	DL_test	17	stimuli_distractor_diamondtriangles.svg	stimuli_distractor_trianglediamonds.svg	38	no	pa	1	1353	6	2	antiphase_hc_ios.wav	3	6	1	noise_calib_stim_LEFT.wav	1	5	blb_dichoticlistening_ba-pa.mp3	ba	pa	1	right
6.6.1	mac	2023-06-13	11:18:28	11:34:57	981021	61f2adfaa09e72f23cbaf9da	3	1	DL_test	23	DL_test	18	stimuli_distractor_diamondtriangles.svg	stimuli_distractor_trianglediamonds.svg	38	no	ta	0	1201	6	2	antiphase_hc_ios.wav	3	6	1	noise_calib_stim_LEFT.wav	1	28	blb_dichoticlistening_pa-ka.mp3	pa	ka	1	other
6.6.1	mac	2023-06-13	11:18:28	11:34:57	981021	61f2adfaa09e72f23cbaf9da	3	1	DL_test	23	DL_test	19	stimuli_distractor_diamondtriangles.svg	stimuli_distractor_trianglediamonds.svg	38	no	ta	0	1537	6	2	antiphase_hc_ios.wav	3	6	1	noise_calib_stim_LEFT.wav	1	7	blb_dichoticlistening_da-ba.mp3	da	ba	1	other
6.6.1	mac	2023-06-13	11:18:28	11:34:57	981021	61f2adfaa09e72f23cbaf9da	3	1	DL_test	23	DL_test	20	stimuli_distractor_diamondtriangles.svg	stimuli_distractor_trianglediamonds.svg	38	no	ta	1	922	6	2	antiphase_hc_ios.wav	3	6	1	noise_calib_stim_LEFT.wav	1	35	blb_dichoticlistening_ta-pa.mp3	ta	pa	1	left
6.6.1	mac	2023-06-13	11:18:28	11:34:57	981021	61f2adfaa09e72f23cbaf9da	3	1	DL_test	23	DL_test	21	stimuli_distractor_diamondtriangles.svg	stimuli_distractor_trianglediamonds.svg	38	no	pa	0	2228	6	2	antiphase_hc_ios.wav	3	6	1	noise_calib_stim_LEFT.wav	1	1	blb_dichoticlistening_ba-ba.mp3	ba	ba	0	other
6.6.1	mac	2023-06-13	11:18:28	11:34:57	981021	61f2adfaa09e72f23cbaf9da	3	1	DL_test	23	DL_test	22	stimuli_distractor_diamondtriangles.svg	stimuli_distractor_trianglediamonds.svg	38	no	ta	0	1269	6	2	antiphase_hc_ios.wav	3	6	1	noise_calib_stim_LEFT.wav	1	9	blb_dichoticlistening_da-ga.mp3	da	ga	1	other
6.6.1	mac	2023-06-13	11:18:28	11:34:57	981021	61f2adfaa09e72f23cbaf9da	3	1	DL_test	23	DL_test	23	stimuli_distractor_diamondtriangles.svg	stimuli_distractor_trianglediamonds.svg	38	no	ta	1	1129	6	2	antiphase_hc_ios.wav	3	6	1	noise_calib_stim_LEFT.wav	1	36	blb_dichoticlistening_ta-ta.mp3	ta	ta	0	left
6.6.1	mac	2023-06-13	11:18:28	11:34:57	981021	61f2adfaa09e72f23cbaf9da	3	1	DL_test	23	DL_test	24	stimuli_distractor_diamondtriangles.svg	stimuli_distractor_trianglediamonds.svg	38	no	ta	0	977	6	2	antiphase_hc_ios.wav	3	6	1	noise_calib_stim_LEFT.wav	1	23	blb_dichoticlistening_ka-pa.mp3	ka	pa	1	other
6.6.1	mac	2023-06-13	11:18:28	11:34:57	981021	61f2adfaa09e72f23cbaf9da	3	1	DL_test	23	DL_test	25	stimuli_distractor_diamondtriangles.svg	stimuli_distractor_trianglediamonds.svg	38	no	ta	1	918	6	2	antiphase_hc_ios.wav	3	6	1	noise_calib_stim_LEFT.wav	1	32	blb_dichoticlistening_ta-da.mp3	ta	da	1	left
