build	computer.platform	date	time	timestamp	time_elapsed_ms	subject	group	session	blockcode	blocknum	trialcode	trialnum	stimulus_left	stimulus_right	stim_index	target_present	response	correct	latency	headphonecheck_countTestTrials	headphonecheck_index	headphonecheck_testSound	headphonecheck_correctResponse	stereocheck_countTestTrials	stereocheck_index	stereocheck_testSound	stereocheck_correctResponse	DL_index	DL_soundfile	DL_leftSound	DL_rightSound	DL_dualSound	DL_choice
6.6.1	win	2023-06-17	04:33:51	0	0	63d79d065189719c8393e3eb	2	1	headphonecheck_calibration	4	headphonecheck_calibrationIntro	1			0		calibrationButton	0	3889	0	0			0	0			1				0	
6.6.1	win	2023-06-17	04:33:51	0	0	63d79d065189719c8393e3eb	2	1	headphonecheck_testphase	5	test_collectResponse	3			0		first	1	550	1	4	antiphase_hc_sio.wav	1	0	0			1				0	
6.6.1	win	2023-06-17	04:33:51	0	0	63d79d065189719c8393e3eb	2	1	headphonecheck_testphase	5	test_collectResponse	6			0		third	1	184	2	2	antiphase_hc_ios.wav	3	0	0			1				0	
6.6.1	win	2023-06-17	04:33:51	0	0	63d79d065189719c8393e3eb	2	1	headphonecheck_testphase	5	test_collectResponse	9			0		first	1	190	3	3	antiphase_hc_soi.wav	1	0	0			1				0	
6.6.1	win	2023-06-17	04:33:51	0	0	63d79d065189719c8393e3eb	2	1	headphonecheck_testphase	5	test_collectResponse	12			0		third	1	194	4	6	antiphase_hc_ois.wav	3	0	0			1				0	
6.6.1	win	2023-06-17	04:33:51	0	0	63d79d065189719c8393e3eb	2	1	headphonecheck_testphase	5	test_collectResponse	15			0		second	1	229	5	5	antiphase_hc_osi.wav	2	0	0			1				0	
6.6.1	win	2023-06-17	04:33:51	0	0	63d79d065189719c8393e3eb	2	1	headphonecheck_testphase	5	test_collectResponse	18			0		second	1	279	6	1	antiphase_hc_iso.wav	2	0	0			1				0	
6.6.1	win	2023-06-17	04:33:51	0	0	63d79d065189719c8393e3eb	2	1	stereocheck_calibration	7	stereocheck_calibrationIntro	1			0		stereocheck_calibrationButton	0	3151	6	1	antiphase_hc_iso.wav	2	0	0			1				0	
6.6.1	win	2023-06-17	04:33:51	0	0	63d79d065189719c8393e3eb	2	1	stereocheck_testphase	8	stereocheck_test_collectResponse	3			0		stereocheck_right	1	751	6	1	antiphase_hc_iso.wav	2	1	6	noise_calib_stim_RIGHT.wav	2	1				0	
6.6.1	win	2023-06-17	04:33:51	0	0	63d79d065189719c8393e3eb	2	1	stereocheck_testphase	8	stereocheck_test_collectResponse	6			0		stereocheck_left	1	389	6	1	antiphase_hc_iso.wav	2	2	1	noise_calib_stim_LEFT.wav	1	1				0	
6.6.1	win	2023-06-17	04:33:51	0	0	63d79d065189719c8393e3eb	2	1	stereocheck_testphase	8	stereocheck_test_collectResponse	9			0		stereocheck_left	1	263	6	1	antiphase_hc_iso.wav	2	3	2	noise_calib_stim_LEFT.wav	1	1				0	
6.6.1	win	2023-06-17	04:33:51	0	0	63d79d065189719c8393e3eb	2	1	stereocheck_testphase	8	stereocheck_test_collectResponse	12			0		stereocheck_right	1	241	6	1	antiphase_hc_iso.wav	2	4	4	noise_calib_stim_RIGHT.wav	2	1				0	
6.6.1	win	2023-06-17	04:33:51	0	0	63d79d065189719c8393e3eb	2	1	stereocheck_testphase	8	stereocheck_test_collectResponse	15			0		stereocheck_right	1	232	6	1	antiphase_hc_iso.wav	2	5	5	noise_calib_stim_RIGHT.wav	2	1				0	
6.6.1	win	2023-06-17	04:33:51	0	0	63d79d065189719c8393e3eb	2	1	stereocheck_testphase	8	stereocheck_test_collectResponse	18			0		stereocheck_left	1	421	6	1	antiphase_hc_iso.wav	2	6	3	noise_calib_stim_LEFT.wav	1	1				0	
6.6.1	win	2023-06-17	04:33:51	0	0	63d79d065189719c8393e3eb	2	1	DL_practice	11	DL_practice	2			0		ga	1	1048	6	1	antiphase_hc_iso.wav	2	6	3	noise_calib_stim_LEFT.wav	1	15	blb_dichoticlistening_ga-ga.mp3	ga	ga	0	left
6.6.1	win	2023-06-17	04:33:51	0	0	63d79d065189719c8393e3eb	2	1	DL_practice	11	DL_practice	3			0		ka	1	2970	6	1	antiphase_hc_iso.wav	2	6	3	noise_calib_stim_LEFT.wav	1	23	blb_dichoticlistening_ka-pa.mp3	ka	pa	1	left
6.6.1	win	2023-06-17	04:33:51	0	0	63d79d065189719c8393e3eb	2	1	DL_practice	11	DL_practice	4			0		da	1	1078	6	1	antiphase_hc_iso.wav	2	6	3	noise_calib_stim_LEFT.wav	1	8	blb_dichoticlistening_da-da.mp3	da	da	0	left
6.6.1	win	2023-06-17	04:33:51	0	0	63d79d065189719c8393e3eb	2	1	DL_practice	11	DL_practice	5			0		pa	1	1124	6	1	antiphase_hc_iso.wav	2	6	3	noise_calib_stim_LEFT.wav	1	29	blb_dichoticlistening_pa-pa.mp3	pa	pa	0	left
6.6.1	win	2023-06-17	04:33:51	0	0	63d79d065189719c8393e3eb	2	1	DL_practice	11	DL_practice	6			0		ta	1	1683	6	1	antiphase_hc_iso.wav	2	6	3	noise_calib_stim_LEFT.wav	1	36	blb_dichoticlistening_ta-ta.mp3	ta	ta	0	left
6.6.1	win	2023-06-17	04:33:51	0	0	63d79d065189719c8393e3eb	2	1	DL_practice	11	DL_practice	7			0		ga	1	3786	6	1	antiphase_hc_iso.wav	2	6	3	noise_calib_stim_LEFT.wav	1	18	blb_dichoticlistening_ga-ta.mp3	ga	ta	1	left
6.6.1	win	2023-06-17	04:33:51	0	0	63d79d065189719c8393e3eb	2	1	DL_practice	11	DL_practice	8			0		ka	1	866	6	1	antiphase_hc_iso.wav	2	6	3	noise_calib_stim_LEFT.wav	1	22	blb_dichoticlistening_ka-ka.mp3	ka	ka	0	left
6.6.1	win	2023-06-17	04:33:51	0	0	63d79d065189719c8393e3eb	2	1	DL_practice	11	DL_practice	9			0		da	1	994	6	1	antiphase_hc_iso.wav	2	6	3	noise_calib_stim_LEFT.wav	1	7	blb_dichoticlistening_da-ba.mp3	da	ba	1	left
6.6.1	win	2023-06-17	04:33:51	0	0	63d79d065189719c8393e3eb	2	1	DL_practice	11	DL_practice	10			0		ba	1	1120	6	1	antiphase_hc_iso.wav	2	6	3	noise_calib_stim_LEFT.wav	1	1	blb_dichoticlistening_ba-ba.mp3	ba	ba	0	left
6.6.1	win	2023-06-17	04:33:51	0	0	63d79d065189719c8393e3eb	2	1	DL_test	13	DL_test	1			0		ka	1	1182	6	1	antiphase_hc_iso.wav	2	6	3	noise_calib_stim_LEFT.wav	1	16	blb_dichoticlistening_ga-ka.mp3	ga	ka	1	right
6.6.1	win	2023-06-17	04:33:51	0	0	63d79d065189719c8393e3eb	2	1	DL_test	13	DL_test	2			0		da	1	893	6	1	antiphase_hc_iso.wav	2	6	3	noise_calib_stim_LEFT.wav	1	8	blb_dichoticlistening_da-da.mp3	da	da	0	left
6.6.1	win	2023-06-17	04:33:51	0	0	63d79d065189719c8393e3eb	2	1	DL_test	13	DL_test	3			0		ka	1	823	6	1	antiphase_hc_iso.wav	2	6	3	noise_calib_stim_LEFT.wav	1	24	blb_dichoticlistening_ka-ta.mp3	ka	ta	1	left
6.6.1	win	2023-06-17	04:33:51	0	0	63d79d065189719c8393e3eb	2	1	DL_test	13	DL_test	4			0		ga	1	949	6	1	antiphase_hc_iso.wav	2	6	3	noise_calib_stim_LEFT.wav	1	15	blb_dichoticlistening_ga-ga.mp3	ga	ga	0	left
6.6.1	win	2023-06-17	04:33:51	0	0	63d79d065189719c8393e3eb	2	1	DL_test	13	DL_test	5			0		pa	0	1379	6	1	antiphase_hc_iso.wav	2	6	3	noise_calib_stim_LEFT.wav	1	10	blb_dichoticlistening_da-ka.mp3	da	ka	1	other
6.6.1	win	2023-06-17	04:33:51	0	0	63d79d065189719c8393e3eb	2	1	DL_test	13	DL_test	6			0		ta	1	2618	6	1	antiphase_hc_iso.wav	2	6	3	noise_calib_stim_LEFT.wav	1	32	blb_dichoticlistening_ta-da.mp3	ta	da	1	left
6.6.1	win	2023-06-17	04:33:51	0	0	63d79d065189719c8393e3eb	2	1	DL_test	13	DL_test	7			0		ka	1	925	6	1	antiphase_hc_iso.wav	2	6	3	noise_calib_stim_LEFT.wav	1	4	blb_dichoticlistening_ba-ka.mp3	ba	ka	1	right
6.6.1	win	2023-06-17	04:33:51	0	0	63d79d065189719c8393e3eb	2	1	DL_test	13	DL_test	8			0		pa	1	1354	6	1	antiphase_hc_iso.wav	2	6	3	noise_calib_stim_LEFT.wav	1	5	blb_dichoticlistening_ba-pa.mp3	ba	pa	1	right
6.6.1	win	2023-06-17	04:33:51	0	0	63d79d065189719c8393e3eb	2	1	DL_test	13	DL_test	9			0		ba	1	2198	6	1	antiphase_hc_iso.wav	2	6	3	noise_calib_stim_LEFT.wav	1	13	blb_dichoticlistening_ga-ba.mp3	ga	ba	1	right
6.6.1	win	2023-06-17	04:33:51	0	0	63d79d065189719c8393e3eb	2	1	DL_test	13	DL_test	10			0		ta	1	1524	6	1	antiphase_hc_iso.wav	2	6	3	noise_calib_stim_LEFT.wav	1	12	blb_dichoticlistening_da-ta.mp3	da	ta	1	right
6.6.1	win	2023-06-17	04:33:51	0	0	63d79d065189719c8393e3eb	2	1	DL_test	13	DL_test	11			0		ga	1	4280	6	1	antiphase_hc_iso.wav	2	6	3	noise_calib_stim_LEFT.wav	1	18	blb_dichoticlistening_ga-ta.mp3	ga	ta	1	left
6.6.1	win	2023-06-17	04:33:51	0	0	63d79d065189719c8393e3eb	2	1	DL_test	13	DL_test	12			0		pa	1	1065	6	1	antiphase_hc_iso.wav	2	6	3	noise_calib_stim_LEFT.wav	1	29	blb_dichoticlistening_pa-pa.mp3	pa	pa	0	left
6.6.1	win	2023-06-17	04:33:51	0	0	63d79d065189719c8393e3eb	2	1	DL_test	13	DL_test	13			0		ta	1	1434	6	1	antiphase_hc_iso.wav	2	6	3	noise_calib_stim_LEFT.wav	1	6	blb_dichoticlistening_ba-ta.mp3	ba	ta	1	right
6.6.1	win	2023-06-17	04:33:51	0	0	63d79d065189719c8393e3eb	2	1	DL_test	13	DL_test	14			0		da	1	910	6	1	antiphase_hc_iso.wav	2	6	3	noise_calib_stim_LEFT.wav	1	7	blb_dichoticlistening_da-ba.mp3	da	ba	1	left
6.6.1	win	2023-06-17	04:33:51	0	0	63d79d065189719c8393e3eb	2	1	DL_test	13	DL_test	15			0		ka	1	983	6	1	antiphase_hc_iso.wav	2	6	3	noise_calib_stim_LEFT.wav	1	22	blb_dichoticlistening_ka-ka.mp3	ka	ka	0	left
6.6.1	win	2023-06-17	04:33:51	0	0	63d79d065189719c8393e3eb	2	1	DL_test	13	DL_test	16			0		da	1	3357	6	1	antiphase_hc_iso.wav	2	6	3	noise_calib_stim_LEFT.wav	1	20	blb_dichoticlistening_ka-da.mp3	ka	da	1	right
6.6.1	win	2023-06-17	04:33:51	0	0	63d79d065189719c8393e3eb	2	1	DL_test	13	DL_test	17			0		pa	1	1096	6	1	antiphase_hc_iso.wav	2	6	3	noise_calib_stim_LEFT.wav	1	11	blb_dichoticlistening_da-pa.mp3	da	pa	1	right
6.6.1	win	2023-06-17	04:33:51	0	0	63d79d065189719c8393e3eb	2	1	DL_test	13	DL_test	18			0		ka	1	4421	6	1	antiphase_hc_iso.wav	2	6	3	noise_calib_stim_LEFT.wav	1	23	blb_dichoticlistening_ka-pa.mp3	ka	pa	1	left
6.6.1	win	2023-06-17	04:33:51	0	0	63d79d065189719c8393e3eb	2	1	DL_test	13	DL_test	19			0		pa	0	3663	6	1	antiphase_hc_iso.wav	2	6	3	noise_calib_stim_LEFT.wav	1	19	blb_dichoticlistening_ka-ba.mp3	ka	ba	1	other
6.6.1	win	2023-06-17	04:33:51	0	0	63d79d065189719c8393e3eb	2	1	DL_test	13	DL_test	20			0		ka	1	824	6	1	antiphase_hc_iso.wav	2	6	3	noise_calib_stim_LEFT.wav	1	34	blb_dichoticlistening_ta-ka.mp3	ta	ka	1	right
6.6.1	win	2023-06-17	04:33:51	0	0	63d79d065189719c8393e3eb	2	1	DL_test	13	DL_test	21			0		da	1	916	6	1	antiphase_hc_iso.wav	2	6	3	noise_calib_stim_LEFT.wav	1	2	blb_dichoticlistening_ba-da.mp3	ba	da	1	right
6.6.1	win	2023-06-17	04:33:51	0	0	63d79d065189719c8393e3eb	2	1	DL_test	13	DL_test	22			0		da	1	987	6	1	antiphase_hc_iso.wav	2	6	3	noise_calib_stim_LEFT.wav	1	9	blb_dichoticlistening_da-ga.mp3	da	ga	1	left
6.6.1	win	2023-06-17	04:33:51	0	0	63d79d065189719c8393e3eb	2	1	DL_test	13	DL_test	23			0		ka	1	948	6	1	antiphase_hc_iso.wav	2	6	3	noise_calib_stim_LEFT.wav	1	28	blb_dichoticlistening_pa-ka.mp3	pa	ka	1	right
6.6.1	win	2023-06-17	04:33:51	0	0	63d79d065189719c8393e3eb	2	1	DL_test	13	DL_test	24			0		ba	1	1290	6	1	antiphase_hc_iso.wav	2	6	3	noise_calib_stim_LEFT.wav	1	1	blb_dichoticlistening_ba-ba.mp3	ba	ba	0	left
6.6.1	win	2023-06-17	04:33:51	0	0	63d79d065189719c8393e3eb	2	1	DL_test	13	DL_test	25			0		ta	1	1467	6	1	antiphase_hc_iso.wav	2	6	3	noise_calib_stim_LEFT.wav	1	35	blb_dichoticlistening_ta-pa.mp3	ta	pa	1	left
6.6.1	win	2023-06-17	04:33:51	0	0	63d79d065189719c8393e3eb	2	1	DL_test	13	DL_test	26			0		ga	1	1293	6	1	antiphase_hc_iso.wav	2	6	3	noise_calib_stim_LEFT.wav	1	21	blb_dichoticlistening_ka-ga.mp3	ka	ga	1	right
6.6.1	win	2023-06-17	04:33:51	0	0	63d79d065189719c8393e3eb	2	1	DL_test	13	DL_test	27			0		pa	1	1009	6	1	antiphase_hc_iso.wav	2	6	3	noise_calib_stim_LEFT.wav	1	26	blb_dichoticlistening_pa-da.mp3	pa	da	1	left
6.6.1	win	2023-06-17	04:33:51	0	0	63d79d065189719c8393e3eb	2	1	DL_test	13	DL_test	28			0		pa	1	869	6	1	antiphase_hc_iso.wav	2	6	3	noise_calib_stim_LEFT.wav	1	25	blb_dichoticlistening_pa-ba.mp3	pa	ba	1	left
6.6.1	win	2023-06-17	04:33:51	0	0	63d79d065189719c8393e3eb	2	1	DL_test	13	DL_test	29			0		ta	1	1024	6	1	antiphase_hc_iso.wav	2	6	3	noise_calib_stim_LEFT.wav	1	30	blb_dichoticlistening_pa-ta.mp3	pa	ta	1	right
6.6.1	win	2023-06-17	04:33:51	0	0	63d79d065189719c8393e3eb	2	1	DL_test	13	DL_test	30			0		ga	1	1167	6	1	antiphase_hc_iso.wav	2	6	3	noise_calib_stim_LEFT.wav	1	3	blb_dichoticlistening_ba-ga.mp3	ba	ga	1	right
6.6.1	win	2023-06-17	04:33:51	0	0	63d79d065189719c8393e3eb	2	1	DL_test	13	DL_test	31			0		ka	0	1613	6	1	antiphase_hc_iso.wav	2	6	3	noise_calib_stim_LEFT.wav	1	33	blb_dichoticlistening_ta-ga.mp3	ta	ga	1	other
6.6.1	win	2023-06-17	04:33:51	0	0	63d79d065189719c8393e3eb	2	1	DL_test	13	DL_test	32			0		pa	1	1168	6	1	antiphase_hc_iso.wav	2	6	3	noise_calib_stim_LEFT.wav	1	27	blb_dichoticlistening_pa-ga.mp3	pa	ga	1	left
6.6.1	win	2023-06-17	04:33:51	0	0	63d79d065189719c8393e3eb	2	1	DL_test	13	DL_test	33			0		pa	1	843	6	1	antiphase_hc_iso.wav	2	6	3	noise_calib_stim_LEFT.wav	1	17	blb_dichoticlistening_ga-pa.mp3	ga	pa	1	right
6.6.1	win	2023-06-17	04:33:51	0	0	63d79d065189719c8393e3eb	2	1	DL_test	13	DL_test	34			0		ta	1	1246	6	1	antiphase_hc_iso.wav	2	6	3	noise_calib_stim_LEFT.wav	1	36	blb_dichoticlistening_ta-ta.mp3	ta	ta	0	left
6.6.1	win	2023-06-17	04:33:51	0	0	63d79d065189719c8393e3eb	2	1	DL_test	13	DL_test	35			0		da	1	750	6	1	antiphase_hc_iso.wav	2	6	3	noise_calib_stim_LEFT.wav	1	14	blb_dichoticlistening_ga-da.mp3	ga	da	1	right
6.6.1	win	2023-06-17	04:33:51	0	0	63d79d065189719c8393e3eb	2	1	DL_test	13	DL_test	36			0		pa	0	1581	6	1	antiphase_hc_iso.wav	2	6	3	noise_calib_stim_LEFT.wav	1	31	blb_dichoticlistening_ta-ba.mp3	ta	ba	1	other
6.6.1	win	2023-06-17	04:33:51	0	0	63d79d065189719c8393e3eb	2	1	DL_test	14	DL_test	1			0		da	1	696	6	1	antiphase_hc_iso.wav	2	6	3	noise_calib_stim_LEFT.wav	1	9	blb_dichoticlistening_da-ga.mp3	da	ga	1	left
6.6.1	win	2023-06-17	04:33:51	0	0	63d79d065189719c8393e3eb	2	1	DL_test	14	DL_test	2			0		pa	1	1014	6	1	antiphase_hc_iso.wav	2	6	3	noise_calib_stim_LEFT.wav	1	29	blb_dichoticlistening_pa-pa.mp3	pa	pa	0	left
6.6.1	win	2023-06-17	04:33:51	0	0	63d79d065189719c8393e3eb	2	1	DL_test	14	DL_test	3			0		da	1	1411	6	1	antiphase_hc_iso.wav	2	6	3	noise_calib_stim_LEFT.wav	1	32	blb_dichoticlistening_ta-da.mp3	ta	da	1	right
6.6.1	win	2023-06-17	04:33:51	0	0	63d79d065189719c8393e3eb	2	1	DL_test	14	DL_test	4			0		pa	0	949	6	1	antiphase_hc_iso.wav	2	6	3	noise_calib_stim_LEFT.wav	1	10	blb_dichoticlistening_da-ka.mp3	da	ka	1	other
6.6.1	win	2023-06-17	04:33:51	0	0	63d79d065189719c8393e3eb	2	1	DL_test	14	DL_test	5			0		ka	1	741	6	1	antiphase_hc_iso.wav	2	6	3	noise_calib_stim_LEFT.wav	1	28	blb_dichoticlistening_pa-ka.mp3	pa	ka	1	right
6.6.1	win	2023-06-17	04:33:51	0	0	63d79d065189719c8393e3eb	2	1	DL_test	14	DL_test	6			0		ka	1	726	6	1	antiphase_hc_iso.wav	2	6	3	noise_calib_stim_LEFT.wav	1	22	blb_dichoticlistening_ka-ka.mp3	ka	ka	0	left
6.6.1	win	2023-06-17	04:33:51	0	0	63d79d065189719c8393e3eb	2	1	DL_test	14	DL_test	7			0		pa	1	809	6	1	antiphase_hc_iso.wav	2	6	3	noise_calib_stim_LEFT.wav	1	11	blb_dichoticlistening_da-pa.mp3	da	pa	1	right
6.6.1	win	2023-06-17	04:33:51	0	0	63d79d065189719c8393e3eb	2	1	DL_test	14	DL_test	8			0		ba	1	1993	6	1	antiphase_hc_iso.wav	2	6	3	noise_calib_stim_LEFT.wav	1	1	blb_dichoticlistening_ba-ba.mp3	ba	ba	0	left
6.6.1	win	2023-06-17	04:33:51	0	0	63d79d065189719c8393e3eb	2	1	DL_test	14	DL_test	9			0		ka	1	1118	6	1	antiphase_hc_iso.wav	2	6	3	noise_calib_stim_LEFT.wav	1	24	blb_dichoticlistening_ka-ta.mp3	ka	ta	1	left
6.6.1	win	2023-06-17	04:33:51	0	0	63d79d065189719c8393e3eb	2	1	DL_test	14	DL_test	10			0		pa	1	962	6	1	antiphase_hc_iso.wav	2	6	3	noise_calib_stim_LEFT.wav	1	23	blb_dichoticlistening_ka-pa.mp3	ka	pa	1	right
6.6.1	win	2023-06-17	04:33:51	0	0	63d79d065189719c8393e3eb	2	1	DL_test	14	DL_test	11			0		da	1	975	6	1	antiphase_hc_iso.wav	2	6	3	noise_calib_stim_LEFT.wav	1	8	blb_dichoticlistening_da-da.mp3	da	da	0	left
6.6.1	win	2023-06-17	04:33:51	0	0	63d79d065189719c8393e3eb	2	1	DL_test	14	DL_test	12			0		ga	1	1806	6	1	antiphase_hc_iso.wav	2	6	3	noise_calib_stim_LEFT.wav	1	18	blb_dichoticlistening_ga-ta.mp3	ga	ta	1	left
6.6.1	win	2023-06-17	04:33:51	0	0	63d79d065189719c8393e3eb	2	1	DL_test	14	DL_test	13			0		pa	1	1027	6	1	antiphase_hc_iso.wav	2	6	3	noise_calib_stim_LEFT.wav	1	25	blb_dichoticlistening_pa-ba.mp3	pa	ba	1	left
6.6.1	win	2023-06-17	04:33:51	0	0	63d79d065189719c8393e3eb	2	1	DL_test	14	DL_test	14			0		pa	1	1031	6	1	antiphase_hc_iso.wav	2	6	3	noise_calib_stim_LEFT.wav	1	35	blb_dichoticlistening_ta-pa.mp3	ta	pa	1	right
6.6.1	win	2023-06-17	04:33:51	0	0	63d79d065189719c8393e3eb	2	1	DL_test	14	DL_test	15			0		da	1	1010	6	1	antiphase_hc_iso.wav	2	6	3	noise_calib_stim_LEFT.wav	1	2	blb_dichoticlistening_ba-da.mp3	ba	da	1	right
6.6.1	win	2023-06-17	04:33:51	0	0	63d79d065189719c8393e3eb	2	1	DL_test	14	DL_test	16			0		pa	1	1006	6	1	antiphase_hc_iso.wav	2	6	3	noise_calib_stim_LEFT.wav	1	30	blb_dichoticlistening_pa-ta.mp3	pa	ta	1	left
6.6.1	win	2023-06-17	04:33:51	0	0	63d79d065189719c8393e3eb	2	1	DL_test	14	DL_test	17			0		ka	1	1012	6	1	antiphase_hc_iso.wav	2	6	3	noise_calib_stim_LEFT.wav	1	20	blb_dichoticlistening_ka-da.mp3	ka	da	1	left
6.6.1	win	2023-06-17	04:33:51	0	0	63d79d065189719c8393e3eb	2	1	DL_test	14	DL_test	18			0		ka	1	808	6	1	antiphase_hc_iso.wav	2	6	3	noise_calib_stim_LEFT.wav	1	16	blb_dichoticlistening_ga-ka.mp3	ga	ka	1	right
6.6.1	win	2023-06-17	04:33:51	0	0	63d79d065189719c8393e3eb	2	1	DL_test	14	DL_test	19			0		ka	0	2210	6	1	antiphase_hc_iso.wav	2	6	3	noise_calib_stim_LEFT.wav	1	6	blb_dichoticlistening_ba-ta.mp3	ba	ta	1	other
6.6.1	win	2023-06-17	04:33:51	0	0	63d79d065189719c8393e3eb	2	1	DL_test	14	DL_test	20			0		da	1	2221	6	1	antiphase_hc_iso.wav	2	6	3	noise_calib_stim_LEFT.wav	1	26	blb_dichoticlistening_pa-da.mp3	pa	da	1	right
6.6.1	win	2023-06-17	04:33:51	0	0	63d79d065189719c8393e3eb	2	1	DL_test	14	DL_test	21			0		pa	1	797	6	1	antiphase_hc_iso.wav	2	6	3	noise_calib_stim_LEFT.wav	1	5	blb_dichoticlistening_ba-pa.mp3	ba	pa	1	right
6.6.1	win	2023-06-17	04:33:51	0	0	63d79d065189719c8393e3eb	2	1	DL_test	14	DL_test	22			0		pa	1	815	6	1	antiphase_hc_iso.wav	2	6	3	noise_calib_stim_LEFT.wav	1	17	blb_dichoticlistening_ga-pa.mp3	ga	pa	1	right
6.6.1	win	2023-06-17	04:33:51	0	0	63d79d065189719c8393e3eb	2	1	DL_test	14	DL_test	23			0		ka	1	769	6	1	antiphase_hc_iso.wav	2	6	3	noise_calib_stim_LEFT.wav	1	4	blb_dichoticlistening_ba-ka.mp3	ba	ka	1	right
6.6.1	win	2023-06-17	04:33:51	0	0	63d79d065189719c8393e3eb	2	1	DL_test	14	DL_test	24			0		ga	1	759	6	1	antiphase_hc_iso.wav	2	6	3	noise_calib_stim_LEFT.wav	1	15	blb_dichoticlistening_ga-ga.mp3	ga	ga	0	left
6.6.1	win	2023-06-17	04:33:51	0	0	63d79d065189719c8393e3eb	2	1	DL_test	14	DL_test	25			0		ga	1	932	6	1	antiphase_hc_iso.wav	2	6	3	noise_calib_stim_LEFT.wav	1	3	blb_dichoticlistening_ba-ga.mp3	ba	ga	1	right
6.6.1	win	2023-06-17	04:33:51	0	0	63d79d065189719c8393e3eb	2	1	DL_test	14	DL_test	26			0		da	1	841	6	1	antiphase_hc_iso.wav	2	6	3	noise_calib_stim_LEFT.wav	1	7	blb_dichoticlistening_da-ba.mp3	da	ba	1	left
6.6.1	win	2023-06-17	04:33:51	0	0	63d79d065189719c8393e3eb	2	1	DL_test	14	DL_test	27			0		da	1	671	6	1	antiphase_hc_iso.wav	2	6	3	noise_calib_stim_LEFT.wav	1	14	blb_dichoticlistening_ga-da.mp3	ga	da	1	right
6.6.1	win	2023-06-17	04:33:51	0	0	63d79d065189719c8393e3eb	2	1	DL_test	14	DL_test	28			0		da	0	633	6	1	antiphase_hc_iso.wav	2	6	3	noise_calib_stim_LEFT.wav	1	13	blb_dichoticlistening_ga-ba.mp3	ga	ba	1	other
6.6.1	win	2023-06-17	04:33:51	0	0	63d79d065189719c8393e3eb	2	1	DL_test	14	DL_test	29			0		ta	1	1886	6	1	antiphase_hc_iso.wav	2	6	3	noise_calib_stim_LEFT.wav	1	33	blb_dichoticlistening_ta-ga.mp3	ta	ga	1	left
6.6.1	win	2023-06-17	04:33:51	0	0	63d79d065189719c8393e3eb	2	1	DL_test	14	DL_test	30			0		pa	1	915	6	1	antiphase_hc_iso.wav	2	6	3	noise_calib_stim_LEFT.wav	1	27	blb_dichoticlistening_pa-ga.mp3	pa	ga	1	left
6.6.1	win	2023-06-17	04:33:51	0	0	63d79d065189719c8393e3eb	2	1	DL_test	14	DL_test	31			0		ta	1	1195	6	1	antiphase_hc_iso.wav	2	6	3	noise_calib_stim_LEFT.wav	1	36	blb_dichoticlistening_ta-ta.mp3	ta	ta	0	left
6.6.1	win	2023-06-17	04:33:51	0	0	63d79d065189719c8393e3eb	2	1	DL_test	14	DL_test	32			0		ta	1	892	6	1	antiphase_hc_iso.wav	2	6	3	noise_calib_stim_LEFT.wav	1	12	blb_dichoticlistening_da-ta.mp3	da	ta	1	right
6.6.1	win	2023-06-17	04:33:51	0	0	63d79d065189719c8393e3eb	2	1	DL_test	14	DL_test	33			0		ta	1	973	6	1	antiphase_hc_iso.wav	2	6	3	noise_calib_stim_LEFT.wav	1	31	blb_dichoticlistening_ta-ba.mp3	ta	ba	1	left
6.6.1	win	2023-06-17	04:33:51	0	0	63d79d065189719c8393e3eb	2	1	DL_test	14	DL_test	34			0		ka	1	1164	6	1	antiphase_hc_iso.wav	2	6	3	noise_calib_stim_LEFT.wav	1	19	blb_dichoticlistening_ka-ba.mp3	ka	ba	1	left
6.6.1	win	2023-06-17	04:33:51	0	0	63d79d065189719c8393e3eb	2	1	DL_test	14	DL_test	35			0		ga	1	914	6	1	antiphase_hc_iso.wav	2	6	3	noise_calib_stim_LEFT.wav	1	21	blb_dichoticlistening_ka-ga.mp3	ka	ga	1	right
6.6.1	win	2023-06-17	04:33:51	0	0	63d79d065189719c8393e3eb	2	1	DL_test	14	DL_test	36			0		ka	1	897	6	1	antiphase_hc_iso.wav	2	6	3	noise_calib_stim_LEFT.wav	1	34	blb_dichoticlistening_ta-ka.mp3	ta	ka	1	right
6.6.1	win	2023-06-17	04:33:51	0	0	63d79d065189719c8393e3eb	2	1	DL_test	15	DL_test	1			0		ta	1	1052	6	1	antiphase_hc_iso.wav	2	6	3	noise_calib_stim_LEFT.wav	1	31	blb_dichoticlistening_ta-ba.mp3	ta	ba	1	left
6.6.1	win	2023-06-17	04:33:51	0	0	63d79d065189719c8393e3eb	2	1	DL_test	15	DL_test	2			0		ta	1	881	6	1	antiphase_hc_iso.wav	2	6	3	noise_calib_stim_LEFT.wav	1	6	blb_dichoticlistening_ba-ta.mp3	ba	ta	1	right
6.6.1	win	2023-06-17	04:33:51	0	0	63d79d065189719c8393e3eb	2	1	DL_test	15	DL_test	3			0		ga	1	677	6	1	antiphase_hc_iso.wav	2	6	3	noise_calib_stim_LEFT.wav	1	15	blb_dichoticlistening_ga-ga.mp3	ga	ga	0	left
6.6.1	win	2023-06-17	04:33:51	0	0	63d79d065189719c8393e3eb	2	1	DL_test	15	DL_test	4			0		da	1	699	6	1	antiphase_hc_iso.wav	2	6	3	noise_calib_stim_LEFT.wav	1	7	blb_dichoticlistening_da-ba.mp3	da	ba	1	left
6.6.1	win	2023-06-17	04:33:51	0	0	63d79d065189719c8393e3eb	2	1	DL_test	15	DL_test	5			0		ka	1	1120	6	1	antiphase_hc_iso.wav	2	6	3	noise_calib_stim_LEFT.wav	1	22	blb_dichoticlistening_ka-ka.mp3	ka	ka	0	left
6.6.1	win	2023-06-17	04:33:51	0	0	63d79d065189719c8393e3eb	2	1	DL_test	15	DL_test	6			0		pa	1	1451	6	1	antiphase_hc_iso.wav	2	6	3	noise_calib_stim_LEFT.wav	1	23	blb_dichoticlistening_ka-pa.mp3	ka	pa	1	right
6.6.1	win	2023-06-17	04:33:51	0	0	63d79d065189719c8393e3eb	2	1	DL_test	15	DL_test	7			0		pa	1	699	6	1	antiphase_hc_iso.wav	2	6	3	noise_calib_stim_LEFT.wav	1	25	blb_dichoticlistening_pa-ba.mp3	pa	ba	1	left
6.6.1	win	2023-06-17	04:33:51	0	0	63d79d065189719c8393e3eb	2	1	DL_test	15	DL_test	8			0		ba	1	1061	6	1	antiphase_hc_iso.wav	2	6	3	noise_calib_stim_LEFT.wav	1	1	blb_dichoticlistening_ba-ba.mp3	ba	ba	0	left
6.6.1	win	2023-06-17	04:33:51	0	0	63d79d065189719c8393e3eb	2	1	DL_test	15	DL_test	9			0		ta	1	1134	6	1	antiphase_hc_iso.wav	2	6	3	noise_calib_stim_LEFT.wav	1	30	blb_dichoticlistening_pa-ta.mp3	pa	ta	1	right
6.6.1	win	2023-06-17	04:33:51	0	0	63d79d065189719c8393e3eb	2	1	DL_test	15	DL_test	10			0		pa	0	956	6	1	antiphase_hc_iso.wav	2	6	3	noise_calib_stim_LEFT.wav	1	10	blb_dichoticlistening_da-ka.mp3	da	ka	1	other
6.6.1	win	2023-06-17	04:33:51	0	0	63d79d065189719c8393e3eb	2	1	DL_test	15	DL_test	11			0		da	1	847	6	1	antiphase_hc_iso.wav	2	6	3	noise_calib_stim_LEFT.wav	1	8	blb_dichoticlistening_da-da.mp3	da	da	0	left
6.6.1	win	2023-06-17	04:33:51	0	0	63d79d065189719c8393e3eb	2	1	DL_test	15	DL_test	12			0		ka	1	903	6	1	antiphase_hc_iso.wav	2	6	3	noise_calib_stim_LEFT.wav	1	34	blb_dichoticlistening_ta-ka.mp3	ta	ka	1	right
6.6.1	win	2023-06-17	04:33:51	0	0	63d79d065189719c8393e3eb	2	1	DL_test	15	DL_test	13			0		da	0	2248	6	1	antiphase_hc_iso.wav	2	6	3	noise_calib_stim_LEFT.wav	1	13	blb_dichoticlistening_ga-ba.mp3	ga	ba	1	other
6.6.1	win	2023-06-17	04:33:51	0	0	63d79d065189719c8393e3eb	2	1	DL_test	15	DL_test	14			0		ka	1	853	6	1	antiphase_hc_iso.wav	2	6	3	noise_calib_stim_LEFT.wav	1	28	blb_dichoticlistening_pa-ka.mp3	pa	ka	1	right
6.6.1	win	2023-06-17	04:33:51	0	0	63d79d065189719c8393e3eb	2	1	DL_test	15	DL_test	15			0		ka	1	854	6	1	antiphase_hc_iso.wav	2	6	3	noise_calib_stim_LEFT.wav	1	19	blb_dichoticlistening_ka-ba.mp3	ka	ba	1	left
6.6.1	win	2023-06-17	04:33:51	0	0	63d79d065189719c8393e3eb	2	1	DL_test	15	DL_test	16			0		da	1	1726	6	1	antiphase_hc_iso.wav	2	6	3	noise_calib_stim_LEFT.wav	1	26	blb_dichoticlistening_pa-da.mp3	pa	da	1	right
6.6.1	win	2023-06-17	04:33:51	0	0	63d79d065189719c8393e3eb	2	1	DL_test	15	DL_test	17			0		da	0	2044	6	1	antiphase_hc_iso.wav	2	6	3	noise_calib_stim_LEFT.wav	1	33	blb_dichoticlistening_ta-ga.mp3	ta	ga	1	other
6.6.1	win	2023-06-17	04:33:51	0	0	63d79d065189719c8393e3eb	2	1	DL_test	15	DL_test	18			0		ta	1	1491	6	1	antiphase_hc_iso.wav	2	6	3	noise_calib_stim_LEFT.wav	1	18	blb_dichoticlistening_ga-ta.mp3	ga	ta	1	right
6.6.1	win	2023-06-17	04:33:51	0	0	63d79d065189719c8393e3eb	2	1	DL_test	15	DL_test	19			0		da	1	853	6	1	antiphase_hc_iso.wav	2	6	3	noise_calib_stim_LEFT.wav	1	14	blb_dichoticlistening_ga-da.mp3	ga	da	1	right
6.6.1	win	2023-06-17	04:33:51	0	0	63d79d065189719c8393e3eb	2	1	DL_test	15	DL_test	20			0		pa	1	836	6	1	antiphase_hc_iso.wav	2	6	3	noise_calib_stim_LEFT.wav	1	11	blb_dichoticlistening_da-pa.mp3	da	pa	1	right
6.6.1	win	2023-06-17	04:33:51	0	0	63d79d065189719c8393e3eb	2	1	DL_test	15	DL_test	21			0		ga	1	671	6	1	antiphase_hc_iso.wav	2	6	3	noise_calib_stim_LEFT.wav	1	3	blb_dichoticlistening_ba-ga.mp3	ba	ga	1	right
6.6.1	win	2023-06-17	04:33:51	0	0	63d79d065189719c8393e3eb	2	1	DL_test	15	DL_test	22			0		pa	1	829	6	1	antiphase_hc_iso.wav	2	6	3	noise_calib_stim_LEFT.wav	1	5	blb_dichoticlistening_ba-pa.mp3	ba	pa	1	right
6.6.1	win	2023-06-17	04:33:51	0	0	63d79d065189719c8393e3eb	2	1	DL_test	15	DL_test	23			0		ta	1	851	6	1	antiphase_hc_iso.wav	2	6	3	noise_calib_stim_LEFT.wav	1	12	blb_dichoticlistening_da-ta.mp3	da	ta	1	right
6.6.1	win	2023-06-17	04:33:51	0	0	63d79d065189719c8393e3eb	2	1	DL_test	15	DL_test	24			0		ka	1	794	6	1	antiphase_hc_iso.wav	2	6	3	noise_calib_stim_LEFT.wav	1	16	blb_dichoticlistening_ga-ka.mp3	ga	ka	1	right
6.6.1	win	2023-06-17	04:33:51	0	0	63d79d065189719c8393e3eb	2	1	DL_test	15	DL_test	25			0		ka	1	840	6	1	antiphase_hc_iso.wav	2	6	3	noise_calib_stim_LEFT.wav	1	4	blb_dichoticlistening_ba-ka.mp3	ba	ka	1	right
6.6.1	win	2023-06-17	04:33:51	0	0	63d79d065189719c8393e3eb	2	1	DL_test	15	DL_test	26			0		pa	1	901	6	1	antiphase_hc_iso.wav	2	6	3	noise_calib_stim_LEFT.wav	1	27	blb_dichoticlistening_pa-ga.mp3	pa	ga	1	left
6.6.1	win	2023-06-17	04:33:51	0	0	63d79d065189719c8393e3eb	2	1	DL_test	15	DL_test	27			0		da	1	818	6	1	antiphase_hc_iso.wav	2	6	3	noise_calib_stim_LEFT.wav	1	9	blb_dichoticlistening_da-ga.mp3	da	ga	1	left
6.6.1	win	2023-06-17	04:33:51	0	0	63d79d065189719c8393e3eb	2	1	DL_test	15	DL_test	28			0		da	1	627	6	1	antiphase_hc_iso.wav	2	6	3	noise_calib_stim_LEFT.wav	1	2	blb_dichoticlistening_ba-da.mp3	ba	da	1	right
6.6.1	win	2023-06-17	04:33:51	0	0	63d79d065189719c8393e3eb	2	1	DL_test	15	DL_test	29			0		ta	1	1098	6	1	antiphase_hc_iso.wav	2	6	3	noise_calib_stim_LEFT.wav	1	35	blb_dichoticlistening_ta-pa.mp3	ta	pa	1	left
6.6.1	win	2023-06-17	04:33:51	0	0	63d79d065189719c8393e3eb	2	1	DL_test	15	DL_test	30			0		da	1	1541	6	1	antiphase_hc_iso.wav	2	6	3	noise_calib_stim_LEFT.wav	1	32	blb_dichoticlistening_ta-da.mp3	ta	da	1	right
6.6.1	win	2023-06-17	04:33:51	0	0	63d79d065189719c8393e3eb	2	1	DL_test	15	DL_test	31			0		ga	1	1184	6	1	antiphase_hc_iso.wav	2	6	3	noise_calib_stim_LEFT.wav	1	21	blb_dichoticlistening_ka-ga.mp3	ka	ga	1	right
6.6.1	win	2023-06-17	04:33:51	0	0	63d79d065189719c8393e3eb	2	1	DL_test	15	DL_test	32			0		ta	1	1082	6	1	antiphase_hc_iso.wav	2	6	3	noise_calib_stim_LEFT.wav	1	36	blb_dichoticlistening_ta-ta.mp3	ta	ta	0	left
6.6.1	win	2023-06-17	04:33:51	0	0	63d79d065189719c8393e3eb	2	1	DL_test	15	DL_test	33			0		pa	1	1020	6	1	antiphase_hc_iso.wav	2	6	3	noise_calib_stim_LEFT.wav	1	29	blb_dichoticlistening_pa-pa.mp3	pa	pa	0	left
6.6.1	win	2023-06-17	04:33:51	0	0	63d79d065189719c8393e3eb	2	1	DL_test	15	DL_test	34			0		pa	1	1225	6	1	antiphase_hc_iso.wav	2	6	3	noise_calib_stim_LEFT.wav	1	17	blb_dichoticlistening_ga-pa.mp3	ga	pa	1	right
6.6.1	win	2023-06-17	04:33:51	0	0	63d79d065189719c8393e3eb	2	1	DL_test	15	DL_test	35			0		ka	1	916	6	1	antiphase_hc_iso.wav	2	6	3	noise_calib_stim_LEFT.wav	1	24	blb_dichoticlistening_ka-ta.mp3	ka	ta	1	left
6.6.1	win	2023-06-17	04:33:51	0	0	63d79d065189719c8393e3eb	2	1	DL_test	15	DL_test	36			0		da	1	970	6	1	antiphase_hc_iso.wav	2	6	3	noise_calib_stim_LEFT.wav	1	20	blb_dichoticlistening_ka-da.mp3	ka	da	1	right
6.6.1	win	2023-06-17	04:33:51	0	0	63d79d065189719c8393e3eb	2	1	DL_test	16	DL_test	1			0		da	1	1210	6	1	antiphase_hc_iso.wav	2	6	3	noise_calib_stim_LEFT.wav	1	26	blb_dichoticlistening_pa-da.mp3	pa	da	1	right
6.6.1	win	2023-06-17	04:33:51	0	0	63d79d065189719c8393e3eb	2	1	DL_test	16	DL_test	2			0		ta	1	1092	6	1	antiphase_hc_iso.wav	2	6	3	noise_calib_stim_LEFT.wav	1	6	blb_dichoticlistening_ba-ta.mp3	ba	ta	1	right
6.6.1	win	2023-06-17	04:33:51	0	0	63d79d065189719c8393e3eb	2	1	DL_test	16	DL_test	3			0		da	1	812	6	1	antiphase_hc_iso.wav	2	6	3	noise_calib_stim_LEFT.wav	1	32	blb_dichoticlistening_ta-da.mp3	ta	da	1	right
6.6.1	win	2023-06-17	04:33:51	0	0	63d79d065189719c8393e3eb	2	1	DL_test	16	DL_test	4			0		da	1	710	6	1	antiphase_hc_iso.wav	2	6	3	noise_calib_stim_LEFT.wav	1	2	blb_dichoticlistening_ba-da.mp3	ba	da	1	right
6.6.1	win	2023-06-17	04:33:51	0	0	63d79d065189719c8393e3eb	2	1	DL_test	16	DL_test	5			0		pa	1	1089	6	1	antiphase_hc_iso.wav	2	6	3	noise_calib_stim_LEFT.wav	1	25	blb_dichoticlistening_pa-ba.mp3	pa	ba	1	left
6.6.1	win	2023-06-17	04:33:51	0	0	63d79d065189719c8393e3eb	2	1	DL_test	16	DL_test	6			0		ka	1	1004	6	1	antiphase_hc_iso.wav	2	6	3	noise_calib_stim_LEFT.wav	1	34	blb_dichoticlistening_ta-ka.mp3	ta	ka	1	right
6.6.1	win	2023-06-17	04:33:51	0	0	63d79d065189719c8393e3eb	2	1	DL_test	16	DL_test	7			0		ta	1	1181	6	1	antiphase_hc_iso.wav	2	6	3	noise_calib_stim_LEFT.wav	1	12	blb_dichoticlistening_da-ta.mp3	da	ta	1	right
6.6.1	win	2023-06-17	04:33:51	0	0	63d79d065189719c8393e3eb	2	1	DL_test	16	DL_test	8			0		ga	1	838	6	1	antiphase_hc_iso.wav	2	6	3	noise_calib_stim_LEFT.wav	1	21	blb_dichoticlistening_ka-ga.mp3	ka	ga	1	right
6.6.1	win	2023-06-17	04:33:51	0	0	63d79d065189719c8393e3eb	2	1	DL_test	16	DL_test	9			0		ga	1	947	6	1	antiphase_hc_iso.wav	2	6	3	noise_calib_stim_LEFT.wav	1	15	blb_dichoticlistening_ga-ga.mp3	ga	ga	0	left
6.6.1	win	2023-06-17	04:33:51	0	0	63d79d065189719c8393e3eb	2	1	DL_test	16	DL_test	10			0		ba	1	1021	6	1	antiphase_hc_iso.wav	2	6	3	noise_calib_stim_LEFT.wav	1	13	blb_dichoticlistening_ga-ba.mp3	ga	ba	1	right
6.6.1	win	2023-06-17	04:33:51	0	0	63d79d065189719c8393e3eb	2	1	DL_test	16	DL_test	11			0		ta	1	925	6	1	antiphase_hc_iso.wav	2	6	3	noise_calib_stim_LEFT.wav	1	31	blb_dichoticlistening_ta-ba.mp3	ta	ba	1	left
6.6.1	win	2023-06-17	04:33:51	0	0	63d79d065189719c8393e3eb	2	1	DL_test	16	DL_test	12			0		pa	1	1192	6	1	antiphase_hc_iso.wav	2	6	3	noise_calib_stim_LEFT.wav	1	5	blb_dichoticlistening_ba-pa.mp3	ba	pa	1	right
6.6.1	win	2023-06-17	04:33:51	0	0	63d79d065189719c8393e3eb	2	1	DL_test	16	DL_test	13			0		ka	1	1243	6	1	antiphase_hc_iso.wav	2	6	3	noise_calib_stim_LEFT.wav	1	19	blb_dichoticlistening_ka-ba.mp3	ka	ba	1	left
6.6.1	win	2023-06-17	04:33:51	0	0	63d79d065189719c8393e3eb	2	1	DL_test	16	DL_test	14			0		ga	1	856	6	1	antiphase_hc_iso.wav	2	6	3	noise_calib_stim_LEFT.wav	1	33	blb_dichoticlistening_ta-ga.mp3	ta	ga	1	right
6.6.1	win	2023-06-17	04:33:51	0	0	63d79d065189719c8393e3eb	2	1	DL_test	16	DL_test	15			0		da	1	1539	6	1	antiphase_hc_iso.wav	2	6	3	noise_calib_stim_LEFT.wav	1	14	blb_dichoticlistening_ga-da.mp3	ga	da	1	right
6.6.1	win	2023-06-17	04:33:51	0	0	63d79d065189719c8393e3eb	2	1	DL_test	16	DL_test	16			0		ta	0	990	6	1	antiphase_hc_iso.wav	2	6	3	noise_calib_stim_LEFT.wav	1	11	blb_dichoticlistening_da-pa.mp3	da	pa	1	other
6.6.1	win	2023-06-17	04:33:51	0	0	63d79d065189719c8393e3eb	2	1	DL_test	16	DL_test	17			0		da	1	1633	6	1	antiphase_hc_iso.wav	2	6	3	noise_calib_stim_LEFT.wav	1	8	blb_dichoticlistening_da-da.mp3	da	da	0	left
6.6.1	win	2023-06-17	04:33:51	0	0	63d79d065189719c8393e3eb	2	1	DL_test	16	DL_test	18			0		ka	1	1207	6	1	antiphase_hc_iso.wav	2	6	3	noise_calib_stim_LEFT.wav	1	20	blb_dichoticlistening_ka-da.mp3	ka	da	1	left
6.6.1	win	2023-06-17	04:33:51	0	0	63d79d065189719c8393e3eb	2	1	DL_test	16	DL_test	19			0		ba	1	999	6	1	antiphase_hc_iso.wav	2	6	3	noise_calib_stim_LEFT.wav	1	7	blb_dichoticlistening_da-ba.mp3	da	ba	1	right
6.6.1	win	2023-06-17	04:33:51	0	0	63d79d065189719c8393e3eb	2	1	DL_test	16	DL_test	20			0		ba	1	1708	6	1	antiphase_hc_iso.wav	2	6	3	noise_calib_stim_LEFT.wav	1	1	blb_dichoticlistening_ba-ba.mp3	ba	ba	0	left
6.6.1	win	2023-06-17	04:33:51	0	0	63d79d065189719c8393e3eb	2	1	DL_test	16	DL_test	21			0		ta	1	836	6	1	antiphase_hc_iso.wav	2	6	3	noise_calib_stim_LEFT.wav	1	30	blb_dichoticlistening_pa-ta.mp3	pa	ta	1	right
6.6.1	win	2023-06-17	04:33:51	0	0	63d79d065189719c8393e3eb	2	1	DL_test	16	DL_test	22			0		ka	1	696	6	1	antiphase_hc_iso.wav	2	6	3	noise_calib_stim_LEFT.wav	1	28	blb_dichoticlistening_pa-ka.mp3	pa	ka	1	right
6.6.1	win	2023-06-17	04:33:51	0	0	63d79d065189719c8393e3eb	2	1	DL_test	16	DL_test	23			0		ka	1	1146	6	1	antiphase_hc_iso.wav	2	6	3	noise_calib_stim_LEFT.wav	1	23	blb_dichoticlistening_ka-pa.mp3	ka	pa	1	left
6.6.1	win	2023-06-17	04:33:51	0	0	63d79d065189719c8393e3eb	2	1	DL_test	16	DL_test	24			0		ta	1	1082	6	1	antiphase_hc_iso.wav	2	6	3	noise_calib_stim_LEFT.wav	1	36	blb_dichoticlistening_ta-ta.mp3	ta	ta	0	left
6.6.1	win	2023-06-17	04:33:51	0	0	63d79d065189719c8393e3eb	2	1	DL_test	16	DL_test	25			0		ga	1	872	6	1	antiphase_hc_iso.wav	2	6	3	noise_calib_stim_LEFT.wav	1	3	blb_dichoticlistening_ba-ga.mp3	ba	ga	1	right
6.6.1	win	2023-06-17	04:33:51	0	0	63d79d065189719c8393e3eb	2	1	DL_test	16	DL_test	26			0		ka	1	792	6	1	antiphase_hc_iso.wav	2	6	3	noise_calib_stim_LEFT.wav	1	4	blb_dichoticlistening_ba-ka.mp3	ba	ka	1	right
6.6.1	win	2023-06-17	04:33:51	0	0	63d79d065189719c8393e3eb	2	1	DL_test	16	DL_test	27			0		pa	0	901	6	1	antiphase_hc_iso.wav	2	6	3	noise_calib_stim_LEFT.wav	1	10	blb_dichoticlistening_da-ka.mp3	da	ka	1	other
6.6.1	win	2023-06-17	04:33:51	0	0	63d79d065189719c8393e3eb	2	1	DL_test	16	DL_test	28			0		da	1	986	6	1	antiphase_hc_iso.wav	2	6	3	noise_calib_stim_LEFT.wav	1	9	blb_dichoticlistening_da-ga.mp3	da	ga	1	left
6.6.1	win	2023-06-17	04:33:51	0	0	63d79d065189719c8393e3eb	2	1	DL_test	16	DL_test	29			0		pa	1	934	6	1	antiphase_hc_iso.wav	2	6	3	noise_calib_stim_LEFT.wav	1	17	blb_dichoticlistening_ga-pa.mp3	ga	pa	1	right
6.6.1	win	2023-06-17	04:33:51	0	0	63d79d065189719c8393e3eb	2	1	DL_test	16	DL_test	30			0		ta	1	1195	6	1	antiphase_hc_iso.wav	2	6	3	noise_calib_stim_LEFT.wav	1	18	blb_dichoticlistening_ga-ta.mp3	ga	ta	1	right
6.6.1	win	2023-06-17	04:33:51	0	0	63d79d065189719c8393e3eb	2	1	DL_test	16	DL_test	31			0		ka	1	957	6	1	antiphase_hc_iso.wav	2	6	3	noise_calib_stim_LEFT.wav	1	22	blb_dichoticlistening_ka-ka.mp3	ka	ka	0	left
6.6.1	win	2023-06-17	04:33:51	0	0	63d79d065189719c8393e3eb	2	1	DL_test	16	DL_test	32			0		ka	1	989	6	1	antiphase_hc_iso.wav	2	6	3	noise_calib_stim_LEFT.wav	1	16	blb_dichoticlistening_ga-ka.mp3	ga	ka	1	right
6.6.1	win	2023-06-17	04:33:51	0	0	63d79d065189719c8393e3eb	2	1	DL_test	16	DL_test	33			0		pa	1	1012	6	1	antiphase_hc_iso.wav	2	6	3	noise_calib_stim_LEFT.wav	1	29	blb_dichoticlistening_pa-pa.mp3	pa	pa	0	left
6.6.1	win	2023-06-17	04:33:51	0	0	63d79d065189719c8393e3eb	2	1	DL_test	16	DL_test	34			0		ta	1	1436	6	1	antiphase_hc_iso.wav	2	6	3	noise_calib_stim_LEFT.wav	1	35	blb_dichoticlistening_ta-pa.mp3	ta	pa	1	left
6.6.1	win	2023-06-17	04:33:51	0	0	63d79d065189719c8393e3eb	2	1	DL_test	16	DL_test	35			0		ka	1	1273	6	1	antiphase_hc_iso.wav	2	6	3	noise_calib_stim_LEFT.wav	1	24	blb_dichoticlistening_ka-ta.mp3	ka	ta	1	left
6.6.1	win	2023-06-17	04:33:51	0	0	63d79d065189719c8393e3eb	2	1	DL_test	16	DL_test	36			0		ga	1	1368	6	1	antiphase_hc_iso.wav	2	6	3	noise_calib_stim_LEFT.wav	1	27	blb_dichoticlistening_pa-ga.mp3	pa	ga	1	right
6.6.1	win	2023-06-17	04:33:51	04:46:26	751861	63d79d065189719c8393e3eb	2	1	practice_z	22	practice_z	1	stimuli_target_diamondsquares.svg	stimuli_distractor_trianglediamonds.svg	6	yes	44	1	1979	6	1	antiphase_hc_iso.wav	2	6	3	noise_calib_stim_LEFT.wav	1	27	blb_dichoticlistening_pa-ga.mp3	pa	ga	1	right
6.6.1	win	2023-06-17	04:33:51	04:46:26	751861	63d79d065189719c8393e3eb	2	1	practice_z	22	advance_on_keypress_ZEE	2	stimuli_target_diamondsquares.svg	stimuli_distractor_trianglediamonds.svg	6	yes	57	0	846	6	1	antiphase_hc_iso.wav	2	6	3	noise_calib_stim_LEFT.wav	1	27	blb_dichoticlistening_pa-ga.mp3	pa	ga	1	right
6.6.1	win	2023-06-17	04:33:51	04:46:30	756351	63d79d065189719c8393e3eb	2	1	practice_z	22	practice_z	3	stimuli_distractor_diamondtriangles.svg	stimuli_target_trianglerectangles.svg	9	yes	0	0	2000	6	1	antiphase_hc_iso.wav	2	6	3	noise_calib_stim_LEFT.wav	1	27	blb_dichoticlistening_pa-ga.mp3	pa	ga	1	right
6.6.1	win	2023-06-17	04:33:51	04:46:30	756351	63d79d065189719c8393e3eb	2	1	practice_z	22	advance_on_keypress_ZEE	4	stimuli_distractor_diamondtriangles.svg	stimuli_target_trianglerectangles.svg	9	yes	57	0	618	6	1	antiphase_hc_iso.wav	2	6	3	noise_calib_stim_LEFT.wav	1	27	blb_dichoticlistening_pa-ga.mp3	pa	ga	1	right
6.6.1	win	2023-06-17	04:33:51	04:46:33	759653	63d79d065189719c8393e3eb	2	1	practice_z	22	practice_z	5	stimuli_distractor_trianglediamonds.svg	stimuli_target_diamondrectangles.svg	12	yes	44	1	1039	6	1	antiphase_hc_iso.wav	2	6	3	noise_calib_stim_LEFT.wav	1	27	blb_dichoticlistening_pa-ga.mp3	pa	ga	1	right
6.6.1	win	2023-06-17	04:33:51	04:46:33	759653	63d79d065189719c8393e3eb	2	1	practice_z	22	advance_on_keypress_ZEE	6	stimuli_distractor_trianglediamonds.svg	stimuli_target_diamondrectangles.svg	12	yes	57	0	515	6	1	antiphase_hc_iso.wav	2	6	3	noise_calib_stim_LEFT.wav	1	27	blb_dichoticlistening_pa-ga.mp3	pa	ga	1	right
6.6.1	win	2023-06-17	04:33:51	04:46:36	762600	63d79d065189719c8393e3eb	2	1	practice_z	22	practice_z	7	stimuli_target_squarediamonds.svg	stimuli_distractor_diamondtriangles.svg	2	yes	44	1	802	6	1	antiphase_hc_iso.wav	2	6	3	noise_calib_stim_LEFT.wav	1	27	blb_dichoticlistening_pa-ga.mp3	pa	ga	1	right
6.6.1	win	2023-06-17	04:33:51	04:46:36	762600	63d79d065189719c8393e3eb	2	1	practice_z	22	advance_on_keypress_ZEE	8	stimuli_target_squarediamonds.svg	stimuli_distractor_diamondtriangles.svg	2	yes	57	0	508	6	1	antiphase_hc_iso.wav	2	6	3	noise_calib_stim_LEFT.wav	1	27	blb_dichoticlistening_pa-ga.mp3	pa	ga	1	right
6.6.1	win	2023-06-17	04:33:51	04:46:39	765711	63d79d065189719c8393e3eb	2	1	practice_z	22	practice_z	9	stimuli_distractor_diamondtriangles.svg	stimuli_target_diamondrectangles.svg	8	yes	44	1	975	6	1	antiphase_hc_iso.wav	2	6	3	noise_calib_stim_LEFT.wav	1	27	blb_dichoticlistening_pa-ga.mp3	pa	ga	1	right
6.6.1	win	2023-06-17	04:33:51	04:46:39	765711	63d79d065189719c8393e3eb	2	1	practice_z	22	advance_on_keypress_ZEE	10	stimuli_distractor_diamondtriangles.svg	stimuli_target_diamondrectangles.svg	8	yes	57	0	454	6	1	antiphase_hc_iso.wav	2	6	3	noise_calib_stim_LEFT.wav	1	27	blb_dichoticlistening_pa-ga.mp3	pa	ga	1	right
6.6.1	win	2023-06-17	04:33:51	04:46:42	768667	63d79d065189719c8393e3eb	2	1	practice_z	22	practice_z	11	stimuli_target_diamondsquares.svg	stimuli_distractor_diamondtriangles.svg	3	yes	44	1	882	6	1	antiphase_hc_iso.wav	2	6	3	noise_calib_stim_LEFT.wav	1	27	blb_dichoticlistening_pa-ga.mp3	pa	ga	1	right
6.6.1	win	2023-06-17	04:33:51	04:46:42	768667	63d79d065189719c8393e3eb	2	1	practice_z	22	advance_on_keypress_ZEE	12	stimuli_target_diamondsquares.svg	stimuli_distractor_diamondtriangles.svg	3	yes	57	0	373	6	1	antiphase_hc_iso.wav	2	6	3	noise_calib_stim_LEFT.wav	1	27	blb_dichoticlistening_pa-ga.mp3	pa	ga	1	right
6.6.1	win	2023-06-17	04:33:51	04:46:45	771559	63d79d065189719c8393e3eb	2	1	practice_z	22	practice_z	13	stimuli_distractor_trianglediamonds.svg	stimuli_target_squarediamonds.svg	11	yes	44	1	864	6	1	antiphase_hc_iso.wav	2	6	3	noise_calib_stim_LEFT.wav	1	27	blb_dichoticlistening_pa-ga.mp3	pa	ga	1	right
6.6.1	win	2023-06-17	04:33:51	04:46:45	771559	63d79d065189719c8393e3eb	2	1	practice_z	22	advance_on_keypress_ZEE	14	stimuli_distractor_trianglediamonds.svg	stimuli_target_squarediamonds.svg	11	yes	57	0	426	6	1	antiphase_hc_iso.wav	2	6	3	noise_calib_stim_LEFT.wav	1	27	blb_dichoticlistening_pa-ga.mp3	pa	ga	1	right
6.6.1	win	2023-06-17	04:33:51	04:46:48	774521	63d79d065189719c8393e3eb	2	1	practice_z	22	practice_z	15	stimuli_distractor_trianglediamonds.svg	stimuli_target_rectanglediamonds.svg	10	yes	44	1	898	6	1	antiphase_hc_iso.wav	2	6	3	noise_calib_stim_LEFT.wav	1	27	blb_dichoticlistening_pa-ga.mp3	pa	ga	1	right
6.6.1	win	2023-06-17	04:33:51	04:46:48	774521	63d79d065189719c8393e3eb	2	1	practice_z	22	advance_on_keypress_ZEE	16	stimuli_distractor_trianglediamonds.svg	stimuli_target_rectanglediamonds.svg	10	yes	57	0	403	6	1	antiphase_hc_iso.wav	2	6	3	noise_calib_stim_LEFT.wav	1	27	blb_dichoticlistening_pa-ga.mp3	pa	ga	1	right
6.6.1	win	2023-06-17	04:33:51	04:46:52	778556	63d79d065189719c8393e3eb	2	1	practice_z	22	practice_z	17	stimuli_distractor_diamondtriangles.svg	stimuli_distractor_diamondtriangles.svg	13	no	0	1	2000	6	1	antiphase_hc_iso.wav	2	6	3	noise_calib_stim_LEFT.wav	1	27	blb_dichoticlistening_pa-ga.mp3	pa	ga	1	right
6.6.1	win	2023-06-17	04:33:51	04:46:52	778556	63d79d065189719c8393e3eb	2	1	practice_z	22	advance_on_keypress_ZEE	18	stimuli_distractor_diamondtriangles.svg	stimuli_distractor_diamondtriangles.svg	13	no	57	0	429	6	1	antiphase_hc_iso.wav	2	6	3	noise_calib_stim_LEFT.wav	1	27	blb_dichoticlistening_pa-ga.mp3	pa	ga	1	right
6.6.1	win	2023-06-17	04:33:51	04:46:55	781479	63d79d065189719c8393e3eb	2	1	practice_z	22	practice_z	19	stimuli_target_rectanglediamonds.svg	stimuli_distractor_trianglediamonds.svg	4	yes	44	1	838	6	1	antiphase_hc_iso.wav	2	6	3	noise_calib_stim_LEFT.wav	1	27	blb_dichoticlistening_pa-ga.mp3	pa	ga	1	right
6.6.1	win	2023-06-17	04:33:51	04:46:55	781479	63d79d065189719c8393e3eb	2	1	practice_z	22	advance_on_keypress_ZEE	20	stimuli_target_rectanglediamonds.svg	stimuli_distractor_trianglediamonds.svg	4	yes	57	0	427	6	1	antiphase_hc_iso.wav	2	6	3	noise_calib_stim_LEFT.wav	1	27	blb_dichoticlistening_pa-ga.mp3	pa	ga	1	right
6.6.1	win	2023-06-17	04:33:51	04:46:58	784661	63d79d065189719c8393e3eb	2	1	practice_z	22	practice_z	21	stimuli_target_squarediamonds.svg	stimuli_distractor_trianglediamonds.svg	5	yes	44	1	1112	6	1	antiphase_hc_iso.wav	2	6	3	noise_calib_stim_LEFT.wav	1	27	blb_dichoticlistening_pa-ga.mp3	pa	ga	1	right
6.6.1	win	2023-06-17	04:33:51	04:46:58	784661	63d79d065189719c8393e3eb	2	1	practice_z	22	advance_on_keypress_ZEE	22	stimuli_target_squarediamonds.svg	stimuli_distractor_trianglediamonds.svg	5	yes	57	0	464	6	1	antiphase_hc_iso.wav	2	6	3	noise_calib_stim_LEFT.wav	1	27	blb_dichoticlistening_pa-ga.mp3	pa	ga	1	right
6.6.1	win	2023-06-17	04:33:51	04:47:02	788746	63d79d065189719c8393e3eb	2	1	practice_z	22	practice_z	23	stimuli_distractor_trianglediamonds.svg	stimuli_distractor_diamondtriangles.svg	16	no	0	1	2000	6	1	antiphase_hc_iso.wav	2	6	3	noise_calib_stim_LEFT.wav	1	27	blb_dichoticlistening_pa-ga.mp3	pa	ga	1	right
6.6.1	win	2023-06-17	04:33:51	04:47:02	788746	63d79d065189719c8393e3eb	2	1	practice_z	22	advance_on_keypress_ZEE	24	stimuli_distractor_trianglediamonds.svg	stimuli_distractor_diamondtriangles.svg	16	no	57	0	346	6	1	antiphase_hc_iso.wav	2	6	3	noise_calib_stim_LEFT.wav	1	27	blb_dichoticlistening_pa-ga.mp3	pa	ga	1	right
6.6.1	win	2023-06-17	04:33:51	04:47:05	791479	63d79d065189719c8393e3eb	2	1	practice_z	22	practice_z	25	stimuli_distractor_diamondtriangles.svg	stimuli_target_rectangletriangles.svg	7	yes	44	1	768	6	1	antiphase_hc_iso.wav	2	6	3	noise_calib_stim_LEFT.wav	1	27	blb_dichoticlistening_pa-ga.mp3	pa	ga	1	right
6.6.1	win	2023-06-17	04:33:51	04:47:05	791479	63d79d065189719c8393e3eb	2	1	practice_z	22	advance_on_keypress_ZEE	26	stimuli_distractor_diamondtriangles.svg	stimuli_target_rectangletriangles.svg	7	yes	57	0	383	6	1	antiphase_hc_iso.wav	2	6	3	noise_calib_stim_LEFT.wav	1	27	blb_dichoticlistening_pa-ga.mp3	pa	ga	1	right
6.6.1	win	2023-06-17	04:33:51	04:47:09	795501	63d79d065189719c8393e3eb	2	1	practice_z	22	practice_z	27	stimuli_distractor_diamondtriangles.svg	stimuli_distractor_trianglediamonds.svg	14	no	0	1	2000	6	1	antiphase_hc_iso.wav	2	6	3	noise_calib_stim_LEFT.wav	1	27	blb_dichoticlistening_pa-ga.mp3	pa	ga	1	right
6.6.1	win	2023-06-17	04:33:51	04:47:09	795501	63d79d065189719c8393e3eb	2	1	practice_z	22	advance_on_keypress_ZEE	28	stimuli_distractor_diamondtriangles.svg	stimuli_distractor_trianglediamonds.svg	14	no	57	0	377	6	1	antiphase_hc_iso.wav	2	6	3	noise_calib_stim_LEFT.wav	1	27	blb_dichoticlistening_pa-ga.mp3	pa	ga	1	right
6.6.1	win	2023-06-17	04:33:51	04:47:12	798122	63d79d065189719c8393e3eb	2	1	practice_z	22	practice_z	29	stimuli_target_rectanglediamonds.svg	stimuli_distractor_diamondtriangles.svg	1	yes	44	1	595	6	1	antiphase_hc_iso.wav	2	6	3	noise_calib_stim_LEFT.wav	1	27	blb_dichoticlistening_pa-ga.mp3	pa	ga	1	right
6.6.1	win	2023-06-17	04:33:51	04:47:12	798122	63d79d065189719c8393e3eb	2	1	practice_z	22	advance_on_keypress_ZEE	30	stimuli_target_rectanglediamonds.svg	stimuli_distractor_diamondtriangles.svg	1	yes	57	0	431	6	1	antiphase_hc_iso.wav	2	6	3	noise_calib_stim_LEFT.wav	1	27	blb_dichoticlistening_pa-ga.mp3	pa	ga	1	right
6.6.1	win	2023-06-17	04:33:51	04:47:16	802177	63d79d065189719c8393e3eb	2	1	practice_z	22	practice_z	31	stimuli_distractor_trianglediamonds.svg	stimuli_distractor_trianglediamonds.svg	15	no	0	1	2000	6	1	antiphase_hc_iso.wav	2	6	3	noise_calib_stim_LEFT.wav	1	27	blb_dichoticlistening_pa-ga.mp3	pa	ga	1	right
6.6.1	win	2023-06-17	04:33:51	04:47:16	802177	63d79d065189719c8393e3eb	2	1	practice_z	22	advance_on_keypress_ZEE	32	stimuli_distractor_trianglediamonds.svg	stimuli_distractor_trianglediamonds.svg	15	no	57	0	277	6	1	antiphase_hc_iso.wav	2	6	3	noise_calib_stim_LEFT.wav	1	27	blb_dichoticlistening_pa-ga.mp3	pa	ga	1	right
6.6.1	win	2023-06-17	04:33:51	04:47:27	812847	63d79d065189719c8393e3eb	2	1	main_z	24	main_z	1	stimuli_distractor_diamondtriangles.svg	stimuli_target_rectangletriangles.svg	13	yes	44	1	759	6	1	antiphase_hc_iso.wav	2	6	3	noise_calib_stim_LEFT.wav	1	27	blb_dichoticlistening_pa-ga.mp3	pa	ga	1	right
6.6.1	win	2023-06-17	04:33:51	04:47:27	812847	63d79d065189719c8393e3eb	2	1	main_z	24	advance_on_keypress_ZEE	2	stimuli_distractor_diamondtriangles.svg	stimuli_target_rectangletriangles.svg	13	yes	57	0	2470	6	1	antiphase_hc_iso.wav	2	6	3	noise_calib_stim_LEFT.wav	1	27	blb_dichoticlistening_pa-ga.mp3	pa	ga	1	right
6.6.1	win	2023-06-17	04:33:51	04:47:30	816749	63d79d065189719c8393e3eb	2	1	main_z	24	main_z	3	stimuli_distractor_trianglediamonds.svg	stimuli_target_diamondrectangles.svg	27	yes	44	1	802	6	1	antiphase_hc_iso.wav	2	6	3	noise_calib_stim_LEFT.wav	1	27	blb_dichoticlistening_pa-ga.mp3	pa	ga	1	right
6.6.1	win	2023-06-17	04:33:51	04:47:30	816749	63d79d065189719c8393e3eb	2	1	main_z	24	advance_on_keypress_ZEE	4	stimuli_distractor_trianglediamonds.svg	stimuli_target_diamondrectangles.svg	27	yes	57	0	2087	6	1	antiphase_hc_iso.wav	2	6	3	noise_calib_stim_LEFT.wav	1	27	blb_dichoticlistening_pa-ga.mp3	pa	ga	1	right
6.6.1	win	2023-06-17	04:33:51	04:47:34	820198	63d79d065189719c8393e3eb	2	1	main_z	24	main_z	5	stimuli_distractor_diamondtriangles.svg	stimuli_target_trianglerectangles.svg	29	yes	44	1	747	6	1	antiphase_hc_iso.wav	2	6	3	noise_calib_stim_LEFT.wav	1	27	blb_dichoticlistening_pa-ga.mp3	pa	ga	1	right
6.6.1	win	2023-06-17	04:33:51	04:47:34	820198	63d79d065189719c8393e3eb	2	1	main_z	24	advance_on_keypress_ZEE	6	stimuli_distractor_diamondtriangles.svg	stimuli_target_trianglerectangles.svg	29	yes	57	0	1010	6	1	antiphase_hc_iso.wav	2	6	3	noise_calib_stim_LEFT.wav	1	27	blb_dichoticlistening_pa-ga.mp3	pa	ga	1	right
6.6.1	win	2023-06-17	04:33:51	04:47:36	822693	63d79d065189719c8393e3eb	2	1	main_z	24	main_z	7	stimuli_target_trianglerectangles.svg	stimuli_distractor_trianglediamonds.svg	17	yes	44	1	844	6	1	antiphase_hc_iso.wav	2	6	3	noise_calib_stim_LEFT.wav	1	27	blb_dichoticlistening_pa-ga.mp3	pa	ga	1	right
6.6.1	win	2023-06-17	04:33:51	04:47:36	822693	63d79d065189719c8393e3eb	2	1	main_z	24	advance_on_keypress_ZEE	8	stimuli_target_trianglerectangles.svg	stimuli_distractor_trianglediamonds.svg	17	yes	57	0	707	6	1	antiphase_hc_iso.wav	2	6	3	noise_calib_stim_LEFT.wav	1	27	blb_dichoticlistening_pa-ga.mp3	pa	ga	1	right
6.6.1	win	2023-06-17	04:33:51	04:47:40	826035	63d79d065189719c8393e3eb	2	1	main_z	24	main_z	9	stimuli_distractor_diamondtriangles.svg	stimuli_distractor_trianglediamonds.svg	37	no	0	1	2000	6	1	antiphase_hc_iso.wav	2	6	3	noise_calib_stim_LEFT.wav	1	27	blb_dichoticlistening_pa-ga.mp3	pa	ga	1	right
6.6.1	win	2023-06-17	04:33:51	04:47:40	826035	63d79d065189719c8393e3eb	2	1	main_z	24	advance_on_keypress_ZEE	10	stimuli_distractor_diamondtriangles.svg	stimuli_distractor_trianglediamonds.svg	37	no	57	0	655	6	1	antiphase_hc_iso.wav	2	6	3	noise_calib_stim_LEFT.wav	1	27	blb_dichoticlistening_pa-ga.mp3	pa	ga	1	right
6.6.1	win	2023-06-17	04:33:51	04:47:42	828102	63d79d065189719c8393e3eb	2	1	main_z	24	main_z	11	stimuli_distractor_trianglediamonds.svg	stimuli_target_squaretriangles.svg	11	yes	44	1	786	6	1	antiphase_hc_iso.wav	2	6	3	noise_calib_stim_LEFT.wav	1	27	blb_dichoticlistening_pa-ga.mp3	pa	ga	1	right
6.6.1	win	2023-06-17	04:33:51	04:47:42	828102	63d79d065189719c8393e3eb	2	1	main_z	24	advance_on_keypress_ZEE	12	stimuli_distractor_trianglediamonds.svg	stimuli_target_squaretriangles.svg	11	yes	57	0	769	6	1	antiphase_hc_iso.wav	2	6	3	noise_calib_stim_LEFT.wav	1	27	blb_dichoticlistening_pa-ga.mp3	pa	ga	1	right
6.6.1	win	2023-06-17	04:33:51	04:47:45	830976	63d79d065189719c8393e3eb	2	1	main_z	24	main_z	13	stimuli_target_trianglerectangles.svg	stimuli_distractor_diamondtriangles.svg	21	yes	44	1	1464	6	1	antiphase_hc_iso.wav	2	6	3	noise_calib_stim_LEFT.wav	1	27	blb_dichoticlistening_pa-ga.mp3	pa	ga	1	right
6.6.1	win	2023-06-17	04:33:51	04:47:45	830976	63d79d065189719c8393e3eb	2	1	main_z	24	advance_on_keypress_ZEE	14	stimuli_target_trianglerectangles.svg	stimuli_distractor_diamondtriangles.svg	21	yes	57	0	1251	6	1	antiphase_hc_iso.wav	2	6	3	noise_calib_stim_LEFT.wav	1	27	blb_dichoticlistening_pa-ga.mp3	pa	ga	1	right
6.6.1	win	2023-06-17	04:33:51	04:47:47	833676	63d79d065189719c8393e3eb	2	1	main_z	24	main_z	15	stimuli_target_trianglesquares.svg	stimuli_distractor_trianglediamonds.svg	18	yes	44	1	808	6	1	antiphase_hc_iso.wav	2	6	3	noise_calib_stim_LEFT.wav	1	27	blb_dichoticlistening_pa-ga.mp3	pa	ga	1	right
6.6.1	win	2023-06-17	04:33:51	04:47:47	833676	63d79d065189719c8393e3eb	2	1	main_z	24	advance_on_keypress_ZEE	16	stimuli_target_trianglesquares.svg	stimuli_distractor_trianglediamonds.svg	18	yes	57	0	380	6	1	antiphase_hc_iso.wav	2	6	3	noise_calib_stim_LEFT.wav	1	27	blb_dichoticlistening_pa-ga.mp3	pa	ga	1	right
6.6.1	win	2023-06-17	04:33:51	04:47:49	835379	63d79d065189719c8393e3eb	2	1	main_z	24	main_z	17	stimuli_target_squaretriangles.svg	stimuli_distractor_diamondtriangles.svg	7	yes	44	1	700	6	1	antiphase_hc_iso.wav	2	6	3	noise_calib_stim_LEFT.wav	1	27	blb_dichoticlistening_pa-ga.mp3	pa	ga	1	right
6.6.1	win	2023-06-17	04:33:51	04:47:49	835379	63d79d065189719c8393e3eb	2	1	main_z	24	advance_on_keypress_ZEE	18	stimuli_target_squaretriangles.svg	stimuli_distractor_diamondtriangles.svg	7	yes	57	0	267	6	1	antiphase_hc_iso.wav	2	6	3	noise_calib_stim_LEFT.wav	1	27	blb_dichoticlistening_pa-ga.mp3	pa	ga	1	right
6.6.1	win	2023-06-17	04:33:51	04:47:52	838283	63d79d065189719c8393e3eb	2	1	main_z	24	main_z	19	stimuli_distractor_trianglediamonds.svg	stimuli_distractor_diamondtriangles.svg	35	no	0	1	2000	6	1	antiphase_hc_iso.wav	2	6	3	noise_calib_stim_LEFT.wav	1	27	blb_dichoticlistening_pa-ga.mp3	pa	ga	1	right
6.6.1	win	2023-06-17	04:33:51	04:47:52	838283	63d79d065189719c8393e3eb	2	1	main_z	24	advance_on_keypress_ZEE	20	stimuli_distractor_trianglediamonds.svg	stimuli_distractor_diamondtriangles.svg	35	no	57	0	474	6	1	antiphase_hc_iso.wav	2	6	3	noise_calib_stim_LEFT.wav	1	27	blb_dichoticlistening_pa-ga.mp3	pa	ga	1	right
6.6.1	win	2023-06-17	04:33:51	04:47:54	840102	63d79d065189719c8393e3eb	2	1	main_z	24	main_z	21	stimuli_target_diamondsquares.svg	stimuli_distractor_diamondtriangles.svg	24	yes	44	1	717	6	1	antiphase_hc_iso.wav	2	6	3	noise_calib_stim_LEFT.wav	1	27	blb_dichoticlistening_pa-ga.mp3	pa	ga	1	right
6.6.1	win	2023-06-17	04:33:51	04:47:54	840102	63d79d065189719c8393e3eb	2	1	main_z	24	advance_on_keypress_ZEE	22	stimuli_target_diamondsquares.svg	stimuli_distractor_diamondtriangles.svg	24	yes	57	0	230	6	1	antiphase_hc_iso.wav	2	6	3	noise_calib_stim_LEFT.wav	1	27	blb_dichoticlistening_pa-ga.mp3	pa	ga	1	right
6.6.1	win	2023-06-17	04:33:51	04:47:55	841608	63d79d065189719c8393e3eb	2	1	main_z	24	main_z	23	stimuli_distractor_diamondtriangles.svg	stimuli_target_diamondsquares.svg	32	yes	44	1	653	6	1	antiphase_hc_iso.wav	2	6	3	noise_calib_stim_LEFT.wav	1	27	blb_dichoticlistening_pa-ga.mp3	pa	ga	1	right
6.6.1	win	2023-06-17	04:33:51	04:47:55	841608	63d79d065189719c8393e3eb	2	1	main_z	24	advance_on_keypress_ZEE	24	stimuli_distractor_diamondtriangles.svg	stimuli_target_diamondsquares.svg	32	yes	57	0	233	6	1	antiphase_hc_iso.wav	2	6	3	noise_calib_stim_LEFT.wav	1	27	blb_dichoticlistening_pa-ga.mp3	pa	ga	1	right
6.6.1	win	2023-06-17	04:33:51	04:47:57	843201	63d79d065189719c8393e3eb	2	1	main_z	24	main_z	25	stimuli_target_squarediamonds.svg	stimuli_distractor_diamondtriangles.svg	8	yes	44	1	717	6	1	antiphase_hc_iso.wav	2	6	3	noise_calib_stim_LEFT.wav	1	27	blb_dichoticlistening_pa-ga.mp3	pa	ga	1	right
6.6.1	win	2023-06-17	04:33:51	04:47:57	843201	63d79d065189719c8393e3eb	2	1	main_z	24	advance_on_keypress_ZEE	26	stimuli_target_squarediamonds.svg	stimuli_distractor_diamondtriangles.svg	8	yes	57	0	250	6	1	antiphase_hc_iso.wav	2	6	3	noise_calib_stim_LEFT.wav	1	27	blb_dichoticlistening_pa-ga.mp3	pa	ga	1	right
6.6.1	win	2023-06-17	04:33:51	04:47:59	844893	63d79d065189719c8393e3eb	2	1	main_z	24	main_z	27	stimuli_target_rectanglediamonds.svg	stimuli_distractor_trianglediamonds.svg	2	yes	44	1	797	6	1	antiphase_hc_iso.wav	2	6	3	noise_calib_stim_LEFT.wav	1	27	blb_dichoticlistening_pa-ga.mp3	pa	ga	1	right
6.6.1	win	2023-06-17	04:33:51	04:47:59	844893	63d79d065189719c8393e3eb	2	1	main_z	24	advance_on_keypress_ZEE	28	stimuli_target_rectanglediamonds.svg	stimuli_distractor_trianglediamonds.svg	2	yes	57	0	191	6	1	antiphase_hc_iso.wav	2	6	3	noise_calib_stim_LEFT.wav	1	27	blb_dichoticlistening_pa-ga.mp3	pa	ga	1	right
6.6.1	win	2023-06-17	04:33:51	04:48:01	847723	63d79d065189719c8393e3eb	2	1	main_z	24	main_z	29	stimuli_distractor_trianglediamonds.svg	stimuli_distractor_trianglediamonds.svg	34	no	0	1	2000	6	1	antiphase_hc_iso.wav	2	6	3	noise_calib_stim_LEFT.wav	1	27	blb_dichoticlistening_pa-ga.mp3	pa	ga	1	right
6.6.1	win	2023-06-17	04:33:51	04:48:01	847723	63d79d065189719c8393e3eb	2	1	main_z	24	advance_on_keypress_ZEE	30	stimuli_distractor_trianglediamonds.svg	stimuli_distractor_trianglediamonds.svg	34	no	57	0	375	6	1	antiphase_hc_iso.wav	2	6	3	noise_calib_stim_LEFT.wav	1	27	blb_dichoticlistening_pa-ga.mp3	pa	ga	1	right
6.6.1	win	2023-06-17	04:33:51	04:48:03	849406	63d79d065189719c8393e3eb	2	1	main_z	24	main_z	31	stimuli_distractor_diamondtriangles.svg	stimuli_target_squarediamonds.svg	16	yes	44	1	672	6	1	antiphase_hc_iso.wav	2	6	3	noise_calib_stim_LEFT.wav	1	27	blb_dichoticlistening_pa-ga.mp3	pa	ga	1	right
6.6.1	win	2023-06-17	04:33:51	04:48:03	849406	63d79d065189719c8393e3eb	2	1	main_z	24	advance_on_keypress_ZEE	32	stimuli_distractor_diamondtriangles.svg	stimuli_target_squarediamonds.svg	16	yes	57	0	178	6	1	antiphase_hc_iso.wav	2	6	3	noise_calib_stim_LEFT.wav	1	27	blb_dichoticlistening_pa-ga.mp3	pa	ga	1	right
6.6.1	win	2023-06-17	04:33:51	04:48:05	851021	63d79d065189719c8393e3eb	2	1	main_z	24	main_z	33	stimuli_distractor_diamondtriangles.svg	stimuli_target_rectanglediamonds.svg	14	yes	44	1	786	6	1	antiphase_hc_iso.wav	2	6	3	noise_calib_stim_LEFT.wav	1	27	blb_dichoticlistening_pa-ga.mp3	pa	ga	1	right
6.6.1	win	2023-06-17	04:33:51	04:48:05	851021	63d79d065189719c8393e3eb	2	1	main_z	24	advance_on_keypress_ZEE	34	stimuli_distractor_diamondtriangles.svg	stimuli_target_rectanglediamonds.svg	14	yes	57	0	210	6	1	antiphase_hc_iso.wav	2	6	3	noise_calib_stim_LEFT.wav	1	27	blb_dichoticlistening_pa-ga.mp3	pa	ga	1	right
6.6.1	win	2023-06-17	04:33:51	04:48:08	853859	63d79d065189719c8393e3eb	2	1	main_z	24	main_z	35	stimuli_distractor_diamondtriangles.svg	stimuli_distractor_diamondtriangles.svg	39	no	0	1	2000	6	1	antiphase_hc_iso.wav	2	6	3	noise_calib_stim_LEFT.wav	1	27	blb_dichoticlistening_pa-ga.mp3	pa	ga	1	right
6.6.1	win	2023-06-17	04:33:51	04:48:08	853859	63d79d065189719c8393e3eb	2	1	main_z	24	advance_on_keypress_ZEE	36	stimuli_distractor_diamondtriangles.svg	stimuli_distractor_diamondtriangles.svg	39	no	57	0	340	6	1	antiphase_hc_iso.wav	2	6	3	noise_calib_stim_LEFT.wav	1	27	blb_dichoticlistening_pa-ga.mp3	pa	ga	1	right
6.6.1	win	2023-06-17	04:33:51	04:48:11	856843	63d79d065189719c8393e3eb	2	1	main_z	24	main_z	37	stimuli_distractor_trianglediamonds.svg	stimuli_distractor_diamondtriangles.svg	36	no	0	1	2000	6	1	antiphase_hc_iso.wav	2	6	3	noise_calib_stim_LEFT.wav	1	27	blb_dichoticlistening_pa-ga.mp3	pa	ga	1	right
6.6.1	win	2023-06-17	04:33:51	04:48:11	856843	63d79d065189719c8393e3eb	2	1	main_z	24	advance_on_keypress_ZEE	38	stimuli_distractor_trianglediamonds.svg	stimuli_distractor_diamondtriangles.svg	36	no	57	0	467	6	1	antiphase_hc_iso.wav	2	6	3	noise_calib_stim_LEFT.wav	1	27	blb_dichoticlistening_pa-ga.mp3	pa	ga	1	right
6.6.1	win	2023-06-17	04:33:51	04:48:12	858699	63d79d065189719c8393e3eb	2	1	main_z	24	main_z	39	stimuli_target_diamondrectangles.svg	stimuli_distractor_diamondtriangles.svg	23	yes	44	1	742	6	1	antiphase_hc_iso.wav	2	6	3	noise_calib_stim_LEFT.wav	1	27	blb_dichoticlistening_pa-ga.mp3	pa	ga	1	right
6.6.1	win	2023-06-17	04:33:51	04:48:12	858699	63d79d065189719c8393e3eb	2	1	main_z	24	advance_on_keypress_ZEE	40	stimuli_target_diamondrectangles.svg	stimuli_distractor_diamondtriangles.svg	23	yes	57	0	229	6	1	antiphase_hc_iso.wav	2	6	3	noise_calib_stim_LEFT.wav	1	27	blb_dichoticlistening_pa-ga.mp3	pa	ga	1	right
6.6.1	win	2023-06-17	04:33:51	04:48:14	860298	63d79d065189719c8393e3eb	2	1	main_z	24	main_z	41	stimuli_target_diamondsquares.svg	stimuli_distractor_trianglediamonds.svg	20	yes	44	1	746	6	1	antiphase_hc_iso.wav	2	6	3	noise_calib_stim_LEFT.wav	1	27	blb_dichoticlistening_pa-ga.mp3	pa	ga	1	right
6.6.1	win	2023-06-17	04:33:51	04:48:14	860298	63d79d065189719c8393e3eb	2	1	main_z	24	advance_on_keypress_ZEE	42	stimuli_target_diamondsquares.svg	stimuli_distractor_trianglediamonds.svg	20	yes	57	0	264	6	1	antiphase_hc_iso.wav	2	6	3	noise_calib_stim_LEFT.wav	1	27	blb_dichoticlistening_pa-ga.mp3	pa	ga	1	right
6.6.1	win	2023-06-17	04:33:51	04:48:17	863198	63d79d065189719c8393e3eb	2	1	main_z	24	main_z	43	stimuli_distractor_diamondtriangles.svg	stimuli_distractor_trianglediamonds.svg	38	no	0	1	2000	6	1	antiphase_hc_iso.wav	2	6	3	noise_calib_stim_LEFT.wav	1	27	blb_dichoticlistening_pa-ga.mp3	pa	ga	1	right
6.6.1	win	2023-06-17	04:33:51	04:48:17	863198	63d79d065189719c8393e3eb	2	1	main_z	24	advance_on_keypress_ZEE	44	stimuli_distractor_diamondtriangles.svg	stimuli_distractor_trianglediamonds.svg	38	no	57	0	560	6	1	antiphase_hc_iso.wav	2	6	3	noise_calib_stim_LEFT.wav	1	27	blb_dichoticlistening_pa-ga.mp3	pa	ga	1	right
6.6.1	win	2023-06-17	04:33:51	04:48:20	866419	63d79d065189719c8393e3eb	2	1	main_z	24	main_z	45	stimuli_distractor_diamondtriangles.svg	stimuli_distractor_diamondtriangles.svg	40	no	0	1	2000	6	1	antiphase_hc_iso.wav	2	6	3	noise_calib_stim_LEFT.wav	1	27	blb_dichoticlistening_pa-ga.mp3	pa	ga	1	right
6.6.1	win	2023-06-17	04:33:51	04:48:20	866419	63d79d065189719c8393e3eb	2	1	main_z	24	advance_on_keypress_ZEE	46	stimuli_distractor_diamondtriangles.svg	stimuli_distractor_diamondtriangles.svg	40	no	57	0	286	6	1	antiphase_hc_iso.wav	2	6	3	noise_calib_stim_LEFT.wav	1	27	blb_dichoticlistening_pa-ga.mp3	pa	ga	1	right
6.6.1	win	2023-06-17	04:33:51	04:48:22	867949	63d79d065189719c8393e3eb	2	1	main_z	24	main_z	47	stimuli_target_squarediamonds.svg	stimuli_distractor_trianglediamonds.svg	4	yes	44	1	626	6	1	antiphase_hc_iso.wav	2	6	3	noise_calib_stim_LEFT.wav	1	27	blb_dichoticlistening_pa-ga.mp3	pa	ga	1	right
6.6.1	win	2023-06-17	04:33:51	04:48:22	867949	63d79d065189719c8393e3eb	2	1	main_z	24	advance_on_keypress_ZEE	48	stimuli_target_squarediamonds.svg	stimuli_distractor_trianglediamonds.svg	4	yes	57	0	295	6	1	antiphase_hc_iso.wav	2	6	3	noise_calib_stim_LEFT.wav	1	27	blb_dichoticlistening_pa-ga.mp3	pa	ga	1	right
6.6.1	win	2023-06-17	04:33:51	04:48:25	870873	63d79d065189719c8393e3eb	2	1	main_z	24	main_z	49	stimuli_distractor_trianglediamonds.svg	stimuli_distractor_trianglediamonds.svg	33	no	0	1	2000	6	1	antiphase_hc_iso.wav	2	6	3	noise_calib_stim_LEFT.wav	1	27	blb_dichoticlistening_pa-ga.mp3	pa	ga	1	right
6.6.1	win	2023-06-17	04:33:51	04:48:25	870873	63d79d065189719c8393e3eb	2	1	main_z	24	advance_on_keypress_ZEE	50	stimuli_distractor_trianglediamonds.svg	stimuli_distractor_trianglediamonds.svg	33	no	57	0	367	6	1	antiphase_hc_iso.wav	2	6	3	noise_calib_stim_LEFT.wav	1	27	blb_dichoticlistening_pa-ga.mp3	pa	ga	1	right
6.6.1	win	2023-06-17	04:33:51	04:48:26	872608	63d79d065189719c8393e3eb	2	1	main_z	24	main_z	51	stimuli_distractor_trianglediamonds.svg	stimuli_target_squarediamonds.svg	12	yes	44	1	733	6	1	antiphase_hc_iso.wav	2	6	3	noise_calib_stim_LEFT.wav	1	27	blb_dichoticlistening_pa-ga.mp3	pa	ga	1	right
6.6.1	win	2023-06-17	04:33:51	04:48:26	872608	63d79d065189719c8393e3eb	2	1	main_z	24	advance_on_keypress_ZEE	52	stimuli_distractor_trianglediamonds.svg	stimuli_target_squarediamonds.svg	12	yes	57	0	209	6	1	antiphase_hc_iso.wav	2	6	3	noise_calib_stim_LEFT.wav	1	27	blb_dichoticlistening_pa-ga.mp3	pa	ga	1	right
6.6.1	win	2023-06-17	04:33:51	04:48:28	874217	63d79d065189719c8393e3eb	2	1	main_z	24	main_z	53	stimuli_distractor_trianglediamonds.svg	stimuli_target_rectanglediamonds.svg	10	yes	44	1	761	6	1	antiphase_hc_iso.wav	2	6	3	noise_calib_stim_LEFT.wav	1	27	blb_dichoticlistening_pa-ga.mp3	pa	ga	1	right
6.6.1	win	2023-06-17	04:33:51	04:48:28	874217	63d79d065189719c8393e3eb	2	1	main_z	24	advance_on_keypress_ZEE	54	stimuli_distractor_trianglediamonds.svg	stimuli_target_rectanglediamonds.svg	10	yes	57	0	142	6	1	antiphase_hc_iso.wav	2	6	3	noise_calib_stim_LEFT.wav	1	27	blb_dichoticlistening_pa-ga.mp3	pa	ga	1	right
6.6.1	win	2023-06-17	04:33:51	04:48:29	875826	63d79d065189719c8393e3eb	2	1	main_z	24	main_z	55	stimuli_target_squaretriangles.svg	stimuli_distractor_trianglediamonds.svg	3	yes	44	1	828	6	1	antiphase_hc_iso.wav	2	6	3	noise_calib_stim_LEFT.wav	1	27	blb_dichoticlistening_pa-ga.mp3	pa	ga	1	right
6.6.1	win	2023-06-17	04:33:51	04:48:29	875826	63d79d065189719c8393e3eb	2	1	main_z	24	advance_on_keypress_ZEE	56	stimuli_target_squaretriangles.svg	stimuli_distractor_trianglediamonds.svg	3	yes	57	0	123	6	1	antiphase_hc_iso.wav	2	6	3	noise_calib_stim_LEFT.wav	1	27	blb_dichoticlistening_pa-ga.mp3	pa	ga	1	right
6.6.1	win	2023-06-17	04:33:51	04:48:31	877294	63d79d065189719c8393e3eb	2	1	main_z	24	main_z	57	stimuli_distractor_trianglediamonds.svg	stimuli_target_diamondsquares.svg	28	yes	44	1	716	6	1	antiphase_hc_iso.wav	2	6	3	noise_calib_stim_LEFT.wav	1	27	blb_dichoticlistening_pa-ga.mp3	pa	ga	1	right
6.6.1	win	2023-06-17	04:33:51	04:48:31	877294	63d79d065189719c8393e3eb	2	1	main_z	24	advance_on_keypress_ZEE	58	stimuli_distractor_trianglediamonds.svg	stimuli_target_diamondsquares.svg	28	yes	57	0	122	6	1	antiphase_hc_iso.wav	2	6	3	noise_calib_stim_LEFT.wav	1	27	blb_dichoticlistening_pa-ga.mp3	pa	ga	1	right
6.6.1	win	2023-06-17	04:33:51	04:48:32	878778	63d79d065189719c8393e3eb	2	1	main_z	24	main_z	59	stimuli_target_rectanglediamonds.svg	stimuli_distractor_diamondtriangles.svg	6	yes	44	1	746	6	1	antiphase_hc_iso.wav	2	6	3	noise_calib_stim_LEFT.wav	1	27	blb_dichoticlistening_pa-ga.mp3	pa	ga	1	right
6.6.1	win	2023-06-17	04:33:51	04:48:32	878778	63d79d065189719c8393e3eb	2	1	main_z	24	advance_on_keypress_ZEE	60	stimuli_target_rectanglediamonds.svg	stimuli_distractor_diamondtriangles.svg	6	yes	57	0	131	6	1	antiphase_hc_iso.wav	2	6	3	noise_calib_stim_LEFT.wav	1	27	blb_dichoticlistening_pa-ga.mp3	pa	ga	1	right
6.6.1	win	2023-06-17	04:33:51	04:48:34	880249	63d79d065189719c8393e3eb	2	1	main_z	24	main_z	61	stimuli_distractor_diamondtriangles.svg	stimuli_target_diamondrectangles.svg	31	yes	44	1	709	6	1	antiphase_hc_iso.wav	2	6	3	noise_calib_stim_LEFT.wav	1	27	blb_dichoticlistening_pa-ga.mp3	pa	ga	1	right
6.6.1	win	2023-06-17	04:33:51	04:48:34	880249	63d79d065189719c8393e3eb	2	1	main_z	24	advance_on_keypress_ZEE	62	stimuli_distractor_diamondtriangles.svg	stimuli_target_diamondrectangles.svg	31	yes	57	0	96	6	1	antiphase_hc_iso.wav	2	6	3	noise_calib_stim_LEFT.wav	1	27	blb_dichoticlistening_pa-ga.mp3	pa	ga	1	right
6.6.1	win	2023-06-17	04:33:51	04:48:35	881570	63d79d065189719c8393e3eb	2	1	main_z	24	main_z	63	stimuli_target_rectangletriangles.svg	stimuli_distractor_diamondtriangles.svg	5	yes	44	1	570	6	1	antiphase_hc_iso.wav	2	6	3	noise_calib_stim_LEFT.wav	1	27	blb_dichoticlistening_pa-ga.mp3	pa	ga	1	right
6.6.1	win	2023-06-17	04:33:51	04:48:35	881570	63d79d065189719c8393e3eb	2	1	main_z	24	advance_on_keypress_ZEE	64	stimuli_target_rectangletriangles.svg	stimuli_distractor_diamondtriangles.svg	5	yes	57	0	113	6	1	antiphase_hc_iso.wav	2	6	3	noise_calib_stim_LEFT.wav	1	27	blb_dichoticlistening_pa-ga.mp3	pa	ga	1	right
6.6.1	win	2023-06-17	04:33:51	04:48:37	882838	63d79d065189719c8393e3eb	2	1	main_z	24	main_z	65	stimuli_target_rectangletriangles.svg	stimuli_distractor_trianglediamonds.svg	1	yes	44	1	533	6	1	antiphase_hc_iso.wav	2	6	3	noise_calib_stim_LEFT.wav	1	27	blb_dichoticlistening_pa-ga.mp3	pa	ga	1	right
6.6.1	win	2023-06-17	04:33:51	04:48:37	882838	63d79d065189719c8393e3eb	2	1	main_z	24	advance_on_keypress_ZEE	66	stimuli_target_rectangletriangles.svg	stimuli_distractor_trianglediamonds.svg	1	yes	57	0	114	6	1	antiphase_hc_iso.wav	2	6	3	noise_calib_stim_LEFT.wav	1	27	blb_dichoticlistening_pa-ga.mp3	pa	ga	1	right
6.6.1	win	2023-06-17	04:33:51	04:48:38	884093	63d79d065189719c8393e3eb	2	1	main_z	24	main_z	67	stimuli_distractor_diamondtriangles.svg	stimuli_target_squaretriangles.svg	15	yes	44	1	508	6	1	antiphase_hc_iso.wav	2	6	3	noise_calib_stim_LEFT.wav	1	27	blb_dichoticlistening_pa-ga.mp3	pa	ga	1	right
6.6.1	win	2023-06-17	04:33:51	04:48:38	884093	63d79d065189719c8393e3eb	2	1	main_z	24	advance_on_keypress_ZEE	68	stimuli_distractor_diamondtriangles.svg	stimuli_target_squaretriangles.svg	15	yes	57	0	89	6	1	antiphase_hc_iso.wav	2	6	3	noise_calib_stim_LEFT.wav	1	27	blb_dichoticlistening_pa-ga.mp3	pa	ga	1	right
6.6.1	win	2023-06-17	04:33:51	04:48:39	885345	63d79d065189719c8393e3eb	2	1	main_z	24	main_z	69	stimuli_distractor_trianglediamonds.svg	stimuli_target_rectangletriangles.svg	9	yes	44	1	529	6	1	antiphase_hc_iso.wav	2	6	3	noise_calib_stim_LEFT.wav	1	27	blb_dichoticlistening_pa-ga.mp3	pa	ga	1	right
6.6.1	win	2023-06-17	04:33:51	04:48:39	885345	63d79d065189719c8393e3eb	2	1	main_z	24	advance_on_keypress_ZEE	70	stimuli_distractor_trianglediamonds.svg	stimuli_target_rectangletriangles.svg	9	yes	57	0	87	6	1	antiphase_hc_iso.wav	2	6	3	noise_calib_stim_LEFT.wav	1	27	blb_dichoticlistening_pa-ga.mp3	pa	ga	1	right
6.6.1	win	2023-06-17	04:33:51	04:48:40	886483	63d79d065189719c8393e3eb	2	1	main_z	24	main_z	71	stimuli_target_diamondrectangles.svg	stimuli_distractor_trianglediamonds.svg	19	yes	44	1	435	6	1	antiphase_hc_iso.wav	2	6	3	noise_calib_stim_LEFT.wav	1	27	blb_dichoticlistening_pa-ga.mp3	pa	ga	1	right
6.6.1	win	2023-06-17	04:33:51	04:48:40	886483	63d79d065189719c8393e3eb	2	1	main_z	24	advance_on_keypress_ZEE	72	stimuli_target_diamondrectangles.svg	stimuli_distractor_trianglediamonds.svg	19	yes	57	0	96	6	1	antiphase_hc_iso.wav	2	6	3	noise_calib_stim_LEFT.wav	1	27	blb_dichoticlistening_pa-ga.mp3	pa	ga	1	right
6.6.1	win	2023-06-17	04:33:51	04:48:41	887640	63d79d065189719c8393e3eb	2	1	main_z	24	main_z	73	stimuli_distractor_trianglediamonds.svg	stimuli_target_trianglerectangles.svg	25	yes	44	1	432	6	1	antiphase_hc_iso.wav	2	6	3	noise_calib_stim_LEFT.wav	1	27	blb_dichoticlistening_pa-ga.mp3	pa	ga	1	right
6.6.1	win	2023-06-17	04:33:51	04:48:41	887640	63d79d065189719c8393e3eb	2	1	main_z	24	advance_on_keypress_ZEE	74	stimuli_distractor_trianglediamonds.svg	stimuli_target_trianglerectangles.svg	25	yes	57	0	92	6	1	antiphase_hc_iso.wav	2	6	3	noise_calib_stim_LEFT.wav	1	27	blb_dichoticlistening_pa-ga.mp3	pa	ga	1	right
6.6.1	win	2023-06-17	04:33:51	04:48:43	889287	63d79d065189719c8393e3eb	2	1	main_z	24	main_z	75	stimuli_distractor_diamondtriangles.svg	stimuli_target_trianglesquares.svg	30	yes	44	1	917	6	1	antiphase_hc_iso.wav	2	6	3	noise_calib_stim_LEFT.wav	1	27	blb_dichoticlistening_pa-ga.mp3	pa	ga	1	right
6.6.1	win	2023-06-17	04:33:51	04:48:43	889287	63d79d065189719c8393e3eb	2	1	main_z	24	advance_on_keypress_ZEE	76	stimuli_distractor_diamondtriangles.svg	stimuli_target_trianglesquares.svg	30	yes	57	0	132	6	1	antiphase_hc_iso.wav	2	6	3	noise_calib_stim_LEFT.wav	1	27	blb_dichoticlistening_pa-ga.mp3	pa	ga	1	right
6.6.1	win	2023-06-17	04:33:51	04:48:44	890775	63d79d065189719c8393e3eb	2	1	main_z	24	main_z	77	stimuli_target_trianglesquares.svg	stimuli_distractor_diamondtriangles.svg	22	yes	44	1	718	6	1	antiphase_hc_iso.wav	2	6	3	noise_calib_stim_LEFT.wav	1	27	blb_dichoticlistening_pa-ga.mp3	pa	ga	1	right
6.6.1	win	2023-06-17	04:33:51	04:48:44	890775	63d79d065189719c8393e3eb	2	1	main_z	24	advance_on_keypress_ZEE	78	stimuli_target_trianglesquares.svg	stimuli_distractor_diamondtriangles.svg	22	yes	57	0	126	6	1	antiphase_hc_iso.wav	2	6	3	noise_calib_stim_LEFT.wav	1	27	blb_dichoticlistening_pa-ga.mp3	pa	ga	1	right
6.6.1	win	2023-06-17	04:33:51	04:48:46	892277	63d79d065189719c8393e3eb	2	1	main_z	24	main_z	79	stimuli_distractor_trianglediamonds.svg	stimuli_target_trianglesquares.svg	26	yes	44	1	754	6	1	antiphase_hc_iso.wav	2	6	3	noise_calib_stim_LEFT.wav	1	27	blb_dichoticlistening_pa-ga.mp3	pa	ga	1	right
6.6.1	win	2023-06-17	04:33:51	04:48:46	892277	63d79d065189719c8393e3eb	2	1	main_z	24	advance_on_keypress_ZEE	80	stimuli_distractor_trianglediamonds.svg	stimuli_target_trianglesquares.svg	26	yes	57	0	112	6	1	antiphase_hc_iso.wav	2	6	3	noise_calib_stim_LEFT.wav	1	27	blb_dichoticlistening_pa-ga.mp3	pa	ga	1	right
6.6.1	win	2023-06-17	04:33:51	04:48:49	895003	63d79d065189719c8393e3eb	2	1	main_z	24	main_z	81	stimuli_distractor_diamondtriangles.svg	stimuli_distractor_diamondtriangles.svg	39	no	0	1	2000	6	1	antiphase_hc_iso.wav	2	6	3	noise_calib_stim_LEFT.wav	1	27	blb_dichoticlistening_pa-ga.mp3	pa	ga	1	right
6.6.1	win	2023-06-17	04:33:51	04:48:49	895003	63d79d065189719c8393e3eb	2	1	main_z	24	advance_on_keypress_ZEE	82	stimuli_distractor_diamondtriangles.svg	stimuli_distractor_diamondtriangles.svg	39	no	57	0	503	6	1	antiphase_hc_iso.wav	2	6	3	noise_calib_stim_LEFT.wav	1	27	blb_dichoticlistening_pa-ga.mp3	pa	ga	1	right
6.6.1	win	2023-06-17	04:33:51	04:48:52	898143	63d79d065189719c8393e3eb	2	1	main_z	24	main_z	83	stimuli_distractor_trianglediamonds.svg	stimuli_distractor_trianglediamonds.svg	33	no	0	1	2000	6	1	antiphase_hc_iso.wav	2	6	3	noise_calib_stim_LEFT.wav	1	27	blb_dichoticlistening_pa-ga.mp3	pa	ga	1	right
6.6.1	win	2023-06-17	04:33:51	04:48:52	898143	63d79d065189719c8393e3eb	2	1	main_z	24	advance_on_keypress_ZEE	84	stimuli_distractor_trianglediamonds.svg	stimuli_distractor_trianglediamonds.svg	33	no	57	0	318	6	1	antiphase_hc_iso.wav	2	6	3	noise_calib_stim_LEFT.wav	1	27	blb_dichoticlistening_pa-ga.mp3	pa	ga	1	right
6.6.1	win	2023-06-17	04:33:51	04:48:55	901110	63d79d065189719c8393e3eb	2	1	main_z	24	main_z	85	stimuli_distractor_trianglediamonds.svg	stimuli_distractor_trianglediamonds.svg	34	no	0	1	2000	6	1	antiphase_hc_iso.wav	2	6	3	noise_calib_stim_LEFT.wav	1	27	blb_dichoticlistening_pa-ga.mp3	pa	ga	1	right
6.6.1	win	2023-06-17	04:33:51	04:48:55	901110	63d79d065189719c8393e3eb	2	1	main_z	24	advance_on_keypress_ZEE	86	stimuli_distractor_trianglediamonds.svg	stimuli_distractor_trianglediamonds.svg	34	no	57	0	361	6	1	antiphase_hc_iso.wav	2	6	3	noise_calib_stim_LEFT.wav	1	27	blb_dichoticlistening_pa-ga.mp3	pa	ga	1	right
6.6.1	win	2023-06-17	04:33:51	04:48:57	902922	63d79d065189719c8393e3eb	2	1	main_z	24	main_z	87	stimuli_distractor_trianglediamonds.svg	stimuli_distractor_diamondtriangles.svg	36	no	44	0	826	6	1	antiphase_hc_iso.wav	2	6	3	noise_calib_stim_LEFT.wav	1	27	blb_dichoticlistening_pa-ga.mp3	pa	ga	1	right
6.6.1	win	2023-06-17	04:33:51	04:48:57	902922	63d79d065189719c8393e3eb	2	1	main_z	24	advance_on_keypress_ZEE	88	stimuli_distractor_trianglediamonds.svg	stimuli_distractor_diamondtriangles.svg	36	no	57	0	472	6	1	antiphase_hc_iso.wav	2	6	3	noise_calib_stim_LEFT.wav	1	27	blb_dichoticlistening_pa-ga.mp3	pa	ga	1	right
6.6.1	win	2023-06-17	04:33:51	04:48:58	904775	63d79d065189719c8393e3eb	2	1	main_z	24	main_z	89	stimuli_distractor_trianglediamonds.svg	stimuli_target_squaretriangles.svg	11	yes	44	1	746	6	1	antiphase_hc_iso.wav	2	6	3	noise_calib_stim_LEFT.wav	1	27	blb_dichoticlistening_pa-ga.mp3	pa	ga	1	right
6.6.1	win	2023-06-17	04:33:51	04:48:58	904775	63d79d065189719c8393e3eb	2	1	main_z	24	advance_on_keypress_ZEE	90	stimuli_distractor_trianglediamonds.svg	stimuli_target_squaretriangles.svg	11	yes	57	0	114	6	1	antiphase_hc_iso.wav	2	6	3	noise_calib_stim_LEFT.wav	1	27	blb_dichoticlistening_pa-ga.mp3	pa	ga	1	right
6.6.1	win	2023-06-17	04:33:51	04:49:00	906217	63d79d065189719c8393e3eb	2	1	main_z	24	main_z	91	stimuli_distractor_diamondtriangles.svg	stimuli_target_squaretriangles.svg	15	yes	44	1	711	6	1	antiphase_hc_iso.wav	2	6	3	noise_calib_stim_LEFT.wav	1	27	blb_dichoticlistening_pa-ga.mp3	pa	ga	1	right
6.6.1	win	2023-06-17	04:33:51	04:49:00	906217	63d79d065189719c8393e3eb	2	1	main_z	24	advance_on_keypress_ZEE	92	stimuli_distractor_diamondtriangles.svg	stimuli_target_squaretriangles.svg	15	yes	57	0	116	6	1	antiphase_hc_iso.wav	2	6	3	noise_calib_stim_LEFT.wav	1	27	blb_dichoticlistening_pa-ga.mp3	pa	ga	1	right
6.6.1	win	2023-06-17	04:33:51	04:49:01	907774	63d79d065189719c8393e3eb	2	1	main_z	24	main_z	93	stimuli_target_trianglesquares.svg	stimuli_distractor_trianglediamonds.svg	18	yes	44	1	821	6	1	antiphase_hc_iso.wav	2	6	3	noise_calib_stim_LEFT.wav	1	27	blb_dichoticlistening_pa-ga.mp3	pa	ga	1	right
6.6.1	win	2023-06-17	04:33:51	04:49:01	907774	63d79d065189719c8393e3eb	2	1	main_z	24	advance_on_keypress_ZEE	94	stimuli_target_trianglesquares.svg	stimuli_distractor_trianglediamonds.svg	18	yes	57	0	111	6	1	antiphase_hc_iso.wav	2	6	3	noise_calib_stim_LEFT.wav	1	27	blb_dichoticlistening_pa-ga.mp3	pa	ga	1	right
6.6.1	win	2023-06-17	04:33:51	04:49:03	909339	63d79d065189719c8393e3eb	2	1	main_z	24	main_z	95	stimuli_distractor_trianglediamonds.svg	stimuli_target_squarediamonds.svg	12	yes	44	1	839	6	1	antiphase_hc_iso.wav	2	6	3	noise_calib_stim_LEFT.wav	1	27	blb_dichoticlistening_pa-ga.mp3	pa	ga	1	right
6.6.1	win	2023-06-17	04:33:51	04:49:03	909339	63d79d065189719c8393e3eb	2	1	main_z	24	advance_on_keypress_ZEE	96	stimuli_distractor_trianglediamonds.svg	stimuli_target_squarediamonds.svg	12	yes	57	0	109	6	1	antiphase_hc_iso.wav	2	6	3	noise_calib_stim_LEFT.wav	1	27	blb_dichoticlistening_pa-ga.mp3	pa	ga	1	right
6.6.1	win	2023-06-17	04:33:51	04:49:05	910873	63d79d065189719c8393e3eb	2	1	main_z	24	main_z	97	stimuli_target_rectangletriangles.svg	stimuli_distractor_diamondtriangles.svg	5	yes	44	1	807	6	1	antiphase_hc_iso.wav	2	6	3	noise_calib_stim_LEFT.wav	1	27	blb_dichoticlistening_pa-ga.mp3	pa	ga	1	right
6.6.1	win	2023-06-17	04:33:51	04:49:05	910873	63d79d065189719c8393e3eb	2	1	main_z	24	advance_on_keypress_ZEE	98	stimuli_target_rectangletriangles.svg	stimuli_distractor_diamondtriangles.svg	5	yes	57	0	133	6	1	antiphase_hc_iso.wav	2	6	3	noise_calib_stim_LEFT.wav	1	27	blb_dichoticlistening_pa-ga.mp3	pa	ga	1	right
6.6.1	win	2023-06-17	04:33:51	04:49:06	912493	63d79d065189719c8393e3eb	2	1	main_z	24	main_z	99	stimuli_distractor_trianglediamonds.svg	stimuli_target_trianglesquares.svg	26	yes	44	1	859	6	1	antiphase_hc_iso.wav	2	6	3	noise_calib_stim_LEFT.wav	1	27	blb_dichoticlistening_pa-ga.mp3	pa	ga	1	right
6.6.1	win	2023-06-17	04:33:51	04:49:06	912493	63d79d065189719c8393e3eb	2	1	main_z	24	advance_on_keypress_ZEE	100	stimuli_distractor_trianglediamonds.svg	stimuli_target_trianglesquares.svg	26	yes	57	0	122	6	1	antiphase_hc_iso.wav	2	6	3	noise_calib_stim_LEFT.wav	1	27	blb_dichoticlistening_pa-ga.mp3	pa	ga	1	right
6.6.1	win	2023-06-17	04:33:51	04:49:08	914125	63d79d065189719c8393e3eb	2	1	main_z	24	main_z	101	stimuli_distractor_diamondtriangles.svg	stimuli_target_diamondrectangles.svg	31	yes	44	1	895	6	1	antiphase_hc_iso.wav	2	6	3	noise_calib_stim_LEFT.wav	1	27	blb_dichoticlistening_pa-ga.mp3	pa	ga	1	right
6.6.1	win	2023-06-17	04:33:51	04:49:08	914125	63d79d065189719c8393e3eb	2	1	main_z	24	advance_on_keypress_ZEE	102	stimuli_distractor_diamondtriangles.svg	stimuli_target_diamondrectangles.svg	31	yes	57	0	119	6	1	antiphase_hc_iso.wav	2	6	3	noise_calib_stim_LEFT.wav	1	27	blb_dichoticlistening_pa-ga.mp3	pa	ga	1	right
6.6.1	win	2023-06-17	04:33:51	04:49:09	915755	63d79d065189719c8393e3eb	2	1	main_z	24	main_z	103	stimuli_target_diamondsquares.svg	stimuli_distractor_trianglediamonds.svg	20	yes	44	1	873	6	1	antiphase_hc_iso.wav	2	6	3	noise_calib_stim_LEFT.wav	1	27	blb_dichoticlistening_pa-ga.mp3	pa	ga	1	right
6.6.1	win	2023-06-17	04:33:51	04:49:09	915755	63d79d065189719c8393e3eb	2	1	main_z	24	advance_on_keypress_ZEE	104	stimuli_target_diamondsquares.svg	stimuli_distractor_trianglediamonds.svg	20	yes	57	0	116	6	1	antiphase_hc_iso.wav	2	6	3	noise_calib_stim_LEFT.wav	1	27	blb_dichoticlistening_pa-ga.mp3	pa	ga	1	right
6.6.1	win	2023-06-17	04:33:51	04:49:11	917395	63d79d065189719c8393e3eb	2	1	main_z	24	main_z	105	stimuli_target_trianglerectangles.svg	stimuli_distractor_trianglediamonds.svg	17	yes	44	1	891	6	1	antiphase_hc_iso.wav	2	6	3	noise_calib_stim_LEFT.wav	1	27	blb_dichoticlistening_pa-ga.mp3	pa	ga	1	right
6.6.1	win	2023-06-17	04:33:51	04:49:11	917395	63d79d065189719c8393e3eb	2	1	main_z	24	advance_on_keypress_ZEE	106	stimuli_target_trianglerectangles.svg	stimuli_distractor_trianglediamonds.svg	17	yes	57	0	105	6	1	antiphase_hc_iso.wav	2	6	3	noise_calib_stim_LEFT.wav	1	27	blb_dichoticlistening_pa-ga.mp3	pa	ga	1	right
6.6.1	win	2023-06-17	04:33:51	04:49:13	918957	63d79d065189719c8393e3eb	2	1	main_z	24	main_z	107	stimuli_distractor_diamondtriangles.svg	stimuli_target_trianglesquares.svg	30	yes	44	1	824	6	1	antiphase_hc_iso.wav	2	6	3	noise_calib_stim_LEFT.wav	1	27	blb_dichoticlistening_pa-ga.mp3	pa	ga	1	right
6.6.1	win	2023-06-17	04:33:51	04:49:13	918957	63d79d065189719c8393e3eb	2	1	main_z	24	advance_on_keypress_ZEE	108	stimuli_distractor_diamondtriangles.svg	stimuli_target_trianglesquares.svg	30	yes	57	0	92	6	1	antiphase_hc_iso.wav	2	6	3	noise_calib_stim_LEFT.wav	1	27	blb_dichoticlistening_pa-ga.mp3	pa	ga	1	right
6.6.1	win	2023-06-17	04:33:51	04:49:14	920532	63d79d065189719c8393e3eb	2	1	main_z	24	main_z	109	stimuli_distractor_trianglediamonds.svg	stimuli_target_rectangletriangles.svg	9	yes	44	1	867	6	1	antiphase_hc_iso.wav	2	6	3	noise_calib_stim_LEFT.wav	1	27	blb_dichoticlistening_pa-ga.mp3	pa	ga	1	right
6.6.1	win	2023-06-17	04:33:51	04:49:14	920532	63d79d065189719c8393e3eb	2	1	main_z	24	advance_on_keypress_ZEE	110	stimuli_distractor_trianglediamonds.svg	stimuli_target_rectangletriangles.svg	9	yes	57	0	106	6	1	antiphase_hc_iso.wav	2	6	3	noise_calib_stim_LEFT.wav	1	27	blb_dichoticlistening_pa-ga.mp3	pa	ga	1	right
6.6.1	win	2023-06-17	04:33:51	04:49:16	922039	63d79d065189719c8393e3eb	2	1	main_z	24	main_z	111	stimuli_target_diamondrectangles.svg	stimuli_distractor_diamondtriangles.svg	23	yes	44	1	770	6	1	antiphase_hc_iso.wav	2	6	3	noise_calib_stim_LEFT.wav	1	27	blb_dichoticlistening_pa-ga.mp3	pa	ga	1	right
6.6.1	win	2023-06-17	04:33:51	04:49:16	922039	63d79d065189719c8393e3eb	2	1	main_z	24	advance_on_keypress_ZEE	112	stimuli_target_diamondrectangles.svg	stimuli_distractor_diamondtriangles.svg	23	yes	57	0	115	6	1	antiphase_hc_iso.wav	2	6	3	noise_calib_stim_LEFT.wav	1	27	blb_dichoticlistening_pa-ga.mp3	pa	ga	1	right
6.6.1	win	2023-06-17	04:33:51	04:49:17	923660	63d79d065189719c8393e3eb	2	1	main_z	24	main_z	113	stimuli_distractor_diamondtriangles.svg	stimuli_target_rectangletriangles.svg	13	yes	44	1	856	6	1	antiphase_hc_iso.wav	2	6	3	noise_calib_stim_LEFT.wav	1	27	blb_dichoticlistening_pa-ga.mp3	pa	ga	1	right
6.6.1	win	2023-06-17	04:33:51	04:49:17	923660	63d79d065189719c8393e3eb	2	1	main_z	24	advance_on_keypress_ZEE	114	stimuli_distractor_diamondtriangles.svg	stimuli_target_rectangletriangles.svg	13	yes	57	0	93	6	1	antiphase_hc_iso.wav	2	6	3	noise_calib_stim_LEFT.wav	1	27	blb_dichoticlistening_pa-ga.mp3	pa	ga	1	right
6.6.1	win	2023-06-17	04:33:51	04:49:19	925195	63d79d065189719c8393e3eb	2	1	main_z	24	main_z	115	stimuli_target_squarediamonds.svg	stimuli_distractor_diamondtriangles.svg	8	yes	44	1	815	6	1	antiphase_hc_iso.wav	2	6	3	noise_calib_stim_LEFT.wav	1	27	blb_dichoticlistening_pa-ga.mp3	pa	ga	1	right
6.6.1	win	2023-06-17	04:33:51	04:49:19	925195	63d79d065189719c8393e3eb	2	1	main_z	24	advance_on_keypress_ZEE	116	stimuli_target_squarediamonds.svg	stimuli_distractor_diamondtriangles.svg	8	yes	57	0	99	6	1	antiphase_hc_iso.wav	2	6	3	noise_calib_stim_LEFT.wav	1	27	blb_dichoticlistening_pa-ga.mp3	pa	ga	1	right
6.6.1	win	2023-06-17	04:33:51	04:49:21	927054	63d79d065189719c8393e3eb	2	1	main_z	24	main_z	117	stimuli_distractor_diamondtriangles.svg	stimuli_target_diamondsquares.svg	32	yes	44	1	1123	6	1	antiphase_hc_iso.wav	2	6	3	noise_calib_stim_LEFT.wav	1	27	blb_dichoticlistening_pa-ga.mp3	pa	ga	1	right
6.6.1	win	2023-06-17	04:33:51	04:49:21	927054	63d79d065189719c8393e3eb	2	1	main_z	24	advance_on_keypress_ZEE	118	stimuli_distractor_diamondtriangles.svg	stimuli_target_diamondsquares.svg	32	yes	57	0	108	6	1	antiphase_hc_iso.wav	2	6	3	noise_calib_stim_LEFT.wav	1	27	blb_dichoticlistening_pa-ga.mp3	pa	ga	1	right
6.6.1	win	2023-06-17	04:33:51	04:49:22	928616	63d79d065189719c8393e3eb	2	1	main_z	24	main_z	119	stimuli_target_trianglerectangles.svg	stimuli_distractor_diamondtriangles.svg	21	yes	44	1	827	6	1	antiphase_hc_iso.wav	2	6	3	noise_calib_stim_LEFT.wav	1	27	blb_dichoticlistening_pa-ga.mp3	pa	ga	1	right
6.6.1	win	2023-06-17	04:33:51	04:49:22	928616	63d79d065189719c8393e3eb	2	1	main_z	24	advance_on_keypress_ZEE	120	stimuli_target_trianglerectangles.svg	stimuli_distractor_diamondtriangles.svg	21	yes	57	0	96	6	1	antiphase_hc_iso.wav	2	6	3	noise_calib_stim_LEFT.wav	1	27	blb_dichoticlistening_pa-ga.mp3	pa	ga	1	right
6.6.1	win	2023-06-17	04:33:51	04:49:24	930127	63d79d065189719c8393e3eb	2	1	main_z	24	main_z	121	stimuli_distractor_trianglediamonds.svg	stimuli_target_diamondsquares.svg	28	yes	44	1	781	6	1	antiphase_hc_iso.wav	2	6	3	noise_calib_stim_LEFT.wav	1	27	blb_dichoticlistening_pa-ga.mp3	pa	ga	1	right
6.6.1	win	2023-06-17	04:33:51	04:49:24	930127	63d79d065189719c8393e3eb	2	1	main_z	24	advance_on_keypress_ZEE	122	stimuli_distractor_trianglediamonds.svg	stimuli_target_diamondsquares.svg	28	yes	57	0	108	6	1	antiphase_hc_iso.wav	2	6	3	noise_calib_stim_LEFT.wav	1	27	blb_dichoticlistening_pa-ga.mp3	pa	ga	1	right
6.6.1	win	2023-06-17	04:33:51	04:49:27	932864	63d79d065189719c8393e3eb	2	1	main_z	24	main_z	123	stimuli_distractor_trianglediamonds.svg	stimuli_distractor_diamondtriangles.svg	35	no	0	1	2000	6	1	antiphase_hc_iso.wav	2	6	3	noise_calib_stim_LEFT.wav	1	27	blb_dichoticlistening_pa-ga.mp3	pa	ga	1	right
6.6.1	win	2023-06-17	04:33:51	04:49:27	932864	63d79d065189719c8393e3eb	2	1	main_z	24	advance_on_keypress_ZEE	124	stimuli_distractor_trianglediamonds.svg	stimuli_distractor_diamondtriangles.svg	35	no	57	0	522	6	1	antiphase_hc_iso.wav	2	6	3	noise_calib_stim_LEFT.wav	1	27	blb_dichoticlistening_pa-ga.mp3	pa	ga	1	right
6.6.1	win	2023-06-17	04:33:51	04:49:28	934550	63d79d065189719c8393e3eb	2	1	main_z	24	main_z	125	stimuli_target_rectanglediamonds.svg	stimuli_distractor_trianglediamonds.svg	2	yes	44	1	525	6	1	antiphase_hc_iso.wav	2	6	3	noise_calib_stim_LEFT.wav	1	27	blb_dichoticlistening_pa-ga.mp3	pa	ga	1	right
6.6.1	win	2023-06-17	04:33:51	04:49:28	934550	63d79d065189719c8393e3eb	2	1	main_z	24	advance_on_keypress_ZEE	126	stimuli_target_rectanglediamonds.svg	stimuli_distractor_trianglediamonds.svg	2	yes	57	0	177	6	1	antiphase_hc_iso.wav	2	6	3	noise_calib_stim_LEFT.wav	1	27	blb_dichoticlistening_pa-ga.mp3	pa	ga	1	right
6.6.1	win	2023-06-17	04:33:51	04:49:30	935897	63d79d065189719c8393e3eb	2	1	main_z	24	main_z	127	stimuli_target_diamondrectangles.svg	stimuli_distractor_trianglediamonds.svg	19	yes	44	1	521	6	1	antiphase_hc_iso.wav	2	6	3	noise_calib_stim_LEFT.wav	1	27	blb_dichoticlistening_pa-ga.mp3	pa	ga	1	right
6.6.1	win	2023-06-17	04:33:51	04:49:30	935897	63d79d065189719c8393e3eb	2	1	main_z	24	advance_on_keypress_ZEE	128	stimuli_target_diamondrectangles.svg	stimuli_distractor_trianglediamonds.svg	19	yes	57	0	106	6	1	antiphase_hc_iso.wav	2	6	3	noise_calib_stim_LEFT.wav	1	27	blb_dichoticlistening_pa-ga.mp3	pa	ga	1	right
6.6.1	win	2023-06-17	04:33:51	04:49:31	937101	63d79d065189719c8393e3eb	2	1	main_z	24	main_z	129	stimuli_distractor_trianglediamonds.svg	stimuli_target_diamondrectangles.svg	27	yes	44	1	442	6	1	antiphase_hc_iso.wav	2	6	3	noise_calib_stim_LEFT.wav	1	27	blb_dichoticlistening_pa-ga.mp3	pa	ga	1	right
6.6.1	win	2023-06-17	04:33:51	04:49:31	937101	63d79d065189719c8393e3eb	2	1	main_z	24	advance_on_keypress_ZEE	130	stimuli_distractor_trianglediamonds.svg	stimuli_target_diamondrectangles.svg	27	yes	57	0	78	6	1	antiphase_hc_iso.wav	2	6	3	noise_calib_stim_LEFT.wav	1	27	blb_dichoticlistening_pa-ga.mp3	pa	ga	1	right
6.6.1	win	2023-06-17	04:33:51	04:49:32	938249	63d79d065189719c8393e3eb	2	1	main_z	24	main_z	131	stimuli_distractor_trianglediamonds.svg	stimuli_target_rectanglediamonds.svg	10	yes	44	1	443	6	1	antiphase_hc_iso.wav	2	6	3	noise_calib_stim_LEFT.wav	1	27	blb_dichoticlistening_pa-ga.mp3	pa	ga	1	right
6.6.1	win	2023-06-17	04:33:51	04:49:32	938249	63d79d065189719c8393e3eb	2	1	main_z	24	advance_on_keypress_ZEE	132	stimuli_distractor_trianglediamonds.svg	stimuli_target_rectanglediamonds.svg	10	yes	57	0	89	6	1	antiphase_hc_iso.wav	2	6	3	noise_calib_stim_LEFT.wav	1	27	blb_dichoticlistening_pa-ga.mp3	pa	ga	1	right
6.6.1	win	2023-06-17	04:33:51	04:49:33	939489	63d79d065189719c8393e3eb	2	1	main_z	24	main_z	133	stimuli_distractor_diamondtriangles.svg	stimuli_target_trianglerectangles.svg	29	yes	44	1	525	6	1	antiphase_hc_iso.wav	2	6	3	noise_calib_stim_LEFT.wav	1	27	blb_dichoticlistening_pa-ga.mp3	pa	ga	1	right
6.6.1	win	2023-06-17	04:33:51	04:49:33	939489	63d79d065189719c8393e3eb	2	1	main_z	24	advance_on_keypress_ZEE	134	stimuli_distractor_diamondtriangles.svg	stimuli_target_trianglerectangles.svg	29	yes	57	0	86	6	1	antiphase_hc_iso.wav	2	6	3	noise_calib_stim_LEFT.wav	1	27	blb_dichoticlistening_pa-ga.mp3	pa	ga	1	right
6.6.1	win	2023-06-17	04:33:51	04:49:34	940632	63d79d065189719c8393e3eb	2	1	main_z	24	main_z	135	stimuli_target_squaretriangles.svg	stimuli_distractor_diamondtriangles.svg	7	yes	44	1	427	6	1	antiphase_hc_iso.wav	2	6	3	noise_calib_stim_LEFT.wav	1	27	blb_dichoticlistening_pa-ga.mp3	pa	ga	1	right
6.6.1	win	2023-06-17	04:33:51	04:49:34	940632	63d79d065189719c8393e3eb	2	1	main_z	24	advance_on_keypress_ZEE	136	stimuli_target_squaretriangles.svg	stimuli_distractor_diamondtriangles.svg	7	yes	57	0	73	6	1	antiphase_hc_iso.wav	2	6	3	noise_calib_stim_LEFT.wav	1	27	blb_dichoticlistening_pa-ga.mp3	pa	ga	1	right
6.6.1	win	2023-06-17	04:33:51	04:49:35	941738	63d79d065189719c8393e3eb	2	1	main_z	24	main_z	137	stimuli_distractor_diamondtriangles.svg	stimuli_distractor_trianglediamonds.svg	37	no	44	0	396	6	1	antiphase_hc_iso.wav	2	6	3	noise_calib_stim_LEFT.wav	1	27	blb_dichoticlistening_pa-ga.mp3	pa	ga	1	right
6.6.1	win	2023-06-17	04:33:51	04:49:35	941738	63d79d065189719c8393e3eb	2	1	main_z	24	advance_on_keypress_ZEE	138	stimuli_distractor_diamondtriangles.svg	stimuli_distractor_trianglediamonds.svg	37	no	57	0	252	6	1	antiphase_hc_iso.wav	2	6	3	noise_calib_stim_LEFT.wav	1	27	blb_dichoticlistening_pa-ga.mp3	pa	ga	1	right
6.6.1	win	2023-06-17	04:33:51	04:49:38	944615	63d79d065189719c8393e3eb	2	1	main_z	24	main_z	139	stimuli_distractor_trianglediamonds.svg	stimuli_target_trianglerectangles.svg	25	yes	0	0	2000	6	1	antiphase_hc_iso.wav	2	6	3	noise_calib_stim_LEFT.wav	1	27	blb_dichoticlistening_pa-ga.mp3	pa	ga	1	right
6.6.1	win	2023-06-17	04:33:51	04:49:38	944615	63d79d065189719c8393e3eb	2	1	main_z	24	advance_on_keypress_ZEE	140	stimuli_distractor_trianglediamonds.svg	stimuli_target_trianglerectangles.svg	25	yes	57	0	342	6	1	antiphase_hc_iso.wav	2	6	3	noise_calib_stim_LEFT.wav	1	27	blb_dichoticlistening_pa-ga.mp3	pa	ga	1	right
6.6.1	win	2023-06-17	04:33:51	04:49:40	946218	63d79d065189719c8393e3eb	2	1	main_z	24	main_z	141	stimuli_target_rectangletriangles.svg	stimuli_distractor_trianglediamonds.svg	1	yes	44	1	624	6	1	antiphase_hc_iso.wav	2	6	3	noise_calib_stim_LEFT.wav	1	27	blb_dichoticlistening_pa-ga.mp3	pa	ga	1	right
6.6.1	win	2023-06-17	04:33:51	04:49:40	946218	63d79d065189719c8393e3eb	2	1	main_z	24	advance_on_keypress_ZEE	142	stimuli_target_rectangletriangles.svg	stimuli_distractor_trianglediamonds.svg	1	yes	57	0	135	6	1	antiphase_hc_iso.wav	2	6	3	noise_calib_stim_LEFT.wav	1	27	blb_dichoticlistening_pa-ga.mp3	pa	ga	1	right
6.6.1	win	2023-06-17	04:33:51	04:49:41	947756	63d79d065189719c8393e3eb	2	1	main_z	24	main_z	143	stimuli_target_diamondsquares.svg	stimuli_distractor_diamondtriangles.svg	24	yes	44	1	748	6	1	antiphase_hc_iso.wav	2	6	3	noise_calib_stim_LEFT.wav	1	27	blb_dichoticlistening_pa-ga.mp3	pa	ga	1	right
6.6.1	win	2023-06-17	04:33:51	04:49:41	947756	63d79d065189719c8393e3eb	2	1	main_z	24	advance_on_keypress_ZEE	144	stimuli_target_diamondsquares.svg	stimuli_distractor_diamondtriangles.svg	24	yes	57	0	116	6	1	antiphase_hc_iso.wav	2	6	3	noise_calib_stim_LEFT.wav	1	27	blb_dichoticlistening_pa-ga.mp3	pa	ga	1	right
6.6.1	win	2023-06-17	04:33:51	04:49:43	949378	63d79d065189719c8393e3eb	2	1	main_z	24	main_z	145	stimuli_distractor_diamondtriangles.svg	stimuli_target_squarediamonds.svg	16	yes	44	1	883	6	1	antiphase_hc_iso.wav	2	6	3	noise_calib_stim_LEFT.wav	1	27	blb_dichoticlistening_pa-ga.mp3	pa	ga	1	right
6.6.1	win	2023-06-17	04:33:51	04:49:43	949378	63d79d065189719c8393e3eb	2	1	main_z	24	advance_on_keypress_ZEE	146	stimuli_distractor_diamondtriangles.svg	stimuli_target_squarediamonds.svg	16	yes	57	0	128	6	1	antiphase_hc_iso.wav	2	6	3	noise_calib_stim_LEFT.wav	1	27	blb_dichoticlistening_pa-ga.mp3	pa	ga	1	right
6.6.1	win	2023-06-17	04:33:51	04:49:45	951044	63d79d065189719c8393e3eb	2	1	main_z	24	main_z	147	stimuli_distractor_diamondtriangles.svg	stimuli_target_rectanglediamonds.svg	14	yes	44	1	922	6	1	antiphase_hc_iso.wav	2	6	3	noise_calib_stim_LEFT.wav	1	27	blb_dichoticlistening_pa-ga.mp3	pa	ga	1	right
6.6.1	win	2023-06-17	04:33:51	04:49:45	951044	63d79d065189719c8393e3eb	2	1	main_z	24	advance_on_keypress_ZEE	148	stimuli_distractor_diamondtriangles.svg	stimuli_target_rectanglediamonds.svg	14	yes	57	0	115	6	1	antiphase_hc_iso.wav	2	6	3	noise_calib_stim_LEFT.wav	1	27	blb_dichoticlistening_pa-ga.mp3	pa	ga	1	right
6.6.1	win	2023-06-17	04:33:51	04:49:47	953785	63d79d065189719c8393e3eb	2	1	main_z	24	main_z	149	stimuli_distractor_diamondtriangles.svg	stimuli_distractor_diamondtriangles.svg	40	no	0	1	2000	6	1	antiphase_hc_iso.wav	2	6	3	noise_calib_stim_LEFT.wav	1	27	blb_dichoticlistening_pa-ga.mp3	pa	ga	1	right
6.6.1	win	2023-06-17	04:33:51	04:49:47	953785	63d79d065189719c8393e3eb	2	1	main_z	24	advance_on_keypress_ZEE	150	stimuli_distractor_diamondtriangles.svg	stimuli_distractor_diamondtriangles.svg	40	no	57	0	419	6	1	antiphase_hc_iso.wav	2	6	3	noise_calib_stim_LEFT.wav	1	27	blb_dichoticlistening_pa-ga.mp3	pa	ga	1	right
6.6.1	win	2023-06-17	04:33:51	04:49:49	955380	63d79d065189719c8393e3eb	2	1	main_z	24	main_z	151	stimuli_target_squarediamonds.svg	stimuli_distractor_trianglediamonds.svg	4	yes	44	1	559	6	1	antiphase_hc_iso.wav	2	6	3	noise_calib_stim_LEFT.wav	1	27	blb_dichoticlistening_pa-ga.mp3	pa	ga	1	right
6.6.1	win	2023-06-17	04:33:51	04:49:49	955380	63d79d065189719c8393e3eb	2	1	main_z	24	advance_on_keypress_ZEE	152	stimuli_target_squarediamonds.svg	stimuli_distractor_trianglediamonds.svg	4	yes	57	0	125	6	1	antiphase_hc_iso.wav	2	6	3	noise_calib_stim_LEFT.wav	1	27	blb_dichoticlistening_pa-ga.mp3	pa	ga	1	right
6.6.1	win	2023-06-17	04:33:51	04:49:50	956825	63d79d065189719c8393e3eb	2	1	main_z	24	main_z	153	stimuli_target_trianglesquares.svg	stimuli_distractor_diamondtriangles.svg	22	yes	44	1	691	6	1	antiphase_hc_iso.wav	2	6	3	noise_calib_stim_LEFT.wav	1	27	blb_dichoticlistening_pa-ga.mp3	pa	ga	1	right
6.6.1	win	2023-06-17	04:33:51	04:49:50	956825	63d79d065189719c8393e3eb	2	1	main_z	24	advance_on_keypress_ZEE	154	stimuli_target_trianglesquares.svg	stimuli_distractor_diamondtriangles.svg	22	yes	57	0	142	6	1	antiphase_hc_iso.wav	2	6	3	noise_calib_stim_LEFT.wav	1	27	blb_dichoticlistening_pa-ga.mp3	pa	ga	1	right
6.6.1	win	2023-06-17	04:33:51	04:49:52	958343	63d79d065189719c8393e3eb	2	1	main_z	24	main_z	155	stimuli_target_rectanglediamonds.svg	stimuli_distractor_diamondtriangles.svg	6	yes	44	1	738	6	1	antiphase_hc_iso.wav	2	6	3	noise_calib_stim_LEFT.wav	1	27	blb_dichoticlistening_pa-ga.mp3	pa	ga	1	right
6.6.1	win	2023-06-17	04:33:51	04:49:52	958343	63d79d065189719c8393e3eb	2	1	main_z	24	advance_on_keypress_ZEE	156	stimuli_target_rectanglediamonds.svg	stimuli_distractor_diamondtriangles.svg	6	yes	57	0	137	6	1	antiphase_hc_iso.wav	2	6	3	noise_calib_stim_LEFT.wav	1	27	blb_dichoticlistening_pa-ga.mp3	pa	ga	1	right
6.6.1	win	2023-06-17	04:33:51	04:49:55	961122	63d79d065189719c8393e3eb	2	1	main_z	24	main_z	157	stimuli_distractor_diamondtriangles.svg	stimuli_distractor_trianglediamonds.svg	38	no	0	1	2000	6	1	antiphase_hc_iso.wav	2	6	3	noise_calib_stim_LEFT.wav	1	27	blb_dichoticlistening_pa-ga.mp3	pa	ga	1	right
6.6.1	win	2023-06-17	04:33:51	04:49:55	961122	63d79d065189719c8393e3eb	2	1	main_z	24	advance_on_keypress_ZEE	158	stimuli_distractor_diamondtriangles.svg	stimuli_distractor_trianglediamonds.svg	38	no	57	0	417	6	1	antiphase_hc_iso.wav	2	6	3	noise_calib_stim_LEFT.wav	1	27	blb_dichoticlistening_pa-ga.mp3	pa	ga	1	right
6.6.1	win	2023-06-17	04:33:51	04:49:57	963104	63d79d065189719c8393e3eb	2	1	main_z	24	main_z	159	stimuli_target_squaretriangles.svg	stimuli_distractor_trianglediamonds.svg	3	yes	44	1	913	6	1	antiphase_hc_iso.wav	2	6	3	noise_calib_stim_LEFT.wav	1	27	blb_dichoticlistening_pa-ga.mp3	pa	ga	1	right
6.6.1	win	2023-06-17	04:33:51	04:49:57	963104	63d79d065189719c8393e3eb	2	1	main_z	24	advance_on_keypress_ZEE	160	stimuli_target_squaretriangles.svg	stimuli_distractor_trianglediamonds.svg	3	yes	57	0	132	6	1	antiphase_hc_iso.wav	2	6	3	noise_calib_stim_LEFT.wav	1	27	blb_dichoticlistening_pa-ga.mp3	pa	ga	1	right
6.6.1	win	2023-06-17	04:33:51	04:50:16	982445	63d79d065189719c8393e3eb	2	1	practice_slash	26	practice_slash	1	stimuli_distractor_diamondtriangles.svg	stimuli_target_diamondrectangles.svg	8	yes	53	1	1166	6	1	antiphase_hc_iso.wav	2	6	3	noise_calib_stim_LEFT.wav	1	27	blb_dichoticlistening_pa-ga.mp3	pa	ga	1	right
6.6.1	win	2023-06-17	04:33:51	04:50:16	982445	63d79d065189719c8393e3eb	2	1	practice_slash	26	advance_on_keypress_SLASH	2	stimuli_distractor_diamondtriangles.svg	stimuli_target_diamondrectangles.svg	8	yes	57	0	557	6	1	antiphase_hc_iso.wav	2	6	3	noise_calib_stim_LEFT.wav	1	27	blb_dichoticlistening_pa-ga.mp3	pa	ga	1	right
6.6.1	win	2023-06-17	04:33:51	04:50:20	986633	63d79d065189719c8393e3eb	2	1	practice_slash	26	practice_slash	3	stimuli_distractor_diamondtriangles.svg	stimuli_distractor_diamondtriangles.svg	13	no	0	1	2000	6	1	antiphase_hc_iso.wav	2	6	3	noise_calib_stim_LEFT.wav	1	27	blb_dichoticlistening_pa-ga.mp3	pa	ga	1	right
6.6.1	win	2023-06-17	04:33:51	04:50:20	986633	63d79d065189719c8393e3eb	2	1	practice_slash	26	advance_on_keypress_SLASH	4	stimuli_distractor_diamondtriangles.svg	stimuli_distractor_diamondtriangles.svg	13	no	57	0	455	6	1	antiphase_hc_iso.wav	2	6	3	noise_calib_stim_LEFT.wav	1	27	blb_dichoticlistening_pa-ga.mp3	pa	ga	1	right
6.6.1	win	2023-06-17	04:33:51	04:50:23	989588	63d79d065189719c8393e3eb	2	1	practice_slash	26	practice_slash	5	stimuli_target_diamondsquares.svg	stimuli_distractor_trianglediamonds.svg	6	yes	53	1	844	6	1	antiphase_hc_iso.wav	2	6	3	noise_calib_stim_LEFT.wav	1	27	blb_dichoticlistening_pa-ga.mp3	pa	ga	1	right
6.6.1	win	2023-06-17	04:33:51	04:50:23	989588	63d79d065189719c8393e3eb	2	1	practice_slash	26	advance_on_keypress_SLASH	6	stimuli_target_diamondsquares.svg	stimuli_distractor_trianglediamonds.svg	6	yes	57	0	556	6	1	antiphase_hc_iso.wav	2	6	3	noise_calib_stim_LEFT.wav	1	27	blb_dichoticlistening_pa-ga.mp3	pa	ga	1	right
6.6.1	win	2023-06-17	04:33:51	04:50:26	992425	63d79d065189719c8393e3eb	2	1	practice_slash	26	practice_slash	7	stimuli_target_squarediamonds.svg	stimuli_distractor_trianglediamonds.svg	5	yes	53	1	641	6	1	antiphase_hc_iso.wav	2	6	3	noise_calib_stim_LEFT.wav	1	27	blb_dichoticlistening_pa-ga.mp3	pa	ga	1	right
6.6.1	win	2023-06-17	04:33:51	04:50:26	992425	63d79d065189719c8393e3eb	2	1	practice_slash	26	advance_on_keypress_SLASH	8	stimuli_target_squarediamonds.svg	stimuli_distractor_trianglediamonds.svg	5	yes	57	0	385	6	1	antiphase_hc_iso.wav	2	6	3	noise_calib_stim_LEFT.wav	1	27	blb_dichoticlistening_pa-ga.mp3	pa	ga	1	right
6.6.1	win	2023-06-17	04:33:51	04:50:29	994973	63d79d065189719c8393e3eb	2	1	practice_slash	26	practice_slash	9	stimuli_distractor_diamondtriangles.svg	stimuli_target_trianglerectangles.svg	9	yes	53	1	505	6	1	antiphase_hc_iso.wav	2	6	3	noise_calib_stim_LEFT.wav	1	27	blb_dichoticlistening_pa-ga.mp3	pa	ga	1	right
6.6.1	win	2023-06-17	04:33:51	04:50:29	994973	63d79d065189719c8393e3eb	2	1	practice_slash	26	advance_on_keypress_SLASH	10	stimuli_distractor_diamondtriangles.svg	stimuli_target_trianglerectangles.svg	9	yes	57	0	258	6	1	antiphase_hc_iso.wav	2	6	3	noise_calib_stim_LEFT.wav	1	27	blb_dichoticlistening_pa-ga.mp3	pa	ga	1	right
6.6.1	win	2023-06-17	04:33:51	04:50:31	997270	63d79d065189719c8393e3eb	2	1	practice_slash	26	practice_slash	11	stimuli_distractor_trianglediamonds.svg	stimuli_target_rectanglediamonds.svg	10	yes	53	1	396	6	1	antiphase_hc_iso.wav	2	6	3	noise_calib_stim_LEFT.wav	1	27	blb_dichoticlistening_pa-ga.mp3	pa	ga	1	right
6.6.1	win	2023-06-17	04:33:51	04:50:31	997270	63d79d065189719c8393e3eb	2	1	practice_slash	26	advance_on_keypress_SLASH	12	stimuli_distractor_trianglediamonds.svg	stimuli_target_rectanglediamonds.svg	10	yes	57	0	325	6	1	antiphase_hc_iso.wav	2	6	3	noise_calib_stim_LEFT.wav	1	27	blb_dichoticlistening_pa-ga.mp3	pa	ga	1	right
6.6.1	win	2023-06-17	04:33:51	04:50:33	999601	63d79d065189719c8393e3eb	2	1	practice_slash	26	practice_slash	13	stimuli_distractor_diamondtriangles.svg	stimuli_target_rectangletriangles.svg	7	yes	53	1	332	6	1	antiphase_hc_iso.wav	2	6	3	noise_calib_stim_LEFT.wav	1	27	blb_dichoticlistening_pa-ga.mp3	pa	ga	1	right
6.6.1	win	2023-06-17	04:33:51	04:50:33	999601	63d79d065189719c8393e3eb	2	1	practice_slash	26	advance_on_keypress_SLASH	14	stimuli_distractor_diamondtriangles.svg	stimuli_target_rectangletriangles.svg	7	yes	57	0	225	6	1	antiphase_hc_iso.wav	2	6	3	noise_calib_stim_LEFT.wav	1	27	blb_dichoticlistening_pa-ga.mp3	pa	ga	1	right
6.6.1	win	2023-06-17	04:33:51	04:50:37	1003468	63d79d065189719c8393e3eb	2	1	practice_slash	26	practice_slash	15	stimuli_distractor_trianglediamonds.svg	stimuli_distractor_trianglediamonds.svg	15	no	0	1	2000	6	1	antiphase_hc_iso.wav	2	6	3	noise_calib_stim_LEFT.wav	1	27	blb_dichoticlistening_pa-ga.mp3	pa	ga	1	right
6.6.1	win	2023-06-17	04:33:51	04:50:37	1003468	63d79d065189719c8393e3eb	2	1	practice_slash	26	advance_on_keypress_SLASH	16	stimuli_distractor_trianglediamonds.svg	stimuli_distractor_trianglediamonds.svg	15	no	57	0	277	6	1	antiphase_hc_iso.wav	2	6	3	noise_calib_stim_LEFT.wav	1	27	blb_dichoticlistening_pa-ga.mp3	pa	ga	1	right
6.6.1	win	2023-06-17	04:33:51	04:50:39	1005761	63d79d065189719c8393e3eb	2	1	practice_slash	26	practice_slash	17	stimuli_target_diamondsquares.svg	stimuli_distractor_diamondtriangles.svg	3	yes	53	1	371	6	1	antiphase_hc_iso.wav	2	6	3	noise_calib_stim_LEFT.wav	1	27	blb_dichoticlistening_pa-ga.mp3	pa	ga	1	right
6.6.1	win	2023-06-17	04:33:51	04:50:39	1005761	63d79d065189719c8393e3eb	2	1	practice_slash	26	advance_on_keypress_SLASH	18	stimuli_target_diamondsquares.svg	stimuli_distractor_diamondtriangles.svg	3	yes	57	0	525	6	1	antiphase_hc_iso.wav	2	6	3	noise_calib_stim_LEFT.wav	1	27	blb_dichoticlistening_pa-ga.mp3	pa	ga	1	right
6.6.1	win	2023-06-17	04:33:51	04:50:42	1008252	63d79d065189719c8393e3eb	2	1	practice_slash	26	practice_slash	19	stimuli_target_squarediamonds.svg	stimuli_distractor_diamondtriangles.svg	2	yes	53	1	328	6	1	antiphase_hc_iso.wav	2	6	3	noise_calib_stim_LEFT.wav	1	27	blb_dichoticlistening_pa-ga.mp3	pa	ga	1	right
