build	computer.platform	date	time	timestamp	time_elapsed_ms	subject	group	session	blockcode	blocknum	trialcode	trialnum	stimulus_left	stimulus_right	stim_index	target_present	response	correct	latency	headphonecheck_countTestTrials	headphonecheck_index	headphonecheck_testSound	headphonecheck_correctResponse	stereocheck_countTestTrials	stereocheck_index	stereocheck_testSound	stereocheck_correctResponse	DL_index	DL_soundfile	DL_leftSound	DL_rightSound	DL_dualSound	DL_choice
6.6.1	win	2023-06-16	11:08:27	11:10:39	128873	61005ada2ffbf75efed5deb5	4	1	practice_z	5	practice_z	1	stimuli_distractor_diamondtriangles.svg	stimuli_distractor_trianglediamonds.svg	14	no	44	0	572	0	0			0	0			1				0	
6.6.1	win	2023-06-16	11:08:27	11:10:39	128873	61005ada2ffbf75efed5deb5	4	1	practice_z	5	advance_on_keypress_ZEE	2	stimuli_distractor_diamondtriangles.svg	stimuli_distractor_trianglediamonds.svg	14	no	57	0	1914	0	0			0	0			1				0	
6.6.1	win	2023-06-16	11:08:27	11:10:45	134448	61005ada2ffbf75efed5deb5	4	1	practice_z	5	practice_z	3	stimuli_distractor_trianglediamonds.svg	stimuli_distractor_diamondtriangles.svg	16	no	0	1	2000	0	0			0	0			1				0	
6.6.1	win	2023-06-16	11:08:27	11:10:45	134448	61005ada2ffbf75efed5deb5	4	1	practice_z	5	advance_on_keypress_ZEE	4	stimuli_distractor_trianglediamonds.svg	stimuli_distractor_diamondtriangles.svg	16	no	57	0	1298	0	0			0	0			1				0	
6.6.1	win	2023-06-16	11:08:27	11:10:48	138055	61005ada2ffbf75efed5deb5	4	1	practice_z	5	practice_z	5	stimuli_distractor_trianglediamonds.svg	stimuli_target_rectanglediamonds.svg	10	yes	44	1	663	0	0			0	0			1				0	
6.6.1	win	2023-06-16	11:08:27	11:10:48	138055	61005ada2ffbf75efed5deb5	4	1	practice_z	5	advance_on_keypress_ZEE	6	stimuli_distractor_trianglediamonds.svg	stimuli_target_rectanglediamonds.svg	10	yes	57	0	898	0	0			0	0			1				0	
6.6.1	win	2023-06-16	11:08:27	11:10:51	141099	61005ada2ffbf75efed5deb5	4	1	practice_z	5	practice_z	7	stimuli_target_rectanglediamonds.svg	stimuli_distractor_trianglediamonds.svg	4	yes	44	1	490	0	0			0	0			1				0	
6.6.1	win	2023-06-16	11:08:27	11:10:51	141099	61005ada2ffbf75efed5deb5	4	1	practice_z	5	advance_on_keypress_ZEE	8	stimuli_target_rectanglediamonds.svg	stimuli_distractor_trianglediamonds.svg	4	yes	57	0	818	0	0			0	0			1				0	
6.6.1	win	2023-06-16	11:08:27	11:10:54	144348	61005ada2ffbf75efed5deb5	4	1	practice_z	5	practice_z	9	stimuli_target_diamondsquares.svg	stimuli_distractor_diamondtriangles.svg	3	yes	44	1	793	0	0			0	0			1				0	
6.6.1	win	2023-06-16	11:08:27	11:10:54	144348	61005ada2ffbf75efed5deb5	4	1	practice_z	5	advance_on_keypress_ZEE	10	stimuli_target_diamondsquares.svg	stimuli_distractor_diamondtriangles.svg	3	yes	57	0	360	0	0			0	0			1				0	
6.6.1	win	2023-06-16	11:08:27	11:10:58	148370	61005ada2ffbf75efed5deb5	4	1	practice_z	5	practice_z	11	stimuli_distractor_diamondtriangles.svg	stimuli_target_trianglerectangles.svg	9	yes	0	0	2000	0	0			0	0			1				0	
6.6.1	win	2023-06-16	11:08:27	11:10:58	148370	61005ada2ffbf75efed5deb5	4	1	practice_z	5	advance_on_keypress_ZEE	12	stimuli_distractor_diamondtriangles.svg	stimuli_target_trianglerectangles.svg	9	yes	57	0	577	0	0			0	0			1				0	
6.6.1	win	2023-06-16	11:08:27	11:11:01	151221	61005ada2ffbf75efed5deb5	4	1	practice_z	5	practice_z	13	stimuli_target_diamondsquares.svg	stimuli_distractor_trianglediamonds.svg	6	yes	44	1	621	0	0			0	0			1				0	
6.6.1	win	2023-06-16	11:08:27	11:11:01	151221	61005ada2ffbf75efed5deb5	4	1	practice_z	5	advance_on_keypress_ZEE	14	stimuli_target_diamondsquares.svg	stimuli_distractor_trianglediamonds.svg	6	yes	57	0	408	0	0			0	0			1				0	
6.6.1	win	2023-06-16	11:08:27	11:11:04	154058	61005ada2ffbf75efed5deb5	4	1	practice_z	5	practice_z	15	stimuli_distractor_trianglediamonds.svg	stimuli_target_diamondrectangles.svg	12	yes	44	1	794	0	0			0	0			1				0	
6.6.1	win	2023-06-16	11:08:27	11:11:04	154058	61005ada2ffbf75efed5deb5	4	1	practice_z	5	advance_on_keypress_ZEE	16	stimuli_distractor_trianglediamonds.svg	stimuli_target_diamondrectangles.svg	12	yes	57	0	550	0	0			0	0			1				0	
6.6.1	win	2023-06-16	11:08:27	11:11:07	157062	61005ada2ffbf75efed5deb5	4	1	practice_z	5	practice_z	17	stimuli_distractor_diamondtriangles.svg	stimuli_target_diamondrectangles.svg	8	yes	44	1	801	0	0			0	0			1				0	
6.6.1	win	2023-06-16	11:08:27	11:11:07	157062	61005ada2ffbf75efed5deb5	4	1	practice_z	5	advance_on_keypress_ZEE	18	stimuli_distractor_diamondtriangles.svg	stimuli_target_diamondrectangles.svg	8	yes	57	0	401	0	0			0	0			1				0	
6.6.1	win	2023-06-16	11:08:27	11:11:10	159737	61005ada2ffbf75efed5deb5	4	1	practice_z	5	practice_z	19	stimuli_target_rectanglediamonds.svg	stimuli_distractor_diamondtriangles.svg	1	yes	44	1	628	0	0			0	0			1				0	
6.6.1	win	2023-06-16	11:08:27	11:11:10	159737	61005ada2ffbf75efed5deb5	4	1	practice_z	5	advance_on_keypress_ZEE	20	stimuli_target_rectanglediamonds.svg	stimuli_distractor_diamondtriangles.svg	1	yes	57	0	261	0	0			0	0			1				0	
6.6.1	win	2023-06-16	11:08:27	11:11:12	162292	61005ada2ffbf75efed5deb5	4	1	practice_z	5	practice_z	21	stimuli_distractor_diamondtriangles.svg	stimuli_target_rectangletriangles.svg	7	yes	44	1	635	0	0			0	0			1				0	
6.6.1	win	2023-06-16	11:08:27	11:11:12	162292	61005ada2ffbf75efed5deb5	4	1	practice_z	5	advance_on_keypress_ZEE	22	stimuli_distractor_diamondtriangles.svg	stimuli_target_rectangletriangles.svg	7	yes	57	0	272	0	0			0	0			1				0	
6.6.1	win	2023-06-16	11:08:27	11:11:16	166205	61005ada2ffbf75efed5deb5	4	1	practice_z	5	practice_z	23	stimuli_distractor_trianglediamonds.svg	stimuli_target_squarediamonds.svg	11	yes	0	0	2000	0	0			0	0			1				0	
6.6.1	win	2023-06-16	11:08:27	11:11:16	166205	61005ada2ffbf75efed5deb5	4	1	practice_z	5	advance_on_keypress_ZEE	24	stimuli_distractor_trianglediamonds.svg	stimuli_target_squarediamonds.svg	11	yes	57	0	343	0	0			0	0			1				0	
6.6.1	win	2023-06-16	11:08:27	11:11:20	170185	61005ada2ffbf75efed5deb5	4	1	practice_z	5	practice_z	25	stimuli_distractor_trianglediamonds.svg	stimuli_distractor_trianglediamonds.svg	15	no	0	1	2000	0	0			0	0			1				0	
6.6.1	win	2023-06-16	11:08:27	11:11:20	170185	61005ada2ffbf75efed5deb5	4	1	practice_z	5	advance_on_keypress_ZEE	26	stimuli_distractor_trianglediamonds.svg	stimuli_distractor_trianglediamonds.svg	15	no	57	0	361	0	0			0	0			1				0	
6.6.1	win	2023-06-16	11:08:27	11:11:23	172793	61005ada2ffbf75efed5deb5	4	1	practice_z	5	practice_z	27	stimuli_target_squarediamonds.svg	stimuli_distractor_trianglediamonds.svg	5	yes	44	1	613	0	0			0	0			1				0	
6.6.1	win	2023-06-16	11:08:27	11:11:23	172793	61005ada2ffbf75efed5deb5	4	1	practice_z	5	advance_on_keypress_ZEE	28	stimuli_target_squarediamonds.svg	stimuli_distractor_trianglediamonds.svg	5	yes	57	0	249	0	0			0	0			1				0	
6.6.1	win	2023-06-16	11:08:27	11:11:26	175478	61005ada2ffbf75efed5deb5	4	1	practice_z	5	practice_z	29	stimuli_distractor_diamondtriangles.svg	stimuli_distractor_diamondtriangles.svg	13	no	44	0	782	0	0			0	0			1				0	
6.6.1	win	2023-06-16	11:08:27	11:11:26	175478	61005ada2ffbf75efed5deb5	4	1	practice_z	5	advance_on_keypress_ZEE	30	stimuli_distractor_diamondtriangles.svg	stimuli_distractor_diamondtriangles.svg	13	no	57	0	216	0	0			0	0			1				0	
6.6.1	win	2023-06-16	11:08:27	11:11:28	177935	61005ada2ffbf75efed5deb5	4	1	practice_z	5	practice_z	31	stimuli_target_squarediamonds.svg	stimuli_distractor_diamondtriangles.svg	2	yes	44	1	591	0	0			0	0			1				0	
6.6.1	win	2023-06-16	11:08:27	11:11:28	177935	61005ada2ffbf75efed5deb5	4	1	practice_z	5	advance_on_keypress_ZEE	32	stimuli_target_squarediamonds.svg	stimuli_distractor_diamondtriangles.svg	2	yes	57	0	237	0	0			0	0			1				0	
6.6.1	win	2023-06-16	11:08:27	11:11:33	183018	61005ada2ffbf75efed5deb5	4	1	main_z	7	main_z	1	stimuli_distractor_diamondtriangles.svg	stimuli_target_diamondrectangles.svg	31	yes	44	1	630	0	0			0	0			1				0	
6.6.1	win	2023-06-16	11:08:27	11:11:33	183018	61005ada2ffbf75efed5deb5	4	1	main_z	7	advance_on_keypress_ZEE	2	stimuli_distractor_diamondtriangles.svg	stimuli_target_diamondrectangles.svg	31	yes	57	0	805	0	0			0	0			1				0	
6.6.1	win	2023-06-16	11:08:27	11:11:35	184951	61005ada2ffbf75efed5deb5	4	1	main_z	7	main_z	3	stimuli_distractor_diamondtriangles.svg	stimuli_target_rectangletriangles.svg	13	yes	44	1	481	0	0			0	0			1				0	
6.6.1	win	2023-06-16	11:08:27	11:11:35	184951	61005ada2ffbf75efed5deb5	4	1	main_z	7	advance_on_keypress_ZEE	4	stimuli_distractor_diamondtriangles.svg	stimuli_target_rectangletriangles.svg	13	yes	57	0	2177	0	0			0	0			1				0	
6.6.1	win	2023-06-16	11:08:27	11:11:38	188171	61005ada2ffbf75efed5deb5	4	1	main_z	7	main_z	5	stimuli_distractor_trianglediamonds.svg	stimuli_target_diamondsquares.svg	28	yes	44	1	404	0	0			0	0			1				0	
6.6.1	win	2023-06-16	11:08:27	11:11:38	188171	61005ada2ffbf75efed5deb5	4	1	main_z	7	advance_on_keypress_ZEE	6	stimuli_distractor_trianglediamonds.svg	stimuli_target_diamondsquares.svg	28	yes	57	0	521	0	0			0	0			1				0	
6.6.1	win	2023-06-16	11:08:27	11:11:41	191332	61005ada2ffbf75efed5deb5	4	1	main_z	7	main_z	7	stimuli_distractor_diamondtriangles.svg	stimuli_distractor_trianglediamonds.svg	37	no	0	1	2000	0	0			0	0			1				0	
6.6.1	win	2023-06-16	11:08:27	11:11:41	191332	61005ada2ffbf75efed5deb5	4	1	main_z	7	advance_on_keypress_ZEE	8	stimuli_distractor_diamondtriangles.svg	stimuli_distractor_trianglediamonds.svg	37	no	57	0	391	0	0			0	0			1				0	
6.6.1	win	2023-06-16	11:08:27	11:11:44	194363	61005ada2ffbf75efed5deb5	4	1	main_z	7	main_z	9	stimuli_distractor_trianglediamonds.svg	stimuli_distractor_trianglediamonds.svg	34	no	0	1	2000	0	0			0	0			1				0	
6.6.1	win	2023-06-16	11:08:27	11:11:44	194363	61005ada2ffbf75efed5deb5	4	1	main_z	7	advance_on_keypress_ZEE	10	stimuli_distractor_trianglediamonds.svg	stimuli_distractor_trianglediamonds.svg	34	no	57	0	209	0	0			0	0			1				0	
6.6.1	win	2023-06-16	11:08:27	11:11:46	195800	61005ada2ffbf75efed5deb5	4	1	main_z	7	main_z	11	stimuli_target_rectangletriangles.svg	stimuli_distractor_diamondtriangles.svg	5	yes	44	1	589	0	0			0	0			1				0	
6.6.1	win	2023-06-16	11:08:27	11:11:46	195800	61005ada2ffbf75efed5deb5	4	1	main_z	7	advance_on_keypress_ZEE	12	stimuli_target_rectangletriangles.svg	stimuli_distractor_diamondtriangles.svg	5	yes	57	0	557	0	0			0	0			1				0	
6.6.1	win	2023-06-16	11:08:27	11:11:48	197510	61005ada2ffbf75efed5deb5	4	1	main_z	7	main_z	13	stimuli_target_diamondrectangles.svg	stimuli_distractor_diamondtriangles.svg	23	yes	44	1	517	0	0			0	0			1				0	
6.6.1	win	2023-06-16	11:08:27	11:11:48	197510	61005ada2ffbf75efed5deb5	4	1	main_z	7	advance_on_keypress_ZEE	14	stimuli_target_diamondrectangles.svg	stimuli_distractor_diamondtriangles.svg	23	yes	57	0	417	0	0			0	0			1				0	
6.6.1	win	2023-06-16	11:08:27	11:11:49	199177	61005ada2ffbf75efed5deb5	4	1	main_z	7	main_z	15	stimuli_distractor_diamondtriangles.svg	stimuli_distractor_trianglediamonds.svg	38	no	44	0	603	0	0			0	0			1				0	
6.6.1	win	2023-06-16	11:08:27	11:11:49	199177	61005ada2ffbf75efed5deb5	4	1	main_z	7	advance_on_keypress_ZEE	16	stimuli_distractor_diamondtriangles.svg	stimuli_distractor_trianglediamonds.svg	38	no	57	0	400	0	0			0	0			1				0	
6.6.1	win	2023-06-16	11:08:27	11:11:51	201161	61005ada2ffbf75efed5deb5	4	1	main_z	7	main_z	17	stimuli_target_diamondsquares.svg	stimuli_distractor_trianglediamonds.svg	20	yes	44	1	938	0	0			0	0			1				0	
6.6.1	win	2023-06-16	11:08:27	11:11:51	201161	61005ada2ffbf75efed5deb5	4	1	main_z	7	advance_on_keypress_ZEE	18	stimuli_target_diamondsquares.svg	stimuli_distractor_trianglediamonds.svg	20	yes	57	0	294	0	0			0	0			1				0	
6.6.1	win	2023-06-16	11:08:27	11:11:53	202722	61005ada2ffbf75efed5deb5	4	1	main_z	7	main_z	19	stimuli_target_trianglesquares.svg	stimuli_distractor_diamondtriangles.svg	22	yes	44	1	633	0	0			0	0			1				0	
6.6.1	win	2023-06-16	11:08:27	11:11:53	202722	61005ada2ffbf75efed5deb5	4	1	main_z	7	advance_on_keypress_ZEE	20	stimuli_target_trianglesquares.svg	stimuli_distractor_diamondtriangles.svg	22	yes	57	0	506	0	0			0	0			1				0	
6.6.1	win	2023-06-16	11:08:27	11:11:55	204436	61005ada2ffbf75efed5deb5	4	1	main_z	7	main_z	21	stimuli_distractor_diamondtriangles.svg	stimuli_target_diamondsquares.svg	32	yes	44	1	566	0	0			0	0			1				0	
6.6.1	win	2023-06-16	11:08:27	11:11:55	204436	61005ada2ffbf75efed5deb5	4	1	main_z	7	advance_on_keypress_ZEE	22	stimuli_distractor_diamondtriangles.svg	stimuli_target_diamondsquares.svg	32	yes	57	0	327	0	0			0	0			1				0	
6.6.1	win	2023-06-16	11:08:27	11:11:57	206771	61005ada2ffbf75efed5deb5	4	1	main_z	7	main_z	23	stimuli_distractor_trianglediamonds.svg	stimuli_target_trianglesquares.svg	26	yes	44	1	1336	0	0			0	0			1				0	
6.6.1	win	2023-06-16	11:08:27	11:11:57	206771	61005ada2ffbf75efed5deb5	4	1	main_z	7	advance_on_keypress_ZEE	24	stimuli_distractor_trianglediamonds.svg	stimuli_target_trianglesquares.svg	26	yes	57	0	507	0	0			0	0			1				0	
6.6.1	win	2023-06-16	11:08:27	11:12:00	209917	61005ada2ffbf75efed5deb5	4	1	main_z	7	main_z	25	stimuli_distractor_trianglediamonds.svg	stimuli_target_rectangletriangles.svg	9	yes	0	0	2000	0	0			0	0			1				0	
6.6.1	win	2023-06-16	11:08:27	11:12:00	209917	61005ada2ffbf75efed5deb5	4	1	main_z	7	advance_on_keypress_ZEE	26	stimuli_distractor_trianglediamonds.svg	stimuli_target_rectangletriangles.svg	9	yes	57	0	268	0	0			0	0			1				0	
6.6.1	win	2023-06-16	11:08:27	11:12:03	212831	61005ada2ffbf75efed5deb5	4	1	main_z	7	main_z	27	stimuli_distractor_diamondtriangles.svg	stimuli_distractor_diamondtriangles.svg	39	no	0	1	2000	0	0			0	0			1				0	
6.6.1	win	2023-06-16	11:08:27	11:12:03	212831	61005ada2ffbf75efed5deb5	4	1	main_z	7	advance_on_keypress_ZEE	28	stimuli_distractor_diamondtriangles.svg	stimuli_distractor_diamondtriangles.svg	39	no	57	0	132	0	0			0	0			1				0	
6.6.1	win	2023-06-16	11:08:27	11:12:04	214173	61005ada2ffbf75efed5deb5	4	1	main_z	7	main_z	29	stimuli_target_squaretriangles.svg	stimuli_distractor_diamondtriangles.svg	7	yes	44	1	561	0	0			0	0			1				0	
6.6.1	win	2023-06-16	11:08:27	11:12:04	214173	61005ada2ffbf75efed5deb5	4	1	main_z	7	advance_on_keypress_ZEE	30	stimuli_target_squaretriangles.svg	stimuli_distractor_diamondtriangles.svg	7	yes	57	0	387	0	0			0	0			1				0	
6.6.1	win	2023-06-16	11:08:27	11:12:07	217195	61005ada2ffbf75efed5deb5	4	1	main_z	7	main_z	31	stimuli_distractor_trianglediamonds.svg	stimuli_distractor_diamondtriangles.svg	36	no	0	1	2000	0	0			0	0			1				0	
6.6.1	win	2023-06-16	11:08:27	11:12:07	217195	61005ada2ffbf75efed5deb5	4	1	main_z	7	advance_on_keypress_ZEE	32	stimuli_distractor_trianglediamonds.svg	stimuli_distractor_diamondtriangles.svg	36	no	57	0	387	0	0			0	0			1				0	
6.6.1	win	2023-06-16	11:08:27	11:12:09	218774	61005ada2ffbf75efed5deb5	4	1	main_z	7	main_z	33	stimuli_distractor_diamondtriangles.svg	stimuli_target_trianglesquares.svg	30	yes	44	1	549	0	0			0	0			1				0	
6.6.1	win	2023-06-16	11:08:27	11:12:09	218774	61005ada2ffbf75efed5deb5	4	1	main_z	7	advance_on_keypress_ZEE	34	stimuli_distractor_diamondtriangles.svg	stimuli_target_trianglesquares.svg	30	yes	57	0	336	0	0			0	0			1				0	
6.6.1	win	2023-06-16	11:08:27	11:12:10	220344	61005ada2ffbf75efed5deb5	4	1	main_z	7	main_z	35	stimuli_target_squarediamonds.svg	stimuli_distractor_trianglediamonds.svg	4	yes	44	1	586	0	0			0	0			1				0	
6.6.1	win	2023-06-16	11:08:27	11:12:10	220344	61005ada2ffbf75efed5deb5	4	1	main_z	7	advance_on_keypress_ZEE	36	stimuli_target_squarediamonds.svg	stimuli_distractor_trianglediamonds.svg	4	yes	57	0	330	0	0			0	0			1				0	
6.6.1	win	2023-06-16	11:08:27	11:12:13	222441	61005ada2ffbf75efed5deb5	4	1	main_z	7	main_z	37	stimuli_target_trianglesquares.svg	stimuli_distractor_trianglediamonds.svg	18	yes	44	1	1118	0	0			0	0			1				0	
6.6.1	win	2023-06-16	11:08:27	11:12:13	222441	61005ada2ffbf75efed5deb5	4	1	main_z	7	advance_on_keypress_ZEE	38	stimuli_target_trianglesquares.svg	stimuli_distractor_trianglediamonds.svg	18	yes	57	0	278	0	0			0	0			1				0	
6.6.1	win	2023-06-16	11:08:27	11:12:14	223926	61005ada2ffbf75efed5deb5	4	1	main_z	7	main_z	39	stimuli_target_squaretriangles.svg	stimuli_distractor_trianglediamonds.svg	3	yes	44	1	572	0	0			0	0			1				0	
6.6.1	win	2023-06-16	11:08:27	11:12:14	223926	61005ada2ffbf75efed5deb5	4	1	main_z	7	advance_on_keypress_ZEE	40	stimuli_target_squaretriangles.svg	stimuli_distractor_trianglediamonds.svg	3	yes	57	0	320	0	0			0	0			1				0	
6.6.1	win	2023-06-16	11:08:27	11:12:17	226886	61005ada2ffbf75efed5deb5	4	1	main_z	7	main_z	41	stimuli_target_rectanglediamonds.svg	stimuli_distractor_diamondtriangles.svg	6	yes	0	0	2000	0	0			0	0			1				0	
6.6.1	win	2023-06-16	11:08:27	11:12:17	226886	61005ada2ffbf75efed5deb5	4	1	main_z	7	advance_on_keypress_ZEE	42	stimuli_target_rectanglediamonds.svg	stimuli_distractor_diamondtriangles.svg	6	yes	57	0	107	0	0			0	0			1				0	
6.6.1	win	2023-06-16	11:08:27	11:12:18	228352	61005ada2ffbf75efed5deb5	4	1	main_z	7	main_z	43	stimuli_target_squarediamonds.svg	stimuli_distractor_diamondtriangles.svg	8	yes	44	1	718	0	0			0	0			1				0	
6.6.1	win	2023-06-16	11:08:27	11:12:18	228352	61005ada2ffbf75efed5deb5	4	1	main_z	7	advance_on_keypress_ZEE	44	stimuli_target_squarediamonds.svg	stimuli_distractor_diamondtriangles.svg	8	yes	57	0	258	0	0			0	0			1				0	
6.6.1	win	2023-06-16	11:08:27	11:12:21	231250	61005ada2ffbf75efed5deb5	4	1	main_z	7	main_z	45	stimuli_distractor_diamondtriangles.svg	stimuli_distractor_diamondtriangles.svg	40	no	0	1	2000	0	0			0	0			1				0	
6.6.1	win	2023-06-16	11:08:27	11:12:21	231250	61005ada2ffbf75efed5deb5	4	1	main_z	7	advance_on_keypress_ZEE	46	stimuli_distractor_diamondtriangles.svg	stimuli_distractor_diamondtriangles.svg	40	no	57	0	272	0	0			0	0			1				0	
6.6.1	win	2023-06-16	11:08:27	11:12:24	234164	61005ada2ffbf75efed5deb5	4	1	main_z	7	main_z	47	stimuli_distractor_diamondtriangles.svg	stimuli_target_squaretriangles.svg	15	yes	0	0	2000	0	0			0	0			1				0	
6.6.1	win	2023-06-16	11:08:27	11:12:24	234164	61005ada2ffbf75efed5deb5	4	1	main_z	7	advance_on_keypress_ZEE	48	stimuli_distractor_diamondtriangles.svg	stimuli_target_squaretriangles.svg	15	yes	57	0	282	0	0			0	0			1				0	
6.6.1	win	2023-06-16	11:08:27	11:12:26	235630	61005ada2ffbf75efed5deb5	4	1	main_z	7	main_z	49	stimuli_target_diamondsquares.svg	stimuli_distractor_diamondtriangles.svg	24	yes	44	1	535	0	0			0	0			1				0	
6.6.1	win	2023-06-16	11:08:27	11:12:26	235630	61005ada2ffbf75efed5deb5	4	1	main_z	7	advance_on_keypress_ZEE	50	stimuli_target_diamondsquares.svg	stimuli_distractor_diamondtriangles.svg	24	yes	57	0	341	0	0			0	0			1				0	
6.6.1	win	2023-06-16	11:08:27	11:12:29	238610	61005ada2ffbf75efed5deb5	4	1	main_z	7	main_z	51	stimuli_distractor_trianglediamonds.svg	stimuli_distractor_diamondtriangles.svg	35	no	0	1	2000	0	0			0	0			1				0	
6.6.1	win	2023-06-16	11:08:27	11:12:29	238610	61005ada2ffbf75efed5deb5	4	1	main_z	7	advance_on_keypress_ZEE	52	stimuli_distractor_trianglediamonds.svg	stimuli_distractor_diamondtriangles.svg	35	no	57	0	243	0	0			0	0			1				0	
6.6.1	win	2023-06-16	11:08:27	11:12:30	240130	61005ada2ffbf75efed5deb5	4	1	main_z	7	main_z	53	stimuli_distractor_trianglediamonds.svg	stimuli_target_diamondrectangles.svg	27	yes	44	1	640	0	0			0	0			1				0	
6.6.1	win	2023-06-16	11:08:27	11:12:30	240130	61005ada2ffbf75efed5deb5	4	1	main_z	7	advance_on_keypress_ZEE	54	stimuli_distractor_trianglediamonds.svg	stimuli_target_diamondrectangles.svg	27	yes	57	0	315	0	0			0	0			1				0	
6.6.1	win	2023-06-16	11:08:27	11:12:32	241895	61005ada2ffbf75efed5deb5	4	1	main_z	7	main_z	55	stimuli_target_trianglerectangles.svg	stimuli_distractor_diamondtriangles.svg	21	yes	44	1	805	0	0			0	0			1				0	
6.6.1	win	2023-06-16	11:08:27	11:12:32	241895	61005ada2ffbf75efed5deb5	4	1	main_z	7	advance_on_keypress_ZEE	56	stimuli_target_trianglerectangles.svg	stimuli_distractor_diamondtriangles.svg	21	yes	57	0	381	0	0			0	0			1				0	
6.6.1	win	2023-06-16	11:08:27	11:12:34	243633	61005ada2ffbf75efed5deb5	4	1	main_z	7	main_z	57	stimuli_distractor_diamondtriangles.svg	stimuli_target_squarediamonds.svg	16	yes	44	1	712	0	0			0	0			1				0	
6.6.1	win	2023-06-16	11:08:27	11:12:34	243633	61005ada2ffbf75efed5deb5	4	1	main_z	7	advance_on_keypress_ZEE	58	stimuli_distractor_diamondtriangles.svg	stimuli_target_squarediamonds.svg	16	yes	57	0	286	0	0			0	0			1				0	
6.6.1	win	2023-06-16	11:08:27	11:12:36	246180	61005ada2ffbf75efed5deb5	4	1	main_z	7	main_z	59	stimuli_distractor_diamondtriangles.svg	stimuli_target_trianglerectangles.svg	29	yes	44	1	1610	0	0			0	0			1				0	
6.6.1	win	2023-06-16	11:08:27	11:12:36	246180	61005ada2ffbf75efed5deb5	4	1	main_z	7	advance_on_keypress_ZEE	60	stimuli_distractor_diamondtriangles.svg	stimuli_target_trianglerectangles.svg	29	yes	57	0	521	0	0			0	0			1				0	
6.6.1	win	2023-06-16	11:08:27	11:12:38	247850	61005ada2ffbf75efed5deb5	4	1	main_z	7	main_z	61	stimuli_distractor_trianglediamonds.svg	stimuli_target_trianglerectangles.svg	25	yes	44	1	510	0	0			0	0			1				0	
6.6.1	win	2023-06-16	11:08:27	11:12:38	247850	61005ada2ffbf75efed5deb5	4	1	main_z	7	advance_on_keypress_ZEE	62	stimuli_distractor_trianglediamonds.svg	stimuli_target_trianglerectangles.svg	25	yes	57	0	306	0	0			0	0			1				0	
6.6.1	win	2023-06-16	11:08:27	11:12:40	249947	61005ada2ffbf75efed5deb5	4	1	main_z	7	main_z	63	stimuli_distractor_diamondtriangles.svg	stimuli_target_rectanglediamonds.svg	14	yes	44	1	1147	0	0			0	0			1				0	
6.6.1	win	2023-06-16	11:08:27	11:12:40	249947	61005ada2ffbf75efed5deb5	4	1	main_z	7	advance_on_keypress_ZEE	64	stimuli_distractor_diamondtriangles.svg	stimuli_target_rectanglediamonds.svg	14	yes	57	0	444	0	0			0	0			1				0	
6.6.1	win	2023-06-16	11:08:27	11:12:42	251574	61005ada2ffbf75efed5deb5	4	1	main_z	7	main_z	65	stimuli_distractor_trianglediamonds.svg	stimuli_target_squaretriangles.svg	11	yes	44	1	542	0	0			0	0			1				0	
6.6.1	win	2023-06-16	11:08:27	11:12:42	251574	61005ada2ffbf75efed5deb5	4	1	main_z	7	advance_on_keypress_ZEE	66	stimuli_distractor_trianglediamonds.svg	stimuli_target_squaretriangles.svg	11	yes	57	0	300	0	0			0	0			1				0	
6.6.1	win	2023-06-16	11:08:27	11:12:43	253279	61005ada2ffbf75efed5deb5	4	1	main_z	7	main_z	67	stimuli_distractor_trianglediamonds.svg	stimuli_target_rectanglediamonds.svg	10	yes	44	1	765	0	0			0	0			1				0	
6.6.1	win	2023-06-16	11:08:27	11:12:43	253279	61005ada2ffbf75efed5deb5	4	1	main_z	7	advance_on_keypress_ZEE	68	stimuli_distractor_trianglediamonds.svg	stimuli_target_rectanglediamonds.svg	10	yes	57	0	862	0	0			0	0			1				0	
6.6.1	win	2023-06-16	11:08:27	11:12:45	255364	61005ada2ffbf75efed5deb5	4	1	main_z	7	main_z	69	stimuli_target_rectangletriangles.svg	stimuli_distractor_trianglediamonds.svg	1	yes	44	1	569	0	0			0	0			1				0	
6.6.1	win	2023-06-16	11:08:27	11:12:45	255364	61005ada2ffbf75efed5deb5	4	1	main_z	7	advance_on_keypress_ZEE	70	stimuli_target_rectangletriangles.svg	stimuli_distractor_trianglediamonds.svg	1	yes	57	0	300	0	0			0	0			1				0	
6.6.1	win	2023-06-16	11:08:27	11:12:47	256902	61005ada2ffbf75efed5deb5	4	1	main_z	7	main_z	71	stimuli_target_rectanglediamonds.svg	stimuli_distractor_trianglediamonds.svg	2	yes	44	1	591	0	0			0	0			1				0	
6.6.1	win	2023-06-16	11:08:27	11:12:47	256902	61005ada2ffbf75efed5deb5	4	1	main_z	7	advance_on_keypress_ZEE	72	stimuli_target_rectanglediamonds.svg	stimuli_distractor_trianglediamonds.svg	2	yes	57	0	270	0	0			0	0			1				0	
6.6.1	win	2023-06-16	11:08:27	11:12:50	259809	61005ada2ffbf75efed5deb5	4	1	main_z	7	main_z	73	stimuli_distractor_trianglediamonds.svg	stimuli_distractor_trianglediamonds.svg	33	no	0	1	2000	0	0			0	0			1				0	
6.6.1	win	2023-06-16	11:08:27	11:12:50	259809	61005ada2ffbf75efed5deb5	4	1	main_z	7	advance_on_keypress_ZEE	74	stimuli_distractor_trianglediamonds.svg	stimuli_distractor_trianglediamonds.svg	33	no	57	0	271	0	0			0	0			1				0	
6.6.1	win	2023-06-16	11:08:27	11:12:51	261328	61005ada2ffbf75efed5deb5	4	1	main_z	7	main_z	75	stimuli_target_diamondrectangles.svg	stimuli_distractor_trianglediamonds.svg	19	yes	44	1	604	0	0			0	0			1				0	
6.6.1	win	2023-06-16	11:08:27	11:12:51	261328	61005ada2ffbf75efed5deb5	4	1	main_z	7	advance_on_keypress_ZEE	76	stimuli_target_diamondrectangles.svg	stimuli_distractor_trianglediamonds.svg	19	yes	57	0	242	0	0			0	0			1				0	
6.6.1	win	2023-06-16	11:08:27	11:12:53	263228	61005ada2ffbf75efed5deb5	4	1	main_z	7	main_z	77	stimuli_distractor_trianglediamonds.svg	stimuli_target_squarediamonds.svg	12	yes	44	1	1022	0	0			0	0			1				0	
6.6.1	win	2023-06-16	11:08:27	11:12:53	263228	61005ada2ffbf75efed5deb5	4	1	main_z	7	advance_on_keypress_ZEE	78	stimuli_distractor_trianglediamonds.svg	stimuli_target_squarediamonds.svg	12	yes	57	0	254	0	0			0	0			1				0	
6.6.1	win	2023-06-16	11:08:27	11:12:55	265321	61005ada2ffbf75efed5deb5	4	1	main_z	7	main_z	79	stimuli_target_trianglerectangles.svg	stimuli_distractor_trianglediamonds.svg	17	yes	44	1	1201	0	0			0	0			1				0	
6.6.1	win	2023-06-16	11:08:27	11:12:55	265321	61005ada2ffbf75efed5deb5	4	1	main_z	7	advance_on_keypress_ZEE	80	stimuli_target_trianglerectangles.svg	stimuli_distractor_trianglediamonds.svg	17	yes	57	0	201	0	0			0	0			1				0	
6.6.1	win	2023-06-16	11:08:27	11:12:57	266922	61005ada2ffbf75efed5deb5	4	1	main_z	7	main_z	81	stimuli_distractor_diamondtriangles.svg	stimuli_target_diamondrectangles.svg	31	yes	44	1	753	0	0			0	0			1				0	
6.6.1	win	2023-06-16	11:08:27	11:12:57	266922	61005ada2ffbf75efed5deb5	4	1	main_z	7	advance_on_keypress_ZEE	82	stimuli_distractor_diamondtriangles.svg	stimuli_target_diamondrectangles.svg	31	yes	57	0	262	0	0			0	0			1				0	
6.6.1	win	2023-06-16	11:08:27	11:12:59	268487	61005ada2ffbf75efed5deb5	4	1	main_z	7	main_z	83	stimuli_distractor_trianglediamonds.svg	stimuli_target_diamondsquares.svg	28	yes	44	1	651	0	0			0	0			1				0	
6.6.1	win	2023-06-16	11:08:27	11:12:59	268487	61005ada2ffbf75efed5deb5	4	1	main_z	7	advance_on_keypress_ZEE	84	stimuli_distractor_trianglediamonds.svg	stimuli_target_diamondsquares.svg	28	yes	57	0	237	0	0			0	0			1				0	
6.6.1	win	2023-06-16	11:08:27	11:13:00	270127	61005ada2ffbf75efed5deb5	4	1	main_z	7	main_z	85	stimuli_distractor_trianglediamonds.svg	stimuli_target_trianglerectangles.svg	25	yes	44	1	761	0	0			0	0			1				0	
6.6.1	win	2023-06-16	11:08:27	11:13:00	270127	61005ada2ffbf75efed5deb5	4	1	main_z	7	advance_on_keypress_ZEE	86	stimuli_distractor_trianglediamonds.svg	stimuli_target_trianglerectangles.svg	25	yes	57	0	292	0	0			0	0			1				0	
6.6.1	win	2023-06-16	11:08:27	11:13:03	273065	61005ada2ffbf75efed5deb5	4	1	main_z	7	main_z	87	stimuli_distractor_diamondtriangles.svg	stimuli_distractor_trianglediamonds.svg	38	no	0	1	2000	0	0			0	0			1				0	
6.6.1	win	2023-06-16	11:08:27	11:13:03	273065	61005ada2ffbf75efed5deb5	4	1	main_z	7	advance_on_keypress_ZEE	88	stimuli_distractor_diamondtriangles.svg	stimuli_distractor_trianglediamonds.svg	38	no	57	0	252	0	0			0	0			1				0	
6.6.1	win	2023-06-16	11:08:27	11:13:05	274545	61005ada2ffbf75efed5deb5	4	1	main_z	7	main_z	89	stimuli_distractor_trianglediamonds.svg	stimuli_target_trianglesquares.svg	26	yes	44	1	581	0	0			0	0			1				0	
6.6.1	win	2023-06-16	11:08:27	11:13:05	274545	61005ada2ffbf75efed5deb5	4	1	main_z	7	advance_on_keypress_ZEE	90	stimuli_distractor_trianglediamonds.svg	stimuli_target_trianglesquares.svg	26	yes	57	0	253	0	0			0	0			1				0	
6.6.1	win	2023-06-16	11:08:27	11:13:08	277445	61005ada2ffbf75efed5deb5	4	1	main_z	7	main_z	91	stimuli_distractor_diamondtriangles.svg	stimuli_distractor_trianglediamonds.svg	37	no	0	1	2000	0	0			0	0			1				0	
6.6.1	win	2023-06-16	11:08:27	11:13:08	277445	61005ada2ffbf75efed5deb5	4	1	main_z	7	advance_on_keypress_ZEE	92	stimuli_distractor_diamondtriangles.svg	stimuli_distractor_trianglediamonds.svg	37	no	57	0	268	0	0			0	0			1				0	
6.6.1	win	2023-06-16	11:08:27	11:13:09	278914	61005ada2ffbf75efed5deb5	4	1	main_z	7	main_z	93	stimuli_distractor_trianglediamonds.svg	stimuli_target_diamondrectangles.svg	27	yes	44	1	555	0	0			0	0			1				0	
6.6.1	win	2023-06-16	11:08:27	11:13:09	278914	61005ada2ffbf75efed5deb5	4	1	main_z	7	advance_on_keypress_ZEE	94	stimuli_distractor_trianglediamonds.svg	stimuli_target_diamondrectangles.svg	27	yes	57	0	490	0	0			0	0			1				0	
6.6.1	win	2023-06-16	11:08:27	11:13:11	280613	61005ada2ffbf75efed5deb5	4	1	main_z	7	main_z	95	stimuli_distractor_diamondtriangles.svg	stimuli_target_trianglerectangles.svg	29	yes	44	1	556	0	0			0	0			1				0	
6.6.1	win	2023-06-16	11:08:27	11:13:11	280613	61005ada2ffbf75efed5deb5	4	1	main_z	7	advance_on_keypress_ZEE	96	stimuli_distractor_diamondtriangles.svg	stimuli_target_trianglerectangles.svg	29	yes	57	0	320	0	0			0	0			1				0	
6.6.1	win	2023-06-16	11:08:27	11:13:12	282307	61005ada2ffbf75efed5deb5	4	1	main_z	7	main_z	97	stimuli_target_trianglerectangles.svg	stimuli_distractor_diamondtriangles.svg	21	yes	44	1	734	0	0			0	0			1				0	
6.6.1	win	2023-06-16	11:08:27	11:13:12	282307	61005ada2ffbf75efed5deb5	4	1	main_z	7	advance_on_keypress_ZEE	98	stimuli_target_trianglerectangles.svg	stimuli_distractor_diamondtriangles.svg	21	yes	57	0	265	0	0			0	0			1				0	
6.6.1	win	2023-06-16	11:08:27	11:13:14	283777	61005ada2ffbf75efed5deb5	4	1	main_z	7	main_z	99	stimuli_target_diamondsquares.svg	stimuli_distractor_diamondtriangles.svg	24	yes	44	1	555	0	0			0	0			1				0	
6.6.1	win	2023-06-16	11:08:27	11:13:14	283777	61005ada2ffbf75efed5deb5	4	1	main_z	7	advance_on_keypress_ZEE	100	stimuli_target_diamondsquares.svg	stimuli_distractor_diamondtriangles.svg	24	yes	57	0	259	0	0			0	0			1				0	
6.6.1	win	2023-06-16	11:08:27	11:13:17	286672	61005ada2ffbf75efed5deb5	4	1	main_z	7	main_z	101	stimuli_distractor_trianglediamonds.svg	stimuli_distractor_trianglediamonds.svg	34	no	0	1	2000	0	0			0	0			1				0	
6.6.1	win	2023-06-16	11:08:27	11:13:17	286672	61005ada2ffbf75efed5deb5	4	1	main_z	7	advance_on_keypress_ZEE	102	stimuli_distractor_trianglediamonds.svg	stimuli_distractor_trianglediamonds.svg	34	no	57	0	257	0	0			0	0			1				0	
6.6.1	win	2023-06-16	11:08:27	11:13:18	288083	61005ada2ffbf75efed5deb5	4	1	main_z	7	main_z	103	stimuli_target_diamondrectangles.svg	stimuli_distractor_trianglediamonds.svg	19	yes	44	1	511	0	0			0	0			1				0	
6.6.1	win	2023-06-16	11:08:27	11:13:18	288083	61005ada2ffbf75efed5deb5	4	1	main_z	7	advance_on_keypress_ZEE	104	stimuli_target_diamondrectangles.svg	stimuli_distractor_trianglediamonds.svg	19	yes	57	0	235	0	0			0	0			1				0	
6.6.1	win	2023-06-16	11:08:27	11:13:20	289697	61005ada2ffbf75efed5deb5	4	1	main_z	7	main_z	105	stimuli_distractor_trianglediamonds.svg	stimuli_distractor_diamondtriangles.svg	35	no	44	0	729	0	0			0	0			1				0	
6.6.1	win	2023-06-16	11:08:27	11:13:20	289697	61005ada2ffbf75efed5deb5	4	1	main_z	7	advance_on_keypress_ZEE	106	stimuli_distractor_trianglediamonds.svg	stimuli_distractor_diamondtriangles.svg	35	no	57	0	255	0	0			0	0			1				0	
6.6.1	win	2023-06-16	11:08:27	11:13:23	292599	61005ada2ffbf75efed5deb5	4	1	main_z	7	main_z	107	stimuli_distractor_diamondtriangles.svg	stimuli_distractor_diamondtriangles.svg	40	no	0	1	2000	0	0			0	0			1				0	
6.6.1	win	2023-06-16	11:08:27	11:13:23	292599	61005ada2ffbf75efed5deb5	4	1	main_z	7	advance_on_keypress_ZEE	108	stimuli_distractor_diamondtriangles.svg	stimuli_distractor_diamondtriangles.svg	40	no	57	0	31	0	0			0	0			1				0	
6.6.1	win	2023-06-16	11:08:27	11:13:24	293865	61005ada2ffbf75efed5deb5	4	1	main_z	7	main_z	109	stimuli_target_trianglerectangles.svg	stimuli_distractor_trianglediamonds.svg	17	yes	44	1	585	0	0			0	0			1				0	
6.6.1	win	2023-06-16	11:08:27	11:13:24	293865	61005ada2ffbf75efed5deb5	4	1	main_z	7	advance_on_keypress_ZEE	110	stimuli_target_trianglerectangles.svg	stimuli_distractor_trianglediamonds.svg	17	yes	57	0	227	0	0			0	0			1				0	
6.6.1	win	2023-06-16	11:08:27	11:13:27	296729	61005ada2ffbf75efed5deb5	4	1	main_z	7	main_z	111	stimuli_target_squaretriangles.svg	stimuli_distractor_trianglediamonds.svg	3	yes	0	0	2000	0	0			0	0			1				0	
6.6.1	win	2023-06-16	11:08:27	11:13:27	296729	61005ada2ffbf75efed5deb5	4	1	main_z	7	advance_on_keypress_ZEE	112	stimuli_target_squaretriangles.svg	stimuli_distractor_trianglediamonds.svg	3	yes	57	0	236	0	0			0	0			1				0	
6.6.1	win	2023-06-16	11:08:27	11:13:30	299610	61005ada2ffbf75efed5deb5	4	1	main_z	7	main_z	113	stimuli_distractor_trianglediamonds.svg	stimuli_distractor_trianglediamonds.svg	33	no	0	1	2000	0	0			0	0			1				0	
6.6.1	win	2023-06-16	11:08:27	11:13:30	299610	61005ada2ffbf75efed5deb5	4	1	main_z	7	advance_on_keypress_ZEE	114	stimuli_distractor_trianglediamonds.svg	stimuli_distractor_trianglediamonds.svg	33	no	57	0	14	0	0			0	0			1				0	
6.6.1	win	2023-06-16	11:08:27	11:13:31	300826	61005ada2ffbf75efed5deb5	4	1	main_z	7	main_z	115	stimuli_target_squarediamonds.svg	stimuli_distractor_trianglediamonds.svg	4	yes	44	1	551	0	0			0	0			1				0	
6.6.1	win	2023-06-16	11:08:27	11:13:31	300826	61005ada2ffbf75efed5deb5	4	1	main_z	7	advance_on_keypress_ZEE	116	stimuli_target_squarediamonds.svg	stimuli_distractor_trianglediamonds.svg	4	yes	57	0	270	0	0			0	0			1				0	
6.6.1	win	2023-06-16	11:08:27	11:13:32	302310	61005ada2ffbf75efed5deb5	4	1	main_z	7	main_z	117	stimuli_target_rectanglediamonds.svg	stimuli_distractor_diamondtriangles.svg	6	yes	44	1	570	0	0			0	0			1				0	
6.6.1	win	2023-06-16	11:08:27	11:13:32	302310	61005ada2ffbf75efed5deb5	4	1	main_z	7	advance_on_keypress_ZEE	118	stimuli_target_rectanglediamonds.svg	stimuli_distractor_diamondtriangles.svg	6	yes	57	0	265	0	0			0	0			1				0	
6.6.1	win	2023-06-16	11:08:27	11:13:34	303737	61005ada2ffbf75efed5deb5	4	1	main_z	7	main_z	119	stimuli_distractor_diamondtriangles.svg	stimuli_target_rectangletriangles.svg	13	yes	44	1	515	0	0			0	0			1				0	
6.6.1	win	2023-06-16	11:08:27	11:13:34	303737	61005ada2ffbf75efed5deb5	4	1	main_z	7	advance_on_keypress_ZEE	120	stimuli_distractor_diamondtriangles.svg	stimuli_target_rectangletriangles.svg	13	yes	57	0	254	0	0			0	0			1				0	
6.6.1	win	2023-06-16	11:08:27	11:13:35	305222	61005ada2ffbf75efed5deb5	4	1	main_z	7	main_z	121	stimuli_target_diamondrectangles.svg	stimuli_distractor_diamondtriangles.svg	23	yes	44	1	584	0	0			0	0			1				0	
6.6.1	win	2023-06-16	11:08:27	11:13:35	305222	61005ada2ffbf75efed5deb5	4	1	main_z	7	advance_on_keypress_ZEE	122	stimuli_target_diamondrectangles.svg	stimuli_distractor_diamondtriangles.svg	23	yes	57	0	258	0	0			0	0			1				0	
6.6.1	win	2023-06-16	11:08:27	11:13:37	306660	61005ada2ffbf75efed5deb5	4	1	main_z	7	main_z	123	stimuli_target_trianglesquares.svg	stimuli_distractor_trianglediamonds.svg	18	yes	44	1	540	0	0			0	0			1				0	
6.6.1	win	2023-06-16	11:08:27	11:13:37	306660	61005ada2ffbf75efed5deb5	4	1	main_z	7	advance_on_keypress_ZEE	124	stimuli_target_trianglesquares.svg	stimuli_distractor_trianglediamonds.svg	18	yes	57	0	222	0	0			0	0			1				0	
6.6.1	win	2023-06-16	11:08:27	11:13:39	309229	61005ada2ffbf75efed5deb5	4	1	main_z	7	main_z	125	stimuli_distractor_diamondtriangles.svg	stimuli_target_rectanglediamonds.svg	14	yes	44	1	1710	0	0			0	0			1				0	
6.6.1	win	2023-06-16	11:08:27	11:13:39	309229	61005ada2ffbf75efed5deb5	4	1	main_z	7	advance_on_keypress_ZEE	126	stimuli_distractor_diamondtriangles.svg	stimuli_target_rectanglediamonds.svg	14	yes	57	0	317	0	0			0	0			1				0	
6.6.1	win	2023-06-16	11:08:27	11:13:41	310752	61005ada2ffbf75efed5deb5	4	1	main_z	7	main_z	127	stimuli_target_rectangletriangles.svg	stimuli_distractor_diamondtriangles.svg	5	yes	44	1	552	0	0			0	0			1				0	
6.6.1	win	2023-06-16	11:08:27	11:13:41	310752	61005ada2ffbf75efed5deb5	4	1	main_z	7	advance_on_keypress_ZEE	128	stimuli_target_rectangletriangles.svg	stimuli_distractor_diamondtriangles.svg	5	yes	57	0	289	0	0			0	0			1				0	
6.6.1	win	2023-06-16	11:08:27	11:13:43	312564	61005ada2ffbf75efed5deb5	4	1	main_z	7	main_z	129	stimuli_distractor_diamondtriangles.svg	stimuli_target_diamondsquares.svg	32	yes	44	1	882	0	0			0	0			1				0	
6.6.1	win	2023-06-16	11:08:27	11:13:43	312564	61005ada2ffbf75efed5deb5	4	1	main_z	7	advance_on_keypress_ZEE	130	stimuli_distractor_diamondtriangles.svg	stimuli_target_diamondsquares.svg	32	yes	57	0	548	0	0			0	0			1				0	
6.6.1	win	2023-06-16	11:08:27	11:13:46	315764	61005ada2ffbf75efed5deb5	4	1	main_z	7	main_z	131	stimuli_distractor_diamondtriangles.svg	stimuli_distractor_diamondtriangles.svg	39	no	0	1	2000	0	0			0	0			1				0	
6.6.1	win	2023-06-16	11:08:27	11:13:46	315764	61005ada2ffbf75efed5deb5	4	1	main_z	7	advance_on_keypress_ZEE	132	stimuli_distractor_diamondtriangles.svg	stimuli_distractor_diamondtriangles.svg	39	no	57	0	221	0	0			0	0			1				0	
6.6.1	win	2023-06-16	11:08:27	11:13:47	317204	61005ada2ffbf75efed5deb5	4	1	main_z	7	main_z	133	stimuli_target_diamondsquares.svg	stimuli_distractor_trianglediamonds.svg	20	yes	44	1	576	0	0			0	0			1				0	
6.6.1	win	2023-06-16	11:08:27	11:13:47	317204	61005ada2ffbf75efed5deb5	4	1	main_z	7	advance_on_keypress_ZEE	134	stimuli_target_diamondsquares.svg	stimuli_distractor_trianglediamonds.svg	20	yes	57	0	222	0	0			0	0			1				0	
6.6.1	win	2023-06-16	11:08:27	11:13:49	319153	61005ada2ffbf75efed5deb5	4	1	main_z	7	main_z	135	stimuli_target_rectangletriangles.svg	stimuli_distractor_trianglediamonds.svg	1	yes	44	1	1092	0	0			0	0			1				0	
6.6.1	win	2023-06-16	11:08:27	11:13:49	319153	61005ada2ffbf75efed5deb5	4	1	main_z	7	advance_on_keypress_ZEE	136	stimuli_target_rectangletriangles.svg	stimuli_distractor_trianglediamonds.svg	1	yes	57	0	139	0	0			0	0			1				0	
6.6.1	win	2023-06-16	11:08:27	11:13:51	320484	61005ada2ffbf75efed5deb5	4	1	main_z	7	main_z	137	stimuli_target_rectanglediamonds.svg	stimuli_distractor_trianglediamonds.svg	2	yes	44	1	559	0	0			0	0			1				0	
6.6.1	win	2023-06-16	11:08:27	11:13:51	320484	61005ada2ffbf75efed5deb5	4	1	main_z	7	advance_on_keypress_ZEE	138	stimuli_target_rectanglediamonds.svg	stimuli_distractor_trianglediamonds.svg	2	yes	57	0	186	0	0			0	0			1				0	
6.6.1	win	2023-06-16	11:08:27	11:13:52	321876	61005ada2ffbf75efed5deb5	4	1	main_z	7	main_z	139	stimuli_target_squarediamonds.svg	stimuli_distractor_diamondtriangles.svg	8	yes	44	1	552	0	0			0	0			1				0	
6.6.1	win	2023-06-16	11:08:27	11:13:52	321876	61005ada2ffbf75efed5deb5	4	1	main_z	7	advance_on_keypress_ZEE	140	stimuli_target_squarediamonds.svg	stimuli_distractor_diamondtriangles.svg	8	yes	57	0	182	0	0			0	0			1				0	
6.6.1	win	2023-06-16	11:08:27	11:13:53	323319	61005ada2ffbf75efed5deb5	4	1	main_z	7	main_z	141	stimuli_distractor_trianglediamonds.svg	stimuli_target_squaretriangles.svg	11	yes	44	1	613	0	0			0	0			1				0	
6.6.1	win	2023-06-16	11:08:27	11:13:53	323319	61005ada2ffbf75efed5deb5	4	1	main_z	7	advance_on_keypress_ZEE	142	stimuli_distractor_trianglediamonds.svg	stimuli_target_squaretriangles.svg	11	yes	57	0	180	0	0			0	0			1				0	
6.6.1	win	2023-06-16	11:08:27	11:13:55	324671	61005ada2ffbf75efed5deb5	4	1	main_z	7	main_z	143	stimuli_target_squaretriangles.svg	stimuli_distractor_diamondtriangles.svg	7	yes	44	1	502	0	0			0	0			1				0	
6.6.1	win	2023-06-16	11:08:27	11:13:55	324671	61005ada2ffbf75efed5deb5	4	1	main_z	7	advance_on_keypress_ZEE	144	stimuli_target_squaretriangles.svg	stimuli_distractor_diamondtriangles.svg	7	yes	57	0	134	0	0			0	0			1				0	
6.6.1	win	2023-06-16	11:08:27	11:13:56	325919	61005ada2ffbf75efed5deb5	4	1	main_z	7	main_z	145	stimuli_distractor_diamondtriangles.svg	stimuli_target_squaretriangles.svg	15	yes	44	1	465	0	0			0	0			1				0	
6.6.1	win	2023-06-16	11:08:27	11:13:56	325919	61005ada2ffbf75efed5deb5	4	1	main_z	7	advance_on_keypress_ZEE	146	stimuli_distractor_diamondtriangles.svg	stimuli_target_squaretriangles.svg	15	yes	57	0	175	0	0			0	0			1				0	
6.6.1	win	2023-06-16	11:08:27	11:13:57	327125	61005ada2ffbf75efed5deb5	4	1	main_z	7	main_z	147	stimuli_distractor_trianglediamonds.svg	stimuli_target_rectanglediamonds.svg	10	yes	44	1	389	0	0			0	0			1				0	
6.6.1	win	2023-06-16	11:08:27	11:13:57	327125	61005ada2ffbf75efed5deb5	4	1	main_z	7	advance_on_keypress_ZEE	148	stimuli_distractor_trianglediamonds.svg	stimuli_target_rectanglediamonds.svg	10	yes	57	0	222	0	0			0	0			1				0	
6.6.1	win	2023-06-16	11:08:27	11:13:58	328336	61005ada2ffbf75efed5deb5	4	1	main_z	7	main_z	149	stimuli_target_trianglesquares.svg	stimuli_distractor_diamondtriangles.svg	22	yes	44	1	352	0	0			0	0			1				0	
6.6.1	win	2023-06-16	11:08:27	11:13:58	328336	61005ada2ffbf75efed5deb5	4	1	main_z	7	advance_on_keypress_ZEE	150	stimuli_target_trianglesquares.svg	stimuli_distractor_diamondtriangles.svg	22	yes	57	0	218	0	0			0	0			1				0	
6.6.1	win	2023-06-16	11:08:27	11:14:00	329634	61005ada2ffbf75efed5deb5	4	1	main_z	7	main_z	151	stimuli_distractor_diamondtriangles.svg	stimuli_target_trianglesquares.svg	30	yes	44	1	433	0	0			0	0			1				0	
6.6.1	win	2023-06-16	11:08:27	11:14:00	329634	61005ada2ffbf75efed5deb5	4	1	main_z	7	advance_on_keypress_ZEE	152	stimuli_distractor_diamondtriangles.svg	stimuli_target_trianglesquares.svg	30	yes	57	0	203	0	0			0	0			1				0	
6.6.1	win	2023-06-16	11:08:27	11:14:01	330894	61005ada2ffbf75efed5deb5	4	1	main_z	7	main_z	153	stimuli_distractor_trianglediamonds.svg	stimuli_target_rectangletriangles.svg	9	yes	44	1	411	0	0			0	0			1				0	
6.6.1	win	2023-06-16	11:08:27	11:14:01	330894	61005ada2ffbf75efed5deb5	4	1	main_z	7	advance_on_keypress_ZEE	154	stimuli_distractor_trianglediamonds.svg	stimuli_target_rectangletriangles.svg	9	yes	57	0	172	0	0			0	0			1				0	
6.6.1	win	2023-06-16	11:08:27	11:14:02	332087	61005ada2ffbf75efed5deb5	4	1	main_z	7	main_z	155	stimuli_distractor_trianglediamonds.svg	stimuli_distractor_diamondtriangles.svg	36	no	44	0	388	0	0			0	0			1				0	
6.6.1	win	2023-06-16	11:08:27	11:14:02	332087	61005ada2ffbf75efed5deb5	4	1	main_z	7	advance_on_keypress_ZEE	156	stimuli_distractor_trianglediamonds.svg	stimuli_distractor_diamondtriangles.svg	36	no	57	0	219	0	0			0	0			1				0	
6.6.1	win	2023-06-16	11:08:27	11:14:04	333566	61005ada2ffbf75efed5deb5	4	1	main_z	7	main_z	157	stimuli_distractor_diamondtriangles.svg	stimuli_target_squarediamonds.svg	16	yes	44	1	619	0	0			0	0			1				0	
6.6.1	win	2023-06-16	11:08:27	11:14:04	333566	61005ada2ffbf75efed5deb5	4	1	main_z	7	advance_on_keypress_ZEE	158	stimuli_distractor_diamondtriangles.svg	stimuli_target_squarediamonds.svg	16	yes	57	0	166	0	0			0	0			1				0	
6.6.1	win	2023-06-16	11:08:27	11:14:05	334762	61005ada2ffbf75efed5deb5	4	1	main_z	7	main_z	159	stimuli_distractor_trianglediamonds.svg	stimuli_target_squarediamonds.svg	12	yes	44	1	375	0	0			0	0			1				0	
6.6.1	win	2023-06-16	11:08:27	11:14:05	334762	61005ada2ffbf75efed5deb5	4	1	main_z	7	advance_on_keypress_ZEE	160	stimuli_distractor_trianglediamonds.svg	stimuli_target_squarediamonds.svg	12	yes	57	0	162	0	0			0	0			1				0	
6.6.1	win	2023-06-16	11:08:27	11:14:26	355965	61005ada2ffbf75efed5deb5	4	1	practice_slash	9	practice_slash	1	stimuli_target_diamondsquares.svg	stimuli_distractor_diamondtriangles.svg	3	yes	53	1	507	0	0			0	0			1				0	
6.6.1	win	2023-06-16	11:08:27	11:14:26	355965	61005ada2ffbf75efed5deb5	4	1	practice_slash	9	advance_on_keypress_SLASH	2	stimuli_target_diamondsquares.svg	stimuli_distractor_diamondtriangles.svg	3	yes	57	0	518	0	0			0	0			1				0	
6.6.1	win	2023-06-16	11:08:27	11:14:29	358514	61005ada2ffbf75efed5deb5	4	1	practice_slash	9	practice_slash	3	stimuli_target_rectanglediamonds.svg	stimuli_distractor_trianglediamonds.svg	4	yes	53	1	385	0	0			0	0			1				0	
6.6.1	win	2023-06-16	11:08:27	11:14:29	358514	61005ada2ffbf75efed5deb5	4	1	practice_slash	9	advance_on_keypress_SLASH	4	stimuli_target_rectanglediamonds.svg	stimuli_distractor_trianglediamonds.svg	4	yes	57	0	504	0	0			0	0			1				0	
6.6.1	win	2023-06-16	11:08:27	11:14:31	361023	61005ada2ffbf75efed5deb5	4	1	practice_slash	9	practice_slash	5	stimuli_distractor_diamondtriangles.svg	stimuli_distractor_diamondtriangles.svg	13	no	53	0	362	0	0			0	0			1				0	
6.6.1	win	2023-06-16	11:08:27	11:14:31	361023	61005ada2ffbf75efed5deb5	4	1	practice_slash	9	advance_on_keypress_SLASH	6	stimuli_distractor_diamondtriangles.svg	stimuli_distractor_diamondtriangles.svg	13	no	57	0	464	0	0			0	0			1				0	
6.6.1	win	2023-06-16	11:08:27	11:14:35	365142	61005ada2ffbf75efed5deb5	4	1	practice_slash	9	practice_slash	7	stimuli_distractor_trianglediamonds.svg	stimuli_distractor_diamondtriangles.svg	16	no	0	1	2000	0	0			0	0			1				0	
6.6.1	win	2023-06-16	11:08:27	11:14:35	365142	61005ada2ffbf75efed5deb5	4	1	practice_slash	9	advance_on_keypress_SLASH	8	stimuli_distractor_trianglediamonds.svg	stimuli_distractor_diamondtriangles.svg	16	no	57	0	330	0	0			0	0			1				0	
6.6.1	win	2023-06-16	11:08:27	11:14:38	367528	61005ada2ffbf75efed5deb5	4	1	practice_slash	9	practice_slash	9	stimuli_distractor_trianglediamonds.svg	stimuli_target_rectanglediamonds.svg	10	yes	53	1	406	0	0			0	0			1				0	
6.6.1	win	2023-06-16	11:08:27	11:14:38	367528	61005ada2ffbf75efed5deb5	4	1	practice_slash	9	advance_on_keypress_SLASH	10	stimuli_distractor_trianglediamonds.svg	stimuli_target_rectanglediamonds.svg	10	yes	57	0	345	0	0			0	0			1				0	
6.6.1	win	2023-06-16	11:08:27	11:14:40	369887	61005ada2ffbf75efed5deb5	4	1	practice_slash	9	practice_slash	11	stimuli_target_squarediamonds.svg	stimuli_distractor_diamondtriangles.svg	2	yes	53	1	382	0	0			0	0			1				0	
6.6.1	win	2023-06-16	11:08:27	11:14:40	369887	61005ada2ffbf75efed5deb5	4	1	practice_slash	9	advance_on_keypress_SLASH	12	stimuli_target_squarediamonds.svg	stimuli_distractor_diamondtriangles.svg	2	yes	57	0	302	0	0			0	0			1				0	
6.6.1	win	2023-06-16	11:08:27	11:14:43	372504	61005ada2ffbf75efed5deb5	4	1	practice_slash	9	practice_slash	13	stimuli_distractor_diamondtriangles.svg	stimuli_distractor_trianglediamonds.svg	14	no	53	0	668	0	0			0	0			1				0	
6.6.1	win	2023-06-16	11:08:27	11:14:43	372504	61005ada2ffbf75efed5deb5	4	1	practice_slash	9	advance_on_keypress_SLASH	14	stimuli_distractor_diamondtriangles.svg	stimuli_distractor_trianglediamonds.svg	14	no	57	0	339	0	0			0	0			1				0	
6.6.1	win	2023-06-16	11:08:27	11:14:45	375161	61005ada2ffbf75efed5deb5	4	1	practice_slash	9	practice_slash	15	stimuli_target_diamondsquares.svg	stimuli_distractor_trianglediamonds.svg	6	yes	53	1	678	0	0			0	0			1				0	
6.6.1	win	2023-06-16	11:08:27	11:14:45	375161	61005ada2ffbf75efed5deb5	4	1	practice_slash	9	advance_on_keypress_SLASH	16	stimuli_target_diamondsquares.svg	stimuli_distractor_trianglediamonds.svg	6	yes	57	0	272	0	0			0	0			1				0	
6.6.1	win	2023-06-16	11:08:27	11:14:48	377738	61005ada2ffbf75efed5deb5	4	1	practice_slash	9	practice_slash	17	stimuli_target_rectanglediamonds.svg	stimuli_distractor_diamondtriangles.svg	1	yes	53	1	658	0	0			0	0			1				0	
6.6.1	win	2023-06-16	11:08:27	11:14:48	377738	61005ada2ffbf75efed5deb5	4	1	practice_slash	9	advance_on_keypress_SLASH	18	stimuli_target_rectanglediamonds.svg	stimuli_distractor_diamondtriangles.svg	1	yes	57	0	388	0	0			0	0			1				0	
6.6.1	win	2023-06-16	11:08:27	11:14:50	380208	61005ada2ffbf75efed5deb5	4	1	practice_slash	9	practice_slash	19	stimuli_distractor_diamondtriangles.svg	stimuli_target_diamondrectangles.svg	8	yes	53	1	445	0	0			0	0			1				0	
6.6.1	win	2023-06-16	11:08:27	11:14:50	380208	61005ada2ffbf75efed5deb5	4	1	practice_slash	9	advance_on_keypress_SLASH	20	stimuli_distractor_diamondtriangles.svg	stimuli_target_diamondrectangles.svg	8	yes	57	0	293	0	0			0	0			1				0	
6.6.1	win	2023-06-16	11:08:27	11:14:53	382544	61005ada2ffbf75efed5deb5	4	1	practice_slash	9	practice_slash	21	stimuli_target_squarediamonds.svg	stimuli_distractor_trianglediamonds.svg	5	yes	53	1	382	0	0			0	0			1				0	
6.6.1	win	2023-06-16	11:08:27	11:14:53	382544	61005ada2ffbf75efed5deb5	4	1	practice_slash	9	advance_on_keypress_SLASH	22	stimuli_target_squarediamonds.svg	stimuli_distractor_trianglediamonds.svg	5	yes	57	0	133	0	0			0	0			1				0	
6.6.1	win	2023-06-16	11:08:27	11:14:55	384802	61005ada2ffbf75efed5deb5	4	1	practice_slash	9	practice_slash	23	stimuli_distractor_trianglediamonds.svg	stimuli_target_diamondrectangles.svg	12	yes	53	1	478	0	0			0	0			1				0	
6.6.1	win	2023-06-16	11:08:27	11:14:55	384802	61005ada2ffbf75efed5deb5	4	1	practice_slash	9	advance_on_keypress_SLASH	24	stimuli_distractor_trianglediamonds.svg	stimuli_target_diamondrectangles.svg	12	yes	57	0	113	0	0			0	0			1				0	
6.6.1	win	2023-06-16	11:08:27	11:14:57	386955	61005ada2ffbf75efed5deb5	4	1	practice_slash	9	practice_slash	25	stimuli_distractor_diamondtriangles.svg	stimuli_target_trianglerectangles.svg	9	yes	53	1	369	0	0			0	0			1				0	
6.6.1	win	2023-06-16	11:08:27	11:14:57	386955	61005ada2ffbf75efed5deb5	4	1	practice_slash	9	advance_on_keypress_SLASH	26	stimuli_distractor_diamondtriangles.svg	stimuli_target_trianglerectangles.svg	9	yes	57	0	338	0	0			0	0			1				0	
6.6.1	win	2023-06-16	11:08:27	11:15:01	390937	61005ada2ffbf75efed5deb5	4	1	practice_slash	9	practice_slash	27	stimuli_distractor_trianglediamonds.svg	stimuli_distractor_trianglediamonds.svg	15	no	0	1	2000	0	0			0	0			1				0	
6.6.1	win	2023-06-16	11:08:27	11:15:01	390937	61005ada2ffbf75efed5deb5	4	1	practice_slash	9	advance_on_keypress_SLASH	28	stimuli_distractor_trianglediamonds.svg	stimuli_distractor_trianglediamonds.svg	15	no	57	0	588	0	0			0	0			1				0	
6.6.1	win	2023-06-16	11:08:27	11:15:04	393516	61005ada2ffbf75efed5deb5	4	1	practice_slash	9	practice_slash	29	stimuli_distractor_diamondtriangles.svg	stimuli_target_rectangletriangles.svg	7	yes	53	1	349	0	0			0	0			1				0	
6.6.1	win	2023-06-16	11:08:27	11:15:04	393516	61005ada2ffbf75efed5deb5	4	1	practice_slash	9	advance_on_keypress_SLASH	30	stimuli_distractor_diamondtriangles.svg	stimuli_target_rectangletriangles.svg	7	yes	57	0	388	0	0			0	0			1				0	
6.6.1	win	2023-06-16	11:08:27	11:15:06	395843	61005ada2ffbf75efed5deb5	4	1	practice_slash	9	practice_slash	31	stimuli_distractor_trianglediamonds.svg	stimuli_target_squarediamonds.svg	11	yes	53	1	295	0	0			0	0			1				0	
6.6.1	win	2023-06-16	11:08:27	11:15:06	395843	61005ada2ffbf75efed5deb5	4	1	practice_slash	9	advance_on_keypress_SLASH	32	stimuli_distractor_trianglediamonds.svg	stimuli_target_squarediamonds.svg	11	yes	57	0	349	0	0			0	0			1				0	
6.6.1	win	2023-06-16	11:08:27	11:15:09	399009	61005ada2ffbf75efed5deb5	4	1	main_slash	11	main_slash	1	stimuli_distractor_trianglediamonds.svg	stimuli_target_diamondsquares.svg	28	yes	53	1	531	0	0			0	0			1				0	
6.6.1	win	2023-06-16	11:08:27	11:15:09	399009	61005ada2ffbf75efed5deb5	4	1	main_slash	11	advance_on_keypress_SLASH	2	stimuli_distractor_trianglediamonds.svg	stimuli_target_diamondsquares.svg	28	yes	57	0	1328	0	0			0	0			1				0	
6.6.1	win	2023-06-16	11:08:27	11:15:11	401388	61005ada2ffbf75efed5deb5	4	1	main_slash	11	main_slash	3	stimuli_distractor_diamondtriangles.svg	stimuli_target_diamondrectangles.svg	31	yes	53	1	396	0	0			0	0			1				0	
6.6.1	win	2023-06-16	11:08:27	11:15:11	401388	61005ada2ffbf75efed5deb5	4	1	main_slash	11	advance_on_keypress_SLASH	4	stimuli_distractor_diamondtriangles.svg	stimuli_target_diamondrectangles.svg	31	yes	57	0	802	0	0			0	0			1				0	
6.6.1	win	2023-06-16	11:08:27	11:15:13	403267	61005ada2ffbf75efed5deb5	4	1	main_slash	11	main_slash	5	stimuli_target_rectangletriangles.svg	stimuli_distractor_diamondtriangles.svg	5	yes	53	1	427	0	0			0	0			1				0	
6.6.1	win	2023-06-16	11:08:27	11:15:13	403267	61005ada2ffbf75efed5deb5	4	1	main_slash	11	advance_on_keypress_SLASH	6	stimuli_target_rectangletriangles.svg	stimuli_distractor_diamondtriangles.svg	5	yes	57	0	682	0	0			0	0			1				0	
6.6.1	win	2023-06-16	11:08:27	11:15:17	406589	61005ada2ffbf75efed5deb5	4	1	main_slash	11	main_slash	7	stimuli_distractor_diamondtriangles.svg	stimuli_distractor_trianglediamonds.svg	37	no	0	1	2000	0	0			0	0			1				0	
6.6.1	win	2023-06-16	11:08:27	11:15:17	406589	61005ada2ffbf75efed5deb5	4	1	main_slash	11	advance_on_keypress_SLASH	8	stimuli_distractor_diamondtriangles.svg	stimuli_distractor_trianglediamonds.svg	37	no	57	0	266	0	0			0	0			1				0	
6.6.1	win	2023-06-16	11:08:27	11:15:18	407846	61005ada2ffbf75efed5deb5	4	1	main_slash	11	main_slash	9	stimuli_distractor_trianglediamonds.svg	stimuli_target_trianglerectangles.svg	25	yes	53	1	343	0	0			0	0			1				0	
6.6.1	win	2023-06-16	11:08:27	11:15:18	407846	61005ada2ffbf75efed5deb5	4	1	main_slash	11	advance_on_keypress_SLASH	10	stimuli_distractor_trianglediamonds.svg	stimuli_target_trianglerectangles.svg	25	yes	57	0	367	0	0			0	0			1				0	
6.6.1	win	2023-06-16	11:08:27	11:15:19	409197	61005ada2ffbf75efed5deb5	4	1	main_slash	11	main_slash	11	stimuli_distractor_diamondtriangles.svg	stimuli_target_squarediamonds.svg	16	yes	53	1	345	0	0			0	0			1				0	
6.6.1	win	2023-06-16	11:08:27	11:15:19	409197	61005ada2ffbf75efed5deb5	4	1	main_slash	11	advance_on_keypress_SLASH	12	stimuli_distractor_diamondtriangles.svg	stimuli_target_squarediamonds.svg	16	yes	57	0	416	0	0			0	0			1				0	
6.6.1	win	2023-06-16	11:08:27	11:15:22	412268	61005ada2ffbf75efed5deb5	4	1	main_slash	11	main_slash	13	stimuli_distractor_diamondtriangles.svg	stimuli_distractor_trianglediamonds.svg	38	no	0	1	2000	0	0			0	0			1				0	
6.6.1	win	2023-06-16	11:08:27	11:15:22	412268	61005ada2ffbf75efed5deb5	4	1	main_slash	11	advance_on_keypress_SLASH	14	stimuli_distractor_diamondtriangles.svg	stimuli_distractor_trianglediamonds.svg	38	no	57	0	269	0	0			0	0			1				0	
6.6.1	win	2023-06-16	11:08:27	11:15:24	413565	61005ada2ffbf75efed5deb5	4	1	main_slash	11	main_slash	15	stimuli_target_rectangletriangles.svg	stimuli_distractor_trianglediamonds.svg	1	yes	53	1	374	0	0			0	0			1				0	
6.6.1	win	2023-06-16	11:08:27	11:15:24	413565	61005ada2ffbf75efed5deb5	4	1	main_slash	11	advance_on_keypress_SLASH	16	stimuli_target_rectangletriangles.svg	stimuli_distractor_trianglediamonds.svg	1	yes	57	0	286	0	0			0	0			1				0	
6.6.1	win	2023-06-16	11:08:27	11:15:25	415098	61005ada2ffbf75efed5deb5	4	1	main_slash	11	main_slash	17	stimuli_target_trianglerectangles.svg	stimuli_distractor_diamondtriangles.svg	21	yes	53	1	600	0	0			0	0			1				0	
6.6.1	win	2023-06-16	11:08:27	11:15:25	415098	61005ada2ffbf75efed5deb5	4	1	main_slash	11	advance_on_keypress_SLASH	18	stimuli_target_trianglerectangles.svg	stimuli_distractor_diamondtriangles.svg	21	yes	57	0	381	0	0			0	0			1				0	
6.6.1	win	2023-06-16	11:08:27	11:15:27	416566	61005ada2ffbf75efed5deb5	4	1	main_slash	11	main_slash	19	stimuli_distractor_diamondtriangles.svg	stimuli_target_trianglesquares.svg	30	yes	53	1	437	0	0			0	0			1				0	
6.6.1	win	2023-06-16	11:08:27	11:15:27	416566	61005ada2ffbf75efed5deb5	4	1	main_slash	11	advance_on_keypress_SLASH	20	stimuli_distractor_diamondtriangles.svg	stimuli_target_trianglesquares.svg	30	yes	57	0	390	0	0			0	0			1				0	
6.6.1	win	2023-06-16	11:08:27	11:15:28	417944	61005ada2ffbf75efed5deb5	4	1	main_slash	11	main_slash	21	stimuli_distractor_trianglediamonds.svg	stimuli_target_rectanglediamonds.svg	10	yes	53	1	350	0	0			0	0			1				0	
6.6.1	win	2023-06-16	11:08:27	11:15:28	417944	61005ada2ffbf75efed5deb5	4	1	main_slash	11	advance_on_keypress_SLASH	22	stimuli_distractor_trianglediamonds.svg	stimuli_target_rectanglediamonds.svg	10	yes	57	0	305	0	0			0	0			1				0	
6.6.1	win	2023-06-16	11:08:27	11:15:31	420870	61005ada2ffbf75efed5deb5	4	1	main_slash	11	main_slash	23	stimuli_target_trianglesquares.svg	stimuli_distractor_trianglediamonds.svg	18	yes	53	1	1976	0	0			0	0			1				0	
6.6.1	win	2023-06-16	11:08:27	11:15:31	420870	61005ada2ffbf75efed5deb5	4	1	main_slash	11	advance_on_keypress_SLASH	24	stimuli_target_trianglesquares.svg	stimuli_distractor_trianglediamonds.svg	18	yes	57	0	1105	0	0			0	0			1				0	
6.6.1	win	2023-06-16	11:08:27	11:15:33	422993	61005ada2ffbf75efed5deb5	4	1	main_slash	11	main_slash	25	stimuli_target_diamondsquares.svg	stimuli_distractor_trianglediamonds.svg	20	yes	53	1	386	0	0			0	0			1				0	
6.6.1	win	2023-06-16	11:08:27	11:15:33	422993	61005ada2ffbf75efed5deb5	4	1	main_slash	11	advance_on_keypress_SLASH	26	stimuli_target_diamondsquares.svg	stimuli_distractor_trianglediamonds.svg	20	yes	57	0	432	0	0			0	0			1				0	
6.6.1	win	2023-06-16	11:08:27	11:15:35	424493	61005ada2ffbf75efed5deb5	4	1	main_slash	11	main_slash	27	stimuli_target_diamondrectangles.svg	stimuli_distractor_trianglediamonds.svg	19	yes	53	1	420	0	0			0	0			1				0	
6.6.1	win	2023-06-16	11:08:27	11:15:35	424493	61005ada2ffbf75efed5deb5	4	1	main_slash	11	advance_on_keypress_SLASH	28	stimuli_target_diamondrectangles.svg	stimuli_distractor_trianglediamonds.svg	19	yes	57	0	434	0	0			0	0			1				0	
6.6.1	win	2023-06-16	11:08:27	11:15:38	427572	61005ada2ffbf75efed5deb5	4	1	main_slash	11	main_slash	29	stimuli_distractor_diamondtriangles.svg	stimuli_distractor_diamondtriangles.svg	39	no	0	1	2000	0	0			0	0			1				0	
6.6.1	win	2023-06-16	11:08:27	11:15:38	427572	61005ada2ffbf75efed5deb5	4	1	main_slash	11	advance_on_keypress_SLASH	30	stimuli_distractor_diamondtriangles.svg	stimuli_distractor_diamondtriangles.svg	39	no	57	0	290	0	0			0	0			1				0	
6.6.1	win	2023-06-16	11:08:27	11:15:39	428862	61005ada2ffbf75efed5deb5	4	1	main_slash	11	main_slash	31	stimuli_distractor_trianglediamonds.svg	stimuli_target_trianglesquares.svg	26	yes	53	1	359	0	0			0	0			1				0	
6.6.1	win	2023-06-16	11:08:27	11:15:39	428862	61005ada2ffbf75efed5deb5	4	1	main_slash	11	advance_on_keypress_SLASH	32	stimuli_distractor_trianglediamonds.svg	stimuli_target_trianglesquares.svg	26	yes	57	0	655	0	0			0	0			1				0	
6.6.1	win	2023-06-16	11:08:27	11:15:41	430667	61005ada2ffbf75efed5deb5	4	1	main_slash	11	main_slash	33	stimuli_target_rectanglediamonds.svg	stimuli_distractor_diamondtriangles.svg	6	yes	53	1	514	0	0			0	0			1				0	
6.6.1	win	2023-06-16	11:08:27	11:15:41	430667	61005ada2ffbf75efed5deb5	4	1	main_slash	11	advance_on_keypress_SLASH	34	stimuli_target_rectanglediamonds.svg	stimuli_distractor_diamondtriangles.svg	6	yes	57	0	374	0	0			0	0			1				0	
6.6.1	win	2023-06-16	11:08:27	11:15:44	433683	61005ada2ffbf75efed5deb5	4	1	main_slash	11	main_slash	35	stimuli_distractor_diamondtriangles.svg	stimuli_distractor_diamondtriangles.svg	40	no	0	1	2000	0	0			0	0			1				0	
6.6.1	win	2023-06-16	11:08:27	11:15:44	433683	61005ada2ffbf75efed5deb5	4	1	main_slash	11	advance_on_keypress_SLASH	36	stimuli_distractor_diamondtriangles.svg	stimuli_distractor_diamondtriangles.svg	40	no	57	0	414	0	0			0	0			1				0	
6.6.1	win	2023-06-16	11:08:27	11:15:45	435131	61005ada2ffbf75efed5deb5	4	1	main_slash	11	main_slash	37	stimuli_distractor_diamondtriangles.svg	stimuli_target_trianglerectangles.svg	29	yes	53	1	383	0	0			0	0			1				0	
6.6.1	win	2023-06-16	11:08:27	11:15:45	435131	61005ada2ffbf75efed5deb5	4	1	main_slash	11	advance_on_keypress_SLASH	38	stimuli_distractor_diamondtriangles.svg	stimuli_target_trianglerectangles.svg	29	yes	57	0	394	0	0			0	0			1				0	
6.6.1	win	2023-06-16	11:08:27	11:15:48	438163	61005ada2ffbf75efed5deb5	4	1	main_slash	11	main_slash	39	stimuli_distractor_trianglediamonds.svg	stimuli_distractor_trianglediamonds.svg	34	no	0	1	2000	0	0			0	0			1				0	
6.6.1	win	2023-06-16	11:08:27	11:15:48	438163	61005ada2ffbf75efed5deb5	4	1	main_slash	11	advance_on_keypress_SLASH	40	stimuli_distractor_trianglediamonds.svg	stimuli_distractor_trianglediamonds.svg	34	no	57	0	274	0	0			0	0			1				0	
6.6.1	win	2023-06-16	11:08:27	11:15:50	439593	61005ada2ffbf75efed5deb5	4	1	main_slash	11	main_slash	41	stimuli_target_trianglerectangles.svg	stimuli_distractor_trianglediamonds.svg	17	yes	53	1	505	0	0			0	0			1				0	
6.6.1	win	2023-06-16	11:08:27	11:15:50	439593	61005ada2ffbf75efed5deb5	4	1	main_slash	11	advance_on_keypress_SLASH	42	stimuli_target_trianglerectangles.svg	stimuli_distractor_trianglediamonds.svg	17	yes	57	0	312	0	0			0	0			1				0	
6.6.1	win	2023-06-16	11:08:27	11:15:51	440942	61005ada2ffbf75efed5deb5	4	1	main_slash	11	main_slash	43	stimuli_distractor_diamondtriangles.svg	stimuli_target_rectangletriangles.svg	13	yes	53	1	371	0	0			0	0			1				0	
6.6.1	win	2023-06-16	11:08:27	11:15:51	440942	61005ada2ffbf75efed5deb5	4	1	main_slash	11	advance_on_keypress_SLASH	44	stimuli_distractor_diamondtriangles.svg	stimuli_target_rectangletriangles.svg	13	yes	57	0	279	0	0			0	0			1				0	
6.6.1	win	2023-06-16	11:08:27	11:15:52	442171	61005ada2ffbf75efed5deb5	4	1	main_slash	11	main_slash	45	stimuli_distractor_trianglediamonds.svg	stimuli_target_squaretriangles.svg	11	yes	53	1	296	0	0			0	0			1				0	
6.6.1	win	2023-06-16	11:08:27	11:15:52	442171	61005ada2ffbf75efed5deb5	4	1	main_slash	11	advance_on_keypress_SLASH	46	stimuli_distractor_trianglediamonds.svg	stimuli_target_squaretriangles.svg	11	yes	57	0	242	0	0			0	0			1				0	
6.6.1	win	2023-06-16	11:08:27	11:15:54	443462	61005ada2ffbf75efed5deb5	4	1	main_slash	11	main_slash	47	stimuli_target_rectanglediamonds.svg	stimuli_distractor_trianglediamonds.svg	2	yes	53	1	404	0	0			0	0			1				0	
6.6.1	win	2023-06-16	11:08:27	11:15:54	443462	61005ada2ffbf75efed5deb5	4	1	main_slash	11	advance_on_keypress_SLASH	48	stimuli_target_rectanglediamonds.svg	stimuli_distractor_trianglediamonds.svg	2	yes	57	0	315	0	0			0	0			1				0	
6.6.1	win	2023-06-16	11:08:27	11:15:55	444821	61005ada2ffbf75efed5deb5	4	1	main_slash	11	main_slash	49	stimuli_target_diamondsquares.svg	stimuli_distractor_diamondtriangles.svg	24	yes	53	1	398	0	0			0	0			1				0	
6.6.1	win	2023-06-16	11:08:27	11:15:55	444821	61005ada2ffbf75efed5deb5	4	1	main_slash	11	advance_on_keypress_SLASH	50	stimuli_target_diamondsquares.svg	stimuli_distractor_diamondtriangles.svg	24	yes	57	0	320	0	0			0	0			1				0	
6.6.1	win	2023-06-16	11:08:27	11:15:58	447788	61005ada2ffbf75efed5deb5	4	1	main_slash	11	main_slash	51	stimuli_distractor_diamondtriangles.svg	stimuli_target_rectanglediamonds.svg	14	yes	0	0	2000	0	0			0	0			1				0	
6.6.1	win	2023-06-16	11:08:27	11:15:58	447788	61005ada2ffbf75efed5deb5	4	1	main_slash	11	advance_on_keypress_SLASH	52	stimuli_distractor_diamondtriangles.svg	stimuli_target_rectanglediamonds.svg	14	yes	57	0	359	0	0			0	0			1				0	
6.6.1	win	2023-06-16	11:08:27	11:15:59	449262	61005ada2ffbf75efed5deb5	4	1	main_slash	11	main_slash	53	stimuli_target_diamondrectangles.svg	stimuli_distractor_diamondtriangles.svg	23	yes	53	1	475	0	0			0	0			1				0	
6.6.1	win	2023-06-16	11:08:27	11:15:59	449262	61005ada2ffbf75efed5deb5	4	1	main_slash	11	advance_on_keypress_SLASH	54	stimuli_target_diamondrectangles.svg	stimuli_distractor_diamondtriangles.svg	23	yes	57	0	377	0	0			0	0			1				0	
6.6.1	win	2023-06-16	11:08:27	11:16:02	452268	61005ada2ffbf75efed5deb5	4	1	main_slash	11	main_slash	55	stimuli_distractor_trianglediamonds.svg	stimuli_distractor_trianglediamonds.svg	33	no	0	1	2000	0	0			0	0			1				0	
6.6.1	win	2023-06-16	11:08:27	11:16:02	452268	61005ada2ffbf75efed5deb5	4	1	main_slash	11	advance_on_keypress_SLASH	56	stimuli_distractor_trianglediamonds.svg	stimuli_distractor_trianglediamonds.svg	33	no	57	0	262	0	0			0	0			1				0	
6.6.1	win	2023-06-16	11:08:27	11:16:04	453431	61005ada2ffbf75efed5deb5	4	1	main_slash	11	main_slash	57	stimuli_distractor_trianglediamonds.svg	stimuli_distractor_diamondtriangles.svg	35	no	53	0	265	0	0			0	0			1				0	
6.6.1	win	2023-06-16	11:08:27	11:16:04	453431	61005ada2ffbf75efed5deb5	4	1	main_slash	11	advance_on_keypress_SLASH	58	stimuli_distractor_trianglediamonds.svg	stimuli_distractor_diamondtriangles.svg	35	no	57	0	316	0	0			0	0			1				0	
6.6.1	win	2023-06-16	11:08:27	11:16:06	456398	61005ada2ffbf75efed5deb5	4	1	main_slash	11	main_slash	59	stimuli_distractor_trianglediamonds.svg	stimuli_target_rectangletriangles.svg	9	yes	0	0	2000	0	0			0	0			1				0	
6.6.1	win	2023-06-16	11:08:27	11:16:06	456398	61005ada2ffbf75efed5deb5	4	1	main_slash	11	advance_on_keypress_SLASH	60	stimuli_distractor_trianglediamonds.svg	stimuli_target_rectangletriangles.svg	9	yes	57	0	51	0	0			0	0			1				0	
6.6.1	win	2023-06-16	11:08:27	11:16:08	457496	61005ada2ffbf75efed5deb5	4	1	main_slash	11	main_slash	61	stimuli_target_squaretriangles.svg	stimuli_distractor_trianglediamonds.svg	3	yes	53	1	399	0	0			0	0			1				0	
6.6.1	win	2023-06-16	11:08:27	11:16:08	457496	61005ada2ffbf75efed5deb5	4	1	main_slash	11	advance_on_keypress_SLASH	62	stimuli_target_squaretriangles.svg	stimuli_distractor_trianglediamonds.svg	3	yes	57	0	745	0	0			0	0			1				0	
6.6.1	win	2023-06-16	11:08:27	11:16:09	459239	61005ada2ffbf75efed5deb5	4	1	main_slash	11	main_slash	63	stimuli_target_trianglesquares.svg	stimuli_distractor_diamondtriangles.svg	22	yes	53	1	345	0	0			0	0			1				0	
6.6.1	win	2023-06-16	11:08:27	11:16:09	459239	61005ada2ffbf75efed5deb5	4	1	main_slash	11	advance_on_keypress_SLASH	64	stimuli_target_trianglesquares.svg	stimuli_distractor_diamondtriangles.svg	22	yes	57	0	209	0	0			0	0			1				0	
6.6.1	win	2023-06-16	11:08:27	11:16:12	462093	61005ada2ffbf75efed5deb5	4	1	main_slash	11	main_slash	65	stimuli_distractor_trianglediamonds.svg	stimuli_distractor_diamondtriangles.svg	36	no	0	1	2000	0	0			0	0			1				0	
6.6.1	win	2023-06-16	11:08:27	11:16:12	462093	61005ada2ffbf75efed5deb5	4	1	main_slash	11	advance_on_keypress_SLASH	66	stimuli_distractor_trianglediamonds.svg	stimuli_distractor_diamondtriangles.svg	36	no	57	0	93	0	0			0	0			1				0	
6.6.1	win	2023-06-16	11:08:27	11:16:13	463154	61005ada2ffbf75efed5deb5	4	1	main_slash	11	main_slash	67	stimuli_distractor_trianglediamonds.svg	stimuli_target_squarediamonds.svg	12	yes	53	1	329	0	0			0	0			1				0	
6.6.1	win	2023-06-16	11:08:27	11:16:13	463154	61005ada2ffbf75efed5deb5	4	1	main_slash	11	advance_on_keypress_SLASH	68	stimuli_distractor_trianglediamonds.svg	stimuli_target_squarediamonds.svg	12	yes	57	0	185	0	0			0	0			1				0	
6.6.1	win	2023-06-16	11:08:27	11:16:15	464552	61005ada2ffbf75efed5deb5	4	1	main_slash	11	main_slash	69	stimuli_target_squaretriangles.svg	stimuli_distractor_diamondtriangles.svg	7	yes	53	1	562	0	0			0	0			1				0	
6.6.1	win	2023-06-16	11:08:27	11:16:15	464552	61005ada2ffbf75efed5deb5	4	1	main_slash	11	advance_on_keypress_SLASH	70	stimuli_target_squaretriangles.svg	stimuli_distractor_diamondtriangles.svg	7	yes	57	0	541	0	0			0	0			1				0	
6.6.1	win	2023-06-16	11:08:27	11:16:16	465992	61005ada2ffbf75efed5deb5	4	1	main_slash	11	main_slash	71	stimuli_target_squarediamonds.svg	stimuli_distractor_trianglediamonds.svg	4	yes	53	1	253	0	0			0	0			1				0	
6.6.1	win	2023-06-16	11:08:27	11:16:16	465992	61005ada2ffbf75efed5deb5	4	1	main_slash	11	advance_on_keypress_SLASH	72	stimuli_target_squarediamonds.svg	stimuli_distractor_trianglediamonds.svg	4	yes	57	0	377	0	0			0	0			1				0	
6.6.1	win	2023-06-16	11:08:27	11:16:17	467314	61005ada2ffbf75efed5deb5	4	1	main_slash	11	main_slash	73	stimuli_target_squarediamonds.svg	stimuli_distractor_diamondtriangles.svg	8	yes	53	1	310	0	0			0	0			1				0	
6.6.1	win	2023-06-16	11:08:27	11:16:17	467314	61005ada2ffbf75efed5deb5	4	1	main_slash	11	advance_on_keypress_SLASH	74	stimuli_target_squarediamonds.svg	stimuli_distractor_diamondtriangles.svg	8	yes	57	0	337	0	0			0	0			1				0	
6.6.1	win	2023-06-16	11:08:27	11:16:19	468550	61005ada2ffbf75efed5deb5	4	1	main_slash	11	main_slash	75	stimuli_distractor_diamondtriangles.svg	stimuli_target_diamondsquares.svg	32	yes	53	1	263	0	0			0	0			1				0	
6.6.1	win	2023-06-16	11:08:27	11:16:19	468550	61005ada2ffbf75efed5deb5	4	1	main_slash	11	advance_on_keypress_SLASH	76	stimuli_distractor_diamondtriangles.svg	stimuli_target_diamondsquares.svg	32	yes	57	0	313	0	0			0	0			1				0	
6.6.1	win	2023-06-16	11:08:27	11:16:20	469879	61005ada2ffbf75efed5deb5	4	1	main_slash	11	main_slash	77	stimuli_distractor_trianglediamonds.svg	stimuli_target_diamondrectangles.svg	27	yes	53	1	360	0	0			0	0			1				0	
6.6.1	win	2023-06-16	11:08:27	11:16:20	469879	61005ada2ffbf75efed5deb5	4	1	main_slash	11	advance_on_keypress_SLASH	78	stimuli_distractor_trianglediamonds.svg	stimuli_target_diamondrectangles.svg	27	yes	57	0	436	0	0			0	0			1				0	
6.6.1	win	2023-06-16	11:08:27	11:16:21	471309	61005ada2ffbf75efed5deb5	4	1	main_slash	11	main_slash	79	stimuli_distractor_diamondtriangles.svg	stimuli_target_squaretriangles.svg	15	yes	53	1	357	0	0			0	0			1				0	
6.6.1	win	2023-06-16	11:08:27	11:16:21	471309	61005ada2ffbf75efed5deb5	4	1	main_slash	11	advance_on_keypress_SLASH	80	stimuli_distractor_diamondtriangles.svg	stimuli_target_squaretriangles.svg	15	yes	57	0	251	0	0			0	0			1				0	
6.6.1	win	2023-06-16	11:08:27	11:16:24	474200	61005ada2ffbf75efed5deb5	4	1	main_slash	11	main_slash	81	stimuli_distractor_trianglediamonds.svg	stimuli_distractor_trianglediamonds.svg	33	no	0	1	2000	0	0			0	0			1				0	
6.6.1	win	2023-06-16	11:08:27	11:16:24	474200	61005ada2ffbf75efed5deb5	4	1	main_slash	11	advance_on_keypress_SLASH	82	stimuli_distractor_trianglediamonds.svg	stimuli_distractor_trianglediamonds.svg	33	no	57	0	156	0	0			0	0			1				0	
6.6.1	win	2023-06-16	11:08:27	11:16:25	475387	61005ada2ffbf75efed5deb5	4	1	main_slash	11	main_slash	83	stimuli_distractor_trianglediamonds.svg	stimuli_target_trianglesquares.svg	26	yes	53	1	389	0	0			0	0			1				0	
6.6.1	win	2023-06-16	11:08:27	11:16:25	475387	61005ada2ffbf75efed5deb5	4	1	main_slash	11	advance_on_keypress_SLASH	84	stimuli_distractor_trianglediamonds.svg	stimuli_target_trianglesquares.svg	26	yes	57	0	269	0	0			0	0			1				0	
6.6.1	win	2023-06-16	11:08:27	11:16:27	476626	61005ada2ffbf75efed5deb5	4	1	main_slash	11	main_slash	85	stimuli_target_rectangletriangles.svg	stimuli_distractor_trianglediamonds.svg	1	yes	53	1	330	0	0			0	0			1				0	
6.6.1	win	2023-06-16	11:08:27	11:16:27	476626	61005ada2ffbf75efed5deb5	4	1	main_slash	11	advance_on_keypress_SLASH	86	stimuli_target_rectangletriangles.svg	stimuli_distractor_trianglediamonds.svg	1	yes	57	0	386	0	0			0	0			1				0	
6.6.1	win	2023-06-16	11:08:27	11:16:28	477917	61005ada2ffbf75efed5deb5	4	1	main_slash	11	main_slash	87	stimuli_distractor_diamondtriangles.svg	stimuli_target_rectanglediamonds.svg	14	yes	53	1	254	0	0			0	0			1				0	
6.6.1	win	2023-06-16	11:08:27	11:16:28	477917	61005ada2ffbf75efed5deb5	4	1	main_slash	11	advance_on_keypress_SLASH	88	stimuli_distractor_diamondtriangles.svg	stimuli_target_rectanglediamonds.svg	14	yes	57	0	292	0	0			0	0			1				0	
6.6.1	win	2023-06-16	11:08:27	11:16:30	479458	61005ada2ffbf75efed5deb5	4	1	main_slash	11	main_slash	89	stimuli_target_trianglerectangles.svg	stimuli_distractor_diamondtriangles.svg	21	yes	53	1	614	0	0			0	0			1				0	
6.6.1	win	2023-06-16	11:08:27	11:16:30	479458	61005ada2ffbf75efed5deb5	4	1	main_slash	11	advance_on_keypress_SLASH	90	stimuli_target_trianglerectangles.svg	stimuli_distractor_diamondtriangles.svg	21	yes	57	0	308	0	0			0	0			1				0	
6.6.1	win	2023-06-16	11:08:27	11:16:31	480767	61005ada2ffbf75efed5deb5	4	1	main_slash	11	main_slash	91	stimuli_distractor_trianglediamonds.svg	stimuli_target_rectanglediamonds.svg	10	yes	53	1	357	0	0			0	0			1				0	
6.6.1	win	2023-06-16	11:08:27	11:16:31	480767	61005ada2ffbf75efed5deb5	4	1	main_slash	11	advance_on_keypress_SLASH	92	stimuli_distractor_trianglediamonds.svg	stimuli_target_rectanglediamonds.svg	10	yes	57	0	185	0	0			0	0			1				0	
6.6.1	win	2023-06-16	11:08:27	11:16:33	482507	61005ada2ffbf75efed5deb5	4	1	main_slash	11	main_slash	93	stimuli_target_diamondsquares.svg	stimuli_distractor_diamondtriangles.svg	24	yes	53	1	914	0	0			0	0			1				0	
6.6.1	win	2023-06-16	11:08:27	11:16:33	482507	61005ada2ffbf75efed5deb5	4	1	main_slash	11	advance_on_keypress_SLASH	94	stimuli_target_diamondsquares.svg	stimuli_distractor_diamondtriangles.svg	24	yes	57	0	278	0	0			0	0			1				0	
6.6.1	win	2023-06-16	11:08:27	11:16:34	483828	61005ada2ffbf75efed5deb5	4	1	main_slash	11	main_slash	95	stimuli_distractor_diamondtriangles.svg	stimuli_distractor_diamondtriangles.svg	39	no	53	0	387	0	0			0	0			1				0	
6.6.1	win	2023-06-16	11:08:27	11:16:34	483828	61005ada2ffbf75efed5deb5	4	1	main_slash	11	advance_on_keypress_SLASH	96	stimuli_distractor_diamondtriangles.svg	stimuli_distractor_diamondtriangles.svg	39	no	57	0	536	0	0			0	0			1				0	
6.6.1	win	2023-06-16	11:08:27	11:16:37	487006	61005ada2ffbf75efed5deb5	4	1	main_slash	11	main_slash	97	stimuli_distractor_diamondtriangles.svg	stimuli_distractor_diamondtriangles.svg	40	no	0	1	2000	0	0			0	0			1				0	
6.6.1	win	2023-06-16	11:08:27	11:16:37	487006	61005ada2ffbf75efed5deb5	4	1	main_slash	11	advance_on_keypress_SLASH	98	stimuli_distractor_diamondtriangles.svg	stimuli_distractor_diamondtriangles.svg	40	no	57	0	424	0	0			0	0			1				0	
6.6.1	win	2023-06-16	11:08:27	11:16:38	488396	61005ada2ffbf75efed5deb5	4	1	main_slash	11	main_slash	99	stimuli_distractor_diamondtriangles.svg	stimuli_target_rectangletriangles.svg	13	yes	53	1	326	0	0			0	0			1				0	
6.6.1	win	2023-06-16	11:08:27	11:16:38	488396	61005ada2ffbf75efed5deb5	4	1	main_slash	11	advance_on_keypress_SLASH	100	stimuli_distractor_diamondtriangles.svg	stimuli_target_rectangletriangles.svg	13	yes	57	0	248	0	0			0	0			1				0	
6.6.1	win	2023-06-16	11:08:27	11:16:40	489586	61005ada2ffbf75efed5deb5	4	1	main_slash	11	main_slash	101	stimuli_distractor_diamondtriangles.svg	stimuli_target_squarediamonds.svg	16	yes	53	1	300	0	0			0	0			1				0	
6.6.1	win	2023-06-16	11:08:27	11:16:40	489586	61005ada2ffbf75efed5deb5	4	1	main_slash	11	advance_on_keypress_SLASH	102	stimuli_distractor_diamondtriangles.svg	stimuli_target_squarediamonds.svg	16	yes	57	0	156	0	0			0	0			1				0	
6.6.1	win	2023-06-16	11:08:27	11:16:41	490924	61005ada2ffbf75efed5deb5	4	1	main_slash	11	main_slash	103	stimuli_target_rectanglediamonds.svg	stimuli_distractor_diamondtriangles.svg	6	yes	53	1	539	0	0			0	0			1				0	
6.6.1	win	2023-06-16	11:08:27	11:16:41	490924	61005ada2ffbf75efed5deb5	4	1	main_slash	11	advance_on_keypress_SLASH	104	stimuli_target_rectanglediamonds.svg	stimuli_distractor_diamondtriangles.svg	6	yes	57	0	319	0	0			0	0			1				0	
6.6.1	win	2023-06-16	11:08:27	11:16:42	492241	61005ada2ffbf75efed5deb5	4	1	main_slash	11	main_slash	105	stimuli_distractor_diamondtriangles.svg	stimuli_target_diamondsquares.svg	32	yes	53	1	357	0	0			0	0			1				0	
6.6.1	win	2023-06-16	11:08:27	11:16:42	492241	61005ada2ffbf75efed5deb5	4	1	main_slash	11	advance_on_keypress_SLASH	106	stimuli_distractor_diamondtriangles.svg	stimuli_target_diamondsquares.svg	32	yes	57	0	210	0	0			0	0			1				0	
6.6.1	win	2023-06-16	11:08:27	11:16:45	495083	61005ada2ffbf75efed5deb5	4	1	main_slash	11	main_slash	107	stimuli_distractor_trianglediamonds.svg	stimuli_distractor_diamondtriangles.svg	36	no	0	1	2000	0	0			0	0			1				0	
6.6.1	win	2023-06-16	11:08:27	11:16:45	495083	61005ada2ffbf75efed5deb5	4	1	main_slash	11	advance_on_keypress_SLASH	108	stimuli_distractor_trianglediamonds.svg	stimuli_distractor_diamondtriangles.svg	36	no	57	0	35	0	0			0	0			1				0	
6.6.1	win	2023-06-16	11:08:27	11:16:46	496104	61005ada2ffbf75efed5deb5	4	1	main_slash	11	main_slash	109	stimuli_distractor_trianglediamonds.svg	stimuli_target_rectangletriangles.svg	9	yes	53	1	340	0	0			0	0			1				0	
6.6.1	win	2023-06-16	11:08:27	11:16:46	496104	61005ada2ffbf75efed5deb5	4	1	main_slash	11	advance_on_keypress_SLASH	110	stimuli_distractor_trianglediamonds.svg	stimuli_target_rectangletriangles.svg	9	yes	57	0	221	0	0			0	0			1				0	
6.6.1	win	2023-06-16	11:08:27	11:16:47	497356	61005ada2ffbf75efed5deb5	4	1	main_slash	11	main_slash	111	stimuli_target_rectanglediamonds.svg	stimuli_distractor_trianglediamonds.svg	2	yes	53	1	393	0	0			0	0			1				0	
6.6.1	win	2023-06-16	11:08:27	11:16:47	497356	61005ada2ffbf75efed5deb5	4	1	main_slash	11	advance_on_keypress_SLASH	112	stimuli_target_rectanglediamonds.svg	stimuli_distractor_trianglediamonds.svg	2	yes	57	0	269	0	0			0	0			1				0	
6.6.1	win	2023-06-16	11:08:27	11:16:49	498605	61005ada2ffbf75efed5deb5	4	1	main_slash	11	main_slash	113	stimuli_target_squarediamonds.svg	stimuli_distractor_diamondtriangles.svg	8	yes	53	1	344	0	0			0	0			1				0	
6.6.1	win	2023-06-16	11:08:27	11:16:49	498605	61005ada2ffbf75efed5deb5	4	1	main_slash	11	advance_on_keypress_SLASH	114	stimuli_target_squarediamonds.svg	stimuli_distractor_diamondtriangles.svg	8	yes	57	0	283	0	0			0	0			1				0	
6.6.1	win	2023-06-16	11:08:27	11:16:50	499921	61005ada2ffbf75efed5deb5	4	1	main_slash	11	main_slash	115	stimuli_target_trianglesquares.svg	stimuli_distractor_diamondtriangles.svg	22	yes	53	1	393	0	0			0	0			1				0	
6.6.1	win	2023-06-16	11:08:27	11:16:50	499921	61005ada2ffbf75efed5deb5	4	1	main_slash	11	advance_on_keypress_SLASH	116	stimuli_target_trianglesquares.svg	stimuli_distractor_diamondtriangles.svg	22	yes	57	0	179	0	0			0	0			1				0	
6.6.1	win	2023-06-16	11:08:27	11:16:52	501474	61005ada2ffbf75efed5deb5	4	1	main_slash	11	main_slash	117	stimuli_distractor_trianglediamonds.svg	stimuli_target_diamondsquares.svg	28	yes	53	1	731	0	0			0	0			1				0	
6.6.1	win	2023-06-16	11:08:27	11:16:52	501474	61005ada2ffbf75efed5deb5	4	1	main_slash	11	advance_on_keypress_SLASH	118	stimuli_distractor_trianglediamonds.svg	stimuli_target_diamondsquares.svg	28	yes	57	0	128	0	0			0	0			1				0	
6.6.1	win	2023-06-16	11:08:27	11:16:54	504259	61005ada2ffbf75efed5deb5	4	1	main_slash	11	main_slash	119	stimuli_target_squaretriangles.svg	stimuli_distractor_diamondtriangles.svg	7	yes	0	0	2000	0	0			0	0			1				0	
6.6.1	win	2023-06-16	11:08:27	11:16:54	504259	61005ada2ffbf75efed5deb5	4	1	main_slash	11	advance_on_keypress_SLASH	120	stimuli_target_squaretriangles.svg	stimuli_distractor_diamondtriangles.svg	7	yes	57	0	367	0	0			0	0			1				0	
6.6.1	win	2023-06-16	11:08:27	11:16:57	507273	61005ada2ffbf75efed5deb5	4	1	main_slash	11	main_slash	121	stimuli_distractor_trianglediamonds.svg	stimuli_distractor_trianglediamonds.svg	34	no	0	1	2000	0	0			0	0			1				0	
6.6.1	win	2023-06-16	11:08:27	11:16:57	507273	61005ada2ffbf75efed5deb5	4	1	main_slash	11	advance_on_keypress_SLASH	122	stimuli_distractor_trianglediamonds.svg	stimuli_distractor_trianglediamonds.svg	34	no	57	0	184	0	0			0	0			1				0	
6.6.1	win	2023-06-16	11:08:27	11:16:59	508596	61005ada2ffbf75efed5deb5	4	1	main_slash	11	main_slash	123	stimuli_target_trianglerectangles.svg	stimuli_distractor_trianglediamonds.svg	17	yes	53	1	492	0	0			0	0			1				0	
6.6.1	win	2023-06-16	11:08:27	11:16:59	508596	61005ada2ffbf75efed5deb5	4	1	main_slash	11	advance_on_keypress_SLASH	124	stimuli_target_trianglerectangles.svg	stimuli_distractor_trianglediamonds.svg	17	yes	57	0	133	0	0			0	0			1				0	
6.6.1	win	2023-06-16	11:08:27	11:17:01	511369	61005ada2ffbf75efed5deb5	4	1	main_slash	11	main_slash	125	stimuli_distractor_diamondtriangles.svg	stimuli_distractor_trianglediamonds.svg	38	no	0	1	2000	0	0			0	0			1				0	
6.6.1	win	2023-06-16	11:08:27	11:17:01	511369	61005ada2ffbf75efed5deb5	4	1	main_slash	11	advance_on_keypress_SLASH	126	stimuli_distractor_diamondtriangles.svg	stimuli_distractor_trianglediamonds.svg	38	no	57	0	174	0	0			0	0			1				0	
6.6.1	win	2023-06-16	11:08:27	11:17:03	512582	61005ada2ffbf75efed5deb5	4	1	main_slash	11	main_slash	127	stimuli_target_diamondrectangles.svg	stimuli_distractor_trianglediamonds.svg	19	yes	53	1	398	0	0			0	0			1				0	
6.6.1	win	2023-06-16	11:08:27	11:17:03	512582	61005ada2ffbf75efed5deb5	4	1	main_slash	11	advance_on_keypress_SLASH	128	stimuli_target_diamondrectangles.svg	stimuli_distractor_trianglediamonds.svg	19	yes	57	0	148	0	0			0	0			1				0	
6.6.1	win	2023-06-16	11:08:27	11:17:04	513639	61005ada2ffbf75efed5deb5	4	1	main_slash	11	main_slash	129	stimuli_distractor_trianglediamonds.svg	stimuli_target_squaretriangles.svg	11	yes	53	1	256	0	0			0	0			1				0	
6.6.1	win	2023-06-16	11:08:27	11:17:04	513639	61005ada2ffbf75efed5deb5	4	1	main_slash	11	advance_on_keypress_SLASH	130	stimuli_distractor_trianglediamonds.svg	stimuli_target_squaretriangles.svg	11	yes	57	0	152	0	0			0	0			1				0	
6.6.1	win	2023-06-16	11:08:27	11:17:05	514665	61005ada2ffbf75efed5deb5	4	1	main_slash	11	main_slash	131	stimuli_distractor_diamondtriangles.svg	stimuli_target_trianglerectangles.svg	29	yes	53	1	233	0	0			0	0			1				0	
6.6.1	win	2023-06-16	11:08:27	11:17:05	514665	61005ada2ffbf75efed5deb5	4	1	main_slash	11	advance_on_keypress_SLASH	132	stimuli_distractor_diamondtriangles.svg	stimuli_target_trianglerectangles.svg	29	yes	57	0	142	0	0			0	0			1				0	
6.6.1	win	2023-06-16	11:08:27	11:17:06	515807	61005ada2ffbf75efed5deb5	4	1	main_slash	11	main_slash	133	stimuli_distractor_trianglediamonds.svg	stimuli_target_trianglerectangles.svg	25	yes	53	1	359	0	0			0	0			1				0	
6.6.1	win	2023-06-16	11:08:27	11:17:06	515807	61005ada2ffbf75efed5deb5	4	1	main_slash	11	advance_on_keypress_SLASH	134	stimuli_distractor_trianglediamonds.svg	stimuli_target_trianglerectangles.svg	25	yes	57	0	107	0	0			0	0			1				0	
6.6.1	win	2023-06-16	11:08:27	11:17:07	516859	61005ada2ffbf75efed5deb5	4	1	main_slash	11	main_slash	135	stimuli_distractor_trianglediamonds.svg	stimuli_target_squarediamonds.svg	12	yes	53	1	312	0	0			0	0			1				0	
6.6.1	win	2023-06-16	11:08:27	11:17:07	516859	61005ada2ffbf75efed5deb5	4	1	main_slash	11	advance_on_keypress_SLASH	136	stimuli_distractor_trianglediamonds.svg	stimuli_target_squarediamonds.svg	12	yes	57	0	99	0	0			0	0			1				0	
6.6.1	win	2023-06-16	11:08:27	11:17:08	517916	61005ada2ffbf75efed5deb5	4	1	main_slash	11	main_slash	137	stimuli_distractor_diamondtriangles.svg	stimuli_target_trianglesquares.svg	30	yes	53	1	303	0	0			0	0			1				0	
6.6.1	win	2023-06-16	11:08:27	11:17:08	517916	61005ada2ffbf75efed5deb5	4	1	main_slash	11	advance_on_keypress_SLASH	138	stimuli_distractor_diamondtriangles.svg	stimuli_target_trianglesquares.svg	30	yes	57	0	106	0	0			0	0			1				0	
6.6.1	win	2023-06-16	11:08:27	11:17:09	518969	61005ada2ffbf75efed5deb5	4	1	main_slash	11	main_slash	139	stimuli_distractor_trianglediamonds.svg	stimuli_target_diamondrectangles.svg	27	yes	53	1	306	0	0			0	0			1				0	
6.6.1	win	2023-06-16	11:08:27	11:17:09	518969	61005ada2ffbf75efed5deb5	4	1	main_slash	11	advance_on_keypress_SLASH	140	stimuli_distractor_trianglediamonds.svg	stimuli_target_diamondrectangles.svg	27	yes	57	0	100	0	0			0	0			1				0	
6.6.1	win	2023-06-16	11:08:27	11:17:10	520277	61005ada2ffbf75efed5deb5	4	1	main_slash	11	main_slash	141	stimuli_target_squaretriangles.svg	stimuli_distractor_trianglediamonds.svg	3	yes	53	1	566	0	0			0	0			1				0	
6.6.1	win	2023-06-16	11:08:27	11:17:10	520277	61005ada2ffbf75efed5deb5	4	1	main_slash	11	advance_on_keypress_SLASH	142	stimuli_target_squaretriangles.svg	stimuli_distractor_trianglediamonds.svg	3	yes	57	0	78	0	0			0	0			1				0	
6.6.1	win	2023-06-16	11:08:27	11:17:13	522993	61005ada2ffbf75efed5deb5	4	1	main_slash	11	main_slash	143	stimuli_distractor_trianglediamonds.svg	stimuli_distractor_diamondtriangles.svg	35	no	0	1	2000	0	0			0	0			1				0	
6.6.1	win	2023-06-16	11:08:27	11:17:13	522993	61005ada2ffbf75efed5deb5	4	1	main_slash	11	advance_on_keypress_SLASH	144	stimuli_distractor_trianglediamonds.svg	stimuli_distractor_diamondtriangles.svg	35	no	57	0	171	0	0			0	0			1				0	
6.6.1	win	2023-06-16	11:08:27	11:17:14	524267	61005ada2ffbf75efed5deb5	4	1	main_slash	11	main_slash	145	stimuli_distractor_diamondtriangles.svg	stimuli_target_diamondrectangles.svg	31	yes	53	1	459	0	0			0	0			1				0	
6.6.1	win	2023-06-16	11:08:27	11:17:14	524267	61005ada2ffbf75efed5deb5	4	1	main_slash	11	advance_on_keypress_SLASH	146	stimuli_distractor_diamondtriangles.svg	stimuli_target_diamondrectangles.svg	31	yes	57	0	217	0	0			0	0			1				0	
6.6.1	win	2023-06-16	11:08:27	11:17:15	525361	61005ada2ffbf75efed5deb5	4	1	main_slash	11	main_slash	147	stimuli_target_squarediamonds.svg	stimuli_distractor_trianglediamonds.svg	4	yes	53	1	237	0	0			0	0			1				0	
6.6.1	win	2023-06-16	11:08:27	11:17:15	525361	61005ada2ffbf75efed5deb5	4	1	main_slash	11	advance_on_keypress_SLASH	148	stimuli_target_squarediamonds.svg	stimuli_distractor_trianglediamonds.svg	4	yes	57	0	222	0	0			0	0			1				0	
6.6.1	win	2023-06-16	11:08:27	11:17:17	526468	61005ada2ffbf75efed5deb5	4	1	main_slash	11	main_slash	149	stimuli_target_diamondrectangles.svg	stimuli_distractor_diamondtriangles.svg	23	yes	53	1	245	0	0			0	0			1				0	
6.6.1	win	2023-06-16	11:08:27	11:17:17	526468	61005ada2ffbf75efed5deb5	4	1	main_slash	11	advance_on_keypress_SLASH	150	stimuli_target_diamondrectangles.svg	stimuli_distractor_diamondtriangles.svg	23	yes	57	0	266	0	0			0	0			1				0	
6.6.1	win	2023-06-16	11:08:27	11:17:19	529389	61005ada2ffbf75efed5deb5	4	1	main_slash	11	main_slash	151	stimuli_distractor_diamondtriangles.svg	stimuli_distractor_trianglediamonds.svg	37	no	0	1	2000	0	0			0	0			1				0	
6.6.1	win	2023-06-16	11:08:27	11:17:19	529389	61005ada2ffbf75efed5deb5	4	1	main_slash	11	advance_on_keypress_SLASH	152	stimuli_distractor_diamondtriangles.svg	stimuli_distractor_trianglediamonds.svg	37	no	57	0	272	0	0			0	0			1				0	
6.6.1	win	2023-06-16	11:08:27	11:17:21	530635	61005ada2ffbf75efed5deb5	4	1	main_slash	11	main_slash	153	stimuli_distractor_diamondtriangles.svg	stimuli_target_squaretriangles.svg	15	yes	53	1	333	0	0			0	0			1				0	
6.6.1	win	2023-06-16	11:08:27	11:17:21	530635	61005ada2ffbf75efed5deb5	4	1	main_slash	11	advance_on_keypress_SLASH	154	stimuli_distractor_diamondtriangles.svg	stimuli_target_squaretriangles.svg	15	yes	57	0	201	0	0			0	0			1				0	
6.6.1	win	2023-06-16	11:08:27	11:17:22	531736	61005ada2ffbf75efed5deb5	4	1	main_slash	11	main_slash	155	stimuli_target_rectangletriangles.svg	stimuli_distractor_diamondtriangles.svg	5	yes	53	1	251	0	0			0	0			1				0	
6.6.1	win	2023-06-16	11:08:27	11:17:22	531736	61005ada2ffbf75efed5deb5	4	1	main_slash	11	advance_on_keypress_SLASH	156	stimuli_target_rectangletriangles.svg	stimuli_distractor_diamondtriangles.svg	5	yes	57	0	158	0	0			0	0			1				0	
6.6.1	win	2023-06-16	11:08:27	11:17:23	532787	61005ada2ffbf75efed5deb5	4	1	main_slash	11	main_slash	157	stimuli_target_trianglesquares.svg	stimuli_distractor_trianglediamonds.svg	18	yes	53	1	253	0	0			0	0			1				0	
6.6.1	win	2023-06-16	11:08:27	11:17:23	532787	61005ada2ffbf75efed5deb5	4	1	main_slash	11	advance_on_keypress_SLASH	158	stimuli_target_trianglesquares.svg	stimuli_distractor_trianglediamonds.svg	18	yes	57	0	229	0	0			0	0			1				0	
6.6.1	win	2023-06-16	11:08:27	11:17:24	533997	61005ada2ffbf75efed5deb5	4	1	main_slash	11	main_slash	159	stimuli_target_diamondsquares.svg	stimuli_distractor_trianglediamonds.svg	20	yes	53	1	331	0	0			0	0			1				0	
6.6.1	win	2023-06-16	11:08:27	11:17:24	533997	61005ada2ffbf75efed5deb5	4	1	main_slash	11	advance_on_keypress_SLASH	160	stimuli_target_diamondsquares.svg	stimuli_distractor_trianglediamonds.svg	20	yes	57	0	195	0	0			0	0			1				0	
6.6.1	win	2023-06-16	11:08:27	11:17:24	533997	61005ada2ffbf75efed5deb5	4	1	headphonecheck_calibration	14	headphonecheck_calibrationIntro	1	stimuli_target_diamondsquares.svg	stimuli_distractor_trianglediamonds.svg	20	yes	calibrationButton	0	5080	0	0			0	0			1				0	
6.6.1	win	2023-06-16	11:08:27	11:17:24	533997	61005ada2ffbf75efed5deb5	4	1	headphonecheck_testphase	15	test_collectResponse	3	stimuli_target_diamondsquares.svg	stimuli_distractor_trianglediamonds.svg	20	yes	first	0	1941	1	5	antiphase_hc_osi.wav	2	0	0			1				0	
6.6.1	win	2023-06-16	11:08:27	11:17:24	533997	61005ada2ffbf75efed5deb5	4	1	headphonecheck_testphase	15	test_collectResponse	6	stimuli_target_diamondsquares.svg	stimuli_distractor_trianglediamonds.svg	20	yes	first	0	1092	2	6	antiphase_hc_ois.wav	3	0	0			1				0	
6.6.1	win	2023-06-16	11:08:27	11:17:24	533997	61005ada2ffbf75efed5deb5	4	1	headphonecheck_testphase	15	test_collectResponse	9	stimuli_target_diamondsquares.svg	stimuli_distractor_trianglediamonds.svg	20	yes	third	0	249	3	1	antiphase_hc_iso.wav	2	0	0			1				0	
6.6.1	win	2023-06-16	11:08:27	11:17:24	533997	61005ada2ffbf75efed5deb5	4	1	headphonecheck_testphase	15	test_collectResponse	12	stimuli_target_diamondsquares.svg	stimuli_distractor_trianglediamonds.svg	20	yes	third	0	437	4	4	antiphase_hc_sio.wav	1	0	0			1				0	
6.6.1	win	2023-06-16	11:08:27	11:17:24	533997	61005ada2ffbf75efed5deb5	4	1	headphonecheck_testphase	15	test_collectResponse	15	stimuli_target_diamondsquares.svg	stimuli_distractor_trianglediamonds.svg	20	yes	second	0	470	5	2	antiphase_hc_ios.wav	3	0	0			1				0	
6.6.1	win	2023-06-16	11:08:27	11:17:24	533997	61005ada2ffbf75efed5deb5	4	1	headphonecheck_testphase	15	test_collectResponse	18	stimuli_target_diamondsquares.svg	stimuli_distractor_trianglediamonds.svg	20	yes	second	0	311	6	3	antiphase_hc_soi.wav	1	0	0			1				0	
6.6.1	win	2023-06-16	11:08:27	11:17:24	533997	61005ada2ffbf75efed5deb5	4	1	stereocheck_calibration	17	stereocheck_calibrationIntro	1	stimuli_target_diamondsquares.svg	stimuli_distractor_trianglediamonds.svg	20	yes	stereocheck_calibrationButton	0	4663	6	3	antiphase_hc_soi.wav	1	0	0			1				0	
6.6.1	win	2023-06-16	11:08:27	11:17:24	533997	61005ada2ffbf75efed5deb5	4	1	stereocheck_testphase	18	stereocheck_test_collectResponse	3	stimuli_target_diamondsquares.svg	stimuli_distractor_trianglediamonds.svg	20	yes	stereocheck_right	1	888	6	3	antiphase_hc_soi.wav	1	1	4	noise_calib_stim_RIGHT.wav	2	1				0	
6.6.1	win	2023-06-16	11:08:27	11:17:24	533997	61005ada2ffbf75efed5deb5	4	1	stereocheck_testphase	18	stereocheck_test_collectResponse	6	stimuli_target_diamondsquares.svg	stimuli_distractor_trianglediamonds.svg	20	yes	stereocheck_left	1	289	6	3	antiphase_hc_soi.wav	1	2	3	noise_calib_stim_LEFT.wav	1	1				0	
6.6.1	win	2023-06-16	11:08:27	11:17:24	533997	61005ada2ffbf75efed5deb5	4	1	stereocheck_testphase	18	stereocheck_test_collectResponse	9	stimuli_target_diamondsquares.svg	stimuli_distractor_trianglediamonds.svg	20	yes	stereocheck_right	1	310	6	3	antiphase_hc_soi.wav	1	3	5	noise_calib_stim_RIGHT.wav	2	1				0	
6.6.1	win	2023-06-16	11:08:27	11:17:24	533997	61005ada2ffbf75efed5deb5	4	1	stereocheck_testphase	18	stereocheck_test_collectResponse	12	stimuli_target_diamondsquares.svg	stimuli_distractor_trianglediamonds.svg	20	yes	stereocheck_left	1	294	6	3	antiphase_hc_soi.wav	1	4	2	noise_calib_stim_LEFT.wav	1	1				0	
6.6.1	win	2023-06-16	11:08:27	11:17:24	533997	61005ada2ffbf75efed5deb5	4	1	stereocheck_testphase	18	stereocheck_test_collectResponse	15	stimuli_target_diamondsquares.svg	stimuli_distractor_trianglediamonds.svg	20	yes	stereocheck_right	1	294	6	3	antiphase_hc_soi.wav	1	5	6	noise_calib_stim_RIGHT.wav	2	1				0	
6.6.1	win	2023-06-16	11:08:27	11:17:24	533997	61005ada2ffbf75efed5deb5	4	1	stereocheck_testphase	18	stereocheck_test_collectResponse	18	stimuli_target_diamondsquares.svg	stimuli_distractor_trianglediamonds.svg	20	yes	stereocheck_left	1	275	6	3	antiphase_hc_soi.wav	1	6	1	noise_calib_stim_LEFT.wav	1	1				0	
6.6.1	win	2023-06-16	11:08:27	11:17:24	533997	61005ada2ffbf75efed5deb5	4	1	DL_practice	21	DL_practice	2	stimuli_target_diamondsquares.svg	stimuli_distractor_trianglediamonds.svg	20	yes	ka	1	1108	6	3	antiphase_hc_soi.wav	1	6	1	noise_calib_stim_LEFT.wav	1	22	blb_dichoticlistening_ka-ka.mp3	ka	ka	0	left
6.6.1	win	2023-06-16	11:08:27	11:17:24	533997	61005ada2ffbf75efed5deb5	4	1	DL_practice	21	DL_practice	3	stimuli_target_diamondsquares.svg	stimuli_distractor_trianglediamonds.svg	20	yes	ta	1	8161	6	3	antiphase_hc_soi.wav	1	6	1	noise_calib_stim_LEFT.wav	1	36	blb_dichoticlistening_ta-ta.mp3	ta	ta	0	left
6.6.1	win	2023-06-16	11:08:27	11:17:24	533997	61005ada2ffbf75efed5deb5	4	1	DL_practice	21	DL_practice	4	stimuli_target_diamondsquares.svg	stimuli_distractor_trianglediamonds.svg	20	yes	ta	1	31438	6	3	antiphase_hc_soi.wav	1	6	1	noise_calib_stim_LEFT.wav	1	18	blb_dichoticlistening_ga-ta.mp3	ga	ta	1	right
6.6.1	win	2023-06-16	11:08:27	11:17:24	533997	61005ada2ffbf75efed5deb5	4	1	DL_practice	21	DL_practice	5	stimuli_target_diamondsquares.svg	stimuli_distractor_trianglediamonds.svg	20	yes	ga	1	1083	6	3	antiphase_hc_soi.wav	1	6	1	noise_calib_stim_LEFT.wav	1	15	blb_dichoticlistening_ga-ga.mp3	ga	ga	0	left
6.6.1	win	2023-06-16	11:08:27	11:17:24	533997	61005ada2ffbf75efed5deb5	4	1	DL_practice	21	DL_practice	6	stimuli_target_diamondsquares.svg	stimuli_distractor_trianglediamonds.svg	20	yes	ba	1	2370	6	3	antiphase_hc_soi.wav	1	6	1	noise_calib_stim_LEFT.wav	1	1	blb_dichoticlistening_ba-ba.mp3	ba	ba	0	left
6.6.1	win	2023-06-16	11:08:27	11:17:24	533997	61005ada2ffbf75efed5deb5	4	1	DL_practice	21	DL_practice	7	stimuli_target_diamondsquares.svg	stimuli_distractor_trianglediamonds.svg	20	yes	ka	1	1069	6	3	antiphase_hc_soi.wav	1	6	1	noise_calib_stim_LEFT.wav	1	23	blb_dichoticlistening_ka-pa.mp3	ka	pa	1	left
6.6.1	win	2023-06-16	11:08:27	11:17:24	533997	61005ada2ffbf75efed5deb5	4	1	DL_practice	21	DL_practice	8	stimuli_target_diamondsquares.svg	stimuli_distractor_trianglediamonds.svg	20	yes	da	1	993	6	3	antiphase_hc_soi.wav	1	6	1	noise_calib_stim_LEFT.wav	1	8	blb_dichoticlistening_da-da.mp3	da	da	0	left
6.6.1	win	2023-06-16	11:08:27	11:17:24	533997	61005ada2ffbf75efed5deb5	4	1	DL_practice	21	DL_practice	9	stimuli_target_diamondsquares.svg	stimuli_distractor_trianglediamonds.svg	20	yes	ga	0	1797	6	3	antiphase_hc_soi.wav	1	6	1	noise_calib_stim_LEFT.wav	1	7	blb_dichoticlistening_da-ba.mp3	da	ba	1	other
6.6.1	win	2023-06-16	11:08:27	11:17:24	533997	61005ada2ffbf75efed5deb5	4	1	DL_practice	21	DL_practice	10	stimuli_target_diamondsquares.svg	stimuli_distractor_trianglediamonds.svg	20	yes	pa	1	960	6	3	antiphase_hc_soi.wav	1	6	1	noise_calib_stim_LEFT.wav	1	29	blb_dichoticlistening_pa-pa.mp3	pa	pa	0	left
6.6.1	win	2023-06-16	11:08:27	11:17:24	533997	61005ada2ffbf75efed5deb5	4	1	DL_test	23	DL_test	1	stimuli_target_diamondsquares.svg	stimuli_distractor_trianglediamonds.svg	20	yes	ga	0	823	6	3	antiphase_hc_soi.wav	1	6	1	noise_calib_stim_LEFT.wav	1	20	blb_dichoticlistening_ka-da.mp3	ka	da	1	other
6.6.1	win	2023-06-16	11:08:27	11:17:24	533997	61005ada2ffbf75efed5deb5	4	1	DL_test	23	DL_test	2	stimuli_target_diamondsquares.svg	stimuli_distractor_trianglediamonds.svg	20	yes	da	1	970	6	3	antiphase_hc_soi.wav	1	6	1	noise_calib_stim_LEFT.wav	1	8	blb_dichoticlistening_da-da.mp3	da	da	0	left
6.6.1	win	2023-06-16	11:08:27	11:17:24	533997	61005ada2ffbf75efed5deb5	4	1	DL_test	23	DL_test	3	stimuli_target_diamondsquares.svg	stimuli_distractor_trianglediamonds.svg	20	yes	ka	1	1177	6	3	antiphase_hc_soi.wav	1	6	1	noise_calib_stim_LEFT.wav	1	34	blb_dichoticlistening_ta-ka.mp3	ta	ka	1	right
6.6.1	win	2023-06-16	11:08:27	11:17:24	533997	61005ada2ffbf75efed5deb5	4	1	DL_test	23	DL_test	4	stimuli_target_diamondsquares.svg	stimuli_distractor_trianglediamonds.svg	20	yes	ga	1	998	6	3	antiphase_hc_soi.wav	1	6	1	noise_calib_stim_LEFT.wav	1	18	blb_dichoticlistening_ga-ta.mp3	ga	ta	1	left
6.6.1	win	2023-06-16	11:08:27	11:17:24	533997	61005ada2ffbf75efed5deb5	4	1	DL_test	23	DL_test	5	stimuli_target_diamondsquares.svg	stimuli_distractor_trianglediamonds.svg	20	yes	ba	1	1621	6	3	antiphase_hc_soi.wav	1	6	1	noise_calib_stim_LEFT.wav	1	2	blb_dichoticlistening_ba-da.mp3	ba	da	1	left
6.6.1	win	2023-06-16	11:08:27	11:17:24	533997	61005ada2ffbf75efed5deb5	4	1	DL_test	23	DL_test	6	stimuli_target_diamondsquares.svg	stimuli_distractor_trianglediamonds.svg	20	yes	da	1	757	6	3	antiphase_hc_soi.wav	1	6	1	noise_calib_stim_LEFT.wav	1	26	blb_dichoticlistening_pa-da.mp3	pa	da	1	right
6.6.1	win	2023-06-16	11:08:27	11:17:24	533997	61005ada2ffbf75efed5deb5	4	1	DL_test	23	DL_test	7	stimuli_target_diamondsquares.svg	stimuli_distractor_trianglediamonds.svg	20	yes	ba	1	1389	6	3	antiphase_hc_soi.wav	1	6	1	noise_calib_stim_LEFT.wav	1	13	blb_dichoticlistening_ga-ba.mp3	ga	ba	1	right
6.6.1	win	2023-06-16	11:08:27	11:17:24	533997	61005ada2ffbf75efed5deb5	4	1	DL_test	23	DL_test	8	stimuli_target_diamondsquares.svg	stimuli_distractor_trianglediamonds.svg	20	yes	ka	1	876	6	3	antiphase_hc_soi.wav	1	6	1	noise_calib_stim_LEFT.wav	1	28	blb_dichoticlistening_pa-ka.mp3	pa	ka	1	right
6.6.1	win	2023-06-16	11:08:27	11:17:24	533997	61005ada2ffbf75efed5deb5	4	1	DL_test	23	DL_test	9	stimuli_target_diamondsquares.svg	stimuli_distractor_trianglediamonds.svg	20	yes	ga	1	755	6	3	antiphase_hc_soi.wav	1	6	1	noise_calib_stim_LEFT.wav	1	21	blb_dichoticlistening_ka-ga.mp3	ka	ga	1	right
6.6.1	win	2023-06-16	11:08:27	11:17:24	533997	61005ada2ffbf75efed5deb5	4	1	DL_test	23	DL_test	10	stimuli_target_diamondsquares.svg	stimuli_distractor_trianglediamonds.svg	20	yes	ga	1	717	6	3	antiphase_hc_soi.wav	1	6	1	noise_calib_stim_LEFT.wav	1	17	blb_dichoticlistening_ga-pa.mp3	ga	pa	1	left
6.6.1	win	2023-06-16	11:08:27	11:17:24	533997	61005ada2ffbf75efed5deb5	4	1	DL_test	23	DL_test	11	stimuli_target_diamondsquares.svg	stimuli_distractor_trianglediamonds.svg	20	yes	da	1	994	6	3	antiphase_hc_soi.wav	1	6	1	noise_calib_stim_LEFT.wav	1	10	blb_dichoticlistening_da-ka.mp3	da	ka	1	left
6.6.1	win	2023-06-16	11:08:27	11:17:24	533997	61005ada2ffbf75efed5deb5	4	1	DL_test	23	DL_test	12	stimuli_target_diamondsquares.svg	stimuli_distractor_trianglediamonds.svg	20	yes	ta	1	1098	6	3	antiphase_hc_soi.wav	1	6	1	noise_calib_stim_LEFT.wav	1	6	blb_dichoticlistening_ba-ta.mp3	ba	ta	1	right
6.6.1	win	2023-06-16	11:08:27	11:17:24	533997	61005ada2ffbf75efed5deb5	4	1	DL_test	23	DL_test	13	stimuli_target_diamondsquares.svg	stimuli_distractor_trianglediamonds.svg	20	yes	da	1	1269	6	3	antiphase_hc_soi.wav	1	6	1	noise_calib_stim_LEFT.wav	1	11	blb_dichoticlistening_da-pa.mp3	da	pa	1	left
6.6.1	win	2023-06-16	11:08:27	11:17:24	533997	61005ada2ffbf75efed5deb5	4	1	DL_test	23	DL_test	14	stimuli_target_diamondsquares.svg	stimuli_distractor_trianglediamonds.svg	20	yes	ba	1	757	6	3	antiphase_hc_soi.wav	1	6	1	noise_calib_stim_LEFT.wav	1	19	blb_dichoticlistening_ka-ba.mp3	ka	ba	1	right
6.6.1	win	2023-06-16	11:08:27	11:17:24	533997	61005ada2ffbf75efed5deb5	4	1	DL_test	23	DL_test	15	stimuli_target_diamondsquares.svg	stimuli_distractor_trianglediamonds.svg	20	yes	da	1	781	6	3	antiphase_hc_soi.wav	1	6	1	noise_calib_stim_LEFT.wav	1	12	blb_dichoticlistening_da-ta.mp3	da	ta	1	left
6.6.1	win	2023-06-16	11:08:27	11:17:24	533997	61005ada2ffbf75efed5deb5	4	1	DL_test	23	DL_test	16	stimuli_target_diamondsquares.svg	stimuli_distractor_trianglediamonds.svg	20	yes	ga	1	720	6	3	antiphase_hc_soi.wav	1	6	1	noise_calib_stim_LEFT.wav	1	9	blb_dichoticlistening_da-ga.mp3	da	ga	1	right
6.6.1	win	2023-06-16	11:08:27	11:17:24	533997	61005ada2ffbf75efed5deb5	4	1	DL_test	23	DL_test	17	stimuli_target_diamondsquares.svg	stimuli_distractor_trianglediamonds.svg	20	yes	ta	1	1139	6	3	antiphase_hc_soi.wav	1	6	1	noise_calib_stim_LEFT.wav	1	36	blb_dichoticlistening_ta-ta.mp3	ta	ta	0	left
6.6.1	win	2023-06-16	11:08:27	11:17:24	533997	61005ada2ffbf75efed5deb5	4	1	DL_test	23	DL_test	18	stimuli_target_diamondsquares.svg	stimuli_distractor_trianglediamonds.svg	20	yes	pa	1	1007	6	3	antiphase_hc_soi.wav	1	6	1	noise_calib_stim_LEFT.wav	1	29	blb_dichoticlistening_pa-pa.mp3	pa	pa	0	left
6.6.1	win	2023-06-16	11:08:27	11:17:24	533997	61005ada2ffbf75efed5deb5	4	1	DL_test	23	DL_test	19	stimuli_target_diamondsquares.svg	stimuli_distractor_trianglediamonds.svg	20	yes	ga	1	840	6	3	antiphase_hc_soi.wav	1	6	1	noise_calib_stim_LEFT.wav	1	16	blb_dichoticlistening_ga-ka.mp3	ga	ka	1	left
6.6.1	win	2023-06-16	11:08:27	11:17:24	533997	61005ada2ffbf75efed5deb5	4	1	DL_test	23	DL_test	20	stimuli_target_diamondsquares.svg	stimuli_distractor_trianglediamonds.svg	20	yes	ta	1	1579	6	3	antiphase_hc_soi.wav	1	6	1	noise_calib_stim_LEFT.wav	1	35	blb_dichoticlistening_ta-pa.mp3	ta	pa	1	left
6.6.1	win	2023-06-16	11:08:27	11:17:24	533997	61005ada2ffbf75efed5deb5	4	1	DL_test	23	DL_test	21	stimuli_target_diamondsquares.svg	stimuli_distractor_trianglediamonds.svg	20	yes	ba	1	1053	6	3	antiphase_hc_soi.wav	1	6	1	noise_calib_stim_LEFT.wav	1	5	blb_dichoticlistening_ba-pa.mp3	ba	pa	1	left
6.6.1	win	2023-06-16	11:08:27	11:17:24	533997	61005ada2ffbf75efed5deb5	4	1	DL_test	23	DL_test	22	stimuli_target_diamondsquares.svg	stimuli_distractor_trianglediamonds.svg	20	yes	ga	1	851	6	3	antiphase_hc_soi.wav	1	6	1	noise_calib_stim_LEFT.wav	1	15	blb_dichoticlistening_ga-ga.mp3	ga	ga	0	left
6.6.1	win	2023-06-16	11:08:27	11:17:24	533997	61005ada2ffbf75efed5deb5	4	1	DL_test	23	DL_test	23	stimuli_target_diamondsquares.svg	stimuli_distractor_trianglediamonds.svg	20	yes	ba	1	1516	6	3	antiphase_hc_soi.wav	1	6	1	noise_calib_stim_LEFT.wav	1	25	blb_dichoticlistening_pa-ba.mp3	pa	ba	1	right
6.6.1	win	2023-06-16	11:08:27	11:17:24	533997	61005ada2ffbf75efed5deb5	4	1	DL_test	23	DL_test	24	stimuli_target_diamondsquares.svg	stimuli_distractor_trianglediamonds.svg	20	yes	ka	1	989	6	3	antiphase_hc_soi.wav	1	6	1	noise_calib_stim_LEFT.wav	1	23	blb_dichoticlistening_ka-pa.mp3	ka	pa	1	left
6.6.1	win	2023-06-16	11:08:27	11:17:24	533997	61005ada2ffbf75efed5deb5	4	1	DL_test	23	DL_test	25	stimuli_target_diamondsquares.svg	stimuli_distractor_trianglediamonds.svg	20	yes	ka	1	136	6	3	antiphase_hc_soi.wav	1	6	1	noise_calib_stim_LEFT.wav	1	22	blb_dichoticlistening_ka-ka.mp3	ka	ka	0	left
6.6.1	win	2023-06-16	11:08:27	11:17:24	533997	61005ada2ffbf75efed5deb5	4	1	DL_test	23	DL_test	26	stimuli_target_diamondsquares.svg	stimuli_distractor_trianglediamonds.svg	20	yes	ba	1	1184	6	3	antiphase_hc_soi.wav	1	6	1	noise_calib_stim_LEFT.wav	1	7	blb_dichoticlistening_da-ba.mp3	da	ba	1	right
