build	computer.platform	date	time	timestamp	time_elapsed_ms	subject	group	session	blockcode	blocknum	trialcode	trialnum	stimulus_left	stimulus_right	stim_index	target_present	response	correct	latency	headphonecheck_countTestTrials	headphonecheck_index	headphonecheck_testSound	headphonecheck_correctResponse	stereocheck_countTestTrials	stereocheck_index	stereocheck_testSound	stereocheck_correctResponse	DL_index	DL_soundfile	DL_leftSound	DL_rightSound	DL_dualSound	DL_choice
6.6.1	win	2023-06-13	14:17:58	14:23:38	337462	60873d2ab16643e5a08cafd2	3	1	practice_slash	5	practice_slash	1	stimuli_target_diamondsquares.svg	stimuli_distractor_trianglediamonds.svg	6	yes	0	0	2000	0	0			0	0			1				0	
6.6.1	win	2023-06-13	14:17:58	14:23:38	337462	60873d2ab16643e5a08cafd2	3	1	practice_slash	5	advance_on_keypress_SLASH	2	stimuli_target_diamondsquares.svg	stimuli_distractor_trianglediamonds.svg	6	yes	57	0	531	0	0			0	0			1				0	
6.6.1	win	2023-06-13	14:17:58	14:23:40	339999	60873d2ab16643e5a08cafd2	3	1	practice_slash	5	practice_slash	3	stimuli_target_squarediamonds.svg	stimuli_distractor_trianglediamonds.svg	5	yes	53	1	356	0	0			0	0			1				0	
6.6.1	win	2023-06-13	14:17:58	14:23:40	339999	60873d2ab16643e5a08cafd2	3	1	practice_slash	5	advance_on_keypress_SLASH	4	stimuli_target_squarediamonds.svg	stimuli_distractor_trianglediamonds.svg	5	yes	57	0	630	0	0			0	0			1				0	
6.6.1	win	2023-06-13	14:17:58	14:23:44	344276	60873d2ab16643e5a08cafd2	3	1	practice_slash	5	practice_slash	5	stimuli_distractor_diamondtriangles.svg	stimuli_target_diamondrectangles.svg	8	yes	0	0	2000	0	0			0	0			1				0	
6.6.1	win	2023-06-13	14:17:58	14:23:44	344276	60873d2ab16643e5a08cafd2	3	1	practice_slash	5	advance_on_keypress_SLASH	6	stimuli_distractor_diamondtriangles.svg	stimuli_target_diamondrectangles.svg	8	yes	57	0	764	0	0			0	0			1				0	
6.6.1	win	2023-06-13	14:17:58	14:23:47	347216	60873d2ab16643e5a08cafd2	3	1	practice_slash	5	practice_slash	7	stimuli_distractor_diamondtriangles.svg	stimuli_target_rectangletriangles.svg	7	yes	53	1	525	0	0			0	0			1				0	
6.6.1	win	2023-06-13	14:17:58	14:23:47	347216	60873d2ab16643e5a08cafd2	3	1	practice_slash	5	advance_on_keypress_SLASH	8	stimuli_distractor_diamondtriangles.svg	stimuli_target_rectangletriangles.svg	7	yes	57	0	600	0	0			0	0			1				0	
6.6.1	win	2023-06-13	14:17:58	14:23:50	349976	60873d2ab16643e5a08cafd2	3	1	practice_slash	5	practice_slash	9	stimuli_distractor_diamondtriangles.svg	stimuli_target_trianglerectangles.svg	9	yes	53	1	519	0	0			0	0			1				0	
6.6.1	win	2023-06-13	14:17:58	14:23:50	349976	60873d2ab16643e5a08cafd2	3	1	practice_slash	5	advance_on_keypress_SLASH	10	stimuli_distractor_diamondtriangles.svg	stimuli_target_trianglerectangles.svg	9	yes	57	0	458	0	0			0	0			1				0	
6.6.1	win	2023-06-13	14:17:58	14:23:54	354073	60873d2ab16643e5a08cafd2	3	1	practice_slash	5	practice_slash	11	stimuli_distractor_trianglediamonds.svg	stimuli_distractor_trianglediamonds.svg	15	no	0	1	2000	0	0			0	0			1				0	
6.6.1	win	2023-06-13	14:17:58	14:23:54	354073	60873d2ab16643e5a08cafd2	3	1	practice_slash	5	advance_on_keypress_SLASH	12	stimuli_distractor_trianglediamonds.svg	stimuli_distractor_trianglediamonds.svg	15	no	57	0	671	0	0			0	0			1				0	
6.6.1	win	2023-06-13	14:17:58	14:23:57	357072	60873d2ab16643e5a08cafd2	3	1	practice_slash	5	practice_slash	13	stimuli_distractor_trianglediamonds.svg	stimuli_target_diamondrectangles.svg	12	yes	53	1	684	0	0			0	0			1				0	
6.6.1	win	2023-06-13	14:17:58	14:23:57	357072	60873d2ab16643e5a08cafd2	3	1	practice_slash	5	advance_on_keypress_SLASH	14	stimuli_distractor_trianglediamonds.svg	stimuli_target_diamondrectangles.svg	12	yes	57	0	456	0	0			0	0			1				0	
6.6.1	win	2023-06-13	14:17:58	14:24:00	360360	60873d2ab16643e5a08cafd2	3	1	practice_slash	5	practice_slash	15	stimuli_target_squarediamonds.svg	stimuli_distractor_diamondtriangles.svg	2	yes	53	1	1189	0	0			0	0			1				0	
6.6.1	win	2023-06-13	14:17:58	14:24:00	360360	60873d2ab16643e5a08cafd2	3	1	practice_slash	5	advance_on_keypress_SLASH	16	stimuli_target_squarediamonds.svg	stimuli_distractor_diamondtriangles.svg	2	yes	57	0	422	0	0			0	0			1				0	
6.6.1	win	2023-06-13	14:17:58	14:24:03	363343	60873d2ab16643e5a08cafd2	3	1	practice_slash	5	practice_slash	17	stimuli_distractor_diamondtriangles.svg	stimuli_distractor_trianglediamonds.svg	14	no	53	0	924	0	0			0	0			1				0	
6.6.1	win	2023-06-13	14:17:58	14:24:03	363343	60873d2ab16643e5a08cafd2	3	1	practice_slash	5	advance_on_keypress_SLASH	18	stimuli_distractor_diamondtriangles.svg	stimuli_distractor_trianglediamonds.svg	14	no	57	0	432	0	0			0	0			1				0	
6.6.1	win	2023-06-13	14:17:58	14:24:08	367418	60873d2ab16643e5a08cafd2	3	1	practice_slash	5	practice_slash	19	stimuli_distractor_trianglediamonds.svg	stimuli_distractor_diamondtriangles.svg	16	no	0	1	2000	0	0			0	0			1				0	
6.6.1	win	2023-06-13	14:17:58	14:24:08	367418	60873d2ab16643e5a08cafd2	3	1	practice_slash	5	advance_on_keypress_SLASH	20	stimuli_distractor_trianglediamonds.svg	stimuli_distractor_diamondtriangles.svg	16	no	57	0	406	0	0			0	0			1				0	
6.6.1	win	2023-06-13	14:17:58	14:24:10	370295	60873d2ab16643e5a08cafd2	3	1	practice_slash	5	practice_slash	21	stimuli_distractor_trianglediamonds.svg	stimuli_target_rectanglediamonds.svg	10	yes	53	1	829	0	0			0	0			1				0	
6.6.1	win	2023-06-13	14:17:58	14:24:10	370295	60873d2ab16643e5a08cafd2	3	1	practice_slash	5	advance_on_keypress_SLASH	22	stimuli_distractor_trianglediamonds.svg	stimuli_target_rectanglediamonds.svg	10	yes	57	0	476	0	0			0	0			1				0	
6.6.1	win	2023-06-13	14:17:58	14:24:13	373367	60873d2ab16643e5a08cafd2	3	1	practice_slash	5	practice_slash	23	stimuli_distractor_trianglediamonds.svg	stimuli_target_squarediamonds.svg	11	yes	53	1	968	0	0			0	0			1				0	
6.6.1	win	2023-06-13	14:17:58	14:24:13	373367	60873d2ab16643e5a08cafd2	3	1	practice_slash	5	advance_on_keypress_SLASH	24	stimuli_distractor_trianglediamonds.svg	stimuli_target_squarediamonds.svg	11	yes	57	0	394	0	0			0	0			1				0	
6.6.1	win	2023-06-13	14:17:58	14:24:17	376480	60873d2ab16643e5a08cafd2	3	1	practice_slash	5	practice_slash	25	stimuli_target_rectanglediamonds.svg	stimuli_distractor_trianglediamonds.svg	4	yes	53	1	1081	0	0			0	0			1				0	
6.6.1	win	2023-06-13	14:17:58	14:24:17	376480	60873d2ab16643e5a08cafd2	3	1	practice_slash	5	advance_on_keypress_SLASH	26	stimuli_target_rectanglediamonds.svg	stimuli_distractor_trianglediamonds.svg	4	yes	57	0	350	0	0			0	0			1				0	
6.6.1	win	2023-06-13	14:17:58	14:24:19	379224	60873d2ab16643e5a08cafd2	3	1	practice_slash	5	practice_slash	27	stimuli_target_diamondsquares.svg	stimuli_distractor_diamondtriangles.svg	3	yes	53	1	743	0	0			0	0			1				0	
6.6.1	win	2023-06-13	14:17:58	14:24:19	379224	60873d2ab16643e5a08cafd2	3	1	practice_slash	5	advance_on_keypress_SLASH	28	stimuli_target_diamondsquares.svg	stimuli_distractor_diamondtriangles.svg	3	yes	57	0	410	0	0			0	0			1				0	
6.6.1	win	2023-06-13	14:17:58	14:24:23	382720	60873d2ab16643e5a08cafd2	3	1	practice_slash	5	practice_slash	29	stimuli_target_rectanglediamonds.svg	stimuli_distractor_diamondtriangles.svg	1	yes	53	1	1457	0	0			0	0			1				0	
6.6.1	win	2023-06-13	14:17:58	14:24:23	382720	60873d2ab16643e5a08cafd2	3	1	practice_slash	5	advance_on_keypress_SLASH	30	stimuli_target_rectanglediamonds.svg	stimuli_distractor_diamondtriangles.svg	1	yes	57	0	431	0	0			0	0			1				0	
6.6.1	win	2023-06-13	14:17:58	14:24:27	386795	60873d2ab16643e5a08cafd2	3	1	practice_slash	5	practice_slash	31	stimuli_distractor_diamondtriangles.svg	stimuli_distractor_diamondtriangles.svg	13	no	0	1	2000	0	0			0	0			1				0	
6.6.1	win	2023-06-13	14:17:58	14:24:27	386795	60873d2ab16643e5a08cafd2	3	1	practice_slash	5	advance_on_keypress_SLASH	32	stimuli_distractor_diamondtriangles.svg	stimuli_distractor_diamondtriangles.svg	13	no	57	0	341	0	0			0	0			1				0	
6.6.1	win	2023-06-13	14:17:58	14:26:25	504966	60873d2ab16643e5a08cafd2	3	1	main_slash	7	main_slash	1	stimuli_distractor_diamondtriangles.svg	stimuli_target_rectanglediamonds.svg	14	yes	53	1	462	0	0			0	0			1				0	
6.6.1	win	2023-06-13	14:17:58	14:26:25	504966	60873d2ab16643e5a08cafd2	3	1	main_slash	7	advance_on_keypress_SLASH	2	stimuli_distractor_diamondtriangles.svg	stimuli_target_rectanglediamonds.svg	14	yes	57	0	907	0	0			0	0			1				0	
6.6.1	win	2023-06-13	14:17:58	14:26:27	507036	60873d2ab16643e5a08cafd2	3	1	main_slash	7	main_slash	3	stimuli_target_squaretriangles.svg	stimuli_distractor_trianglediamonds.svg	3	yes	53	1	511	0	0			0	0			1				0	
6.6.1	win	2023-06-13	14:17:58	14:26:27	507036	60873d2ab16643e5a08cafd2	3	1	main_slash	7	advance_on_keypress_SLASH	4	stimuli_target_squaretriangles.svg	stimuli_distractor_trianglediamonds.svg	3	yes	57	0	768	0	0			0	0			1				0	
6.6.1	win	2023-06-13	14:17:58	14:26:29	508950	60873d2ab16643e5a08cafd2	3	1	main_slash	7	main_slash	5	stimuli_target_squarediamonds.svg	stimuli_distractor_trianglediamonds.svg	4	yes	53	1	497	0	0			0	0			1				0	
6.6.1	win	2023-06-13	14:17:58	14:26:29	508950	60873d2ab16643e5a08cafd2	3	1	main_slash	7	advance_on_keypress_SLASH	6	stimuli_target_squarediamonds.svg	stimuli_distractor_trianglediamonds.svg	4	yes	57	0	645	0	0			0	0			1				0	
6.6.1	win	2023-06-13	14:17:58	14:26:31	510719	60873d2ab16643e5a08cafd2	3	1	main_slash	7	main_slash	7	stimuli_target_trianglerectangles.svg	stimuli_distractor_diamondtriangles.svg	21	yes	53	1	483	0	0			0	0			1				0	
6.6.1	win	2023-06-13	14:17:58	14:26:31	510719	60873d2ab16643e5a08cafd2	3	1	main_slash	7	advance_on_keypress_SLASH	8	stimuli_target_trianglerectangles.svg	stimuli_distractor_diamondtriangles.svg	21	yes	57	0	687	0	0			0	0			1				0	
6.6.1	win	2023-06-13	14:17:58	14:26:33	512646	60873d2ab16643e5a08cafd2	3	1	main_slash	7	main_slash	9	stimuli_distractor_diamondtriangles.svg	stimuli_target_diamondrectangles.svg	31	yes	53	1	594	0	0			0	0			1				0	
6.6.1	win	2023-06-13	14:17:58	14:26:33	512646	60873d2ab16643e5a08cafd2	3	1	main_slash	7	advance_on_keypress_SLASH	10	stimuli_distractor_diamondtriangles.svg	stimuli_target_diamondrectangles.svg	31	yes	57	0	571	0	0			0	0			1				0	
6.6.1	win	2023-06-13	14:17:58	14:26:35	514662	60873d2ab16643e5a08cafd2	3	1	main_slash	7	main_slash	11	stimuli_target_rectangletriangles.svg	stimuli_distractor_trianglediamonds.svg	1	yes	53	1	812	0	0			0	0			1				0	
6.6.1	win	2023-06-13	14:17:58	14:26:35	514662	60873d2ab16643e5a08cafd2	3	1	main_slash	7	advance_on_keypress_SLASH	12	stimuli_target_rectangletriangles.svg	stimuli_distractor_trianglediamonds.svg	1	yes	57	0	515	0	0			0	0			1				0	
6.6.1	win	2023-06-13	14:17:58	14:26:37	516390	60873d2ab16643e5a08cafd2	3	1	main_slash	7	main_slash	13	stimuli_target_trianglesquares.svg	stimuli_distractor_diamondtriangles.svg	22	yes	53	1	573	0	0			0	0			1				0	
6.6.1	win	2023-06-13	14:17:58	14:26:37	516390	60873d2ab16643e5a08cafd2	3	1	main_slash	7	advance_on_keypress_SLASH	14	stimuli_target_trianglesquares.svg	stimuli_distractor_diamondtriangles.svg	22	yes	57	0	527	0	0			0	0			1				0	
6.6.1	win	2023-06-13	14:17:58	14:26:38	518182	60873d2ab16643e5a08cafd2	3	1	main_slash	7	main_slash	15	stimuli_distractor_trianglediamonds.svg	stimuli_target_rectanglediamonds.svg	10	yes	53	1	632	0	0			0	0			1				0	
6.6.1	win	2023-06-13	14:17:58	14:26:38	518182	60873d2ab16643e5a08cafd2	3	1	main_slash	7	advance_on_keypress_SLASH	16	stimuli_distractor_trianglediamonds.svg	stimuli_target_rectanglediamonds.svg	10	yes	57	0	431	0	0			0	0			1				0	
6.6.1	win	2023-06-13	14:17:58	14:26:41	521266	60873d2ab16643e5a08cafd2	3	1	main_slash	7	main_slash	17	stimuli_distractor_diamondtriangles.svg	stimuli_distractor_diamondtriangles.svg	40	no	0	1	2000	0	0			0	0			1				0	
6.6.1	win	2023-06-13	14:17:58	14:26:41	521266	60873d2ab16643e5a08cafd2	3	1	main_slash	7	advance_on_keypress_SLASH	18	stimuli_distractor_diamondtriangles.svg	stimuli_distractor_diamondtriangles.svg	40	no	57	0	348	0	0			0	0			1				0	
6.6.1	win	2023-06-13	14:17:58	14:26:44	524265	60873d2ab16643e5a08cafd2	3	1	main_slash	7	main_slash	19	stimuli_distractor_trianglediamonds.svg	stimuli_distractor_diamondtriangles.svg	35	no	0	1	2000	0	0			0	0			1				0	
6.6.1	win	2023-06-13	14:17:58	14:26:44	524265	60873d2ab16643e5a08cafd2	3	1	main_slash	7	advance_on_keypress_SLASH	20	stimuli_distractor_trianglediamonds.svg	stimuli_distractor_diamondtriangles.svg	35	no	57	0	397	0	0			0	0			1				0	
6.6.1	win	2023-06-13	14:17:58	14:26:46	525863	60873d2ab16643e5a08cafd2	3	1	main_slash	7	main_slash	21	stimuli_target_diamondsquares.svg	stimuli_distractor_trianglediamonds.svg	20	yes	53	1	549	0	0			0	0			1				0	
6.6.1	win	2023-06-13	14:17:58	14:26:46	525863	60873d2ab16643e5a08cafd2	3	1	main_slash	7	advance_on_keypress_SLASH	22	stimuli_target_diamondsquares.svg	stimuli_distractor_trianglediamonds.svg	20	yes	57	0	502	0	0			0	0			1				0	
6.6.1	win	2023-06-13	14:17:58	14:26:49	529014	60873d2ab16643e5a08cafd2	3	1	main_slash	7	main_slash	23	stimuli_distractor_trianglediamonds.svg	stimuli_distractor_trianglediamonds.svg	33	no	0	1	2000	0	0			0	0			1				0	
6.6.1	win	2023-06-13	14:17:58	14:26:49	529014	60873d2ab16643e5a08cafd2	3	1	main_slash	7	advance_on_keypress_SLASH	24	stimuli_distractor_trianglediamonds.svg	stimuli_distractor_trianglediamonds.svg	33	no	57	0	384	0	0			0	0			1				0	
6.6.1	win	2023-06-13	14:17:58	14:26:52	532046	60873d2ab16643e5a08cafd2	3	1	main_slash	7	main_slash	25	stimuli_distractor_trianglediamonds.svg	stimuli_distractor_trianglediamonds.svg	34	no	0	1	2000	0	0			0	0			1				0	
6.6.1	win	2023-06-13	14:17:58	14:26:52	532046	60873d2ab16643e5a08cafd2	3	1	main_slash	7	advance_on_keypress_SLASH	26	stimuli_distractor_trianglediamonds.svg	stimuli_distractor_trianglediamonds.svg	34	no	57	0	297	0	0			0	0			1				0	
6.6.1	win	2023-06-13	14:17:58	14:26:55	534995	60873d2ab16643e5a08cafd2	3	1	main_slash	7	main_slash	27	stimuli_distractor_trianglediamonds.svg	stimuli_distractor_diamondtriangles.svg	36	no	0	1	2000	0	0			0	0			1				0	
6.6.1	win	2023-06-13	14:17:58	14:26:55	534995	60873d2ab16643e5a08cafd2	3	1	main_slash	7	advance_on_keypress_SLASH	28	stimuli_distractor_trianglediamonds.svg	stimuli_distractor_diamondtriangles.svg	36	no	57	0	324	0	0			0	0			1				0	
6.6.1	win	2023-06-13	14:17:58	14:26:57	536590	60873d2ab16643e5a08cafd2	3	1	main_slash	7	main_slash	29	stimuli_target_trianglerectangles.svg	stimuli_distractor_trianglediamonds.svg	17	yes	53	1	629	0	0			0	0			1				0	
6.6.1	win	2023-06-13	14:17:58	14:26:57	536590	60873d2ab16643e5a08cafd2	3	1	main_slash	7	advance_on_keypress_SLASH	30	stimuli_target_trianglerectangles.svg	stimuli_distractor_trianglediamonds.svg	17	yes	57	0	500	0	0			0	0			1				0	
6.6.1	win	2023-06-13	14:17:58	14:26:59	538550	60873d2ab16643e5a08cafd2	3	1	main_slash	7	main_slash	31	stimuli_distractor_trianglediamonds.svg	stimuli_target_rectangletriangles.svg	9	yes	53	1	823	0	0			0	0			1				0	
6.6.1	win	2023-06-13	14:17:58	14:26:59	538550	60873d2ab16643e5a08cafd2	3	1	main_slash	7	advance_on_keypress_SLASH	32	stimuli_distractor_trianglediamonds.svg	stimuli_target_rectangletriangles.svg	9	yes	57	0	487	0	0			0	0			1				0	
6.6.1	win	2023-06-13	14:17:58	14:27:00	540366	60873d2ab16643e5a08cafd2	3	1	main_slash	7	main_slash	33	stimuli_target_squarediamonds.svg	stimuli_distractor_diamondtriangles.svg	8	yes	53	1	690	0	0			0	0			1				0	
6.6.1	win	2023-06-13	14:17:58	14:27:00	540366	60873d2ab16643e5a08cafd2	3	1	main_slash	7	advance_on_keypress_SLASH	34	stimuli_target_squarediamonds.svg	stimuli_distractor_diamondtriangles.svg	8	yes	57	0	454	0	0			0	0			1				0	
6.6.1	win	2023-06-13	14:17:58	14:27:02	542166	60873d2ab16643e5a08cafd2	3	1	main_slash	7	main_slash	35	stimuli_target_rectanglediamonds.svg	stimuli_distractor_diamondtriangles.svg	6	yes	53	1	707	0	0			0	0			1				0	
6.6.1	win	2023-06-13	14:17:58	14:27:02	542166	60873d2ab16643e5a08cafd2	3	1	main_slash	7	advance_on_keypress_SLASH	36	stimuli_target_rectanglediamonds.svg	stimuli_distractor_diamondtriangles.svg	6	yes	57	0	407	0	0			0	0			1				0	
6.6.1	win	2023-06-13	14:17:58	14:27:04	543910	60873d2ab16643e5a08cafd2	3	1	main_slash	7	main_slash	37	stimuli_distractor_trianglediamonds.svg	stimuli_target_diamondrectangles.svg	27	yes	53	1	702	0	0			0	0			1				0	
6.6.1	win	2023-06-13	14:17:58	14:27:04	543910	60873d2ab16643e5a08cafd2	3	1	main_slash	7	advance_on_keypress_SLASH	38	stimuli_distractor_trianglediamonds.svg	stimuli_target_diamondrectangles.svg	27	yes	57	0	369	0	0			0	0			1				0	
6.6.1	win	2023-06-13	14:17:58	14:27:07	546924	60873d2ab16643e5a08cafd2	3	1	main_slash	7	main_slash	39	stimuli_distractor_diamondtriangles.svg	stimuli_distractor_trianglediamonds.svg	38	no	0	1	2000	0	0			0	0			1				0	
6.6.1	win	2023-06-13	14:17:58	14:27:07	546924	60873d2ab16643e5a08cafd2	3	1	main_slash	7	advance_on_keypress_SLASH	40	stimuli_distractor_diamondtriangles.svg	stimuli_distractor_trianglediamonds.svg	38	no	57	0	387	0	0			0	0			1				0	
6.6.1	win	2023-06-13	14:17:58	14:27:09	548638	60873d2ab16643e5a08cafd2	3	1	main_slash	7	main_slash	41	stimuli_distractor_diamondtriangles.svg	stimuli_target_squaretriangles.svg	15	yes	53	1	681	0	0			0	0			1				0	
6.6.1	win	2023-06-13	14:17:58	14:27:09	548638	60873d2ab16643e5a08cafd2	3	1	main_slash	7	advance_on_keypress_SLASH	42	stimuli_distractor_diamondtriangles.svg	stimuli_target_squaretriangles.svg	15	yes	57	0	470	0	0			0	0			1				0	
6.6.1	win	2023-06-13	14:17:58	14:27:11	550414	60873d2ab16643e5a08cafd2	3	1	main_slash	7	main_slash	43	stimuli_distractor_trianglediamonds.svg	stimuli_target_squaretriangles.svg	11	yes	53	1	658	0	0			0	0			1				0	
6.6.1	win	2023-06-13	14:17:58	14:27:11	550414	60873d2ab16643e5a08cafd2	3	1	main_slash	7	advance_on_keypress_SLASH	44	stimuli_distractor_trianglediamonds.svg	stimuli_target_squaretriangles.svg	11	yes	57	0	400	0	0			0	0			1				0	
6.6.1	win	2023-06-13	14:17:58	14:27:12	552054	60873d2ab16643e5a08cafd2	3	1	main_slash	7	main_slash	45	stimuli_distractor_diamondtriangles.svg	stimuli_target_diamondsquares.svg	32	yes	53	1	598	0	0			0	0			1				0	
6.6.1	win	2023-06-13	14:17:58	14:27:12	552054	60873d2ab16643e5a08cafd2	3	1	main_slash	7	advance_on_keypress_SLASH	46	stimuli_distractor_diamondtriangles.svg	stimuli_target_diamondsquares.svg	32	yes	57	0	406	0	0			0	0			1				0	
6.6.1	win	2023-06-13	14:17:58	14:27:14	553646	60873d2ab16643e5a08cafd2	3	1	main_slash	7	main_slash	47	stimuli_distractor_diamondtriangles.svg	stimuli_target_trianglerectangles.svg	29	yes	53	1	541	0	0			0	0			1				0	
6.6.1	win	2023-06-13	14:17:58	14:27:14	553646	60873d2ab16643e5a08cafd2	3	1	main_slash	7	advance_on_keypress_SLASH	48	stimuli_distractor_diamondtriangles.svg	stimuli_target_trianglerectangles.svg	29	yes	57	0	423	0	0			0	0			1				0	
6.6.1	win	2023-06-13	14:17:58	14:27:17	556704	60873d2ab16643e5a08cafd2	3	1	main_slash	7	main_slash	49	stimuli_distractor_diamondtriangles.svg	stimuli_distractor_trianglediamonds.svg	37	no	0	1	2000	0	0			0	0			1				0	
6.6.1	win	2023-06-13	14:17:58	14:27:17	556704	60873d2ab16643e5a08cafd2	3	1	main_slash	7	advance_on_keypress_SLASH	50	stimuli_distractor_diamondtriangles.svg	stimuli_distractor_trianglediamonds.svg	37	no	57	0	1102	0	0			0	0			1				0	
6.6.1	win	2023-06-13	14:17:58	14:27:19	559054	60873d2ab16643e5a08cafd2	3	1	main_slash	7	main_slash	51	stimuli_target_diamondsquares.svg	stimuli_distractor_diamondtriangles.svg	24	yes	53	1	601	0	0			0	0			1				0	
6.6.1	win	2023-06-13	14:17:58	14:27:19	559054	60873d2ab16643e5a08cafd2	3	1	main_slash	7	advance_on_keypress_SLASH	52	stimuli_target_diamondsquares.svg	stimuli_distractor_diamondtriangles.svg	24	yes	57	0	417	0	0			0	0			1				0	
6.6.1	win	2023-06-13	14:17:58	14:27:21	560846	60873d2ab16643e5a08cafd2	3	1	main_slash	7	main_slash	53	stimuli_target_trianglesquares.svg	stimuli_distractor_trianglediamonds.svg	18	yes	53	1	727	0	0			0	0			1				0	
6.6.1	win	2023-06-13	14:17:58	14:27:21	560846	60873d2ab16643e5a08cafd2	3	1	main_slash	7	advance_on_keypress_SLASH	54	stimuli_target_trianglesquares.svg	stimuli_distractor_trianglediamonds.svg	18	yes	57	0	434	0	0			0	0			1				0	
6.6.1	win	2023-06-13	14:17:58	14:27:23	562646	60873d2ab16643e5a08cafd2	3	1	main_slash	7	main_slash	55	stimuli_distractor_trianglediamonds.svg	stimuli_target_squarediamonds.svg	12	yes	53	1	727	0	0			0	0			1				0	
6.6.1	win	2023-06-13	14:17:58	14:27:23	562646	60873d2ab16643e5a08cafd2	3	1	main_slash	7	advance_on_keypress_SLASH	56	stimuli_distractor_trianglediamonds.svg	stimuli_target_squarediamonds.svg	12	yes	57	0	450	0	0			0	0			1				0	
6.6.1	win	2023-06-13	14:17:58	14:27:24	564374	60873d2ab16643e5a08cafd2	3	1	main_slash	7	main_slash	57	stimuli_target_diamondrectangles.svg	stimuli_distractor_diamondtriangles.svg	23	yes	53	1	639	0	0			0	0			1				0	
6.6.1	win	2023-06-13	14:17:58	14:27:24	564374	60873d2ab16643e5a08cafd2	3	1	main_slash	7	advance_on_keypress_SLASH	58	stimuli_target_diamondrectangles.svg	stimuli_distractor_diamondtriangles.svg	23	yes	57	0	447	0	0			0	0			1				0	
6.6.1	win	2023-06-13	14:17:58	14:27:26	565982	60873d2ab16643e5a08cafd2	3	1	main_slash	7	main_slash	59	stimuli_target_diamondrectangles.svg	stimuli_distractor_trianglediamonds.svg	19	yes	53	1	531	0	0			0	0			1				0	
6.6.1	win	2023-06-13	14:17:58	14:27:26	565982	60873d2ab16643e5a08cafd2	3	1	main_slash	7	advance_on_keypress_SLASH	60	stimuli_target_diamondrectangles.svg	stimuli_distractor_trianglediamonds.svg	19	yes	57	0	526	0	0			0	0			1				0	
6.6.1	win	2023-06-13	14:17:58	14:27:28	567742	60873d2ab16643e5a08cafd2	3	1	main_slash	7	main_slash	61	stimuli_target_rectanglediamonds.svg	stimuli_distractor_trianglediamonds.svg	2	yes	53	1	592	0	0			0	0			1				0	
6.6.1	win	2023-06-13	14:17:58	14:27:28	567742	60873d2ab16643e5a08cafd2	3	1	main_slash	7	advance_on_keypress_SLASH	62	stimuli_target_rectanglediamonds.svg	stimuli_distractor_trianglediamonds.svg	2	yes	57	0	920	0	0			0	0			1				0	
6.6.1	win	2023-06-13	14:17:58	14:27:30	569790	60873d2ab16643e5a08cafd2	3	1	main_slash	7	main_slash	63	stimuli_distractor_diamondtriangles.svg	stimuli_target_squarediamonds.svg	16	yes	53	1	490	0	0			0	0			1				0	
6.6.1	win	2023-06-13	14:17:58	14:27:30	569790	60873d2ab16643e5a08cafd2	3	1	main_slash	7	advance_on_keypress_SLASH	64	stimuli_distractor_diamondtriangles.svg	stimuli_target_squarediamonds.svg	16	yes	57	0	391	0	0			0	0			1				0	
6.6.1	win	2023-06-13	14:17:58	14:27:31	571262	60873d2ab16643e5a08cafd2	3	1	main_slash	7	main_slash	65	stimuli_target_rectangletriangles.svg	stimuli_distractor_diamondtriangles.svg	5	yes	53	1	446	0	0			0	0			1				0	
6.6.1	win	2023-06-13	14:17:58	14:27:31	571262	60873d2ab16643e5a08cafd2	3	1	main_slash	7	advance_on_keypress_SLASH	66	stimuli_target_rectangletriangles.svg	stimuli_distractor_diamondtriangles.svg	5	yes	57	0	485	0	0			0	0			1				0	
6.6.1	win	2023-06-13	14:17:58	14:27:33	572846	60873d2ab16643e5a08cafd2	3	1	main_slash	7	main_slash	67	stimuli_distractor_diamondtriangles.svg	stimuli_target_trianglesquares.svg	30	yes	53	1	464	0	0			0	0			1				0	
6.6.1	win	2023-06-13	14:17:58	14:27:33	572846	60873d2ab16643e5a08cafd2	3	1	main_slash	7	advance_on_keypress_SLASH	68	stimuli_distractor_diamondtriangles.svg	stimuli_target_trianglesquares.svg	30	yes	57	0	429	0	0			0	0			1				0	
6.6.1	win	2023-06-13	14:17:58	14:27:35	574534	60873d2ab16643e5a08cafd2	3	1	main_slash	7	main_slash	69	stimuli_target_squaretriangles.svg	stimuli_distractor_diamondtriangles.svg	7	yes	53	1	619	0	0			0	0			1				0	
6.6.1	win	2023-06-13	14:17:58	14:27:35	574534	60873d2ab16643e5a08cafd2	3	1	main_slash	7	advance_on_keypress_SLASH	70	stimuli_target_squaretriangles.svg	stimuli_distractor_diamondtriangles.svg	7	yes	57	0	426	0	0			0	0			1				0	
6.6.1	win	2023-06-13	14:17:58	14:27:38	577597	60873d2ab16643e5a08cafd2	3	1	main_slash	7	main_slash	71	stimuli_distractor_diamondtriangles.svg	stimuli_distractor_diamondtriangles.svg	39	no	0	1	2000	0	0			0	0			1				0	
6.6.1	win	2023-06-13	14:17:58	14:27:38	577597	60873d2ab16643e5a08cafd2	3	1	main_slash	7	advance_on_keypress_SLASH	72	stimuli_distractor_diamondtriangles.svg	stimuli_distractor_diamondtriangles.svg	39	no	57	0	681	0	0			0	0			1				0	
6.6.1	win	2023-06-13	14:17:58	14:27:40	579462	60873d2ab16643e5a08cafd2	3	1	main_slash	7	main_slash	73	stimuli_distractor_trianglediamonds.svg	stimuli_target_trianglesquares.svg	26	yes	53	1	532	0	0			0	0			1				0	
6.6.1	win	2023-06-13	14:17:58	14:27:40	579462	60873d2ab16643e5a08cafd2	3	1	main_slash	7	advance_on_keypress_SLASH	74	stimuli_distractor_trianglediamonds.svg	stimuli_target_trianglesquares.svg	26	yes	57	0	422	0	0			0	0			1				0	
6.6.1	win	2023-06-13	14:17:58	14:27:41	580950	60873d2ab16643e5a08cafd2	3	1	main_slash	7	main_slash	75	stimuli_distractor_trianglediamonds.svg	stimuli_target_diamondsquares.svg	28	yes	53	1	421	0	0			0	0			1				0	
6.6.1	win	2023-06-13	14:17:58	14:27:41	580950	60873d2ab16643e5a08cafd2	3	1	main_slash	7	advance_on_keypress_SLASH	76	stimuli_distractor_trianglediamonds.svg	stimuli_target_diamondsquares.svg	28	yes	57	0	388	0	0			0	0			1				0	
6.6.1	win	2023-06-13	14:17:58	14:27:43	582398	60873d2ab16643e5a08cafd2	3	1	main_slash	7	main_slash	77	stimuli_distractor_trianglediamonds.svg	stimuli_target_trianglerectangles.svg	25	yes	53	1	419	0	0			0	0			1				0	
6.6.1	win	2023-06-13	14:17:58	14:27:43	582398	60873d2ab16643e5a08cafd2	3	1	main_slash	7	advance_on_keypress_SLASH	78	stimuli_distractor_trianglediamonds.svg	stimuli_target_trianglerectangles.svg	25	yes	57	0	362	0	0			0	0			1				0	
6.6.1	win	2023-06-13	14:17:58	14:27:44	583878	60873d2ab16643e5a08cafd2	3	1	main_slash	7	main_slash	79	stimuli_distractor_diamondtriangles.svg	stimuli_target_rectangletriangles.svg	13	yes	53	1	483	0	0			0	0			1				0	
6.6.1	win	2023-06-13	14:17:58	14:27:44	583878	60873d2ab16643e5a08cafd2	3	1	main_slash	7	advance_on_keypress_SLASH	80	stimuli_distractor_diamondtriangles.svg	stimuli_target_rectangletriangles.svg	13	yes	57	0	343	0	0			0	0			1				0	
6.6.1	win	2023-06-13	14:17:58	14:27:45	585254	60873d2ab16643e5a08cafd2	3	1	main_slash	7	main_slash	81	stimuli_target_squarediamonds.svg	stimuli_distractor_diamondtriangles.svg	8	yes	53	1	393	0	0			0	0			1				0	
6.6.1	win	2023-06-13	14:17:58	14:27:45	585254	60873d2ab16643e5a08cafd2	3	1	main_slash	7	advance_on_keypress_SLASH	82	stimuli_target_squarediamonds.svg	stimuli_distractor_diamondtriangles.svg	8	yes	57	0	537	0	0			0	0			1				0	
6.6.1	win	2023-06-13	14:17:58	14:27:47	586718	60873d2ab16643e5a08cafd2	3	1	main_slash	7	main_slash	83	stimuli_distractor_diamondtriangles.svg	stimuli_distractor_trianglediamonds.svg	38	no	53	0	291	0	0			0	0			1				0	
6.6.1	win	2023-06-13	14:17:58	14:27:47	586718	60873d2ab16643e5a08cafd2	3	1	main_slash	7	advance_on_keypress_SLASH	84	stimuli_distractor_diamondtriangles.svg	stimuli_distractor_trianglediamonds.svg	38	no	57	0	1271	0	0			0	0			1				0	
6.6.1	win	2023-06-13	14:17:58	14:27:50	589758	60873d2ab16643e5a08cafd2	3	1	main_slash	7	main_slash	85	stimuli_target_rectangletriangles.svg	stimuli_distractor_trianglediamonds.svg	1	yes	53	1	1131	0	0			0	0			1				0	
6.6.1	win	2023-06-13	14:17:58	14:27:50	589758	60873d2ab16643e5a08cafd2	3	1	main_slash	7	advance_on_keypress_SLASH	86	stimuli_target_rectangletriangles.svg	stimuli_distractor_trianglediamonds.svg	1	yes	57	0	358	0	0			0	0			1				0	
6.6.1	win	2023-06-13	14:17:58	14:27:52	591406	60873d2ab16643e5a08cafd2	3	1	main_slash	7	main_slash	87	stimuli_target_diamondsquares.svg	stimuli_distractor_diamondtriangles.svg	24	yes	53	1	647	0	0			0	0			1				0	
6.6.1	win	2023-06-13	14:17:58	14:27:52	591406	60873d2ab16643e5a08cafd2	3	1	main_slash	7	advance_on_keypress_SLASH	88	stimuli_target_diamondsquares.svg	stimuli_distractor_diamondtriangles.svg	24	yes	57	0	396	0	0			0	0			1				0	
6.6.1	win	2023-06-13	14:17:58	14:27:55	594458	60873d2ab16643e5a08cafd2	3	1	main_slash	7	main_slash	89	stimuli_distractor_trianglediamonds.svg	stimuli_distractor_trianglediamonds.svg	33	no	0	1	2000	0	0			0	0			1				0	
6.6.1	win	2023-06-13	14:17:58	14:27:55	594458	60873d2ab16643e5a08cafd2	3	1	main_slash	7	advance_on_keypress_SLASH	90	stimuli_distractor_trianglediamonds.svg	stimuli_distractor_trianglediamonds.svg	33	no	57	0	315	0	0			0	0			1				0	
6.6.1	win	2023-06-13	14:17:58	14:27:56	595943	60873d2ab16643e5a08cafd2	3	1	main_slash	7	main_slash	91	stimuli_distractor_diamondtriangles.svg	stimuli_target_rectanglediamonds.svg	14	yes	53	1	519	0	0			0	0			1				0	
6.6.1	win	2023-06-13	14:17:58	14:27:56	595943	60873d2ab16643e5a08cafd2	3	1	main_slash	7	advance_on_keypress_SLASH	92	stimuli_distractor_diamondtriangles.svg	stimuli_target_rectanglediamonds.svg	14	yes	57	0	352	0	0			0	0			1				0	
6.6.1	win	2023-06-13	14:17:58	14:27:58	597456	60873d2ab16643e5a08cafd2	3	1	main_slash	7	main_slash	93	stimuli_distractor_diamondtriangles.svg	stimuli_target_rectangletriangles.svg	13	yes	53	1	513	0	0			0	0			1				0	
6.6.1	win	2023-06-13	14:17:58	14:27:58	597456	60873d2ab16643e5a08cafd2	3	1	main_slash	7	advance_on_keypress_SLASH	94	stimuli_distractor_diamondtriangles.svg	stimuli_target_rectangletriangles.svg	13	yes	57	0	413	0	0			0	0			1				0	
6.6.1	win	2023-06-13	14:17:58	14:28:00	599486	60873d2ab16643e5a08cafd2	3	1	main_slash	7	main_slash	95	stimuli_distractor_diamondtriangles.svg	stimuli_target_squaretriangles.svg	15	yes	53	1	979	0	0			0	0			1				0	
6.6.1	win	2023-06-13	14:17:58	14:28:00	599486	60873d2ab16643e5a08cafd2	3	1	main_slash	7	advance_on_keypress_SLASH	96	stimuli_distractor_diamondtriangles.svg	stimuli_target_squaretriangles.svg	15	yes	57	0	421	0	0			0	0			1				0	
6.6.1	win	2023-06-13	14:17:58	14:28:01	601158	60873d2ab16643e5a08cafd2	3	1	main_slash	7	main_slash	97	stimuli_distractor_trianglediamonds.svg	stimuli_target_diamondsquares.svg	28	yes	53	1	619	0	0			0	0			1				0	
6.6.1	win	2023-06-13	14:17:58	14:28:01	601158	60873d2ab16643e5a08cafd2	3	1	main_slash	7	advance_on_keypress_SLASH	98	stimuli_distractor_trianglediamonds.svg	stimuli_target_diamondsquares.svg	28	yes	57	0	362	0	0			0	0			1				0	
6.6.1	win	2023-06-13	14:17:58	14:28:03	602598	60873d2ab16643e5a08cafd2	3	1	main_slash	7	main_slash	99	stimuli_distractor_diamondtriangles.svg	stimuli_target_squarediamonds.svg	16	yes	53	1	443	0	0			0	0			1				0	
6.6.1	win	2023-06-13	14:17:58	14:28:03	602598	60873d2ab16643e5a08cafd2	3	1	main_slash	7	advance_on_keypress_SLASH	100	stimuli_distractor_diamondtriangles.svg	stimuli_target_squarediamonds.svg	16	yes	57	0	337	0	0			0	0			1				0	
6.6.1	win	2023-06-13	14:17:58	14:28:04	604006	60873d2ab16643e5a08cafd2	3	1	main_slash	7	main_slash	101	stimuli_distractor_trianglediamonds.svg	stimuli_target_rectanglediamonds.svg	10	yes	53	1	434	0	0			0	0			1				0	
6.6.1	win	2023-06-13	14:17:58	14:28:04	604006	60873d2ab16643e5a08cafd2	3	1	main_slash	7	advance_on_keypress_SLASH	102	stimuli_distractor_trianglediamonds.svg	stimuli_target_rectanglediamonds.svg	10	yes	57	0	281	0	0			0	0			1				0	
6.6.1	win	2023-06-13	14:17:58	14:28:07	606938	60873d2ab16643e5a08cafd2	3	1	main_slash	7	main_slash	103	stimuli_distractor_diamondtriangles.svg	stimuli_distractor_trianglediamonds.svg	37	no	0	1	2000	0	0			0	0			1				0	
6.6.1	win	2023-06-13	14:17:58	14:28:07	606938	60873d2ab16643e5a08cafd2	3	1	main_slash	7	advance_on_keypress_SLASH	104	stimuli_distractor_diamondtriangles.svg	stimuli_distractor_trianglediamonds.svg	37	no	57	0	596	0	0			0	0			1				0	
6.6.1	win	2023-06-13	14:17:58	14:28:09	608806	60873d2ab16643e5a08cafd2	3	1	main_slash	7	main_slash	105	stimuli_distractor_trianglediamonds.svg	stimuli_target_rectangletriangles.svg	9	yes	53	1	636	0	0			0	0			1				0	
6.6.1	win	2023-06-13	14:17:58	14:28:09	608806	60873d2ab16643e5a08cafd2	3	1	main_slash	7	advance_on_keypress_SLASH	106	stimuli_distractor_trianglediamonds.svg	stimuli_target_rectangletriangles.svg	9	yes	57	0	330	0	0			0	0			1				0	
6.6.1	win	2023-06-13	14:17:58	14:28:10	610366	60873d2ab16643e5a08cafd2	3	1	main_slash	7	main_slash	107	stimuli_distractor_trianglediamonds.svg	stimuli_target_trianglesquares.svg	26	yes	53	1	580	0	0			0	0			1				0	
6.6.1	win	2023-06-13	14:17:58	14:28:10	610366	60873d2ab16643e5a08cafd2	3	1	main_slash	7	advance_on_keypress_SLASH	108	stimuli_distractor_trianglediamonds.svg	stimuli_target_trianglesquares.svg	26	yes	57	0	309	0	0			0	0			1				0	
6.6.1	win	2023-06-13	14:17:58	14:28:13	613302	60873d2ab16643e5a08cafd2	3	1	main_slash	7	main_slash	109	stimuli_distractor_diamondtriangles.svg	stimuli_distractor_diamondtriangles.svg	40	no	0	1	2000	0	0			0	0			1				0	
6.6.1	win	2023-06-13	14:17:58	14:28:13	613302	60873d2ab16643e5a08cafd2	3	1	main_slash	7	advance_on_keypress_SLASH	110	stimuli_distractor_diamondtriangles.svg	stimuli_distractor_diamondtriangles.svg	40	no	57	0	568	0	0			0	0			1				0	
6.6.1	win	2023-06-13	14:17:58	14:28:15	614918	60873d2ab16643e5a08cafd2	3	1	main_slash	7	main_slash	111	stimuli_target_diamondrectangles.svg	stimuli_distractor_diamondtriangles.svg	23	yes	53	1	400	0	0			0	0			1				0	
6.6.1	win	2023-06-13	14:17:58	14:28:15	614918	60873d2ab16643e5a08cafd2	3	1	main_slash	7	advance_on_keypress_SLASH	112	stimuli_target_diamondrectangles.svg	stimuli_distractor_diamondtriangles.svg	23	yes	57	0	280	0	0			0	0			1				0	
6.6.1	win	2023-06-13	14:17:58	14:28:16	616350	60873d2ab16643e5a08cafd2	3	1	main_slash	7	main_slash	113	stimuli_target_rectangletriangles.svg	stimuli_distractor_diamondtriangles.svg	5	yes	53	1	516	0	0			0	0			1				0	
6.6.1	win	2023-06-13	14:17:58	14:28:16	616350	60873d2ab16643e5a08cafd2	3	1	main_slash	7	advance_on_keypress_SLASH	114	stimuli_target_rectangletriangles.svg	stimuli_distractor_diamondtriangles.svg	5	yes	57	0	271	0	0			0	0			1				0	
6.6.1	win	2023-06-13	14:17:58	14:28:18	617662	60873d2ab16643e5a08cafd2	3	1	main_slash	7	main_slash	115	stimuli_target_squaretriangles.svg	stimuli_distractor_trianglediamonds.svg	3	yes	53	1	395	0	0			0	0			1				0	
6.6.1	win	2023-06-13	14:17:58	14:28:18	617662	60873d2ab16643e5a08cafd2	3	1	main_slash	7	advance_on_keypress_SLASH	116	stimuli_target_squaretriangles.svg	stimuli_distractor_trianglediamonds.svg	3	yes	57	0	267	0	0			0	0			1				0	
6.6.1	win	2023-06-13	14:17:58	14:28:19	619262	60873d2ab16643e5a08cafd2	3	1	main_slash	7	main_slash	117	stimuli_distractor_diamondtriangles.svg	stimuli_target_trianglerectangles.svg	29	yes	53	1	695	0	0			0	0			1				0	
6.6.1	win	2023-06-13	14:17:58	14:28:19	619262	60873d2ab16643e5a08cafd2	3	1	main_slash	7	advance_on_keypress_SLASH	118	stimuli_distractor_diamondtriangles.svg	stimuli_target_trianglerectangles.svg	29	yes	57	0	340	0	0			0	0			1				0	
6.6.1	win	2023-06-13	14:17:58	14:28:21	620590	60873d2ab16643e5a08cafd2	3	1	main_slash	7	main_slash	119	stimuli_target_trianglesquares.svg	stimuli_distractor_diamondtriangles.svg	22	yes	53	1	357	0	0			0	0			1				0	
6.6.1	win	2023-06-13	14:17:58	14:28:21	620590	60873d2ab16643e5a08cafd2	3	1	main_slash	7	advance_on_keypress_SLASH	120	stimuli_target_trianglesquares.svg	stimuli_distractor_diamondtriangles.svg	22	yes	57	0	367	0	0			0	0			1				0	
6.6.1	win	2023-06-13	14:17:58	14:28:22	621902	60873d2ab16643e5a08cafd2	3	1	main_slash	7	main_slash	121	stimuli_target_diamondrectangles.svg	stimuli_distractor_trianglediamonds.svg	19	yes	53	1	303	0	0			0	0			1				0	
6.6.1	win	2023-06-13	14:17:58	14:28:22	621902	60873d2ab16643e5a08cafd2	3	1	main_slash	7	advance_on_keypress_SLASH	122	stimuli_target_diamondrectangles.svg	stimuli_distractor_trianglediamonds.svg	19	yes	57	0	379	0	0			0	0			1				0	
6.6.1	win	2023-06-13	14:17:58	14:28:23	623198	60873d2ab16643e5a08cafd2	3	1	main_slash	7	main_slash	123	stimuli_distractor_diamondtriangles.svg	stimuli_target_diamondsquares.svg	32	yes	53	1	283	0	0			0	0			1				0	
6.6.1	win	2023-06-13	14:17:58	14:28:23	623198	60873d2ab16643e5a08cafd2	3	1	main_slash	7	advance_on_keypress_SLASH	124	stimuli_distractor_diamondtriangles.svg	stimuli_target_diamondsquares.svg	32	yes	57	0	407	0	0			0	0			1				0	
6.6.1	win	2023-06-13	14:17:58	14:28:25	624654	60873d2ab16643e5a08cafd2	3	1	main_slash	7	main_slash	125	stimuli_target_squaretriangles.svg	stimuli_distractor_diamondtriangles.svg	7	yes	53	1	406	0	0			0	0			1				0	
6.6.1	win	2023-06-13	14:17:58	14:28:25	624654	60873d2ab16643e5a08cafd2	3	1	main_slash	7	advance_on_keypress_SLASH	126	stimuli_target_squaretriangles.svg	stimuli_distractor_diamondtriangles.svg	7	yes	57	0	333	0	0			0	0			1				0	
6.6.1	win	2023-06-13	14:17:58	14:28:26	625942	60873d2ab16643e5a08cafd2	3	1	main_slash	7	main_slash	127	stimuli_target_rectanglediamonds.svg	stimuli_distractor_diamondtriangles.svg	6	yes	53	1	311	0	0			0	0			1				0	
6.6.1	win	2023-06-13	14:17:58	14:28:26	625942	60873d2ab16643e5a08cafd2	3	1	main_slash	7	advance_on_keypress_SLASH	128	stimuli_target_rectanglediamonds.svg	stimuli_distractor_diamondtriangles.svg	6	yes	57	0	355	0	0			0	0			1				0	
6.6.1	win	2023-06-13	14:17:58	14:28:28	627446	60873d2ab16643e5a08cafd2	3	1	main_slash	7	main_slash	129	stimuli_distractor_diamondtriangles.svg	stimuli_target_trianglesquares.svg	30	yes	53	1	515	0	0			0	0			1				0	
6.6.1	win	2023-06-13	14:17:58	14:28:28	627446	60873d2ab16643e5a08cafd2	3	1	main_slash	7	advance_on_keypress_SLASH	130	stimuli_distractor_diamondtriangles.svg	stimuli_target_trianglesquares.svg	30	yes	57	0	286	0	0			0	0			1				0	
6.6.1	win	2023-06-13	14:17:58	14:28:29	628726	60873d2ab16643e5a08cafd2	3	1	main_slash	7	main_slash	131	stimuli_target_trianglesquares.svg	stimuli_distractor_trianglediamonds.svg	18	yes	53	1	346	0	0			0	0			1				0	
6.6.1	win	2023-06-13	14:17:58	14:28:29	628726	60873d2ab16643e5a08cafd2	3	1	main_slash	7	advance_on_keypress_SLASH	132	stimuli_target_trianglesquares.svg	stimuli_distractor_trianglediamonds.svg	18	yes	57	0	364	0	0			0	0			1				0	
6.6.1	win	2023-06-13	14:17:58	14:28:30	630112	60873d2ab16643e5a08cafd2	3	1	main_slash	7	main_slash	133	stimuli_target_squarediamonds.svg	stimuli_distractor_trianglediamonds.svg	4	yes	53	1	380	0	0			0	0			1				0	
6.6.1	win	2023-06-13	14:17:58	14:28:30	630112	60873d2ab16643e5a08cafd2	3	1	main_slash	7	advance_on_keypress_SLASH	134	stimuli_target_squarediamonds.svg	stimuli_distractor_trianglediamonds.svg	4	yes	57	0	301	0	0			0	0			1				0	
6.6.1	win	2023-06-13	14:17:58	14:28:33	633062	60873d2ab16643e5a08cafd2	3	1	main_slash	7	main_slash	135	stimuli_distractor_trianglediamonds.svg	stimuli_distractor_trianglediamonds.svg	34	no	0	1	2000	0	0			0	0			1				0	
6.6.1	win	2023-06-13	14:17:58	14:28:33	633062	60873d2ab16643e5a08cafd2	3	1	main_slash	7	advance_on_keypress_SLASH	136	stimuli_distractor_trianglediamonds.svg	stimuli_distractor_trianglediamonds.svg	34	no	57	0	288	0	0			0	0			1				0	
6.6.1	win	2023-06-13	14:17:58	14:28:35	634798	60873d2ab16643e5a08cafd2	3	1	main_slash	7	main_slash	137	stimuli_distractor_trianglediamonds.svg	stimuli_distractor_diamondtriangles.svg	35	no	53	0	803	0	0			0	0			1				0	
6.6.1	win	2023-06-13	14:17:58	14:28:35	634798	60873d2ab16643e5a08cafd2	3	1	main_slash	7	advance_on_keypress_SLASH	138	stimuli_distractor_trianglediamonds.svg	stimuli_distractor_diamondtriangles.svg	35	no	57	0	259	0	0			0	0			1				0	
6.6.1	win	2023-06-13	14:17:58	14:28:38	637694	60873d2ab16643e5a08cafd2	3	1	main_slash	7	main_slash	139	stimuli_distractor_trianglediamonds.svg	stimuli_distractor_diamondtriangles.svg	36	no	0	1	2000	0	0			0	0			1				0	
6.6.1	win	2023-06-13	14:17:58	14:28:38	637694	60873d2ab16643e5a08cafd2	3	1	main_slash	7	advance_on_keypress_SLASH	140	stimuli_distractor_trianglediamonds.svg	stimuli_distractor_diamondtriangles.svg	36	no	57	0	456	0	0			0	0			1				0	
6.6.1	win	2023-06-13	14:17:58	14:28:39	639222	60873d2ab16643e5a08cafd2	3	1	main_slash	7	main_slash	141	stimuli_target_trianglerectangles.svg	stimuli_distractor_trianglediamonds.svg	17	yes	53	1	429	0	0			0	0			1				0	
6.6.1	win	2023-06-13	14:17:58	14:28:39	639222	60873d2ab16643e5a08cafd2	3	1	main_slash	7	advance_on_keypress_SLASH	142	stimuli_target_trianglerectangles.svg	stimuli_distractor_trianglediamonds.svg	17	yes	57	0	380	0	0			0	0			1				0	
6.6.1	win	2023-06-13	14:17:58	14:28:41	640608	60873d2ab16643e5a08cafd2	3	1	main_slash	7	main_slash	143	stimuli_distractor_trianglediamonds.svg	stimuli_target_squaretriangles.svg	11	yes	53	1	372	0	0			0	0			1				0	
6.6.1	win	2023-06-13	14:17:58	14:28:41	640608	60873d2ab16643e5a08cafd2	3	1	main_slash	7	advance_on_keypress_SLASH	144	stimuli_distractor_trianglediamonds.svg	stimuli_target_squaretriangles.svg	11	yes	57	0	284	0	0			0	0			1				0	
6.6.1	win	2023-06-13	14:17:58	14:28:42	642062	60873d2ab16643e5a08cafd2	3	1	main_slash	7	main_slash	145	stimuli_distractor_diamondtriangles.svg	stimuli_target_diamondrectangles.svg	31	yes	53	1	520	0	0			0	0			1				0	
6.6.1	win	2023-06-13	14:17:58	14:28:42	642062	60873d2ab16643e5a08cafd2	3	1	main_slash	7	advance_on_keypress_SLASH	146	stimuli_distractor_diamondtriangles.svg	stimuli_target_diamondrectangles.svg	31	yes	57	0	259	0	0			0	0			1				0	
6.6.1	win	2023-06-13	14:17:58	14:28:43	643343	60873d2ab16643e5a08cafd2	3	1	main_slash	7	main_slash	147	stimuli_distractor_trianglediamonds.svg	stimuli_target_squarediamonds.svg	12	yes	53	1	383	0	0			0	0			1				0	
6.6.1	win	2023-06-13	14:17:58	14:28:43	643343	60873d2ab16643e5a08cafd2	3	1	main_slash	7	advance_on_keypress_SLASH	148	stimuli_distractor_trianglediamonds.svg	stimuli_target_squarediamonds.svg	12	yes	57	0	240	0	0			0	0			1				0	
6.6.1	win	2023-06-13	14:17:58	14:28:45	644622	60873d2ab16643e5a08cafd2	3	1	main_slash	7	main_slash	149	stimuli_target_rectanglediamonds.svg	stimuli_distractor_trianglediamonds.svg	2	yes	53	1	397	0	0			0	0			1				0	
6.6.1	win	2023-06-13	14:17:58	14:28:45	644622	60873d2ab16643e5a08cafd2	3	1	main_slash	7	advance_on_keypress_SLASH	150	stimuli_target_rectanglediamonds.svg	stimuli_distractor_trianglediamonds.svg	2	yes	57	0	245	0	0			0	0			1				0	
6.6.1	win	2023-06-13	14:17:58	14:28:46	645950	60873d2ab16643e5a08cafd2	3	1	main_slash	7	main_slash	151	stimuli_target_trianglerectangles.svg	stimuli_distractor_diamondtriangles.svg	21	yes	53	1	442	0	0			0	0			1				0	
6.6.1	win	2023-06-13	14:17:58	14:28:46	645950	60873d2ab16643e5a08cafd2	3	1	main_slash	7	advance_on_keypress_SLASH	152	stimuli_target_trianglerectangles.svg	stimuli_distractor_diamondtriangles.svg	21	yes	57	0	216	0	0			0	0			1				0	
6.6.1	win	2023-06-13	14:17:58	14:28:47	647342	60873d2ab16643e5a08cafd2	3	1	main_slash	7	main_slash	153	stimuli_distractor_trianglediamonds.svg	stimuli_target_diamondrectangles.svg	27	yes	53	1	535	0	0			0	0			1				0	
6.6.1	win	2023-06-13	14:17:58	14:28:47	647342	60873d2ab16643e5a08cafd2	3	1	main_slash	7	advance_on_keypress_SLASH	154	stimuli_distractor_trianglediamonds.svg	stimuli_target_diamondrectangles.svg	27	yes	57	0	257	0	0			0	0			1				0	
6.6.1	win	2023-06-13	14:17:58	14:28:49	648654	60873d2ab16643e5a08cafd2	3	1	main_slash	7	main_slash	155	stimuli_target_diamondsquares.svg	stimuli_distractor_trianglediamonds.svg	20	yes	53	1	414	0	0			0	0			1				0	
6.6.1	win	2023-06-13	14:17:58	14:28:49	648654	60873d2ab16643e5a08cafd2	3	1	main_slash	7	advance_on_keypress_SLASH	156	stimuli_target_diamondsquares.svg	stimuli_distractor_trianglediamonds.svg	20	yes	57	0	213	0	0			0	0			1				0	
6.6.1	win	2023-06-13	14:17:58	14:28:52	651506	60873d2ab16643e5a08cafd2	3	1	main_slash	7	main_slash	157	stimuli_distractor_diamondtriangles.svg	stimuli_distractor_diamondtriangles.svg	39	no	0	1	2000	0	0			0	0			1				0	
6.6.1	win	2023-06-13	14:17:58	14:28:52	651506	60873d2ab16643e5a08cafd2	3	1	main_slash	7	advance_on_keypress_SLASH	158	stimuli_distractor_diamondtriangles.svg	stimuli_distractor_diamondtriangles.svg	39	no	57	0	340	0	0			0	0			1				0	
6.6.1	win	2023-06-13	14:17:58	14:28:53	653222	60873d2ab16643e5a08cafd2	3	1	main_slash	7	main_slash	159	stimuli_distractor_trianglediamonds.svg	stimuli_target_trianglerectangles.svg	25	yes	53	1	733	0	0			0	0			1				0	
6.6.1	win	2023-06-13	14:17:58	14:28:53	653222	60873d2ab16643e5a08cafd2	3	1	main_slash	7	advance_on_keypress_SLASH	160	stimuli_distractor_trianglediamonds.svg	stimuli_target_trianglerectangles.svg	25	yes	57	0	296	0	0			0	0			1				0	
6.6.1	win	2023-06-13	14:17:58	14:29:13	672559	60873d2ab16643e5a08cafd2	3	1	practice_z	9	practice_z	1	stimuli_distractor_diamondtriangles.svg	stimuli_target_trianglerectangles.svg	9	yes	44	1	459	0	0			0	0			1				0	
6.6.1	win	2023-06-13	14:17:58	14:29:13	672559	60873d2ab16643e5a08cafd2	3	1	practice_z	9	advance_on_keypress_ZEE	2	stimuli_distractor_diamondtriangles.svg	stimuli_target_trianglerectangles.svg	9	yes	57	0	552	0	0			0	0			1				0	
6.6.1	win	2023-06-13	14:17:58	14:29:15	675231	60873d2ab16643e5a08cafd2	3	1	practice_z	9	practice_z	3	stimuli_distractor_trianglediamonds.svg	stimuli_target_squarediamonds.svg	11	yes	44	1	465	0	0			0	0			1				0	
6.6.1	win	2023-06-13	14:17:58	14:29:15	675231	60873d2ab16643e5a08cafd2	3	1	practice_z	9	advance_on_keypress_ZEE	4	stimuli_distractor_trianglediamonds.svg	stimuli_target_squarediamonds.svg	11	yes	57	0	318	0	0			0	0			1				0	
6.6.1	win	2023-06-13	14:17:58	14:29:18	677582	60873d2ab16643e5a08cafd2	3	1	practice_z	9	practice_z	5	stimuli_distractor_diamondtriangles.svg	stimuli_target_rectangletriangles.svg	7	yes	44	1	369	0	0			0	0			1				0	
6.6.1	win	2023-06-13	14:17:58	14:29:18	677582	60873d2ab16643e5a08cafd2	3	1	practice_z	9	advance_on_keypress_ZEE	6	stimuli_distractor_diamondtriangles.svg	stimuli_target_rectangletriangles.svg	7	yes	57	0	289	0	0			0	0			1				0	
6.6.1	win	2023-06-13	14:17:58	14:29:22	681514	60873d2ab16643e5a08cafd2	3	1	practice_z	9	practice_z	7	stimuli_distractor_diamondtriangles.svg	stimuli_distractor_diamondtriangles.svg	13	no	0	1	2000	0	0			0	0			1				0	
6.6.1	win	2023-06-13	14:17:58	14:29:22	681514	60873d2ab16643e5a08cafd2	3	1	practice_z	9	advance_on_keypress_ZEE	8	stimuli_distractor_diamondtriangles.svg	stimuli_distractor_diamondtriangles.svg	13	no	57	0	341	0	0			0	0			1				0	
6.6.1	win	2023-06-13	14:17:58	14:29:26	685496	60873d2ab16643e5a08cafd2	3	1	practice_z	9	practice_z	9	stimuli_distractor_trianglediamonds.svg	stimuli_distractor_diamondtriangles.svg	16	no	0	1	2000	0	0			0	0			1				0	
6.6.1	win	2023-06-13	14:17:58	14:29:26	685496	60873d2ab16643e5a08cafd2	3	1	practice_z	9	advance_on_keypress_ZEE	10	stimuli_distractor_trianglediamonds.svg	stimuli_distractor_diamondtriangles.svg	16	no	57	0	511	0	0			0	0			1				0	
6.6.1	win	2023-06-13	14:17:58	14:29:28	688047	60873d2ab16643e5a08cafd2	3	1	practice_z	9	practice_z	11	stimuli_target_squarediamonds.svg	stimuli_distractor_trianglediamonds.svg	5	yes	44	1	402	0	0			0	0			1				0	
6.6.1	win	2023-06-13	14:17:58	14:29:28	688047	60873d2ab16643e5a08cafd2	3	1	practice_z	9	advance_on_keypress_ZEE	12	stimuli_target_squarediamonds.svg	stimuli_distractor_trianglediamonds.svg	5	yes	57	0	434	0	0			0	0			1				0	
6.6.1	win	2023-06-13	14:17:58	14:29:31	690488	60873d2ab16643e5a08cafd2	3	1	practice_z	9	practice_z	13	stimuli_target_diamondsquares.svg	stimuli_distractor_trianglediamonds.svg	6	yes	44	1	359	0	0			0	0			1				0	
6.6.1	win	2023-06-13	14:17:58	14:29:31	690488	60873d2ab16643e5a08cafd2	3	1	practice_z	9	advance_on_keypress_ZEE	14	stimuli_target_diamondsquares.svg	stimuli_distractor_trianglediamonds.svg	6	yes	57	0	369	0	0			0	0			1				0	
6.6.1	win	2023-06-13	14:17:58	14:29:33	692855	60873d2ab16643e5a08cafd2	3	1	practice_z	9	practice_z	15	stimuli_distractor_trianglediamonds.svg	stimuli_target_rectanglediamonds.svg	10	yes	44	1	361	0	0			0	0			1				0	
6.6.1	win	2023-06-13	14:17:58	14:29:33	692855	60873d2ab16643e5a08cafd2	3	1	practice_z	9	advance_on_keypress_ZEE	16	stimuli_distractor_trianglediamonds.svg	stimuli_target_rectanglediamonds.svg	10	yes	57	0	443	0	0			0	0			1				0	
6.6.1	win	2023-06-13	14:17:58	14:29:35	695352	60873d2ab16643e5a08cafd2	3	1	practice_z	9	practice_z	17	stimuli_target_rectanglediamonds.svg	stimuli_distractor_diamondtriangles.svg	1	yes	44	1	408	0	0			0	0			1				0	
6.6.1	win	2023-06-13	14:17:58	14:29:35	695352	60873d2ab16643e5a08cafd2	3	1	practice_z	9	advance_on_keypress_ZEE	18	stimuli_target_rectanglediamonds.svg	stimuli_distractor_diamondtriangles.svg	1	yes	57	0	544	0	0			0	0			1				0	
6.6.1	win	2023-06-13	14:17:58	14:29:38	697943	60873d2ab16643e5a08cafd2	3	1	practice_z	9	practice_z	19	stimuli_target_squarediamonds.svg	stimuli_distractor_diamondtriangles.svg	2	yes	44	1	418	0	0			0	0			1				0	
6.6.1	win	2023-06-13	14:17:58	14:29:38	697943	60873d2ab16643e5a08cafd2	3	1	practice_z	9	advance_on_keypress_ZEE	20	stimuli_target_squarediamonds.svg	stimuli_distractor_diamondtriangles.svg	2	yes	57	0	457	0	0			0	0			1				0	
6.6.1	win	2023-06-13	14:17:58	14:29:41	700743	60873d2ab16643e5a08cafd2	3	1	practice_z	9	practice_z	21	stimuli_distractor_trianglediamonds.svg	stimuli_target_diamondrectangles.svg	12	yes	44	1	702	0	0			0	0			1				0	
6.6.1	win	2023-06-13	14:17:58	14:29:41	700743	60873d2ab16643e5a08cafd2	3	1	practice_z	9	advance_on_keypress_ZEE	22	stimuli_distractor_trianglediamonds.svg	stimuli_target_diamondrectangles.svg	12	yes	57	0	410	0	0			0	0			1				0	
6.6.1	win	2023-06-13	14:17:58	14:29:43	703391	60873d2ab16643e5a08cafd2	3	1	practice_z	9	practice_z	23	stimuli_distractor_diamondtriangles.svg	stimuli_target_diamondrectangles.svg	8	yes	44	1	601	0	0			0	0			1				0	
6.6.1	win	2023-06-13	14:17:58	14:29:43	703391	60873d2ab16643e5a08cafd2	3	1	practice_z	9	advance_on_keypress_ZEE	24	stimuli_distractor_diamondtriangles.svg	stimuli_target_diamondrectangles.svg	8	yes	57	0	473	0	0			0	0			1				0	
6.6.1	win	2023-06-13	14:17:58	14:29:48	707506	60873d2ab16643e5a08cafd2	3	1	practice_z	9	practice_z	25	stimuli_distractor_diamondtriangles.svg	stimuli_distractor_trianglediamonds.svg	14	no	0	1	2000	0	0			0	0			1				0	
6.6.1	win	2023-06-13	14:17:58	14:29:48	707506	60873d2ab16643e5a08cafd2	3	1	practice_z	9	advance_on_keypress_ZEE	26	stimuli_distractor_diamondtriangles.svg	stimuli_distractor_trianglediamonds.svg	14	no	57	0	254	0	0			0	0			1				0	
6.6.1	win	2023-06-13	14:17:58	14:29:50	709832	60873d2ab16643e5a08cafd2	3	1	practice_z	9	practice_z	27	stimuli_target_rectanglediamonds.svg	stimuli_distractor_trianglediamonds.svg	4	yes	44	1	426	0	0			0	0			1				0	
6.6.1	win	2023-06-13	14:17:58	14:29:50	709832	60873d2ab16643e5a08cafd2	3	1	practice_z	9	advance_on_keypress_ZEE	28	stimuli_target_rectanglediamonds.svg	stimuli_distractor_trianglediamonds.svg	4	yes	57	0	442	0	0			0	0			1				0	
6.6.1	win	2023-06-13	14:17:58	14:29:52	712335	60873d2ab16643e5a08cafd2	3	1	practice_z	9	practice_z	29	stimuli_target_diamondsquares.svg	stimuli_distractor_diamondtriangles.svg	3	yes	44	1	431	0	0			0	0			1				0	
6.6.1	win	2023-06-13	14:17:58	14:29:52	712335	60873d2ab16643e5a08cafd2	3	1	practice_z	9	advance_on_keypress_ZEE	30	stimuli_target_diamondsquares.svg	stimuli_distractor_diamondtriangles.svg	3	yes	57	0	462	0	0			0	0			1				0	
6.6.1	win	2023-06-13	14:17:58	14:29:57	716436	60873d2ab16643e5a08cafd2	3	1	practice_z	9	practice_z	31	stimuli_distractor_trianglediamonds.svg	stimuli_distractor_trianglediamonds.svg	15	no	0	1	2000	0	0			0	0			1				0	
6.6.1	win	2023-06-13	14:17:58	14:29:57	716436	60873d2ab16643e5a08cafd2	3	1	practice_z	9	advance_on_keypress_ZEE	32	stimuli_distractor_trianglediamonds.svg	stimuli_distractor_trianglediamonds.svg	15	no	57	0	299	0	0			0	0			1				0	
6.6.1	win	2023-06-13	14:17:58	14:30:01	720854	60873d2ab16643e5a08cafd2	3	1	main_z	11	main_z	1	stimuli_target_rectanglediamonds.svg	stimuli_distractor_diamondtriangles.svg	6	yes	44	1	421	0	0			0	0			1				0	
6.6.1	win	2023-06-13	14:17:58	14:30:01	720854	60873d2ab16643e5a08cafd2	3	1	main_z	11	advance_on_keypress_ZEE	2	stimuli_target_rectanglediamonds.svg	stimuli_distractor_diamondtriangles.svg	6	yes	57	0	1092	0	0			0	0			1				0	
6.6.1	win	2023-06-13	14:17:58	14:30:05	724582	60873d2ab16643e5a08cafd2	3	1	main_z	11	main_z	3	stimuli_distractor_trianglediamonds.svg	stimuli_distractor_trianglediamonds.svg	33	no	0	1	2000	0	0			0	0			1				0	
6.6.1	win	2023-06-13	14:17:58	14:30:05	724582	60873d2ab16643e5a08cafd2	3	1	main_z	11	advance_on_keypress_ZEE	4	stimuli_distractor_trianglediamonds.svg	stimuli_distractor_trianglediamonds.svg	33	no	57	0	280	0	0			0	0			1				0	
6.6.1	win	2023-06-13	14:17:58	14:30:06	725974	60873d2ab16643e5a08cafd2	3	1	main_z	11	main_z	5	stimuli_distractor_diamondtriangles.svg	stimuli_distractor_trianglediamonds.svg	37	no	44	0	476	0	0			0	0			1				0	
6.6.1	win	2023-06-13	14:17:58	14:30:06	725974	60873d2ab16643e5a08cafd2	3	1	main_z	11	advance_on_keypress_ZEE	6	stimuli_distractor_diamondtriangles.svg	stimuli_distractor_trianglediamonds.svg	37	no	57	0	593	0	0			0	0			1				0	
6.6.1	win	2023-06-13	14:17:58	14:30:09	729197	60873d2ab16643e5a08cafd2	3	1	main_z	11	main_z	7	stimuli_distractor_trianglediamonds.svg	stimuli_distractor_diamondtriangles.svg	36	no	0	1	2000	0	0			0	0			1				0	
6.6.1	win	2023-06-13	14:17:58	14:30:09	729197	60873d2ab16643e5a08cafd2	3	1	main_z	11	advance_on_keypress_ZEE	8	stimuli_distractor_trianglediamonds.svg	stimuli_distractor_diamondtriangles.svg	36	no	57	0	289	0	0			0	0			1				0	
6.6.1	win	2023-06-13	14:17:58	14:30:11	730574	60873d2ab16643e5a08cafd2	3	1	main_z	11	main_z	9	stimuli_target_trianglerectangles.svg	stimuli_distractor_diamondtriangles.svg	21	yes	44	1	444	0	0			0	0			1				0	
6.6.1	win	2023-06-13	14:17:58	14:30:11	730574	60873d2ab16643e5a08cafd2	3	1	main_z	11	advance_on_keypress_ZEE	10	stimuli_target_trianglerectangles.svg	stimuli_distractor_diamondtriangles.svg	21	yes	57	0	571	0	0			0	0			1				0	
6.6.1	win	2023-06-13	14:17:58	14:30:14	733510	60873d2ab16643e5a08cafd2	3	1	main_z	11	main_z	11	stimuli_distractor_diamondtriangles.svg	stimuli_target_trianglesquares.svg	30	yes	44	1	1731	0	0			0	0			1				0	
6.6.1	win	2023-06-13	14:17:58	14:30:14	733510	60873d2ab16643e5a08cafd2	3	1	main_z	11	advance_on_keypress_ZEE	12	stimuli_distractor_diamondtriangles.svg	stimuli_target_trianglesquares.svg	30	yes	57	0	622	0	0			0	0			1				0	
6.6.1	win	2023-06-13	14:17:58	14:30:15	735294	60873d2ab16643e5a08cafd2	3	1	main_z	11	main_z	13	stimuli_distractor_diamondtriangles.svg	stimuli_target_trianglerectangles.svg	29	yes	44	1	516	0	0			0	0			1				0	
6.6.1	win	2023-06-13	14:17:58	14:30:15	735294	60873d2ab16643e5a08cafd2	3	1	main_z	11	advance_on_keypress_ZEE	14	stimuli_distractor_diamondtriangles.svg	stimuli_target_trianglerectangles.svg	29	yes	57	0	423	0	0			0	0			1				0	
6.6.1	win	2023-06-13	14:17:58	14:30:17	736918	60873d2ab16643e5a08cafd2	3	1	main_z	11	main_z	15	stimuli_distractor_diamondtriangles.svg	stimuli_target_rectangletriangles.svg	13	yes	44	1	557	0	0			0	0			1				0	
6.6.1	win	2023-06-13	14:17:58	14:30:17	736918	60873d2ab16643e5a08cafd2	3	1	main_z	11	advance_on_keypress_ZEE	16	stimuli_distractor_diamondtriangles.svg	stimuli_target_rectangletriangles.svg	13	yes	57	0	479	0	0			0	0			1				0	
6.6.1	win	2023-06-13	14:17:58	14:30:18	738382	60873d2ab16643e5a08cafd2	3	1	main_z	11	main_z	17	stimuli_distractor_trianglediamonds.svg	stimuli_target_diamondrectangles.svg	27	yes	44	1	355	0	0			0	0			1				0	
6.6.1	win	2023-06-13	14:17:58	14:30:18	738382	60873d2ab16643e5a08cafd2	3	1	main_z	11	advance_on_keypress_ZEE	18	stimuli_distractor_trianglediamonds.svg	stimuli_target_diamondrectangles.svg	27	yes	57	0	396	0	0			0	0			1				0	
6.6.1	win	2023-06-13	14:17:58	14:30:20	739942	60873d2ab16643e5a08cafd2	3	1	main_z	11	main_z	19	stimuli_target_rectangletriangles.svg	stimuli_distractor_trianglediamonds.svg	1	yes	44	1	532	0	0			0	0			1				0	
6.6.1	win	2023-06-13	14:17:58	14:30:20	739942	60873d2ab16643e5a08cafd2	3	1	main_z	11	advance_on_keypress_ZEE	20	stimuli_target_rectangletriangles.svg	stimuli_distractor_trianglediamonds.svg	1	yes	57	0	310	0	0			0	0			1				0	
6.6.1	win	2023-06-13	14:17:58	14:30:21	741286	60873d2ab16643e5a08cafd2	3	1	main_z	11	main_z	21	stimuli_target_rectangletriangles.svg	stimuli_distractor_diamondtriangles.svg	5	yes	44	1	393	0	0			0	0			1				0	
6.6.1	win	2023-06-13	14:17:58	14:30:21	741286	60873d2ab16643e5a08cafd2	3	1	main_z	11	advance_on_keypress_ZEE	22	stimuli_target_rectangletriangles.svg	stimuli_distractor_diamondtriangles.svg	5	yes	57	0	369	0	0			0	0			1				0	
6.6.1	win	2023-06-13	14:17:58	14:30:23	742814	60873d2ab16643e5a08cafd2	3	1	main_z	11	main_z	23	stimuli_target_trianglesquares.svg	stimuli_distractor_trianglediamonds.svg	18	yes	44	1	521	0	0			0	0			1				0	
6.6.1	win	2023-06-13	14:17:58	14:30:23	742814	60873d2ab16643e5a08cafd2	3	1	main_z	11	advance_on_keypress_ZEE	24	stimuli_target_trianglesquares.svg	stimuli_distractor_trianglediamonds.svg	18	yes	57	0	405	0	0			0	0			1				0	
6.6.1	win	2023-06-13	14:17:58	14:30:24	744222	60873d2ab16643e5a08cafd2	3	1	main_z	11	main_z	25	stimuli_distractor_diamondtriangles.svg	stimuli_target_squaretriangles.svg	15	yes	44	1	363	0	0			0	0			1				0	
6.6.1	win	2023-06-13	14:17:58	14:30:24	744222	60873d2ab16643e5a08cafd2	3	1	main_z	11	advance_on_keypress_ZEE	26	stimuli_distractor_diamondtriangles.svg	stimuli_target_squaretriangles.svg	15	yes	57	0	348	0	0			0	0			1				0	
6.6.1	win	2023-06-13	14:17:58	14:30:26	745550	60873d2ab16643e5a08cafd2	3	1	main_z	11	main_z	27	stimuli_target_trianglesquares.svg	stimuli_distractor_diamondtriangles.svg	22	yes	44	1	325	0	0			0	0			1				0	
6.6.1	win	2023-06-13	14:17:58	14:30:26	745550	60873d2ab16643e5a08cafd2	3	1	main_z	11	advance_on_keypress_ZEE	28	stimuli_target_trianglesquares.svg	stimuli_distractor_diamondtriangles.svg	22	yes	57	0	424	0	0			0	0			1				0	
6.6.1	win	2023-06-13	14:17:58	14:30:27	746926	60873d2ab16643e5a08cafd2	3	1	main_z	11	main_z	29	stimuli_distractor_diamondtriangles.svg	stimuli_target_diamondsquares.svg	32	yes	44	1	318	0	0			0	0			1				0	
6.6.1	win	2023-06-13	14:17:58	14:30:27	746926	60873d2ab16643e5a08cafd2	3	1	main_z	11	advance_on_keypress_ZEE	30	stimuli_distractor_diamondtriangles.svg	stimuli_target_diamondsquares.svg	32	yes	57	0	721	0	0			0	0			1				0	
6.6.1	win	2023-06-13	14:17:58	14:30:29	748702	60873d2ab16643e5a08cafd2	3	1	main_z	11	main_z	31	stimuli_distractor_diamondtriangles.svg	stimuli_target_diamondrectangles.svg	31	yes	44	1	412	0	0			0	0			1				0	
6.6.1	win	2023-06-13	14:17:58	14:30:29	748702	60873d2ab16643e5a08cafd2	3	1	main_z	11	advance_on_keypress_ZEE	32	stimuli_distractor_diamondtriangles.svg	stimuli_target_diamondrectangles.svg	31	yes	57	0	371	0	0			0	0			1				0	
6.6.1	win	2023-06-13	14:17:58	14:30:30	750089	60873d2ab16643e5a08cafd2	3	1	main_z	11	main_z	33	stimuli_distractor_diamondtriangles.svg	stimuli_target_squarediamonds.svg	16	yes	44	1	371	0	0			0	0			1				0	
6.6.1	win	2023-06-13	14:17:58	14:30:30	750089	60873d2ab16643e5a08cafd2	3	1	main_z	11	advance_on_keypress_ZEE	34	stimuli_distractor_diamondtriangles.svg	stimuli_target_squarediamonds.svg	16	yes	57	0	387	0	0			0	0			1				0	
6.6.1	win	2023-06-13	14:17:58	14:30:32	751542	60873d2ab16643e5a08cafd2	3	1	main_z	11	main_z	35	stimuli_target_diamondrectangles.svg	stimuli_distractor_diamondtriangles.svg	23	yes	44	1	419	0	0			0	0			1				0	
6.6.1	win	2023-06-13	14:17:58	14:30:32	751542	60873d2ab16643e5a08cafd2	3	1	main_z	11	advance_on_keypress_ZEE	36	stimuli_target_diamondrectangles.svg	stimuli_distractor_diamondtriangles.svg	23	yes	57	0	338	0	0			0	0			1				0	
6.6.1	win	2023-06-13	14:17:58	14:30:33	752870	60873d2ab16643e5a08cafd2	3	1	main_z	11	main_z	37	stimuli_target_diamondsquares.svg	stimuli_distractor_diamondtriangles.svg	24	yes	44	1	348	0	0			0	0			1				0	
6.6.1	win	2023-06-13	14:17:58	14:30:33	752870	60873d2ab16643e5a08cafd2	3	1	main_z	11	advance_on_keypress_ZEE	38	stimuli_target_diamondsquares.svg	stimuli_distractor_diamondtriangles.svg	24	yes	57	0	365	0	0			0	0			1				0	
6.6.1	win	2023-06-13	14:17:58	14:30:36	755888	60873d2ab16643e5a08cafd2	3	1	main_z	11	main_z	39	stimuli_distractor_diamondtriangles.svg	stimuli_distractor_diamondtriangles.svg	39	no	0	1	2000	0	0			0	0			1				0	
6.6.1	win	2023-06-13	14:17:58	14:30:36	755888	60873d2ab16643e5a08cafd2	3	1	main_z	11	advance_on_keypress_ZEE	40	stimuli_distractor_diamondtriangles.svg	stimuli_distractor_diamondtriangles.svg	39	no	57	0	286	0	0			0	0			1				0	
6.6.1	win	2023-06-13	14:17:58	14:30:37	757230	60873d2ab16643e5a08cafd2	3	1	main_z	11	main_z	41	stimuli_target_diamondsquares.svg	stimuli_distractor_trianglediamonds.svg	20	yes	44	1	409	0	0			0	0			1				0	
6.6.1	win	2023-06-13	14:17:58	14:30:37	757230	60873d2ab16643e5a08cafd2	3	1	main_z	11	advance_on_keypress_ZEE	42	stimuli_target_diamondsquares.svg	stimuli_distractor_trianglediamonds.svg	20	yes	57	0	377	0	0			0	0			1				0	
6.6.1	win	2023-06-13	14:17:58	14:30:40	760237	60873d2ab16643e5a08cafd2	3	1	main_z	11	main_z	43	stimuli_distractor_diamondtriangles.svg	stimuli_distractor_trianglediamonds.svg	38	no	0	1	2000	0	0			0	0			1				0	
6.6.1	win	2023-06-13	14:17:58	14:30:40	760237	60873d2ab16643e5a08cafd2	3	1	main_z	11	advance_on_keypress_ZEE	44	stimuli_distractor_diamondtriangles.svg	stimuli_distractor_trianglediamonds.svg	38	no	57	0	481	0	0			0	0			1				0	
6.6.1	win	2023-06-13	14:17:58	14:30:43	763369	60873d2ab16643e5a08cafd2	3	1	main_z	11	main_z	45	stimuli_distractor_trianglediamonds.svg	stimuli_distractor_trianglediamonds.svg	34	no	0	1	2000	0	0			0	0			1				0	
6.6.1	win	2023-06-13	14:17:58	14:30:43	763369	60873d2ab16643e5a08cafd2	3	1	main_z	11	advance_on_keypress_ZEE	46	stimuli_distractor_trianglediamonds.svg	stimuli_distractor_trianglediamonds.svg	34	no	57	0	381	0	0			0	0			1				0	
6.6.1	win	2023-06-13	14:17:58	14:30:45	764790	60873d2ab16643e5a08cafd2	3	1	main_z	11	main_z	47	stimuli_distractor_trianglediamonds.svg	stimuli_target_trianglesquares.svg	26	yes	44	1	388	0	0			0	0			1				0	
6.6.1	win	2023-06-13	14:17:58	14:30:45	764790	60873d2ab16643e5a08cafd2	3	1	main_z	11	advance_on_keypress_ZEE	48	stimuli_distractor_trianglediamonds.svg	stimuli_target_trianglesquares.svg	26	yes	57	0	1029	0	0			0	0			1				0	
6.6.1	win	2023-06-13	14:17:58	14:30:47	766878	60873d2ab16643e5a08cafd2	3	1	main_z	11	main_z	49	stimuli_target_squarediamonds.svg	stimuli_distractor_diamondtriangles.svg	8	yes	44	1	427	0	0			0	0			1				0	
6.6.1	win	2023-06-13	14:17:58	14:30:47	766878	60873d2ab16643e5a08cafd2	3	1	main_z	11	advance_on_keypress_ZEE	50	stimuli_target_squarediamonds.svg	stimuli_distractor_diamondtriangles.svg	8	yes	57	0	450	0	0			0	0			1				0	
6.6.1	win	2023-06-13	14:17:58	14:30:50	769967	60873d2ab16643e5a08cafd2	3	1	main_z	11	main_z	51	stimuli_distractor_diamondtriangles.svg	stimuli_distractor_diamondtriangles.svg	40	no	0	1	2000	0	0			0	0			1				0	
6.6.1	win	2023-06-13	14:17:58	14:30:50	769967	60873d2ab16643e5a08cafd2	3	1	main_z	11	advance_on_keypress_ZEE	52	stimuli_distractor_diamondtriangles.svg	stimuli_distractor_diamondtriangles.svg	40	no	57	0	447	0	0			0	0			1				0	
6.6.1	win	2023-06-13	14:17:58	14:30:52	771494	60873d2ab16643e5a08cafd2	3	1	main_z	11	main_z	53	stimuli_target_squaretriangles.svg	stimuli_distractor_trianglediamonds.svg	3	yes	44	1	428	0	0			0	0			1				0	
6.6.1	win	2023-06-13	14:17:58	14:30:52	771494	60873d2ab16643e5a08cafd2	3	1	main_z	11	advance_on_keypress_ZEE	54	stimuli_target_squaretriangles.svg	stimuli_distractor_trianglediamonds.svg	3	yes	57	0	571	0	0			0	0			1				0	
6.6.1	win	2023-06-13	14:17:58	14:30:53	773166	60873d2ab16643e5a08cafd2	3	1	main_z	11	main_z	55	stimuli_distractor_trianglediamonds.svg	stimuli_target_diamondsquares.svg	28	yes	44	1	467	0	0			0	0			1				0	
6.6.1	win	2023-06-13	14:17:58	14:30:53	773166	60873d2ab16643e5a08cafd2	3	1	main_z	11	advance_on_keypress_ZEE	56	stimuli_distractor_trianglediamonds.svg	stimuli_target_diamondsquares.svg	28	yes	57	0	416	0	0			0	0			1				0	
6.6.1	win	2023-06-13	14:17:58	14:30:55	774646	60873d2ab16643e5a08cafd2	3	1	main_z	11	main_z	57	stimuli_distractor_trianglediamonds.svg	stimuli_target_trianglerectangles.svg	25	yes	44	1	414	0	0			0	0			1				0	
6.6.1	win	2023-06-13	14:17:58	14:30:55	774646	60873d2ab16643e5a08cafd2	3	1	main_z	11	advance_on_keypress_ZEE	58	stimuli_distractor_trianglediamonds.svg	stimuli_target_trianglerectangles.svg	25	yes	57	0	421	0	0			0	0			1				0	
6.6.1	win	2023-06-13	14:17:58	14:30:56	776174	60873d2ab16643e5a08cafd2	3	1	main_z	11	main_z	59	stimuli_target_squarediamonds.svg	stimuli_distractor_trianglediamonds.svg	4	yes	44	1	459	0	0			0	0			1				0	
6.6.1	win	2023-06-13	14:17:58	14:30:56	776174	60873d2ab16643e5a08cafd2	3	1	main_z	11	advance_on_keypress_ZEE	60	stimuli_target_squarediamonds.svg	stimuli_distractor_trianglediamonds.svg	4	yes	57	0	118385	0	0			0	0			1				0	
6.6.1	win	2023-06-13	14:17:58	14:32:56	895525	60873d2ab16643e5a08cafd2	3	1	main_z	11	main_z	61	stimuli_target_rectanglediamonds.svg	stimuli_distractor_trianglediamonds.svg	2	yes	44	1	334	0	0			0	0			1				0	
6.6.1	win	2023-06-13	14:17:58	14:32:56	895525	60873d2ab16643e5a08cafd2	3	1	main_z	11	advance_on_keypress_ZEE	62	stimuli_target_rectanglediamonds.svg	stimuli_distractor_trianglediamonds.svg	2	yes	57	0	401	0	0			0	0			1				0	
6.6.1	win	2023-06-13	14:17:58	14:32:57	896909	60873d2ab16643e5a08cafd2	3	1	main_z	11	main_z	63	stimuli_distractor_trianglediamonds.svg	stimuli_target_squaretriangles.svg	11	yes	44	1	335	0	0			0	0			1				0	
6.6.1	win	2023-06-13	14:17:58	14:32:57	896909	60873d2ab16643e5a08cafd2	3	1	main_z	11	advance_on_keypress_ZEE	64	stimuli_distractor_trianglediamonds.svg	stimuli_target_squaretriangles.svg	11	yes	57	0	330	0	0			0	0			1				0	
6.6.1	win	2023-06-13	14:17:58	14:32:58	898341	60873d2ab16643e5a08cafd2	3	1	main_z	11	main_z	65	stimuli_distractor_diamondtriangles.svg	stimuli_target_rectanglediamonds.svg	14	yes	44	1	468	0	0			0	0			1				0	
6.6.1	win	2023-06-13	14:17:58	14:32:58	898341	60873d2ab16643e5a08cafd2	3	1	main_z	11	advance_on_keypress_ZEE	66	stimuli_distractor_diamondtriangles.svg	stimuli_target_rectanglediamonds.svg	14	yes	57	0	305	0	0			0	0			1				0	
6.6.1	win	2023-06-13	14:17:58	14:33:01	901290	60873d2ab16643e5a08cafd2	3	1	main_z	11	main_z	67	stimuli_distractor_trianglediamonds.svg	stimuli_distractor_diamondtriangles.svg	35	no	0	1	2000	0	0			0	0			1				0	
6.6.1	win	2023-06-13	14:17:58	14:33:01	901290	60873d2ab16643e5a08cafd2	3	1	main_z	11	advance_on_keypress_ZEE	68	stimuli_distractor_trianglediamonds.svg	stimuli_distractor_diamondtriangles.svg	35	no	57	0	276	0	0			0	0			1				0	
6.6.1	win	2023-06-13	14:17:58	14:33:03	902558	60873d2ab16643e5a08cafd2	3	1	main_z	11	main_z	69	stimuli_target_squaretriangles.svg	stimuli_distractor_diamondtriangles.svg	7	yes	44	1	352	0	0			0	0			1				0	
6.6.1	win	2023-06-13	14:17:58	14:33:03	902558	60873d2ab16643e5a08cafd2	3	1	main_z	11	advance_on_keypress_ZEE	70	stimuli_target_squaretriangles.svg	stimuli_distractor_diamondtriangles.svg	7	yes	57	0	306	0	0			0	0			1				0	
6.6.1	win	2023-06-13	14:17:58	14:33:04	903918	60873d2ab16643e5a08cafd2	3	1	main_z	11	main_z	71	stimuli_distractor_trianglediamonds.svg	stimuli_target_squarediamonds.svg	12	yes	44	1	412	0	0			0	0			1				0	
6.6.1	win	2023-06-13	14:17:58	14:33:04	903918	60873d2ab16643e5a08cafd2	3	1	main_z	11	advance_on_keypress_ZEE	72	stimuli_distractor_trianglediamonds.svg	stimuli_target_squarediamonds.svg	12	yes	57	0	340	0	0			0	0			1				0	
6.6.1	win	2023-06-13	14:17:58	14:33:05	905197	60873d2ab16643e5a08cafd2	3	1	main_z	11	main_z	73	stimuli_distractor_trianglediamonds.svg	stimuli_target_rectanglediamonds.svg	10	yes	44	1	309	0	0			0	0			1				0	
6.6.1	win	2023-06-13	14:17:58	14:33:05	905197	60873d2ab16643e5a08cafd2	3	1	main_z	11	advance_on_keypress_ZEE	74	stimuli_distractor_trianglediamonds.svg	stimuli_target_rectanglediamonds.svg	10	yes	57	0	305	0	0			0	0			1				0	
6.6.1	win	2023-06-13	14:17:58	14:33:07	906461	60873d2ab16643e5a08cafd2	3	1	main_z	11	main_z	75	stimuli_distractor_trianglediamonds.svg	stimuli_target_rectangletriangles.svg	9	yes	44	1	324	0	0			0	0			1				0	
6.6.1	win	2023-06-13	14:17:58	14:33:07	906461	60873d2ab16643e5a08cafd2	3	1	main_z	11	advance_on_keypress_ZEE	76	stimuli_distractor_trianglediamonds.svg	stimuli_target_rectangletriangles.svg	9	yes	57	0	327	0	0			0	0			1				0	
6.6.1	win	2023-06-13	14:17:58	14:33:08	907837	60873d2ab16643e5a08cafd2	3	1	main_z	11	main_z	77	stimuli_target_diamondrectangles.svg	stimuli_distractor_trianglediamonds.svg	19	yes	44	1	417	0	0			0	0			1				0	
6.6.1	win	2023-06-13	14:17:58	14:33:08	907837	60873d2ab16643e5a08cafd2	3	1	main_z	11	advance_on_keypress_ZEE	78	stimuli_target_diamondrectangles.svg	stimuli_distractor_trianglediamonds.svg	19	yes	57	0	392	0	0			0	0			1				0	
6.6.1	win	2023-06-13	14:17:58	14:33:09	909309	60873d2ab16643e5a08cafd2	3	1	main_z	11	main_z	79	stimuli_target_trianglerectangles.svg	stimuli_distractor_trianglediamonds.svg	17	yes	44	1	439	0	0			0	0			1				0	
6.6.1	win	2023-06-13	14:17:58	14:33:09	909309	60873d2ab16643e5a08cafd2	3	1	main_z	11	advance_on_keypress_ZEE	80	stimuli_target_trianglerectangles.svg	stimuli_distractor_trianglediamonds.svg	17	yes	57	0	246	0	0			0	0			1				0	
6.6.1	win	2023-06-13	14:17:58	14:33:11	910501	60873d2ab16643e5a08cafd2	3	1	main_z	11	main_z	81	stimuli_distractor_trianglediamonds.svg	stimuli_target_squaretriangles.svg	11	yes	44	1	315	0	0			0	0			1				0	
6.6.1	win	2023-06-13	14:17:58	14:33:11	910501	60873d2ab16643e5a08cafd2	3	1	main_z	11	advance_on_keypress_ZEE	82	stimuli_distractor_trianglediamonds.svg	stimuli_target_squaretriangles.svg	11	yes	57	0	302	0	0			0	0			1				0	
6.6.1	win	2023-06-13	14:17:58	14:33:12	911757	60873d2ab16643e5a08cafd2	3	1	main_z	11	main_z	83	stimuli_distractor_diamondtriangles.svg	stimuli_target_trianglerectangles.svg	29	yes	44	1	305	0	0			0	0			1				0	
6.6.1	win	2023-06-13	14:17:58	14:33:12	911757	60873d2ab16643e5a08cafd2	3	1	main_z	11	advance_on_keypress_ZEE	84	stimuli_distractor_diamondtriangles.svg	stimuli_target_trianglerectangles.svg	29	yes	57	0	293	0	0			0	0			1				0	
6.6.1	win	2023-06-13	14:17:58	14:33:13	913068	60873d2ab16643e5a08cafd2	3	1	main_z	11	main_z	85	stimuli_target_diamondsquares.svg	stimuli_distractor_diamondtriangles.svg	24	yes	44	1	376	0	0			0	0			1				0	
6.6.1	win	2023-06-13	14:17:58	14:33:13	913068	60873d2ab16643e5a08cafd2	3	1	main_z	11	advance_on_keypress_ZEE	86	stimuli_target_diamondsquares.svg	stimuli_distractor_diamondtriangles.svg	24	yes	57	0	264	0	0			0	0			1				0	
6.6.1	win	2023-06-13	14:17:58	14:33:14	914309	60873d2ab16643e5a08cafd2	3	1	main_z	11	main_z	87	stimuli_target_rectangletriangles.svg	stimuli_distractor_diamondtriangles.svg	5	yes	44	1	324	0	0			0	0			1				0	
6.6.1	win	2023-06-13	14:17:58	14:33:14	914309	60873d2ab16643e5a08cafd2	3	1	main_z	11	advance_on_keypress_ZEE	88	stimuli_target_rectangletriangles.svg	stimuli_distractor_diamondtriangles.svg	5	yes	57	0	271	0	0			0	0			1				0	
6.6.1	win	2023-06-13	14:17:58	14:33:16	915565	60873d2ab16643e5a08cafd2	3	1	main_z	11	main_z	89	stimuli_distractor_trianglediamonds.svg	stimuli_target_diamondrectangles.svg	27	yes	44	1	347	0	0			0	0			1				0	
6.6.1	win	2023-06-13	14:17:58	14:33:16	915565	60873d2ab16643e5a08cafd2	3	1	main_z	11	advance_on_keypress_ZEE	90	stimuli_distractor_trianglediamonds.svg	stimuli_target_diamondrectangles.svg	27	yes	57	0	285	0	0			0	0			1				0	
6.6.1	win	2023-06-13	14:17:58	14:33:17	916789	60873d2ab16643e5a08cafd2	3	1	main_z	11	main_z	91	stimuli_distractor_diamondtriangles.svg	stimuli_distractor_trianglediamonds.svg	38	no	44	0	289	0	0			0	0			1				0	
6.6.1	win	2023-06-13	14:17:58	14:33:17	916789	60873d2ab16643e5a08cafd2	3	1	main_z	11	advance_on_keypress_ZEE	92	stimuli_distractor_diamondtriangles.svg	stimuli_distractor_trianglediamonds.svg	38	no	57	0	613	0	0			0	0			1				0	
6.6.1	win	2023-06-13	14:17:58	14:33:19	918509	60873d2ab16643e5a08cafd2	3	1	main_z	11	main_z	93	stimuli_distractor_trianglediamonds.svg	stimuli_target_trianglesquares.svg	26	yes	44	1	476	0	0			0	0			1				0	
6.6.1	win	2023-06-13	14:17:58	14:33:19	918509	60873d2ab16643e5a08cafd2	3	1	main_z	11	advance_on_keypress_ZEE	94	stimuli_distractor_trianglediamonds.svg	stimuli_target_trianglesquares.svg	26	yes	57	0	305	0	0			0	0			1				0	
6.6.1	win	2023-06-13	14:17:58	14:33:20	919885	60873d2ab16643e5a08cafd2	3	1	main_z	11	main_z	95	stimuli_distractor_trianglediamonds.svg	stimuli_target_diamondsquares.svg	28	yes	44	1	435	0	0			0	0			1				0	
6.6.1	win	2023-06-13	14:17:58	14:33:20	919885	60873d2ab16643e5a08cafd2	3	1	main_z	11	advance_on_keypress_ZEE	96	stimuli_distractor_trianglediamonds.svg	stimuli_target_diamondsquares.svg	28	yes	57	0	258	0	0			0	0			1				0	
6.6.1	win	2023-06-13	14:17:58	14:33:21	921302	60873d2ab16643e5a08cafd2	3	1	main_z	11	main_z	97	stimuli_distractor_diamondtriangles.svg	stimuli_target_squaretriangles.svg	15	yes	44	1	519	0	0			0	0			1				0	
6.6.1	win	2023-06-13	14:17:58	14:33:21	921302	60873d2ab16643e5a08cafd2	3	1	main_z	11	advance_on_keypress_ZEE	98	stimuli_distractor_diamondtriangles.svg	stimuli_target_squaretriangles.svg	15	yes	57	0	265	0	0			0	0			1				0	
6.6.1	win	2023-06-13	14:17:58	14:33:23	922693	60873d2ab16643e5a08cafd2	3	1	main_z	11	main_z	99	stimuli_distractor_diamondtriangles.svg	stimuli_target_rectangletriangles.svg	13	yes	44	1	478	0	0			0	0			1				0	
6.6.1	win	2023-06-13	14:17:58	14:33:23	922693	60873d2ab16643e5a08cafd2	3	1	main_z	11	advance_on_keypress_ZEE	100	stimuli_distractor_diamondtriangles.svg	stimuli_target_rectangletriangles.svg	13	yes	57	0	16475	0	0			0	0			1				0	
6.6.1	win	2023-06-13	14:17:58	14:33:40	940221	60873d2ab16643e5a08cafd2	3	1	main_z	11	main_z	101	stimuli_target_diamondrectangles.svg	stimuli_distractor_diamondtriangles.svg	23	yes	44	1	412	0	0			0	0			1				0	
6.6.1	win	2023-06-13	14:17:58	14:33:40	940221	60873d2ab16643e5a08cafd2	3	1	main_z	11	advance_on_keypress_ZEE	102	stimuli_target_diamondrectangles.svg	stimuli_distractor_diamondtriangles.svg	23	yes	57	0	339	0	0			0	0			1				0	
6.6.1	win	2023-06-13	14:17:58	14:33:43	943193	60873d2ab16643e5a08cafd2	3	1	main_z	11	main_z	103	stimuli_distractor_trianglediamonds.svg	stimuli_distractor_trianglediamonds.svg	34	no	0	1	2000	0	0			0	0			1				0	
6.6.1	win	2023-06-13	14:17:58	14:33:43	943193	60873d2ab16643e5a08cafd2	3	1	main_z	11	advance_on_keypress_ZEE	104	stimuli_distractor_trianglediamonds.svg	stimuli_distractor_trianglediamonds.svg	34	no	57	0	380	0	0			0	0			1				0	
6.6.1	win	2023-06-13	14:17:58	14:33:45	944629	60873d2ab16643e5a08cafd2	3	1	main_z	11	main_z	105	stimuli_target_squaretriangles.svg	stimuli_distractor_trianglediamonds.svg	3	yes	44	1	404	0	0			0	0			1				0	
6.6.1	win	2023-06-13	14:17:58	14:33:45	944629	60873d2ab16643e5a08cafd2	3	1	main_z	11	advance_on_keypress_ZEE	106	stimuli_target_squaretriangles.svg	stimuli_distractor_trianglediamonds.svg	3	yes	57	0	307	0	0			0	0			1				0	
6.6.1	win	2023-06-13	14:17:58	14:33:46	945957	60873d2ab16643e5a08cafd2	3	1	main_z	11	main_z	107	stimuli_distractor_trianglediamonds.svg	stimuli_target_rectangletriangles.svg	9	yes	44	1	375	0	0			0	0			1				0	
6.6.1	win	2023-06-13	14:17:58	14:33:46	945957	60873d2ab16643e5a08cafd2	3	1	main_z	11	advance_on_keypress_ZEE	108	stimuli_distractor_trianglediamonds.svg	stimuli_target_rectangletriangles.svg	9	yes	57	0	295	0	0			0	0			1				0	
6.6.1	win	2023-06-13	14:17:58	14:33:47	947253	60873d2ab16643e5a08cafd2	3	1	main_z	11	main_z	109	stimuli_distractor_diamondtriangles.svg	stimuli_target_rectanglediamonds.svg	14	yes	44	1	363	0	0			0	0			1				0	
6.6.1	win	2023-06-13	14:17:58	14:33:47	947253	60873d2ab16643e5a08cafd2	3	1	main_z	11	advance_on_keypress_ZEE	110	stimuli_distractor_diamondtriangles.svg	stimuli_target_rectanglediamonds.svg	14	yes	57	0	372	0	0			0	0			1				0	
6.6.1	win	2023-06-13	14:17:58	14:33:49	948709	60873d2ab16643e5a08cafd2	3	1	main_z	11	main_z	111	stimuli_target_trianglesquares.svg	stimuli_distractor_diamondtriangles.svg	22	yes	44	1	452	0	0			0	0			1				0	
6.6.1	win	2023-06-13	14:17:58	14:33:49	948709	60873d2ab16643e5a08cafd2	3	1	main_z	11	advance_on_keypress_ZEE	112	stimuli_target_trianglesquares.svg	stimuli_distractor_diamondtriangles.svg	22	yes	57	0	386	0	0			0	0			1				0	
6.6.1	win	2023-06-13	14:17:58	14:33:52	951740	60873d2ab16643e5a08cafd2	3	1	main_z	11	main_z	113	stimuli_distractor_diamondtriangles.svg	stimuli_distractor_trianglediamonds.svg	37	no	0	1	2000	0	0			0	0			1				0	
6.6.1	win	2023-06-13	14:17:58	14:33:52	951740	60873d2ab16643e5a08cafd2	3	1	main_z	11	advance_on_keypress_ZEE	114	stimuli_distractor_diamondtriangles.svg	stimuli_distractor_trianglediamonds.svg	37	no	57	0	298	0	0			0	0			1				0	
6.6.1	win	2023-06-13	14:17:58	14:33:53	953101	60873d2ab16643e5a08cafd2	3	1	main_z	11	main_z	115	stimuli_target_trianglesquares.svg	stimuli_distractor_trianglediamonds.svg	18	yes	44	1	413	0	0			0	0			1				0	
6.6.1	win	2023-06-13	14:17:58	14:33:53	953101	60873d2ab16643e5a08cafd2	3	1	main_z	11	advance_on_keypress_ZEE	116	stimuli_target_trianglesquares.svg	stimuli_distractor_trianglediamonds.svg	18	yes	57	0	300	0	0			0	0			1				0	
6.6.1	win	2023-06-13	14:17:58	14:33:56	956039	60873d2ab16643e5a08cafd2	3	1	main_z	11	main_z	117	stimuli_target_rectanglediamonds.svg	stimuli_distractor_trianglediamonds.svg	2	yes	0	0	2000	0	0			0	0			1				0	
6.6.1	win	2023-06-13	14:17:58	14:33:56	956039	60873d2ab16643e5a08cafd2	3	1	main_z	11	advance_on_keypress_ZEE	118	stimuli_target_rectanglediamonds.svg	stimuli_distractor_trianglediamonds.svg	2	yes	57	0	422	0	0			0	0			1				0	
6.6.1	win	2023-06-13	14:17:58	14:33:58	957581	60873d2ab16643e5a08cafd2	3	1	main_z	11	main_z	119	stimuli_distractor_diamondtriangles.svg	stimuli_target_trianglesquares.svg	30	yes	44	1	477	0	0			0	0			1				0	
6.6.1	win	2023-06-13	14:17:58	14:33:58	957581	60873d2ab16643e5a08cafd2	3	1	main_z	11	advance_on_keypress_ZEE	120	stimuli_distractor_diamondtriangles.svg	stimuli_target_trianglesquares.svg	30	yes	57	0	385	0	0			0	0			1				0	
6.6.1	win	2023-06-13	14:17:58	14:33:59	958997	60873d2ab16643e5a08cafd2	3	1	main_z	11	main_z	121	stimuli_target_rectanglediamonds.svg	stimuli_distractor_diamondtriangles.svg	6	yes	44	1	394	0	0			0	0			1				0	
6.6.1	win	2023-06-13	14:17:58	14:33:59	958997	60873d2ab16643e5a08cafd2	3	1	main_z	11	advance_on_keypress_ZEE	122	stimuli_target_rectanglediamonds.svg	stimuli_distractor_diamondtriangles.svg	6	yes	57	0	322	0	0			0	0			1				0	
6.6.1	win	2023-06-13	14:17:58	14:34:01	960413	60873d2ab16643e5a08cafd2	3	1	main_z	11	main_z	123	stimuli_target_diamondrectangles.svg	stimuli_distractor_trianglediamonds.svg	19	yes	44	1	460	0	0			0	0			1				0	
6.6.1	win	2023-06-13	14:17:58	14:34:01	960413	60873d2ab16643e5a08cafd2	3	1	main_z	11	advance_on_keypress_ZEE	124	stimuli_target_diamondrectangles.svg	stimuli_distractor_trianglediamonds.svg	19	yes	57	0	250	0	0			0	0			1				0	
6.6.1	win	2023-06-13	14:17:58	14:34:03	963303	60873d2ab16643e5a08cafd2	3	1	main_z	11	main_z	125	stimuli_distractor_trianglediamonds.svg	stimuli_distractor_trianglediamonds.svg	33	no	0	1	2000	0	0			0	0			1				0	
6.6.1	win	2023-06-13	14:17:58	14:34:03	963303	60873d2ab16643e5a08cafd2	3	1	main_z	11	advance_on_keypress_ZEE	126	stimuli_distractor_trianglediamonds.svg	stimuli_distractor_trianglediamonds.svg	33	no	57	0	303	0	0			0	0			1				0	
6.6.1	win	2023-06-13	14:17:58	14:34:05	964701	60873d2ab16643e5a08cafd2	3	1	main_z	11	main_z	127	stimuli_distractor_diamondtriangles.svg	stimuli_target_diamondsquares.svg	32	yes	44	1	450	0	0			0	0			1				0	
6.6.1	win	2023-06-13	14:17:58	14:34:05	964701	60873d2ab16643e5a08cafd2	3	1	main_z	11	advance_on_keypress_ZEE	128	stimuli_distractor_diamondtriangles.svg	stimuli_target_diamondsquares.svg	32	yes	57	0	327	0	0			0	0			1				0	
6.6.1	win	2023-06-13	14:17:58	14:34:08	967668	60873d2ab16643e5a08cafd2	3	1	main_z	11	main_z	129	stimuli_distractor_diamondtriangles.svg	stimuli_distractor_diamondtriangles.svg	39	no	0	1	2000	0	0			0	0			1				0	
6.6.1	win	2023-06-13	14:17:58	14:34:08	967668	60873d2ab16643e5a08cafd2	3	1	main_z	11	advance_on_keypress_ZEE	130	stimuli_distractor_diamondtriangles.svg	stimuli_distractor_diamondtriangles.svg	39	no	57	0	521	0	0			0	0			1				0	
6.6.1	win	2023-06-13	14:17:58	14:34:09	969261	60873d2ab16643e5a08cafd2	3	1	main_z	11	main_z	131	stimuli_distractor_diamondtriangles.svg	stimuli_target_diamondrectangles.svg	31	yes	44	1	427	0	0			0	0			1				0	
6.6.1	win	2023-06-13	14:17:58	14:34:09	969261	60873d2ab16643e5a08cafd2	3	1	main_z	11	advance_on_keypress_ZEE	132	stimuli_distractor_diamondtriangles.svg	stimuli_target_diamondrectangles.svg	31	yes	57	0	354	0	0			0	0			1				0	
6.6.1	win	2023-06-13	14:17:58	14:34:11	970646	60873d2ab16643e5a08cafd2	3	1	main_z	11	main_z	133	stimuli_target_squarediamonds.svg	stimuli_distractor_diamondtriangles.svg	8	yes	44	1	396	0	0			0	0			1				0	
6.6.1	win	2023-06-13	14:17:58	14:34:11	970646	60873d2ab16643e5a08cafd2	3	1	main_z	11	advance_on_keypress_ZEE	134	stimuli_target_squarediamonds.svg	stimuli_distractor_diamondtriangles.svg	8	yes	57	0	340	0	0			0	0			1				0	
6.6.1	win	2023-06-13	14:17:58	14:34:12	971999	60873d2ab16643e5a08cafd2	3	1	main_z	11	main_z	135	stimuli_distractor_trianglediamonds.svg	stimuli_target_squarediamonds.svg	12	yes	44	1	381	0	0			0	0			1				0	
6.6.1	win	2023-06-13	14:17:58	14:34:12	971999	60873d2ab16643e5a08cafd2	3	1	main_z	11	advance_on_keypress_ZEE	136	stimuli_distractor_trianglediamonds.svg	stimuli_target_squarediamonds.svg	12	yes	57	0	325	0	0			0	0			1				0	
6.6.1	win	2023-06-13	14:17:58	14:34:13	973301	60873d2ab16643e5a08cafd2	3	1	main_z	11	main_z	137	stimuli_distractor_trianglediamonds.svg	stimuli_target_rectanglediamonds.svg	10	yes	44	1	336	0	0			0	0			1				0	
6.6.1	win	2023-06-13	14:17:58	14:34:13	973301	60873d2ab16643e5a08cafd2	3	1	main_z	11	advance_on_keypress_ZEE	138	stimuli_distractor_trianglediamonds.svg	stimuli_target_rectanglediamonds.svg	10	yes	57	0	338	0	0			0	0			1				0	
6.6.1	win	2023-06-13	14:17:58	14:34:15	974685	60873d2ab16643e5a08cafd2	3	1	main_z	11	main_z	139	stimuli_distractor_trianglediamonds.svg	stimuli_target_trianglerectangles.svg	25	yes	44	1	404	0	0			0	0			1				0	
6.6.1	win	2023-06-13	14:17:58	14:34:15	974685	60873d2ab16643e5a08cafd2	3	1	main_z	11	advance_on_keypress_ZEE	140	stimuli_distractor_trianglediamonds.svg	stimuli_target_trianglerectangles.svg	25	yes	57	0	323	0	0			0	0			1				0	
6.6.1	win	2023-06-13	14:17:58	14:34:16	976093	60873d2ab16643e5a08cafd2	3	1	main_z	11	main_z	141	stimuli_target_trianglerectangles.svg	stimuli_distractor_diamondtriangles.svg	21	yes	44	1	446	0	0			0	0			1				0	
6.6.1	win	2023-06-13	14:17:58	14:34:16	976093	60873d2ab16643e5a08cafd2	3	1	main_z	11	advance_on_keypress_ZEE	142	stimuli_target_trianglerectangles.svg	stimuli_distractor_diamondtriangles.svg	21	yes	57	0	396	0	0			0	0			1				0	
6.6.1	win	2023-06-13	14:17:58	14:34:19	979114	60873d2ab16643e5a08cafd2	3	1	main_z	11	main_z	143	stimuli_distractor_trianglediamonds.svg	stimuli_distractor_diamondtriangles.svg	35	no	0	1	2000	0	0			0	0			1				0	
6.6.1	win	2023-06-13	14:17:58	14:34:19	979114	60873d2ab16643e5a08cafd2	3	1	main_z	11	advance_on_keypress_ZEE	144	stimuli_distractor_trianglediamonds.svg	stimuli_distractor_diamondtriangles.svg	35	no	57	0	307	0	0			0	0			1				0	
6.6.1	win	2023-06-13	14:17:58	14:34:22	982063	60873d2ab16643e5a08cafd2	3	1	main_z	11	main_z	145	stimuli_distractor_diamondtriangles.svg	stimuli_distractor_diamondtriangles.svg	40	no	0	1	2000	0	0			0	0			1				0	
6.6.1	win	2023-06-13	14:17:58	14:34:22	982063	60873d2ab16643e5a08cafd2	3	1	main_z	11	advance_on_keypress_ZEE	146	stimuli_distractor_diamondtriangles.svg	stimuli_distractor_diamondtriangles.svg	40	no	57	0	301	0	0			0	0			1				0	
6.6.1	win	2023-06-13	14:17:58	14:34:25	985012	60873d2ab16643e5a08cafd2	3	1	main_z	11	main_z	147	stimuli_distractor_trianglediamonds.svg	stimuli_distractor_diamondtriangles.svg	36	no	0	1	2000	0	0			0	0			1				0	
6.6.1	win	2023-06-13	14:17:58	14:34:25	985012	60873d2ab16643e5a08cafd2	3	1	main_z	11	advance_on_keypress_ZEE	148	stimuli_distractor_trianglediamonds.svg	stimuli_distractor_diamondtriangles.svg	36	no	57	0	281	0	0			0	0			1				0	
6.6.1	win	2023-06-13	14:17:58	14:34:27	986533	60873d2ab16643e5a08cafd2	3	1	main_z	11	main_z	149	stimuli_target_squarediamonds.svg	stimuli_distractor_trianglediamonds.svg	4	yes	44	1	589	0	0			0	0			1				0	
6.6.1	win	2023-06-13	14:17:58	14:34:27	986533	60873d2ab16643e5a08cafd2	3	1	main_z	11	advance_on_keypress_ZEE	150	stimuli_target_squarediamonds.svg	stimuli_distractor_trianglediamonds.svg	4	yes	57	0	316	0	0			0	0			1				0	
6.6.1	win	2023-06-13	14:17:58	14:34:28	987933	60873d2ab16643e5a08cafd2	3	1	main_z	11	main_z	151	stimuli_target_squaretriangles.svg	stimuli_distractor_diamondtriangles.svg	7	yes	44	1	438	0	0			0	0			1				0	
6.6.1	win	2023-06-13	14:17:58	14:34:28	987933	60873d2ab16643e5a08cafd2	3	1	main_z	11	advance_on_keypress_ZEE	152	stimuli_target_squaretriangles.svg	stimuli_distractor_diamondtriangles.svg	7	yes	57	0	230	0	0			0	0			1				0	
6.6.1	win	2023-06-13	14:17:58	14:34:29	989176	60873d2ab16643e5a08cafd2	3	1	main_z	11	main_z	153	stimuli_distractor_diamondtriangles.svg	stimuli_target_squarediamonds.svg	16	yes	44	1	372	0	0			0	0			1				0	
6.6.1	win	2023-06-13	14:17:58	14:34:29	989176	60873d2ab16643e5a08cafd2	3	1	main_z	11	advance_on_keypress_ZEE	154	stimuli_distractor_diamondtriangles.svg	stimuli_target_squarediamonds.svg	16	yes	57	0	259	0	0			0	0			1				0	
6.6.1	win	2023-06-13	14:17:58	14:34:31	990593	60873d2ab16643e5a08cafd2	3	1	main_z	11	main_z	155	stimuli_target_trianglerectangles.svg	stimuli_distractor_trianglediamonds.svg	17	yes	44	1	513	0	0			0	0			1				0	
6.6.1	win	2023-06-13	14:17:58	14:34:31	990593	60873d2ab16643e5a08cafd2	3	1	main_z	11	advance_on_keypress_ZEE	156	stimuli_target_trianglerectangles.svg	stimuli_distractor_trianglediamonds.svg	17	yes	57	0	275	0	0			0	0			1				0	
6.6.1	win	2023-06-13	14:17:58	14:34:32	991933	60873d2ab16643e5a08cafd2	3	1	main_z	11	main_z	157	stimuli_target_diamondsquares.svg	stimuli_distractor_trianglediamonds.svg	20	yes	44	1	424	0	0			0	0			1				0	
6.6.1	win	2023-06-13	14:17:58	14:34:32	991933	60873d2ab16643e5a08cafd2	3	1	main_z	11	advance_on_keypress_ZEE	158	stimuli_target_diamondsquares.svg	stimuli_distractor_trianglediamonds.svg	20	yes	57	0	294	0	0			0	0			1				0	
6.6.1	win	2023-06-13	14:17:58	14:34:33	993301	60873d2ab16643e5a08cafd2	3	1	main_z	11	main_z	159	stimuli_target_rectangletriangles.svg	stimuli_distractor_trianglediamonds.svg	1	yes	44	1	443	0	0			0	0			1				0	
6.6.1	win	2023-06-13	14:17:58	14:34:33	993301	60873d2ab16643e5a08cafd2	3	1	main_z	11	advance_on_keypress_ZEE	160	stimuli_target_rectangletriangles.svg	stimuli_distractor_trianglediamonds.svg	1	yes	57	0	272	0	0			0	0			1				0	
6.6.1	win	2023-06-13	14:17:58	14:34:33	993301	60873d2ab16643e5a08cafd2	3	1	headphonecheck_calibration	14	headphonecheck_calibrationIntro	1	stimuli_target_rectangletriangles.svg	stimuli_distractor_trianglediamonds.svg	1	yes	calibrationButton	0	2177	0	0			0	0			1				0	
6.6.1	win	2023-06-13	14:17:58	14:34:33	993301	60873d2ab16643e5a08cafd2	3	1	headphonecheck_testphase	15	test_collectResponse	3	stimuli_target_rectangletriangles.svg	stimuli_distractor_trianglediamonds.svg	1	yes	third	0	2979	1	4	antiphase_hc_sio.wav	1	0	0			1				0	
6.6.1	win	2023-06-13	14:17:58	14:34:33	993301	60873d2ab16643e5a08cafd2	3	1	headphonecheck_testphase	15	test_collectResponse	6	stimuli_target_rectangletriangles.svg	stimuli_distractor_trianglediamonds.svg	1	yes	second	0	445	2	3	antiphase_hc_soi.wav	1	0	0			1				0	
6.6.1	win	2023-06-13	14:17:58	14:34:33	993301	60873d2ab16643e5a08cafd2	3	1	headphonecheck_testphase	15	test_collectResponse	9	stimuli_target_rectangletriangles.svg	stimuli_distractor_trianglediamonds.svg	1	yes	third	0	395	3	1	antiphase_hc_iso.wav	2	0	0			1				0	
6.6.1	win	2023-06-13	14:17:58	14:34:33	993301	60873d2ab16643e5a08cafd2	3	1	headphonecheck_testphase	15	test_collectResponse	12	stimuli_target_rectangletriangles.svg	stimuli_distractor_trianglediamonds.svg	1	yes	second	0	193	4	2	antiphase_hc_ios.wav	3	0	0			1				0	
6.6.1	win	2023-06-13	14:17:58	14:34:33	993301	60873d2ab16643e5a08cafd2	3	1	headphonecheck_testphase	15	test_collectResponse	15	stimuli_target_rectangletriangles.svg	stimuli_distractor_trianglediamonds.svg	1	yes	first	0	361	5	6	antiphase_hc_ois.wav	3	0	0			1				0	
6.6.1	win	2023-06-13	14:17:58	14:34:33	993301	60873d2ab16643e5a08cafd2	3	1	headphonecheck_testphase	15	test_collectResponse	18	stimuli_target_rectangletriangles.svg	stimuli_distractor_trianglediamonds.svg	1	yes	first	0	329	6	5	antiphase_hc_osi.wav	2	0	0			1				0	
6.6.1	win	2023-06-13	14:17:58	14:34:33	993301	60873d2ab16643e5a08cafd2	3	1	stereocheck_calibration	17	stereocheck_calibrationIntro	1	stimuli_target_rectangletriangles.svg	stimuli_distractor_trianglediamonds.svg	1	yes	stereocheck_calibrationButton	0	94126	6	5	antiphase_hc_osi.wav	2	0	0			1				0	
6.6.1	win	2023-06-13	14:17:58	14:34:33	993301	60873d2ab16643e5a08cafd2	3	1	stereocheck_testphase	18	stereocheck_test_collectResponse	3	stimuli_target_rectangletriangles.svg	stimuli_distractor_trianglediamonds.svg	1	yes	stereocheck_right	1	563	6	5	antiphase_hc_osi.wav	2	1	6	noise_calib_stim_RIGHT.wav	2	1				0	
6.6.1	win	2023-06-13	14:17:58	14:34:33	993301	60873d2ab16643e5a08cafd2	3	1	stereocheck_testphase	18	stereocheck_test_collectResponse	6	stimuli_target_rectangletriangles.svg	stimuli_distractor_trianglediamonds.svg	1	yes	stereocheck_right	1	452	6	5	antiphase_hc_osi.wav	2	2	5	noise_calib_stim_RIGHT.wav	2	1				0	
6.6.1	win	2023-06-13	14:17:58	14:34:33	993301	60873d2ab16643e5a08cafd2	3	1	stereocheck_testphase	18	stereocheck_test_collectResponse	9	stimuli_target_rectangletriangles.svg	stimuli_distractor_trianglediamonds.svg	1	yes	stereocheck_right	1	419	6	5	antiphase_hc_osi.wav	2	3	4	noise_calib_stim_RIGHT.wav	2	1				0	
6.6.1	win	2023-06-13	14:17:58	14:34:33	993301	60873d2ab16643e5a08cafd2	3	1	stereocheck_testphase	18	stereocheck_test_collectResponse	12	stimuli_target_rectangletriangles.svg	stimuli_distractor_trianglediamonds.svg	1	yes	stereocheck_left	1	429	6	5	antiphase_hc_osi.wav	2	4	2	noise_calib_stim_LEFT.wav	1	1				0	
6.6.1	win	2023-06-13	14:17:58	14:34:33	993301	60873d2ab16643e5a08cafd2	3	1	stereocheck_testphase	18	stereocheck_test_collectResponse	15	stimuli_target_rectangletriangles.svg	stimuli_distractor_trianglediamonds.svg	1	yes	stereocheck_left	1	382	6	5	antiphase_hc_osi.wav	2	5	1	noise_calib_stim_LEFT.wav	1	1				0	
6.6.1	win	2023-06-13	14:17:58	14:34:33	993301	60873d2ab16643e5a08cafd2	3	1	stereocheck_testphase	18	stereocheck_test_collectResponse	18	stimuli_target_rectangletriangles.svg	stimuli_distractor_trianglediamonds.svg	1	yes	stereocheck_left	1	342	6	5	antiphase_hc_osi.wav	2	6	3	noise_calib_stim_LEFT.wav	1	1				0	
6.6.1	win	2023-06-13	14:17:58	14:34:33	993301	60873d2ab16643e5a08cafd2	3	1	DL_practice	21	DL_practice	2	stimuli_target_rectangletriangles.svg	stimuli_distractor_trianglediamonds.svg	1	yes	ta	1	1946	6	5	antiphase_hc_osi.wav	2	6	3	noise_calib_stim_LEFT.wav	1	36	blb_dichoticlistening_ta-ta.mp3	ta	ta	0	left
6.6.1	win	2023-06-13	14:17:58	14:34:33	993301	60873d2ab16643e5a08cafd2	3	1	DL_practice	21	DL_practice	3	stimuli_target_rectangletriangles.svg	stimuli_distractor_trianglediamonds.svg	1	yes	ga	1	944	6	5	antiphase_hc_osi.wav	2	6	3	noise_calib_stim_LEFT.wav	1	15	blb_dichoticlistening_ga-ga.mp3	ga	ga	0	left
6.6.1	win	2023-06-13	14:17:58	14:34:33	993301	60873d2ab16643e5a08cafd2	3	1	DL_practice	21	DL_practice	4	stimuli_target_rectangletriangles.svg	stimuli_distractor_trianglediamonds.svg	1	yes	ba	1	1568	6	5	antiphase_hc_osi.wav	2	6	3	noise_calib_stim_LEFT.wav	1	7	blb_dichoticlistening_da-ba.mp3	da	ba	1	right
6.6.1	win	2023-06-13	14:17:58	14:34:33	993301	60873d2ab16643e5a08cafd2	3	1	DL_practice	21	DL_practice	5	stimuli_target_rectangletriangles.svg	stimuli_distractor_trianglediamonds.svg	1	yes	da	1	795	6	5	antiphase_hc_osi.wav	2	6	3	noise_calib_stim_LEFT.wav	1	8	blb_dichoticlistening_da-da.mp3	da	da	0	left
6.6.1	win	2023-06-13	14:17:58	14:34:33	993301	60873d2ab16643e5a08cafd2	3	1	DL_practice	21	DL_practice	6	stimuli_target_rectangletriangles.svg	stimuli_distractor_trianglediamonds.svg	1	yes	ka	1	1129	6	5	antiphase_hc_osi.wav	2	6	3	noise_calib_stim_LEFT.wav	1	23	blb_dichoticlistening_ka-pa.mp3	ka	pa	1	left
6.6.1	win	2023-06-13	14:17:58	14:34:33	993301	60873d2ab16643e5a08cafd2	3	1	DL_practice	21	DL_practice	7	stimuli_target_rectangletriangles.svg	stimuli_distractor_trianglediamonds.svg	1	yes	ga	1	854	6	5	antiphase_hc_osi.wav	2	6	3	noise_calib_stim_LEFT.wav	1	18	blb_dichoticlistening_ga-ta.mp3	ga	ta	1	left
6.6.1	win	2023-06-13	14:17:58	14:34:33	993301	60873d2ab16643e5a08cafd2	3	1	DL_practice	21	DL_practice	8	stimuli_target_rectangletriangles.svg	stimuli_distractor_trianglediamonds.svg	1	yes	ba	1	1141	6	5	antiphase_hc_osi.wav	2	6	3	noise_calib_stim_LEFT.wav	1	1	blb_dichoticlistening_ba-ba.mp3	ba	ba	0	left
6.6.1	win	2023-06-13	14:17:58	14:34:33	993301	60873d2ab16643e5a08cafd2	3	1	DL_practice	21	DL_practice	9	stimuli_target_rectangletriangles.svg	stimuli_distractor_trianglediamonds.svg	1	yes	ka	1	873	6	5	antiphase_hc_osi.wav	2	6	3	noise_calib_stim_LEFT.wav	1	22	blb_dichoticlistening_ka-ka.mp3	ka	ka	0	left
6.6.1	win	2023-06-13	14:17:58	14:34:33	993301	60873d2ab16643e5a08cafd2	3	1	DL_practice	21	DL_practice	10	stimuli_target_rectangletriangles.svg	stimuli_distractor_trianglediamonds.svg	1	yes	pa	1	817	6	5	antiphase_hc_osi.wav	2	6	3	noise_calib_stim_LEFT.wav	1	29	blb_dichoticlistening_pa-pa.mp3	pa	pa	0	left
6.6.1	win	2023-06-13	14:17:58	14:34:33	993301	60873d2ab16643e5a08cafd2	3	1	DL_test	23	DL_test	1	stimuli_target_rectangletriangles.svg	stimuli_distractor_trianglediamonds.svg	1	yes	ba	1	1562	6	5	antiphase_hc_osi.wav	2	6	3	noise_calib_stim_LEFT.wav	1	19	blb_dichoticlistening_ka-ba.mp3	ka	ba	1	right
6.6.1	win	2023-06-13	14:17:58	14:34:33	993301	60873d2ab16643e5a08cafd2	3	1	DL_test	23	DL_test	2	stimuli_target_rectangletriangles.svg	stimuli_distractor_trianglediamonds.svg	1	yes	da	1	1127	6	5	antiphase_hc_osi.wav	2	6	3	noise_calib_stim_LEFT.wav	1	11	blb_dichoticlistening_da-pa.mp3	da	pa	1	left
6.6.1	win	2023-06-13	14:17:58	14:34:33	993301	60873d2ab16643e5a08cafd2	3	1	DL_test	23	DL_test	3	stimuli_target_rectangletriangles.svg	stimuli_distractor_trianglediamonds.svg	1	yes	pa	1	970	6	5	antiphase_hc_osi.wav	2	6	3	noise_calib_stim_LEFT.wav	1	29	blb_dichoticlistening_pa-pa.mp3	pa	pa	0	left
6.6.1	win	2023-06-13	14:17:58	14:34:33	993301	60873d2ab16643e5a08cafd2	3	1	DL_test	23	DL_test	4	stimuli_target_rectangletriangles.svg	stimuli_distractor_trianglediamonds.svg	1	yes	ka	1	817	6	5	antiphase_hc_osi.wav	2	6	3	noise_calib_stim_LEFT.wav	1	34	blb_dichoticlistening_ta-ka.mp3	ta	ka	1	right
6.6.1	win	2023-06-13	14:17:58	14:34:33	993301	60873d2ab16643e5a08cafd2	3	1	DL_test	23	DL_test	5	stimuli_target_rectangletriangles.svg	stimuli_distractor_trianglediamonds.svg	1	yes	ga	0	1526	6	5	antiphase_hc_osi.wav	2	6	3	noise_calib_stim_LEFT.wav	1	7	blb_dichoticlistening_da-ba.mp3	da	ba	1	other
6.6.1	win	2023-06-13	14:17:58	14:34:33	993301	60873d2ab16643e5a08cafd2	3	1	DL_test	23	DL_test	6	stimuli_target_rectangletriangles.svg	stimuli_distractor_trianglediamonds.svg	1	yes	ga	1	1290	6	5	antiphase_hc_osi.wav	2	6	3	noise_calib_stim_LEFT.wav	1	13	blb_dichoticlistening_ga-ba.mp3	ga	ba	1	left
6.6.1	win	2023-06-13	14:17:58	14:34:33	993301	60873d2ab16643e5a08cafd2	3	1	DL_test	23	DL_test	7	stimuli_target_rectangletriangles.svg	stimuli_distractor_trianglediamonds.svg	1	yes	ga	1	1228	6	5	antiphase_hc_osi.wav	2	6	3	noise_calib_stim_LEFT.wav	1	9	blb_dichoticlistening_da-ga.mp3	da	ga	1	right
6.6.1	win	2023-06-13	14:17:58	14:34:33	993301	60873d2ab16643e5a08cafd2	3	1	DL_test	23	DL_test	8	stimuli_target_rectangletriangles.svg	stimuli_distractor_trianglediamonds.svg	1	yes	ka	1	754	6	5	antiphase_hc_osi.wav	2	6	3	noise_calib_stim_LEFT.wav	1	22	blb_dichoticlistening_ka-ka.mp3	ka	ka	0	left
6.6.1	win	2023-06-13	14:17:58	14:34:33	993301	60873d2ab16643e5a08cafd2	3	1	DL_test	23	DL_test	9	stimuli_target_rectangletriangles.svg	stimuli_distractor_trianglediamonds.svg	1	yes	ba	1	1257	6	5	antiphase_hc_osi.wav	2	6	3	noise_calib_stim_LEFT.wav	1	25	blb_dichoticlistening_pa-ba.mp3	pa	ba	1	right
6.6.1	win	2023-06-13	14:17:58	14:34:33	993301	60873d2ab16643e5a08cafd2	3	1	DL_test	23	DL_test	10	stimuli_target_rectangletriangles.svg	stimuli_distractor_trianglediamonds.svg	1	yes	ga	0	1123	6	5	antiphase_hc_osi.wav	2	6	3	noise_calib_stim_LEFT.wav	1	20	blb_dichoticlistening_ka-da.mp3	ka	da	1	other
6.6.1	win	2023-06-13	14:17:58	14:34:33	993301	60873d2ab16643e5a08cafd2	3	1	DL_test	23	DL_test	11	stimuli_target_rectangletriangles.svg	stimuli_distractor_trianglediamonds.svg	1	yes	ta	1	1048	6	5	antiphase_hc_osi.wav	2	6	3	noise_calib_stim_LEFT.wav	1	35	blb_dichoticlistening_ta-pa.mp3	ta	pa	1	left
6.6.1	win	2023-06-13	14:17:58	14:34:33	993301	60873d2ab16643e5a08cafd2	3	1	DL_test	23	DL_test	12	stimuli_target_rectangletriangles.svg	stimuli_distractor_trianglediamonds.svg	1	yes	ka	1	1029	6	5	antiphase_hc_osi.wav	2	6	3	noise_calib_stim_LEFT.wav	1	23	blb_dichoticlistening_ka-pa.mp3	ka	pa	1	left
6.6.1	win	2023-06-13	14:17:58	14:34:33	993301	60873d2ab16643e5a08cafd2	3	1	DL_test	23	DL_test	13	stimuli_target_rectangletriangles.svg	stimuli_distractor_trianglediamonds.svg	1	yes	ka	1	921	6	5	antiphase_hc_osi.wav	2	6	3	noise_calib_stim_LEFT.wav	1	28	blb_dichoticlistening_pa-ka.mp3	pa	ka	1	right
6.6.1	win	2023-06-13	14:17:58	14:34:33	993301	60873d2ab16643e5a08cafd2	3	1	DL_test	23	DL_test	14	stimuli_target_rectangletriangles.svg	stimuli_distractor_trianglediamonds.svg	1	yes	ka	1	758	6	5	antiphase_hc_osi.wav	2	6	3	noise_calib_stim_LEFT.wav	1	24	blb_dichoticlistening_ka-ta.mp3	ka	ta	1	left
6.6.1	win	2023-06-13	14:17:58	14:34:33	993301	60873d2ab16643e5a08cafd2	3	1	DL_test	23	DL_test	15	stimuli_target_rectangletriangles.svg	stimuli_distractor_trianglediamonds.svg	1	yes	ga	0	1190	6	5	antiphase_hc_osi.wav	2	6	3	noise_calib_stim_LEFT.wav	1	2	blb_dichoticlistening_ba-da.mp3	ba	da	1	other
6.6.1	win	2023-06-13	14:17:58	14:34:33	993301	60873d2ab16643e5a08cafd2	3	1	DL_test	23	DL_test	16	stimuli_target_rectangletriangles.svg	stimuli_distractor_trianglediamonds.svg	1	yes	da	1	1143	6	5	antiphase_hc_osi.wav	2	6	3	noise_calib_stim_LEFT.wav	1	10	blb_dichoticlistening_da-ka.mp3	da	ka	1	left
6.6.1	win	2023-06-13	14:17:58	14:34:33	993301	60873d2ab16643e5a08cafd2	3	1	DL_test	23	DL_test	17	stimuli_target_rectangletriangles.svg	stimuli_distractor_trianglediamonds.svg	1	yes	ta	1	1600	6	5	antiphase_hc_osi.wav	2	6	3	noise_calib_stim_LEFT.wav	1	31	blb_dichoticlistening_ta-ba.mp3	ta	ba	1	left
6.6.1	win	2023-06-13	14:17:58	14:34:33	993301	60873d2ab16643e5a08cafd2	3	1	DL_test	23	DL_test	18	stimuli_target_rectangletriangles.svg	stimuli_distractor_trianglediamonds.svg	1	yes	ga	1	818	6	5	antiphase_hc_osi.wav	2	6	3	noise_calib_stim_LEFT.wav	1	15	blb_dichoticlistening_ga-ga.mp3	ga	ga	0	left
6.6.1	win	2023-06-13	14:17:58	14:34:33	993301	60873d2ab16643e5a08cafd2	3	1	DL_test	23	DL_test	19	stimuli_target_rectangletriangles.svg	stimuli_distractor_trianglediamonds.svg	1	yes	ta	1	1527	6	5	antiphase_hc_osi.wav	2	6	3	noise_calib_stim_LEFT.wav	1	6	blb_dichoticlistening_ba-ta.mp3	ba	ta	1	right
6.6.1	win	2023-06-13	14:17:58	14:34:33	993301	60873d2ab16643e5a08cafd2	3	1	DL_test	23	DL_test	20	stimuli_target_rectangletriangles.svg	stimuli_distractor_trianglediamonds.svg	1	yes	ba	1	1083	6	5	antiphase_hc_osi.wav	2	6	3	noise_calib_stim_LEFT.wav	1	1	blb_dichoticlistening_ba-ba.mp3	ba	ba	0	left
6.6.1	win	2023-06-13	14:17:58	14:34:33	993301	60873d2ab16643e5a08cafd2	3	1	DL_test	23	DL_test	21	stimuli_target_rectangletriangles.svg	stimuli_distractor_trianglediamonds.svg	1	yes	pa	1	1461	6	5	antiphase_hc_osi.wav	2	6	3	noise_calib_stim_LEFT.wav	1	5	blb_dichoticlistening_ba-pa.mp3	ba	pa	1	right
6.6.1	win	2023-06-13	14:17:58	14:34:33	993301	60873d2ab16643e5a08cafd2	3	1	DL_test	23	DL_test	22	stimuli_target_rectangletriangles.svg	stimuli_distractor_trianglediamonds.svg	1	yes	ga	1	1055	6	5	antiphase_hc_osi.wav	2	6	3	noise_calib_stim_LEFT.wav	1	17	blb_dichoticlistening_ga-pa.mp3	ga	pa	1	left
6.6.1	win	2023-06-13	14:17:58	14:34:33	993301	60873d2ab16643e5a08cafd2	3	1	DL_test	23	DL_test	23	stimuli_target_rectangletriangles.svg	stimuli_distractor_trianglediamonds.svg	1	yes	da	1	1059	6	5	antiphase_hc_osi.wav	2	6	3	noise_calib_stim_LEFT.wav	1	8	blb_dichoticlistening_da-da.mp3	da	da	0	left
6.6.1	win	2023-06-13	14:17:58	14:34:33	993301	60873d2ab16643e5a08cafd2	3	1	DL_test	23	DL_test	24	stimuli_target_rectangletriangles.svg	stimuli_distractor_trianglediamonds.svg	1	yes	da	1	964	6	5	antiphase_hc_osi.wav	2	6	3	noise_calib_stim_LEFT.wav	1	26	blb_dichoticlistening_pa-da.mp3	pa	da	1	right
6.6.1	win	2023-06-13	14:17:58	14:34:33	993301	60873d2ab16643e5a08cafd2	3	1	DL_test	23	DL_test	25	stimuli_target_rectangletriangles.svg	stimuli_distractor_trianglediamonds.svg	1	yes	ta	1	942	6	5	antiphase_hc_osi.wav	2	6	3	noise_calib_stim_LEFT.wav	1	30	blb_dichoticlistening_pa-ta.mp3	pa	ta	1	right
6.6.1	win	2023-06-13	14:17:58	14:34:33	993301	60873d2ab16643e5a08cafd2	3	1	DL_test	23	DL_test	26	stimuli_target_rectangletriangles.svg	stimuli_distractor_trianglediamonds.svg	1	yes	ta	1	988	6	5	antiphase_hc_osi.wav	2	6	3	noise_calib_stim_LEFT.wav	1	36	blb_dichoticlistening_ta-ta.mp3	ta	ta	0	left
