build	computer.platform	date	time	timestamp	time_elapsed_ms	subject	group	session	blockcode	blocknum	trialcode	trialnum	stimulus_left	stimulus_right	stim_index	target_present	response	correct	latency	headphonecheck_countTestTrials	headphonecheck_index	headphonecheck_testSound	headphonecheck_correctResponse	stereocheck_countTestTrials	stereocheck_index	stereocheck_testSound	stereocheck_correctResponse	DL_index	DL_soundfile	DL_leftSound	DL_rightSound	DL_dualSound	DL_choice
6.6.1	win	2023-06-27	09:33:35	09:37:38	239022	62d59d0df8da03fdf7f8c317	3	1	practice_slash	5	practice_slash	1	stimuli_distractor_diamondtriangles.svg	stimuli_target_diamondrectangles.svg	8	yes	0	0	2000	0	0			0	0			1				0	
6.6.1	win	2023-06-27	09:33:35	09:37:38	239022	62d59d0df8da03fdf7f8c317	3	1	practice_slash	5	advance_on_keypress_SLASH	2	stimuli_distractor_diamondtriangles.svg	stimuli_target_diamondrectangles.svg	8	yes	57	0	867	0	0			0	0			1				0	
6.6.1	win	2023-06-27	09:33:35	09:37:41	241985	62d59d0df8da03fdf7f8c317	3	1	practice_slash	5	practice_slash	3	stimuli_target_diamondsquares.svg	stimuli_distractor_trianglediamonds.svg	6	yes	53	1	414	0	0			0	0			1				0	
6.6.1	win	2023-06-27	09:33:35	09:37:41	241985	62d59d0df8da03fdf7f8c317	3	1	practice_slash	5	advance_on_keypress_SLASH	4	stimuli_target_diamondsquares.svg	stimuli_distractor_trianglediamonds.svg	6	yes	57	0	725	0	0			0	0			1				0	
6.6.1	win	2023-06-27	09:33:35	09:37:43	244642	62d59d0df8da03fdf7f8c317	3	1	practice_slash	5	practice_slash	5	stimuli_distractor_trianglediamonds.svg	stimuli_target_diamondrectangles.svg	12	yes	53	1	287	0	0			0	0			1				0	
6.6.1	win	2023-06-27	09:33:35	09:37:43	244642	62d59d0df8da03fdf7f8c317	3	1	practice_slash	5	advance_on_keypress_SLASH	6	stimuli_distractor_trianglediamonds.svg	stimuli_target_diamondrectangles.svg	12	yes	57	0	547	0	0			0	0			1				0	
6.6.1	win	2023-06-27	09:33:35	09:37:47	248837	62d59d0df8da03fdf7f8c317	3	1	practice_slash	5	practice_slash	7	stimuli_distractor_trianglediamonds.svg	stimuli_target_squarediamonds.svg	11	yes	0	0	2000	0	0			0	0			1				0	
6.6.1	win	2023-06-27	09:33:35	09:37:47	248837	62d59d0df8da03fdf7f8c317	3	1	practice_slash	5	advance_on_keypress_SLASH	8	stimuli_distractor_trianglediamonds.svg	stimuli_target_squarediamonds.svg	11	yes	57	0	1019	0	0			0	0			1				0	
6.6.1	win	2023-06-27	09:33:35	09:37:52	253505	62d59d0df8da03fdf7f8c317	3	1	practice_slash	5	practice_slash	9	stimuli_distractor_diamondtriangles.svg	stimuli_distractor_diamondtriangles.svg	13	no	0	1	2000	0	0			0	0			1				0	
6.6.1	win	2023-06-27	09:33:35	09:37:52	253505	62d59d0df8da03fdf7f8c317	3	1	practice_slash	5	advance_on_keypress_SLASH	10	stimuli_distractor_diamondtriangles.svg	stimuli_distractor_diamondtriangles.svg	13	no	57	0	593	0	0			0	0			1				0	
6.6.1	win	2023-06-27	09:33:35	09:37:55	256233	62d59d0df8da03fdf7f8c317	3	1	practice_slash	5	practice_slash	11	stimuli_target_squarediamonds.svg	stimuli_distractor_diamondtriangles.svg	2	yes	53	1	496	0	0			0	0			1				0	
6.6.1	win	2023-06-27	09:33:35	09:37:55	256233	62d59d0df8da03fdf7f8c317	3	1	practice_slash	5	advance_on_keypress_SLASH	12	stimuli_target_squarediamonds.svg	stimuli_distractor_diamondtriangles.svg	2	yes	57	0	555	0	0			0	0			1				0	
6.6.1	win	2023-06-27	09:33:35	09:37:57	258785	62d59d0df8da03fdf7f8c317	3	1	practice_slash	5	practice_slash	13	stimuli_target_squarediamonds.svg	stimuli_distractor_trianglediamonds.svg	5	yes	53	1	348	0	0			0	0			1				0	
6.6.1	win	2023-06-27	09:33:35	09:37:57	258785	62d59d0df8da03fdf7f8c317	3	1	practice_slash	5	advance_on_keypress_SLASH	14	stimuli_target_squarediamonds.svg	stimuli_distractor_trianglediamonds.svg	5	yes	57	0	461	0	0			0	0			1				0	
6.6.1	win	2023-06-27	09:33:35	09:38:00	261241	62d59d0df8da03fdf7f8c317	3	1	practice_slash	5	practice_slash	15	stimuli_distractor_trianglediamonds.svg	stimuli_target_rectanglediamonds.svg	10	yes	53	1	337	0	0			0	0			1				0	
6.6.1	win	2023-06-27	09:33:35	09:38:00	261241	62d59d0df8da03fdf7f8c317	3	1	practice_slash	5	advance_on_keypress_SLASH	16	stimuli_distractor_trianglediamonds.svg	stimuli_target_rectanglediamonds.svg	10	yes	57	0	843	0	0			0	0			1				0	
6.6.1	win	2023-06-27	09:33:35	09:38:03	264145	62d59d0df8da03fdf7f8c317	3	1	practice_slash	5	practice_slash	17	stimuli_target_rectanglediamonds.svg	stimuli_distractor_diamondtriangles.svg	1	yes	53	1	424	0	0			0	0			1				0	
6.6.1	win	2023-06-27	09:33:35	09:38:03	264145	62d59d0df8da03fdf7f8c317	3	1	practice_slash	5	advance_on_keypress_SLASH	18	stimuli_target_rectanglediamonds.svg	stimuli_distractor_diamondtriangles.svg	1	yes	57	0	655	0	0			0	0			1				0	
6.6.1	win	2023-06-27	09:33:35	09:38:07	268438	62d59d0df8da03fdf7f8c317	3	1	practice_slash	5	practice_slash	19	stimuli_distractor_trianglediamonds.svg	stimuli_distractor_diamondtriangles.svg	16	no	0	1	2000	0	0			0	0			1				0	
6.6.1	win	2023-06-27	09:33:35	09:38:07	268438	62d59d0df8da03fdf7f8c317	3	1	practice_slash	5	advance_on_keypress_SLASH	20	stimuli_distractor_trianglediamonds.svg	stimuli_distractor_diamondtriangles.svg	16	no	57	0	515	0	0			0	0			1				0	
6.6.1	win	2023-06-27	09:33:35	09:38:11	272605	62d59d0df8da03fdf7f8c317	3	1	practice_slash	5	practice_slash	21	stimuli_distractor_trianglediamonds.svg	stimuli_distractor_trianglediamonds.svg	15	no	0	1	2000	0	0			0	0			1				0	
6.6.1	win	2023-06-27	09:33:35	09:38:11	272605	62d59d0df8da03fdf7f8c317	3	1	practice_slash	5	advance_on_keypress_SLASH	22	stimuli_distractor_trianglediamonds.svg	stimuli_distractor_trianglediamonds.svg	15	no	57	0	453	0	0			0	0			1				0	
6.6.1	win	2023-06-27	09:33:35	09:38:14	275330	62d59d0df8da03fdf7f8c317	3	1	practice_slash	5	practice_slash	23	stimuli_target_diamondsquares.svg	stimuli_distractor_diamondtriangles.svg	3	yes	53	1	625	0	0			0	0			1				0	
6.6.1	win	2023-06-27	09:33:35	09:38:14	275330	62d59d0df8da03fdf7f8c317	3	1	practice_slash	5	advance_on_keypress_SLASH	24	stimuli_target_diamondsquares.svg	stimuli_distractor_diamondtriangles.svg	3	yes	57	0	663	0	0			0	0			1				0	
6.6.1	win	2023-06-27	09:33:35	09:38:17	278273	62d59d0df8da03fdf7f8c317	3	1	practice_slash	5	practice_slash	25	stimuli_distractor_diamondtriangles.svg	stimuli_target_rectangletriangles.svg	7	yes	53	1	619	0	0			0	0			1				0	
6.6.1	win	2023-06-27	09:33:35	09:38:17	278273	62d59d0df8da03fdf7f8c317	3	1	practice_slash	5	advance_on_keypress_SLASH	26	stimuli_distractor_diamondtriangles.svg	stimuli_target_rectangletriangles.svg	7	yes	57	0	666	0	0			0	0			1				0	
6.6.1	win	2023-06-27	09:33:35	09:38:20	281393	62d59d0df8da03fdf7f8c317	3	1	practice_slash	5	practice_slash	27	stimuli_distractor_diamondtriangles.svg	stimuli_target_trianglerectangles.svg	9	yes	53	1	806	0	0			0	0			1				0	
6.6.1	win	2023-06-27	09:33:35	09:38:20	281393	62d59d0df8da03fdf7f8c317	3	1	practice_slash	5	advance_on_keypress_SLASH	28	stimuli_distractor_diamondtriangles.svg	stimuli_target_trianglerectangles.svg	9	yes	57	0	765	0	0			0	0			1				0	
6.6.1	win	2023-06-27	09:33:35	09:38:24	285805	62d59d0df8da03fdf7f8c317	3	1	practice_slash	5	practice_slash	29	stimuli_distractor_diamondtriangles.svg	stimuli_distractor_trianglediamonds.svg	14	no	0	1	2000	0	0			0	0			1				0	
6.6.1	win	2023-06-27	09:33:35	09:38:24	285805	62d59d0df8da03fdf7f8c317	3	1	practice_slash	5	advance_on_keypress_SLASH	30	stimuli_distractor_diamondtriangles.svg	stimuli_distractor_trianglediamonds.svg	14	no	57	0	605	0	0			0	0			1				0	
6.6.1	win	2023-06-27	09:33:35	09:38:27	288832	62d59d0df8da03fdf7f8c317	3	1	practice_slash	5	practice_slash	31	stimuli_target_rectanglediamonds.svg	stimuli_distractor_trianglediamonds.svg	4	yes	53	1	778	0	0			0	0			1				0	
6.6.1	win	2023-06-27	09:33:35	09:38:27	288832	62d59d0df8da03fdf7f8c317	3	1	practice_slash	5	advance_on_keypress_SLASH	32	stimuli_target_rectanglediamonds.svg	stimuli_distractor_trianglediamonds.svg	4	yes	57	0	659	0	0			0	0			1				0	
6.6.1	win	2023-06-27	09:33:35	09:38:39	300175	62d59d0df8da03fdf7f8c317	3	1	main_slash	7	main_slash	1	stimuli_target_squarediamonds.svg	stimuli_distractor_trianglediamonds.svg	4	yes	53	1	573	0	0			0	0			1				0	
6.6.1	win	2023-06-27	09:33:35	09:38:39	300175	62d59d0df8da03fdf7f8c317	3	1	main_slash	7	advance_on_keypress_SLASH	2	stimuli_target_squarediamonds.svg	stimuli_distractor_trianglediamonds.svg	4	yes	57	0	1276	0	0			0	0			1				0	
6.6.1	win	2023-06-27	09:33:35	09:38:41	302382	62d59d0df8da03fdf7f8c317	3	1	main_slash	7	main_slash	3	stimuli_target_trianglesquares.svg	stimuli_distractor_diamondtriangles.svg	22	yes	53	1	265	0	0			0	0			1				0	
6.6.1	win	2023-06-27	09:33:35	09:38:41	302382	62d59d0df8da03fdf7f8c317	3	1	main_slash	7	advance_on_keypress_SLASH	4	stimuli_target_trianglesquares.svg	stimuli_distractor_diamondtriangles.svg	22	yes	57	0	3917	0	0			0	0			1				0	
6.6.1	win	2023-06-27	09:33:35	09:38:46	307295	62d59d0df8da03fdf7f8c317	3	1	main_slash	7	main_slash	5	stimuli_distractor_trianglediamonds.svg	stimuli_distractor_diamondtriangles.svg	35	no	53	0	343	0	0			0	0			1				0	
6.6.1	win	2023-06-27	09:33:35	09:38:46	307295	62d59d0df8da03fdf7f8c317	3	1	main_slash	7	advance_on_keypress_SLASH	6	stimuli_distractor_trianglediamonds.svg	stimuli_distractor_diamondtriangles.svg	35	no	57	0	1753	0	0			0	0			1				0	
6.6.1	win	2023-06-27	09:33:35	09:38:49	310214	62d59d0df8da03fdf7f8c317	3	1	main_slash	7	main_slash	7	stimuli_target_squaretriangles.svg	stimuli_distractor_diamondtriangles.svg	7	yes	53	1	530	0	0			0	0			1				0	
6.6.1	win	2023-06-27	09:33:35	09:38:49	310214	62d59d0df8da03fdf7f8c317	3	1	main_slash	7	advance_on_keypress_SLASH	8	stimuli_target_squaretriangles.svg	stimuli_distractor_diamondtriangles.svg	7	yes	57	0	861	0	0			0	0			1				0	
6.6.1	win	2023-06-27	09:33:35	09:38:51	312262	62d59d0df8da03fdf7f8c317	3	1	main_slash	7	main_slash	9	stimuli_distractor_trianglediamonds.svg	stimuli_target_squarediamonds.svg	12	yes	53	1	545	0	0			0	0			1				0	
6.6.1	win	2023-06-27	09:33:35	09:38:51	312262	62d59d0df8da03fdf7f8c317	3	1	main_slash	7	advance_on_keypress_SLASH	10	stimuli_distractor_trianglediamonds.svg	stimuli_target_squarediamonds.svg	12	yes	57	0	755	0	0			0	0			1				0	
6.6.1	win	2023-06-27	09:33:35	09:38:53	314454	62d59d0df8da03fdf7f8c317	3	1	main_slash	7	main_slash	11	stimuli_target_diamondsquares.svg	stimuli_distractor_trianglediamonds.svg	20	yes	53	1	803	0	0			0	0			1				0	
6.6.1	win	2023-06-27	09:33:35	09:38:53	314454	62d59d0df8da03fdf7f8c317	3	1	main_slash	7	advance_on_keypress_SLASH	12	stimuli_target_diamondsquares.svg	stimuli_distractor_trianglediamonds.svg	20	yes	57	0	643	0	0			0	0			1				0	
6.6.1	win	2023-06-27	09:33:35	09:38:56	317735	62d59d0df8da03fdf7f8c317	3	1	main_slash	7	main_slash	13	stimuli_distractor_trianglediamonds.svg	stimuli_distractor_diamondtriangles.svg	36	no	0	1	2000	0	0			0	0			1				0	
6.6.1	win	2023-06-27	09:33:35	09:38:56	317735	62d59d0df8da03fdf7f8c317	3	1	main_slash	7	advance_on_keypress_SLASH	14	stimuli_distractor_trianglediamonds.svg	stimuli_distractor_diamondtriangles.svg	36	no	57	0	679	0	0			0	0			1				0	
6.6.1	win	2023-06-27	09:33:35	09:39:00	321068	62d59d0df8da03fdf7f8c317	3	1	main_slash	7	main_slash	15	stimuli_distractor_trianglediamonds.svg	stimuli_distractor_trianglediamonds.svg	34	no	0	1	2000	0	0			0	0			1				0	
6.6.1	win	2023-06-27	09:33:35	09:39:00	321068	62d59d0df8da03fdf7f8c317	3	1	main_slash	7	advance_on_keypress_SLASH	16	stimuli_distractor_trianglediamonds.svg	stimuli_distractor_trianglediamonds.svg	34	no	57	0	801	0	0			0	0			1				0	
6.6.1	win	2023-06-27	09:33:35	09:39:02	323119	62d59d0df8da03fdf7f8c317	3	1	main_slash	7	main_slash	17	stimuli_target_trianglerectangles.svg	stimuli_distractor_trianglediamonds.svg	17	yes	53	1	601	0	0			0	0			1				0	
6.6.1	win	2023-06-27	09:33:35	09:39:02	323119	62d59d0df8da03fdf7f8c317	3	1	main_slash	7	advance_on_keypress_SLASH	18	stimuli_target_trianglerectangles.svg	stimuli_distractor_trianglediamonds.svg	17	yes	57	0	872	0	0			0	0			1				0	
6.6.1	win	2023-06-27	09:33:35	09:39:04	325126	62d59d0df8da03fdf7f8c317	3	1	main_slash	7	main_slash	19	stimuli_distractor_diamondtriangles.svg	stimuli_target_trianglerectangles.svg	29	yes	53	1	492	0	0			0	0			1				0	
6.6.1	win	2023-06-27	09:33:35	09:39:04	325126	62d59d0df8da03fdf7f8c317	3	1	main_slash	7	advance_on_keypress_SLASH	20	stimuli_distractor_diamondtriangles.svg	stimuli_target_trianglerectangles.svg	29	yes	57	0	576	0	0			0	0			1				0	
6.6.1	win	2023-06-27	09:33:35	09:39:06	326943	62d59d0df8da03fdf7f8c317	3	1	main_slash	7	main_slash	21	stimuli_distractor_diamondtriangles.svg	stimuli_target_diamondsquares.svg	32	yes	53	1	608	0	0			0	0			1				0	
6.6.1	win	2023-06-27	09:33:35	09:39:06	326943	62d59d0df8da03fdf7f8c317	3	1	main_slash	7	advance_on_keypress_SLASH	22	stimuli_distractor_diamondtriangles.svg	stimuli_target_diamondsquares.svg	32	yes	57	0	735	0	0			0	0			1				0	
6.6.1	win	2023-06-27	09:33:35	09:39:09	330318	62d59d0df8da03fdf7f8c317	3	1	main_slash	7	main_slash	23	stimuli_distractor_trianglediamonds.svg	stimuli_distractor_trianglediamonds.svg	33	no	0	1	2000	0	0			0	0			1				0	
6.6.1	win	2023-06-27	09:33:35	09:39:09	330318	62d59d0df8da03fdf7f8c317	3	1	main_slash	7	advance_on_keypress_SLASH	24	stimuli_distractor_trianglediamonds.svg	stimuli_distractor_trianglediamonds.svg	33	no	57	0	664	0	0			0	0			1				0	
6.6.1	win	2023-06-27	09:33:35	09:39:11	332230	62d59d0df8da03fdf7f8c317	3	1	main_slash	7	main_slash	25	stimuli_target_rectanglediamonds.svg	stimuli_distractor_diamondtriangles.svg	6	yes	53	1	596	0	0			0	0			1				0	
6.6.1	win	2023-06-27	09:33:35	09:39:11	332230	62d59d0df8da03fdf7f8c317	3	1	main_slash	7	advance_on_keypress_SLASH	26	stimuli_target_rectanglediamonds.svg	stimuli_distractor_diamondtriangles.svg	6	yes	57	0	795	0	0			0	0			1				0	
6.6.1	win	2023-06-27	09:33:35	09:39:13	334319	62d59d0df8da03fdf7f8c317	3	1	main_slash	7	main_slash	27	stimuli_target_rectangletriangles.svg	stimuli_distractor_trianglediamonds.svg	1	yes	53	1	634	0	0			0	0			1				0	
6.6.1	win	2023-06-27	09:33:35	09:39:13	334319	62d59d0df8da03fdf7f8c317	3	1	main_slash	7	advance_on_keypress_SLASH	28	stimuli_target_rectangletriangles.svg	stimuli_distractor_trianglediamonds.svg	1	yes	57	0	992	0	0			0	0			1				0	
6.6.1	win	2023-06-27	09:33:35	09:39:17	337951	62d59d0df8da03fdf7f8c317	3	1	main_slash	7	main_slash	29	stimuli_distractor_diamondtriangles.svg	stimuli_distractor_trianglediamonds.svg	37	no	0	1	2000	0	0			0	0			1				0	
6.6.1	win	2023-06-27	09:33:35	09:39:17	337951	62d59d0df8da03fdf7f8c317	3	1	main_slash	7	advance_on_keypress_SLASH	30	stimuli_distractor_diamondtriangles.svg	stimuli_distractor_trianglediamonds.svg	37	no	57	0	703	0	0			0	0			1				0	
6.6.1	win	2023-06-27	09:33:35	09:39:19	339943	62d59d0df8da03fdf7f8c317	3	1	main_slash	7	main_slash	31	stimuli_distractor_trianglediamonds.svg	stimuli_target_rectanglediamonds.svg	10	yes	53	1	641	0	0			0	0			1				0	
6.6.1	win	2023-06-27	09:33:35	09:39:19	339943	62d59d0df8da03fdf7f8c317	3	1	main_slash	7	advance_on_keypress_SLASH	32	stimuli_distractor_trianglediamonds.svg	stimuli_target_rectanglediamonds.svg	10	yes	57	0	582	0	0			0	0			1				0	
6.6.1	win	2023-06-27	09:33:35	09:39:20	341870	62d59d0df8da03fdf7f8c317	3	1	main_slash	7	main_slash	33	stimuli_target_rectanglediamonds.svg	stimuli_distractor_trianglediamonds.svg	2	yes	53	1	703	0	0			0	0			1				0	
6.6.1	win	2023-06-27	09:33:35	09:39:20	341870	62d59d0df8da03fdf7f8c317	3	1	main_slash	7	advance_on_keypress_SLASH	34	stimuli_target_rectanglediamonds.svg	stimuli_distractor_trianglediamonds.svg	2	yes	57	0	530	0	0			0	0			1				0	
6.6.1	win	2023-06-27	09:33:35	09:39:22	343686	62d59d0df8da03fdf7f8c317	3	1	main_slash	7	main_slash	35	stimuli_target_trianglerectangles.svg	stimuli_distractor_diamondtriangles.svg	21	yes	53	1	635	0	0			0	0			1				0	
6.6.1	win	2023-06-27	09:33:35	09:39:22	343686	62d59d0df8da03fdf7f8c317	3	1	main_slash	7	advance_on_keypress_SLASH	36	stimuli_target_trianglerectangles.svg	stimuli_distractor_diamondtriangles.svg	21	yes	57	0	513	0	0			0	0			1				0	
6.6.1	win	2023-06-27	09:33:35	09:39:25	346851	62d59d0df8da03fdf7f8c317	3	1	main_slash	7	main_slash	37	stimuli_distractor_diamondtriangles.svg	stimuli_distractor_trianglediamonds.svg	38	no	0	1	2000	0	0			0	0			1				0	
6.6.1	win	2023-06-27	09:33:35	09:39:25	346851	62d59d0df8da03fdf7f8c317	3	1	main_slash	7	advance_on_keypress_SLASH	38	stimuli_distractor_diamondtriangles.svg	stimuli_distractor_trianglediamonds.svg	38	no	57	0	315	0	0			0	0			1				0	
6.6.1	win	2023-06-27	09:33:35	09:39:27	348414	62d59d0df8da03fdf7f8c317	3	1	main_slash	7	main_slash	39	stimuli_distractor_diamondtriangles.svg	stimuli_target_rectangletriangles.svg	13	yes	53	1	597	0	0			0	0			1				0	
6.6.1	win	2023-06-27	09:33:35	09:39:27	348414	62d59d0df8da03fdf7f8c317	3	1	main_slash	7	advance_on_keypress_SLASH	40	stimuli_distractor_diamondtriangles.svg	stimuli_target_rectangletriangles.svg	13	yes	57	0	548	0	0			0	0			1				0	
6.6.1	win	2023-06-27	09:33:35	09:39:29	350214	62d59d0df8da03fdf7f8c317	3	1	main_slash	7	main_slash	41	stimuli_target_diamondsquares.svg	stimuli_distractor_diamondtriangles.svg	24	yes	53	1	597	0	0			0	0			1				0	
6.6.1	win	2023-06-27	09:33:35	09:39:29	350214	62d59d0df8da03fdf7f8c317	3	1	main_slash	7	advance_on_keypress_SLASH	42	stimuli_target_diamondsquares.svg	stimuli_distractor_diamondtriangles.svg	24	yes	57	0	508	0	0			0	0			1				0	
6.6.1	win	2023-06-27	09:33:35	09:39:31	352054	62d59d0df8da03fdf7f8c317	3	1	main_slash	7	main_slash	43	stimuli_distractor_diamondtriangles.svg	stimuli_target_squarediamonds.svg	16	yes	53	1	687	0	0			0	0			1				0	
6.6.1	win	2023-06-27	09:33:35	09:39:31	352054	62d59d0df8da03fdf7f8c317	3	1	main_slash	7	advance_on_keypress_SLASH	44	stimuli_distractor_diamondtriangles.svg	stimuli_target_squarediamonds.svg	16	yes	57	0	515	0	0			0	0			1				0	
6.6.1	win	2023-06-27	09:33:35	09:39:33	353998	62d59d0df8da03fdf7f8c317	3	1	main_slash	7	main_slash	45	stimuli_target_diamondrectangles.svg	stimuli_distractor_diamondtriangles.svg	23	yes	53	1	781	0	0			0	0			1				0	
6.6.1	win	2023-06-27	09:33:35	09:39:33	353998	62d59d0df8da03fdf7f8c317	3	1	main_slash	7	advance_on_keypress_SLASH	46	stimuli_target_diamondrectangles.svg	stimuli_distractor_diamondtriangles.svg	23	yes	57	0	461	0	0			0	0			1				0	
6.6.1	win	2023-06-27	09:33:35	09:39:35	356254	62d59d0df8da03fdf7f8c317	3	1	main_slash	7	main_slash	47	stimuli_distractor_trianglediamonds.svg	stimuli_target_squaretriangles.svg	11	yes	53	1	1153	0	0			0	0			1				0	
6.6.1	win	2023-06-27	09:33:35	09:39:35	356254	62d59d0df8da03fdf7f8c317	3	1	main_slash	7	advance_on_keypress_SLASH	48	stimuli_distractor_trianglediamonds.svg	stimuli_target_squaretriangles.svg	11	yes	57	0	651	0	0			0	0			1				0	
6.6.1	win	2023-06-27	09:33:35	09:39:38	359551	62d59d0df8da03fdf7f8c317	3	1	main_slash	7	main_slash	49	stimuli_distractor_diamondtriangles.svg	stimuli_distractor_diamondtriangles.svg	40	no	0	1	2000	0	0			0	0			1				0	
6.6.1	win	2023-06-27	09:33:35	09:39:38	359551	62d59d0df8da03fdf7f8c317	3	1	main_slash	7	advance_on_keypress_SLASH	50	stimuli_distractor_diamondtriangles.svg	stimuli_distractor_diamondtriangles.svg	40	no	57	0	303	0	0			0	0			1				0	
6.6.1	win	2023-06-27	09:33:35	09:39:40	361110	62d59d0df8da03fdf7f8c317	3	1	main_slash	7	main_slash	51	stimuli_distractor_diamondtriangles.svg	stimuli_target_squaretriangles.svg	15	yes	53	1	609	0	0			0	0			1				0	
6.6.1	win	2023-06-27	09:33:35	09:39:40	361110	62d59d0df8da03fdf7f8c317	3	1	main_slash	7	advance_on_keypress_SLASH	52	stimuli_distractor_diamondtriangles.svg	stimuli_target_squaretriangles.svg	15	yes	57	0	489	0	0			0	0			1				0	
6.6.1	win	2023-06-27	09:33:35	09:39:41	362782	62d59d0df8da03fdf7f8c317	3	1	main_slash	7	main_slash	53	stimuli_distractor_trianglediamonds.svg	stimuli_target_diamondrectangles.svg	27	yes	53	1	548	0	0			0	0			1				0	
6.6.1	win	2023-06-27	09:33:35	09:39:41	362782	62d59d0df8da03fdf7f8c317	3	1	main_slash	7	advance_on_keypress_SLASH	54	stimuli_distractor_trianglediamonds.svg	stimuli_target_diamondrectangles.svg	27	yes	57	0	485	0	0			0	0			1				0	
6.6.1	win	2023-06-27	09:33:35	09:39:43	364527	62d59d0df8da03fdf7f8c317	3	1	main_slash	7	main_slash	55	stimuli_distractor_diamondtriangles.svg	stimuli_target_diamondrectangles.svg	31	yes	53	1	609	0	0			0	0			1				0	
6.6.1	win	2023-06-27	09:33:35	09:39:43	364527	62d59d0df8da03fdf7f8c317	3	1	main_slash	7	advance_on_keypress_SLASH	56	stimuli_distractor_diamondtriangles.svg	stimuli_target_diamondrectangles.svg	31	yes	57	0	472	0	0			0	0			1				0	
6.6.1	win	2023-06-27	09:33:35	09:39:45	366614	62d59d0df8da03fdf7f8c317	3	1	main_slash	7	main_slash	57	stimuli_target_trianglesquares.svg	stimuli_distractor_trianglediamonds.svg	18	yes	53	1	979	0	0			0	0			1				0	
6.6.1	win	2023-06-27	09:33:35	09:39:45	366614	62d59d0df8da03fdf7f8c317	3	1	main_slash	7	advance_on_keypress_SLASH	58	stimuli_target_trianglesquares.svg	stimuli_distractor_trianglediamonds.svg	18	yes	57	0	460	0	0			0	0			1				0	
6.6.1	win	2023-06-27	09:33:35	09:39:47	368518	62d59d0df8da03fdf7f8c317	3	1	main_slash	7	main_slash	59	stimuli_target_squaretriangles.svg	stimuli_distractor_trianglediamonds.svg	3	yes	53	1	801	0	0			0	0			1				0	
6.6.1	win	2023-06-27	09:33:35	09:39:47	368518	62d59d0df8da03fdf7f8c317	3	1	main_slash	7	advance_on_keypress_SLASH	60	stimuli_target_squaretriangles.svg	stimuli_distractor_trianglediamonds.svg	3	yes	57	0	375	0	0			0	0			1				0	
6.6.1	win	2023-06-27	09:33:35	09:39:49	370838	62d59d0df8da03fdf7f8c317	3	1	main_slash	7	main_slash	61	stimuli_target_squarediamonds.svg	stimuli_distractor_diamondtriangles.svg	8	yes	53	1	1304	0	0			0	0			1				0	
6.6.1	win	2023-06-27	09:33:35	09:39:49	370838	62d59d0df8da03fdf7f8c317	3	1	main_slash	7	advance_on_keypress_SLASH	62	stimuli_target_squarediamonds.svg	stimuli_distractor_diamondtriangles.svg	8	yes	57	0	499	0	0			0	0			1				0	
6.6.1	win	2023-06-27	09:33:35	09:39:51	372566	62d59d0df8da03fdf7f8c317	3	1	main_slash	7	main_slash	63	stimuli_distractor_trianglediamonds.svg	stimuli_target_diamondsquares.svg	28	yes	53	1	582	0	0			0	0			1				0	
6.6.1	win	2023-06-27	09:33:35	09:39:51	372566	62d59d0df8da03fdf7f8c317	3	1	main_slash	7	advance_on_keypress_SLASH	64	stimuli_distractor_trianglediamonds.svg	stimuli_target_diamondsquares.svg	28	yes	57	0	406	0	0			0	0			1				0	
6.6.1	win	2023-06-27	09:33:35	09:39:53	374238	62d59d0df8da03fdf7f8c317	3	1	main_slash	7	main_slash	65	stimuli_distractor_diamondtriangles.svg	stimuli_target_trianglesquares.svg	30	yes	53	1	621	0	0			0	0			1				0	
6.6.1	win	2023-06-27	09:33:35	09:39:53	374238	62d59d0df8da03fdf7f8c317	3	1	main_slash	7	advance_on_keypress_SLASH	66	stimuli_distractor_diamondtriangles.svg	stimuli_target_trianglesquares.svg	30	yes	57	0	963	0	0			0	0			1				0	
6.6.1	win	2023-06-27	09:33:35	09:39:55	376590	62d59d0df8da03fdf7f8c317	3	1	main_slash	7	main_slash	67	stimuli_target_diamondrectangles.svg	stimuli_distractor_trianglediamonds.svg	19	yes	53	1	739	0	0			0	0			1				0	
6.6.1	win	2023-06-27	09:33:35	09:39:55	376590	62d59d0df8da03fdf7f8c317	3	1	main_slash	7	advance_on_keypress_SLASH	68	stimuli_target_diamondrectangles.svg	stimuli_distractor_trianglediamonds.svg	19	yes	57	0	397	0	0			0	0			1				0	
6.6.1	win	2023-06-27	09:33:35	09:39:57	378198	62d59d0df8da03fdf7f8c317	3	1	main_slash	7	main_slash	69	stimuli_distractor_trianglediamonds.svg	stimuli_target_trianglerectangles.svg	25	yes	53	1	564	0	0			0	0			1				0	
6.6.1	win	2023-06-27	09:33:35	09:39:57	378198	62d59d0df8da03fdf7f8c317	3	1	main_slash	7	advance_on_keypress_SLASH	70	stimuli_distractor_trianglediamonds.svg	stimuli_target_trianglerectangles.svg	25	yes	57	0	621	0	0			0	0			1				0	
6.6.1	win	2023-06-27	09:33:35	09:39:59	380398	62d59d0df8da03fdf7f8c317	3	1	main_slash	7	main_slash	71	stimuli_distractor_trianglediamonds.svg	stimuli_target_rectangletriangles.svg	9	yes	53	1	930	0	0			0	0			1				0	
6.6.1	win	2023-06-27	09:33:35	09:39:59	380398	62d59d0df8da03fdf7f8c317	3	1	main_slash	7	advance_on_keypress_SLASH	72	stimuli_distractor_trianglediamonds.svg	stimuli_target_rectangletriangles.svg	9	yes	57	0	525	0	0			0	0			1				0	
6.6.1	win	2023-06-27	09:33:35	09:40:01	382198	62d59d0df8da03fdf7f8c317	3	1	main_slash	7	main_slash	73	stimuli_distractor_diamondtriangles.svg	stimuli_target_rectanglediamonds.svg	14	yes	53	1	631	0	0			0	0			1				0	
6.6.1	win	2023-06-27	09:33:35	09:40:01	382198	62d59d0df8da03fdf7f8c317	3	1	main_slash	7	advance_on_keypress_SLASH	74	stimuli_distractor_diamondtriangles.svg	stimuli_target_rectanglediamonds.svg	14	yes	57	0	405	0	0			0	0			1				0	
6.6.1	win	2023-06-27	09:33:35	09:40:04	385252	62d59d0df8da03fdf7f8c317	3	1	main_slash	7	main_slash	75	stimuli_distractor_diamondtriangles.svg	stimuli_distractor_diamondtriangles.svg	39	no	0	1	2000	0	0			0	0			1				0	
6.6.1	win	2023-06-27	09:33:35	09:40:04	385252	62d59d0df8da03fdf7f8c317	3	1	main_slash	7	advance_on_keypress_SLASH	76	stimuli_distractor_diamondtriangles.svg	stimuli_distractor_diamondtriangles.svg	39	no	57	0	379	0	0			0	0			1				0	
6.6.1	win	2023-06-27	09:33:35	09:40:06	386910	62d59d0df8da03fdf7f8c317	3	1	main_slash	7	main_slash	77	stimuli_target_rectangletriangles.svg	stimuli_distractor_diamondtriangles.svg	5	yes	53	1	626	0	0			0	0			1				0	
6.6.1	win	2023-06-27	09:33:35	09:40:06	386910	62d59d0df8da03fdf7f8c317	3	1	main_slash	7	advance_on_keypress_SLASH	78	stimuli_target_rectangletriangles.svg	stimuli_distractor_diamondtriangles.svg	5	yes	57	0	400	0	0			0	0			1				0	
6.6.1	win	2023-06-27	09:33:35	09:40:07	388702	62d59d0df8da03fdf7f8c317	3	1	main_slash	7	main_slash	79	stimuli_distractor_trianglediamonds.svg	stimuli_target_trianglesquares.svg	26	yes	53	1	751	0	0			0	0			1				0	
6.6.1	win	2023-06-27	09:33:35	09:40:07	388702	62d59d0df8da03fdf7f8c317	3	1	main_slash	7	advance_on_keypress_SLASH	80	stimuli_distractor_trianglediamonds.svg	stimuli_target_trianglesquares.svg	26	yes	57	0	432	0	0			0	0			1				0	
6.6.1	win	2023-06-27	09:33:35	09:40:10	391785	62d59d0df8da03fdf7f8c317	3	1	main_slash	7	main_slash	81	stimuli_distractor_trianglediamonds.svg	stimuli_distractor_diamondtriangles.svg	36	no	0	1	2000	0	0			0	0			1				0	
6.6.1	win	2023-06-27	09:33:35	09:40:10	391785	62d59d0df8da03fdf7f8c317	3	1	main_slash	7	advance_on_keypress_SLASH	82	stimuli_distractor_trianglediamonds.svg	stimuli_distractor_diamondtriangles.svg	36	no	57	0	340	0	0			0	0			1				0	
6.6.1	win	2023-06-27	09:33:35	09:40:12	393174	62d59d0df8da03fdf7f8c317	3	1	main_slash	7	main_slash	83	stimuli_target_diamondrectangles.svg	stimuli_distractor_trianglediamonds.svg	19	yes	53	1	407	0	0			0	0			1				0	
6.6.1	win	2023-06-27	09:33:35	09:40:12	393174	62d59d0df8da03fdf7f8c317	3	1	main_slash	7	advance_on_keypress_SLASH	84	stimuli_target_diamondrectangles.svg	stimuli_distractor_trianglediamonds.svg	19	yes	57	0	517	0	0			0	0			1				0	
6.6.1	win	2023-06-27	09:33:35	09:40:15	396335	62d59d0df8da03fdf7f8c317	3	1	main_slash	7	main_slash	85	stimuli_distractor_trianglediamonds.svg	stimuli_distractor_trianglediamonds.svg	34	no	0	1	2000	0	0			0	0			1				0	
6.6.1	win	2023-06-27	09:33:35	09:40:15	396335	62d59d0df8da03fdf7f8c317	3	1	main_slash	7	advance_on_keypress_SLASH	86	stimuli_distractor_trianglediamonds.svg	stimuli_distractor_trianglediamonds.svg	34	no	57	0	407	0	0			0	0			1				0	
6.6.1	win	2023-06-27	09:33:35	09:40:16	397750	62d59d0df8da03fdf7f8c317	3	1	main_slash	7	main_slash	87	stimuli_target_diamondsquares.svg	stimuli_distractor_trianglediamonds.svg	20	yes	53	1	365	0	0			0	0			1				0	
6.6.1	win	2023-06-27	09:33:35	09:40:16	397750	62d59d0df8da03fdf7f8c317	3	1	main_slash	7	advance_on_keypress_SLASH	88	stimuli_target_diamondsquares.svg	stimuli_distractor_trianglediamonds.svg	20	yes	57	0	462	0	0			0	0			1				0	
6.6.1	win	2023-06-27	09:33:35	09:40:18	399342	62d59d0df8da03fdf7f8c317	3	1	main_slash	7	main_slash	89	stimuli_target_diamondrectangles.svg	stimuli_distractor_diamondtriangles.svg	23	yes	53	1	475	0	0			0	0			1				0	
6.6.1	win	2023-06-27	09:33:35	09:40:18	399342	62d59d0df8da03fdf7f8c317	3	1	main_slash	7	advance_on_keypress_SLASH	90	stimuli_target_diamondrectangles.svg	stimuli_distractor_diamondtriangles.svg	23	yes	57	0	383	0	0			0	0			1				0	
6.6.1	win	2023-06-27	09:33:35	09:40:20	401158	62d59d0df8da03fdf7f8c317	3	1	main_slash	7	main_slash	91	stimuli_target_squarediamonds.svg	stimuli_distractor_trianglediamonds.svg	4	yes	53	1	790	0	0			0	0			1				0	
6.6.1	win	2023-06-27	09:33:35	09:40:20	401158	62d59d0df8da03fdf7f8c317	3	1	main_slash	7	advance_on_keypress_SLASH	92	stimuli_target_squarediamonds.svg	stimuli_distractor_trianglediamonds.svg	4	yes	57	0	407	0	0			0	0			1				0	
6.6.1	win	2023-06-27	09:33:35	09:40:21	402583	62d59d0df8da03fdf7f8c317	3	1	main_slash	7	main_slash	93	stimuli_distractor_diamondtriangles.svg	stimuli_target_squarediamonds.svg	16	yes	53	1	382	0	0			0	0			1				0	
6.6.1	win	2023-06-27	09:33:35	09:40:21	402583	62d59d0df8da03fdf7f8c317	3	1	main_slash	7	advance_on_keypress_SLASH	94	stimuli_distractor_diamondtriangles.svg	stimuli_target_squarediamonds.svg	16	yes	57	0	413	0	0			0	0			1				0	
6.6.1	win	2023-06-27	09:33:35	09:40:23	404566	62d59d0df8da03fdf7f8c317	3	1	main_slash	7	main_slash	95	stimuli_target_rectanglediamonds.svg	stimuli_distractor_trianglediamonds.svg	2	yes	53	1	915	0	0			0	0			1				0	
6.6.1	win	2023-06-27	09:33:35	09:40:23	404566	62d59d0df8da03fdf7f8c317	3	1	main_slash	7	advance_on_keypress_SLASH	96	stimuli_target_rectanglediamonds.svg	stimuli_distractor_trianglediamonds.svg	2	yes	57	0	437	0	0			0	0			1				0	
6.6.1	win	2023-06-27	09:33:35	09:40:25	406230	62d59d0df8da03fdf7f8c317	3	1	main_slash	7	main_slash	97	stimuli_distractor_trianglediamonds.svg	stimuli_distractor_diamondtriangles.svg	35	no	53	0	579	0	0			0	0			1				0	
6.6.1	win	2023-06-27	09:33:35	09:40:25	406230	62d59d0df8da03fdf7f8c317	3	1	main_slash	7	advance_on_keypress_SLASH	98	stimuli_distractor_trianglediamonds.svg	stimuli_distractor_diamondtriangles.svg	35	no	57	0	635	0	0			0	0			1				0	
6.6.1	win	2023-06-27	09:33:35	09:40:26	407758	62d59d0df8da03fdf7f8c317	3	1	main_slash	7	main_slash	99	stimuli_target_diamondsquares.svg	stimuli_distractor_diamondtriangles.svg	24	yes	53	1	240	0	0			0	0			1				0	
6.6.1	win	2023-06-27	09:33:35	09:40:26	407758	62d59d0df8da03fdf7f8c317	3	1	main_slash	7	advance_on_keypress_SLASH	100	stimuli_target_diamondsquares.svg	stimuli_distractor_diamondtriangles.svg	24	yes	57	0	471	0	0			0	0			1				0	
6.6.1	win	2023-06-27	09:33:35	09:40:28	409110	62d59d0df8da03fdf7f8c317	3	1	main_slash	7	main_slash	101	stimuli_target_squaretriangles.svg	stimuli_distractor_diamondtriangles.svg	7	yes	53	1	243	0	0			0	0			1				0	
6.6.1	win	2023-06-27	09:33:35	09:40:28	409110	62d59d0df8da03fdf7f8c317	3	1	main_slash	7	advance_on_keypress_SLASH	102	stimuli_target_squaretriangles.svg	stimuli_distractor_diamondtriangles.svg	7	yes	57	0	503	0	0			0	0			1				0	
6.6.1	win	2023-06-27	09:33:35	09:40:30	410958	62d59d0df8da03fdf7f8c317	3	1	main_slash	7	main_slash	103	stimuli_target_rectangletriangles.svg	stimuli_distractor_trianglediamonds.svg	1	yes	53	1	708	0	0			0	0			1				0	
6.6.1	win	2023-06-27	09:33:35	09:40:30	410958	62d59d0df8da03fdf7f8c317	3	1	main_slash	7	advance_on_keypress_SLASH	104	stimuli_target_rectangletriangles.svg	stimuli_distractor_trianglediamonds.svg	1	yes	57	0	438	0	0			0	0			1				0	
6.6.1	win	2023-06-27	09:33:35	09:40:31	412374	62d59d0df8da03fdf7f8c317	3	1	main_slash	7	main_slash	105	stimuli_distractor_diamondtriangles.svg	stimuli_target_trianglerectangles.svg	29	yes	53	1	340	0	0			0	0			1				0	
6.6.1	win	2023-06-27	09:33:35	09:40:31	412374	62d59d0df8da03fdf7f8c317	3	1	main_slash	7	advance_on_keypress_SLASH	106	stimuli_distractor_diamondtriangles.svg	stimuli_target_trianglerectangles.svg	29	yes	57	0	493	0	0			0	0			1				0	
6.6.1	win	2023-06-27	09:33:35	09:40:32	413854	62d59d0df8da03fdf7f8c317	3	1	main_slash	7	main_slash	107	stimuli_distractor_trianglediamonds.svg	stimuli_target_trianglesquares.svg	26	yes	53	1	353	0	0			0	0			1				0	
6.6.1	win	2023-06-27	09:33:35	09:40:32	413854	62d59d0df8da03fdf7f8c317	3	1	main_slash	7	advance_on_keypress_SLASH	108	stimuli_distractor_trianglediamonds.svg	stimuli_target_trianglesquares.svg	26	yes	57	0	363	0	0			0	0			1				0	
6.6.1	win	2023-06-27	09:33:35	09:40:34	415190	62d59d0df8da03fdf7f8c317	3	1	main_slash	7	main_slash	109	stimuli_target_squarediamonds.svg	stimuli_distractor_diamondtriangles.svg	8	yes	53	1	322	0	0			0	0			1				0	
6.6.1	win	2023-06-27	09:33:35	09:40:34	415190	62d59d0df8da03fdf7f8c317	3	1	main_slash	7	advance_on_keypress_SLASH	110	stimuli_target_squarediamonds.svg	stimuli_distractor_diamondtriangles.svg	8	yes	57	0	389	0	0			0	0			1				0	
6.6.1	win	2023-06-27	09:33:35	09:40:35	416422	62d59d0df8da03fdf7f8c317	3	1	main_slash	7	main_slash	111	stimuli_distractor_trianglediamonds.svg	stimuli_target_squarediamonds.svg	12	yes	53	1	204	0	0			0	0			1				0	
6.6.1	win	2023-06-27	09:33:35	09:40:35	416422	62d59d0df8da03fdf7f8c317	3	1	main_slash	7	advance_on_keypress_SLASH	112	stimuli_distractor_trianglediamonds.svg	stimuli_target_squarediamonds.svg	12	yes	57	0	459	0	0			0	0			1				0	
6.6.1	win	2023-06-27	09:33:35	09:40:36	417774	62d59d0df8da03fdf7f8c317	3	1	main_slash	7	main_slash	113	stimuli_distractor_trianglediamonds.svg	stimuli_target_trianglerectangles.svg	25	yes	53	1	256	0	0			0	0			1				0	
6.6.1	win	2023-06-27	09:33:35	09:40:36	417774	62d59d0df8da03fdf7f8c317	3	1	main_slash	7	advance_on_keypress_SLASH	114	stimuli_distractor_trianglediamonds.svg	stimuli_target_trianglerectangles.svg	25	yes	57	0	837	0	0			0	0			1				0	
6.6.1	win	2023-06-27	09:33:35	09:40:38	419542	62d59d0df8da03fdf7f8c317	3	1	main_slash	7	main_slash	115	stimuli_distractor_trianglediamonds.svg	stimuli_target_diamondrectangles.svg	27	yes	53	1	292	0	0			0	0			1				0	
6.6.1	win	2023-06-27	09:33:35	09:40:38	419542	62d59d0df8da03fdf7f8c317	3	1	main_slash	7	advance_on_keypress_SLASH	116	stimuli_distractor_trianglediamonds.svg	stimuli_target_diamondrectangles.svg	27	yes	57	0	558	0	0			0	0			1				0	
6.6.1	win	2023-06-27	09:33:35	09:40:40	421406	62d59d0df8da03fdf7f8c317	3	1	main_slash	7	main_slash	117	stimuli_distractor_diamondtriangles.svg	stimuli_target_squaretriangles.svg	15	yes	53	1	671	0	0			0	0			1				0	
6.6.1	win	2023-06-27	09:33:35	09:40:40	421406	62d59d0df8da03fdf7f8c317	3	1	main_slash	7	advance_on_keypress_SLASH	118	stimuli_distractor_diamondtriangles.svg	stimuli_target_squaretriangles.svg	15	yes	57	0	468	0	0			0	0			1				0	
6.6.1	win	2023-06-27	09:33:35	09:40:42	422926	62d59d0df8da03fdf7f8c317	3	1	main_slash	7	main_slash	119	stimuli_distractor_diamondtriangles.svg	stimuli_target_trianglesquares.svg	30	yes	53	1	408	0	0			0	0			1				0	
6.6.1	win	2023-06-27	09:33:35	09:40:42	422926	62d59d0df8da03fdf7f8c317	3	1	main_slash	7	advance_on_keypress_SLASH	120	stimuli_distractor_diamondtriangles.svg	stimuli_target_trianglesquares.svg	30	yes	57	0	351	0	0			0	0			1				0	
6.6.1	win	2023-06-27	09:33:35	09:40:43	424214	62d59d0df8da03fdf7f8c317	3	1	main_slash	7	main_slash	121	stimuli_distractor_trianglediamonds.svg	stimuli_target_diamondsquares.svg	28	yes	53	1	296	0	0			0	0			1				0	
6.6.1	win	2023-06-27	09:33:35	09:40:43	424214	62d59d0df8da03fdf7f8c317	3	1	main_slash	7	advance_on_keypress_SLASH	122	stimuli_distractor_trianglediamonds.svg	stimuli_target_diamondsquares.svg	28	yes	57	0	764	0	0			0	0			1				0	
6.6.1	win	2023-06-27	09:33:35	09:40:44	425886	62d59d0df8da03fdf7f8c317	3	1	main_slash	7	main_slash	123	stimuli_distractor_trianglediamonds.svg	stimuli_target_rectangletriangles.svg	9	yes	53	1	252	0	0			0	0			1				0	
6.6.1	win	2023-06-27	09:33:35	09:40:44	425886	62d59d0df8da03fdf7f8c317	3	1	main_slash	7	advance_on_keypress_SLASH	124	stimuli_distractor_trianglediamonds.svg	stimuli_target_rectangletriangles.svg	9	yes	57	0	441	0	0			0	0			1				0	
6.6.1	win	2023-06-27	09:33:35	09:40:48	428968	62d59d0df8da03fdf7f8c317	3	1	main_slash	7	main_slash	125	stimuli_distractor_diamondtriangles.svg	stimuli_distractor_diamondtriangles.svg	39	no	0	1	2000	0	0			0	0			1				0	
6.6.1	win	2023-06-27	09:33:35	09:40:48	428968	62d59d0df8da03fdf7f8c317	3	1	main_slash	7	advance_on_keypress_SLASH	126	stimuli_distractor_diamondtriangles.svg	stimuli_distractor_diamondtriangles.svg	39	no	57	0	294	0	0			0	0			1				0	
6.6.1	win	2023-06-27	09:33:35	09:40:49	430390	62d59d0df8da03fdf7f8c317	3	1	main_slash	7	main_slash	127	stimuli_target_trianglerectangles.svg	stimuli_distractor_trianglediamonds.svg	17	yes	53	1	489	0	0			0	0			1				0	
6.6.1	win	2023-06-27	09:33:35	09:40:49	430390	62d59d0df8da03fdf7f8c317	3	1	main_slash	7	advance_on_keypress_SLASH	128	stimuli_target_trianglerectangles.svg	stimuli_distractor_trianglediamonds.svg	17	yes	57	0	406	0	0			0	0			1				0	
6.6.1	win	2023-06-27	09:33:35	09:40:50	431815	62d59d0df8da03fdf7f8c317	3	1	main_slash	7	main_slash	129	stimuli_target_rectangletriangles.svg	stimuli_distractor_diamondtriangles.svg	5	yes	53	1	372	0	0			0	0			1				0	
6.6.1	win	2023-06-27	09:33:35	09:40:50	431815	62d59d0df8da03fdf7f8c317	3	1	main_slash	7	advance_on_keypress_SLASH	130	stimuli_target_rectangletriangles.svg	stimuli_distractor_diamondtriangles.svg	5	yes	57	0	547	0	0			0	0			1				0	
6.6.1	win	2023-06-27	09:33:35	09:40:53	434798	62d59d0df8da03fdf7f8c317	3	1	main_slash	7	main_slash	131	stimuli_target_trianglerectangles.svg	stimuli_distractor_diamondtriangles.svg	21	yes	53	1	1780	0	0			0	0			1				0	
6.6.1	win	2023-06-27	09:33:35	09:40:53	434798	62d59d0df8da03fdf7f8c317	3	1	main_slash	7	advance_on_keypress_SLASH	132	stimuli_target_trianglerectangles.svg	stimuli_distractor_diamondtriangles.svg	21	yes	57	0	556	0	0			0	0			1				0	
6.6.1	win	2023-06-27	09:33:35	09:40:55	436262	62d59d0df8da03fdf7f8c317	3	1	main_slash	7	main_slash	133	stimuli_distractor_diamondtriangles.svg	stimuli_target_rectangletriangles.svg	13	yes	53	1	261	0	0			0	0			1				0	
6.6.1	win	2023-06-27	09:33:35	09:40:55	436262	62d59d0df8da03fdf7f8c317	3	1	main_slash	7	advance_on_keypress_SLASH	134	stimuli_distractor_diamondtriangles.svg	stimuli_target_rectangletriangles.svg	13	yes	57	0	474	0	0			0	0			1				0	
6.6.1	win	2023-06-27	09:33:35	09:40:56	437710	62d59d0df8da03fdf7f8c317	3	1	main_slash	7	main_slash	135	stimuli_distractor_diamondtriangles.svg	stimuli_target_rectanglediamonds.svg	14	yes	53	1	343	0	0			0	0			1				0	
6.6.1	win	2023-06-27	09:33:35	09:40:56	437710	62d59d0df8da03fdf7f8c317	3	1	main_slash	7	advance_on_keypress_SLASH	136	stimuli_distractor_diamondtriangles.svg	stimuli_target_rectanglediamonds.svg	14	yes	57	0	400	0	0			0	0			1				0	
6.6.1	win	2023-06-27	09:33:35	09:40:58	439030	62d59d0df8da03fdf7f8c317	3	1	main_slash	7	main_slash	137	stimuli_target_trianglesquares.svg	stimuli_distractor_diamondtriangles.svg	22	yes	53	1	279	0	0			0	0			1				0	
6.6.1	win	2023-06-27	09:33:35	09:40:58	439030	62d59d0df8da03fdf7f8c317	3	1	main_slash	7	advance_on_keypress_SLASH	138	stimuli_target_trianglesquares.svg	stimuli_distractor_diamondtriangles.svg	22	yes	57	0	443	0	0			0	0			1				0	
6.6.1	win	2023-06-27	09:33:35	09:40:59	440454	62d59d0df8da03fdf7f8c317	3	1	main_slash	7	main_slash	139	stimuli_distractor_diamondtriangles.svg	stimuli_distractor_trianglediamonds.svg	37	no	53	0	336	0	0			0	0			1				0	
6.6.1	win	2023-06-27	09:33:35	09:40:59	440454	62d59d0df8da03fdf7f8c317	3	1	main_slash	7	advance_on_keypress_SLASH	140	stimuli_distractor_diamondtriangles.svg	stimuli_distractor_trianglediamonds.svg	37	no	57	0	1778	0	0			0	0			1				0	
6.6.1	win	2023-06-27	09:33:35	09:41:03	444884	62d59d0df8da03fdf7f8c317	3	1	main_slash	7	main_slash	141	stimuli_distractor_diamondtriangles.svg	stimuli_distractor_trianglediamonds.svg	38	no	0	1	2000	0	0			0	0			1				0	
6.6.1	win	2023-06-27	09:33:35	09:41:03	444884	62d59d0df8da03fdf7f8c317	3	1	main_slash	7	advance_on_keypress_SLASH	142	stimuli_distractor_diamondtriangles.svg	stimuli_distractor_trianglediamonds.svg	38	no	57	0	393	0	0			0	0			1				0	
6.6.1	win	2023-06-27	09:33:35	09:41:05	446299	62d59d0df8da03fdf7f8c317	3	1	main_slash	7	main_slash	143	stimuli_distractor_trianglediamonds.svg	stimuli_target_squaretriangles.svg	11	yes	53	1	377	0	0			0	0			1				0	
6.6.1	win	2023-06-27	09:33:35	09:41:05	446299	62d59d0df8da03fdf7f8c317	3	1	main_slash	7	advance_on_keypress_SLASH	144	stimuli_distractor_trianglediamonds.svg	stimuli_target_squaretriangles.svg	11	yes	57	0	376	0	0			0	0			1				0	
6.6.1	win	2023-06-27	09:33:35	09:41:06	447870	62d59d0df8da03fdf7f8c317	3	1	main_slash	7	main_slash	145	stimuli_distractor_diamondtriangles.svg	stimuli_target_diamondsquares.svg	32	yes	53	1	553	0	0			0	0			1				0	
6.6.1	win	2023-06-27	09:33:35	09:41:06	447870	62d59d0df8da03fdf7f8c317	3	1	main_slash	7	advance_on_keypress_SLASH	146	stimuli_distractor_diamondtriangles.svg	stimuli_target_diamondsquares.svg	32	yes	57	0	425	0	0			0	0			1				0	
6.6.1	win	2023-06-27	09:33:35	09:41:08	449542	62d59d0df8da03fdf7f8c317	3	1	main_slash	7	main_slash	147	stimuli_target_rectanglediamonds.svg	stimuli_distractor_diamondtriangles.svg	6	yes	53	1	607	0	0			0	0			1				0	
6.6.1	win	2023-06-27	09:33:35	09:41:08	449542	62d59d0df8da03fdf7f8c317	3	1	main_slash	7	advance_on_keypress_SLASH	148	stimuli_target_rectanglediamonds.svg	stimuli_distractor_diamondtriangles.svg	6	yes	57	0	406	0	0			0	0			1				0	
6.6.1	win	2023-06-27	09:33:35	09:41:10	451238	62d59d0df8da03fdf7f8c317	3	1	main_slash	7	main_slash	149	stimuli_target_trianglesquares.svg	stimuli_distractor_trianglediamonds.svg	18	yes	53	1	653	0	0			0	0			1				0	
6.6.1	win	2023-06-27	09:33:35	09:41:10	451238	62d59d0df8da03fdf7f8c317	3	1	main_slash	7	advance_on_keypress_SLASH	150	stimuli_target_trianglesquares.svg	stimuli_distractor_trianglediamonds.svg	18	yes	57	0	355	0	0			0	0			1				0	
6.6.1	win	2023-06-27	09:33:35	09:41:12	452966	62d59d0df8da03fdf7f8c317	3	1	main_slash	7	main_slash	151	stimuli_distractor_trianglediamonds.svg	stimuli_distractor_trianglediamonds.svg	33	no	53	0	731	0	0			0	0			1				0	
6.6.1	win	2023-06-27	09:33:35	09:41:12	452966	62d59d0df8da03fdf7f8c317	3	1	main_slash	7	advance_on_keypress_SLASH	152	stimuli_distractor_trianglediamonds.svg	stimuli_distractor_trianglediamonds.svg	33	no	57	0	677	0	0			0	0			1				0	
6.6.1	win	2023-06-27	09:33:35	09:41:14	455719	62d59d0df8da03fdf7f8c317	3	1	main_slash	7	main_slash	153	stimuli_distractor_trianglediamonds.svg	stimuli_target_rectanglediamonds.svg	10	yes	53	1	1434	0	0			0	0			1				0	
6.6.1	win	2023-06-27	09:33:35	09:41:14	455719	62d59d0df8da03fdf7f8c317	3	1	main_slash	7	advance_on_keypress_SLASH	154	stimuli_distractor_trianglediamonds.svg	stimuli_target_rectanglediamonds.svg	10	yes	57	0	831	0	0			0	0			1				0	
6.6.1	win	2023-06-27	09:33:35	09:41:16	457715	62d59d0df8da03fdf7f8c317	3	1	main_slash	7	main_slash	155	stimuli_distractor_diamondtriangles.svg	stimuli_target_diamondrectangles.svg	31	yes	53	1	505	0	0			0	0			1				0	
6.6.1	win	2023-06-27	09:33:35	09:41:16	457715	62d59d0df8da03fdf7f8c317	3	1	main_slash	7	advance_on_keypress_SLASH	156	stimuli_distractor_diamondtriangles.svg	stimuli_target_diamondrectangles.svg	31	yes	57	0	407	0	0			0	0			1				0	
6.6.1	win	2023-06-27	09:33:35	09:41:18	459302	62d59d0df8da03fdf7f8c317	3	1	main_slash	7	main_slash	157	stimuli_target_squaretriangles.svg	stimuli_distractor_trianglediamonds.svg	3	yes	53	1	534	0	0			0	0			1				0	
6.6.1	win	2023-06-27	09:33:35	09:41:18	459302	62d59d0df8da03fdf7f8c317	3	1	main_slash	7	advance_on_keypress_SLASH	158	stimuli_target_squaretriangles.svg	stimuli_distractor_trianglediamonds.svg	3	yes	57	0	352	0	0			0	0			1				0	
6.6.1	win	2023-06-27	09:33:35	09:41:19	460646	62d59d0df8da03fdf7f8c317	3	1	main_slash	7	main_slash	159	stimuli_distractor_diamondtriangles.svg	stimuli_distractor_diamondtriangles.svg	40	no	53	0	346	0	0			0	0			1				0	
6.6.1	win	2023-06-27	09:33:35	09:41:19	460646	62d59d0df8da03fdf7f8c317	3	1	main_slash	7	advance_on_keypress_SLASH	160	stimuli_distractor_diamondtriangles.svg	stimuli_distractor_diamondtriangles.svg	40	no	57	0	674	0	0			0	0			1				0	
6.6.1	win	2023-06-27	09:33:35	09:41:44	485723	62d59d0df8da03fdf7f8c317	3	1	practice_z	9	practice_z	1	stimuli_target_rectanglediamonds.svg	stimuli_distractor_diamondtriangles.svg	1	yes	44	1	383	0	0			0	0			1				0	
6.6.1	win	2023-06-27	09:33:35	09:41:44	485723	62d59d0df8da03fdf7f8c317	3	1	practice_z	9	advance_on_keypress_ZEE	2	stimuli_target_rectanglediamonds.svg	stimuli_distractor_diamondtriangles.svg	1	yes	57	0	631	0	0			0	0			1				0	
6.6.1	win	2023-06-27	09:33:35	09:41:47	488535	62d59d0df8da03fdf7f8c317	3	1	practice_z	9	practice_z	3	stimuli_distractor_diamondtriangles.svg	stimuli_target_rectangletriangles.svg	7	yes	44	1	510	0	0			0	0			1				0	
6.6.1	win	2023-06-27	09:33:35	09:41:47	488535	62d59d0df8da03fdf7f8c317	3	1	practice_z	9	advance_on_keypress_ZEE	4	stimuli_distractor_diamondtriangles.svg	stimuli_target_rectangletriangles.svg	7	yes	57	0	295	0	0			0	0			1				0	
6.6.1	win	2023-06-27	09:33:35	09:41:51	492487	62d59d0df8da03fdf7f8c317	3	1	practice_z	9	practice_z	5	stimuli_distractor_trianglediamonds.svg	stimuli_distractor_diamondtriangles.svg	16	no	0	1	2000	0	0			0	0			1				0	
6.6.1	win	2023-06-27	09:33:35	09:41:51	492487	62d59d0df8da03fdf7f8c317	3	1	practice_z	9	advance_on_keypress_ZEE	6	stimuli_distractor_trianglediamonds.svg	stimuli_distractor_diamondtriangles.svg	16	no	57	0	457	0	0			0	0			1				0	
6.6.1	win	2023-06-27	09:33:35	09:41:54	495144	62d59d0df8da03fdf7f8c317	3	1	practice_z	9	practice_z	7	stimuli_target_rectanglediamonds.svg	stimuli_distractor_trianglediamonds.svg	4	yes	44	1	557	0	0			0	0			1				0	
6.6.1	win	2023-06-27	09:33:35	09:41:54	495144	62d59d0df8da03fdf7f8c317	3	1	practice_z	9	advance_on_keypress_ZEE	8	stimuli_target_rectanglediamonds.svg	stimuli_distractor_trianglediamonds.svg	4	yes	57	0	383	0	0			0	0			1				0	
6.6.1	win	2023-06-27	09:33:35	09:41:58	499170	62d59d0df8da03fdf7f8c317	3	1	practice_z	9	practice_z	9	stimuli_distractor_trianglediamonds.svg	stimuli_distractor_trianglediamonds.svg	15	no	0	1	2000	0	0			0	0			1				0	
6.6.1	win	2023-06-27	09:33:35	09:41:58	499170	62d59d0df8da03fdf7f8c317	3	1	practice_z	9	advance_on_keypress_ZEE	10	stimuli_distractor_trianglediamonds.svg	stimuli_distractor_trianglediamonds.svg	15	no	57	0	462	0	0			0	0			1				0	
6.6.1	win	2023-06-27	09:33:35	09:42:02	503288	62d59d0df8da03fdf7f8c317	3	1	practice_z	9	practice_z	11	stimuli_distractor_diamondtriangles.svg	stimuli_distractor_diamondtriangles.svg	13	no	0	1	2000	0	0			0	0			1				0	
6.6.1	win	2023-06-27	09:33:35	09:42:02	503288	62d59d0df8da03fdf7f8c317	3	1	practice_z	9	advance_on_keypress_ZEE	12	stimuli_distractor_diamondtriangles.svg	stimuli_distractor_diamondtriangles.svg	13	no	57	0	553	0	0			0	0			1				0	
6.6.1	win	2023-06-27	09:33:35	09:42:05	505976	62d59d0df8da03fdf7f8c317	3	1	practice_z	9	practice_z	13	stimuli_target_squarediamonds.svg	stimuli_distractor_diamondtriangles.svg	2	yes	44	1	490	0	0			0	0			1				0	
6.6.1	win	2023-06-27	09:33:35	09:42:05	505976	62d59d0df8da03fdf7f8c317	3	1	practice_z	9	advance_on_keypress_ZEE	14	stimuli_target_squarediamonds.svg	stimuli_distractor_diamondtriangles.svg	2	yes	57	0	421	0	0			0	0			1				0	
6.6.1	win	2023-06-27	09:33:35	09:42:07	508488	62d59d0df8da03fdf7f8c317	3	1	practice_z	9	practice_z	15	stimuli_distractor_trianglediamonds.svg	stimuli_target_rectanglediamonds.svg	10	yes	44	1	452	0	0			0	0			1				0	
6.6.1	win	2023-06-27	09:33:35	09:42:07	508488	62d59d0df8da03fdf7f8c317	3	1	practice_z	9	advance_on_keypress_ZEE	16	stimuli_distractor_trianglediamonds.svg	stimuli_target_rectanglediamonds.svg	10	yes	57	0	289	0	0			0	0			1				0	
6.6.1	win	2023-06-27	09:33:35	09:42:09	510809	62d59d0df8da03fdf7f8c317	3	1	practice_z	9	practice_z	17	stimuli_target_squarediamonds.svg	stimuli_distractor_trianglediamonds.svg	5	yes	44	1	388	0	0			0	0			1				0	
6.6.1	win	2023-06-27	09:33:35	09:42:09	510809	62d59d0df8da03fdf7f8c317	3	1	practice_z	9	advance_on_keypress_ZEE	18	stimuli_target_squarediamonds.svg	stimuli_distractor_trianglediamonds.svg	5	yes	57	0	476	0	0			0	0			1				0	
6.6.1	win	2023-06-27	09:33:35	09:42:12	513240	62d59d0df8da03fdf7f8c317	3	1	practice_z	9	practice_z	19	stimuli_distractor_diamondtriangles.svg	stimuli_target_diamondrectangles.svg	8	yes	44	1	320	0	0			0	0			1				0	
6.6.1	win	2023-06-27	09:33:35	09:42:12	513240	62d59d0df8da03fdf7f8c317	3	1	practice_z	9	advance_on_keypress_ZEE	20	stimuli_distractor_diamondtriangles.svg	stimuli_target_diamondrectangles.svg	8	yes	57	0	275	0	0			0	0			1				0	
6.6.1	win	2023-06-27	09:33:35	09:42:14	515674	62d59d0df8da03fdf7f8c317	3	1	practice_z	9	practice_z	21	stimuli_target_diamondsquares.svg	stimuli_distractor_diamondtriangles.svg	3	yes	44	1	521	0	0			0	0			1				0	
6.6.1	win	2023-06-27	09:33:35	09:42:14	515674	62d59d0df8da03fdf7f8c317	3	1	practice_z	9	advance_on_keypress_ZEE	22	stimuli_target_diamondsquares.svg	stimuli_distractor_diamondtriangles.svg	3	yes	57	0	289	0	0			0	0			1				0	
6.6.1	win	2023-06-27	09:33:35	09:42:17	518000	62d59d0df8da03fdf7f8c317	3	1	practice_z	9	practice_z	23	stimuli_target_diamondsquares.svg	stimuli_distractor_trianglediamonds.svg	6	yes	44	1	397	0	0			0	0			1				0	
6.6.1	win	2023-06-27	09:33:35	09:42:17	518000	62d59d0df8da03fdf7f8c317	3	1	practice_z	9	advance_on_keypress_ZEE	24	stimuli_target_diamondsquares.svg	stimuli_distractor_trianglediamonds.svg	6	yes	57	0	1620	0	0			0	0			1				0	
6.6.1	win	2023-06-27	09:33:35	09:42:20	521617	62d59d0df8da03fdf7f8c317	3	1	practice_z	9	practice_z	25	stimuli_distractor_trianglediamonds.svg	stimuli_target_squarediamonds.svg	11	yes	44	1	346	0	0			0	0			1				0	
6.6.1	win	2023-06-27	09:33:35	09:42:20	521617	62d59d0df8da03fdf7f8c317	3	1	practice_z	9	advance_on_keypress_ZEE	26	stimuli_distractor_trianglediamonds.svg	stimuli_target_squarediamonds.svg	11	yes	57	0	371	0	0			0	0			1				0	
6.6.1	win	2023-06-27	09:33:35	09:42:23	524064	62d59d0df8da03fdf7f8c317	3	1	practice_z	9	practice_z	27	stimuli_distractor_diamondtriangles.svg	stimuli_distractor_trianglediamonds.svg	14	no	44	0	428	0	0			0	0			1				0	
6.6.1	win	2023-06-27	09:33:35	09:42:23	524064	62d59d0df8da03fdf7f8c317	3	1	practice_z	9	advance_on_keypress_ZEE	28	stimuli_distractor_diamondtriangles.svg	stimuli_distractor_trianglediamonds.svg	14	no	57	0	473	0	0			0	0			1				0	
6.6.1	win	2023-06-27	09:33:35	09:42:25	526600	62d59d0df8da03fdf7f8c317	3	1	practice_z	9	practice_z	29	stimuli_distractor_trianglediamonds.svg	stimuli_target_diamondrectangles.svg	12	yes	44	1	413	0	0			0	0			1				0	
6.6.1	win	2023-06-27	09:33:35	09:42:25	526600	62d59d0df8da03fdf7f8c317	3	1	practice_z	9	advance_on_keypress_ZEE	30	stimuli_distractor_trianglediamonds.svg	stimuli_target_diamondrectangles.svg	12	yes	57	0	420	0	0			0	0			1				0	
6.6.1	win	2023-06-27	09:33:35	09:42:28	529065	62d59d0df8da03fdf7f8c317	3	1	practice_z	9	practice_z	31	stimuli_distractor_diamondtriangles.svg	stimuli_target_trianglerectangles.svg	9	yes	44	1	394	0	0			0	0			1				0	
6.6.1	win	2023-06-27	09:33:35	09:42:28	529065	62d59d0df8da03fdf7f8c317	3	1	practice_z	9	advance_on_keypress_ZEE	32	stimuli_distractor_diamondtriangles.svg	stimuli_target_trianglerectangles.svg	9	yes	57	0	210	0	0			0	0			1				0	
6.6.1	win	2023-06-27	09:33:35	09:42:31	532470	62d59d0df8da03fdf7f8c317	3	1	main_z	11	main_z	1	stimuli_distractor_diamondtriangles.svg	stimuli_target_rectangletriangles.svg	13	yes	44	1	386	0	0			0	0			1				0	
6.6.1	win	2023-06-27	09:33:35	09:42:31	532470	62d59d0df8da03fdf7f8c317	3	1	main_z	11	advance_on_keypress_ZEE	2	stimuli_distractor_diamondtriangles.svg	stimuli_target_rectangletriangles.svg	13	yes	57	0	866	0	0			0	0			1				0	
6.6.1	win	2023-06-27	09:33:35	09:42:33	534238	62d59d0df8da03fdf7f8c317	3	1	main_z	11	main_z	3	stimuli_distractor_diamondtriangles.svg	stimuli_target_rectanglediamonds.svg	14	yes	44	1	254	0	0			0	0			1				0	
6.6.1	win	2023-06-27	09:33:35	09:42:33	534238	62d59d0df8da03fdf7f8c317	3	1	main_z	11	advance_on_keypress_ZEE	4	stimuli_distractor_diamondtriangles.svg	stimuli_target_rectanglediamonds.svg	14	yes	57	0	1635	0	0			0	0			1				0	
6.6.1	win	2023-06-27	09:33:35	09:42:36	536910	62d59d0df8da03fdf7f8c317	3	1	main_z	11	main_z	5	stimuli_distractor_diamondtriangles.svg	stimuli_target_squarediamonds.svg	16	yes	44	1	392	0	0			0	0			1				0	
6.6.1	win	2023-06-27	09:33:35	09:42:36	536910	62d59d0df8da03fdf7f8c317	3	1	main_z	11	advance_on_keypress_ZEE	6	stimuli_distractor_diamondtriangles.svg	stimuli_target_squarediamonds.svg	16	yes	57	0	440	0	0			0	0			1				0	
6.6.1	win	2023-06-27	09:33:35	09:42:38	539094	62d59d0df8da03fdf7f8c317	3	1	main_z	11	main_z	7	stimuli_target_squarediamonds.svg	stimuli_distractor_diamondtriangles.svg	8	yes	44	1	1110	0	0			0	0			1				0	
6.6.1	win	2023-06-27	09:33:35	09:42:38	539094	62d59d0df8da03fdf7f8c317	3	1	main_z	11	advance_on_keypress_ZEE	8	stimuli_target_squarediamonds.svg	stimuli_distractor_diamondtriangles.svg	8	yes	57	0	529	0	0			0	0			1				0	
6.6.1	win	2023-06-27	09:33:35	09:42:39	540766	62d59d0df8da03fdf7f8c317	3	1	main_z	11	main_z	9	stimuli_target_trianglesquares.svg	stimuli_distractor_trianglediamonds.svg	18	yes	44	1	498	0	0			0	0			1				0	
6.6.1	win	2023-06-27	09:33:35	09:42:39	540766	62d59d0df8da03fdf7f8c317	3	1	main_z	11	advance_on_keypress_ZEE	10	stimuli_target_trianglesquares.svg	stimuli_distractor_trianglediamonds.svg	18	yes	57	0	421	0	0			0	0			1				0	
6.6.1	win	2023-06-27	09:33:35	09:42:42	543834	62d59d0df8da03fdf7f8c317	3	1	main_z	11	main_z	11	stimuli_distractor_diamondtriangles.svg	stimuli_distractor_diamondtriangles.svg	40	no	0	1	2000	0	0			0	0			1				0	
6.6.1	win	2023-06-27	09:33:35	09:42:42	543834	62d59d0df8da03fdf7f8c317	3	1	main_z	11	advance_on_keypress_ZEE	12	stimuli_distractor_diamondtriangles.svg	stimuli_distractor_diamondtriangles.svg	40	no	57	0	283	0	0			0	0			1				0	
6.6.1	win	2023-06-27	09:33:35	09:42:44	545230	62d59d0df8da03fdf7f8c317	3	1	main_z	11	main_z	13	stimuli_target_rectangletriangles.svg	stimuli_distractor_trianglediamonds.svg	1	yes	44	1	462	0	0			0	0			1				0	
6.6.1	win	2023-06-27	09:33:35	09:42:44	545230	62d59d0df8da03fdf7f8c317	3	1	main_z	11	advance_on_keypress_ZEE	14	stimuli_target_rectangletriangles.svg	stimuli_distractor_trianglediamonds.svg	1	yes	57	0	459	0	0			0	0			1				0	
6.6.1	win	2023-06-27	09:33:35	09:42:47	548334	62d59d0df8da03fdf7f8c317	3	1	main_z	11	main_z	15	stimuli_distractor_trianglediamonds.svg	stimuli_distractor_trianglediamonds.svg	34	no	0	1	2000	0	0			0	0			1				0	
6.6.1	win	2023-06-27	09:33:35	09:42:47	548334	62d59d0df8da03fdf7f8c317	3	1	main_z	11	advance_on_keypress_ZEE	16	stimuli_distractor_trianglediamonds.svg	stimuli_distractor_trianglediamonds.svg	34	no	57	0	271	0	0			0	0			1				0	
6.6.1	win	2023-06-27	09:33:35	09:42:48	549742	62d59d0df8da03fdf7f8c317	3	1	main_z	11	main_z	17	stimuli_distractor_diamondtriangles.svg	stimuli_distractor_trianglediamonds.svg	37	no	44	0	491	0	0			0	0			1				0	
6.6.1	win	2023-06-27	09:33:35	09:42:48	549742	62d59d0df8da03fdf7f8c317	3	1	main_z	11	advance_on_keypress_ZEE	18	stimuli_distractor_diamondtriangles.svg	stimuli_distractor_trianglediamonds.svg	37	no	57	0	2255	0	0			0	0			1				0	
6.6.1	win	2023-06-27	09:33:35	09:42:53	554022	62d59d0df8da03fdf7f8c317	3	1	main_z	11	main_z	19	stimuli_distractor_diamondtriangles.svg	stimuli_target_diamondrectangles.svg	31	yes	44	1	1388	0	0			0	0			1				0	
6.6.1	win	2023-06-27	09:33:35	09:42:53	554022	62d59d0df8da03fdf7f8c317	3	1	main_z	11	advance_on_keypress_ZEE	20	stimuli_distractor_diamondtriangles.svg	stimuli_target_diamondrectangles.svg	31	yes	57	0	1156	0	0			0	0			1				0	
6.6.1	win	2023-06-27	09:33:35	09:42:55	556534	62d59d0df8da03fdf7f8c317	3	1	main_z	11	main_z	21	stimuli_target_trianglerectangles.svg	stimuli_distractor_diamondtriangles.svg	21	yes	44	1	716	0	0			0	0			1				0	
6.6.1	win	2023-06-27	09:33:35	09:42:55	556534	62d59d0df8da03fdf7f8c317	3	1	main_z	11	advance_on_keypress_ZEE	22	stimuli_target_trianglerectangles.svg	stimuli_distractor_diamondtriangles.svg	21	yes	57	0	471	0	0			0	0			1				0	
6.6.1	win	2023-06-27	09:33:35	09:42:57	558310	62d59d0df8da03fdf7f8c317	3	1	main_z	11	main_z	23	stimuli_distractor_trianglediamonds.svg	stimuli_target_rectangletriangles.svg	9	yes	44	1	659	0	0			0	0			1				0	
6.6.1	win	2023-06-27	09:33:35	09:42:57	558310	62d59d0df8da03fdf7f8c317	3	1	main_z	11	advance_on_keypress_ZEE	24	stimuli_distractor_trianglediamonds.svg	stimuli_target_rectangletriangles.svg	9	yes	57	0	376	0	0			0	0			1				0	
6.6.1	win	2023-06-27	09:33:35	09:42:58	559886	62d59d0df8da03fdf7f8c317	3	1	main_z	11	main_z	25	stimuli_distractor_trianglediamonds.svg	stimuli_target_diamondsquares.svg	28	yes	44	1	568	0	0			0	0			1				0	
6.6.1	win	2023-06-27	09:33:35	09:42:58	559886	62d59d0df8da03fdf7f8c317	3	1	main_z	11	advance_on_keypress_ZEE	26	stimuli_distractor_trianglediamonds.svg	stimuli_target_diamondsquares.svg	28	yes	57	0	337	0	0			0	0			1				0	
6.6.1	win	2023-06-27	09:33:35	09:43:01	562868	62d59d0df8da03fdf7f8c317	3	1	main_z	11	main_z	27	stimuli_distractor_trianglediamonds.svg	stimuli_distractor_trianglediamonds.svg	33	no	0	1	2000	0	0			0	0			1				0	
6.6.1	win	2023-06-27	09:33:35	09:43:01	562868	62d59d0df8da03fdf7f8c317	3	1	main_z	11	advance_on_keypress_ZEE	28	stimuli_distractor_trianglediamonds.svg	stimuli_distractor_trianglediamonds.svg	33	no	57	0	290	0	0			0	0			1				0	
6.6.1	win	2023-06-27	09:33:35	09:43:04	565801	62d59d0df8da03fdf7f8c317	3	1	main_z	11	main_z	29	stimuli_distractor_diamondtriangles.svg	stimuli_distractor_diamondtriangles.svg	39	no	0	1	2000	0	0			0	0			1				0	
6.6.1	win	2023-06-27	09:33:35	09:43:04	565801	62d59d0df8da03fdf7f8c317	3	1	main_z	11	advance_on_keypress_ZEE	30	stimuli_distractor_diamondtriangles.svg	stimuli_distractor_diamondtriangles.svg	39	no	57	0	500	0	0			0	0			1				0	
6.6.1	win	2023-06-27	09:33:35	09:43:06	567518	62d59d0df8da03fdf7f8c317	3	1	main_z	11	main_z	31	stimuli_distractor_trianglediamonds.svg	stimuli_target_trianglerectangles.svg	25	yes	44	1	567	0	0			0	0			1				0	
6.6.1	win	2023-06-27	09:33:35	09:43:06	567518	62d59d0df8da03fdf7f8c317	3	1	main_z	11	advance_on_keypress_ZEE	32	stimuli_distractor_trianglediamonds.svg	stimuli_target_trianglerectangles.svg	25	yes	57	0	456	0	0			0	0			1				0	
6.6.1	win	2023-06-27	09:33:35	09:43:08	568998	62d59d0df8da03fdf7f8c317	3	1	main_z	11	main_z	33	stimuli_distractor_diamondtriangles.svg	stimuli_target_trianglerectangles.svg	29	yes	44	1	380	0	0			0	0			1				0	
6.6.1	win	2023-06-27	09:33:35	09:43:08	568998	62d59d0df8da03fdf7f8c317	3	1	main_z	11	advance_on_keypress_ZEE	34	stimuli_distractor_diamondtriangles.svg	stimuli_target_trianglerectangles.svg	29	yes	57	0	428	0	0			0	0			1				0	
6.6.1	win	2023-06-27	09:33:35	09:43:09	570486	62d59d0df8da03fdf7f8c317	3	1	main_z	11	main_z	35	stimuli_target_diamondrectangles.svg	stimuli_distractor_diamondtriangles.svg	23	yes	44	1	402	0	0			0	0			1				0	
6.6.1	win	2023-06-27	09:33:35	09:43:09	570486	62d59d0df8da03fdf7f8c317	3	1	main_z	11	advance_on_keypress_ZEE	36	stimuli_target_diamondrectangles.svg	stimuli_distractor_diamondtriangles.svg	23	yes	57	0	633	0	0			0	0			1				0	
6.6.1	win	2023-06-27	09:33:35	09:43:11	572281	62d59d0df8da03fdf7f8c317	3	1	main_z	11	main_z	37	stimuli_target_trianglesquares.svg	stimuli_distractor_diamondtriangles.svg	22	yes	44	1	510	0	0			0	0			1				0	
6.6.1	win	2023-06-27	09:33:35	09:43:11	572281	62d59d0df8da03fdf7f8c317	3	1	main_z	11	advance_on_keypress_ZEE	38	stimuli_target_trianglesquares.svg	stimuli_distractor_diamondtriangles.svg	22	yes	57	0	337	0	0			0	0			1				0	
6.6.1	win	2023-06-27	09:33:35	09:43:13	573894	62d59d0df8da03fdf7f8c317	3	1	main_z	11	main_z	39	stimuli_target_diamondsquares.svg	stimuli_distractor_trianglediamonds.svg	20	yes	44	1	626	0	0			0	0			1				0	
6.6.1	win	2023-06-27	09:33:35	09:43:13	573894	62d59d0df8da03fdf7f8c317	3	1	main_z	11	advance_on_keypress_ZEE	40	stimuli_target_diamondsquares.svg	stimuli_distractor_trianglediamonds.svg	20	yes	57	0	593	0	0			0	0			1				0	
6.6.1	win	2023-06-27	09:33:35	09:43:14	575854	62d59d0df8da03fdf7f8c317	3	1	main_z	11	main_z	41	stimuli_distractor_trianglediamonds.svg	stimuli_target_diamondrectangles.svg	27	yes	44	1	736	0	0			0	0			1				0	
6.6.1	win	2023-06-27	09:33:35	09:43:14	575854	62d59d0df8da03fdf7f8c317	3	1	main_z	11	advance_on_keypress_ZEE	42	stimuli_distractor_trianglediamonds.svg	stimuli_target_diamondrectangles.svg	27	yes	57	0	698	0	0			0	0			1				0	
6.6.1	win	2023-06-27	09:33:35	09:43:16	577534	62d59d0df8da03fdf7f8c317	3	1	main_z	11	main_z	43	stimuli_distractor_diamondtriangles.svg	stimuli_target_trianglesquares.svg	30	yes	44	1	333	0	0			0	0			1				0	
6.6.1	win	2023-06-27	09:33:35	09:43:16	577534	62d59d0df8da03fdf7f8c317	3	1	main_z	11	advance_on_keypress_ZEE	44	stimuli_distractor_diamondtriangles.svg	stimuli_target_trianglesquares.svg	30	yes	57	0	455	0	0			0	0			1				0	
6.6.1	win	2023-06-27	09:33:35	09:43:18	579086	62d59d0df8da03fdf7f8c317	3	1	main_z	11	main_z	45	stimuli_target_diamondsquares.svg	stimuli_distractor_diamondtriangles.svg	24	yes	44	1	452	0	0			0	0			1				0	
6.6.1	win	2023-06-27	09:33:35	09:43:18	579086	62d59d0df8da03fdf7f8c317	3	1	main_z	11	advance_on_keypress_ZEE	46	stimuli_target_diamondsquares.svg	stimuli_distractor_diamondtriangles.svg	24	yes	57	0	377	0	0			0	0			1				0	
6.6.1	win	2023-06-27	09:33:35	09:43:19	580526	62d59d0df8da03fdf7f8c317	3	1	main_z	11	main_z	47	stimuli_target_rectangletriangles.svg	stimuli_distractor_diamondtriangles.svg	5	yes	44	1	425	0	0			0	0			1				0	
6.6.1	win	2023-06-27	09:33:35	09:43:19	580526	62d59d0df8da03fdf7f8c317	3	1	main_z	11	advance_on_keypress_ZEE	48	stimuli_target_rectangletriangles.svg	stimuli_distractor_diamondtriangles.svg	5	yes	57	0	463	0	0			0	0			1				0	
6.6.1	win	2023-06-27	09:33:35	09:43:21	582126	62d59d0df8da03fdf7f8c317	3	1	main_z	11	main_z	49	stimuli_target_rectanglediamonds.svg	stimuli_distractor_trianglediamonds.svg	2	yes	44	1	492	0	0			0	0			1				0	
6.6.1	win	2023-06-27	09:33:35	09:43:21	582126	62d59d0df8da03fdf7f8c317	3	1	main_z	11	advance_on_keypress_ZEE	50	stimuli_target_rectanglediamonds.svg	stimuli_distractor_trianglediamonds.svg	2	yes	57	0	336	0	0			0	0			1				0	
6.6.1	win	2023-06-27	09:33:35	09:43:22	583494	62d59d0df8da03fdf7f8c317	3	1	main_z	11	main_z	51	stimuli_distractor_trianglediamonds.svg	stimuli_distractor_diamondtriangles.svg	36	no	44	0	393	0	0			0	0			1				0	
6.6.1	win	2023-06-27	09:33:35	09:43:22	583494	62d59d0df8da03fdf7f8c317	3	1	main_z	11	advance_on_keypress_ZEE	52	stimuli_distractor_trianglediamonds.svg	stimuli_distractor_diamondtriangles.svg	36	no	57	0	969	0	0			0	0			1				0	
6.6.1	win	2023-06-27	09:33:35	09:43:26	587101	62d59d0df8da03fdf7f8c317	3	1	main_z	11	main_z	53	stimuli_distractor_diamondtriangles.svg	stimuli_distractor_trianglediamonds.svg	38	no	0	1	2000	0	0			0	0			1				0	
6.6.1	win	2023-06-27	09:33:35	09:43:26	587101	62d59d0df8da03fdf7f8c317	3	1	main_z	11	advance_on_keypress_ZEE	54	stimuli_distractor_diamondtriangles.svg	stimuli_distractor_trianglediamonds.svg	38	no	57	0	392	0	0			0	0			1				0	
6.6.1	win	2023-06-27	09:33:35	09:43:27	588648	62d59d0df8da03fdf7f8c317	3	1	main_z	11	main_z	55	stimuli_target_squaretriangles.svg	stimuli_distractor_trianglediamonds.svg	3	yes	44	1	505	0	0			0	0			1				0	
6.6.1	win	2023-06-27	09:33:35	09:43:27	588648	62d59d0df8da03fdf7f8c317	3	1	main_z	11	advance_on_keypress_ZEE	56	stimuli_target_squaretriangles.svg	stimuli_distractor_trianglediamonds.svg	3	yes	57	0	355	0	0			0	0			1				0	
6.6.1	win	2023-06-27	09:33:35	09:43:29	590165	62d59d0df8da03fdf7f8c317	3	1	main_z	11	main_z	57	stimuli_target_rectanglediamonds.svg	stimuli_distractor_diamondtriangles.svg	6	yes	44	1	508	0	0			0	0			1				0	
6.6.1	win	2023-06-27	09:33:35	09:43:29	590165	62d59d0df8da03fdf7f8c317	3	1	main_z	11	advance_on_keypress_ZEE	58	stimuli_target_rectanglediamonds.svg	stimuli_distractor_diamondtriangles.svg	6	yes	57	0	390	0	0			0	0			1				0	
6.6.1	win	2023-06-27	09:33:35	09:43:30	591606	62d59d0df8da03fdf7f8c317	3	1	main_z	11	main_z	59	stimuli_distractor_trianglediamonds.svg	stimuli_target_squaretriangles.svg	11	yes	44	1	405	0	0			0	0			1				0	
6.6.1	win	2023-06-27	09:33:35	09:43:30	591606	62d59d0df8da03fdf7f8c317	3	1	main_z	11	advance_on_keypress_ZEE	60	stimuli_distractor_trianglediamonds.svg	stimuli_target_squaretriangles.svg	11	yes	57	0	388	0	0			0	0			1				0	
6.6.1	win	2023-06-27	09:33:35	09:43:32	593166	62d59d0df8da03fdf7f8c317	3	1	main_z	11	main_z	61	stimuli_distractor_trianglediamonds.svg	stimuli_target_rectanglediamonds.svg	10	yes	44	1	532	0	0			0	0			1				0	
6.6.1	win	2023-06-27	09:33:35	09:43:32	593166	62d59d0df8da03fdf7f8c317	3	1	main_z	11	advance_on_keypress_ZEE	62	stimuli_distractor_trianglediamonds.svg	stimuli_target_rectanglediamonds.svg	10	yes	57	0	358	0	0			0	0			1				0	
6.6.1	win	2023-06-27	09:33:35	09:43:34	595190	62d59d0df8da03fdf7f8c317	3	1	main_z	11	main_z	63	stimuli_distractor_trianglediamonds.svg	stimuli_target_squarediamonds.svg	12	yes	44	1	1022	0	0			0	0			1				0	
6.6.1	win	2023-06-27	09:33:35	09:43:34	595190	62d59d0df8da03fdf7f8c317	3	1	main_z	11	advance_on_keypress_ZEE	64	stimuli_distractor_trianglediamonds.svg	stimuli_target_squarediamonds.svg	12	yes	57	0	349	0	0			0	0			1				0	
6.6.1	win	2023-06-27	09:33:35	09:43:37	598184	62d59d0df8da03fdf7f8c317	3	1	main_z	11	main_z	65	stimuli_distractor_trianglediamonds.svg	stimuli_distractor_diamondtriangles.svg	35	no	0	1	2000	0	0			0	0			1				0	
6.6.1	win	2023-06-27	09:33:35	09:43:37	598184	62d59d0df8da03fdf7f8c317	3	1	main_z	11	advance_on_keypress_ZEE	66	stimuli_distractor_trianglediamonds.svg	stimuli_distractor_diamondtriangles.svg	35	no	57	0	413	0	0			0	0			1				0	
6.6.1	win	2023-06-27	09:33:35	09:43:38	599631	62d59d0df8da03fdf7f8c317	3	1	main_z	11	main_z	67	stimuli_target_squarediamonds.svg	stimuli_distractor_trianglediamonds.svg	4	yes	44	1	379	0	0			0	0			1				0	
6.6.1	win	2023-06-27	09:33:35	09:43:38	599631	62d59d0df8da03fdf7f8c317	3	1	main_z	11	advance_on_keypress_ZEE	68	stimuli_target_squarediamonds.svg	stimuli_distractor_trianglediamonds.svg	4	yes	57	0	387	0	0			0	0			1				0	
6.6.1	win	2023-06-27	09:33:35	09:43:40	601190	62d59d0df8da03fdf7f8c317	3	1	main_z	11	main_z	69	stimuli_distractor_diamondtriangles.svg	stimuli_target_diamondsquares.svg	32	yes	44	1	522	0	0			0	0			1				0	
6.6.1	win	2023-06-27	09:33:35	09:43:40	601190	62d59d0df8da03fdf7f8c317	3	1	main_z	11	advance_on_keypress_ZEE	70	stimuli_distractor_diamondtriangles.svg	stimuli_target_diamondsquares.svg	32	yes	57	0	373	0	0			0	0			1				0	
6.6.1	win	2023-06-27	09:33:35	09:43:41	602550	62d59d0df8da03fdf7f8c317	3	1	main_z	11	main_z	71	stimuli_target_squaretriangles.svg	stimuli_distractor_diamondtriangles.svg	7	yes	44	1	349	0	0			0	0			1				0	
6.6.1	win	2023-06-27	09:33:35	09:43:41	602550	62d59d0df8da03fdf7f8c317	3	1	main_z	11	advance_on_keypress_ZEE	72	stimuli_target_squaretriangles.svg	stimuli_distractor_diamondtriangles.svg	7	yes	57	0	366	0	0			0	0			1				0	
6.6.1	win	2023-06-27	09:33:35	09:43:43	604278	62d59d0df8da03fdf7f8c317	3	1	main_z	11	main_z	73	stimuli_target_trianglerectangles.svg	stimuli_distractor_trianglediamonds.svg	17	yes	44	1	710	0	0			0	0			1				0	
6.6.1	win	2023-06-27	09:33:35	09:43:43	604278	62d59d0df8da03fdf7f8c317	3	1	main_z	11	advance_on_keypress_ZEE	74	stimuli_target_trianglerectangles.svg	stimuli_distractor_trianglediamonds.svg	17	yes	57	0	314	0	0			0	0			1				0	
6.6.1	win	2023-06-27	09:33:35	09:43:44	605542	62d59d0df8da03fdf7f8c317	3	1	main_z	11	main_z	75	stimuli_target_diamondrectangles.svg	stimuli_distractor_trianglediamonds.svg	19	yes	44	1	308	0	0			0	0			1				0	
6.6.1	win	2023-06-27	09:33:35	09:43:44	605542	62d59d0df8da03fdf7f8c317	3	1	main_z	11	advance_on_keypress_ZEE	76	stimuli_target_diamondrectangles.svg	stimuli_distractor_trianglediamonds.svg	19	yes	57	0	919	0	0			0	0			1				0	
6.6.1	win	2023-06-27	09:33:35	09:43:46	607534	62d59d0df8da03fdf7f8c317	3	1	main_z	11	main_z	77	stimuli_distractor_trianglediamonds.svg	stimuli_target_trianglesquares.svg	26	yes	44	1	433	0	0			0	0			1				0	
6.6.1	win	2023-06-27	09:33:35	09:43:46	607534	62d59d0df8da03fdf7f8c317	3	1	main_z	11	advance_on_keypress_ZEE	78	stimuli_distractor_trianglediamonds.svg	stimuli_target_trianglesquares.svg	26	yes	57	0	911	0	0			0	0			1				0	
6.6.1	win	2023-06-27	09:33:35	09:43:48	609430	62d59d0df8da03fdf7f8c317	3	1	main_z	11	main_z	79	stimuli_distractor_diamondtriangles.svg	stimuli_target_squaretriangles.svg	15	yes	44	1	329	0	0			0	0			1				0	
6.6.1	win	2023-06-27	09:33:35	09:43:48	609430	62d59d0df8da03fdf7f8c317	3	1	main_z	11	advance_on_keypress_ZEE	80	stimuli_distractor_diamondtriangles.svg	stimuli_target_squaretriangles.svg	15	yes	57	0	387	0	0			0	0			1				0	
6.6.1	win	2023-06-27	09:33:35	09:43:49	610848	62d59d0df8da03fdf7f8c317	3	1	main_z	11	main_z	81	stimuli_distractor_trianglediamonds.svg	stimuli_target_squarediamonds.svg	12	yes	44	1	371	0	0			0	0			1				0	
6.6.1	win	2023-06-27	09:33:35	09:43:49	610848	62d59d0df8da03fdf7f8c317	3	1	main_z	11	advance_on_keypress_ZEE	82	stimuli_distractor_trianglediamonds.svg	stimuli_target_squarediamonds.svg	12	yes	57	0	314	0	0			0	0			1				0	
6.6.1	win	2023-06-27	09:33:35	09:43:51	612302	62d59d0df8da03fdf7f8c317	3	1	main_z	11	main_z	83	stimuli_target_rectangletriangles.svg	stimuli_distractor_diamondtriangles.svg	5	yes	44	1	484	0	0			0	0			1				0	
6.6.1	win	2023-06-27	09:33:35	09:43:51	612302	62d59d0df8da03fdf7f8c317	3	1	main_z	11	advance_on_keypress_ZEE	84	stimuli_target_rectangletriangles.svg	stimuli_distractor_diamondtriangles.svg	5	yes	57	0	288	0	0			0	0			1				0	
6.6.1	win	2023-06-27	09:33:35	09:43:52	613790	62d59d0df8da03fdf7f8c317	3	1	main_z	11	main_z	85	stimuli_distractor_trianglediamonds.svg	stimuli_target_trianglesquares.svg	26	yes	44	1	556	0	0			0	0			1				0	
6.6.1	win	2023-06-27	09:33:35	09:43:52	613790	62d59d0df8da03fdf7f8c317	3	1	main_z	11	advance_on_keypress_ZEE	86	stimuli_distractor_trianglediamonds.svg	stimuli_target_trianglesquares.svg	26	yes	57	0	669	0	0			0	0			1				0	
6.6.1	win	2023-06-27	09:33:35	09:43:56	617101	62d59d0df8da03fdf7f8c317	3	1	main_z	11	main_z	87	stimuli_distractor_diamondtriangles.svg	stimuli_distractor_diamondtriangles.svg	40	no	0	1	2000	0	0			0	0			1				0	
6.6.1	win	2023-06-27	09:33:35	09:43:56	617101	62d59d0df8da03fdf7f8c317	3	1	main_z	11	advance_on_keypress_ZEE	88	stimuli_distractor_diamondtriangles.svg	stimuli_distractor_diamondtriangles.svg	40	no	57	0	496	0	0			0	0			1				0	
6.6.1	win	2023-06-27	09:33:35	09:43:57	618574	62d59d0df8da03fdf7f8c317	3	1	main_z	11	main_z	89	stimuli_distractor_diamondtriangles.svg	stimuli_distractor_diamondtriangles.svg	39	no	44	0	323	0	0			0	0			1				0	
6.6.1	win	2023-06-27	09:33:35	09:43:57	618574	62d59d0df8da03fdf7f8c317	3	1	main_z	11	advance_on_keypress_ZEE	90	stimuli_distractor_diamondtriangles.svg	stimuli_distractor_diamondtriangles.svg	39	no	57	0	598	0	0			0	0			1				0	
6.6.1	win	2023-06-27	09:33:35	09:43:59	620678	62d59d0df8da03fdf7f8c317	3	1	main_z	11	main_z	91	stimuli_target_diamondrectangles.svg	stimuli_distractor_diamondtriangles.svg	23	yes	44	1	860	0	0			0	0			1				0	
6.6.1	win	2023-06-27	09:33:35	09:43:59	620678	62d59d0df8da03fdf7f8c317	3	1	main_z	11	advance_on_keypress_ZEE	92	stimuli_target_diamondrectangles.svg	stimuli_distractor_diamondtriangles.svg	23	yes	57	0	402	0	0			0	0			1				0	
6.6.1	win	2023-06-27	09:33:35	09:44:02	623174	62d59d0df8da03fdf7f8c317	3	1	main_z	11	main_z	93	stimuli_target_trianglerectangles.svg	stimuli_distractor_diamondtriangles.svg	21	yes	44	1	1456	0	0			0	0			1				0	
6.6.1	win	2023-06-27	09:33:35	09:44:02	623174	62d59d0df8da03fdf7f8c317	3	1	main_z	11	advance_on_keypress_ZEE	94	stimuli_target_trianglerectangles.svg	stimuli_distractor_diamondtriangles.svg	21	yes	57	0	502	0	0			0	0			1				0	
6.6.1	win	2023-06-27	09:33:35	09:44:03	624774	62d59d0df8da03fdf7f8c317	3	1	main_z	11	main_z	95	stimuli_target_squaretriangles.svg	stimuli_distractor_trianglediamonds.svg	3	yes	44	1	457	0	0			0	0			1				0	
6.6.1	win	2023-06-27	09:33:35	09:44:03	624774	62d59d0df8da03fdf7f8c317	3	1	main_z	11	advance_on_keypress_ZEE	96	stimuli_target_squaretriangles.svg	stimuli_distractor_trianglediamonds.svg	3	yes	57	0	366	0	0			0	0			1				0	
6.6.1	win	2023-06-27	09:33:35	09:44:06	627784	62d59d0df8da03fdf7f8c317	3	1	main_z	11	main_z	97	stimuli_distractor_trianglediamonds.svg	stimuli_distractor_trianglediamonds.svg	34	no	0	1	2000	0	0			0	0			1				0	
6.6.1	win	2023-06-27	09:33:35	09:44:06	627784	62d59d0df8da03fdf7f8c317	3	1	main_z	11	advance_on_keypress_ZEE	98	stimuli_distractor_trianglediamonds.svg	stimuli_distractor_trianglediamonds.svg	34	no	57	0	325	0	0			0	0			1				0	
6.6.1	win	2023-06-27	09:33:35	09:44:08	629238	62d59d0df8da03fdf7f8c317	3	1	main_z	11	main_z	99	stimuli_distractor_trianglediamonds.svg	stimuli_target_trianglerectangles.svg	25	yes	44	1	487	0	0			0	0			1				0	
6.6.1	win	2023-06-27	09:33:35	09:44:08	629238	62d59d0df8da03fdf7f8c317	3	1	main_z	11	advance_on_keypress_ZEE	100	stimuli_distractor_trianglediamonds.svg	stimuli_target_trianglerectangles.svg	25	yes	57	0	363	0	0			0	0			1				0	
6.6.1	win	2023-06-27	09:33:35	09:44:09	630846	62d59d0df8da03fdf7f8c317	3	1	main_z	11	main_z	101	stimuli_distractor_trianglediamonds.svg	stimuli_target_diamondrectangles.svg	27	yes	44	1	595	0	0			0	0			1				0	
6.6.1	win	2023-06-27	09:33:35	09:44:09	630846	62d59d0df8da03fdf7f8c317	3	1	main_z	11	advance_on_keypress_ZEE	102	stimuli_distractor_trianglediamonds.svg	stimuli_target_diamondrectangles.svg	27	yes	57	0	378	0	0			0	0			1				0	
6.6.1	win	2023-06-27	09:33:35	09:44:11	632358	62d59d0df8da03fdf7f8c317	3	1	main_z	11	main_z	103	stimuli_target_trianglerectangles.svg	stimuli_distractor_trianglediamonds.svg	17	yes	44	1	474	0	0			0	0			1				0	
6.6.1	win	2023-06-27	09:33:35	09:44:11	632358	62d59d0df8da03fdf7f8c317	3	1	main_z	11	advance_on_keypress_ZEE	104	stimuli_target_trianglerectangles.svg	stimuli_distractor_trianglediamonds.svg	17	yes	57	0	590	0	0			0	0			1				0	
6.6.1	win	2023-06-27	09:33:35	09:44:14	635584	62d59d0df8da03fdf7f8c317	3	1	main_z	11	main_z	105	stimuli_distractor_diamondtriangles.svg	stimuli_distractor_trianglediamonds.svg	38	no	0	1	2000	0	0			0	0			1				0	
6.6.1	win	2023-06-27	09:33:35	09:44:14	635584	62d59d0df8da03fdf7f8c317	3	1	main_z	11	advance_on_keypress_ZEE	106	stimuli_distractor_diamondtriangles.svg	stimuli_distractor_trianglediamonds.svg	38	no	57	0	845	0	0			0	0			1				0	
6.6.1	win	2023-06-27	09:33:35	09:44:16	637486	62d59d0df8da03fdf7f8c317	3	1	main_z	11	main_z	107	stimuli_target_trianglesquares.svg	stimuli_distractor_diamondtriangles.svg	22	yes	44	1	402	0	0			0	0			1				0	
6.6.1	win	2023-06-27	09:33:35	09:44:16	637486	62d59d0df8da03fdf7f8c317	3	1	main_z	11	advance_on_keypress_ZEE	108	stimuli_target_trianglesquares.svg	stimuli_distractor_diamondtriangles.svg	22	yes	57	0	425	0	0			0	0			1				0	
6.6.1	win	2023-06-27	09:33:35	09:44:18	638910	62d59d0df8da03fdf7f8c317	3	1	main_z	11	main_z	109	stimuli_target_squaretriangles.svg	stimuli_distractor_diamondtriangles.svg	7	yes	44	1	359	0	0			0	0			1				0	
6.6.1	win	2023-06-27	09:33:35	09:44:18	638910	62d59d0df8da03fdf7f8c317	3	1	main_z	11	advance_on_keypress_ZEE	110	stimuli_target_squaretriangles.svg	stimuli_distractor_diamondtriangles.svg	7	yes	57	0	464	0	0			0	0			1				0	
6.6.1	win	2023-06-27	09:33:35	09:44:20	641038	62d59d0df8da03fdf7f8c317	3	1	main_z	11	main_z	111	stimuli_target_diamondrectangles.svg	stimuli_distractor_trianglediamonds.svg	19	yes	44	1	1020	0	0			0	0			1				0	
6.6.1	win	2023-06-27	09:33:35	09:44:20	641038	62d59d0df8da03fdf7f8c317	3	1	main_z	11	advance_on_keypress_ZEE	112	stimuli_target_diamondrectangles.svg	stimuli_distractor_trianglediamonds.svg	19	yes	57	0	387	0	0			0	0			1				0	
6.6.1	win	2023-06-27	09:33:35	09:44:23	644068	62d59d0df8da03fdf7f8c317	3	1	main_z	11	main_z	113	stimuli_distractor_diamondtriangles.svg	stimuli_distractor_trianglediamonds.svg	37	no	0	1	2000	0	0			0	0			1				0	
6.6.1	win	2023-06-27	09:33:35	09:44:23	644068	62d59d0df8da03fdf7f8c317	3	1	main_z	11	advance_on_keypress_ZEE	114	stimuli_distractor_diamondtriangles.svg	stimuli_distractor_trianglediamonds.svg	37	no	57	0	1674	0	0			0	0			1				0	
6.6.1	win	2023-06-27	09:33:35	09:44:27	648384	62d59d0df8da03fdf7f8c317	3	1	main_z	11	main_z	115	stimuli_distractor_trianglediamonds.svg	stimuli_distractor_diamondtriangles.svg	35	no	0	1	2000	0	0			0	0			1				0	
6.6.1	win	2023-06-27	09:33:35	09:44:27	648384	62d59d0df8da03fdf7f8c317	3	1	main_z	11	advance_on_keypress_ZEE	116	stimuli_distractor_trianglediamonds.svg	stimuli_distractor_diamondtriangles.svg	35	no	57	0	397	0	0			0	0			1				0	
6.6.1	win	2023-06-27	09:33:35	09:44:29	650030	62d59d0df8da03fdf7f8c317	3	1	main_z	11	main_z	117	stimuli_distractor_trianglediamonds.svg	stimuli_target_rectangletriangles.svg	9	yes	44	1	596	0	0			0	0			1				0	
6.6.1	win	2023-06-27	09:33:35	09:44:29	650030	62d59d0df8da03fdf7f8c317	3	1	main_z	11	advance_on_keypress_ZEE	118	stimuli_distractor_trianglediamonds.svg	stimuli_target_rectangletriangles.svg	9	yes	57	0	347	0	0			0	0			1				0	
6.6.1	win	2023-06-27	09:33:35	09:44:30	651552	62d59d0df8da03fdf7f8c317	3	1	main_z	11	main_z	119	stimuli_target_diamondsquares.svg	stimuli_distractor_diamondtriangles.svg	24	yes	44	1	516	0	0			0	0			1				0	
6.6.1	win	2023-06-27	09:33:35	09:44:30	651552	62d59d0df8da03fdf7f8c317	3	1	main_z	11	advance_on_keypress_ZEE	120	stimuli_target_diamondsquares.svg	stimuli_distractor_diamondtriangles.svg	24	yes	57	0	374	0	0			0	0			1				0	
6.6.1	win	2023-06-27	09:33:35	09:44:32	652966	62d59d0df8da03fdf7f8c317	3	1	main_z	11	main_z	121	stimuli_target_squarediamonds.svg	stimuli_distractor_diamondtriangles.svg	8	yes	44	1	398	0	0			0	0			1				0	
6.6.1	win	2023-06-27	09:33:35	09:44:32	652966	62d59d0df8da03fdf7f8c317	3	1	main_z	11	advance_on_keypress_ZEE	122	stimuli_target_squarediamonds.svg	stimuli_distractor_diamondtriangles.svg	8	yes	57	0	406	0	0			0	0			1				0	
6.6.1	win	2023-06-27	09:33:35	09:44:34	654974	62d59d0df8da03fdf7f8c317	3	1	main_z	11	main_z	123	stimuli_distractor_diamondtriangles.svg	stimuli_target_trianglerectangles.svg	29	yes	44	1	957	0	0			0	0			1				0	
6.6.1	win	2023-06-27	09:33:35	09:44:34	654974	62d59d0df8da03fdf7f8c317	3	1	main_z	11	advance_on_keypress_ZEE	124	stimuli_distractor_diamondtriangles.svg	stimuli_target_trianglerectangles.svg	29	yes	57	0	262	0	0			0	0			1				0	
6.6.1	win	2023-06-27	09:33:35	09:44:35	656477	62d59d0df8da03fdf7f8c317	3	1	main_z	11	main_z	125	stimuli_distractor_diamondtriangles.svg	stimuli_target_diamondsquares.svg	32	yes	44	1	594	0	0			0	0			1				0	
6.6.1	win	2023-06-27	09:33:35	09:44:35	656477	62d59d0df8da03fdf7f8c317	3	1	main_z	11	advance_on_keypress_ZEE	126	stimuli_distractor_diamondtriangles.svg	stimuli_target_diamondsquares.svg	32	yes	57	0	330	0	0			0	0			1				0	
6.6.1	win	2023-06-27	09:33:35	09:44:37	658422	62d59d0df8da03fdf7f8c317	3	1	main_z	11	main_z	127	stimuli_distractor_diamondtriangles.svg	stimuli_target_squaretriangles.svg	15	yes	44	1	971	0	0			0	0			1				0	
6.6.1	win	2023-06-27	09:33:35	09:44:37	658422	62d59d0df8da03fdf7f8c317	3	1	main_z	11	advance_on_keypress_ZEE	128	stimuli_distractor_diamondtriangles.svg	stimuli_target_squaretriangles.svg	15	yes	57	0	324	0	0			0	0			1				0	
6.6.1	win	2023-06-27	09:33:35	09:44:38	659878	62d59d0df8da03fdf7f8c317	3	1	main_z	11	main_z	129	stimuli_target_rectanglediamonds.svg	stimuli_distractor_diamondtriangles.svg	6	yes	44	1	494	0	0			0	0			1				0	
6.6.1	win	2023-06-27	09:33:35	09:44:38	659878	62d59d0df8da03fdf7f8c317	3	1	main_z	11	advance_on_keypress_ZEE	130	stimuli_target_rectanglediamonds.svg	stimuli_distractor_diamondtriangles.svg	6	yes	57	0	322	0	0			0	0			1				0	
6.6.1	win	2023-06-27	09:33:35	09:44:40	661414	62d59d0df8da03fdf7f8c317	3	1	main_z	11	main_z	131	stimuli_distractor_trianglediamonds.svg	stimuli_target_diamondsquares.svg	28	yes	44	1	580	0	0			0	0			1				0	
6.6.1	win	2023-06-27	09:33:35	09:44:40	661414	62d59d0df8da03fdf7f8c317	3	1	main_z	11	advance_on_keypress_ZEE	132	stimuli_distractor_trianglediamonds.svg	stimuli_target_diamondsquares.svg	28	yes	57	0	308	0	0			0	0			1				0	
6.6.1	win	2023-06-27	09:33:35	09:44:42	663006	62d59d0df8da03fdf7f8c317	3	1	main_z	11	main_z	133	stimuli_distractor_diamondtriangles.svg	stimuli_target_diamondrectangles.svg	31	yes	44	1	638	0	0			0	0			1				0	
6.6.1	win	2023-06-27	09:33:35	09:44:42	663006	62d59d0df8da03fdf7f8c317	3	1	main_z	11	advance_on_keypress_ZEE	134	stimuli_distractor_diamondtriangles.svg	stimuli_target_diamondrectangles.svg	31	yes	57	0	244	0	0			0	0			1				0	
6.6.1	win	2023-06-27	09:33:35	09:44:43	664365	62d59d0df8da03fdf7f8c317	3	1	main_z	11	main_z	135	stimuli_target_trianglesquares.svg	stimuli_distractor_trianglediamonds.svg	18	yes	44	1	465	0	0			0	0			1				0	
6.6.1	win	2023-06-27	09:33:35	09:44:43	664365	62d59d0df8da03fdf7f8c317	3	1	main_z	11	advance_on_keypress_ZEE	136	stimuli_target_trianglesquares.svg	stimuli_distractor_trianglediamonds.svg	18	yes	57	0	238	0	0			0	0			1				0	
6.6.1	win	2023-06-27	09:33:35	09:44:45	665973	62d59d0df8da03fdf7f8c317	3	1	main_z	11	main_z	137	stimuli_target_squarediamonds.svg	stimuli_distractor_trianglediamonds.svg	4	yes	44	1	723	0	0			0	0			1				0	
6.6.1	win	2023-06-27	09:33:35	09:44:45	665973	62d59d0df8da03fdf7f8c317	3	1	main_z	11	advance_on_keypress_ZEE	138	stimuli_target_squarediamonds.svg	stimuli_distractor_trianglediamonds.svg	4	yes	57	0	334	0	0			0	0			1				0	
6.6.1	win	2023-06-27	09:33:35	09:44:46	667573	62d59d0df8da03fdf7f8c317	3	1	main_z	11	main_z	139	stimuli_distractor_diamondtriangles.svg	stimuli_target_squarediamonds.svg	16	yes	44	1	623	0	0			0	0			1				0	
6.6.1	win	2023-06-27	09:33:35	09:44:46	667573	62d59d0df8da03fdf7f8c317	3	1	main_z	11	advance_on_keypress_ZEE	140	stimuli_distractor_diamondtriangles.svg	stimuli_target_squarediamonds.svg	16	yes	57	0	214	0	0			0	0			1				0	
6.6.1	win	2023-06-27	09:33:35	09:44:48	669334	62d59d0df8da03fdf7f8c317	3	1	main_z	11	main_z	141	stimuli_target_rectangletriangles.svg	stimuli_distractor_trianglediamonds.svg	1	yes	44	1	900	0	0			0	0			1				0	
6.6.1	win	2023-06-27	09:33:35	09:44:48	669334	62d59d0df8da03fdf7f8c317	3	1	main_z	11	advance_on_keypress_ZEE	142	stimuli_target_rectangletriangles.svg	stimuli_distractor_trianglediamonds.svg	1	yes	57	0	239	0	0			0	0			1				0	
6.6.1	win	2023-06-27	09:33:35	09:44:51	672217	62d59d0df8da03fdf7f8c317	3	1	main_z	11	main_z	143	stimuli_distractor_trianglediamonds.svg	stimuli_distractor_trianglediamonds.svg	33	no	0	1	2000	0	0			0	0			1				0	
6.6.1	win	2023-06-27	09:33:35	09:44:51	672217	62d59d0df8da03fdf7f8c317	3	1	main_z	11	advance_on_keypress_ZEE	144	stimuli_distractor_trianglediamonds.svg	stimuli_distractor_trianglediamonds.svg	33	no	57	0	324	0	0			0	0			1				0	
6.6.1	win	2023-06-27	09:33:35	09:44:52	673677	62d59d0df8da03fdf7f8c317	3	1	main_z	11	main_z	145	stimuli_distractor_trianglediamonds.svg	stimuli_target_rectanglediamonds.svg	10	yes	44	1	494	0	0			0	0			1				0	
6.6.1	win	2023-06-27	09:33:35	09:44:52	673677	62d59d0df8da03fdf7f8c317	3	1	main_z	11	advance_on_keypress_ZEE	146	stimuli_distractor_trianglediamonds.svg	stimuli_target_rectanglediamonds.svg	10	yes	57	0	298	0	0			0	0			1				0	
6.6.1	win	2023-06-27	09:33:35	09:44:54	675110	62d59d0df8da03fdf7f8c317	3	1	main_z	11	main_z	147	stimuli_distractor_trianglediamonds.svg	stimuli_target_squaretriangles.svg	11	yes	44	1	493	0	0			0	0			1				0	
6.6.1	win	2023-06-27	09:33:35	09:44:54	675110	62d59d0df8da03fdf7f8c317	3	1	main_z	11	advance_on_keypress_ZEE	148	stimuli_distractor_trianglediamonds.svg	stimuli_target_squaretriangles.svg	11	yes	57	0	496	0	0			0	0			1				0	
6.6.1	win	2023-06-27	09:33:35	09:44:55	676661	62d59d0df8da03fdf7f8c317	3	1	main_z	11	main_z	149	stimuli_distractor_trianglediamonds.svg	stimuli_distractor_diamondtriangles.svg	36	no	44	0	411	0	0			0	0			1				0	
6.6.1	win	2023-06-27	09:33:35	09:44:55	676661	62d59d0df8da03fdf7f8c317	3	1	main_z	11	advance_on_keypress_ZEE	150	stimuli_distractor_trianglediamonds.svg	stimuli_distractor_diamondtriangles.svg	36	no	57	0	659	0	0			0	0			1				0	
6.6.1	win	2023-06-27	09:33:35	09:44:57	678798	62d59d0df8da03fdf7f8c317	3	1	main_z	11	main_z	151	stimuli_target_diamondsquares.svg	stimuli_distractor_trianglediamonds.svg	20	yes	44	1	847	0	0			0	0			1				0	
6.6.1	win	2023-06-27	09:33:35	09:44:57	678798	62d59d0df8da03fdf7f8c317	3	1	main_z	11	advance_on_keypress_ZEE	152	stimuli_target_diamondsquares.svg	stimuli_distractor_trianglediamonds.svg	20	yes	57	0	412	0	0			0	0			1				0	
6.6.1	win	2023-06-27	09:33:35	09:44:59	680318	62d59d0df8da03fdf7f8c317	3	1	main_z	11	main_z	153	stimuli_distractor_diamondtriangles.svg	stimuli_target_trianglesquares.svg	30	yes	44	1	451	0	0			0	0			1				0	
6.6.1	win	2023-06-27	09:33:35	09:44:59	680318	62d59d0df8da03fdf7f8c317	3	1	main_z	11	advance_on_keypress_ZEE	154	stimuli_distractor_diamondtriangles.svg	stimuli_target_trianglesquares.svg	30	yes	57	0	296	0	0			0	0			1				0	
6.6.1	win	2023-06-27	09:33:35	09:45:00	681814	62d59d0df8da03fdf7f8c317	3	1	main_z	11	main_z	155	stimuli_distractor_diamondtriangles.svg	stimuli_target_rectanglediamonds.svg	14	yes	44	1	547	0	0			0	0			1				0	
6.6.1	win	2023-06-27	09:33:35	09:45:00	681814	62d59d0df8da03fdf7f8c317	3	1	main_z	11	advance_on_keypress_ZEE	156	stimuli_distractor_diamondtriangles.svg	stimuli_target_rectanglediamonds.svg	14	yes	57	0	228	0	0			0	0			1				0	
6.6.1	win	2023-06-27	09:33:35	09:45:02	683270	62d59d0df8da03fdf7f8c317	3	1	main_z	11	main_z	157	stimuli_distractor_diamondtriangles.svg	stimuli_target_rectangletriangles.svg	13	yes	44	1	586	0	0			0	0			1				0	
6.6.1	win	2023-06-27	09:33:35	09:45:02	683270	62d59d0df8da03fdf7f8c317	3	1	main_z	11	advance_on_keypress_ZEE	158	stimuli_distractor_diamondtriangles.svg	stimuli_target_rectangletriangles.svg	13	yes	57	0	138	0	0			0	0			1				0	
6.6.1	win	2023-06-27	09:33:35	09:45:03	684718	62d59d0df8da03fdf7f8c317	3	1	main_z	11	main_z	159	stimuli_target_rectanglediamonds.svg	stimuli_distractor_trianglediamonds.svg	2	yes	44	1	667	0	0			0	0			1				0	
6.6.1	win	2023-06-27	09:33:35	09:45:03	684718	62d59d0df8da03fdf7f8c317	3	1	main_z	11	advance_on_keypress_ZEE	160	stimuli_target_rectanglediamonds.svg	stimuli_distractor_trianglediamonds.svg	2	yes	57	0	96	0	0			0	0			1				0	
6.6.1	win	2023-06-27	09:33:35	09:45:03	684718	62d59d0df8da03fdf7f8c317	3	1	headphonecheck_calibration	14	headphonecheck_calibrationIntro	1	stimuli_target_rectanglediamonds.svg	stimuli_distractor_trianglediamonds.svg	2	yes	calibrationButton	0	3175	0	0			0	0			1				0	
6.6.1	win	2023-06-27	09:33:35	09:45:03	684718	62d59d0df8da03fdf7f8c317	3	1	headphonecheck_testphase	15	test_collectResponse	3	stimuli_target_rectanglediamonds.svg	stimuli_distractor_trianglediamonds.svg	2	yes	first	1	1693	1	4	antiphase_hc_sio.wav	1	0	0			1				0	
6.6.1	win	2023-06-27	09:33:35	09:45:03	684718	62d59d0df8da03fdf7f8c317	3	1	headphonecheck_testphase	15	test_collectResponse	6	stimuli_target_rectanglediamonds.svg	stimuli_distractor_trianglediamonds.svg	2	yes	first	0	3937	2	6	antiphase_hc_ois.wav	3	0	0			1				0	
6.6.1	win	2023-06-27	09:33:35	09:45:03	684718	62d59d0df8da03fdf7f8c317	3	1	headphonecheck_testphase	15	test_collectResponse	9	stimuli_target_rectanglediamonds.svg	stimuli_distractor_trianglediamonds.svg	2	yes	first	1	24449	3	3	antiphase_hc_soi.wav	1	0	0			1				0	
6.6.1	win	2023-06-27	09:33:35	09:45:03	684718	62d59d0df8da03fdf7f8c317	3	1	headphonecheck_testphase	15	test_collectResponse	12	stimuli_target_rectanglediamonds.svg	stimuli_distractor_trianglediamonds.svg	2	yes	third	0	703	4	1	antiphase_hc_iso.wav	2	0	0			1				0	
6.6.1	win	2023-06-27	09:33:35	09:45:03	684718	62d59d0df8da03fdf7f8c317	3	1	headphonecheck_testphase	15	test_collectResponse	15	stimuli_target_rectanglediamonds.svg	stimuli_distractor_trianglediamonds.svg	2	yes	second	1	394	5	5	antiphase_hc_osi.wav	2	0	0			1				0	
6.6.1	win	2023-06-27	09:33:35	09:45:03	684718	62d59d0df8da03fdf7f8c317	3	1	headphonecheck_testphase	15	test_collectResponse	18	stimuli_target_rectanglediamonds.svg	stimuli_distractor_trianglediamonds.svg	2	yes	second	0	468	6	2	antiphase_hc_ios.wav	3	0	0			1				0	
6.6.1	win	2023-06-27	09:33:35	09:45:03	684718	62d59d0df8da03fdf7f8c317	3	1	stereocheck_calibration	17	stereocheck_calibrationIntro	1	stimuli_target_rectanglediamonds.svg	stimuli_distractor_trianglediamonds.svg	2	yes	stereocheck_calibrationButton	0	2494	6	2	antiphase_hc_ios.wav	3	0	0			1				0	
6.6.1	win	2023-06-27	09:33:35	09:45:03	684718	62d59d0df8da03fdf7f8c317	3	1	stereocheck_testphase	18	stereocheck_test_collectResponse	3	stimuli_target_rectanglediamonds.svg	stimuli_distractor_trianglediamonds.svg	2	yes	stereocheck_left	0	1433	6	2	antiphase_hc_ios.wav	3	1	6	noise_calib_stim_RIGHT.wav	2	1				0	
6.6.1	win	2023-06-27	09:33:35	09:45:03	684718	62d59d0df8da03fdf7f8c317	3	1	stereocheck_testphase	18	stereocheck_test_collectResponse	6	stimuli_target_rectanglediamonds.svg	stimuli_distractor_trianglediamonds.svg	2	yes	stereocheck_right	0	198	6	2	antiphase_hc_ios.wav	3	2	3	noise_calib_stim_LEFT.wav	1	1				0	
6.6.1	win	2023-06-27	09:33:35	09:45:03	684718	62d59d0df8da03fdf7f8c317	3	1	stereocheck_testphase	18	stereocheck_test_collectResponse	9	stimuli_target_rectanglediamonds.svg	stimuli_distractor_trianglediamonds.svg	2	yes	stereocheck_left	0	388	6	2	antiphase_hc_ios.wav	3	3	5	noise_calib_stim_RIGHT.wav	2	1				0	
6.6.1	win	2023-06-27	09:33:35	09:45:03	684718	62d59d0df8da03fdf7f8c317	3	1	stereocheck_testphase	18	stereocheck_test_collectResponse	12	stimuli_target_rectanglediamonds.svg	stimuli_distractor_trianglediamonds.svg	2	yes	stereocheck_right	0	221	6	2	antiphase_hc_ios.wav	3	4	1	noise_calib_stim_LEFT.wav	1	1				0	
6.6.1	win	2023-06-27	09:33:35	09:45:03	684718	62d59d0df8da03fdf7f8c317	3	1	stereocheck_testphase	18	stereocheck_test_collectResponse	15	stimuli_target_rectanglediamonds.svg	stimuli_distractor_trianglediamonds.svg	2	yes	stereocheck_right	0	82	6	2	antiphase_hc_ios.wav	3	5	2	noise_calib_stim_LEFT.wav	1	1				0	
6.6.1	win	2023-06-27	09:33:35	09:45:03	684718	62d59d0df8da03fdf7f8c317	3	1	stereocheck_testphase	18	stereocheck_test_collectResponse	18	stimuli_target_rectanglediamonds.svg	stimuli_distractor_trianglediamonds.svg	2	yes	stereocheck_left	0	239	6	2	antiphase_hc_ios.wav	3	6	4	noise_calib_stim_RIGHT.wav	2	1				0	
6.6.1	win	2023-06-27	09:33:35	09:45:03	684718	62d59d0df8da03fdf7f8c317	3	1	DL_practice	21	DL_practice	2	stimuli_target_rectanglediamonds.svg	stimuli_distractor_trianglediamonds.svg	2	yes	ba	1	1738	6	2	antiphase_hc_ios.wav	3	6	4	noise_calib_stim_RIGHT.wav	2	7	blb_dichoticlistening_da-ba.mp3	da	ba	1	right
6.6.1	win	2023-06-27	09:33:35	09:45:03	684718	62d59d0df8da03fdf7f8c317	3	1	DL_practice	21	DL_practice	3	stimuli_target_rectanglediamonds.svg	stimuli_distractor_trianglediamonds.svg	2	yes	ta	1	1499	6	2	antiphase_hc_ios.wav	3	6	4	noise_calib_stim_RIGHT.wav	2	36	blb_dichoticlistening_ta-ta.mp3	ta	ta	0	left
6.6.1	win	2023-06-27	09:33:35	09:45:03	684718	62d59d0df8da03fdf7f8c317	3	1	DL_practice	21	DL_practice	4	stimuli_target_rectanglediamonds.svg	stimuli_distractor_trianglediamonds.svg	2	yes	ba	1	1094	6	2	antiphase_hc_ios.wav	3	6	4	noise_calib_stim_RIGHT.wav	2	1	blb_dichoticlistening_ba-ba.mp3	ba	ba	0	left
6.6.1	win	2023-06-27	09:33:35	09:45:03	684718	62d59d0df8da03fdf7f8c317	3	1	DL_practice	21	DL_practice	5	stimuli_target_rectanglediamonds.svg	stimuli_distractor_trianglediamonds.svg	2	yes	pa	1	1337	6	2	antiphase_hc_ios.wav	3	6	4	noise_calib_stim_RIGHT.wav	2	29	blb_dichoticlistening_pa-pa.mp3	pa	pa	0	left
6.6.1	win	2023-06-27	09:33:35	09:45:03	684718	62d59d0df8da03fdf7f8c317	3	1	DL_practice	21	DL_practice	6	stimuli_target_rectanglediamonds.svg	stimuli_distractor_trianglediamonds.svg	2	yes	ka	1	1463	6	2	antiphase_hc_ios.wav	3	6	4	noise_calib_stim_RIGHT.wav	2	23	blb_dichoticlistening_ka-pa.mp3	ka	pa	1	left
6.6.1	win	2023-06-27	09:33:35	09:45:03	684718	62d59d0df8da03fdf7f8c317	3	1	DL_practice	21	DL_practice	7	stimuli_target_rectanglediamonds.svg	stimuli_distractor_trianglediamonds.svg	2	yes	ga	1	539	6	2	antiphase_hc_ios.wav	3	6	4	noise_calib_stim_RIGHT.wav	2	15	blb_dichoticlistening_ga-ga.mp3	ga	ga	0	left
6.6.1	win	2023-06-27	09:33:35	09:45:03	684718	62d59d0df8da03fdf7f8c317	3	1	DL_practice	21	DL_practice	8	stimuli_target_rectanglediamonds.svg	stimuli_distractor_trianglediamonds.svg	2	yes	ga	1	1172	6	2	antiphase_hc_ios.wav	3	6	4	noise_calib_stim_RIGHT.wav	2	18	blb_dichoticlistening_ga-ta.mp3	ga	ta	1	left
6.6.1	win	2023-06-27	09:33:35	09:45:03	684718	62d59d0df8da03fdf7f8c317	3	1	DL_practice	21	DL_practice	9	stimuli_target_rectanglediamonds.svg	stimuli_distractor_trianglediamonds.svg	2	yes	ka	1	990	6	2	antiphase_hc_ios.wav	3	6	4	noise_calib_stim_RIGHT.wav	2	22	blb_dichoticlistening_ka-ka.mp3	ka	ka	0	left
6.6.1	win	2023-06-27	09:33:35	09:45:03	684718	62d59d0df8da03fdf7f8c317	3	1	DL_practice	21	DL_practice	10	stimuli_target_rectanglediamonds.svg	stimuli_distractor_trianglediamonds.svg	2	yes	da	1	996	6	2	antiphase_hc_ios.wav	3	6	4	noise_calib_stim_RIGHT.wav	2	8	blb_dichoticlistening_da-da.mp3	da	da	0	left
6.6.1	win	2023-06-27	09:33:35	09:45:03	684718	62d59d0df8da03fdf7f8c317	3	1	DL_test	23	DL_test	1	stimuli_target_rectanglediamonds.svg	stimuli_distractor_trianglediamonds.svg	2	yes	ba	1	922	6	2	antiphase_hc_ios.wav	3	6	4	noise_calib_stim_RIGHT.wav	2	5	blb_dichoticlistening_ba-pa.mp3	ba	pa	1	left
6.6.1	win	2023-06-27	09:33:35	09:45:03	684718	62d59d0df8da03fdf7f8c317	3	1	DL_test	23	DL_test	2	stimuli_target_rectanglediamonds.svg	stimuli_distractor_trianglediamonds.svg	2	yes	ba	1	834	6	2	antiphase_hc_ios.wav	3	6	4	noise_calib_stim_RIGHT.wav	2	31	blb_dichoticlistening_ta-ba.mp3	ta	ba	1	right
6.6.1	win	2023-06-27	09:33:35	09:45:03	684718	62d59d0df8da03fdf7f8c317	3	1	DL_test	23	DL_test	3	stimuli_target_rectanglediamonds.svg	stimuli_distractor_trianglediamonds.svg	2	yes	ba	1	775	6	2	antiphase_hc_ios.wav	3	6	4	noise_calib_stim_RIGHT.wav	2	1	blb_dichoticlistening_ba-ba.mp3	ba	ba	0	left
6.6.1	win	2023-06-27	09:33:35	09:45:03	684718	62d59d0df8da03fdf7f8c317	3	1	DL_test	23	DL_test	4	stimuli_target_rectanglediamonds.svg	stimuli_distractor_trianglediamonds.svg	2	yes	ga	0	902	6	2	antiphase_hc_ios.wav	3	6	4	noise_calib_stim_RIGHT.wav	2	10	blb_dichoticlistening_da-ka.mp3	da	ka	1	other
6.6.1	win	2023-06-27	09:33:35	09:45:03	684718	62d59d0df8da03fdf7f8c317	3	1	DL_test	23	DL_test	5	stimuli_target_rectanglediamonds.svg	stimuli_distractor_trianglediamonds.svg	2	yes	ka	1	702	6	2	antiphase_hc_ios.wav	3	6	4	noise_calib_stim_RIGHT.wav	2	24	blb_dichoticlistening_ka-ta.mp3	ka	ta	1	left
6.6.1	win	2023-06-27	09:33:35	09:45:03	684718	62d59d0df8da03fdf7f8c317	3	1	DL_test	23	DL_test	6	stimuli_target_rectanglediamonds.svg	stimuli_distractor_trianglediamonds.svg	2	yes	ta	1	985	6	2	antiphase_hc_ios.wav	3	6	4	noise_calib_stim_RIGHT.wav	2	35	blb_dichoticlistening_ta-pa.mp3	ta	pa	1	left
6.6.1	win	2023-06-27	09:33:35	09:45:03	684718	62d59d0df8da03fdf7f8c317	3	1	DL_test	23	DL_test	7	stimuli_target_rectanglediamonds.svg	stimuli_distractor_trianglediamonds.svg	2	yes	da	1	902	6	2	antiphase_hc_ios.wav	3	6	4	noise_calib_stim_RIGHT.wav	2	26	blb_dichoticlistening_pa-da.mp3	pa	da	1	right
6.6.1	win	2023-06-27	09:33:35	09:45:03	684718	62d59d0df8da03fdf7f8c317	3	1	DL_test	23	DL_test	8	stimuli_target_rectanglediamonds.svg	stimuli_distractor_trianglediamonds.svg	2	yes	ga	1	582	6	2	antiphase_hc_ios.wav	3	6	4	noise_calib_stim_RIGHT.wav	2	9	blb_dichoticlistening_da-ga.mp3	da	ga	1	right
6.6.1	win	2023-06-27	09:33:35	09:45:03	684718	62d59d0df8da03fdf7f8c317	3	1	DL_test	23	DL_test	9	stimuli_target_rectanglediamonds.svg	stimuli_distractor_trianglediamonds.svg	2	yes	ga	1	838	6	2	antiphase_hc_ios.wav	3	6	4	noise_calib_stim_RIGHT.wav	2	27	blb_dichoticlistening_pa-ga.mp3	pa	ga	1	right
6.6.1	win	2023-06-27	09:33:35	09:45:03	684718	62d59d0df8da03fdf7f8c317	3	1	DL_test	23	DL_test	10	stimuli_target_rectanglediamonds.svg	stimuli_distractor_trianglediamonds.svg	2	yes	da	0	967	6	2	antiphase_hc_ios.wav	3	6	4	noise_calib_stim_RIGHT.wav	2	19	blb_dichoticlistening_ka-ba.mp3	ka	ba	1	other
6.6.1	win	2023-06-27	09:33:35	09:45:03	684718	62d59d0df8da03fdf7f8c317	3	1	DL_test	23	DL_test	11	stimuli_target_rectanglediamonds.svg	stimuli_distractor_trianglediamonds.svg	2	yes	ba	1	935	6	2	antiphase_hc_ios.wav	3	6	4	noise_calib_stim_RIGHT.wav	2	13	blb_dichoticlistening_ga-ba.mp3	ga	ba	1	right
6.6.1	win	2023-06-27	09:33:35	09:45:03	684718	62d59d0df8da03fdf7f8c317	3	1	DL_test	23	DL_test	12	stimuli_target_rectanglediamonds.svg	stimuli_distractor_trianglediamonds.svg	2	yes	ga	1	1113	6	2	antiphase_hc_ios.wav	3	6	4	noise_calib_stim_RIGHT.wav	2	18	blb_dichoticlistening_ga-ta.mp3	ga	ta	1	left
6.6.1	win	2023-06-27	09:33:35	09:45:03	684718	62d59d0df8da03fdf7f8c317	3	1	DL_test	23	DL_test	13	stimuli_target_rectanglediamonds.svg	stimuli_distractor_trianglediamonds.svg	2	yes	ba	1	807	6	2	antiphase_hc_ios.wav	3	6	4	noise_calib_stim_RIGHT.wav	2	25	blb_dichoticlistening_pa-ba.mp3	pa	ba	1	right
6.6.1	win	2023-06-27	09:33:35	09:45:03	684718	62d59d0df8da03fdf7f8c317	3	1	DL_test	23	DL_test	14	stimuli_target_rectanglediamonds.svg	stimuli_distractor_trianglediamonds.svg	2	yes	ga	1	869	6	2	antiphase_hc_ios.wav	3	6	4	noise_calib_stim_RIGHT.wav	2	33	blb_dichoticlistening_ta-ga.mp3	ta	ga	1	right
6.6.1	win	2023-06-27	09:33:35	09:45:03	684718	62d59d0df8da03fdf7f8c317	3	1	DL_test	23	DL_test	15	stimuli_target_rectanglediamonds.svg	stimuli_distractor_trianglediamonds.svg	2	yes	ka	1	1000	6	2	antiphase_hc_ios.wav	3	6	4	noise_calib_stim_RIGHT.wav	2	22	blb_dichoticlistening_ka-ka.mp3	ka	ka	0	left
6.6.1	win	2023-06-27	09:33:35	09:45:03	684718	62d59d0df8da03fdf7f8c317	3	1	DL_test	23	DL_test	16	stimuli_target_rectanglediamonds.svg	stimuli_distractor_trianglediamonds.svg	2	yes	ga	1	1052	6	2	antiphase_hc_ios.wav	3	6	4	noise_calib_stim_RIGHT.wav	2	21	blb_dichoticlistening_ka-ga.mp3	ka	ga	1	right
6.6.1	win	2023-06-27	09:33:35	09:45:03	684718	62d59d0df8da03fdf7f8c317	3	1	DL_test	23	DL_test	17	stimuli_target_rectanglediamonds.svg	stimuli_distractor_trianglediamonds.svg	2	yes	ga	1	680	6	2	antiphase_hc_ios.wav	3	6	4	noise_calib_stim_RIGHT.wav	2	17	blb_dichoticlistening_ga-pa.mp3	ga	pa	1	left
6.6.1	win	2023-06-27	09:33:35	09:45:03	684718	62d59d0df8da03fdf7f8c317	3	1	DL_test	23	DL_test	18	stimuli_target_rectanglediamonds.svg	stimuli_distractor_trianglediamonds.svg	2	yes	ga	1	1082	6	2	antiphase_hc_ios.wav	3	6	4	noise_calib_stim_RIGHT.wav	2	14	blb_dichoticlistening_ga-da.mp3	ga	da	1	left
6.6.1	win	2023-06-27	09:33:35	09:45:03	684718	62d59d0df8da03fdf7f8c317	3	1	DL_test	23	DL_test	19	stimuli_target_rectanglediamonds.svg	stimuli_distractor_trianglediamonds.svg	2	yes	ba	1	1429	6	2	antiphase_hc_ios.wav	3	6	4	noise_calib_stim_RIGHT.wav	2	2	blb_dichoticlistening_ba-da.mp3	ba	da	1	left
6.6.1	win	2023-06-27	09:33:35	09:45:03	684718	62d59d0df8da03fdf7f8c317	3	1	DL_test	23	DL_test	20	stimuli_target_rectanglediamonds.svg	stimuli_distractor_trianglediamonds.svg	2	yes	ga	1	1215	6	2	antiphase_hc_ios.wav	3	6	4	noise_calib_stim_RIGHT.wav	2	16	blb_dichoticlistening_ga-ka.mp3	ga	ka	1	left
6.6.1	win	2023-06-27	09:33:35	09:45:03	684718	62d59d0df8da03fdf7f8c317	3	1	DL_test	23	DL_test	21	stimuli_target_rectanglediamonds.svg	stimuli_distractor_trianglediamonds.svg	2	yes	ba	1	1571	6	2	antiphase_hc_ios.wav	3	6	4	noise_calib_stim_RIGHT.wav	2	3	blb_dichoticlistening_ba-ga.mp3	ba	ga	1	left
6.6.1	win	2023-06-27	09:33:35	09:45:03	684718	62d59d0df8da03fdf7f8c317	3	1	DL_test	23	DL_test	22	stimuli_target_rectanglediamonds.svg	stimuli_distractor_trianglediamonds.svg	2	yes	ka	1	1297	6	2	antiphase_hc_ios.wav	3	6	4	noise_calib_stim_RIGHT.wav	2	4	blb_dichoticlistening_ba-ka.mp3	ba	ka	1	right
6.6.1	win	2023-06-27	09:33:35	09:45:03	684718	62d59d0df8da03fdf7f8c317	3	1	DL_test	23	DL_test	23	stimuli_target_rectanglediamonds.svg	stimuli_distractor_trianglediamonds.svg	2	yes	ba	1	1179	6	2	antiphase_hc_ios.wav	3	6	4	noise_calib_stim_RIGHT.wav	2	7	blb_dichoticlistening_da-ba.mp3	da	ba	1	right
6.6.1	win	2023-06-27	09:33:35	09:45:03	684718	62d59d0df8da03fdf7f8c317	3	1	DL_test	23	DL_test	24	stimuli_target_rectanglediamonds.svg	stimuli_distractor_trianglediamonds.svg	2	yes	ta	1	1133	6	2	antiphase_hc_ios.wav	3	6	4	noise_calib_stim_RIGHT.wav	2	12	blb_dichoticlistening_da-ta.mp3	da	ta	1	right
6.6.1	win	2023-06-27	09:33:35	09:45:03	684718	62d59d0df8da03fdf7f8c317	3	1	DL_test	23	DL_test	25	stimuli_target_rectanglediamonds.svg	stimuli_distractor_trianglediamonds.svg	2	yes	ka	1	1193	6	2	antiphase_hc_ios.wav	3	6	4	noise_calib_stim_RIGHT.wav	2	34	blb_dichoticlistening_ta-ka.mp3	ta	ka	1	right
6.6.1	win	2023-06-27	09:33:35	09:45:03	684718	62d59d0df8da03fdf7f8c317	3	1	DL_test	23	DL_test	26	stimuli_target_rectanglediamonds.svg	stimuli_distractor_trianglediamonds.svg	2	yes	pa	1	951	6	2	antiphase_hc_ios.wav	3	6	4	noise_calib_stim_RIGHT.wav	2	29	blb_dichoticlistening_pa-pa.mp3	pa	pa	0	left
