build	computer.platform	date	time	timestamp	time_elapsed_ms	subject	group	session	blockcode	blocknum	trialcode	trialnum	stimulus_left	stimulus_right	stim_index	target_present	response	correct	latency	headphonecheck_countTestTrials	headphonecheck_index	headphonecheck_testSound	headphonecheck_correctResponse	stereocheck_countTestTrials	stereocheck_index	stereocheck_testSound	stereocheck_correctResponse	DL_index	DL_soundfile	DL_leftSound	DL_rightSound	DL_dualSound	DL_choice
6.6.1	win	2023-06-02	02:13:47	02:15:56	126280	5dbbfa90c486791b1bd03292	3	1	practice_slash	5	practice_slash	1	stimuli_distractor_trianglediamonds.svg	stimuli_distractor_diamondtriangles.svg	16	no	53	0	1690	0	0			0	0			1				0	
6.6.1	win	2023-06-02	02:13:47	02:15:56	126280	5dbbfa90c486791b1bd03292	3	1	practice_slash	5	advance_on_keypress_SLASH	2	stimuli_distractor_trianglediamonds.svg	stimuli_distractor_diamondtriangles.svg	16	no	57	0	1465	0	0			0	0			1				0	
6.6.1	win	2023-06-02	02:13:47	02:16:01	130760	5dbbfa90c486791b1bd03292	3	1	practice_slash	5	practice_slash	3	stimuli_distractor_trianglediamonds.svg	stimuli_distractor_trianglediamonds.svg	15	no	53	0	1312	0	0			0	0			1				0	
6.6.1	win	2023-06-02	02:13:47	02:16:01	130760	5dbbfa90c486791b1bd03292	3	1	practice_slash	5	advance_on_keypress_SLASH	4	stimuli_distractor_trianglediamonds.svg	stimuli_distractor_trianglediamonds.svg	15	no	57	0	4346	0	0			0	0			1				0	
6.6.1	win	2023-06-02	02:13:47	02:16:09	138798	5dbbfa90c486791b1bd03292	3	1	practice_slash	5	practice_slash	5	stimuli_distractor_diamondtriangles.svg	stimuli_distractor_trianglediamonds.svg	14	no	0	1	2000	0	0			0	0			1				0	
6.6.1	win	2023-06-02	02:13:47	02:16:09	138798	5dbbfa90c486791b1bd03292	3	1	practice_slash	5	advance_on_keypress_SLASH	6	stimuli_distractor_diamondtriangles.svg	stimuli_distractor_trianglediamonds.svg	14	no	57	0	482	0	0			0	0			1				0	
6.6.1	win	2023-06-02	02:13:47	02:16:12	141730	5dbbfa90c486791b1bd03292	3	1	practice_slash	5	practice_slash	7	stimuli_target_diamondsquares.svg	stimuli_distractor_diamondtriangles.svg	3	yes	53	1	747	0	0			0	0			1				0	
6.6.1	win	2023-06-02	02:13:47	02:16:12	141730	5dbbfa90c486791b1bd03292	3	1	practice_slash	5	advance_on_keypress_SLASH	8	stimuli_target_diamondsquares.svg	stimuli_distractor_diamondtriangles.svg	3	yes	57	0	1465	0	0			0	0			1				0	
6.6.1	win	2023-06-02	02:13:47	02:16:16	145807	5dbbfa90c486791b1bd03292	3	1	practice_slash	5	practice_slash	9	stimuli_distractor_diamondtriangles.svg	stimuli_distractor_diamondtriangles.svg	13	no	53	0	988	0	0			0	0			1				0	
6.6.1	win	2023-06-02	02:13:47	02:16:16	145807	5dbbfa90c486791b1bd03292	3	1	practice_slash	5	advance_on_keypress_SLASH	10	stimuli_distractor_diamondtriangles.svg	stimuli_distractor_diamondtriangles.svg	13	no	57	0	374	0	0			0	0			1				0	
6.6.1	win	2023-06-02	02:13:47	02:16:19	149213	5dbbfa90c486791b1bd03292	3	1	practice_slash	5	practice_slash	11	stimuli_distractor_trianglediamonds.svg	stimuli_target_rectanglediamonds.svg	10	yes	53	1	1326	0	0			0	0			1				0	
6.6.1	win	2023-06-02	02:13:47	02:16:19	149213	5dbbfa90c486791b1bd03292	3	1	practice_slash	5	advance_on_keypress_SLASH	12	stimuli_distractor_trianglediamonds.svg	stimuli_target_rectanglediamonds.svg	10	yes	57	0	280	0	0			0	0			1				0	
6.6.1	win	2023-06-02	02:13:47	02:16:22	152229	5dbbfa90c486791b1bd03292	3	1	practice_slash	5	practice_slash	13	stimuli_target_diamondsquares.svg	stimuli_distractor_trianglediamonds.svg	6	yes	53	1	1041	0	0			0	0			1				0	
6.6.1	win	2023-06-02	02:13:47	02:16:22	152229	5dbbfa90c486791b1bd03292	3	1	practice_slash	5	advance_on_keypress_SLASH	14	stimuli_target_diamondsquares.svg	stimuli_distractor_trianglediamonds.svg	6	yes	57	0	191	0	0			0	0			1				0	
6.6.1	win	2023-06-02	02:13:47	02:16:25	154994	5dbbfa90c486791b1bd03292	3	1	practice_slash	5	practice_slash	15	stimuli_target_rectanglediamonds.svg	stimuli_distractor_diamondtriangles.svg	1	yes	53	1	873	0	0			0	0			1				0	
6.6.1	win	2023-06-02	02:13:47	02:16:25	154994	5dbbfa90c486791b1bd03292	3	1	practice_slash	5	advance_on_keypress_SLASH	16	stimuli_target_rectanglediamonds.svg	stimuli_distractor_diamondtriangles.svg	1	yes	57	0	346	0	0			0	0			1				0	
6.6.1	win	2023-06-02	02:13:47	02:16:28	157861	5dbbfa90c486791b1bd03292	3	1	practice_slash	5	practice_slash	17	stimuli_distractor_diamondtriangles.svg	stimuli_target_diamondrectangles.svg	8	yes	53	1	821	0	0			0	0			1				0	
6.6.1	win	2023-06-02	02:13:47	02:16:28	157861	5dbbfa90c486791b1bd03292	3	1	practice_slash	5	advance_on_keypress_SLASH	18	stimuli_distractor_diamondtriangles.svg	stimuli_target_diamondrectangles.svg	8	yes	57	0	222	0	0			0	0			1				0	
6.6.1	win	2023-06-02	02:13:47	02:16:30	160606	5dbbfa90c486791b1bd03292	3	1	practice_slash	5	practice_slash	19	stimuli_target_squarediamonds.svg	stimuli_distractor_diamondtriangles.svg	2	yes	53	1	833	0	0			0	0			1				0	
6.6.1	win	2023-06-02	02:13:47	02:16:30	160606	5dbbfa90c486791b1bd03292	3	1	practice_slash	5	advance_on_keypress_SLASH	20	stimuli_target_squarediamonds.svg	stimuli_distractor_diamondtriangles.svg	2	yes	57	0	320	0	0			0	0			1				0	
6.6.1	win	2023-06-02	02:13:47	02:16:33	163350	5dbbfa90c486791b1bd03292	3	1	practice_slash	5	practice_slash	21	stimuli_distractor_trianglediamonds.svg	stimuli_target_squarediamonds.svg	11	yes	53	1	725	0	0			0	0			1				0	
6.6.1	win	2023-06-02	02:13:47	02:16:33	163350	5dbbfa90c486791b1bd03292	3	1	practice_slash	5	advance_on_keypress_SLASH	22	stimuli_distractor_trianglediamonds.svg	stimuli_target_squarediamonds.svg	11	yes	57	0	228	0	0			0	0			1				0	
6.6.1	win	2023-06-02	02:13:47	02:16:36	165991	5dbbfa90c486791b1bd03292	3	1	practice_slash	5	practice_slash	23	stimuli_distractor_diamondtriangles.svg	stimuli_target_trianglerectangles.svg	9	yes	53	1	716	0	0			0	0			1				0	
6.6.1	win	2023-06-02	02:13:47	02:16:36	165991	5dbbfa90c486791b1bd03292	3	1	practice_slash	5	advance_on_keypress_SLASH	24	stimuli_distractor_diamondtriangles.svg	stimuli_target_trianglerectangles.svg	9	yes	57	0	198	0	0			0	0			1				0	
6.6.1	win	2023-06-02	02:13:47	02:16:39	168717	5dbbfa90c486791b1bd03292	3	1	practice_slash	5	practice_slash	25	stimuli_target_rectanglediamonds.svg	stimuli_distractor_trianglediamonds.svg	4	yes	53	1	825	0	0			0	0			1				0	
6.6.1	win	2023-06-02	02:13:47	02:16:39	168717	5dbbfa90c486791b1bd03292	3	1	practice_slash	5	advance_on_keypress_SLASH	26	stimuli_target_rectanglediamonds.svg	stimuli_distractor_trianglediamonds.svg	4	yes	57	0	176	0	0			0	0			1				0	
6.6.1	win	2023-06-02	02:13:47	02:16:41	171350	5dbbfa90c486791b1bd03292	3	1	practice_slash	5	practice_slash	27	stimuli_distractor_diamondtriangles.svg	stimuli_target_rectangletriangles.svg	7	yes	53	1	689	0	0			0	0			1				0	
6.6.1	win	2023-06-02	02:13:47	02:16:41	171350	5dbbfa90c486791b1bd03292	3	1	practice_slash	5	advance_on_keypress_SLASH	28	stimuli_distractor_diamondtriangles.svg	stimuli_target_rectangletriangles.svg	7	yes	57	0	372	0	0			0	0			1				0	
6.6.1	win	2023-06-02	02:13:47	02:16:44	174105	5dbbfa90c486791b1bd03292	3	1	practice_slash	5	practice_slash	29	stimuli_target_squarediamonds.svg	stimuli_distractor_trianglediamonds.svg	5	yes	53	1	678	0	0			0	0			1				0	
6.6.1	win	2023-06-02	02:13:47	02:16:44	174105	5dbbfa90c486791b1bd03292	3	1	practice_slash	5	advance_on_keypress_SLASH	30	stimuli_target_squarediamonds.svg	stimuli_distractor_trianglediamonds.svg	5	yes	57	0	511	0	0			0	0			1				0	
6.6.1	win	2023-06-02	02:13:47	02:16:47	177126	5dbbfa90c486791b1bd03292	3	1	practice_slash	5	practice_slash	31	stimuli_distractor_trianglediamonds.svg	stimuli_target_diamondrectangles.svg	12	yes	53	1	815	0	0			0	0			1				0	
6.6.1	win	2023-06-02	02:13:47	02:16:47	177126	5dbbfa90c486791b1bd03292	3	1	practice_slash	5	advance_on_keypress_SLASH	32	stimuli_distractor_trianglediamonds.svg	stimuli_target_diamondrectangles.svg	12	yes	57	0	265	0	0			0	0			1				0	
6.6.1	win	2023-06-02	02:13:47	02:16:56	185894	5dbbfa90c486791b1bd03292	3	1	main_slash	7	main_slash	1	stimuli_target_trianglesquares.svg	stimuli_distractor_diamondtriangles.svg	22	yes	53	1	1180	0	0			0	0			1				0	
6.6.1	win	2023-06-02	02:13:47	02:16:56	185894	5dbbfa90c486791b1bd03292	3	1	main_slash	7	advance_on_keypress_SLASH	2	stimuli_target_trianglesquares.svg	stimuli_distractor_diamondtriangles.svg	22	yes	57	0	1047	0	0			0	0			1				0	
6.6.1	win	2023-06-02	02:13:47	02:16:58	188394	5dbbfa90c486791b1bd03292	3	1	main_slash	7	main_slash	3	stimuli_target_squarediamonds.svg	stimuli_distractor_diamondtriangles.svg	8	yes	53	1	829	0	0			0	0			1				0	
6.6.1	win	2023-06-02	02:13:47	02:16:58	188394	5dbbfa90c486791b1bd03292	3	1	main_slash	7	advance_on_keypress_SLASH	4	stimuli_target_squarediamonds.svg	stimuli_distractor_diamondtriangles.svg	8	yes	57	0	669	0	0			0	0			1				0	
6.6.1	win	2023-06-02	02:13:47	02:17:01	190688	5dbbfa90c486791b1bd03292	3	1	main_slash	7	main_slash	5	stimuli_target_squarediamonds.svg	stimuli_distractor_trianglediamonds.svg	4	yes	53	1	1003	0	0			0	0			1				0	
6.6.1	win	2023-06-02	02:13:47	02:17:01	190688	5dbbfa90c486791b1bd03292	3	1	main_slash	7	advance_on_keypress_SLASH	6	stimuli_target_squarediamonds.svg	stimuli_distractor_trianglediamonds.svg	4	yes	57	0	2522	0	0			0	0			1				0	
6.6.1	win	2023-06-02	02:13:47	02:17:04	194628	5dbbfa90c486791b1bd03292	3	1	main_slash	7	main_slash	7	stimuli_distractor_diamondtriangles.svg	stimuli_target_diamondsquares.svg	32	yes	53	1	795	0	0			0	0			1				0	
6.6.1	win	2023-06-02	02:13:47	02:17:04	194628	5dbbfa90c486791b1bd03292	3	1	main_slash	7	advance_on_keypress_SLASH	8	stimuli_distractor_diamondtriangles.svg	stimuli_target_diamondsquares.svg	32	yes	57	0	651	0	0			0	0			1				0	
6.6.1	win	2023-06-02	02:13:47	02:17:07	196792	5dbbfa90c486791b1bd03292	3	1	main_slash	7	main_slash	9	stimuli_target_diamondsquares.svg	stimuli_distractor_diamondtriangles.svg	24	yes	53	1	891	0	0			0	0			1				0	
6.6.1	win	2023-06-02	02:13:47	02:17:07	196792	5dbbfa90c486791b1bd03292	3	1	main_slash	7	advance_on_keypress_SLASH	10	stimuli_target_diamondsquares.svg	stimuli_distractor_diamondtriangles.svg	24	yes	57	0	538	0	0			0	0			1				0	
6.6.1	win	2023-06-02	02:13:47	02:17:10	199953	5dbbfa90c486791b1bd03292	3	1	main_slash	7	main_slash	11	stimuli_target_rectangletriangles.svg	stimuli_distractor_trianglediamonds.svg	1	yes	0	0	2000	0	0			0	0			1				0	
6.6.1	win	2023-06-02	02:13:47	02:17:10	199953	5dbbfa90c486791b1bd03292	3	1	main_slash	7	advance_on_keypress_SLASH	12	stimuli_target_rectangletriangles.svg	stimuli_distractor_trianglediamonds.svg	1	yes	57	0	478	0	0			0	0			1				0	
6.6.1	win	2023-06-02	02:13:47	02:17:12	201906	5dbbfa90c486791b1bd03292	3	1	main_slash	7	main_slash	13	stimuli_distractor_diamondtriangles.svg	stimuli_target_trianglesquares.svg	30	yes	53	1	852	0	0			0	0			1				0	
6.6.1	win	2023-06-02	02:13:47	02:17:12	201906	5dbbfa90c486791b1bd03292	3	1	main_slash	7	advance_on_keypress_SLASH	14	stimuli_distractor_diamondtriangles.svg	stimuli_target_trianglesquares.svg	30	yes	57	0	799	0	0			0	0			1				0	
6.6.1	win	2023-06-02	02:13:47	02:17:14	204236	5dbbfa90c486791b1bd03292	3	1	main_slash	7	main_slash	15	stimuli_distractor_trianglediamonds.svg	stimuli_target_rectangletriangles.svg	9	yes	53	1	907	0	0			0	0			1				0	
6.6.1	win	2023-06-02	02:13:47	02:17:14	204236	5dbbfa90c486791b1bd03292	3	1	main_slash	7	advance_on_keypress_SLASH	16	stimuli_distractor_trianglediamonds.svg	stimuli_target_rectangletriangles.svg	9	yes	57	0	605	0	0			0	0			1				0	
6.6.1	win	2023-06-02	02:13:47	02:17:17	207464	5dbbfa90c486791b1bd03292	3	1	main_slash	7	main_slash	17	stimuli_target_trianglerectangles.svg	stimuli_distractor_diamondtriangles.svg	21	yes	0	0	2000	0	0			0	0			1				0	
6.6.1	win	2023-06-02	02:13:47	02:17:17	207464	5dbbfa90c486791b1bd03292	3	1	main_slash	7	advance_on_keypress_SLASH	18	stimuli_target_trianglerectangles.svg	stimuli_distractor_diamondtriangles.svg	21	yes	57	0	397	0	0			0	0			1				0	
6.6.1	win	2023-06-02	02:13:47	02:17:20	209794	5dbbfa90c486791b1bd03292	3	1	main_slash	7	main_slash	19	stimuli_distractor_diamondtriangles.svg	stimuli_target_trianglerectangles.svg	29	yes	53	1	1311	0	0			0	0			1				0	
6.6.1	win	2023-06-02	02:13:47	02:17:20	209794	5dbbfa90c486791b1bd03292	3	1	main_slash	7	advance_on_keypress_SLASH	20	stimuli_distractor_diamondtriangles.svg	stimuli_target_trianglerectangles.svg	29	yes	57	0	619	0	0			0	0			1				0	
6.6.1	win	2023-06-02	02:13:47	02:17:22	212363	5dbbfa90c486791b1bd03292	3	1	main_slash	7	main_slash	21	stimuli_distractor_trianglediamonds.svg	stimuli_target_squarediamonds.svg	12	yes	53	1	1328	0	0			0	0			1				0	
6.6.1	win	2023-06-02	02:13:47	02:17:22	212363	5dbbfa90c486791b1bd03292	3	1	main_slash	7	advance_on_keypress_SLASH	22	stimuli_distractor_trianglediamonds.svg	stimuli_target_squarediamonds.svg	12	yes	57	0	608	0	0			0	0			1				0	
6.6.1	win	2023-06-02	02:13:47	02:17:25	215594	5dbbfa90c486791b1bd03292	3	1	main_slash	7	main_slash	23	stimuli_distractor_diamondtriangles.svg	stimuli_distractor_diamondtriangles.svg	39	no	0	1	2000	0	0			0	0			1				0	
6.6.1	win	2023-06-02	02:13:47	02:17:25	215594	5dbbfa90c486791b1bd03292	3	1	main_slash	7	advance_on_keypress_SLASH	24	stimuli_distractor_diamondtriangles.svg	stimuli_distractor_diamondtriangles.svg	39	no	57	0	509	0	0			0	0			1				0	
6.6.1	win	2023-06-02	02:13:47	02:17:28	217993	5dbbfa90c486791b1bd03292	3	1	main_slash	7	main_slash	25	stimuli_target_rectanglediamonds.svg	stimuli_distractor_trianglediamonds.svg	2	yes	53	1	1266	0	0			0	0			1				0	
6.6.1	win	2023-06-02	02:13:47	02:17:28	217993	5dbbfa90c486791b1bd03292	3	1	main_slash	7	advance_on_keypress_SLASH	26	stimuli_target_rectanglediamonds.svg	stimuli_distractor_trianglediamonds.svg	2	yes	57	0	713	0	0			0	0			1				0	
6.6.1	win	2023-06-02	02:13:47	02:17:31	220920	5dbbfa90c486791b1bd03292	3	1	main_slash	7	main_slash	27	stimuli_distractor_trianglediamonds.svg	stimuli_target_trianglerectangles.svg	25	yes	53	1	1591	0	0			0	0			1				0	
6.6.1	win	2023-06-02	02:13:47	02:17:31	220920	5dbbfa90c486791b1bd03292	3	1	main_slash	7	advance_on_keypress_SLASH	28	stimuli_distractor_trianglediamonds.svg	stimuli_target_trianglerectangles.svg	25	yes	57	0	430	0	0			0	0			1				0	
6.6.1	win	2023-06-02	02:13:47	02:17:33	222901	5dbbfa90c486791b1bd03292	3	1	main_slash	7	main_slash	29	stimuli_distractor_trianglediamonds.svg	stimuli_target_rectanglediamonds.svg	10	yes	53	1	929	0	0			0	0			1				0	
6.6.1	win	2023-06-02	02:13:47	02:17:33	222901	5dbbfa90c486791b1bd03292	3	1	main_slash	7	advance_on_keypress_SLASH	30	stimuli_distractor_trianglediamonds.svg	stimuli_target_rectanglediamonds.svg	10	yes	57	0	592	0	0			0	0			1				0	
6.6.1	win	2023-06-02	02:13:47	02:17:35	225295	5dbbfa90c486791b1bd03292	3	1	main_slash	7	main_slash	31	stimuli_target_diamondrectangles.svg	stimuli_distractor_trianglediamonds.svg	19	yes	53	1	1179	0	0			0	0			1				0	
6.6.1	win	2023-06-02	02:13:47	02:17:35	225295	5dbbfa90c486791b1bd03292	3	1	main_slash	7	advance_on_keypress_SLASH	32	stimuli_target_diamondrectangles.svg	stimuli_distractor_trianglediamonds.svg	19	yes	57	0	885	0	0			0	0			1				0	
6.6.1	win	2023-06-02	02:13:47	02:17:39	228802	5dbbfa90c486791b1bd03292	3	1	main_slash	7	main_slash	33	stimuli_distractor_diamondtriangles.svg	stimuli_distractor_diamondtriangles.svg	40	no	0	1	2000	0	0			0	0			1				0	
6.6.1	win	2023-06-02	02:13:47	02:17:39	228802	5dbbfa90c486791b1bd03292	3	1	main_slash	7	advance_on_keypress_SLASH	34	stimuli_distractor_diamondtriangles.svg	stimuli_distractor_diamondtriangles.svg	40	no	57	0	369	0	0			0	0			1				0	
6.6.1	win	2023-06-02	02:13:47	02:17:41	231025	5dbbfa90c486791b1bd03292	3	1	main_slash	7	main_slash	35	stimuli_distractor_diamondtriangles.svg	stimuli_target_rectanglediamonds.svg	14	yes	53	1	1230	0	0			0	0			1				0	
6.6.1	win	2023-06-02	02:13:47	02:17:41	231025	5dbbfa90c486791b1bd03292	3	1	main_slash	7	advance_on_keypress_SLASH	36	stimuli_distractor_diamondtriangles.svg	stimuli_target_rectanglediamonds.svg	14	yes	57	0	1622	0	0			0	0			1				0	
6.6.1	win	2023-06-02	02:13:47	02:17:44	234627	5dbbfa90c486791b1bd03292	3	1	main_slash	7	main_slash	37	stimuli_distractor_trianglediamonds.svg	stimuli_target_squaretriangles.svg	11	yes	53	1	1280	0	0			0	0			1				0	
6.6.1	win	2023-06-02	02:13:47	02:17:44	234627	5dbbfa90c486791b1bd03292	3	1	main_slash	7	advance_on_keypress_SLASH	38	stimuli_distractor_trianglediamonds.svg	stimuli_target_squaretriangles.svg	11	yes	57	0	559	0	0			0	0			1				0	
6.6.1	win	2023-06-02	02:13:47	02:17:48	237808	5dbbfa90c486791b1bd03292	3	1	main_slash	7	main_slash	39	stimuli_distractor_trianglediamonds.svg	stimuli_distractor_trianglediamonds.svg	33	no	0	1	2000	0	0			0	0			1				0	
6.6.1	win	2023-06-02	02:13:47	02:17:48	237808	5dbbfa90c486791b1bd03292	3	1	main_slash	7	advance_on_keypress_SLASH	40	stimuli_distractor_trianglediamonds.svg	stimuli_distractor_trianglediamonds.svg	33	no	57	0	272	0	0			0	0			1				0	
6.6.1	win	2023-06-02	02:13:47	02:17:51	240703	5dbbfa90c486791b1bd03292	3	1	main_slash	7	main_slash	41	stimuli_distractor_trianglediamonds.svg	stimuli_distractor_trianglediamonds.svg	34	no	0	1	2000	0	0			0	0			1				0	
6.6.1	win	2023-06-02	02:13:47	02:17:51	240703	5dbbfa90c486791b1bd03292	3	1	main_slash	7	advance_on_keypress_SLASH	42	stimuli_distractor_trianglediamonds.svg	stimuli_distractor_trianglediamonds.svg	34	no	57	0	352	0	0			0	0			1				0	
6.6.1	win	2023-06-02	02:13:47	02:17:54	243678	5dbbfa90c486791b1bd03292	3	1	main_slash	7	main_slash	43	stimuli_distractor_diamondtriangles.svg	stimuli_distractor_trianglediamonds.svg	38	no	0	1	2000	0	0			0	0			1				0	
6.6.1	win	2023-06-02	02:13:47	02:17:54	243678	5dbbfa90c486791b1bd03292	3	1	main_slash	7	advance_on_keypress_SLASH	44	stimuli_distractor_diamondtriangles.svg	stimuli_distractor_trianglediamonds.svg	38	no	57	0	805	0	0			0	0			1				0	
6.6.1	win	2023-06-02	02:13:47	02:17:56	246368	5dbbfa90c486791b1bd03292	3	1	main_slash	7	main_slash	45	stimuli_distractor_diamondtriangles.svg	stimuli_target_rectangletriangles.svg	13	yes	53	1	1262	0	0			0	0			1				0	
6.6.1	win	2023-06-02	02:13:47	02:17:56	246368	5dbbfa90c486791b1bd03292	3	1	main_slash	7	advance_on_keypress_SLASH	46	stimuli_distractor_diamondtriangles.svg	stimuli_target_rectangletriangles.svg	13	yes	57	0	611	0	0			0	0			1				0	
6.6.1	win	2023-06-02	02:13:47	02:17:59	249124	5dbbfa90c486791b1bd03292	3	1	main_slash	7	main_slash	47	stimuli_target_diamondrectangles.svg	stimuli_distractor_diamondtriangles.svg	23	yes	53	1	1522	0	0			0	0			1				0	
6.6.1	win	2023-06-02	02:13:47	02:17:59	249124	5dbbfa90c486791b1bd03292	3	1	main_slash	7	advance_on_keypress_SLASH	48	stimuli_target_diamondrectangles.svg	stimuli_distractor_diamondtriangles.svg	23	yes	57	0	1389	0	0			0	0			1				0	
6.6.1	win	2023-06-02	02:13:47	02:18:02	252308	5dbbfa90c486791b1bd03292	3	1	main_slash	7	main_slash	49	stimuli_target_squaretriangles.svg	stimuli_distractor_diamondtriangles.svg	7	yes	53	1	1173	0	0			0	0			1				0	
6.6.1	win	2023-06-02	02:13:47	02:18:02	252308	5dbbfa90c486791b1bd03292	3	1	main_slash	7	advance_on_keypress_SLASH	50	stimuli_target_squaretriangles.svg	stimuli_distractor_diamondtriangles.svg	7	yes	57	0	411	0	0			0	0			1				0	
6.6.1	win	2023-06-02	02:13:47	02:18:04	254178	5dbbfa90c486791b1bd03292	3	1	main_slash	7	main_slash	51	stimuli_distractor_trianglediamonds.svg	stimuli_distractor_diamondtriangles.svg	36	no	53	0	836	0	0			0	0			1				0	
6.6.1	win	2023-06-02	02:13:47	02:18:04	254178	5dbbfa90c486791b1bd03292	3	1	main_slash	7	advance_on_keypress_SLASH	52	stimuli_distractor_trianglediamonds.svg	stimuli_distractor_diamondtriangles.svg	36	no	57	0	490	0	0			0	0			1				0	
6.6.1	win	2023-06-02	02:13:47	02:18:07	257292	5dbbfa90c486791b1bd03292	3	1	main_slash	7	main_slash	53	stimuli_distractor_diamondtriangles.svg	stimuli_distractor_trianglediamonds.svg	37	no	0	1	2000	0	0			0	0			1				0	
6.6.1	win	2023-06-02	02:13:47	02:18:07	257292	5dbbfa90c486791b1bd03292	3	1	main_slash	7	advance_on_keypress_SLASH	54	stimuli_distractor_diamondtriangles.svg	stimuli_distractor_trianglediamonds.svg	37	no	57	0	300	0	0			0	0			1				0	
6.6.1	win	2023-06-02	02:13:47	02:18:09	258956	5dbbfa90c486791b1bd03292	3	1	main_slash	7	main_slash	55	stimuli_target_rectanglediamonds.svg	stimuli_distractor_diamondtriangles.svg	6	yes	53	1	742	0	0			0	0			1				0	
6.6.1	win	2023-06-02	02:13:47	02:18:09	258956	5dbbfa90c486791b1bd03292	3	1	main_slash	7	advance_on_keypress_SLASH	56	stimuli_target_rectanglediamonds.svg	stimuli_distractor_diamondtriangles.svg	6	yes	57	0	460	0	0			0	0			1				0	
6.6.1	win	2023-06-02	02:13:47	02:18:11	260925	5dbbfa90c486791b1bd03292	3	1	main_slash	7	main_slash	57	stimuli_distractor_trianglediamonds.svg	stimuli_distractor_diamondtriangles.svg	35	no	53	0	886	0	0			0	0			1				0	
6.6.1	win	2023-06-02	02:13:47	02:18:11	260925	5dbbfa90c486791b1bd03292	3	1	main_slash	7	advance_on_keypress_SLASH	58	stimuli_distractor_trianglediamonds.svg	stimuli_distractor_diamondtriangles.svg	35	no	57	0	374	0	0			0	0			1				0	
6.6.1	win	2023-06-02	02:13:47	02:18:13	262809	5dbbfa90c486791b1bd03292	3	1	main_slash	7	main_slash	59	stimuli_distractor_trianglediamonds.svg	stimuli_target_diamondsquares.svg	28	yes	53	1	887	0	0			0	0			1				0	
6.6.1	win	2023-06-02	02:13:47	02:18:13	262809	5dbbfa90c486791b1bd03292	3	1	main_slash	7	advance_on_keypress_SLASH	60	stimuli_distractor_trianglediamonds.svg	stimuli_target_diamondsquares.svg	28	yes	57	0	319	0	0			0	0			1				0	
6.6.1	win	2023-06-02	02:13:47	02:18:14	264597	5dbbfa90c486791b1bd03292	3	1	main_slash	7	main_slash	61	stimuli_target_diamondsquares.svg	stimuli_distractor_trianglediamonds.svg	20	yes	53	1	846	0	0			0	0			1				0	
6.6.1	win	2023-06-02	02:13:47	02:18:14	264597	5dbbfa90c486791b1bd03292	3	1	main_slash	7	advance_on_keypress_SLASH	62	stimuli_target_diamondsquares.svg	stimuli_distractor_trianglediamonds.svg	20	yes	57	0	295	0	0			0	0			1				0	
6.6.1	win	2023-06-02	02:13:47	02:18:16	266423	5dbbfa90c486791b1bd03292	3	1	main_slash	7	main_slash	63	stimuli_distractor_diamondtriangles.svg	stimuli_target_squaretriangles.svg	15	yes	53	1	909	0	0			0	0			1				0	
6.6.1	win	2023-06-02	02:13:47	02:18:16	266423	5dbbfa90c486791b1bd03292	3	1	main_slash	7	advance_on_keypress_SLASH	64	stimuli_distractor_diamondtriangles.svg	stimuli_target_squaretriangles.svg	15	yes	57	0	299	0	0			0	0			1				0	
6.6.1	win	2023-06-02	02:13:47	02:18:18	268295	5dbbfa90c486791b1bd03292	3	1	main_slash	7	main_slash	65	stimuli_target_trianglerectangles.svg	stimuli_distractor_trianglediamonds.svg	17	yes	53	1	951	0	0			0	0			1				0	
6.6.1	win	2023-06-02	02:13:47	02:18:18	268295	5dbbfa90c486791b1bd03292	3	1	main_slash	7	advance_on_keypress_SLASH	66	stimuli_target_trianglerectangles.svg	stimuli_distractor_trianglediamonds.svg	17	yes	57	0	245	0	0			0	0			1				0	
6.6.1	win	2023-06-02	02:13:47	02:18:20	270005	5dbbfa90c486791b1bd03292	3	1	main_slash	7	main_slash	67	stimuli_distractor_diamondtriangles.svg	stimuli_target_diamondrectangles.svg	31	yes	53	1	842	0	0			0	0			1				0	
6.6.1	win	2023-06-02	02:13:47	02:18:20	270005	5dbbfa90c486791b1bd03292	3	1	main_slash	7	advance_on_keypress_SLASH	68	stimuli_distractor_diamondtriangles.svg	stimuli_target_diamondrectangles.svg	31	yes	57	0	282	0	0			0	0			1				0	
6.6.1	win	2023-06-02	02:13:47	02:18:22	271735	5dbbfa90c486791b1bd03292	3	1	main_slash	7	main_slash	69	stimuli_distractor_diamondtriangles.svg	stimuli_target_squarediamonds.svg	16	yes	53	1	826	0	0			0	0			1				0	
6.6.1	win	2023-06-02	02:13:47	02:18:22	271735	5dbbfa90c486791b1bd03292	3	1	main_slash	7	advance_on_keypress_SLASH	70	stimuli_distractor_diamondtriangles.svg	stimuli_target_squarediamonds.svg	16	yes	57	0	315	0	0			0	0			1				0	
6.6.1	win	2023-06-02	02:13:47	02:18:23	273458	5dbbfa90c486791b1bd03292	3	1	main_slash	7	main_slash	71	stimuli_target_rectangletriangles.svg	stimuli_distractor_diamondtriangles.svg	5	yes	53	1	786	0	0			0	0			1				0	
6.6.1	win	2023-06-02	02:13:47	02:18:23	273458	5dbbfa90c486791b1bd03292	3	1	main_slash	7	advance_on_keypress_SLASH	72	stimuli_target_rectangletriangles.svg	stimuli_distractor_diamondtriangles.svg	5	yes	57	0	291	0	0			0	0			1				0	
6.6.1	win	2023-06-02	02:13:47	02:18:25	275047	5dbbfa90c486791b1bd03292	3	1	main_slash	7	main_slash	73	stimuli_distractor_trianglediamonds.svg	stimuli_target_trianglesquares.svg	26	yes	53	1	677	0	0			0	0			1				0	
6.6.1	win	2023-06-02	02:13:47	02:18:25	275047	5dbbfa90c486791b1bd03292	3	1	main_slash	7	advance_on_keypress_SLASH	74	stimuli_distractor_trianglediamonds.svg	stimuli_target_trianglesquares.svg	26	yes	57	0	307	0	0			0	0			1				0	
6.6.1	win	2023-06-02	02:13:47	02:18:27	276767	5dbbfa90c486791b1bd03292	3	1	main_slash	7	main_slash	75	stimuli_target_trianglesquares.svg	stimuli_distractor_trianglediamonds.svg	18	yes	53	1	790	0	0			0	0			1				0	
6.6.1	win	2023-06-02	02:13:47	02:18:27	276767	5dbbfa90c486791b1bd03292	3	1	main_slash	7	advance_on_keypress_SLASH	76	stimuli_target_trianglesquares.svg	stimuli_distractor_trianglediamonds.svg	18	yes	57	0	353	0	0			0	0			1				0	
6.6.1	win	2023-06-02	02:13:47	02:18:30	279743	5dbbfa90c486791b1bd03292	3	1	main_slash	7	main_slash	77	stimuli_target_squaretriangles.svg	stimuli_distractor_trianglediamonds.svg	3	yes	0	0	2000	0	0			0	0			1				0	
6.6.1	win	2023-06-02	02:13:47	02:18:30	279743	5dbbfa90c486791b1bd03292	3	1	main_slash	7	advance_on_keypress_SLASH	78	stimuli_target_squaretriangles.svg	stimuli_distractor_trianglediamonds.svg	3	yes	57	0	373	0	0			0	0			1				0	
6.6.1	win	2023-06-02	02:13:47	02:18:31	281523	5dbbfa90c486791b1bd03292	3	1	main_slash	7	main_slash	79	stimuli_distractor_trianglediamonds.svg	stimuli_target_diamondrectangles.svg	27	yes	53	1	784	0	0			0	0			1				0	
6.6.1	win	2023-06-02	02:13:47	02:18:31	281523	5dbbfa90c486791b1bd03292	3	1	main_slash	7	advance_on_keypress_SLASH	80	stimuli_distractor_trianglediamonds.svg	stimuli_target_diamondrectangles.svg	27	yes	57	0	383	0	0			0	0			1				0	
6.6.1	win	2023-06-02	02:13:47	02:18:33	283399	5dbbfa90c486791b1bd03292	3	1	main_slash	7	main_slash	81	stimuli_distractor_trianglediamonds.svg	stimuli_target_rectanglediamonds.svg	10	yes	53	1	870	0	0			0	0			1				0	
6.6.1	win	2023-06-02	02:13:47	02:18:33	283399	5dbbfa90c486791b1bd03292	3	1	main_slash	7	advance_on_keypress_SLASH	82	stimuli_distractor_trianglediamonds.svg	stimuli_target_rectanglediamonds.svg	10	yes	57	0	310	0	0			0	0			1				0	
6.6.1	win	2023-06-02	02:13:47	02:18:36	286331	5dbbfa90c486791b1bd03292	3	1	main_slash	7	main_slash	83	stimuli_distractor_diamondtriangles.svg	stimuli_distractor_diamondtriangles.svg	40	no	0	1	2000	0	0			0	0			1				0	
6.6.1	win	2023-06-02	02:13:47	02:18:36	286331	5dbbfa90c486791b1bd03292	3	1	main_slash	7	advance_on_keypress_SLASH	84	stimuli_distractor_diamondtriangles.svg	stimuli_distractor_diamondtriangles.svg	40	no	57	0	3	0	0			0	0			1				0	
6.6.1	win	2023-06-02	02:13:47	02:18:38	288069	5dbbfa90c486791b1bd03292	3	1	main_slash	7	main_slash	85	stimuli_distractor_diamondtriangles.svg	stimuli_target_squaretriangles.svg	15	yes	53	1	1088	0	0			0	0			1				0	
6.6.1	win	2023-06-02	02:13:47	02:18:38	288069	5dbbfa90c486791b1bd03292	3	1	main_slash	7	advance_on_keypress_SLASH	86	stimuli_distractor_diamondtriangles.svg	stimuli_target_squaretriangles.svg	15	yes	57	0	717	0	0			0	0			1				0	
6.6.1	win	2023-06-02	02:13:47	02:18:40	290446	5dbbfa90c486791b1bd03292	3	1	main_slash	7	main_slash	87	stimuli_distractor_trianglediamonds.svg	stimuli_target_squarediamonds.svg	12	yes	53	1	1038	0	0			0	0			1				0	
6.6.1	win	2023-06-02	02:13:47	02:18:40	290446	5dbbfa90c486791b1bd03292	3	1	main_slash	7	advance_on_keypress_SLASH	88	stimuli_distractor_trianglediamonds.svg	stimuli_target_squarediamonds.svg	12	yes	57	0	441	0	0			0	0			1				0	
6.6.1	win	2023-06-02	02:13:47	02:18:42	292408	5dbbfa90c486791b1bd03292	3	1	main_slash	7	main_slash	89	stimuli_target_squarediamonds.svg	stimuli_distractor_diamondtriangles.svg	8	yes	53	1	898	0	0			0	0			1				0	
6.6.1	win	2023-06-02	02:13:47	02:18:42	292408	5dbbfa90c486791b1bd03292	3	1	main_slash	7	advance_on_keypress_SLASH	90	stimuli_target_squarediamonds.svg	stimuli_distractor_diamondtriangles.svg	8	yes	57	0	238	0	0			0	0			1				0	
6.6.1	win	2023-06-02	02:13:47	02:18:44	293994	5dbbfa90c486791b1bd03292	3	1	main_slash	7	main_slash	91	stimuli_target_rectanglediamonds.svg	stimuli_distractor_trianglediamonds.svg	2	yes	53	1	726	0	0			0	0			1				0	
6.6.1	win	2023-06-02	02:13:47	02:18:44	293994	5dbbfa90c486791b1bd03292	3	1	main_slash	7	advance_on_keypress_SLASH	92	stimuli_target_rectanglediamonds.svg	stimuli_distractor_trianglediamonds.svg	2	yes	57	0	256	0	0			0	0			1				0	
6.6.1	win	2023-06-02	02:13:47	02:18:46	295773	5dbbfa90c486791b1bd03292	3	1	main_slash	7	main_slash	93	stimuli_target_diamondsquares.svg	stimuli_distractor_diamondtriangles.svg	24	yes	53	1	900	0	0			0	0			1				0	
6.6.1	win	2023-06-02	02:13:47	02:18:46	295773	5dbbfa90c486791b1bd03292	3	1	main_slash	7	advance_on_keypress_SLASH	94	stimuli_target_diamondsquares.svg	stimuli_distractor_diamondtriangles.svg	24	yes	57	0	766	0	0			0	0			1				0	
6.6.1	win	2023-06-02	02:13:47	02:18:49	299161	5dbbfa90c486791b1bd03292	3	1	main_slash	7	main_slash	95	stimuli_distractor_diamondtriangles.svg	stimuli_distractor_trianglediamonds.svg	38	no	0	1	2000	0	0			0	0			1				0	
6.6.1	win	2023-06-02	02:13:47	02:18:49	299161	5dbbfa90c486791b1bd03292	3	1	main_slash	7	advance_on_keypress_SLASH	96	stimuli_distractor_diamondtriangles.svg	stimuli_distractor_trianglediamonds.svg	38	no	57	0	463	0	0			0	0			1				0	
6.6.1	win	2023-06-02	02:13:47	02:18:51	300680	5dbbfa90c486791b1bd03292	3	1	main_slash	7	main_slash	97	stimuli_target_trianglesquares.svg	stimuli_distractor_trianglediamonds.svg	18	yes	53	1	433	0	0			0	0			1				0	
6.6.1	win	2023-06-02	02:13:47	02:18:51	300680	5dbbfa90c486791b1bd03292	3	1	main_slash	7	advance_on_keypress_SLASH	98	stimuli_target_trianglesquares.svg	stimuli_distractor_trianglediamonds.svg	18	yes	57	0	427	0	0			0	0			1				0	
6.6.1	win	2023-06-02	02:13:47	02:18:52	302410	5dbbfa90c486791b1bd03292	3	1	main_slash	7	main_slash	99	stimuli_distractor_diamondtriangles.svg	stimuli_target_rectanglediamonds.svg	14	yes	53	1	680	0	0			0	0			1				0	
6.6.1	win	2023-06-02	02:13:47	02:18:52	302410	5dbbfa90c486791b1bd03292	3	1	main_slash	7	advance_on_keypress_SLASH	100	stimuli_distractor_diamondtriangles.svg	stimuli_target_rectanglediamonds.svg	14	yes	57	0	249	0	0			0	0			1				0	
6.6.1	win	2023-06-02	02:13:47	02:18:54	303968	5dbbfa90c486791b1bd03292	3	1	main_slash	7	main_slash	101	stimuli_distractor_diamondtriangles.svg	stimuli_target_squarediamonds.svg	16	yes	53	1	688	0	0			0	0			1				0	
6.6.1	win	2023-06-02	02:13:47	02:18:54	303968	5dbbfa90c486791b1bd03292	3	1	main_slash	7	advance_on_keypress_SLASH	102	stimuli_distractor_diamondtriangles.svg	stimuli_target_squarediamonds.svg	16	yes	57	0	401	0	0			0	0			1				0	
6.6.1	win	2023-06-02	02:13:47	02:18:56	305704	5dbbfa90c486791b1bd03292	3	1	main_slash	7	main_slash	103	stimuli_target_diamondrectangles.svg	stimuli_distractor_trianglediamonds.svg	19	yes	53	1	712	0	0			0	0			1				0	
6.6.1	win	2023-06-02	02:13:47	02:18:56	305704	5dbbfa90c486791b1bd03292	3	1	main_slash	7	advance_on_keypress_SLASH	104	stimuli_target_diamondrectangles.svg	stimuli_distractor_trianglediamonds.svg	19	yes	57	0	252	0	0			0	0			1				0	
6.6.1	win	2023-06-02	02:13:47	02:18:57	307296	5dbbfa90c486791b1bd03292	3	1	main_slash	7	main_slash	105	stimuli_distractor_trianglediamonds.svg	stimuli_target_rectangletriangles.svg	9	yes	53	1	718	0	0			0	0			1				0	
6.6.1	win	2023-06-02	02:13:47	02:18:57	307296	5dbbfa90c486791b1bd03292	3	1	main_slash	7	advance_on_keypress_SLASH	106	stimuli_distractor_trianglediamonds.svg	stimuli_target_rectangletriangles.svg	9	yes	57	0	199	0	0			0	0			1				0	
6.6.1	win	2023-06-02	02:13:47	02:18:59	308750	5dbbfa90c486791b1bd03292	3	1	main_slash	7	main_slash	107	stimuli_distractor_diamondtriangles.svg	stimuli_target_trianglesquares.svg	30	yes	53	1	633	0	0			0	0			1				0	
6.6.1	win	2023-06-02	02:13:47	02:18:59	308750	5dbbfa90c486791b1bd03292	3	1	main_slash	7	advance_on_keypress_SLASH	108	stimuli_distractor_diamondtriangles.svg	stimuli_target_trianglesquares.svg	30	yes	57	0	156	0	0			0	0			1				0	
6.6.1	win	2023-06-02	02:13:47	02:19:00	310131	5dbbfa90c486791b1bd03292	3	1	main_slash	7	main_slash	109	stimuli_target_trianglerectangles.svg	stimuli_distractor_trianglediamonds.svg	17	yes	53	1	604	0	0			0	0			1				0	
6.6.1	win	2023-06-02	02:13:47	02:19:00	310131	5dbbfa90c486791b1bd03292	3	1	main_slash	7	advance_on_keypress_SLASH	110	stimuli_target_trianglerectangles.svg	stimuli_distractor_trianglediamonds.svg	17	yes	57	0	120	0	0			0	0			1				0	
6.6.1	win	2023-06-02	02:13:47	02:19:01	311578	5dbbfa90c486791b1bd03292	3	1	main_slash	7	main_slash	111	stimuli_target_squaretriangles.svg	stimuli_distractor_diamondtriangles.svg	7	yes	53	1	705	0	0			0	0			1				0	
6.6.1	win	2023-06-02	02:13:47	02:19:01	311578	5dbbfa90c486791b1bd03292	3	1	main_slash	7	advance_on_keypress_SLASH	112	stimuli_target_squaretriangles.svg	stimuli_distractor_diamondtriangles.svg	7	yes	57	0	144	0	0			0	0			1				0	
6.6.1	win	2023-06-02	02:13:47	02:19:03	313064	5dbbfa90c486791b1bd03292	3	1	main_slash	7	main_slash	113	stimuli_target_diamondrectangles.svg	stimuli_distractor_diamondtriangles.svg	23	yes	53	1	719	0	0			0	0			1				0	
6.6.1	win	2023-06-02	02:13:47	02:19:03	313064	5dbbfa90c486791b1bd03292	3	1	main_slash	7	advance_on_keypress_SLASH	114	stimuli_target_diamondrectangles.svg	stimuli_distractor_diamondtriangles.svg	23	yes	57	0	174	0	0			0	0			1				0	
6.6.1	win	2023-06-02	02:13:47	02:19:04	314482	5dbbfa90c486791b1bd03292	3	1	main_slash	7	main_slash	115	stimuli_distractor_trianglediamonds.svg	stimuli_target_diamondsquares.svg	28	yes	53	1	621	0	0			0	0			1				0	
6.6.1	win	2023-06-02	02:13:47	02:19:04	314482	5dbbfa90c486791b1bd03292	3	1	main_slash	7	advance_on_keypress_SLASH	116	stimuli_distractor_trianglediamonds.svg	stimuli_target_diamondsquares.svg	28	yes	57	0	217	0	0			0	0			1				0	
6.6.1	win	2023-06-02	02:13:47	02:19:07	317321	5dbbfa90c486791b1bd03292	3	1	main_slash	7	main_slash	117	stimuli_target_rectanglediamonds.svg	stimuli_distractor_diamondtriangles.svg	6	yes	0	0	2000	0	0			0	0			1				0	
6.6.1	win	2023-06-02	02:13:47	02:19:07	317321	5dbbfa90c486791b1bd03292	3	1	main_slash	7	advance_on_keypress_SLASH	118	stimuli_target_rectanglediamonds.svg	stimuli_distractor_diamondtriangles.svg	6	yes	57	0	449	0	0			0	0			1				0	
6.6.1	win	2023-06-02	02:13:47	02:19:10	320392	5dbbfa90c486791b1bd03292	3	1	main_slash	7	main_slash	119	stimuli_distractor_diamondtriangles.svg	stimuli_distractor_trianglediamonds.svg	37	no	0	1	2000	0	0			0	0			1				0	
6.6.1	win	2023-06-02	02:13:47	02:19:10	320392	5dbbfa90c486791b1bd03292	3	1	main_slash	7	advance_on_keypress_SLASH	120	stimuli_distractor_diamondtriangles.svg	stimuli_distractor_trianglediamonds.svg	37	no	57	0	397	0	0			0	0			1				0	
6.6.1	win	2023-06-02	02:13:47	02:19:12	322340	5dbbfa90c486791b1bd03292	3	1	main_slash	7	main_slash	121	stimuli_distractor_trianglediamonds.svg	stimuli_target_diamondrectangles.svg	27	yes	53	1	927	0	0			0	0			1				0	
6.6.1	win	2023-06-02	02:13:47	02:19:12	322340	5dbbfa90c486791b1bd03292	3	1	main_slash	7	advance_on_keypress_SLASH	122	stimuli_distractor_trianglediamonds.svg	stimuli_target_diamondrectangles.svg	27	yes	57	0	342	0	0			0	0			1				0	
6.6.1	win	2023-06-02	02:13:47	02:19:14	324349	5dbbfa90c486791b1bd03292	3	1	main_slash	7	main_slash	123	stimuli_target_trianglesquares.svg	stimuli_distractor_diamondtriangles.svg	22	yes	53	1	1044	0	0			0	0			1				0	
6.6.1	win	2023-06-02	02:13:47	02:19:14	324349	5dbbfa90c486791b1bd03292	3	1	main_slash	7	advance_on_keypress_SLASH	124	stimuli_target_trianglesquares.svg	stimuli_distractor_diamondtriangles.svg	22	yes	57	0	318	0	0			0	0			1				0	
6.6.1	win	2023-06-02	02:13:47	02:19:17	327291	5dbbfa90c486791b1bd03292	3	1	main_slash	7	main_slash	125	stimuli_distractor_trianglediamonds.svg	stimuli_distractor_diamondtriangles.svg	36	no	0	1	2000	0	0			0	0			1				0	
6.6.1	win	2023-06-02	02:13:47	02:19:17	327291	5dbbfa90c486791b1bd03292	3	1	main_slash	7	advance_on_keypress_SLASH	126	stimuli_distractor_trianglediamonds.svg	stimuli_distractor_diamondtriangles.svg	36	no	57	0	749	0	0			0	0			1				0	
6.6.1	win	2023-06-02	02:13:47	02:19:19	329525	5dbbfa90c486791b1bd03292	3	1	main_slash	7	main_slash	127	stimuli_distractor_trianglediamonds.svg	stimuli_target_squaretriangles.svg	11	yes	53	1	861	0	0			0	0			1				0	
6.6.1	win	2023-06-02	02:13:47	02:19:19	329525	5dbbfa90c486791b1bd03292	3	1	main_slash	7	advance_on_keypress_SLASH	128	stimuli_distractor_trianglediamonds.svg	stimuli_target_squaretriangles.svg	11	yes	57	0	325	0	0			0	0			1				0	
6.6.1	win	2023-06-02	02:13:47	02:19:21	331475	5dbbfa90c486791b1bd03292	3	1	main_slash	7	main_slash	129	stimuli_distractor_diamondtriangles.svg	stimuli_target_trianglerectangles.svg	29	yes	53	1	1003	0	0			0	0			1				0	
6.6.1	win	2023-06-02	02:13:47	02:19:21	331475	5dbbfa90c486791b1bd03292	3	1	main_slash	7	advance_on_keypress_SLASH	130	stimuli_distractor_diamondtriangles.svg	stimuli_target_trianglerectangles.svg	29	yes	57	0	202	0	0			0	0			1				0	
6.6.1	win	2023-06-02	02:13:47	02:19:23	333264	5dbbfa90c486791b1bd03292	3	1	main_slash	7	main_slash	131	stimuli_distractor_diamondtriangles.svg	stimuli_target_diamondsquares.svg	32	yes	53	1	964	0	0			0	0			1				0	
6.6.1	win	2023-06-02	02:13:47	02:19:23	333264	5dbbfa90c486791b1bd03292	3	1	main_slash	7	advance_on_keypress_SLASH	132	stimuli_distractor_diamondtriangles.svg	stimuli_target_diamondsquares.svg	32	yes	57	0	338	0	0			0	0			1				0	
6.6.1	win	2023-06-02	02:13:47	02:19:26	336225	5dbbfa90c486791b1bd03292	3	1	main_slash	7	main_slash	133	stimuli_distractor_trianglediamonds.svg	stimuli_distractor_trianglediamonds.svg	34	no	0	1	2000	0	0			0	0			1				0	
6.6.1	win	2023-06-02	02:13:47	02:19:26	336225	5dbbfa90c486791b1bd03292	3	1	main_slash	7	advance_on_keypress_SLASH	134	stimuli_distractor_trianglediamonds.svg	stimuli_distractor_trianglediamonds.svg	34	no	57	0	103	0	0			0	0			1				0	
6.6.1	win	2023-06-02	02:13:47	02:19:27	337649	5dbbfa90c486791b1bd03292	3	1	main_slash	7	main_slash	135	stimuli_distractor_diamondtriangles.svg	stimuli_target_diamondrectangles.svg	31	yes	53	1	699	0	0			0	0			1				0	
6.6.1	win	2023-06-02	02:13:47	02:19:27	337649	5dbbfa90c486791b1bd03292	3	1	main_slash	7	advance_on_keypress_SLASH	136	stimuli_distractor_diamondtriangles.svg	stimuli_target_diamondrectangles.svg	31	yes	57	0	414	0	0			0	0			1				0	
6.6.1	win	2023-06-02	02:13:47	02:19:31	340687	5dbbfa90c486791b1bd03292	3	1	main_slash	7	main_slash	137	stimuli_distractor_trianglediamonds.svg	stimuli_distractor_diamondtriangles.svg	35	no	0	1	2000	0	0			0	0			1				0	
6.6.1	win	2023-06-02	02:13:47	02:19:31	340687	5dbbfa90c486791b1bd03292	3	1	main_slash	7	advance_on_keypress_SLASH	138	stimuli_distractor_trianglediamonds.svg	stimuli_distractor_diamondtriangles.svg	35	no	57	0	299	0	0			0	0			1				0	
6.6.1	win	2023-06-02	02:13:47	02:19:33	343609	5dbbfa90c486791b1bd03292	3	1	main_slash	7	main_slash	139	stimuli_distractor_trianglediamonds.svg	stimuli_distractor_trianglediamonds.svg	33	no	0	1	2000	0	0			0	0			1				0	
6.6.1	win	2023-06-02	02:13:47	02:19:33	343609	5dbbfa90c486791b1bd03292	3	1	main_slash	7	advance_on_keypress_SLASH	140	stimuli_distractor_trianglediamonds.svg	stimuli_distractor_trianglediamonds.svg	33	no	57	0	272	0	0			0	0			1				0	
6.6.1	win	2023-06-02	02:13:47	02:19:36	346503	5dbbfa90c486791b1bd03292	3	1	main_slash	7	main_slash	141	stimuli_distractor_diamondtriangles.svg	stimuli_distractor_diamondtriangles.svg	39	no	0	1	2000	0	0			0	0			1				0	
6.6.1	win	2023-06-02	02:13:47	02:19:36	346503	5dbbfa90c486791b1bd03292	3	1	main_slash	7	advance_on_keypress_SLASH	142	stimuli_distractor_diamondtriangles.svg	stimuli_distractor_diamondtriangles.svg	39	no	57	0	399	0	0			0	0			1				0	
6.6.1	win	2023-06-02	02:13:47	02:19:39	348716	5dbbfa90c486791b1bd03292	3	1	main_slash	7	main_slash	143	stimuli_distractor_diamondtriangles.svg	stimuli_target_rectangletriangles.svg	13	yes	53	1	1190	0	0			0	0			1				0	
6.6.1	win	2023-06-02	02:13:47	02:19:39	348716	5dbbfa90c486791b1bd03292	3	1	main_slash	7	advance_on_keypress_SLASH	144	stimuli_distractor_diamondtriangles.svg	stimuli_target_rectangletriangles.svg	13	yes	57	0	319	0	0			0	0			1				0	
6.6.1	win	2023-06-02	02:13:47	02:19:40	350628	5dbbfa90c486791b1bd03292	3	1	main_slash	7	main_slash	145	stimuli_distractor_trianglediamonds.svg	stimuli_target_trianglerectangles.svg	25	yes	53	1	972	0	0			0	0			1				0	
6.6.1	win	2023-06-02	02:13:47	02:19:40	350628	5dbbfa90c486791b1bd03292	3	1	main_slash	7	advance_on_keypress_SLASH	146	stimuli_distractor_trianglediamonds.svg	stimuli_target_trianglerectangles.svg	25	yes	57	0	283	0	0			0	0			1				0	
6.6.1	win	2023-06-02	02:13:47	02:19:42	352532	5dbbfa90c486791b1bd03292	3	1	main_slash	7	main_slash	147	stimuli_target_diamondsquares.svg	stimuli_distractor_trianglediamonds.svg	20	yes	53	1	998	0	0			0	0			1				0	
6.6.1	win	2023-06-02	02:13:47	02:19:42	352532	5dbbfa90c486791b1bd03292	3	1	main_slash	7	advance_on_keypress_SLASH	148	stimuli_target_diamondsquares.svg	stimuli_distractor_trianglediamonds.svg	20	yes	57	0	269	0	0			0	0			1				0	
6.6.1	win	2023-06-02	02:13:47	02:19:44	354226	5dbbfa90c486791b1bd03292	3	1	main_slash	7	main_slash	149	stimuli_target_trianglerectangles.svg	stimuli_distractor_diamondtriangles.svg	21	yes	53	1	803	0	0			0	0			1				0	
6.6.1	win	2023-06-02	02:13:47	02:19:44	354226	5dbbfa90c486791b1bd03292	3	1	main_slash	7	advance_on_keypress_SLASH	150	stimuli_target_trianglerectangles.svg	stimuli_distractor_diamondtriangles.svg	21	yes	57	0	275	0	0			0	0			1				0	
6.6.1	win	2023-06-02	02:13:47	02:19:46	355974	5dbbfa90c486791b1bd03292	3	1	main_slash	7	main_slash	151	stimuli_target_squarediamonds.svg	stimuli_distractor_trianglediamonds.svg	4	yes	53	1	852	0	0			0	0			1				0	
6.6.1	win	2023-06-02	02:13:47	02:19:46	355974	5dbbfa90c486791b1bd03292	3	1	main_slash	7	advance_on_keypress_SLASH	152	stimuli_target_squarediamonds.svg	stimuli_distractor_trianglediamonds.svg	4	yes	57	0	243	0	0			0	0			1				0	
6.6.1	win	2023-06-02	02:13:47	02:19:47	357630	5dbbfa90c486791b1bd03292	3	1	main_slash	7	main_slash	153	stimuli_distractor_trianglediamonds.svg	stimuli_target_trianglesquares.svg	26	yes	53	1	790	0	0			0	0			1				0	
6.6.1	win	2023-06-02	02:13:47	02:19:47	357630	5dbbfa90c486791b1bd03292	3	1	main_slash	7	advance_on_keypress_SLASH	154	stimuli_distractor_trianglediamonds.svg	stimuli_target_trianglesquares.svg	26	yes	57	0	207	0	0			0	0			1				0	
6.6.1	win	2023-06-02	02:13:47	02:19:49	359272	5dbbfa90c486791b1bd03292	3	1	main_slash	7	main_slash	155	stimuli_target_rectangletriangles.svg	stimuli_distractor_trianglediamonds.svg	1	yes	53	1	814	0	0			0	0			1				0	
6.6.1	win	2023-06-02	02:13:47	02:19:49	359272	5dbbfa90c486791b1bd03292	3	1	main_slash	7	advance_on_keypress_SLASH	156	stimuli_target_rectangletriangles.svg	stimuli_distractor_trianglediamonds.svg	1	yes	57	0	208	0	0			0	0			1				0	
6.6.1	win	2023-06-02	02:13:47	02:19:51	360904	5dbbfa90c486791b1bd03292	3	1	main_slash	7	main_slash	157	stimuli_target_rectangletriangles.svg	stimuli_distractor_diamondtriangles.svg	5	yes	53	1	800	0	0			0	0			1				0	
6.6.1	win	2023-06-02	02:13:47	02:19:51	360904	5dbbfa90c486791b1bd03292	3	1	main_slash	7	advance_on_keypress_SLASH	158	stimuli_target_rectangletriangles.svg	stimuli_distractor_diamondtriangles.svg	5	yes	57	0	189	0	0			0	0			1				0	
6.6.1	win	2023-06-02	02:13:47	02:19:52	362450	5dbbfa90c486791b1bd03292	3	1	main_slash	7	main_slash	159	stimuli_target_squaretriangles.svg	stimuli_distractor_trianglediamonds.svg	3	yes	53	1	735	0	0			0	0			1				0	
6.6.1	win	2023-06-02	02:13:47	02:19:52	362450	5dbbfa90c486791b1bd03292	3	1	main_slash	7	advance_on_keypress_SLASH	160	stimuli_target_squaretriangles.svg	stimuli_distractor_trianglediamonds.svg	3	yes	57	0	191	0	0			0	0			1				0	
6.6.1	win	2023-06-02	02:13:47	02:20:13	383344	5dbbfa90c486791b1bd03292	3	1	practice_z	9	practice_z	1	stimuli_distractor_trianglediamonds.svg	stimuli_target_rectanglediamonds.svg	10	yes	44	1	722	0	0			0	0			1				0	
6.6.1	win	2023-06-02	02:13:47	02:20:13	383344	5dbbfa90c486791b1bd03292	3	1	practice_z	9	advance_on_keypress_ZEE	2	stimuli_distractor_trianglediamonds.svg	stimuli_target_rectanglediamonds.svg	10	yes	57	0	476	0	0			0	0			1				0	
6.6.1	win	2023-06-02	02:13:47	02:20:17	387588	5dbbfa90c486791b1bd03292	3	1	practice_z	9	practice_z	3	stimuli_distractor_diamondtriangles.svg	stimuli_distractor_diamondtriangles.svg	13	no	0	1	2000	0	0			0	0			1				0	
6.6.1	win	2023-06-02	02:13:47	02:20:17	387588	5dbbfa90c486791b1bd03292	3	1	practice_z	9	advance_on_keypress_ZEE	4	stimuli_distractor_diamondtriangles.svg	stimuli_distractor_diamondtriangles.svg	13	no	57	0	494	0	0			0	0			1				0	
6.6.1	win	2023-06-02	02:13:47	02:20:20	390583	5dbbfa90c486791b1bd03292	3	1	practice_z	9	practice_z	5	stimuli_target_squarediamonds.svg	stimuli_distractor_diamondtriangles.svg	2	yes	44	1	876	0	0			0	0			1				0	
6.6.1	win	2023-06-02	02:13:47	02:20:20	390583	5dbbfa90c486791b1bd03292	3	1	practice_z	9	advance_on_keypress_ZEE	6	stimuli_target_squarediamonds.svg	stimuli_distractor_diamondtriangles.svg	2	yes	57	0	447	0	0			0	0			1				0	
6.6.1	win	2023-06-02	02:13:47	02:20:23	393376	5dbbfa90c486791b1bd03292	3	1	practice_z	9	practice_z	7	stimuli_target_rectanglediamonds.svg	stimuli_distractor_diamondtriangles.svg	1	yes	44	1	723	0	0			0	0			1				0	
6.6.1	win	2023-06-02	02:13:47	02:20:23	393376	5dbbfa90c486791b1bd03292	3	1	practice_z	9	advance_on_keypress_ZEE	8	stimuli_target_rectanglediamonds.svg	stimuli_distractor_diamondtriangles.svg	1	yes	57	0	417	0	0			0	0			1				0	
6.6.1	win	2023-06-02	02:13:47	02:20:27	397416	5dbbfa90c486791b1bd03292	3	1	practice_z	9	practice_z	9	stimuli_distractor_trianglediamonds.svg	stimuli_distractor_trianglediamonds.svg	15	no	0	1	2000	0	0			0	0			1				0	
6.6.1	win	2023-06-02	02:13:47	02:20:27	397416	5dbbfa90c486791b1bd03292	3	1	practice_z	9	advance_on_keypress_ZEE	10	stimuli_distractor_trianglediamonds.svg	stimuli_distractor_trianglediamonds.svg	15	no	57	0	437	0	0			0	0			1				0	
6.6.1	win	2023-06-02	02:13:47	02:20:30	400333	5dbbfa90c486791b1bd03292	3	1	practice_z	9	practice_z	11	stimuli_distractor_diamondtriangles.svg	stimuli_target_trianglerectangles.svg	9	yes	44	1	856	0	0			0	0			1				0	
6.6.1	win	2023-06-02	02:13:47	02:20:30	400333	5dbbfa90c486791b1bd03292	3	1	practice_z	9	advance_on_keypress_ZEE	12	stimuli_distractor_diamondtriangles.svg	stimuli_target_trianglerectangles.svg	9	yes	57	0	302	0	0			0	0			1				0	
6.6.1	win	2023-06-02	02:13:47	02:20:33	403129	5dbbfa90c486791b1bd03292	3	1	practice_z	9	practice_z	13	stimuli_distractor_diamondtriangles.svg	stimuli_target_rectangletriangles.svg	7	yes	44	1	872	0	0			0	0			1				0	
6.6.1	win	2023-06-02	02:13:47	02:20:33	403129	5dbbfa90c486791b1bd03292	3	1	practice_z	9	advance_on_keypress_ZEE	14	stimuli_distractor_diamondtriangles.svg	stimuli_target_rectangletriangles.svg	7	yes	57	0	350	0	0			0	0			1				0	
6.6.1	win	2023-06-02	02:13:47	02:20:36	405848	5dbbfa90c486791b1bd03292	3	1	practice_z	9	practice_z	15	stimuli_distractor_trianglediamonds.svg	stimuli_target_squarediamonds.svg	11	yes	44	1	670	0	0			0	0			1				0	
6.6.1	win	2023-06-02	02:13:47	02:20:36	405848	5dbbfa90c486791b1bd03292	3	1	practice_z	9	advance_on_keypress_ZEE	16	stimuli_distractor_trianglediamonds.svg	stimuli_target_squarediamonds.svg	11	yes	57	0	435	0	0			0	0			1				0	
6.6.1	win	2023-06-02	02:13:47	02:20:38	408553	5dbbfa90c486791b1bd03292	3	1	practice_z	9	practice_z	17	stimuli_distractor_diamondtriangles.svg	stimuli_target_diamondrectangles.svg	8	yes	44	1	646	0	0			0	0			1				0	
6.6.1	win	2023-06-02	02:13:47	02:20:38	408553	5dbbfa90c486791b1bd03292	3	1	practice_z	9	advance_on_keypress_ZEE	18	stimuli_distractor_diamondtriangles.svg	stimuli_target_diamondrectangles.svg	8	yes	57	0	354	0	0			0	0			1				0	
6.6.1	win	2023-06-02	02:13:47	02:20:41	411255	5dbbfa90c486791b1bd03292	3	1	practice_z	9	practice_z	19	stimuli_target_diamondsquares.svg	stimuli_distractor_trianglediamonds.svg	6	yes	44	1	725	0	0			0	0			1				0	
6.6.1	win	2023-06-02	02:13:47	02:20:41	411255	5dbbfa90c486791b1bd03292	3	1	practice_z	9	advance_on_keypress_ZEE	20	stimuli_target_diamondsquares.svg	stimuli_distractor_trianglediamonds.svg	6	yes	57	0	304	0	0			0	0			1				0	
6.6.1	win	2023-06-02	02:13:47	02:20:44	413823	5dbbfa90c486791b1bd03292	3	1	practice_z	9	practice_z	21	stimuli_target_squarediamonds.svg	stimuli_distractor_trianglediamonds.svg	5	yes	44	1	641	0	0			0	0			1				0	
6.6.1	win	2023-06-02	02:13:47	02:20:44	413823	5dbbfa90c486791b1bd03292	3	1	practice_z	9	advance_on_keypress_ZEE	22	stimuli_target_squarediamonds.svg	stimuli_distractor_trianglediamonds.svg	5	yes	57	0	382	0	0			0	0			1				0	
6.6.1	win	2023-06-02	02:13:47	02:20:48	417828	5dbbfa90c486791b1bd03292	3	1	practice_z	9	practice_z	23	stimuli_distractor_trianglediamonds.svg	stimuli_distractor_diamondtriangles.svg	16	no	0	1	2000	0	0			0	0			1				0	
6.6.1	win	2023-06-02	02:13:47	02:20:48	417828	5dbbfa90c486791b1bd03292	3	1	practice_z	9	advance_on_keypress_ZEE	24	stimuli_distractor_trianglediamonds.svg	stimuli_distractor_diamondtriangles.svg	16	no	57	0	392	0	0			0	0			1				0	
6.6.1	win	2023-06-02	02:13:47	02:20:51	420693	5dbbfa90c486791b1bd03292	3	1	practice_z	9	practice_z	25	stimuli_distractor_trianglediamonds.svg	stimuli_target_diamondrectangles.svg	12	yes	44	1	777	0	0			0	0			1				0	
6.6.1	win	2023-06-02	02:13:47	02:20:51	420693	5dbbfa90c486791b1bd03292	3	1	practice_z	9	advance_on_keypress_ZEE	26	stimuli_distractor_trianglediamonds.svg	stimuli_target_diamondrectangles.svg	12	yes	57	0	376	0	0			0	0			1				0	
6.6.1	win	2023-06-02	02:13:47	02:20:53	423493	5dbbfa90c486791b1bd03292	3	1	practice_z	9	practice_z	27	stimuli_target_diamondsquares.svg	stimuli_distractor_diamondtriangles.svg	3	yes	44	1	800	0	0			0	0			1				0	
6.6.1	win	2023-06-02	02:13:47	02:20:53	423493	5dbbfa90c486791b1bd03292	3	1	practice_z	9	advance_on_keypress_ZEE	28	stimuli_target_diamondsquares.svg	stimuli_distractor_diamondtriangles.svg	3	yes	57	0	67	0	0			0	0			1				0	
6.6.1	win	2023-06-02	02:13:47	02:20:56	426221	5dbbfa90c486791b1bd03292	3	1	practice_z	9	practice_z	29	stimuli_distractor_diamondtriangles.svg	stimuli_distractor_trianglediamonds.svg	14	no	44	0	970	0	0			0	0			1				0	
6.6.1	win	2023-06-02	02:13:47	02:20:56	426221	5dbbfa90c486791b1bd03292	3	1	practice_z	9	advance_on_keypress_ZEE	30	stimuli_distractor_diamondtriangles.svg	stimuli_distractor_trianglediamonds.svg	14	no	57	0	318	0	0			0	0			1				0	
6.6.1	win	2023-06-02	02:13:47	02:20:59	428950	5dbbfa90c486791b1bd03292	3	1	practice_z	9	practice_z	31	stimuli_target_rectanglediamonds.svg	stimuli_distractor_trianglediamonds.svg	4	yes	44	1	786	0	0			0	0			1				0	
6.6.1	win	2023-06-02	02:13:47	02:20:59	428950	5dbbfa90c486791b1bd03292	3	1	practice_z	9	advance_on_keypress_ZEE	32	stimuli_target_rectanglediamonds.svg	stimuli_distractor_trianglediamonds.svg	4	yes	57	0	372	0	0			0	0			1				0	
6.6.1	win	2023-06-02	02:13:47	02:21:05	435154	5dbbfa90c486791b1bd03292	3	1	main_z	11	main_z	1	stimuli_distractor_diamondtriangles.svg	stimuli_distractor_trianglediamonds.svg	38	no	0	1	2000	0	0			0	0			1				0	
6.6.1	win	2023-06-02	02:13:47	02:21:05	435154	5dbbfa90c486791b1bd03292	3	1	main_z	11	advance_on_keypress_ZEE	2	stimuli_distractor_diamondtriangles.svg	stimuli_distractor_trianglediamonds.svg	38	no	57	0	375	0	0			0	0			1				0	
6.6.1	win	2023-06-02	02:13:47	02:21:07	437210	5dbbfa90c486791b1bd03292	3	1	main_z	11	main_z	3	stimuli_distractor_trianglediamonds.svg	stimuli_target_trianglerectangles.svg	25	yes	44	1	977	0	0			0	0			1				0	
6.6.1	win	2023-06-02	02:13:47	02:21:07	437210	5dbbfa90c486791b1bd03292	3	1	main_z	11	advance_on_keypress_ZEE	4	stimuli_distractor_trianglediamonds.svg	stimuli_target_trianglerectangles.svg	25	yes	57	0	457	0	0			0	0			1				0	
6.6.1	win	2023-06-02	02:13:47	02:21:09	439177	5dbbfa90c486791b1bd03292	3	1	main_z	11	main_z	5	stimuli_distractor_trianglediamonds.svg	stimuli_target_rectanglediamonds.svg	10	yes	44	1	889	0	0			0	0			1				0	
6.6.1	win	2023-06-02	02:13:47	02:21:09	439177	5dbbfa90c486791b1bd03292	3	1	main_z	11	advance_on_keypress_ZEE	6	stimuli_distractor_trianglediamonds.svg	stimuli_target_rectanglediamonds.svg	10	yes	57	0	308	0	0			0	0			1				0	
6.6.1	win	2023-06-02	02:13:47	02:21:11	440735	5dbbfa90c486791b1bd03292	3	1	main_z	11	main_z	7	stimuli_target_squarediamonds.svg	stimuli_distractor_diamondtriangles.svg	8	yes	44	1	626	0	0			0	0			1				0	
6.6.1	win	2023-06-02	02:13:47	02:21:11	440735	5dbbfa90c486791b1bd03292	3	1	main_z	11	advance_on_keypress_ZEE	8	stimuli_target_squarediamonds.svg	stimuli_distractor_diamondtriangles.svg	8	yes	57	0	218	0	0			0	0			1				0	
6.6.1	win	2023-06-02	02:13:47	02:21:13	443576	5dbbfa90c486791b1bd03292	3	1	main_z	11	main_z	9	stimuli_distractor_diamondtriangles.svg	stimuli_distractor_diamondtriangles.svg	39	no	0	1	2000	0	0			0	0			1				0	
6.6.1	win	2023-06-02	02:13:47	02:21:13	443576	5dbbfa90c486791b1bd03292	3	1	main_z	11	advance_on_keypress_ZEE	10	stimuli_distractor_diamondtriangles.svg	stimuli_distractor_diamondtriangles.svg	39	no	57	0	180	0	0			0	0			1				0	
6.6.1	win	2023-06-02	02:13:47	02:21:15	445238	5dbbfa90c486791b1bd03292	3	1	main_z	11	main_z	11	stimuli_target_diamondsquares.svg	stimuli_distractor_diamondtriangles.svg	24	yes	44	1	859	0	0			0	0			1				0	
6.6.1	win	2023-06-02	02:13:47	02:21:15	445238	5dbbfa90c486791b1bd03292	3	1	main_z	11	advance_on_keypress_ZEE	12	stimuli_target_diamondsquares.svg	stimuli_distractor_diamondtriangles.svg	24	yes	57	0	384	0	0			0	0			1				0	
6.6.1	win	2023-06-02	02:13:47	02:21:17	446841	5dbbfa90c486791b1bd03292	3	1	main_z	11	main_z	13	stimuli_distractor_diamondtriangles.svg	stimuli_target_squarediamonds.svg	16	yes	44	1	595	0	0			0	0			1				0	
6.6.1	win	2023-06-02	02:13:47	02:21:17	446841	5dbbfa90c486791b1bd03292	3	1	main_z	11	advance_on_keypress_ZEE	14	stimuli_distractor_diamondtriangles.svg	stimuli_target_squarediamonds.svg	16	yes	57	0	303	0	0			0	0			1				0	
6.6.1	win	2023-06-02	02:13:47	02:21:18	448306	5dbbfa90c486791b1bd03292	3	1	main_z	11	main_z	15	stimuli_target_rectanglediamonds.svg	stimuli_distractor_diamondtriangles.svg	6	yes	44	1	539	0	0			0	0			1				0	
6.6.1	win	2023-06-02	02:13:47	02:21:18	448306	5dbbfa90c486791b1bd03292	3	1	main_z	11	advance_on_keypress_ZEE	16	stimuli_target_rectanglediamonds.svg	stimuli_distractor_diamondtriangles.svg	6	yes	57	0	299	0	0			0	0			1				0	
6.6.1	win	2023-06-02	02:13:47	02:21:19	449628	5dbbfa90c486791b1bd03292	3	1	main_z	11	main_z	17	stimuli_target_rectangletriangles.svg	stimuli_distractor_diamondtriangles.svg	5	yes	44	1	401	0	0			0	0			1				0	
6.6.1	win	2023-06-02	02:13:47	02:21:19	449628	5dbbfa90c486791b1bd03292	3	1	main_z	11	advance_on_keypress_ZEE	18	stimuli_target_rectangletriangles.svg	stimuli_distractor_diamondtriangles.svg	5	yes	57	0	348	0	0			0	0			1				0	
6.6.1	win	2023-06-02	02:13:47	02:21:21	451114	5dbbfa90c486791b1bd03292	3	1	main_z	11	main_z	19	stimuli_target_trianglesquares.svg	stimuli_distractor_trianglediamonds.svg	18	yes	44	1	515	0	0			0	0			1				0	
6.6.1	win	2023-06-02	02:13:47	02:21:21	451114	5dbbfa90c486791b1bd03292	3	1	main_z	11	advance_on_keypress_ZEE	20	stimuli_target_trianglesquares.svg	stimuli_distractor_trianglediamonds.svg	18	yes	57	0	189	0	0			0	0			1				0	
6.6.1	win	2023-06-02	02:13:47	02:21:22	452372	5dbbfa90c486791b1bd03292	3	1	main_z	11	main_z	21	stimuli_distractor_diamondtriangles.svg	stimuli_target_diamondsquares.svg	32	yes	44	1	447	0	0			0	0			1				0	
6.6.1	win	2023-06-02	02:13:47	02:21:22	452372	5dbbfa90c486791b1bd03292	3	1	main_z	11	advance_on_keypress_ZEE	22	stimuli_distractor_diamondtriangles.svg	stimuli_target_diamondsquares.svg	32	yes	57	0	212	0	0			0	0			1				0	
6.6.1	win	2023-06-02	02:13:47	02:21:25	454866	5dbbfa90c486791b1bd03292	3	1	main_z	11	main_z	23	stimuli_distractor_trianglediamonds.svg	stimuli_distractor_diamondtriangles.svg	36	no	44	0	1659	0	0			0	0			1				0	
6.6.1	win	2023-06-02	02:13:47	02:21:25	454866	5dbbfa90c486791b1bd03292	3	1	main_z	11	advance_on_keypress_ZEE	24	stimuli_distractor_trianglediamonds.svg	stimuli_distractor_diamondtriangles.svg	36	no	57	0	282	0	0			0	0			1				0	
6.6.1	win	2023-06-02	02:13:47	02:21:26	456388	5dbbfa90c486791b1bd03292	3	1	main_z	11	main_z	25	stimuli_distractor_trianglediamonds.svg	stimuli_target_diamondsquares.svg	28	yes	44	1	617	0	0			0	0			1				0	
6.6.1	win	2023-06-02	02:13:47	02:21:26	456388	5dbbfa90c486791b1bd03292	3	1	main_z	11	advance_on_keypress_ZEE	26	stimuli_distractor_trianglediamonds.svg	stimuli_target_diamondsquares.svg	28	yes	57	0	161	0	0			0	0			1				0	
6.6.1	win	2023-06-02	02:13:47	02:21:27	457626	5dbbfa90c486791b1bd03292	3	1	main_z	11	main_z	27	stimuli_target_trianglesquares.svg	stimuli_distractor_diamondtriangles.svg	22	yes	44	1	456	0	0			0	0			1				0	
6.6.1	win	2023-06-02	02:13:47	02:21:27	457626	5dbbfa90c486791b1bd03292	3	1	main_z	11	advance_on_keypress_ZEE	28	stimuli_target_trianglesquares.svg	stimuli_distractor_diamondtriangles.svg	22	yes	57	0	157	0	0			0	0			1				0	
6.6.1	win	2023-06-02	02:13:47	02:21:29	458956	5dbbfa90c486791b1bd03292	3	1	main_z	11	main_z	29	stimuli_target_diamondrectangles.svg	stimuli_distractor_diamondtriangles.svg	23	yes	44	1	551	0	0			0	0			1				0	
6.6.1	win	2023-06-02	02:13:47	02:21:29	458956	5dbbfa90c486791b1bd03292	3	1	main_z	11	advance_on_keypress_ZEE	30	stimuli_target_diamondrectangles.svg	stimuli_distractor_diamondtriangles.svg	23	yes	57	0	109	0	0			0	0			1				0	
6.6.1	win	2023-06-02	02:13:47	02:21:32	461687	5dbbfa90c486791b1bd03292	3	1	main_z	11	main_z	31	stimuli_distractor_trianglediamonds.svg	stimuli_distractor_trianglediamonds.svg	33	no	0	1	2000	0	0			0	0			1				0	
6.6.1	win	2023-06-02	02:13:47	02:21:32	461687	5dbbfa90c486791b1bd03292	3	1	main_z	11	advance_on_keypress_ZEE	32	stimuli_distractor_trianglediamonds.svg	stimuli_distractor_trianglediamonds.svg	33	no	57	0	155	0	0			0	0			1				0	
6.6.1	win	2023-06-02	02:13:47	02:21:33	462956	5dbbfa90c486791b1bd03292	3	1	main_z	11	main_z	33	stimuli_target_squaretriangles.svg	stimuli_distractor_trianglediamonds.svg	3	yes	44	1	491	0	0			0	0			1				0	
6.6.1	win	2023-06-02	02:13:47	02:21:33	462956	5dbbfa90c486791b1bd03292	3	1	main_z	11	advance_on_keypress_ZEE	34	stimuli_target_squaretriangles.svg	stimuli_distractor_trianglediamonds.svg	3	yes	57	0	265	0	0			0	0			1				0	
6.6.1	win	2023-06-02	02:13:47	02:21:34	464244	5dbbfa90c486791b1bd03292	3	1	main_z	11	main_z	35	stimuli_distractor_trianglediamonds.svg	stimuli_target_squarediamonds.svg	12	yes	44	1	401	0	0			0	0			1				0	
6.6.1	win	2023-06-02	02:13:47	02:21:34	464244	5dbbfa90c486791b1bd03292	3	1	main_z	11	advance_on_keypress_ZEE	36	stimuli_distractor_trianglediamonds.svg	stimuli_target_squarediamonds.svg	12	yes	57	0	136	0	0			0	0			1				0	
6.6.1	win	2023-06-02	02:13:47	02:21:37	467002	5dbbfa90c486791b1bd03292	3	1	main_z	11	main_z	37	stimuli_distractor_trianglediamonds.svg	stimuli_distractor_trianglediamonds.svg	34	no	0	1	2000	0	0			0	0			1				0	
6.6.1	win	2023-06-02	02:13:47	02:21:37	467002	5dbbfa90c486791b1bd03292	3	1	main_z	11	advance_on_keypress_ZEE	38	stimuli_distractor_trianglediamonds.svg	stimuli_distractor_trianglediamonds.svg	34	no	57	0	358	0	0			0	0			1				0	
6.6.1	win	2023-06-02	02:13:47	02:21:38	468312	5dbbfa90c486791b1bd03292	3	1	main_z	11	main_z	39	stimuli_target_trianglerectangles.svg	stimuli_distractor_trianglediamonds.svg	17	yes	44	1	329	0	0			0	0			1				0	
6.6.1	win	2023-06-02	02:13:47	02:21:38	468312	5dbbfa90c486791b1bd03292	3	1	main_z	11	advance_on_keypress_ZEE	40	stimuli_target_trianglerectangles.svg	stimuli_distractor_trianglediamonds.svg	17	yes	57	0	119	0	0			0	0			1				0	
6.6.1	win	2023-06-02	02:13:47	02:21:39	469424	5dbbfa90c486791b1bd03292	3	1	main_z	11	main_z	41	stimuli_target_diamondsquares.svg	stimuli_distractor_trianglediamonds.svg	20	yes	44	1	371	0	0			0	0			1				0	
6.6.1	win	2023-06-02	02:13:47	02:21:39	469424	5dbbfa90c486791b1bd03292	3	1	main_z	11	advance_on_keypress_ZEE	42	stimuli_target_diamondsquares.svg	stimuli_distractor_trianglediamonds.svg	20	yes	57	0	34	0	0			0	0			1				0	
6.6.1	win	2023-06-02	02:13:47	02:21:41	470768	5dbbfa90c486791b1bd03292	3	1	main_z	11	main_z	43	stimuli_distractor_diamondtriangles.svg	stimuli_target_diamondrectangles.svg	31	yes	44	1	682	0	0			0	0			1				0	
6.6.1	win	2023-06-02	02:13:47	02:21:41	470768	5dbbfa90c486791b1bd03292	3	1	main_z	11	advance_on_keypress_ZEE	44	stimuli_distractor_diamondtriangles.svg	stimuli_target_diamondrectangles.svg	31	yes	57	0	58	0	0			0	0			1				0	
6.6.1	win	2023-06-02	02:13:47	02:21:42	471933	5dbbfa90c486791b1bd03292	3	1	main_z	11	main_z	45	stimuli_distractor_diamondtriangles.svg	stimuli_target_trianglerectangles.svg	29	yes	44	1	485	0	0			0	0			1				0	
6.6.1	win	2023-06-02	02:13:47	02:21:42	471933	5dbbfa90c486791b1bd03292	3	1	main_z	11	advance_on_keypress_ZEE	46	stimuli_distractor_diamondtriangles.svg	stimuli_target_trianglerectangles.svg	29	yes	57	0	77	0	0			0	0			1				0	
6.6.1	win	2023-06-02	02:13:47	02:21:43	473099	5dbbfa90c486791b1bd03292	3	1	main_z	11	main_z	47	stimuli_target_diamondrectangles.svg	stimuli_distractor_trianglediamonds.svg	19	yes	44	1	468	0	0			0	0			1				0	
6.6.1	win	2023-06-02	02:13:47	02:21:43	473099	5dbbfa90c486791b1bd03292	3	1	main_z	11	advance_on_keypress_ZEE	48	stimuli_target_diamondrectangles.svg	stimuli_distractor_trianglediamonds.svg	19	yes	57	0	50	0	0			0	0			1				0	
6.6.1	win	2023-06-02	02:13:47	02:21:44	474197	5dbbfa90c486791b1bd03292	3	1	main_z	11	main_z	49	stimuli_distractor_diamondtriangles.svg	stimuli_target_squaretriangles.svg	15	yes	44	1	427	0	0			0	0			1				0	
6.6.1	win	2023-06-02	02:13:47	02:21:44	474197	5dbbfa90c486791b1bd03292	3	1	main_z	11	advance_on_keypress_ZEE	50	stimuli_distractor_diamondtriangles.svg	stimuli_target_squaretriangles.svg	15	yes	57	0	70	0	0			0	0			1				0	
6.6.1	win	2023-06-02	02:13:47	02:21:45	475507	5dbbfa90c486791b1bd03292	3	1	main_z	11	main_z	51	stimuli_distractor_trianglediamonds.svg	stimuli_target_trianglesquares.svg	26	yes	44	1	618	0	0			0	0			1				0	
6.6.1	win	2023-06-02	02:13:47	02:21:45	475507	5dbbfa90c486791b1bd03292	3	1	main_z	11	advance_on_keypress_ZEE	52	stimuli_distractor_trianglediamonds.svg	stimuli_target_trianglesquares.svg	26	yes	57	0	30	0	0			0	0			1				0	
6.6.1	win	2023-06-02	02:13:47	02:21:47	476719	5dbbfa90c486791b1bd03292	3	1	main_z	11	main_z	53	stimuli_distractor_trianglediamonds.svg	stimuli_target_diamondrectangles.svg	27	yes	44	1	560	0	0			0	0			1				0	
6.6.1	win	2023-06-02	02:13:47	02:21:47	476719	5dbbfa90c486791b1bd03292	3	1	main_z	11	advance_on_keypress_ZEE	54	stimuli_distractor_trianglediamonds.svg	stimuli_target_diamondrectangles.svg	27	yes	57	0	67	0	0			0	0			1				0	
6.6.1	win	2023-06-02	02:13:47	02:21:49	479408	5dbbfa90c486791b1bd03292	3	1	main_z	11	main_z	55	stimuli_distractor_diamondtriangles.svg	stimuli_distractor_trianglediamonds.svg	37	no	0	1	2000	0	0			0	0			1				0	
6.6.1	win	2023-06-02	02:13:47	02:21:49	479408	5dbbfa90c486791b1bd03292	3	1	main_z	11	advance_on_keypress_ZEE	56	stimuli_distractor_diamondtriangles.svg	stimuli_distractor_trianglediamonds.svg	37	no	57	0	325	0	0			0	0			1				0	
6.6.1	win	2023-06-02	02:13:47	02:21:51	480889	5dbbfa90c486791b1bd03292	3	1	main_z	11	main_z	57	stimuli_distractor_diamondtriangles.svg	stimuli_target_rectangletriangles.svg	13	yes	44	1	532	0	0			0	0			1				0	
6.6.1	win	2023-06-02	02:13:47	02:21:51	480889	5dbbfa90c486791b1bd03292	3	1	main_z	11	advance_on_keypress_ZEE	58	stimuli_distractor_diamondtriangles.svg	stimuli_target_rectangletriangles.svg	13	yes	57	0	77	0	0			0	0			1				0	
6.6.1	win	2023-06-02	02:13:47	02:21:52	481933	5dbbfa90c486791b1bd03292	3	1	main_z	11	main_z	59	stimuli_distractor_trianglediamonds.svg	stimuli_target_rectangletriangles.svg	9	yes	44	1	346	0	0			0	0			1				0	
6.6.1	win	2023-06-02	02:13:47	02:21:52	481933	5dbbfa90c486791b1bd03292	3	1	main_z	11	advance_on_keypress_ZEE	60	stimuli_distractor_trianglediamonds.svg	stimuli_target_rectangletriangles.svg	9	yes	57	0	76	0	0			0	0			1				0	
6.6.1	win	2023-06-02	02:13:47	02:21:53	483005	5dbbfa90c486791b1bd03292	3	1	main_z	11	main_z	61	stimuli_target_rectangletriangles.svg	stimuli_distractor_trianglediamonds.svg	1	yes	44	1	373	0	0			0	0			1				0	
6.6.1	win	2023-06-02	02:13:47	02:21:53	483005	5dbbfa90c486791b1bd03292	3	1	main_z	11	advance_on_keypress_ZEE	62	stimuli_target_rectangletriangles.svg	stimuli_distractor_trianglediamonds.svg	1	yes	57	0	98	0	0			0	0			1				0	
6.6.1	win	2023-06-02	02:13:47	02:21:54	484098	5dbbfa90c486791b1bd03292	3	1	main_z	11	main_z	63	stimuli_distractor_diamondtriangles.svg	stimuli_target_rectanglediamonds.svg	14	yes	44	1	374	0	0			0	0			1				0	
6.6.1	win	2023-06-02	02:13:47	02:21:54	484098	5dbbfa90c486791b1bd03292	3	1	main_z	11	advance_on_keypress_ZEE	64	stimuli_distractor_diamondtriangles.svg	stimuli_target_rectanglediamonds.svg	14	yes	57	0	96	0	0			0	0			1				0	
6.6.1	win	2023-06-02	02:13:47	02:21:55	485157	5dbbfa90c486791b1bd03292	3	1	main_z	11	main_z	65	stimuli_distractor_diamondtriangles.svg	stimuli_target_trianglesquares.svg	30	yes	44	1	338	0	0			0	0			1				0	
6.6.1	win	2023-06-02	02:13:47	02:21:55	485157	5dbbfa90c486791b1bd03292	3	1	main_z	11	advance_on_keypress_ZEE	66	stimuli_distractor_diamondtriangles.svg	stimuli_target_trianglesquares.svg	30	yes	57	0	58	0	0			0	0			1				0	
6.6.1	win	2023-06-02	02:13:47	02:21:56	486157	5dbbfa90c486791b1bd03292	3	1	main_z	11	main_z	67	stimuli_distractor_diamondtriangles.svg	stimuli_distractor_diamondtriangles.svg	40	no	44	0	320	0	0			0	0			1				0	
6.6.1	win	2023-06-02	02:13:47	02:21:56	486157	5dbbfa90c486791b1bd03292	3	1	main_z	11	advance_on_keypress_ZEE	68	stimuli_distractor_diamondtriangles.svg	stimuli_distractor_diamondtriangles.svg	40	no	57	0	65	0	0			0	0			1				0	
6.6.1	win	2023-06-02	02:13:47	02:21:58	488191	5dbbfa90c486791b1bd03292	3	1	main_z	11	main_z	69	stimuli_target_trianglerectangles.svg	stimuli_distractor_diamondtriangles.svg	21	yes	44	1	1348	0	0			0	0			1				0	
6.6.1	win	2023-06-02	02:13:47	02:21:58	488191	5dbbfa90c486791b1bd03292	3	1	main_z	11	advance_on_keypress_ZEE	70	stimuli_target_trianglerectangles.svg	stimuli_distractor_diamondtriangles.svg	21	yes	57	0	112	0	0			0	0			1				0	
6.6.1	win	2023-06-02	02:13:47	02:21:59	489583	5dbbfa90c486791b1bd03292	3	1	main_z	11	main_z	71	stimuli_distractor_trianglediamonds.svg	stimuli_distractor_diamondtriangles.svg	35	no	44	0	658	0	0			0	0			1				0	
6.6.1	win	2023-06-02	02:13:47	02:21:59	489583	5dbbfa90c486791b1bd03292	3	1	main_z	11	advance_on_keypress_ZEE	72	stimuli_distractor_trianglediamonds.svg	stimuli_distractor_diamondtriangles.svg	35	no	57	0	75	0	0			0	0			1				0	
6.6.1	win	2023-06-02	02:13:47	02:22:01	491071	5dbbfa90c486791b1bd03292	3	1	main_z	11	main_z	73	stimuli_target_squaretriangles.svg	stimuli_distractor_diamondtriangles.svg	7	yes	44	1	791	0	0			0	0			1				0	
6.6.1	win	2023-06-02	02:13:47	02:22:01	491071	5dbbfa90c486791b1bd03292	3	1	main_z	11	advance_on_keypress_ZEE	74	stimuli_target_squaretriangles.svg	stimuli_distractor_diamondtriangles.svg	7	yes	57	0	83	0	0			0	0			1				0	
6.6.1	win	2023-06-02	02:13:47	02:22:02	492405	5dbbfa90c486791b1bd03292	3	1	main_z	11	main_z	75	stimuli_target_squarediamonds.svg	stimuli_distractor_trianglediamonds.svg	4	yes	44	1	629	0	0			0	0			1				0	
6.6.1	win	2023-06-02	02:13:47	02:22:02	492405	5dbbfa90c486791b1bd03292	3	1	main_z	11	advance_on_keypress_ZEE	76	stimuli_target_squarediamonds.svg	stimuli_distractor_trianglediamonds.svg	4	yes	57	0	53	0	0			0	0			1				0	
6.6.1	win	2023-06-02	02:13:47	02:22:03	493613	5dbbfa90c486791b1bd03292	3	1	main_z	11	main_z	77	stimuli_target_rectanglediamonds.svg	stimuli_distractor_trianglediamonds.svg	2	yes	44	1	532	0	0			0	0			1				0	
6.6.1	win	2023-06-02	02:13:47	02:22:03	493613	5dbbfa90c486791b1bd03292	3	1	main_z	11	advance_on_keypress_ZEE	78	stimuli_target_rectanglediamonds.svg	stimuli_distractor_trianglediamonds.svg	2	yes	57	0	125	0	0			0	0			1				0	
6.6.1	win	2023-06-02	02:13:47	02:22:05	495101	5dbbfa90c486791b1bd03292	3	1	main_z	11	main_z	79	stimuli_distractor_trianglediamonds.svg	stimuli_target_squaretriangles.svg	11	yes	44	1	741	0	0			0	0			1				0	
6.6.1	win	2023-06-02	02:13:47	02:22:05	495101	5dbbfa90c486791b1bd03292	3	1	main_z	11	advance_on_keypress_ZEE	80	stimuli_distractor_trianglediamonds.svg	stimuli_target_squaretriangles.svg	11	yes	57	0	72	0	0			0	0			1				0	
6.6.1	win	2023-06-02	02:13:47	02:22:06	496451	5dbbfa90c486791b1bd03292	3	1	main_z	11	main_z	81	stimuli_target_rectangletriangles.svg	stimuli_distractor_trianglediamonds.svg	1	yes	44	1	656	0	0			0	0			1				0	
6.6.1	win	2023-06-02	02:13:47	02:22:06	496451	5dbbfa90c486791b1bd03292	3	1	main_z	11	advance_on_keypress_ZEE	82	stimuli_target_rectangletriangles.svg	stimuli_distractor_trianglediamonds.svg	1	yes	57	0	49	0	0			0	0			1				0	
6.6.1	win	2023-06-02	02:13:47	02:22:08	497818	5dbbfa90c486791b1bd03292	3	1	main_z	11	main_z	83	stimuli_distractor_diamondtriangles.svg	stimuli_target_squarediamonds.svg	16	yes	44	1	696	0	0			0	0			1				0	
6.6.1	win	2023-06-02	02:13:47	02:22:08	497818	5dbbfa90c486791b1bd03292	3	1	main_z	11	advance_on_keypress_ZEE	84	stimuli_distractor_diamondtriangles.svg	stimuli_target_squarediamonds.svg	16	yes	57	0	59	0	0			0	0			1				0	
6.6.1	win	2023-06-02	02:13:47	02:22:09	499166	5dbbfa90c486791b1bd03292	3	1	main_z	11	main_z	85	stimuli_distractor_diamondtriangles.svg	stimuli_target_squaretriangles.svg	15	yes	44	1	667	0	0			0	0			1				0	
6.6.1	win	2023-06-02	02:13:47	02:22:09	499166	5dbbfa90c486791b1bd03292	3	1	main_z	11	advance_on_keypress_ZEE	86	stimuli_distractor_diamondtriangles.svg	stimuli_target_squaretriangles.svg	15	yes	57	0	35	0	0			0	0			1				0	
6.6.1	win	2023-06-02	02:13:47	02:22:10	500430	5dbbfa90c486791b1bd03292	3	1	main_z	11	main_z	87	stimuli_target_squaretriangles.svg	stimuli_distractor_diamondtriangles.svg	7	yes	44	1	607	0	0			0	0			1				0	
6.6.1	win	2023-06-02	02:13:47	02:22:10	500430	5dbbfa90c486791b1bd03292	3	1	main_z	11	advance_on_keypress_ZEE	88	stimuli_target_squaretriangles.svg	stimuli_distractor_diamondtriangles.svg	7	yes	57	0	65	0	0			0	0			1				0	
6.6.1	win	2023-06-02	02:13:47	02:22:12	501692	5dbbfa90c486791b1bd03292	3	1	main_z	11	main_z	89	stimuli_target_rectanglediamonds.svg	stimuli_distractor_diamondtriangles.svg	6	yes	44	1	575	0	0			0	0			1				0	
6.6.1	win	2023-06-02	02:13:47	02:22:12	501692	5dbbfa90c486791b1bd03292	3	1	main_z	11	advance_on_keypress_ZEE	90	stimuli_target_rectanglediamonds.svg	stimuli_distractor_diamondtriangles.svg	6	yes	57	0	61	0	0			0	0			1				0	
6.6.1	win	2023-06-02	02:13:47	02:22:13	502864	5dbbfa90c486791b1bd03292	3	1	main_z	11	main_z	91	stimuli_distractor_trianglediamonds.svg	stimuli_target_rectangletriangles.svg	9	yes	44	1	489	0	0			0	0			1				0	
6.6.1	win	2023-06-02	02:13:47	02:22:13	502864	5dbbfa90c486791b1bd03292	3	1	main_z	11	advance_on_keypress_ZEE	92	stimuli_distractor_trianglediamonds.svg	stimuli_target_rectangletriangles.svg	9	yes	57	0	69	0	0			0	0			1				0	
6.6.1	win	2023-06-02	02:13:47	02:22:15	505555	5dbbfa90c486791b1bd03292	3	1	main_z	11	main_z	93	stimuli_distractor_diamondtriangles.svg	stimuli_distractor_diamondtriangles.svg	40	no	0	1	2000	0	0			0	0			1				0	
6.6.1	win	2023-06-02	02:13:47	02:22:15	505555	5dbbfa90c486791b1bd03292	3	1	main_z	11	advance_on_keypress_ZEE	94	stimuli_distractor_diamondtriangles.svg	stimuli_distractor_diamondtriangles.svg	40	no	57	0	251	0	0			0	0			1				0	
6.6.1	win	2023-06-02	02:13:47	02:22:17	506834	5dbbfa90c486791b1bd03292	3	1	main_z	11	main_z	95	stimuli_distractor_trianglediamonds.svg	stimuli_target_squarediamonds.svg	12	yes	44	1	406	0	0			0	0			1				0	
6.6.1	win	2023-06-02	02:13:47	02:22:17	506834	5dbbfa90c486791b1bd03292	3	1	main_z	11	advance_on_keypress_ZEE	96	stimuli_distractor_trianglediamonds.svg	stimuli_target_squarediamonds.svg	12	yes	57	0	48	0	0			0	0			1				0	
6.6.1	win	2023-06-02	02:13:47	02:22:18	507868	5dbbfa90c486791b1bd03292	3	1	main_z	11	main_z	97	stimuli_distractor_diamondtriangles.svg	stimuli_distractor_trianglediamonds.svg	37	no	44	0	364	0	0			0	0			1				0	
6.6.1	win	2023-06-02	02:13:47	02:22:18	507868	5dbbfa90c486791b1bd03292	3	1	main_z	11	advance_on_keypress_ZEE	98	stimuli_distractor_diamondtriangles.svg	stimuli_distractor_trianglediamonds.svg	37	no	57	0	52	0	0			0	0			1				0	
6.6.1	win	2023-06-02	02:13:47	02:22:19	509038	5dbbfa90c486791b1bd03292	3	1	main_z	11	main_z	99	stimuli_distractor_diamondtriangles.svg	stimuli_target_trianglesquares.svg	30	yes	44	1	496	0	0			0	0			1				0	
6.6.1	win	2023-06-02	02:13:47	02:22:19	509038	5dbbfa90c486791b1bd03292	3	1	main_z	11	advance_on_keypress_ZEE	100	stimuli_distractor_diamondtriangles.svg	stimuli_target_trianglesquares.svg	30	yes	57	0	43	0	0			0	0			1				0	
6.6.1	win	2023-06-02	02:13:47	02:22:20	510246	5dbbfa90c486791b1bd03292	3	1	main_z	11	main_z	101	stimuli_distractor_diamondtriangles.svg	stimuli_target_rectangletriangles.svg	13	yes	44	1	544	0	0			0	0			1				0	
6.6.1	win	2023-06-02	02:13:47	02:22:20	510246	5dbbfa90c486791b1bd03292	3	1	main_z	11	advance_on_keypress_ZEE	102	stimuli_distractor_diamondtriangles.svg	stimuli_target_rectangletriangles.svg	13	yes	57	0	37	0	0			0	0			1				0	
6.6.1	win	2023-06-02	02:13:47	02:22:21	511478	5dbbfa90c486791b1bd03292	3	1	main_z	11	main_z	103	stimuli_distractor_diamondtriangles.svg	stimuli_target_rectanglediamonds.svg	14	yes	44	1	573	0	0			0	0			1				0	
6.6.1	win	2023-06-02	02:13:47	02:22:21	511478	5dbbfa90c486791b1bd03292	3	1	main_z	11	advance_on_keypress_ZEE	104	stimuli_distractor_diamondtriangles.svg	stimuli_target_rectanglediamonds.svg	14	yes	57	0	91	0	0			0	0			1				0	
6.6.1	win	2023-06-02	02:13:47	02:22:23	512856	5dbbfa90c486791b1bd03292	3	1	main_z	11	main_z	105	stimuli_target_trianglerectangles.svg	stimuli_distractor_trianglediamonds.svg	17	yes	44	1	666	0	0			0	0			1				0	
6.6.1	win	2023-06-02	02:13:47	02:22:23	512856	5dbbfa90c486791b1bd03292	3	1	main_z	11	advance_on_keypress_ZEE	106	stimuli_target_trianglerectangles.svg	stimuli_distractor_trianglediamonds.svg	17	yes	57	0	80	0	0			0	0			1				0	
6.6.1	win	2023-06-02	02:13:47	02:22:24	514086	5dbbfa90c486791b1bd03292	3	1	main_z	11	main_z	107	stimuli_distractor_trianglediamonds.svg	stimuli_target_diamondrectangles.svg	27	yes	44	1	528	0	0			0	0			1				0	
6.6.1	win	2023-06-02	02:13:47	02:22:24	514086	5dbbfa90c486791b1bd03292	3	1	main_z	11	advance_on_keypress_ZEE	108	stimuli_distractor_trianglediamonds.svg	stimuli_target_diamondrectangles.svg	27	yes	57	0	57	0	0			0	0			1				0	
6.6.1	win	2023-06-02	02:13:47	02:22:25	515376	5dbbfa90c486791b1bd03292	3	1	main_z	11	main_z	109	stimuli_distractor_trianglediamonds.svg	stimuli_target_trianglerectangles.svg	25	yes	44	1	611	0	0			0	0			1				0	
6.6.1	win	2023-06-02	02:13:47	02:22:25	515376	5dbbfa90c486791b1bd03292	3	1	main_z	11	advance_on_keypress_ZEE	110	stimuli_distractor_trianglediamonds.svg	stimuli_target_trianglerectangles.svg	25	yes	57	0	62	0	0			0	0			1				0	
6.6.1	win	2023-06-02	02:13:47	02:22:27	517238	5dbbfa90c486791b1bd03292	3	1	main_z	11	main_z	111	stimuli_target_squarediamonds.svg	stimuli_distractor_trianglediamonds.svg	4	yes	44	1	1179	0	0			0	0			1				0	
6.6.1	win	2023-06-02	02:13:47	02:22:27	517238	5dbbfa90c486791b1bd03292	3	1	main_z	11	advance_on_keypress_ZEE	112	stimuli_target_squarediamonds.svg	stimuli_distractor_trianglediamonds.svg	4	yes	57	0	58	0	0			0	0			1				0	
6.6.1	win	2023-06-02	02:13:47	02:22:28	518578	5dbbfa90c486791b1bd03292	3	1	main_z	11	main_z	113	stimuli_distractor_diamondtriangles.svg	stimuli_target_diamondrectangles.svg	31	yes	44	1	659	0	0			0	0			1				0	
6.6.1	win	2023-06-02	02:13:47	02:22:28	518578	5dbbfa90c486791b1bd03292	3	1	main_z	11	advance_on_keypress_ZEE	114	stimuli_distractor_diamondtriangles.svg	stimuli_target_diamondrectangles.svg	31	yes	57	0	65	0	0			0	0			1				0	
6.6.1	win	2023-06-02	02:13:47	02:22:30	519920	5dbbfa90c486791b1bd03292	3	1	main_z	11	main_z	115	stimuli_distractor_diamondtriangles.svg	stimuli_target_diamondsquares.svg	32	yes	44	1	655	0	0			0	0			1				0	
6.6.1	win	2023-06-02	02:13:47	02:22:30	519920	5dbbfa90c486791b1bd03292	3	1	main_z	11	advance_on_keypress_ZEE	116	stimuli_distractor_diamondtriangles.svg	stimuli_target_diamondsquares.svg	32	yes	57	0	82	0	0			0	0			1				0	
6.6.1	win	2023-06-02	02:13:47	02:22:31	521274	5dbbfa90c486791b1bd03292	3	1	main_z	11	main_z	117	stimuli_distractor_diamondtriangles.svg	stimuli_target_trianglerectangles.svg	29	yes	44	1	649	0	0			0	0			1				0	
6.6.1	win	2023-06-02	02:13:47	02:22:31	521274	5dbbfa90c486791b1bd03292	3	1	main_z	11	advance_on_keypress_ZEE	118	stimuli_distractor_diamondtriangles.svg	stimuli_target_trianglerectangles.svg	29	yes	57	0	61	0	0			0	0			1				0	
6.6.1	win	2023-06-02	02:13:47	02:22:33	522677	5dbbfa90c486791b1bd03292	3	1	main_z	11	main_z	119	stimuli_target_trianglesquares.svg	stimuli_distractor_trianglediamonds.svg	18	yes	44	1	720	0	0			0	0			1				0	
6.6.1	win	2023-06-02	02:13:47	02:22:33	522677	5dbbfa90c486791b1bd03292	3	1	main_z	11	advance_on_keypress_ZEE	120	stimuli_target_trianglesquares.svg	stimuli_distractor_trianglediamonds.svg	18	yes	57	0	59	0	0			0	0			1				0	
6.6.1	win	2023-06-02	02:13:47	02:22:35	525358	5dbbfa90c486791b1bd03292	3	1	main_z	11	main_z	121	stimuli_distractor_trianglediamonds.svg	stimuli_distractor_trianglediamonds.svg	33	no	0	1	2000	0	0			0	0			1				0	
6.6.1	win	2023-06-02	02:13:47	02:22:35	525358	5dbbfa90c486791b1bd03292	3	1	main_z	11	advance_on_keypress_ZEE	122	stimuli_distractor_trianglediamonds.svg	stimuli_distractor_trianglediamonds.svg	33	no	57	0	292	0	0			0	0			1				0	
6.6.1	win	2023-06-02	02:13:47	02:22:37	526713	5dbbfa90c486791b1bd03292	3	1	main_z	11	main_z	123	stimuli_distractor_trianglediamonds.svg	stimuli_target_trianglesquares.svg	26	yes	44	1	440	0	0			0	0			1				0	
6.6.1	win	2023-06-02	02:13:47	02:22:37	526713	5dbbfa90c486791b1bd03292	3	1	main_z	11	advance_on_keypress_ZEE	124	stimuli_distractor_trianglediamonds.svg	stimuli_target_trianglesquares.svg	26	yes	57	0	71	0	0			0	0			1				0	
6.6.1	win	2023-06-02	02:13:47	02:22:38	527851	5dbbfa90c486791b1bd03292	3	1	main_z	11	main_z	125	stimuli_target_rectangletriangles.svg	stimuli_distractor_diamondtriangles.svg	5	yes	44	1	445	0	0			0	0			1				0	
6.6.1	win	2023-06-02	02:13:47	02:22:38	527851	5dbbfa90c486791b1bd03292	3	1	main_z	11	advance_on_keypress_ZEE	126	stimuli_target_rectangletriangles.svg	stimuli_distractor_diamondtriangles.svg	5	yes	57	0	53	0	0			0	0			1				0	
6.6.1	win	2023-06-02	02:13:47	02:22:39	529139	5dbbfa90c486791b1bd03292	3	1	main_z	11	main_z	127	stimuli_target_diamondsquares.svg	stimuli_distractor_trianglediamonds.svg	20	yes	44	1	613	0	0			0	0			1				0	
6.6.1	win	2023-06-02	02:13:47	02:22:39	529139	5dbbfa90c486791b1bd03292	3	1	main_z	11	advance_on_keypress_ZEE	128	stimuli_target_diamondsquares.svg	stimuli_distractor_trianglediamonds.svg	20	yes	57	0	30	0	0			0	0			1				0	
6.6.1	win	2023-06-02	02:13:47	02:22:40	530589	5dbbfa90c486791b1bd03292	3	1	main_z	11	main_z	129	stimuli_distractor_trianglediamonds.svg	stimuli_distractor_diamondtriangles.svg	35	no	44	0	797	0	0			0	0			1				0	
6.6.1	win	2023-06-02	02:13:47	02:22:40	530589	5dbbfa90c486791b1bd03292	3	1	main_z	11	advance_on_keypress_ZEE	130	stimuli_distractor_trianglediamonds.svg	stimuli_distractor_diamondtriangles.svg	35	no	57	0	60	0	0			0	0			1				0	
6.6.1	win	2023-06-02	02:13:47	02:22:43	533271	5dbbfa90c486791b1bd03292	3	1	main_z	11	main_z	131	stimuli_target_squarediamonds.svg	stimuli_distractor_diamondtriangles.svg	8	yes	0	0	2000	0	0			0	0			1				0	
6.6.1	win	2023-06-02	02:13:47	02:22:43	533271	5dbbfa90c486791b1bd03292	3	1	main_z	11	advance_on_keypress_ZEE	132	stimuli_target_squarediamonds.svg	stimuli_distractor_diamondtriangles.svg	8	yes	57	0	277	0	0			0	0			1				0	
6.6.1	win	2023-06-02	02:13:47	02:22:46	536171	5dbbfa90c486791b1bd03292	3	1	main_z	11	main_z	133	stimuli_distractor_trianglediamonds.svg	stimuli_distractor_diamondtriangles.svg	36	no	0	1	2000	0	0			0	0			1				0	
6.6.1	win	2023-06-02	02:13:47	02:22:46	536171	5dbbfa90c486791b1bd03292	3	1	main_z	11	advance_on_keypress_ZEE	134	stimuli_distractor_trianglediamonds.svg	stimuli_distractor_diamondtriangles.svg	36	no	57	0	273	0	0			0	0			1				0	
6.6.1	win	2023-06-02	02:13:47	02:22:47	537483	5dbbfa90c486791b1bd03292	3	1	main_z	11	main_z	135	stimuli_target_diamondrectangles.svg	stimuli_distractor_trianglediamonds.svg	19	yes	44	1	416	0	0			0	0			1				0	
6.6.1	win	2023-06-02	02:13:47	02:22:47	537483	5dbbfa90c486791b1bd03292	3	1	main_z	11	advance_on_keypress_ZEE	136	stimuli_target_diamondrectangles.svg	stimuli_distractor_trianglediamonds.svg	19	yes	57	0	79	0	0			0	0			1				0	
6.6.1	win	2023-06-02	02:13:47	02:22:48	538649	5dbbfa90c486791b1bd03292	3	1	main_z	11	main_z	137	stimuli_target_trianglesquares.svg	stimuli_distractor_diamondtriangles.svg	22	yes	44	1	465	0	0			0	0			1				0	
6.6.1	win	2023-06-02	02:13:47	02:22:48	538649	5dbbfa90c486791b1bd03292	3	1	main_z	11	advance_on_keypress_ZEE	138	stimuli_target_trianglesquares.svg	stimuli_distractor_diamondtriangles.svg	22	yes	57	0	55	0	0			0	0			1				0	
6.6.1	win	2023-06-02	02:13:47	02:22:50	539727	5dbbfa90c486791b1bd03292	3	1	main_z	11	main_z	139	stimuli_target_rectanglediamonds.svg	stimuli_distractor_trianglediamonds.svg	2	yes	44	1	400	0	0			0	0			1				0	
6.6.1	win	2023-06-02	02:13:47	02:22:50	539727	5dbbfa90c486791b1bd03292	3	1	main_z	11	advance_on_keypress_ZEE	140	stimuli_target_rectanglediamonds.svg	stimuli_distractor_trianglediamonds.svg	2	yes	57	0	47	0	0			0	0			1				0	
6.6.1	win	2023-06-02	02:13:47	02:22:52	542396	5dbbfa90c486791b1bd03292	3	1	main_z	11	main_z	141	stimuli_distractor_diamondtriangles.svg	stimuli_distractor_trianglediamonds.svg	38	no	0	1	2000	0	0			0	0			1				0	
6.6.1	win	2023-06-02	02:13:47	02:22:52	542396	5dbbfa90c486791b1bd03292	3	1	main_z	11	advance_on_keypress_ZEE	142	stimuli_distractor_diamondtriangles.svg	stimuli_distractor_trianglediamonds.svg	38	no	57	0	280	0	0			0	0			1				0	
6.6.1	win	2023-06-02	02:13:47	02:22:54	543813	5dbbfa90c486791b1bd03292	3	1	main_z	11	main_z	143	stimuli_target_diamondrectangles.svg	stimuli_distractor_diamondtriangles.svg	23	yes	44	1	515	0	0			0	0			1				0	
6.6.1	win	2023-06-02	02:13:47	02:22:54	543813	5dbbfa90c486791b1bd03292	3	1	main_z	11	advance_on_keypress_ZEE	144	stimuli_target_diamondrectangles.svg	stimuli_distractor_diamondtriangles.svg	23	yes	57	0	59	0	0			0	0			1				0	
6.6.1	win	2023-06-02	02:13:47	02:22:55	544905	5dbbfa90c486791b1bd03292	3	1	main_z	11	main_z	145	stimuli_target_trianglerectangles.svg	stimuli_distractor_diamondtriangles.svg	21	yes	44	1	411	0	0			0	0			1				0	
6.6.1	win	2023-06-02	02:13:47	02:22:55	544905	5dbbfa90c486791b1bd03292	3	1	main_z	11	advance_on_keypress_ZEE	146	stimuli_target_trianglerectangles.svg	stimuli_distractor_diamondtriangles.svg	21	yes	57	0	18	0	0			0	0			1				0	
6.6.1	win	2023-06-02	02:13:47	02:22:56	545969	5dbbfa90c486791b1bd03292	3	1	main_z	11	main_z	147	stimuli_distractor_trianglediamonds.svg	stimuli_target_rectanglediamonds.svg	10	yes	44	1	411	0	0			0	0			1				0	
6.6.1	win	2023-06-02	02:13:47	02:22:56	545969	5dbbfa90c486791b1bd03292	3	1	main_z	11	advance_on_keypress_ZEE	148	stimuli_distractor_trianglediamonds.svg	stimuli_target_rectanglediamonds.svg	10	yes	57	0	50	0	0			0	0			1				0	
6.6.1	win	2023-06-02	02:13:47	02:22:58	548641	5dbbfa90c486791b1bd03292	3	1	main_z	11	main_z	149	stimuli_distractor_trianglediamonds.svg	stimuli_distractor_trianglediamonds.svg	34	no	0	1	2000	0	0			0	0			1				0	
6.6.1	win	2023-06-02	02:13:47	02:22:58	548641	5dbbfa90c486791b1bd03292	3	1	main_z	11	advance_on_keypress_ZEE	150	stimuli_distractor_trianglediamonds.svg	stimuli_distractor_trianglediamonds.svg	34	no	57	0	237	0	0			0	0			1				0	
6.6.1	win	2023-06-02	02:13:47	02:23:00	550012	5dbbfa90c486791b1bd03292	3	1	main_z	11	main_z	151	stimuli_target_diamondsquares.svg	stimuli_distractor_diamondtriangles.svg	24	yes	44	1	512	0	0			0	0			1				0	
6.6.1	win	2023-06-02	02:13:47	02:23:00	550012	5dbbfa90c486791b1bd03292	3	1	main_z	11	advance_on_keypress_ZEE	152	stimuli_target_diamondsquares.svg	stimuli_distractor_diamondtriangles.svg	24	yes	57	0	73	0	0			0	0			1				0	
6.6.1	win	2023-06-02	02:13:47	02:23:01	551042	5dbbfa90c486791b1bd03292	3	1	main_z	11	main_z	153	stimuli_target_squaretriangles.svg	stimuli_distractor_trianglediamonds.svg	3	yes	44	1	335	0	0			0	0			1				0	
6.6.1	win	2023-06-02	02:13:47	02:23:01	551042	5dbbfa90c486791b1bd03292	3	1	main_z	11	advance_on_keypress_ZEE	154	stimuli_target_squaretriangles.svg	stimuli_distractor_trianglediamonds.svg	3	yes	57	0	33	0	0			0	0			1				0	
6.6.1	win	2023-06-02	02:13:47	02:23:02	552032	5dbbfa90c486791b1bd03292	3	1	main_z	11	main_z	155	stimuli_distractor_trianglediamonds.svg	stimuli_target_diamondsquares.svg	28	yes	44	1	335	0	0			0	0			1				0	
6.6.1	win	2023-06-02	02:13:47	02:23:02	552032	5dbbfa90c486791b1bd03292	3	1	main_z	11	advance_on_keypress_ZEE	156	stimuli_distractor_trianglediamonds.svg	stimuli_target_diamondsquares.svg	28	yes	57	0	62	0	0			0	0			1				0	
6.6.1	win	2023-06-02	02:13:47	02:23:03	553092	5dbbfa90c486791b1bd03292	3	1	main_z	11	main_z	157	stimuli_distractor_trianglediamonds.svg	stimuli_target_squaretriangles.svg	11	yes	44	1	376	0	0			0	0			1				0	
6.6.1	win	2023-06-02	02:13:47	02:23:03	553092	5dbbfa90c486791b1bd03292	3	1	main_z	11	advance_on_keypress_ZEE	158	stimuli_distractor_trianglediamonds.svg	stimuli_target_squaretriangles.svg	11	yes	57	0	65	0	0			0	0			1				0	
6.6.1	win	2023-06-02	02:13:47	02:23:06	555779	5dbbfa90c486791b1bd03292	3	1	main_z	11	main_z	159	stimuli_distractor_diamondtriangles.svg	stimuli_distractor_diamondtriangles.svg	39	no	0	1	2000	0	0			0	0			1				0	
6.6.1	win	2023-06-02	02:13:47	02:23:06	555779	5dbbfa90c486791b1bd03292	3	1	main_z	11	advance_on_keypress_ZEE	160	stimuli_distractor_diamondtriangles.svg	stimuli_distractor_diamondtriangles.svg	39	no	57	0	262	0	0			0	0			1				0	
6.6.1	win	2023-06-02	02:13:47	02:23:06	555779	5dbbfa90c486791b1bd03292	3	1	headphonecheck_calibration	14	headphonecheck_calibrationIntro	1	stimuli_distractor_diamondtriangles.svg	stimuli_distractor_diamondtriangles.svg	39	no	calibrationButton	0	3025	0	0			0	0			1				0	
6.6.1	win	2023-06-02	02:13:47	02:23:06	555779	5dbbfa90c486791b1bd03292	3	1	headphonecheck_testphase	15	test_collectResponse	3	stimuli_distractor_diamondtriangles.svg	stimuli_distractor_diamondtriangles.svg	39	no	first	1	1452	1	4	antiphase_hc_sio.wav	1	0	0			1				0	
6.6.1	win	2023-06-02	02:13:47	02:23:06	555779	5dbbfa90c486791b1bd03292	3	1	headphonecheck_testphase	15	test_collectResponse	6	stimuli_distractor_diamondtriangles.svg	stimuli_distractor_diamondtriangles.svg	39	no	third	1	1872	2	2	antiphase_hc_ios.wav	3	0	0			1				0	
6.6.1	win	2023-06-02	02:13:47	02:23:06	555779	5dbbfa90c486791b1bd03292	3	1	headphonecheck_testphase	15	test_collectResponse	9	stimuli_distractor_diamondtriangles.svg	stimuli_distractor_diamondtriangles.svg	39	no	second	1	378	3	5	antiphase_hc_osi.wav	2	0	0			1				0	
6.6.1	win	2023-06-02	02:13:47	02:23:06	555779	5dbbfa90c486791b1bd03292	3	1	headphonecheck_testphase	15	test_collectResponse	12	stimuli_distractor_diamondtriangles.svg	stimuli_distractor_diamondtriangles.svg	39	no	second	1	793	4	1	antiphase_hc_iso.wav	2	0	0			1				0	
6.6.1	win	2023-06-02	02:13:47	02:23:06	555779	5dbbfa90c486791b1bd03292	3	1	headphonecheck_testphase	15	test_collectResponse	15	stimuli_distractor_diamondtriangles.svg	stimuli_distractor_diamondtriangles.svg	39	no	third	1	451	5	6	antiphase_hc_ois.wav	3	0	0			1				0	
6.6.1	win	2023-06-02	02:13:47	02:23:06	555779	5dbbfa90c486791b1bd03292	3	1	headphonecheck_testphase	15	test_collectResponse	18	stimuli_distractor_diamondtriangles.svg	stimuli_distractor_diamondtriangles.svg	39	no	first	1	440	6	3	antiphase_hc_soi.wav	1	0	0			1				0	
6.6.1	win	2023-06-02	02:13:47	02:23:06	555779	5dbbfa90c486791b1bd03292	3	1	stereocheck_calibration	17	stereocheck_calibrationIntro	1	stimuli_distractor_diamondtriangles.svg	stimuli_distractor_diamondtriangles.svg	39	no	stereocheck_calibrationButton	0	1234	6	3	antiphase_hc_soi.wav	1	0	0			1				0	
6.6.1	win	2023-06-02	02:13:47	02:23:06	555779	5dbbfa90c486791b1bd03292	3	1	stereocheck_testphase	18	stereocheck_test_collectResponse	3	stimuli_distractor_diamondtriangles.svg	stimuli_distractor_diamondtriangles.svg	39	no	stereocheck_left	1	1556	6	3	antiphase_hc_soi.wav	1	1	3	noise_calib_stim_LEFT.wav	1	1				0	
6.6.1	win	2023-06-02	02:13:47	02:23:06	555779	5dbbfa90c486791b1bd03292	3	1	stereocheck_testphase	18	stereocheck_test_collectResponse	6	stimuli_distractor_diamondtriangles.svg	stimuli_distractor_diamondtriangles.svg	39	no	stereocheck_right	1	396	6	3	antiphase_hc_soi.wav	1	2	4	noise_calib_stim_RIGHT.wav	2	1				0	
6.6.1	win	2023-06-02	02:13:47	02:23:06	555779	5dbbfa90c486791b1bd03292	3	1	stereocheck_testphase	18	stereocheck_test_collectResponse	9	stimuli_distractor_diamondtriangles.svg	stimuli_distractor_diamondtriangles.svg	39	no	stereocheck_left	1	381	6	3	antiphase_hc_soi.wav	1	3	1	noise_calib_stim_LEFT.wav	1	1				0	
6.6.1	win	2023-06-02	02:13:47	02:23:06	555779	5dbbfa90c486791b1bd03292	3	1	stereocheck_testphase	18	stereocheck_test_collectResponse	12	stimuli_distractor_diamondtriangles.svg	stimuli_distractor_diamondtriangles.svg	39	no	stereocheck_right	1	336	6	3	antiphase_hc_soi.wav	1	4	6	noise_calib_stim_RIGHT.wav	2	1				0	
6.6.1	win	2023-06-02	02:13:47	02:23:06	555779	5dbbfa90c486791b1bd03292	3	1	stereocheck_testphase	18	stereocheck_test_collectResponse	15	stimuli_distractor_diamondtriangles.svg	stimuli_distractor_diamondtriangles.svg	39	no	stereocheck_left	1	93	6	3	antiphase_hc_soi.wav	1	5	2	noise_calib_stim_LEFT.wav	1	1				0	
6.6.1	win	2023-06-02	02:13:47	02:23:06	555779	5dbbfa90c486791b1bd03292	3	1	stereocheck_testphase	18	stereocheck_test_collectResponse	18	stimuli_distractor_diamondtriangles.svg	stimuli_distractor_diamondtriangles.svg	39	no	stereocheck_right	1	322	6	3	antiphase_hc_soi.wav	1	6	5	noise_calib_stim_RIGHT.wav	2	1				0	
6.6.1	win	2023-06-02	02:13:47	02:23:06	555779	5dbbfa90c486791b1bd03292	3	1	DL_practice	21	DL_practice	2	stimuli_distractor_diamondtriangles.svg	stimuli_distractor_diamondtriangles.svg	39	no	ba	1	8928	6	3	antiphase_hc_soi.wav	1	6	5	noise_calib_stim_RIGHT.wav	2	1	blb_dichoticlistening_ba-ba.mp3	ba	ba	0	left
6.6.1	win	2023-06-02	02:13:47	02:23:06	555779	5dbbfa90c486791b1bd03292	3	1	DL_practice	21	DL_practice	3	stimuli_distractor_diamondtriangles.svg	stimuli_distractor_diamondtriangles.svg	39	no	pa	1	2572	6	3	antiphase_hc_soi.wav	1	6	5	noise_calib_stim_RIGHT.wav	2	23	blb_dichoticlistening_ka-pa.mp3	ka	pa	1	right
6.6.1	win	2023-06-02	02:13:47	02:23:06	555779	5dbbfa90c486791b1bd03292	3	1	DL_practice	21	DL_practice	4	stimuli_distractor_diamondtriangles.svg	stimuli_distractor_diamondtriangles.svg	39	no	ka	1	1854	6	3	antiphase_hc_soi.wav	1	6	5	noise_calib_stim_RIGHT.wav	2	22	blb_dichoticlistening_ka-ka.mp3	ka	ka	0	left
6.6.1	win	2023-06-02	02:13:47	02:23:06	555779	5dbbfa90c486791b1bd03292	3	1	DL_practice	21	DL_practice	5	stimuli_distractor_diamondtriangles.svg	stimuli_distractor_diamondtriangles.svg	39	no	ga	1	1074	6	3	antiphase_hc_soi.wav	1	6	5	noise_calib_stim_RIGHT.wav	2	15	blb_dichoticlistening_ga-ga.mp3	ga	ga	0	left
6.6.1	win	2023-06-02	02:13:47	02:23:06	555779	5dbbfa90c486791b1bd03292	3	1	DL_practice	21	DL_practice	6	stimuli_distractor_diamondtriangles.svg	stimuli_distractor_diamondtriangles.svg	39	no	da	1	3534	6	3	antiphase_hc_soi.wav	1	6	5	noise_calib_stim_RIGHT.wav	2	7	blb_dichoticlistening_da-ba.mp3	da	ba	1	left
6.6.1	win	2023-06-02	02:13:47	02:23:06	555779	5dbbfa90c486791b1bd03292	3	1	DL_practice	21	DL_practice	7	stimuli_distractor_diamondtriangles.svg	stimuli_distractor_diamondtriangles.svg	39	no	ta	1	1516	6	3	antiphase_hc_soi.wav	1	6	5	noise_calib_stim_RIGHT.wav	2	36	blb_dichoticlistening_ta-ta.mp3	ta	ta	0	left
6.6.1	win	2023-06-02	02:13:47	02:23:06	555779	5dbbfa90c486791b1bd03292	3	1	DL_practice	21	DL_practice	8	stimuli_distractor_diamondtriangles.svg	stimuli_distractor_diamondtriangles.svg	39	no	ga	1	1650	6	3	antiphase_hc_soi.wav	1	6	5	noise_calib_stim_RIGHT.wav	2	18	blb_dichoticlistening_ga-ta.mp3	ga	ta	1	left
6.6.1	win	2023-06-02	02:13:47	02:23:06	555779	5dbbfa90c486791b1bd03292	3	1	DL_practice	21	DL_practice	9	stimuli_distractor_diamondtriangles.svg	stimuli_distractor_diamondtriangles.svg	39	no	ga	0	8111	6	3	antiphase_hc_soi.wav	1	6	5	noise_calib_stim_RIGHT.wav	2	29	blb_dichoticlistening_pa-pa.mp3	pa	pa	0	other
6.6.1	win	2023-06-02	02:13:47	02:23:06	555779	5dbbfa90c486791b1bd03292	3	1	DL_practice	21	DL_practice	10	stimuli_distractor_diamondtriangles.svg	stimuli_distractor_diamondtriangles.svg	39	no	da	1	1368	6	3	antiphase_hc_soi.wav	1	6	5	noise_calib_stim_RIGHT.wav	2	8	blb_dichoticlistening_da-da.mp3	da	da	0	left
6.6.1	win	2023-06-02	02:13:47	02:23:06	555779	5dbbfa90c486791b1bd03292	3	1	DL_test	23	DL_test	1	stimuli_distractor_diamondtriangles.svg	stimuli_distractor_diamondtriangles.svg	39	no	ka	1	1480	6	3	antiphase_hc_soi.wav	1	6	5	noise_calib_stim_RIGHT.wav	2	21	blb_dichoticlistening_ka-ga.mp3	ka	ga	1	left
6.6.1	win	2023-06-02	02:13:47	02:23:06	555779	5dbbfa90c486791b1bd03292	3	1	DL_test	23	DL_test	2	stimuli_distractor_diamondtriangles.svg	stimuli_distractor_diamondtriangles.svg	39	no	ka	1	864	6	3	antiphase_hc_soi.wav	1	6	5	noise_calib_stim_RIGHT.wav	2	24	blb_dichoticlistening_ka-ta.mp3	ka	ta	1	left
6.6.1	win	2023-06-02	02:13:47	02:23:06	555779	5dbbfa90c486791b1bd03292	3	1	DL_test	23	DL_test	3	stimuli_distractor_diamondtriangles.svg	stimuli_distractor_diamondtriangles.svg	39	no	ta	0	1282	6	3	antiphase_hc_soi.wav	1	6	5	noise_calib_stim_RIGHT.wav	2	11	blb_dichoticlistening_da-pa.mp3	da	pa	1	other
6.6.1	win	2023-06-02	02:13:47	02:23:06	555779	5dbbfa90c486791b1bd03292	3	1	DL_test	23	DL_test	4	stimuli_distractor_diamondtriangles.svg	stimuli_distractor_diamondtriangles.svg	39	no	ka	1	1165	6	3	antiphase_hc_soi.wav	1	6	5	noise_calib_stim_RIGHT.wav	2	20	blb_dichoticlistening_ka-da.mp3	ka	da	1	left
6.6.1	win	2023-06-02	02:13:47	02:23:06	555779	5dbbfa90c486791b1bd03292	3	1	DL_test	23	DL_test	5	stimuli_distractor_diamondtriangles.svg	stimuli_distractor_diamondtriangles.svg	39	no	pa	1	1395	6	3	antiphase_hc_soi.wav	1	6	5	noise_calib_stim_RIGHT.wav	2	23	blb_dichoticlistening_ka-pa.mp3	ka	pa	1	right
6.6.1	win	2023-06-02	02:13:47	02:23:06	555779	5dbbfa90c486791b1bd03292	3	1	DL_test	23	DL_test	6	stimuli_distractor_diamondtriangles.svg	stimuli_distractor_diamondtriangles.svg	39	no	ka	1	1021	6	3	antiphase_hc_soi.wav	1	6	5	noise_calib_stim_RIGHT.wav	2	28	blb_dichoticlistening_pa-ka.mp3	pa	ka	1	right
6.6.1	win	2023-06-02	02:13:47	02:23:06	555779	5dbbfa90c486791b1bd03292	3	1	DL_test	23	DL_test	7	stimuli_distractor_diamondtriangles.svg	stimuli_distractor_diamondtriangles.svg	39	no	ga	1	979	6	3	antiphase_hc_soi.wav	1	6	5	noise_calib_stim_RIGHT.wav	2	18	blb_dichoticlistening_ga-ta.mp3	ga	ta	1	left
6.6.1	win	2023-06-02	02:13:47	02:23:06	555779	5dbbfa90c486791b1bd03292	3	1	DL_test	23	DL_test	8	stimuli_distractor_diamondtriangles.svg	stimuli_distractor_diamondtriangles.svg	39	no	da	1	830	6	3	antiphase_hc_soi.wav	1	6	5	noise_calib_stim_RIGHT.wav	2	7	blb_dichoticlistening_da-ba.mp3	da	ba	1	left
6.6.1	win	2023-06-02	02:13:47	02:23:06	555779	5dbbfa90c486791b1bd03292	3	1	DL_test	23	DL_test	9	stimuli_distractor_diamondtriangles.svg	stimuli_distractor_diamondtriangles.svg	39	no	ta	1	1333	6	3	antiphase_hc_soi.wav	1	6	5	noise_calib_stim_RIGHT.wav	2	30	blb_dichoticlistening_pa-ta.mp3	pa	ta	1	right
6.6.1	win	2023-06-02	02:13:47	02:23:06	555779	5dbbfa90c486791b1bd03292	3	1	DL_test	23	DL_test	10	stimuli_distractor_diamondtriangles.svg	stimuli_distractor_diamondtriangles.svg	39	no	ka	1	872	6	3	antiphase_hc_soi.wav	1	6	5	noise_calib_stim_RIGHT.wav	2	22	blb_dichoticlistening_ka-ka.mp3	ka	ka	0	left
6.6.1	win	2023-06-02	02:13:47	02:23:06	555779	5dbbfa90c486791b1bd03292	3	1	DL_test	23	DL_test	11	stimuli_distractor_diamondtriangles.svg	stimuli_distractor_diamondtriangles.svg	39	no	ga	0	857	6	3	antiphase_hc_soi.wav	1	6	5	noise_calib_stim_RIGHT.wav	2	12	blb_dichoticlistening_da-ta.mp3	da	ta	1	other
6.6.1	win	2023-06-02	02:13:47	02:23:06	555779	5dbbfa90c486791b1bd03292	3	1	DL_test	23	DL_test	12	stimuli_distractor_diamondtriangles.svg	stimuli_distractor_diamondtriangles.svg	39	no	pa	1	1239	6	3	antiphase_hc_soi.wav	1	6	5	noise_calib_stim_RIGHT.wav	2	27	blb_dichoticlistening_pa-ga.mp3	pa	ga	1	left
6.6.1	win	2023-06-02	02:13:47	02:23:06	555779	5dbbfa90c486791b1bd03292	3	1	DL_test	23	DL_test	13	stimuli_distractor_diamondtriangles.svg	stimuli_distractor_diamondtriangles.svg	39	no	da	0	1188	6	3	antiphase_hc_soi.wav	1	6	5	noise_calib_stim_RIGHT.wav	2	13	blb_dichoticlistening_ga-ba.mp3	ga	ba	1	other
6.6.1	win	2023-06-02	02:13:47	02:23:06	555779	5dbbfa90c486791b1bd03292	3	1	DL_test	23	DL_test	14	stimuli_distractor_diamondtriangles.svg	stimuli_distractor_diamondtriangles.svg	39	no	ta	1	1798	6	3	antiphase_hc_soi.wav	1	6	5	noise_calib_stim_RIGHT.wav	2	32	blb_dichoticlistening_ta-da.mp3	ta	da	1	left
6.6.1	win	2023-06-02	02:13:47	02:23:06	555779	5dbbfa90c486791b1bd03292	3	1	DL_test	23	DL_test	15	stimuli_distractor_diamondtriangles.svg	stimuli_distractor_diamondtriangles.svg	39	no	ta	0	927	6	3	antiphase_hc_soi.wav	1	6	5	noise_calib_stim_RIGHT.wav	2	10	blb_dichoticlistening_da-ka.mp3	da	ka	1	other
6.6.1	win	2023-06-02	02:13:47	02:23:06	555779	5dbbfa90c486791b1bd03292	3	1	DL_test	23	DL_test	16	stimuli_distractor_diamondtriangles.svg	stimuli_distractor_diamondtriangles.svg	39	no	ta	0	1419	6	3	antiphase_hc_soi.wav	1	6	5	noise_calib_stim_RIGHT.wav	2	17	blb_dichoticlistening_ga-pa.mp3	ga	pa	1	other
6.6.1	win	2023-06-02	02:13:47	02:23:06	555779	5dbbfa90c486791b1bd03292	3	1	DL_test	23	DL_test	17	stimuli_distractor_diamondtriangles.svg	stimuli_distractor_diamondtriangles.svg	39	no	ga	1	1144	6	3	antiphase_hc_soi.wav	1	6	5	noise_calib_stim_RIGHT.wav	2	15	blb_dichoticlistening_ga-ga.mp3	ga	ga	0	left
6.6.1	win	2023-06-02	02:13:47	02:23:06	555779	5dbbfa90c486791b1bd03292	3	1	DL_test	23	DL_test	18	stimuli_distractor_diamondtriangles.svg	stimuli_distractor_diamondtriangles.svg	39	no	ta	1	1251	6	3	antiphase_hc_soi.wav	1	6	5	noise_calib_stim_RIGHT.wav	2	6	blb_dichoticlistening_ba-ta.mp3	ba	ta	1	right
6.6.1	win	2023-06-02	02:13:47	02:23:06	555779	5dbbfa90c486791b1bd03292	3	1	DL_test	23	DL_test	19	stimuli_distractor_diamondtriangles.svg	stimuli_distractor_diamondtriangles.svg	39	no	pa	1	1006	6	3	antiphase_hc_soi.wav	1	6	5	noise_calib_stim_RIGHT.wav	2	25	blb_dichoticlistening_pa-ba.mp3	pa	ba	1	left
6.6.1	win	2023-06-02	02:13:47	02:23:06	555779	5dbbfa90c486791b1bd03292	3	1	DL_test	23	DL_test	20	stimuli_distractor_diamondtriangles.svg	stimuli_distractor_diamondtriangles.svg	39	no	ga	1	1097	6	3	antiphase_hc_soi.wav	1	6	5	noise_calib_stim_RIGHT.wav	2	9	blb_dichoticlistening_da-ga.mp3	da	ga	1	right
6.6.1	win	2023-06-02	02:13:47	02:23:06	555779	5dbbfa90c486791b1bd03292	3	1	DL_test	23	DL_test	21	stimuli_distractor_diamondtriangles.svg	stimuli_distractor_diamondtriangles.svg	39	no	pa	1	899	6	3	antiphase_hc_soi.wav	1	6	5	noise_calib_stim_RIGHT.wav	2	5	blb_dichoticlistening_ba-pa.mp3	ba	pa	1	right
6.6.1	win	2023-06-02	02:13:47	02:23:06	555779	5dbbfa90c486791b1bd03292	3	1	DL_test	23	DL_test	22	stimuli_distractor_diamondtriangles.svg	stimuli_distractor_diamondtriangles.svg	39	no	da	0	1161	6	3	antiphase_hc_soi.wav	1	6	5	noise_calib_stim_RIGHT.wav	2	1	blb_dichoticlistening_ba-ba.mp3	ba	ba	0	other
6.6.1	win	2023-06-02	02:13:47	02:23:06	555779	5dbbfa90c486791b1bd03292	3	1	DL_test	23	DL_test	23	stimuli_distractor_diamondtriangles.svg	stimuli_distractor_diamondtriangles.svg	39	no	ba	1	74	6	3	antiphase_hc_soi.wav	1	6	5	noise_calib_stim_RIGHT.wav	2	31	blb_dichoticlistening_ta-ba.mp3	ta	ba	1	right
6.6.1	win	2023-06-02	02:13:47	02:23:06	555779	5dbbfa90c486791b1bd03292	3	1	DL_test	23	DL_test	24	stimuli_distractor_diamondtriangles.svg	stimuli_distractor_diamondtriangles.svg	39	no	ka	1	1211	6	3	antiphase_hc_soi.wav	1	6	5	noise_calib_stim_RIGHT.wav	2	4	blb_dichoticlistening_ba-ka.mp3	ba	ka	1	right
6.6.1	win	2023-06-02	02:13:47	02:23:06	555779	5dbbfa90c486791b1bd03292	3	1	DL_test	23	DL_test	25	stimuli_distractor_diamondtriangles.svg	stimuli_distractor_diamondtriangles.svg	39	no	ga	1	1507	6	3	antiphase_hc_soi.wav	1	6	5	noise_calib_stim_RIGHT.wav	2	14	blb_dichoticlistening_ga-da.mp3	ga	da	1	left
6.6.1	win	2023-06-02	02:13:47	02:23:06	555779	5dbbfa90c486791b1bd03292	3	1	DL_test	23	DL_test	26	stimuli_distractor_diamondtriangles.svg	stimuli_distractor_diamondtriangles.svg	39	no	ba	1	971	6	3	antiphase_hc_soi.wav	1	6	5	noise_calib_stim_RIGHT.wav	2	2	blb_dichoticlistening_ba-da.mp3	ba	da	1	left
