build	computer.platform	date	time	timestamp	time_elapsed_ms	subject	group	session	blockcode	blocknum	trialcode	trialnum	stimulus_left	stimulus_right	stim_index	target_present	response	correct	latency	headphonecheck_countTestTrials	headphonecheck_index	headphonecheck_testSound	headphonecheck_correctResponse	stereocheck_countTestTrials	stereocheck_index	stereocheck_testSound	stereocheck_correctResponse	DL_index	DL_soundfile	DL_leftSound	DL_rightSound	DL_dualSound	DL_choice
6.6.1	win	2023-06-27	17:08:37	17:11:13	151795	6065d6c60c9d35be7632a6ca	3	1	practice_slash	5	practice_slash	1	stimuli_target_squarediamonds.svg	stimuli_distractor_diamondtriangles.svg	2	yes	53	1	720	0	0			0	0			1				0	
6.6.1	win	2023-06-27	17:08:37	17:11:13	151795	6065d6c60c9d35be7632a6ca	3	1	practice_slash	5	advance_on_keypress_SLASH	2	stimuli_target_squarediamonds.svg	stimuli_distractor_diamondtriangles.svg	2	yes	57	0	871	0	0			0	0			1				0	
6.6.1	win	2023-06-27	17:08:37	17:11:18	156308	6065d6c60c9d35be7632a6ca	3	1	practice_slash	5	practice_slash	3	stimuli_distractor_diamondtriangles.svg	stimuli_distractor_diamondtriangles.svg	13	no	0	1	2000	0	0			0	0			1				0	
6.6.1	win	2023-06-27	17:08:37	17:11:18	156308	6065d6c60c9d35be7632a6ca	3	1	practice_slash	5	advance_on_keypress_SLASH	4	stimuli_distractor_diamondtriangles.svg	stimuli_distractor_diamondtriangles.svg	13	no	57	0	923	0	0			0	0			1				0	
6.6.1	win	2023-06-27	17:08:37	17:11:21	159337	6065d6c60c9d35be7632a6ca	3	1	practice_slash	5	practice_slash	5	stimuli_distractor_trianglediamonds.svg	stimuli_target_squarediamonds.svg	11	yes	53	1	446	0	0			0	0			1				0	
6.6.1	win	2023-06-27	17:08:37	17:11:21	159337	6065d6c60c9d35be7632a6ca	3	1	practice_slash	5	advance_on_keypress_SLASH	6	stimuli_distractor_trianglediamonds.svg	stimuli_target_squarediamonds.svg	11	yes	57	0	779	0	0			0	0			1				0	
6.6.1	win	2023-06-27	17:08:37	17:11:25	163774	6065d6c60c9d35be7632a6ca	3	1	practice_slash	5	practice_slash	7	stimuli_distractor_trianglediamonds.svg	stimuli_distractor_trianglediamonds.svg	15	no	0	1	2000	0	0			0	0			1				0	
6.6.1	win	2023-06-27	17:08:37	17:11:25	163774	6065d6c60c9d35be7632a6ca	3	1	practice_slash	5	advance_on_keypress_SLASH	8	stimuli_distractor_trianglediamonds.svg	stimuli_distractor_trianglediamonds.svg	15	no	57	0	370	0	0			0	0			1				0	
6.6.1	win	2023-06-27	17:08:37	17:11:29	167790	6065d6c60c9d35be7632a6ca	3	1	practice_slash	5	practice_slash	9	stimuli_target_diamondsquares.svg	stimuli_distractor_diamondtriangles.svg	3	yes	0	0	2000	0	0			0	0			1				0	
6.6.1	win	2023-06-27	17:08:37	17:11:29	167790	6065d6c60c9d35be7632a6ca	3	1	practice_slash	5	advance_on_keypress_SLASH	10	stimuli_target_diamondsquares.svg	stimuli_distractor_diamondtriangles.svg	3	yes	57	0	501	0	0			0	0			1				0	
6.6.1	win	2023-06-27	17:08:37	17:11:33	171940	6065d6c60c9d35be7632a6ca	3	1	practice_slash	5	practice_slash	11	stimuli_distractor_diamondtriangles.svg	stimuli_distractor_trianglediamonds.svg	14	no	0	1	2000	0	0			0	0			1				0	
6.6.1	win	2023-06-27	17:08:37	17:11:33	171940	6065d6c60c9d35be7632a6ca	3	1	practice_slash	5	advance_on_keypress_SLASH	12	stimuli_distractor_diamondtriangles.svg	stimuli_distractor_trianglediamonds.svg	14	no	57	0	518	0	0			0	0			1				0	
6.6.1	win	2023-06-27	17:08:37	17:11:37	176105	6065d6c60c9d35be7632a6ca	3	1	practice_slash	5	practice_slash	13	stimuli_distractor_trianglediamonds.svg	stimuli_distractor_diamondtriangles.svg	16	no	0	1	2000	0	0			0	0			1				0	
6.6.1	win	2023-06-27	17:08:37	17:11:37	176105	6065d6c60c9d35be7632a6ca	3	1	practice_slash	5	advance_on_keypress_SLASH	14	stimuli_distractor_trianglediamonds.svg	stimuli_distractor_diamondtriangles.svg	16	no	57	0	385	0	0			0	0			1				0	
6.6.1	win	2023-06-27	17:08:37	17:11:41	179811	6065d6c60c9d35be7632a6ca	3	1	practice_slash	5	practice_slash	15	stimuli_target_rectanglediamonds.svg	stimuli_distractor_trianglediamonds.svg	4	yes	53	1	1670	0	0			0	0			1				0	
6.6.1	win	2023-06-27	17:08:37	17:11:41	179811	6065d6c60c9d35be7632a6ca	3	1	practice_slash	5	advance_on_keypress_SLASH	16	stimuli_target_rectanglediamonds.svg	stimuli_distractor_trianglediamonds.svg	4	yes	57	0	448	0	0			0	0			1				0	
6.6.1	win	2023-06-27	17:08:37	17:11:44	183071	6065d6c60c9d35be7632a6ca	3	1	practice_slash	5	practice_slash	17	stimuli_target_diamondsquares.svg	stimuli_distractor_trianglediamonds.svg	6	yes	53	1	1166	0	0			0	0			1				0	
6.6.1	win	2023-06-27	17:08:37	17:11:44	183071	6065d6c60c9d35be7632a6ca	3	1	practice_slash	5	advance_on_keypress_SLASH	18	stimuli_target_diamondsquares.svg	stimuli_distractor_trianglediamonds.svg	6	yes	57	0	516	0	0			0	0			1				0	
6.6.1	win	2023-06-27	17:08:37	17:11:48	186856	6065d6c60c9d35be7632a6ca	3	1	practice_slash	5	practice_slash	19	stimuli_distractor_diamondtriangles.svg	stimuli_target_diamondrectangles.svg	8	yes	53	1	1620	0	0			0	0			1				0	
6.6.1	win	2023-06-27	17:08:37	17:11:48	186856	6065d6c60c9d35be7632a6ca	3	1	practice_slash	5	advance_on_keypress_SLASH	20	stimuli_distractor_diamondtriangles.svg	stimuli_target_diamondrectangles.svg	8	yes	57	0	643	0	0			0	0			1				0	
6.6.1	win	2023-06-27	17:08:37	17:11:51	190167	6065d6c60c9d35be7632a6ca	3	1	practice_slash	5	practice_slash	21	stimuli_distractor_trianglediamonds.svg	stimuli_target_rectanglediamonds.svg	10	yes	53	1	1030	0	0			0	0			1				0	
6.6.1	win	2023-06-27	17:08:37	17:11:51	190167	6065d6c60c9d35be7632a6ca	3	1	practice_slash	5	advance_on_keypress_SLASH	22	stimuli_distractor_trianglediamonds.svg	stimuli_target_rectanglediamonds.svg	10	yes	57	0	456	0	0			0	0			1				0	
6.6.1	win	2023-06-27	17:08:37	17:11:55	193359	6065d6c60c9d35be7632a6ca	3	1	practice_slash	5	practice_slash	23	stimuli_distractor_trianglediamonds.svg	stimuli_target_diamondrectangles.svg	12	yes	53	1	1089	0	0			0	0			1				0	
6.6.1	win	2023-06-27	17:08:37	17:11:55	193359	6065d6c60c9d35be7632a6ca	3	1	practice_slash	5	advance_on_keypress_SLASH	24	stimuli_distractor_trianglediamonds.svg	stimuli_target_diamondrectangles.svg	12	yes	57	0	367	0	0			0	0			1				0	
6.6.1	win	2023-06-27	17:08:37	17:11:58	196439	6065d6c60c9d35be7632a6ca	3	1	practice_slash	5	practice_slash	25	stimuli_target_rectanglediamonds.svg	stimuli_distractor_diamondtriangles.svg	1	yes	53	1	1070	0	0			0	0			1				0	
6.6.1	win	2023-06-27	17:08:37	17:11:58	196439	6065d6c60c9d35be7632a6ca	3	1	practice_slash	5	advance_on_keypress_SLASH	26	stimuli_target_rectanglediamonds.svg	stimuli_distractor_diamondtriangles.svg	1	yes	57	0	420	0	0			0	0			1				0	
6.6.1	win	2023-06-27	17:08:37	17:12:01	199583	6065d6c60c9d35be7632a6ca	3	1	practice_slash	5	practice_slash	27	stimuli_distractor_diamondtriangles.svg	stimuli_target_rectangletriangles.svg	7	yes	53	1	1081	0	0			0	0			1				0	
6.6.1	win	2023-06-27	17:08:37	17:12:01	199583	6065d6c60c9d35be7632a6ca	3	1	practice_slash	5	advance_on_keypress_SLASH	28	stimuli_distractor_diamondtriangles.svg	stimuli_target_rectangletriangles.svg	7	yes	57	0	183	0	0			0	0			1				0	
6.6.1	win	2023-06-27	17:08:37	17:12:03	202157	6065d6c60c9d35be7632a6ca	3	1	practice_slash	5	practice_slash	29	stimuli_target_squarediamonds.svg	stimuli_distractor_trianglediamonds.svg	5	yes	53	1	739	0	0			0	0			1				0	
6.6.1	win	2023-06-27	17:08:37	17:12:03	202157	6065d6c60c9d35be7632a6ca	3	1	practice_slash	5	advance_on_keypress_SLASH	30	stimuli_target_squarediamonds.svg	stimuli_distractor_trianglediamonds.svg	5	yes	57	0	372	0	0			0	0			1				0	
6.6.1	win	2023-06-27	17:08:37	17:12:07	205297	6065d6c60c9d35be7632a6ca	3	1	practice_slash	5	practice_slash	31	stimuli_distractor_diamondtriangles.svg	stimuli_target_trianglerectangles.svg	9	yes	53	1	1130	0	0			0	0			1				0	
6.6.1	win	2023-06-27	17:08:37	17:12:07	205297	6065d6c60c9d35be7632a6ca	3	1	practice_slash	5	advance_on_keypress_SLASH	32	stimuli_distractor_diamondtriangles.svg	stimuli_target_trianglerectangles.svg	9	yes	57	0	297	0	0			0	0			1				0	
6.6.1	win	2023-06-27	17:08:37	17:12:17	215599	6065d6c60c9d35be7632a6ca	3	1	main_slash	7	main_slash	1	stimuli_target_diamondrectangles.svg	stimuli_distractor_diamondtriangles.svg	23	yes	0	0	2000	0	0			0	0			1				0	
6.6.1	win	2023-06-27	17:08:37	17:12:17	215599	6065d6c60c9d35be7632a6ca	3	1	main_slash	7	advance_on_keypress_SLASH	2	stimuli_target_diamondrectangles.svg	stimuli_distractor_diamondtriangles.svg	23	yes	57	0	607	0	0			0	0			1				0	
6.6.1	win	2023-06-27	17:08:37	17:12:20	218849	6065d6c60c9d35be7632a6ca	3	1	main_slash	7	main_slash	3	stimuli_distractor_diamondtriangles.svg	stimuli_distractor_diamondtriangles.svg	40	no	0	1	2000	0	0			0	0			1				0	
6.6.1	win	2023-06-27	17:08:37	17:12:20	218849	6065d6c60c9d35be7632a6ca	3	1	main_slash	7	advance_on_keypress_SLASH	4	stimuli_distractor_diamondtriangles.svg	stimuli_distractor_diamondtriangles.svg	40	no	57	0	360	0	0			0	0			1				0	
6.6.1	win	2023-06-27	17:08:37	17:12:22	220706	6065d6c60c9d35be7632a6ca	3	1	main_slash	7	main_slash	5	stimuli_distractor_trianglediamonds.svg	stimuli_target_squarediamonds.svg	12	yes	53	1	857	0	0			0	0			1				0	
6.6.1	win	2023-06-27	17:08:37	17:12:22	220706	6065d6c60c9d35be7632a6ca	3	1	main_slash	7	advance_on_keypress_SLASH	6	stimuli_distractor_trianglediamonds.svg	stimuli_target_squarediamonds.svg	12	yes	57	0	1306	0	0			0	0			1				0	
6.6.1	win	2023-06-27	17:08:37	17:12:26	224648	6065d6c60c9d35be7632a6ca	3	1	main_slash	7	main_slash	7	stimuli_distractor_trianglediamonds.svg	stimuli_distractor_trianglediamonds.svg	33	no	0	1	2000	0	0			0	0			1				0	
6.6.1	win	2023-06-27	17:08:37	17:12:26	224648	6065d6c60c9d35be7632a6ca	3	1	main_slash	7	advance_on_keypress_SLASH	8	stimuli_distractor_trianglediamonds.svg	stimuli_distractor_trianglediamonds.svg	33	no	57	0	239	0	0			0	0			1				0	
6.6.1	win	2023-06-27	17:08:37	17:12:28	226454	6065d6c60c9d35be7632a6ca	3	1	main_slash	7	main_slash	9	stimuli_target_trianglerectangles.svg	stimuli_distractor_trianglediamonds.svg	17	yes	53	1	923	0	0			0	0			1				0	
6.6.1	win	2023-06-27	17:08:37	17:12:28	226454	6065d6c60c9d35be7632a6ca	3	1	main_slash	7	advance_on_keypress_SLASH	10	stimuli_target_trianglerectangles.svg	stimuli_distractor_trianglediamonds.svg	17	yes	57	0	612	0	0			0	0			1				0	
6.6.1	win	2023-06-27	17:08:37	17:12:30	228602	6065d6c60c9d35be7632a6ca	3	1	main_slash	7	main_slash	11	stimuli_target_squaretriangles.svg	stimuli_distractor_trianglediamonds.svg	3	yes	53	1	889	0	0			0	0			1				0	
6.6.1	win	2023-06-27	17:08:37	17:12:30	228602	6065d6c60c9d35be7632a6ca	3	1	main_slash	7	advance_on_keypress_SLASH	12	stimuli_target_squaretriangles.svg	stimuli_distractor_trianglediamonds.svg	3	yes	57	0	399	0	0			0	0			1				0	
6.6.1	win	2023-06-27	17:08:37	17:12:33	231647	6065d6c60c9d35be7632a6ca	3	1	main_slash	7	main_slash	13	stimuli_target_diamondsquares.svg	stimuli_distractor_diamondtriangles.svg	24	yes	0	0	2000	0	0			0	0			1				0	
6.6.1	win	2023-06-27	17:08:37	17:12:33	231647	6065d6c60c9d35be7632a6ca	3	1	main_slash	7	advance_on_keypress_SLASH	14	stimuli_target_diamondsquares.svg	stimuli_distractor_diamondtriangles.svg	24	yes	57	0	456	0	0			0	0			1				0	
6.6.1	win	2023-06-27	17:08:37	17:12:35	233482	6065d6c60c9d35be7632a6ca	3	1	main_slash	7	main_slash	15	stimuli_distractor_diamondtriangles.svg	stimuli_target_squarediamonds.svg	16	yes	53	1	735	0	0			0	0			1				0	
6.6.1	win	2023-06-27	17:08:37	17:12:35	233482	6065d6c60c9d35be7632a6ca	3	1	main_slash	7	advance_on_keypress_SLASH	16	stimuli_distractor_diamondtriangles.svg	stimuli_target_squarediamonds.svg	16	yes	57	0	796	0	0			0	0			1				0	
6.6.1	win	2023-06-27	17:08:37	17:12:38	236930	6065d6c60c9d35be7632a6ca	3	1	main_slash	7	main_slash	17	stimuli_distractor_trianglediamonds.svg	stimuli_distractor_trianglediamonds.svg	34	no	0	1	2000	0	0			0	0			1				0	
6.6.1	win	2023-06-27	17:08:37	17:12:38	236930	6065d6c60c9d35be7632a6ca	3	1	main_slash	7	advance_on_keypress_SLASH	18	stimuli_distractor_trianglediamonds.svg	stimuli_distractor_trianglediamonds.svg	34	no	57	0	367	0	0			0	0			1				0	
6.6.1	win	2023-06-27	17:08:37	17:12:40	239144	6065d6c60c9d35be7632a6ca	3	1	main_slash	7	main_slash	19	stimuli_target_trianglesquares.svg	stimuli_distractor_trianglediamonds.svg	18	yes	53	1	1198	0	0			0	0			1				0	
6.6.1	win	2023-06-27	17:08:37	17:12:40	239144	6065d6c60c9d35be7632a6ca	3	1	main_slash	7	advance_on_keypress_SLASH	20	stimuli_target_trianglesquares.svg	stimuli_distractor_trianglediamonds.svg	18	yes	57	0	766	0	0			0	0			1				0	
6.6.1	win	2023-06-27	17:08:37	17:12:43	241429	6065d6c60c9d35be7632a6ca	3	1	main_slash	7	main_slash	21	stimuli_target_rectangletriangles.svg	stimuli_distractor_trianglediamonds.svg	1	yes	53	1	867	0	0			0	0			1				0	
6.6.1	win	2023-06-27	17:08:37	17:12:43	241429	6065d6c60c9d35be7632a6ca	3	1	main_slash	7	advance_on_keypress_SLASH	22	stimuli_target_rectangletriangles.svg	stimuli_distractor_trianglediamonds.svg	1	yes	57	0	447	0	0			0	0			1				0	
6.6.1	win	2023-06-27	17:08:37	17:12:45	243694	6065d6c60c9d35be7632a6ca	3	1	main_slash	7	main_slash	23	stimuli_distractor_trianglediamonds.svg	stimuli_target_trianglesquares.svg	26	yes	53	1	1166	0	0			0	0			1				0	
6.6.1	win	2023-06-27	17:08:37	17:12:45	243694	6065d6c60c9d35be7632a6ca	3	1	main_slash	7	advance_on_keypress_SLASH	24	stimuli_distractor_trianglediamonds.svg	stimuli_target_trianglesquares.svg	26	yes	57	0	305	0	0			0	0			1				0	
6.6.1	win	2023-06-27	17:08:37	17:12:47	245551	6065d6c60c9d35be7632a6ca	3	1	main_slash	7	main_slash	25	stimuli_distractor_trianglediamonds.svg	stimuli_target_rectangletriangles.svg	9	yes	53	1	905	0	0			0	0			1				0	
6.6.1	win	2023-06-27	17:08:37	17:12:47	245551	6065d6c60c9d35be7632a6ca	3	1	main_slash	7	advance_on_keypress_SLASH	26	stimuli_distractor_trianglediamonds.svg	stimuli_target_rectangletriangles.svg	9	yes	57	0	299	0	0			0	0			1				0	
6.6.1	win	2023-06-27	17:08:37	17:12:50	248495	6065d6c60c9d35be7632a6ca	3	1	main_slash	7	main_slash	27	stimuli_distractor_diamondtriangles.svg	stimuli_distractor_diamondtriangles.svg	39	no	0	1	2000	0	0			0	0			1				0	
6.6.1	win	2023-06-27	17:08:37	17:12:50	248495	6065d6c60c9d35be7632a6ca	3	1	main_slash	7	advance_on_keypress_SLASH	28	stimuli_distractor_diamondtriangles.svg	stimuli_distractor_diamondtriangles.svg	39	no	57	0	614	0	0			0	0			1				0	
6.6.1	win	2023-06-27	17:08:37	17:12:52	250831	6065d6c60c9d35be7632a6ca	3	1	main_slash	7	main_slash	29	stimuli_distractor_diamondtriangles.svg	stimuli_target_trianglesquares.svg	30	yes	53	1	1070	0	0			0	0			1				0	
6.6.1	win	2023-06-27	17:08:37	17:12:52	250831	6065d6c60c9d35be7632a6ca	3	1	main_slash	7	advance_on_keypress_SLASH	30	stimuli_distractor_diamondtriangles.svg	stimuli_target_trianglesquares.svg	30	yes	57	0	624	0	0			0	0			1				0	
6.6.1	win	2023-06-27	17:08:37	17:12:54	253043	6065d6c60c9d35be7632a6ca	3	1	main_slash	7	main_slash	31	stimuli_distractor_diamondtriangles.svg	stimuli_target_diamondsquares.svg	32	yes	53	1	948	0	0			0	0			1				0	
6.6.1	win	2023-06-27	17:08:37	17:12:54	253043	6065d6c60c9d35be7632a6ca	3	1	main_slash	7	advance_on_keypress_SLASH	32	stimuli_distractor_diamondtriangles.svg	stimuli_target_diamondsquares.svg	32	yes	57	0	351	0	0			0	0			1				0	
6.6.1	win	2023-06-27	17:08:37	17:12:57	255421	6065d6c60c9d35be7632a6ca	3	1	main_slash	7	main_slash	33	stimuli_target_squarediamonds.svg	stimuli_distractor_trianglediamonds.svg	4	yes	53	1	1376	0	0			0	0			1				0	
6.6.1	win	2023-06-27	17:08:37	17:12:57	255421	6065d6c60c9d35be7632a6ca	3	1	main_slash	7	advance_on_keypress_SLASH	34	stimuli_target_squarediamonds.svg	stimuli_distractor_trianglediamonds.svg	4	yes	57	0	652	0	0			0	0			1				0	
6.6.1	win	2023-06-27	17:08:37	17:12:59	257581	6065d6c60c9d35be7632a6ca	3	1	main_slash	7	main_slash	35	stimuli_target_rectanglediamonds.svg	stimuli_distractor_diamondtriangles.svg	6	yes	53	1	870	0	0			0	0			1				0	
6.6.1	win	2023-06-27	17:08:37	17:12:59	257581	6065d6c60c9d35be7632a6ca	3	1	main_slash	7	advance_on_keypress_SLASH	36	stimuli_target_rectanglediamonds.svg	stimuli_distractor_diamondtriangles.svg	6	yes	57	0	320	0	0			0	0			1				0	
6.6.1	win	2023-06-27	17:08:37	17:13:01	259642	6065d6c60c9d35be7632a6ca	3	1	main_slash	7	main_slash	37	stimuli_distractor_trianglediamonds.svg	stimuli_target_trianglerectangles.svg	25	yes	53	1	1098	0	0			0	0			1				0	
6.6.1	win	2023-06-27	17:08:37	17:13:01	259642	6065d6c60c9d35be7632a6ca	3	1	main_slash	7	advance_on_keypress_SLASH	38	stimuli_distractor_trianglediamonds.svg	stimuli_target_trianglerectangles.svg	25	yes	57	0	316	0	0			0	0			1				0	
6.6.1	win	2023-06-27	17:08:37	17:13:03	261504	6065d6c60c9d35be7632a6ca	3	1	main_slash	7	main_slash	39	stimuli_target_squarediamonds.svg	stimuli_distractor_diamondtriangles.svg	8	yes	53	1	895	0	0			0	0			1				0	
6.6.1	win	2023-06-27	17:08:37	17:13:03	261504	6065d6c60c9d35be7632a6ca	3	1	main_slash	7	advance_on_keypress_SLASH	40	stimuli_target_squarediamonds.svg	stimuli_distractor_diamondtriangles.svg	8	yes	57	0	330	0	0			0	0			1				0	
6.6.1	win	2023-06-27	17:08:37	17:13:05	263435	6065d6c60c9d35be7632a6ca	3	1	main_slash	7	main_slash	41	stimuli_target_rectangletriangles.svg	stimuli_distractor_diamondtriangles.svg	5	yes	53	1	959	0	0			0	0			1				0	
6.6.1	win	2023-06-27	17:08:37	17:13:05	263435	6065d6c60c9d35be7632a6ca	3	1	main_slash	7	advance_on_keypress_SLASH	42	stimuli_target_rectangletriangles.svg	stimuli_distractor_diamondtriangles.svg	5	yes	57	0	367	0	0			0	0			1				0	
6.6.1	win	2023-06-27	17:08:37	17:13:08	266443	6065d6c60c9d35be7632a6ca	3	1	main_slash	7	main_slash	43	stimuli_distractor_diamondtriangles.svg	stimuli_distractor_trianglediamonds.svg	37	no	0	1	2000	0	0			0	0			1				0	
6.6.1	win	2023-06-27	17:08:37	17:13:08	266443	6065d6c60c9d35be7632a6ca	3	1	main_slash	7	advance_on_keypress_SLASH	44	stimuli_distractor_diamondtriangles.svg	stimuli_distractor_trianglediamonds.svg	37	no	57	0	672	0	0			0	0			1				0	
6.6.1	win	2023-06-27	17:08:37	17:13:11	269759	6065d6c60c9d35be7632a6ca	3	1	main_slash	7	main_slash	45	stimuli_target_trianglerectangles.svg	stimuli_distractor_diamondtriangles.svg	21	yes	0	0	2000	0	0			0	0			1				0	
6.6.1	win	2023-06-27	17:08:37	17:13:11	269759	6065d6c60c9d35be7632a6ca	3	1	main_slash	7	advance_on_keypress_SLASH	46	stimuli_target_trianglerectangles.svg	stimuli_distractor_diamondtriangles.svg	21	yes	57	0	388	0	0			0	0			1				0	
6.6.1	win	2023-06-27	17:08:37	17:13:13	271755	6065d6c60c9d35be7632a6ca	3	1	main_slash	7	main_slash	47	stimuli_distractor_diamondtriangles.svg	stimuli_target_rectangletriangles.svg	13	yes	53	1	963	0	0			0	0			1				0	
6.6.1	win	2023-06-27	17:08:37	17:13:13	271755	6065d6c60c9d35be7632a6ca	3	1	main_slash	7	advance_on_keypress_SLASH	48	stimuli_distractor_diamondtriangles.svg	stimuli_target_rectangletriangles.svg	13	yes	57	0	290	0	0			0	0			1				0	
6.6.1	win	2023-06-27	17:08:37	17:13:15	273569	6065d6c60c9d35be7632a6ca	3	1	main_slash	7	main_slash	49	stimuli_distractor_trianglediamonds.svg	stimuli_target_rectanglediamonds.svg	10	yes	53	1	878	0	0			0	0			1				0	
6.6.1	win	2023-06-27	17:08:37	17:13:15	273569	6065d6c60c9d35be7632a6ca	3	1	main_slash	7	advance_on_keypress_SLASH	50	stimuli_distractor_trianglediamonds.svg	stimuli_target_rectanglediamonds.svg	10	yes	57	0	333	0	0			0	0			1				0	
6.6.1	win	2023-06-27	17:08:37	17:13:17	275485	6065d6c60c9d35be7632a6ca	3	1	main_slash	7	main_slash	51	stimuli_distractor_diamondtriangles.svg	stimuli_target_diamondrectangles.svg	31	yes	53	1	945	0	0			0	0			1				0	
6.6.1	win	2023-06-27	17:08:37	17:13:17	275485	6065d6c60c9d35be7632a6ca	3	1	main_slash	7	advance_on_keypress_SLASH	52	stimuli_distractor_diamondtriangles.svg	stimuli_target_diamondrectangles.svg	31	yes	57	0	317	0	0			0	0			1				0	
6.6.1	win	2023-06-27	17:08:37	17:13:20	278441	6065d6c60c9d35be7632a6ca	3	1	main_slash	7	main_slash	53	stimuli_distractor_trianglediamonds.svg	stimuli_distractor_diamondtriangles.svg	35	no	0	1	2000	0	0			0	0			1				0	
6.6.1	win	2023-06-27	17:08:37	17:13:20	278441	6065d6c60c9d35be7632a6ca	3	1	main_slash	7	advance_on_keypress_SLASH	54	stimuli_distractor_trianglediamonds.svg	stimuli_distractor_diamondtriangles.svg	35	no	57	0	490	0	0			0	0			1				0	
6.6.1	win	2023-06-27	17:08:37	17:13:22	280454	6065d6c60c9d35be7632a6ca	3	1	main_slash	7	main_slash	55	stimuli_target_trianglesquares.svg	stimuli_distractor_diamondtriangles.svg	22	yes	53	1	880	0	0			0	0			1				0	
6.6.1	win	2023-06-27	17:08:37	17:13:22	280454	6065d6c60c9d35be7632a6ca	3	1	main_slash	7	advance_on_keypress_SLASH	56	stimuli_target_trianglesquares.svg	stimuli_distractor_diamondtriangles.svg	22	yes	57	0	303	0	0			0	0			1				0	
6.6.1	win	2023-06-27	17:08:37	17:13:24	282333	6065d6c60c9d35be7632a6ca	3	1	main_slash	7	main_slash	57	stimuli_target_diamondsquares.svg	stimuli_distractor_trianglediamonds.svg	20	yes	53	1	926	0	0			0	0			1				0	
6.6.1	win	2023-06-27	17:08:37	17:13:24	282333	6065d6c60c9d35be7632a6ca	3	1	main_slash	7	advance_on_keypress_SLASH	58	stimuli_target_diamondsquares.svg	stimuli_distractor_trianglediamonds.svg	20	yes	57	0	330	0	0			0	0			1				0	
6.6.1	win	2023-06-27	17:08:37	17:13:25	284212	6065d6c60c9d35be7632a6ca	3	1	main_slash	7	main_slash	59	stimuli_distractor_trianglediamonds.svg	stimuli_target_diamondsquares.svg	28	yes	53	1	905	0	0			0	0			1				0	
6.6.1	win	2023-06-27	17:08:37	17:13:25	284212	6065d6c60c9d35be7632a6ca	3	1	main_slash	7	advance_on_keypress_SLASH	60	stimuli_distractor_trianglediamonds.svg	stimuli_target_diamondsquares.svg	28	yes	57	0	319	0	0			0	0			1				0	
6.6.1	win	2023-06-27	17:08:37	17:13:28	287173	6065d6c60c9d35be7632a6ca	3	1	main_slash	7	main_slash	61	stimuli_distractor_trianglediamonds.svg	stimuli_distractor_diamondtriangles.svg	36	no	0	1	2000	0	0			0	0			1				0	
6.6.1	win	2023-06-27	17:08:37	17:13:28	287173	6065d6c60c9d35be7632a6ca	3	1	main_slash	7	advance_on_keypress_SLASH	62	stimuli_distractor_trianglediamonds.svg	stimuli_distractor_diamondtriangles.svg	36	no	57	0	582	0	0			0	0			1				0	
6.6.1	win	2023-06-27	17:08:37	17:13:31	289224	6065d6c60c9d35be7632a6ca	3	1	main_slash	7	main_slash	63	stimuli_target_squaretriangles.svg	stimuli_distractor_diamondtriangles.svg	7	yes	53	1	818	0	0			0	0			1				0	
6.6.1	win	2023-06-27	17:08:37	17:13:31	289224	6065d6c60c9d35be7632a6ca	3	1	main_slash	7	advance_on_keypress_SLASH	64	stimuli_target_squaretriangles.svg	stimuli_distractor_diamondtriangles.svg	7	yes	57	0	357	0	0			0	0			1				0	
6.6.1	win	2023-06-27	17:08:37	17:13:34	292222	6065d6c60c9d35be7632a6ca	3	1	main_slash	7	main_slash	65	stimuli_distractor_diamondtriangles.svg	stimuli_distractor_trianglediamonds.svg	38	no	0	1	2000	0	0			0	0			1				0	
6.6.1	win	2023-06-27	17:08:37	17:13:34	292222	6065d6c60c9d35be7632a6ca	3	1	main_slash	7	advance_on_keypress_SLASH	66	stimuli_distractor_diamondtriangles.svg	stimuli_distractor_trianglediamonds.svg	38	no	57	0	418	0	0			0	0			1				0	
6.6.1	win	2023-06-27	17:08:37	17:13:35	294005	6065d6c60c9d35be7632a6ca	3	1	main_slash	7	main_slash	67	stimuli_target_rectanglediamonds.svg	stimuli_distractor_trianglediamonds.svg	2	yes	53	1	716	0	0			0	0			1				0	
6.6.1	win	2023-06-27	17:08:37	17:13:35	294005	6065d6c60c9d35be7632a6ca	3	1	main_slash	7	advance_on_keypress_SLASH	68	stimuli_target_rectanglediamonds.svg	stimuli_distractor_trianglediamonds.svg	2	yes	57	0	346	0	0			0	0			1				0	
6.6.1	win	2023-06-27	17:08:37	17:13:37	295894	6065d6c60c9d35be7632a6ca	3	1	main_slash	7	main_slash	69	stimuli_distractor_diamondtriangles.svg	stimuli_target_trianglerectangles.svg	29	yes	53	1	889	0	0			0	0			1				0	
6.6.1	win	2023-06-27	17:08:37	17:13:37	295894	6065d6c60c9d35be7632a6ca	3	1	main_slash	7	advance_on_keypress_SLASH	70	stimuli_distractor_diamondtriangles.svg	stimuli_target_trianglerectangles.svg	29	yes	57	0	303	0	0			0	0			1				0	
6.6.1	win	2023-06-27	17:08:37	17:13:39	297587	6065d6c60c9d35be7632a6ca	3	1	main_slash	7	main_slash	71	stimuli_distractor_trianglediamonds.svg	stimuli_target_diamondrectangles.svg	27	yes	53	1	749	0	0			0	0			1				0	
6.6.1	win	2023-06-27	17:08:37	17:13:39	297587	6065d6c60c9d35be7632a6ca	3	1	main_slash	7	advance_on_keypress_SLASH	72	stimuli_distractor_trianglediamonds.svg	stimuli_target_diamondrectangles.svg	27	yes	57	0	288	0	0			0	0			1				0	
6.6.1	win	2023-06-27	17:08:37	17:13:41	299866	6065d6c60c9d35be7632a6ca	3	1	main_slash	7	main_slash	73	stimuli_distractor_diamondtriangles.svg	stimuli_target_rectanglediamonds.svg	14	yes	53	1	1344	0	0			0	0			1				0	
6.6.1	win	2023-06-27	17:08:37	17:13:41	299866	6065d6c60c9d35be7632a6ca	3	1	main_slash	7	advance_on_keypress_SLASH	74	stimuli_distractor_diamondtriangles.svg	stimuli_target_rectanglediamonds.svg	14	yes	57	0	335	0	0			0	0			1				0	
6.6.1	win	2023-06-27	17:08:37	17:13:43	301893	6065d6c60c9d35be7632a6ca	3	1	main_slash	7	main_slash	75	stimuli_target_diamondrectangles.svg	stimuli_distractor_trianglediamonds.svg	19	yes	53	1	1055	0	0			0	0			1				0	
6.6.1	win	2023-06-27	17:08:37	17:13:43	301893	6065d6c60c9d35be7632a6ca	3	1	main_slash	7	advance_on_keypress_SLASH	76	stimuli_target_diamondrectangles.svg	stimuli_distractor_trianglediamonds.svg	19	yes	57	0	265	0	0			0	0			1				0	
6.6.1	win	2023-06-27	17:08:37	17:13:46	304804	6065d6c60c9d35be7632a6ca	3	1	main_slash	7	main_slash	77	stimuli_distractor_diamondtriangles.svg	stimuli_target_squaretriangles.svg	15	yes	0	0	2000	0	0			0	0			1				0	
6.6.1	win	2023-06-27	17:08:37	17:13:46	304804	6065d6c60c9d35be7632a6ca	3	1	main_slash	7	advance_on_keypress_SLASH	78	stimuli_distractor_diamondtriangles.svg	stimuli_target_squaretriangles.svg	15	yes	57	0	348	0	0			0	0			1				0	
6.6.1	win	2023-06-27	17:08:37	17:13:48	306667	6065d6c60c9d35be7632a6ca	3	1	main_slash	7	main_slash	79	stimuli_distractor_trianglediamonds.svg	stimuli_target_squaretriangles.svg	11	yes	53	1	863	0	0			0	0			1				0	
6.6.1	win	2023-06-27	17:08:37	17:13:48	306667	6065d6c60c9d35be7632a6ca	3	1	main_slash	7	advance_on_keypress_SLASH	80	stimuli_distractor_trianglediamonds.svg	stimuli_target_squaretriangles.svg	11	yes	57	0	345	0	0			0	0			1				0	
6.6.1	win	2023-06-27	17:08:37	17:13:50	308535	6065d6c60c9d35be7632a6ca	3	1	main_slash	7	main_slash	81	stimuli_distractor_diamondtriangles.svg	stimuli_target_diamondrectangles.svg	31	yes	53	1	881	0	0			0	0			1				0	
6.6.1	win	2023-06-27	17:08:37	17:13:50	308535	6065d6c60c9d35be7632a6ca	3	1	main_slash	7	advance_on_keypress_SLASH	82	stimuli_distractor_diamondtriangles.svg	stimuli_target_diamondrectangles.svg	31	yes	57	0	288	0	0			0	0			1				0	
6.6.1	win	2023-06-27	17:08:37	17:13:52	310449	6065d6c60c9d35be7632a6ca	3	1	main_slash	7	main_slash	83	stimuli_distractor_diamondtriangles.svg	stimuli_target_rectanglediamonds.svg	14	yes	53	1	980	0	0			0	0			1				0	
6.6.1	win	2023-06-27	17:08:37	17:13:52	310449	6065d6c60c9d35be7632a6ca	3	1	main_slash	7	advance_on_keypress_SLASH	84	stimuli_distractor_diamondtriangles.svg	stimuli_target_rectanglediamonds.svg	14	yes	57	0	292	0	0			0	0			1				0	
6.6.1	win	2023-06-27	17:08:37	17:13:54	312259	6065d6c60c9d35be7632a6ca	3	1	main_slash	7	main_slash	85	stimuli_distractor_trianglediamonds.svg	stimuli_target_rectanglediamonds.svg	10	yes	53	1	872	0	0			0	0			1				0	
6.6.1	win	2023-06-27	17:08:37	17:13:54	312259	6065d6c60c9d35be7632a6ca	3	1	main_slash	7	advance_on_keypress_SLASH	86	stimuli_distractor_trianglediamonds.svg	stimuli_target_rectanglediamonds.svg	10	yes	57	0	283	0	0			0	0			1				0	
6.6.1	win	2023-06-27	17:08:37	17:13:55	314100	6065d6c60c9d35be7632a6ca	3	1	main_slash	7	main_slash	87	stimuli_target_rectangletriangles.svg	stimuli_distractor_trianglediamonds.svg	1	yes	53	1	915	0	0			0	0			1				0	
6.6.1	win	2023-06-27	17:08:37	17:13:55	314100	6065d6c60c9d35be7632a6ca	3	1	main_slash	7	advance_on_keypress_SLASH	88	stimuli_target_rectangletriangles.svg	stimuli_distractor_trianglediamonds.svg	1	yes	57	0	256	0	0			0	0			1				0	
6.6.1	win	2023-06-27	17:08:37	17:13:57	315877	6065d6c60c9d35be7632a6ca	3	1	main_slash	7	main_slash	89	stimuli_distractor_diamondtriangles.svg	stimuli_target_rectangletriangles.svg	13	yes	53	1	875	0	0			0	0			1				0	
6.6.1	win	2023-06-27	17:08:37	17:13:57	315877	6065d6c60c9d35be7632a6ca	3	1	main_slash	7	advance_on_keypress_SLASH	90	stimuli_distractor_diamondtriangles.svg	stimuli_target_rectangletriangles.svg	13	yes	57	0	296	0	0			0	0			1				0	
6.6.1	win	2023-06-27	17:08:37	17:13:59	317593	6065d6c60c9d35be7632a6ca	3	1	main_slash	7	main_slash	91	stimuli_distractor_trianglediamonds.svg	stimuli_target_rectangletriangles.svg	9	yes	53	1	790	0	0			0	0			1				0	
6.6.1	win	2023-06-27	17:08:37	17:13:59	317593	6065d6c60c9d35be7632a6ca	3	1	main_slash	7	advance_on_keypress_SLASH	92	stimuli_distractor_trianglediamonds.svg	stimuli_target_rectangletriangles.svg	9	yes	57	0	367	0	0			0	0			1				0	
6.6.1	win	2023-06-27	17:08:37	17:14:01	319780	6065d6c60c9d35be7632a6ca	3	1	main_slash	7	main_slash	93	stimuli_target_trianglesquares.svg	stimuli_distractor_trianglediamonds.svg	18	yes	53	1	1178	0	0			0	0			1				0	
6.6.1	win	2023-06-27	17:08:37	17:14:01	319780	6065d6c60c9d35be7632a6ca	3	1	main_slash	7	advance_on_keypress_SLASH	94	stimuli_target_trianglesquares.svg	stimuli_distractor_trianglediamonds.svg	18	yes	57	0	251	0	0			0	0			1				0	
6.6.1	win	2023-06-27	17:08:37	17:14:03	321559	6065d6c60c9d35be7632a6ca	3	1	main_slash	7	main_slash	95	stimuli_distractor_diamondtriangles.svg	stimuli_target_diamondsquares.svg	32	yes	53	1	890	0	0			0	0			1				0	
6.6.1	win	2023-06-27	17:08:37	17:14:03	321559	6065d6c60c9d35be7632a6ca	3	1	main_slash	7	advance_on_keypress_SLASH	96	stimuli_distractor_diamondtriangles.svg	stimuli_target_diamondsquares.svg	32	yes	57	0	296	0	0			0	0			1				0	
6.6.1	win	2023-06-27	17:08:37	17:14:06	324502	6065d6c60c9d35be7632a6ca	3	1	main_slash	7	main_slash	97	stimuli_target_diamondsquares.svg	stimuli_distractor_trianglediamonds.svg	20	yes	0	0	2000	0	0			0	0			1				0	
6.6.1	win	2023-06-27	17:08:37	17:14:06	324502	6065d6c60c9d35be7632a6ca	3	1	main_slash	7	advance_on_keypress_SLASH	98	stimuli_target_diamondsquares.svg	stimuli_distractor_trianglediamonds.svg	20	yes	57	0	568	0	0			0	0			1				0	
6.6.1	win	2023-06-27	17:08:37	17:14:08	326645	6065d6c60c9d35be7632a6ca	3	1	main_slash	7	main_slash	99	stimuli_target_diamondsquares.svg	stimuli_distractor_diamondtriangles.svg	24	yes	53	1	927	0	0			0	0			1				0	
6.6.1	win	2023-06-27	17:08:37	17:14:08	326645	6065d6c60c9d35be7632a6ca	3	1	main_slash	7	advance_on_keypress_SLASH	100	stimuli_target_diamondsquares.svg	stimuli_distractor_diamondtriangles.svg	24	yes	57	0	295	0	0			0	0			1				0	
6.6.1	win	2023-06-27	17:08:37	17:14:10	328513	6065d6c60c9d35be7632a6ca	3	1	main_slash	7	main_slash	101	stimuli_distractor_diamondtriangles.svg	stimuli_target_squarediamonds.svg	16	yes	53	1	944	0	0			0	0			1				0	
6.6.1	win	2023-06-27	17:08:37	17:14:10	328513	6065d6c60c9d35be7632a6ca	3	1	main_slash	7	advance_on_keypress_SLASH	102	stimuli_distractor_diamondtriangles.svg	stimuli_target_squarediamonds.svg	16	yes	57	0	326	0	0			0	0			1				0	
6.6.1	win	2023-06-27	17:08:37	17:14:12	330304	6065d6c60c9d35be7632a6ca	3	1	main_slash	7	main_slash	103	stimuli_target_squarediamonds.svg	stimuli_distractor_trianglediamonds.svg	4	yes	53	1	837	0	0			0	0			1				0	
6.6.1	win	2023-06-27	17:08:37	17:14:12	330304	6065d6c60c9d35be7632a6ca	3	1	main_slash	7	advance_on_keypress_SLASH	104	stimuli_target_squarediamonds.svg	stimuli_distractor_trianglediamonds.svg	4	yes	57	0	322	0	0			0	0			1				0	
6.6.1	win	2023-06-27	17:08:37	17:14:14	332427	6065d6c60c9d35be7632a6ca	3	1	main_slash	7	main_slash	105	stimuli_distractor_diamondtriangles.svg	stimuli_target_trianglerectangles.svg	29	yes	53	1	1160	0	0			0	0			1				0	
6.6.1	win	2023-06-27	17:08:37	17:14:14	332427	6065d6c60c9d35be7632a6ca	3	1	main_slash	7	advance_on_keypress_SLASH	106	stimuli_distractor_diamondtriangles.svg	stimuli_target_trianglerectangles.svg	29	yes	57	0	297	0	0			0	0			1				0	
6.6.1	win	2023-06-27	17:08:37	17:14:16	334645	6065d6c60c9d35be7632a6ca	3	1	main_slash	7	main_slash	107	stimuli_distractor_trianglediamonds.svg	stimuli_target_squarediamonds.svg	12	yes	53	1	1279	0	0			0	0			1				0	
6.6.1	win	2023-06-27	17:08:37	17:14:16	334645	6065d6c60c9d35be7632a6ca	3	1	main_slash	7	advance_on_keypress_SLASH	108	stimuli_distractor_trianglediamonds.svg	stimuli_target_squarediamonds.svg	12	yes	57	0	277	0	0			0	0			1				0	
6.6.1	win	2023-06-27	17:08:37	17:14:18	336485	6065d6c60c9d35be7632a6ca	3	1	main_slash	7	main_slash	109	stimuli_target_rectangletriangles.svg	stimuli_distractor_diamondtriangles.svg	5	yes	53	1	936	0	0			0	0			1				0	
6.6.1	win	2023-06-27	17:08:37	17:14:18	336485	6065d6c60c9d35be7632a6ca	3	1	main_slash	7	advance_on_keypress_SLASH	110	stimuli_target_rectangletriangles.svg	stimuli_distractor_diamondtriangles.svg	5	yes	57	0	297	0	0			0	0			1				0	
6.6.1	win	2023-06-27	17:08:37	17:14:21	339433	6065d6c60c9d35be7632a6ca	3	1	main_slash	7	main_slash	111	stimuli_target_trianglerectangles.svg	stimuli_distractor_trianglediamonds.svg	17	yes	0	0	2000	0	0			0	0			1				0	
6.6.1	win	2023-06-27	17:08:37	17:14:21	339433	6065d6c60c9d35be7632a6ca	3	1	main_slash	7	advance_on_keypress_SLASH	112	stimuli_target_trianglerectangles.svg	stimuli_distractor_trianglediamonds.svg	17	yes	57	0	948	0	0			0	0			1				0	
6.6.1	win	2023-06-27	17:08:37	17:14:23	341867	6065d6c60c9d35be7632a6ca	3	1	main_slash	7	main_slash	113	stimuli_target_diamondrectangles.svg	stimuli_distractor_diamondtriangles.svg	23	yes	53	1	834	0	0			0	0			1				0	
6.6.1	win	2023-06-27	17:08:37	17:14:23	341867	6065d6c60c9d35be7632a6ca	3	1	main_slash	7	advance_on_keypress_SLASH	114	stimuli_target_diamondrectangles.svg	stimuli_distractor_diamondtriangles.svg	23	yes	57	0	297	0	0			0	0			1				0	
6.6.1	win	2023-06-27	17:08:37	17:14:26	344816	6065d6c60c9d35be7632a6ca	3	1	main_slash	7	main_slash	115	stimuli_distractor_diamondtriangles.svg	stimuli_distractor_trianglediamonds.svg	37	no	0	1	2000	0	0			0	0			1				0	
6.6.1	win	2023-06-27	17:08:37	17:14:26	344816	6065d6c60c9d35be7632a6ca	3	1	main_slash	7	advance_on_keypress_SLASH	116	stimuli_distractor_diamondtriangles.svg	stimuli_distractor_trianglediamonds.svg	37	no	57	0	560	0	0			0	0			1				0	
6.6.1	win	2023-06-27	17:08:37	17:14:29	348015	6065d6c60c9d35be7632a6ca	3	1	main_slash	7	main_slash	117	stimuli_distractor_trianglediamonds.svg	stimuli_distractor_diamondtriangles.svg	36	no	0	1	2000	0	0			0	0			1				0	
6.6.1	win	2023-06-27	17:08:37	17:14:29	348015	6065d6c60c9d35be7632a6ca	3	1	main_slash	7	advance_on_keypress_SLASH	118	stimuli_distractor_trianglediamonds.svg	stimuli_distractor_diamondtriangles.svg	36	no	57	0	255	0	0			0	0			1				0	
6.6.1	win	2023-06-27	17:08:37	17:14:31	349765	6065d6c60c9d35be7632a6ca	3	1	main_slash	7	main_slash	119	stimuli_target_rectanglediamonds.svg	stimuli_distractor_diamondtriangles.svg	6	yes	53	1	850	0	0			0	0			1				0	
6.6.1	win	2023-06-27	17:08:37	17:14:31	349765	6065d6c60c9d35be7632a6ca	3	1	main_slash	7	advance_on_keypress_SLASH	120	stimuli_target_rectanglediamonds.svg	stimuli_distractor_diamondtriangles.svg	6	yes	57	0	304	0	0			0	0			1				0	
6.6.1	win	2023-06-27	17:08:37	17:14:33	351589	6065d6c60c9d35be7632a6ca	3	1	main_slash	7	main_slash	121	stimuli_distractor_trianglediamonds.svg	stimuli_target_diamondsquares.svg	28	yes	53	1	874	0	0			0	0			1				0	
6.6.1	win	2023-06-27	17:08:37	17:14:33	351589	6065d6c60c9d35be7632a6ca	3	1	main_slash	7	advance_on_keypress_SLASH	122	stimuli_distractor_trianglediamonds.svg	stimuli_target_diamondsquares.svg	28	yes	57	0	300	0	0			0	0			1				0	
6.6.1	win	2023-06-27	17:08:37	17:14:35	353416	6065d6c60c9d35be7632a6ca	3	1	main_slash	7	main_slash	123	stimuli_target_squaretriangles.svg	stimuli_distractor_trianglediamonds.svg	3	yes	53	1	885	0	0			0	0			1				0	
6.6.1	win	2023-06-27	17:08:37	17:14:35	353416	6065d6c60c9d35be7632a6ca	3	1	main_slash	7	advance_on_keypress_SLASH	124	stimuli_target_squaretriangles.svg	stimuli_distractor_trianglediamonds.svg	3	yes	57	0	296	0	0			0	0			1				0	
6.6.1	win	2023-06-27	17:08:37	17:14:38	356348	6065d6c60c9d35be7632a6ca	3	1	main_slash	7	main_slash	125	stimuli_target_trianglesquares.svg	stimuli_distractor_diamondtriangles.svg	22	yes	0	0	2000	0	0			0	0			1				0	
6.6.1	win	2023-06-27	17:08:37	17:14:38	356348	6065d6c60c9d35be7632a6ca	3	1	main_slash	7	advance_on_keypress_SLASH	126	stimuli_target_trianglesquares.svg	stimuli_distractor_diamondtriangles.svg	22	yes	57	0	393	0	0			0	0			1				0	
6.6.1	win	2023-06-27	17:08:37	17:14:40	358263	6065d6c60c9d35be7632a6ca	3	1	main_slash	7	main_slash	127	stimuli_distractor_trianglediamonds.svg	stimuli_target_diamondrectangles.svg	27	yes	53	1	883	0	0			0	0			1				0	
6.6.1	win	2023-06-27	17:08:37	17:14:40	358263	6065d6c60c9d35be7632a6ca	3	1	main_slash	7	advance_on_keypress_SLASH	128	stimuli_distractor_trianglediamonds.svg	stimuli_target_diamondrectangles.svg	27	yes	57	0	276	0	0			0	0			1				0	
6.6.1	win	2023-06-27	17:08:37	17:14:42	361180	6065d6c60c9d35be7632a6ca	3	1	main_slash	7	main_slash	129	stimuli_distractor_diamondtriangles.svg	stimuli_distractor_trianglediamonds.svg	38	no	0	1	2000	0	0			0	0			1				0	
6.6.1	win	2023-06-27	17:08:37	17:14:42	361180	6065d6c60c9d35be7632a6ca	3	1	main_slash	7	advance_on_keypress_SLASH	130	stimuli_distractor_diamondtriangles.svg	stimuli_distractor_trianglediamonds.svg	38	no	57	0	647	0	0			0	0			1				0	
6.6.1	win	2023-06-27	17:08:37	17:14:45	363714	6065d6c60c9d35be7632a6ca	3	1	main_slash	7	main_slash	131	stimuli_distractor_diamondtriangles.svg	stimuli_target_squaretriangles.svg	15	yes	53	1	1234	0	0			0	0			1				0	
6.6.1	win	2023-06-27	17:08:37	17:14:45	363714	6065d6c60c9d35be7632a6ca	3	1	main_slash	7	advance_on_keypress_SLASH	132	stimuli_distractor_diamondtriangles.svg	stimuli_target_squaretriangles.svg	15	yes	57	0	240	0	0			0	0			1				0	
6.6.1	win	2023-06-27	17:08:37	17:14:48	366596	6065d6c60c9d35be7632a6ca	3	1	main_slash	7	main_slash	133	stimuli_target_trianglerectangles.svg	stimuli_distractor_diamondtriangles.svg	21	yes	0	0	2000	0	0			0	0			1				0	
6.6.1	win	2023-06-27	17:08:37	17:14:48	366596	6065d6c60c9d35be7632a6ca	3	1	main_slash	7	advance_on_keypress_SLASH	134	stimuli_target_trianglerectangles.svg	stimuli_distractor_diamondtriangles.svg	21	yes	57	0	396	0	0			0	0			1				0	
6.6.1	win	2023-06-27	17:08:37	17:14:51	369629	6065d6c60c9d35be7632a6ca	3	1	main_slash	7	main_slash	135	stimuli_distractor_trianglediamonds.svg	stimuli_distractor_trianglediamonds.svg	34	no	0	1	2000	0	0			0	0			1				0	
6.6.1	win	2023-06-27	17:08:37	17:14:51	369629	6065d6c60c9d35be7632a6ca	3	1	main_slash	7	advance_on_keypress_SLASH	136	stimuli_distractor_trianglediamonds.svg	stimuli_distractor_trianglediamonds.svg	34	no	57	0	313	0	0			0	0			1				0	
6.6.1	win	2023-06-27	17:08:37	17:14:53	371493	6065d6c60c9d35be7632a6ca	3	1	main_slash	7	main_slash	137	stimuli_target_diamondrectangles.svg	stimuli_distractor_trianglediamonds.svg	19	yes	53	1	898	0	0			0	0			1				0	
6.6.1	win	2023-06-27	17:08:37	17:14:53	371493	6065d6c60c9d35be7632a6ca	3	1	main_slash	7	advance_on_keypress_SLASH	138	stimuli_target_diamondrectangles.svg	stimuli_distractor_trianglediamonds.svg	19	yes	57	0	334	0	0			0	0			1				0	
6.6.1	win	2023-06-27	17:08:37	17:14:56	374479	6065d6c60c9d35be7632a6ca	3	1	main_slash	7	main_slash	139	stimuli_distractor_trianglediamonds.svg	stimuli_distractor_diamondtriangles.svg	35	no	0	1	2000	0	0			0	0			1				0	
6.6.1	win	2023-06-27	17:08:37	17:14:56	374479	6065d6c60c9d35be7632a6ca	3	1	main_slash	7	advance_on_keypress_SLASH	140	stimuli_distractor_trianglediamonds.svg	stimuli_distractor_diamondtriangles.svg	35	no	57	0	410	0	0			0	0			1				0	
6.6.1	win	2023-06-27	17:08:37	17:14:58	376224	6065d6c60c9d35be7632a6ca	3	1	main_slash	7	main_slash	141	stimuli_target_rectanglediamonds.svg	stimuli_distractor_trianglediamonds.svg	2	yes	53	1	696	0	0			0	0			1				0	
6.6.1	win	2023-06-27	17:08:37	17:14:58	376224	6065d6c60c9d35be7632a6ca	3	1	main_slash	7	advance_on_keypress_SLASH	142	stimuli_target_rectanglediamonds.svg	stimuli_distractor_trianglediamonds.svg	2	yes	57	0	314	0	0			0	0			1				0	
6.6.1	win	2023-06-27	17:08:37	17:14:59	378040	6065d6c60c9d35be7632a6ca	3	1	main_slash	7	main_slash	143	stimuli_distractor_trianglediamonds.svg	stimuli_target_squaretriangles.svg	11	yes	53	1	862	0	0			0	0			1				0	
6.6.1	win	2023-06-27	17:08:37	17:14:59	378040	6065d6c60c9d35be7632a6ca	3	1	main_slash	7	advance_on_keypress_SLASH	144	stimuli_distractor_trianglediamonds.svg	stimuli_target_squaretriangles.svg	11	yes	57	0	277	0	0			0	0			1				0	
6.6.1	win	2023-06-27	17:08:37	17:15:01	379798	6065d6c60c9d35be7632a6ca	3	1	main_slash	7	main_slash	145	stimuli_target_squaretriangles.svg	stimuli_distractor_diamondtriangles.svg	7	yes	53	1	854	0	0			0	0			1				0	
6.6.1	win	2023-06-27	17:08:37	17:15:01	379798	6065d6c60c9d35be7632a6ca	3	1	main_slash	7	advance_on_keypress_SLASH	146	stimuli_target_squaretriangles.svg	stimuli_distractor_diamondtriangles.svg	7	yes	57	0	292	0	0			0	0			1				0	
6.6.1	win	2023-06-27	17:08:37	17:15:04	382727	6065d6c60c9d35be7632a6ca	3	1	main_slash	7	main_slash	147	stimuli_distractor_diamondtriangles.svg	stimuli_distractor_diamondtriangles.svg	40	no	0	1	2000	0	0			0	0			1				0	
6.6.1	win	2023-06-27	17:08:37	17:15:04	382727	6065d6c60c9d35be7632a6ca	3	1	main_slash	7	advance_on_keypress_SLASH	148	stimuli_distractor_diamondtriangles.svg	stimuli_distractor_diamondtriangles.svg	40	no	57	0	1569	0	0			0	0			1				0	
6.6.1	win	2023-06-27	17:08:37	17:15:07	385820	6065d6c60c9d35be7632a6ca	3	1	main_slash	7	main_slash	149	stimuli_distractor_trianglediamonds.svg	stimuli_target_trianglerectangles.svg	25	yes	53	1	876	0	0			0	0			1				0	
6.6.1	win	2023-06-27	17:08:37	17:15:07	385820	6065d6c60c9d35be7632a6ca	3	1	main_slash	7	advance_on_keypress_SLASH	150	stimuli_distractor_trianglediamonds.svg	stimuli_target_trianglerectangles.svg	25	yes	57	0	392	0	0			0	0			1				0	
6.6.1	win	2023-06-27	17:08:37	17:15:09	387554	6065d6c60c9d35be7632a6ca	3	1	main_slash	7	main_slash	151	stimuli_distractor_diamondtriangles.svg	stimuli_target_trianglesquares.svg	30	yes	53	1	711	0	0			0	0			1				0	
6.6.1	win	2023-06-27	17:08:37	17:15:09	387554	6065d6c60c9d35be7632a6ca	3	1	main_slash	7	advance_on_keypress_SLASH	152	stimuli_distractor_diamondtriangles.svg	stimuli_target_trianglesquares.svg	30	yes	57	0	324	0	0			0	0			1				0	
6.6.1	win	2023-06-27	17:08:37	17:15:11	389288	6065d6c60c9d35be7632a6ca	3	1	main_slash	7	main_slash	153	stimuli_target_squarediamonds.svg	stimuli_distractor_diamondtriangles.svg	8	yes	53	1	779	0	0			0	0			1				0	
6.6.1	win	2023-06-27	17:08:37	17:15:11	389288	6065d6c60c9d35be7632a6ca	3	1	main_slash	7	advance_on_keypress_SLASH	154	stimuli_target_squarediamonds.svg	stimuli_distractor_diamondtriangles.svg	8	yes	57	0	302	0	0			0	0			1				0	
6.6.1	win	2023-06-27	17:08:37	17:15:12	390913	6065d6c60c9d35be7632a6ca	3	1	main_slash	7	main_slash	155	stimuli_distractor_trianglediamonds.svg	stimuli_target_trianglesquares.svg	26	yes	53	1	687	0	0			0	0			1				0	
6.6.1	win	2023-06-27	17:08:37	17:15:12	390913	6065d6c60c9d35be7632a6ca	3	1	main_slash	7	advance_on_keypress_SLASH	156	stimuli_distractor_trianglediamonds.svg	stimuli_target_trianglesquares.svg	26	yes	57	0	338	0	0			0	0			1				0	
6.6.1	win	2023-06-27	17:08:37	17:15:15	393893	6065d6c60c9d35be7632a6ca	3	1	main_slash	7	main_slash	157	stimuli_distractor_diamondtriangles.svg	stimuli_distractor_diamondtriangles.svg	39	no	0	1	2000	0	0			0	0			1				0	
6.6.1	win	2023-06-27	17:08:37	17:15:15	393893	6065d6c60c9d35be7632a6ca	3	1	main_slash	7	advance_on_keypress_SLASH	158	stimuli_distractor_diamondtriangles.svg	stimuli_distractor_diamondtriangles.svg	39	no	57	0	307	0	0			0	0			1				0	
6.6.1	win	2023-06-27	17:08:37	17:15:18	396842	6065d6c60c9d35be7632a6ca	3	1	main_slash	7	main_slash	159	stimuli_distractor_trianglediamonds.svg	stimuli_distractor_trianglediamonds.svg	33	no	0	1	2000	0	0			0	0			1				0	
6.6.1	win	2023-06-27	17:08:37	17:15:18	396842	6065d6c60c9d35be7632a6ca	3	1	main_slash	7	advance_on_keypress_SLASH	160	stimuli_distractor_trianglediamonds.svg	stimuli_distractor_trianglediamonds.svg	33	no	57	0	287	0	0			0	0			1				0	
6.6.1	win	2023-06-27	17:08:37	17:15:44	422942	6065d6c60c9d35be7632a6ca	3	1	practice_z	9	practice_z	1	stimuli_distractor_diamondtriangles.svg	stimuli_target_diamondrectangles.svg	8	yes	44	1	635	0	0			0	0			1				0	
6.6.1	win	2023-06-27	17:08:37	17:15:44	422942	6065d6c60c9d35be7632a6ca	3	1	practice_z	9	advance_on_keypress_ZEE	2	stimuli_distractor_diamondtriangles.svg	stimuli_target_diamondrectangles.svg	8	yes	57	0	538	0	0			0	0			1				0	
6.6.1	win	2023-06-27	17:08:37	17:15:47	425711	6065d6c60c9d35be7632a6ca	3	1	practice_z	9	practice_z	3	stimuli_distractor_trianglediamonds.svg	stimuli_target_diamondrectangles.svg	12	yes	44	1	589	0	0			0	0			1				0	
6.6.1	win	2023-06-27	17:08:37	17:15:47	425711	6065d6c60c9d35be7632a6ca	3	1	practice_z	9	advance_on_keypress_ZEE	4	stimuli_distractor_trianglediamonds.svg	stimuli_target_diamondrectangles.svg	12	yes	57	0	268	0	0			0	0			1				0	
6.6.1	win	2023-06-27	17:08:37	17:15:50	428420	6065d6c60c9d35be7632a6ca	3	1	practice_z	9	practice_z	5	stimuli_target_diamondsquares.svg	stimuli_distractor_diamondtriangles.svg	3	yes	44	1	798	0	0			0	0			1				0	
6.6.1	win	2023-06-27	17:08:37	17:15:50	428420	6065d6c60c9d35be7632a6ca	3	1	practice_z	9	advance_on_keypress_ZEE	6	stimuli_target_diamondsquares.svg	stimuli_distractor_diamondtriangles.svg	3	yes	57	0	238	0	0			0	0			1				0	
6.6.1	win	2023-06-27	17:08:37	17:15:53	431480	6065d6c60c9d35be7632a6ca	3	1	practice_z	9	practice_z	7	stimuli_distractor_trianglediamonds.svg	stimuli_target_squarediamonds.svg	11	yes	44	1	1175	0	0			0	0			1				0	
6.6.1	win	2023-06-27	17:08:37	17:15:53	431480	6065d6c60c9d35be7632a6ca	3	1	practice_z	9	advance_on_keypress_ZEE	8	stimuli_distractor_trianglediamonds.svg	stimuli_target_squarediamonds.svg	11	yes	57	0	416	0	0			0	0			1				0	
6.6.1	win	2023-06-27	17:08:37	17:15:56	434640	6065d6c60c9d35be7632a6ca	3	1	practice_z	9	practice_z	9	stimuli_target_diamondsquares.svg	stimuli_distractor_trianglediamonds.svg	6	yes	44	1	1101	0	0			0	0			1				0	
6.6.1	win	2023-06-27	17:08:37	17:15:56	434640	6065d6c60c9d35be7632a6ca	3	1	practice_z	9	advance_on_keypress_ZEE	10	stimuli_target_diamondsquares.svg	stimuli_distractor_trianglediamonds.svg	6	yes	57	0	379	0	0			0	0			1				0	
6.6.1	win	2023-06-27	17:08:37	17:16:00	438671	6065d6c60c9d35be7632a6ca	3	1	practice_z	9	practice_z	11	stimuli_distractor_trianglediamonds.svg	stimuli_distractor_diamondtriangles.svg	16	no	0	1	2000	0	0			0	0			1				0	
6.6.1	win	2023-06-27	17:08:37	17:16:00	438671	6065d6c60c9d35be7632a6ca	3	1	practice_z	9	advance_on_keypress_ZEE	12	stimuli_distractor_trianglediamonds.svg	stimuli_distractor_diamondtriangles.svg	16	no	57	0	312	0	0			0	0			1				0	
6.6.1	win	2023-06-27	17:08:37	17:16:04	442621	6065d6c60c9d35be7632a6ca	3	1	practice_z	9	practice_z	13	stimuli_distractor_diamondtriangles.svg	stimuli_distractor_diamondtriangles.svg	13	no	0	1	2000	0	0			0	0			1				0	
6.6.1	win	2023-06-27	17:08:37	17:16:04	442621	6065d6c60c9d35be7632a6ca	3	1	practice_z	9	advance_on_keypress_ZEE	14	stimuli_distractor_diamondtriangles.svg	stimuli_distractor_diamondtriangles.svg	13	no	57	0	243	0	0			0	0			1				0	
6.6.1	win	2023-06-27	17:08:37	17:16:07	445676	6065d6c60c9d35be7632a6ca	3	1	practice_z	9	practice_z	15	stimuli_target_squarediamonds.svg	stimuli_distractor_diamondtriangles.svg	2	yes	44	1	1155	0	0			0	0			1				0	
6.6.1	win	2023-06-27	17:08:37	17:16:07	445676	6065d6c60c9d35be7632a6ca	3	1	practice_z	9	advance_on_keypress_ZEE	16	stimuli_target_squarediamonds.svg	stimuli_distractor_diamondtriangles.svg	2	yes	57	0	523	0	0			0	0			1				0	
6.6.1	win	2023-06-27	17:08:37	17:16:11	449837	6065d6c60c9d35be7632a6ca	3	1	practice_z	9	practice_z	17	stimuli_distractor_diamondtriangles.svg	stimuli_distractor_trianglediamonds.svg	14	no	0	1	2000	0	0			0	0			1				0	
6.6.1	win	2023-06-27	17:08:37	17:16:11	449837	6065d6c60c9d35be7632a6ca	3	1	practice_z	9	advance_on_keypress_ZEE	18	stimuli_distractor_diamondtriangles.svg	stimuli_distractor_trianglediamonds.svg	14	no	57	0	315	0	0			0	0			1				0	
6.6.1	win	2023-06-27	17:08:37	17:16:15	453803	6065d6c60c9d35be7632a6ca	3	1	practice_z	9	practice_z	19	stimuli_distractor_trianglediamonds.svg	stimuli_distractor_trianglediamonds.svg	15	no	0	1	2000	0	0			0	0			1				0	
6.6.1	win	2023-06-27	17:08:37	17:16:15	453803	6065d6c60c9d35be7632a6ca	3	1	practice_z	9	advance_on_keypress_ZEE	20	stimuli_distractor_trianglediamonds.svg	stimuli_distractor_trianglediamonds.svg	15	no	57	0	295	0	0			0	0			1				0	
6.6.1	win	2023-06-27	17:08:37	17:16:18	456563	6065d6c60c9d35be7632a6ca	3	1	practice_z	9	practice_z	21	stimuli_target_rectanglediamonds.svg	stimuli_distractor_trianglediamonds.svg	4	yes	44	1	810	0	0			0	0			1				0	
6.6.1	win	2023-06-27	17:08:37	17:16:18	456563	6065d6c60c9d35be7632a6ca	3	1	practice_z	9	advance_on_keypress_ZEE	22	stimuli_target_rectanglediamonds.svg	stimuli_distractor_trianglediamonds.svg	4	yes	57	0	391	0	0			0	0			1				0	
6.6.1	win	2023-06-27	17:08:37	17:16:21	459389	6065d6c60c9d35be7632a6ca	3	1	practice_z	9	practice_z	23	stimuli_target_rectanglediamonds.svg	stimuli_distractor_diamondtriangles.svg	1	yes	44	1	788	0	0			0	0			1				0	
6.6.1	win	2023-06-27	17:08:37	17:16:21	459389	6065d6c60c9d35be7632a6ca	3	1	practice_z	9	advance_on_keypress_ZEE	24	stimuli_target_rectanglediamonds.svg	stimuli_distractor_diamondtriangles.svg	1	yes	57	0	418	0	0			0	0			1				0	
6.6.1	win	2023-06-27	17:08:37	17:16:23	462181	6065d6c60c9d35be7632a6ca	3	1	practice_z	9	practice_z	25	stimuli_distractor_diamondtriangles.svg	stimuli_target_trianglerectangles.svg	9	yes	44	1	729	0	0			0	0			1				0	
6.6.1	win	2023-06-27	17:08:37	17:16:23	462181	6065d6c60c9d35be7632a6ca	3	1	practice_z	9	advance_on_keypress_ZEE	26	stimuli_distractor_diamondtriangles.svg	stimuli_target_trianglerectangles.svg	9	yes	57	0	442	0	0			0	0			1				0	
6.6.1	win	2023-06-27	17:08:37	17:16:26	465065	6065d6c60c9d35be7632a6ca	3	1	practice_z	9	practice_z	27	stimuli_distractor_diamondtriangles.svg	stimuli_target_rectangletriangles.svg	7	yes	44	1	797	0	0			0	0			1				0	
6.6.1	win	2023-06-27	17:08:37	17:16:26	465065	6065d6c60c9d35be7632a6ca	3	1	practice_z	9	advance_on_keypress_ZEE	28	stimuli_distractor_diamondtriangles.svg	stimuli_target_rectangletriangles.svg	7	yes	57	0	524	0	0			0	0			1				0	
6.6.1	win	2023-06-27	17:08:37	17:16:29	468047	6065d6c60c9d35be7632a6ca	3	1	practice_z	9	practice_z	29	stimuli_distractor_trianglediamonds.svg	stimuli_target_rectanglediamonds.svg	10	yes	44	1	813	0	0			0	0			1				0	
6.6.1	win	2023-06-27	17:08:37	17:16:29	468047	6065d6c60c9d35be7632a6ca	3	1	practice_z	9	advance_on_keypress_ZEE	30	stimuli_distractor_trianglediamonds.svg	stimuli_target_rectanglediamonds.svg	10	yes	57	0	429	0	0			0	0			1				0	
6.6.1	win	2023-06-27	17:08:37	17:16:32	470961	6065d6c60c9d35be7632a6ca	3	1	practice_z	9	practice_z	31	stimuli_target_squarediamonds.svg	stimuli_distractor_trianglediamonds.svg	5	yes	44	1	828	0	0			0	0			1				0	
6.6.1	win	2023-06-27	17:08:37	17:16:32	470961	6065d6c60c9d35be7632a6ca	3	1	practice_z	9	advance_on_keypress_ZEE	32	stimuli_target_squarediamonds.svg	stimuli_distractor_trianglediamonds.svg	5	yes	57	0	449	0	0			0	0			1				0	
6.6.1	win	2023-06-27	17:08:37	17:16:38	476565	6065d6c60c9d35be7632a6ca	3	1	main_z	11	main_z	1	stimuli_target_diamondrectangles.svg	stimuli_distractor_diamondtriangles.svg	23	yes	0	0	2000	0	0			0	0			1				0	
6.6.1	win	2023-06-27	17:08:37	17:16:38	476565	6065d6c60c9d35be7632a6ca	3	1	main_z	11	advance_on_keypress_ZEE	2	stimuli_target_diamondrectangles.svg	stimuli_distractor_diamondtriangles.svg	23	yes	57	0	715	0	0			0	0			1				0	
6.6.1	win	2023-06-27	17:08:37	17:16:40	478707	6065d6c60c9d35be7632a6ca	3	1	main_z	11	main_z	3	stimuli_distractor_diamondtriangles.svg	stimuli_target_rectangletriangles.svg	13	yes	44	1	776	0	0			0	0			1				0	
6.6.1	win	2023-06-27	17:08:37	17:16:40	478707	6065d6c60c9d35be7632a6ca	3	1	main_z	11	advance_on_keypress_ZEE	4	stimuli_distractor_diamondtriangles.svg	stimuli_target_rectangletriangles.svg	13	yes	57	0	612	0	0			0	0			1				0	
6.6.1	win	2023-06-27	17:08:37	17:16:42	480615	6065d6c60c9d35be7632a6ca	3	1	main_z	11	main_z	5	stimuli_target_rectangletriangles.svg	stimuli_distractor_diamondtriangles.svg	5	yes	44	1	667	0	0			0	0			1				0	
6.6.1	win	2023-06-27	17:08:37	17:16:42	480615	6065d6c60c9d35be7632a6ca	3	1	main_z	11	advance_on_keypress_ZEE	6	stimuli_target_rectangletriangles.svg	stimuli_distractor_diamondtriangles.svg	5	yes	57	0	371	0	0			0	0			1				0	
6.6.1	win	2023-06-27	17:08:37	17:16:43	482194	6065d6c60c9d35be7632a6ca	3	1	main_z	11	main_z	7	stimuli_distractor_trianglediamonds.svg	stimuli_target_rectanglediamonds.svg	10	yes	44	1	563	0	0			0	0			1				0	
6.6.1	win	2023-06-27	17:08:37	17:16:43	482194	6065d6c60c9d35be7632a6ca	3	1	main_z	11	advance_on_keypress_ZEE	8	stimuli_distractor_trianglediamonds.svg	stimuli_target_rectanglediamonds.svg	10	yes	57	0	404	0	0			0	0			1				0	
6.6.1	win	2023-06-27	17:08:37	17:16:45	483966	6065d6c60c9d35be7632a6ca	3	1	main_z	11	main_z	9	stimuli_distractor_trianglediamonds.svg	stimuli_target_squaretriangles.svg	11	yes	44	1	718	0	0			0	0			1				0	
6.6.1	win	2023-06-27	17:08:37	17:16:45	483966	6065d6c60c9d35be7632a6ca	3	1	main_z	11	advance_on_keypress_ZEE	10	stimuli_distractor_trianglediamonds.svg	stimuli_target_squaretriangles.svg	11	yes	57	0	408	0	0			0	0			1				0	
6.6.1	win	2023-06-27	17:08:37	17:16:47	485956	6065d6c60c9d35be7632a6ca	3	1	main_z	11	main_z	11	stimuli_distractor_trianglediamonds.svg	stimuli_target_diamondsquares.svg	28	yes	44	1	941	0	0			0	0			1				0	
6.6.1	win	2023-06-27	17:08:37	17:16:47	485956	6065d6c60c9d35be7632a6ca	3	1	main_z	11	advance_on_keypress_ZEE	12	stimuli_distractor_trianglediamonds.svg	stimuli_target_diamondsquares.svg	28	yes	57	0	358	0	0			0	0			1				0	
6.6.1	win	2023-06-27	17:08:37	17:16:49	487954	6065d6c60c9d35be7632a6ca	3	1	main_z	11	main_z	13	stimuli_distractor_diamondtriangles.svg	stimuli_target_trianglerectangles.svg	29	yes	44	1	1007	0	0			0	0			1				0	
6.6.1	win	2023-06-27	17:08:37	17:16:49	487954	6065d6c60c9d35be7632a6ca	3	1	main_z	11	advance_on_keypress_ZEE	14	stimuli_distractor_diamondtriangles.svg	stimuli_target_trianglerectangles.svg	29	yes	57	0	351	0	0			0	0			1				0	
6.6.1	win	2023-06-27	17:08:37	17:16:52	490947	6065d6c60c9d35be7632a6ca	3	1	main_z	11	main_z	15	stimuli_distractor_diamondtriangles.svg	stimuli_distractor_trianglediamonds.svg	38	no	0	1	2000	0	0			0	0			1				0	
6.6.1	win	2023-06-27	17:08:37	17:16:52	490947	6065d6c60c9d35be7632a6ca	3	1	main_z	11	advance_on_keypress_ZEE	16	stimuli_distractor_diamondtriangles.svg	stimuli_distractor_trianglediamonds.svg	38	no	57	0	309	0	0			0	0			1				0	
6.6.1	win	2023-06-27	17:08:37	17:16:54	492790	6065d6c60c9d35be7632a6ca	3	1	main_z	11	main_z	17	stimuli_distractor_diamondtriangles.svg	stimuli_target_squarediamonds.svg	16	yes	44	1	894	0	0			0	0			1				0	
6.6.1	win	2023-06-27	17:08:37	17:16:54	492790	6065d6c60c9d35be7632a6ca	3	1	main_z	11	advance_on_keypress_ZEE	18	stimuli_distractor_diamondtriangles.svg	stimuli_target_squarediamonds.svg	16	yes	57	0	362	0	0			0	0			1				0	
6.6.1	win	2023-06-27	17:08:37	17:16:56	494476	6065d6c60c9d35be7632a6ca	3	1	main_z	11	main_z	19	stimuli_distractor_diamondtriangles.svg	stimuli_target_diamondrectangles.svg	31	yes	44	1	697	0	0			0	0			1				0	
6.6.1	win	2023-06-27	17:08:37	17:16:56	494476	6065d6c60c9d35be7632a6ca	3	1	main_z	11	advance_on_keypress_ZEE	20	stimuli_distractor_diamondtriangles.svg	stimuli_target_diamondrectangles.svg	31	yes	57	0	327	0	0			0	0			1				0	
6.6.1	win	2023-06-27	17:08:37	17:16:58	496336	6065d6c60c9d35be7632a6ca	3	1	main_z	11	main_z	21	stimuli_target_rectangletriangles.svg	stimuli_distractor_trianglediamonds.svg	1	yes	44	1	890	0	0			0	0			1				0	
6.6.1	win	2023-06-27	17:08:37	17:16:58	496336	6065d6c60c9d35be7632a6ca	3	1	main_z	11	advance_on_keypress_ZEE	22	stimuli_target_rectangletriangles.svg	stimuli_distractor_trianglediamonds.svg	1	yes	57	0	368	0	0			0	0			1				0	
6.6.1	win	2023-06-27	17:08:37	17:17:01	499346	6065d6c60c9d35be7632a6ca	3	1	main_z	11	main_z	23	stimuli_distractor_trianglediamonds.svg	stimuli_distractor_diamondtriangles.svg	36	no	0	1	2000	0	0			0	0			1				0	
6.6.1	win	2023-06-27	17:08:37	17:17:01	499346	6065d6c60c9d35be7632a6ca	3	1	main_z	11	advance_on_keypress_ZEE	24	stimuli_distractor_trianglediamonds.svg	stimuli_distractor_diamondtriangles.svg	36	no	57	0	411	0	0			0	0			1				0	
6.6.1	win	2023-06-27	17:08:37	17:17:02	501152	6065d6c60c9d35be7632a6ca	3	1	main_z	11	main_z	25	stimuli_distractor_trianglediamonds.svg	stimuli_target_trianglerectangles.svg	25	yes	44	1	756	0	0			0	0			1				0	
6.6.1	win	2023-06-27	17:08:37	17:17:02	501152	6065d6c60c9d35be7632a6ca	3	1	main_z	11	advance_on_keypress_ZEE	26	stimuli_distractor_trianglediamonds.svg	stimuli_target_trianglerectangles.svg	25	yes	57	0	419	0	0			0	0			1				0	
6.6.1	win	2023-06-27	17:08:37	17:17:04	503032	6065d6c60c9d35be7632a6ca	3	1	main_z	11	main_z	27	stimuli_distractor_diamondtriangles.svg	stimuli_target_squaretriangles.svg	15	yes	44	1	820	0	0			0	0			1				0	
6.6.1	win	2023-06-27	17:08:37	17:17:04	503032	6065d6c60c9d35be7632a6ca	3	1	main_z	11	advance_on_keypress_ZEE	28	stimuli_distractor_diamondtriangles.svg	stimuli_target_squaretriangles.svg	15	yes	57	0	323	0	0			0	0			1				0	
6.6.1	win	2023-06-27	17:08:37	17:17:06	504752	6065d6c60c9d35be7632a6ca	3	1	main_z	11	main_z	29	stimuli_distractor_diamondtriangles.svg	stimuli_target_diamondsquares.svg	32	yes	44	1	758	0	0			0	0			1				0	
6.6.1	win	2023-06-27	17:08:37	17:17:06	504752	6065d6c60c9d35be7632a6ca	3	1	main_z	11	advance_on_keypress_ZEE	30	stimuli_distractor_diamondtriangles.svg	stimuli_target_diamondsquares.svg	32	yes	57	0	349	0	0			0	0			1				0	
6.6.1	win	2023-06-27	17:08:37	17:17:08	506707	6065d6c60c9d35be7632a6ca	3	1	main_z	11	main_z	31	stimuli_target_trianglesquares.svg	stimuli_distractor_trianglediamonds.svg	18	yes	44	1	962	0	0			0	0			1				0	
6.6.1	win	2023-06-27	17:08:37	17:17:08	506707	6065d6c60c9d35be7632a6ca	3	1	main_z	11	advance_on_keypress_ZEE	32	stimuli_target_trianglesquares.svg	stimuli_distractor_trianglediamonds.svg	18	yes	57	0	317	0	0			0	0			1				0	
6.6.1	win	2023-06-27	17:08:37	17:17:10	508512	6065d6c60c9d35be7632a6ca	3	1	main_z	11	main_z	33	stimuli_distractor_trianglediamonds.svg	stimuli_target_diamondrectangles.svg	27	yes	44	1	851	0	0			0	0			1				0	
6.6.1	win	2023-06-27	17:08:37	17:17:10	508512	6065d6c60c9d35be7632a6ca	3	1	main_z	11	advance_on_keypress_ZEE	34	stimuli_distractor_trianglediamonds.svg	stimuli_target_diamondrectangles.svg	27	yes	57	0	326	0	0			0	0			1				0	
6.6.1	win	2023-06-27	17:08:37	17:17:12	510251	6065d6c60c9d35be7632a6ca	3	1	main_z	11	main_z	35	stimuli_target_diamondsquares.svg	stimuli_distractor_diamondtriangles.svg	24	yes	44	1	774	0	0			0	0			1				0	
6.6.1	win	2023-06-27	17:08:37	17:17:12	510251	6065d6c60c9d35be7632a6ca	3	1	main_z	11	advance_on_keypress_ZEE	36	stimuli_target_diamondsquares.svg	stimuli_distractor_diamondtriangles.svg	24	yes	57	0	314	0	0			0	0			1				0	
6.6.1	win	2023-06-27	17:08:37	17:17:14	513210	6065d6c60c9d35be7632a6ca	3	1	main_z	11	main_z	37	stimuli_distractor_trianglediamonds.svg	stimuli_distractor_trianglediamonds.svg	33	no	0	1	2000	0	0			0	0			1				0	
6.6.1	win	2023-06-27	17:08:37	17:17:14	513210	6065d6c60c9d35be7632a6ca	3	1	main_z	11	advance_on_keypress_ZEE	38	stimuli_distractor_trianglediamonds.svg	stimuli_distractor_trianglediamonds.svg	33	no	57	0	811	0	0			0	0			1				0	
6.6.1	win	2023-06-27	17:08:37	17:17:18	516677	6065d6c60c9d35be7632a6ca	3	1	main_z	11	main_z	39	stimuli_distractor_diamondtriangles.svg	stimuli_distractor_diamondtriangles.svg	39	no	0	1	2000	0	0			0	0			1				0	
6.6.1	win	2023-06-27	17:08:37	17:17:18	516677	6065d6c60c9d35be7632a6ca	3	1	main_z	11	advance_on_keypress_ZEE	40	stimuli_distractor_diamondtriangles.svg	stimuli_distractor_diamondtriangles.svg	39	no	57	0	294	0	0			0	0			1				0	
6.6.1	win	2023-06-27	17:08:37	17:17:20	518387	6065d6c60c9d35be7632a6ca	3	1	main_z	11	main_z	41	stimuli_target_trianglerectangles.svg	stimuli_distractor_diamondtriangles.svg	21	yes	44	1	777	0	0			0	0			1				0	
6.6.1	win	2023-06-27	17:08:37	17:17:20	518387	6065d6c60c9d35be7632a6ca	3	1	main_z	11	advance_on_keypress_ZEE	42	stimuli_target_trianglerectangles.svg	stimuli_distractor_diamondtriangles.svg	21	yes	57	0	319	0	0			0	0			1				0	
6.6.1	win	2023-06-27	17:08:37	17:17:21	520194	6065d6c60c9d35be7632a6ca	3	1	main_z	11	main_z	43	stimuli_distractor_diamondtriangles.svg	stimuli_target_rectanglediamonds.svg	14	yes	44	1	851	0	0			0	0			1				0	
6.6.1	win	2023-06-27	17:08:37	17:17:21	520194	6065d6c60c9d35be7632a6ca	3	1	main_z	11	advance_on_keypress_ZEE	44	stimuli_distractor_diamondtriangles.svg	stimuli_target_rectanglediamonds.svg	14	yes	57	0	266	0	0			0	0			1				0	
6.6.1	win	2023-06-27	17:08:37	17:17:23	521603	6065d6c60c9d35be7632a6ca	3	1	main_z	11	main_z	45	stimuli_distractor_diamondtriangles.svg	stimuli_target_trianglesquares.svg	30	yes	44	1	494	0	0			0	0			1				0	
6.6.1	win	2023-06-27	17:08:37	17:17:23	521603	6065d6c60c9d35be7632a6ca	3	1	main_z	11	advance_on_keypress_ZEE	46	stimuli_distractor_diamondtriangles.svg	stimuli_target_trianglesquares.svg	30	yes	57	0	309	0	0			0	0			1				0	
6.6.1	win	2023-06-27	17:08:37	17:17:25	523326	6065d6c60c9d35be7632a6ca	3	1	main_z	11	main_z	47	stimuli_distractor_trianglediamonds.svg	stimuli_target_rectangletriangles.svg	9	yes	44	1	783	0	0			0	0			1				0	
6.6.1	win	2023-06-27	17:08:37	17:17:25	523326	6065d6c60c9d35be7632a6ca	3	1	main_z	11	advance_on_keypress_ZEE	48	stimuli_distractor_trianglediamonds.svg	stimuli_target_rectangletriangles.svg	9	yes	57	0	303	0	0			0	0			1				0	
6.6.1	win	2023-06-27	17:08:37	17:17:26	524888	6065d6c60c9d35be7632a6ca	3	1	main_z	11	main_z	49	stimuli_target_trianglerectangles.svg	stimuli_distractor_trianglediamonds.svg	17	yes	44	1	613	0	0			0	0			1				0	
6.6.1	win	2023-06-27	17:08:37	17:17:26	524888	6065d6c60c9d35be7632a6ca	3	1	main_z	11	advance_on_keypress_ZEE	50	stimuli_target_trianglerectangles.svg	stimuli_distractor_trianglediamonds.svg	17	yes	57	0	291	0	0			0	0			1				0	
6.6.1	win	2023-06-27	17:08:37	17:17:28	526506	6065d6c60c9d35be7632a6ca	3	1	main_z	11	main_z	51	stimuli_distractor_trianglediamonds.svg	stimuli_target_squarediamonds.svg	12	yes	44	1	681	0	0			0	0			1				0	
6.6.1	win	2023-06-27	17:08:37	17:17:28	526506	6065d6c60c9d35be7632a6ca	3	1	main_z	11	advance_on_keypress_ZEE	52	stimuli_distractor_trianglediamonds.svg	stimuli_target_squarediamonds.svg	12	yes	57	0	289	0	0			0	0			1				0	
6.6.1	win	2023-06-27	17:08:37	17:17:29	528163	6065d6c60c9d35be7632a6ca	3	1	main_z	11	main_z	53	stimuli_target_trianglesquares.svg	stimuli_distractor_diamondtriangles.svg	22	yes	44	1	722	0	0			0	0			1				0	
6.6.1	win	2023-06-27	17:08:37	17:17:29	528163	6065d6c60c9d35be7632a6ca	3	1	main_z	11	advance_on_keypress_ZEE	54	stimuli_target_trianglesquares.svg	stimuli_distractor_diamondtriangles.svg	22	yes	57	0	350	0	0			0	0			1				0	
6.6.1	win	2023-06-27	17:08:37	17:17:32	531159	6065d6c60c9d35be7632a6ca	3	1	main_z	11	main_z	55	stimuli_distractor_diamondtriangles.svg	stimuli_distractor_trianglediamonds.svg	37	no	0	1	2000	0	0			0	0			1				0	
6.6.1	win	2023-06-27	17:08:37	17:17:32	531159	6065d6c60c9d35be7632a6ca	3	1	main_z	11	advance_on_keypress_ZEE	56	stimuli_distractor_diamondtriangles.svg	stimuli_distractor_trianglediamonds.svg	37	no	57	0	521	0	0			0	0			1				0	
6.6.1	win	2023-06-27	17:08:37	17:17:36	534325	6065d6c60c9d35be7632a6ca	3	1	main_z	11	main_z	57	stimuli_distractor_trianglediamonds.svg	stimuli_distractor_diamondtriangles.svg	35	no	0	1	2000	0	0			0	0			1				0	
6.6.1	win	2023-06-27	17:08:37	17:17:36	534325	6065d6c60c9d35be7632a6ca	3	1	main_z	11	advance_on_keypress_ZEE	58	stimuli_distractor_trianglediamonds.svg	stimuli_distractor_diamondtriangles.svg	35	no	57	0	535	0	0			0	0			1				0	
6.6.1	win	2023-06-27	17:08:37	17:17:38	536277	6065d6c60c9d35be7632a6ca	3	1	main_z	11	main_z	59	stimuli_target_squarediamonds.svg	stimuli_distractor_diamondtriangles.svg	8	yes	44	1	769	0	0			0	0			1				0	
6.6.1	win	2023-06-27	17:08:37	17:17:38	536277	6065d6c60c9d35be7632a6ca	3	1	main_z	11	advance_on_keypress_ZEE	60	stimuli_target_squarediamonds.svg	stimuli_distractor_diamondtriangles.svg	8	yes	57	0	292	0	0			0	0			1				0	
6.6.1	win	2023-06-27	17:08:37	17:17:40	539207	6065d6c60c9d35be7632a6ca	3	1	main_z	11	main_z	61	stimuli_distractor_trianglediamonds.svg	stimuli_distractor_trianglediamonds.svg	34	no	0	1	2000	0	0			0	0			1				0	
6.6.1	win	2023-06-27	17:08:37	17:17:40	539207	6065d6c60c9d35be7632a6ca	3	1	main_z	11	advance_on_keypress_ZEE	62	stimuli_distractor_trianglediamonds.svg	stimuli_distractor_trianglediamonds.svg	34	no	57	0	495	0	0			0	0			1				0	
6.6.1	win	2023-06-27	17:08:37	17:17:43	541451	6065d6c60c9d35be7632a6ca	3	1	main_z	11	main_z	63	stimuli_distractor_trianglediamonds.svg	stimuli_target_trianglesquares.svg	26	yes	44	1	1111	0	0			0	0			1				0	
6.6.1	win	2023-06-27	17:08:37	17:17:43	541451	6065d6c60c9d35be7632a6ca	3	1	main_z	11	advance_on_keypress_ZEE	64	stimuli_distractor_trianglediamonds.svg	stimuli_target_trianglesquares.svg	26	yes	57	0	298	0	0			0	0			1				0	
6.6.1	win	2023-06-27	17:08:37	17:17:46	544390	6065d6c60c9d35be7632a6ca	3	1	main_z	11	main_z	65	stimuli_distractor_diamondtriangles.svg	stimuli_distractor_diamondtriangles.svg	40	no	0	1	2000	0	0			0	0			1				0	
6.6.1	win	2023-06-27	17:08:37	17:17:46	544390	6065d6c60c9d35be7632a6ca	3	1	main_z	11	advance_on_keypress_ZEE	66	stimuli_distractor_diamondtriangles.svg	stimuli_distractor_diamondtriangles.svg	40	no	57	0	268	0	0			0	0			1				0	
6.6.1	win	2023-06-27	17:08:37	17:17:48	546306	6065d6c60c9d35be7632a6ca	3	1	main_z	11	main_z	67	stimuli_target_rectanglediamonds.svg	stimuli_distractor_trianglediamonds.svg	2	yes	44	1	1000	0	0			0	0			1				0	
6.6.1	win	2023-06-27	17:08:37	17:17:48	546306	6065d6c60c9d35be7632a6ca	3	1	main_z	11	advance_on_keypress_ZEE	68	stimuli_target_rectanglediamonds.svg	stimuli_distractor_trianglediamonds.svg	2	yes	57	0	325	0	0			0	0			1				0	
6.6.1	win	2023-06-27	17:08:37	17:17:49	547915	6065d6c60c9d35be7632a6ca	3	1	main_z	11	main_z	69	stimuli_target_squarediamonds.svg	stimuli_distractor_trianglediamonds.svg	4	yes	44	1	643	0	0			0	0			1				0	
6.6.1	win	2023-06-27	17:08:37	17:17:49	547915	6065d6c60c9d35be7632a6ca	3	1	main_z	11	advance_on_keypress_ZEE	70	stimuli_target_squarediamonds.svg	stimuli_distractor_trianglediamonds.svg	4	yes	57	0	354	0	0			0	0			1				0	
6.6.1	win	2023-06-27	17:08:37	17:17:51	549570	6065d6c60c9d35be7632a6ca	3	1	main_z	11	main_z	71	stimuli_target_rectanglediamonds.svg	stimuli_distractor_diamondtriangles.svg	6	yes	44	1	665	0	0			0	0			1				0	
6.6.1	win	2023-06-27	17:08:37	17:17:51	549570	6065d6c60c9d35be7632a6ca	3	1	main_z	11	advance_on_keypress_ZEE	72	stimuli_target_rectanglediamonds.svg	stimuli_distractor_diamondtriangles.svg	6	yes	57	0	320	0	0			0	0			1				0	
6.6.1	win	2023-06-27	17:08:37	17:17:52	551111	6065d6c60c9d35be7632a6ca	3	1	main_z	11	main_z	73	stimuli_target_squaretriangles.svg	stimuli_distractor_diamondtriangles.svg	7	yes	44	1	572	0	0			0	0			1				0	
6.6.1	win	2023-06-27	17:08:37	17:17:52	551111	6065d6c60c9d35be7632a6ca	3	1	main_z	11	advance_on_keypress_ZEE	74	stimuli_target_squaretriangles.svg	stimuli_distractor_diamondtriangles.svg	7	yes	57	0	331	0	0			0	0			1				0	
6.6.1	win	2023-06-27	17:08:37	17:17:54	552788	6065d6c60c9d35be7632a6ca	3	1	main_z	11	main_z	75	stimuli_target_squaretriangles.svg	stimuli_distractor_trianglediamonds.svg	3	yes	44	1	700	0	0			0	0			1				0	
6.6.1	win	2023-06-27	17:08:37	17:17:54	552788	6065d6c60c9d35be7632a6ca	3	1	main_z	11	advance_on_keypress_ZEE	76	stimuli_target_squaretriangles.svg	stimuli_distractor_trianglediamonds.svg	3	yes	57	0	292	0	0			0	0			1				0	
6.6.1	win	2023-06-27	17:08:37	17:17:56	554536	6065d6c60c9d35be7632a6ca	3	1	main_z	11	main_z	77	stimuli_target_diamondsquares.svg	stimuli_distractor_trianglediamonds.svg	20	yes	44	1	814	0	0			0	0			1				0	
6.6.1	win	2023-06-27	17:08:37	17:17:56	554536	6065d6c60c9d35be7632a6ca	3	1	main_z	11	advance_on_keypress_ZEE	78	stimuli_target_diamondsquares.svg	stimuli_distractor_trianglediamonds.svg	20	yes	57	0	323	0	0			0	0			1				0	
6.6.1	win	2023-06-27	17:08:37	17:17:58	556327	6065d6c60c9d35be7632a6ca	3	1	main_z	11	main_z	79	stimuli_target_diamondrectangles.svg	stimuli_distractor_trianglediamonds.svg	19	yes	44	1	822	0	0			0	0			1				0	
6.6.1	win	2023-06-27	17:08:37	17:17:58	556327	6065d6c60c9d35be7632a6ca	3	1	main_z	11	advance_on_keypress_ZEE	80	stimuli_target_diamondrectangles.svg	stimuli_distractor_trianglediamonds.svg	19	yes	57	0	290	0	0			0	0			1				0	
6.6.1	win	2023-06-27	17:08:37	17:18:01	559255	6065d6c60c9d35be7632a6ca	3	1	main_z	11	main_z	81	stimuli_distractor_diamondtriangles.svg	stimuli_distractor_diamondtriangles.svg	39	no	0	1	2000	0	0			0	0			1				0	
6.6.1	win	2023-06-27	17:08:37	17:18:01	559255	6065d6c60c9d35be7632a6ca	3	1	main_z	11	advance_on_keypress_ZEE	82	stimuli_distractor_diamondtriangles.svg	stimuli_distractor_diamondtriangles.svg	39	no	57	0	451	0	0			0	0			1				0	
6.6.1	win	2023-06-27	17:08:37	17:18:02	560941	6065d6c60c9d35be7632a6ca	3	1	main_z	11	main_z	83	stimuli_target_diamondsquares.svg	stimuli_distractor_diamondtriangles.svg	24	yes	44	1	586	0	0			0	0			1				0	
6.6.1	win	2023-06-27	17:08:37	17:18:02	560941	6065d6c60c9d35be7632a6ca	3	1	main_z	11	advance_on_keypress_ZEE	84	stimuli_target_diamondsquares.svg	stimuli_distractor_diamondtriangles.svg	24	yes	57	0	316	0	0			0	0			1				0	
6.6.1	win	2023-06-27	17:08:37	17:18:04	562459	6065d6c60c9d35be7632a6ca	3	1	main_z	11	main_z	85	stimuli_distractor_trianglediamonds.svg	stimuli_target_squarediamonds.svg	12	yes	44	1	555	0	0			0	0			1				0	
6.6.1	win	2023-06-27	17:08:37	17:18:04	562459	6065d6c60c9d35be7632a6ca	3	1	main_z	11	advance_on_keypress_ZEE	86	stimuli_distractor_trianglediamonds.svg	stimuli_target_squarediamonds.svg	12	yes	57	0	319	0	0			0	0			1				0	
6.6.1	win	2023-06-27	17:08:37	17:18:05	563900	6065d6c60c9d35be7632a6ca	3	1	main_z	11	main_z	87	stimuli_target_trianglesquares.svg	stimuli_distractor_diamondtriangles.svg	22	yes	44	1	479	0	0			0	0			1				0	
6.6.1	win	2023-06-27	17:08:37	17:18:05	563900	6065d6c60c9d35be7632a6ca	3	1	main_z	11	advance_on_keypress_ZEE	88	stimuli_target_trianglesquares.svg	stimuli_distractor_diamondtriangles.svg	22	yes	57	0	322	0	0			0	0			1				0	
6.6.1	win	2023-06-27	17:08:37	17:18:07	565288	6065d6c60c9d35be7632a6ca	3	1	main_z	11	main_z	89	stimuli_distractor_trianglediamonds.svg	stimuli_target_diamondrectangles.svg	27	yes	44	1	435	0	0			0	0			1				0	
6.6.1	win	2023-06-27	17:08:37	17:18:07	565288	6065d6c60c9d35be7632a6ca	3	1	main_z	11	advance_on_keypress_ZEE	90	stimuli_distractor_trianglediamonds.svg	stimuli_target_diamondrectangles.svg	27	yes	57	0	294	0	0			0	0			1				0	
6.6.1	win	2023-06-27	17:08:37	17:18:08	566627	6065d6c60c9d35be7632a6ca	3	1	main_z	11	main_z	91	stimuli_distractor_trianglediamonds.svg	stimuli_target_trianglerectangles.svg	25	yes	44	1	408	0	0			0	0			1				0	
6.6.1	win	2023-06-27	17:08:37	17:18:08	566627	6065d6c60c9d35be7632a6ca	3	1	main_z	11	advance_on_keypress_ZEE	92	stimuli_distractor_trianglediamonds.svg	stimuli_target_trianglerectangles.svg	25	yes	57	0	385	0	0			0	0			1				0	
6.6.1	win	2023-06-27	17:08:37	17:18:09	568123	6065d6c60c9d35be7632a6ca	3	1	main_z	11	main_z	93	stimuli_target_rectangletriangles.svg	stimuli_distractor_trianglediamonds.svg	1	yes	44	1	469	0	0			0	0			1				0	
6.6.1	win	2023-06-27	17:08:37	17:18:09	568123	6065d6c60c9d35be7632a6ca	3	1	main_z	11	advance_on_keypress_ZEE	94	stimuli_target_rectangletriangles.svg	stimuli_distractor_trianglediamonds.svg	1	yes	57	0	336	0	0			0	0			1				0	
6.6.1	win	2023-06-27	17:08:37	17:18:11	569562	6065d6c60c9d35be7632a6ca	3	1	main_z	11	main_z	95	stimuli_distractor_trianglediamonds.svg	stimuli_target_diamondsquares.svg	28	yes	44	1	459	0	0			0	0			1				0	
6.6.1	win	2023-06-27	17:08:37	17:18:11	569562	6065d6c60c9d35be7632a6ca	3	1	main_z	11	advance_on_keypress_ZEE	96	stimuli_distractor_trianglediamonds.svg	stimuli_target_diamondsquares.svg	28	yes	57	0	316	0	0			0	0			1				0	
6.6.1	win	2023-06-27	17:08:37	17:18:14	572520	6065d6c60c9d35be7632a6ca	3	1	main_z	11	main_z	97	stimuli_target_diamondrectangles.svg	stimuli_distractor_trianglediamonds.svg	19	yes	0	0	2000	0	0			0	0			1				0	
6.6.1	win	2023-06-27	17:08:37	17:18:14	572520	6065d6c60c9d35be7632a6ca	3	1	main_z	11	advance_on_keypress_ZEE	98	stimuli_target_diamondrectangles.svg	stimuli_distractor_trianglediamonds.svg	19	yes	57	0	426	0	0			0	0			1				0	
6.6.1	win	2023-06-27	17:08:37	17:18:16	574414	6065d6c60c9d35be7632a6ca	3	1	main_z	11	main_z	99	stimuli_target_squaretriangles.svg	stimuli_distractor_diamondtriangles.svg	7	yes	44	1	828	0	0			0	0			1				0	
6.6.1	win	2023-06-27	17:08:37	17:18:16	574414	6065d6c60c9d35be7632a6ca	3	1	main_z	11	advance_on_keypress_ZEE	100	stimuli_target_squaretriangles.svg	stimuli_distractor_diamondtriangles.svg	7	yes	57	0	331	0	0			0	0			1				0	
6.6.1	win	2023-06-27	17:08:37	17:18:17	575956	6065d6c60c9d35be7632a6ca	3	1	main_z	11	main_z	101	stimuli_distractor_diamondtriangles.svg	stimuli_target_rectanglediamonds.svg	14	yes	44	1	570	0	0			0	0			1				0	
6.6.1	win	2023-06-27	17:08:37	17:18:17	575956	6065d6c60c9d35be7632a6ca	3	1	main_z	11	advance_on_keypress_ZEE	102	stimuli_distractor_diamondtriangles.svg	stimuli_target_rectanglediamonds.svg	14	yes	57	0	309	0	0			0	0			1				0	
6.6.1	win	2023-06-27	17:08:37	17:18:19	577695	6065d6c60c9d35be7632a6ca	3	1	main_z	11	main_z	103	stimuli_distractor_trianglediamonds.svg	stimuli_target_squaretriangles.svg	11	yes	44	1	793	0	0			0	0			1				0	
6.6.1	win	2023-06-27	17:08:37	17:18:19	577695	6065d6c60c9d35be7632a6ca	3	1	main_z	11	advance_on_keypress_ZEE	104	stimuli_distractor_trianglediamonds.svg	stimuli_target_squaretriangles.svg	11	yes	57	0	358	0	0			0	0			1				0	
6.6.1	win	2023-06-27	17:08:37	17:18:21	579554	6065d6c60c9d35be7632a6ca	3	1	main_z	11	main_z	105	stimuli_distractor_diamondtriangles.svg	stimuli_target_rectangletriangles.svg	13	yes	44	1	868	0	0			0	0			1				0	
6.6.1	win	2023-06-27	17:08:37	17:18:21	579554	6065d6c60c9d35be7632a6ca	3	1	main_z	11	advance_on_keypress_ZEE	106	stimuli_distractor_diamondtriangles.svg	stimuli_target_rectangletriangles.svg	13	yes	57	0	277	0	0			0	0			1				0	
6.6.1	win	2023-06-27	17:08:37	17:18:23	581716	6065d6c60c9d35be7632a6ca	3	1	main_z	11	main_z	107	stimuli_target_diamondsquares.svg	stimuli_distractor_trianglediamonds.svg	20	yes	44	1	1247	0	0			0	0			1				0	
6.6.1	win	2023-06-27	17:08:37	17:18:23	581716	6065d6c60c9d35be7632a6ca	3	1	main_z	11	advance_on_keypress_ZEE	108	stimuli_target_diamondsquares.svg	stimuli_distractor_trianglediamonds.svg	20	yes	57	0	289	0	0			0	0			1				0	
6.6.1	win	2023-06-27	17:08:37	17:18:25	583418	6065d6c60c9d35be7632a6ca	3	1	main_z	11	main_z	109	stimuli_distractor_diamondtriangles.svg	stimuli_target_diamondrectangles.svg	31	yes	44	1	767	0	0			0	0			1				0	
6.6.1	win	2023-06-27	17:08:37	17:18:25	583418	6065d6c60c9d35be7632a6ca	3	1	main_z	11	advance_on_keypress_ZEE	110	stimuli_distractor_diamondtriangles.svg	stimuli_target_diamondrectangles.svg	31	yes	57	0	291	0	0			0	0			1				0	
6.6.1	win	2023-06-27	17:08:37	17:18:26	584915	6065d6c60c9d35be7632a6ca	3	1	main_z	11	main_z	111	stimuli_distractor_trianglediamonds.svg	stimuli_target_rectanglediamonds.svg	10	yes	44	1	565	0	0			0	0			1				0	
6.6.1	win	2023-06-27	17:08:37	17:18:26	584915	6065d6c60c9d35be7632a6ca	3	1	main_z	11	advance_on_keypress_ZEE	112	stimuli_distractor_trianglediamonds.svg	stimuli_target_rectanglediamonds.svg	10	yes	57	0	302	0	0			0	0			1				0	
6.6.1	win	2023-06-27	17:08:37	17:18:28	586460	6065d6c60c9d35be7632a6ca	3	1	main_z	11	main_z	113	stimuli_target_rectangletriangles.svg	stimuli_distractor_diamondtriangles.svg	5	yes	44	1	592	0	0			0	0			1				0	
6.6.1	win	2023-06-27	17:08:37	17:18:28	586460	6065d6c60c9d35be7632a6ca	3	1	main_z	11	advance_on_keypress_ZEE	114	stimuli_target_rectangletriangles.svg	stimuli_distractor_diamondtriangles.svg	5	yes	57	0	317	0	0			0	0			1				0	
6.6.1	win	2023-06-27	17:08:37	17:18:30	588269	6065d6c60c9d35be7632a6ca	3	1	main_z	11	main_z	115	stimuli_target_trianglesquares.svg	stimuli_distractor_trianglediamonds.svg	18	yes	44	1	851	0	0			0	0			1				0	
6.6.1	win	2023-06-27	17:08:37	17:18:30	588269	6065d6c60c9d35be7632a6ca	3	1	main_z	11	advance_on_keypress_ZEE	116	stimuli_target_trianglesquares.svg	stimuli_distractor_trianglediamonds.svg	18	yes	57	0	298	0	0			0	0			1				0	
6.6.1	win	2023-06-27	17:08:37	17:18:33	591217	6065d6c60c9d35be7632a6ca	3	1	main_z	11	main_z	117	stimuli_distractor_trianglediamonds.svg	stimuli_distractor_diamondtriangles.svg	35	no	0	1	2000	0	0			0	0			1				0	
6.6.1	win	2023-06-27	17:08:37	17:18:33	591217	6065d6c60c9d35be7632a6ca	3	1	main_z	11	advance_on_keypress_ZEE	118	stimuli_distractor_trianglediamonds.svg	stimuli_distractor_diamondtriangles.svg	35	no	57	0	276	0	0			0	0			1				0	
6.6.1	win	2023-06-27	17:08:37	17:18:34	592776	6065d6c60c9d35be7632a6ca	3	1	main_z	11	main_z	119	stimuli_target_squaretriangles.svg	stimuli_distractor_trianglediamonds.svg	3	yes	44	1	626	0	0			0	0			1				0	
6.6.1	win	2023-06-27	17:08:37	17:18:34	592776	6065d6c60c9d35be7632a6ca	3	1	main_z	11	advance_on_keypress_ZEE	120	stimuli_target_squaretriangles.svg	stimuli_distractor_trianglediamonds.svg	3	yes	57	0	285	0	0			0	0			1				0	
6.6.1	win	2023-06-27	17:08:37	17:18:36	594333	6065d6c60c9d35be7632a6ca	3	1	main_z	11	main_z	121	stimuli_distractor_diamondtriangles.svg	stimuli_target_diamondsquares.svg	32	yes	44	1	632	0	0			0	0			1				0	
6.6.1	win	2023-06-27	17:08:37	17:18:36	594333	6065d6c60c9d35be7632a6ca	3	1	main_z	11	advance_on_keypress_ZEE	122	stimuli_distractor_diamondtriangles.svg	stimuli_target_diamondsquares.svg	32	yes	57	0	297	0	0			0	0			1				0	
6.6.1	win	2023-06-27	17:08:37	17:18:39	597283	6065d6c60c9d35be7632a6ca	3	1	main_z	11	main_z	123	stimuli_target_trianglerectangles.svg	stimuli_distractor_diamondtriangles.svg	21	yes	0	0	2000	0	0			0	0			1				0	
6.6.1	win	2023-06-27	17:08:37	17:18:39	597283	6065d6c60c9d35be7632a6ca	3	1	main_z	11	advance_on_keypress_ZEE	124	stimuli_target_trianglerectangles.svg	stimuli_distractor_diamondtriangles.svg	21	yes	57	0	403	0	0			0	0			1				0	
6.6.1	win	2023-06-27	17:08:37	17:18:42	600333	6065d6c60c9d35be7632a6ca	3	1	main_z	11	main_z	125	stimuli_distractor_trianglediamonds.svg	stimuli_distractor_trianglediamonds.svg	33	no	0	1	2000	0	0			0	0			1				0	
6.6.1	win	2023-06-27	17:08:37	17:18:42	600333	6065d6c60c9d35be7632a6ca	3	1	main_z	11	advance_on_keypress_ZEE	126	stimuli_distractor_trianglediamonds.svg	stimuli_distractor_trianglediamonds.svg	33	no	57	0	323	0	0			0	0			1				0	
6.6.1	win	2023-06-27	17:08:37	17:18:45	603299	6065d6c60c9d35be7632a6ca	3	1	main_z	11	main_z	127	stimuli_distractor_diamondtriangles.svg	stimuli_distractor_trianglediamonds.svg	37	no	0	1	2000	0	0			0	0			1				0	
6.6.1	win	2023-06-27	17:08:37	17:18:45	603299	6065d6c60c9d35be7632a6ca	3	1	main_z	11	advance_on_keypress_ZEE	128	stimuli_distractor_diamondtriangles.svg	stimuli_distractor_trianglediamonds.svg	37	no	57	0	295	0	0			0	0			1				0	
6.6.1	win	2023-06-27	17:08:37	17:18:48	606232	6065d6c60c9d35be7632a6ca	3	1	main_z	11	main_z	129	stimuli_distractor_trianglediamonds.svg	stimuli_distractor_diamondtriangles.svg	36	no	0	1	2000	0	0			0	0			1				0	
6.6.1	win	2023-06-27	17:08:37	17:18:48	606232	6065d6c60c9d35be7632a6ca	3	1	main_z	11	advance_on_keypress_ZEE	130	stimuli_distractor_trianglediamonds.svg	stimuli_distractor_diamondtriangles.svg	36	no	57	0	247	0	0			0	0			1				0	
6.6.1	win	2023-06-27	17:08:37	17:18:49	607970	6065d6c60c9d35be7632a6ca	3	1	main_z	11	main_z	131	stimuli_target_rectanglediamonds.svg	stimuli_distractor_trianglediamonds.svg	2	yes	44	1	838	0	0			0	0			1				0	
6.6.1	win	2023-06-27	17:08:37	17:18:49	607970	6065d6c60c9d35be7632a6ca	3	1	main_z	11	advance_on_keypress_ZEE	132	stimuli_target_rectanglediamonds.svg	stimuli_distractor_trianglediamonds.svg	2	yes	57	0	357	0	0			0	0			1				0	
6.6.1	win	2023-06-27	17:08:37	17:18:51	609530	6065d6c60c9d35be7632a6ca	3	1	main_z	11	main_z	133	stimuli_distractor_trianglediamonds.svg	stimuli_target_rectangletriangles.svg	9	yes	44	1	566	0	0			0	0			1				0	
6.6.1	win	2023-06-27	17:08:37	17:18:51	609530	6065d6c60c9d35be7632a6ca	3	1	main_z	11	advance_on_keypress_ZEE	134	stimuli_distractor_trianglediamonds.svg	stimuli_target_rectangletriangles.svg	9	yes	57	0	314	0	0			0	0			1				0	
6.6.1	win	2023-06-27	17:08:37	17:18:54	612498	6065d6c60c9d35be7632a6ca	3	1	main_z	11	main_z	135	stimuli_distractor_diamondtriangles.svg	stimuli_distractor_trianglediamonds.svg	38	no	0	1	2000	0	0			0	0			1				0	
6.6.1	win	2023-06-27	17:08:37	17:18:54	612498	6065d6c60c9d35be7632a6ca	3	1	main_z	11	advance_on_keypress_ZEE	136	stimuli_distractor_diamondtriangles.svg	stimuli_distractor_trianglediamonds.svg	38	no	57	0	326	0	0			0	0			1				0	
6.6.1	win	2023-06-27	17:08:37	17:18:55	614043	6065d6c60c9d35be7632a6ca	3	1	main_z	11	main_z	137	stimuli_distractor_diamondtriangles.svg	stimuli_target_squarediamonds.svg	16	yes	44	1	580	0	0			0	0			1				0	
6.6.1	win	2023-06-27	17:08:37	17:18:55	614043	6065d6c60c9d35be7632a6ca	3	1	main_z	11	advance_on_keypress_ZEE	138	stimuli_distractor_diamondtriangles.svg	stimuli_target_squarediamonds.svg	16	yes	57	0	256	0	0			0	0			1				0	
6.6.1	win	2023-06-27	17:08:37	17:18:57	615482	6065d6c60c9d35be7632a6ca	3	1	main_z	11	main_z	139	stimuli_distractor_trianglediamonds.svg	stimuli_target_trianglesquares.svg	26	yes	44	1	535	0	0			0	0			1				0	
6.6.1	win	2023-06-27	17:08:37	17:18:57	615482	6065d6c60c9d35be7632a6ca	3	1	main_z	11	advance_on_keypress_ZEE	140	stimuli_distractor_trianglediamonds.svg	stimuli_target_trianglesquares.svg	26	yes	57	0	242	0	0			0	0			1				0	
6.6.1	win	2023-06-27	17:08:37	17:18:58	616962	6065d6c60c9d35be7632a6ca	3	1	main_z	11	main_z	141	stimuli_target_squarediamonds.svg	stimuli_distractor_diamondtriangles.svg	8	yes	44	1	599	0	0			0	0			1				0	
6.6.1	win	2023-06-27	17:08:37	17:18:58	616962	6065d6c60c9d35be7632a6ca	3	1	main_z	11	advance_on_keypress_ZEE	142	stimuli_target_squarediamonds.svg	stimuli_distractor_diamondtriangles.svg	8	yes	57	0	283	0	0			0	0			1				0	
6.6.1	win	2023-06-27	17:08:37	17:19:00	618710	6065d6c60c9d35be7632a6ca	3	1	main_z	11	main_z	143	stimuli_target_diamondrectangles.svg	stimuli_distractor_diamondtriangles.svg	23	yes	44	1	813	0	0			0	0			1				0	
6.6.1	win	2023-06-27	17:08:37	17:19:00	618710	6065d6c60c9d35be7632a6ca	3	1	main_z	11	advance_on_keypress_ZEE	144	stimuli_target_diamondrectangles.svg	stimuli_distractor_diamondtriangles.svg	23	yes	57	0	309	0	0			0	0			1				0	
6.6.1	win	2023-06-27	17:08:37	17:19:02	620220	6065d6c60c9d35be7632a6ca	3	1	main_z	11	main_z	145	stimuli_target_squarediamonds.svg	stimuli_distractor_trianglediamonds.svg	4	yes	44	1	574	0	0			0	0			1				0	
6.6.1	win	2023-06-27	17:08:37	17:19:02	620220	6065d6c60c9d35be7632a6ca	3	1	main_z	11	advance_on_keypress_ZEE	146	stimuli_target_squarediamonds.svg	stimuli_distractor_trianglediamonds.svg	4	yes	57	0	272	0	0			0	0			1				0	
6.6.1	win	2023-06-27	17:08:37	17:19:04	623130	6065d6c60c9d35be7632a6ca	3	1	main_z	11	main_z	147	stimuli_distractor_diamondtriangles.svg	stimuli_distractor_diamondtriangles.svg	40	no	0	1	2000	0	0			0	0			1				0	
6.6.1	win	2023-06-27	17:08:37	17:19:04	623130	6065d6c60c9d35be7632a6ca	3	1	main_z	11	advance_on_keypress_ZEE	148	stimuli_distractor_diamondtriangles.svg	stimuli_distractor_diamondtriangles.svg	40	no	57	0	278	0	0			0	0			1				0	
6.6.1	win	2023-06-27	17:08:37	17:19:06	624722	6065d6c60c9d35be7632a6ca	3	1	main_z	11	main_z	149	stimuli_distractor_diamondtriangles.svg	stimuli_target_trianglerectangles.svg	29	yes	44	1	677	0	0			0	0			1				0	
6.6.1	win	2023-06-27	17:08:37	17:19:06	624722	6065d6c60c9d35be7632a6ca	3	1	main_z	11	advance_on_keypress_ZEE	150	stimuli_distractor_diamondtriangles.svg	stimuli_target_trianglerectangles.svg	29	yes	57	0	310	0	0			0	0			1				0	
6.6.1	win	2023-06-27	17:08:37	17:19:09	627662	6065d6c60c9d35be7632a6ca	3	1	main_z	11	main_z	151	stimuli_target_rectanglediamonds.svg	stimuli_distractor_diamondtriangles.svg	6	yes	0	0	2000	0	0			0	0			1				0	
6.6.1	win	2023-06-27	17:08:37	17:19:09	627662	6065d6c60c9d35be7632a6ca	3	1	main_z	11	advance_on_keypress_ZEE	152	stimuli_target_rectanglediamonds.svg	stimuli_distractor_diamondtriangles.svg	6	yes	57	0	502	0	0			0	0			1				0	
6.6.1	win	2023-06-27	17:08:37	17:19:11	629386	6065d6c60c9d35be7632a6ca	3	1	main_z	11	main_z	153	stimuli_target_trianglerectangles.svg	stimuli_distractor_trianglediamonds.svg	17	yes	44	1	573	0	0			0	0			1				0	
6.6.1	win	2023-06-27	17:08:37	17:19:11	629386	6065d6c60c9d35be7632a6ca	3	1	main_z	11	advance_on_keypress_ZEE	154	stimuli_target_trianglerectangles.svg	stimuli_distractor_trianglediamonds.svg	17	yes	57	0	268	0	0			0	0			1				0	
6.6.1	win	2023-06-27	17:08:37	17:19:14	632296	6065d6c60c9d35be7632a6ca	3	1	main_z	11	main_z	155	stimuli_distractor_trianglediamonds.svg	stimuli_distractor_trianglediamonds.svg	34	no	0	1	2000	0	0			0	0			1				0	
6.6.1	win	2023-06-27	17:08:37	17:19:14	632296	6065d6c60c9d35be7632a6ca	3	1	main_z	11	advance_on_keypress_ZEE	156	stimuli_distractor_trianglediamonds.svg	stimuli_distractor_trianglediamonds.svg	34	no	57	0	745	0	0			0	0			1				0	
6.6.1	win	2023-06-27	17:08:37	17:19:16	634286	6065d6c60c9d35be7632a6ca	3	1	main_z	11	main_z	157	stimuli_distractor_diamondtriangles.svg	stimuli_target_trianglesquares.svg	30	yes	44	1	608	0	0			0	0			1				0	
6.6.1	win	2023-06-27	17:08:37	17:19:16	634286	6065d6c60c9d35be7632a6ca	3	1	main_z	11	advance_on_keypress_ZEE	158	stimuli_distractor_diamondtriangles.svg	stimuli_target_trianglesquares.svg	30	yes	57	0	306	0	0			0	0			1				0	
6.6.1	win	2023-06-27	17:08:37	17:19:17	635933	6065d6c60c9d35be7632a6ca	3	1	main_z	11	main_z	159	stimuli_distractor_diamondtriangles.svg	stimuli_target_squaretriangles.svg	15	yes	44	1	705	0	0			0	0			1				0	
6.6.1	win	2023-06-27	17:08:37	17:19:17	635933	6065d6c60c9d35be7632a6ca	3	1	main_z	11	advance_on_keypress_ZEE	160	stimuli_distractor_diamondtriangles.svg	stimuli_target_squaretriangles.svg	15	yes	57	0	381	0	0			0	0			1				0	
6.6.1	win	2023-06-27	17:08:37	17:19:17	635933	6065d6c60c9d35be7632a6ca	3	1	headphonecheck_calibration	14	headphonecheck_calibrationIntro	1	stimuli_distractor_diamondtriangles.svg	stimuli_target_squaretriangles.svg	15	yes	calibrationButton	0	4014	0	0			0	0			1				0	
6.6.1	win	2023-06-27	17:08:37	17:19:17	635933	6065d6c60c9d35be7632a6ca	3	1	headphonecheck_testphase	15	test_collectResponse	3	stimuli_distractor_diamondtriangles.svg	stimuli_target_squaretriangles.svg	15	yes	first	0	7346	1	6	antiphase_hc_ois.wav	3	0	0			1				0	
6.6.1	win	2023-06-27	17:08:37	17:19:17	635933	6065d6c60c9d35be7632a6ca	3	1	headphonecheck_testphase	15	test_collectResponse	6	stimuli_distractor_diamondtriangles.svg	stimuli_target_squaretriangles.svg	15	yes	second	0	875	2	3	antiphase_hc_soi.wav	1	0	0			1				0	
6.6.1	win	2023-06-27	17:08:37	17:19:17	635933	6065d6c60c9d35be7632a6ca	3	1	headphonecheck_testphase	15	test_collectResponse	9	stimuli_distractor_diamondtriangles.svg	stimuli_target_squaretriangles.svg	15	yes	third	0	483	3	1	antiphase_hc_iso.wav	2	0	0			1				0	
6.6.1	win	2023-06-27	17:08:37	17:19:17	635933	6065d6c60c9d35be7632a6ca	3	1	headphonecheck_testphase	15	test_collectResponse	12	stimuli_distractor_diamondtriangles.svg	stimuli_target_squaretriangles.svg	15	yes	second	0	551	4	2	antiphase_hc_ios.wav	3	0	0			1				0	
6.6.1	win	2023-06-27	17:08:37	17:19:17	635933	6065d6c60c9d35be7632a6ca	3	1	headphonecheck_testphase	15	test_collectResponse	15	stimuli_distractor_diamondtriangles.svg	stimuli_target_squaretriangles.svg	15	yes	third	0	365	5	4	antiphase_hc_sio.wav	1	0	0			1				0	
6.6.1	win	2023-06-27	17:08:37	17:19:17	635933	6065d6c60c9d35be7632a6ca	3	1	headphonecheck_testphase	15	test_collectResponse	18	stimuli_distractor_diamondtriangles.svg	stimuli_target_squaretriangles.svg	15	yes	first	0	423	6	5	antiphase_hc_osi.wav	2	0	0			1				0	
6.6.1	win	2023-06-27	17:08:37	17:19:17	635933	6065d6c60c9d35be7632a6ca	3	1	stereocheck_calibration	17	stereocheck_calibrationIntro	1	stimuli_distractor_diamondtriangles.svg	stimuli_target_squaretriangles.svg	15	yes	stereocheck_calibrationButton	0	5082	6	5	antiphase_hc_osi.wav	2	0	0			1				0	
6.6.1	win	2023-06-27	17:08:37	17:19:17	635933	6065d6c60c9d35be7632a6ca	3	1	stereocheck_testphase	18	stereocheck_test_collectResponse	3	stimuli_distractor_diamondtriangles.svg	stimuli_target_squaretriangles.svg	15	yes	stereocheck_left	1	1464	6	5	antiphase_hc_osi.wav	2	1	3	noise_calib_stim_LEFT.wav	1	1				0	
6.6.1	win	2023-06-27	17:08:37	17:19:17	635933	6065d6c60c9d35be7632a6ca	3	1	stereocheck_testphase	18	stereocheck_test_collectResponse	6	stimuli_distractor_diamondtriangles.svg	stimuli_target_squaretriangles.svg	15	yes	stereocheck_right	0	9434	6	5	antiphase_hc_osi.wav	2	2	2	noise_calib_stim_LEFT.wav	1	1				0	
6.6.1	win	2023-06-27	17:08:37	17:19:17	635933	6065d6c60c9d35be7632a6ca	3	1	stereocheck_testphase	18	stereocheck_test_collectResponse	9	stimuli_distractor_diamondtriangles.svg	stimuli_target_squaretriangles.svg	15	yes	stereocheck_right	1	910	6	5	antiphase_hc_osi.wav	2	3	4	noise_calib_stim_RIGHT.wav	2	1				0	
6.6.1	win	2023-06-27	17:08:37	17:19:17	635933	6065d6c60c9d35be7632a6ca	3	1	stereocheck_testphase	18	stereocheck_test_collectResponse	12	stimuli_distractor_diamondtriangles.svg	stimuli_target_squaretriangles.svg	15	yes	stereocheck_left	1	482	6	5	antiphase_hc_osi.wav	2	4	1	noise_calib_stim_LEFT.wav	1	1				0	
6.6.1	win	2023-06-27	17:08:37	17:19:17	635933	6065d6c60c9d35be7632a6ca	3	1	stereocheck_testphase	18	stereocheck_test_collectResponse	15	stimuli_distractor_diamondtriangles.svg	stimuli_target_squaretriangles.svg	15	yes	stereocheck_right	1	485	6	5	antiphase_hc_osi.wav	2	5	5	noise_calib_stim_RIGHT.wav	2	1				0	
6.6.1	win	2023-06-27	17:08:37	17:19:17	635933	6065d6c60c9d35be7632a6ca	3	1	stereocheck_testphase	18	stereocheck_test_collectResponse	18	stimuli_distractor_diamondtriangles.svg	stimuli_target_squaretriangles.svg	15	yes	stereocheck_right	1	985	6	5	antiphase_hc_osi.wav	2	6	6	noise_calib_stim_RIGHT.wav	2	1				0	
6.6.1	win	2023-06-27	17:08:37	17:19:17	635933	6065d6c60c9d35be7632a6ca	3	1	DL_practice	21	DL_practice	2	stimuli_distractor_diamondtriangles.svg	stimuli_target_squaretriangles.svg	15	yes	ga	1	1013	6	5	antiphase_hc_osi.wav	2	6	6	noise_calib_stim_RIGHT.wav	2	15	blb_dichoticlistening_ga-ga.mp3	ga	ga	0	left
6.6.1	win	2023-06-27	17:08:37	17:19:17	635933	6065d6c60c9d35be7632a6ca	3	1	DL_practice	21	DL_practice	3	stimuli_distractor_diamondtriangles.svg	stimuli_target_squaretriangles.svg	15	yes	ba	1	1444	6	5	antiphase_hc_osi.wav	2	6	6	noise_calib_stim_RIGHT.wav	2	1	blb_dichoticlistening_ba-ba.mp3	ba	ba	0	left
6.6.1	win	2023-06-27	17:08:37	17:19:17	635933	6065d6c60c9d35be7632a6ca	3	1	DL_practice	21	DL_practice	4	stimuli_distractor_diamondtriangles.svg	stimuli_target_squaretriangles.svg	15	yes	ta	1	1302	6	5	antiphase_hc_osi.wav	2	6	6	noise_calib_stim_RIGHT.wav	2	36	blb_dichoticlistening_ta-ta.mp3	ta	ta	0	left
6.6.1	win	2023-06-27	17:08:37	17:19:17	635933	6065d6c60c9d35be7632a6ca	3	1	DL_practice	21	DL_practice	5	stimuli_distractor_diamondtriangles.svg	stimuli_target_squaretriangles.svg	15	yes	ga	0	2942	6	5	antiphase_hc_osi.wav	2	6	6	noise_calib_stim_RIGHT.wav	2	7	blb_dichoticlistening_da-ba.mp3	da	ba	1	other
6.6.1	win	2023-06-27	17:08:37	17:19:17	635933	6065d6c60c9d35be7632a6ca	3	1	DL_practice	21	DL_practice	6	stimuli_distractor_diamondtriangles.svg	stimuli_target_squaretriangles.svg	15	yes	ka	1	904	6	5	antiphase_hc_osi.wav	2	6	6	noise_calib_stim_RIGHT.wav	2	22	blb_dichoticlistening_ka-ka.mp3	ka	ka	0	left
6.6.1	win	2023-06-27	17:08:37	17:19:17	635933	6065d6c60c9d35be7632a6ca	3	1	DL_practice	21	DL_practice	7	stimuli_distractor_diamondtriangles.svg	stimuli_target_squaretriangles.svg	15	yes	ka	1	843	6	5	antiphase_hc_osi.wav	2	6	6	noise_calib_stim_RIGHT.wav	2	23	blb_dichoticlistening_ka-pa.mp3	ka	pa	1	left
6.6.1	win	2023-06-27	17:08:37	17:19:17	635933	6065d6c60c9d35be7632a6ca	3	1	DL_practice	21	DL_practice	8	stimuli_distractor_diamondtriangles.svg	stimuli_target_squaretriangles.svg	15	yes	da	1	1396	6	5	antiphase_hc_osi.wav	2	6	6	noise_calib_stim_RIGHT.wav	2	8	blb_dichoticlistening_da-da.mp3	da	da	0	left
6.6.1	win	2023-06-27	17:08:37	17:19:17	635933	6065d6c60c9d35be7632a6ca	3	1	DL_practice	21	DL_practice	9	stimuli_distractor_diamondtriangles.svg	stimuli_target_squaretriangles.svg	15	yes	ga	1	900	6	5	antiphase_hc_osi.wav	2	6	6	noise_calib_stim_RIGHT.wav	2	18	blb_dichoticlistening_ga-ta.mp3	ga	ta	1	left
6.6.1	win	2023-06-27	17:08:37	17:19:17	635933	6065d6c60c9d35be7632a6ca	3	1	DL_practice	21	DL_practice	10	stimuli_distractor_diamondtriangles.svg	stimuli_target_squaretriangles.svg	15	yes	pa	1	1045	6	5	antiphase_hc_osi.wav	2	6	6	noise_calib_stim_RIGHT.wav	2	29	blb_dichoticlistening_pa-pa.mp3	pa	pa	0	left
6.6.1	win	2023-06-27	17:08:37	17:19:17	635933	6065d6c60c9d35be7632a6ca	3	1	DL_test	23	DL_test	1	stimuli_distractor_diamondtriangles.svg	stimuli_target_squaretriangles.svg	15	yes	ga	1	828	6	5	antiphase_hc_osi.wav	2	6	6	noise_calib_stim_RIGHT.wav	2	16	blb_dichoticlistening_ga-ka.mp3	ga	ka	1	left
6.6.1	win	2023-06-27	17:08:37	17:19:17	635933	6065d6c60c9d35be7632a6ca	3	1	DL_test	23	DL_test	2	stimuli_distractor_diamondtriangles.svg	stimuli_target_squaretriangles.svg	15	yes	ka	1	916	6	5	antiphase_hc_osi.wav	2	6	6	noise_calib_stim_RIGHT.wav	2	22	blb_dichoticlistening_ka-ka.mp3	ka	ka	0	left
6.6.1	win	2023-06-27	17:08:37	17:19:17	635933	6065d6c60c9d35be7632a6ca	3	1	DL_test	23	DL_test	3	stimuli_distractor_diamondtriangles.svg	stimuli_target_squaretriangles.svg	15	yes	ga	0	772	6	5	antiphase_hc_osi.wav	2	6	6	noise_calib_stim_RIGHT.wav	2	20	blb_dichoticlistening_ka-da.mp3	ka	da	1	other
6.6.1	win	2023-06-27	17:08:37	17:19:17	635933	6065d6c60c9d35be7632a6ca	3	1	DL_test	23	DL_test	4	stimuli_distractor_diamondtriangles.svg	stimuli_target_squaretriangles.svg	15	yes	da	1	806	6	5	antiphase_hc_osi.wav	2	6	6	noise_calib_stim_RIGHT.wav	2	12	blb_dichoticlistening_da-ta.mp3	da	ta	1	left
6.6.1	win	2023-06-27	17:08:37	17:19:17	635933	6065d6c60c9d35be7632a6ca	3	1	DL_test	23	DL_test	5	stimuli_distractor_diamondtriangles.svg	stimuli_target_squaretriangles.svg	15	yes	da	1	703	6	5	antiphase_hc_osi.wav	2	6	6	noise_calib_stim_RIGHT.wav	2	32	blb_dichoticlistening_ta-da.mp3	ta	da	1	right
6.6.1	win	2023-06-27	17:08:37	17:19:17	635933	6065d6c60c9d35be7632a6ca	3	1	DL_test	23	DL_test	6	stimuli_distractor_diamondtriangles.svg	stimuli_target_squaretriangles.svg	15	yes	ga	1	766	6	5	antiphase_hc_osi.wav	2	6	6	noise_calib_stim_RIGHT.wav	2	15	blb_dichoticlistening_ga-ga.mp3	ga	ga	0	left
6.6.1	win	2023-06-27	17:08:37	17:19:17	635933	6065d6c60c9d35be7632a6ca	3	1	DL_test	23	DL_test	7	stimuli_distractor_diamondtriangles.svg	stimuli_target_squaretriangles.svg	15	yes	ba	1	962	6	5	antiphase_hc_osi.wav	2	6	6	noise_calib_stim_RIGHT.wav	2	13	blb_dichoticlistening_ga-ba.mp3	ga	ba	1	right
6.6.1	win	2023-06-27	17:08:37	17:19:17	635933	6065d6c60c9d35be7632a6ca	3	1	DL_test	23	DL_test	8	stimuli_distractor_diamondtriangles.svg	stimuli_target_squaretriangles.svg	15	yes	ta	1	936	6	5	antiphase_hc_osi.wav	2	6	6	noise_calib_stim_RIGHT.wav	2	35	blb_dichoticlistening_ta-pa.mp3	ta	pa	1	left
6.6.1	win	2023-06-27	17:08:37	17:19:17	635933	6065d6c60c9d35be7632a6ca	3	1	DL_test	23	DL_test	9	stimuli_distractor_diamondtriangles.svg	stimuli_target_squaretriangles.svg	15	yes	ga	1	888	6	5	antiphase_hc_osi.wav	2	6	6	noise_calib_stim_RIGHT.wav	2	27	blb_dichoticlistening_pa-ga.mp3	pa	ga	1	right
6.6.1	win	2023-06-27	17:08:37	17:19:17	635933	6065d6c60c9d35be7632a6ca	3	1	DL_test	23	DL_test	10	stimuli_distractor_diamondtriangles.svg	stimuli_target_squaretriangles.svg	15	yes	da	1	834	6	5	antiphase_hc_osi.wav	2	6	6	noise_calib_stim_RIGHT.wav	2	9	blb_dichoticlistening_da-ga.mp3	da	ga	1	left
6.6.1	win	2023-06-27	17:08:37	17:19:17	635933	6065d6c60c9d35be7632a6ca	3	1	DL_test	23	DL_test	11	stimuli_distractor_diamondtriangles.svg	stimuli_target_squaretriangles.svg	15	yes	ga	1	868	6	5	antiphase_hc_osi.wav	2	6	6	noise_calib_stim_RIGHT.wav	2	33	blb_dichoticlistening_ta-ga.mp3	ta	ga	1	right
6.6.1	win	2023-06-27	17:08:37	17:19:17	635933	6065d6c60c9d35be7632a6ca	3	1	DL_test	23	DL_test	12	stimuli_distractor_diamondtriangles.svg	stimuli_target_squaretriangles.svg	15	yes	ba	1	1057	6	5	antiphase_hc_osi.wav	2	6	6	noise_calib_stim_RIGHT.wav	2	31	blb_dichoticlistening_ta-ba.mp3	ta	ba	1	right
6.6.1	win	2023-06-27	17:08:37	17:19:17	635933	6065d6c60c9d35be7632a6ca	3	1	DL_test	23	DL_test	13	stimuli_distractor_diamondtriangles.svg	stimuli_target_squaretriangles.svg	15	yes	ga	1	922	6	5	antiphase_hc_osi.wav	2	6	6	noise_calib_stim_RIGHT.wav	2	21	blb_dichoticlistening_ka-ga.mp3	ka	ga	1	right
6.6.1	win	2023-06-27	17:08:37	17:19:17	635933	6065d6c60c9d35be7632a6ca	3	1	DL_test	23	DL_test	14	stimuli_distractor_diamondtriangles.svg	stimuli_target_squaretriangles.svg	15	yes	da	1	976	6	5	antiphase_hc_osi.wav	2	6	6	noise_calib_stim_RIGHT.wav	2	11	blb_dichoticlistening_da-pa.mp3	da	pa	1	left
6.6.1	win	2023-06-27	17:08:37	17:19:17	635933	6065d6c60c9d35be7632a6ca	3	1	DL_test	23	DL_test	15	stimuli_distractor_diamondtriangles.svg	stimuli_target_squaretriangles.svg	15	yes	da	1	943	6	5	antiphase_hc_osi.wav	2	6	6	noise_calib_stim_RIGHT.wav	2	10	blb_dichoticlistening_da-ka.mp3	da	ka	1	left
6.6.1	win	2023-06-27	17:08:37	17:19:17	635933	6065d6c60c9d35be7632a6ca	3	1	DL_test	23	DL_test	16	stimuli_distractor_diamondtriangles.svg	stimuli_target_squaretriangles.svg	15	yes	ka	1	753	6	5	antiphase_hc_osi.wav	2	6	6	noise_calib_stim_RIGHT.wav	2	34	blb_dichoticlistening_ta-ka.mp3	ta	ka	1	right
6.6.1	win	2023-06-27	17:08:37	17:19:17	635933	6065d6c60c9d35be7632a6ca	3	1	DL_test	23	DL_test	17	stimuli_distractor_diamondtriangles.svg	stimuli_target_squaretriangles.svg	15	yes	ka	1	919	6	5	antiphase_hc_osi.wav	2	6	6	noise_calib_stim_RIGHT.wav	2	24	blb_dichoticlistening_ka-ta.mp3	ka	ta	1	left
6.6.1	win	2023-06-27	17:08:37	17:19:17	635933	6065d6c60c9d35be7632a6ca	3	1	DL_test	23	DL_test	18	stimuli_distractor_diamondtriangles.svg	stimuli_target_squaretriangles.svg	15	yes	ka	1	774	6	5	antiphase_hc_osi.wav	2	6	6	noise_calib_stim_RIGHT.wav	2	28	blb_dichoticlistening_pa-ka.mp3	pa	ka	1	right
6.6.1	win	2023-06-27	17:08:37	17:19:17	635933	6065d6c60c9d35be7632a6ca	3	1	DL_test	23	DL_test	19	stimuli_distractor_diamondtriangles.svg	stimuli_target_squaretriangles.svg	15	yes	da	1	1017	6	5	antiphase_hc_osi.wav	2	6	6	noise_calib_stim_RIGHT.wav	2	26	blb_dichoticlistening_pa-da.mp3	pa	da	1	right
6.6.1	win	2023-06-27	17:08:37	17:19:17	635933	6065d6c60c9d35be7632a6ca	3	1	DL_test	23	DL_test	20	stimuli_distractor_diamondtriangles.svg	stimuli_target_squaretriangles.svg	15	yes	ba	1	905	6	5	antiphase_hc_osi.wav	2	6	6	noise_calib_stim_RIGHT.wav	2	19	blb_dichoticlistening_ka-ba.mp3	ka	ba	1	right
6.6.1	win	2023-06-27	17:08:37	17:19:17	635933	6065d6c60c9d35be7632a6ca	3	1	DL_test	23	DL_test	21	stimuli_distractor_diamondtriangles.svg	stimuli_target_squaretriangles.svg	15	yes	ka	1	1051	6	5	antiphase_hc_osi.wav	2	6	6	noise_calib_stim_RIGHT.wav	2	23	blb_dichoticlistening_ka-pa.mp3	ka	pa	1	left
6.6.1	win	2023-06-27	17:08:37	17:19:17	635933	6065d6c60c9d35be7632a6ca	3	1	DL_test	23	DL_test	22	stimuli_distractor_diamondtriangles.svg	stimuli_target_squaretriangles.svg	15	yes	ba	0	1436	6	5	antiphase_hc_osi.wav	2	6	6	noise_calib_stim_RIGHT.wav	2	17	blb_dichoticlistening_ga-pa.mp3	ga	pa	1	other
6.6.1	win	2023-06-27	17:08:37	17:19:17	635933	6065d6c60c9d35be7632a6ca	3	1	DL_test	23	DL_test	23	stimuli_distractor_diamondtriangles.svg	stimuli_target_squaretriangles.svg	15	yes	ba	1	934	6	5	antiphase_hc_osi.wav	2	6	6	noise_calib_stim_RIGHT.wav	2	7	blb_dichoticlistening_da-ba.mp3	da	ba	1	right
6.6.1	win	2023-06-27	17:08:37	17:19:17	635933	6065d6c60c9d35be7632a6ca	3	1	DL_test	23	DL_test	24	stimuli_distractor_diamondtriangles.svg	stimuli_target_squaretriangles.svg	15	yes	ba	1	718	6	5	antiphase_hc_osi.wav	2	6	6	noise_calib_stim_RIGHT.wav	2	1	blb_dichoticlistening_ba-ba.mp3	ba	ba	0	left
6.6.1	win	2023-06-27	17:08:37	17:19:17	635933	6065d6c60c9d35be7632a6ca	3	1	DL_test	23	DL_test	25	stimuli_distractor_diamondtriangles.svg	stimuli_target_squaretriangles.svg	15	yes	ba	1	840	6	5	antiphase_hc_osi.wav	2	6	6	noise_calib_stim_RIGHT.wav	2	5	blb_dichoticlistening_ba-pa.mp3	ba	pa	1	left
6.6.1	win	2023-06-27	17:08:37	17:19:17	635933	6065d6c60c9d35be7632a6ca	3	1	DL_test	23	DL_test	26	stimuli_distractor_diamondtriangles.svg	stimuli_target_squaretriangles.svg	15	yes	da	0	1214	6	5	antiphase_hc_osi.wav	2	6	6	noise_calib_stim_RIGHT.wav	2	4	blb_dichoticlistening_ba-ka.mp3	ba	ka	1	other
