build	computer.platform	date	time	timestamp	time_elapsed_ms	subject	group	session	blockcode	blocknum	trialcode	trialnum	stimulus_left	stimulus_right	stim_index	target_present	response	correct	latency	headphonecheck_countTestTrials	headphonecheck_index	headphonecheck_testSound	headphonecheck_correctResponse	stereocheck_countTestTrials	stereocheck_index	stereocheck_testSound	stereocheck_correctResponse	DL_index	DL_soundfile	DL_leftSound	DL_rightSound	DL_dualSound	DL_choice
6.6.1	mac	2023-06-25	14:58:07	0	0	63db1ccde6434330f2a99d87	2	1	headphonecheck_calibration	4	headphonecheck_calibrationIntro	1			0		calibrationButton	0	33839	0	0			0	0			1				0	
6.6.1	mac	2023-06-25	14:58:07	0	0	63db1ccde6434330f2a99d87	2	1	headphonecheck_testphase	5	test_collectResponse	3			0		second	1	1141	1	5	antiphase_hc_osi.wav	2	0	0			1				0	
6.6.1	mac	2023-06-25	14:58:07	0	0	63db1ccde6434330f2a99d87	2	1	headphonecheck_testphase	5	test_collectResponse	6			0		first	1	420	2	3	antiphase_hc_soi.wav	1	0	0			1				0	
6.6.1	mac	2023-06-25	14:58:07	0	0	63db1ccde6434330f2a99d87	2	1	headphonecheck_testphase	5	test_collectResponse	9			0		third	1	409	3	2	antiphase_hc_ios.wav	3	0	0			1				0	
6.6.1	mac	2023-06-25	14:58:07	0	0	63db1ccde6434330f2a99d87	2	1	headphonecheck_testphase	5	test_collectResponse	12			0		first	1	2464	4	4	antiphase_hc_sio.wav	1	0	0			1				0	
6.6.1	mac	2023-06-25	14:58:07	0	0	63db1ccde6434330f2a99d87	2	1	headphonecheck_testphase	5	test_collectResponse	15			0		second	1	306	5	1	antiphase_hc_iso.wav	2	0	0			1				0	
6.6.1	mac	2023-06-25	14:58:07	0	0	63db1ccde6434330f2a99d87	2	1	headphonecheck_testphase	5	test_collectResponse	18			0		third	1	87	6	6	antiphase_hc_ois.wav	3	0	0			1				0	
6.6.1	mac	2023-06-25	14:58:07	0	0	63db1ccde6434330f2a99d87	2	1	stereocheck_calibration	7	stereocheck_calibrationIntro	1			0		stereocheck_calibrationButton	0	3938	6	6	antiphase_hc_ois.wav	3	0	0			1				0	
6.6.1	mac	2023-06-25	14:58:07	0	0	63db1ccde6434330f2a99d87	2	1	stereocheck_testphase	8	stereocheck_test_collectResponse	3			0		stereocheck_right	1	1493	6	6	antiphase_hc_ois.wav	3	1	5	noise_calib_stim_RIGHT.wav	2	1				0	
6.6.1	mac	2023-06-25	14:58:07	0	0	63db1ccde6434330f2a99d87	2	1	stereocheck_testphase	8	stereocheck_test_collectResponse	6			0		stereocheck_left	1	810	6	6	antiphase_hc_ois.wav	3	2	3	noise_calib_stim_LEFT.wav	1	1				0	
6.6.1	mac	2023-06-25	14:58:07	0	0	63db1ccde6434330f2a99d87	2	1	stereocheck_testphase	8	stereocheck_test_collectResponse	9			0		stereocheck_left	1	443	6	6	antiphase_hc_ois.wav	3	3	2	noise_calib_stim_LEFT.wav	1	1				0	
6.6.1	mac	2023-06-25	14:58:07	0	0	63db1ccde6434330f2a99d87	2	1	stereocheck_testphase	8	stereocheck_test_collectResponse	12			0		stereocheck_right	1	444	6	6	antiphase_hc_ois.wav	3	4	4	noise_calib_stim_RIGHT.wav	2	1				0	
6.6.1	mac	2023-06-25	14:58:07	0	0	63db1ccde6434330f2a99d87	2	1	stereocheck_testphase	8	stereocheck_test_collectResponse	15			0		stereocheck_left	1	394	6	6	antiphase_hc_ois.wav	3	5	1	noise_calib_stim_LEFT.wav	1	1				0	
6.6.1	mac	2023-06-25	14:58:07	0	0	63db1ccde6434330f2a99d87	2	1	stereocheck_testphase	8	stereocheck_test_collectResponse	18			0		stereocheck_right	1	394	6	6	antiphase_hc_ois.wav	3	6	6	noise_calib_stim_RIGHT.wav	2	1				0	
6.6.1	mac	2023-06-25	14:58:07	0	0	63db1ccde6434330f2a99d87	2	1	DL_practice	11	DL_practice	2			0		ba	1	2312	6	6	antiphase_hc_ois.wav	3	6	6	noise_calib_stim_RIGHT.wav	2	1	blb_dichoticlistening_ba-ba.mp3	ba	ba	0	left
6.6.1	mac	2023-06-25	14:58:07	0	0	63db1ccde6434330f2a99d87	2	1	DL_practice	11	DL_practice	3			0		ka	1	2429	6	6	antiphase_hc_ois.wav	3	6	6	noise_calib_stim_RIGHT.wav	2	23	blb_dichoticlistening_ka-pa.mp3	ka	pa	1	left
6.6.1	mac	2023-06-25	14:58:07	0	0	63db1ccde6434330f2a99d87	2	1	DL_practice	11	DL_practice	4			0		pa	1	1329	6	6	antiphase_hc_ois.wav	3	6	6	noise_calib_stim_RIGHT.wav	2	29	blb_dichoticlistening_pa-pa.mp3	pa	pa	0	left
6.6.1	mac	2023-06-25	14:58:07	0	0	63db1ccde6434330f2a99d87	2	1	DL_practice	11	DL_practice	5			0		ga	1	1046	6	6	antiphase_hc_ois.wav	3	6	6	noise_calib_stim_RIGHT.wav	2	15	blb_dichoticlistening_ga-ga.mp3	ga	ga	0	left
6.6.1	mac	2023-06-25	14:58:07	0	0	63db1ccde6434330f2a99d87	2	1	DL_practice	11	DL_practice	6			0		ka	1	1061	6	6	antiphase_hc_ois.wav	3	6	6	noise_calib_stim_RIGHT.wav	2	22	blb_dichoticlistening_ka-ka.mp3	ka	ka	0	left
6.6.1	mac	2023-06-25	14:58:07	0	0	63db1ccde6434330f2a99d87	2	1	DL_practice	11	DL_practice	7			0		ta	1	2279	6	6	antiphase_hc_ois.wav	3	6	6	noise_calib_stim_RIGHT.wav	2	36	blb_dichoticlistening_ta-ta.mp3	ta	ta	0	left
6.6.1	mac	2023-06-25	14:58:07	0	0	63db1ccde6434330f2a99d87	2	1	DL_practice	11	DL_practice	8			0		da	1	1329	6	6	antiphase_hc_ois.wav	3	6	6	noise_calib_stim_RIGHT.wav	2	8	blb_dichoticlistening_da-da.mp3	da	da	0	left
6.6.1	mac	2023-06-25	14:58:07	0	0	63db1ccde6434330f2a99d87	2	1	DL_practice	11	DL_practice	9			0		ba	1	2896	6	6	antiphase_hc_ois.wav	3	6	6	noise_calib_stim_RIGHT.wav	2	7	blb_dichoticlistening_da-ba.mp3	da	ba	1	right
6.6.1	mac	2023-06-25	14:58:07	0	0	63db1ccde6434330f2a99d87	2	1	DL_practice	11	DL_practice	10			0		ka	0	3661	6	6	antiphase_hc_ois.wav	3	6	6	noise_calib_stim_RIGHT.wav	2	18	blb_dichoticlistening_ga-ta.mp3	ga	ta	1	other
6.6.1	mac	2023-06-25	14:58:07	0	0	63db1ccde6434330f2a99d87	2	1	DL_test	13	DL_test	1			0		pa	1	1729	6	6	antiphase_hc_ois.wav	3	6	6	noise_calib_stim_RIGHT.wav	2	29	blb_dichoticlistening_pa-pa.mp3	pa	pa	0	left
6.6.1	mac	2023-06-25	14:58:07	0	0	63db1ccde6434330f2a99d87	2	1	DL_test	13	DL_test	2			0		ka	0	3596	6	6	antiphase_hc_ois.wav	3	6	6	noise_calib_stim_RIGHT.wav	2	18	blb_dichoticlistening_ga-ta.mp3	ga	ta	1	other
6.6.1	mac	2023-06-25	14:58:07	0	0	63db1ccde6434330f2a99d87	2	1	DL_test	13	DL_test	3			0		da	1	2496	6	6	antiphase_hc_ois.wav	3	6	6	noise_calib_stim_RIGHT.wav	2	32	blb_dichoticlistening_ta-da.mp3	ta	da	1	right
6.6.1	mac	2023-06-25	14:58:07	0	0	63db1ccde6434330f2a99d87	2	1	DL_test	13	DL_test	4			0		ba	1	2413	6	6	antiphase_hc_ois.wav	3	6	6	noise_calib_stim_RIGHT.wav	2	25	blb_dichoticlistening_pa-ba.mp3	pa	ba	1	right
6.6.1	mac	2023-06-25	14:58:07	0	0	63db1ccde6434330f2a99d87	2	1	DL_test	13	DL_test	5			0		ka	1	3779	6	6	antiphase_hc_ois.wav	3	6	6	noise_calib_stim_RIGHT.wav	2	21	blb_dichoticlistening_ka-ga.mp3	ka	ga	1	left
6.6.1	mac	2023-06-25	14:58:07	0	0	63db1ccde6434330f2a99d87	2	1	DL_test	13	DL_test	6			0		ga	1	2863	6	6	antiphase_hc_ois.wav	3	6	6	noise_calib_stim_RIGHT.wav	2	27	blb_dichoticlistening_pa-ga.mp3	pa	ga	1	right
6.6.1	mac	2023-06-25	14:58:07	0	0	63db1ccde6434330f2a99d87	2	1	DL_test	13	DL_test	7			0		ga	0	2863	6	6	antiphase_hc_ois.wav	3	6	6	noise_calib_stim_RIGHT.wav	2	20	blb_dichoticlistening_ka-da.mp3	ka	da	1	other
6.6.1	mac	2023-06-25	14:58:07	0	0	63db1ccde6434330f2a99d87	2	1	DL_test	13	DL_test	8			0		ta	1	1897	6	6	antiphase_hc_ois.wav	3	6	6	noise_calib_stim_RIGHT.wav	2	6	blb_dichoticlistening_ba-ta.mp3	ba	ta	1	right
6.6.1	mac	2023-06-25	14:58:07	0	0	63db1ccde6434330f2a99d87	2	1	DL_test	13	DL_test	9			0		ka	1	2013	6	6	antiphase_hc_ois.wav	3	6	6	noise_calib_stim_RIGHT.wav	2	4	blb_dichoticlistening_ba-ka.mp3	ba	ka	1	right
6.6.1	mac	2023-06-25	14:58:07	0	0	63db1ccde6434330f2a99d87	2	1	DL_test	13	DL_test	10			0		da	1	2363	6	6	antiphase_hc_ois.wav	3	6	6	noise_calib_stim_RIGHT.wav	2	2	blb_dichoticlistening_ba-da.mp3	ba	da	1	right
6.6.1	mac	2023-06-25	14:58:07	0	0	63db1ccde6434330f2a99d87	2	1	DL_test	13	DL_test	11			0		ga	1	1213	6	6	antiphase_hc_ois.wav	3	6	6	noise_calib_stim_RIGHT.wav	2	14	blb_dichoticlistening_ga-da.mp3	ga	da	1	left
6.6.1	mac	2023-06-25	14:58:07	0	0	63db1ccde6434330f2a99d87	2	1	DL_test	13	DL_test	12			0		da	1	5882	6	6	antiphase_hc_ois.wav	3	6	6	noise_calib_stim_RIGHT.wav	2	26	blb_dichoticlistening_pa-da.mp3	pa	da	1	right
6.6.1	mac	2023-06-25	14:58:07	0	0	63db1ccde6434330f2a99d87	2	1	DL_test	13	DL_test	13			0		ga	1	1414	6	6	antiphase_hc_ois.wav	3	6	6	noise_calib_stim_RIGHT.wav	2	33	blb_dichoticlistening_ta-ga.mp3	ta	ga	1	right
6.6.1	mac	2023-06-25	14:58:07	0	0	63db1ccde6434330f2a99d87	2	1	DL_test	13	DL_test	14			0		ga	1	16797	6	6	antiphase_hc_ois.wav	3	6	6	noise_calib_stim_RIGHT.wav	2	13	blb_dichoticlistening_ga-ba.mp3	ga	ba	1	left
6.6.1	mac	2023-06-25	14:58:07	0	0	63db1ccde6434330f2a99d87	2	1	DL_test	13	DL_test	15			0		ka	1	1297	6	6	antiphase_hc_ois.wav	3	6	6	noise_calib_stim_RIGHT.wav	2	22	blb_dichoticlistening_ka-ka.mp3	ka	ka	0	left
6.6.1	mac	2023-06-25	14:58:07	0	0	63db1ccde6434330f2a99d87	2	1	DL_test	13	DL_test	16			0		ba	1	2414	6	6	antiphase_hc_ois.wav	3	6	6	noise_calib_stim_RIGHT.wav	2	31	blb_dichoticlistening_ta-ba.mp3	ta	ba	1	right
6.6.1	mac	2023-06-25	14:58:07	0	0	63db1ccde6434330f2a99d87	2	1	DL_test	13	DL_test	17			0		ta	1	2814	6	6	antiphase_hc_ois.wav	3	6	6	noise_calib_stim_RIGHT.wav	2	36	blb_dichoticlistening_ta-ta.mp3	ta	ta	0	left
6.6.1	mac	2023-06-25	14:58:07	0	0	63db1ccde6434330f2a99d87	2	1	DL_test	13	DL_test	18			0		pa	1	2047	6	6	antiphase_hc_ois.wav	3	6	6	noise_calib_stim_RIGHT.wav	2	11	blb_dichoticlistening_da-pa.mp3	da	pa	1	right
6.6.1	mac	2023-06-25	14:58:07	0	0	63db1ccde6434330f2a99d87	2	1	DL_test	13	DL_test	19			0		ka	1	1880	6	6	antiphase_hc_ois.wav	3	6	6	noise_calib_stim_RIGHT.wav	2	23	blb_dichoticlistening_ka-pa.mp3	ka	pa	1	left
6.6.1	mac	2023-06-25	14:58:07	0	0	63db1ccde6434330f2a99d87	2	1	DL_test	13	DL_test	20			0		ka	1	1064	6	6	antiphase_hc_ois.wav	3	6	6	noise_calib_stim_RIGHT.wav	2	24	blb_dichoticlistening_ka-ta.mp3	ka	ta	1	left
6.6.1	mac	2023-06-25	14:58:07	0	0	63db1ccde6434330f2a99d87	2	1	DL_test	13	DL_test	21			0		ga	1	1197	6	6	antiphase_hc_ois.wav	3	6	6	noise_calib_stim_RIGHT.wav	2	9	blb_dichoticlistening_da-ga.mp3	da	ga	1	right
6.6.1	mac	2023-06-25	14:58:07	0	0	63db1ccde6434330f2a99d87	2	1	DL_test	13	DL_test	22			0		ba	1	1597	6	6	antiphase_hc_ois.wav	3	6	6	noise_calib_stim_RIGHT.wav	2	7	blb_dichoticlistening_da-ba.mp3	da	ba	1	right
6.6.1	mac	2023-06-25	14:58:07	0	0	63db1ccde6434330f2a99d87	2	1	DL_test	13	DL_test	23			0		ka	1	1347	6	6	antiphase_hc_ois.wav	3	6	6	noise_calib_stim_RIGHT.wav	2	34	blb_dichoticlistening_ta-ka.mp3	ta	ka	1	right
6.6.1	mac	2023-06-25	14:58:07	0	0	63db1ccde6434330f2a99d87	2	1	DL_test	13	DL_test	24			0		da	1	1198	6	6	antiphase_hc_ois.wav	3	6	6	noise_calib_stim_RIGHT.wav	2	8	blb_dichoticlistening_da-da.mp3	da	da	0	left
6.6.1	mac	2023-06-25	14:58:07	0	0	63db1ccde6434330f2a99d87	2	1	DL_test	13	DL_test	25			0		ka	1	1431	6	6	antiphase_hc_ois.wav	3	6	6	noise_calib_stim_RIGHT.wav	2	28	blb_dichoticlistening_pa-ka.mp3	pa	ka	1	right
6.6.1	mac	2023-06-25	14:58:07	0	0	63db1ccde6434330f2a99d87	2	1	DL_test	13	DL_test	26			0		ta	1	1447	6	6	antiphase_hc_ois.wav	3	6	6	noise_calib_stim_RIGHT.wav	2	30	blb_dichoticlistening_pa-ta.mp3	pa	ta	1	right
6.6.1	mac	2023-06-25	14:58:07	0	0	63db1ccde6434330f2a99d87	2	1	DL_test	13	DL_test	27			0		ga	1	2015	6	6	antiphase_hc_ois.wav	3	6	6	noise_calib_stim_RIGHT.wav	2	3	blb_dichoticlistening_ba-ga.mp3	ba	ga	1	right
6.6.1	mac	2023-06-25	14:58:07	0	0	63db1ccde6434330f2a99d87	2	1	DL_test	13	DL_test	28			0		ga	1	1281	6	6	antiphase_hc_ois.wav	3	6	6	noise_calib_stim_RIGHT.wav	2	15	blb_dichoticlistening_ga-ga.mp3	ga	ga	0	left
6.6.1	mac	2023-06-25	14:58:07	0	0	63db1ccde6434330f2a99d87	2	1	DL_test	13	DL_test	29			0		pa	1	1314	6	6	antiphase_hc_ois.wav	3	6	6	noise_calib_stim_RIGHT.wav	2	17	blb_dichoticlistening_ga-pa.mp3	ga	pa	1	right
6.6.1	mac	2023-06-25	14:58:07	0	0	63db1ccde6434330f2a99d87	2	1	DL_test	13	DL_test	30			0		ka	1	2164	6	6	antiphase_hc_ois.wav	3	6	6	noise_calib_stim_RIGHT.wav	2	16	blb_dichoticlistening_ga-ka.mp3	ga	ka	1	right
6.6.1	mac	2023-06-25	14:58:07	0	0	63db1ccde6434330f2a99d87	2	1	DL_test	13	DL_test	31			0		ba	1	1865	6	6	antiphase_hc_ois.wav	3	6	6	noise_calib_stim_RIGHT.wav	2	19	blb_dichoticlistening_ka-ba.mp3	ka	ba	1	right
6.6.1	mac	2023-06-25	14:58:07	0	0	63db1ccde6434330f2a99d87	2	1	DL_test	13	DL_test	32			0		ba	1	1116	6	6	antiphase_hc_ois.wav	3	6	6	noise_calib_stim_RIGHT.wav	2	1	blb_dichoticlistening_ba-ba.mp3	ba	ba	0	left
6.6.1	mac	2023-06-25	14:58:07	0	0	63db1ccde6434330f2a99d87	2	1	DL_test	13	DL_test	33			0		ta	1	2031	6	6	antiphase_hc_ois.wav	3	6	6	noise_calib_stim_RIGHT.wav	2	35	blb_dichoticlistening_ta-pa.mp3	ta	pa	1	left
6.6.1	mac	2023-06-25	14:58:07	0	0	63db1ccde6434330f2a99d87	2	1	DL_test	13	DL_test	34			0		ga	0	3231	6	6	antiphase_hc_ois.wav	3	6	6	noise_calib_stim_RIGHT.wav	2	12	blb_dichoticlistening_da-ta.mp3	da	ta	1	other
6.6.1	mac	2023-06-25	14:58:07	0	0	63db1ccde6434330f2a99d87	2	1	DL_test	13	DL_test	35			0		pa	1	1214	6	6	antiphase_hc_ois.wav	3	6	6	noise_calib_stim_RIGHT.wav	2	5	blb_dichoticlistening_ba-pa.mp3	ba	pa	1	right
6.6.1	mac	2023-06-25	14:58:07	0	0	63db1ccde6434330f2a99d87	2	1	DL_test	13	DL_test	36			0		pa	0	2098	6	6	antiphase_hc_ois.wav	3	6	6	noise_calib_stim_RIGHT.wav	2	10	blb_dichoticlistening_da-ka.mp3	da	ka	1	other
6.6.1	mac	2023-06-25	14:58:07	0	0	63db1ccde6434330f2a99d87	2	1	DL_test	14	DL_test	1			0		ba	1	1732	6	6	antiphase_hc_ois.wav	3	6	6	noise_calib_stim_RIGHT.wav	2	31	blb_dichoticlistening_ta-ba.mp3	ta	ba	1	right
6.6.1	mac	2023-06-25	14:58:07	0	0	63db1ccde6434330f2a99d87	2	1	DL_test	14	DL_test	2			0		ka	1	1232	6	6	antiphase_hc_ois.wav	3	6	6	noise_calib_stim_RIGHT.wav	2	34	blb_dichoticlistening_ta-ka.mp3	ta	ka	1	right
6.6.1	mac	2023-06-25	14:58:07	0	0	63db1ccde6434330f2a99d87	2	1	DL_test	14	DL_test	3			0		ga	1	2015	6	6	antiphase_hc_ois.wav	3	6	6	noise_calib_stim_RIGHT.wav	2	17	blb_dichoticlistening_ga-pa.mp3	ga	pa	1	left
6.6.1	mac	2023-06-25	14:58:07	0	0	63db1ccde6434330f2a99d87	2	1	DL_test	14	DL_test	4			0		pa	0	1398	6	6	antiphase_hc_ois.wav	3	6	6	noise_calib_stim_RIGHT.wav	2	10	blb_dichoticlistening_da-ka.mp3	da	ka	1	other
6.6.1	mac	2023-06-25	14:58:07	0	0	63db1ccde6434330f2a99d87	2	1	DL_test	14	DL_test	5			0		ba	1	1731	6	6	antiphase_hc_ois.wav	3	6	6	noise_calib_stim_RIGHT.wav	2	7	blb_dichoticlistening_da-ba.mp3	da	ba	1	right
6.6.1	mac	2023-06-25	14:58:07	0	0	63db1ccde6434330f2a99d87	2	1	DL_test	14	DL_test	6			0		da	1	1832	6	6	antiphase_hc_ois.wav	3	6	6	noise_calib_stim_RIGHT.wav	2	26	blb_dichoticlistening_pa-da.mp3	pa	da	1	right
6.6.1	mac	2023-06-25	14:58:07	0	0	63db1ccde6434330f2a99d87	2	1	DL_test	14	DL_test	7			0		ga	1	1599	6	6	antiphase_hc_ois.wav	3	6	6	noise_calib_stim_RIGHT.wav	2	27	blb_dichoticlistening_pa-ga.mp3	pa	ga	1	right
6.6.1	mac	2023-06-25	14:58:07	0	0	63db1ccde6434330f2a99d87	2	1	DL_test	14	DL_test	8			0		ka	0	2715	6	6	antiphase_hc_ois.wav	3	6	6	noise_calib_stim_RIGHT.wav	2	35	blb_dichoticlistening_ta-pa.mp3	ta	pa	1	other
6.6.1	mac	2023-06-25	14:58:07	0	0	63db1ccde6434330f2a99d87	2	1	DL_test	14	DL_test	9			0		da	1	1649	6	6	antiphase_hc_ois.wav	3	6	6	noise_calib_stim_RIGHT.wav	2	2	blb_dichoticlistening_ba-da.mp3	ba	da	1	right
6.6.1	mac	2023-06-25	14:58:07	0	0	63db1ccde6434330f2a99d87	2	1	DL_test	14	DL_test	10			0		ba	1	1332	6	6	antiphase_hc_ois.wav	3	6	6	noise_calib_stim_RIGHT.wav	2	13	blb_dichoticlistening_ga-ba.mp3	ga	ba	1	right
6.6.1	mac	2023-06-25	14:58:07	0	0	63db1ccde6434330f2a99d87	2	1	DL_test	14	DL_test	11			0		ga	1	1232	6	6	antiphase_hc_ois.wav	3	6	6	noise_calib_stim_RIGHT.wav	2	3	blb_dichoticlistening_ba-ga.mp3	ba	ga	1	right
6.6.1	mac	2023-06-25	14:58:07	0	0	63db1ccde6434330f2a99d87	2	1	DL_test	14	DL_test	12			0		pa	1	1282	6	6	antiphase_hc_ois.wav	3	6	6	noise_calib_stim_RIGHT.wav	2	29	blb_dichoticlistening_pa-pa.mp3	pa	pa	0	left
6.6.1	mac	2023-06-25	14:58:07	0	0	63db1ccde6434330f2a99d87	2	1	DL_test	14	DL_test	13			0		ba	1	2333	6	6	antiphase_hc_ois.wav	3	6	6	noise_calib_stim_RIGHT.wav	2	25	blb_dichoticlistening_pa-ba.mp3	pa	ba	1	right
6.6.1	mac	2023-06-25	14:58:07	0	0	63db1ccde6434330f2a99d87	2	1	DL_test	14	DL_test	14			0		ba	1	1749	6	6	antiphase_hc_ois.wav	3	6	6	noise_calib_stim_RIGHT.wav	2	1	blb_dichoticlistening_ba-ba.mp3	ba	ba	0	left
6.6.1	mac	2023-06-25	14:58:07	0	0	63db1ccde6434330f2a99d87	2	1	DL_test	14	DL_test	15			0		pa	1	1421	6	6	antiphase_hc_ois.wav	3	6	6	noise_calib_stim_RIGHT.wav	2	5	blb_dichoticlistening_ba-pa.mp3	ba	pa	1	right
6.6.1	mac	2023-06-25	14:58:07	0	0	63db1ccde6434330f2a99d87	2	1	DL_test	14	DL_test	16			0		ga	1	1193	6	6	antiphase_hc_ois.wav	3	6	6	noise_calib_stim_RIGHT.wav	2	9	blb_dichoticlistening_da-ga.mp3	da	ga	1	right
6.6.1	mac	2023-06-25	14:58:07	0	0	63db1ccde6434330f2a99d87	2	1	DL_test	14	DL_test	17			0		ka	1	1299	6	6	antiphase_hc_ois.wav	3	6	6	noise_calib_stim_RIGHT.wav	2	24	blb_dichoticlistening_ka-ta.mp3	ka	ta	1	left
6.6.1	mac	2023-06-25	14:58:07	0	0	63db1ccde6434330f2a99d87	2	1	DL_test	14	DL_test	18			0		ta	1	1682	6	6	antiphase_hc_ois.wav	3	6	6	noise_calib_stim_RIGHT.wav	2	12	blb_dichoticlistening_da-ta.mp3	da	ta	1	right
6.6.1	mac	2023-06-25	14:58:07	0	0	63db1ccde6434330f2a99d87	2	1	DL_test	14	DL_test	19			0		ka	1	1765	6	6	antiphase_hc_ois.wav	3	6	6	noise_calib_stim_RIGHT.wav	2	23	blb_dichoticlistening_ka-pa.mp3	ka	pa	1	left
6.6.1	mac	2023-06-25	14:58:07	0	0	63db1ccde6434330f2a99d87	2	1	DL_test	14	DL_test	20			0		da	1	1349	6	6	antiphase_hc_ois.wav	3	6	6	noise_calib_stim_RIGHT.wav	2	8	blb_dichoticlistening_da-da.mp3	da	da	0	left
6.6.1	mac	2023-06-25	14:58:07	0	0	63db1ccde6434330f2a99d87	2	1	DL_test	14	DL_test	21			0		ka	1	1499	6	6	antiphase_hc_ois.wav	3	6	6	noise_calib_stim_RIGHT.wav	2	4	blb_dichoticlistening_ba-ka.mp3	ba	ka	1	right
6.6.1	mac	2023-06-25	14:58:07	0	0	63db1ccde6434330f2a99d87	2	1	DL_test	14	DL_test	22			0		ka	0	3249	6	6	antiphase_hc_ois.wav	3	6	6	noise_calib_stim_RIGHT.wav	2	11	blb_dichoticlistening_da-pa.mp3	da	pa	1	other
6.6.1	mac	2023-06-25	14:58:07	0	0	63db1ccde6434330f2a99d87	2	1	DL_test	14	DL_test	23			0		ta	1	1949	6	6	antiphase_hc_ois.wav	3	6	6	noise_calib_stim_RIGHT.wav	2	18	blb_dichoticlistening_ga-ta.mp3	ga	ta	1	right
6.6.1	mac	2023-06-25	14:58:07	0	0	63db1ccde6434330f2a99d87	2	1	DL_test	14	DL_test	24			0		ta	0	5799	6	6	antiphase_hc_ois.wav	3	6	6	noise_calib_stim_RIGHT.wav	2	20	blb_dichoticlistening_ka-da.mp3	ka	da	1	other
6.6.1	mac	2023-06-25	14:58:07	0	0	63db1ccde6434330f2a99d87	2	1	DL_test	14	DL_test	25			0		ta	1	1266	6	6	antiphase_hc_ois.wav	3	6	6	noise_calib_stim_RIGHT.wav	2	36	blb_dichoticlistening_ta-ta.mp3	ta	ta	0	left
6.6.1	mac	2023-06-25	14:58:07	0	0	63db1ccde6434330f2a99d87	2	1	DL_test	14	DL_test	26			0		da	0	1382	6	6	antiphase_hc_ois.wav	3	6	6	noise_calib_stim_RIGHT.wav	2	33	blb_dichoticlistening_ta-ga.mp3	ta	ga	1	other
6.6.1	mac	2023-06-25	14:58:07	0	0	63db1ccde6434330f2a99d87	2	1	DL_test	14	DL_test	27			0		ga	1	815	6	6	antiphase_hc_ois.wav	3	6	6	noise_calib_stim_RIGHT.wav	2	15	blb_dichoticlistening_ga-ga.mp3	ga	ga	0	left
6.6.1	mac	2023-06-25	14:58:07	0	0	63db1ccde6434330f2a99d87	2	1	DL_test	14	DL_test	28			0		ga	1	1749	6	6	antiphase_hc_ois.wav	3	6	6	noise_calib_stim_RIGHT.wav	2	21	blb_dichoticlistening_ka-ga.mp3	ka	ga	1	right
6.6.1	mac	2023-06-25	14:58:07	0	0	63db1ccde6434330f2a99d87	2	1	DL_test	14	DL_test	29			0		ga	1	2548	6	6	antiphase_hc_ois.wav	3	6	6	noise_calib_stim_RIGHT.wav	2	14	blb_dichoticlistening_ga-da.mp3	ga	da	1	left
6.6.1	mac	2023-06-25	14:58:07	0	0	63db1ccde6434330f2a99d87	2	1	DL_test	14	DL_test	30			0		ta	1	1467	6	6	antiphase_hc_ois.wav	3	6	6	noise_calib_stim_RIGHT.wav	2	6	blb_dichoticlistening_ba-ta.mp3	ba	ta	1	right
6.6.1	mac	2023-06-25	14:58:07	0	0	63db1ccde6434330f2a99d87	2	1	DL_test	14	DL_test	31			0		da	1	2233	6	6	antiphase_hc_ois.wav	3	6	6	noise_calib_stim_RIGHT.wav	2	32	blb_dichoticlistening_ta-da.mp3	ta	da	1	right
6.6.1	mac	2023-06-25	14:58:07	0	0	63db1ccde6434330f2a99d87	2	1	DL_test	14	DL_test	32			0		ka	1	1333	6	6	antiphase_hc_ois.wav	3	6	6	noise_calib_stim_RIGHT.wav	2	22	blb_dichoticlistening_ka-ka.mp3	ka	ka	0	left
6.6.1	mac	2023-06-25	14:58:07	0	0	63db1ccde6434330f2a99d87	2	1	DL_test	14	DL_test	33			0		ba	1	1715	6	6	antiphase_hc_ois.wav	3	6	6	noise_calib_stim_RIGHT.wav	2	19	blb_dichoticlistening_ka-ba.mp3	ka	ba	1	right
6.6.1	mac	2023-06-25	14:58:07	0	0	63db1ccde6434330f2a99d87	2	1	DL_test	14	DL_test	34			0		ta	1	1583	6	6	antiphase_hc_ois.wav	3	6	6	noise_calib_stim_RIGHT.wav	2	30	blb_dichoticlistening_pa-ta.mp3	pa	ta	1	right
6.6.1	mac	2023-06-25	14:58:07	0	0	63db1ccde6434330f2a99d87	2	1	DL_test	14	DL_test	35			0		ka	1	1449	6	6	antiphase_hc_ois.wav	3	6	6	noise_calib_stim_RIGHT.wav	2	28	blb_dichoticlistening_pa-ka.mp3	pa	ka	1	right
6.6.1	mac	2023-06-25	14:58:07	0	0	63db1ccde6434330f2a99d87	2	1	DL_test	14	DL_test	36			0		ga	1	2599	6	6	antiphase_hc_ois.wav	3	6	6	noise_calib_stim_RIGHT.wav	2	16	blb_dichoticlistening_ga-ka.mp3	ga	ka	1	left
6.6.1	mac	2023-06-25	14:58:07	0	0	63db1ccde6434330f2a99d87	2	1	DL_test	15	DL_test	1			0		ga	1	1318	6	6	antiphase_hc_ois.wav	3	6	6	noise_calib_stim_RIGHT.wav	2	21	blb_dichoticlistening_ka-ga.mp3	ka	ga	1	right
6.6.1	mac	2023-06-25	14:58:07	0	0	63db1ccde6434330f2a99d87	2	1	DL_test	15	DL_test	2			0		ga	0	2782	6	6	antiphase_hc_ois.wav	3	6	6	noise_calib_stim_RIGHT.wav	2	19	blb_dichoticlistening_ka-ba.mp3	ka	ba	1	other
6.6.1	mac	2023-06-25	14:58:07	0	0	63db1ccde6434330f2a99d87	2	1	DL_test	15	DL_test	3			0		ka	1	1700	6	6	antiphase_hc_ois.wav	3	6	6	noise_calib_stim_RIGHT.wav	2	28	blb_dichoticlistening_pa-ka.mp3	pa	ka	1	right
6.6.1	mac	2023-06-25	14:58:07	0	0	63db1ccde6434330f2a99d87	2	1	DL_test	15	DL_test	4			0		ga	0	1433	6	6	antiphase_hc_ois.wav	3	6	6	noise_calib_stim_RIGHT.wav	2	20	blb_dichoticlistening_ka-da.mp3	ka	da	1	other
6.6.1	mac	2023-06-25	14:58:07	0	0	63db1ccde6434330f2a99d87	2	1	DL_test	15	DL_test	5			0		ba	1	1916	6	6	antiphase_hc_ois.wav	3	6	6	noise_calib_stim_RIGHT.wav	2	31	blb_dichoticlistening_ta-ba.mp3	ta	ba	1	right
6.6.1	mac	2023-06-25	14:58:07	0	0	63db1ccde6434330f2a99d87	2	1	DL_test	15	DL_test	6			0		ba	1	2400	6	6	antiphase_hc_ois.wav	3	6	6	noise_calib_stim_RIGHT.wav	2	3	blb_dichoticlistening_ba-ga.mp3	ba	ga	1	left
6.6.1	mac	2023-06-25	14:58:07	0	0	63db1ccde6434330f2a99d87	2	1	DL_test	15	DL_test	7			0		ba	1	1816	6	6	antiphase_hc_ois.wav	3	6	6	noise_calib_stim_RIGHT.wav	2	25	blb_dichoticlistening_pa-ba.mp3	pa	ba	1	right
6.6.1	mac	2023-06-25	14:58:07	0	0	63db1ccde6434330f2a99d87	2	1	DL_test	15	DL_test	8			0		pa	1	1283	6	6	antiphase_hc_ois.wav	3	6	6	noise_calib_stim_RIGHT.wav	2	29	blb_dichoticlistening_pa-pa.mp3	pa	pa	0	left
6.6.1	mac	2023-06-25	14:58:07	0	0	63db1ccde6434330f2a99d87	2	1	DL_test	15	DL_test	9			0		ba	1	1999	6	6	antiphase_hc_ois.wav	3	6	6	noise_calib_stim_RIGHT.wav	2	13	blb_dichoticlistening_ga-ba.mp3	ga	ba	1	right
6.6.1	mac	2023-06-25	14:58:07	0	0	63db1ccde6434330f2a99d87	2	1	DL_test	15	DL_test	10			0		ka	1	1283	6	6	antiphase_hc_ois.wav	3	6	6	noise_calib_stim_RIGHT.wav	2	22	blb_dichoticlistening_ka-ka.mp3	ka	ka	0	left
6.6.1	mac	2023-06-25	14:58:07	0	0	63db1ccde6434330f2a99d87	2	1	DL_test	15	DL_test	11			0		ka	1	1100	6	6	antiphase_hc_ois.wav	3	6	6	noise_calib_stim_RIGHT.wav	2	4	blb_dichoticlistening_ba-ka.mp3	ba	ka	1	right
6.6.1	mac	2023-06-25	14:58:07	0	0	63db1ccde6434330f2a99d87	2	1	DL_test	15	DL_test	12			0		pa	0	1216	6	6	antiphase_hc_ois.wav	3	6	6	noise_calib_stim_RIGHT.wav	2	10	blb_dichoticlistening_da-ka.mp3	da	ka	1	other
6.6.1	mac	2023-06-25	14:58:07	0	0	63db1ccde6434330f2a99d87	2	1	DL_test	15	DL_test	13			0		da	1	1317	6	6	antiphase_hc_ois.wav	3	6	6	noise_calib_stim_RIGHT.wav	2	8	blb_dichoticlistening_da-da.mp3	da	da	0	left
6.6.1	mac	2023-06-25	14:58:07	0	0	63db1ccde6434330f2a99d87	2	1	DL_test	15	DL_test	14			0		ba	1	2133	6	6	antiphase_hc_ois.wav	3	6	6	noise_calib_stim_RIGHT.wav	2	7	blb_dichoticlistening_da-ba.mp3	da	ba	1	right
6.6.1	mac	2023-06-25	14:58:07	0	0	63db1ccde6434330f2a99d87	2	1	DL_test	15	DL_test	15			0		ka	1	1048	6	6	antiphase_hc_ois.wav	3	6	6	noise_calib_stim_RIGHT.wav	2	34	blb_dichoticlistening_ta-ka.mp3	ta	ka	1	right
6.6.1	mac	2023-06-25	14:58:07	0	0	63db1ccde6434330f2a99d87	2	1	DL_test	15	DL_test	16			0		pa	1	1833	6	6	antiphase_hc_ois.wav	3	6	6	noise_calib_stim_RIGHT.wav	2	5	blb_dichoticlistening_ba-pa.mp3	ba	pa	1	right
6.6.1	mac	2023-06-25	14:58:07	0	0	63db1ccde6434330f2a99d87	2	1	DL_test	15	DL_test	17			0		ka	1	1383	6	6	antiphase_hc_ois.wav	3	6	6	noise_calib_stim_RIGHT.wav	2	24	blb_dichoticlistening_ka-ta.mp3	ka	ta	1	left
6.6.1	mac	2023-06-25	14:58:07	0	0	63db1ccde6434330f2a99d87	2	1	DL_test	15	DL_test	18			0		ga	1	1183	6	6	antiphase_hc_ois.wav	3	6	6	noise_calib_stim_RIGHT.wav	2	27	blb_dichoticlistening_pa-ga.mp3	pa	ga	1	right
6.6.1	mac	2023-06-25	14:58:07	0	0	63db1ccde6434330f2a99d87	2	1	DL_test	15	DL_test	19			0		ta	1	1584	6	6	antiphase_hc_ois.wav	3	6	6	noise_calib_stim_RIGHT.wav	2	30	blb_dichoticlistening_pa-ta.mp3	pa	ta	1	right
6.6.1	mac	2023-06-25	14:58:07	0	0	63db1ccde6434330f2a99d87	2	1	DL_test	15	DL_test	20			0		ta	1	1117	6	6	antiphase_hc_ois.wav	3	6	6	noise_calib_stim_RIGHT.wav	2	6	blb_dichoticlistening_ba-ta.mp3	ba	ta	1	right
6.6.1	mac	2023-06-25	14:58:07	0	0	63db1ccde6434330f2a99d87	2	1	DL_test	15	DL_test	21			0		ta	1	1984	6	6	antiphase_hc_ois.wav	3	6	6	noise_calib_stim_RIGHT.wav	2	12	blb_dichoticlistening_da-ta.mp3	da	ta	1	right
6.6.1	mac	2023-06-25	14:58:07	0	0	63db1ccde6434330f2a99d87	2	1	DL_test	15	DL_test	22			0		ga	1	1384	6	6	antiphase_hc_ois.wav	3	6	6	noise_calib_stim_RIGHT.wav	2	33	blb_dichoticlistening_ta-ga.mp3	ta	ga	1	right
6.6.1	mac	2023-06-25	14:58:07	0	0	63db1ccde6434330f2a99d87	2	1	DL_test	15	DL_test	23			0		pa	1	1334	6	6	antiphase_hc_ois.wav	3	6	6	noise_calib_stim_RIGHT.wav	2	35	blb_dichoticlistening_ta-pa.mp3	ta	pa	1	right
6.6.1	mac	2023-06-25	14:58:07	0	0	63db1ccde6434330f2a99d87	2	1	DL_test	15	DL_test	24			0		pa	1	1216	6	6	antiphase_hc_ois.wav	3	6	6	noise_calib_stim_RIGHT.wav	2	17	blb_dichoticlistening_ga-pa.mp3	ga	pa	1	right
6.6.1	mac	2023-06-25	14:58:07	0	0	63db1ccde6434330f2a99d87	2	1	DL_test	15	DL_test	25			0		pa	1	950	6	6	antiphase_hc_ois.wav	3	6	6	noise_calib_stim_RIGHT.wav	2	11	blb_dichoticlistening_da-pa.mp3	da	pa	1	right
6.6.1	mac	2023-06-25	14:58:07	0	0	63db1ccde6434330f2a99d87	2	1	DL_test	15	DL_test	26			0		da	1	1287	6	6	antiphase_hc_ois.wav	3	6	6	noise_calib_stim_RIGHT.wav	2	9	blb_dichoticlistening_da-ga.mp3	da	ga	1	left
6.6.1	mac	2023-06-25	14:58:07	0	0	63db1ccde6434330f2a99d87	2	1	DL_test	15	DL_test	27			0		da	1	2001	6	6	antiphase_hc_ois.wav	3	6	6	noise_calib_stim_RIGHT.wav	2	14	blb_dichoticlistening_ga-da.mp3	ga	da	1	right
6.6.1	mac	2023-06-25	14:58:07	0	0	63db1ccde6434330f2a99d87	2	1	DL_test	15	DL_test	28			0		ba	1	1300	6	6	antiphase_hc_ois.wav	3	6	6	noise_calib_stim_RIGHT.wav	2	1	blb_dichoticlistening_ba-ba.mp3	ba	ba	0	left
6.6.1	mac	2023-06-25	14:58:07	0	0	63db1ccde6434330f2a99d87	2	1	DL_test	15	DL_test	29			0		da	1	1151	6	6	antiphase_hc_ois.wav	3	6	6	noise_calib_stim_RIGHT.wav	2	2	blb_dichoticlistening_ba-da.mp3	ba	da	1	right
6.6.1	mac	2023-06-25	14:58:07	0	0	63db1ccde6434330f2a99d87	2	1	DL_test	15	DL_test	30			0		ka	0	1051	6	6	antiphase_hc_ois.wav	3	6	6	noise_calib_stim_RIGHT.wav	2	18	blb_dichoticlistening_ga-ta.mp3	ga	ta	1	other
6.6.1	mac	2023-06-25	14:58:07	0	0	63db1ccde6434330f2a99d87	2	1	DL_test	15	DL_test	31			0		ga	1	1216	6	6	antiphase_hc_ois.wav	3	6	6	noise_calib_stim_RIGHT.wav	2	15	blb_dichoticlistening_ga-ga.mp3	ga	ga	0	left
6.6.1	mac	2023-06-25	14:58:07	0	0	63db1ccde6434330f2a99d87	2	1	DL_test	15	DL_test	32			0		ta	0	2383	6	6	antiphase_hc_ois.wav	3	6	6	noise_calib_stim_RIGHT.wav	2	26	blb_dichoticlistening_pa-da.mp3	pa	da	1	other
6.6.1	mac	2023-06-25	14:58:07	0	0	63db1ccde6434330f2a99d87	2	1	DL_test	15	DL_test	33			0		ta	1	1250	6	6	antiphase_hc_ois.wav	3	6	6	noise_calib_stim_RIGHT.wav	2	36	blb_dichoticlistening_ta-ta.mp3	ta	ta	0	left
6.6.1	mac	2023-06-25	14:58:07	0	0	63db1ccde6434330f2a99d87	2	1	DL_test	15	DL_test	34			0		da	1	1902	6	6	antiphase_hc_ois.wav	3	6	6	noise_calib_stim_RIGHT.wav	2	32	blb_dichoticlistening_ta-da.mp3	ta	da	1	right
6.6.1	mac	2023-06-25	14:58:07	0	0	63db1ccde6434330f2a99d87	2	1	DL_test	15	DL_test	35			0		ka	1	1534	6	6	antiphase_hc_ois.wav	3	6	6	noise_calib_stim_RIGHT.wav	2	23	blb_dichoticlistening_ka-pa.mp3	ka	pa	1	left
6.6.1	mac	2023-06-25	14:58:07	0	0	63db1ccde6434330f2a99d87	2	1	DL_test	15	DL_test	36			0		ka	1	1085	6	6	antiphase_hc_ois.wav	3	6	6	noise_calib_stim_RIGHT.wav	2	16	blb_dichoticlistening_ga-ka.mp3	ga	ka	1	right
6.6.1	mac	2023-06-25	14:58:07	0	0	63db1ccde6434330f2a99d87	2	1	DL_test	16	DL_test	1			0		ka	1	1384	6	6	antiphase_hc_ois.wav	3	6	6	noise_calib_stim_RIGHT.wav	2	16	blb_dichoticlistening_ga-ka.mp3	ga	ka	1	right
6.6.1	mac	2023-06-25	14:58:07	0	0	63db1ccde6434330f2a99d87	2	1	DL_test	16	DL_test	2			0		da	0	1384	6	6	antiphase_hc_ois.wav	3	6	6	noise_calib_stim_RIGHT.wav	2	33	blb_dichoticlistening_ta-ga.mp3	ta	ga	1	other
6.6.1	mac	2023-06-25	14:58:07	0	0	63db1ccde6434330f2a99d87	2	1	DL_test	16	DL_test	3			0		ta	1	1617	6	6	antiphase_hc_ois.wav	3	6	6	noise_calib_stim_RIGHT.wav	2	36	blb_dichoticlistening_ta-ta.mp3	ta	ta	0	left
6.6.1	mac	2023-06-25	14:58:07	0	0	63db1ccde6434330f2a99d87	2	1	DL_test	16	DL_test	4			0		ga	1	1950	6	6	antiphase_hc_ois.wav	3	6	6	noise_calib_stim_RIGHT.wav	2	15	blb_dichoticlistening_ga-ga.mp3	ga	ga	0	left
6.6.1	mac	2023-06-25	14:58:07	0	0	63db1ccde6434330f2a99d87	2	1	DL_test	16	DL_test	5			0		ba	1	1218	6	6	antiphase_hc_ois.wav	3	6	6	noise_calib_stim_RIGHT.wav	2	7	blb_dichoticlistening_da-ba.mp3	da	ba	1	right
6.6.1	mac	2023-06-25	14:58:07	0	0	63db1ccde6434330f2a99d87	2	1	DL_test	16	DL_test	6			0		ta	1	1384	6	6	antiphase_hc_ois.wav	3	6	6	noise_calib_stim_RIGHT.wav	2	12	blb_dichoticlistening_da-ta.mp3	da	ta	1	right
6.6.1	mac	2023-06-25	14:58:07	0	0	63db1ccde6434330f2a99d87	2	1	DL_test	16	DL_test	7			0		da	1	1451	6	6	antiphase_hc_ois.wav	3	6	6	noise_calib_stim_RIGHT.wav	2	26	blb_dichoticlistening_pa-da.mp3	pa	da	1	right
6.6.1	mac	2023-06-25	14:58:07	0	0	63db1ccde6434330f2a99d87	2	1	DL_test	16	DL_test	8			0		ta	1	1200	6	6	antiphase_hc_ois.wav	3	6	6	noise_calib_stim_RIGHT.wav	2	30	blb_dichoticlistening_pa-ta.mp3	pa	ta	1	right
6.6.1	mac	2023-06-25	14:58:07	0	0	63db1ccde6434330f2a99d87	2	1	DL_test	16	DL_test	9			0		pa	1	1018	6	6	antiphase_hc_ois.wav	3	6	6	noise_calib_stim_RIGHT.wav	2	17	blb_dichoticlistening_ga-pa.mp3	ga	pa	1	right
6.6.1	mac	2023-06-25	14:58:07	0	0	63db1ccde6434330f2a99d87	2	1	DL_test	16	DL_test	10			0		ba	1	1681	6	6	antiphase_hc_ois.wav	3	6	6	noise_calib_stim_RIGHT.wav	2	1	blb_dichoticlistening_ba-ba.mp3	ba	ba	0	left
6.6.1	mac	2023-06-25	14:58:07	0	0	63db1ccde6434330f2a99d87	2	1	DL_test	16	DL_test	11			0		ka	1	1101	6	6	antiphase_hc_ois.wav	3	6	6	noise_calib_stim_RIGHT.wav	2	4	blb_dichoticlistening_ba-ka.mp3	ba	ka	1	right
6.6.1	mac	2023-06-25	14:58:07	0	0	63db1ccde6434330f2a99d87	2	1	DL_test	16	DL_test	12			0		da	0	2117	6	6	antiphase_hc_ois.wav	3	6	6	noise_calib_stim_RIGHT.wav	2	19	blb_dichoticlistening_ka-ba.mp3	ka	ba	1	other
6.6.1	mac	2023-06-25	14:58:07	0	0	63db1ccde6434330f2a99d87	2	1	DL_test	16	DL_test	13			0		ba	1	1553	6	6	antiphase_hc_ois.wav	3	6	6	noise_calib_stim_RIGHT.wav	2	13	blb_dichoticlistening_ga-ba.mp3	ga	ba	1	right
6.6.1	mac	2023-06-25	14:58:07	0	0	63db1ccde6434330f2a99d87	2	1	DL_test	16	DL_test	14			0		da	1	1067	6	6	antiphase_hc_ois.wav	3	6	6	noise_calib_stim_RIGHT.wav	2	32	blb_dichoticlistening_ta-da.mp3	ta	da	1	right
6.6.1	mac	2023-06-25	14:58:07	0	0	63db1ccde6434330f2a99d87	2	1	DL_test	16	DL_test	15			0		ka	1	1218	6	6	antiphase_hc_ois.wav	3	6	6	noise_calib_stim_RIGHT.wav	2	23	blb_dichoticlistening_ka-pa.mp3	ka	pa	1	left
6.6.1	mac	2023-06-25	14:58:07	0	0	63db1ccde6434330f2a99d87	2	1	DL_test	16	DL_test	16			0		ta	1	1468	6	6	antiphase_hc_ois.wav	3	6	6	noise_calib_stim_RIGHT.wav	2	6	blb_dichoticlistening_ba-ta.mp3	ba	ta	1	right
6.6.1	mac	2023-06-25	14:58:07	0	0	63db1ccde6434330f2a99d87	2	1	DL_test	16	DL_test	17			0		ka	1	1117	6	6	antiphase_hc_ois.wav	3	6	6	noise_calib_stim_RIGHT.wav	2	28	blb_dichoticlistening_pa-ka.mp3	pa	ka	1	right
6.6.1	mac	2023-06-25	14:58:07	0	0	63db1ccde6434330f2a99d87	2	1	DL_test	16	DL_test	18			0		pa	1	2318	6	6	antiphase_hc_ois.wav	3	6	6	noise_calib_stim_RIGHT.wav	2	35	blb_dichoticlistening_ta-pa.mp3	ta	pa	1	right
6.6.1	mac	2023-06-25	14:58:07	0	0	63db1ccde6434330f2a99d87	2	1	DL_test	16	DL_test	19			0		ka	1	2051	6	6	antiphase_hc_ois.wav	3	6	6	noise_calib_stim_RIGHT.wav	2	34	blb_dichoticlistening_ta-ka.mp3	ta	ka	1	right
6.6.1	mac	2023-06-25	14:58:07	0	0	63db1ccde6434330f2a99d87	2	1	DL_test	16	DL_test	20			0		ta	1	3718	6	6	antiphase_hc_ois.wav	3	6	6	noise_calib_stim_RIGHT.wav	2	18	blb_dichoticlistening_ga-ta.mp3	ga	ta	1	right
6.6.1	mac	2023-06-25	14:58:07	0	0	63db1ccde6434330f2a99d87	2	1	DL_test	16	DL_test	21			0		pa	0	1201	6	6	antiphase_hc_ois.wav	3	6	6	noise_calib_stim_RIGHT.wav	2	10	blb_dichoticlistening_da-ka.mp3	da	ka	1	other
6.6.1	mac	2023-06-25	14:58:07	0	0	63db1ccde6434330f2a99d87	2	1	DL_test	16	DL_test	22			0		ba	1	1584	6	6	antiphase_hc_ois.wav	3	6	6	noise_calib_stim_RIGHT.wav	2	31	blb_dichoticlistening_ta-ba.mp3	ta	ba	1	right
6.6.1	mac	2023-06-25	14:58:07	0	0	63db1ccde6434330f2a99d87	2	1	DL_test	16	DL_test	23			0		ga	1	1251	6	6	antiphase_hc_ois.wav	3	6	6	noise_calib_stim_RIGHT.wav	2	27	blb_dichoticlistening_pa-ga.mp3	pa	ga	1	right
6.6.1	mac	2023-06-25	14:58:07	0	0	63db1ccde6434330f2a99d87	2	1	DL_test	16	DL_test	24			0		ba	1	2367	6	6	antiphase_hc_ois.wav	3	6	6	noise_calib_stim_RIGHT.wav	2	25	blb_dichoticlistening_pa-ba.mp3	pa	ba	1	right
6.6.1	mac	2023-06-25	14:58:07	0	0	63db1ccde6434330f2a99d87	2	1	DL_test	16	DL_test	25			0		da	1	1251	6	6	antiphase_hc_ois.wav	3	6	6	noise_calib_stim_RIGHT.wav	2	2	blb_dichoticlistening_ba-da.mp3	ba	da	1	right
6.6.1	mac	2023-06-25	14:58:07	0	0	63db1ccde6434330f2a99d87	2	1	DL_test	16	DL_test	26			0		pa	1	1435	6	6	antiphase_hc_ois.wav	3	6	6	noise_calib_stim_RIGHT.wav	2	5	blb_dichoticlistening_ba-pa.mp3	ba	pa	1	right
6.6.1	mac	2023-06-25	14:58:07	0	0	63db1ccde6434330f2a99d87	2	1	DL_test	16	DL_test	27			0		ga	0	1735	6	6	antiphase_hc_ois.wav	3	6	6	noise_calib_stim_RIGHT.wav	2	20	blb_dichoticlistening_ka-da.mp3	ka	da	1	other
6.6.1	mac	2023-06-25	14:58:07	0	0	63db1ccde6434330f2a99d87	2	1	DL_test	16	DL_test	28			0		da	1	1801	6	6	antiphase_hc_ois.wav	3	6	6	noise_calib_stim_RIGHT.wav	2	9	blb_dichoticlistening_da-ga.mp3	da	ga	1	left
6.6.1	mac	2023-06-25	14:58:07	0	0	63db1ccde6434330f2a99d87	2	1	DL_test	16	DL_test	29			0		ka	1	1335	6	6	antiphase_hc_ois.wav	3	6	6	noise_calib_stim_RIGHT.wav	2	22	blb_dichoticlistening_ka-ka.mp3	ka	ka	0	left
6.6.1	mac	2023-06-25	14:58:07	0	0	63db1ccde6434330f2a99d87	2	1	DL_test	16	DL_test	30			0		da	1	1385	6	6	antiphase_hc_ois.wav	3	6	6	noise_calib_stim_RIGHT.wav	2	8	blb_dichoticlistening_da-da.mp3	da	da	0	left
6.6.1	mac	2023-06-25	14:58:07	0	0	63db1ccde6434330f2a99d87	2	1	DL_test	16	DL_test	31			0		da	1	1352	6	6	antiphase_hc_ois.wav	3	6	6	noise_calib_stim_RIGHT.wav	2	14	blb_dichoticlistening_ga-da.mp3	ga	da	1	right
6.6.1	mac	2023-06-25	14:58:07	0	0	63db1ccde6434330f2a99d87	2	1	DL_test	16	DL_test	32			0		pa	1	1152	6	6	antiphase_hc_ois.wav	3	6	6	noise_calib_stim_RIGHT.wav	2	29	blb_dichoticlistening_pa-pa.mp3	pa	pa	0	left
6.6.1	mac	2023-06-25	14:58:07	0	0	63db1ccde6434330f2a99d87	2	1	DL_test	16	DL_test	33			0		ga	1	1218	6	6	antiphase_hc_ois.wav	3	6	6	noise_calib_stim_RIGHT.wav	2	21	blb_dichoticlistening_ka-ga.mp3	ka	ga	1	right
6.6.1	mac	2023-06-25	14:58:07	0	0	63db1ccde6434330f2a99d87	2	1	DL_test	16	DL_test	34			0		ta	1	2135	6	6	antiphase_hc_ois.wav	3	6	6	noise_calib_stim_RIGHT.wav	2	24	blb_dichoticlistening_ka-ta.mp3	ka	ta	1	right
6.6.1	mac	2023-06-25	14:58:07	0	0	63db1ccde6434330f2a99d87	2	1	DL_test	16	DL_test	35			0		pa	1	1035	6	6	antiphase_hc_ois.wav	3	6	6	noise_calib_stim_RIGHT.wav	2	11	blb_dichoticlistening_da-pa.mp3	da	pa	1	right
6.6.1	mac	2023-06-25	14:58:07	0	0	63db1ccde6434330f2a99d87	2	1	DL_test	16	DL_test	36			0		ga	1	1485	6	6	antiphase_hc_ois.wav	3	6	6	noise_calib_stim_RIGHT.wav	2	3	blb_dichoticlistening_ba-ga.mp3	ba	ga	1	right
6.6.1	mac	2023-06-25	14:58:07	15:14:44	994539	63db1ccde6434330f2a99d87	2	1	practice_z	22	practice_z	1	stimuli_target_rectanglediamonds.svg	stimuli_distractor_diamondtriangles.svg	1	yes	44	1	524	6	6	antiphase_hc_ois.wav	3	6	6	noise_calib_stim_RIGHT.wav	2	3	blb_dichoticlistening_ba-ga.mp3	ba	ga	1	right
6.6.1	mac	2023-06-25	14:58:07	15:14:44	994539	63db1ccde6434330f2a99d87	2	1	practice_z	22	advance_on_keypress_ZEE	2	stimuli_target_rectanglediamonds.svg	stimuli_distractor_diamondtriangles.svg	1	yes	57	0	1165	6	6	antiphase_hc_ois.wav	3	6	6	noise_calib_stim_RIGHT.wav	2	3	blb_dichoticlistening_ba-ga.mp3	ba	ga	1	right
6.6.1	mac	2023-06-25	14:58:07	15:14:48	998048	63db1ccde6434330f2a99d87	2	1	practice_z	22	practice_z	3	stimuli_distractor_diamondtriangles.svg	stimuli_target_diamondrectangles.svg	8	yes	44	1	716	6	6	antiphase_hc_ois.wav	3	6	6	noise_calib_stim_RIGHT.wav	2	3	blb_dichoticlistening_ba-ga.mp3	ba	ga	1	right
6.6.1	mac	2023-06-25	14:58:07	15:14:48	998048	63db1ccde6434330f2a99d87	2	1	practice_z	22	advance_on_keypress_ZEE	4	stimuli_distractor_diamondtriangles.svg	stimuli_target_diamondrectangles.svg	8	yes	57	0	500	6	6	antiphase_hc_ois.wav	3	6	6	noise_calib_stim_RIGHT.wav	2	3	blb_dichoticlistening_ba-ga.mp3	ba	ga	1	right
6.6.1	mac	2023-06-25	14:58:07	15:14:50	1000662	63db1ccde6434330f2a99d87	2	1	practice_z	22	practice_z	5	stimuli_target_squarediamonds.svg	stimuli_distractor_trianglediamonds.svg	5	yes	44	1	464	6	6	antiphase_hc_ois.wav	3	6	6	noise_calib_stim_RIGHT.wav	2	3	blb_dichoticlistening_ba-ga.mp3	ba	ga	1	right
6.6.1	mac	2023-06-25	14:58:07	15:14:50	1000662	63db1ccde6434330f2a99d87	2	1	practice_z	22	advance_on_keypress_ZEE	6	stimuli_target_squarediamonds.svg	stimuli_distractor_trianglediamonds.svg	5	yes	57	0	1639	6	6	antiphase_hc_ois.wav	3	6	6	noise_calib_stim_RIGHT.wav	2	3	blb_dichoticlistening_ba-ga.mp3	ba	ga	1	right
6.6.1	mac	2023-06-25	14:58:07	15:14:54	1004315	63db1ccde6434330f2a99d87	2	1	practice_z	22	practice_z	7	stimuli_target_squarediamonds.svg	stimuli_distractor_diamondtriangles.svg	2	yes	44	1	387	6	6	antiphase_hc_ois.wav	3	6	6	noise_calib_stim_RIGHT.wav	2	3	blb_dichoticlistening_ba-ga.mp3	ba	ga	1	right
6.6.1	mac	2023-06-25	14:58:07	15:14:54	1004315	63db1ccde6434330f2a99d87	2	1	practice_z	22	advance_on_keypress_ZEE	8	stimuli_target_squarediamonds.svg	stimuli_distractor_diamondtriangles.svg	2	yes	57	0	422	6	6	antiphase_hc_ois.wav	3	6	6	noise_calib_stim_RIGHT.wav	2	3	blb_dichoticlistening_ba-ga.mp3	ba	ga	1	right
6.6.1	mac	2023-06-25	14:58:07	15:14:58	1008381	63db1ccde6434330f2a99d87	2	1	practice_z	22	practice_z	9	stimuli_target_diamondsquares.svg	stimuli_distractor_trianglediamonds.svg	6	yes	0	0	2000	6	6	antiphase_hc_ois.wav	3	6	6	noise_calib_stim_RIGHT.wav	2	3	blb_dichoticlistening_ba-ga.mp3	ba	ga	1	right
6.6.1	mac	2023-06-25	14:58:07	15:14:58	1008381	63db1ccde6434330f2a99d87	2	1	practice_z	22	advance_on_keypress_ZEE	10	stimuli_target_diamondsquares.svg	stimuli_distractor_trianglediamonds.svg	6	yes	57	0	495	6	6	antiphase_hc_ois.wav	3	6	6	noise_calib_stim_RIGHT.wav	2	3	blb_dichoticlistening_ba-ga.mp3	ba	ga	1	right
6.6.1	mac	2023-06-25	14:58:07	15:15:01	1011111	63db1ccde6434330f2a99d87	2	1	practice_z	22	practice_z	11	stimuli_target_rectanglediamonds.svg	stimuli_distractor_trianglediamonds.svg	4	yes	44	1	596	6	6	antiphase_hc_ois.wav	3	6	6	noise_calib_stim_RIGHT.wav	2	3	blb_dichoticlistening_ba-ga.mp3	ba	ga	1	right
6.6.1	mac	2023-06-25	14:58:07	15:15:01	1011111	63db1ccde6434330f2a99d87	2	1	practice_z	22	advance_on_keypress_ZEE	12	stimuli_target_rectanglediamonds.svg	stimuli_distractor_trianglediamonds.svg	4	yes	57	0	494	6	6	antiphase_hc_ois.wav	3	6	6	noise_calib_stim_RIGHT.wav	2	3	blb_dichoticlistening_ba-ga.mp3	ba	ga	1	right
6.6.1	mac	2023-06-25	14:58:07	15:15:04	1014577	63db1ccde6434330f2a99d87	2	1	practice_z	22	practice_z	13	stimuli_distractor_trianglediamonds.svg	stimuli_target_diamondrectangles.svg	12	yes	44	1	1321	6	6	antiphase_hc_ois.wav	3	6	6	noise_calib_stim_RIGHT.wav	2	3	blb_dichoticlistening_ba-ga.mp3	ba	ga	1	right
6.6.1	mac	2023-06-25	14:58:07	15:15:04	1014577	63db1ccde6434330f2a99d87	2	1	practice_z	22	advance_on_keypress_ZEE	14	stimuli_distractor_trianglediamonds.svg	stimuli_target_diamondrectangles.svg	12	yes	57	0	454	6	6	antiphase_hc_ois.wav	3	6	6	noise_calib_stim_RIGHT.wav	2	3	blb_dichoticlistening_ba-ga.mp3	ba	ga	1	right
6.6.1	mac	2023-06-25	14:58:07	15:15:07	1017340	63db1ccde6434330f2a99d87	2	1	practice_z	22	practice_z	15	stimuli_distractor_diamondtriangles.svg	stimuli_target_trianglerectangles.svg	9	yes	44	1	659	6	6	antiphase_hc_ois.wav	3	6	6	noise_calib_stim_RIGHT.wav	2	3	blb_dichoticlistening_ba-ga.mp3	ba	ga	1	right
6.6.1	mac	2023-06-25	14:58:07	15:15:07	1017340	63db1ccde6434330f2a99d87	2	1	practice_z	22	advance_on_keypress_ZEE	16	stimuli_distractor_diamondtriangles.svg	stimuli_target_trianglerectangles.svg	9	yes	57	0	393	6	6	antiphase_hc_ois.wav	3	6	6	noise_calib_stim_RIGHT.wav	2	3	blb_dichoticlistening_ba-ga.mp3	ba	ga	1	right
6.6.1	mac	2023-06-25	14:58:07	15:15:09	1019751	63db1ccde6434330f2a99d87	2	1	practice_z	22	practice_z	17	stimuli_distractor_trianglediamonds.svg	stimuli_target_squarediamonds.svg	11	yes	44	1	387	6	6	antiphase_hc_ois.wav	3	6	6	noise_calib_stim_RIGHT.wav	2	3	blb_dichoticlistening_ba-ga.mp3	ba	ga	1	right
6.6.1	mac	2023-06-25	14:58:07	15:15:09	1019751	63db1ccde6434330f2a99d87	2	1	practice_z	22	advance_on_keypress_ZEE	18	stimuli_distractor_trianglediamonds.svg	stimuli_target_squarediamonds.svg	11	yes	57	0	393	6	6	antiphase_hc_ois.wav	3	6	6	noise_calib_stim_RIGHT.wav	2	3	blb_dichoticlistening_ba-ga.mp3	ba	ga	1	right
6.6.1	mac	2023-06-25	14:58:07	15:15:12	1022268	63db1ccde6434330f2a99d87	2	1	practice_z	22	practice_z	19	stimuli_distractor_trianglediamonds.svg	stimuli_target_rectanglediamonds.svg	10	yes	44	1	488	6	6	antiphase_hc_ois.wav	3	6	6	noise_calib_stim_RIGHT.wav	2	3	blb_dichoticlistening_ba-ga.mp3	ba	ga	1	right
6.6.1	mac	2023-06-25	14:58:07	15:15:12	1022268	63db1ccde6434330f2a99d87	2	1	practice_z	22	advance_on_keypress_ZEE	20	stimuli_distractor_trianglediamonds.svg	stimuli_target_rectanglediamonds.svg	10	yes	57	0	867	6	6	antiphase_hc_ois.wav	3	6	6	noise_calib_stim_RIGHT.wav	2	3	blb_dichoticlistening_ba-ga.mp3	ba	ga	1	right
6.6.1	mac	2023-06-25	14:58:07	15:15:15	1025867	63db1ccde6434330f2a99d87	2	1	practice_z	22	practice_z	21	stimuli_target_diamondsquares.svg	stimuli_distractor_diamondtriangles.svg	3	yes	44	1	1084	6	6	antiphase_hc_ois.wav	3	6	6	noise_calib_stim_RIGHT.wav	2	3	blb_dichoticlistening_ba-ga.mp3	ba	ga	1	right
6.6.1	mac	2023-06-25	14:58:07	15:15:15	1025867	63db1ccde6434330f2a99d87	2	1	practice_z	22	advance_on_keypress_ZEE	22	stimuli_target_diamondsquares.svg	stimuli_distractor_diamondtriangles.svg	3	yes	57	0	524	6	6	antiphase_hc_ois.wav	3	6	6	noise_calib_stim_RIGHT.wav	2	3	blb_dichoticlistening_ba-ga.mp3	ba	ga	1	right
6.6.1	mac	2023-06-25	14:58:07	15:15:18	1028818	63db1ccde6434330f2a99d87	2	1	practice_z	22	practice_z	23	stimuli_distractor_diamondtriangles.svg	stimuli_distractor_diamondtriangles.svg	13	no	44	0	803	6	6	antiphase_hc_ois.wav	3	6	6	noise_calib_stim_RIGHT.wav	2	3	blb_dichoticlistening_ba-ga.mp3	ba	ga	1	right
6.6.1	mac	2023-06-25	14:58:07	15:15:18	1028818	63db1ccde6434330f2a99d87	2	1	practice_z	22	advance_on_keypress_ZEE	24	stimuli_distractor_diamondtriangles.svg	stimuli_distractor_diamondtriangles.svg	13	no	57	0	444	6	6	antiphase_hc_ois.wav	3	6	6	noise_calib_stim_RIGHT.wav	2	3	blb_dichoticlistening_ba-ga.mp3	ba	ga	1	right
6.6.1	mac	2023-06-25	14:58:07	15:15:23	1032881	63db1ccde6434330f2a99d87	2	1	practice_z	22	practice_z	25	stimuli_distractor_trianglediamonds.svg	stimuli_distractor_diamondtriangles.svg	16	no	0	1	2000	6	6	antiphase_hc_ois.wav	3	6	6	noise_calib_stim_RIGHT.wav	2	3	blb_dichoticlistening_ba-ga.mp3	ba	ga	1	right
6.6.1	mac	2023-06-25	14:58:07	15:15:23	1032881	63db1ccde6434330f2a99d87	2	1	practice_z	22	advance_on_keypress_ZEE	26	stimuli_distractor_trianglediamonds.svg	stimuli_distractor_diamondtriangles.svg	16	no	57	0	408	6	6	antiphase_hc_ois.wav	3	6	6	noise_calib_stim_RIGHT.wav	2	3	blb_dichoticlistening_ba-ga.mp3	ba	ga	1	right
6.6.1	mac	2023-06-25	14:58:07	15:15:26	1036063	63db1ccde6434330f2a99d87	2	1	practice_z	22	practice_z	27	stimuli_distractor_trianglediamonds.svg	stimuli_distractor_trianglediamonds.svg	15	no	44	0	1147	6	6	antiphase_hc_ois.wav	3	6	6	noise_calib_stim_RIGHT.wav	2	3	blb_dichoticlistening_ba-ga.mp3	ba	ga	1	right
6.6.1	mac	2023-06-25	14:58:07	15:15:26	1036063	63db1ccde6434330f2a99d87	2	1	practice_z	22	advance_on_keypress_ZEE	28	stimuli_distractor_trianglediamonds.svg	stimuli_distractor_trianglediamonds.svg	15	no	57	0	424	6	6	antiphase_hc_ois.wav	3	6	6	noise_calib_stim_RIGHT.wav	2	3	blb_dichoticlistening_ba-ga.mp3	ba	ga	1	right
6.6.1	mac	2023-06-25	14:58:07	15:15:29	1039129	63db1ccde6434330f2a99d87	2	1	practice_z	22	practice_z	29	stimuli_distractor_diamondtriangles.svg	stimuli_distractor_trianglediamonds.svg	14	no	44	0	1014	6	6	antiphase_hc_ois.wav	3	6	6	noise_calib_stim_RIGHT.wav	2	3	blb_dichoticlistening_ba-ga.mp3	ba	ga	1	right
6.6.1	mac	2023-06-25	14:58:07	15:15:29	1039129	63db1ccde6434330f2a99d87	2	1	practice_z	22	advance_on_keypress_ZEE	30	stimuli_distractor_diamondtriangles.svg	stimuli_distractor_trianglediamonds.svg	14	no	57	0	417	6	6	antiphase_hc_ois.wav	3	6	6	noise_calib_stim_RIGHT.wav	2	3	blb_dichoticlistening_ba-ga.mp3	ba	ga	1	right
6.6.1	mac	2023-06-25	14:58:07	15:15:32	1042254	63db1ccde6434330f2a99d87	2	1	practice_z	22	practice_z	31	stimuli_distractor_diamondtriangles.svg	stimuli_target_rectangletriangles.svg	7	yes	44	1	1075	6	6	antiphase_hc_ois.wav	3	6	6	noise_calib_stim_RIGHT.wav	2	3	blb_dichoticlistening_ba-ga.mp3	ba	ga	1	right
6.6.1	mac	2023-06-25	14:58:07	15:15:32	1042254	63db1ccde6434330f2a99d87	2	1	practice_z	22	advance_on_keypress_ZEE	32	stimuli_distractor_diamondtriangles.svg	stimuli_target_rectangletriangles.svg	7	yes	57	0	397	6	6	antiphase_hc_ois.wav	3	6	6	noise_calib_stim_RIGHT.wav	2	3	blb_dichoticlistening_ba-ga.mp3	ba	ga	1	right
6.6.1	mac	2023-06-25	14:58:07	15:15:38	1048642	63db1ccde6434330f2a99d87	2	1	main_z	24	main_z	1	stimuli_target_squaretriangles.svg	stimuli_distractor_diamondtriangles.svg	7	yes	44	1	513	6	6	antiphase_hc_ois.wav	3	6	6	noise_calib_stim_RIGHT.wav	2	3	blb_dichoticlistening_ba-ga.mp3	ba	ga	1	right
6.6.1	mac	2023-06-25	14:58:07	15:15:38	1048642	63db1ccde6434330f2a99d87	2	1	main_z	24	advance_on_keypress_ZEE	2	stimuli_target_squaretriangles.svg	stimuli_distractor_diamondtriangles.svg	7	yes	57	0	997	6	6	antiphase_hc_ois.wav	3	6	6	noise_calib_stim_RIGHT.wav	2	3	blb_dichoticlistening_ba-ga.mp3	ba	ga	1	right
6.6.1	mac	2023-06-25	14:58:07	15:15:40	1050817	63db1ccde6434330f2a99d87	2	1	main_z	24	main_z	3	stimuli_distractor_diamondtriangles.svg	stimuli_target_squaretriangles.svg	15	yes	44	1	538	6	6	antiphase_hc_ois.wav	3	6	6	noise_calib_stim_RIGHT.wav	2	3	blb_dichoticlistening_ba-ga.mp3	ba	ga	1	right
6.6.1	mac	2023-06-25	14:58:07	15:15:40	1050817	63db1ccde6434330f2a99d87	2	1	main_z	24	advance_on_keypress_ZEE	4	stimuli_distractor_diamondtriangles.svg	stimuli_target_squaretriangles.svg	15	yes	57	0	829	6	6	antiphase_hc_ois.wav	3	6	6	noise_calib_stim_RIGHT.wav	2	3	blb_dichoticlistening_ba-ga.mp3	ba	ga	1	right
6.6.1	mac	2023-06-25	14:58:07	15:15:43	1053128	63db1ccde6434330f2a99d87	2	1	main_z	24	main_z	5	stimuli_distractor_diamondtriangles.svg	stimuli_target_trianglerectangles.svg	29	yes	44	1	848	6	6	antiphase_hc_ois.wav	3	6	6	noise_calib_stim_RIGHT.wav	2	3	blb_dichoticlistening_ba-ga.mp3	ba	ga	1	right
6.6.1	mac	2023-06-25	14:58:07	15:15:43	1053128	63db1ccde6434330f2a99d87	2	1	main_z	24	advance_on_keypress_ZEE	6	stimuli_distractor_diamondtriangles.svg	stimuli_target_trianglerectangles.svg	29	yes	57	0	1281	6	6	antiphase_hc_ois.wav	3	6	6	noise_calib_stim_RIGHT.wav	2	3	blb_dichoticlistening_ba-ga.mp3	ba	ga	1	right
6.6.1	mac	2023-06-25	14:58:07	15:15:45	1055619	63db1ccde6434330f2a99d87	2	1	main_z	24	main_z	7	stimuli_distractor_trianglediamonds.svg	stimuli_target_rectangletriangles.svg	9	yes	44	1	572	6	6	antiphase_hc_ois.wav	3	6	6	noise_calib_stim_RIGHT.wav	2	3	blb_dichoticlistening_ba-ga.mp3	ba	ga	1	right
6.6.1	mac	2023-06-25	14:58:07	15:15:45	1055619	63db1ccde6434330f2a99d87	2	1	main_z	24	advance_on_keypress_ZEE	8	stimuli_distractor_trianglediamonds.svg	stimuli_target_rectangletriangles.svg	9	yes	57	0	1089	6	6	antiphase_hc_ois.wav	3	6	6	noise_calib_stim_RIGHT.wav	2	3	blb_dichoticlistening_ba-ga.mp3	ba	ga	1	right
6.6.1	mac	2023-06-25	14:58:07	15:15:48	1058354	63db1ccde6434330f2a99d87	2	1	main_z	24	main_z	9	stimuli_distractor_trianglediamonds.svg	stimuli_distractor_diamondtriangles.svg	35	no	44	0	1025	6	6	antiphase_hc_ois.wav	3	6	6	noise_calib_stim_RIGHT.wav	2	3	blb_dichoticlistening_ba-ga.mp3	ba	ga	1	right
6.6.1	mac	2023-06-25	14:58:07	15:15:48	1058354	63db1ccde6434330f2a99d87	2	1	main_z	24	advance_on_keypress_ZEE	10	stimuli_distractor_trianglediamonds.svg	stimuli_distractor_diamondtriangles.svg	35	no	57	0	725	6	6	antiphase_hc_ois.wav	3	6	6	noise_calib_stim_RIGHT.wav	2	3	blb_dichoticlistening_ba-ga.mp3	ba	ga	1	right
6.6.1	mac	2023-06-25	14:58:07	15:15:50	1060578	63db1ccde6434330f2a99d87	2	1	main_z	24	main_z	11	stimuli_target_diamondsquares.svg	stimuli_distractor_diamondtriangles.svg	24	yes	44	1	883	6	6	antiphase_hc_ois.wav	3	6	6	noise_calib_stim_RIGHT.wav	2	3	blb_dichoticlistening_ba-ga.mp3	ba	ga	1	right
6.6.1	mac	2023-06-25	14:58:07	15:15:50	1060578	63db1ccde6434330f2a99d87	2	1	main_z	24	advance_on_keypress_ZEE	12	stimuli_target_diamondsquares.svg	stimuli_distractor_diamondtriangles.svg	24	yes	57	0	742	6	6	antiphase_hc_ois.wav	3	6	6	noise_calib_stim_RIGHT.wav	2	3	blb_dichoticlistening_ba-ga.mp3	ba	ga	1	right
6.6.1	mac	2023-06-25	14:58:07	15:15:52	1062640	63db1ccde6434330f2a99d87	2	1	main_z	24	main_z	13	stimuli_target_rectangletriangles.svg	stimuli_distractor_diamondtriangles.svg	5	yes	44	1	693	6	6	antiphase_hc_ois.wav	3	6	6	noise_calib_stim_RIGHT.wav	2	3	blb_dichoticlistening_ba-ga.mp3	ba	ga	1	right
6.6.1	mac	2023-06-25	14:58:07	15:15:52	1062640	63db1ccde6434330f2a99d87	2	1	main_z	24	advance_on_keypress_ZEE	14	stimuli_target_rectangletriangles.svg	stimuli_distractor_diamondtriangles.svg	5	yes	57	0	878	6	6	antiphase_hc_ois.wav	3	6	6	noise_calib_stim_RIGHT.wav	2	3	blb_dichoticlistening_ba-ga.mp3	ba	ga	1	right
6.6.1	mac	2023-06-25	14:58:07	15:15:55	1065092	63db1ccde6434330f2a99d87	2	1	main_z	24	main_z	15	stimuli_distractor_diamondtriangles.svg	stimuli_target_diamondrectangles.svg	31	yes	44	1	945	6	6	antiphase_hc_ois.wav	3	6	6	noise_calib_stim_RIGHT.wav	2	3	blb_dichoticlistening_ba-ga.mp3	ba	ga	1	right
6.6.1	mac	2023-06-25	14:58:07	15:15:55	1065092	63db1ccde6434330f2a99d87	2	1	main_z	24	advance_on_keypress_ZEE	16	stimuli_distractor_diamondtriangles.svg	stimuli_target_diamondrectangles.svg	31	yes	57	0	689	6	6	antiphase_hc_ois.wav	3	6	6	noise_calib_stim_RIGHT.wav	2	3	blb_dichoticlistening_ba-ga.mp3	ba	ga	1	right
6.6.1	mac	2023-06-25	14:58:07	15:15:57	1067025	63db1ccde6434330f2a99d87	2	1	main_z	24	main_z	17	stimuli_distractor_diamondtriangles.svg	stimuli_target_diamondsquares.svg	32	yes	44	1	613	6	6	antiphase_hc_ois.wav	3	6	6	noise_calib_stim_RIGHT.wav	2	3	blb_dichoticlistening_ba-ga.mp3	ba	ga	1	right
6.6.1	mac	2023-06-25	14:58:07	15:15:57	1067025	63db1ccde6434330f2a99d87	2	1	main_z	24	advance_on_keypress_ZEE	18	stimuli_distractor_diamondtriangles.svg	stimuli_target_diamondsquares.svg	32	yes	57	0	767	6	6	antiphase_hc_ois.wav	3	6	6	noise_calib_stim_RIGHT.wav	2	3	blb_dichoticlistening_ba-ga.mp3	ba	ga	1	right
6.6.1	mac	2023-06-25	14:58:07	15:15:59	1069032	63db1ccde6434330f2a99d87	2	1	main_z	24	main_z	19	stimuli_distractor_diamondtriangles.svg	stimuli_target_trianglesquares.svg	30	yes	44	1	602	6	6	antiphase_hc_ois.wav	3	6	6	noise_calib_stim_RIGHT.wav	2	3	blb_dichoticlistening_ba-ga.mp3	ba	ga	1	right
6.6.1	mac	2023-06-25	14:58:07	15:15:59	1069032	63db1ccde6434330f2a99d87	2	1	main_z	24	advance_on_keypress_ZEE	20	stimuli_distractor_diamondtriangles.svg	stimuli_target_trianglesquares.svg	30	yes	57	0	832	6	6	antiphase_hc_ois.wav	3	6	6	noise_calib_stim_RIGHT.wav	2	3	blb_dichoticlistening_ba-ga.mp3	ba	ga	1	right
6.6.1	mac	2023-06-25	14:58:07	15:16:01	1071487	63db1ccde6434330f2a99d87	2	1	main_z	24	main_z	21	stimuli_distractor_trianglediamonds.svg	stimuli_distractor_diamondtriangles.svg	36	no	44	0	990	6	6	antiphase_hc_ois.wav	3	6	6	noise_calib_stim_RIGHT.wav	2	3	blb_dichoticlistening_ba-ga.mp3	ba	ga	1	right
6.6.1	mac	2023-06-25	14:58:07	15:16:01	1071487	63db1ccde6434330f2a99d87	2	1	main_z	24	advance_on_keypress_ZEE	22	stimuli_distractor_trianglediamonds.svg	stimuli_distractor_diamondtriangles.svg	36	no	57	0	700	6	6	antiphase_hc_ois.wav	3	6	6	noise_calib_stim_RIGHT.wav	2	3	blb_dichoticlistening_ba-ga.mp3	ba	ga	1	right
6.6.1	mac	2023-06-25	14:58:07	15:16:03	1073666	63db1ccde6434330f2a99d87	2	1	main_z	24	main_z	23	stimuli_target_diamondrectangles.svg	stimuli_distractor_diamondtriangles.svg	23	yes	44	1	849	6	6	antiphase_hc_ois.wav	3	6	6	noise_calib_stim_RIGHT.wav	2	3	blb_dichoticlistening_ba-ga.mp3	ba	ga	1	right
6.6.1	mac	2023-06-25	14:58:07	15:16:03	1073666	63db1ccde6434330f2a99d87	2	1	main_z	24	advance_on_keypress_ZEE	24	stimuli_target_diamondrectangles.svg	stimuli_distractor_diamondtriangles.svg	23	yes	57	0	661	6	6	antiphase_hc_ois.wav	3	6	6	noise_calib_stim_RIGHT.wav	2	3	blb_dichoticlistening_ba-ga.mp3	ba	ga	1	right
6.6.1	mac	2023-06-25	14:58:07	15:16:05	1075600	63db1ccde6434330f2a99d87	2	1	main_z	24	main_z	25	stimuli_target_trianglerectangles.svg	stimuli_distractor_diamondtriangles.svg	21	yes	44	1	636	6	6	antiphase_hc_ois.wav	3	6	6	noise_calib_stim_RIGHT.wav	2	3	blb_dichoticlistening_ba-ga.mp3	ba	ga	1	right
6.6.1	mac	2023-06-25	14:58:07	15:16:05	1075600	63db1ccde6434330f2a99d87	2	1	main_z	24	advance_on_keypress_ZEE	26	stimuli_target_trianglerectangles.svg	stimuli_distractor_diamondtriangles.svg	21	yes	57	0	676	6	6	antiphase_hc_ois.wav	3	6	6	noise_calib_stim_RIGHT.wav	2	3	blb_dichoticlistening_ba-ga.mp3	ba	ga	1	right
6.6.1	mac	2023-06-25	14:58:07	15:16:09	1078896	63db1ccde6434330f2a99d87	2	1	main_z	24	main_z	27	stimuli_distractor_diamondtriangles.svg	stimuli_distractor_trianglediamonds.svg	37	no	0	1	2000	6	6	antiphase_hc_ois.wav	3	6	6	noise_calib_stim_RIGHT.wav	2	3	blb_dichoticlistening_ba-ga.mp3	ba	ga	1	right
6.6.1	mac	2023-06-25	14:58:07	15:16:09	1078896	63db1ccde6434330f2a99d87	2	1	main_z	24	advance_on_keypress_ZEE	28	stimuli_distractor_diamondtriangles.svg	stimuli_distractor_trianglediamonds.svg	37	no	57	0	464	6	6	antiphase_hc_ois.wav	3	6	6	noise_calib_stim_RIGHT.wav	2	3	blb_dichoticlistening_ba-ga.mp3	ba	ga	1	right
6.6.1	mac	2023-06-25	14:58:07	15:16:10	1080579	63db1ccde6434330f2a99d87	2	1	main_z	24	main_z	29	stimuli_target_rectanglediamonds.svg	stimuli_distractor_trianglediamonds.svg	2	yes	44	1	583	6	6	antiphase_hc_ois.wav	3	6	6	noise_calib_stim_RIGHT.wav	2	3	blb_dichoticlistening_ba-ga.mp3	ba	ga	1	right
6.6.1	mac	2023-06-25	14:58:07	15:16:10	1080579	63db1ccde6434330f2a99d87	2	1	main_z	24	advance_on_keypress_ZEE	30	stimuli_target_rectanglediamonds.svg	stimuli_distractor_trianglediamonds.svg	2	yes	57	0	665	6	6	antiphase_hc_ois.wav	3	6	6	noise_calib_stim_RIGHT.wav	2	3	blb_dichoticlistening_ba-ga.mp3	ba	ga	1	right
6.6.1	mac	2023-06-25	14:58:07	15:16:12	1082613	63db1ccde6434330f2a99d87	2	1	main_z	24	main_z	31	stimuli_distractor_trianglediamonds.svg	stimuli_distractor_trianglediamonds.svg	34	no	44	0	733	6	6	antiphase_hc_ois.wav	3	6	6	noise_calib_stim_RIGHT.wav	2	3	blb_dichoticlistening_ba-ga.mp3	ba	ga	1	right
6.6.1	mac	2023-06-25	14:58:07	15:16:12	1082613	63db1ccde6434330f2a99d87	2	1	main_z	24	advance_on_keypress_ZEE	32	stimuli_distractor_trianglediamonds.svg	stimuli_distractor_trianglediamonds.svg	34	no	57	0	521	6	6	antiphase_hc_ois.wav	3	6	6	noise_calib_stim_RIGHT.wav	2	3	blb_dichoticlistening_ba-ga.mp3	ba	ga	1	right
6.6.1	mac	2023-06-25	14:58:07	15:16:14	1084320	63db1ccde6434330f2a99d87	2	1	main_z	24	main_z	33	stimuli_target_diamondrectangles.svg	stimuli_distractor_trianglediamonds.svg	19	yes	44	1	558	6	6	antiphase_hc_ois.wav	3	6	6	noise_calib_stim_RIGHT.wav	2	3	blb_dichoticlistening_ba-ga.mp3	ba	ga	1	right
6.6.1	mac	2023-06-25	14:58:07	15:16:14	1084320	63db1ccde6434330f2a99d87	2	1	main_z	24	advance_on_keypress_ZEE	34	stimuli_target_diamondrectangles.svg	stimuli_distractor_trianglediamonds.svg	19	yes	57	0	674	6	6	antiphase_hc_ois.wav	3	6	6	noise_calib_stim_RIGHT.wav	2	3	blb_dichoticlistening_ba-ga.mp3	ba	ga	1	right
6.6.1	mac	2023-06-25	14:58:07	15:16:16	1086243	63db1ccde6434330f2a99d87	2	1	main_z	24	main_z	35	stimuli_distractor_trianglediamonds.svg	stimuli_target_diamondsquares.svg	28	yes	44	1	630	6	6	antiphase_hc_ois.wav	3	6	6	noise_calib_stim_RIGHT.wav	2	3	blb_dichoticlistening_ba-ga.mp3	ba	ga	1	right
6.6.1	mac	2023-06-25	14:58:07	15:16:16	1086243	63db1ccde6434330f2a99d87	2	1	main_z	24	advance_on_keypress_ZEE	36	stimuli_distractor_trianglediamonds.svg	stimuli_target_diamondsquares.svg	28	yes	57	0	725	6	6	antiphase_hc_ois.wav	3	6	6	noise_calib_stim_RIGHT.wav	2	3	blb_dichoticlistening_ba-ga.mp3	ba	ga	1	right
6.6.1	mac	2023-06-25	14:58:07	15:16:18	1088405	63db1ccde6434330f2a99d87	2	1	main_z	24	main_z	37	stimuli_target_squarediamonds.svg	stimuli_distractor_trianglediamonds.svg	4	yes	44	1	808	6	6	antiphase_hc_ois.wav	3	6	6	noise_calib_stim_RIGHT.wav	2	3	blb_dichoticlistening_ba-ga.mp3	ba	ga	1	right
6.6.1	mac	2023-06-25	14:58:07	15:16:18	1088405	63db1ccde6434330f2a99d87	2	1	main_z	24	advance_on_keypress_ZEE	38	stimuli_target_squarediamonds.svg	stimuli_distractor_trianglediamonds.svg	4	yes	57	0	674	6	6	antiphase_hc_ois.wav	3	6	6	noise_calib_stim_RIGHT.wav	2	3	blb_dichoticlistening_ba-ga.mp3	ba	ga	1	right
6.6.1	mac	2023-06-25	14:58:07	15:16:20	1090232	63db1ccde6434330f2a99d87	2	1	main_z	24	main_z	39	stimuli_target_squarediamonds.svg	stimuli_distractor_diamondtriangles.svg	8	yes	44	1	538	6	6	antiphase_hc_ois.wav	3	6	6	noise_calib_stim_RIGHT.wav	2	3	blb_dichoticlistening_ba-ga.mp3	ba	ga	1	right
6.6.1	mac	2023-06-25	14:58:07	15:16:20	1090232	63db1ccde6434330f2a99d87	2	1	main_z	24	advance_on_keypress_ZEE	40	stimuli_target_squarediamonds.svg	stimuli_distractor_diamondtriangles.svg	8	yes	57	0	779	6	6	antiphase_hc_ois.wav	3	6	6	noise_calib_stim_RIGHT.wav	2	3	blb_dichoticlistening_ba-ga.mp3	ba	ga	1	right
6.6.1	mac	2023-06-25	14:58:07	15:16:22	1092165	63db1ccde6434330f2a99d87	2	1	main_z	24	main_z	41	stimuli_target_rectanglediamonds.svg	stimuli_distractor_diamondtriangles.svg	6	yes	44	1	521	6	6	antiphase_hc_ois.wav	3	6	6	noise_calib_stim_RIGHT.wav	2	3	blb_dichoticlistening_ba-ga.mp3	ba	ga	1	right
6.6.1	mac	2023-06-25	14:58:07	15:16:22	1092165	63db1ccde6434330f2a99d87	2	1	main_z	24	advance_on_keypress_ZEE	42	stimuli_target_rectanglediamonds.svg	stimuli_distractor_diamondtriangles.svg	6	yes	57	0	726	6	6	antiphase_hc_ois.wav	3	6	6	noise_calib_stim_RIGHT.wav	2	3	blb_dichoticlistening_ba-ga.mp3	ba	ga	1	right
6.6.1	mac	2023-06-25	14:58:07	15:16:24	1094292	63db1ccde6434330f2a99d87	2	1	main_z	24	main_z	43	stimuli_distractor_trianglediamonds.svg	stimuli_target_trianglesquares.svg	26	yes	44	1	779	6	6	antiphase_hc_ois.wav	3	6	6	noise_calib_stim_RIGHT.wav	2	3	blb_dichoticlistening_ba-ga.mp3	ba	ga	1	right
6.6.1	mac	2023-06-25	14:58:07	15:16:24	1094292	63db1ccde6434330f2a99d87	2	1	main_z	24	advance_on_keypress_ZEE	44	stimuli_distractor_trianglediamonds.svg	stimuli_target_trianglesquares.svg	26	yes	57	0	557	6	6	antiphase_hc_ois.wav	3	6	6	noise_calib_stim_RIGHT.wav	2	3	blb_dichoticlistening_ba-ga.mp3	ba	ga	1	right
6.6.1	mac	2023-06-25	14:58:07	15:16:26	1096093	63db1ccde6434330f2a99d87	2	1	main_z	24	main_z	45	stimuli_distractor_trianglediamonds.svg	stimuli_target_squaretriangles.svg	11	yes	44	1	614	6	6	antiphase_hc_ois.wav	3	6	6	noise_calib_stim_RIGHT.wav	2	3	blb_dichoticlistening_ba-ga.mp3	ba	ga	1	right
6.6.1	mac	2023-06-25	14:58:07	15:16:26	1096093	63db1ccde6434330f2a99d87	2	1	main_z	24	advance_on_keypress_ZEE	46	stimuli_distractor_trianglediamonds.svg	stimuli_target_squaretriangles.svg	11	yes	57	0	573	6	6	antiphase_hc_ois.wav	3	6	6	noise_calib_stim_RIGHT.wav	2	3	blb_dichoticlistening_ba-ga.mp3	ba	ga	1	right
6.6.1	mac	2023-06-25	14:58:07	15:16:28	1098040	63db1ccde6434330f2a99d87	2	1	main_z	24	main_z	47	stimuli_target_rectangletriangles.svg	stimuli_distractor_trianglediamonds.svg	1	yes	44	1	744	6	6	antiphase_hc_ois.wav	3	6	6	noise_calib_stim_RIGHT.wav	2	3	blb_dichoticlistening_ba-ga.mp3	ba	ga	1	right
6.6.1	mac	2023-06-25	14:58:07	15:16:28	1098040	63db1ccde6434330f2a99d87	2	1	main_z	24	advance_on_keypress_ZEE	48	stimuli_target_rectangletriangles.svg	stimuli_distractor_trianglediamonds.svg	1	yes	57	0	665	6	6	antiphase_hc_ois.wav	3	6	6	noise_calib_stim_RIGHT.wav	2	3	blb_dichoticlistening_ba-ga.mp3	ba	ga	1	right
6.6.1	mac	2023-06-25	14:58:07	15:16:31	1101346	63db1ccde6434330f2a99d87	2	1	main_z	24	main_z	49	stimuli_distractor_diamondtriangles.svg	stimuli_distractor_diamondtriangles.svg	40	no	0	1	2000	6	6	antiphase_hc_ois.wav	3	6	6	noise_calib_stim_RIGHT.wav	2	3	blb_dichoticlistening_ba-ga.mp3	ba	ga	1	right
6.6.1	mac	2023-06-25	14:58:07	15:16:31	1101346	63db1ccde6434330f2a99d87	2	1	main_z	24	advance_on_keypress_ZEE	50	stimuli_distractor_diamondtriangles.svg	stimuli_distractor_diamondtriangles.svg	40	no	57	0	577	6	6	antiphase_hc_ois.wav	3	6	6	noise_calib_stim_RIGHT.wav	2	3	blb_dichoticlistening_ba-ga.mp3	ba	ga	1	right
6.6.1	mac	2023-06-25	14:58:07	15:16:33	1103073	63db1ccde6434330f2a99d87	2	1	main_z	24	main_z	51	stimuli_target_diamondsquares.svg	stimuli_distractor_trianglediamonds.svg	20	yes	44	1	510	6	6	antiphase_hc_ois.wav	3	6	6	noise_calib_stim_RIGHT.wav	2	3	blb_dichoticlistening_ba-ga.mp3	ba	ga	1	right
6.6.1	mac	2023-06-25	14:58:07	15:16:33	1103073	63db1ccde6434330f2a99d87	2	1	main_z	24	advance_on_keypress_ZEE	52	stimuli_target_diamondsquares.svg	stimuli_distractor_trianglediamonds.svg	20	yes	57	0	803	6	6	antiphase_hc_ois.wav	3	6	6	noise_calib_stim_RIGHT.wav	2	3	blb_dichoticlistening_ba-ga.mp3	ba	ga	1	right
6.6.1	mac	2023-06-25	14:58:07	15:16:35	1105234	63db1ccde6434330f2a99d87	2	1	main_z	24	main_z	53	stimuli_target_trianglesquares.svg	stimuli_distractor_trianglediamonds.svg	18	yes	44	1	721	6	6	antiphase_hc_ois.wav	3	6	6	noise_calib_stim_RIGHT.wav	2	3	blb_dichoticlistening_ba-ga.mp3	ba	ga	1	right
6.6.1	mac	2023-06-25	14:58:07	15:16:35	1105234	63db1ccde6434330f2a99d87	2	1	main_z	24	advance_on_keypress_ZEE	54	stimuli_target_trianglesquares.svg	stimuli_distractor_trianglediamonds.svg	18	yes	57	0	462	6	6	antiphase_hc_ois.wav	3	6	6	noise_calib_stim_RIGHT.wav	2	3	blb_dichoticlistening_ba-ga.mp3	ba	ga	1	right
6.6.1	mac	2023-06-25	14:58:07	15:16:38	1108329	63db1ccde6434330f2a99d87	2	1	main_z	24	main_z	55	stimuli_distractor_trianglediamonds.svg	stimuli_distractor_trianglediamonds.svg	33	no	0	1	2000	6	6	antiphase_hc_ois.wav	3	6	6	noise_calib_stim_RIGHT.wav	2	3	blb_dichoticlistening_ba-ga.mp3	ba	ga	1	right
6.6.1	mac	2023-06-25	14:58:07	15:16:38	1108329	63db1ccde6434330f2a99d87	2	1	main_z	24	advance_on_keypress_ZEE	56	stimuli_distractor_trianglediamonds.svg	stimuli_distractor_trianglediamonds.svg	33	no	57	0	338	6	6	antiphase_hc_ois.wav	3	6	6	noise_calib_stim_RIGHT.wav	2	3	blb_dichoticlistening_ba-ga.mp3	ba	ga	1	right
6.6.1	mac	2023-06-25	14:58:07	15:16:40	1109934	63db1ccde6434330f2a99d87	2	1	main_z	24	main_z	57	stimuli_distractor_trianglediamonds.svg	stimuli_target_trianglerectangles.svg	25	yes	44	1	638	6	6	antiphase_hc_ois.wav	3	6	6	noise_calib_stim_RIGHT.wav	2	3	blb_dichoticlistening_ba-ga.mp3	ba	ga	1	right
6.6.1	mac	2023-06-25	14:58:07	15:16:40	1109934	63db1ccde6434330f2a99d87	2	1	main_z	24	advance_on_keypress_ZEE	58	stimuli_distractor_trianglediamonds.svg	stimuli_target_trianglerectangles.svg	25	yes	57	0	665	6	6	antiphase_hc_ois.wav	3	6	6	noise_calib_stim_RIGHT.wav	2	3	blb_dichoticlistening_ba-ga.mp3	ba	ga	1	right
6.6.1	mac	2023-06-25	14:58:07	15:16:42	1112013	63db1ccde6434330f2a99d87	2	1	main_z	24	main_z	59	stimuli_distractor_diamondtriangles.svg	stimuli_target_squarediamonds.svg	16	yes	44	1	784	6	6	antiphase_hc_ois.wav	3	6	6	noise_calib_stim_RIGHT.wav	2	3	blb_dichoticlistening_ba-ga.mp3	ba	ga	1	right
6.6.1	mac	2023-06-25	14:58:07	15:16:42	1112013	63db1ccde6434330f2a99d87	2	1	main_z	24	advance_on_keypress_ZEE	60	stimuli_distractor_diamondtriangles.svg	stimuli_target_squarediamonds.svg	16	yes	57	0	633	6	6	antiphase_hc_ois.wav	3	6	6	noise_calib_stim_RIGHT.wav	2	3	blb_dichoticlistening_ba-ga.mp3	ba	ga	1	right
6.6.1	mac	2023-06-25	14:58:07	15:16:43	1113792	63db1ccde6434330f2a99d87	2	1	main_z	24	main_z	61	stimuli_distractor_trianglediamonds.svg	stimuli_target_rectanglediamonds.svg	10	yes	44	1	512	6	6	antiphase_hc_ois.wav	3	6	6	noise_calib_stim_RIGHT.wav	2	3	blb_dichoticlistening_ba-ga.mp3	ba	ga	1	right
6.6.1	mac	2023-06-25	14:58:07	15:16:43	1113792	63db1ccde6434330f2a99d87	2	1	main_z	24	advance_on_keypress_ZEE	62	stimuli_distractor_trianglediamonds.svg	stimuli_target_rectanglediamonds.svg	10	yes	57	0	715	6	6	antiphase_hc_ois.wav	3	6	6	noise_calib_stim_RIGHT.wav	2	3	blb_dichoticlistening_ba-ga.mp3	ba	ga	1	right
6.6.1	mac	2023-06-25	14:58:07	15:16:47	1117146	63db1ccde6434330f2a99d87	2	1	main_z	24	main_z	63	stimuli_distractor_diamondtriangles.svg	stimuli_distractor_trianglediamonds.svg	38	no	0	1	2000	6	6	antiphase_hc_ois.wav	3	6	6	noise_calib_stim_RIGHT.wav	2	3	blb_dichoticlistening_ba-ga.mp3	ba	ga	1	right
6.6.1	mac	2023-06-25	14:58:07	15:16:47	1117146	63db1ccde6434330f2a99d87	2	1	main_z	24	advance_on_keypress_ZEE	64	stimuli_distractor_diamondtriangles.svg	stimuli_distractor_trianglediamonds.svg	38	no	57	0	948	6	6	antiphase_hc_ois.wav	3	6	6	noise_calib_stim_RIGHT.wav	2	3	blb_dichoticlistening_ba-ga.mp3	ba	ga	1	right
6.6.1	mac	2023-06-25	14:58:07	15:16:49	1119583	63db1ccde6434330f2a99d87	2	1	main_z	24	main_z	65	stimuli_target_trianglesquares.svg	stimuli_distractor_diamondtriangles.svg	22	yes	44	1	853	6	6	antiphase_hc_ois.wav	3	6	6	noise_calib_stim_RIGHT.wav	2	3	blb_dichoticlistening_ba-ga.mp3	ba	ga	1	right
6.6.1	mac	2023-06-25	14:58:07	15:16:49	1119583	63db1ccde6434330f2a99d87	2	1	main_z	24	advance_on_keypress_ZEE	66	stimuli_target_trianglesquares.svg	stimuli_distractor_diamondtriangles.svg	22	yes	57	0	605	6	6	antiphase_hc_ois.wav	3	6	6	noise_calib_stim_RIGHT.wav	2	3	blb_dichoticlistening_ba-ga.mp3	ba	ga	1	right
6.6.1	mac	2023-06-25	14:58:07	15:16:52	1122812	63db1ccde6434330f2a99d87	2	1	main_z	24	main_z	67	stimuli_distractor_diamondtriangles.svg	stimuli_distractor_diamondtriangles.svg	39	no	0	1	2000	6	6	antiphase_hc_ois.wav	3	6	6	noise_calib_stim_RIGHT.wav	2	3	blb_dichoticlistening_ba-ga.mp3	ba	ga	1	right
6.6.1	mac	2023-06-25	14:58:07	15:16:52	1122812	63db1ccde6434330f2a99d87	2	1	main_z	24	advance_on_keypress_ZEE	68	stimuli_distractor_diamondtriangles.svg	stimuli_distractor_diamondtriangles.svg	39	no	57	0	258	6	6	antiphase_hc_ois.wav	3	6	6	noise_calib_stim_RIGHT.wav	2	3	blb_dichoticlistening_ba-ga.mp3	ba	ga	1	right
6.6.1	mac	2023-06-25	14:58:07	15:16:54	1124411	63db1ccde6434330f2a99d87	2	1	main_z	24	main_z	69	stimuli_target_squaretriangles.svg	stimuli_distractor_trianglediamonds.svg	3	yes	44	1	716	6	6	antiphase_hc_ois.wav	3	6	6	noise_calib_stim_RIGHT.wav	2	3	blb_dichoticlistening_ba-ga.mp3	ba	ga	1	right
6.6.1	mac	2023-06-25	14:58:07	15:16:54	1124411	63db1ccde6434330f2a99d87	2	1	main_z	24	advance_on_keypress_ZEE	70	stimuli_target_squaretriangles.svg	stimuli_distractor_trianglediamonds.svg	3	yes	57	0	588	6	6	antiphase_hc_ois.wav	3	6	6	noise_calib_stim_RIGHT.wav	2	3	blb_dichoticlistening_ba-ga.mp3	ba	ga	1	right
6.6.1	mac	2023-06-25	14:58:07	15:16:56	1126338	63db1ccde6434330f2a99d87	2	1	main_z	24	main_z	71	stimuli_distractor_trianglediamonds.svg	stimuli_target_diamondrectangles.svg	27	yes	44	1	709	6	6	antiphase_hc_ois.wav	3	6	6	noise_calib_stim_RIGHT.wav	2	3	blb_dichoticlistening_ba-ga.mp3	ba	ga	1	right
6.6.1	mac	2023-06-25	14:58:07	15:16:56	1126338	63db1ccde6434330f2a99d87	2	1	main_z	24	advance_on_keypress_ZEE	72	stimuli_distractor_trianglediamonds.svg	stimuli_target_diamondrectangles.svg	27	yes	57	0	556	6	6	antiphase_hc_ois.wav	3	6	6	noise_calib_stim_RIGHT.wav	2	3	blb_dichoticlistening_ba-ga.mp3	ba	ga	1	right
6.6.1	mac	2023-06-25	14:58:07	15:16:58	1128342	63db1ccde6434330f2a99d87	2	1	main_z	24	main_z	73	stimuli_distractor_diamondtriangles.svg	stimuli_target_rectangletriangles.svg	13	yes	44	1	828	6	6	antiphase_hc_ois.wav	3	6	6	noise_calib_stim_RIGHT.wav	2	3	blb_dichoticlistening_ba-ga.mp3	ba	ga	1	right
6.6.1	mac	2023-06-25	14:58:07	15:16:58	1128342	63db1ccde6434330f2a99d87	2	1	main_z	24	advance_on_keypress_ZEE	74	stimuli_distractor_diamondtriangles.svg	stimuli_target_rectangletriangles.svg	13	yes	57	0	478	6	6	antiphase_hc_ois.wav	3	6	6	noise_calib_stim_RIGHT.wav	2	3	blb_dichoticlistening_ba-ga.mp3	ba	ga	1	right
6.6.1	mac	2023-06-25	14:58:07	15:17:00	1130553	63db1ccde6434330f2a99d87	2	1	main_z	24	main_z	75	stimuli_target_trianglerectangles.svg	stimuli_distractor_trianglediamonds.svg	17	yes	44	1	1088	6	6	antiphase_hc_ois.wav	3	6	6	noise_calib_stim_RIGHT.wav	2	3	blb_dichoticlistening_ba-ga.mp3	ba	ga	1	right
6.6.1	mac	2023-06-25	14:58:07	15:17:00	1130553	63db1ccde6434330f2a99d87	2	1	main_z	24	advance_on_keypress_ZEE	76	stimuli_target_trianglerectangles.svg	stimuli_distractor_trianglediamonds.svg	17	yes	57	0	528	6	6	antiphase_hc_ois.wav	3	6	6	noise_calib_stim_RIGHT.wav	2	3	blb_dichoticlistening_ba-ga.mp3	ba	ga	1	right
6.6.1	mac	2023-06-25	14:58:07	15:17:02	1132294	63db1ccde6434330f2a99d87	2	1	main_z	24	main_z	77	stimuli_distractor_trianglediamonds.svg	stimuli_target_squarediamonds.svg	12	yes	44	1	581	6	6	antiphase_hc_ois.wav	3	6	6	noise_calib_stim_RIGHT.wav	2	3	blb_dichoticlistening_ba-ga.mp3	ba	ga	1	right
6.6.1	mac	2023-06-25	14:58:07	15:17:02	1132294	63db1ccde6434330f2a99d87	2	1	main_z	24	advance_on_keypress_ZEE	78	stimuli_distractor_trianglediamonds.svg	stimuli_target_squarediamonds.svg	12	yes	57	0	591	6	6	antiphase_hc_ois.wav	3	6	6	noise_calib_stim_RIGHT.wav	2	3	blb_dichoticlistening_ba-ga.mp3	ba	ga	1	right
6.6.1	mac	2023-06-25	14:58:07	15:17:04	1134187	63db1ccde6434330f2a99d87	2	1	main_z	24	main_z	79	stimuli_distractor_diamondtriangles.svg	stimuli_target_rectanglediamonds.svg	14	yes	44	1	674	6	6	antiphase_hc_ois.wav	3	6	6	noise_calib_stim_RIGHT.wav	2	3	blb_dichoticlistening_ba-ga.mp3	ba	ga	1	right
6.6.1	mac	2023-06-25	14:58:07	15:17:04	1134187	63db1ccde6434330f2a99d87	2	1	main_z	24	advance_on_keypress_ZEE	80	stimuli_distractor_diamondtriangles.svg	stimuli_target_rectanglediamonds.svg	14	yes	57	0	619	6	6	antiphase_hc_ois.wav	3	6	6	noise_calib_stim_RIGHT.wav	2	3	blb_dichoticlistening_ba-ga.mp3	ba	ga	1	right
6.6.1	mac	2023-06-25	14:58:07	15:17:06	1136217	63db1ccde6434330f2a99d87	2	1	main_z	24	main_z	81	stimuli_distractor_diamondtriangles.svg	stimuli_target_trianglesquares.svg	30	yes	44	1	787	6	6	antiphase_hc_ois.wav	3	6	6	noise_calib_stim_RIGHT.wav	2	3	blb_dichoticlistening_ba-ga.mp3	ba	ga	1	right
6.6.1	mac	2023-06-25	14:58:07	15:17:06	1136217	63db1ccde6434330f2a99d87	2	1	main_z	24	advance_on_keypress_ZEE	82	stimuli_distractor_diamondtriangles.svg	stimuli_target_trianglesquares.svg	30	yes	57	0	564	6	6	antiphase_hc_ois.wav	3	6	6	noise_calib_stim_RIGHT.wav	2	3	blb_dichoticlistening_ba-ga.mp3	ba	ga	1	right
6.6.1	mac	2023-06-25	14:58:07	15:17:08	1138174	63db1ccde6434330f2a99d87	2	1	main_z	24	main_z	83	stimuli_target_rectangletriangles.svg	stimuli_distractor_trianglediamonds.svg	1	yes	44	1	761	6	6	antiphase_hc_ois.wav	3	6	6	noise_calib_stim_RIGHT.wav	2	3	blb_dichoticlistening_ba-ga.mp3	ba	ga	1	right
6.6.1	mac	2023-06-25	14:58:07	15:17:08	1138174	63db1ccde6434330f2a99d87	2	1	main_z	24	advance_on_keypress_ZEE	84	stimuli_target_rectangletriangles.svg	stimuli_distractor_trianglediamonds.svg	1	yes	57	0	471	6	6	antiphase_hc_ois.wav	3	6	6	noise_calib_stim_RIGHT.wav	2	3	blb_dichoticlistening_ba-ga.mp3	ba	ga	1	right
6.6.1	mac	2023-06-25	14:58:07	15:17:10	1140013	63db1ccde6434330f2a99d87	2	1	main_z	24	main_z	85	stimuli_distractor_diamondtriangles.svg	stimuli_target_rectanglediamonds.svg	14	yes	44	1	733	6	6	antiphase_hc_ois.wav	3	6	6	noise_calib_stim_RIGHT.wav	2	3	blb_dichoticlistening_ba-ga.mp3	ba	ga	1	right
6.6.1	mac	2023-06-25	14:58:07	15:17:10	1140013	63db1ccde6434330f2a99d87	2	1	main_z	24	advance_on_keypress_ZEE	86	stimuli_distractor_diamondtriangles.svg	stimuli_target_rectanglediamonds.svg	14	yes	57	0	574	6	6	antiphase_hc_ois.wav	3	6	6	noise_calib_stim_RIGHT.wav	2	3	blb_dichoticlistening_ba-ga.mp3	ba	ga	1	right
6.6.1	mac	2023-06-25	14:58:07	15:17:13	1143212	63db1ccde6434330f2a99d87	2	1	main_z	24	main_z	87	stimuli_distractor_trianglediamonds.svg	stimuli_distractor_diamondtriangles.svg	35	no	0	1	2000	6	6	antiphase_hc_ois.wav	3	6	6	noise_calib_stim_RIGHT.wav	2	3	blb_dichoticlistening_ba-ga.mp3	ba	ga	1	right
6.6.1	mac	2023-06-25	14:58:07	15:17:13	1143212	63db1ccde6434330f2a99d87	2	1	main_z	24	advance_on_keypress_ZEE	88	stimuli_distractor_trianglediamonds.svg	stimuli_distractor_diamondtriangles.svg	35	no	57	0	542	6	6	antiphase_hc_ois.wav	3	6	6	noise_calib_stim_RIGHT.wav	2	3	blb_dichoticlistening_ba-ga.mp3	ba	ga	1	right
6.6.1	mac	2023-06-25	14:58:07	15:17:15	1145029	63db1ccde6434330f2a99d87	2	1	main_z	24	main_z	89	stimuli_distractor_diamondtriangles.svg	stimuli_target_squaretriangles.svg	15	yes	44	1	648	6	6	antiphase_hc_ois.wav	3	6	6	noise_calib_stim_RIGHT.wav	2	3	blb_dichoticlistening_ba-ga.mp3	ba	ga	1	right
6.6.1	mac	2023-06-25	14:58:07	15:17:15	1145029	63db1ccde6434330f2a99d87	2	1	main_z	24	advance_on_keypress_ZEE	90	stimuli_distractor_diamondtriangles.svg	stimuli_target_squaretriangles.svg	15	yes	57	0	689	6	6	antiphase_hc_ois.wav	3	6	6	noise_calib_stim_RIGHT.wav	2	3	blb_dichoticlistening_ba-ga.mp3	ba	ga	1	right
6.6.1	mac	2023-06-25	14:58:07	15:17:16	1146841	63db1ccde6434330f2a99d87	2	1	main_z	24	main_z	91	stimuli_distractor_trianglediamonds.svg	stimuli_target_squaretriangles.svg	11	yes	44	1	495	6	6	antiphase_hc_ois.wav	3	6	6	noise_calib_stim_RIGHT.wav	2	3	blb_dichoticlistening_ba-ga.mp3	ba	ga	1	right
6.6.1	mac	2023-06-25	14:58:07	15:17:16	1146841	63db1ccde6434330f2a99d87	2	1	main_z	24	advance_on_keypress_ZEE	92	stimuli_distractor_trianglediamonds.svg	stimuli_target_squaretriangles.svg	11	yes	57	0	624	6	6	antiphase_hc_ois.wav	3	6	6	noise_calib_stim_RIGHT.wav	2	3	blb_dichoticlistening_ba-ga.mp3	ba	ga	1	right
6.6.1	mac	2023-06-25	14:58:07	15:17:18	1148785	63db1ccde6434330f2a99d87	2	1	main_z	24	main_z	93	stimuli_target_diamondsquares.svg	stimuli_distractor_trianglediamonds.svg	20	yes	44	1	689	6	6	antiphase_hc_ois.wav	3	6	6	noise_calib_stim_RIGHT.wav	2	3	blb_dichoticlistening_ba-ga.mp3	ba	ga	1	right
6.6.1	mac	2023-06-25	14:58:07	15:17:18	1148785	63db1ccde6434330f2a99d87	2	1	main_z	24	advance_on_keypress_ZEE	94	stimuli_target_diamondsquares.svg	stimuli_distractor_trianglediamonds.svg	20	yes	57	0	466	6	6	antiphase_hc_ois.wav	3	6	6	noise_calib_stim_RIGHT.wav	2	3	blb_dichoticlistening_ba-ga.mp3	ba	ga	1	right
6.6.1	mac	2023-06-25	14:58:07	15:17:20	1150639	63db1ccde6434330f2a99d87	2	1	main_z	24	main_z	95	stimuli_distractor_diamondtriangles.svg	stimuli_target_rectangletriangles.svg	13	yes	44	1	759	6	6	antiphase_hc_ois.wav	3	6	6	noise_calib_stim_RIGHT.wav	2	3	blb_dichoticlistening_ba-ga.mp3	ba	ga	1	right
6.6.1	mac	2023-06-25	14:58:07	15:17:20	1150639	63db1ccde6434330f2a99d87	2	1	main_z	24	advance_on_keypress_ZEE	96	stimuli_distractor_diamondtriangles.svg	stimuli_target_rectangletriangles.svg	13	yes	57	0	412	6	6	antiphase_hc_ois.wav	3	6	6	noise_calib_stim_RIGHT.wav	2	3	blb_dichoticlistening_ba-ga.mp3	ba	ga	1	right
6.6.1	mac	2023-06-25	14:58:07	15:17:23	1153680	63db1ccde6434330f2a99d87	2	1	main_z	24	main_z	97	stimuli_distractor_trianglediamonds.svg	stimuli_distractor_trianglediamonds.svg	33	no	0	1	2000	6	6	antiphase_hc_ois.wav	3	6	6	noise_calib_stim_RIGHT.wav	2	3	blb_dichoticlistening_ba-ga.mp3	ba	ga	1	right
6.6.1	mac	2023-06-25	14:58:07	15:17:23	1153680	63db1ccde6434330f2a99d87	2	1	main_z	24	advance_on_keypress_ZEE	98	stimuli_distractor_trianglediamonds.svg	stimuli_distractor_trianglediamonds.svg	33	no	57	0	319	6	6	antiphase_hc_ois.wav	3	6	6	noise_calib_stim_RIGHT.wav	2	3	blb_dichoticlistening_ba-ga.mp3	ba	ga	1	right
6.6.1	mac	2023-06-25	14:58:07	15:17:26	1156629	63db1ccde6434330f2a99d87	2	1	main_z	24	main_z	99	stimuli_distractor_diamondtriangles.svg	stimuli_distractor_diamondtriangles.svg	39	no	0	1	2000	6	6	antiphase_hc_ois.wav	3	6	6	noise_calib_stim_RIGHT.wav	2	3	blb_dichoticlistening_ba-ga.mp3	ba	ga	1	right
6.6.1	mac	2023-06-25	14:58:07	15:17:26	1156629	63db1ccde6434330f2a99d87	2	1	main_z	24	advance_on_keypress_ZEE	100	stimuli_distractor_diamondtriangles.svg	stimuli_distractor_diamondtriangles.svg	39	no	57	0	288	6	6	antiphase_hc_ois.wav	3	6	6	noise_calib_stim_RIGHT.wav	2	3	blb_dichoticlistening_ba-ga.mp3	ba	ga	1	right
6.6.1	mac	2023-06-25	14:58:07	15:17:28	1158133	63db1ccde6434330f2a99d87	2	1	main_z	24	main_z	101	stimuli_distractor_trianglediamonds.svg	stimuli_target_trianglesquares.svg	26	yes	44	1	589	6	6	antiphase_hc_ois.wav	3	6	6	noise_calib_stim_RIGHT.wav	2	3	blb_dichoticlistening_ba-ga.mp3	ba	ga	1	right
6.6.1	mac	2023-06-25	14:58:07	15:17:28	1158133	63db1ccde6434330f2a99d87	2	1	main_z	24	advance_on_keypress_ZEE	102	stimuli_distractor_trianglediamonds.svg	stimuli_target_trianglesquares.svg	26	yes	57	0	768	6	6	antiphase_hc_ois.wav	3	6	6	noise_calib_stim_RIGHT.wav	2	3	blb_dichoticlistening_ba-ga.mp3	ba	ga	1	right
6.6.1	mac	2023-06-25	14:58:07	15:17:30	1160135	63db1ccde6434330f2a99d87	2	1	main_z	24	main_z	103	stimuli_target_rectanglediamonds.svg	stimuli_distractor_trianglediamonds.svg	2	yes	44	1	605	6	6	antiphase_hc_ois.wav	3	6	6	noise_calib_stim_RIGHT.wav	2	3	blb_dichoticlistening_ba-ga.mp3	ba	ga	1	right
6.6.1	mac	2023-06-25	14:58:07	15:17:30	1160135	63db1ccde6434330f2a99d87	2	1	main_z	24	advance_on_keypress_ZEE	104	stimuli_target_rectanglediamonds.svg	stimuli_distractor_trianglediamonds.svg	2	yes	57	0	663	6	6	antiphase_hc_ois.wav	3	6	6	noise_calib_stim_RIGHT.wav	2	3	blb_dichoticlistening_ba-ga.mp3	ba	ga	1	right
6.6.1	mac	2023-06-25	14:58:07	15:17:32	1162038	63db1ccde6434330f2a99d87	2	1	main_z	24	main_z	105	stimuli_target_squaretriangles.svg	stimuli_distractor_trianglediamonds.svg	3	yes	44	1	609	6	6	antiphase_hc_ois.wav	3	6	6	noise_calib_stim_RIGHT.wav	2	3	blb_dichoticlistening_ba-ga.mp3	ba	ga	1	right
6.6.1	mac	2023-06-25	14:58:07	15:17:32	1162038	63db1ccde6434330f2a99d87	2	1	main_z	24	advance_on_keypress_ZEE	106	stimuli_target_squaretriangles.svg	stimuli_distractor_trianglediamonds.svg	3	yes	57	0	514	6	6	antiphase_hc_ois.wav	3	6	6	noise_calib_stim_RIGHT.wav	2	3	blb_dichoticlistening_ba-ga.mp3	ba	ga	1	right
6.6.1	mac	2023-06-25	14:58:07	15:17:33	1163738	63db1ccde6434330f2a99d87	2	1	main_z	24	main_z	107	stimuli_target_rectangletriangles.svg	stimuli_distractor_diamondtriangles.svg	5	yes	44	1	558	6	6	antiphase_hc_ois.wav	3	6	6	noise_calib_stim_RIGHT.wav	2	3	blb_dichoticlistening_ba-ga.mp3	ba	ga	1	right
6.6.1	mac	2023-06-25	14:58:07	15:17:33	1163738	63db1ccde6434330f2a99d87	2	1	main_z	24	advance_on_keypress_ZEE	108	stimuli_target_rectangletriangles.svg	stimuli_distractor_diamondtriangles.svg	5	yes	57	0	481	6	6	antiphase_hc_ois.wav	3	6	6	noise_calib_stim_RIGHT.wav	2	3	blb_dichoticlistening_ba-ga.mp3	ba	ga	1	right
6.6.1	mac	2023-06-25	14:58:07	15:17:35	1165518	63db1ccde6434330f2a99d87	2	1	main_z	24	main_z	109	stimuli_distractor_trianglediamonds.svg	stimuli_target_trianglerectangles.svg	25	yes	44	1	671	6	6	antiphase_hc_ois.wav	3	6	6	noise_calib_stim_RIGHT.wav	2	3	blb_dichoticlistening_ba-ga.mp3	ba	ga	1	right
6.6.1	mac	2023-06-25	14:58:07	15:17:35	1165518	63db1ccde6434330f2a99d87	2	1	main_z	24	advance_on_keypress_ZEE	110	stimuli_distractor_trianglediamonds.svg	stimuli_target_trianglerectangles.svg	25	yes	57	0	475	6	6	antiphase_hc_ois.wav	3	6	6	noise_calib_stim_RIGHT.wav	2	3	blb_dichoticlistening_ba-ga.mp3	ba	ga	1	right
6.6.1	mac	2023-06-25	14:58:07	15:17:37	1167314	63db1ccde6434330f2a99d87	2	1	main_z	24	main_z	111	stimuli_distractor_trianglediamonds.svg	stimuli_target_rectanglediamonds.svg	10	yes	44	1	701	6	6	antiphase_hc_ois.wav	3	6	6	noise_calib_stim_RIGHT.wav	2	3	blb_dichoticlistening_ba-ga.mp3	ba	ga	1	right
6.6.1	mac	2023-06-25	14:58:07	15:17:37	1167314	63db1ccde6434330f2a99d87	2	1	main_z	24	advance_on_keypress_ZEE	112	stimuli_distractor_trianglediamonds.svg	stimuli_target_rectanglediamonds.svg	10	yes	57	0	517	6	6	antiphase_hc_ois.wav	3	6	6	noise_calib_stim_RIGHT.wav	2	3	blb_dichoticlistening_ba-ga.mp3	ba	ga	1	right
6.6.1	mac	2023-06-25	14:58:07	15:17:39	1169435	63db1ccde6434330f2a99d87	2	1	main_z	24	main_z	113	stimuli_target_trianglesquares.svg	stimuli_distractor_diamondtriangles.svg	22	yes	44	1	971	6	6	antiphase_hc_ois.wav	3	6	6	noise_calib_stim_RIGHT.wav	2	3	blb_dichoticlistening_ba-ga.mp3	ba	ga	1	right
6.6.1	mac	2023-06-25	14:58:07	15:17:39	1169435	63db1ccde6434330f2a99d87	2	1	main_z	24	advance_on_keypress_ZEE	114	stimuli_target_trianglesquares.svg	stimuli_distractor_diamondtriangles.svg	22	yes	57	0	466	6	6	antiphase_hc_ois.wav	3	6	6	noise_calib_stim_RIGHT.wav	2	3	blb_dichoticlistening_ba-ga.mp3	ba	ga	1	right
6.6.1	mac	2023-06-25	14:58:07	15:17:41	1171159	63db1ccde6434330f2a99d87	2	1	main_z	24	main_z	115	stimuli_target_squarediamonds.svg	stimuli_distractor_diamondtriangles.svg	8	yes	44	1	630	6	6	antiphase_hc_ois.wav	3	6	6	noise_calib_stim_RIGHT.wav	2	3	blb_dichoticlistening_ba-ga.mp3	ba	ga	1	right
6.6.1	mac	2023-06-25	14:58:07	15:17:41	1171159	63db1ccde6434330f2a99d87	2	1	main_z	24	advance_on_keypress_ZEE	116	stimuli_target_squarediamonds.svg	stimuli_distractor_diamondtriangles.svg	8	yes	57	0	497	6	6	antiphase_hc_ois.wav	3	6	6	noise_calib_stim_RIGHT.wav	2	3	blb_dichoticlistening_ba-ga.mp3	ba	ga	1	right
6.6.1	mac	2023-06-25	14:58:07	15:17:44	1174295	63db1ccde6434330f2a99d87	2	1	main_z	24	main_z	117	stimuli_distractor_diamondtriangles.svg	stimuli_target_squarediamonds.svg	16	yes	0	0	2000	6	6	antiphase_hc_ois.wav	3	6	6	noise_calib_stim_RIGHT.wav	2	3	blb_dichoticlistening_ba-ga.mp3	ba	ga	1	right
6.6.1	mac	2023-06-25	14:58:07	15:17:44	1174295	63db1ccde6434330f2a99d87	2	1	main_z	24	advance_on_keypress_ZEE	118	stimuli_distractor_diamondtriangles.svg	stimuli_target_squarediamonds.svg	16	yes	57	0	347	6	6	antiphase_hc_ois.wav	3	6	6	noise_calib_stim_RIGHT.wav	2	3	blb_dichoticlistening_ba-ga.mp3	ba	ga	1	right
6.6.1	mac	2023-06-25	14:58:07	15:17:45	1175730	63db1ccde6434330f2a99d87	2	1	main_z	24	main_z	119	stimuli_target_squarediamonds.svg	stimuli_distractor_trianglediamonds.svg	4	yes	44	1	450	6	6	antiphase_hc_ois.wav	3	6	6	noise_calib_stim_RIGHT.wav	2	3	blb_dichoticlistening_ba-ga.mp3	ba	ga	1	right
6.6.1	mac	2023-06-25	14:58:07	15:17:45	1175730	63db1ccde6434330f2a99d87	2	1	main_z	24	advance_on_keypress_ZEE	120	stimuli_target_squarediamonds.svg	stimuli_distractor_trianglediamonds.svg	4	yes	57	0	1254	6	6	antiphase_hc_ois.wav	3	6	6	noise_calib_stim_RIGHT.wav	2	3	blb_dichoticlistening_ba-ga.mp3	ba	ga	1	right
6.6.1	mac	2023-06-25	14:58:07	15:17:49	1179613	63db1ccde6434330f2a99d87	2	1	main_z	24	main_z	121	stimuli_target_trianglerectangles.svg	stimuli_distractor_diamondtriangles.svg	21	yes	0	0	2000	6	6	antiphase_hc_ois.wav	3	6	6	noise_calib_stim_RIGHT.wav	2	3	blb_dichoticlistening_ba-ga.mp3	ba	ga	1	right
6.6.1	mac	2023-06-25	14:58:07	15:17:49	1179613	63db1ccde6434330f2a99d87	2	1	main_z	24	advance_on_keypress_ZEE	122	stimuli_target_trianglerectangles.svg	stimuli_distractor_diamondtriangles.svg	21	yes	57	0	1604	6	6	antiphase_hc_ois.wav	3	6	6	noise_calib_stim_RIGHT.wav	2	3	blb_dichoticlistening_ba-ga.mp3	ba	ga	1	right
6.6.1	mac	2023-06-25	14:58:07	15:17:52	1182754	63db1ccde6434330f2a99d87	2	1	main_z	24	main_z	123	stimuli_distractor_trianglediamonds.svg	stimuli_distractor_trianglediamonds.svg	34	no	44	0	906	6	6	antiphase_hc_ois.wav	3	6	6	noise_calib_stim_RIGHT.wav	2	3	blb_dichoticlistening_ba-ga.mp3	ba	ga	1	right
6.6.1	mac	2023-06-25	14:58:07	15:17:52	1182754	63db1ccde6434330f2a99d87	2	1	main_z	24	advance_on_keypress_ZEE	124	stimuli_distractor_trianglediamonds.svg	stimuli_distractor_trianglediamonds.svg	34	no	57	0	447	6	6	antiphase_hc_ois.wav	3	6	6	noise_calib_stim_RIGHT.wav	2	3	blb_dichoticlistening_ba-ga.mp3	ba	ga	1	right
6.6.1	mac	2023-06-25	14:58:07	15:17:54	1184459	63db1ccde6434330f2a99d87	2	1	main_z	24	main_z	125	stimuli_distractor_trianglediamonds.svg	stimuli_target_rectangletriangles.svg	9	yes	44	1	629	6	6	antiphase_hc_ois.wav	3	6	6	noise_calib_stim_RIGHT.wav	2	3	blb_dichoticlistening_ba-ga.mp3	ba	ga	1	right
6.6.1	mac	2023-06-25	14:58:07	15:17:54	1184459	63db1ccde6434330f2a99d87	2	1	main_z	24	advance_on_keypress_ZEE	126	stimuli_distractor_trianglediamonds.svg	stimuli_target_rectangletriangles.svg	9	yes	57	0	435	6	6	antiphase_hc_ois.wav	3	6	6	noise_calib_stim_RIGHT.wav	2	3	blb_dichoticlistening_ba-ga.mp3	ba	ga	1	right
6.6.1	mac	2023-06-25	14:58:07	15:17:57	1187529	63db1ccde6434330f2a99d87	2	1	main_z	24	main_z	127	stimuli_distractor_diamondtriangles.svg	stimuli_distractor_trianglediamonds.svg	37	no	0	1	2000	6	6	antiphase_hc_ois.wav	3	6	6	noise_calib_stim_RIGHT.wav	2	3	blb_dichoticlistening_ba-ga.mp3	ba	ga	1	right
6.6.1	mac	2023-06-25	14:58:07	15:17:57	1187529	63db1ccde6434330f2a99d87	2	1	main_z	24	advance_on_keypress_ZEE	128	stimuli_distractor_diamondtriangles.svg	stimuli_distractor_trianglediamonds.svg	37	no	57	0	203	6	6	antiphase_hc_ois.wav	3	6	6	noise_calib_stim_RIGHT.wav	2	3	blb_dichoticlistening_ba-ga.mp3	ba	ga	1	right
6.6.1	mac	2023-06-25	14:58:07	15:17:59	1188964	63db1ccde6434330f2a99d87	2	1	main_z	24	main_z	129	stimuli_distractor_trianglediamonds.svg	stimuli_target_squarediamonds.svg	12	yes	44	1	601	6	6	antiphase_hc_ois.wav	3	6	6	noise_calib_stim_RIGHT.wav	2	3	blb_dichoticlistening_ba-ga.mp3	ba	ga	1	right
6.6.1	mac	2023-06-25	14:58:07	15:17:59	1188964	63db1ccde6434330f2a99d87	2	1	main_z	24	advance_on_keypress_ZEE	130	stimuli_distractor_trianglediamonds.svg	stimuli_target_squarediamonds.svg	12	yes	57	0	539	6	6	antiphase_hc_ois.wav	3	6	6	noise_calib_stim_RIGHT.wav	2	3	blb_dichoticlistening_ba-ga.mp3	ba	ga	1	right
6.6.1	mac	2023-06-25	14:58:07	15:18:00	1190747	63db1ccde6434330f2a99d87	2	1	main_z	24	main_z	131	stimuli_target_trianglesquares.svg	stimuli_distractor_trianglediamonds.svg	18	yes	44	1	617	6	6	antiphase_hc_ois.wav	3	6	6	noise_calib_stim_RIGHT.wav	2	3	blb_dichoticlistening_ba-ga.mp3	ba	ga	1	right
6.6.1	mac	2023-06-25	14:58:07	15:18:00	1190747	63db1ccde6434330f2a99d87	2	1	main_z	24	advance_on_keypress_ZEE	132	stimuli_target_trianglesquares.svg	stimuli_distractor_trianglediamonds.svg	18	yes	57	0	355	6	6	antiphase_hc_ois.wav	3	6	6	noise_calib_stim_RIGHT.wav	2	3	blb_dichoticlistening_ba-ga.mp3	ba	ga	1	right
6.6.1	mac	2023-06-25	14:58:07	15:18:02	1192315	63db1ccde6434330f2a99d87	2	1	main_z	24	main_z	133	stimuli_target_rectanglediamonds.svg	stimuli_distractor_diamondtriangles.svg	6	yes	44	1	587	6	6	antiphase_hc_ois.wav	3	6	6	noise_calib_stim_RIGHT.wav	2	3	blb_dichoticlistening_ba-ga.mp3	ba	ga	1	right
6.6.1	mac	2023-06-25	14:58:07	15:18:02	1192315	63db1ccde6434330f2a99d87	2	1	main_z	24	advance_on_keypress_ZEE	134	stimuli_target_rectanglediamonds.svg	stimuli_distractor_diamondtriangles.svg	6	yes	57	0	390	6	6	antiphase_hc_ois.wav	3	6	6	noise_calib_stim_RIGHT.wav	2	3	blb_dichoticlistening_ba-ga.mp3	ba	ga	1	right
6.6.1	mac	2023-06-25	14:58:07	15:18:04	1194046	63db1ccde6434330f2a99d87	2	1	main_z	24	main_z	135	stimuli_distractor_trianglediamonds.svg	stimuli_target_diamondrectangles.svg	27	yes	44	1	705	6	6	antiphase_hc_ois.wav	3	6	6	noise_calib_stim_RIGHT.wav	2	3	blb_dichoticlistening_ba-ga.mp3	ba	ga	1	right
6.6.1	mac	2023-06-25	14:58:07	15:18:04	1194046	63db1ccde6434330f2a99d87	2	1	main_z	24	advance_on_keypress_ZEE	136	stimuli_distractor_trianglediamonds.svg	stimuli_target_diamondrectangles.svg	27	yes	57	0	443	6	6	antiphase_hc_ois.wav	3	6	6	noise_calib_stim_RIGHT.wav	2	3	blb_dichoticlistening_ba-ga.mp3	ba	ga	1	right
6.6.1	mac	2023-06-25	14:58:07	15:18:05	1195844	63db1ccde6434330f2a99d87	2	1	main_z	24	main_z	137	stimuli_target_trianglerectangles.svg	stimuli_distractor_trianglediamonds.svg	17	yes	44	1	713	6	6	antiphase_hc_ois.wav	3	6	6	noise_calib_stim_RIGHT.wav	2	3	blb_dichoticlistening_ba-ga.mp3	ba	ga	1	right
6.6.1	mac	2023-06-25	14:58:07	15:18:05	1195844	63db1ccde6434330f2a99d87	2	1	main_z	24	advance_on_keypress_ZEE	138	stimuli_target_trianglerectangles.svg	stimuli_distractor_trianglediamonds.svg	17	yes	57	0	660	6	6	antiphase_hc_ois.wav	3	6	6	noise_calib_stim_RIGHT.wav	2	3	blb_dichoticlistening_ba-ga.mp3	ba	ga	1	right
6.6.1	mac	2023-06-25	14:58:07	15:18:09	1199146	63db1ccde6434330f2a99d87	2	1	main_z	24	main_z	139	stimuli_distractor_diamondtriangles.svg	stimuli_distractor_trianglediamonds.svg	38	no	0	1	2000	6	6	antiphase_hc_ois.wav	3	6	6	noise_calib_stim_RIGHT.wav	2	3	blb_dichoticlistening_ba-ga.mp3	ba	ga	1	right
6.6.1	mac	2023-06-25	14:58:07	15:18:09	1199146	63db1ccde6434330f2a99d87	2	1	main_z	24	advance_on_keypress_ZEE	140	stimuli_distractor_diamondtriangles.svg	stimuli_distractor_trianglediamonds.svg	38	no	57	0	622	6	6	antiphase_hc_ois.wav	3	6	6	noise_calib_stim_RIGHT.wav	2	3	blb_dichoticlistening_ba-ga.mp3	ba	ga	1	right
6.6.1	mac	2023-06-25	14:58:07	15:18:11	1201083	63db1ccde6434330f2a99d87	2	1	main_z	24	main_z	141	stimuli_target_diamondrectangles.svg	stimuli_distractor_trianglediamonds.svg	19	yes	44	1	684	6	6	antiphase_hc_ois.wav	3	6	6	noise_calib_stim_RIGHT.wav	2	3	blb_dichoticlistening_ba-ga.mp3	ba	ga	1	right
6.6.1	mac	2023-06-25	14:58:07	15:18:11	1201083	63db1ccde6434330f2a99d87	2	1	main_z	24	advance_on_keypress_ZEE	142	stimuli_target_diamondrectangles.svg	stimuli_distractor_trianglediamonds.svg	19	yes	57	0	565	6	6	antiphase_hc_ois.wav	3	6	6	noise_calib_stim_RIGHT.wav	2	3	blb_dichoticlistening_ba-ga.mp3	ba	ga	1	right
6.6.1	mac	2023-06-25	14:58:07	15:18:14	1204285	63db1ccde6434330f2a99d87	2	1	main_z	24	main_z	143	stimuli_distractor_trianglediamonds.svg	stimuli_distractor_diamondtriangles.svg	36	no	0	1	2000	6	6	antiphase_hc_ois.wav	3	6	6	noise_calib_stim_RIGHT.wav	2	3	blb_dichoticlistening_ba-ga.mp3	ba	ga	1	right
6.6.1	mac	2023-06-25	14:58:07	15:18:14	1204285	63db1ccde6434330f2a99d87	2	1	main_z	24	advance_on_keypress_ZEE	144	stimuli_distractor_trianglediamonds.svg	stimuli_distractor_diamondtriangles.svg	36	no	57	0	480	6	6	antiphase_hc_ois.wav	3	6	6	noise_calib_stim_RIGHT.wav	2	3	blb_dichoticlistening_ba-ga.mp3	ba	ga	1	right
6.6.1	mac	2023-06-25	14:58:07	15:18:16	1205996	63db1ccde6434330f2a99d87	2	1	main_z	24	main_z	145	stimuli_target_diamondrectangles.svg	stimuli_distractor_diamondtriangles.svg	23	yes	44	1	600	6	6	antiphase_hc_ois.wav	3	6	6	noise_calib_stim_RIGHT.wav	2	3	blb_dichoticlistening_ba-ga.mp3	ba	ga	1	right
6.6.1	mac	2023-06-25	14:58:07	15:18:16	1205996	63db1ccde6434330f2a99d87	2	1	main_z	24	advance_on_keypress_ZEE	146	stimuli_target_diamondrectangles.svg	stimuli_distractor_diamondtriangles.svg	23	yes	57	0	408	6	6	antiphase_hc_ois.wav	3	6	6	noise_calib_stim_RIGHT.wav	2	3	blb_dichoticlistening_ba-ga.mp3	ba	ga	1	right
6.6.1	mac	2023-06-25	14:58:07	15:18:17	1207568	63db1ccde6434330f2a99d87	2	1	main_z	24	main_z	147	stimuli_target_diamondsquares.svg	stimuli_distractor_diamondtriangles.svg	24	yes	44	1	540	6	6	antiphase_hc_ois.wav	3	6	6	noise_calib_stim_RIGHT.wav	2	3	blb_dichoticlistening_ba-ga.mp3	ba	ga	1	right
6.6.1	mac	2023-06-25	14:58:07	15:18:17	1207568	63db1ccde6434330f2a99d87	2	1	main_z	24	advance_on_keypress_ZEE	148	stimuli_target_diamondsquares.svg	stimuli_distractor_diamondtriangles.svg	24	yes	57	0	380	6	6	antiphase_hc_ois.wav	3	6	6	noise_calib_stim_RIGHT.wav	2	3	blb_dichoticlistening_ba-ga.mp3	ba	ga	1	right
6.6.1	mac	2023-06-25	14:58:07	15:18:20	1210580	63db1ccde6434330f2a99d87	2	1	main_z	24	main_z	149	stimuli_distractor_diamondtriangles.svg	stimuli_distractor_diamondtriangles.svg	40	no	0	1	2000	6	6	antiphase_hc_ois.wav	3	6	6	noise_calib_stim_RIGHT.wav	2	3	blb_dichoticlistening_ba-ga.mp3	ba	ga	1	right
6.6.1	mac	2023-06-25	14:58:07	15:18:20	1210580	63db1ccde6434330f2a99d87	2	1	main_z	24	advance_on_keypress_ZEE	150	stimuli_distractor_diamondtriangles.svg	stimuli_distractor_diamondtriangles.svg	40	no	57	0	287	6	6	antiphase_hc_ois.wav	3	6	6	noise_calib_stim_RIGHT.wav	2	3	blb_dichoticlistening_ba-ga.mp3	ba	ga	1	right
6.6.1	mac	2023-06-25	14:58:07	15:18:22	1212180	63db1ccde6434330f2a99d87	2	1	main_z	24	main_z	151	stimuli_target_squaretriangles.svg	stimuli_distractor_diamondtriangles.svg	7	yes	44	1	685	6	6	antiphase_hc_ois.wav	3	6	6	noise_calib_stim_RIGHT.wav	2	3	blb_dichoticlistening_ba-ga.mp3	ba	ga	1	right
6.6.1	mac	2023-06-25	14:58:07	15:18:22	1212180	63db1ccde6434330f2a99d87	2	1	main_z	24	advance_on_keypress_ZEE	152	stimuli_target_squaretriangles.svg	stimuli_distractor_diamondtriangles.svg	7	yes	57	0	473	6	6	antiphase_hc_ois.wav	3	6	6	noise_calib_stim_RIGHT.wav	2	3	blb_dichoticlistening_ba-ga.mp3	ba	ga	1	right
6.6.1	mac	2023-06-25	14:58:07	15:18:24	1214012	63db1ccde6434330f2a99d87	2	1	main_z	24	main_z	153	stimuli_distractor_trianglediamonds.svg	stimuli_target_diamondsquares.svg	28	yes	44	1	732	6	6	antiphase_hc_ois.wav	3	6	6	noise_calib_stim_RIGHT.wav	2	3	blb_dichoticlistening_ba-ga.mp3	ba	ga	1	right
6.6.1	mac	2023-06-25	14:58:07	15:18:24	1214012	63db1ccde6434330f2a99d87	2	1	main_z	24	advance_on_keypress_ZEE	154	stimuli_distractor_trianglediamonds.svg	stimuli_target_diamondsquares.svg	28	yes	57	0	478	6	6	antiphase_hc_ois.wav	3	6	6	noise_calib_stim_RIGHT.wav	2	3	blb_dichoticlistening_ba-ga.mp3	ba	ga	1	right
6.6.1	mac	2023-06-25	14:58:07	15:18:26	1215944	63db1ccde6434330f2a99d87	2	1	main_z	24	main_z	155	stimuli_distractor_diamondtriangles.svg	stimuli_target_diamondrectangles.svg	31	yes	44	1	814	6	6	antiphase_hc_ois.wav	3	6	6	noise_calib_stim_RIGHT.wav	2	3	blb_dichoticlistening_ba-ga.mp3	ba	ga	1	right
6.6.1	mac	2023-06-25	14:58:07	15:18:26	1215944	63db1ccde6434330f2a99d87	2	1	main_z	24	advance_on_keypress_ZEE	156	stimuli_distractor_diamondtriangles.svg	stimuli_target_diamondrectangles.svg	31	yes	57	0	665	6	6	antiphase_hc_ois.wav	3	6	6	noise_calib_stim_RIGHT.wav	2	3	blb_dichoticlistening_ba-ga.mp3	ba	ga	1	right
6.6.1	mac	2023-06-25	14:58:07	15:18:28	1217964	63db1ccde6434330f2a99d87	2	1	main_z	24	main_z	157	stimuli_distractor_diamondtriangles.svg	stimuli_target_trianglerectangles.svg	29	yes	44	1	718	6	6	antiphase_hc_ois.wav	3	6	6	noise_calib_stim_RIGHT.wav	2	3	blb_dichoticlistening_ba-ga.mp3	ba	ga	1	right
6.6.1	mac	2023-06-25	14:58:07	15:18:28	1217964	63db1ccde6434330f2a99d87	2	1	main_z	24	advance_on_keypress_ZEE	158	stimuli_distractor_diamondtriangles.svg	stimuli_target_trianglerectangles.svg	29	yes	57	0	459	6	6	antiphase_hc_ois.wav	3	6	6	noise_calib_stim_RIGHT.wav	2	3	blb_dichoticlistening_ba-ga.mp3	ba	ga	1	right
6.6.1	mac	2023-06-25	14:58:07	15:18:29	1219752	63db1ccde6434330f2a99d87	2	1	main_z	24	main_z	159	stimuli_distractor_diamondtriangles.svg	stimuli_target_diamondsquares.svg	32	yes	44	1	706	6	6	antiphase_hc_ois.wav	3	6	6	noise_calib_stim_RIGHT.wav	2	3	blb_dichoticlistening_ba-ga.mp3	ba	ga	1	right
6.6.1	mac	2023-06-25	14:58:07	15:18:29	1219752	63db1ccde6434330f2a99d87	2	1	main_z	24	advance_on_keypress_ZEE	160	stimuli_distractor_diamondtriangles.svg	stimuli_target_diamondsquares.svg	32	yes	57	0	387	6	6	antiphase_hc_ois.wav	3	6	6	noise_calib_stim_RIGHT.wav	2	3	blb_dichoticlistening_ba-ga.mp3	ba	ga	1	right
6.6.1	mac	2023-06-25	14:58:07	15:18:44	1234093	63db1ccde6434330f2a99d87	2	1	practice_slash	26	practice_slash	1	stimuli_distractor_diamondtriangles.svg	stimuli_distractor_diamondtriangles.svg	13	no	53	0	661	6	6	antiphase_hc_ois.wav	3	6	6	noise_calib_stim_RIGHT.wav	2	3	blb_dichoticlistening_ba-ga.mp3	ba	ga	1	right
6.6.1	mac	2023-06-25	14:58:07	15:18:44	1234093	63db1ccde6434330f2a99d87	2	1	practice_slash	26	advance_on_keypress_SLASH	2	stimuli_distractor_diamondtriangles.svg	stimuli_distractor_diamondtriangles.svg	13	no	57	0	495	6	6	antiphase_hc_ois.wav	3	6	6	noise_calib_stim_RIGHT.wav	2	3	blb_dichoticlistening_ba-ga.mp3	ba	ga	1	right
6.6.1	mac	2023-06-25	14:58:07	15:18:46	1236727	63db1ccde6434330f2a99d87	2	1	practice_slash	26	practice_slash	3	stimuli_target_diamondsquares.svg	stimuli_distractor_diamondtriangles.svg	3	yes	53	1	495	6	6	antiphase_hc_ois.wav	3	6	6	noise_calib_stim_RIGHT.wav	2	3	blb_dichoticlistening_ba-ga.mp3	ba	ga	1	right
6.6.1	mac	2023-06-25	14:58:07	15:18:46	1236727	63db1ccde6434330f2a99d87	2	1	practice_slash	26	advance_on_keypress_SLASH	4	stimuli_target_diamondsquares.svg	stimuli_distractor_diamondtriangles.svg	3	yes	57	0	395	6	6	antiphase_hc_ois.wav	3	6	6	noise_calib_stim_RIGHT.wav	2	3	blb_dichoticlistening_ba-ga.mp3	ba	ga	1	right
6.6.1	mac	2023-06-25	14:58:07	15:18:49	1239394	63db1ccde6434330f2a99d87	2	1	practice_slash	26	practice_slash	5	stimuli_target_rectanglediamonds.svg	stimuli_distractor_trianglediamonds.svg	4	yes	53	1	630	6	6	antiphase_hc_ois.wav	3	6	6	noise_calib_stim_RIGHT.wav	2	3	blb_dichoticlistening_ba-ga.mp3	ba	ga	1	right
6.6.1	mac	2023-06-25	14:58:07	15:18:49	1239394	63db1ccde6434330f2a99d87	2	1	practice_slash	26	advance_on_keypress_SLASH	6	stimuli_target_rectanglediamonds.svg	stimuli_distractor_trianglediamonds.svg	4	yes	57	0	473	6	6	antiphase_hc_ois.wav	3	6	6	noise_calib_stim_RIGHT.wav	2	3	blb_dichoticlistening_ba-ga.mp3	ba	ga	1	right
6.6.1	mac	2023-06-25	14:58:07	15:18:52	1241917	63db1ccde6434330f2a99d87	2	1	practice_slash	26	practice_slash	7	stimuli_target_diamondsquares.svg	stimuli_distractor_trianglediamonds.svg	6	yes	53	1	420	6	6	antiphase_hc_ois.wav	3	6	6	noise_calib_stim_RIGHT.wav	2	3	blb_dichoticlistening_ba-ga.mp3	ba	ga	1	right
6.6.1	mac	2023-06-25	14:58:07	15:18:52	1241917	63db1ccde6434330f2a99d87	2	1	practice_slash	26	advance_on_keypress_SLASH	8	stimuli_target_diamondsquares.svg	stimuli_distractor_trianglediamonds.svg	6	yes	57	0	446	6	6	antiphase_hc_ois.wav	3	6	6	noise_calib_stim_RIGHT.wav	2	3	blb_dichoticlistening_ba-ga.mp3	ba	ga	1	right
6.6.1	mac	2023-06-25	14:58:07	15:18:54	1244650	63db1ccde6434330f2a99d87	2	1	practice_slash	26	practice_slash	9	stimuli_target_rectanglediamonds.svg	stimuli_distractor_diamondtriangles.svg	1	yes	53	1	653	6	6	antiphase_hc_ois.wav	3	6	6	noise_calib_stim_RIGHT.wav	2	3	blb_dichoticlistening_ba-ga.mp3	ba	ga	1	right
6.6.1	mac	2023-06-25	14:58:07	15:18:54	1244650	63db1ccde6434330f2a99d87	2	1	practice_slash	26	advance_on_keypress_SLASH	10	stimuli_target_rectanglediamonds.svg	stimuli_distractor_diamondtriangles.svg	1	yes	57	0	523	6	6	antiphase_hc_ois.wav	3	6	6	noise_calib_stim_RIGHT.wav	2	3	blb_dichoticlistening_ba-ga.mp3	ba	ga	1	right
6.6.1	mac	2023-06-25	14:58:07	15:18:57	1247678	63db1ccde6434330f2a99d87	2	1	practice_slash	26	practice_slash	11	stimuli_distractor_trianglediamonds.svg	stimuli_distractor_diamondtriangles.svg	16	no	53	0	880	6	6	antiphase_hc_ois.wav	3	6	6	noise_calib_stim_RIGHT.wav	2	3	blb_dichoticlistening_ba-ga.mp3	ba	ga	1	right
6.6.1	mac	2023-06-25	14:58:07	15:18:57	1247678	63db1ccde6434330f2a99d87	2	1	practice_slash	26	advance_on_keypress_SLASH	12	stimuli_distractor_trianglediamonds.svg	stimuli_distractor_diamondtriangles.svg	16	no	57	0	470	6	6	antiphase_hc_ois.wav	3	6	6	noise_calib_stim_RIGHT.wav	2	3	blb_dichoticlistening_ba-ga.mp3	ba	ga	1	right
6.6.1	mac	2023-06-25	14:58:07	15:19:01	1251780	63db1ccde6434330f2a99d87	2	1	practice_slash	26	practice_slash	13	stimuli_distractor_trianglediamonds.svg	stimuli_distractor_trianglediamonds.svg	15	no	0	1	2000	6	6	antiphase_hc_ois.wav	3	6	6	noise_calib_stim_RIGHT.wav	2	3	blb_dichoticlistening_ba-ga.mp3	ba	ga	1	right
6.6.1	mac	2023-06-25	14:58:07	15:19:01	1251780	63db1ccde6434330f2a99d87	2	1	practice_slash	26	advance_on_keypress_SLASH	14	stimuli_distractor_trianglediamonds.svg	stimuli_distractor_trianglediamonds.svg	15	no	57	0	595	6	6	antiphase_hc_ois.wav	3	6	6	noise_calib_stim_RIGHT.wav	2	3	blb_dichoticlistening_ba-ga.mp3	ba	ga	1	right
6.6.1	mac	2023-06-25	14:58:07	15:19:04	1254526	63db1ccde6434330f2a99d87	2	1	practice_slash	26	practice_slash	15	stimuli_distractor_diamondtriangles.svg	stimuli_target_trianglerectangles.svg	9	yes	53	1	510	6	6	antiphase_hc_ois.wav	3	6	6	noise_calib_stim_RIGHT.wav	2	3	blb_dichoticlistening_ba-ga.mp3	ba	ga	1	right
6.6.1	mac	2023-06-25	14:58:07	15:19:04	1254526	63db1ccde6434330f2a99d87	2	1	practice_slash	26	advance_on_keypress_SLASH	16	stimuli_distractor_diamondtriangles.svg	stimuli_target_trianglerectangles.svg	9	yes	57	0	436	6	6	antiphase_hc_ois.wav	3	6	6	noise_calib_stim_RIGHT.wav	2	3	blb_dichoticlistening_ba-ga.mp3	ba	ga	1	right
6.6.1	mac	2023-06-25	14:58:07	15:19:07	1257466	63db1ccde6434330f2a99d87	2	1	practice_slash	26	practice_slash	17	stimuli_distractor_diamondtriangles.svg	stimuli_target_rectangletriangles.svg	7	yes	53	1	868	6	6	antiphase_hc_ois.wav	3	6	6	noise_calib_stim_RIGHT.wav	2	3	blb_dichoticlistening_ba-ga.mp3	ba	ga	1	right
6.6.1	mac	2023-06-25	14:58:07	15:19:07	1257466	63db1ccde6434330f2a99d87	2	1	practice_slash	26	advance_on_keypress_SLASH	18	stimuli_distractor_diamondtriangles.svg	stimuli_target_rectangletriangles.svg	7	yes	57	0	107	6	6	antiphase_hc_ois.wav	3	6	6	noise_calib_stim_RIGHT.wav	2	3	blb_dichoticlistening_ba-ga.mp3	ba	ga	1	right
