build	computer.platform	date	time	timestamp	time_elapsed_ms	subject	group	session	blockcode	blocknum	trialcode	trialnum	stimulus_left	stimulus_right	stim_index	target_present	response	correct	latency	headphonecheck_countTestTrials	headphonecheck_index	headphonecheck_testSound	headphonecheck_correctResponse	stereocheck_countTestTrials	stereocheck_index	stereocheck_testSound	stereocheck_correctResponse	DL_index	DL_soundfile	DL_leftSound	DL_rightSound	DL_dualSound	DL_choice
6.6.1	win	2023-06-27	12:33:03	0	0	5f77480675b83a250b3e8c36	2	1	headphonecheck_calibration	4	headphonecheck_calibrationIntro	1			0		calibrationButton	0	2741	0	0			0	0			1				0	
6.6.1	win	2023-06-27	12:33:03	0	0	5f77480675b83a250b3e8c36	2	1	headphonecheck_testphase	5	test_collectResponse	3			0		first	1	1951	1	3	antiphase_hc_soi.wav	1	0	0			1				0	
6.6.1	win	2023-06-27	12:33:03	0	0	5f77480675b83a250b3e8c36	2	1	headphonecheck_testphase	5	test_collectResponse	6			0		second	1	1077	2	1	antiphase_hc_iso.wav	2	0	0			1				0	
6.6.1	win	2023-06-27	12:33:03	0	0	5f77480675b83a250b3e8c36	2	1	headphonecheck_testphase	5	test_collectResponse	9			0		first	1	1246	3	4	antiphase_hc_sio.wav	1	0	0			1				0	
6.6.1	win	2023-06-27	12:33:03	0	0	5f77480675b83a250b3e8c36	2	1	headphonecheck_testphase	5	test_collectResponse	12			0		third	1	97	4	6	antiphase_hc_ois.wav	3	0	0			1				0	
6.6.1	win	2023-06-27	12:33:03	0	0	5f77480675b83a250b3e8c36	2	1	headphonecheck_testphase	5	test_collectResponse	15			0		third	1	1817	5	2	antiphase_hc_ios.wav	3	0	0			1				0	
6.6.1	win	2023-06-27	12:33:03	0	0	5f77480675b83a250b3e8c36	2	1	headphonecheck_testphase	5	test_collectResponse	18			0		second	1	2668	6	5	antiphase_hc_osi.wav	2	0	0			1				0	
6.6.1	win	2023-06-27	12:33:03	0	0	5f77480675b83a250b3e8c36	2	1	stereocheck_calibration	7	stereocheck_calibrationIntro	1			0		stereocheck_calibrationButton	0	3266	6	5	antiphase_hc_osi.wav	2	0	0			1				0	
6.6.1	win	2023-06-27	12:33:03	0	0	5f77480675b83a250b3e8c36	2	1	stereocheck_testphase	8	stereocheck_test_collectResponse	3			0		stereocheck_left	1	558	6	5	antiphase_hc_osi.wav	2	1	3	noise_calib_stim_LEFT.wav	1	1				0	
6.6.1	win	2023-06-27	12:33:03	0	0	5f77480675b83a250b3e8c36	2	1	stereocheck_testphase	8	stereocheck_test_collectResponse	6			0		stereocheck_right	1	459	6	5	antiphase_hc_osi.wav	2	2	6	noise_calib_stim_RIGHT.wav	2	1				0	
6.6.1	win	2023-06-27	12:33:03	0	0	5f77480675b83a250b3e8c36	2	1	stereocheck_testphase	8	stereocheck_test_collectResponse	9			0		stereocheck_left	1	498	6	5	antiphase_hc_osi.wav	2	3	1	noise_calib_stim_LEFT.wav	1	1				0	
6.6.1	win	2023-06-27	12:33:03	0	0	5f77480675b83a250b3e8c36	2	1	stereocheck_testphase	8	stereocheck_test_collectResponse	12			0		stereocheck_right	1	1346	6	5	antiphase_hc_osi.wav	2	4	5	noise_calib_stim_RIGHT.wav	2	1				0	
6.6.1	win	2023-06-27	12:33:03	0	0	5f77480675b83a250b3e8c36	2	1	stereocheck_testphase	8	stereocheck_test_collectResponse	15			0		stereocheck_left	1	896	6	5	antiphase_hc_osi.wav	2	5	2	noise_calib_stim_LEFT.wav	1	1				0	
6.6.1	win	2023-06-27	12:33:03	0	0	5f77480675b83a250b3e8c36	2	1	stereocheck_testphase	8	stereocheck_test_collectResponse	18			0		stereocheck_right	1	727	6	5	antiphase_hc_osi.wav	2	6	4	noise_calib_stim_RIGHT.wav	2	1				0	
6.6.1	win	2023-06-27	12:33:03	0	0	5f77480675b83a250b3e8c36	2	1	DL_practice	11	DL_practice	2			0		ka	0	2189	6	5	antiphase_hc_osi.wav	2	6	4	noise_calib_stim_RIGHT.wav	2	18	blb_dichoticlistening_ga-ta.mp3	ga	ta	1	other
6.6.1	win	2023-06-27	12:33:03	0	0	5f77480675b83a250b3e8c36	2	1	DL_practice	11	DL_practice	3			0		ba	1	2259	6	5	antiphase_hc_osi.wav	2	6	4	noise_calib_stim_RIGHT.wav	2	7	blb_dichoticlistening_da-ba.mp3	da	ba	1	right
6.6.1	win	2023-06-27	12:33:03	0	0	5f77480675b83a250b3e8c36	2	1	DL_practice	11	DL_practice	4			0		da	0	1372	6	5	antiphase_hc_osi.wav	2	6	4	noise_calib_stim_RIGHT.wav	2	15	blb_dichoticlistening_ga-ga.mp3	ga	ga	0	other
6.6.1	win	2023-06-27	12:33:03	0	0	5f77480675b83a250b3e8c36	2	1	DL_practice	11	DL_practice	5			0		ta	1	2127	6	5	antiphase_hc_osi.wav	2	6	4	noise_calib_stim_RIGHT.wav	2	36	blb_dichoticlistening_ta-ta.mp3	ta	ta	0	left
6.6.1	win	2023-06-27	12:33:03	0	0	5f77480675b83a250b3e8c36	2	1	DL_practice	11	DL_practice	6			0		ba	1	2638	6	5	antiphase_hc_osi.wav	2	6	4	noise_calib_stim_RIGHT.wav	2	1	blb_dichoticlistening_ba-ba.mp3	ba	ba	0	left
6.6.1	win	2023-06-27	12:33:03	0	0	5f77480675b83a250b3e8c36	2	1	DL_practice	11	DL_practice	7			0		ka	1	1480	6	5	antiphase_hc_osi.wav	2	6	4	noise_calib_stim_RIGHT.wav	2	22	blb_dichoticlistening_ka-ka.mp3	ka	ka	0	left
6.6.1	win	2023-06-27	12:33:03	0	0	5f77480675b83a250b3e8c36	2	1	DL_practice	11	DL_practice	8			0		da	1	2193	6	5	antiphase_hc_osi.wav	2	6	4	noise_calib_stim_RIGHT.wav	2	8	blb_dichoticlistening_da-da.mp3	da	da	0	left
6.6.1	win	2023-06-27	12:33:03	0	0	5f77480675b83a250b3e8c36	2	1	DL_practice	11	DL_practice	9			0		pa	1	2125	6	5	antiphase_hc_osi.wav	2	6	4	noise_calib_stim_RIGHT.wav	2	23	blb_dichoticlistening_ka-pa.mp3	ka	pa	1	right
6.6.1	win	2023-06-27	12:33:03	0	0	5f77480675b83a250b3e8c36	2	1	DL_practice	11	DL_practice	10			0		pa	1	1204	6	5	antiphase_hc_osi.wav	2	6	4	noise_calib_stim_RIGHT.wav	2	29	blb_dichoticlistening_pa-pa.mp3	pa	pa	0	left
6.6.1	win	2023-06-27	12:33:03	0	0	5f77480675b83a250b3e8c36	2	1	DL_test	13	DL_test	1			0		pa	1	2326	6	5	antiphase_hc_osi.wav	2	6	4	noise_calib_stim_RIGHT.wav	2	25	blb_dichoticlistening_pa-ba.mp3	pa	ba	1	left
6.6.1	win	2023-06-27	12:33:03	0	0	5f77480675b83a250b3e8c36	2	1	DL_test	13	DL_test	2			0		da	0	2133	6	5	antiphase_hc_osi.wav	2	6	4	noise_calib_stim_RIGHT.wav	2	13	blb_dichoticlistening_ga-ba.mp3	ga	ba	1	other
6.6.1	win	2023-06-27	12:33:03	0	0	5f77480675b83a250b3e8c36	2	1	DL_test	13	DL_test	3			0		pa	0	1899	6	5	antiphase_hc_osi.wav	2	6	4	noise_calib_stim_RIGHT.wav	2	31	blb_dichoticlistening_ta-ba.mp3	ta	ba	1	other
6.6.1	win	2023-06-27	12:33:03	0	0	5f77480675b83a250b3e8c36	2	1	DL_test	13	DL_test	4			0		ka	1	1331	6	5	antiphase_hc_osi.wav	2	6	4	noise_calib_stim_RIGHT.wav	2	22	blb_dichoticlistening_ka-ka.mp3	ka	ka	0	left
6.6.1	win	2023-06-27	12:33:03	0	0	5f77480675b83a250b3e8c36	2	1	DL_test	13	DL_test	5			0		pa	1	1226	6	5	antiphase_hc_osi.wav	2	6	4	noise_calib_stim_RIGHT.wav	2	5	blb_dichoticlistening_ba-pa.mp3	ba	pa	1	right
6.6.1	win	2023-06-27	12:33:03	0	0	5f77480675b83a250b3e8c36	2	1	DL_test	13	DL_test	6			0		ta	0	1550	6	5	antiphase_hc_osi.wav	2	6	4	noise_calib_stim_RIGHT.wav	2	26	blb_dichoticlistening_pa-da.mp3	pa	da	1	other
6.6.1	win	2023-06-27	12:33:03	0	0	5f77480675b83a250b3e8c36	2	1	DL_test	13	DL_test	7			0		da	1	1756	6	5	antiphase_hc_osi.wav	2	6	4	noise_calib_stim_RIGHT.wav	2	8	blb_dichoticlistening_da-da.mp3	da	da	0	left
6.6.1	win	2023-06-27	12:33:03	0	0	5f77480675b83a250b3e8c36	2	1	DL_test	13	DL_test	8			0		ka	1	1667	6	5	antiphase_hc_osi.wav	2	6	4	noise_calib_stim_RIGHT.wav	2	21	blb_dichoticlistening_ka-ga.mp3	ka	ga	1	left
6.6.1	win	2023-06-27	12:33:03	0	0	5f77480675b83a250b3e8c36	2	1	DL_test	13	DL_test	9			0		ga	0	1324	6	5	antiphase_hc_osi.wav	2	6	4	noise_calib_stim_RIGHT.wav	2	20	blb_dichoticlistening_ka-da.mp3	ka	da	1	other
6.6.1	win	2023-06-27	12:33:03	0	0	5f77480675b83a250b3e8c36	2	1	DL_test	13	DL_test	10			0		ta	1	1571	6	5	antiphase_hc_osi.wav	2	6	4	noise_calib_stim_RIGHT.wav	2	24	blb_dichoticlistening_ka-ta.mp3	ka	ta	1	right
6.6.1	win	2023-06-27	12:33:03	0	0	5f77480675b83a250b3e8c36	2	1	DL_test	13	DL_test	11			0		pa	1	1561	6	5	antiphase_hc_osi.wav	2	6	4	noise_calib_stim_RIGHT.wav	2	29	blb_dichoticlistening_pa-pa.mp3	pa	pa	0	left
6.6.1	win	2023-06-27	12:33:03	0	0	5f77480675b83a250b3e8c36	2	1	DL_test	13	DL_test	12			0		ta	1	1391	6	5	antiphase_hc_osi.wav	2	6	4	noise_calib_stim_RIGHT.wav	2	6	blb_dichoticlistening_ba-ta.mp3	ba	ta	1	right
6.6.1	win	2023-06-27	12:33:03	0	0	5f77480675b83a250b3e8c36	2	1	DL_test	13	DL_test	13			0		da	1	1828	6	5	antiphase_hc_osi.wav	2	6	4	noise_calib_stim_RIGHT.wav	2	14	blb_dichoticlistening_ga-da.mp3	ga	da	1	right
6.6.1	win	2023-06-27	12:33:03	0	0	5f77480675b83a250b3e8c36	2	1	DL_test	13	DL_test	14			0		da	1	1326	6	5	antiphase_hc_osi.wav	2	6	4	noise_calib_stim_RIGHT.wav	2	9	blb_dichoticlistening_da-ga.mp3	da	ga	1	left
6.6.1	win	2023-06-27	12:33:03	0	0	5f77480675b83a250b3e8c36	2	1	DL_test	13	DL_test	15			0		da	0	198	6	5	antiphase_hc_osi.wav	2	6	4	noise_calib_stim_RIGHT.wav	2	23	blb_dichoticlistening_ka-pa.mp3	ka	pa	1	other
6.6.1	win	2023-06-27	12:33:03	0	0	5f77480675b83a250b3e8c36	2	1	DL_test	13	DL_test	16			0		pa	0	3446	6	5	antiphase_hc_osi.wav	2	6	4	noise_calib_stim_RIGHT.wav	2	19	blb_dichoticlistening_ka-ba.mp3	ka	ba	1	other
6.6.1	win	2023-06-27	12:33:03	0	0	5f77480675b83a250b3e8c36	2	1	DL_test	13	DL_test	17			0		ka	1	3119	6	5	antiphase_hc_osi.wav	2	6	4	noise_calib_stim_RIGHT.wav	2	4	blb_dichoticlistening_ba-ka.mp3	ba	ka	1	right
6.6.1	win	2023-06-27	12:33:03	0	0	5f77480675b83a250b3e8c36	2	1	DL_test	13	DL_test	18			0		pa	1	1821	6	5	antiphase_hc_osi.wav	2	6	4	noise_calib_stim_RIGHT.wav	2	11	blb_dichoticlistening_da-pa.mp3	da	pa	1	right
6.6.1	win	2023-06-27	12:33:03	0	0	5f77480675b83a250b3e8c36	2	1	DL_test	13	DL_test	19			0		ta	0	2920	6	5	antiphase_hc_osi.wav	2	6	4	noise_calib_stim_RIGHT.wav	2	27	blb_dichoticlistening_pa-ga.mp3	pa	ga	1	other
6.6.1	win	2023-06-27	12:33:03	0	0	5f77480675b83a250b3e8c36	2	1	DL_test	13	DL_test	20			0		da	0	2325	6	5	antiphase_hc_osi.wav	2	6	4	noise_calib_stim_RIGHT.wav	2	33	blb_dichoticlistening_ta-ga.mp3	ta	ga	1	other
6.6.1	win	2023-06-27	12:33:03	0	0	5f77480675b83a250b3e8c36	2	1	DL_test	13	DL_test	21			0		ka	1	1459	6	5	antiphase_hc_osi.wav	2	6	4	noise_calib_stim_RIGHT.wav	2	16	blb_dichoticlistening_ga-ka.mp3	ga	ka	1	right
6.6.1	win	2023-06-27	12:33:03	0	0	5f77480675b83a250b3e8c36	2	1	DL_test	13	DL_test	22			0		da	0	1678	6	5	antiphase_hc_osi.wav	2	6	4	noise_calib_stim_RIGHT.wav	2	15	blb_dichoticlistening_ga-ga.mp3	ga	ga	0	other
6.6.1	win	2023-06-27	12:33:03	0	0	5f77480675b83a250b3e8c36	2	1	DL_test	13	DL_test	23			0		pa	1	1919	6	5	antiphase_hc_osi.wav	2	6	4	noise_calib_stim_RIGHT.wav	2	28	blb_dichoticlistening_pa-ka.mp3	pa	ka	1	left
6.6.1	win	2023-06-27	12:33:03	0	0	5f77480675b83a250b3e8c36	2	1	DL_test	13	DL_test	24			0		ta	1	1230	6	5	antiphase_hc_osi.wav	2	6	4	noise_calib_stim_RIGHT.wav	2	36	blb_dichoticlistening_ta-ta.mp3	ta	ta	0	left
6.6.1	win	2023-06-27	12:33:03	0	0	5f77480675b83a250b3e8c36	2	1	DL_test	13	DL_test	25			0		ka	0	1298	6	5	antiphase_hc_osi.wav	2	6	4	noise_calib_stim_RIGHT.wav	2	12	blb_dichoticlistening_da-ta.mp3	da	ta	1	other
6.6.1	win	2023-06-27	12:33:03	0	0	5f77480675b83a250b3e8c36	2	1	DL_test	13	DL_test	26			0		da	1	1281	6	5	antiphase_hc_osi.wav	2	6	4	noise_calib_stim_RIGHT.wav	2	2	blb_dichoticlistening_ba-da.mp3	ba	da	1	right
6.6.1	win	2023-06-27	12:33:03	0	0	5f77480675b83a250b3e8c36	2	1	DL_test	13	DL_test	27			0		ta	1	2160	6	5	antiphase_hc_osi.wav	2	6	4	noise_calib_stim_RIGHT.wav	2	32	blb_dichoticlistening_ta-da.mp3	ta	da	1	left
6.6.1	win	2023-06-27	12:33:03	0	0	5f77480675b83a250b3e8c36	2	1	DL_test	13	DL_test	28			0		ta	1	1422	6	5	antiphase_hc_osi.wav	2	6	4	noise_calib_stim_RIGHT.wav	2	30	blb_dichoticlistening_pa-ta.mp3	pa	ta	1	right
6.6.1	win	2023-06-27	12:33:03	0	0	5f77480675b83a250b3e8c36	2	1	DL_test	13	DL_test	29			0		da	1	1553	6	5	antiphase_hc_osi.wav	2	6	4	noise_calib_stim_RIGHT.wav	2	7	blb_dichoticlistening_da-ba.mp3	da	ba	1	left
6.6.1	win	2023-06-27	12:33:03	0	0	5f77480675b83a250b3e8c36	2	1	DL_test	13	DL_test	30			0		pa	0	1383	6	5	antiphase_hc_osi.wav	2	6	4	noise_calib_stim_RIGHT.wav	2	10	blb_dichoticlistening_da-ka.mp3	da	ka	1	other
6.6.1	win	2023-06-27	12:33:03	0	0	5f77480675b83a250b3e8c36	2	1	DL_test	13	DL_test	31			0		ga	1	1395	6	5	antiphase_hc_osi.wav	2	6	4	noise_calib_stim_RIGHT.wav	2	3	blb_dichoticlistening_ba-ga.mp3	ba	ga	1	right
6.6.1	win	2023-06-27	12:33:03	0	0	5f77480675b83a250b3e8c36	2	1	DL_test	13	DL_test	32			0		pa	1	1520	6	5	antiphase_hc_osi.wav	2	6	4	noise_calib_stim_RIGHT.wav	2	17	blb_dichoticlistening_ga-pa.mp3	ga	pa	1	right
6.6.1	win	2023-06-27	12:33:03	0	0	5f77480675b83a250b3e8c36	2	1	DL_test	13	DL_test	33			0		ka	1	1326	6	5	antiphase_hc_osi.wav	2	6	4	noise_calib_stim_RIGHT.wav	2	34	blb_dichoticlistening_ta-ka.mp3	ta	ka	1	right
6.6.1	win	2023-06-27	12:33:03	0	0	5f77480675b83a250b3e8c36	2	1	DL_test	13	DL_test	34			0		ba	1	1037	6	5	antiphase_hc_osi.wav	2	6	4	noise_calib_stim_RIGHT.wav	2	1	blb_dichoticlistening_ba-ba.mp3	ba	ba	0	left
6.6.1	win	2023-06-27	12:33:03	0	0	5f77480675b83a250b3e8c36	2	1	DL_test	13	DL_test	35			0		ta	1	1385	6	5	antiphase_hc_osi.wav	2	6	4	noise_calib_stim_RIGHT.wav	2	18	blb_dichoticlistening_ga-ta.mp3	ga	ta	1	right
6.6.1	win	2023-06-27	12:33:03	0	0	5f77480675b83a250b3e8c36	2	1	DL_test	13	DL_test	36			0		pa	1	1317	6	5	antiphase_hc_osi.wav	2	6	4	noise_calib_stim_RIGHT.wav	2	35	blb_dichoticlistening_ta-pa.mp3	ta	pa	1	right
6.6.1	win	2023-06-27	12:33:03	0	0	5f77480675b83a250b3e8c36	2	1	DL_test	14	DL_test	1			0		ka	1	1298	6	5	antiphase_hc_osi.wav	2	6	4	noise_calib_stim_RIGHT.wav	2	16	blb_dichoticlistening_ga-ka.mp3	ga	ka	1	right
6.6.1	win	2023-06-27	12:33:03	0	0	5f77480675b83a250b3e8c36	2	1	DL_test	14	DL_test	2			0		da	1	1435	6	5	antiphase_hc_osi.wav	2	6	4	noise_calib_stim_RIGHT.wav	2	7	blb_dichoticlistening_da-ba.mp3	da	ba	1	left
6.6.1	win	2023-06-27	12:33:03	0	0	5f77480675b83a250b3e8c36	2	1	DL_test	14	DL_test	3			0		ta	0	2260	6	5	antiphase_hc_osi.wav	2	6	4	noise_calib_stim_RIGHT.wav	2	27	blb_dichoticlistening_pa-ga.mp3	pa	ga	1	other
6.6.1	win	2023-06-27	12:33:03	0	0	5f77480675b83a250b3e8c36	2	1	DL_test	14	DL_test	4			0		ka	1	1964	6	5	antiphase_hc_osi.wav	2	6	4	noise_calib_stim_RIGHT.wav	2	24	blb_dichoticlistening_ka-ta.mp3	ka	ta	1	left
6.6.1	win	2023-06-27	12:33:03	0	0	5f77480675b83a250b3e8c36	2	1	DL_test	14	DL_test	5			0		da	0	1834	6	5	antiphase_hc_osi.wav	2	6	4	noise_calib_stim_RIGHT.wav	2	3	blb_dichoticlistening_ba-ga.mp3	ba	ga	1	other
6.6.1	win	2023-06-27	12:33:03	0	0	5f77480675b83a250b3e8c36	2	1	DL_test	14	DL_test	6			0		pa	1	2003	6	5	antiphase_hc_osi.wav	2	6	4	noise_calib_stim_RIGHT.wav	2	35	blb_dichoticlistening_ta-pa.mp3	ta	pa	1	right
6.6.1	win	2023-06-27	12:33:03	0	0	5f77480675b83a250b3e8c36	2	1	DL_test	14	DL_test	7			0		ba	1	2047	6	5	antiphase_hc_osi.wav	2	6	4	noise_calib_stim_RIGHT.wav	2	1	blb_dichoticlistening_ba-ba.mp3	ba	ba	0	left
6.6.1	win	2023-06-27	12:33:03	0	0	5f77480675b83a250b3e8c36	2	1	DL_test	14	DL_test	8			0		ta	1	1441	6	5	antiphase_hc_osi.wav	2	6	4	noise_calib_stim_RIGHT.wav	2	18	blb_dichoticlistening_ga-ta.mp3	ga	ta	1	right
6.6.1	win	2023-06-27	12:33:03	0	0	5f77480675b83a250b3e8c36	2	1	DL_test	14	DL_test	9			0		pa	1	1708	6	5	antiphase_hc_osi.wav	2	6	4	noise_calib_stim_RIGHT.wav	2	23	blb_dichoticlistening_ka-pa.mp3	ka	pa	1	right
6.6.1	win	2023-06-27	12:33:03	0	0	5f77480675b83a250b3e8c36	2	1	DL_test	14	DL_test	10			0		ka	1	1363	6	5	antiphase_hc_osi.wav	2	6	4	noise_calib_stim_RIGHT.wav	2	34	blb_dichoticlistening_ta-ka.mp3	ta	ka	1	right
6.6.1	win	2023-06-27	12:33:03	0	0	5f77480675b83a250b3e8c36	2	1	DL_test	14	DL_test	11			0		ka	1	1161	6	5	antiphase_hc_osi.wav	2	6	4	noise_calib_stim_RIGHT.wav	2	22	blb_dichoticlistening_ka-ka.mp3	ka	ka	0	left
6.6.1	win	2023-06-27	12:33:03	0	0	5f77480675b83a250b3e8c36	2	1	DL_test	14	DL_test	12			0		ta	1	1767	6	5	antiphase_hc_osi.wav	2	6	4	noise_calib_stim_RIGHT.wav	2	12	blb_dichoticlistening_da-ta.mp3	da	ta	1	right
6.6.1	win	2023-06-27	12:33:03	0	0	5f77480675b83a250b3e8c36	2	1	DL_test	14	DL_test	13			0		da	1	1805	6	5	antiphase_hc_osi.wav	2	6	4	noise_calib_stim_RIGHT.wav	2	9	blb_dichoticlistening_da-ga.mp3	da	ga	1	left
6.6.1	win	2023-06-27	12:33:03	0	0	5f77480675b83a250b3e8c36	2	1	DL_test	14	DL_test	14			0		pa	1	1689	6	5	antiphase_hc_osi.wav	2	6	4	noise_calib_stim_RIGHT.wav	2	11	blb_dichoticlistening_da-pa.mp3	da	pa	1	right
6.6.1	win	2023-06-27	12:33:03	0	0	5f77480675b83a250b3e8c36	2	1	DL_test	14	DL_test	15			0		ba	1	2057	6	5	antiphase_hc_osi.wav	2	6	4	noise_calib_stim_RIGHT.wav	2	13	blb_dichoticlistening_ga-ba.mp3	ga	ba	1	right
6.6.1	win	2023-06-27	12:33:03	0	0	5f77480675b83a250b3e8c36	2	1	DL_test	14	DL_test	16			0		pa	1	2187	6	5	antiphase_hc_osi.wav	2	6	4	noise_calib_stim_RIGHT.wav	2	5	blb_dichoticlistening_ba-pa.mp3	ba	pa	1	right
6.6.1	win	2023-06-27	12:33:03	0	0	5f77480675b83a250b3e8c36	2	1	DL_test	14	DL_test	17			0		da	1	1919	6	5	antiphase_hc_osi.wav	2	6	4	noise_calib_stim_RIGHT.wav	2	8	blb_dichoticlistening_da-da.mp3	da	da	0	left
6.6.1	win	2023-06-27	12:33:03	0	0	5f77480675b83a250b3e8c36	2	1	DL_test	14	DL_test	18			0		ta	1	2271	6	5	antiphase_hc_osi.wav	2	6	4	noise_calib_stim_RIGHT.wav	2	33	blb_dichoticlistening_ta-ga.mp3	ta	ga	1	left
6.6.1	win	2023-06-27	12:33:03	0	0	5f77480675b83a250b3e8c36	2	1	DL_test	14	DL_test	19			0		ta	0	1206	6	5	antiphase_hc_osi.wav	2	6	4	noise_calib_stim_RIGHT.wav	2	19	blb_dichoticlistening_ka-ba.mp3	ka	ba	1	other
6.6.1	win	2023-06-27	12:33:03	0	0	5f77480675b83a250b3e8c36	2	1	DL_test	14	DL_test	20			0		ta	1	2451	6	5	antiphase_hc_osi.wav	2	6	4	noise_calib_stim_RIGHT.wav	2	36	blb_dichoticlistening_ta-ta.mp3	ta	ta	0	left
6.6.1	win	2023-06-27	12:33:03	0	0	5f77480675b83a250b3e8c36	2	1	DL_test	14	DL_test	21			0		ka	1	3421	6	5	antiphase_hc_osi.wav	2	6	4	noise_calib_stim_RIGHT.wav	2	21	blb_dichoticlistening_ka-ga.mp3	ka	ga	1	left
6.6.1	win	2023-06-27	12:33:03	0	0	5f77480675b83a250b3e8c36	2	1	DL_test	14	DL_test	22			0		pa	1	1662	6	5	antiphase_hc_osi.wav	2	6	4	noise_calib_stim_RIGHT.wav	2	17	blb_dichoticlistening_ga-pa.mp3	ga	pa	1	right
6.6.1	win	2023-06-27	12:33:03	0	0	5f77480675b83a250b3e8c36	2	1	DL_test	14	DL_test	23			0		ka	1	3953	6	5	antiphase_hc_osi.wav	2	6	4	noise_calib_stim_RIGHT.wav	2	4	blb_dichoticlistening_ba-ka.mp3	ba	ka	1	right
6.6.1	win	2023-06-27	12:33:03	0	0	5f77480675b83a250b3e8c36	2	1	DL_test	14	DL_test	24			0		da	1	1820	6	5	antiphase_hc_osi.wav	2	6	4	noise_calib_stim_RIGHT.wav	2	2	blb_dichoticlistening_ba-da.mp3	ba	da	1	right
6.6.1	win	2023-06-27	12:33:03	0	0	5f77480675b83a250b3e8c36	2	1	DL_test	14	DL_test	25			0		ta	1	3192	6	5	antiphase_hc_osi.wav	2	6	4	noise_calib_stim_RIGHT.wav	2	30	blb_dichoticlistening_pa-ta.mp3	pa	ta	1	right
6.6.1	win	2023-06-27	12:33:03	0	0	5f77480675b83a250b3e8c36	2	1	DL_test	14	DL_test	26			0		pa	1	1427	6	5	antiphase_hc_osi.wav	2	6	4	noise_calib_stim_RIGHT.wav	2	25	blb_dichoticlistening_pa-ba.mp3	pa	ba	1	left
6.6.1	win	2023-06-27	12:33:03	0	0	5f77480675b83a250b3e8c36	2	1	DL_test	14	DL_test	27			0		pa	0	1126	6	5	antiphase_hc_osi.wav	2	6	4	noise_calib_stim_RIGHT.wav	2	10	blb_dichoticlistening_da-ka.mp3	da	ka	1	other
6.6.1	win	2023-06-27	12:33:03	0	0	5f77480675b83a250b3e8c36	2	1	DL_test	14	DL_test	28			0		ga	0	2038	6	5	antiphase_hc_osi.wav	2	6	4	noise_calib_stim_RIGHT.wav	2	6	blb_dichoticlistening_ba-ta.mp3	ba	ta	1	other
6.6.1	win	2023-06-27	12:33:03	0	0	5f77480675b83a250b3e8c36	2	1	DL_test	14	DL_test	29			0		ga	0	1304	6	5	antiphase_hc_osi.wav	2	6	4	noise_calib_stim_RIGHT.wav	2	20	blb_dichoticlistening_ka-da.mp3	ka	da	1	other
6.6.1	win	2023-06-27	12:33:03	0	0	5f77480675b83a250b3e8c36	2	1	DL_test	14	DL_test	30			0		da	1	1880	6	5	antiphase_hc_osi.wav	2	6	4	noise_calib_stim_RIGHT.wav	2	32	blb_dichoticlistening_ta-da.mp3	ta	da	1	right
6.6.1	win	2023-06-27	12:33:03	0	0	5f77480675b83a250b3e8c36	2	1	DL_test	14	DL_test	31			0		ka	1	2690	6	5	antiphase_hc_osi.wav	2	6	4	noise_calib_stim_RIGHT.wav	2	28	blb_dichoticlistening_pa-ka.mp3	pa	ka	1	right
6.6.1	win	2023-06-27	12:33:03	0	0	5f77480675b83a250b3e8c36	2	1	DL_test	14	DL_test	32			0		pa	1	1641	6	5	antiphase_hc_osi.wav	2	6	4	noise_calib_stim_RIGHT.wav	2	29	blb_dichoticlistening_pa-pa.mp3	pa	pa	0	left
6.6.1	win	2023-06-27	12:33:03	0	0	5f77480675b83a250b3e8c36	2	1	DL_test	14	DL_test	33			0		ka	0	2861	6	5	antiphase_hc_osi.wav	2	6	4	noise_calib_stim_RIGHT.wav	2	31	blb_dichoticlistening_ta-ba.mp3	ta	ba	1	other
6.6.1	win	2023-06-27	12:33:03	0	0	5f77480675b83a250b3e8c36	2	1	DL_test	14	DL_test	34			0		da	0	1813	6	5	antiphase_hc_osi.wav	2	6	4	noise_calib_stim_RIGHT.wav	2	15	blb_dichoticlistening_ga-ga.mp3	ga	ga	0	other
6.6.1	win	2023-06-27	12:33:03	0	0	5f77480675b83a250b3e8c36	2	1	DL_test	14	DL_test	35			0		pa	1	2264	6	5	antiphase_hc_osi.wav	2	6	4	noise_calib_stim_RIGHT.wav	2	26	blb_dichoticlistening_pa-da.mp3	pa	da	1	left
6.6.1	win	2023-06-27	12:33:03	0	0	5f77480675b83a250b3e8c36	2	1	DL_test	14	DL_test	36			0		da	1	3386	6	5	antiphase_hc_osi.wav	2	6	4	noise_calib_stim_RIGHT.wav	2	14	blb_dichoticlistening_ga-da.mp3	ga	da	1	right
6.6.1	win	2023-06-27	12:33:03	0	0	5f77480675b83a250b3e8c36	2	1	DL_test	15	DL_test	1			0		pa	0	1661	6	5	antiphase_hc_osi.wav	2	6	4	noise_calib_stim_RIGHT.wav	2	31	blb_dichoticlistening_ta-ba.mp3	ta	ba	1	other
6.6.1	win	2023-06-27	12:33:03	0	0	5f77480675b83a250b3e8c36	2	1	DL_test	15	DL_test	2			0		ka	1	1749	6	5	antiphase_hc_osi.wav	2	6	4	noise_calib_stim_RIGHT.wav	2	22	blb_dichoticlistening_ka-ka.mp3	ka	ka	0	left
6.6.1	win	2023-06-27	12:33:03	0	0	5f77480675b83a250b3e8c36	2	1	DL_test	15	DL_test	3			0		ta	1	2315	6	5	antiphase_hc_osi.wav	2	6	4	noise_calib_stim_RIGHT.wav	2	33	blb_dichoticlistening_ta-ga.mp3	ta	ga	1	left
6.6.1	win	2023-06-27	12:33:03	0	0	5f77480675b83a250b3e8c36	2	1	DL_test	15	DL_test	4			0		ta	1	1699	6	5	antiphase_hc_osi.wav	2	6	4	noise_calib_stim_RIGHT.wav	2	6	blb_dichoticlistening_ba-ta.mp3	ba	ta	1	right
6.6.1	win	2023-06-27	12:33:03	0	0	5f77480675b83a250b3e8c36	2	1	DL_test	15	DL_test	5			0		da	0	1740	6	5	antiphase_hc_osi.wav	2	6	4	noise_calib_stim_RIGHT.wav	2	3	blb_dichoticlistening_ba-ga.mp3	ba	ga	1	other
6.6.1	win	2023-06-27	12:33:03	0	0	5f77480675b83a250b3e8c36	2	1	DL_test	15	DL_test	6			0		pa	1	2274	6	5	antiphase_hc_osi.wav	2	6	4	noise_calib_stim_RIGHT.wav	2	5	blb_dichoticlistening_ba-pa.mp3	ba	pa	1	right
6.6.1	win	2023-06-27	12:33:03	0	0	5f77480675b83a250b3e8c36	2	1	DL_test	15	DL_test	7			0		da	0	2186	6	5	antiphase_hc_osi.wav	2	6	4	noise_calib_stim_RIGHT.wav	2	15	blb_dichoticlistening_ga-ga.mp3	ga	ga	0	other
6.6.1	win	2023-06-27	12:33:03	0	0	5f77480675b83a250b3e8c36	2	1	DL_test	15	DL_test	8			0		da	1	1374	6	5	antiphase_hc_osi.wav	2	6	4	noise_calib_stim_RIGHT.wav	2	8	blb_dichoticlistening_da-da.mp3	da	da	0	left
6.6.1	win	2023-06-27	12:33:03	0	0	5f77480675b83a250b3e8c36	2	1	DL_test	15	DL_test	9			0		pa	1	2019	6	5	antiphase_hc_osi.wav	2	6	4	noise_calib_stim_RIGHT.wav	2	17	blb_dichoticlistening_ga-pa.mp3	ga	pa	1	right
6.6.1	win	2023-06-27	12:33:03	0	0	5f77480675b83a250b3e8c36	2	1	DL_test	15	DL_test	10			0		ta	1	1390	6	5	antiphase_hc_osi.wav	2	6	4	noise_calib_stim_RIGHT.wav	2	36	blb_dichoticlistening_ta-ta.mp3	ta	ta	0	left
6.6.1	win	2023-06-27	12:33:03	0	0	5f77480675b83a250b3e8c36	2	1	DL_test	15	DL_test	11			0		ga	1	1547	6	5	antiphase_hc_osi.wav	2	6	4	noise_calib_stim_RIGHT.wav	2	27	blb_dichoticlistening_pa-ga.mp3	pa	ga	1	right
6.6.1	win	2023-06-27	12:33:03	0	0	5f77480675b83a250b3e8c36	2	1	DL_test	15	DL_test	12			0		ba	1	2490	6	5	antiphase_hc_osi.wav	2	6	4	noise_calib_stim_RIGHT.wav	2	13	blb_dichoticlistening_ga-ba.mp3	ga	ba	1	right
6.6.1	win	2023-06-27	12:33:03	0	0	5f77480675b83a250b3e8c36	2	1	DL_test	15	DL_test	13			0		da	1	1634	6	5	antiphase_hc_osi.wav	2	6	4	noise_calib_stim_RIGHT.wav	2	7	blb_dichoticlistening_da-ba.mp3	da	ba	1	left
6.6.1	win	2023-06-27	12:33:03	0	0	5f77480675b83a250b3e8c36	2	1	DL_test	15	DL_test	14			0		pa	1	1596	6	5	antiphase_hc_osi.wav	2	6	4	noise_calib_stim_RIGHT.wav	2	35	blb_dichoticlistening_ta-pa.mp3	ta	pa	1	right
6.6.1	win	2023-06-27	12:33:03	0	0	5f77480675b83a250b3e8c36	2	1	DL_test	15	DL_test	15			0		ta	0	1393	6	5	antiphase_hc_osi.wav	2	6	4	noise_calib_stim_RIGHT.wav	2	11	blb_dichoticlistening_da-pa.mp3	da	pa	1	other
6.6.1	win	2023-06-27	12:33:03	0	0	5f77480675b83a250b3e8c36	2	1	DL_test	15	DL_test	16			0		ta	0	1069	6	5	antiphase_hc_osi.wav	2	6	4	noise_calib_stim_RIGHT.wav	2	26	blb_dichoticlistening_pa-da.mp3	pa	da	1	other
6.6.1	win	2023-06-27	12:33:03	0	0	5f77480675b83a250b3e8c36	2	1	DL_test	15	DL_test	17			0		ka	1	1232	6	5	antiphase_hc_osi.wav	2	6	4	noise_calib_stim_RIGHT.wav	2	34	blb_dichoticlistening_ta-ka.mp3	ta	ka	1	right
6.6.1	win	2023-06-27	12:33:03	0	0	5f77480675b83a250b3e8c36	2	1	DL_test	15	DL_test	18			0		ba	1	1971	6	5	antiphase_hc_osi.wav	2	6	4	noise_calib_stim_RIGHT.wav	2	1	blb_dichoticlistening_ba-ba.mp3	ba	ba	0	left
6.6.1	win	2023-06-27	12:33:03	0	0	5f77480675b83a250b3e8c36	2	1	DL_test	15	DL_test	19			0		da	1	1336	6	5	antiphase_hc_osi.wav	2	6	4	noise_calib_stim_RIGHT.wav	2	2	blb_dichoticlistening_ba-da.mp3	ba	da	1	right
6.6.1	win	2023-06-27	12:33:03	0	0	5f77480675b83a250b3e8c36	2	1	DL_test	15	DL_test	20			0		pa	1	1535	6	5	antiphase_hc_osi.wav	2	6	4	noise_calib_stim_RIGHT.wav	2	28	blb_dichoticlistening_pa-ka.mp3	pa	ka	1	left
6.6.1	win	2023-06-27	12:33:03	0	0	5f77480675b83a250b3e8c36	2	1	DL_test	15	DL_test	21			0		ta	0	1910	6	5	antiphase_hc_osi.wav	2	6	4	noise_calib_stim_RIGHT.wav	2	20	blb_dichoticlistening_ka-da.mp3	ka	da	1	other
6.6.1	win	2023-06-27	12:33:03	0	0	5f77480675b83a250b3e8c36	2	1	DL_test	15	DL_test	22			0		ka	1	1221	6	5	antiphase_hc_osi.wav	2	6	4	noise_calib_stim_RIGHT.wav	2	4	blb_dichoticlistening_ba-ka.mp3	ba	ka	1	right
6.6.1	win	2023-06-27	12:33:03	0	0	5f77480675b83a250b3e8c36	2	1	DL_test	15	DL_test	23			0		ta	1	1666	6	5	antiphase_hc_osi.wav	2	6	4	noise_calib_stim_RIGHT.wav	2	18	blb_dichoticlistening_ga-ta.mp3	ga	ta	1	right
6.6.1	win	2023-06-27	12:33:03	0	0	5f77480675b83a250b3e8c36	2	1	DL_test	15	DL_test	24			0		ta	1	1115	6	5	antiphase_hc_osi.wav	2	6	4	noise_calib_stim_RIGHT.wav	2	24	blb_dichoticlistening_ka-ta.mp3	ka	ta	1	right
6.6.1	win	2023-06-27	12:33:03	0	0	5f77480675b83a250b3e8c36	2	1	DL_test	15	DL_test	25			0		da	1	1691	6	5	antiphase_hc_osi.wav	2	6	4	noise_calib_stim_RIGHT.wav	2	32	blb_dichoticlistening_ta-da.mp3	ta	da	1	right
6.6.1	win	2023-06-27	12:33:03	0	0	5f77480675b83a250b3e8c36	2	1	DL_test	15	DL_test	26			0		ka	1	2141	6	5	antiphase_hc_osi.wav	2	6	4	noise_calib_stim_RIGHT.wav	2	19	blb_dichoticlistening_ka-ba.mp3	ka	ba	1	left
6.6.1	win	2023-06-27	12:33:03	0	0	5f77480675b83a250b3e8c36	2	1	DL_test	15	DL_test	27			0		pa	1	1130	6	5	antiphase_hc_osi.wav	2	6	4	noise_calib_stim_RIGHT.wav	2	23	blb_dichoticlistening_ka-pa.mp3	ka	pa	1	right
6.6.1	win	2023-06-27	12:33:03	0	0	5f77480675b83a250b3e8c36	2	1	DL_test	15	DL_test	28			0		ta	1	1050	6	5	antiphase_hc_osi.wav	2	6	4	noise_calib_stim_RIGHT.wav	2	12	blb_dichoticlistening_da-ta.mp3	da	ta	1	right
6.6.1	win	2023-06-27	12:33:03	0	0	5f77480675b83a250b3e8c36	2	1	DL_test	15	DL_test	29			0		ta	1	1422	6	5	antiphase_hc_osi.wav	2	6	4	noise_calib_stim_RIGHT.wav	2	30	blb_dichoticlistening_pa-ta.mp3	pa	ta	1	right
6.6.1	win	2023-06-27	12:33:03	0	0	5f77480675b83a250b3e8c36	2	1	DL_test	15	DL_test	30			0		ka	1	1081	6	5	antiphase_hc_osi.wav	2	6	4	noise_calib_stim_RIGHT.wav	2	16	blb_dichoticlistening_ga-ka.mp3	ga	ka	1	right
6.6.1	win	2023-06-27	12:33:03	0	0	5f77480675b83a250b3e8c36	2	1	DL_test	15	DL_test	31			0		pa	1	1275	6	5	antiphase_hc_osi.wav	2	6	4	noise_calib_stim_RIGHT.wav	2	25	blb_dichoticlistening_pa-ba.mp3	pa	ba	1	left
6.6.1	win	2023-06-27	12:33:03	0	0	5f77480675b83a250b3e8c36	2	1	DL_test	15	DL_test	32			0		ka	1	2300	6	5	antiphase_hc_osi.wav	2	6	4	noise_calib_stim_RIGHT.wav	2	21	blb_dichoticlistening_ka-ga.mp3	ka	ga	1	left
6.6.1	win	2023-06-27	12:33:03	0	0	5f77480675b83a250b3e8c36	2	1	DL_test	15	DL_test	33			0		da	1	1629	6	5	antiphase_hc_osi.wav	2	6	4	noise_calib_stim_RIGHT.wav	2	14	blb_dichoticlistening_ga-da.mp3	ga	da	1	right
6.6.1	win	2023-06-27	12:33:03	0	0	5f77480675b83a250b3e8c36	2	1	DL_test	15	DL_test	34			0		pa	0	1464	6	5	antiphase_hc_osi.wav	2	6	4	noise_calib_stim_RIGHT.wav	2	10	blb_dichoticlistening_da-ka.mp3	da	ka	1	other
6.6.1	win	2023-06-27	12:33:03	0	0	5f77480675b83a250b3e8c36	2	1	DL_test	15	DL_test	35			0		pa	1	1138	6	5	antiphase_hc_osi.wav	2	6	4	noise_calib_stim_RIGHT.wav	2	29	blb_dichoticlistening_pa-pa.mp3	pa	pa	0	left
6.6.1	win	2023-06-27	12:33:03	0	0	5f77480675b83a250b3e8c36	2	1	DL_test	15	DL_test	36			0		da	1	1873	6	5	antiphase_hc_osi.wav	2	6	4	noise_calib_stim_RIGHT.wav	2	9	blb_dichoticlistening_da-ga.mp3	da	ga	1	left
6.6.1	win	2023-06-27	12:33:03	0	0	5f77480675b83a250b3e8c36	2	1	DL_test	16	DL_test	1			0		da	1	1115	6	5	antiphase_hc_osi.wav	2	6	4	noise_calib_stim_RIGHT.wav	2	14	blb_dichoticlistening_ga-da.mp3	ga	da	1	right
6.6.1	win	2023-06-27	12:33:03	0	0	5f77480675b83a250b3e8c36	2	1	DL_test	16	DL_test	2			0		ka	1	1555	6	5	antiphase_hc_osi.wav	2	6	4	noise_calib_stim_RIGHT.wav	2	21	blb_dichoticlistening_ka-ga.mp3	ka	ga	1	left
6.6.1	win	2023-06-27	12:33:03	0	0	5f77480675b83a250b3e8c36	2	1	DL_test	16	DL_test	3			0		ta	1	1778	6	5	antiphase_hc_osi.wav	2	6	4	noise_calib_stim_RIGHT.wav	2	30	blb_dichoticlistening_pa-ta.mp3	pa	ta	1	right
6.6.1	win	2023-06-27	12:33:03	0	0	5f77480675b83a250b3e8c36	2	1	DL_test	16	DL_test	4			0		ta	1	1238	6	5	antiphase_hc_osi.wav	2	6	4	noise_calib_stim_RIGHT.wav	2	36	blb_dichoticlistening_ta-ta.mp3	ta	ta	0	left
6.6.1	win	2023-06-27	12:33:03	0	0	5f77480675b83a250b3e8c36	2	1	DL_test	16	DL_test	5			0		pa	1	1193	6	5	antiphase_hc_osi.wav	2	6	4	noise_calib_stim_RIGHT.wav	2	29	blb_dichoticlistening_pa-pa.mp3	pa	pa	0	left
6.6.1	win	2023-06-27	12:33:03	0	0	5f77480675b83a250b3e8c36	2	1	DL_test	16	DL_test	6			0		ka	1	1047	6	5	antiphase_hc_osi.wav	2	6	4	noise_calib_stim_RIGHT.wav	2	28	blb_dichoticlistening_pa-ka.mp3	pa	ka	1	right
6.6.1	win	2023-06-27	12:33:03	0	0	5f77480675b83a250b3e8c36	2	1	DL_test	16	DL_test	7			0		da	0	1386	6	5	antiphase_hc_osi.wav	2	6	4	noise_calib_stim_RIGHT.wav	2	15	blb_dichoticlistening_ga-ga.mp3	ga	ga	0	other
6.6.1	win	2023-06-27	12:33:03	0	0	5f77480675b83a250b3e8c36	2	1	DL_test	16	DL_test	8			0		ka	1	1814	6	5	antiphase_hc_osi.wav	2	6	4	noise_calib_stim_RIGHT.wav	2	24	blb_dichoticlistening_ka-ta.mp3	ka	ta	1	left
6.6.1	win	2023-06-27	12:33:03	0	0	5f77480675b83a250b3e8c36	2	1	DL_test	16	DL_test	9			0		ta	0	1731	6	5	antiphase_hc_osi.wav	2	6	4	noise_calib_stim_RIGHT.wav	2	27	blb_dichoticlistening_pa-ga.mp3	pa	ga	1	other
6.6.1	win	2023-06-27	12:33:03	0	0	5f77480675b83a250b3e8c36	2	1	DL_test	16	DL_test	10			0		ka	1	1578	6	5	antiphase_hc_osi.wav	2	6	4	noise_calib_stim_RIGHT.wav	2	22	blb_dichoticlistening_ka-ka.mp3	ka	ka	0	left
6.6.1	win	2023-06-27	12:33:03	0	0	5f77480675b83a250b3e8c36	2	1	DL_test	16	DL_test	11			0		ba	1	1799	6	5	antiphase_hc_osi.wav	2	6	4	noise_calib_stim_RIGHT.wav	2	13	blb_dichoticlistening_ga-ba.mp3	ga	ba	1	right
6.6.1	win	2023-06-27	12:33:03	0	0	5f77480675b83a250b3e8c36	2	1	DL_test	16	DL_test	12			0		da	0	1540	6	5	antiphase_hc_osi.wav	2	6	4	noise_calib_stim_RIGHT.wav	2	3	blb_dichoticlistening_ba-ga.mp3	ba	ga	1	other
6.6.1	win	2023-06-27	12:33:03	0	0	5f77480675b83a250b3e8c36	2	1	DL_test	16	DL_test	13			0		pa	1	1435	6	5	antiphase_hc_osi.wav	2	6	4	noise_calib_stim_RIGHT.wav	2	25	blb_dichoticlistening_pa-ba.mp3	pa	ba	1	left
6.6.1	win	2023-06-27	12:33:03	0	0	5f77480675b83a250b3e8c36	2	1	DL_test	16	DL_test	14			0		ta	1	1158	6	5	antiphase_hc_osi.wav	2	6	4	noise_calib_stim_RIGHT.wav	2	31	blb_dichoticlistening_ta-ba.mp3	ta	ba	1	left
6.6.1	win	2023-06-27	12:33:03	0	0	5f77480675b83a250b3e8c36	2	1	DL_test	16	DL_test	15			0		da	1	4285	6	5	antiphase_hc_osi.wav	2	6	4	noise_calib_stim_RIGHT.wav	2	9	blb_dichoticlistening_da-ga.mp3	da	ga	1	left
6.6.1	win	2023-06-27	12:33:03	0	0	5f77480675b83a250b3e8c36	2	1	DL_test	16	DL_test	16			0		pa	1	3804	6	5	antiphase_hc_osi.wav	2	6	4	noise_calib_stim_RIGHT.wav	2	11	blb_dichoticlistening_da-pa.mp3	da	pa	1	right
6.6.1	win	2023-06-27	12:33:03	0	0	5f77480675b83a250b3e8c36	2	1	DL_test	16	DL_test	17			0		pa	1	1084	6	5	antiphase_hc_osi.wav	2	6	4	noise_calib_stim_RIGHT.wav	2	17	blb_dichoticlistening_ga-pa.mp3	ga	pa	1	right
6.6.1	win	2023-06-27	12:33:03	0	0	5f77480675b83a250b3e8c36	2	1	DL_test	16	DL_test	18			0		ka	1	886	6	5	antiphase_hc_osi.wav	2	6	4	noise_calib_stim_RIGHT.wav	2	4	blb_dichoticlistening_ba-ka.mp3	ba	ka	1	right
6.6.1	win	2023-06-27	12:33:03	0	0	5f77480675b83a250b3e8c36	2	1	DL_test	16	DL_test	19			0		ta	1	1576	6	5	antiphase_hc_osi.wav	2	6	4	noise_calib_stim_RIGHT.wav	2	12	blb_dichoticlistening_da-ta.mp3	da	ta	1	right
6.6.1	win	2023-06-27	12:33:03	0	0	5f77480675b83a250b3e8c36	2	1	DL_test	16	DL_test	20			0		ta	1	1180	6	5	antiphase_hc_osi.wav	2	6	4	noise_calib_stim_RIGHT.wav	2	6	blb_dichoticlistening_ba-ta.mp3	ba	ta	1	right
6.6.1	win	2023-06-27	12:33:03	0	0	5f77480675b83a250b3e8c36	2	1	DL_test	16	DL_test	21			0		ga	0	1459	6	5	antiphase_hc_osi.wav	2	6	4	noise_calib_stim_RIGHT.wav	2	19	blb_dichoticlistening_ka-ba.mp3	ka	ba	1	other
6.6.1	win	2023-06-27	12:33:03	0	0	5f77480675b83a250b3e8c36	2	1	DL_test	16	DL_test	22			0		ta	0	1749	6	5	antiphase_hc_osi.wav	2	6	4	noise_calib_stim_RIGHT.wav	2	26	blb_dichoticlistening_pa-da.mp3	pa	da	1	other
6.6.1	win	2023-06-27	12:33:03	0	0	5f77480675b83a250b3e8c36	2	1	DL_test	16	DL_test	23			0		pa	0	1291	6	5	antiphase_hc_osi.wav	2	6	4	noise_calib_stim_RIGHT.wav	2	10	blb_dichoticlistening_da-ka.mp3	da	ka	1	other
6.6.1	win	2023-06-27	12:33:03	0	0	5f77480675b83a250b3e8c36	2	1	DL_test	16	DL_test	24			0		pa	1	1268	6	5	antiphase_hc_osi.wav	2	6	4	noise_calib_stim_RIGHT.wav	2	35	blb_dichoticlistening_ta-pa.mp3	ta	pa	1	right
6.6.1	win	2023-06-27	12:33:03	0	0	5f77480675b83a250b3e8c36	2	1	DL_test	16	DL_test	25			0		pa	1	1086	6	5	antiphase_hc_osi.wav	2	6	4	noise_calib_stim_RIGHT.wav	2	5	blb_dichoticlistening_ba-pa.mp3	ba	pa	1	right
6.6.1	win	2023-06-27	12:33:03	0	0	5f77480675b83a250b3e8c36	2	1	DL_test	16	DL_test	26			0		ba	1	1679	6	5	antiphase_hc_osi.wav	2	6	4	noise_calib_stim_RIGHT.wav	2	1	blb_dichoticlistening_ba-ba.mp3	ba	ba	0	left
6.6.1	win	2023-06-27	12:33:03	0	0	5f77480675b83a250b3e8c36	2	1	DL_test	16	DL_test	27			0		ka	1	2265	6	5	antiphase_hc_osi.wav	2	6	4	noise_calib_stim_RIGHT.wav	2	16	blb_dichoticlistening_ga-ka.mp3	ga	ka	1	right
6.6.1	win	2023-06-27	12:33:03	0	0	5f77480675b83a250b3e8c36	2	1	DL_test	16	DL_test	28			0		ta	1	1354	6	5	antiphase_hc_osi.wav	2	6	4	noise_calib_stim_RIGHT.wav	2	18	blb_dichoticlistening_ga-ta.mp3	ga	ta	1	right
6.6.1	win	2023-06-27	12:33:03	0	0	5f77480675b83a250b3e8c36	2	1	DL_test	16	DL_test	29			0		ka	1	1728	6	5	antiphase_hc_osi.wav	2	6	4	noise_calib_stim_RIGHT.wav	2	20	blb_dichoticlistening_ka-da.mp3	ka	da	1	left
6.6.1	win	2023-06-27	12:33:03	0	0	5f77480675b83a250b3e8c36	2	1	DL_test	16	DL_test	30			0		ka	0	1783	6	5	antiphase_hc_osi.wav	2	6	4	noise_calib_stim_RIGHT.wav	2	33	blb_dichoticlistening_ta-ga.mp3	ta	ga	1	other
6.6.1	win	2023-06-27	12:33:03	0	0	5f77480675b83a250b3e8c36	2	1	DL_test	16	DL_test	31			0		ba	1	1452	6	5	antiphase_hc_osi.wav	2	6	4	noise_calib_stim_RIGHT.wav	2	7	blb_dichoticlistening_da-ba.mp3	da	ba	1	right
6.6.1	win	2023-06-27	12:33:03	0	0	5f77480675b83a250b3e8c36	2	1	DL_test	16	DL_test	32			0		da	1	982	6	5	antiphase_hc_osi.wav	2	6	4	noise_calib_stim_RIGHT.wav	2	8	blb_dichoticlistening_da-da.mp3	da	da	0	left
6.6.1	win	2023-06-27	12:33:03	0	0	5f77480675b83a250b3e8c36	2	1	DL_test	16	DL_test	33			0		ka	1	1445	6	5	antiphase_hc_osi.wav	2	6	4	noise_calib_stim_RIGHT.wav	2	34	blb_dichoticlistening_ta-ka.mp3	ta	ka	1	right
6.6.1	win	2023-06-27	12:33:03	0	0	5f77480675b83a250b3e8c36	2	1	DL_test	16	DL_test	34			0		da	1	2111	6	5	antiphase_hc_osi.wav	2	6	4	noise_calib_stim_RIGHT.wav	2	2	blb_dichoticlistening_ba-da.mp3	ba	da	1	right
6.6.1	win	2023-06-27	12:33:03	0	0	5f77480675b83a250b3e8c36	2	1	DL_test	16	DL_test	35			0		ta	1	1822	6	5	antiphase_hc_osi.wav	2	6	4	noise_calib_stim_RIGHT.wav	2	32	blb_dichoticlistening_ta-da.mp3	ta	da	1	left
6.6.1	win	2023-06-27	12:33:03	0	0	5f77480675b83a250b3e8c36	2	1	DL_test	16	DL_test	36			0		pa	1	1202	6	5	antiphase_hc_osi.wav	2	6	4	noise_calib_stim_RIGHT.wav	2	23	blb_dichoticlistening_ka-pa.mp3	ka	pa	1	right
6.6.1	win	2023-06-27	12:33:03	12:53:07	1198943	5f77480675b83a250b3e8c36	2	1	practice_z	22	practice_z	1	stimuli_target_squarediamonds.svg	stimuli_distractor_diamondtriangles.svg	2	yes	0	0	2000	6	5	antiphase_hc_osi.wav	2	6	4	noise_calib_stim_RIGHT.wav	2	23	blb_dichoticlistening_ka-pa.mp3	ka	pa	1	right
6.6.1	win	2023-06-27	12:33:03	12:53:07	1198943	5f77480675b83a250b3e8c36	2	1	practice_z	22	advance_on_keypress_ZEE	2	stimuli_target_squarediamonds.svg	stimuli_distractor_diamondtriangles.svg	2	yes	57	0	1572	6	5	antiphase_hc_osi.wav	2	6	4	noise_calib_stim_RIGHT.wav	2	23	blb_dichoticlistening_ka-pa.mp3	ka	pa	1	right
6.6.1	win	2023-06-27	12:33:03	12:53:12	1204165	5f77480675b83a250b3e8c36	2	1	practice_z	22	practice_z	3	stimuli_target_rectanglediamonds.svg	stimuli_distractor_diamondtriangles.svg	1	yes	0	0	2000	6	5	antiphase_hc_osi.wav	2	6	4	noise_calib_stim_RIGHT.wav	2	23	blb_dichoticlistening_ka-pa.mp3	ka	pa	1	right
6.6.1	win	2023-06-27	12:33:03	12:53:12	1204165	5f77480675b83a250b3e8c36	2	1	practice_z	22	advance_on_keypress_ZEE	4	stimuli_target_rectanglediamonds.svg	stimuli_distractor_diamondtriangles.svg	1	yes	57	0	3679	6	5	antiphase_hc_osi.wav	2	6	4	noise_calib_stim_RIGHT.wav	2	23	blb_dichoticlistening_ka-pa.mp3	ka	pa	1	right
6.6.1	win	2023-06-27	12:33:03	12:53:18	1209890	5f77480675b83a250b3e8c36	2	1	practice_z	22	practice_z	5	stimuli_distractor_trianglediamonds.svg	stimuli_target_diamondrectangles.svg	12	yes	44	1	399	6	5	antiphase_hc_osi.wav	2	6	4	noise_calib_stim_RIGHT.wav	2	23	blb_dichoticlistening_ka-pa.mp3	ka	pa	1	right
6.6.1	win	2023-06-27	12:33:03	12:53:18	1209890	5f77480675b83a250b3e8c36	2	1	practice_z	22	advance_on_keypress_ZEE	6	stimuli_distractor_trianglediamonds.svg	stimuli_target_diamondrectangles.svg	12	yes	57	0	901	6	5	antiphase_hc_osi.wav	2	6	4	noise_calib_stim_RIGHT.wav	2	23	blb_dichoticlistening_ka-pa.mp3	ka	pa	1	right
6.6.1	win	2023-06-27	12:33:03	12:53:21	1212754	5f77480675b83a250b3e8c36	2	1	practice_z	22	practice_z	7	stimuli_distractor_trianglediamonds.svg	stimuli_target_rectanglediamonds.svg	10	yes	44	1	311	6	5	antiphase_hc_osi.wav	2	6	4	noise_calib_stim_RIGHT.wav	2	23	blb_dichoticlistening_ka-pa.mp3	ka	pa	1	right
6.6.1	win	2023-06-27	12:33:03	12:53:21	1212754	5f77480675b83a250b3e8c36	2	1	practice_z	22	advance_on_keypress_ZEE	8	stimuli_distractor_trianglediamonds.svg	stimuli_target_rectanglediamonds.svg	10	yes	57	0	432	6	5	antiphase_hc_osi.wav	2	6	4	noise_calib_stim_RIGHT.wav	2	23	blb_dichoticlistening_ka-pa.mp3	ka	pa	1	right
6.6.1	win	2023-06-27	12:33:03	12:53:25	1216845	5f77480675b83a250b3e8c36	2	1	practice_z	22	practice_z	9	stimuli_distractor_trianglediamonds.svg	stimuli_distractor_trianglediamonds.svg	15	no	0	1	2000	6	5	antiphase_hc_osi.wav	2	6	4	noise_calib_stim_RIGHT.wav	2	23	blb_dichoticlistening_ka-pa.mp3	ka	pa	1	right
6.6.1	win	2023-06-27	12:33:03	12:53:25	1216845	5f77480675b83a250b3e8c36	2	1	practice_z	22	advance_on_keypress_ZEE	10	stimuli_distractor_trianglediamonds.svg	stimuli_distractor_trianglediamonds.svg	15	no	57	0	353	6	5	antiphase_hc_osi.wav	2	6	4	noise_calib_stim_RIGHT.wav	2	23	blb_dichoticlistening_ka-pa.mp3	ka	pa	1	right
6.6.1	win	2023-06-27	12:33:03	12:53:29	1220849	5f77480675b83a250b3e8c36	2	1	practice_z	22	practice_z	11	stimuli_distractor_trianglediamonds.svg	stimuli_distractor_diamondtriangles.svg	16	no	0	1	2000	6	5	antiphase_hc_osi.wav	2	6	4	noise_calib_stim_RIGHT.wav	2	23	blb_dichoticlistening_ka-pa.mp3	ka	pa	1	right
6.6.1	win	2023-06-27	12:33:03	12:53:29	1220849	5f77480675b83a250b3e8c36	2	1	practice_z	22	advance_on_keypress_ZEE	12	stimuli_distractor_trianglediamonds.svg	stimuli_distractor_diamondtriangles.svg	16	no	57	0	237	6	5	antiphase_hc_osi.wav	2	6	4	noise_calib_stim_RIGHT.wav	2	23	blb_dichoticlistening_ka-pa.mp3	ka	pa	1	right
6.6.1	win	2023-06-27	12:33:03	12:53:31	1223436	5f77480675b83a250b3e8c36	2	1	practice_z	22	practice_z	13	stimuli_target_rectanglediamonds.svg	stimuli_distractor_trianglediamonds.svg	4	yes	44	1	699	6	5	antiphase_hc_osi.wav	2	6	4	noise_calib_stim_RIGHT.wav	2	23	blb_dichoticlistening_ka-pa.mp3	ka	pa	1	right
6.6.1	win	2023-06-27	12:33:03	12:53:31	1223436	5f77480675b83a250b3e8c36	2	1	practice_z	22	advance_on_keypress_ZEE	14	stimuli_target_rectanglediamonds.svg	stimuli_distractor_trianglediamonds.svg	4	yes	57	0	260	6	5	antiphase_hc_osi.wav	2	6	4	noise_calib_stim_RIGHT.wav	2	23	blb_dichoticlistening_ka-pa.mp3	ka	pa	1	right
6.6.1	win	2023-06-27	12:33:03	12:53:34	1225771	5f77480675b83a250b3e8c36	2	1	practice_z	22	practice_z	15	stimuli_target_squarediamonds.svg	stimuli_distractor_trianglediamonds.svg	5	yes	44	1	432	6	5	antiphase_hc_osi.wav	2	6	4	noise_calib_stim_RIGHT.wav	2	23	blb_dichoticlistening_ka-pa.mp3	ka	pa	1	right
6.6.1	win	2023-06-27	12:33:03	12:53:34	1225771	5f77480675b83a250b3e8c36	2	1	practice_z	22	advance_on_keypress_ZEE	16	stimuli_target_squarediamonds.svg	stimuli_distractor_trianglediamonds.svg	5	yes	57	0	4	6	5	antiphase_hc_osi.wav	2	6	4	noise_calib_stim_RIGHT.wav	2	23	blb_dichoticlistening_ka-pa.mp3	ka	pa	1	right
6.6.1	win	2023-06-27	12:33:03	12:53:36	1227892	5f77480675b83a250b3e8c36	2	1	practice_z	22	practice_z	17	stimuli_distractor_diamondtriangles.svg	stimuli_target_rectangletriangles.svg	7	yes	44	1	450	6	5	antiphase_hc_osi.wav	2	6	4	noise_calib_stim_RIGHT.wav	2	23	blb_dichoticlistening_ka-pa.mp3	ka	pa	1	right
6.6.1	win	2023-06-27	12:33:03	12:53:36	1227892	5f77480675b83a250b3e8c36	2	1	practice_z	22	advance_on_keypress_ZEE	18	stimuli_distractor_diamondtriangles.svg	stimuli_target_rectangletriangles.svg	7	yes	57	0	38	6	5	antiphase_hc_osi.wav	2	6	4	noise_calib_stim_RIGHT.wav	2	23	blb_dichoticlistening_ka-pa.mp3	ka	pa	1	right
6.6.1	win	2023-06-27	12:33:03	12:53:40	1231577	5f77480675b83a250b3e8c36	2	1	practice_z	22	practice_z	19	stimuli_distractor_diamondtriangles.svg	stimuli_distractor_diamondtriangles.svg	13	no	0	1	2000	6	5	antiphase_hc_osi.wav	2	6	4	noise_calib_stim_RIGHT.wav	2	23	blb_dichoticlistening_ka-pa.mp3	ka	pa	1	right
6.6.1	win	2023-06-27	12:33:03	12:53:40	1231577	5f77480675b83a250b3e8c36	2	1	practice_z	22	advance_on_keypress_ZEE	20	stimuli_distractor_diamondtriangles.svg	stimuli_distractor_diamondtriangles.svg	13	no	57	0	407	6	5	antiphase_hc_osi.wav	2	6	4	noise_calib_stim_RIGHT.wav	2	23	blb_dichoticlistening_ka-pa.mp3	ka	pa	1	right
6.6.1	win	2023-06-27	12:33:03	12:53:42	1234429	5f77480675b83a250b3e8c36	2	1	practice_z	22	practice_z	21	stimuli_distractor_diamondtriangles.svg	stimuli_distractor_trianglediamonds.svg	14	no	44	0	798	6	5	antiphase_hc_osi.wav	2	6	4	noise_calib_stim_RIGHT.wav	2	23	blb_dichoticlistening_ka-pa.mp3	ka	pa	1	right
6.6.1	win	2023-06-27	12:33:03	12:53:42	1234429	5f77480675b83a250b3e8c36	2	1	practice_z	22	advance_on_keypress_ZEE	22	stimuli_distractor_diamondtriangles.svg	stimuli_distractor_trianglediamonds.svg	14	no	57	0	291	6	5	antiphase_hc_osi.wav	2	6	4	noise_calib_stim_RIGHT.wav	2	23	blb_dichoticlistening_ka-pa.mp3	ka	pa	1	right
6.6.1	win	2023-06-27	12:33:03	12:53:45	1237165	5f77480675b83a250b3e8c36	2	1	practice_z	22	practice_z	23	stimuli_target_diamondsquares.svg	stimuli_distractor_diamondtriangles.svg	3	yes	44	1	798	6	5	antiphase_hc_osi.wav	2	6	4	noise_calib_stim_RIGHT.wav	2	23	blb_dichoticlistening_ka-pa.mp3	ka	pa	1	right
6.6.1	win	2023-06-27	12:33:03	12:53:45	1237165	5f77480675b83a250b3e8c36	2	1	practice_z	22	advance_on_keypress_ZEE	24	stimuli_target_diamondsquares.svg	stimuli_distractor_diamondtriangles.svg	3	yes	57	0	98	6	5	antiphase_hc_osi.wav	2	6	4	noise_calib_stim_RIGHT.wav	2	23	blb_dichoticlistening_ka-pa.mp3	ka	pa	1	right
6.6.1	win	2023-06-27	12:33:03	12:53:48	1239494	5f77480675b83a250b3e8c36	2	1	practice_z	22	practice_z	25	stimuli_distractor_diamondtriangles.svg	stimuli_target_trianglerectangles.svg	9	yes	44	1	574	6	5	antiphase_hc_osi.wav	2	6	4	noise_calib_stim_RIGHT.wav	2	23	blb_dichoticlistening_ka-pa.mp3	ka	pa	1	right
6.6.1	win	2023-06-27	12:33:03	12:53:48	1239494	5f77480675b83a250b3e8c36	2	1	practice_z	22	advance_on_keypress_ZEE	26	stimuli_distractor_diamondtriangles.svg	stimuli_target_trianglerectangles.svg	9	yes	57	0	268	6	5	antiphase_hc_osi.wav	2	6	4	noise_calib_stim_RIGHT.wav	2	23	blb_dichoticlistening_ka-pa.mp3	ka	pa	1	right
6.6.1	win	2023-06-27	12:33:03	12:53:50	1242134	5f77480675b83a250b3e8c36	2	1	practice_z	22	practice_z	27	stimuli_target_diamondsquares.svg	stimuli_distractor_trianglediamonds.svg	6	yes	44	1	728	6	5	antiphase_hc_osi.wav	2	6	4	noise_calib_stim_RIGHT.wav	2	23	blb_dichoticlistening_ka-pa.mp3	ka	pa	1	right
6.6.1	win	2023-06-27	12:33:03	12:53:50	1242134	5f77480675b83a250b3e8c36	2	1	practice_z	22	advance_on_keypress_ZEE	28	stimuli_target_diamondsquares.svg	stimuli_distractor_trianglediamonds.svg	6	yes	57	0	256	6	5	antiphase_hc_osi.wav	2	6	4	noise_calib_stim_RIGHT.wav	2	23	blb_dichoticlistening_ka-pa.mp3	ka	pa	1	right
6.6.1	win	2023-06-27	12:33:03	12:53:53	1244502	5f77480675b83a250b3e8c36	2	1	practice_z	22	practice_z	29	stimuli_distractor_diamondtriangles.svg	stimuli_target_diamondrectangles.svg	8	yes	44	1	460	6	5	antiphase_hc_osi.wav	2	6	4	noise_calib_stim_RIGHT.wav	2	23	blb_dichoticlistening_ka-pa.mp3	ka	pa	1	right
6.6.1	win	2023-06-27	12:33:03	12:53:53	1244502	5f77480675b83a250b3e8c36	2	1	practice_z	22	advance_on_keypress_ZEE	30	stimuli_distractor_diamondtriangles.svg	stimuli_target_diamondrectangles.svg	8	yes	57	0	279	6	5	antiphase_hc_osi.wav	2	6	4	noise_calib_stim_RIGHT.wav	2	23	blb_dichoticlistening_ka-pa.mp3	ka	pa	1	right
6.6.1	win	2023-06-27	12:33:03	12:53:55	1247030	5f77480675b83a250b3e8c36	2	1	practice_z	22	practice_z	31	stimuli_distractor_trianglediamonds.svg	stimuli_target_squarediamonds.svg	11	yes	44	1	586	6	5	antiphase_hc_osi.wav	2	6	4	noise_calib_stim_RIGHT.wav	2	23	blb_dichoticlistening_ka-pa.mp3	ka	pa	1	right
6.6.1	win	2023-06-27	12:33:03	12:53:55	1247030	5f77480675b83a250b3e8c36	2	1	practice_z	22	advance_on_keypress_ZEE	32	stimuli_distractor_trianglediamonds.svg	stimuli_target_squarediamonds.svg	11	yes	57	0	64	6	5	antiphase_hc_osi.wav	2	6	4	noise_calib_stim_RIGHT.wav	2	23	blb_dichoticlistening_ka-pa.mp3	ka	pa	1	right
6.6.1	win	2023-06-27	12:33:03	12:54:00	1251550	5f77480675b83a250b3e8c36	2	1	main_z	24	main_z	1	stimuli_distractor_diamondtriangles.svg	stimuli_target_rectangletriangles.svg	13	yes	44	1	552	6	5	antiphase_hc_osi.wav	2	6	4	noise_calib_stim_RIGHT.wav	2	23	blb_dichoticlistening_ka-pa.mp3	ka	pa	1	right
6.6.1	win	2023-06-27	12:33:03	12:54:00	1251550	5f77480675b83a250b3e8c36	2	1	main_z	24	advance_on_keypress_ZEE	2	stimuli_distractor_diamondtriangles.svg	stimuli_target_rectangletriangles.svg	13	yes	57	0	328	6	5	antiphase_hc_osi.wav	2	6	4	noise_calib_stim_RIGHT.wav	2	23	blb_dichoticlistening_ka-pa.mp3	ka	pa	1	right
6.6.1	win	2023-06-27	12:33:03	12:54:01	1252942	5f77480675b83a250b3e8c36	2	1	main_z	24	main_z	3	stimuli_target_squaretriangles.svg	stimuli_distractor_diamondtriangles.svg	7	yes	44	1	426	6	5	antiphase_hc_osi.wav	2	6	4	noise_calib_stim_RIGHT.wav	2	23	blb_dichoticlistening_ka-pa.mp3	ka	pa	1	right
6.6.1	win	2023-06-27	12:33:03	12:54:01	1252942	5f77480675b83a250b3e8c36	2	1	main_z	24	advance_on_keypress_ZEE	4	stimuli_target_squaretriangles.svg	stimuli_distractor_diamondtriangles.svg	7	yes	57	0	423	6	5	antiphase_hc_osi.wav	2	6	4	noise_calib_stim_RIGHT.wav	2	23	blb_dichoticlistening_ka-pa.mp3	ka	pa	1	right
6.6.1	win	2023-06-27	12:33:03	12:54:02	1254302	5f77480675b83a250b3e8c36	2	1	main_z	24	main_z	5	stimuli_target_squarediamonds.svg	stimuli_distractor_diamondtriangles.svg	8	yes	44	1	301	6	5	antiphase_hc_osi.wav	2	6	4	noise_calib_stim_RIGHT.wav	2	23	blb_dichoticlistening_ka-pa.mp3	ka	pa	1	right
6.6.1	win	2023-06-27	12:33:03	12:54:02	1254302	5f77480675b83a250b3e8c36	2	1	main_z	24	advance_on_keypress_ZEE	6	stimuli_target_squarediamonds.svg	stimuli_distractor_diamondtriangles.svg	8	yes	57	0	407	6	5	antiphase_hc_osi.wav	2	6	4	noise_calib_stim_RIGHT.wav	2	23	blb_dichoticlistening_ka-pa.mp3	ka	pa	1	right
6.6.1	win	2023-06-27	12:33:03	12:54:04	1255679	5f77480675b83a250b3e8c36	2	1	main_z	24	main_z	7	stimuli_target_rectangletriangles.svg	stimuli_distractor_trianglediamonds.svg	1	yes	44	1	325	6	5	antiphase_hc_osi.wav	2	6	4	noise_calib_stim_RIGHT.wav	2	23	blb_dichoticlistening_ka-pa.mp3	ka	pa	1	right
6.6.1	win	2023-06-27	12:33:03	12:54:04	1255679	5f77480675b83a250b3e8c36	2	1	main_z	24	advance_on_keypress_ZEE	8	stimuli_target_rectangletriangles.svg	stimuli_distractor_trianglediamonds.svg	1	yes	57	0	334	6	5	antiphase_hc_osi.wav	2	6	4	noise_calib_stim_RIGHT.wav	2	23	blb_dichoticlistening_ka-pa.mp3	ka	pa	1	right
6.6.1	win	2023-06-27	12:33:03	12:54:05	1257095	5f77480675b83a250b3e8c36	2	1	main_z	24	main_z	9	stimuli_distractor_trianglediamonds.svg	stimuli_target_rectanglediamonds.svg	10	yes	44	1	423	6	5	antiphase_hc_osi.wav	2	6	4	noise_calib_stim_RIGHT.wav	2	23	blb_dichoticlistening_ka-pa.mp3	ka	pa	1	right
6.6.1	win	2023-06-27	12:33:03	12:54:05	1257095	5f77480675b83a250b3e8c36	2	1	main_z	24	advance_on_keypress_ZEE	10	stimuli_distractor_trianglediamonds.svg	stimuli_target_rectanglediamonds.svg	10	yes	57	0	349	6	5	antiphase_hc_osi.wav	2	6	4	noise_calib_stim_RIGHT.wav	2	23	blb_dichoticlistening_ka-pa.mp3	ka	pa	1	right
6.6.1	win	2023-06-27	12:33:03	12:54:06	1258359	5f77480675b83a250b3e8c36	2	1	main_z	24	main_z	11	stimuli_distractor_diamondtriangles.svg	stimuli_target_rectanglediamonds.svg	14	yes	44	1	270	6	5	antiphase_hc_osi.wav	2	6	4	noise_calib_stim_RIGHT.wav	2	23	blb_dichoticlistening_ka-pa.mp3	ka	pa	1	right
6.6.1	win	2023-06-27	12:33:03	12:54:06	1258359	5f77480675b83a250b3e8c36	2	1	main_z	24	advance_on_keypress_ZEE	12	stimuli_distractor_diamondtriangles.svg	stimuli_target_rectanglediamonds.svg	14	yes	57	0	442	6	5	antiphase_hc_osi.wav	2	6	4	noise_calib_stim_RIGHT.wav	2	23	blb_dichoticlistening_ka-pa.mp3	ka	pa	1	right
6.6.1	win	2023-06-27	12:33:03	12:54:08	1259743	5f77480675b83a250b3e8c36	2	1	main_z	24	main_z	13	stimuli_target_trianglesquares.svg	stimuli_distractor_diamondtriangles.svg	22	yes	44	1	303	6	5	antiphase_hc_osi.wav	2	6	4	noise_calib_stim_RIGHT.wav	2	23	blb_dichoticlistening_ka-pa.mp3	ka	pa	1	right
6.6.1	win	2023-06-27	12:33:03	12:54:08	1259743	5f77480675b83a250b3e8c36	2	1	main_z	24	advance_on_keypress_ZEE	14	stimuli_target_trianglesquares.svg	stimuli_distractor_diamondtriangles.svg	22	yes	57	0	401	6	5	antiphase_hc_osi.wav	2	6	4	noise_calib_stim_RIGHT.wav	2	23	blb_dichoticlistening_ka-pa.mp3	ka	pa	1	right
6.6.1	win	2023-06-27	12:33:03	12:54:09	1261391	5f77480675b83a250b3e8c36	2	1	main_z	24	main_z	15	stimuli_target_rectanglediamonds.svg	stimuli_distractor_diamondtriangles.svg	6	yes	44	1	599	6	5	antiphase_hc_osi.wav	2	6	4	noise_calib_stim_RIGHT.wav	2	23	blb_dichoticlistening_ka-pa.mp3	ka	pa	1	right
6.6.1	win	2023-06-27	12:33:03	12:54:09	1261391	5f77480675b83a250b3e8c36	2	1	main_z	24	advance_on_keypress_ZEE	16	stimuli_target_rectanglediamonds.svg	stimuli_distractor_diamondtriangles.svg	6	yes	57	0	397	6	5	antiphase_hc_osi.wav	2	6	4	noise_calib_stim_RIGHT.wav	2	23	blb_dichoticlistening_ka-pa.mp3	ka	pa	1	right
6.6.1	win	2023-06-27	12:33:03	12:54:11	1262810	5f77480675b83a250b3e8c36	2	1	main_z	24	main_z	17	stimuli_distractor_trianglediamonds.svg	stimuli_target_trianglerectangles.svg	25	yes	44	1	380	6	5	antiphase_hc_osi.wav	2	6	4	noise_calib_stim_RIGHT.wav	2	23	blb_dichoticlistening_ka-pa.mp3	ka	pa	1	right
6.6.1	win	2023-06-27	12:33:03	12:54:11	1262810	5f77480675b83a250b3e8c36	2	1	main_z	24	advance_on_keypress_ZEE	18	stimuli_distractor_trianglediamonds.svg	stimuli_target_trianglerectangles.svg	25	yes	57	0	419	6	5	antiphase_hc_osi.wav	2	6	4	noise_calib_stim_RIGHT.wav	2	23	blb_dichoticlistening_ka-pa.mp3	ka	pa	1	right
6.6.1	win	2023-06-27	12:33:03	12:54:12	1264360	5f77480675b83a250b3e8c36	2	1	main_z	24	main_z	19	stimuli_distractor_diamondtriangles.svg	stimuli_target_trianglesquares.svg	30	yes	44	1	482	6	5	antiphase_hc_osi.wav	2	6	4	noise_calib_stim_RIGHT.wav	2	23	blb_dichoticlistening_ka-pa.mp3	ka	pa	1	right
6.6.1	win	2023-06-27	12:33:03	12:54:12	1264360	5f77480675b83a250b3e8c36	2	1	main_z	24	advance_on_keypress_ZEE	20	stimuli_distractor_diamondtriangles.svg	stimuli_target_trianglesquares.svg	30	yes	57	0	325	6	5	antiphase_hc_osi.wav	2	6	4	noise_calib_stim_RIGHT.wav	2	23	blb_dichoticlistening_ka-pa.mp3	ka	pa	1	right
6.6.1	win	2023-06-27	12:33:03	12:54:14	1265784	5f77480675b83a250b3e8c36	2	1	main_z	24	main_z	21	stimuli_distractor_diamondtriangles.svg	stimuli_target_trianglerectangles.svg	29	yes	44	1	454	6	5	antiphase_hc_osi.wav	2	6	4	noise_calib_stim_RIGHT.wav	2	23	blb_dichoticlistening_ka-pa.mp3	ka	pa	1	right
6.6.1	win	2023-06-27	12:33:03	12:54:14	1265784	5f77480675b83a250b3e8c36	2	1	main_z	24	advance_on_keypress_ZEE	22	stimuli_distractor_diamondtriangles.svg	stimuli_target_trianglerectangles.svg	29	yes	57	0	363	6	5	antiphase_hc_osi.wav	2	6	4	noise_calib_stim_RIGHT.wav	2	23	blb_dichoticlistening_ka-pa.mp3	ka	pa	1	right
6.6.1	win	2023-06-27	12:33:03	12:54:17	1268782	5f77480675b83a250b3e8c36	2	1	main_z	24	main_z	23	stimuli_distractor_trianglediamonds.svg	stimuli_target_squaretriangles.svg	11	yes	0	0	2000	6	5	antiphase_hc_osi.wav	2	6	4	noise_calib_stim_RIGHT.wav	2	23	blb_dichoticlistening_ka-pa.mp3	ka	pa	1	right
6.6.1	win	2023-06-27	12:33:03	12:54:17	1268782	5f77480675b83a250b3e8c36	2	1	main_z	24	advance_on_keypress_ZEE	24	stimuli_distractor_trianglediamonds.svg	stimuli_target_squaretriangles.svg	11	yes	57	0	240	6	5	antiphase_hc_osi.wav	2	6	4	noise_calib_stim_RIGHT.wav	2	23	blb_dichoticlistening_ka-pa.mp3	ka	pa	1	right
6.6.1	win	2023-06-27	12:33:03	12:54:18	1270153	5f77480675b83a250b3e8c36	2	1	main_z	24	main_z	25	stimuli_distractor_trianglediamonds.svg	stimuli_target_diamondrectangles.svg	27	yes	44	1	485	6	5	antiphase_hc_osi.wav	2	6	4	noise_calib_stim_RIGHT.wav	2	23	blb_dichoticlistening_ka-pa.mp3	ka	pa	1	right
6.6.1	win	2023-06-27	12:33:03	12:54:18	1270153	5f77480675b83a250b3e8c36	2	1	main_z	24	advance_on_keypress_ZEE	26	stimuli_distractor_trianglediamonds.svg	stimuli_target_diamondrectangles.svg	27	yes	57	0	407	6	5	antiphase_hc_osi.wav	2	6	4	noise_calib_stim_RIGHT.wav	2	23	blb_dichoticlistening_ka-pa.mp3	ka	pa	1	right
6.6.1	win	2023-06-27	12:33:03	12:54:21	1273203	5f77480675b83a250b3e8c36	2	1	main_z	24	main_z	27	stimuli_distractor_trianglediamonds.svg	stimuli_distractor_diamondtriangles.svg	35	no	0	1	2000	6	5	antiphase_hc_osi.wav	2	6	4	noise_calib_stim_RIGHT.wav	2	23	blb_dichoticlistening_ka-pa.mp3	ka	pa	1	right
6.6.1	win	2023-06-27	12:33:03	12:54:21	1273203	5f77480675b83a250b3e8c36	2	1	main_z	24	advance_on_keypress_ZEE	28	stimuli_distractor_trianglediamonds.svg	stimuli_distractor_diamondtriangles.svg	35	no	57	0	347	6	5	antiphase_hc_osi.wav	2	6	4	noise_calib_stim_RIGHT.wav	2	23	blb_dichoticlistening_ka-pa.mp3	ka	pa	1	right
6.6.1	win	2023-06-27	12:33:03	12:54:23	1274601	5f77480675b83a250b3e8c36	2	1	main_z	24	main_z	29	stimuli_distractor_trianglediamonds.svg	stimuli_distractor_diamondtriangles.svg	36	no	44	0	412	6	5	antiphase_hc_osi.wav	2	6	4	noise_calib_stim_RIGHT.wav	2	23	blb_dichoticlistening_ka-pa.mp3	ka	pa	1	right
6.6.1	win	2023-06-27	12:33:03	12:54:23	1274601	5f77480675b83a250b3e8c36	2	1	main_z	24	advance_on_keypress_ZEE	30	stimuli_distractor_trianglediamonds.svg	stimuli_distractor_diamondtriangles.svg	36	no	57	0	386	6	5	antiphase_hc_osi.wav	2	6	4	noise_calib_stim_RIGHT.wav	2	23	blb_dichoticlistening_ka-pa.mp3	ka	pa	1	right
6.6.1	win	2023-06-27	12:33:03	12:54:25	1277082	5f77480675b83a250b3e8c36	2	1	main_z	24	main_z	31	stimuli_distractor_trianglediamonds.svg	stimuli_target_rectangletriangles.svg	9	yes	44	1	1441	6	5	antiphase_hc_osi.wav	2	6	4	noise_calib_stim_RIGHT.wav	2	23	blb_dichoticlistening_ka-pa.mp3	ka	pa	1	right
6.6.1	win	2023-06-27	12:33:03	12:54:25	1277082	5f77480675b83a250b3e8c36	2	1	main_z	24	advance_on_keypress_ZEE	32	stimuli_distractor_trianglediamonds.svg	stimuli_target_rectangletriangles.svg	9	yes	57	0	293	6	5	antiphase_hc_osi.wav	2	6	4	noise_calib_stim_RIGHT.wav	2	23	blb_dichoticlistening_ka-pa.mp3	ka	pa	1	right
6.6.1	win	2023-06-27	12:33:03	12:54:27	1278810	5f77480675b83a250b3e8c36	2	1	main_z	24	main_z	33	stimuli_target_rectanglediamonds.svg	stimuli_distractor_trianglediamonds.svg	2	yes	44	1	800	6	5	antiphase_hc_osi.wav	2	6	4	noise_calib_stim_RIGHT.wav	2	23	blb_dichoticlistening_ka-pa.mp3	ka	pa	1	right
6.6.1	win	2023-06-27	12:33:03	12:54:27	1278810	5f77480675b83a250b3e8c36	2	1	main_z	24	advance_on_keypress_ZEE	34	stimuli_target_rectanglediamonds.svg	stimuli_distractor_trianglediamonds.svg	2	yes	57	0	198	6	5	antiphase_hc_osi.wav	2	6	4	noise_calib_stim_RIGHT.wav	2	23	blb_dichoticlistening_ka-pa.mp3	ka	pa	1	right
6.6.1	win	2023-06-27	12:33:03	12:54:28	1280306	5f77480675b83a250b3e8c36	2	1	main_z	24	main_z	35	stimuli_target_squarediamonds.svg	stimuli_distractor_trianglediamonds.svg	4	yes	44	1	645	6	5	antiphase_hc_osi.wav	2	6	4	noise_calib_stim_RIGHT.wav	2	23	blb_dichoticlistening_ka-pa.mp3	ka	pa	1	right
6.6.1	win	2023-06-27	12:33:03	12:54:28	1280306	5f77480675b83a250b3e8c36	2	1	main_z	24	advance_on_keypress_ZEE	36	stimuli_target_squarediamonds.svg	stimuli_distractor_trianglediamonds.svg	4	yes	57	0	209	6	5	antiphase_hc_osi.wav	2	6	4	noise_calib_stim_RIGHT.wav	2	23	blb_dichoticlistening_ka-pa.mp3	ka	pa	1	right
6.6.1	win	2023-06-27	12:33:03	12:54:30	1281955	5f77480675b83a250b3e8c36	2	1	main_z	24	main_z	37	stimuli_distractor_diamondtriangles.svg	stimuli_target_diamondsquares.svg	32	yes	44	1	791	6	5	antiphase_hc_osi.wav	2	6	4	noise_calib_stim_RIGHT.wav	2	23	blb_dichoticlistening_ka-pa.mp3	ka	pa	1	right
6.6.1	win	2023-06-27	12:33:03	12:54:30	1281955	5f77480675b83a250b3e8c36	2	1	main_z	24	advance_on_keypress_ZEE	38	stimuli_distractor_diamondtriangles.svg	stimuli_target_diamondsquares.svg	32	yes	57	0	222	6	5	antiphase_hc_osi.wav	2	6	4	noise_calib_stim_RIGHT.wav	2	23	blb_dichoticlistening_ka-pa.mp3	ka	pa	1	right
6.6.1	win	2023-06-27	12:33:03	12:54:32	1283555	5f77480675b83a250b3e8c36	2	1	main_z	24	main_z	39	stimuli_distractor_trianglediamonds.svg	stimuli_target_trianglesquares.svg	26	yes	44	1	740	6	5	antiphase_hc_osi.wav	2	6	4	noise_calib_stim_RIGHT.wav	2	23	blb_dichoticlistening_ka-pa.mp3	ka	pa	1	right
6.6.1	win	2023-06-27	12:33:03	12:54:32	1283555	5f77480675b83a250b3e8c36	2	1	main_z	24	advance_on_keypress_ZEE	40	stimuli_distractor_trianglediamonds.svg	stimuli_target_trianglesquares.svg	26	yes	57	0	237	6	5	antiphase_hc_osi.wav	2	6	4	noise_calib_stim_RIGHT.wav	2	23	blb_dichoticlistening_ka-pa.mp3	ka	pa	1	right
6.6.1	win	2023-06-27	12:33:03	12:54:33	1285219	5f77480675b83a250b3e8c36	2	1	main_z	24	main_z	41	stimuli_target_trianglerectangles.svg	stimuli_distractor_diamondtriangles.svg	21	yes	44	1	785	6	5	antiphase_hc_osi.wav	2	6	4	noise_calib_stim_RIGHT.wav	2	23	blb_dichoticlistening_ka-pa.mp3	ka	pa	1	right
6.6.1	win	2023-06-27	12:33:03	12:54:33	1285219	5f77480675b83a250b3e8c36	2	1	main_z	24	advance_on_keypress_ZEE	42	stimuli_target_trianglerectangles.svg	stimuli_distractor_diamondtriangles.svg	21	yes	57	0	248	6	5	antiphase_hc_osi.wav	2	6	4	noise_calib_stim_RIGHT.wav	2	23	blb_dichoticlistening_ka-pa.mp3	ka	pa	1	right
6.6.1	win	2023-06-27	12:33:03	12:54:36	1288118	5f77480675b83a250b3e8c36	2	1	main_z	24	main_z	43	stimuli_distractor_diamondtriangles.svg	stimuli_target_squaretriangles.svg	15	yes	0	0	2000	6	5	antiphase_hc_osi.wav	2	6	4	noise_calib_stim_RIGHT.wav	2	23	blb_dichoticlistening_ka-pa.mp3	ka	pa	1	right
6.6.1	win	2023-06-27	12:33:03	12:54:36	1288118	5f77480675b83a250b3e8c36	2	1	main_z	24	advance_on_keypress_ZEE	44	stimuli_distractor_diamondtriangles.svg	stimuli_target_squaretriangles.svg	15	yes	57	0	810	6	5	antiphase_hc_osi.wav	2	6	4	noise_calib_stim_RIGHT.wav	2	23	blb_dichoticlistening_ka-pa.mp3	ka	pa	1	right
6.6.1	win	2023-06-27	12:33:03	12:54:39	1290988	5f77480675b83a250b3e8c36	2	1	main_z	24	main_z	45	stimuli_target_diamondrectangles.svg	stimuli_distractor_diamondtriangles.svg	23	yes	44	1	1416	6	5	antiphase_hc_osi.wav	2	6	4	noise_calib_stim_RIGHT.wav	2	23	blb_dichoticlistening_ka-pa.mp3	ka	pa	1	right
6.6.1	win	2023-06-27	12:33:03	12:54:39	1290988	5f77480675b83a250b3e8c36	2	1	main_z	24	advance_on_keypress_ZEE	46	stimuli_target_diamondrectangles.svg	stimuli_distractor_diamondtriangles.svg	23	yes	57	0	156	6	5	antiphase_hc_osi.wav	2	6	4	noise_calib_stim_RIGHT.wav	2	23	blb_dichoticlistening_ka-pa.mp3	ka	pa	1	right
6.6.1	win	2023-06-27	12:33:03	12:54:42	1293791	5f77480675b83a250b3e8c36	2	1	main_z	24	main_z	47	stimuli_distractor_diamondtriangles.svg	stimuli_distractor_diamondtriangles.svg	40	no	0	1	2000	6	5	antiphase_hc_osi.wav	2	6	4	noise_calib_stim_RIGHT.wav	2	23	blb_dichoticlistening_ka-pa.mp3	ka	pa	1	right
6.6.1	win	2023-06-27	12:33:03	12:54:42	1293791	5f77480675b83a250b3e8c36	2	1	main_z	24	advance_on_keypress_ZEE	48	stimuli_distractor_diamondtriangles.svg	stimuli_distractor_diamondtriangles.svg	40	no	57	0	474	6	5	antiphase_hc_osi.wav	2	6	4	noise_calib_stim_RIGHT.wav	2	23	blb_dichoticlistening_ka-pa.mp3	ka	pa	1	right
6.6.1	win	2023-06-27	12:33:03	12:54:44	1295621	5f77480675b83a250b3e8c36	2	1	main_z	24	main_z	49	stimuli_target_diamondsquares.svg	stimuli_distractor_trianglediamonds.svg	20	yes	44	1	710	6	5	antiphase_hc_osi.wav	2	6	4	noise_calib_stim_RIGHT.wav	2	23	blb_dichoticlistening_ka-pa.mp3	ka	pa	1	right
6.6.1	win	2023-06-27	12:33:03	12:54:44	1295621	5f77480675b83a250b3e8c36	2	1	main_z	24	advance_on_keypress_ZEE	50	stimuli_target_diamondsquares.svg	stimuli_distractor_trianglediamonds.svg	20	yes	57	0	215	6	5	antiphase_hc_osi.wav	2	6	4	noise_calib_stim_RIGHT.wav	2	23	blb_dichoticlistening_ka-pa.mp3	ka	pa	1	right
6.6.1	win	2023-06-27	12:33:03	12:54:45	1297317	5f77480675b83a250b3e8c36	2	1	main_z	24	main_z	51	stimuli_target_trianglerectangles.svg	stimuli_distractor_trianglediamonds.svg	17	yes	44	1	821	6	5	antiphase_hc_osi.wav	2	6	4	noise_calib_stim_RIGHT.wav	2	23	blb_dichoticlistening_ka-pa.mp3	ka	pa	1	right
6.6.1	win	2023-06-27	12:33:03	12:54:45	1297317	5f77480675b83a250b3e8c36	2	1	main_z	24	advance_on_keypress_ZEE	52	stimuli_target_trianglerectangles.svg	stimuli_distractor_trianglediamonds.svg	17	yes	57	0	170	6	5	antiphase_hc_osi.wav	2	6	4	noise_calib_stim_RIGHT.wav	2	23	blb_dichoticlistening_ka-pa.mp3	ka	pa	1	right
6.6.1	win	2023-06-27	12:33:03	12:54:48	1300131	5f77480675b83a250b3e8c36	2	1	main_z	24	main_z	53	stimuli_distractor_diamondtriangles.svg	stimuli_distractor_trianglediamonds.svg	37	no	0	1	2000	6	5	antiphase_hc_osi.wav	2	6	4	noise_calib_stim_RIGHT.wav	2	23	blb_dichoticlistening_ka-pa.mp3	ka	pa	1	right
6.6.1	win	2023-06-27	12:33:03	12:54:48	1300131	5f77480675b83a250b3e8c36	2	1	main_z	24	advance_on_keypress_ZEE	54	stimuli_distractor_diamondtriangles.svg	stimuli_distractor_trianglediamonds.svg	37	no	57	0	848	6	5	antiphase_hc_osi.wav	2	6	4	noise_calib_stim_RIGHT.wav	2	23	blb_dichoticlistening_ka-pa.mp3	ka	pa	1	right
6.6.1	win	2023-06-27	12:33:03	12:54:50	1302141	5f77480675b83a250b3e8c36	2	1	main_z	24	main_z	55	stimuli_target_diamondrectangles.svg	stimuli_distractor_trianglediamonds.svg	19	yes	44	1	524	6	5	antiphase_hc_osi.wav	2	6	4	noise_calib_stim_RIGHT.wav	2	23	blb_dichoticlistening_ka-pa.mp3	ka	pa	1	right
6.6.1	win	2023-06-27	12:33:03	12:54:50	1302141	5f77480675b83a250b3e8c36	2	1	main_z	24	advance_on_keypress_ZEE	56	stimuli_target_diamondrectangles.svg	stimuli_distractor_trianglediamonds.svg	19	yes	57	0	206	6	5	antiphase_hc_osi.wav	2	6	4	noise_calib_stim_RIGHT.wav	2	23	blb_dichoticlistening_ka-pa.mp3	ka	pa	1	right
6.6.1	win	2023-06-27	12:33:03	12:54:52	1303710	5f77480675b83a250b3e8c36	2	1	main_z	24	main_z	57	stimuli_distractor_diamondtriangles.svg	stimuli_distractor_trianglediamonds.svg	38	no	44	0	724	6	5	antiphase_hc_osi.wav	2	6	4	noise_calib_stim_RIGHT.wav	2	23	blb_dichoticlistening_ka-pa.mp3	ka	pa	1	right
6.6.1	win	2023-06-27	12:33:03	12:54:52	1303710	5f77480675b83a250b3e8c36	2	1	main_z	24	advance_on_keypress_ZEE	58	stimuli_distractor_diamondtriangles.svg	stimuli_distractor_trianglediamonds.svg	38	no	57	0	173	6	5	antiphase_hc_osi.wav	2	6	4	noise_calib_stim_RIGHT.wav	2	23	blb_dichoticlistening_ka-pa.mp3	ka	pa	1	right
6.6.1	win	2023-06-27	12:33:03	12:54:53	1305230	5f77480675b83a250b3e8c36	2	1	main_z	24	main_z	59	stimuli_target_squaretriangles.svg	stimuli_distractor_trianglediamonds.svg	3	yes	44	1	709	6	5	antiphase_hc_osi.wav	2	6	4	noise_calib_stim_RIGHT.wav	2	23	blb_dichoticlistening_ka-pa.mp3	ka	pa	1	right
6.6.1	win	2023-06-27	12:33:03	12:54:53	1305230	5f77480675b83a250b3e8c36	2	1	main_z	24	advance_on_keypress_ZEE	60	stimuli_target_squaretriangles.svg	stimuli_distractor_trianglediamonds.svg	3	yes	57	0	182	6	5	antiphase_hc_osi.wav	2	6	4	noise_calib_stim_RIGHT.wav	2	23	blb_dichoticlistening_ka-pa.mp3	ka	pa	1	right
6.6.1	win	2023-06-27	12:33:03	12:54:56	1308072	5f77480675b83a250b3e8c36	2	1	main_z	24	main_z	61	stimuli_distractor_trianglediamonds.svg	stimuli_distractor_trianglediamonds.svg	34	no	0	1	2000	6	5	antiphase_hc_osi.wav	2	6	4	noise_calib_stim_RIGHT.wav	2	23	blb_dichoticlistening_ka-pa.mp3	ka	pa	1	right
6.6.1	win	2023-06-27	12:33:03	12:54:56	1308072	5f77480675b83a250b3e8c36	2	1	main_z	24	advance_on_keypress_ZEE	62	stimuli_distractor_trianglediamonds.svg	stimuli_distractor_trianglediamonds.svg	34	no	57	0	291	6	5	antiphase_hc_osi.wav	2	6	4	noise_calib_stim_RIGHT.wav	2	23	blb_dichoticlistening_ka-pa.mp3	ka	pa	1	right
6.6.1	win	2023-06-27	12:33:03	12:54:58	1309470	5f77480675b83a250b3e8c36	2	1	main_z	24	main_z	63	stimuli_target_trianglesquares.svg	stimuli_distractor_trianglediamonds.svg	18	yes	44	1	462	6	5	antiphase_hc_osi.wav	2	6	4	noise_calib_stim_RIGHT.wav	2	23	blb_dichoticlistening_ka-pa.mp3	ka	pa	1	right
6.6.1	win	2023-06-27	12:33:03	12:54:58	1309470	5f77480675b83a250b3e8c36	2	1	main_z	24	advance_on_keypress_ZEE	64	stimuli_target_trianglesquares.svg	stimuli_distractor_trianglediamonds.svg	18	yes	57	0	234	6	5	antiphase_hc_osi.wav	2	6	4	noise_calib_stim_RIGHT.wav	2	23	blb_dichoticlistening_ka-pa.mp3	ka	pa	1	right
6.6.1	win	2023-06-27	12:33:03	12:54:59	1310911	5f77480675b83a250b3e8c36	2	1	main_z	24	main_z	65	stimuli_distractor_trianglediamonds.svg	stimuli_target_squarediamonds.svg	12	yes	44	1	551	6	5	antiphase_hc_osi.wav	2	6	4	noise_calib_stim_RIGHT.wav	2	23	blb_dichoticlistening_ka-pa.mp3	ka	pa	1	right
6.6.1	win	2023-06-27	12:33:03	12:54:59	1310911	5f77480675b83a250b3e8c36	2	1	main_z	24	advance_on_keypress_ZEE	66	stimuli_distractor_trianglediamonds.svg	stimuli_target_squarediamonds.svg	12	yes	57	0	142	6	5	antiphase_hc_osi.wav	2	6	4	noise_calib_stim_RIGHT.wav	2	23	blb_dichoticlistening_ka-pa.mp3	ka	pa	1	right
6.6.1	win	2023-06-27	12:33:03	12:55:02	1313695	5f77480675b83a250b3e8c36	2	1	main_z	24	main_z	67	stimuli_distractor_diamondtriangles.svg	stimuli_distractor_diamondtriangles.svg	39	no	0	1	2000	6	5	antiphase_hc_osi.wav	2	6	4	noise_calib_stim_RIGHT.wav	2	23	blb_dichoticlistening_ka-pa.mp3	ka	pa	1	right
6.6.1	win	2023-06-27	12:33:03	12:55:02	1313695	5f77480675b83a250b3e8c36	2	1	main_z	24	advance_on_keypress_ZEE	68	stimuli_distractor_diamondtriangles.svg	stimuli_distractor_diamondtriangles.svg	39	no	57	0	445	6	5	antiphase_hc_osi.wav	2	6	4	noise_calib_stim_RIGHT.wav	2	23	blb_dichoticlistening_ka-pa.mp3	ka	pa	1	right
6.6.1	win	2023-06-27	12:33:03	12:55:05	1316781	5f77480675b83a250b3e8c36	2	1	main_z	24	main_z	69	stimuli_distractor_trianglediamonds.svg	stimuli_distractor_trianglediamonds.svg	33	no	0	1	2000	6	5	antiphase_hc_osi.wav	2	6	4	noise_calib_stim_RIGHT.wav	2	23	blb_dichoticlistening_ka-pa.mp3	ka	pa	1	right
6.6.1	win	2023-06-27	12:33:03	12:55:05	1316781	5f77480675b83a250b3e8c36	2	1	main_z	24	advance_on_keypress_ZEE	70	stimuli_distractor_trianglediamonds.svg	stimuli_distractor_trianglediamonds.svg	33	no	57	0	439	6	5	antiphase_hc_osi.wav	2	6	4	noise_calib_stim_RIGHT.wav	2	23	blb_dichoticlistening_ka-pa.mp3	ka	pa	1	right
6.6.1	win	2023-06-27	12:33:03	12:55:06	1318399	5f77480675b83a250b3e8c36	2	1	main_z	24	main_z	71	stimuli_target_diamondsquares.svg	stimuli_distractor_diamondtriangles.svg	24	yes	44	1	532	6	5	antiphase_hc_osi.wav	2	6	4	noise_calib_stim_RIGHT.wav	2	23	blb_dichoticlistening_ka-pa.mp3	ka	pa	1	right
6.6.1	win	2023-06-27	12:33:03	12:55:06	1318399	5f77480675b83a250b3e8c36	2	1	main_z	24	advance_on_keypress_ZEE	72	stimuli_target_diamondsquares.svg	stimuli_distractor_diamondtriangles.svg	24	yes	57	0	253	6	5	antiphase_hc_osi.wav	2	6	4	noise_calib_stim_RIGHT.wav	2	23	blb_dichoticlistening_ka-pa.mp3	ka	pa	1	right
6.6.1	win	2023-06-27	12:33:03	12:55:08	1319824	5f77480675b83a250b3e8c36	2	1	main_z	24	main_z	73	stimuli_distractor_diamondtriangles.svg	stimuli_target_diamondrectangles.svg	31	yes	44	1	521	6	5	antiphase_hc_osi.wav	2	6	4	noise_calib_stim_RIGHT.wav	2	23	blb_dichoticlistening_ka-pa.mp3	ka	pa	1	right
6.6.1	win	2023-06-27	12:33:03	12:55:08	1319824	5f77480675b83a250b3e8c36	2	1	main_z	24	advance_on_keypress_ZEE	74	stimuli_distractor_diamondtriangles.svg	stimuli_target_diamondrectangles.svg	31	yes	57	0	235	6	5	antiphase_hc_osi.wav	2	6	4	noise_calib_stim_RIGHT.wav	2	23	blb_dichoticlistening_ka-pa.mp3	ka	pa	1	right
6.6.1	win	2023-06-27	12:33:03	12:55:09	1321200	5f77480675b83a250b3e8c36	2	1	main_z	24	main_z	75	stimuli_distractor_trianglediamonds.svg	stimuli_target_diamondsquares.svg	28	yes	44	1	497	6	5	antiphase_hc_osi.wav	2	6	4	noise_calib_stim_RIGHT.wav	2	23	blb_dichoticlistening_ka-pa.mp3	ka	pa	1	right
6.6.1	win	2023-06-27	12:33:03	12:55:09	1321200	5f77480675b83a250b3e8c36	2	1	main_z	24	advance_on_keypress_ZEE	76	stimuli_distractor_trianglediamonds.svg	stimuli_target_diamondsquares.svg	28	yes	57	0	235	6	5	antiphase_hc_osi.wav	2	6	4	noise_calib_stim_RIGHT.wav	2	23	blb_dichoticlistening_ka-pa.mp3	ka	pa	1	right
6.6.1	win	2023-06-27	12:33:03	12:55:11	1322568	5f77480675b83a250b3e8c36	2	1	main_z	24	main_z	77	stimuli_target_rectangletriangles.svg	stimuli_distractor_diamondtriangles.svg	5	yes	44	1	480	6	5	antiphase_hc_osi.wav	2	6	4	noise_calib_stim_RIGHT.wav	2	23	blb_dichoticlistening_ka-pa.mp3	ka	pa	1	right
6.6.1	win	2023-06-27	12:33:03	12:55:11	1322568	5f77480675b83a250b3e8c36	2	1	main_z	24	advance_on_keypress_ZEE	78	stimuli_target_rectangletriangles.svg	stimuli_distractor_diamondtriangles.svg	5	yes	57	0	435	6	5	antiphase_hc_osi.wav	2	6	4	noise_calib_stim_RIGHT.wav	2	23	blb_dichoticlistening_ka-pa.mp3	ka	pa	1	right
6.6.1	win	2023-06-27	12:33:03	12:55:12	1324120	5f77480675b83a250b3e8c36	2	1	main_z	24	main_z	79	stimuli_distractor_diamondtriangles.svg	stimuli_target_squarediamonds.svg	16	yes	44	1	464	6	5	antiphase_hc_osi.wav	2	6	4	noise_calib_stim_RIGHT.wav	2	23	blb_dichoticlistening_ka-pa.mp3	ka	pa	1	right
6.6.1	win	2023-06-27	12:33:03	12:55:12	1324120	5f77480675b83a250b3e8c36	2	1	main_z	24	advance_on_keypress_ZEE	80	stimuli_distractor_diamondtriangles.svg	stimuli_target_squarediamonds.svg	16	yes	57	0	251	6	5	antiphase_hc_osi.wav	2	6	4	noise_calib_stim_RIGHT.wav	2	23	blb_dichoticlistening_ka-pa.mp3	ka	pa	1	right
6.6.1	win	2023-06-27	12:33:03	12:55:15	1327025	5f77480675b83a250b3e8c36	2	1	main_z	24	main_z	81	stimuli_target_trianglerectangles.svg	stimuli_distractor_diamondtriangles.svg	21	yes	0	0	2000	6	5	antiphase_hc_osi.wav	2	6	4	noise_calib_stim_RIGHT.wav	2	23	blb_dichoticlistening_ka-pa.mp3	ka	pa	1	right
6.6.1	win	2023-06-27	12:33:03	12:55:15	1327025	5f77480675b83a250b3e8c36	2	1	main_z	24	advance_on_keypress_ZEE	82	stimuli_target_trianglerectangles.svg	stimuli_distractor_diamondtriangles.svg	21	yes	57	0	548	6	5	antiphase_hc_osi.wav	2	6	4	noise_calib_stim_RIGHT.wav	2	23	blb_dichoticlistening_ka-pa.mp3	ka	pa	1	right
6.6.1	win	2023-06-27	12:33:03	12:55:18	1330228	5f77480675b83a250b3e8c36	2	1	main_z	24	main_z	83	stimuli_distractor_trianglediamonds.svg	stimuli_distractor_diamondtriangles.svg	35	no	0	1	2000	6	5	antiphase_hc_osi.wav	2	6	4	noise_calib_stim_RIGHT.wav	2	23	blb_dichoticlistening_ka-pa.mp3	ka	pa	1	right
6.6.1	win	2023-06-27	12:33:03	12:55:18	1330228	5f77480675b83a250b3e8c36	2	1	main_z	24	advance_on_keypress_ZEE	84	stimuli_distractor_trianglediamonds.svg	stimuli_distractor_diamondtriangles.svg	35	no	57	0	290	6	5	antiphase_hc_osi.wav	2	6	4	noise_calib_stim_RIGHT.wav	2	23	blb_dichoticlistening_ka-pa.mp3	ka	pa	1	right
6.6.1	win	2023-06-27	12:33:03	12:55:20	1331730	5f77480675b83a250b3e8c36	2	1	main_z	24	main_z	85	stimuli_distractor_diamondtriangles.svg	stimuli_target_diamondrectangles.svg	31	yes	44	1	565	6	5	antiphase_hc_osi.wav	2	6	4	noise_calib_stim_RIGHT.wav	2	23	blb_dichoticlistening_ka-pa.mp3	ka	pa	1	right
6.6.1	win	2023-06-27	12:33:03	12:55:20	1331730	5f77480675b83a250b3e8c36	2	1	main_z	24	advance_on_keypress_ZEE	86	stimuli_distractor_diamondtriangles.svg	stimuli_target_diamondrectangles.svg	31	yes	57	0	197	6	5	antiphase_hc_osi.wav	2	6	4	noise_calib_stim_RIGHT.wav	2	23	blb_dichoticlistening_ka-pa.mp3	ka	pa	1	right
6.6.1	win	2023-06-27	12:33:03	12:55:21	1333138	5f77480675b83a250b3e8c36	2	1	main_z	24	main_z	87	stimuli_distractor_diamondtriangles.svg	stimuli_target_rectangletriangles.svg	13	yes	44	1	572	6	5	antiphase_hc_osi.wav	2	6	4	noise_calib_stim_RIGHT.wav	2	23	blb_dichoticlistening_ka-pa.mp3	ka	pa	1	right
6.6.1	win	2023-06-27	12:33:03	12:55:21	1333138	5f77480675b83a250b3e8c36	2	1	main_z	24	advance_on_keypress_ZEE	88	stimuli_distractor_diamondtriangles.svg	stimuli_target_rectangletriangles.svg	13	yes	57	0	195	6	5	antiphase_hc_osi.wav	2	6	4	noise_calib_stim_RIGHT.wav	2	23	blb_dichoticlistening_ka-pa.mp3	ka	pa	1	right
6.6.1	win	2023-06-27	12:33:03	12:55:23	1334954	5f77480675b83a250b3e8c36	2	1	main_z	24	main_z	89	stimuli_target_diamondrectangles.svg	stimuli_distractor_trianglediamonds.svg	19	yes	44	1	987	6	5	antiphase_hc_osi.wav	2	6	4	noise_calib_stim_RIGHT.wav	2	23	blb_dichoticlistening_ka-pa.mp3	ka	pa	1	right
6.6.1	win	2023-06-27	12:33:03	12:55:23	1334954	5f77480675b83a250b3e8c36	2	1	main_z	24	advance_on_keypress_ZEE	90	stimuli_target_diamondrectangles.svg	stimuli_distractor_trianglediamonds.svg	19	yes	57	0	201	6	5	antiphase_hc_osi.wav	2	6	4	noise_calib_stim_RIGHT.wav	2	23	blb_dichoticlistening_ka-pa.mp3	ka	pa	1	right
6.6.1	win	2023-06-27	12:33:03	12:55:25	1336522	5f77480675b83a250b3e8c36	2	1	main_z	24	main_z	91	stimuli_target_rectanglediamonds.svg	stimuli_distractor_trianglediamonds.svg	2	yes	44	1	720	6	5	antiphase_hc_osi.wav	2	6	4	noise_calib_stim_RIGHT.wav	2	23	blb_dichoticlistening_ka-pa.mp3	ka	pa	1	right
6.6.1	win	2023-06-27	12:33:03	12:55:25	1336522	5f77480675b83a250b3e8c36	2	1	main_z	24	advance_on_keypress_ZEE	92	stimuli_target_rectanglediamonds.svg	stimuli_distractor_trianglediamonds.svg	2	yes	57	0	249	6	5	antiphase_hc_osi.wav	2	6	4	noise_calib_stim_RIGHT.wav	2	23	blb_dichoticlistening_ka-pa.mp3	ka	pa	1	right
6.6.1	win	2023-06-27	12:33:03	12:55:26	1337978	5f77480675b83a250b3e8c36	2	1	main_z	24	main_z	93	stimuli_distractor_diamondtriangles.svg	stimuli_target_squaretriangles.svg	15	yes	44	1	557	6	5	antiphase_hc_osi.wav	2	6	4	noise_calib_stim_RIGHT.wav	2	23	blb_dichoticlistening_ka-pa.mp3	ka	pa	1	right
6.6.1	win	2023-06-27	12:33:03	12:55:26	1337978	5f77480675b83a250b3e8c36	2	1	main_z	24	advance_on_keypress_ZEE	94	stimuli_distractor_diamondtriangles.svg	stimuli_target_squaretriangles.svg	15	yes	57	0	230	6	5	antiphase_hc_osi.wav	2	6	4	noise_calib_stim_RIGHT.wav	2	23	blb_dichoticlistening_ka-pa.mp3	ka	pa	1	right
6.6.1	win	2023-06-27	12:33:03	12:55:27	1339443	5f77480675b83a250b3e8c36	2	1	main_z	24	main_z	95	stimuli_target_rectangletriangles.svg	stimuli_distractor_diamondtriangles.svg	5	yes	44	1	604	6	5	antiphase_hc_osi.wav	2	6	4	noise_calib_stim_RIGHT.wav	2	23	blb_dichoticlistening_ka-pa.mp3	ka	pa	1	right
6.6.1	win	2023-06-27	12:33:03	12:55:27	1339443	5f77480675b83a250b3e8c36	2	1	main_z	24	advance_on_keypress_ZEE	96	stimuli_target_rectangletriangles.svg	stimuli_distractor_diamondtriangles.svg	5	yes	57	0	194	6	5	antiphase_hc_osi.wav	2	6	4	noise_calib_stim_RIGHT.wav	2	23	blb_dichoticlistening_ka-pa.mp3	ka	pa	1	right
6.6.1	win	2023-06-27	12:33:03	12:55:29	1340763	5f77480675b83a250b3e8c36	2	1	main_z	24	main_z	97	stimuli_distractor_trianglediamonds.svg	stimuli_target_squarediamonds.svg	12	yes	44	1	489	6	5	antiphase_hc_osi.wav	2	6	4	noise_calib_stim_RIGHT.wav	2	23	blb_dichoticlistening_ka-pa.mp3	ka	pa	1	right
6.6.1	win	2023-06-27	12:33:03	12:55:29	1340763	5f77480675b83a250b3e8c36	2	1	main_z	24	advance_on_keypress_ZEE	98	stimuli_distractor_trianglediamonds.svg	stimuli_target_squarediamonds.svg	12	yes	57	0	244	6	5	antiphase_hc_osi.wav	2	6	4	noise_calib_stim_RIGHT.wav	2	23	blb_dichoticlistening_ka-pa.mp3	ka	pa	1	right
6.6.1	win	2023-06-27	12:33:03	12:55:31	1342611	5f77480675b83a250b3e8c36	2	1	main_z	24	main_z	99	stimuli_target_diamondsquares.svg	stimuli_distractor_diamondtriangles.svg	24	yes	44	1	970	6	5	antiphase_hc_osi.wav	2	6	4	noise_calib_stim_RIGHT.wav	2	23	blb_dichoticlistening_ka-pa.mp3	ka	pa	1	right
6.6.1	win	2023-06-27	12:33:03	12:55:31	1342611	5f77480675b83a250b3e8c36	2	1	main_z	24	advance_on_keypress_ZEE	100	stimuli_target_diamondsquares.svg	stimuli_distractor_diamondtriangles.svg	24	yes	57	0	225	6	5	antiphase_hc_osi.wav	2	6	4	noise_calib_stim_RIGHT.wav	2	23	blb_dichoticlistening_ka-pa.mp3	ka	pa	1	right
6.6.1	win	2023-06-27	12:33:03	12:55:34	1345477	5f77480675b83a250b3e8c36	2	1	main_z	24	main_z	101	stimuli_distractor_trianglediamonds.svg	stimuli_target_trianglerectangles.svg	25	yes	0	0	2000	6	5	antiphase_hc_osi.wav	2	6	4	noise_calib_stim_RIGHT.wav	2	23	blb_dichoticlistening_ka-pa.mp3	ka	pa	1	right
6.6.1	win	2023-06-27	12:33:03	12:55:34	1345477	5f77480675b83a250b3e8c36	2	1	main_z	24	advance_on_keypress_ZEE	102	stimuli_distractor_trianglediamonds.svg	stimuli_target_trianglerectangles.svg	25	yes	57	0	379	6	5	antiphase_hc_osi.wav	2	6	4	noise_calib_stim_RIGHT.wav	2	23	blb_dichoticlistening_ka-pa.mp3	ka	pa	1	right
6.6.1	win	2023-06-27	12:33:03	12:55:35	1347388	5f77480675b83a250b3e8c36	2	1	main_z	24	main_z	103	stimuli_target_trianglesquares.svg	stimuli_distractor_trianglediamonds.svg	18	yes	44	1	891	6	5	antiphase_hc_osi.wav	2	6	4	noise_calib_stim_RIGHT.wav	2	23	blb_dichoticlistening_ka-pa.mp3	ka	pa	1	right
6.6.1	win	2023-06-27	12:33:03	12:55:35	1347388	5f77480675b83a250b3e8c36	2	1	main_z	24	advance_on_keypress_ZEE	104	stimuli_target_trianglesquares.svg	stimuli_distractor_trianglediamonds.svg	18	yes	57	0	197	6	5	antiphase_hc_osi.wav	2	6	4	noise_calib_stim_RIGHT.wav	2	23	blb_dichoticlistening_ka-pa.mp3	ka	pa	1	right
6.6.1	win	2023-06-27	12:33:03	12:55:37	1348900	5f77480675b83a250b3e8c36	2	1	main_z	24	main_z	105	stimuli_distractor_diamondtriangles.svg	stimuli_target_trianglesquares.svg	30	yes	44	1	685	6	5	antiphase_hc_osi.wav	2	6	4	noise_calib_stim_RIGHT.wav	2	23	blb_dichoticlistening_ka-pa.mp3	ka	pa	1	right
6.6.1	win	2023-06-27	12:33:03	12:55:37	1348900	5f77480675b83a250b3e8c36	2	1	main_z	24	advance_on_keypress_ZEE	106	stimuli_distractor_diamondtriangles.svg	stimuli_target_trianglesquares.svg	30	yes	57	0	191	6	5	antiphase_hc_osi.wav	2	6	4	noise_calib_stim_RIGHT.wav	2	23	blb_dichoticlistening_ka-pa.mp3	ka	pa	1	right
6.6.1	win	2023-06-27	12:33:03	12:55:38	1350388	5f77480675b83a250b3e8c36	2	1	main_z	24	main_z	107	stimuli_distractor_trianglediamonds.svg	stimuli_target_trianglesquares.svg	26	yes	44	1	655	6	5	antiphase_hc_osi.wav	2	6	4	noise_calib_stim_RIGHT.wav	2	23	blb_dichoticlistening_ka-pa.mp3	ka	pa	1	right
6.6.1	win	2023-06-27	12:33:03	12:55:38	1350388	5f77480675b83a250b3e8c36	2	1	main_z	24	advance_on_keypress_ZEE	108	stimuli_distractor_trianglediamonds.svg	stimuli_target_trianglesquares.svg	26	yes	57	0	251	6	5	antiphase_hc_osi.wav	2	6	4	noise_calib_stim_RIGHT.wav	2	23	blb_dichoticlistening_ka-pa.mp3	ka	pa	1	right
6.6.1	win	2023-06-27	12:33:03	12:55:41	1353285	5f77480675b83a250b3e8c36	2	1	main_z	24	main_z	109	stimuli_distractor_diamondtriangles.svg	stimuli_distractor_trianglediamonds.svg	37	no	0	1	2000	6	5	antiphase_hc_osi.wav	2	6	4	noise_calib_stim_RIGHT.wav	2	23	blb_dichoticlistening_ka-pa.mp3	ka	pa	1	right
6.6.1	win	2023-06-27	12:33:03	12:55:41	1353285	5f77480675b83a250b3e8c36	2	1	main_z	24	advance_on_keypress_ZEE	110	stimuli_distractor_diamondtriangles.svg	stimuli_distractor_trianglediamonds.svg	37	no	57	0	0	6	5	antiphase_hc_osi.wav	2	6	4	noise_calib_stim_RIGHT.wav	2	23	blb_dichoticlistening_ka-pa.mp3	ka	pa	1	right
6.6.1	win	2023-06-27	12:33:03	12:55:43	1354525	5f77480675b83a250b3e8c36	2	1	main_z	24	main_z	111	stimuli_target_squarediamonds.svg	stimuli_distractor_trianglediamonds.svg	4	yes	44	1	570	6	5	antiphase_hc_osi.wav	2	6	4	noise_calib_stim_RIGHT.wav	2	23	blb_dichoticlistening_ka-pa.mp3	ka	pa	1	right
6.6.1	win	2023-06-27	12:33:03	12:55:43	1354525	5f77480675b83a250b3e8c36	2	1	main_z	24	advance_on_keypress_ZEE	112	stimuli_target_squarediamonds.svg	stimuli_distractor_trianglediamonds.svg	4	yes	57	0	201	6	5	antiphase_hc_osi.wav	2	6	4	noise_calib_stim_RIGHT.wav	2	23	blb_dichoticlistening_ka-pa.mp3	ka	pa	1	right
6.6.1	win	2023-06-27	12:33:03	12:55:44	1356189	5f77480675b83a250b3e8c36	2	1	main_z	24	main_z	113	stimuli_distractor_trianglediamonds.svg	stimuli_target_diamondrectangles.svg	27	yes	44	1	817	6	5	antiphase_hc_osi.wav	2	6	4	noise_calib_stim_RIGHT.wav	2	23	blb_dichoticlistening_ka-pa.mp3	ka	pa	1	right
6.6.1	win	2023-06-27	12:33:03	12:55:44	1356189	5f77480675b83a250b3e8c36	2	1	main_z	24	advance_on_keypress_ZEE	114	stimuli_distractor_trianglediamonds.svg	stimuli_target_diamondrectangles.svg	27	yes	57	0	181	6	5	antiphase_hc_osi.wav	2	6	4	noise_calib_stim_RIGHT.wav	2	23	blb_dichoticlistening_ka-pa.mp3	ka	pa	1	right
6.6.1	win	2023-06-27	12:33:03	12:55:46	1357877	5f77480675b83a250b3e8c36	2	1	main_z	24	main_z	115	stimuli_target_squaretriangles.svg	stimuli_distractor_diamondtriangles.svg	7	yes	44	1	853	6	5	antiphase_hc_osi.wav	2	6	4	noise_calib_stim_RIGHT.wav	2	23	blb_dichoticlistening_ka-pa.mp3	ka	pa	1	right
6.6.1	win	2023-06-27	12:33:03	12:55:46	1357877	5f77480675b83a250b3e8c36	2	1	main_z	24	advance_on_keypress_ZEE	116	stimuli_target_squaretriangles.svg	stimuli_distractor_diamondtriangles.svg	7	yes	57	0	209	6	5	antiphase_hc_osi.wav	2	6	4	noise_calib_stim_RIGHT.wav	2	23	blb_dichoticlistening_ka-pa.mp3	ka	pa	1	right
6.6.1	win	2023-06-27	12:33:03	12:55:47	1359213	5f77480675b83a250b3e8c36	2	1	main_z	24	main_z	117	stimuli_distractor_diamondtriangles.svg	stimuli_target_squarediamonds.svg	16	yes	44	1	487	6	5	antiphase_hc_osi.wav	2	6	4	noise_calib_stim_RIGHT.wav	2	23	blb_dichoticlistening_ka-pa.mp3	ka	pa	1	right
6.6.1	win	2023-06-27	12:33:03	12:55:47	1359213	5f77480675b83a250b3e8c36	2	1	main_z	24	advance_on_keypress_ZEE	118	stimuli_distractor_diamondtriangles.svg	stimuli_target_squarediamonds.svg	16	yes	57	0	210	6	5	antiphase_hc_osi.wav	2	6	4	noise_calib_stim_RIGHT.wav	2	23	blb_dichoticlistening_ka-pa.mp3	ka	pa	1	right
6.6.1	win	2023-06-27	12:33:03	12:55:50	1362061	5f77480675b83a250b3e8c36	2	1	main_z	24	main_z	119	stimuli_distractor_diamondtriangles.svg	stimuli_distractor_diamondtriangles.svg	39	no	0	1	2000	6	5	antiphase_hc_osi.wav	2	6	4	noise_calib_stim_RIGHT.wav	2	23	blb_dichoticlistening_ka-pa.mp3	ka	pa	1	right
6.6.1	win	2023-06-27	12:33:03	12:55:50	1362061	5f77480675b83a250b3e8c36	2	1	main_z	24	advance_on_keypress_ZEE	120	stimuli_distractor_diamondtriangles.svg	stimuli_distractor_diamondtriangles.svg	39	no	57	0	325	6	5	antiphase_hc_osi.wav	2	6	4	noise_calib_stim_RIGHT.wav	2	23	blb_dichoticlistening_ka-pa.mp3	ka	pa	1	right
6.6.1	win	2023-06-27	12:33:03	12:55:52	1363806	5f77480675b83a250b3e8c36	2	1	main_z	24	main_z	121	stimuli_target_squaretriangles.svg	stimuli_distractor_trianglediamonds.svg	3	yes	44	1	776	6	5	antiphase_hc_osi.wav	2	6	4	noise_calib_stim_RIGHT.wav	2	23	blb_dichoticlistening_ka-pa.mp3	ka	pa	1	right
6.6.1	win	2023-06-27	12:33:03	12:55:52	1363806	5f77480675b83a250b3e8c36	2	1	main_z	24	advance_on_keypress_ZEE	122	stimuli_target_squaretriangles.svg	stimuli_distractor_trianglediamonds.svg	3	yes	57	0	223	6	5	antiphase_hc_osi.wav	2	6	4	noise_calib_stim_RIGHT.wav	2	23	blb_dichoticlistening_ka-pa.mp3	ka	pa	1	right
6.6.1	win	2023-06-27	12:33:03	12:55:53	1365238	5f77480675b83a250b3e8c36	2	1	main_z	24	main_z	123	stimuli_distractor_diamondtriangles.svg	stimuli_target_trianglerectangles.svg	29	yes	44	1	556	6	5	antiphase_hc_osi.wav	2	6	4	noise_calib_stim_RIGHT.wav	2	23	blb_dichoticlistening_ka-pa.mp3	ka	pa	1	right
6.6.1	win	2023-06-27	12:33:03	12:55:53	1365238	5f77480675b83a250b3e8c36	2	1	main_z	24	advance_on_keypress_ZEE	124	stimuli_distractor_diamondtriangles.svg	stimuli_target_trianglerectangles.svg	29	yes	57	0	204	6	5	antiphase_hc_osi.wav	2	6	4	noise_calib_stim_RIGHT.wav	2	23	blb_dichoticlistening_ka-pa.mp3	ka	pa	1	right
6.6.1	win	2023-06-27	12:33:03	12:55:55	1366855	5f77480675b83a250b3e8c36	2	1	main_z	24	main_z	125	stimuli_target_diamondsquares.svg	stimuli_distractor_trianglediamonds.svg	20	yes	44	1	771	6	5	antiphase_hc_osi.wav	2	6	4	noise_calib_stim_RIGHT.wav	2	23	blb_dichoticlistening_ka-pa.mp3	ka	pa	1	right
6.6.1	win	2023-06-27	12:33:03	12:55:55	1366855	5f77480675b83a250b3e8c36	2	1	main_z	24	advance_on_keypress_ZEE	126	stimuli_target_diamondsquares.svg	stimuli_distractor_trianglediamonds.svg	20	yes	57	0	370	6	5	antiphase_hc_osi.wav	2	6	4	noise_calib_stim_RIGHT.wav	2	23	blb_dichoticlistening_ka-pa.mp3	ka	pa	1	right
6.6.1	win	2023-06-27	12:33:03	12:55:57	1368687	5f77480675b83a250b3e8c36	2	1	main_z	24	main_z	127	stimuli_distractor_trianglediamonds.svg	stimuli_distractor_diamondtriangles.svg	36	no	44	0	818	6	5	antiphase_hc_osi.wav	2	6	4	noise_calib_stim_RIGHT.wav	2	23	blb_dichoticlistening_ka-pa.mp3	ka	pa	1	right
6.6.1	win	2023-06-27	12:33:03	12:55:57	1368687	5f77480675b83a250b3e8c36	2	1	main_z	24	advance_on_keypress_ZEE	128	stimuli_distractor_trianglediamonds.svg	stimuli_distractor_diamondtriangles.svg	36	no	57	0	375	6	5	antiphase_hc_osi.wav	2	6	4	noise_calib_stim_RIGHT.wav	2	23	blb_dichoticlistening_ka-pa.mp3	ka	pa	1	right
6.6.1	win	2023-06-27	12:33:03	12:55:58	1370359	5f77480675b83a250b3e8c36	2	1	main_z	24	main_z	129	stimuli_distractor_trianglediamonds.svg	stimuli_target_rectanglediamonds.svg	10	yes	44	1	655	6	5	antiphase_hc_osi.wav	2	6	4	noise_calib_stim_RIGHT.wav	2	23	blb_dichoticlistening_ka-pa.mp3	ka	pa	1	right
6.6.1	win	2023-06-27	12:33:03	12:55:58	1370359	5f77480675b83a250b3e8c36	2	1	main_z	24	advance_on_keypress_ZEE	130	stimuli_distractor_trianglediamonds.svg	stimuli_target_rectanglediamonds.svg	10	yes	57	0	187	6	5	antiphase_hc_osi.wav	2	6	4	noise_calib_stim_RIGHT.wav	2	23	blb_dichoticlistening_ka-pa.mp3	ka	pa	1	right
6.6.1	win	2023-06-27	12:33:03	12:56:01	1373189	5f77480675b83a250b3e8c36	2	1	main_z	24	main_z	131	stimuli_distractor_trianglediamonds.svg	stimuli_distractor_trianglediamonds.svg	34	no	0	1	2000	6	5	antiphase_hc_osi.wav	2	6	4	noise_calib_stim_RIGHT.wav	2	23	blb_dichoticlistening_ka-pa.mp3	ka	pa	1	right
6.6.1	win	2023-06-27	12:33:03	12:56:01	1373189	5f77480675b83a250b3e8c36	2	1	main_z	24	advance_on_keypress_ZEE	132	stimuli_distractor_trianglediamonds.svg	stimuli_distractor_trianglediamonds.svg	34	no	57	0	1375	6	5	antiphase_hc_osi.wav	2	6	4	noise_calib_stim_RIGHT.wav	2	23	blb_dichoticlistening_ka-pa.mp3	ka	pa	1	right
6.6.1	win	2023-06-27	12:33:03	12:56:04	1375736	5f77480675b83a250b3e8c36	2	1	main_z	24	main_z	133	stimuli_distractor_trianglediamonds.svg	stimuli_target_diamondsquares.svg	28	yes	44	1	526	6	5	antiphase_hc_osi.wav	2	6	4	noise_calib_stim_RIGHT.wav	2	23	blb_dichoticlistening_ka-pa.mp3	ka	pa	1	right
6.6.1	win	2023-06-27	12:33:03	12:56:04	1375736	5f77480675b83a250b3e8c36	2	1	main_z	24	advance_on_keypress_ZEE	134	stimuli_distractor_trianglediamonds.svg	stimuli_target_diamondsquares.svg	28	yes	57	0	183	6	5	antiphase_hc_osi.wav	2	6	4	noise_calib_stim_RIGHT.wav	2	23	blb_dichoticlistening_ka-pa.mp3	ka	pa	1	right
6.6.1	win	2023-06-27	12:33:03	12:56:05	1377320	5f77480675b83a250b3e8c36	2	1	main_z	24	main_z	135	stimuli_target_trianglerectangles.svg	stimuli_distractor_trianglediamonds.svg	17	yes	44	1	743	6	5	antiphase_hc_osi.wav	2	6	4	noise_calib_stim_RIGHT.wav	2	23	blb_dichoticlistening_ka-pa.mp3	ka	pa	1	right
6.6.1	win	2023-06-27	12:33:03	12:56:05	1377320	5f77480675b83a250b3e8c36	2	1	main_z	24	advance_on_keypress_ZEE	136	stimuli_target_trianglerectangles.svg	stimuli_distractor_trianglediamonds.svg	17	yes	57	0	133	6	5	antiphase_hc_osi.wav	2	6	4	noise_calib_stim_RIGHT.wav	2	23	blb_dichoticlistening_ka-pa.mp3	ka	pa	1	right
6.6.1	win	2023-06-27	12:33:03	12:56:07	1378848	5f77480675b83a250b3e8c36	2	1	main_z	24	main_z	137	stimuli_distractor_diamondtriangles.svg	stimuli_distractor_trianglediamonds.svg	38	no	44	0	736	6	5	antiphase_hc_osi.wav	2	6	4	noise_calib_stim_RIGHT.wav	2	23	blb_dichoticlistening_ka-pa.mp3	ka	pa	1	right
6.6.1	win	2023-06-27	12:33:03	12:56:07	1378848	5f77480675b83a250b3e8c36	2	1	main_z	24	advance_on_keypress_ZEE	138	stimuli_distractor_diamondtriangles.svg	stimuli_distractor_trianglediamonds.svg	38	no	57	0	272	6	5	antiphase_hc_osi.wav	2	6	4	noise_calib_stim_RIGHT.wav	2	23	blb_dichoticlistening_ka-pa.mp3	ka	pa	1	right
6.6.1	win	2023-06-27	12:33:03	12:56:09	1380521	5f77480675b83a250b3e8c36	2	1	main_z	24	main_z	139	stimuli_distractor_diamondtriangles.svg	stimuli_target_diamondsquares.svg	32	yes	44	1	756	6	5	antiphase_hc_osi.wav	2	6	4	noise_calib_stim_RIGHT.wav	2	23	blb_dichoticlistening_ka-pa.mp3	ka	pa	1	right
6.6.1	win	2023-06-27	12:33:03	12:56:09	1380521	5f77480675b83a250b3e8c36	2	1	main_z	24	advance_on_keypress_ZEE	140	stimuli_distractor_diamondtriangles.svg	stimuli_target_diamondsquares.svg	32	yes	57	0	188	6	5	antiphase_hc_osi.wav	2	6	4	noise_calib_stim_RIGHT.wav	2	23	blb_dichoticlistening_ka-pa.mp3	ka	pa	1	right
6.6.1	win	2023-06-27	12:33:03	12:56:10	1381888	5f77480675b83a250b3e8c36	2	1	main_z	24	main_z	141	stimuli_distractor_trianglediamonds.svg	stimuli_target_squaretriangles.svg	11	yes	44	1	539	6	5	antiphase_hc_osi.wav	2	6	4	noise_calib_stim_RIGHT.wav	2	23	blb_dichoticlistening_ka-pa.mp3	ka	pa	1	right
6.6.1	win	2023-06-27	12:33:03	12:56:10	1381888	5f77480675b83a250b3e8c36	2	1	main_z	24	advance_on_keypress_ZEE	142	stimuli_distractor_trianglediamonds.svg	stimuli_target_squaretriangles.svg	11	yes	57	0	244	6	5	antiphase_hc_osi.wav	2	6	4	noise_calib_stim_RIGHT.wav	2	23	blb_dichoticlistening_ka-pa.mp3	ka	pa	1	right
6.6.1	win	2023-06-27	12:33:03	12:56:11	1383409	5f77480675b83a250b3e8c36	2	1	main_z	24	main_z	143	stimuli_distractor_trianglediamonds.svg	stimuli_target_rectangletriangles.svg	9	yes	44	1	642	6	5	antiphase_hc_osi.wav	2	6	4	noise_calib_stim_RIGHT.wav	2	23	blb_dichoticlistening_ka-pa.mp3	ka	pa	1	right
6.6.1	win	2023-06-27	12:33:03	12:56:11	1383409	5f77480675b83a250b3e8c36	2	1	main_z	24	advance_on_keypress_ZEE	144	stimuli_distractor_trianglediamonds.svg	stimuli_target_rectangletriangles.svg	9	yes	57	0	182	6	5	antiphase_hc_osi.wav	2	6	4	noise_calib_stim_RIGHT.wav	2	23	blb_dichoticlistening_ka-pa.mp3	ka	pa	1	right
6.6.1	win	2023-06-27	12:33:03	12:56:13	1384705	5f77480675b83a250b3e8c36	2	1	main_z	24	main_z	145	stimuli_target_squarediamonds.svg	stimuli_distractor_diamondtriangles.svg	8	yes	44	1	470	6	5	antiphase_hc_osi.wav	2	6	4	noise_calib_stim_RIGHT.wav	2	23	blb_dichoticlistening_ka-pa.mp3	ka	pa	1	right
6.6.1	win	2023-06-27	12:33:03	12:56:13	1384705	5f77480675b83a250b3e8c36	2	1	main_z	24	advance_on_keypress_ZEE	146	stimuli_target_squarediamonds.svg	stimuli_distractor_diamondtriangles.svg	8	yes	57	0	233	6	5	antiphase_hc_osi.wav	2	6	4	noise_calib_stim_RIGHT.wav	2	23	blb_dichoticlistening_ka-pa.mp3	ka	pa	1	right
6.6.1	win	2023-06-27	12:33:03	12:56:14	1386025	5f77480675b83a250b3e8c36	2	1	main_z	24	main_z	147	stimuli_target_rectanglediamonds.svg	stimuli_distractor_diamondtriangles.svg	6	yes	44	1	439	6	5	antiphase_hc_osi.wav	2	6	4	noise_calib_stim_RIGHT.wav	2	23	blb_dichoticlistening_ka-pa.mp3	ka	pa	1	right
6.6.1	win	2023-06-27	12:33:03	12:56:14	1386025	5f77480675b83a250b3e8c36	2	1	main_z	24	advance_on_keypress_ZEE	148	stimuli_target_rectanglediamonds.svg	stimuli_distractor_diamondtriangles.svg	6	yes	57	0	259	6	5	antiphase_hc_osi.wav	2	6	4	noise_calib_stim_RIGHT.wav	2	23	blb_dichoticlistening_ka-pa.mp3	ka	pa	1	right
6.6.1	win	2023-06-27	12:33:03	12:56:16	1387602	5f77480675b83a250b3e8c36	2	1	main_z	24	main_z	149	stimuli_target_diamondrectangles.svg	stimuli_distractor_diamondtriangles.svg	23	yes	44	1	680	6	5	antiphase_hc_osi.wav	2	6	4	noise_calib_stim_RIGHT.wav	2	23	blb_dichoticlistening_ka-pa.mp3	ka	pa	1	right
6.6.1	win	2023-06-27	12:33:03	12:56:16	1387602	5f77480675b83a250b3e8c36	2	1	main_z	24	advance_on_keypress_ZEE	150	stimuli_target_diamondrectangles.svg	stimuli_distractor_diamondtriangles.svg	23	yes	57	0	178	6	5	antiphase_hc_osi.wav	2	6	4	noise_calib_stim_RIGHT.wav	2	23	blb_dichoticlistening_ka-pa.mp3	ka	pa	1	right
6.6.1	win	2023-06-27	12:33:03	12:56:17	1389162	5f77480675b83a250b3e8c36	2	1	main_z	24	main_z	151	stimuli_target_rectangletriangles.svg	stimuli_distractor_trianglediamonds.svg	1	yes	44	1	738	6	5	antiphase_hc_osi.wav	2	6	4	noise_calib_stim_RIGHT.wav	2	23	blb_dichoticlistening_ka-pa.mp3	ka	pa	1	right
6.6.1	win	2023-06-27	12:33:03	12:56:17	1389162	5f77480675b83a250b3e8c36	2	1	main_z	24	advance_on_keypress_ZEE	152	stimuli_target_rectangletriangles.svg	stimuli_distractor_trianglediamonds.svg	1	yes	57	0	219	6	5	antiphase_hc_osi.wav	2	6	4	noise_calib_stim_RIGHT.wav	2	23	blb_dichoticlistening_ka-pa.mp3	ka	pa	1	right
6.6.1	win	2023-06-27	12:33:03	12:56:19	1390762	5f77480675b83a250b3e8c36	2	1	main_z	24	main_z	153	stimuli_distractor_diamondtriangles.svg	stimuli_distractor_diamondtriangles.svg	40	no	44	0	738	6	5	antiphase_hc_osi.wav	2	6	4	noise_calib_stim_RIGHT.wav	2	23	blb_dichoticlistening_ka-pa.mp3	ka	pa	1	right
6.6.1	win	2023-06-27	12:33:03	12:56:19	1390762	5f77480675b83a250b3e8c36	2	1	main_z	24	advance_on_keypress_ZEE	154	stimuli_distractor_diamondtriangles.svg	stimuli_distractor_diamondtriangles.svg	40	no	57	0	250	6	5	antiphase_hc_osi.wav	2	6	4	noise_calib_stim_RIGHT.wav	2	23	blb_dichoticlistening_ka-pa.mp3	ka	pa	1	right
6.6.1	win	2023-06-27	12:33:03	12:56:20	1392466	5f77480675b83a250b3e8c36	2	1	main_z	24	main_z	155	stimuli_target_trianglesquares.svg	stimuli_distractor_diamondtriangles.svg	22	yes	44	1	807	6	5	antiphase_hc_osi.wav	2	6	4	noise_calib_stim_RIGHT.wav	2	23	blb_dichoticlistening_ka-pa.mp3	ka	pa	1	right
6.6.1	win	2023-06-27	12:33:03	12:56:20	1392466	5f77480675b83a250b3e8c36	2	1	main_z	24	advance_on_keypress_ZEE	156	stimuli_target_trianglesquares.svg	stimuli_distractor_diamondtriangles.svg	22	yes	57	0	172	6	5	antiphase_hc_osi.wav	2	6	4	noise_calib_stim_RIGHT.wav	2	23	blb_dichoticlistening_ka-pa.mp3	ka	pa	1	right
6.6.1	win	2023-06-27	12:33:03	12:56:23	1395278	5f77480675b83a250b3e8c36	2	1	main_z	24	main_z	157	stimuli_distractor_trianglediamonds.svg	stimuli_distractor_trianglediamonds.svg	33	no	0	1	2000	6	5	antiphase_hc_osi.wav	2	6	4	noise_calib_stim_RIGHT.wav	2	23	blb_dichoticlistening_ka-pa.mp3	ka	pa	1	right
6.6.1	win	2023-06-27	12:33:03	12:56:23	1395278	5f77480675b83a250b3e8c36	2	1	main_z	24	advance_on_keypress_ZEE	158	stimuli_distractor_trianglediamonds.svg	stimuli_distractor_trianglediamonds.svg	33	no	57	0	793	6	5	antiphase_hc_osi.wav	2	6	4	noise_calib_stim_RIGHT.wav	2	23	blb_dichoticlistening_ka-pa.mp3	ka	pa	1	right
6.6.1	win	2023-06-27	12:33:03	12:56:26	1397675	5f77480675b83a250b3e8c36	2	1	main_z	24	main_z	159	stimuli_distractor_diamondtriangles.svg	stimuli_target_rectanglediamonds.svg	14	yes	44	1	959	6	5	antiphase_hc_osi.wav	2	6	4	noise_calib_stim_RIGHT.wav	2	23	blb_dichoticlistening_ka-pa.mp3	ka	pa	1	right
6.6.1	win	2023-06-27	12:33:03	12:56:26	1397675	5f77480675b83a250b3e8c36	2	1	main_z	24	advance_on_keypress_ZEE	160	stimuli_distractor_diamondtriangles.svg	stimuli_target_rectanglediamonds.svg	14	yes	57	0	166	6	5	antiphase_hc_osi.wav	2	6	4	noise_calib_stim_RIGHT.wav	2	23	blb_dichoticlistening_ka-pa.mp3	ka	pa	1	right
6.6.1	win	2023-06-27	12:33:03	12:56:47	1418688	5f77480675b83a250b3e8c36	2	1	practice_slash	26	practice_slash	1	stimuli_distractor_diamondtriangles.svg	stimuli_distractor_diamondtriangles.svg	13	no	53	0	399	6	5	antiphase_hc_osi.wav	2	6	4	noise_calib_stim_RIGHT.wav	2	23	blb_dichoticlistening_ka-pa.mp3	ka	pa	1	right
6.6.1	win	2023-06-27	12:33:03	12:56:47	1418688	5f77480675b83a250b3e8c36	2	1	practice_slash	26	advance_on_keypress_SLASH	2	stimuli_distractor_diamondtriangles.svg	stimuli_distractor_diamondtriangles.svg	13	no	57	0	502	6	5	antiphase_hc_osi.wav	2	6	4	noise_calib_stim_RIGHT.wav	2	23	blb_dichoticlistening_ka-pa.mp3	ka	pa	1	right
6.6.1	win	2023-06-27	12:33:03	12:56:49	1421304	5f77480675b83a250b3e8c36	2	1	practice_slash	26	practice_slash	3	stimuli_distractor_trianglediamonds.svg	stimuli_target_squarediamonds.svg	11	yes	53	1	464	6	5	antiphase_hc_osi.wav	2	6	4	noise_calib_stim_RIGHT.wav	2	23	blb_dichoticlistening_ka-pa.mp3	ka	pa	1	right
6.6.1	win	2023-06-27	12:33:03	12:56:49	1421304	5f77480675b83a250b3e8c36	2	1	practice_slash	26	advance_on_keypress_SLASH	4	stimuli_distractor_trianglediamonds.svg	stimuli_target_squarediamonds.svg	11	yes	57	0	570	6	5	antiphase_hc_osi.wav	2	6	4	noise_calib_stim_RIGHT.wav	2	23	blb_dichoticlistening_ka-pa.mp3	ka	pa	1	right
6.6.1	win	2023-06-27	12:33:03	12:56:52	1424000	5f77480675b83a250b3e8c36	2	1	practice_slash	26	practice_slash	5	stimuli_target_squarediamonds.svg	stimuli_distractor_diamondtriangles.svg	2	yes	53	1	474	6	5	antiphase_hc_osi.wav	2	6	4	noise_calib_stim_RIGHT.wav	2	23	blb_dichoticlistening_ka-pa.mp3	ka	pa	1	right
6.6.1	win	2023-06-27	12:33:03	12:56:52	1424000	5f77480675b83a250b3e8c36	2	1	practice_slash	26	advance_on_keypress_SLASH	6	stimuli_target_squarediamonds.svg	stimuli_distractor_diamondtriangles.svg	2	yes	57	0	251	6	5	antiphase_hc_osi.wav	2	6	4	noise_calib_stim_RIGHT.wav	2	23	blb_dichoticlistening_ka-pa.mp3	ka	pa	1	right
6.6.1	win	2023-06-27	12:33:03	12:56:54	1426369	5f77480675b83a250b3e8c36	2	1	practice_slash	26	practice_slash	7	stimuli_target_rectanglediamonds.svg	stimuli_distractor_diamondtriangles.svg	1	yes	53	1	457	6	5	antiphase_hc_osi.wav	2	6	4	noise_calib_stim_RIGHT.wav	2	23	blb_dichoticlistening_ka-pa.mp3	ka	pa	1	right
6.6.1	win	2023-06-27	12:33:03	12:56:54	1426369	5f77480675b83a250b3e8c36	2	1	practice_slash	26	advance_on_keypress_SLASH	8	stimuli_target_rectanglediamonds.svg	stimuli_distractor_diamondtriangles.svg	1	yes	57	0	443	6	5	antiphase_hc_osi.wav	2	6	4	noise_calib_stim_RIGHT.wav	2	23	blb_dichoticlistening_ka-pa.mp3	ka	pa	1	right
6.6.1	win	2023-06-27	12:33:03	12:56:57	1428953	5f77480675b83a250b3e8c36	2	1	practice_slash	26	practice_slash	9	stimuli_distractor_diamondtriangles.svg	stimuli_target_trianglerectangles.svg	9	yes	53	1	488	6	5	antiphase_hc_osi.wav	2	6	4	noise_calib_stim_RIGHT.wav	2	23	blb_dichoticlistening_ka-pa.mp3	ka	pa	1	right
6.6.1	win	2023-06-27	12:33:03	12:56:57	1428953	5f77480675b83a250b3e8c36	2	1	practice_slash	26	advance_on_keypress_SLASH	10	stimuli_distractor_diamondtriangles.svg	stimuli_target_trianglerectangles.svg	9	yes	57	0	410	6	5	antiphase_hc_osi.wav	2	6	4	noise_calib_stim_RIGHT.wav	2	23	blb_dichoticlistening_ka-pa.mp3	ka	pa	1	right
6.6.1	win	2023-06-27	12:33:03	12:57:00	1431474	5f77480675b83a250b3e8c36	2	1	practice_slash	26	practice_slash	11	stimuli_distractor_diamondtriangles.svg	stimuli_target_rectangletriangles.svg	7	yes	53	1	472	6	5	antiphase_hc_osi.wav	2	6	4	noise_calib_stim_RIGHT.wav	2	23	blb_dichoticlistening_ka-pa.mp3	ka	pa	1	right
6.6.1	win	2023-06-27	12:33:03	12:57:00	1431474	5f77480675b83a250b3e8c36	2	1	practice_slash	26	advance_on_keypress_SLASH	12	stimuli_distractor_diamondtriangles.svg	stimuli_target_rectangletriangles.svg	7	yes	57	0	555	6	5	antiphase_hc_osi.wav	2	6	4	noise_calib_stim_RIGHT.wav	2	23	blb_dichoticlistening_ka-pa.mp3	ka	pa	1	right
6.6.1	win	2023-06-27	12:33:03	12:57:02	1434314	5f77480675b83a250b3e8c36	2	1	practice_slash	26	practice_slash	13	stimuli_target_diamondsquares.svg	stimuli_distractor_trianglediamonds.svg	6	yes	53	1	644	6	5	antiphase_hc_osi.wav	2	6	4	noise_calib_stim_RIGHT.wav	2	23	blb_dichoticlistening_ka-pa.mp3	ka	pa	1	right
6.6.1	win	2023-06-27	12:33:03	12:57:02	1434314	5f77480675b83a250b3e8c36	2	1	practice_slash	26	advance_on_keypress_SLASH	14	stimuli_target_diamondsquares.svg	stimuli_distractor_trianglediamonds.svg	6	yes	57	0	623	6	5	antiphase_hc_osi.wav	2	6	4	noise_calib_stim_RIGHT.wav	2	23	blb_dichoticlistening_ka-pa.mp3	ka	pa	1	right
6.6.1	win	2023-06-27	12:33:03	12:57:05	1437146	5f77480675b83a250b3e8c36	2	1	practice_slash	26	practice_slash	15	stimuli_distractor_trianglediamonds.svg	stimuli_target_rectanglediamonds.svg	10	yes	53	1	556	6	5	antiphase_hc_osi.wav	2	6	4	noise_calib_stim_RIGHT.wav	2	23	blb_dichoticlistening_ka-pa.mp3	ka	pa	1	right
6.6.1	win	2023-06-27	12:33:03	12:57:05	1437146	5f77480675b83a250b3e8c36	2	1	practice_slash	26	advance_on_keypress_SLASH	16	stimuli_distractor_trianglediamonds.svg	stimuli_target_rectanglediamonds.svg	10	yes	57	0	467	6	5	antiphase_hc_osi.wav	2	6	4	noise_calib_stim_RIGHT.wav	2	23	blb_dichoticlistening_ka-pa.mp3	ka	pa	1	right
6.6.1	win	2023-06-27	12:33:03	12:57:08	1439794	5f77480675b83a250b3e8c36	2	1	practice_slash	26	practice_slash	17	stimuli_distractor_diamondtriangles.svg	stimuli_target_diamondrectangles.svg	8	yes	53	1	535	6	5	antiphase_hc_osi.wav	2	6	4	noise_calib_stim_RIGHT.wav	2	23	blb_dichoticlistening_ka-pa.mp3	ka	pa	1	right
