build	computer.platform	date	time	timestamp	time_elapsed_ms	subject	group	session	blockcode	blocknum	trialcode	trialnum	stimulus_left	stimulus_right	stim_index	target_present	response	correct	latency	headphonecheck_countTestTrials	headphonecheck_index	headphonecheck_testSound	headphonecheck_correctResponse	stereocheck_countTestTrials	stereocheck_index	stereocheck_testSound	stereocheck_correctResponse	DL_index	DL_soundfile	DL_leftSound	DL_rightSound	DL_dualSound	DL_choice
6.6.0	win	2023-06-27	06:50:48	0	0	5eaecb0824839e59ed3523eb	2	1	headphonecheck_calibration	4	headphonecheck_calibrationIntro	1			0		calibrationButton	0	5063	0	0			0	0			1				0	
6.6.0	win	2023-06-27	06:50:48	0	0	5eaecb0824839e59ed3523eb	2	1	headphonecheck_testphase	5	test_collectResponse	3			0		third	1	247	1	6	antiphase_hc_ois.wav	3	0	0			1				0	
6.6.0	win	2023-06-27	06:50:48	0	0	5eaecb0824839e59ed3523eb	2	1	headphonecheck_testphase	5	test_collectResponse	6			0		second	1	310	2	1	antiphase_hc_iso.wav	2	0	0			1				0	
6.6.0	win	2023-06-27	06:50:48	0	0	5eaecb0824839e59ed3523eb	2	1	headphonecheck_testphase	5	test_collectResponse	9			0		second	1	459	3	5	antiphase_hc_osi.wav	2	0	0			1				0	
6.6.0	win	2023-06-27	06:50:48	0	0	5eaecb0824839e59ed3523eb	2	1	headphonecheck_testphase	5	test_collectResponse	12			0		first	1	370	4	3	antiphase_hc_soi.wav	1	0	0			1				0	
6.6.0	win	2023-06-27	06:50:48	0	0	5eaecb0824839e59ed3523eb	2	1	headphonecheck_testphase	5	test_collectResponse	15			0		first	1	412	5	4	antiphase_hc_sio.wav	1	0	0			1				0	
6.6.0	win	2023-06-27	06:50:48	0	0	5eaecb0824839e59ed3523eb	2	1	headphonecheck_testphase	5	test_collectResponse	18			0		third	1	443	6	2	antiphase_hc_ios.wav	3	0	0			1				0	
6.6.0	win	2023-06-27	06:50:48	0	0	5eaecb0824839e59ed3523eb	2	1	stereocheck_calibration	7	stereocheck_calibrationIntro	1			0		stereocheck_calibrationButton	0	7726	6	2	antiphase_hc_ios.wav	3	0	0			1				0	
6.6.0	win	2023-06-27	06:50:48	0	0	5eaecb0824839e59ed3523eb	2	1	stereocheck_testphase	8	stereocheck_test_collectResponse	3			0		stereocheck_right	1	279	6	2	antiphase_hc_ios.wav	3	1	6	noise_calib_stim_RIGHT.wav	2	1				0	
6.6.0	win	2023-06-27	06:50:48	0	0	5eaecb0824839e59ed3523eb	2	1	stereocheck_testphase	8	stereocheck_test_collectResponse	6			0		stereocheck_right	1	242	6	2	antiphase_hc_ios.wav	3	2	5	noise_calib_stim_RIGHT.wav	2	1				0	
6.6.0	win	2023-06-27	06:50:48	0	0	5eaecb0824839e59ed3523eb	2	1	stereocheck_testphase	8	stereocheck_test_collectResponse	9			0		stereocheck_left	1	221	6	2	antiphase_hc_ios.wav	3	3	2	noise_calib_stim_LEFT.wav	1	1				0	
6.6.0	win	2023-06-27	06:50:48	0	0	5eaecb0824839e59ed3523eb	2	1	stereocheck_testphase	8	stereocheck_test_collectResponse	12			0		stereocheck_left	1	192	6	2	antiphase_hc_ios.wav	3	4	1	noise_calib_stim_LEFT.wav	1	1				0	
6.6.0	win	2023-06-27	06:50:48	0	0	5eaecb0824839e59ed3523eb	2	1	stereocheck_testphase	8	stereocheck_test_collectResponse	15			0		stereocheck_right	1	191	6	2	antiphase_hc_ios.wav	3	5	4	noise_calib_stim_RIGHT.wav	2	1				0	
6.6.0	win	2023-06-27	06:50:48	0	0	5eaecb0824839e59ed3523eb	2	1	stereocheck_testphase	8	stereocheck_test_collectResponse	18			0		stereocheck_left	1	229	6	2	antiphase_hc_ios.wav	3	6	3	noise_calib_stim_LEFT.wav	1	1				0	
6.6.0	win	2023-06-27	06:50:48	0	0	5eaecb0824839e59ed3523eb	2	1	DL_practice	11	DL_practice	2			0		ga	1	1017	6	2	antiphase_hc_ios.wav	3	6	3	noise_calib_stim_LEFT.wav	1	15	blb_dichoticlistening_ga-ga.mp3	ga	ga	0	left
6.6.0	win	2023-06-27	06:50:48	0	0	5eaecb0824839e59ed3523eb	2	1	DL_practice	11	DL_practice	3			0		ba	1	2847	6	2	antiphase_hc_ios.wav	3	6	3	noise_calib_stim_LEFT.wav	1	7	blb_dichoticlistening_da-ba.mp3	da	ba	1	right
6.6.0	win	2023-06-27	06:50:48	0	0	5eaecb0824839e59ed3523eb	2	1	DL_practice	11	DL_practice	4			0		ta	1	1469	6	2	antiphase_hc_ios.wav	3	6	3	noise_calib_stim_LEFT.wav	1	36	blb_dichoticlistening_ta-ta.mp3	ta	ta	0	left
6.6.0	win	2023-06-27	06:50:48	0	0	5eaecb0824839e59ed3523eb	2	1	DL_practice	11	DL_practice	5			0		ka	1	1010	6	2	antiphase_hc_ios.wav	3	6	3	noise_calib_stim_LEFT.wav	1	22	blb_dichoticlistening_ka-ka.mp3	ka	ka	0	left
6.6.0	win	2023-06-27	06:50:48	0	0	5eaecb0824839e59ed3523eb	2	1	DL_practice	11	DL_practice	6			0		pa	1	1112	6	2	antiphase_hc_ios.wav	3	6	3	noise_calib_stim_LEFT.wav	1	29	blb_dichoticlistening_pa-pa.mp3	pa	pa	0	left
6.6.0	win	2023-06-27	06:50:48	0	0	5eaecb0824839e59ed3523eb	2	1	DL_practice	11	DL_practice	7			0		ka	0	1139	6	2	antiphase_hc_ios.wav	3	6	3	noise_calib_stim_LEFT.wav	1	18	blb_dichoticlistening_ga-ta.mp3	ga	ta	1	other
6.6.0	win	2023-06-27	06:50:48	0	0	5eaecb0824839e59ed3523eb	2	1	DL_practice	11	DL_practice	8			0		pa	1	1178	6	2	antiphase_hc_ios.wav	3	6	3	noise_calib_stim_LEFT.wav	1	23	blb_dichoticlistening_ka-pa.mp3	ka	pa	1	right
6.6.0	win	2023-06-27	06:50:48	0	0	5eaecb0824839e59ed3523eb	2	1	DL_practice	11	DL_practice	9			0		ba	1	1946	6	2	antiphase_hc_ios.wav	3	6	3	noise_calib_stim_LEFT.wav	1	1	blb_dichoticlistening_ba-ba.mp3	ba	ba	0	left
6.6.0	win	2023-06-27	06:50:48	0	0	5eaecb0824839e59ed3523eb	2	1	DL_practice	11	DL_practice	10			0		da	1	1045	6	2	antiphase_hc_ios.wav	3	6	3	noise_calib_stim_LEFT.wav	1	8	blb_dichoticlistening_da-da.mp3	da	da	0	left
6.6.0	win	2023-06-27	06:50:48	0	0	5eaecb0824839e59ed3523eb	2	1	DL_test	13	DL_test	1			0		ga	1	692	6	2	antiphase_hc_ios.wav	3	6	3	noise_calib_stim_LEFT.wav	1	15	blb_dichoticlistening_ga-ga.mp3	ga	ga	0	left
6.6.0	win	2023-06-27	06:50:48	0	0	5eaecb0824839e59ed3523eb	2	1	DL_test	13	DL_test	2			0		pa	1	1174	6	2	antiphase_hc_ios.wav	3	6	3	noise_calib_stim_LEFT.wav	1	5	blb_dichoticlistening_ba-pa.mp3	ba	pa	1	right
6.6.0	win	2023-06-27	06:50:48	0	0	5eaecb0824839e59ed3523eb	2	1	DL_test	13	DL_test	3			0		ka	1	886	6	2	antiphase_hc_ios.wav	3	6	3	noise_calib_stim_LEFT.wav	1	20	blb_dichoticlistening_ka-da.mp3	ka	da	1	left
6.6.0	win	2023-06-27	06:50:48	0	0	5eaecb0824839e59ed3523eb	2	1	DL_test	13	DL_test	4			0		ka	0	938	6	2	antiphase_hc_ios.wav	3	6	3	noise_calib_stim_LEFT.wav	1	6	blb_dichoticlistening_ba-ta.mp3	ba	ta	1	other
6.6.0	win	2023-06-27	06:50:48	0	0	5eaecb0824839e59ed3523eb	2	1	DL_test	13	DL_test	5			0		ba	1	1627	6	2	antiphase_hc_ios.wav	3	6	3	noise_calib_stim_LEFT.wav	1	3	blb_dichoticlistening_ba-ga.mp3	ba	ga	1	left
6.6.0	win	2023-06-27	06:50:48	0	0	5eaecb0824839e59ed3523eb	2	1	DL_test	13	DL_test	6			0		ga	1	1072	6	2	antiphase_hc_ios.wav	3	6	3	noise_calib_stim_LEFT.wav	1	9	blb_dichoticlistening_da-ga.mp3	da	ga	1	right
6.6.0	win	2023-06-27	06:50:48	0	0	5eaecb0824839e59ed3523eb	2	1	DL_test	13	DL_test	7			0		da	1	1053	6	2	antiphase_hc_ios.wav	3	6	3	noise_calib_stim_LEFT.wav	1	8	blb_dichoticlistening_da-da.mp3	da	da	0	left
6.6.0	win	2023-06-27	06:50:48	0	0	5eaecb0824839e59ed3523eb	2	1	DL_test	13	DL_test	8			0		pa	1	1067	6	2	antiphase_hc_ios.wav	3	6	3	noise_calib_stim_LEFT.wav	1	29	blb_dichoticlistening_pa-pa.mp3	pa	pa	0	left
6.6.0	win	2023-06-27	06:50:48	0	0	5eaecb0824839e59ed3523eb	2	1	DL_test	13	DL_test	9			0		ka	1	838	6	2	antiphase_hc_ios.wav	3	6	3	noise_calib_stim_LEFT.wav	1	21	blb_dichoticlistening_ka-ga.mp3	ka	ga	1	left
6.6.0	win	2023-06-27	06:50:48	0	0	5eaecb0824839e59ed3523eb	2	1	DL_test	13	DL_test	10			0		pa	1	1025	6	2	antiphase_hc_ios.wav	3	6	3	noise_calib_stim_LEFT.wav	1	17	blb_dichoticlistening_ga-pa.mp3	ga	pa	1	right
6.6.0	win	2023-06-27	06:50:48	0	0	5eaecb0824839e59ed3523eb	2	1	DL_test	13	DL_test	11			0		ka	0	863	6	2	antiphase_hc_ios.wav	3	6	3	noise_calib_stim_LEFT.wav	1	33	blb_dichoticlistening_ta-ga.mp3	ta	ga	1	other
6.6.0	win	2023-06-27	06:50:48	0	0	5eaecb0824839e59ed3523eb	2	1	DL_test	13	DL_test	12			0		pa	1	981	6	2	antiphase_hc_ios.wav	3	6	3	noise_calib_stim_LEFT.wav	1	25	blb_dichoticlistening_pa-ba.mp3	pa	ba	1	left
6.6.0	win	2023-06-27	06:50:48	0	0	5eaecb0824839e59ed3523eb	2	1	DL_test	13	DL_test	13			0		ka	0	987	6	2	antiphase_hc_ios.wav	3	6	3	noise_calib_stim_LEFT.wav	1	31	blb_dichoticlistening_ta-ba.mp3	ta	ba	1	other
6.6.0	win	2023-06-27	06:50:48	0	0	5eaecb0824839e59ed3523eb	2	1	DL_test	13	DL_test	14			0		pa	1	1137	6	2	antiphase_hc_ios.wav	3	6	3	noise_calib_stim_LEFT.wav	1	28	blb_dichoticlistening_pa-ka.mp3	pa	ka	1	left
6.6.0	win	2023-06-27	06:50:48	0	0	5eaecb0824839e59ed3523eb	2	1	DL_test	13	DL_test	15			0		pa	1	1188	6	2	antiphase_hc_ios.wav	3	6	3	noise_calib_stim_LEFT.wav	1	27	blb_dichoticlistening_pa-ga.mp3	pa	ga	1	left
6.6.0	win	2023-06-27	06:50:48	0	0	5eaecb0824839e59ed3523eb	2	1	DL_test	13	DL_test	16			0		ba	1	1313	6	2	antiphase_hc_ios.wav	3	6	3	noise_calib_stim_LEFT.wav	1	13	blb_dichoticlistening_ga-ba.mp3	ga	ba	1	right
6.6.0	win	2023-06-27	06:50:48	0	0	5eaecb0824839e59ed3523eb	2	1	DL_test	13	DL_test	17			0		ka	1	1149	6	2	antiphase_hc_ios.wav	3	6	3	noise_calib_stim_LEFT.wav	1	22	blb_dichoticlistening_ka-ka.mp3	ka	ka	0	left
6.6.0	win	2023-06-27	06:50:48	0	0	5eaecb0824839e59ed3523eb	2	1	DL_test	13	DL_test	18			0		ba	1	1613	6	2	antiphase_hc_ios.wav	3	6	3	noise_calib_stim_LEFT.wav	1	2	blb_dichoticlistening_ba-da.mp3	ba	da	1	left
6.6.0	win	2023-06-27	06:50:48	0	0	5eaecb0824839e59ed3523eb	2	1	DL_test	13	DL_test	19			0		pa	1	1325	6	2	antiphase_hc_ios.wav	3	6	3	noise_calib_stim_LEFT.wav	1	26	blb_dichoticlistening_pa-da.mp3	pa	da	1	left
6.6.0	win	2023-06-27	06:50:48	0	0	5eaecb0824839e59ed3523eb	2	1	DL_test	13	DL_test	20			0		pa	1	1263	6	2	antiphase_hc_ios.wav	3	6	3	noise_calib_stim_LEFT.wav	1	11	blb_dichoticlistening_da-pa.mp3	da	pa	1	right
6.6.0	win	2023-06-27	06:50:48	0	0	5eaecb0824839e59ed3523eb	2	1	DL_test	13	DL_test	21			0		ba	1	1147	6	2	antiphase_hc_ios.wav	3	6	3	noise_calib_stim_LEFT.wav	1	1	blb_dichoticlistening_ba-ba.mp3	ba	ba	0	left
6.6.0	win	2023-06-27	06:50:48	0	0	5eaecb0824839e59ed3523eb	2	1	DL_test	13	DL_test	22			0		pa	0	1066	6	2	antiphase_hc_ios.wav	3	6	3	noise_calib_stim_LEFT.wav	1	10	blb_dichoticlistening_da-ka.mp3	da	ka	1	other
6.6.0	win	2023-06-27	06:50:48	0	0	5eaecb0824839e59ed3523eb	2	1	DL_test	13	DL_test	23			0		ka	1	854	6	2	antiphase_hc_ios.wav	3	6	3	noise_calib_stim_LEFT.wav	1	19	blb_dichoticlistening_ka-ba.mp3	ka	ba	1	left
6.6.0	win	2023-06-27	06:50:48	0	0	5eaecb0824839e59ed3523eb	2	1	DL_test	13	DL_test	24			0		ka	1	844	6	2	antiphase_hc_ios.wav	3	6	3	noise_calib_stim_LEFT.wav	1	16	blb_dichoticlistening_ga-ka.mp3	ga	ka	1	right
6.6.0	win	2023-06-27	06:50:48	0	0	5eaecb0824839e59ed3523eb	2	1	DL_test	13	DL_test	25			0		ka	0	960	6	2	antiphase_hc_ios.wav	3	6	3	noise_calib_stim_LEFT.wav	1	12	blb_dichoticlistening_da-ta.mp3	da	ta	1	other
6.6.0	win	2023-06-27	06:50:48	0	0	5eaecb0824839e59ed3523eb	2	1	DL_test	13	DL_test	26			0		ka	0	1041	6	2	antiphase_hc_ios.wav	3	6	3	noise_calib_stim_LEFT.wav	1	18	blb_dichoticlistening_ga-ta.mp3	ga	ta	1	other
6.6.0	win	2023-06-27	06:50:48	0	0	5eaecb0824839e59ed3523eb	2	1	DL_test	13	DL_test	27			0		pa	1	1101	6	2	antiphase_hc_ios.wav	3	6	3	noise_calib_stim_LEFT.wav	1	30	blb_dichoticlistening_pa-ta.mp3	pa	ta	1	left
6.6.0	win	2023-06-27	06:50:48	0	0	5eaecb0824839e59ed3523eb	2	1	DL_test	13	DL_test	28			0		ka	0	1450	6	2	antiphase_hc_ios.wav	3	6	3	noise_calib_stim_LEFT.wav	1	36	blb_dichoticlistening_ta-ta.mp3	ta	ta	0	other
6.6.0	win	2023-06-27	06:50:48	0	0	5eaecb0824839e59ed3523eb	2	1	DL_test	13	DL_test	29			0		ka	1	1326	6	2	antiphase_hc_ios.wav	3	6	3	noise_calib_stim_LEFT.wav	1	4	blb_dichoticlistening_ba-ka.mp3	ba	ka	1	right
6.6.0	win	2023-06-27	06:50:48	0	0	5eaecb0824839e59ed3523eb	2	1	DL_test	13	DL_test	30			0		pa	1	1032	6	2	antiphase_hc_ios.wav	3	6	3	noise_calib_stim_LEFT.wav	1	35	blb_dichoticlistening_ta-pa.mp3	ta	pa	1	right
6.6.0	win	2023-06-27	06:50:48	0	0	5eaecb0824839e59ed3523eb	2	1	DL_test	13	DL_test	31			0		ba	1	1470	6	2	antiphase_hc_ios.wav	3	6	3	noise_calib_stim_LEFT.wav	1	7	blb_dichoticlistening_da-ba.mp3	da	ba	1	right
6.6.0	win	2023-06-27	06:50:48	0	0	5eaecb0824839e59ed3523eb	2	1	DL_test	13	DL_test	32			0		ka	0	1088	6	2	antiphase_hc_ios.wav	3	6	3	noise_calib_stim_LEFT.wav	1	32	blb_dichoticlistening_ta-da.mp3	ta	da	1	other
6.6.0	win	2023-06-27	06:50:48	0	0	5eaecb0824839e59ed3523eb	2	1	DL_test	13	DL_test	33			0		ka	1	964	6	2	antiphase_hc_ios.wav	3	6	3	noise_calib_stim_LEFT.wav	1	24	blb_dichoticlistening_ka-ta.mp3	ka	ta	1	left
6.6.0	win	2023-06-27	06:50:48	0	0	5eaecb0824839e59ed3523eb	2	1	DL_test	13	DL_test	34			0		da	1	1102	6	2	antiphase_hc_ios.wav	3	6	3	noise_calib_stim_LEFT.wav	1	14	blb_dichoticlistening_ga-da.mp3	ga	da	1	right
6.6.0	win	2023-06-27	06:50:48	0	0	5eaecb0824839e59ed3523eb	2	1	DL_test	13	DL_test	35			0		pa	1	1079	6	2	antiphase_hc_ios.wav	3	6	3	noise_calib_stim_LEFT.wav	1	23	blb_dichoticlistening_ka-pa.mp3	ka	pa	1	right
6.6.0	win	2023-06-27	06:50:48	0	0	5eaecb0824839e59ed3523eb	2	1	DL_test	13	DL_test	36			0		ka	1	811	6	2	antiphase_hc_ios.wav	3	6	3	noise_calib_stim_LEFT.wav	1	34	blb_dichoticlistening_ta-ka.mp3	ta	ka	1	right
6.6.0	win	2023-06-27	06:50:48	0	0	5eaecb0824839e59ed3523eb	2	1	DL_test	14	DL_test	1			0		ka	0	1708	6	2	antiphase_hc_ios.wav	3	6	3	noise_calib_stim_LEFT.wav	1	30	blb_dichoticlistening_pa-ta.mp3	pa	ta	1	other
6.6.0	win	2023-06-27	06:50:48	0	0	5eaecb0824839e59ed3523eb	2	1	DL_test	14	DL_test	2			0		ga	1	1289	6	2	antiphase_hc_ios.wav	3	6	3	noise_calib_stim_LEFT.wav	1	15	blb_dichoticlistening_ga-ga.mp3	ga	ga	0	left
6.6.0	win	2023-06-27	06:50:48	0	0	5eaecb0824839e59ed3523eb	2	1	DL_test	14	DL_test	3			0		pa	0	1660	6	2	antiphase_hc_ios.wav	3	6	3	noise_calib_stim_LEFT.wav	1	1	blb_dichoticlistening_ba-ba.mp3	ba	ba	0	other
6.6.0	win	2023-06-27	06:50:48	0	0	5eaecb0824839e59ed3523eb	2	1	DL_test	14	DL_test	4			0		pa	1	1274	6	2	antiphase_hc_ios.wav	3	6	3	noise_calib_stim_LEFT.wav	1	28	blb_dichoticlistening_pa-ka.mp3	pa	ka	1	left
6.6.0	win	2023-06-27	06:50:48	0	0	5eaecb0824839e59ed3523eb	2	1	DL_test	14	DL_test	5			0		ka	1	717	6	2	antiphase_hc_ios.wav	3	6	3	noise_calib_stim_LEFT.wav	1	22	blb_dichoticlistening_ka-ka.mp3	ka	ka	0	left
6.6.0	win	2023-06-27	06:50:48	0	0	5eaecb0824839e59ed3523eb	2	1	DL_test	14	DL_test	6			0		ka	0	1271	6	2	antiphase_hc_ios.wav	3	6	3	noise_calib_stim_LEFT.wav	1	33	blb_dichoticlistening_ta-ga.mp3	ta	ga	1	other
6.6.0	win	2023-06-27	06:50:48	0	0	5eaecb0824839e59ed3523eb	2	1	DL_test	14	DL_test	7			0		ka	1	1922	6	2	antiphase_hc_ios.wav	3	6	3	noise_calib_stim_LEFT.wav	1	16	blb_dichoticlistening_ga-ka.mp3	ga	ka	1	right
6.6.0	win	2023-06-27	06:50:48	0	0	5eaecb0824839e59ed3523eb	2	1	DL_test	14	DL_test	8			0		ka	1	3260	6	2	antiphase_hc_ios.wav	3	6	3	noise_calib_stim_LEFT.wav	1	21	blb_dichoticlistening_ka-ga.mp3	ka	ga	1	left
6.6.0	win	2023-06-27	06:50:48	0	0	5eaecb0824839e59ed3523eb	2	1	DL_test	14	DL_test	9			0		ka	0	731	6	2	antiphase_hc_ios.wav	3	6	3	noise_calib_stim_LEFT.wav	1	36	blb_dichoticlistening_ta-ta.mp3	ta	ta	0	other
6.6.0	win	2023-06-27	06:50:48	0	0	5eaecb0824839e59ed3523eb	2	1	DL_test	14	DL_test	10			0		pa	1	1149	6	2	antiphase_hc_ios.wav	3	6	3	noise_calib_stim_LEFT.wav	1	25	blb_dichoticlistening_pa-ba.mp3	pa	ba	1	left
6.6.0	win	2023-06-27	06:50:48	0	0	5eaecb0824839e59ed3523eb	2	1	DL_test	14	DL_test	11			0		pa	1	975	6	2	antiphase_hc_ios.wav	3	6	3	noise_calib_stim_LEFT.wav	1	27	blb_dichoticlistening_pa-ga.mp3	pa	ga	1	left
6.6.0	win	2023-06-27	06:50:48	0	0	5eaecb0824839e59ed3523eb	2	1	DL_test	14	DL_test	12			0		ka	0	1037	6	2	antiphase_hc_ios.wav	3	6	3	noise_calib_stim_LEFT.wav	1	12	blb_dichoticlistening_da-ta.mp3	da	ta	1	other
6.6.0	win	2023-06-27	06:50:48	0	0	5eaecb0824839e59ed3523eb	2	1	DL_test	14	DL_test	13			0		ka	1	948	6	2	antiphase_hc_ios.wav	3	6	3	noise_calib_stim_LEFT.wav	1	24	blb_dichoticlistening_ka-ta.mp3	ka	ta	1	left
6.6.0	win	2023-06-27	06:50:48	0	0	5eaecb0824839e59ed3523eb	2	1	DL_test	14	DL_test	14			0		ba	1	2293	6	2	antiphase_hc_ios.wav	3	6	3	noise_calib_stim_LEFT.wav	1	7	blb_dichoticlistening_da-ba.mp3	da	ba	1	right
6.6.0	win	2023-06-27	06:50:48	0	0	5eaecb0824839e59ed3523eb	2	1	DL_test	14	DL_test	15			0		pa	1	1674	6	2	antiphase_hc_ios.wav	3	6	3	noise_calib_stim_LEFT.wav	1	35	blb_dichoticlistening_ta-pa.mp3	ta	pa	1	right
6.6.0	win	2023-06-27	06:50:48	0	0	5eaecb0824839e59ed3523eb	2	1	DL_test	14	DL_test	16			0		ba	1	1318	6	2	antiphase_hc_ios.wav	3	6	3	noise_calib_stim_LEFT.wav	1	13	blb_dichoticlistening_ga-ba.mp3	ga	ba	1	right
6.6.0	win	2023-06-27	06:50:48	0	0	5eaecb0824839e59ed3523eb	2	1	DL_test	14	DL_test	17			0		ba	1	1601	6	2	antiphase_hc_ios.wav	3	6	3	noise_calib_stim_LEFT.wav	1	2	blb_dichoticlistening_ba-da.mp3	ba	da	1	left
6.6.0	win	2023-06-27	06:50:48	0	0	5eaecb0824839e59ed3523eb	2	1	DL_test	14	DL_test	18			0		ka	1	1383	6	2	antiphase_hc_ios.wav	3	6	3	noise_calib_stim_LEFT.wav	1	19	blb_dichoticlistening_ka-ba.mp3	ka	ba	1	left
6.6.0	win	2023-06-27	06:50:48	0	0	5eaecb0824839e59ed3523eb	2	1	DL_test	14	DL_test	19			0		pa	1	1198	6	2	antiphase_hc_ios.wav	3	6	3	noise_calib_stim_LEFT.wav	1	26	blb_dichoticlistening_pa-da.mp3	pa	da	1	left
6.6.0	win	2023-06-27	06:50:48	0	0	5eaecb0824839e59ed3523eb	2	1	DL_test	14	DL_test	20			0		pa	1	2373	6	2	antiphase_hc_ios.wav	3	6	3	noise_calib_stim_LEFT.wav	1	23	blb_dichoticlistening_ka-pa.mp3	ka	pa	1	right
6.6.0	win	2023-06-27	06:50:48	0	0	5eaecb0824839e59ed3523eb	2	1	DL_test	14	DL_test	21			0		ka	0	1526	6	2	antiphase_hc_ios.wav	3	6	3	noise_calib_stim_LEFT.wav	1	32	blb_dichoticlistening_ta-da.mp3	ta	da	1	other
6.6.0	win	2023-06-27	06:50:48	0	0	5eaecb0824839e59ed3523eb	2	1	DL_test	14	DL_test	22			0		pa	1	983	6	2	antiphase_hc_ios.wav	3	6	3	noise_calib_stim_LEFT.wav	1	17	blb_dichoticlistening_ga-pa.mp3	ga	pa	1	right
6.6.0	win	2023-06-27	06:50:48	0	0	5eaecb0824839e59ed3523eb	2	1	DL_test	14	DL_test	23			0		ta	1	1016	6	2	antiphase_hc_ios.wav	3	6	3	noise_calib_stim_LEFT.wav	1	6	blb_dichoticlistening_ba-ta.mp3	ba	ta	1	right
6.6.0	win	2023-06-27	06:50:48	0	0	5eaecb0824839e59ed3523eb	2	1	DL_test	14	DL_test	24			0		pa	1	886	6	2	antiphase_hc_ios.wav	3	6	3	noise_calib_stim_LEFT.wav	1	29	blb_dichoticlistening_pa-pa.mp3	pa	pa	0	left
6.6.0	win	2023-06-27	06:50:48	0	0	5eaecb0824839e59ed3523eb	2	1	DL_test	14	DL_test	25			0		pa	0	825	6	2	antiphase_hc_ios.wav	3	6	3	noise_calib_stim_LEFT.wav	1	10	blb_dichoticlistening_da-ka.mp3	da	ka	1	other
6.6.0	win	2023-06-27	06:50:48	0	0	5eaecb0824839e59ed3523eb	2	1	DL_test	14	DL_test	26			0		ka	0	2149	6	2	antiphase_hc_ios.wav	3	6	3	noise_calib_stim_LEFT.wav	1	31	blb_dichoticlistening_ta-ba.mp3	ta	ba	1	other
6.6.0	win	2023-06-27	06:50:48	0	0	5eaecb0824839e59ed3523eb	2	1	DL_test	14	DL_test	27			0		pa	1	952	6	2	antiphase_hc_ios.wav	3	6	3	noise_calib_stim_LEFT.wav	1	11	blb_dichoticlistening_da-pa.mp3	da	pa	1	right
6.6.0	win	2023-06-27	06:50:48	0	0	5eaecb0824839e59ed3523eb	2	1	DL_test	14	DL_test	28			0		pa	1	881	6	2	antiphase_hc_ios.wav	3	6	3	noise_calib_stim_LEFT.wav	1	5	blb_dichoticlistening_ba-pa.mp3	ba	pa	1	right
6.6.0	win	2023-06-27	06:50:48	0	0	5eaecb0824839e59ed3523eb	2	1	DL_test	14	DL_test	29			0		ka	1	1204	6	2	antiphase_hc_ios.wav	3	6	3	noise_calib_stim_LEFT.wav	1	4	blb_dichoticlistening_ba-ka.mp3	ba	ka	1	right
6.6.0	win	2023-06-27	06:50:48	0	0	5eaecb0824839e59ed3523eb	2	1	DL_test	14	DL_test	30			0		ba	1	1164	6	2	antiphase_hc_ios.wav	3	6	3	noise_calib_stim_LEFT.wav	1	3	blb_dichoticlistening_ba-ga.mp3	ba	ga	1	left
6.6.0	win	2023-06-27	06:50:48	0	0	5eaecb0824839e59ed3523eb	2	1	DL_test	14	DL_test	31			0		da	1	851	6	2	antiphase_hc_ios.wav	3	6	3	noise_calib_stim_LEFT.wav	1	9	blb_dichoticlistening_da-ga.mp3	da	ga	1	left
6.6.0	win	2023-06-27	06:50:48	0	0	5eaecb0824839e59ed3523eb	2	1	DL_test	14	DL_test	32			0		ka	1	896	6	2	antiphase_hc_ios.wav	3	6	3	noise_calib_stim_LEFT.wav	1	34	blb_dichoticlistening_ta-ka.mp3	ta	ka	1	right
6.6.0	win	2023-06-27	06:50:48	0	0	5eaecb0824839e59ed3523eb	2	1	DL_test	14	DL_test	33			0		ka	0	730	6	2	antiphase_hc_ios.wav	3	6	3	noise_calib_stim_LEFT.wav	1	18	blb_dichoticlistening_ga-ta.mp3	ga	ta	1	other
6.6.0	win	2023-06-27	06:50:48	0	0	5eaecb0824839e59ed3523eb	2	1	DL_test	14	DL_test	34			0		ga	1	1181	6	2	antiphase_hc_ios.wav	3	6	3	noise_calib_stim_LEFT.wav	1	14	blb_dichoticlistening_ga-da.mp3	ga	da	1	left
6.6.0	win	2023-06-27	06:50:48	0	0	5eaecb0824839e59ed3523eb	2	1	DL_test	14	DL_test	35			0		ka	1	843	6	2	antiphase_hc_ios.wav	3	6	3	noise_calib_stim_LEFT.wav	1	20	blb_dichoticlistening_ka-da.mp3	ka	da	1	left
6.6.0	win	2023-06-27	06:50:48	0	0	5eaecb0824839e59ed3523eb	2	1	DL_test	14	DL_test	36			0		ga	0	976	6	2	antiphase_hc_ios.wav	3	6	3	noise_calib_stim_LEFT.wav	1	8	blb_dichoticlistening_da-da.mp3	da	da	0	other
6.6.0	win	2023-06-27	06:50:48	0	0	5eaecb0824839e59ed3523eb	2	1	DL_test	15	DL_test	1			0		ga	1	1078	6	2	antiphase_hc_ios.wav	3	6	3	noise_calib_stim_LEFT.wav	1	14	blb_dichoticlistening_ga-da.mp3	ga	da	1	left
6.6.0	win	2023-06-27	06:50:48	0	0	5eaecb0824839e59ed3523eb	2	1	DL_test	15	DL_test	2			0		ka	0	979	6	2	antiphase_hc_ios.wav	3	6	3	noise_calib_stim_LEFT.wav	1	31	blb_dichoticlistening_ta-ba.mp3	ta	ba	1	other
6.6.0	win	2023-06-27	06:50:48	0	0	5eaecb0824839e59ed3523eb	2	1	DL_test	15	DL_test	3			0		pa	1	802	6	2	antiphase_hc_ios.wav	3	6	3	noise_calib_stim_LEFT.wav	1	11	blb_dichoticlistening_da-pa.mp3	da	pa	1	right
6.6.0	win	2023-06-27	06:50:48	0	0	5eaecb0824839e59ed3523eb	2	1	DL_test	15	DL_test	4			0		ta	1	824	6	2	antiphase_hc_ios.wav	3	6	3	noise_calib_stim_LEFT.wav	1	6	blb_dichoticlistening_ba-ta.mp3	ba	ta	1	right
6.6.0	win	2023-06-27	06:50:48	0	0	5eaecb0824839e59ed3523eb	2	1	DL_test	15	DL_test	5			0		ta	1	1279	6	2	antiphase_hc_ios.wav	3	6	3	noise_calib_stim_LEFT.wav	1	36	blb_dichoticlistening_ta-ta.mp3	ta	ta	0	left
6.6.0	win	2023-06-27	06:50:48	0	0	5eaecb0824839e59ed3523eb	2	1	DL_test	15	DL_test	6			0		pa	1	801	6	2	antiphase_hc_ios.wav	3	6	3	noise_calib_stim_LEFT.wav	1	25	blb_dichoticlistening_pa-ba.mp3	pa	ba	1	left
6.6.0	win	2023-06-27	06:50:48	0	0	5eaecb0824839e59ed3523eb	2	1	DL_test	15	DL_test	7			0		ba	1	1281	6	2	antiphase_hc_ios.wav	3	6	3	noise_calib_stim_LEFT.wav	1	1	blb_dichoticlistening_ba-ba.mp3	ba	ba	0	left
6.6.0	win	2023-06-27	06:50:48	0	0	5eaecb0824839e59ed3523eb	2	1	DL_test	15	DL_test	8			0		pa	1	1562	6	2	antiphase_hc_ios.wav	3	6	3	noise_calib_stim_LEFT.wav	1	27	blb_dichoticlistening_pa-ga.mp3	pa	ga	1	left
6.6.0	win	2023-06-27	06:50:48	0	0	5eaecb0824839e59ed3523eb	2	1	DL_test	15	DL_test	9			0		ka	1	822	6	2	antiphase_hc_ios.wav	3	6	3	noise_calib_stim_LEFT.wav	1	21	blb_dichoticlistening_ka-ga.mp3	ka	ga	1	left
6.6.0	win	2023-06-27	06:50:48	0	0	5eaecb0824839e59ed3523eb	2	1	DL_test	15	DL_test	10			0		ba	1	1050	6	2	antiphase_hc_ios.wav	3	6	3	noise_calib_stim_LEFT.wav	1	2	blb_dichoticlistening_ba-da.mp3	ba	da	1	left
6.6.0	win	2023-06-27	06:50:48	0	0	5eaecb0824839e59ed3523eb	2	1	DL_test	15	DL_test	11			0		ga	1	1129	6	2	antiphase_hc_ios.wav	3	6	3	noise_calib_stim_LEFT.wav	1	9	blb_dichoticlistening_da-ga.mp3	da	ga	1	right
6.6.0	win	2023-06-27	06:50:48	0	0	5eaecb0824839e59ed3523eb	2	1	DL_test	15	DL_test	12			0		pa	1	1019	6	2	antiphase_hc_ios.wav	3	6	3	noise_calib_stim_LEFT.wav	1	28	blb_dichoticlistening_pa-ka.mp3	pa	ka	1	left
6.6.0	win	2023-06-27	06:50:48	0	0	5eaecb0824839e59ed3523eb	2	1	DL_test	15	DL_test	13			0		ka	0	856	6	2	antiphase_hc_ios.wav	3	6	3	noise_calib_stim_LEFT.wav	1	33	blb_dichoticlistening_ta-ga.mp3	ta	ga	1	other
6.6.0	win	2023-06-27	06:50:48	0	0	5eaecb0824839e59ed3523eb	2	1	DL_test	15	DL_test	14			0		ka	1	982	6	2	antiphase_hc_ios.wav	3	6	3	noise_calib_stim_LEFT.wav	1	20	blb_dichoticlistening_ka-da.mp3	ka	da	1	left
6.6.0	win	2023-06-27	06:50:48	0	0	5eaecb0824839e59ed3523eb	2	1	DL_test	15	DL_test	15			0		ba	1	1252	6	2	antiphase_hc_ios.wav	3	6	3	noise_calib_stim_LEFT.wav	1	7	blb_dichoticlistening_da-ba.mp3	da	ba	1	right
6.6.0	win	2023-06-27	06:50:48	0	0	5eaecb0824839e59ed3523eb	2	1	DL_test	15	DL_test	16			0		ka	1	849	6	2	antiphase_hc_ios.wav	3	6	3	noise_calib_stim_LEFT.wav	1	16	blb_dichoticlistening_ga-ka.mp3	ga	ka	1	right
6.6.0	win	2023-06-27	06:50:48	0	0	5eaecb0824839e59ed3523eb	2	1	DL_test	15	DL_test	17			0		pa	1	871	6	2	antiphase_hc_ios.wav	3	6	3	noise_calib_stim_LEFT.wav	1	35	blb_dichoticlistening_ta-pa.mp3	ta	pa	1	right
6.6.0	win	2023-06-27	06:50:48	0	0	5eaecb0824839e59ed3523eb	2	1	DL_test	15	DL_test	18			0		pa	1	915	6	2	antiphase_hc_ios.wav	3	6	3	noise_calib_stim_LEFT.wav	1	23	blb_dichoticlistening_ka-pa.mp3	ka	pa	1	right
6.6.0	win	2023-06-27	06:50:48	0	0	5eaecb0824839e59ed3523eb	2	1	DL_test	15	DL_test	19			0		pa	0	964	6	2	antiphase_hc_ios.wav	3	6	3	noise_calib_stim_LEFT.wav	1	10	blb_dichoticlistening_da-ka.mp3	da	ka	1	other
6.6.0	win	2023-06-27	06:50:48	0	0	5eaecb0824839e59ed3523eb	2	1	DL_test	15	DL_test	20			0		ka	1	925	6	2	antiphase_hc_ios.wav	3	6	3	noise_calib_stim_LEFT.wav	1	24	blb_dichoticlistening_ka-ta.mp3	ka	ta	1	left
6.6.0	win	2023-06-27	06:50:48	0	0	5eaecb0824839e59ed3523eb	2	1	DL_test	15	DL_test	21			0		pa	1	893	6	2	antiphase_hc_ios.wav	3	6	3	noise_calib_stim_LEFT.wav	1	29	blb_dichoticlistening_pa-pa.mp3	pa	pa	0	left
6.6.0	win	2023-06-27	06:50:48	0	0	5eaecb0824839e59ed3523eb	2	1	DL_test	15	DL_test	22			0		ka	1	712	6	2	antiphase_hc_ios.wav	3	6	3	noise_calib_stim_LEFT.wav	1	4	blb_dichoticlistening_ba-ka.mp3	ba	ka	1	right
6.6.0	win	2023-06-27	06:50:48	0	0	5eaecb0824839e59ed3523eb	2	1	DL_test	15	DL_test	23			0		ta	1	1033	6	2	antiphase_hc_ios.wav	3	6	3	noise_calib_stim_LEFT.wav	1	30	blb_dichoticlistening_pa-ta.mp3	pa	ta	1	right
6.6.0	win	2023-06-27	06:50:48	0	0	5eaecb0824839e59ed3523eb	2	1	DL_test	15	DL_test	24			0		pa	1	631	6	2	antiphase_hc_ios.wav	3	6	3	noise_calib_stim_LEFT.wav	1	26	blb_dichoticlistening_pa-da.mp3	pa	da	1	left
6.6.0	win	2023-06-27	06:50:48	0	0	5eaecb0824839e59ed3523eb	2	1	DL_test	15	DL_test	25			0		ka	1	1091	6	2	antiphase_hc_ios.wav	3	6	3	noise_calib_stim_LEFT.wav	1	22	blb_dichoticlistening_ka-ka.mp3	ka	ka	0	left
6.6.0	win	2023-06-27	06:50:48	0	0	5eaecb0824839e59ed3523eb	2	1	DL_test	15	DL_test	26			0		ka	1	718	6	2	antiphase_hc_ios.wav	3	6	3	noise_calib_stim_LEFT.wav	1	34	blb_dichoticlistening_ta-ka.mp3	ta	ka	1	right
6.6.0	win	2023-06-27	06:50:48	0	0	5eaecb0824839e59ed3523eb	2	1	DL_test	15	DL_test	27			0		pa	1	825	6	2	antiphase_hc_ios.wav	3	6	3	noise_calib_stim_LEFT.wav	1	5	blb_dichoticlistening_ba-pa.mp3	ba	pa	1	right
6.6.0	win	2023-06-27	06:50:48	0	0	5eaecb0824839e59ed3523eb	2	1	DL_test	15	DL_test	28			0		ba	1	1239	6	2	antiphase_hc_ios.wav	3	6	3	noise_calib_stim_LEFT.wav	1	3	blb_dichoticlistening_ba-ga.mp3	ba	ga	1	left
6.6.0	win	2023-06-27	06:50:48	0	0	5eaecb0824839e59ed3523eb	2	1	DL_test	15	DL_test	29			0		ba	1	1388	6	2	antiphase_hc_ios.wav	3	6	3	noise_calib_stim_LEFT.wav	1	13	blb_dichoticlistening_ga-ba.mp3	ga	ba	1	right
6.6.0	win	2023-06-27	06:50:48	0	0	5eaecb0824839e59ed3523eb	2	1	DL_test	15	DL_test	30			0		ka	1	826	6	2	antiphase_hc_ios.wav	3	6	3	noise_calib_stim_LEFT.wav	1	19	blb_dichoticlistening_ka-ba.mp3	ka	ba	1	left
6.6.0	win	2023-06-27	06:50:48	0	0	5eaecb0824839e59ed3523eb	2	1	DL_test	15	DL_test	31			0		ga	1	986	6	2	antiphase_hc_ios.wav	3	6	3	noise_calib_stim_LEFT.wav	1	15	blb_dichoticlistening_ga-ga.mp3	ga	ga	0	left
6.6.0	win	2023-06-27	06:50:48	0	0	5eaecb0824839e59ed3523eb	2	1	DL_test	15	DL_test	32			0		ka	0	800	6	2	antiphase_hc_ios.wav	3	6	3	noise_calib_stim_LEFT.wav	1	18	blb_dichoticlistening_ga-ta.mp3	ga	ta	1	other
6.6.0	win	2023-06-27	06:50:48	0	0	5eaecb0824839e59ed3523eb	2	1	DL_test	15	DL_test	33			0		ga	0	973	6	2	antiphase_hc_ios.wav	3	6	3	noise_calib_stim_LEFT.wav	1	8	blb_dichoticlistening_da-da.mp3	da	da	0	other
6.6.0	win	2023-06-27	06:50:48	0	0	5eaecb0824839e59ed3523eb	2	1	DL_test	15	DL_test	34			0		pa	1	1540	6	2	antiphase_hc_ios.wav	3	6	3	noise_calib_stim_LEFT.wav	1	17	blb_dichoticlistening_ga-pa.mp3	ga	pa	1	right
6.6.0	win	2023-06-27	06:50:48	0	0	5eaecb0824839e59ed3523eb	2	1	DL_test	15	DL_test	35			0		ka	0	719	6	2	antiphase_hc_ios.wav	3	6	3	noise_calib_stim_LEFT.wav	1	12	blb_dichoticlistening_da-ta.mp3	da	ta	1	other
6.6.0	win	2023-06-27	06:50:48	0	0	5eaecb0824839e59ed3523eb	2	1	DL_test	15	DL_test	36			0		ka	0	1416	6	2	antiphase_hc_ios.wav	3	6	3	noise_calib_stim_LEFT.wav	1	32	blb_dichoticlistening_ta-da.mp3	ta	da	1	other
6.6.0	win	2023-06-27	06:50:48	0	0	5eaecb0824839e59ed3523eb	2	1	DL_test	16	DL_test	1			0		pa	0	1087	6	2	antiphase_hc_ios.wav	3	6	3	noise_calib_stim_LEFT.wav	1	10	blb_dichoticlistening_da-ka.mp3	da	ka	1	other
6.6.0	win	2023-06-27	06:50:48	0	0	5eaecb0824839e59ed3523eb	2	1	DL_test	16	DL_test	2			0		ka	0	930	6	2	antiphase_hc_ios.wav	3	6	3	noise_calib_stim_LEFT.wav	1	31	blb_dichoticlistening_ta-ba.mp3	ta	ba	1	other
6.6.0	win	2023-06-27	06:50:48	0	0	5eaecb0824839e59ed3523eb	2	1	DL_test	16	DL_test	3			0		pa	1	1052	6	2	antiphase_hc_ios.wav	3	6	3	noise_calib_stim_LEFT.wav	1	11	blb_dichoticlistening_da-pa.mp3	da	pa	1	right
6.6.0	win	2023-06-27	06:50:48	0	0	5eaecb0824839e59ed3523eb	2	1	DL_test	16	DL_test	4			0		ba	1	1167	6	2	antiphase_hc_ios.wav	3	6	3	noise_calib_stim_LEFT.wav	1	3	blb_dichoticlistening_ba-ga.mp3	ba	ga	1	left
6.6.0	win	2023-06-27	06:50:48	0	0	5eaecb0824839e59ed3523eb	2	1	DL_test	16	DL_test	5			0		pa	1	1298	6	2	antiphase_hc_ios.wav	3	6	3	noise_calib_stim_LEFT.wav	1	23	blb_dichoticlistening_ka-pa.mp3	ka	pa	1	right
6.6.0	win	2023-06-27	06:50:48	0	0	5eaecb0824839e59ed3523eb	2	1	DL_test	16	DL_test	6			0		pa	1	899	6	2	antiphase_hc_ios.wav	3	6	3	noise_calib_stim_LEFT.wav	1	17	blb_dichoticlistening_ga-pa.mp3	ga	pa	1	right
6.6.0	win	2023-06-27	06:50:48	0	0	5eaecb0824839e59ed3523eb	2	1	DL_test	16	DL_test	7			0		ba	1	1102	6	2	antiphase_hc_ios.wav	3	6	3	noise_calib_stim_LEFT.wav	1	2	blb_dichoticlistening_ba-da.mp3	ba	da	1	left
6.6.0	win	2023-06-27	06:50:48	0	0	5eaecb0824839e59ed3523eb	2	1	DL_test	16	DL_test	8			0		ga	1	863	6	2	antiphase_hc_ios.wav	3	6	3	noise_calib_stim_LEFT.wav	1	14	blb_dichoticlistening_ga-da.mp3	ga	da	1	left
6.6.0	win	2023-06-27	06:50:48	0	0	5eaecb0824839e59ed3523eb	2	1	DL_test	16	DL_test	9			0		ta	1	979	6	2	antiphase_hc_ios.wav	3	6	3	noise_calib_stim_LEFT.wav	1	30	blb_dichoticlistening_pa-ta.mp3	pa	ta	1	right
6.6.0	win	2023-06-27	06:50:48	0	0	5eaecb0824839e59ed3523eb	2	1	DL_test	16	DL_test	10			0		ta	1	2148	6	2	antiphase_hc_ios.wav	3	6	3	noise_calib_stim_LEFT.wav	1	18	blb_dichoticlistening_ga-ta.mp3	ga	ta	1	right
6.6.0	win	2023-06-27	06:50:48	0	0	5eaecb0824839e59ed3523eb	2	1	DL_test	16	DL_test	11			0		ga	1	981	6	2	antiphase_hc_ios.wav	3	6	3	noise_calib_stim_LEFT.wav	1	9	blb_dichoticlistening_da-ga.mp3	da	ga	1	right
6.6.0	win	2023-06-27	06:50:48	0	0	5eaecb0824839e59ed3523eb	2	1	DL_test	16	DL_test	12			0		ka	1	918	6	2	antiphase_hc_ios.wav	3	6	3	noise_calib_stim_LEFT.wav	1	19	blb_dichoticlistening_ka-ba.mp3	ka	ba	1	left
6.6.0	win	2023-06-27	06:50:48	0	0	5eaecb0824839e59ed3523eb	2	1	DL_test	16	DL_test	13			0		ta	1	1424	6	2	antiphase_hc_ios.wav	3	6	3	noise_calib_stim_LEFT.wav	1	12	blb_dichoticlistening_da-ta.mp3	da	ta	1	right
6.6.0	win	2023-06-27	06:50:48	0	0	5eaecb0824839e59ed3523eb	2	1	DL_test	16	DL_test	14			0		ta	1	1015	6	2	antiphase_hc_ios.wav	3	6	3	noise_calib_stim_LEFT.wav	1	36	blb_dichoticlistening_ta-ta.mp3	ta	ta	0	left
6.6.0	win	2023-06-27	06:50:48	0	0	5eaecb0824839e59ed3523eb	2	1	DL_test	16	DL_test	15			0		pa	1	867	6	2	antiphase_hc_ios.wav	3	6	3	noise_calib_stim_LEFT.wav	1	26	blb_dichoticlistening_pa-da.mp3	pa	da	1	left
6.6.0	win	2023-06-27	06:50:48	0	0	5eaecb0824839e59ed3523eb	2	1	DL_test	16	DL_test	16			0		ka	1	919	6	2	antiphase_hc_ios.wav	3	6	3	noise_calib_stim_LEFT.wav	1	28	blb_dichoticlistening_pa-ka.mp3	pa	ka	1	right
6.6.0	win	2023-06-27	06:50:48	0	0	5eaecb0824839e59ed3523eb	2	1	DL_test	16	DL_test	17			0		pa	1	1107	6	2	antiphase_hc_ios.wav	3	6	3	noise_calib_stim_LEFT.wav	1	29	blb_dichoticlistening_pa-pa.mp3	pa	pa	0	left
6.6.0	win	2023-06-27	06:50:48	0	0	5eaecb0824839e59ed3523eb	2	1	DL_test	16	DL_test	18			0		ga	1	933	6	2	antiphase_hc_ios.wav	3	6	3	noise_calib_stim_LEFT.wav	1	15	blb_dichoticlistening_ga-ga.mp3	ga	ga	0	left
6.6.0	win	2023-06-27	06:50:48	0	0	5eaecb0824839e59ed3523eb	2	1	DL_test	16	DL_test	19			0		ka	0	806	6	2	antiphase_hc_ios.wav	3	6	3	noise_calib_stim_LEFT.wav	1	32	blb_dichoticlistening_ta-da.mp3	ta	da	1	other
6.6.0	win	2023-06-27	06:50:48	0	0	5eaecb0824839e59ed3523eb	2	1	DL_test	16	DL_test	20			0		ka	1	771	6	2	antiphase_hc_ios.wav	3	6	3	noise_calib_stim_LEFT.wav	1	20	blb_dichoticlistening_ka-da.mp3	ka	da	1	left
6.6.0	win	2023-06-27	06:50:48	0	0	5eaecb0824839e59ed3523eb	2	1	DL_test	16	DL_test	21			0		ka	1	813	6	2	antiphase_hc_ios.wav	3	6	3	noise_calib_stim_LEFT.wav	1	16	blb_dichoticlistening_ga-ka.mp3	ga	ka	1	right
6.6.0	win	2023-06-27	06:50:48	0	0	5eaecb0824839e59ed3523eb	2	1	DL_test	16	DL_test	22			0		pa	1	891	6	2	antiphase_hc_ios.wav	3	6	3	noise_calib_stim_LEFT.wav	1	5	blb_dichoticlistening_ba-pa.mp3	ba	pa	1	right
6.6.0	win	2023-06-27	06:50:48	0	0	5eaecb0824839e59ed3523eb	2	1	DL_test	16	DL_test	23			0		ta	1	943	6	2	antiphase_hc_ios.wav	3	6	3	noise_calib_stim_LEFT.wav	1	6	blb_dichoticlistening_ba-ta.mp3	ba	ta	1	right
6.6.0	win	2023-06-27	06:50:48	0	0	5eaecb0824839e59ed3523eb	2	1	DL_test	16	DL_test	24			0		ka	1	903	6	2	antiphase_hc_ios.wav	3	6	3	noise_calib_stim_LEFT.wav	1	4	blb_dichoticlistening_ba-ka.mp3	ba	ka	1	right
6.6.0	win	2023-06-27	06:50:48	0	0	5eaecb0824839e59ed3523eb	2	1	DL_test	16	DL_test	25			0		ga	0	695	6	2	antiphase_hc_ios.wav	3	6	3	noise_calib_stim_LEFT.wav	1	8	blb_dichoticlistening_da-da.mp3	da	da	0	other
6.6.0	win	2023-06-27	06:50:48	0	0	5eaecb0824839e59ed3523eb	2	1	DL_test	16	DL_test	26			0		ka	1	715	6	2	antiphase_hc_ios.wav	3	6	3	noise_calib_stim_LEFT.wav	1	21	blb_dichoticlistening_ka-ga.mp3	ka	ga	1	left
6.6.0	win	2023-06-27	06:50:48	0	0	5eaecb0824839e59ed3523eb	2	1	DL_test	16	DL_test	27			0		ka	0	686	6	2	antiphase_hc_ios.wav	3	6	3	noise_calib_stim_LEFT.wav	1	33	blb_dichoticlistening_ta-ga.mp3	ta	ga	1	other
6.6.0	win	2023-06-27	06:50:48	0	0	5eaecb0824839e59ed3523eb	2	1	DL_test	16	DL_test	28			0		ka	1	722	6	2	antiphase_hc_ios.wav	3	6	3	noise_calib_stim_LEFT.wav	1	34	blb_dichoticlistening_ta-ka.mp3	ta	ka	1	right
6.6.0	win	2023-06-27	06:50:48	0	0	5eaecb0824839e59ed3523eb	2	1	DL_test	16	DL_test	29			0		ka	1	706	6	2	antiphase_hc_ios.wav	3	6	3	noise_calib_stim_LEFT.wav	1	24	blb_dichoticlistening_ka-ta.mp3	ka	ta	1	left
6.6.0	win	2023-06-27	06:50:48	0	0	5eaecb0824839e59ed3523eb	2	1	DL_test	16	DL_test	30			0		ba	1	1158	6	2	antiphase_hc_ios.wav	3	6	3	noise_calib_stim_LEFT.wav	1	1	blb_dichoticlistening_ba-ba.mp3	ba	ba	0	left
6.6.0	win	2023-06-27	06:50:48	0	0	5eaecb0824839e59ed3523eb	2	1	DL_test	16	DL_test	31			0		pa	1	967	6	2	antiphase_hc_ios.wav	3	6	3	noise_calib_stim_LEFT.wav	1	25	blb_dichoticlistening_pa-ba.mp3	pa	ba	1	left
6.6.0	win	2023-06-27	06:50:48	0	0	5eaecb0824839e59ed3523eb	2	1	DL_test	16	DL_test	32			0		da	1	2230	6	2	antiphase_hc_ios.wav	3	6	3	noise_calib_stim_LEFT.wav	1	7	blb_dichoticlistening_da-ba.mp3	da	ba	1	left
6.6.0	win	2023-06-27	06:50:48	0	0	5eaecb0824839e59ed3523eb	2	1	DL_test	16	DL_test	33			0		pa	1	1021	6	2	antiphase_hc_ios.wav	3	6	3	noise_calib_stim_LEFT.wav	1	27	blb_dichoticlistening_pa-ga.mp3	pa	ga	1	left
6.6.0	win	2023-06-27	06:50:48	0	0	5eaecb0824839e59ed3523eb	2	1	DL_test	16	DL_test	34			0		ba	1	1363	6	2	antiphase_hc_ios.wav	3	6	3	noise_calib_stim_LEFT.wav	1	13	blb_dichoticlistening_ga-ba.mp3	ga	ba	1	right
6.6.0	win	2023-06-27	06:50:48	0	0	5eaecb0824839e59ed3523eb	2	1	DL_test	16	DL_test	35			0		ka	1	955	6	2	antiphase_hc_ios.wav	3	6	3	noise_calib_stim_LEFT.wav	1	22	blb_dichoticlistening_ka-ka.mp3	ka	ka	0	left
6.6.0	win	2023-06-27	06:50:48	0	0	5eaecb0824839e59ed3523eb	2	1	DL_test	16	DL_test	36			0		pa	1	955	6	2	antiphase_hc_ios.wav	3	6	3	noise_calib_stim_LEFT.wav	1	35	blb_dichoticlistening_ta-pa.mp3	ta	pa	1	right
6.6.0	win	2023-06-27	06:50:48	07:02:58	725962	5eaecb0824839e59ed3523eb	2	1	practice_z	22	practice_z	1	stimuli_distractor_trianglediamonds.svg	stimuli_target_diamondrectangles.svg	12	yes	44	1	1651	6	2	antiphase_hc_ios.wav	3	6	3	noise_calib_stim_LEFT.wav	1	35	blb_dichoticlistening_ta-pa.mp3	ta	pa	1	right
6.6.0	win	2023-06-27	06:50:48	07:02:58	725962	5eaecb0824839e59ed3523eb	2	1	practice_z	22	advance_on_keypress_ZEE	2	stimuli_distractor_trianglediamonds.svg	stimuli_target_diamondrectangles.svg	12	yes	57	0	1831	6	2	antiphase_hc_ios.wav	3	6	3	noise_calib_stim_LEFT.wav	1	35	blb_dichoticlistening_ta-pa.mp3	ta	pa	1	right
6.6.0	win	2023-06-27	06:50:48	07:03:04	731439	5eaecb0824839e59ed3523eb	2	1	practice_z	22	practice_z	3	stimuli_distractor_trianglediamonds.svg	stimuli_distractor_trianglediamonds.svg	15	no	0	1	2000	6	2	antiphase_hc_ios.wav	3	6	3	noise_calib_stim_LEFT.wav	1	35	blb_dichoticlistening_ta-pa.mp3	ta	pa	1	right
6.6.0	win	2023-06-27	06:50:48	07:03:04	731439	5eaecb0824839e59ed3523eb	2	1	practice_z	22	advance_on_keypress_ZEE	4	stimuli_distractor_trianglediamonds.svg	stimuli_distractor_trianglediamonds.svg	15	no	57	0	2058	6	2	antiphase_hc_ios.wav	3	6	3	noise_calib_stim_LEFT.wav	1	35	blb_dichoticlistening_ta-pa.mp3	ta	pa	1	right
6.6.0	win	2023-06-27	06:50:48	07:03:08	736126	5eaecb0824839e59ed3523eb	2	1	practice_z	22	practice_z	5	stimuli_target_squarediamonds.svg	stimuli_distractor_trianglediamonds.svg	5	yes	44	1	975	6	2	antiphase_hc_ios.wav	3	6	3	noise_calib_stim_LEFT.wav	1	35	blb_dichoticlistening_ta-pa.mp3	ta	pa	1	right
6.6.0	win	2023-06-27	06:50:48	07:03:08	736126	5eaecb0824839e59ed3523eb	2	1	practice_z	22	advance_on_keypress_ZEE	6	stimuli_target_squarediamonds.svg	stimuli_distractor_trianglediamonds.svg	5	yes	57	0	698	6	2	antiphase_hc_ios.wav	3	6	3	noise_calib_stim_LEFT.wav	1	35	blb_dichoticlistening_ta-pa.mp3	ta	pa	1	right
6.6.0	win	2023-06-27	06:50:48	07:03:13	740481	5eaecb0824839e59ed3523eb	2	1	practice_z	22	practice_z	7	stimuli_distractor_diamondtriangles.svg	stimuli_distractor_diamondtriangles.svg	13	no	0	1	2000	6	2	antiphase_hc_ios.wav	3	6	3	noise_calib_stim_LEFT.wav	1	35	blb_dichoticlistening_ta-pa.mp3	ta	pa	1	right
6.6.0	win	2023-06-27	06:50:48	07:03:13	740481	5eaecb0824839e59ed3523eb	2	1	practice_z	22	advance_on_keypress_ZEE	8	stimuli_distractor_diamondtriangles.svg	stimuli_distractor_diamondtriangles.svg	13	no	57	0	574	6	2	antiphase_hc_ios.wav	3	6	3	noise_calib_stim_LEFT.wav	1	35	blb_dichoticlistening_ta-pa.mp3	ta	pa	1	right
6.6.0	win	2023-06-27	06:50:48	07:03:17	744694	5eaecb0824839e59ed3523eb	2	1	practice_z	22	practice_z	9	stimuli_distractor_trianglediamonds.svg	stimuli_distractor_diamondtriangles.svg	16	no	0	1	2000	6	2	antiphase_hc_ios.wav	3	6	3	noise_calib_stim_LEFT.wav	1	35	blb_dichoticlistening_ta-pa.mp3	ta	pa	1	right
6.6.0	win	2023-06-27	06:50:48	07:03:17	744694	5eaecb0824839e59ed3523eb	2	1	practice_z	22	advance_on_keypress_ZEE	10	stimuli_distractor_trianglediamonds.svg	stimuli_distractor_diamondtriangles.svg	16	no	57	0	659	6	2	antiphase_hc_ios.wav	3	6	3	noise_calib_stim_LEFT.wav	1	35	blb_dichoticlistening_ta-pa.mp3	ta	pa	1	right
6.6.0	win	2023-06-27	06:50:48	07:03:21	748463	5eaecb0824839e59ed3523eb	2	1	practice_z	22	practice_z	11	stimuli_distractor_diamondtriangles.svg	stimuli_target_diamondrectangles.svg	8	yes	44	1	1474	6	2	antiphase_hc_ios.wav	3	6	3	noise_calib_stim_LEFT.wav	1	35	blb_dichoticlistening_ta-pa.mp3	ta	pa	1	right
6.6.0	win	2023-06-27	06:50:48	07:03:21	748463	5eaecb0824839e59ed3523eb	2	1	practice_z	22	advance_on_keypress_ZEE	12	stimuli_distractor_diamondtriangles.svg	stimuli_target_diamondrectangles.svg	8	yes	57	0	650	6	2	antiphase_hc_ios.wav	3	6	3	noise_calib_stim_LEFT.wav	1	35	blb_dichoticlistening_ta-pa.mp3	ta	pa	1	right
6.6.0	win	2023-06-27	06:50:48	07:03:24	751780	5eaecb0824839e59ed3523eb	2	1	practice_z	22	practice_z	13	stimuli_distractor_diamondtriangles.svg	stimuli_target_trianglerectangles.svg	9	yes	44	1	1011	6	2	antiphase_hc_ios.wav	3	6	3	noise_calib_stim_LEFT.wav	1	35	blb_dichoticlistening_ta-pa.mp3	ta	pa	1	right
6.6.0	win	2023-06-27	06:50:48	07:03:24	751780	5eaecb0824839e59ed3523eb	2	1	practice_z	22	advance_on_keypress_ZEE	14	stimuli_distractor_diamondtriangles.svg	stimuli_target_trianglerectangles.svg	9	yes	57	0	588	6	2	antiphase_hc_ios.wav	3	6	3	noise_calib_stim_LEFT.wav	1	35	blb_dichoticlistening_ta-pa.mp3	ta	pa	1	right
6.6.0	win	2023-06-27	06:50:48	07:03:28	756015	5eaecb0824839e59ed3523eb	2	1	practice_z	22	practice_z	15	stimuli_distractor_diamondtriangles.svg	stimuli_distractor_trianglediamonds.svg	14	no	0	1	2000	6	2	antiphase_hc_ios.wav	3	6	3	noise_calib_stim_LEFT.wav	1	35	blb_dichoticlistening_ta-pa.mp3	ta	pa	1	right
6.6.0	win	2023-06-27	06:50:48	07:03:28	756015	5eaecb0824839e59ed3523eb	2	1	practice_z	22	advance_on_keypress_ZEE	16	stimuli_distractor_diamondtriangles.svg	stimuli_distractor_trianglediamonds.svg	14	no	57	0	494	6	2	antiphase_hc_ios.wav	3	6	3	noise_calib_stim_LEFT.wav	1	35	blb_dichoticlistening_ta-pa.mp3	ta	pa	1	right
6.6.0	win	2023-06-27	06:50:48	07:03:31	758818	5eaecb0824839e59ed3523eb	2	1	practice_z	22	practice_z	17	stimuli_target_rectanglediamonds.svg	stimuli_distractor_diamondtriangles.svg	1	yes	44	1	657	6	2	antiphase_hc_ios.wav	3	6	3	noise_calib_stim_LEFT.wav	1	35	blb_dichoticlistening_ta-pa.mp3	ta	pa	1	right
6.6.0	win	2023-06-27	06:50:48	07:03:31	758818	5eaecb0824839e59ed3523eb	2	1	practice_z	22	advance_on_keypress_ZEE	18	stimuli_target_rectanglediamonds.svg	stimuli_distractor_diamondtriangles.svg	1	yes	57	0	750	6	2	antiphase_hc_ios.wav	3	6	3	noise_calib_stim_LEFT.wav	1	35	blb_dichoticlistening_ta-pa.mp3	ta	pa	1	right
6.6.0	win	2023-06-27	06:50:48	07:03:34	762242	5eaecb0824839e59ed3523eb	2	1	practice_z	22	practice_z	19	stimuli_target_diamondsquares.svg	stimuli_distractor_diamondtriangles.svg	3	yes	44	1	1034	6	2	antiphase_hc_ios.wav	3	6	3	noise_calib_stim_LEFT.wav	1	35	blb_dichoticlistening_ta-pa.mp3	ta	pa	1	right
6.6.0	win	2023-06-27	06:50:48	07:03:34	762242	5eaecb0824839e59ed3523eb	2	1	practice_z	22	advance_on_keypress_ZEE	20	stimuli_target_diamondsquares.svg	stimuli_distractor_diamondtriangles.svg	3	yes	57	0	574	6	2	antiphase_hc_ios.wav	3	6	3	noise_calib_stim_LEFT.wav	1	35	blb_dichoticlistening_ta-pa.mp3	ta	pa	1	right
6.6.0	win	2023-06-27	06:50:48	07:03:37	765167	5eaecb0824839e59ed3523eb	2	1	practice_z	22	practice_z	21	stimuli_target_rectanglediamonds.svg	stimuli_distractor_trianglediamonds.svg	4	yes	44	1	711	6	2	antiphase_hc_ios.wav	3	6	3	noise_calib_stim_LEFT.wav	1	35	blb_dichoticlistening_ta-pa.mp3	ta	pa	1	right
6.6.0	win	2023-06-27	06:50:48	07:03:37	765167	5eaecb0824839e59ed3523eb	2	1	practice_z	22	advance_on_keypress_ZEE	22	stimuli_target_rectanglediamonds.svg	stimuli_distractor_trianglediamonds.svg	4	yes	57	0	634	6	2	antiphase_hc_ios.wav	3	6	3	noise_calib_stim_LEFT.wav	1	35	blb_dichoticlistening_ta-pa.mp3	ta	pa	1	right
6.6.0	win	2023-06-27	06:50:48	07:03:40	768097	5eaecb0824839e59ed3523eb	2	1	practice_z	22	practice_z	23	stimuli_target_diamondsquares.svg	stimuli_distractor_trianglediamonds.svg	6	yes	44	1	644	6	2	antiphase_hc_ios.wav	3	6	3	noise_calib_stim_LEFT.wav	1	35	blb_dichoticlistening_ta-pa.mp3	ta	pa	1	right
6.6.0	win	2023-06-27	06:50:48	07:03:40	768097	5eaecb0824839e59ed3523eb	2	1	practice_z	22	advance_on_keypress_ZEE	24	stimuli_target_diamondsquares.svg	stimuli_distractor_trianglediamonds.svg	6	yes	57	0	1728	6	2	antiphase_hc_ios.wav	3	6	3	noise_calib_stim_LEFT.wav	1	35	blb_dichoticlistening_ta-pa.mp3	ta	pa	1	right
6.6.0	win	2023-06-27	06:50:48	07:03:44	772078	5eaecb0824839e59ed3523eb	2	1	practice_z	22	practice_z	25	stimuli_distractor_trianglediamonds.svg	stimuli_target_squarediamonds.svg	11	yes	44	1	595	6	2	antiphase_hc_ios.wav	3	6	3	noise_calib_stim_LEFT.wav	1	35	blb_dichoticlistening_ta-pa.mp3	ta	pa	1	right
6.6.0	win	2023-06-27	06:50:48	07:03:44	772078	5eaecb0824839e59ed3523eb	2	1	practice_z	22	advance_on_keypress_ZEE	26	stimuli_distractor_trianglediamonds.svg	stimuli_target_squarediamonds.svg	11	yes	57	0	620	6	2	antiphase_hc_ios.wav	3	6	3	noise_calib_stim_LEFT.wav	1	35	blb_dichoticlistening_ta-pa.mp3	ta	pa	1	right
6.6.0	win	2023-06-27	06:50:48	07:03:47	774865	5eaecb0824839e59ed3523eb	2	1	practice_z	22	practice_z	27	stimuli_distractor_diamondtriangles.svg	stimuli_target_rectangletriangles.svg	7	yes	44	1	520	6	2	antiphase_hc_ios.wav	3	6	3	noise_calib_stim_LEFT.wav	1	35	blb_dichoticlistening_ta-pa.mp3	ta	pa	1	right
6.6.0	win	2023-06-27	06:50:48	07:03:47	774865	5eaecb0824839e59ed3523eb	2	1	practice_z	22	advance_on_keypress_ZEE	28	stimuli_distractor_diamondtriangles.svg	stimuli_target_rectangletriangles.svg	7	yes	57	0	661	6	2	antiphase_hc_ios.wav	3	6	3	noise_calib_stim_LEFT.wav	1	35	blb_dichoticlistening_ta-pa.mp3	ta	pa	1	right
6.6.0	win	2023-06-27	06:50:48	07:03:50	777690	5eaecb0824839e59ed3523eb	2	1	practice_z	22	practice_z	29	stimuli_target_squarediamonds.svg	stimuli_distractor_diamondtriangles.svg	2	yes	44	1	506	6	2	antiphase_hc_ios.wav	3	6	3	noise_calib_stim_LEFT.wav	1	35	blb_dichoticlistening_ta-pa.mp3	ta	pa	1	right
6.6.0	win	2023-06-27	06:50:48	07:03:50	777690	5eaecb0824839e59ed3523eb	2	1	practice_z	22	advance_on_keypress_ZEE	30	stimuli_target_squarediamonds.svg	stimuli_distractor_diamondtriangles.svg	2	yes	57	0	504	6	2	antiphase_hc_ios.wav	3	6	3	noise_calib_stim_LEFT.wav	1	35	blb_dichoticlistening_ta-pa.mp3	ta	pa	1	right
6.6.0	win	2023-06-27	06:50:48	07:03:53	780559	5eaecb0824839e59ed3523eb	2	1	practice_z	22	practice_z	31	stimuli_distractor_trianglediamonds.svg	stimuli_target_rectanglediamonds.svg	10	yes	44	1	718	6	2	antiphase_hc_ios.wav	3	6	3	noise_calib_stim_LEFT.wav	1	35	blb_dichoticlistening_ta-pa.mp3	ta	pa	1	right
6.6.0	win	2023-06-27	06:50:48	07:03:53	780559	5eaecb0824839e59ed3523eb	2	1	practice_z	22	advance_on_keypress_ZEE	32	stimuli_distractor_trianglediamonds.svg	stimuli_target_rectanglediamonds.svg	10	yes	57	0	531	6	2	antiphase_hc_ios.wav	3	6	3	noise_calib_stim_LEFT.wav	1	35	blb_dichoticlistening_ta-pa.mp3	ta	pa	1	right
6.6.0	win	2023-06-27	06:50:48	07:04:01	788681	5eaecb0824839e59ed3523eb	2	1	main_z	24	main_z	1	stimuli_distractor_diamondtriangles.svg	stimuli_distractor_trianglediamonds.svg	37	no	0	1	2000	6	2	antiphase_hc_ios.wav	3	6	3	noise_calib_stim_LEFT.wav	1	35	blb_dichoticlistening_ta-pa.mp3	ta	pa	1	right
6.6.0	win	2023-06-27	06:50:48	07:04:01	788681	5eaecb0824839e59ed3523eb	2	1	main_z	24	advance_on_keypress_ZEE	2	stimuli_distractor_diamondtriangles.svg	stimuli_distractor_trianglediamonds.svg	37	no	57	0	687	6	2	antiphase_hc_ios.wav	3	6	3	noise_calib_stim_LEFT.wav	1	35	blb_dichoticlistening_ta-pa.mp3	ta	pa	1	right
6.6.0	win	2023-06-27	06:50:48	07:04:03	790556	5eaecb0824839e59ed3523eb	2	1	main_z	24	main_z	3	stimuli_distractor_trianglediamonds.svg	stimuli_target_diamondsquares.svg	28	yes	44	1	546	6	2	antiphase_hc_ios.wav	3	6	3	noise_calib_stim_LEFT.wav	1	35	blb_dichoticlistening_ta-pa.mp3	ta	pa	1	right
6.6.0	win	2023-06-27	06:50:48	07:04:03	790556	5eaecb0824839e59ed3523eb	2	1	main_z	24	advance_on_keypress_ZEE	4	stimuli_distractor_trianglediamonds.svg	stimuli_target_diamondsquares.svg	28	yes	57	0	1141	6	2	antiphase_hc_ios.wav	3	6	3	noise_calib_stim_LEFT.wav	1	35	blb_dichoticlistening_ta-pa.mp3	ta	pa	1	right
6.6.0	win	2023-06-27	06:50:48	07:04:05	792922	5eaecb0824839e59ed3523eb	2	1	main_z	24	main_z	5	stimuli_distractor_diamondtriangles.svg	stimuli_target_diamondsquares.svg	32	yes	44	1	580	6	2	antiphase_hc_ios.wav	3	6	3	noise_calib_stim_LEFT.wav	1	35	blb_dichoticlistening_ta-pa.mp3	ta	pa	1	right
6.6.0	win	2023-06-27	06:50:48	07:04:05	792922	5eaecb0824839e59ed3523eb	2	1	main_z	24	advance_on_keypress_ZEE	6	stimuli_distractor_diamondtriangles.svg	stimuli_target_diamondsquares.svg	32	yes	57	0	934	6	2	antiphase_hc_ios.wav	3	6	3	noise_calib_stim_LEFT.wav	1	35	blb_dichoticlistening_ta-pa.mp3	ta	pa	1	right
6.6.0	win	2023-06-27	06:50:48	07:04:07	795285	5eaecb0824839e59ed3523eb	2	1	main_z	24	main_z	7	stimuli_target_trianglesquares.svg	stimuli_distractor_diamondtriangles.svg	22	yes	44	1	779	6	2	antiphase_hc_ios.wav	3	6	3	noise_calib_stim_LEFT.wav	1	35	blb_dichoticlistening_ta-pa.mp3	ta	pa	1	right
6.6.0	win	2023-06-27	06:50:48	07:04:07	795285	5eaecb0824839e59ed3523eb	2	1	main_z	24	advance_on_keypress_ZEE	8	stimuli_target_trianglesquares.svg	stimuli_distractor_diamondtriangles.svg	22	yes	57	0	884	6	2	antiphase_hc_ios.wav	3	6	3	noise_calib_stim_LEFT.wav	1	35	blb_dichoticlistening_ta-pa.mp3	ta	pa	1	right
6.6.0	win	2023-06-27	06:50:48	07:04:11	798820	5eaecb0824839e59ed3523eb	2	1	main_z	24	main_z	9	stimuli_distractor_trianglediamonds.svg	stimuli_distractor_diamondtriangles.svg	36	no	0	1	2000	6	2	antiphase_hc_ios.wav	3	6	3	noise_calib_stim_LEFT.wav	1	35	blb_dichoticlistening_ta-pa.mp3	ta	pa	1	right
6.6.0	win	2023-06-27	06:50:48	07:04:11	798820	5eaecb0824839e59ed3523eb	2	1	main_z	24	advance_on_keypress_ZEE	10	stimuli_distractor_trianglediamonds.svg	stimuli_distractor_diamondtriangles.svg	36	no	57	0	593	6	2	antiphase_hc_ios.wav	3	6	3	noise_calib_stim_LEFT.wav	1	35	blb_dichoticlistening_ta-pa.mp3	ta	pa	1	right
6.6.0	win	2023-06-27	06:50:48	07:04:14	802051	5eaecb0824839e59ed3523eb	2	1	main_z	24	main_z	11	stimuli_distractor_diamondtriangles.svg	stimuli_distractor_trianglediamonds.svg	38	no	0	1	2000	6	2	antiphase_hc_ios.wav	3	6	3	noise_calib_stim_LEFT.wav	1	35	blb_dichoticlistening_ta-pa.mp3	ta	pa	1	right
6.6.0	win	2023-06-27	06:50:48	07:04:14	802051	5eaecb0824839e59ed3523eb	2	1	main_z	24	advance_on_keypress_ZEE	12	stimuli_distractor_diamondtriangles.svg	stimuli_distractor_trianglediamonds.svg	38	no	57	0	571	6	2	antiphase_hc_ios.wav	3	6	3	noise_calib_stim_LEFT.wav	1	35	blb_dichoticlistening_ta-pa.mp3	ta	pa	1	right
6.6.0	win	2023-06-27	06:50:48	07:04:15	803811	5eaecb0824839e59ed3523eb	2	1	main_z	24	main_z	13	stimuli_distractor_diamondtriangles.svg	stimuli_target_rectanglediamonds.svg	14	yes	44	1	548	6	2	antiphase_hc_ios.wav	3	6	3	noise_calib_stim_LEFT.wav	1	35	blb_dichoticlistening_ta-pa.mp3	ta	pa	1	right
6.6.0	win	2023-06-27	06:50:48	07:04:15	803811	5eaecb0824839e59ed3523eb	2	1	main_z	24	advance_on_keypress_ZEE	14	stimuli_distractor_diamondtriangles.svg	stimuli_target_rectanglediamonds.svg	14	yes	57	0	769	6	2	antiphase_hc_ios.wav	3	6	3	noise_calib_stim_LEFT.wav	1	35	blb_dichoticlistening_ta-pa.mp3	ta	pa	1	right
6.6.0	win	2023-06-27	06:50:48	07:04:17	805825	5eaecb0824839e59ed3523eb	2	1	main_z	24	main_z	15	stimuli_distractor_diamondtriangles.svg	stimuli_target_trianglerectangles.svg	29	yes	44	1	596	6	2	antiphase_hc_ios.wav	3	6	3	noise_calib_stim_LEFT.wav	1	35	blb_dichoticlistening_ta-pa.mp3	ta	pa	1	right
6.6.0	win	2023-06-27	06:50:48	07:04:17	805825	5eaecb0824839e59ed3523eb	2	1	main_z	24	advance_on_keypress_ZEE	16	stimuli_distractor_diamondtriangles.svg	stimuli_target_trianglerectangles.svg	29	yes	57	0	705	6	2	antiphase_hc_ios.wav	3	6	3	noise_calib_stim_LEFT.wav	1	35	blb_dichoticlistening_ta-pa.mp3	ta	pa	1	right
6.6.0	win	2023-06-27	06:50:48	07:04:20	807877	5eaecb0824839e59ed3523eb	2	1	main_z	24	main_z	17	stimuli_distractor_diamondtriangles.svg	stimuli_target_diamondrectangles.svg	31	yes	44	1	700	6	2	antiphase_hc_ios.wav	3	6	3	noise_calib_stim_LEFT.wav	1	35	blb_dichoticlistening_ta-pa.mp3	ta	pa	1	right
6.6.0	win	2023-06-27	06:50:48	07:04:20	807877	5eaecb0824839e59ed3523eb	2	1	main_z	24	advance_on_keypress_ZEE	18	stimuli_distractor_diamondtriangles.svg	stimuli_target_diamondrectangles.svg	31	yes	57	0	761	6	2	antiphase_hc_ios.wav	3	6	3	noise_calib_stim_LEFT.wav	1	35	blb_dichoticlistening_ta-pa.mp3	ta	pa	1	right
6.6.0	win	2023-06-27	06:50:48	07:04:22	810289	5eaecb0824839e59ed3523eb	2	1	main_z	24	main_z	19	stimuli_distractor_diamondtriangles.svg	stimuli_target_squaretriangles.svg	15	yes	44	1	997	6	2	antiphase_hc_ios.wav	3	6	3	noise_calib_stim_LEFT.wav	1	35	blb_dichoticlistening_ta-pa.mp3	ta	pa	1	right
6.6.0	win	2023-06-27	06:50:48	07:04:22	810289	5eaecb0824839e59ed3523eb	2	1	main_z	24	advance_on_keypress_ZEE	20	stimuli_distractor_diamondtriangles.svg	stimuli_target_squaretriangles.svg	15	yes	57	0	690	6	2	antiphase_hc_ios.wav	3	6	3	noise_calib_stim_LEFT.wav	1	35	blb_dichoticlistening_ta-pa.mp3	ta	pa	1	right
6.6.0	win	2023-06-27	06:50:48	07:04:25	813622	5eaecb0824839e59ed3523eb	2	1	main_z	24	main_z	21	stimuli_distractor_diamondtriangles.svg	stimuli_distractor_diamondtriangles.svg	40	no	0	1	2000	6	2	antiphase_hc_ios.wav	3	6	3	noise_calib_stim_LEFT.wav	1	35	blb_dichoticlistening_ta-pa.mp3	ta	pa	1	right
6.6.0	win	2023-06-27	06:50:48	07:04:25	813622	5eaecb0824839e59ed3523eb	2	1	main_z	24	advance_on_keypress_ZEE	22	stimuli_distractor_diamondtriangles.svg	stimuli_distractor_diamondtriangles.svg	40	no	57	0	559	6	2	antiphase_hc_ios.wav	3	6	3	noise_calib_stim_LEFT.wav	1	35	blb_dichoticlistening_ta-pa.mp3	ta	pa	1	right
6.6.0	win	2023-06-27	06:50:48	07:04:27	815563	5eaecb0824839e59ed3523eb	2	1	main_z	24	main_z	23	stimuli_target_diamondrectangles.svg	stimuli_distractor_trianglediamonds.svg	19	yes	44	1	744	6	2	antiphase_hc_ios.wav	3	6	3	noise_calib_stim_LEFT.wav	1	35	blb_dichoticlistening_ta-pa.mp3	ta	pa	1	right
6.6.0	win	2023-06-27	06:50:48	07:04:27	815563	5eaecb0824839e59ed3523eb	2	1	main_z	24	advance_on_keypress_ZEE	24	stimuli_target_diamondrectangles.svg	stimuli_distractor_trianglediamonds.svg	19	yes	57	0	752	6	2	antiphase_hc_ios.wav	3	6	3	noise_calib_stim_LEFT.wav	1	35	blb_dichoticlistening_ta-pa.mp3	ta	pa	1	right
6.6.0	win	2023-06-27	06:50:48	07:04:29	817653	5eaecb0824839e59ed3523eb	2	1	main_z	24	main_z	25	stimuli_target_diamondsquares.svg	stimuli_distractor_trianglediamonds.svg	20	yes	44	1	685	6	2	antiphase_hc_ios.wav	3	6	3	noise_calib_stim_LEFT.wav	1	35	blb_dichoticlistening_ta-pa.mp3	ta	pa	1	right
6.6.0	win	2023-06-27	06:50:48	07:04:29	817653	5eaecb0824839e59ed3523eb	2	1	main_z	24	advance_on_keypress_ZEE	26	stimuli_target_diamondsquares.svg	stimuli_distractor_trianglediamonds.svg	20	yes	57	0	678	6	2	antiphase_hc_ios.wav	3	6	3	noise_calib_stim_LEFT.wav	1	35	blb_dichoticlistening_ta-pa.mp3	ta	pa	1	right
6.6.0	win	2023-06-27	06:50:48	07:04:33	820982	5eaecb0824839e59ed3523eb	2	1	main_z	24	main_z	27	stimuli_distractor_trianglediamonds.svg	stimuli_distractor_trianglediamonds.svg	33	no	0	1	2000	6	2	antiphase_hc_ios.wav	3	6	3	noise_calib_stim_LEFT.wav	1	35	blb_dichoticlistening_ta-pa.mp3	ta	pa	1	right
6.6.0	win	2023-06-27	06:50:48	07:04:33	820982	5eaecb0824839e59ed3523eb	2	1	main_z	24	advance_on_keypress_ZEE	28	stimuli_distractor_trianglediamonds.svg	stimuli_distractor_trianglediamonds.svg	33	no	57	0	534	6	2	antiphase_hc_ios.wav	3	6	3	noise_calib_stim_LEFT.wav	1	35	blb_dichoticlistening_ta-pa.mp3	ta	pa	1	right
6.6.0	win	2023-06-27	06:50:48	07:04:34	822742	5eaecb0824839e59ed3523eb	2	1	main_z	24	main_z	29	stimuli_target_diamondsquares.svg	stimuli_distractor_diamondtriangles.svg	24	yes	44	1	579	6	2	antiphase_hc_ios.wav	3	6	3	noise_calib_stim_LEFT.wav	1	35	blb_dichoticlistening_ta-pa.mp3	ta	pa	1	right
6.6.0	win	2023-06-27	06:50:48	07:04:34	822742	5eaecb0824839e59ed3523eb	2	1	main_z	24	advance_on_keypress_ZEE	30	stimuli_target_diamondsquares.svg	stimuli_distractor_diamondtriangles.svg	24	yes	57	0	631	6	2	antiphase_hc_ios.wav	3	6	3	noise_calib_stim_LEFT.wav	1	35	blb_dichoticlistening_ta-pa.mp3	ta	pa	1	right
6.6.0	win	2023-06-27	06:50:48	07:04:37	824952	5eaecb0824839e59ed3523eb	2	1	main_z	24	main_z	31	stimuli_target_trianglesquares.svg	stimuli_distractor_trianglediamonds.svg	18	yes	44	1	925	6	2	antiphase_hc_ios.wav	3	6	3	noise_calib_stim_LEFT.wav	1	35	blb_dichoticlistening_ta-pa.mp3	ta	pa	1	right
6.6.0	win	2023-06-27	06:50:48	07:04:37	824952	5eaecb0824839e59ed3523eb	2	1	main_z	24	advance_on_keypress_ZEE	32	stimuli_target_trianglesquares.svg	stimuli_distractor_trianglediamonds.svg	18	yes	57	0	537	6	2	antiphase_hc_ios.wav	3	6	3	noise_calib_stim_LEFT.wav	1	35	blb_dichoticlistening_ta-pa.mp3	ta	pa	1	right
6.6.0	win	2023-06-27	06:50:48	07:04:39	827509	5eaecb0824839e59ed3523eb	2	1	main_z	24	main_z	33	stimuli_distractor_trianglediamonds.svg	stimuli_target_squarediamonds.svg	12	yes	44	1	1384	6	2	antiphase_hc_ios.wav	3	6	3	noise_calib_stim_LEFT.wav	1	35	blb_dichoticlistening_ta-pa.mp3	ta	pa	1	right
6.6.0	win	2023-06-27	06:50:48	07:04:39	827509	5eaecb0824839e59ed3523eb	2	1	main_z	24	advance_on_keypress_ZEE	34	stimuli_distractor_trianglediamonds.svg	stimuli_target_squarediamonds.svg	12	yes	57	0	506	6	2	antiphase_hc_ios.wav	3	6	3	noise_calib_stim_LEFT.wav	1	35	blb_dichoticlistening_ta-pa.mp3	ta	pa	1	right
6.6.0	win	2023-06-27	06:50:48	07:04:41	829346	5eaecb0824839e59ed3523eb	2	1	main_z	24	main_z	35	stimuli_distractor_trianglediamonds.svg	stimuli_target_squaretriangles.svg	11	yes	44	1	690	6	2	antiphase_hc_ios.wav	3	6	3	noise_calib_stim_LEFT.wav	1	35	blb_dichoticlistening_ta-pa.mp3	ta	pa	1	right
6.6.0	win	2023-06-27	06:50:48	07:04:41	829346	5eaecb0824839e59ed3523eb	2	1	main_z	24	advance_on_keypress_ZEE	36	stimuli_distractor_trianglediamonds.svg	stimuli_target_squaretriangles.svg	11	yes	57	0	618	6	2	antiphase_hc_ios.wav	3	6	3	noise_calib_stim_LEFT.wav	1	35	blb_dichoticlistening_ta-pa.mp3	ta	pa	1	right
6.6.0	win	2023-06-27	06:50:48	07:04:44	832604	5eaecb0824839e59ed3523eb	2	1	main_z	24	main_z	37	stimuli_distractor_trianglediamonds.svg	stimuli_distractor_trianglediamonds.svg	34	no	0	1	2000	6	2	antiphase_hc_ios.wav	3	6	3	noise_calib_stim_LEFT.wav	1	35	blb_dichoticlistening_ta-pa.mp3	ta	pa	1	right
6.6.0	win	2023-06-27	06:50:48	07:04:44	832604	5eaecb0824839e59ed3523eb	2	1	main_z	24	advance_on_keypress_ZEE	38	stimuli_distractor_trianglediamonds.svg	stimuli_distractor_trianglediamonds.svg	34	no	57	0	510	6	2	antiphase_hc_ios.wav	3	6	3	noise_calib_stim_LEFT.wav	1	35	blb_dichoticlistening_ta-pa.mp3	ta	pa	1	right
6.6.0	win	2023-06-27	06:50:48	07:04:46	834382	5eaecb0824839e59ed3523eb	2	1	main_z	24	main_z	39	stimuli_target_trianglerectangles.svg	stimuli_distractor_trianglediamonds.svg	17	yes	44	1	631	6	2	antiphase_hc_ios.wav	3	6	3	noise_calib_stim_LEFT.wav	1	35	blb_dichoticlistening_ta-pa.mp3	ta	pa	1	right
6.6.0	win	2023-06-27	06:50:48	07:04:46	834382	5eaecb0824839e59ed3523eb	2	1	main_z	24	advance_on_keypress_ZEE	40	stimuli_target_trianglerectangles.svg	stimuli_distractor_trianglediamonds.svg	17	yes	57	0	642	6	2	antiphase_hc_ios.wav	3	6	3	noise_calib_stim_LEFT.wav	1	35	blb_dichoticlistening_ta-pa.mp3	ta	pa	1	right
6.6.0	win	2023-06-27	06:50:48	07:04:49	837666	5eaecb0824839e59ed3523eb	2	1	main_z	24	main_z	41	stimuli_distractor_trianglediamonds.svg	stimuli_distractor_diamondtriangles.svg	35	no	0	1	2000	6	2	antiphase_hc_ios.wav	3	6	3	noise_calib_stim_LEFT.wav	1	35	blb_dichoticlistening_ta-pa.mp3	ta	pa	1	right
6.6.0	win	2023-06-27	06:50:48	07:04:49	837666	5eaecb0824839e59ed3523eb	2	1	main_z	24	advance_on_keypress_ZEE	42	stimuli_distractor_trianglediamonds.svg	stimuli_distractor_diamondtriangles.svg	35	no	57	0	515	6	2	antiphase_hc_ios.wav	3	6	3	noise_calib_stim_LEFT.wav	1	35	blb_dichoticlistening_ta-pa.mp3	ta	pa	1	right
6.6.0	win	2023-06-27	06:50:48	07:04:51	839403	5eaecb0824839e59ed3523eb	2	1	main_z	24	main_z	43	stimuli_distractor_trianglediamonds.svg	stimuli_target_trianglerectangles.svg	25	yes	44	1	574	6	2	antiphase_hc_ios.wav	3	6	3	noise_calib_stim_LEFT.wav	1	35	blb_dichoticlistening_ta-pa.mp3	ta	pa	1	right
6.6.0	win	2023-06-27	06:50:48	07:04:51	839403	5eaecb0824839e59ed3523eb	2	1	main_z	24	advance_on_keypress_ZEE	44	stimuli_distractor_trianglediamonds.svg	stimuli_target_trianglerectangles.svg	25	yes	57	0	631	6	2	antiphase_hc_ios.wav	3	6	3	noise_calib_stim_LEFT.wav	1	35	blb_dichoticlistening_ta-pa.mp3	ta	pa	1	right
6.6.0	win	2023-06-27	06:50:48	07:04:53	841272	5eaecb0824839e59ed3523eb	2	1	main_z	24	main_z	45	stimuli_distractor_diamondtriangles.svg	stimuli_target_trianglesquares.svg	30	yes	44	1	594	6	2	antiphase_hc_ios.wav	3	6	3	noise_calib_stim_LEFT.wav	1	35	blb_dichoticlistening_ta-pa.mp3	ta	pa	1	right
6.6.0	win	2023-06-27	06:50:48	07:04:53	841272	5eaecb0824839e59ed3523eb	2	1	main_z	24	advance_on_keypress_ZEE	46	stimuli_distractor_diamondtriangles.svg	stimuli_target_trianglesquares.svg	30	yes	57	0	572	6	2	antiphase_hc_ios.wav	3	6	3	noise_calib_stim_LEFT.wav	1	35	blb_dichoticlistening_ta-pa.mp3	ta	pa	1	right
6.6.0	win	2023-06-27	06:50:48	07:04:55	843404	5eaecb0824839e59ed3523eb	2	1	main_z	24	main_z	47	stimuli_distractor_trianglediamonds.svg	stimuli_target_rectangletriangles.svg	9	yes	44	1	911	6	2	antiphase_hc_ios.wav	3	6	3	noise_calib_stim_LEFT.wav	1	35	blb_dichoticlistening_ta-pa.mp3	ta	pa	1	right
6.6.0	win	2023-06-27	06:50:48	07:04:55	843404	5eaecb0824839e59ed3523eb	2	1	main_z	24	advance_on_keypress_ZEE	48	stimuli_distractor_trianglediamonds.svg	stimuli_target_rectangletriangles.svg	9	yes	57	0	482	6	2	antiphase_hc_ios.wav	3	6	3	noise_calib_stim_LEFT.wav	1	35	blb_dichoticlistening_ta-pa.mp3	ta	pa	1	right
6.6.0	win	2023-06-27	06:50:48	07:04:57	845365	5eaecb0824839e59ed3523eb	2	1	main_z	24	main_z	49	stimuli_target_rectangletriangles.svg	stimuli_distractor_trianglediamonds.svg	1	yes	44	1	825	6	2	antiphase_hc_ios.wav	3	6	3	noise_calib_stim_LEFT.wav	1	35	blb_dichoticlistening_ta-pa.mp3	ta	pa	1	right
6.6.0	win	2023-06-27	06:50:48	07:04:57	845365	5eaecb0824839e59ed3523eb	2	1	main_z	24	advance_on_keypress_ZEE	50	stimuli_target_rectangletriangles.svg	stimuli_distractor_trianglediamonds.svg	1	yes	57	0	522	6	2	antiphase_hc_ios.wav	3	6	3	noise_calib_stim_LEFT.wav	1	35	blb_dichoticlistening_ta-pa.mp3	ta	pa	1	right
6.6.0	win	2023-06-27	06:50:48	07:04:59	847320	5eaecb0824839e59ed3523eb	2	1	main_z	24	main_z	51	stimuli_distractor_trianglediamonds.svg	stimuli_target_rectanglediamonds.svg	10	yes	44	1	799	6	2	antiphase_hc_ios.wav	3	6	3	noise_calib_stim_LEFT.wav	1	35	blb_dichoticlistening_ta-pa.mp3	ta	pa	1	right
6.6.0	win	2023-06-27	06:50:48	07:04:59	847320	5eaecb0824839e59ed3523eb	2	1	main_z	24	advance_on_keypress_ZEE	52	stimuli_distractor_trianglediamonds.svg	stimuli_target_rectanglediamonds.svg	10	yes	57	0	523	6	2	antiphase_hc_ios.wav	3	6	3	noise_calib_stim_LEFT.wav	1	35	blb_dichoticlistening_ta-pa.mp3	ta	pa	1	right
6.6.0	win	2023-06-27	06:50:48	07:05:01	849301	5eaecb0824839e59ed3523eb	2	1	main_z	24	main_z	53	stimuli_target_squaretriangles.svg	stimuli_distractor_diamondtriangles.svg	7	yes	44	1	814	6	2	antiphase_hc_ios.wav	3	6	3	noise_calib_stim_LEFT.wav	1	35	blb_dichoticlistening_ta-pa.mp3	ta	pa	1	right
6.6.0	win	2023-06-27	06:50:48	07:05:01	849301	5eaecb0824839e59ed3523eb	2	1	main_z	24	advance_on_keypress_ZEE	54	stimuli_target_squaretriangles.svg	stimuli_distractor_diamondtriangles.svg	7	yes	57	0	489	6	2	antiphase_hc_ios.wav	3	6	3	noise_calib_stim_LEFT.wav	1	35	blb_dichoticlistening_ta-pa.mp3	ta	pa	1	right
6.6.0	win	2023-06-27	06:50:48	07:05:03	851398	5eaecb0824839e59ed3523eb	2	1	main_z	24	main_z	55	stimuli_target_squaretriangles.svg	stimuli_distractor_trianglediamonds.svg	3	yes	44	1	964	6	2	antiphase_hc_ios.wav	3	6	3	noise_calib_stim_LEFT.wav	1	35	blb_dichoticlistening_ta-pa.mp3	ta	pa	1	right
6.6.0	win	2023-06-27	06:50:48	07:05:03	851398	5eaecb0824839e59ed3523eb	2	1	main_z	24	advance_on_keypress_ZEE	56	stimuli_target_squaretriangles.svg	stimuli_distractor_trianglediamonds.svg	3	yes	57	0	523	6	2	antiphase_hc_ios.wav	3	6	3	noise_calib_stim_LEFT.wav	1	35	blb_dichoticlistening_ta-pa.mp3	ta	pa	1	right
6.6.0	win	2023-06-27	06:50:48	07:05:06	854566	5eaecb0824839e59ed3523eb	2	1	main_z	24	main_z	57	stimuli_distractor_diamondtriangles.svg	stimuli_distractor_diamondtriangles.svg	39	no	0	1	2000	6	2	antiphase_hc_ios.wav	3	6	3	noise_calib_stim_LEFT.wav	1	35	blb_dichoticlistening_ta-pa.mp3	ta	pa	1	right
6.6.0	win	2023-06-27	06:50:48	07:05:06	854566	5eaecb0824839e59ed3523eb	2	1	main_z	24	advance_on_keypress_ZEE	58	stimuli_distractor_diamondtriangles.svg	stimuli_distractor_diamondtriangles.svg	39	no	57	0	475	6	2	antiphase_hc_ios.wav	3	6	3	noise_calib_stim_LEFT.wav	1	35	blb_dichoticlistening_ta-pa.mp3	ta	pa	1	right
6.6.0	win	2023-06-27	06:50:48	07:05:08	856267	5eaecb0824839e59ed3523eb	2	1	main_z	24	main_z	59	stimuli_distractor_trianglediamonds.svg	stimuli_target_diamondrectangles.svg	27	yes	44	1	587	6	2	antiphase_hc_ios.wav	3	6	3	noise_calib_stim_LEFT.wav	1	35	blb_dichoticlistening_ta-pa.mp3	ta	pa	1	right
6.6.0	win	2023-06-27	06:50:48	07:05:08	856267	5eaecb0824839e59ed3523eb	2	1	main_z	24	advance_on_keypress_ZEE	60	stimuli_distractor_trianglediamonds.svg	stimuli_target_diamondrectangles.svg	27	yes	57	0	618	6	2	antiphase_hc_ios.wav	3	6	3	noise_calib_stim_LEFT.wav	1	35	blb_dichoticlistening_ta-pa.mp3	ta	pa	1	right
6.6.0	win	2023-06-27	06:50:48	07:05:10	858318	5eaecb0824839e59ed3523eb	2	1	main_z	24	main_z	61	stimuli_target_rectanglediamonds.svg	stimuli_distractor_trianglediamonds.svg	2	yes	44	1	790	6	2	antiphase_hc_ios.wav	3	6	3	noise_calib_stim_LEFT.wav	1	35	blb_dichoticlistening_ta-pa.mp3	ta	pa	1	right
6.6.0	win	2023-06-27	06:50:48	07:05:10	858318	5eaecb0824839e59ed3523eb	2	1	main_z	24	advance_on_keypress_ZEE	62	stimuli_target_rectanglediamonds.svg	stimuli_distractor_trianglediamonds.svg	2	yes	57	0	501	6	2	antiphase_hc_ios.wav	3	6	3	noise_calib_stim_LEFT.wav	1	35	blb_dichoticlistening_ta-pa.mp3	ta	pa	1	right
6.6.0	win	2023-06-27	06:50:48	07:05:12	860354	5eaecb0824839e59ed3523eb	2	1	main_z	24	main_z	63	stimuli_target_diamondrectangles.svg	stimuli_distractor_diamondtriangles.svg	23	yes	44	1	895	6	2	antiphase_hc_ios.wav	3	6	3	noise_calib_stim_LEFT.wav	1	35	blb_dichoticlistening_ta-pa.mp3	ta	pa	1	right
6.6.0	win	2023-06-27	06:50:48	07:05:12	860354	5eaecb0824839e59ed3523eb	2	1	main_z	24	advance_on_keypress_ZEE	64	stimuli_target_diamondrectangles.svg	stimuli_distractor_diamondtriangles.svg	23	yes	57	0	451	6	2	antiphase_hc_ios.wav	3	6	3	noise_calib_stim_LEFT.wav	1	35	blb_dichoticlistening_ta-pa.mp3	ta	pa	1	right
6.6.0	win	2023-06-27	06:50:48	07:05:14	862308	5eaecb0824839e59ed3523eb	2	1	main_z	24	main_z	65	stimuli_distractor_diamondtriangles.svg	stimuli_target_squarediamonds.svg	16	yes	44	1	852	6	2	antiphase_hc_ios.wav	3	6	3	noise_calib_stim_LEFT.wav	1	35	blb_dichoticlistening_ta-pa.mp3	ta	pa	1	right
6.6.0	win	2023-06-27	06:50:48	07:05:14	862308	5eaecb0824839e59ed3523eb	2	1	main_z	24	advance_on_keypress_ZEE	66	stimuli_distractor_diamondtriangles.svg	stimuli_target_squarediamonds.svg	16	yes	57	0	509	6	2	antiphase_hc_ios.wav	3	6	3	noise_calib_stim_LEFT.wav	1	35	blb_dichoticlistening_ta-pa.mp3	ta	pa	1	right
6.6.0	win	2023-06-27	06:50:48	07:05:16	864346	5eaecb0824839e59ed3523eb	2	1	main_z	24	main_z	67	stimuli_distractor_trianglediamonds.svg	stimuli_target_trianglesquares.svg	26	yes	44	1	891	6	2	antiphase_hc_ios.wav	3	6	3	noise_calib_stim_LEFT.wav	1	35	blb_dichoticlistening_ta-pa.mp3	ta	pa	1	right
6.6.0	win	2023-06-27	06:50:48	07:05:16	864346	5eaecb0824839e59ed3523eb	2	1	main_z	24	advance_on_keypress_ZEE	68	stimuli_distractor_trianglediamonds.svg	stimuli_target_trianglesquares.svg	26	yes	57	0	476	6	2	antiphase_hc_ios.wav	3	6	3	noise_calib_stim_LEFT.wav	1	35	blb_dichoticlistening_ta-pa.mp3	ta	pa	1	right
6.6.0	win	2023-06-27	06:50:48	07:05:18	866324	5eaecb0824839e59ed3523eb	2	1	main_z	24	main_z	69	stimuli_target_rectanglediamonds.svg	stimuli_distractor_diamondtriangles.svg	6	yes	44	1	871	6	2	antiphase_hc_ios.wav	3	6	3	noise_calib_stim_LEFT.wav	1	35	blb_dichoticlistening_ta-pa.mp3	ta	pa	1	right
6.6.0	win	2023-06-27	06:50:48	07:05:18	866324	5eaecb0824839e59ed3523eb	2	1	main_z	24	advance_on_keypress_ZEE	70	stimuli_target_rectanglediamonds.svg	stimuli_distractor_diamondtriangles.svg	6	yes	57	0	413	6	2	antiphase_hc_ios.wav	3	6	3	noise_calib_stim_LEFT.wav	1	35	blb_dichoticlistening_ta-pa.mp3	ta	pa	1	right
6.6.0	win	2023-06-27	06:50:48	07:05:20	868242	5eaecb0824839e59ed3523eb	2	1	main_z	24	main_z	71	stimuli_distractor_diamondtriangles.svg	stimuli_target_rectangletriangles.svg	13	yes	44	1	858	6	2	antiphase_hc_ios.wav	3	6	3	noise_calib_stim_LEFT.wav	1	35	blb_dichoticlistening_ta-pa.mp3	ta	pa	1	right
6.6.0	win	2023-06-27	06:50:48	07:05:20	868242	5eaecb0824839e59ed3523eb	2	1	main_z	24	advance_on_keypress_ZEE	72	stimuli_distractor_diamondtriangles.svg	stimuli_target_rectangletriangles.svg	13	yes	57	0	483	6	2	antiphase_hc_ios.wav	3	6	3	noise_calib_stim_LEFT.wav	1	35	blb_dichoticlistening_ta-pa.mp3	ta	pa	1	right
6.6.0	win	2023-06-27	06:50:48	07:05:22	870124	5eaecb0824839e59ed3523eb	2	1	main_z	24	main_z	73	stimuli_target_rectangletriangles.svg	stimuli_distractor_diamondtriangles.svg	5	yes	44	1	758	6	2	antiphase_hc_ios.wav	3	6	3	noise_calib_stim_LEFT.wav	1	35	blb_dichoticlistening_ta-pa.mp3	ta	pa	1	right
6.6.0	win	2023-06-27	06:50:48	07:05:22	870124	5eaecb0824839e59ed3523eb	2	1	main_z	24	advance_on_keypress_ZEE	74	stimuli_target_rectangletriangles.svg	stimuli_distractor_diamondtriangles.svg	5	yes	57	0	549	6	2	antiphase_hc_ios.wav	3	6	3	noise_calib_stim_LEFT.wav	1	35	blb_dichoticlistening_ta-pa.mp3	ta	pa	1	right
6.6.0	win	2023-06-27	06:50:48	07:05:24	872133	5eaecb0824839e59ed3523eb	2	1	main_z	24	main_z	75	stimuli_target_squarediamonds.svg	stimuli_distractor_trianglediamonds.svg	4	yes	44	1	819	6	2	antiphase_hc_ios.wav	3	6	3	noise_calib_stim_LEFT.wav	1	35	blb_dichoticlistening_ta-pa.mp3	ta	pa	1	right
6.6.0	win	2023-06-27	06:50:48	07:05:24	872133	5eaecb0824839e59ed3523eb	2	1	main_z	24	advance_on_keypress_ZEE	76	stimuli_target_squarediamonds.svg	stimuli_distractor_trianglediamonds.svg	4	yes	57	0	427	6	2	antiphase_hc_ios.wav	3	6	3	noise_calib_stim_LEFT.wav	1	35	blb_dichoticlistening_ta-pa.mp3	ta	pa	1	right
6.6.0	win	2023-06-27	06:50:48	07:05:26	874052	5eaecb0824839e59ed3523eb	2	1	main_z	24	main_z	77	stimuli_target_squarediamonds.svg	stimuli_distractor_diamondtriangles.svg	8	yes	44	1	856	6	2	antiphase_hc_ios.wav	3	6	3	noise_calib_stim_LEFT.wav	1	35	blb_dichoticlistening_ta-pa.mp3	ta	pa	1	right
6.6.0	win	2023-06-27	06:50:48	07:05:26	874052	5eaecb0824839e59ed3523eb	2	1	main_z	24	advance_on_keypress_ZEE	78	stimuli_target_squarediamonds.svg	stimuli_distractor_diamondtriangles.svg	8	yes	57	0	415	6	2	antiphase_hc_ios.wav	3	6	3	noise_calib_stim_LEFT.wav	1	35	blb_dichoticlistening_ta-pa.mp3	ta	pa	1	right
6.6.0	win	2023-06-27	06:50:48	07:05:28	876002	5eaecb0824839e59ed3523eb	2	1	main_z	24	main_z	79	stimuli_target_trianglerectangles.svg	stimuli_distractor_diamondtriangles.svg	21	yes	44	1	891	6	2	antiphase_hc_ios.wav	3	6	3	noise_calib_stim_LEFT.wav	1	35	blb_dichoticlistening_ta-pa.mp3	ta	pa	1	right
6.6.0	win	2023-06-27	06:50:48	07:05:28	876002	5eaecb0824839e59ed3523eb	2	1	main_z	24	advance_on_keypress_ZEE	80	stimuli_target_trianglerectangles.svg	stimuli_distractor_diamondtriangles.svg	21	yes	57	0	383	6	2	antiphase_hc_ios.wav	3	6	3	noise_calib_stim_LEFT.wav	1	35	blb_dichoticlistening_ta-pa.mp3	ta	pa	1	right
6.6.0	win	2023-06-27	06:50:48	07:05:31	879025	5eaecb0824839e59ed3523eb	2	1	main_z	24	main_z	81	stimuli_distractor_diamondtriangles.svg	stimuli_distractor_diamondtriangles.svg	39	no	0	1	2000	6	2	antiphase_hc_ios.wav	3	6	3	noise_calib_stim_LEFT.wav	1	35	blb_dichoticlistening_ta-pa.mp3	ta	pa	1	right
6.6.0	win	2023-06-27	06:50:48	07:05:31	879025	5eaecb0824839e59ed3523eb	2	1	main_z	24	advance_on_keypress_ZEE	82	stimuli_distractor_diamondtriangles.svg	stimuli_distractor_diamondtriangles.svg	39	no	57	0	569	6	2	antiphase_hc_ios.wav	3	6	3	noise_calib_stim_LEFT.wav	1	35	blb_dichoticlistening_ta-pa.mp3	ta	pa	1	right
6.6.0	win	2023-06-27	06:50:48	07:05:33	881009	5eaecb0824839e59ed3523eb	2	1	main_z	24	main_z	83	stimuli_target_squarediamonds.svg	stimuli_distractor_trianglediamonds.svg	4	yes	44	1	771	6	2	antiphase_hc_ios.wav	3	6	3	noise_calib_stim_LEFT.wav	1	35	blb_dichoticlistening_ta-pa.mp3	ta	pa	1	right
6.6.0	win	2023-06-27	06:50:48	07:05:33	881009	5eaecb0824839e59ed3523eb	2	1	main_z	24	advance_on_keypress_ZEE	84	stimuli_target_squarediamonds.svg	stimuli_distractor_trianglediamonds.svg	4	yes	57	0	532	6	2	antiphase_hc_ios.wav	3	6	3	noise_calib_stim_LEFT.wav	1	35	blb_dichoticlistening_ta-pa.mp3	ta	pa	1	right
6.6.0	win	2023-06-27	06:50:48	07:05:35	882924	5eaecb0824839e59ed3523eb	2	1	main_z	24	main_z	85	stimuli_distractor_diamondtriangles.svg	stimuli_target_rectangletriangles.svg	13	yes	44	1	738	6	2	antiphase_hc_ios.wav	3	6	3	noise_calib_stim_LEFT.wav	1	35	blb_dichoticlistening_ta-pa.mp3	ta	pa	1	right
6.6.0	win	2023-06-27	06:50:48	07:05:35	882924	5eaecb0824839e59ed3523eb	2	1	main_z	24	advance_on_keypress_ZEE	86	stimuli_distractor_diamondtriangles.svg	stimuli_target_rectangletriangles.svg	13	yes	57	0	384	6	2	antiphase_hc_ios.wav	3	6	3	noise_calib_stim_LEFT.wav	1	35	blb_dichoticlistening_ta-pa.mp3	ta	pa	1	right
6.6.0	win	2023-06-27	06:50:48	07:05:38	885951	5eaecb0824839e59ed3523eb	2	1	main_z	24	main_z	87	stimuli_distractor_diamondtriangles.svg	stimuli_distractor_diamondtriangles.svg	40	no	0	1	2000	6	2	antiphase_hc_ios.wav	3	6	3	noise_calib_stim_LEFT.wav	1	35	blb_dichoticlistening_ta-pa.mp3	ta	pa	1	right
6.6.0	win	2023-06-27	06:50:48	07:05:38	885951	5eaecb0824839e59ed3523eb	2	1	main_z	24	advance_on_keypress_ZEE	88	stimuli_distractor_diamondtriangles.svg	stimuli_distractor_diamondtriangles.svg	40	no	57	0	554	6	2	antiphase_hc_ios.wav	3	6	3	noise_calib_stim_LEFT.wav	1	35	blb_dichoticlistening_ta-pa.mp3	ta	pa	1	right
6.6.0	win	2023-06-27	06:50:48	07:05:39	887852	5eaecb0824839e59ed3523eb	2	1	main_z	24	main_z	89	stimuli_distractor_diamondtriangles.svg	stimuli_target_squaretriangles.svg	15	yes	44	1	704	6	2	antiphase_hc_ios.wav	3	6	3	noise_calib_stim_LEFT.wav	1	35	blb_dichoticlistening_ta-pa.mp3	ta	pa	1	right
6.6.0	win	2023-06-27	06:50:48	07:05:39	887852	5eaecb0824839e59ed3523eb	2	1	main_z	24	advance_on_keypress_ZEE	90	stimuli_distractor_diamondtriangles.svg	stimuli_target_squaretriangles.svg	15	yes	57	0	460	6	2	antiphase_hc_ios.wav	3	6	3	noise_calib_stim_LEFT.wav	1	35	blb_dichoticlistening_ta-pa.mp3	ta	pa	1	right
6.6.0	win	2023-06-27	06:50:48	07:05:43	890947	5eaecb0824839e59ed3523eb	2	1	main_z	24	main_z	91	stimuli_distractor_diamondtriangles.svg	stimuli_distractor_trianglediamonds.svg	37	no	0	1	2000	6	2	antiphase_hc_ios.wav	3	6	3	noise_calib_stim_LEFT.wav	1	35	blb_dichoticlistening_ta-pa.mp3	ta	pa	1	right
6.6.0	win	2023-06-27	06:50:48	07:05:43	890947	5eaecb0824839e59ed3523eb	2	1	main_z	24	advance_on_keypress_ZEE	92	stimuli_distractor_diamondtriangles.svg	stimuli_distractor_trianglediamonds.svg	37	no	57	0	577	6	2	antiphase_hc_ios.wav	3	6	3	noise_calib_stim_LEFT.wav	1	35	blb_dichoticlistening_ta-pa.mp3	ta	pa	1	right
6.6.0	win	2023-06-27	06:50:48	07:05:45	892927	5eaecb0824839e59ed3523eb	2	1	main_z	24	main_z	93	stimuli_distractor_trianglediamonds.svg	stimuli_target_squaretriangles.svg	11	yes	44	1	766	6	2	antiphase_hc_ios.wav	3	6	3	noise_calib_stim_LEFT.wav	1	35	blb_dichoticlistening_ta-pa.mp3	ta	pa	1	right
6.6.0	win	2023-06-27	06:50:48	07:05:45	892927	5eaecb0824839e59ed3523eb	2	1	main_z	24	advance_on_keypress_ZEE	94	stimuli_distractor_trianglediamonds.svg	stimuli_target_squaretriangles.svg	11	yes	57	0	420	6	2	antiphase_hc_ios.wav	3	6	3	noise_calib_stim_LEFT.wav	1	35	blb_dichoticlistening_ta-pa.mp3	ta	pa	1	right
6.6.0	win	2023-06-27	06:50:48	07:05:46	894841	5eaecb0824839e59ed3523eb	2	1	main_z	24	main_z	95	stimuli_distractor_diamondtriangles.svg	stimuli_target_trianglesquares.svg	30	yes	44	1	850	6	2	antiphase_hc_ios.wav	3	6	3	noise_calib_stim_LEFT.wav	1	35	blb_dichoticlistening_ta-pa.mp3	ta	pa	1	right
6.6.0	win	2023-06-27	06:50:48	07:05:46	894841	5eaecb0824839e59ed3523eb	2	1	main_z	24	advance_on_keypress_ZEE	96	stimuli_distractor_diamondtriangles.svg	stimuli_target_trianglesquares.svg	30	yes	57	0	385	6	2	antiphase_hc_ios.wav	3	6	3	noise_calib_stim_LEFT.wav	1	35	blb_dichoticlistening_ta-pa.mp3	ta	pa	1	right
6.6.0	win	2023-06-27	06:50:48	07:05:48	896667	5eaecb0824839e59ed3523eb	2	1	main_z	24	main_z	97	stimuli_distractor_diamondtriangles.svg	stimuli_target_diamondrectangles.svg	31	yes	44	1	794	6	2	antiphase_hc_ios.wav	3	6	3	noise_calib_stim_LEFT.wav	1	35	blb_dichoticlistening_ta-pa.mp3	ta	pa	1	right
6.6.0	win	2023-06-27	06:50:48	07:05:48	896667	5eaecb0824839e59ed3523eb	2	1	main_z	24	advance_on_keypress_ZEE	98	stimuli_distractor_diamondtriangles.svg	stimuli_target_diamondrectangles.svg	31	yes	57	0	342	6	2	antiphase_hc_ios.wav	3	6	3	noise_calib_stim_LEFT.wav	1	35	blb_dichoticlistening_ta-pa.mp3	ta	pa	1	right
6.6.0	win	2023-06-27	06:50:48	07:05:50	898508	5eaecb0824839e59ed3523eb	2	1	main_z	24	main_z	99	stimuli_distractor_diamondtriangles.svg	stimuli_target_rectanglediamonds.svg	14	yes	44	1	854	6	2	antiphase_hc_ios.wav	3	6	3	noise_calib_stim_LEFT.wav	1	35	blb_dichoticlistening_ta-pa.mp3	ta	pa	1	right
6.6.0	win	2023-06-27	06:50:48	07:05:50	898508	5eaecb0824839e59ed3523eb	2	1	main_z	24	advance_on_keypress_ZEE	100	stimuli_distractor_diamondtriangles.svg	stimuli_target_rectanglediamonds.svg	14	yes	57	0	363	6	2	antiphase_hc_ios.wav	3	6	3	noise_calib_stim_LEFT.wav	1	35	blb_dichoticlistening_ta-pa.mp3	ta	pa	1	right
6.6.0	win	2023-06-27	06:50:48	07:05:52	900496	5eaecb0824839e59ed3523eb	2	1	main_z	24	main_z	101	stimuli_target_trianglesquares.svg	stimuli_distractor_diamondtriangles.svg	22	yes	44	1	976	6	2	antiphase_hc_ios.wav	3	6	3	noise_calib_stim_LEFT.wav	1	35	blb_dichoticlistening_ta-pa.mp3	ta	pa	1	right
6.6.0	win	2023-06-27	06:50:48	07:05:52	900496	5eaecb0824839e59ed3523eb	2	1	main_z	24	advance_on_keypress_ZEE	102	stimuli_target_trianglesquares.svg	stimuli_distractor_diamondtriangles.svg	22	yes	57	0	385	6	2	antiphase_hc_ios.wav	3	6	3	noise_calib_stim_LEFT.wav	1	35	blb_dichoticlistening_ta-pa.mp3	ta	pa	1	right
6.6.0	win	2023-06-27	06:50:48	07:05:54	902291	5eaecb0824839e59ed3523eb	2	1	main_z	24	main_z	103	stimuli_distractor_trianglediamonds.svg	stimuli_target_squarediamonds.svg	12	yes	44	1	773	6	2	antiphase_hc_ios.wav	3	6	3	noise_calib_stim_LEFT.wav	1	35	blb_dichoticlistening_ta-pa.mp3	ta	pa	1	right
6.6.0	win	2023-06-27	06:50:48	07:05:54	902291	5eaecb0824839e59ed3523eb	2	1	main_z	24	advance_on_keypress_ZEE	104	stimuli_distractor_trianglediamonds.svg	stimuli_target_squarediamonds.svg	12	yes	57	0	351	6	2	antiphase_hc_ios.wav	3	6	3	noise_calib_stim_LEFT.wav	1	35	blb_dichoticlistening_ta-pa.mp3	ta	pa	1	right
6.6.0	win	2023-06-27	06:50:48	07:05:56	904281	5eaecb0824839e59ed3523eb	2	1	main_z	24	main_z	105	stimuli_target_diamondrectangles.svg	stimuli_distractor_trianglediamonds.svg	19	yes	44	1	998	6	2	antiphase_hc_ios.wav	3	6	3	noise_calib_stim_LEFT.wav	1	35	blb_dichoticlistening_ta-pa.mp3	ta	pa	1	right
6.6.0	win	2023-06-27	06:50:48	07:05:56	904281	5eaecb0824839e59ed3523eb	2	1	main_z	24	advance_on_keypress_ZEE	106	stimuli_target_diamondrectangles.svg	stimuli_distractor_trianglediamonds.svg	19	yes	57	0	410	6	2	antiphase_hc_ios.wav	3	6	3	noise_calib_stim_LEFT.wav	1	35	blb_dichoticlistening_ta-pa.mp3	ta	pa	1	right
6.6.0	win	2023-06-27	06:50:48	07:05:59	907347	5eaecb0824839e59ed3523eb	2	1	main_z	24	main_z	107	stimuli_distractor_trianglediamonds.svg	stimuli_distractor_diamondtriangles.svg	36	no	0	1	2000	6	2	antiphase_hc_ios.wav	3	6	3	noise_calib_stim_LEFT.wav	1	35	blb_dichoticlistening_ta-pa.mp3	ta	pa	1	right
6.6.0	win	2023-06-27	06:50:48	07:05:59	907347	5eaecb0824839e59ed3523eb	2	1	main_z	24	advance_on_keypress_ZEE	108	stimuli_distractor_trianglediamonds.svg	stimuli_distractor_diamondtriangles.svg	36	no	57	0	407	6	2	antiphase_hc_ios.wav	3	6	3	noise_calib_stim_LEFT.wav	1	35	blb_dichoticlistening_ta-pa.mp3	ta	pa	1	right
6.6.0	win	2023-06-27	06:50:48	07:06:01	909019	5eaecb0824839e59ed3523eb	2	1	main_z	24	main_z	109	stimuli_distractor_trianglediamonds.svg	stimuli_target_trianglesquares.svg	26	yes	44	1	625	6	2	antiphase_hc_ios.wav	3	6	3	noise_calib_stim_LEFT.wav	1	35	blb_dichoticlistening_ta-pa.mp3	ta	pa	1	right
6.6.0	win	2023-06-27	06:50:48	07:06:01	909019	5eaecb0824839e59ed3523eb	2	1	main_z	24	advance_on_keypress_ZEE	110	stimuli_distractor_trianglediamonds.svg	stimuli_target_trianglesquares.svg	26	yes	57	0	560	6	2	antiphase_hc_ios.wav	3	6	3	noise_calib_stim_LEFT.wav	1	35	blb_dichoticlistening_ta-pa.mp3	ta	pa	1	right
6.6.0	win	2023-06-27	06:50:48	07:06:03	911009	5eaecb0824839e59ed3523eb	2	1	main_z	24	main_z	111	stimuli_target_squarediamonds.svg	stimuli_distractor_diamondtriangles.svg	8	yes	44	1	801	6	2	antiphase_hc_ios.wav	3	6	3	noise_calib_stim_LEFT.wav	1	35	blb_dichoticlistening_ta-pa.mp3	ta	pa	1	right
6.6.0	win	2023-06-27	06:50:48	07:06:03	911009	5eaecb0824839e59ed3523eb	2	1	main_z	24	advance_on_keypress_ZEE	112	stimuli_target_squarediamonds.svg	stimuli_distractor_diamondtriangles.svg	8	yes	57	0	298	6	2	antiphase_hc_ios.wav	3	6	3	noise_calib_stim_LEFT.wav	1	35	blb_dichoticlistening_ta-pa.mp3	ta	pa	1	right
6.6.0	win	2023-06-27	06:50:48	07:06:04	912754	5eaecb0824839e59ed3523eb	2	1	main_z	24	main_z	113	stimuli_target_trianglerectangles.svg	stimuli_distractor_trianglediamonds.svg	17	yes	44	1	797	6	2	antiphase_hc_ios.wav	3	6	3	noise_calib_stim_LEFT.wav	1	35	blb_dichoticlistening_ta-pa.mp3	ta	pa	1	right
6.6.0	win	2023-06-27	06:50:48	07:06:04	912754	5eaecb0824839e59ed3523eb	2	1	main_z	24	advance_on_keypress_ZEE	114	stimuli_target_trianglerectangles.svg	stimuli_distractor_trianglediamonds.svg	17	yes	57	0	377	6	2	antiphase_hc_ios.wav	3	6	3	noise_calib_stim_LEFT.wav	1	35	blb_dichoticlistening_ta-pa.mp3	ta	pa	1	right
6.6.0	win	2023-06-27	06:50:48	07:06:06	914560	5eaecb0824839e59ed3523eb	2	1	main_z	24	main_z	115	stimuli_target_diamondrectangles.svg	stimuli_distractor_diamondtriangles.svg	23	yes	44	1	787	6	2	antiphase_hc_ios.wav	3	6	3	noise_calib_stim_LEFT.wav	1	35	blb_dichoticlistening_ta-pa.mp3	ta	pa	1	right
6.6.0	win	2023-06-27	06:50:48	07:06:06	914560	5eaecb0824839e59ed3523eb	2	1	main_z	24	advance_on_keypress_ZEE	116	stimuli_target_diamondrectangles.svg	stimuli_distractor_diamondtriangles.svg	23	yes	57	0	462	6	2	antiphase_hc_ios.wav	3	6	3	noise_calib_stim_LEFT.wav	1	35	blb_dichoticlistening_ta-pa.mp3	ta	pa	1	right
6.6.0	win	2023-06-27	06:50:48	07:06:08	916468	5eaecb0824839e59ed3523eb	2	1	main_z	24	main_z	117	stimuli_target_diamondsquares.svg	stimuli_distractor_diamondtriangles.svg	24	yes	44	1	798	6	2	antiphase_hc_ios.wav	3	6	3	noise_calib_stim_LEFT.wav	1	35	blb_dichoticlistening_ta-pa.mp3	ta	pa	1	right
6.6.0	win	2023-06-27	06:50:48	07:06:08	916468	5eaecb0824839e59ed3523eb	2	1	main_z	24	advance_on_keypress_ZEE	118	stimuli_target_diamondsquares.svg	stimuli_distractor_diamondtriangles.svg	24	yes	57	0	357	6	2	antiphase_hc_ios.wav	3	6	3	noise_calib_stim_LEFT.wav	1	35	blb_dichoticlistening_ta-pa.mp3	ta	pa	1	right
6.6.0	win	2023-06-27	06:50:48	07:06:10	918222	5eaecb0824839e59ed3523eb	2	1	main_z	24	main_z	119	stimuli_distractor_trianglediamonds.svg	stimuli_target_diamondrectangles.svg	27	yes	44	1	753	6	2	antiphase_hc_ios.wav	3	6	3	noise_calib_stim_LEFT.wav	1	35	blb_dichoticlistening_ta-pa.mp3	ta	pa	1	right
6.6.0	win	2023-06-27	06:50:48	07:06:10	918222	5eaecb0824839e59ed3523eb	2	1	main_z	24	advance_on_keypress_ZEE	120	stimuli_distractor_trianglediamonds.svg	stimuli_target_diamondrectangles.svg	27	yes	57	0	349	6	2	antiphase_hc_ios.wav	3	6	3	noise_calib_stim_LEFT.wav	1	35	blb_dichoticlistening_ta-pa.mp3	ta	pa	1	right
6.6.0	win	2023-06-27	06:50:48	07:06:12	919986	5eaecb0824839e59ed3523eb	2	1	main_z	24	main_z	121	stimuli_target_rectangletriangles.svg	stimuli_distractor_trianglediamonds.svg	1	yes	44	1	769	6	2	antiphase_hc_ios.wav	3	6	3	noise_calib_stim_LEFT.wav	1	35	blb_dichoticlistening_ta-pa.mp3	ta	pa	1	right
6.6.0	win	2023-06-27	06:50:48	07:06:12	919986	5eaecb0824839e59ed3523eb	2	1	main_z	24	advance_on_keypress_ZEE	122	stimuli_target_rectangletriangles.svg	stimuli_distractor_trianglediamonds.svg	1	yes	57	0	309	6	2	antiphase_hc_ios.wav	3	6	3	noise_calib_stim_LEFT.wav	1	35	blb_dichoticlistening_ta-pa.mp3	ta	pa	1	right
6.6.0	win	2023-06-27	06:50:48	07:06:15	922932	5eaecb0824839e59ed3523eb	2	1	main_z	24	main_z	123	stimuli_distractor_trianglediamonds.svg	stimuli_distractor_diamondtriangles.svg	35	no	0	1	2000	6	2	antiphase_hc_ios.wav	3	6	3	noise_calib_stim_LEFT.wav	1	35	blb_dichoticlistening_ta-pa.mp3	ta	pa	1	right
6.6.0	win	2023-06-27	06:50:48	07:06:15	922932	5eaecb0824839e59ed3523eb	2	1	main_z	24	advance_on_keypress_ZEE	124	stimuli_distractor_trianglediamonds.svg	stimuli_distractor_diamondtriangles.svg	35	no	57	0	527	6	2	antiphase_hc_ios.wav	3	6	3	noise_calib_stim_LEFT.wav	1	35	blb_dichoticlistening_ta-pa.mp3	ta	pa	1	right
6.6.0	win	2023-06-27	06:50:48	07:06:18	926095	5eaecb0824839e59ed3523eb	2	1	main_z	24	main_z	125	stimuli_distractor_diamondtriangles.svg	stimuli_distractor_trianglediamonds.svg	38	no	0	1	2000	6	2	antiphase_hc_ios.wav	3	6	3	noise_calib_stim_LEFT.wav	1	35	blb_dichoticlistening_ta-pa.mp3	ta	pa	1	right
6.6.0	win	2023-06-27	06:50:48	07:06:18	926095	5eaecb0824839e59ed3523eb	2	1	main_z	24	advance_on_keypress_ZEE	126	stimuli_distractor_diamondtriangles.svg	stimuli_distractor_trianglediamonds.svg	38	no	57	0	323	6	2	antiphase_hc_ios.wav	3	6	3	noise_calib_stim_LEFT.wav	1	35	blb_dichoticlistening_ta-pa.mp3	ta	pa	1	right
6.6.0	win	2023-06-27	06:50:48	07:06:19	927808	5eaecb0824839e59ed3523eb	2	1	main_z	24	main_z	127	stimuli_distractor_diamondtriangles.svg	stimuli_target_squarediamonds.svg	16	yes	44	1	749	6	2	antiphase_hc_ios.wav	3	6	3	noise_calib_stim_LEFT.wav	1	35	blb_dichoticlistening_ta-pa.mp3	ta	pa	1	right
6.6.0	win	2023-06-27	06:50:48	07:06:19	927808	5eaecb0824839e59ed3523eb	2	1	main_z	24	advance_on_keypress_ZEE	128	stimuli_distractor_diamondtriangles.svg	stimuli_target_squarediamonds.svg	16	yes	57	0	396	6	2	antiphase_hc_ios.wav	3	6	3	noise_calib_stim_LEFT.wav	1	35	blb_dichoticlistening_ta-pa.mp3	ta	pa	1	right
6.6.0	win	2023-06-27	06:50:48	07:06:21	929578	5eaecb0824839e59ed3523eb	2	1	main_z	24	main_z	129	stimuli_target_rectanglediamonds.svg	stimuli_distractor_trianglediamonds.svg	2	yes	44	1	720	6	2	antiphase_hc_ios.wav	3	6	3	noise_calib_stim_LEFT.wav	1	35	blb_dichoticlistening_ta-pa.mp3	ta	pa	1	right
6.6.0	win	2023-06-27	06:50:48	07:06:21	929578	5eaecb0824839e59ed3523eb	2	1	main_z	24	advance_on_keypress_ZEE	130	stimuli_target_rectanglediamonds.svg	stimuli_distractor_trianglediamonds.svg	2	yes	57	0	335	6	2	antiphase_hc_ios.wav	3	6	3	noise_calib_stim_LEFT.wav	1	35	blb_dichoticlistening_ta-pa.mp3	ta	pa	1	right
6.6.0	win	2023-06-27	06:50:48	07:06:23	931431	5eaecb0824839e59ed3523eb	2	1	main_z	24	main_z	131	stimuli_target_squaretriangles.svg	stimuli_distractor_diamondtriangles.svg	7	yes	44	1	875	6	2	antiphase_hc_ios.wav	3	6	3	noise_calib_stim_LEFT.wav	1	35	blb_dichoticlistening_ta-pa.mp3	ta	pa	1	right
6.6.0	win	2023-06-27	06:50:48	07:06:23	931431	5eaecb0824839e59ed3523eb	2	1	main_z	24	advance_on_keypress_ZEE	132	stimuli_target_squaretriangles.svg	stimuli_distractor_diamondtriangles.svg	7	yes	57	0	369	6	2	antiphase_hc_ios.wav	3	6	3	noise_calib_stim_LEFT.wav	1	35	blb_dichoticlistening_ta-pa.mp3	ta	pa	1	right
6.6.0	win	2023-06-27	06:50:48	07:06:25	933323	5eaecb0824839e59ed3523eb	2	1	main_z	24	main_z	133	stimuli_target_squaretriangles.svg	stimuli_distractor_trianglediamonds.svg	3	yes	44	1	885	6	2	antiphase_hc_ios.wav	3	6	3	noise_calib_stim_LEFT.wav	1	35	blb_dichoticlistening_ta-pa.mp3	ta	pa	1	right
6.6.0	win	2023-06-27	06:50:48	07:06:25	933323	5eaecb0824839e59ed3523eb	2	1	main_z	24	advance_on_keypress_ZEE	134	stimuli_target_squaretriangles.svg	stimuli_distractor_trianglediamonds.svg	3	yes	57	0	355	6	2	antiphase_hc_ios.wav	3	6	3	noise_calib_stim_LEFT.wav	1	35	blb_dichoticlistening_ta-pa.mp3	ta	pa	1	right
6.6.0	win	2023-06-27	06:50:48	07:06:27	935156	5eaecb0824839e59ed3523eb	2	1	main_z	24	main_z	135	stimuli_distractor_trianglediamonds.svg	stimuli_target_rectangletriangles.svg	9	yes	44	1	838	6	2	antiphase_hc_ios.wav	3	6	3	noise_calib_stim_LEFT.wav	1	35	blb_dichoticlistening_ta-pa.mp3	ta	pa	1	right
6.6.0	win	2023-06-27	06:50:48	07:06:27	935156	5eaecb0824839e59ed3523eb	2	1	main_z	24	advance_on_keypress_ZEE	136	stimuli_distractor_trianglediamonds.svg	stimuli_target_rectangletriangles.svg	9	yes	57	0	507	6	2	antiphase_hc_ios.wav	3	6	3	noise_calib_stim_LEFT.wav	1	35	blb_dichoticlistening_ta-pa.mp3	ta	pa	1	right
6.6.0	win	2023-06-27	06:50:48	07:06:30	938300	5eaecb0824839e59ed3523eb	2	1	main_z	24	main_z	137	stimuli_distractor_trianglediamonds.svg	stimuli_distractor_trianglediamonds.svg	33	no	0	1	2000	6	2	antiphase_hc_ios.wav	3	6	3	noise_calib_stim_LEFT.wav	1	35	blb_dichoticlistening_ta-pa.mp3	ta	pa	1	right
6.6.0	win	2023-06-27	06:50:48	07:06:30	938300	5eaecb0824839e59ed3523eb	2	1	main_z	24	advance_on_keypress_ZEE	138	stimuli_distractor_trianglediamonds.svg	stimuli_distractor_trianglediamonds.svg	33	no	57	0	357	6	2	antiphase_hc_ios.wav	3	6	3	noise_calib_stim_LEFT.wav	1	35	blb_dichoticlistening_ta-pa.mp3	ta	pa	1	right
6.6.0	win	2023-06-27	06:50:48	07:06:32	940046	5eaecb0824839e59ed3523eb	2	1	main_z	24	main_z	139	stimuli_target_diamondsquares.svg	stimuli_distractor_trianglediamonds.svg	20	yes	44	1	749	6	2	antiphase_hc_ios.wav	3	6	3	noise_calib_stim_LEFT.wav	1	35	blb_dichoticlistening_ta-pa.mp3	ta	pa	1	right
6.6.0	win	2023-06-27	06:50:48	07:06:32	940046	5eaecb0824839e59ed3523eb	2	1	main_z	24	advance_on_keypress_ZEE	140	stimuli_target_diamondsquares.svg	stimuli_distractor_trianglediamonds.svg	20	yes	57	0	325	6	2	antiphase_hc_ios.wav	3	6	3	noise_calib_stim_LEFT.wav	1	35	blb_dichoticlistening_ta-pa.mp3	ta	pa	1	right
6.6.0	win	2023-06-27	06:50:48	07:06:35	943012	5eaecb0824839e59ed3523eb	2	1	main_z	24	main_z	141	stimuli_distractor_trianglediamonds.svg	stimuli_distractor_trianglediamonds.svg	34	no	0	1	2000	6	2	antiphase_hc_ios.wav	3	6	3	noise_calib_stim_LEFT.wav	1	35	blb_dichoticlistening_ta-pa.mp3	ta	pa	1	right
6.6.0	win	2023-06-27	06:50:48	07:06:35	943012	5eaecb0824839e59ed3523eb	2	1	main_z	24	advance_on_keypress_ZEE	142	stimuli_distractor_trianglediamonds.svg	stimuli_distractor_trianglediamonds.svg	34	no	57	0	276	6	2	antiphase_hc_ios.wav	3	6	3	noise_calib_stim_LEFT.wav	1	35	blb_dichoticlistening_ta-pa.mp3	ta	pa	1	right
6.6.0	win	2023-06-27	06:50:48	07:06:36	944658	5eaecb0824839e59ed3523eb	2	1	main_z	24	main_z	143	stimuli_target_trianglerectangles.svg	stimuli_distractor_diamondtriangles.svg	21	yes	44	1	733	6	2	antiphase_hc_ios.wav	3	6	3	noise_calib_stim_LEFT.wav	1	35	blb_dichoticlistening_ta-pa.mp3	ta	pa	1	right
6.6.0	win	2023-06-27	06:50:48	07:06:36	944658	5eaecb0824839e59ed3523eb	2	1	main_z	24	advance_on_keypress_ZEE	144	stimuli_target_trianglerectangles.svg	stimuli_distractor_diamondtriangles.svg	21	yes	57	0	413	6	2	antiphase_hc_ios.wav	3	6	3	noise_calib_stim_LEFT.wav	1	35	blb_dichoticlistening_ta-pa.mp3	ta	pa	1	right
6.6.0	win	2023-06-27	06:50:48	07:06:38	946464	5eaecb0824839e59ed3523eb	2	1	main_z	24	main_z	145	stimuli_distractor_diamondtriangles.svg	stimuli_target_trianglerectangles.svg	29	yes	44	1	741	6	2	antiphase_hc_ios.wav	3	6	3	noise_calib_stim_LEFT.wav	1	35	blb_dichoticlistening_ta-pa.mp3	ta	pa	1	right
6.6.0	win	2023-06-27	06:50:48	07:06:38	946464	5eaecb0824839e59ed3523eb	2	1	main_z	24	advance_on_keypress_ZEE	146	stimuli_distractor_diamondtriangles.svg	stimuli_target_trianglerectangles.svg	29	yes	57	0	367	6	2	antiphase_hc_ios.wav	3	6	3	noise_calib_stim_LEFT.wav	1	35	blb_dichoticlistening_ta-pa.mp3	ta	pa	1	right
6.6.0	win	2023-06-27	06:50:48	07:06:40	948254	5eaecb0824839e59ed3523eb	2	1	main_z	24	main_z	147	stimuli_target_rectanglediamonds.svg	stimuli_distractor_diamondtriangles.svg	6	yes	44	1	781	6	2	antiphase_hc_ios.wav	3	6	3	noise_calib_stim_LEFT.wav	1	35	blb_dichoticlistening_ta-pa.mp3	ta	pa	1	right
6.6.0	win	2023-06-27	06:50:48	07:06:40	948254	5eaecb0824839e59ed3523eb	2	1	main_z	24	advance_on_keypress_ZEE	148	stimuli_target_rectanglediamonds.svg	stimuli_distractor_diamondtriangles.svg	6	yes	57	0	363	6	2	antiphase_hc_ios.wav	3	6	3	noise_calib_stim_LEFT.wav	1	35	blb_dichoticlistening_ta-pa.mp3	ta	pa	1	right
6.6.0	win	2023-06-27	06:50:48	07:06:42	950096	5eaecb0824839e59ed3523eb	2	1	main_z	24	main_z	149	stimuli_distractor_trianglediamonds.svg	stimuli_target_diamondsquares.svg	28	yes	44	1	826	6	2	antiphase_hc_ios.wav	3	6	3	noise_calib_stim_LEFT.wav	1	35	blb_dichoticlistening_ta-pa.mp3	ta	pa	1	right
6.6.0	win	2023-06-27	06:50:48	07:06:42	950096	5eaecb0824839e59ed3523eb	2	1	main_z	24	advance_on_keypress_ZEE	150	stimuli_distractor_trianglediamonds.svg	stimuli_target_diamondsquares.svg	28	yes	57	0	365	6	2	antiphase_hc_ios.wav	3	6	3	noise_calib_stim_LEFT.wav	1	35	blb_dichoticlistening_ta-pa.mp3	ta	pa	1	right
6.6.0	win	2023-06-27	06:50:48	07:06:44	951892	5eaecb0824839e59ed3523eb	2	1	main_z	24	main_z	151	stimuli_distractor_trianglediamonds.svg	stimuli_target_rectanglediamonds.svg	10	yes	44	1	789	6	2	antiphase_hc_ios.wav	3	6	3	noise_calib_stim_LEFT.wav	1	35	blb_dichoticlistening_ta-pa.mp3	ta	pa	1	right
6.6.0	win	2023-06-27	06:50:48	07:06:44	951892	5eaecb0824839e59ed3523eb	2	1	main_z	24	advance_on_keypress_ZEE	152	stimuli_distractor_trianglediamonds.svg	stimuli_target_rectanglediamonds.svg	10	yes	57	0	343	6	2	antiphase_hc_ios.wav	3	6	3	noise_calib_stim_LEFT.wav	1	35	blb_dichoticlistening_ta-pa.mp3	ta	pa	1	right
6.6.0	win	2023-06-27	06:50:48	07:06:45	953645	5eaecb0824839e59ed3523eb	2	1	main_z	24	main_z	153	stimuli_distractor_diamondtriangles.svg	stimuli_target_diamondsquares.svg	32	yes	44	1	779	6	2	antiphase_hc_ios.wav	3	6	3	noise_calib_stim_LEFT.wav	1	35	blb_dichoticlistening_ta-pa.mp3	ta	pa	1	right
6.6.0	win	2023-06-27	06:50:48	07:06:45	953645	5eaecb0824839e59ed3523eb	2	1	main_z	24	advance_on_keypress_ZEE	154	stimuli_distractor_diamondtriangles.svg	stimuli_target_diamondsquares.svg	32	yes	57	0	349	6	2	antiphase_hc_ios.wav	3	6	3	noise_calib_stim_LEFT.wav	1	35	blb_dichoticlistening_ta-pa.mp3	ta	pa	1	right
6.6.0	win	2023-06-27	06:50:48	07:06:47	955439	5eaecb0824839e59ed3523eb	2	1	main_z	24	main_z	155	stimuli_target_rectangletriangles.svg	stimuli_distractor_diamondtriangles.svg	5	yes	44	1	791	6	2	antiphase_hc_ios.wav	3	6	3	noise_calib_stim_LEFT.wav	1	35	blb_dichoticlistening_ta-pa.mp3	ta	pa	1	right
6.6.0	win	2023-06-27	06:50:48	07:06:47	955439	5eaecb0824839e59ed3523eb	2	1	main_z	24	advance_on_keypress_ZEE	156	stimuli_target_rectangletriangles.svg	stimuli_distractor_diamondtriangles.svg	5	yes	57	0	481	6	2	antiphase_hc_ios.wav	3	6	3	noise_calib_stim_LEFT.wav	1	35	blb_dichoticlistening_ta-pa.mp3	ta	pa	1	right
6.6.0	win	2023-06-27	06:50:48	07:06:49	957331	5eaecb0824839e59ed3523eb	2	1	main_z	24	main_z	157	stimuli_target_trianglesquares.svg	stimuli_distractor_trianglediamonds.svg	18	yes	44	1	768	6	2	antiphase_hc_ios.wav	3	6	3	noise_calib_stim_LEFT.wav	1	35	blb_dichoticlistening_ta-pa.mp3	ta	pa	1	right
6.6.0	win	2023-06-27	06:50:48	07:06:49	957331	5eaecb0824839e59ed3523eb	2	1	main_z	24	advance_on_keypress_ZEE	158	stimuli_target_trianglesquares.svg	stimuli_distractor_trianglediamonds.svg	18	yes	57	0	336	6	2	antiphase_hc_ios.wav	3	6	3	noise_calib_stim_LEFT.wav	1	35	blb_dichoticlistening_ta-pa.mp3	ta	pa	1	right
6.6.0	win	2023-06-27	06:50:48	07:06:51	959098	5eaecb0824839e59ed3523eb	2	1	main_z	24	main_z	159	stimuli_distractor_trianglediamonds.svg	stimuli_target_trianglerectangles.svg	25	yes	44	1	787	6	2	antiphase_hc_ios.wav	3	6	3	noise_calib_stim_LEFT.wav	1	35	blb_dichoticlistening_ta-pa.mp3	ta	pa	1	right
6.6.0	win	2023-06-27	06:50:48	07:06:51	959098	5eaecb0824839e59ed3523eb	2	1	main_z	24	advance_on_keypress_ZEE	160	stimuli_distractor_trianglediamonds.svg	stimuli_target_trianglerectangles.svg	25	yes	57	0	297	6	2	antiphase_hc_ios.wav	3	6	3	noise_calib_stim_LEFT.wav	1	35	blb_dichoticlistening_ta-pa.mp3	ta	pa	1	right
6.6.0	win	2023-06-27	06:50:48	07:07:19	987597	5eaecb0824839e59ed3523eb	2	1	practice_slash	26	practice_slash	1	stimuli_target_rectanglediamonds.svg	stimuli_distractor_diamondtriangles.svg	1	yes	53	1	610	6	2	antiphase_hc_ios.wav	3	6	3	noise_calib_stim_LEFT.wav	1	35	blb_dichoticlistening_ta-pa.mp3	ta	pa	1	right
6.6.0	win	2023-06-27	06:50:48	07:07:19	987597	5eaecb0824839e59ed3523eb	2	1	practice_slash	26	advance_on_keypress_SLASH	2	stimuli_target_rectanglediamonds.svg	stimuli_distractor_diamondtriangles.svg	1	yes	57	0	1166	6	2	antiphase_hc_ios.wav	3	6	3	noise_calib_stim_LEFT.wav	1	35	blb_dichoticlistening_ta-pa.mp3	ta	pa	1	right
6.6.0	win	2023-06-27	06:50:48	07:07:23	991157	5eaecb0824839e59ed3523eb	2	1	practice_slash	26	practice_slash	3	stimuli_distractor_trianglediamonds.svg	stimuli_target_rectanglediamonds.svg	10	yes	53	1	741	6	2	antiphase_hc_ios.wav	3	6	3	noise_calib_stim_LEFT.wav	1	35	blb_dichoticlistening_ta-pa.mp3	ta	pa	1	right
6.6.0	win	2023-06-27	06:50:48	07:07:23	991157	5eaecb0824839e59ed3523eb	2	1	practice_slash	26	advance_on_keypress_SLASH	4	stimuli_distractor_trianglediamonds.svg	stimuli_target_rectanglediamonds.svg	10	yes	57	0	434	6	2	antiphase_hc_ios.wav	3	6	3	noise_calib_stim_LEFT.wav	1	35	blb_dichoticlistening_ta-pa.mp3	ta	pa	1	right
6.6.0	win	2023-06-27	06:50:48	07:07:26	994025	5eaecb0824839e59ed3523eb	2	1	practice_slash	26	practice_slash	5	stimuli_distractor_diamondtriangles.svg	stimuli_target_rectangletriangles.svg	7	yes	53	1	778	6	2	antiphase_hc_ios.wav	3	6	3	noise_calib_stim_LEFT.wav	1	35	blb_dichoticlistening_ta-pa.mp3	ta	pa	1	right
6.6.0	win	2023-06-27	06:50:48	07:07:26	994025	5eaecb0824839e59ed3523eb	2	1	practice_slash	26	advance_on_keypress_SLASH	6	stimuli_distractor_diamondtriangles.svg	stimuli_target_rectangletriangles.svg	7	yes	57	0	344	6	2	antiphase_hc_ios.wav	3	6	3	noise_calib_stim_LEFT.wav	1	35	blb_dichoticlistening_ta-pa.mp3	ta	pa	1	right
6.6.0	win	2023-06-27	06:50:48	07:07:29	996980	5eaecb0824839e59ed3523eb	2	1	practice_slash	26	practice_slash	7	stimuli_distractor_diamondtriangles.svg	stimuli_target_trianglerectangles.svg	9	yes	53	1	969	6	2	antiphase_hc_ios.wav	3	6	3	noise_calib_stim_LEFT.wav	1	35	blb_dichoticlistening_ta-pa.mp3	ta	pa	1	right
6.6.0	win	2023-06-27	06:50:48	07:07:29	996980	5eaecb0824839e59ed3523eb	2	1	practice_slash	26	advance_on_keypress_SLASH	8	stimuli_distractor_diamondtriangles.svg	stimuli_target_trianglerectangles.svg	9	yes	57	0	412	6	2	antiphase_hc_ios.wav	3	6	3	noise_calib_stim_LEFT.wav	1	35	blb_dichoticlistening_ta-pa.mp3	ta	pa	1	right
6.6.0	win	2023-06-27	06:50:48	07:07:31	999844	5eaecb0824839e59ed3523eb	2	1	practice_slash	26	practice_slash	9	stimuli_target_squarediamonds.svg	stimuli_distractor_diamondtriangles.svg	2	yes	53	1	803	6	2	antiphase_hc_ios.wav	3	6	3	noise_calib_stim_LEFT.wav	1	35	blb_dichoticlistening_ta-pa.mp3	ta	pa	1	right
6.6.0	win	2023-06-27	06:50:48	07:07:31	999844	5eaecb0824839e59ed3523eb	2	1	practice_slash	26	advance_on_keypress_SLASH	10	stimuli_target_squarediamonds.svg	stimuli_distractor_diamondtriangles.svg	2	yes	57	0	528	6	2	antiphase_hc_ios.wav	3	6	3	noise_calib_stim_LEFT.wav	1	35	blb_dichoticlistening_ta-pa.mp3	ta	pa	1	right
6.6.0	win	2023-06-27	06:50:48	07:07:36	1004022	5eaecb0824839e59ed3523eb	2	1	practice_slash	26	practice_slash	11	stimuli_distractor_diamondtriangles.svg	stimuli_distractor_trianglediamonds.svg	14	no	0	1	2000	6	2	antiphase_hc_ios.wav	3	6	3	noise_calib_stim_LEFT.wav	1	35	blb_dichoticlistening_ta-pa.mp3	ta	pa	1	right
6.6.0	win	2023-06-27	06:50:48	07:07:36	1004022	5eaecb0824839e59ed3523eb	2	1	practice_slash	26	advance_on_keypress_SLASH	12	stimuli_distractor_diamondtriangles.svg	stimuli_distractor_trianglediamonds.svg	14	no	57	0	399	6	2	antiphase_hc_ios.wav	3	6	3	noise_calib_stim_LEFT.wav	1	35	blb_dichoticlistening_ta-pa.mp3	ta	pa	1	right
6.6.0	win	2023-06-27	06:50:48	07:07:40	1008068	5eaecb0824839e59ed3523eb	2	1	practice_slash	26	practice_slash	13	stimuli_distractor_diamondtriangles.svg	stimuli_distractor_diamondtriangles.svg	13	no	0	1	2000	6	2	antiphase_hc_ios.wav	3	6	3	noise_calib_stim_LEFT.wav	1	35	blb_dichoticlistening_ta-pa.mp3	ta	pa	1	right
6.6.0	win	2023-06-27	06:50:48	07:07:40	1008068	5eaecb0824839e59ed3523eb	2	1	practice_slash	26	advance_on_keypress_SLASH	14	stimuli_distractor_diamondtriangles.svg	stimuli_distractor_diamondtriangles.svg	13	no	57	0	567	6	2	antiphase_hc_ios.wav	3	6	3	noise_calib_stim_LEFT.wav	1	35	blb_dichoticlistening_ta-pa.mp3	ta	pa	1	right
6.6.0	win	2023-06-27	06:50:48	07:07:44	1012280	5eaecb0824839e59ed3523eb	2	1	practice_slash	26	practice_slash	15	stimuli_distractor_trianglediamonds.svg	stimuli_distractor_trianglediamonds.svg	15	no	0	1	2000	6	2	antiphase_hc_ios.wav	3	6	3	noise_calib_stim_LEFT.wav	1	35	blb_dichoticlistening_ta-pa.mp3	ta	pa	1	right
6.6.0	win	2023-06-27	06:50:48	07:07:44	1012280	5eaecb0824839e59ed3523eb	2	1	practice_slash	26	advance_on_keypress_SLASH	16	stimuli_distractor_trianglediamonds.svg	stimuli_distractor_trianglediamonds.svg	15	no	57	0	23	6	2	antiphase_hc_ios.wav	3	6	3	noise_calib_stim_LEFT.wav	1	35	blb_dichoticlistening_ta-pa.mp3	ta	pa	1	right
6.6.0	win	2023-06-27	06:50:48	07:07:46	1014813	5eaecb0824839e59ed3523eb	2	1	practice_slash	26	practice_slash	17	stimuli_target_squarediamonds.svg	stimuli_distractor_trianglediamonds.svg	5	yes	53	1	870	6	2	antiphase_hc_ios.wav	3	6	3	noise_calib_stim_LEFT.wav	1	35	blb_dichoticlistening_ta-pa.mp3	ta	pa	1	right
6.6.0	win	2023-06-27	06:50:48	07:07:46	1014813	5eaecb0824839e59ed3523eb	2	1	practice_slash	26	advance_on_keypress_SLASH	18	stimuli_target_squarediamonds.svg	stimuli_distractor_trianglediamonds.svg	5	yes	57	0	430	6	2	antiphase_hc_ios.wav	3	6	3	noise_calib_stim_LEFT.wav	1	35	blb_dichoticlistening_ta-pa.mp3	ta	pa	1	right
6.6.0	win	2023-06-27	06:50:48	07:07:49	1017750	5eaecb0824839e59ed3523eb	2	1	practice_slash	26	practice_slash	19	stimuli_distractor_trianglediamonds.svg	stimuli_target_squarediamonds.svg	11	yes	53	1	859	6	2	antiphase_hc_ios.wav	3	6	3	noise_calib_stim_LEFT.wav	1	35	blb_dichoticlistening_ta-pa.mp3	ta	pa	1	right
