build	computer.platform	date	time	timestamp	time_elapsed_ms	subject	group	session	blockcode	blocknum	trialcode	trialnum	stimulus_left	stimulus_right	stim_index	target_present	response	correct	latency	headphonecheck_countTestTrials	headphonecheck_index	headphonecheck_testSound	headphonecheck_correctResponse	stereocheck_countTestTrials	stereocheck_index	stereocheck_testSound	stereocheck_correctResponse	DL_index	DL_soundfile	DL_leftSound	DL_rightSound	DL_dualSound	DL_choice
6.6.1	win	2023-07-12	22:37:07	22:40:20	187875	63ea44a0adefd2af8e13015c	3	1	practice_slash	5	practice_slash	1	stimuli_distractor_diamondtriangles.svg	stimuli_target_trianglerectangles.svg	9	yes	0	0	2000	0	0			0	0			1				0	
6.6.1	win	2023-07-12	22:37:07	22:40:20	187875	63ea44a0adefd2af8e13015c	3	1	practice_slash	5	advance_on_keypress_SLASH	2	stimuli_distractor_diamondtriangles.svg	stimuli_target_trianglerectangles.svg	9	yes	57	0	856	0	0			0	0			1				0	
6.6.1	win	2023-07-12	22:37:07	22:40:23	190884	63ea44a0adefd2af8e13015c	3	1	practice_slash	5	practice_slash	3	stimuli_target_rectanglediamonds.svg	stimuli_distractor_diamondtriangles.svg	1	yes	53	1	491	0	0			0	0			1				0	
6.6.1	win	2023-07-12	22:37:07	22:40:23	190884	63ea44a0adefd2af8e13015c	3	1	practice_slash	5	advance_on_keypress_SLASH	4	stimuli_target_rectanglediamonds.svg	stimuli_distractor_diamondtriangles.svg	1	yes	57	0	1023	0	0			0	0			1				0	
6.6.1	win	2023-07-12	22:37:07	22:40:26	194226	63ea44a0adefd2af8e13015c	3	1	practice_slash	5	practice_slash	5	stimuli_distractor_trianglediamonds.svg	stimuli_target_diamondrectangles.svg	12	yes	53	1	684	0	0			0	0			1				0	
6.6.1	win	2023-07-12	22:37:07	22:40:26	194226	63ea44a0adefd2af8e13015c	3	1	practice_slash	5	advance_on_keypress_SLASH	6	stimuli_distractor_trianglediamonds.svg	stimuli_target_diamondrectangles.svg	12	yes	57	0	1180	0	0			0	0			1				0	
6.6.1	win	2023-07-12	22:37:07	22:40:31	199059	63ea44a0adefd2af8e13015c	3	1	practice_slash	5	practice_slash	7	stimuli_distractor_trianglediamonds.svg	stimuli_target_rectanglediamonds.svg	10	yes	0	0	2000	0	0			0	0			1				0	
6.6.1	win	2023-07-12	22:37:07	22:40:31	199059	63ea44a0adefd2af8e13015c	3	1	practice_slash	5	advance_on_keypress_SLASH	8	stimuli_distractor_trianglediamonds.svg	stimuli_target_rectanglediamonds.svg	10	yes	57	0	1994	0	0			0	0			1				0	
6.6.1	win	2023-07-12	22:37:07	22:40:35	203545	63ea44a0adefd2af8e13015c	3	1	practice_slash	5	practice_slash	9	stimuli_distractor_diamondtriangles.svg	stimuli_target_diamondrectangles.svg	8	yes	53	1	836	0	0			0	0			1				0	
6.6.1	win	2023-07-12	22:37:07	22:40:35	203545	63ea44a0adefd2af8e13015c	3	1	practice_slash	5	advance_on_keypress_SLASH	10	stimuli_distractor_diamondtriangles.svg	stimuli_target_diamondrectangles.svg	8	yes	57	0	1294	0	0			0	0			1				0	
6.6.1	win	2023-07-12	22:37:07	22:40:40	208492	63ea44a0adefd2af8e13015c	3	1	practice_slash	5	practice_slash	11	stimuli_target_squarediamonds.svg	stimuli_distractor_diamondtriangles.svg	2	yes	0	0	2000	0	0			0	0			1				0	
6.6.1	win	2023-07-12	22:37:07	22:40:40	208492	63ea44a0adefd2af8e13015c	3	1	practice_slash	5	advance_on_keypress_SLASH	12	stimuli_target_squarediamonds.svg	stimuli_distractor_diamondtriangles.svg	2	yes	57	0	2337	0	0			0	0			1				0	
6.6.1	win	2023-07-12	22:37:07	22:40:46	213810	63ea44a0adefd2af8e13015c	3	1	practice_slash	5	practice_slash	13	stimuli_distractor_trianglediamonds.svg	stimuli_target_squarediamonds.svg	11	yes	53	1	1335	0	0			0	0			1				0	
6.6.1	win	2023-07-12	22:37:07	22:40:46	213810	63ea44a0adefd2af8e13015c	3	1	practice_slash	5	advance_on_keypress_SLASH	14	stimuli_distractor_trianglediamonds.svg	stimuli_target_squarediamonds.svg	11	yes	57	0	1693	0	0			0	0			1				0	
6.6.1	win	2023-07-12	22:37:07	22:40:51	219143	63ea44a0adefd2af8e13015c	3	1	practice_slash	5	practice_slash	15	stimuli_distractor_trianglediamonds.svg	stimuli_distractor_trianglediamonds.svg	15	no	0	1	2000	0	0			0	0			1				0	
6.6.1	win	2023-07-12	22:37:07	22:40:51	219143	63ea44a0adefd2af8e13015c	3	1	practice_slash	5	advance_on_keypress_SLASH	16	stimuli_distractor_trianglediamonds.svg	stimuli_distractor_trianglediamonds.svg	15	no	57	0	1780	0	0			0	0			1				0	
6.6.1	win	2023-07-12	22:37:07	22:40:57	224575	63ea44a0adefd2af8e13015c	3	1	practice_slash	5	practice_slash	17	stimuli_distractor_diamondtriangles.svg	stimuli_distractor_diamondtriangles.svg	13	no	0	1	2000	0	0			0	0			1				0	
6.6.1	win	2023-07-12	22:37:07	22:40:57	224575	63ea44a0adefd2af8e13015c	3	1	practice_slash	5	advance_on_keypress_SLASH	18	stimuli_distractor_diamondtriangles.svg	stimuli_distractor_diamondtriangles.svg	13	no	57	0	2290	0	0			0	0			1				0	
6.6.1	win	2023-07-12	22:37:07	22:41:01	229399	63ea44a0adefd2af8e13015c	3	1	practice_slash	5	practice_slash	19	stimuli_target_rectanglediamonds.svg	stimuli_distractor_trianglediamonds.svg	4	yes	53	1	890	0	0			0	0			1				0	
6.6.1	win	2023-07-12	22:37:07	22:41:01	229399	63ea44a0adefd2af8e13015c	3	1	practice_slash	5	advance_on_keypress_SLASH	20	stimuli_target_rectanglediamonds.svg	stimuli_distractor_trianglediamonds.svg	4	yes	57	0	1726	0	0			0	0			1				0	
6.6.1	win	2023-07-12	22:37:07	22:41:07	234759	63ea44a0adefd2af8e13015c	3	1	practice_slash	5	practice_slash	21	stimuli_distractor_diamondtriangles.svg	stimuli_distractor_trianglediamonds.svg	14	no	0	1	2000	0	0			0	0			1				0	
6.6.1	win	2023-07-12	22:37:07	22:41:07	234759	63ea44a0adefd2af8e13015c	3	1	practice_slash	5	advance_on_keypress_SLASH	22	stimuli_distractor_diamondtriangles.svg	stimuli_distractor_trianglediamonds.svg	14	no	57	0	888	0	0			0	0			1				0	
6.6.1	win	2023-07-12	22:37:07	22:41:10	238407	63ea44a0adefd2af8e13015c	3	1	practice_slash	5	practice_slash	23	stimuli_target_diamondsquares.svg	stimuli_distractor_diamondtriangles.svg	3	yes	53	1	1114	0	0			0	0			1				0	
6.6.1	win	2023-07-12	22:37:07	22:41:10	238407	63ea44a0adefd2af8e13015c	3	1	practice_slash	5	advance_on_keypress_SLASH	24	stimuli_target_diamondsquares.svg	stimuli_distractor_diamondtriangles.svg	3	yes	57	0	1012	0	0			0	0			1				0	
6.6.1	win	2023-07-12	22:37:07	22:41:14	241981	63ea44a0adefd2af8e13015c	3	1	practice_slash	5	practice_slash	25	stimuli_target_squarediamonds.svg	stimuli_distractor_trianglediamonds.svg	5	yes	53	1	904	0	0			0	0			1				0	
6.6.1	win	2023-07-12	22:37:07	22:41:14	241981	63ea44a0adefd2af8e13015c	3	1	practice_slash	5	advance_on_keypress_SLASH	26	stimuli_target_squarediamonds.svg	stimuli_distractor_trianglediamonds.svg	5	yes	57	0	1894	0	0			0	0			1				0	
6.6.1	win	2023-07-12	22:37:07	22:41:19	247526	63ea44a0adefd2af8e13015c	3	1	practice_slash	5	practice_slash	27	stimuli_target_diamondsquares.svg	stimuli_distractor_trianglediamonds.svg	6	yes	0	0	2000	0	0			0	0			1				0	
6.6.1	win	2023-07-12	22:37:07	22:41:19	247526	63ea44a0adefd2af8e13015c	3	1	practice_slash	5	advance_on_keypress_SLASH	28	stimuli_target_diamondsquares.svg	stimuli_distractor_trianglediamonds.svg	6	yes	57	0	655	0	0			0	0			1				0	
6.6.1	win	2023-07-12	22:37:07	22:41:23	250632	63ea44a0adefd2af8e13015c	3	1	practice_slash	5	practice_slash	29	stimuli_distractor_diamondtriangles.svg	stimuli_target_rectangletriangles.svg	7	yes	53	1	807	0	0			0	0			1				0	
6.6.1	win	2023-07-12	22:37:07	22:41:23	250632	63ea44a0adefd2af8e13015c	3	1	practice_slash	5	advance_on_keypress_SLASH	30	stimuli_distractor_diamondtriangles.svg	stimuli_target_rectangletriangles.svg	7	yes	57	0	597	0	0			0	0			1				0	
6.6.1	win	2023-07-12	22:37:07	22:41:27	254876	63ea44a0adefd2af8e13015c	3	1	practice_slash	5	practice_slash	31	stimuli_distractor_trianglediamonds.svg	stimuli_distractor_diamondtriangles.svg	16	no	0	1	2000	0	0			0	0			1				0	
6.6.1	win	2023-07-12	22:37:07	22:41:27	254876	63ea44a0adefd2af8e13015c	3	1	practice_slash	5	advance_on_keypress_SLASH	32	stimuli_distractor_trianglediamonds.svg	stimuli_distractor_diamondtriangles.svg	16	no	57	0	731	0	0			0	0			1				0	
6.6.1	win	2023-07-12	22:37:07	22:41:33	260760	63ea44a0adefd2af8e13015c	3	1	main_slash	7	main_slash	1	stimuli_target_trianglesquares.svg	stimuli_distractor_trianglediamonds.svg	18	yes	53	1	1086	0	0			0	0			1				0	
6.6.1	win	2023-07-12	22:37:07	22:41:33	260760	63ea44a0adefd2af8e13015c	3	1	main_slash	7	advance_on_keypress_SLASH	2	stimuli_target_trianglesquares.svg	stimuli_distractor_trianglediamonds.svg	18	yes	57	0	2172	0	0			0	0			1				0	
6.6.1	win	2023-07-12	22:37:07	22:41:36	264482	63ea44a0adefd2af8e13015c	3	1	main_slash	7	main_slash	3	stimuli_target_squaretriangles.svg	stimuli_distractor_diamondtriangles.svg	7	yes	53	1	908	0	0			0	0			1				0	
6.6.1	win	2023-07-12	22:37:07	22:41:36	264482	63ea44a0adefd2af8e13015c	3	1	main_slash	7	advance_on_keypress_SLASH	4	stimuli_target_squaretriangles.svg	stimuli_distractor_diamondtriangles.svg	7	yes	57	0	2454	0	0			0	0			1				0	
6.6.1	win	2023-07-12	22:37:07	22:41:41	268863	63ea44a0adefd2af8e13015c	3	1	main_slash	7	main_slash	5	stimuli_distractor_trianglediamonds.svg	stimuli_target_rectangletriangles.svg	9	yes	53	1	1290	0	0			0	0			1				0	
6.6.1	win	2023-07-12	22:37:07	22:41:41	268863	63ea44a0adefd2af8e13015c	3	1	main_slash	7	advance_on_keypress_SLASH	6	stimuli_distractor_trianglediamonds.svg	stimuli_target_rectangletriangles.svg	9	yes	57	0	5268	0	0			0	0			1				0	
6.6.1	win	2023-07-12	22:37:07	22:41:49	276774	63ea44a0adefd2af8e13015c	3	1	main_slash	7	main_slash	7	stimuli_target_diamondsquares.svg	stimuli_distractor_trianglediamonds.svg	20	yes	0	0	2000	0	0			0	0			1				0	
6.6.1	win	2023-07-12	22:37:07	22:41:49	276774	63ea44a0adefd2af8e13015c	3	1	main_slash	7	advance_on_keypress_SLASH	8	stimuli_target_diamondsquares.svg	stimuli_distractor_trianglediamonds.svg	20	yes	57	0	1035	0	0			0	0			1				0	
6.6.1	win	2023-07-12	22:37:07	22:41:51	279236	63ea44a0adefd2af8e13015c	3	1	main_slash	7	main_slash	9	stimuli_target_squarediamonds.svg	stimuli_distractor_trianglediamonds.svg	4	yes	53	1	778	0	0			0	0			1				0	
6.6.1	win	2023-07-12	22:37:07	22:41:51	279236	63ea44a0adefd2af8e13015c	3	1	main_slash	7	advance_on_keypress_SLASH	10	stimuli_target_squarediamonds.svg	stimuli_distractor_trianglediamonds.svg	4	yes	57	0	1666	0	0			0	0			1				0	
6.6.1	win	2023-07-12	22:37:07	22:41:54	282072	63ea44a0adefd2af8e13015c	3	1	main_slash	7	main_slash	11	stimuli_target_rectangletriangles.svg	stimuli_distractor_diamondtriangles.svg	5	yes	53	1	511	0	0			0	0			1				0	
6.6.1	win	2023-07-12	22:37:07	22:41:54	282072	63ea44a0adefd2af8e13015c	3	1	main_slash	7	advance_on_keypress_SLASH	12	stimuli_target_rectangletriangles.svg	stimuli_distractor_diamondtriangles.svg	5	yes	57	0	1219	0	0			0	0			1				0	
6.6.1	win	2023-07-12	22:37:07	22:41:58	285941	63ea44a0adefd2af8e13015c	3	1	main_slash	7	main_slash	13	stimuli_distractor_trianglediamonds.svg	stimuli_distractor_trianglediamonds.svg	34	no	0	1	2000	0	0			0	0			1				0	
6.6.1	win	2023-07-12	22:37:07	22:41:58	285941	63ea44a0adefd2af8e13015c	3	1	main_slash	7	advance_on_keypress_SLASH	14	stimuli_distractor_trianglediamonds.svg	stimuli_distractor_trianglediamonds.svg	34	no	57	0	525	0	0			0	0			1				0	
6.6.1	win	2023-07-12	22:37:07	22:42:00	287714	63ea44a0adefd2af8e13015c	3	1	main_slash	7	main_slash	15	stimuli_target_squarediamonds.svg	stimuli_distractor_diamondtriangles.svg	8	yes	53	1	607	0	0			0	0			1				0	
6.6.1	win	2023-07-12	22:37:07	22:42:00	287714	63ea44a0adefd2af8e13015c	3	1	main_slash	7	advance_on_keypress_SLASH	16	stimuli_target_squarediamonds.svg	stimuli_distractor_diamondtriangles.svg	8	yes	57	0	1279	0	0			0	0			1				0	
6.6.1	win	2023-07-12	22:37:07	22:42:04	291641	63ea44a0adefd2af8e13015c	3	1	main_slash	7	main_slash	17	stimuli_distractor_trianglediamonds.svg	stimuli_target_trianglerectangles.svg	25	yes	0	0	2000	0	0			0	0			1				0	
6.6.1	win	2023-07-12	22:37:07	22:42:04	291641	63ea44a0adefd2af8e13015c	3	1	main_slash	7	advance_on_keypress_SLASH	18	stimuli_distractor_trianglediamonds.svg	stimuli_target_trianglerectangles.svg	25	yes	57	0	447	0	0			0	0			1				0	
6.6.1	win	2023-07-12	22:37:07	22:42:06	293920	63ea44a0adefd2af8e13015c	3	1	main_slash	7	main_slash	19	stimuli_target_diamondsquares.svg	stimuli_distractor_diamondtriangles.svg	24	yes	53	1	1179	0	0			0	0			1				0	
6.6.1	win	2023-07-12	22:37:07	22:42:06	293920	63ea44a0adefd2af8e13015c	3	1	main_slash	7	advance_on_keypress_SLASH	20	stimuli_target_diamondsquares.svg	stimuli_distractor_diamondtriangles.svg	24	yes	57	0	3772	0	0			0	0			1				0	
6.6.1	win	2023-07-12	22:37:07	22:42:11	299556	63ea44a0adefd2af8e13015c	3	1	main_slash	7	main_slash	21	stimuli_target_trianglerectangles.svg	stimuli_distractor_diamondtriangles.svg	21	yes	53	1	1216	0	0			0	0			1				0	
6.6.1	win	2023-07-12	22:37:07	22:42:11	299556	63ea44a0adefd2af8e13015c	3	1	main_slash	7	advance_on_keypress_SLASH	22	stimuli_target_trianglerectangles.svg	stimuli_distractor_diamondtriangles.svg	21	yes	57	0	1629	0	0			0	0			1				0	
6.6.1	win	2023-07-12	22:37:07	22:42:16	303841	63ea44a0adefd2af8e13015c	3	1	main_slash	7	main_slash	23	stimuli_distractor_diamondtriangles.svg	stimuli_target_squarediamonds.svg	16	yes	0	0	2000	0	0			0	0			1				0	
6.6.1	win	2023-07-12	22:37:07	22:42:16	303841	63ea44a0adefd2af8e13015c	3	1	main_slash	7	advance_on_keypress_SLASH	24	stimuli_distractor_diamondtriangles.svg	stimuli_target_squarediamonds.svg	16	yes	57	0	694	0	0			0	0			1				0	
6.6.1	win	2023-07-12	22:37:07	22:42:18	306108	63ea44a0adefd2af8e13015c	3	1	main_slash	7	main_slash	25	stimuli_target_diamondrectangles.svg	stimuli_distractor_diamondtriangles.svg	23	yes	53	1	917	0	0			0	0			1				0	
6.6.1	win	2023-07-12	22:37:07	22:42:18	306108	63ea44a0adefd2af8e13015c	3	1	main_slash	7	advance_on_keypress_SLASH	26	stimuli_target_diamondrectangles.svg	stimuli_distractor_diamondtriangles.svg	23	yes	57	0	1275	0	0			0	0			1				0	
6.6.1	win	2023-07-12	22:37:07	22:42:21	309413	63ea44a0adefd2af8e13015c	3	1	main_slash	7	main_slash	27	stimuli_distractor_diamondtriangles.svg	stimuli_target_rectangletriangles.svg	13	yes	53	1	1389	0	0			0	0			1				0	
6.6.1	win	2023-07-12	22:37:07	22:42:21	309413	63ea44a0adefd2af8e13015c	3	1	main_slash	7	advance_on_keypress_SLASH	28	stimuli_distractor_diamondtriangles.svg	stimuli_target_rectangletriangles.svg	13	yes	57	0	882	0	0			0	0			1				0	
6.6.1	win	2023-07-12	22:37:07	22:42:23	311510	63ea44a0adefd2af8e13015c	3	1	main_slash	7	main_slash	29	stimuli_distractor_trianglediamonds.svg	stimuli_target_diamondsquares.svg	28	yes	53	1	569	0	0			0	0			1				0	
6.6.1	win	2023-07-12	22:37:07	22:42:23	311510	63ea44a0adefd2af8e13015c	3	1	main_slash	7	advance_on_keypress_SLASH	30	stimuli_distractor_trianglediamonds.svg	stimuli_target_diamondsquares.svg	28	yes	57	0	980	0	0			0	0			1				0	
6.6.1	win	2023-07-12	22:37:07	22:42:26	314067	63ea44a0adefd2af8e13015c	3	1	main_slash	7	main_slash	31	stimuli_target_rectanglediamonds.svg	stimuli_distractor_diamondtriangles.svg	6	yes	53	1	926	0	0			0	0			1				0	
6.6.1	win	2023-07-12	22:37:07	22:42:26	314067	63ea44a0adefd2af8e13015c	3	1	main_slash	7	advance_on_keypress_SLASH	32	stimuli_target_rectanglediamonds.svg	stimuli_distractor_diamondtriangles.svg	6	yes	57	0	1064	0	0			0	0			1				0	
6.6.1	win	2023-07-12	22:37:07	22:42:29	316751	63ea44a0adefd2af8e13015c	3	1	main_slash	7	main_slash	33	stimuli_distractor_trianglediamonds.svg	stimuli_target_rectanglediamonds.svg	10	yes	53	1	976	0	0			0	0			1				0	
6.6.1	win	2023-07-12	22:37:07	22:42:29	316751	63ea44a0adefd2af8e13015c	3	1	main_slash	7	advance_on_keypress_SLASH	34	stimuli_distractor_trianglediamonds.svg	stimuli_target_rectanglediamonds.svg	10	yes	57	0	1117	0	0			0	0			1				0	
6.6.1	win	2023-07-12	22:37:07	22:42:32	320508	63ea44a0adefd2af8e13015c	3	1	main_slash	7	main_slash	35	stimuli_distractor_trianglediamonds.svg	stimuli_distractor_diamondtriangles.svg	35	no	0	1	2000	0	0			0	0			1				0	
6.6.1	win	2023-07-12	22:37:07	22:42:32	320508	63ea44a0adefd2af8e13015c	3	1	main_slash	7	advance_on_keypress_SLASH	36	stimuli_distractor_trianglediamonds.svg	stimuli_distractor_diamondtriangles.svg	35	no	57	0	608	0	0			0	0			1				0	
6.6.1	win	2023-07-12	22:37:07	22:42:34	322181	63ea44a0adefd2af8e13015c	3	1	main_slash	7	main_slash	37	stimuli_target_rectanglediamonds.svg	stimuli_distractor_trianglediamonds.svg	2	yes	53	1	424	0	0			0	0			1				0	
6.6.1	win	2023-07-12	22:37:07	22:42:34	322181	63ea44a0adefd2af8e13015c	3	1	main_slash	7	advance_on_keypress_SLASH	38	stimuli_target_rectanglediamonds.svg	stimuli_distractor_trianglediamonds.svg	2	yes	57	0	952	0	0			0	0			1				0	
6.6.1	win	2023-07-12	22:37:07	22:42:36	324429	63ea44a0adefd2af8e13015c	3	1	main_slash	7	main_slash	39	stimuli_target_trianglerectangles.svg	stimuli_distractor_trianglediamonds.svg	17	yes	53	1	655	0	0			0	0			1				0	
6.6.1	win	2023-07-12	22:37:07	22:42:36	324429	63ea44a0adefd2af8e13015c	3	1	main_slash	7	advance_on_keypress_SLASH	40	stimuli_target_trianglerectangles.svg	stimuli_distractor_trianglediamonds.svg	17	yes	57	0	853	0	0			0	0			1				0	
6.6.1	win	2023-07-12	22:37:07	22:42:39	326871	63ea44a0adefd2af8e13015c	3	1	main_slash	7	main_slash	41	stimuli_distractor_diamondtriangles.svg	stimuli_distractor_trianglediamonds.svg	37	no	53	0	946	0	0			0	0			1				0	
6.6.1	win	2023-07-12	22:37:07	22:42:39	326871	63ea44a0adefd2af8e13015c	3	1	main_slash	7	advance_on_keypress_SLASH	42	stimuli_distractor_diamondtriangles.svg	stimuli_distractor_trianglediamonds.svg	37	no	57	0	1294	0	0			0	0			1				0	
6.6.1	win	2023-07-12	22:37:07	22:42:41	329304	63ea44a0adefd2af8e13015c	3	1	main_slash	7	main_slash	43	stimuli_target_trianglesquares.svg	stimuli_distractor_diamondtriangles.svg	22	yes	53	1	496	0	0			0	0			1				0	
6.6.1	win	2023-07-12	22:37:07	22:42:41	329304	63ea44a0adefd2af8e13015c	3	1	main_slash	7	advance_on_keypress_SLASH	44	stimuli_target_trianglesquares.svg	stimuli_distractor_diamondtriangles.svg	22	yes	57	0	1422	0	0			0	0			1				0	
6.6.1	win	2023-07-12	22:37:07	22:42:44	332095	63ea44a0adefd2af8e13015c	3	1	main_slash	7	main_slash	45	stimuli_distractor_trianglediamonds.svg	stimuli_target_squaretriangles.svg	11	yes	53	1	720	0	0			0	0			1				0	
6.6.1	win	2023-07-12	22:37:07	22:42:44	332095	63ea44a0adefd2af8e13015c	3	1	main_slash	7	advance_on_keypress_SLASH	46	stimuli_distractor_trianglediamonds.svg	stimuli_target_squaretriangles.svg	11	yes	57	0	841	0	0			0	0			1				0	
6.6.1	win	2023-07-12	22:37:07	22:42:46	334044	63ea44a0adefd2af8e13015c	3	1	main_slash	7	main_slash	47	stimuli_target_squaretriangles.svg	stimuli_distractor_trianglediamonds.svg	3	yes	53	1	469	0	0			0	0			1				0	
6.6.1	win	2023-07-12	22:37:07	22:42:46	334044	63ea44a0adefd2af8e13015c	3	1	main_slash	7	advance_on_keypress_SLASH	48	stimuli_target_squaretriangles.svg	stimuli_distractor_trianglediamonds.svg	3	yes	57	0	778	0	0			0	0			1				0	
6.6.1	win	2023-07-12	22:37:07	22:42:48	336011	63ea44a0adefd2af8e13015c	3	1	main_slash	7	main_slash	49	stimuli_distractor_diamondtriangles.svg	stimuli_target_trianglesquares.svg	30	yes	53	1	553	0	0			0	0			1				0	
6.6.1	win	2023-07-12	22:37:07	22:42:48	336011	63ea44a0adefd2af8e13015c	3	1	main_slash	7	advance_on_keypress_SLASH	50	stimuli_distractor_diamondtriangles.svg	stimuli_target_trianglesquares.svg	30	yes	57	0	838	0	0			0	0			1				0	
6.6.1	win	2023-07-12	22:37:07	22:42:50	337978	63ea44a0adefd2af8e13015c	3	1	main_slash	7	main_slash	51	stimuli_distractor_trianglediamonds.svg	stimuli_target_trianglesquares.svg	26	yes	53	1	488	0	0			0	0			1				0	
6.6.1	win	2023-07-12	22:37:07	22:42:50	337978	63ea44a0adefd2af8e13015c	3	1	main_slash	7	advance_on_keypress_SLASH	52	stimuli_distractor_trianglediamonds.svg	stimuli_target_trianglesquares.svg	26	yes	57	0	548	0	0			0	0			1				0	
6.6.1	win	2023-07-12	22:37:07	22:42:53	341175	63ea44a0adefd2af8e13015c	3	1	main_slash	7	main_slash	53	stimuli_distractor_diamondtriangles.svg	stimuli_distractor_diamondtriangles.svg	40	no	0	1	2000	0	0			0	0			1				0	
6.6.1	win	2023-07-12	22:37:07	22:42:53	341175	63ea44a0adefd2af8e13015c	3	1	main_slash	7	advance_on_keypress_SLASH	54	stimuli_distractor_diamondtriangles.svg	stimuli_distractor_diamondtriangles.svg	40	no	57	0	358	0	0			0	0			1				0	
6.6.1	win	2023-07-12	22:37:07	22:42:55	342621	63ea44a0adefd2af8e13015c	3	1	main_slash	7	main_slash	55	stimuli_distractor_trianglediamonds.svg	stimuli_target_squarediamonds.svg	12	yes	53	1	446	0	0			0	0			1				0	
6.6.1	win	2023-07-12	22:37:07	22:42:55	342621	63ea44a0adefd2af8e13015c	3	1	main_slash	7	advance_on_keypress_SLASH	56	stimuli_distractor_trianglediamonds.svg	stimuli_target_squarediamonds.svg	12	yes	57	0	1065	0	0			0	0			1				0	
6.6.1	win	2023-07-12	22:37:07	22:42:57	344877	63ea44a0adefd2af8e13015c	3	1	main_slash	7	main_slash	57	stimuli_target_diamondrectangles.svg	stimuli_distractor_trianglediamonds.svg	19	yes	53	1	537	0	0			0	0			1				0	
6.6.1	win	2023-07-12	22:37:07	22:42:57	344877	63ea44a0adefd2af8e13015c	3	1	main_slash	7	advance_on_keypress_SLASH	58	stimuli_target_diamondrectangles.svg	stimuli_distractor_trianglediamonds.svg	19	yes	57	0	912	0	0			0	0			1				0	
6.6.1	win	2023-07-12	22:37:07	22:43:00	348442	63ea44a0adefd2af8e13015c	3	1	main_slash	7	main_slash	59	stimuli_distractor_trianglediamonds.svg	stimuli_distractor_diamondtriangles.svg	36	no	0	1	2000	0	0			0	0			1				0	
6.6.1	win	2023-07-12	22:37:07	22:43:00	348442	63ea44a0adefd2af8e13015c	3	1	main_slash	7	advance_on_keypress_SLASH	60	stimuli_distractor_trianglediamonds.svg	stimuli_distractor_diamondtriangles.svg	36	no	57	0	203	0	0			0	0			1				0	
6.6.1	win	2023-07-12	22:37:07	22:43:02	349744	63ea44a0adefd2af8e13015c	3	1	main_slash	7	main_slash	61	stimuli_distractor_diamondtriangles.svg	stimuli_target_trianglerectangles.svg	29	yes	53	1	452	0	0			0	0			1				0	
6.6.1	win	2023-07-12	22:37:07	22:43:02	349744	63ea44a0adefd2af8e13015c	3	1	main_slash	7	advance_on_keypress_SLASH	62	stimuli_distractor_diamondtriangles.svg	stimuli_target_trianglerectangles.svg	29	yes	57	0	2126	0	0			0	0			1				0	
6.6.1	win	2023-07-12	22:37:07	22:43:05	352898	63ea44a0adefd2af8e13015c	3	1	main_slash	7	main_slash	63	stimuli_distractor_trianglediamonds.svg	stimuli_target_diamondrectangles.svg	27	yes	53	1	390	0	0			0	0			1				0	
6.6.1	win	2023-07-12	22:37:07	22:43:05	352898	63ea44a0adefd2af8e13015c	3	1	main_slash	7	advance_on_keypress_SLASH	64	stimuli_distractor_trianglediamonds.svg	stimuli_target_diamondrectangles.svg	27	yes	57	0	770	0	0			0	0			1				0	
6.6.1	win	2023-07-12	22:37:07	22:43:07	354601	63ea44a0adefd2af8e13015c	3	1	main_slash	7	main_slash	65	stimuli_distractor_diamondtriangles.svg	stimuli_target_diamondrectangles.svg	31	yes	53	1	293	0	0			0	0			1				0	
6.6.1	win	2023-07-12	22:37:07	22:43:07	354601	63ea44a0adefd2af8e13015c	3	1	main_slash	7	advance_on_keypress_SLASH	66	stimuli_distractor_diamondtriangles.svg	stimuli_target_diamondrectangles.svg	31	yes	57	0	1956	0	0			0	0			1				0	
6.6.1	win	2023-07-12	22:37:07	22:43:09	357440	63ea44a0adefd2af8e13015c	3	1	main_slash	7	main_slash	67	stimuli_distractor_diamondtriangles.svg	stimuli_target_rectanglediamonds.svg	14	yes	53	1	248	0	0			0	0			1				0	
6.6.1	win	2023-07-12	22:37:07	22:43:09	357440	63ea44a0adefd2af8e13015c	3	1	main_slash	7	advance_on_keypress_SLASH	68	stimuli_distractor_diamondtriangles.svg	stimuli_target_rectanglediamonds.svg	14	yes	57	0	1360	0	0			0	0			1				0	
6.6.1	win	2023-07-12	22:37:07	22:43:12	359675	63ea44a0adefd2af8e13015c	3	1	main_slash	7	main_slash	69	stimuli_distractor_diamondtriangles.svg	stimuli_target_squaretriangles.svg	15	yes	53	1	233	0	0			0	0			1				0	
6.6.1	win	2023-07-12	22:37:07	22:43:12	359675	63ea44a0adefd2af8e13015c	3	1	main_slash	7	advance_on_keypress_SLASH	70	stimuli_distractor_diamondtriangles.svg	stimuli_target_squaretriangles.svg	15	yes	57	0	985	0	0			0	0			1				0	
6.6.1	win	2023-07-12	22:37:07	22:43:14	361628	63ea44a0adefd2af8e13015c	3	1	main_slash	7	main_slash	71	stimuli_distractor_diamondtriangles.svg	stimuli_distractor_trianglediamonds.svg	38	no	53	0	321	0	0			0	0			1				0	
6.6.1	win	2023-07-12	22:37:07	22:43:14	361628	63ea44a0adefd2af8e13015c	3	1	main_slash	7	advance_on_keypress_SLASH	72	stimuli_distractor_diamondtriangles.svg	stimuli_distractor_trianglediamonds.svg	38	no	57	0	1563	0	0			0	0			1				0	
6.6.1	win	2023-07-12	22:37:07	22:43:17	364627	63ea44a0adefd2af8e13015c	3	1	main_slash	7	main_slash	73	stimuli_target_rectangletriangles.svg	stimuli_distractor_trianglediamonds.svg	1	yes	53	1	786	0	0			0	0			1				0	
6.6.1	win	2023-07-12	22:37:07	22:43:17	364627	63ea44a0adefd2af8e13015c	3	1	main_slash	7	advance_on_keypress_SLASH	74	stimuli_target_rectangletriangles.svg	stimuli_distractor_trianglediamonds.svg	1	yes	57	0	1210	0	0			0	0			1				0	
6.6.1	win	2023-07-12	22:37:07	22:43:19	367060	63ea44a0adefd2af8e13015c	3	1	main_slash	7	main_slash	75	stimuli_distractor_diamondtriangles.svg	stimuli_target_diamondsquares.svg	32	yes	53	1	585	0	0			0	0			1				0	
6.6.1	win	2023-07-12	22:37:07	22:43:19	367060	63ea44a0adefd2af8e13015c	3	1	main_slash	7	advance_on_keypress_SLASH	76	stimuli_distractor_diamondtriangles.svg	stimuli_target_diamondsquares.svg	32	yes	57	0	839	0	0			0	0			1				0	
6.6.1	win	2023-07-12	22:37:07	22:43:22	370542	63ea44a0adefd2af8e13015c	3	1	main_slash	7	main_slash	77	stimuli_distractor_trianglediamonds.svg	stimuli_distractor_trianglediamonds.svg	33	no	0	1	2000	0	0			0	0			1				0	
6.6.1	win	2023-07-12	22:37:07	22:43:22	370542	63ea44a0adefd2af8e13015c	3	1	main_slash	7	advance_on_keypress_SLASH	78	stimuli_distractor_trianglediamonds.svg	stimuli_distractor_trianglediamonds.svg	33	no	57	0	432	0	0			0	0			1				0	
6.6.1	win	2023-07-12	22:37:07	22:43:26	373625	63ea44a0adefd2af8e13015c	3	1	main_slash	7	main_slash	79	stimuli_distractor_diamondtriangles.svg	stimuli_distractor_diamondtriangles.svg	39	no	0	1	2000	0	0			0	0			1				0	
6.6.1	win	2023-07-12	22:37:07	22:43:26	373625	63ea44a0adefd2af8e13015c	3	1	main_slash	7	advance_on_keypress_SLASH	80	stimuli_distractor_diamondtriangles.svg	stimuli_distractor_diamondtriangles.svg	39	no	57	0	389	0	0			0	0			1				0	
6.6.1	win	2023-07-12	22:37:07	22:43:29	376658	63ea44a0adefd2af8e13015c	3	1	main_slash	7	main_slash	81	stimuli_distractor_trianglediamonds.svg	stimuli_distractor_trianglediamonds.svg	33	no	0	1	2000	0	0			0	0			1				0	
6.6.1	win	2023-07-12	22:37:07	22:43:29	376658	63ea44a0adefd2af8e13015c	3	1	main_slash	7	advance_on_keypress_SLASH	82	stimuli_distractor_trianglediamonds.svg	stimuli_distractor_trianglediamonds.svg	33	no	57	0	396	0	0			0	0			1				0	
6.6.1	win	2023-07-12	22:37:07	22:43:30	378156	63ea44a0adefd2af8e13015c	3	1	main_slash	7	main_slash	83	stimuli_distractor_diamondtriangles.svg	stimuli_target_rectanglediamonds.svg	14	yes	53	1	447	0	0			0	0			1				0	
6.6.1	win	2023-07-12	22:37:07	22:43:30	378156	63ea44a0adefd2af8e13015c	3	1	main_slash	7	advance_on_keypress_SLASH	84	stimuli_distractor_diamondtriangles.svg	stimuli_target_rectanglediamonds.svg	14	yes	57	0	1079	0	0			0	0			1				0	
6.6.1	win	2023-07-12	22:37:07	22:43:32	380522	63ea44a0adefd2af8e13015c	3	1	main_slash	7	main_slash	85	stimuli_distractor_trianglediamonds.svg	stimuli_target_diamondrectangles.svg	27	yes	53	1	630	0	0			0	0			1				0	
6.6.1	win	2023-07-12	22:37:07	22:43:32	380522	63ea44a0adefd2af8e13015c	3	1	main_slash	7	advance_on_keypress_SLASH	86	stimuli_distractor_trianglediamonds.svg	stimuli_target_diamondrectangles.svg	27	yes	57	0	571	0	0			0	0			1				0	
6.6.1	win	2023-07-12	22:37:07	22:43:34	382457	63ea44a0adefd2af8e13015c	3	1	main_slash	7	main_slash	87	stimuli_distractor_diamondtriangles.svg	stimuli_target_diamondrectangles.svg	31	yes	53	1	715	0	0			0	0			1				0	
6.6.1	win	2023-07-12	22:37:07	22:43:34	382457	63ea44a0adefd2af8e13015c	3	1	main_slash	7	advance_on_keypress_SLASH	88	stimuli_distractor_diamondtriangles.svg	stimuli_target_diamondrectangles.svg	31	yes	57	0	477	0	0			0	0			1				0	
6.6.1	win	2023-07-12	22:37:07	22:43:38	385575	63ea44a0adefd2af8e13015c	3	1	main_slash	7	main_slash	89	stimuli_distractor_diamondtriangles.svg	stimuli_distractor_trianglediamonds.svg	37	no	0	1	2000	0	0			0	0			1				0	
6.6.1	win	2023-07-12	22:37:07	22:43:38	385575	63ea44a0adefd2af8e13015c	3	1	main_slash	7	advance_on_keypress_SLASH	90	stimuli_distractor_diamondtriangles.svg	stimuli_distractor_trianglediamonds.svg	37	no	57	0	468	0	0			0	0			1				0	
6.6.1	win	2023-07-12	22:37:07	22:43:39	387489	63ea44a0adefd2af8e13015c	3	1	main_slash	7	main_slash	91	stimuli_target_trianglerectangles.svg	stimuli_distractor_trianglediamonds.svg	17	yes	53	1	797	0	0			0	0			1				0	
6.6.1	win	2023-07-12	22:37:07	22:43:39	387489	63ea44a0adefd2af8e13015c	3	1	main_slash	7	advance_on_keypress_SLASH	92	stimuli_target_trianglerectangles.svg	stimuli_distractor_trianglediamonds.svg	17	yes	57	0	706	0	0			0	0			1				0	
6.6.1	win	2023-07-12	22:37:07	22:43:43	390842	63ea44a0adefd2af8e13015c	3	1	main_slash	7	main_slash	93	stimuli_distractor_diamondtriangles.svg	stimuli_distractor_diamondtriangles.svg	40	no	0	1	2000	0	0			0	0			1				0	
6.6.1	win	2023-07-12	22:37:07	22:43:43	390842	63ea44a0adefd2af8e13015c	3	1	main_slash	7	advance_on_keypress_SLASH	94	stimuli_distractor_diamondtriangles.svg	stimuli_distractor_diamondtriangles.svg	40	no	57	0	1906	0	0			0	0			1				0	
6.6.1	win	2023-07-12	22:37:07	22:43:46	393721	63ea44a0adefd2af8e13015c	3	1	main_slash	7	main_slash	95	stimuli_distractor_diamondtriangles.svg	stimuli_target_squaretriangles.svg	15	yes	53	1	328	0	0			0	0			1				0	
6.6.1	win	2023-07-12	22:37:07	22:43:46	393721	63ea44a0adefd2af8e13015c	3	1	main_slash	7	advance_on_keypress_SLASH	96	stimuli_distractor_diamondtriangles.svg	stimuli_target_squaretriangles.svg	15	yes	57	0	959	0	0			0	0			1				0	
6.6.1	win	2023-07-12	22:37:07	22:43:48	395979	63ea44a0adefd2af8e13015c	3	1	main_slash	7	main_slash	97	stimuli_target_diamondsquares.svg	stimuli_distractor_trianglediamonds.svg	20	yes	53	1	654	0	0			0	0			1				0	
6.6.1	win	2023-07-12	22:37:07	22:43:48	395979	63ea44a0adefd2af8e13015c	3	1	main_slash	7	advance_on_keypress_SLASH	98	stimuli_target_diamondsquares.svg	stimuli_distractor_trianglediamonds.svg	20	yes	57	0	1090	0	0			0	0			1				0	
6.6.1	win	2023-07-12	22:37:07	22:43:50	398133	63ea44a0adefd2af8e13015c	3	1	main_slash	7	main_slash	99	stimuli_distractor_diamondtriangles.svg	stimuli_target_trianglesquares.svg	30	yes	53	1	424	0	0			0	0			1				0	
6.6.1	win	2023-07-12	22:37:07	22:43:50	398133	63ea44a0adefd2af8e13015c	3	1	main_slash	7	advance_on_keypress_SLASH	100	stimuli_distractor_diamondtriangles.svg	stimuli_target_trianglesquares.svg	30	yes	57	0	617	0	0			0	0			1				0	
6.6.1	win	2023-07-12	22:37:07	22:43:52	399844	63ea44a0adefd2af8e13015c	3	1	main_slash	7	main_slash	101	stimuli_distractor_trianglediamonds.svg	stimuli_target_rectanglediamonds.svg	10	yes	53	1	452	0	0			0	0			1				0	
6.6.1	win	2023-07-12	22:37:07	22:43:52	399844	63ea44a0adefd2af8e13015c	3	1	main_slash	7	advance_on_keypress_SLASH	102	stimuli_distractor_trianglediamonds.svg	stimuli_target_rectanglediamonds.svg	10	yes	57	0	746	0	0			0	0			1				0	
6.6.1	win	2023-07-12	22:37:07	22:43:55	403242	63ea44a0adefd2af8e13015c	3	1	main_slash	7	main_slash	103	stimuli_distractor_trianglediamonds.svg	stimuli_distractor_diamondtriangles.svg	35	no	0	1	2000	0	0			0	0			1				0	
6.6.1	win	2023-07-12	22:37:07	22:43:55	403242	63ea44a0adefd2af8e13015c	3	1	main_slash	7	advance_on_keypress_SLASH	104	stimuli_distractor_trianglediamonds.svg	stimuli_distractor_diamondtriangles.svg	35	no	57	0	2071	0	0			0	0			1				0	
6.6.1	win	2023-07-12	22:37:07	22:43:58	406378	63ea44a0adefd2af8e13015c	3	1	main_slash	7	main_slash	105	stimuli_distractor_trianglediamonds.svg	stimuli_target_trianglerectangles.svg	25	yes	53	1	420	0	0			0	0			1				0	
6.6.1	win	2023-07-12	22:37:07	22:43:58	406378	63ea44a0adefd2af8e13015c	3	1	main_slash	7	advance_on_keypress_SLASH	106	stimuli_distractor_trianglediamonds.svg	stimuli_target_trianglerectangles.svg	25	yes	57	0	967	0	0			0	0			1				0	
6.6.1	win	2023-07-12	22:37:07	22:44:00	408524	63ea44a0adefd2af8e13015c	3	1	main_slash	7	main_slash	107	stimuli_distractor_trianglediamonds.svg	stimuli_target_diamondsquares.svg	28	yes	53	1	530	0	0			0	0			1				0	
6.6.1	win	2023-07-12	22:37:07	22:44:00	408524	63ea44a0adefd2af8e13015c	3	1	main_slash	7	advance_on_keypress_SLASH	108	stimuli_distractor_trianglediamonds.svg	stimuli_target_diamondsquares.svg	28	yes	57	0	866	0	0			0	0			1				0	
6.6.1	win	2023-07-12	22:37:07	22:44:03	410567	63ea44a0adefd2af8e13015c	3	1	main_slash	7	main_slash	109	stimuli_target_diamondrectangles.svg	stimuli_distractor_trianglediamonds.svg	19	yes	53	1	524	0	0			0	0			1				0	
6.6.1	win	2023-07-12	22:37:07	22:44:03	410567	63ea44a0adefd2af8e13015c	3	1	main_slash	7	advance_on_keypress_SLASH	110	stimuli_target_diamondrectangles.svg	stimuli_distractor_trianglediamonds.svg	19	yes	57	0	587	0	0			0	0			1				0	
6.6.1	win	2023-07-12	22:37:07	22:44:04	412361	63ea44a0adefd2af8e13015c	3	1	main_slash	7	main_slash	111	stimuli_target_rectangletriangles.svg	stimuli_distractor_trianglediamonds.svg	1	yes	53	1	570	0	0			0	0			1				0	
6.6.1	win	2023-07-12	22:37:07	22:44:04	412361	63ea44a0adefd2af8e13015c	3	1	main_slash	7	advance_on_keypress_SLASH	112	stimuli_target_rectangletriangles.svg	stimuli_distractor_trianglediamonds.svg	1	yes	57	0	902	0	0			0	0			1				0	
6.6.1	win	2023-07-12	22:37:07	22:44:06	414517	63ea44a0adefd2af8e13015c	3	1	main_slash	7	main_slash	113	stimuli_distractor_trianglediamonds.svg	stimuli_target_trianglesquares.svg	26	yes	53	1	608	0	0			0	0			1				0	
6.6.1	win	2023-07-12	22:37:07	22:44:06	414517	63ea44a0adefd2af8e13015c	3	1	main_slash	7	advance_on_keypress_SLASH	114	stimuli_distractor_trianglediamonds.svg	stimuli_target_trianglesquares.svg	26	yes	57	0	1133	0	0			0	0			1				0	
6.6.1	win	2023-07-12	22:37:07	22:44:10	418060	63ea44a0adefd2af8e13015c	3	1	main_slash	7	main_slash	115	stimuli_target_diamondsquares.svg	stimuli_distractor_diamondtriangles.svg	24	yes	53	1	1769	0	0			0	0			1				0	
6.6.1	win	2023-07-12	22:37:07	22:44:10	418060	63ea44a0adefd2af8e13015c	3	1	main_slash	7	advance_on_keypress_SLASH	116	stimuli_target_diamondsquares.svg	stimuli_distractor_diamondtriangles.svg	24	yes	57	0	866	0	0			0	0			1				0	
6.6.1	win	2023-07-12	22:37:07	22:44:14	421576	63ea44a0adefd2af8e13015c	3	1	main_slash	7	main_slash	117	stimuli_distractor_diamondtriangles.svg	stimuli_distractor_diamondtriangles.svg	39	no	0	1	2000	0	0			0	0			1				0	
6.6.1	win	2023-07-12	22:37:07	22:44:14	421576	63ea44a0adefd2af8e13015c	3	1	main_slash	7	advance_on_keypress_SLASH	118	stimuli_distractor_diamondtriangles.svg	stimuli_distractor_diamondtriangles.svg	39	no	57	0	365	0	0			0	0			1				0	
6.6.1	win	2023-07-12	22:37:07	22:44:15	423454	63ea44a0adefd2af8e13015c	3	1	main_slash	7	main_slash	119	stimuli_target_trianglesquares.svg	stimuli_distractor_trianglediamonds.svg	18	yes	53	1	861	0	0			0	0			1				0	
6.6.1	win	2023-07-12	22:37:07	22:44:15	423454	63ea44a0adefd2af8e13015c	3	1	main_slash	7	advance_on_keypress_SLASH	120	stimuli_target_trianglesquares.svg	stimuli_distractor_trianglediamonds.svg	18	yes	57	0	1848	0	0			0	0			1				0	
6.6.1	win	2023-07-12	22:37:07	22:44:19	426594	63ea44a0adefd2af8e13015c	3	1	main_slash	7	main_slash	121	stimuli_target_squaretriangles.svg	stimuli_distractor_diamondtriangles.svg	7	yes	53	1	651	0	0			0	0			1				0	
6.6.1	win	2023-07-12	22:37:07	22:44:19	426594	63ea44a0adefd2af8e13015c	3	1	main_slash	7	advance_on_keypress_SLASH	122	stimuli_target_squaretriangles.svg	stimuli_distractor_diamondtriangles.svg	7	yes	57	0	1603	0	0			0	0			1				0	
6.6.1	win	2023-07-12	22:37:07	22:44:21	429441	63ea44a0adefd2af8e13015c	3	1	main_slash	7	main_slash	123	stimuli_distractor_trianglediamonds.svg	stimuli_target_rectangletriangles.svg	9	yes	53	1	598	0	0			0	0			1				0	
6.6.1	win	2023-07-12	22:37:07	22:44:21	429441	63ea44a0adefd2af8e13015c	3	1	main_slash	7	advance_on_keypress_SLASH	124	stimuli_distractor_trianglediamonds.svg	stimuli_target_rectangletriangles.svg	9	yes	57	0	1437	0	0			0	0			1				0	
6.6.1	win	2023-07-12	22:37:07	22:44:24	431883	63ea44a0adefd2af8e13015c	3	1	main_slash	7	main_slash	125	stimuli_target_rectanglediamonds.svg	stimuli_distractor_diamondtriangles.svg	6	yes	53	1	357	0	0			0	0			1				0	
6.6.1	win	2023-07-12	22:37:07	22:44:24	431883	63ea44a0adefd2af8e13015c	3	1	main_slash	7	advance_on_keypress_SLASH	126	stimuli_target_rectanglediamonds.svg	stimuli_distractor_diamondtriangles.svg	6	yes	57	0	1619	0	0			0	0			1				0	
6.6.1	win	2023-07-12	22:37:07	22:44:27	435129	63ea44a0adefd2af8e13015c	3	1	main_slash	7	main_slash	127	stimuli_target_trianglerectangles.svg	stimuli_distractor_diamondtriangles.svg	21	yes	53	1	986	0	0			0	0			1				0	
6.6.1	win	2023-07-12	22:37:07	22:44:27	435129	63ea44a0adefd2af8e13015c	3	1	main_slash	7	advance_on_keypress_SLASH	128	stimuli_target_trianglerectangles.svg	stimuli_distractor_diamondtriangles.svg	21	yes	57	0	1038	0	0			0	0			1				0	
6.6.1	win	2023-07-12	22:37:07	22:44:29	437323	63ea44a0adefd2af8e13015c	3	1	main_slash	7	main_slash	129	stimuli_target_squarediamonds.svg	stimuli_distractor_diamondtriangles.svg	8	yes	53	1	504	0	0			0	0			1				0	
6.6.1	win	2023-07-12	22:37:07	22:44:29	437323	63ea44a0adefd2af8e13015c	3	1	main_slash	7	advance_on_keypress_SLASH	130	stimuli_target_squarediamonds.svg	stimuli_distractor_diamondtriangles.svg	8	yes	57	0	1456	0	0			0	0			1				0	
6.6.1	win	2023-07-12	22:37:07	22:44:32	439944	63ea44a0adefd2af8e13015c	3	1	main_slash	7	main_slash	131	stimuli_target_squarediamonds.svg	stimuli_distractor_trianglediamonds.svg	4	yes	53	1	519	0	0			0	0			1				0	
6.6.1	win	2023-07-12	22:37:07	22:44:32	439944	63ea44a0adefd2af8e13015c	3	1	main_slash	7	advance_on_keypress_SLASH	132	stimuli_target_squarediamonds.svg	stimuli_distractor_trianglediamonds.svg	4	yes	57	0	1089	0	0			0	0			1				0	
6.6.1	win	2023-07-12	22:37:07	22:44:34	442437	63ea44a0adefd2af8e13015c	3	1	main_slash	7	main_slash	133	stimuli_distractor_diamondtriangles.svg	stimuli_target_trianglerectangles.svg	29	yes	53	1	761	0	0			0	0			1				0	
6.6.1	win	2023-07-12	22:37:07	22:44:34	442437	63ea44a0adefd2af8e13015c	3	1	main_slash	7	advance_on_keypress_SLASH	134	stimuli_distractor_diamondtriangles.svg	stimuli_target_trianglerectangles.svg	29	yes	57	0	827	0	0			0	0			1				0	
6.6.1	win	2023-07-12	22:37:07	22:44:36	444512	63ea44a0adefd2af8e13015c	3	1	main_slash	7	main_slash	135	stimuli_distractor_trianglediamonds.svg	stimuli_target_squaretriangles.svg	11	yes	53	1	619	0	0			0	0			1				0	
6.6.1	win	2023-07-12	22:37:07	22:44:36	444512	63ea44a0adefd2af8e13015c	3	1	main_slash	7	advance_on_keypress_SLASH	136	stimuli_distractor_trianglediamonds.svg	stimuli_target_squaretriangles.svg	11	yes	57	0	1008	0	0			0	0			1				0	
6.6.1	win	2023-07-12	22:37:07	22:44:39	446855	63ea44a0adefd2af8e13015c	3	1	main_slash	7	main_slash	137	stimuli_distractor_diamondtriangles.svg	stimuli_target_diamondsquares.svg	32	yes	53	1	695	0	0			0	0			1				0	
6.6.1	win	2023-07-12	22:37:07	22:44:39	446855	63ea44a0adefd2af8e13015c	3	1	main_slash	7	advance_on_keypress_SLASH	138	stimuli_distractor_diamondtriangles.svg	stimuli_target_diamondsquares.svg	32	yes	57	0	986	0	0			0	0			1				0	
6.6.1	win	2023-07-12	22:37:07	22:44:41	448912	63ea44a0adefd2af8e13015c	3	1	main_slash	7	main_slash	139	stimuli_distractor_diamondtriangles.svg	stimuli_target_squarediamonds.svg	16	yes	53	1	419	0	0			0	0			1				0	
6.6.1	win	2023-07-12	22:37:07	22:44:41	448912	63ea44a0adefd2af8e13015c	3	1	main_slash	7	advance_on_keypress_SLASH	140	stimuli_distractor_diamondtriangles.svg	stimuli_target_squarediamonds.svg	16	yes	57	0	811	0	0			0	0			1				0	
6.6.1	win	2023-07-12	22:37:07	22:44:43	450846	63ea44a0adefd2af8e13015c	3	1	main_slash	7	main_slash	141	stimuli_distractor_trianglediamonds.svg	stimuli_target_squarediamonds.svg	12	yes	53	1	486	0	0			0	0			1				0	
6.6.1	win	2023-07-12	22:37:07	22:44:43	450846	63ea44a0adefd2af8e13015c	3	1	main_slash	7	advance_on_keypress_SLASH	142	stimuli_distractor_trianglediamonds.svg	stimuli_target_squarediamonds.svg	12	yes	57	0	769	0	0			0	0			1				0	
6.6.1	win	2023-07-12	22:37:07	22:44:45	452800	63ea44a0adefd2af8e13015c	3	1	main_slash	7	main_slash	143	stimuli_target_trianglesquares.svg	stimuli_distractor_diamondtriangles.svg	22	yes	53	1	540	0	0			0	0			1				0	
6.6.1	win	2023-07-12	22:37:07	22:44:45	452800	63ea44a0adefd2af8e13015c	3	1	main_slash	7	advance_on_keypress_SLASH	144	stimuli_target_trianglesquares.svg	stimuli_distractor_diamondtriangles.svg	22	yes	57	0	874	0	0			0	0			1				0	
6.6.1	win	2023-07-12	22:37:07	22:44:48	456310	63ea44a0adefd2af8e13015c	3	1	main_slash	7	main_slash	145	stimuli_distractor_trianglediamonds.svg	stimuli_distractor_trianglediamonds.svg	34	no	0	1	2000	0	0			0	0			1				0	
6.6.1	win	2023-07-12	22:37:07	22:44:48	456310	63ea44a0adefd2af8e13015c	3	1	main_slash	7	advance_on_keypress_SLASH	146	stimuli_distractor_trianglediamonds.svg	stimuli_distractor_trianglediamonds.svg	34	no	57	0	786	0	0			0	0			1				0	
6.6.1	win	2023-07-12	22:37:07	22:44:51	458912	63ea44a0adefd2af8e13015c	3	1	main_slash	7	main_slash	147	stimuli_target_diamondrectangles.svg	stimuli_distractor_diamondtriangles.svg	23	yes	53	1	1169	0	0			0	0			1				0	
6.6.1	win	2023-07-12	22:37:07	22:44:51	458912	63ea44a0adefd2af8e13015c	3	1	main_slash	7	advance_on_keypress_SLASH	148	stimuli_target_diamondrectangles.svg	stimuli_distractor_diamondtriangles.svg	23	yes	57	0	863	0	0			0	0			1				0	
6.6.1	win	2023-07-12	22:37:07	22:44:53	461070	63ea44a0adefd2af8e13015c	3	1	main_slash	7	main_slash	149	stimuli_target_rectanglediamonds.svg	stimuli_distractor_trianglediamonds.svg	2	yes	53	1	643	0	0			0	0			1				0	
6.6.1	win	2023-07-12	22:37:07	22:44:53	461070	63ea44a0adefd2af8e13015c	3	1	main_slash	7	advance_on_keypress_SLASH	150	stimuli_target_rectanglediamonds.svg	stimuli_distractor_trianglediamonds.svg	2	yes	57	0	868	0	0			0	0			1				0	
6.6.1	win	2023-07-12	22:37:07	22:44:57	464576	63ea44a0adefd2af8e13015c	3	1	main_slash	7	main_slash	151	stimuli_distractor_diamondtriangles.svg	stimuli_distractor_trianglediamonds.svg	38	no	0	1	2000	0	0			0	0			1				0	
6.6.1	win	2023-07-12	22:37:07	22:44:57	464576	63ea44a0adefd2af8e13015c	3	1	main_slash	7	advance_on_keypress_SLASH	152	stimuli_distractor_diamondtriangles.svg	stimuli_distractor_trianglediamonds.svg	38	no	57	0	981	0	0			0	0			1				0	
6.6.1	win	2023-07-12	22:37:07	22:44:59	466732	63ea44a0adefd2af8e13015c	3	1	main_slash	7	main_slash	153	stimuli_target_squaretriangles.svg	stimuli_distractor_trianglediamonds.svg	3	yes	53	1	523	0	0			0	0			1				0	
6.6.1	win	2023-07-12	22:37:07	22:44:59	466732	63ea44a0adefd2af8e13015c	3	1	main_slash	7	advance_on_keypress_SLASH	154	stimuli_target_squaretriangles.svg	stimuli_distractor_trianglediamonds.svg	3	yes	57	0	1332	0	0			0	0			1				0	
6.6.1	win	2023-07-12	22:37:07	22:45:01	469244	63ea44a0adefd2af8e13015c	3	1	main_slash	7	main_slash	155	stimuli_target_rectangletriangles.svg	stimuli_distractor_diamondtriangles.svg	5	yes	53	1	534	0	0			0	0			1				0	
6.6.1	win	2023-07-12	22:37:07	22:45:01	469244	63ea44a0adefd2af8e13015c	3	1	main_slash	7	advance_on_keypress_SLASH	156	stimuli_target_rectangletriangles.svg	stimuli_distractor_diamondtriangles.svg	5	yes	57	0	4143	0	0			0	0			1				0	
6.6.1	win	2023-07-12	22:37:07	22:45:06	474541	63ea44a0adefd2af8e13015c	3	1	main_slash	7	main_slash	157	stimuli_distractor_diamondtriangles.svg	stimuli_target_rectangletriangles.svg	13	yes	53	1	507	0	0			0	0			1				0	
6.6.1	win	2023-07-12	22:37:07	22:45:06	474541	63ea44a0adefd2af8e13015c	3	1	main_slash	7	advance_on_keypress_SLASH	158	stimuli_distractor_diamondtriangles.svg	stimuli_target_rectangletriangles.svg	13	yes	57	0	967	0	0			0	0			1				0	
6.6.1	win	2023-07-12	22:37:07	22:45:10	478160	63ea44a0adefd2af8e13015c	3	1	main_slash	7	main_slash	159	stimuli_distractor_trianglediamonds.svg	stimuli_distractor_diamondtriangles.svg	36	no	0	1	2000	0	0			0	0			1				0	
6.6.1	win	2023-07-12	22:37:07	22:45:10	478160	63ea44a0adefd2af8e13015c	3	1	main_slash	7	advance_on_keypress_SLASH	160	stimuli_distractor_trianglediamonds.svg	stimuli_distractor_diamondtriangles.svg	36	no	57	0	376	0	0			0	0			1				0	
6.6.1	win	2023-07-12	22:37:07	22:45:43	511480	63ea44a0adefd2af8e13015c	3	1	practice_z	9	practice_z	1	stimuli_distractor_diamondtriangles.svg	stimuli_distractor_diamondtriangles.svg	13	no	0	1	2000	0	0			0	0			1				0	
6.6.1	win	2023-07-12	22:37:07	22:45:43	511480	63ea44a0adefd2af8e13015c	3	1	practice_z	9	advance_on_keypress_ZEE	2	stimuli_distractor_diamondtriangles.svg	stimuli_distractor_diamondtriangles.svg	13	no	57	0	824	0	0			0	0			1				0	
6.6.1	win	2023-07-12	22:37:07	22:45:47	514576	63ea44a0adefd2af8e13015c	3	1	practice_z	9	practice_z	3	stimuli_distractor_diamondtriangles.svg	stimuli_target_diamondrectangles.svg	8	yes	44	1	629	0	0			0	0			1				0	
6.6.1	win	2023-07-12	22:37:07	22:45:47	514576	63ea44a0adefd2af8e13015c	3	1	practice_z	9	advance_on_keypress_ZEE	4	stimuli_distractor_diamondtriangles.svg	stimuli_target_diamondrectangles.svg	8	yes	57	0	568	0	0			0	0			1				0	
6.6.1	win	2023-07-12	22:37:07	22:45:51	518796	63ea44a0adefd2af8e13015c	3	1	practice_z	9	practice_z	5	stimuli_distractor_diamondtriangles.svg	stimuli_distractor_trianglediamonds.svg	14	no	0	1	2000	0	0			0	0			1				0	
6.6.1	win	2023-07-12	22:37:07	22:45:51	518796	63ea44a0adefd2af8e13015c	3	1	practice_z	9	advance_on_keypress_ZEE	6	stimuli_distractor_diamondtriangles.svg	stimuli_distractor_trianglediamonds.svg	14	no	57	0	366	0	0			0	0			1				0	
6.6.1	win	2023-07-12	22:37:07	22:45:53	521234	63ea44a0adefd2af8e13015c	3	1	practice_z	9	practice_z	7	stimuli_distractor_trianglediamonds.svg	stimuli_target_diamondrectangles.svg	12	yes	44	1	421	0	0			0	0			1				0	
6.6.1	win	2023-07-12	22:37:07	22:45:53	521234	63ea44a0adefd2af8e13015c	3	1	practice_z	9	advance_on_keypress_ZEE	8	stimuli_distractor_trianglediamonds.svg	stimuli_target_diamondrectangles.svg	12	yes	57	0	1043	0	0			0	0			1				0	
6.6.1	win	2023-07-12	22:37:07	22:45:57	524576	63ea44a0adefd2af8e13015c	3	1	practice_z	9	practice_z	9	stimuli_target_rectanglediamonds.svg	stimuli_distractor_diamondtriangles.svg	1	yes	44	1	647	0	0			0	0			1				0	
6.6.1	win	2023-07-12	22:37:07	22:45:57	524576	63ea44a0adefd2af8e13015c	3	1	practice_z	9	advance_on_keypress_ZEE	10	stimuli_target_rectanglediamonds.svg	stimuli_distractor_diamondtriangles.svg	1	yes	57	0	500	0	0			0	0			1				0	
6.6.1	win	2023-07-12	22:37:07	22:45:59	527229	63ea44a0adefd2af8e13015c	3	1	practice_z	9	practice_z	11	stimuli_target_squarediamonds.svg	stimuli_distractor_trianglediamonds.svg	5	yes	44	1	500	0	0			0	0			1				0	
6.6.1	win	2023-07-12	22:37:07	22:45:59	527229	63ea44a0adefd2af8e13015c	3	1	practice_z	9	advance_on_keypress_ZEE	12	stimuli_target_squarediamonds.svg	stimuli_distractor_trianglediamonds.svg	5	yes	57	0	629	0	0			0	0			1				0	
6.6.1	win	2023-07-12	22:37:07	22:46:02	530357	63ea44a0adefd2af8e13015c	3	1	practice_z	9	practice_z	13	stimuli_distractor_diamondtriangles.svg	stimuli_target_trianglerectangles.svg	9	yes	44	1	843	0	0			0	0			1				0	
6.6.1	win	2023-07-12	22:37:07	22:46:02	530357	63ea44a0adefd2af8e13015c	3	1	practice_z	9	advance_on_keypress_ZEE	14	stimuli_distractor_diamondtriangles.svg	stimuli_target_trianglerectangles.svg	9	yes	57	0	697	0	0			0	0			1				0	
6.6.1	win	2023-07-12	22:37:07	22:46:05	533250	63ea44a0adefd2af8e13015c	3	1	practice_z	9	practice_z	15	stimuli_distractor_trianglediamonds.svg	stimuli_target_rectanglediamonds.svg	10	yes	44	1	537	0	0			0	0			1				0	
6.6.1	win	2023-07-12	22:37:07	22:46:05	533250	63ea44a0adefd2af8e13015c	3	1	practice_z	9	advance_on_keypress_ZEE	16	stimuli_distractor_trianglediamonds.svg	stimuli_target_rectanglediamonds.svg	10	yes	57	0	684	0	0			0	0			1				0	
6.6.1	win	2023-07-12	22:37:07	22:46:08	536141	63ea44a0adefd2af8e13015c	3	1	practice_z	9	practice_z	17	stimuli_target_diamondsquares.svg	stimuli_distractor_trianglediamonds.svg	6	yes	44	1	562	0	0			0	0			1				0	
6.6.1	win	2023-07-12	22:37:07	22:46:08	536141	63ea44a0adefd2af8e13015c	3	1	practice_z	9	advance_on_keypress_ZEE	18	stimuli_target_diamondsquares.svg	stimuli_distractor_trianglediamonds.svg	6	yes	57	0	865	0	0			0	0			1				0	
6.6.1	win	2023-07-12	22:37:07	22:46:11	539099	63ea44a0adefd2af8e13015c	3	1	practice_z	9	practice_z	19	stimuli_distractor_trianglediamonds.svg	stimuli_target_squarediamonds.svg	11	yes	44	1	436	0	0			0	0			1				0	
6.6.1	win	2023-07-12	22:37:07	22:46:11	539099	63ea44a0adefd2af8e13015c	3	1	practice_z	9	advance_on_keypress_ZEE	20	stimuli_distractor_trianglediamonds.svg	stimuli_target_squarediamonds.svg	11	yes	57	0	677	0	0			0	0			1				0	
6.6.1	win	2023-07-12	22:37:07	22:46:14	541794	63ea44a0adefd2af8e13015c	3	1	practice_z	9	practice_z	21	stimuli_distractor_trianglediamonds.svg	stimuli_distractor_diamondtriangles.svg	16	no	44	0	380	0	0			0	0			1				0	
6.6.1	win	2023-07-12	22:37:07	22:46:14	541794	63ea44a0adefd2af8e13015c	3	1	practice_z	9	advance_on_keypress_ZEE	22	stimuli_distractor_trianglediamonds.svg	stimuli_distractor_diamondtriangles.svg	16	no	57	0	651	0	0			0	0			1				0	
6.6.1	win	2023-07-12	22:37:07	22:46:18	546097	63ea44a0adefd2af8e13015c	3	1	practice_z	9	practice_z	23	stimuli_distractor_trianglediamonds.svg	stimuli_distractor_trianglediamonds.svg	15	no	0	1	2000	0	0			0	0			1				0	
6.6.1	win	2023-07-12	22:37:07	22:46:18	546097	63ea44a0adefd2af8e13015c	3	1	practice_z	9	advance_on_keypress_ZEE	24	stimuli_distractor_trianglediamonds.svg	stimuli_distractor_trianglediamonds.svg	15	no	57	0	474	0	0			0	0			1				0	
6.6.1	win	2023-07-12	22:37:07	22:46:21	548783	63ea44a0adefd2af8e13015c	3	1	practice_z	9	practice_z	25	stimuli_distractor_diamondtriangles.svg	stimuli_target_rectangletriangles.svg	7	yes	44	1	569	0	0			0	0			1				0	
6.6.1	win	2023-07-12	22:37:07	22:46:21	548783	63ea44a0adefd2af8e13015c	3	1	practice_z	9	advance_on_keypress_ZEE	26	stimuli_distractor_diamondtriangles.svg	stimuli_target_rectangletriangles.svg	7	yes	57	0	683	0	0			0	0			1				0	
6.6.1	win	2023-07-12	22:37:07	22:46:23	551507	63ea44a0adefd2af8e13015c	3	1	practice_z	9	practice_z	27	stimuli_target_rectanglediamonds.svg	stimuli_distractor_trianglediamonds.svg	4	yes	44	1	394	0	0			0	0			1				0	
6.6.1	win	2023-07-12	22:37:07	22:46:23	551507	63ea44a0adefd2af8e13015c	3	1	practice_z	9	advance_on_keypress_ZEE	28	stimuli_target_rectanglediamonds.svg	stimuli_distractor_trianglediamonds.svg	4	yes	57	0	846	0	0			0	0			1				0	
6.6.1	win	2023-07-12	22:37:07	22:46:27	554709	63ea44a0adefd2af8e13015c	3	1	practice_z	9	practice_z	29	stimuli_target_diamondsquares.svg	stimuli_distractor_diamondtriangles.svg	3	yes	44	1	696	0	0			0	0			1				0	
6.6.1	win	2023-07-12	22:37:07	22:46:27	554709	63ea44a0adefd2af8e13015c	3	1	practice_z	9	advance_on_keypress_ZEE	30	stimuli_target_diamondsquares.svg	stimuli_distractor_diamondtriangles.svg	3	yes	57	0	864	0	0			0	0			1				0	
6.6.1	win	2023-07-12	22:37:07	22:46:30	557723	63ea44a0adefd2af8e13015c	3	1	practice_z	9	practice_z	31	stimuli_target_squarediamonds.svg	stimuli_distractor_diamondtriangles.svg	2	yes	44	1	493	0	0			0	0			1				0	
6.6.1	win	2023-07-12	22:37:07	22:46:30	557723	63ea44a0adefd2af8e13015c	3	1	practice_z	9	advance_on_keypress_ZEE	32	stimuli_target_squarediamonds.svg	stimuli_distractor_diamondtriangles.svg	2	yes	57	0	841	0	0			0	0			1				0	
6.6.1	win	2023-07-12	22:37:07	22:46:36	564540	63ea44a0adefd2af8e13015c	3	1	main_z	11	main_z	1	stimuli_distractor_trianglediamonds.svg	stimuli_target_trianglerectangles.svg	25	yes	44	1	1063	0	0			0	0			1				0	
6.6.1	win	2023-07-12	22:37:07	22:46:36	564540	63ea44a0adefd2af8e13015c	3	1	main_z	11	advance_on_keypress_ZEE	2	stimuli_distractor_trianglediamonds.svg	stimuli_target_trianglerectangles.svg	25	yes	57	0	1503	0	0			0	0			1				0	
6.6.1	win	2023-07-12	22:37:07	22:46:39	567488	63ea44a0adefd2af8e13015c	3	1	main_z	11	main_z	3	stimuli_target_rectangletriangles.svg	stimuli_distractor_diamondtriangles.svg	5	yes	44	1	794	0	0			0	0			1				0	
6.6.1	win	2023-07-12	22:37:07	22:46:39	567488	63ea44a0adefd2af8e13015c	3	1	main_z	11	advance_on_keypress_ZEE	4	stimuli_target_rectangletriangles.svg	stimuli_distractor_diamondtriangles.svg	5	yes	57	0	2612	0	0			0	0			1				0	
6.6.1	win	2023-07-12	22:37:07	22:46:43	571227	63ea44a0adefd2af8e13015c	3	1	main_z	11	main_z	5	stimuli_distractor_trianglediamonds.svg	stimuli_target_diamondrectangles.svg	27	yes	44	1	482	0	0			0	0			1				0	
6.6.1	win	2023-07-12	22:37:07	22:46:43	571227	63ea44a0adefd2af8e13015c	3	1	main_z	11	advance_on_keypress_ZEE	6	stimuli_distractor_trianglediamonds.svg	stimuli_target_diamondrectangles.svg	27	yes	57	0	1123	0	0			0	0			1				0	
6.6.1	win	2023-07-12	22:37:07	22:46:45	573542	63ea44a0adefd2af8e13015c	3	1	main_z	11	main_z	7	stimuli_distractor_diamondtriangles.svg	stimuli_target_squarediamonds.svg	16	yes	44	1	548	0	0			0	0			1				0	
6.6.1	win	2023-07-12	22:37:07	22:46:45	573542	63ea44a0adefd2af8e13015c	3	1	main_z	11	advance_on_keypress_ZEE	8	stimuli_distractor_diamondtriangles.svg	stimuli_target_squarediamonds.svg	16	yes	57	0	860	0	0			0	0			1				0	
6.6.1	win	2023-07-12	22:37:07	22:46:47	575491	63ea44a0adefd2af8e13015c	3	1	main_z	11	main_z	9	stimuli_distractor_trianglediamonds.svg	stimuli_target_rectanglediamonds.svg	10	yes	44	1	446	0	0			0	0			1				0	
6.6.1	win	2023-07-12	22:37:07	22:46:47	575491	63ea44a0adefd2af8e13015c	3	1	main_z	11	advance_on_keypress_ZEE	10	stimuli_distractor_trianglediamonds.svg	stimuli_target_rectanglediamonds.svg	10	yes	57	0	936	0	0			0	0			1				0	
6.6.1	win	2023-07-12	22:37:07	22:46:51	579079	63ea44a0adefd2af8e13015c	3	1	main_z	11	main_z	11	stimuli_distractor_trianglediamonds.svg	stimuli_distractor_trianglediamonds.svg	33	no	0	1	2000	0	0			0	0			1				0	
6.6.1	win	2023-07-12	22:37:07	22:46:51	579079	63ea44a0adefd2af8e13015c	3	1	main_z	11	advance_on_keypress_ZEE	12	stimuli_distractor_trianglediamonds.svg	stimuli_distractor_trianglediamonds.svg	33	no	57	0	516	0	0			0	0			1				0	
6.6.1	win	2023-07-12	22:37:07	22:46:53	580653	63ea44a0adefd2af8e13015c	3	1	main_z	11	main_z	13	stimuli_distractor_diamondtriangles.svg	stimuli_target_rectanglediamonds.svg	14	yes	44	1	408	0	0			0	0			1				0	
6.6.1	win	2023-07-12	22:37:07	22:46:53	580653	63ea44a0adefd2af8e13015c	3	1	main_z	11	advance_on_keypress_ZEE	14	stimuli_distractor_diamondtriangles.svg	stimuli_target_rectanglediamonds.svg	14	yes	57	0	1087	0	0			0	0			1				0	
6.6.1	win	2023-07-12	22:37:07	22:46:55	582892	63ea44a0adefd2af8e13015c	3	1	main_z	11	main_z	15	stimuli_distractor_diamondtriangles.svg	stimuli_target_trianglesquares.svg	30	yes	44	1	506	0	0			0	0			1				0	
6.6.1	win	2023-07-12	22:37:07	22:46:55	582892	63ea44a0adefd2af8e13015c	3	1	main_z	11	advance_on_keypress_ZEE	16	stimuli_distractor_diamondtriangles.svg	stimuli_target_trianglesquares.svg	30	yes	57	0	1699	0	0			0	0			1				0	
6.6.1	win	2023-07-12	22:37:07	22:46:58	585829	63ea44a0adefd2af8e13015c	3	1	main_z	11	main_z	17	stimuli_distractor_trianglediamonds.svg	stimuli_target_rectangletriangles.svg	9	yes	44	1	584	0	0			0	0			1				0	
6.6.1	win	2023-07-12	22:37:07	22:46:58	585829	63ea44a0adefd2af8e13015c	3	1	main_z	11	advance_on_keypress_ZEE	18	stimuli_distractor_trianglediamonds.svg	stimuli_target_rectangletriangles.svg	9	yes	57	0	837	0	0			0	0			1				0	
6.6.1	win	2023-07-12	22:37:07	22:47:01	589311	63ea44a0adefd2af8e13015c	3	1	main_z	11	main_z	19	stimuli_distractor_trianglediamonds.svg	stimuli_distractor_diamondtriangles.svg	35	no	0	1	2000	0	0			0	0			1				0	
6.6.1	win	2023-07-12	22:37:07	22:47:01	589311	63ea44a0adefd2af8e13015c	3	1	main_z	11	advance_on_keypress_ZEE	20	stimuli_distractor_trianglediamonds.svg	stimuli_distractor_diamondtriangles.svg	35	no	57	0	476	0	0			0	0			1				0	
6.6.1	win	2023-07-12	22:37:07	22:47:03	590809	63ea44a0adefd2af8e13015c	3	1	main_z	11	main_z	21	stimuli_distractor_trianglediamonds.svg	stimuli_target_squarediamonds.svg	12	yes	44	1	371	0	0			0	0			1				0	
6.6.1	win	2023-07-12	22:37:07	22:47:03	590809	63ea44a0adefd2af8e13015c	3	1	main_z	11	advance_on_keypress_ZEE	22	stimuli_distractor_trianglediamonds.svg	stimuli_target_squarediamonds.svg	12	yes	57	0	881	0	0			0	0			1				0	
6.6.1	win	2023-07-12	22:37:07	22:47:05	592807	63ea44a0adefd2af8e13015c	3	1	main_z	11	main_z	23	stimuli_target_squarediamonds.svg	stimuli_distractor_diamondtriangles.svg	8	yes	44	1	463	0	0			0	0			1				0	
6.6.1	win	2023-07-12	22:37:07	22:47:05	592807	63ea44a0adefd2af8e13015c	3	1	main_z	11	advance_on_keypress_ZEE	24	stimuli_target_squarediamonds.svg	stimuli_distractor_diamondtriangles.svg	8	yes	57	0	901	0	0			0	0			1				0	
6.6.1	win	2023-07-12	22:37:07	22:47:07	595082	63ea44a0adefd2af8e13015c	3	1	main_z	11	main_z	25	stimuli_target_diamondsquares.svg	stimuli_distractor_diamondtriangles.svg	24	yes	44	1	720	0	0			0	0			1				0	
6.6.1	win	2023-07-12	22:37:07	22:47:07	595082	63ea44a0adefd2af8e13015c	3	1	main_z	11	advance_on_keypress_ZEE	26	stimuli_target_diamondsquares.svg	stimuli_distractor_diamondtriangles.svg	24	yes	57	0	868	0	0			0	0			1				0	
6.6.1	win	2023-07-12	22:37:07	22:47:10	597561	63ea44a0adefd2af8e13015c	3	1	main_z	11	main_z	27	stimuli_target_trianglerectangles.svg	stimuli_distractor_diamondtriangles.svg	21	yes	44	1	966	0	0			0	0			1				0	
6.6.1	win	2023-07-12	22:37:07	22:47:10	597561	63ea44a0adefd2af8e13015c	3	1	main_z	11	advance_on_keypress_ZEE	28	stimuli_target_trianglerectangles.svg	stimuli_distractor_diamondtriangles.svg	21	yes	57	0	724	0	0			0	0			1				0	
6.6.1	win	2023-07-12	22:37:07	22:47:11	599472	63ea44a0adefd2af8e13015c	3	1	main_z	11	main_z	29	stimuli_distractor_trianglediamonds.svg	stimuli_target_trianglesquares.svg	26	yes	44	1	545	0	0			0	0			1				0	
6.6.1	win	2023-07-12	22:37:07	22:47:11	599472	63ea44a0adefd2af8e13015c	3	1	main_z	11	advance_on_keypress_ZEE	30	stimuli_distractor_trianglediamonds.svg	stimuli_target_trianglesquares.svg	26	yes	57	0	512	0	0			0	0			1				0	
6.6.1	win	2023-07-12	22:37:07	22:47:13	601080	63ea44a0adefd2af8e13015c	3	1	main_z	11	main_z	31	stimuli_target_trianglesquares.svg	stimuli_distractor_diamondtriangles.svg	22	yes	44	1	469	0	0			0	0			1				0	
6.6.1	win	2023-07-12	22:37:07	22:47:13	601080	63ea44a0adefd2af8e13015c	3	1	main_z	11	advance_on_keypress_ZEE	32	stimuli_target_trianglesquares.svg	stimuli_distractor_diamondtriangles.svg	22	yes	57	0	804	0	0			0	0			1				0	
6.6.1	win	2023-07-12	22:37:07	22:47:15	602843	63ea44a0adefd2af8e13015c	3	1	main_z	11	main_z	33	stimuli_target_diamondsquares.svg	stimuli_distractor_trianglediamonds.svg	20	yes	44	1	315	0	0			0	0			1				0	
6.6.1	win	2023-07-12	22:37:07	22:47:15	602843	63ea44a0adefd2af8e13015c	3	1	main_z	11	advance_on_keypress_ZEE	34	stimuli_target_diamondsquares.svg	stimuli_distractor_trianglediamonds.svg	20	yes	57	0	523	0	0			0	0			1				0	
6.6.1	win	2023-07-12	22:37:07	22:47:16	604511	63ea44a0adefd2af8e13015c	3	1	main_z	11	main_z	35	stimuli_distractor_diamondtriangles.svg	stimuli_target_trianglerectangles.svg	29	yes	44	1	499	0	0			0	0			1				0	
6.6.1	win	2023-07-12	22:37:07	22:47:16	604511	63ea44a0adefd2af8e13015c	3	1	main_z	11	advance_on_keypress_ZEE	36	stimuli_distractor_diamondtriangles.svg	stimuli_target_trianglerectangles.svg	29	yes	57	0	928	0	0			0	0			1				0	
6.6.1	win	2023-07-12	22:37:07	22:47:20	608078	63ea44a0adefd2af8e13015c	3	1	main_z	11	main_z	37	stimuli_distractor_diamondtriangles.svg	stimuli_distractor_diamondtriangles.svg	40	no	0	1	2000	0	0			0	0			1				0	
6.6.1	win	2023-07-12	22:37:07	22:47:20	608078	63ea44a0adefd2af8e13015c	3	1	main_z	11	advance_on_keypress_ZEE	38	stimuli_distractor_diamondtriangles.svg	stimuli_distractor_diamondtriangles.svg	40	no	57	0	507	0	0			0	0			1				0	
6.6.1	win	2023-07-12	22:37:07	22:47:23	611228	63ea44a0adefd2af8e13015c	3	1	main_z	11	main_z	39	stimuli_distractor_diamondtriangles.svg	stimuli_distractor_diamondtriangles.svg	39	no	0	1	2000	0	0			0	0			1				0	
6.6.1	win	2023-07-12	22:37:07	22:47:23	611228	63ea44a0adefd2af8e13015c	3	1	main_z	11	advance_on_keypress_ZEE	40	stimuli_distractor_diamondtriangles.svg	stimuli_distractor_diamondtriangles.svg	39	no	57	0	1110	0	0			0	0			1				0	
6.6.1	win	2023-07-12	22:37:07	22:47:25	613531	63ea44a0adefd2af8e13015c	3	1	main_z	11	main_z	41	stimuli_target_diamondrectangles.svg	stimuli_distractor_trianglediamonds.svg	19	yes	44	1	552	0	0			0	0			1				0	
6.6.1	win	2023-07-12	22:37:07	22:47:25	613531	63ea44a0adefd2af8e13015c	3	1	main_z	11	advance_on_keypress_ZEE	42	stimuli_target_diamondrectangles.svg	stimuli_distractor_trianglediamonds.svg	19	yes	57	0	738	0	0			0	0			1				0	
6.6.1	win	2023-07-12	22:37:07	22:47:27	615391	63ea44a0adefd2af8e13015c	3	1	main_z	11	main_z	43	stimuli_distractor_trianglediamonds.svg	stimuli_target_diamondsquares.svg	28	yes	44	1	479	0	0			0	0			1				0	
6.6.1	win	2023-07-12	22:37:07	22:47:27	615391	63ea44a0adefd2af8e13015c	3	1	main_z	11	advance_on_keypress_ZEE	44	stimuli_distractor_trianglediamonds.svg	stimuli_target_diamondsquares.svg	28	yes	57	0	734	0	0			0	0			1				0	
6.6.1	win	2023-07-12	22:37:07	22:47:29	617299	63ea44a0adefd2af8e13015c	3	1	main_z	11	main_z	45	stimuli_target_squaretriangles.svg	stimuli_distractor_trianglediamonds.svg	3	yes	44	1	521	0	0			0	0			1				0	
6.6.1	win	2023-07-12	22:37:07	22:47:29	617299	63ea44a0adefd2af8e13015c	3	1	main_z	11	advance_on_keypress_ZEE	46	stimuli_target_squaretriangles.svg	stimuli_distractor_trianglediamonds.svg	3	yes	57	0	1097	0	0			0	0			1				0	
6.6.1	win	2023-07-12	22:37:07	22:47:32	619568	63ea44a0adefd2af8e13015c	3	1	main_z	11	main_z	47	stimuli_distractor_diamondtriangles.svg	stimuli_target_diamondrectangles.svg	31	yes	44	1	523	0	0			0	0			1				0	
6.6.1	win	2023-07-12	22:37:07	22:47:32	619568	63ea44a0adefd2af8e13015c	3	1	main_z	11	advance_on_keypress_ZEE	48	stimuli_distractor_diamondtriangles.svg	stimuli_target_diamondrectangles.svg	31	yes	57	0	550	0	0			0	0			1				0	
6.6.1	win	2023-07-12	22:37:07	22:47:33	621192	63ea44a0adefd2af8e13015c	3	1	main_z	11	main_z	49	stimuli_target_squarediamonds.svg	stimuli_distractor_trianglediamonds.svg	4	yes	44	1	430	0	0			0	0			1				0	
6.6.1	win	2023-07-12	22:37:07	22:47:33	621192	63ea44a0adefd2af8e13015c	3	1	main_z	11	advance_on_keypress_ZEE	50	stimuli_target_squarediamonds.svg	stimuli_distractor_trianglediamonds.svg	4	yes	57	0	558	0	0			0	0			1				0	
6.6.1	win	2023-07-12	22:37:07	22:47:35	623414	63ea44a0adefd2af8e13015c	3	1	main_z	11	main_z	51	stimuli_target_trianglerectangles.svg	stimuli_distractor_trianglediamonds.svg	17	yes	44	1	1019	0	0			0	0			1				0	
6.6.1	win	2023-07-12	22:37:07	22:47:35	623414	63ea44a0adefd2af8e13015c	3	1	main_z	11	advance_on_keypress_ZEE	52	stimuli_target_trianglerectangles.svg	stimuli_distractor_trianglediamonds.svg	17	yes	57	0	671	0	0			0	0			1				0	
6.6.1	win	2023-07-12	22:37:07	22:47:37	625244	63ea44a0adefd2af8e13015c	3	1	main_z	11	main_z	53	stimuli_target_diamondrectangles.svg	stimuli_distractor_diamondtriangles.svg	23	yes	44	1	515	0	0			0	0			1				0	
6.6.1	win	2023-07-12	22:37:07	22:47:37	625244	63ea44a0adefd2af8e13015c	3	1	main_z	11	advance_on_keypress_ZEE	54	stimuli_target_diamondrectangles.svg	stimuli_distractor_diamondtriangles.svg	23	yes	57	0	515	0	0			0	0			1				0	
6.6.1	win	2023-07-12	22:37:07	22:47:40	628412	63ea44a0adefd2af8e13015c	3	1	main_z	11	main_z	55	stimuli_distractor_trianglediamonds.svg	stimuli_distractor_diamondtriangles.svg	36	no	0	1	2000	0	0			0	0			1				0	
6.6.1	win	2023-07-12	22:37:07	22:47:40	628412	63ea44a0adefd2af8e13015c	3	1	main_z	11	advance_on_keypress_ZEE	56	stimuli_distractor_trianglediamonds.svg	stimuli_distractor_diamondtriangles.svg	36	no	57	0	390	0	0			0	0			1				0	
6.6.1	win	2023-07-12	22:37:07	22:47:42	629944	63ea44a0adefd2af8e13015c	3	1	main_z	11	main_z	57	stimuli_distractor_diamondtriangles.svg	stimuli_target_rectangletriangles.svg	13	yes	44	1	499	0	0			0	0			1				0	
6.6.1	win	2023-07-12	22:37:07	22:47:42	629944	63ea44a0adefd2af8e13015c	3	1	main_z	11	advance_on_keypress_ZEE	58	stimuli_distractor_diamondtriangles.svg	stimuli_target_rectangletriangles.svg	13	yes	57	0	748	0	0			0	0			1				0	
6.6.1	win	2023-07-12	22:37:07	22:47:44	632201	63ea44a0adefd2af8e13015c	3	1	main_z	11	main_z	59	stimuli_distractor_diamondtriangles.svg	stimuli_target_squaretriangles.svg	15	yes	44	1	856	0	0			0	0			1				0	
6.6.1	win	2023-07-12	22:37:07	22:47:44	632201	63ea44a0adefd2af8e13015c	3	1	main_z	11	advance_on_keypress_ZEE	60	stimuli_distractor_diamondtriangles.svg	stimuli_target_squaretriangles.svg	15	yes	57	0	1358	0	0			0	0			1				0	
6.6.1	win	2023-07-12	22:37:07	22:47:48	636196	63ea44a0adefd2af8e13015c	3	1	main_z	11	main_z	61	stimuli_distractor_diamondtriangles.svg	stimuli_distractor_trianglediamonds.svg	37	no	0	1	2000	0	0			0	0			1				0	
6.6.1	win	2023-07-12	22:37:07	22:47:48	636196	63ea44a0adefd2af8e13015c	3	1	main_z	11	advance_on_keypress_ZEE	62	stimuli_distractor_diamondtriangles.svg	stimuli_distractor_trianglediamonds.svg	37	no	57	0	434	0	0			0	0			1				0	
6.6.1	win	2023-07-12	22:37:07	22:47:50	637863	63ea44a0adefd2af8e13015c	3	1	main_z	11	main_z	63	stimuli_distractor_diamondtriangles.svg	stimuli_target_diamondsquares.svg	32	yes	44	1	585	0	0			0	0			1				0	
6.6.1	win	2023-07-12	22:37:07	22:47:50	637863	63ea44a0adefd2af8e13015c	3	1	main_z	11	advance_on_keypress_ZEE	64	stimuli_distractor_diamondtriangles.svg	stimuli_target_diamondsquares.svg	32	yes	57	0	799	0	0			0	0			1				0	
6.6.1	win	2023-07-12	22:37:07	22:47:52	639862	63ea44a0adefd2af8e13015c	3	1	main_z	11	main_z	65	stimuli_target_trianglesquares.svg	stimuli_distractor_trianglediamonds.svg	18	yes	44	1	550	0	0			0	0			1				0	
6.6.1	win	2023-07-12	22:37:07	22:47:52	639862	63ea44a0adefd2af8e13015c	3	1	main_z	11	advance_on_keypress_ZEE	66	stimuli_target_trianglesquares.svg	stimuli_distractor_trianglediamonds.svg	18	yes	57	0	837	0	0			0	0			1				0	
6.6.1	win	2023-07-12	22:37:07	22:47:54	641919	63ea44a0adefd2af8e13015c	3	1	main_z	11	main_z	67	stimuli_distractor_trianglediamonds.svg	stimuli_target_squaretriangles.svg	11	yes	44	1	573	0	0			0	0			1				0	
6.6.1	win	2023-07-12	22:37:07	22:47:54	641919	63ea44a0adefd2af8e13015c	3	1	main_z	11	advance_on_keypress_ZEE	68	stimuli_distractor_trianglediamonds.svg	stimuli_target_squaretriangles.svg	11	yes	57	0	501	0	0			0	0			1				0	
6.6.1	win	2023-07-12	22:37:07	22:47:57	645062	63ea44a0adefd2af8e13015c	3	1	main_z	11	main_z	69	stimuli_distractor_trianglediamonds.svg	stimuli_distractor_trianglediamonds.svg	34	no	0	1	2000	0	0			0	0			1				0	
6.6.1	win	2023-07-12	22:37:07	22:47:57	645062	63ea44a0adefd2af8e13015c	3	1	main_z	11	advance_on_keypress_ZEE	70	stimuli_distractor_trianglediamonds.svg	stimuli_distractor_trianglediamonds.svg	34	no	57	0	374	0	0			0	0			1				0	
6.6.1	win	2023-07-12	22:37:07	22:47:59	646617	63ea44a0adefd2af8e13015c	3	1	main_z	11	main_z	71	stimuli_target_rectangletriangles.svg	stimuli_distractor_trianglediamonds.svg	1	yes	44	1	538	0	0			0	0			1				0	
6.6.1	win	2023-07-12	22:37:07	22:47:59	646617	63ea44a0adefd2af8e13015c	3	1	main_z	11	advance_on_keypress_ZEE	72	stimuli_target_rectangletriangles.svg	stimuli_distractor_trianglediamonds.svg	1	yes	57	0	1372	0	0			0	0			1				0	
6.6.1	win	2023-07-12	22:37:07	22:48:01	648963	63ea44a0adefd2af8e13015c	3	1	main_z	11	main_z	73	stimuli_target_rectanglediamonds.svg	stimuli_distractor_trianglediamonds.svg	2	yes	44	1	334	0	0			0	0			1				0	
6.6.1	win	2023-07-12	22:37:07	22:48:01	648963	63ea44a0adefd2af8e13015c	3	1	main_z	11	advance_on_keypress_ZEE	74	stimuli_target_rectanglediamonds.svg	stimuli_distractor_trianglediamonds.svg	2	yes	57	0	602	0	0			0	0			1				0	
6.6.1	win	2023-07-12	22:37:07	22:48:02	650544	63ea44a0adefd2af8e13015c	3	1	main_z	11	main_z	75	stimuli_target_rectanglediamonds.svg	stimuli_distractor_diamondtriangles.svg	6	yes	44	1	331	0	0			0	0			1				0	
6.6.1	win	2023-07-12	22:37:07	22:48:02	650544	63ea44a0adefd2af8e13015c	3	1	main_z	11	advance_on_keypress_ZEE	76	stimuli_target_rectanglediamonds.svg	stimuli_distractor_diamondtriangles.svg	6	yes	57	0	448	0	0			0	0			1				0	
6.6.1	win	2023-07-12	22:37:07	22:48:06	653646	63ea44a0adefd2af8e13015c	3	1	main_z	11	main_z	77	stimuli_distractor_diamondtriangles.svg	stimuli_distractor_trianglediamonds.svg	38	no	0	1	2000	0	0			0	0			1				0	
6.6.1	win	2023-07-12	22:37:07	22:48:06	653646	63ea44a0adefd2af8e13015c	3	1	main_z	11	advance_on_keypress_ZEE	78	stimuli_distractor_diamondtriangles.svg	stimuli_distractor_trianglediamonds.svg	38	no	57	0	433	0	0			0	0			1				0	
6.6.1	win	2023-07-12	22:37:07	22:48:07	655057	63ea44a0adefd2af8e13015c	3	1	main_z	11	main_z	79	stimuli_target_squaretriangles.svg	stimuli_distractor_diamondtriangles.svg	7	yes	44	1	328	0	0			0	0			1				0	
6.6.1	win	2023-07-12	22:37:07	22:48:07	655057	63ea44a0adefd2af8e13015c	3	1	main_z	11	advance_on_keypress_ZEE	80	stimuli_target_squaretriangles.svg	stimuli_distractor_diamondtriangles.svg	7	yes	57	0	920	0	0			0	0			1				0	
6.6.1	win	2023-07-12	22:37:07	22:48:11	658612	63ea44a0adefd2af8e13015c	3	1	main_z	11	main_z	81	stimuli_distractor_trianglediamonds.svg	stimuli_distractor_diamondtriangles.svg	35	no	0	1	2000	0	0			0	0			1				0	
6.6.1	win	2023-07-12	22:37:07	22:48:11	658612	63ea44a0adefd2af8e13015c	3	1	main_z	11	advance_on_keypress_ZEE	82	stimuli_distractor_trianglediamonds.svg	stimuli_distractor_diamondtriangles.svg	35	no	57	0	648	0	0			0	0			1				0	
6.6.1	win	2023-07-12	22:37:07	22:48:14	661912	63ea44a0adefd2af8e13015c	3	1	main_z	11	main_z	83	stimuli_distractor_diamondtriangles.svg	stimuli_distractor_trianglediamonds.svg	38	no	0	1	2000	0	0			0	0			1				0	
6.6.1	win	2023-07-12	22:37:07	22:48:14	661912	63ea44a0adefd2af8e13015c	3	1	main_z	11	advance_on_keypress_ZEE	84	stimuli_distractor_diamondtriangles.svg	stimuli_distractor_trianglediamonds.svg	38	no	57	0	360	0	0			0	0			1				0	
6.6.1	win	2023-07-12	22:37:07	22:48:15	663174	63ea44a0adefd2af8e13015c	3	1	main_z	11	main_z	85	stimuli_target_squaretriangles.svg	stimuli_distractor_diamondtriangles.svg	7	yes	44	1	262	0	0			0	0			1				0	
6.6.1	win	2023-07-12	22:37:07	22:48:15	663174	63ea44a0adefd2af8e13015c	3	1	main_z	11	advance_on_keypress_ZEE	86	stimuli_target_squaretriangles.svg	stimuli_distractor_diamondtriangles.svg	7	yes	57	0	552	0	0			0	0			1				0	
6.6.1	win	2023-07-12	22:37:07	22:48:17	664846	63ea44a0adefd2af8e13015c	3	1	main_z	11	main_z	87	stimuli_target_squarediamonds.svg	stimuli_distractor_diamondtriangles.svg	8	yes	44	1	484	0	0			0	0			1				0	
6.6.1	win	2023-07-12	22:37:07	22:48:17	664846	63ea44a0adefd2af8e13015c	3	1	main_z	11	advance_on_keypress_ZEE	88	stimuli_target_squarediamonds.svg	stimuli_distractor_diamondtriangles.svg	8	yes	57	0	635	0	0			0	0			1				0	
6.6.1	win	2023-07-12	22:37:07	22:48:18	666438	63ea44a0adefd2af8e13015c	3	1	main_z	11	main_z	89	stimuli_target_squaretriangles.svg	stimuli_distractor_trianglediamonds.svg	3	yes	44	1	309	0	0			0	0			1				0	
6.6.1	win	2023-07-12	22:37:07	22:48:18	666438	63ea44a0adefd2af8e13015c	3	1	main_z	11	advance_on_keypress_ZEE	90	stimuli_target_squaretriangles.svg	stimuli_distractor_trianglediamonds.svg	3	yes	57	0	474	0	0			0	0			1				0	
6.6.1	win	2023-07-12	22:37:07	22:48:20	667826	63ea44a0adefd2af8e13015c	3	1	main_z	11	main_z	91	stimuli_distractor_diamondtriangles.svg	stimuli_distractor_diamondtriangles.svg	40	no	44	0	280	0	0			0	0			1				0	
6.6.1	win	2023-07-12	22:37:07	22:48:20	667826	63ea44a0adefd2af8e13015c	3	1	main_z	11	advance_on_keypress_ZEE	92	stimuli_distractor_diamondtriangles.svg	stimuli_distractor_diamondtriangles.svg	40	no	57	0	551	0	0			0	0			1				0	
6.6.1	win	2023-07-12	22:37:07	22:48:22	669681	63ea44a0adefd2af8e13015c	3	1	main_z	11	main_z	93	stimuli_distractor_diamondtriangles.svg	stimuli_target_rectangletriangles.svg	13	yes	44	1	652	0	0			0	0			1				0	
6.6.1	win	2023-07-12	22:37:07	22:48:22	669681	63ea44a0adefd2af8e13015c	3	1	main_z	11	advance_on_keypress_ZEE	94	stimuli_distractor_diamondtriangles.svg	stimuli_target_rectangletriangles.svg	13	yes	57	0	467	0	0			0	0			1				0	
6.6.1	win	2023-07-12	22:37:07	22:48:23	671510	63ea44a0adefd2af8e13015c	3	1	main_z	11	main_z	95	stimuli_target_trianglesquares.svg	stimuli_distractor_trianglediamonds.svg	18	yes	44	1	714	0	0			0	0			1				0	
6.6.1	win	2023-07-12	22:37:07	22:48:23	671510	63ea44a0adefd2af8e13015c	3	1	main_z	11	advance_on_keypress_ZEE	96	stimuli_target_trianglesquares.svg	stimuli_distractor_trianglediamonds.svg	18	yes	57	0	414	0	0			0	0			1				0	
6.6.1	win	2023-07-12	22:37:07	22:48:25	672979	63ea44a0adefd2af8e13015c	3	1	main_z	11	main_z	97	stimuli_distractor_diamondtriangles.svg	stimuli_target_squarediamonds.svg	16	yes	44	1	400	0	0			0	0			1				0	
6.6.1	win	2023-07-12	22:37:07	22:48:25	672979	63ea44a0adefd2af8e13015c	3	1	main_z	11	advance_on_keypress_ZEE	98	stimuli_distractor_diamondtriangles.svg	stimuli_target_squarediamonds.svg	16	yes	57	0	459	0	0			0	0			1				0	
6.6.1	win	2023-07-12	22:37:07	22:48:26	674518	63ea44a0adefd2af8e13015c	3	1	main_z	11	main_z	99	stimuli_distractor_trianglediamonds.svg	stimuli_target_squaretriangles.svg	11	yes	44	1	439	0	0			0	0			1				0	
6.6.1	win	2023-07-12	22:37:07	22:48:26	674518	63ea44a0adefd2af8e13015c	3	1	main_z	11	advance_on_keypress_ZEE	100	stimuli_distractor_trianglediamonds.svg	stimuli_target_squaretriangles.svg	11	yes	57	0	526	0	0			0	0			1				0	
6.6.1	win	2023-07-12	22:37:07	22:48:28	676019	63ea44a0adefd2af8e13015c	3	1	main_z	11	main_z	101	stimuli_distractor_trianglediamonds.svg	stimuli_distractor_trianglediamonds.svg	33	no	44	0	340	0	0			0	0			1				0	
6.6.1	win	2023-07-12	22:37:07	22:48:28	676019	63ea44a0adefd2af8e13015c	3	1	main_z	11	advance_on_keypress_ZEE	102	stimuli_distractor_trianglediamonds.svg	stimuli_distractor_trianglediamonds.svg	33	no	57	0	508	0	0			0	0			1				0	
6.6.1	win	2023-07-12	22:37:07	22:48:29	677526	63ea44a0adefd2af8e13015c	3	1	main_z	11	main_z	103	stimuli_distractor_diamondtriangles.svg	stimuli_target_squaretriangles.svg	15	yes	44	1	363	0	0			0	0			1				0	
6.6.1	win	2023-07-12	22:37:07	22:48:29	677526	63ea44a0adefd2af8e13015c	3	1	main_z	11	advance_on_keypress_ZEE	104	stimuli_distractor_diamondtriangles.svg	stimuli_target_squaretriangles.svg	15	yes	57	0	1283	0	0			0	0			1				0	
6.6.1	win	2023-07-12	22:37:07	22:48:32	679800	63ea44a0adefd2af8e13015c	3	1	main_z	11	main_z	105	stimuli_target_rectangletriangles.svg	stimuli_distractor_trianglediamonds.svg	1	yes	44	1	337	0	0			0	0			1				0	
6.6.1	win	2023-07-12	22:37:07	22:48:32	679800	63ea44a0adefd2af8e13015c	3	1	main_z	11	advance_on_keypress_ZEE	106	stimuli_target_rectangletriangles.svg	stimuli_distractor_trianglediamonds.svg	1	yes	57	0	1164	0	0			0	0			1				0	
6.6.1	win	2023-07-12	22:37:07	22:48:36	683613	63ea44a0adefd2af8e13015c	3	1	main_z	11	main_z	107	stimuli_target_trianglerectangles.svg	stimuli_distractor_trianglediamonds.svg	17	yes	0	0	2000	0	0			0	0			1				0	
6.6.1	win	2023-07-12	22:37:07	22:48:36	683613	63ea44a0adefd2af8e13015c	3	1	main_z	11	advance_on_keypress_ZEE	108	stimuli_target_trianglerectangles.svg	stimuli_distractor_trianglediamonds.svg	17	yes	57	0	416	0	0			0	0			1				0	
6.6.1	win	2023-07-12	22:37:07	22:48:37	685396	63ea44a0adefd2af8e13015c	3	1	main_z	11	main_z	109	stimuli_distractor_diamondtriangles.svg	stimuli_target_diamondsquares.svg	32	yes	44	1	717	0	0			0	0			1				0	
6.6.1	win	2023-07-12	22:37:07	22:48:37	685396	63ea44a0adefd2af8e13015c	3	1	main_z	11	advance_on_keypress_ZEE	110	stimuli_distractor_diamondtriangles.svg	stimuli_target_diamondsquares.svg	32	yes	57	0	490	0	0			0	0			1				0	
6.6.1	win	2023-07-12	22:37:07	22:48:39	686885	63ea44a0adefd2af8e13015c	3	1	main_z	11	main_z	111	stimuli_distractor_trianglediamonds.svg	stimuli_target_squarediamonds.svg	12	yes	44	1	356	0	0			0	0			1				0	
6.6.1	win	2023-07-12	22:37:07	22:48:39	686885	63ea44a0adefd2af8e13015c	3	1	main_z	11	advance_on_keypress_ZEE	112	stimuli_distractor_trianglediamonds.svg	stimuli_target_squarediamonds.svg	12	yes	57	0	431	0	0			0	0			1				0	
6.6.1	win	2023-07-12	22:37:07	22:48:42	689963	63ea44a0adefd2af8e13015c	3	1	main_z	11	main_z	113	stimuli_distractor_diamondtriangles.svg	stimuli_distractor_diamondtriangles.svg	39	no	0	1	2000	0	0			0	0			1				0	
6.6.1	win	2023-07-12	22:37:07	22:48:42	689963	63ea44a0adefd2af8e13015c	3	1	main_z	11	advance_on_keypress_ZEE	114	stimuli_distractor_diamondtriangles.svg	stimuli_distractor_diamondtriangles.svg	39	no	57	0	529	0	0			0	0			1				0	
6.6.1	win	2023-07-12	22:37:07	22:48:43	691501	63ea44a0adefd2af8e13015c	3	1	main_z	11	main_z	115	stimuli_target_diamondsquares.svg	stimuli_distractor_diamondtriangles.svg	24	yes	44	1	355	0	0			0	0			1				0	
6.6.1	win	2023-07-12	22:37:07	22:48:43	691501	63ea44a0adefd2af8e13015c	3	1	main_z	11	advance_on_keypress_ZEE	116	stimuli_target_diamondsquares.svg	stimuli_distractor_diamondtriangles.svg	24	yes	57	0	522	0	0			0	0			1				0	
6.6.1	win	2023-07-12	22:37:07	22:48:46	693629	63ea44a0adefd2af8e13015c	3	1	main_z	11	main_z	117	stimuli_distractor_diamondtriangles.svg	stimuli_distractor_trianglediamonds.svg	37	no	44	0	966	0	0			0	0			1				0	
6.6.1	win	2023-07-12	22:37:07	22:48:46	693629	63ea44a0adefd2af8e13015c	3	1	main_z	11	advance_on_keypress_ZEE	118	stimuli_distractor_diamondtriangles.svg	stimuli_distractor_trianglediamonds.svg	37	no	57	0	529	0	0			0	0			1				0	
6.6.1	win	2023-07-12	22:37:07	22:48:47	695386	63ea44a0adefd2af8e13015c	3	1	main_z	11	main_z	119	stimuli_distractor_trianglediamonds.svg	stimuli_target_diamondrectangles.svg	27	yes	44	1	573	0	0			0	0			1				0	
6.6.1	win	2023-07-12	22:37:07	22:48:47	695386	63ea44a0adefd2af8e13015c	3	1	main_z	11	advance_on_keypress_ZEE	120	stimuli_distractor_trianglediamonds.svg	stimuli_target_diamondrectangles.svg	27	yes	57	0	586	0	0			0	0			1				0	
6.6.1	win	2023-07-12	22:37:07	22:48:49	697158	63ea44a0adefd2af8e13015c	3	1	main_z	11	main_z	121	stimuli_distractor_trianglediamonds.svg	stimuli_target_diamondsquares.svg	28	yes	44	1	545	0	0			0	0			1				0	
6.6.1	win	2023-07-12	22:37:07	22:48:49	697158	63ea44a0adefd2af8e13015c	3	1	main_z	11	advance_on_keypress_ZEE	122	stimuli_distractor_trianglediamonds.svg	stimuli_target_diamondsquares.svg	28	yes	57	0	637	0	0			0	0			1				0	
6.6.1	win	2023-07-12	22:37:07	22:48:52	699916	63ea44a0adefd2af8e13015c	3	1	main_z	11	main_z	123	stimuli_distractor_trianglediamonds.svg	stimuli_target_rectanglediamonds.svg	10	yes	44	1	1486	0	0			0	0			1				0	
6.6.1	win	2023-07-12	22:37:07	22:48:52	699916	63ea44a0adefd2af8e13015c	3	1	main_z	11	advance_on_keypress_ZEE	124	stimuli_distractor_trianglediamonds.svg	stimuli_target_rectanglediamonds.svg	10	yes	57	0	629	0	0			0	0			1				0	
6.6.1	win	2023-07-12	22:37:07	22:48:55	703196	63ea44a0adefd2af8e13015c	3	1	main_z	11	main_z	125	stimuli_distractor_trianglediamonds.svg	stimuli_distractor_trianglediamonds.svg	34	no	0	1	2000	0	0			0	0			1				0	
6.6.1	win	2023-07-12	22:37:07	22:48:55	703196	63ea44a0adefd2af8e13015c	3	1	main_z	11	advance_on_keypress_ZEE	126	stimuli_distractor_trianglediamonds.svg	stimuli_distractor_trianglediamonds.svg	34	no	57	0	417	0	0			0	0			1				0	
6.6.1	win	2023-07-12	22:37:07	22:48:57	704786	63ea44a0adefd2af8e13015c	3	1	main_z	11	main_z	127	stimuli_target_diamondsquares.svg	stimuli_distractor_trianglediamonds.svg	20	yes	44	1	523	0	0			0	0			1				0	
6.6.1	win	2023-07-12	22:37:07	22:48:57	704786	63ea44a0adefd2af8e13015c	3	1	main_z	11	advance_on_keypress_ZEE	128	stimuli_target_diamondsquares.svg	stimuli_distractor_trianglediamonds.svg	20	yes	57	0	1327	0	0			0	0			1				0	
6.6.1	win	2023-07-12	22:37:07	22:48:59	707158	63ea44a0adefd2af8e13015c	3	1	main_z	11	main_z	129	stimuli_distractor_diamondtriangles.svg	stimuli_target_rectanglediamonds.svg	14	yes	44	1	412	0	0			0	0			1				0	
6.6.1	win	2023-07-12	22:37:07	22:48:59	707158	63ea44a0adefd2af8e13015c	3	1	main_z	11	advance_on_keypress_ZEE	130	stimuli_distractor_diamondtriangles.svg	stimuli_target_rectanglediamonds.svg	14	yes	57	0	927	0	0			0	0			1				0	
6.6.1	win	2023-07-12	22:37:07	22:49:01	709200	63ea44a0adefd2af8e13015c	3	1	main_z	11	main_z	131	stimuli_target_rectangletriangles.svg	stimuli_distractor_diamondtriangles.svg	5	yes	44	1	470	0	0			0	0			1				0	
6.6.1	win	2023-07-12	22:37:07	22:49:01	709200	63ea44a0adefd2af8e13015c	3	1	main_z	11	advance_on_keypress_ZEE	132	stimuli_target_rectangletriangles.svg	stimuli_distractor_diamondtriangles.svg	5	yes	57	0	1235	0	0			0	0			1				0	
6.6.1	win	2023-07-12	22:37:07	22:49:04	711696	63ea44a0adefd2af8e13015c	3	1	main_z	11	main_z	133	stimuli_distractor_diamondtriangles.svg	stimuli_target_trianglesquares.svg	30	yes	44	1	617	0	0			0	0			1				0	
6.6.1	win	2023-07-12	22:37:07	22:49:04	711696	63ea44a0adefd2af8e13015c	3	1	main_z	11	advance_on_keypress_ZEE	134	stimuli_distractor_diamondtriangles.svg	stimuli_target_trianglesquares.svg	30	yes	57	0	1322	0	0			0	0			1				0	
6.6.1	win	2023-07-12	22:37:07	22:49:06	714429	63ea44a0adefd2af8e13015c	3	1	main_z	11	main_z	135	stimuli_target_rectanglediamonds.svg	stimuli_distractor_diamondtriangles.svg	6	yes	44	1	766	0	0			0	0			1				0	
6.6.1	win	2023-07-12	22:37:07	22:49:06	714429	63ea44a0adefd2af8e13015c	3	1	main_z	11	advance_on_keypress_ZEE	136	stimuli_target_rectanglediamonds.svg	stimuli_distractor_diamondtriangles.svg	6	yes	57	0	1386	0	0			0	0			1				0	
6.6.1	win	2023-07-12	22:37:07	22:49:09	716999	63ea44a0adefd2af8e13015c	3	1	main_z	11	main_z	137	stimuli_distractor_trianglediamonds.svg	stimuli_target_rectangletriangles.svg	9	yes	44	1	536	0	0			0	0			1				0	
6.6.1	win	2023-07-12	22:37:07	22:49:09	716999	63ea44a0adefd2af8e13015c	3	1	main_z	11	advance_on_keypress_ZEE	138	stimuli_distractor_trianglediamonds.svg	stimuli_target_rectangletriangles.svg	9	yes	57	0	1324	0	0			0	0			1				0	
6.6.1	win	2023-07-12	22:37:07	22:49:13	720963	63ea44a0adefd2af8e13015c	3	1	main_z	11	main_z	139	stimuli_distractor_trianglediamonds.svg	stimuli_distractor_diamondtriangles.svg	36	no	0	1	2000	0	0			0	0			1				0	
6.6.1	win	2023-07-12	22:37:07	22:49:13	720963	63ea44a0adefd2af8e13015c	3	1	main_z	11	advance_on_keypress_ZEE	140	stimuli_distractor_trianglediamonds.svg	stimuli_distractor_diamondtriangles.svg	36	no	57	0	439	0	0			0	0			1				0	
6.6.1	win	2023-07-12	22:37:07	22:49:15	722607	63ea44a0adefd2af8e13015c	3	1	main_z	11	main_z	141	stimuli_target_squarediamonds.svg	stimuli_distractor_trianglediamonds.svg	4	yes	44	1	560	0	0			0	0			1				0	
6.6.1	win	2023-07-12	22:37:07	22:49:15	722607	63ea44a0adefd2af8e13015c	3	1	main_z	11	advance_on_keypress_ZEE	142	stimuli_target_squarediamonds.svg	stimuli_distractor_trianglediamonds.svg	4	yes	57	0	1684	0	0			0	0			1				0	
6.6.1	win	2023-07-12	22:37:07	22:49:17	725480	63ea44a0adefd2af8e13015c	3	1	main_z	11	main_z	143	stimuli_target_trianglesquares.svg	stimuli_distractor_diamondtriangles.svg	22	yes	44	1	550	0	0			0	0			1				0	
6.6.1	win	2023-07-12	22:37:07	22:49:17	725480	63ea44a0adefd2af8e13015c	3	1	main_z	11	advance_on_keypress_ZEE	144	stimuli_target_trianglesquares.svg	stimuli_distractor_diamondtriangles.svg	22	yes	57	0	1353	0	0			0	0			1				0	
6.6.1	win	2023-07-12	22:37:07	22:49:20	728123	63ea44a0adefd2af8e13015c	3	1	main_z	11	main_z	145	stimuli_target_rectanglediamonds.svg	stimuli_distractor_trianglediamonds.svg	2	yes	44	1	644	0	0			0	0			1				0	
6.6.1	win	2023-07-12	22:37:07	22:49:20	728123	63ea44a0adefd2af8e13015c	3	1	main_z	11	advance_on_keypress_ZEE	146	stimuli_target_rectanglediamonds.svg	stimuli_distractor_trianglediamonds.svg	2	yes	57	0	908	0	0			0	0			1				0	
6.6.1	win	2023-07-12	22:37:07	22:49:22	730234	63ea44a0adefd2af8e13015c	3	1	main_z	11	main_z	147	stimuli_distractor_trianglediamonds.svg	stimuli_target_trianglerectangles.svg	25	yes	44	1	571	0	0			0	0			1				0	
6.6.1	win	2023-07-12	22:37:07	22:49:22	730234	63ea44a0adefd2af8e13015c	3	1	main_z	11	advance_on_keypress_ZEE	148	stimuli_distractor_trianglediamonds.svg	stimuli_target_trianglerectangles.svg	25	yes	57	0	783	0	0			0	0			1				0	
6.6.1	win	2023-07-12	22:37:07	22:49:24	732161	63ea44a0adefd2af8e13015c	3	1	main_z	11	main_z	149	stimuli_distractor_diamondtriangles.svg	stimuli_target_trianglerectangles.svg	29	yes	44	1	498	0	0			0	0			1				0	
6.6.1	win	2023-07-12	22:37:07	22:49:24	732161	63ea44a0adefd2af8e13015c	3	1	main_z	11	advance_on_keypress_ZEE	150	stimuli_distractor_diamondtriangles.svg	stimuli_target_trianglerectangles.svg	29	yes	57	0	621	0	0			0	0			1				0	
6.6.1	win	2023-07-12	22:37:07	22:49:26	733975	63ea44a0adefd2af8e13015c	3	1	main_z	11	main_z	151	stimuli_distractor_trianglediamonds.svg	stimuli_target_trianglesquares.svg	26	yes	44	1	545	0	0			0	0			1				0	
6.6.1	win	2023-07-12	22:37:07	22:49:26	733975	63ea44a0adefd2af8e13015c	3	1	main_z	11	advance_on_keypress_ZEE	152	stimuli_distractor_trianglediamonds.svg	stimuli_target_trianglesquares.svg	26	yes	57	0	967	0	0			0	0			1				0	
6.6.1	win	2023-07-12	22:37:07	22:49:28	736202	63ea44a0adefd2af8e13015c	3	1	main_z	11	main_z	153	stimuli_target_diamondrectangles.svg	stimuli_distractor_diamondtriangles.svg	23	yes	44	1	622	0	0			0	0			1				0	
6.6.1	win	2023-07-12	22:37:07	22:49:28	736202	63ea44a0adefd2af8e13015c	3	1	main_z	11	advance_on_keypress_ZEE	154	stimuli_target_diamondrectangles.svg	stimuli_distractor_diamondtriangles.svg	23	yes	57	0	1113	0	0			0	0			1				0	
6.6.1	win	2023-07-12	22:37:07	22:49:30	738497	63ea44a0adefd2af8e13015c	3	1	main_z	11	main_z	155	stimuli_target_trianglerectangles.svg	stimuli_distractor_diamondtriangles.svg	21	yes	44	1	533	0	0			0	0			1				0	
6.6.1	win	2023-07-12	22:37:07	22:49:30	738497	63ea44a0adefd2af8e13015c	3	1	main_z	11	advance_on_keypress_ZEE	156	stimuli_target_trianglerectangles.svg	stimuli_distractor_diamondtriangles.svg	21	yes	57	0	752	0	0			0	0			1				0	
6.6.1	win	2023-07-12	22:37:07	22:49:32	740432	63ea44a0adefd2af8e13015c	3	1	main_z	11	main_z	157	stimuli_target_diamondrectangles.svg	stimuli_distractor_trianglediamonds.svg	19	yes	44	1	535	0	0			0	0			1				0	
6.6.1	win	2023-07-12	22:37:07	22:49:32	740432	63ea44a0adefd2af8e13015c	3	1	main_z	11	advance_on_keypress_ZEE	158	stimuli_target_diamondrectangles.svg	stimuli_distractor_trianglediamonds.svg	19	yes	57	0	1100	0	0			0	0			1				0	
6.6.1	win	2023-07-12	22:37:07	22:49:35	742891	63ea44a0adefd2af8e13015c	3	1	main_z	11	main_z	159	stimuli_distractor_diamondtriangles.svg	stimuli_target_diamondrectangles.svg	31	yes	44	1	712	0	0			0	0			1				0	
6.6.1	win	2023-07-12	22:37:07	22:49:35	742891	63ea44a0adefd2af8e13015c	3	1	main_z	11	advance_on_keypress_ZEE	160	stimuli_distractor_diamondtriangles.svg	stimuli_target_diamondrectangles.svg	31	yes	57	0	770	0	0			0	0			1				0	
6.6.1	win	2023-07-12	22:37:07	22:49:35	742891	63ea44a0adefd2af8e13015c	3	1	headphonecheck_calibration	14	headphonecheck_calibrationIntro	1	stimuli_distractor_diamondtriangles.svg	stimuli_target_diamondrectangles.svg	31	yes	calibrationButton	0	4107	0	0			0	0			1				0	
6.6.1	win	2023-07-12	22:37:07	22:49:35	742891	63ea44a0adefd2af8e13015c	3	1	headphonecheck_testphase	15	test_collectResponse	3	stimuli_distractor_diamondtriangles.svg	stimuli_target_diamondrectangles.svg	31	yes	first	1	26980	1	4	antiphase_hc_sio.wav	1	0	0			1				0	
6.6.1	win	2023-07-12	22:37:07	22:49:35	742891	63ea44a0adefd2af8e13015c	3	1	headphonecheck_testphase	15	test_collectResponse	6	stimuli_distractor_diamondtriangles.svg	stimuli_target_diamondrectangles.svg	31	yes	first	0	1134	2	5	antiphase_hc_osi.wav	2	0	0			1				0	
6.6.1	win	2023-07-12	22:37:07	22:49:35	742891	63ea44a0adefd2af8e13015c	3	1	headphonecheck_testphase	15	test_collectResponse	9	stimuli_distractor_diamondtriangles.svg	stimuli_target_diamondrectangles.svg	31	yes	first	0	2611	3	6	antiphase_hc_ois.wav	3	0	0			1				0	
6.6.1	win	2023-07-12	22:37:07	22:49:35	742891	63ea44a0adefd2af8e13015c	3	1	headphonecheck_testphase	15	test_collectResponse	12	stimuli_distractor_diamondtriangles.svg	stimuli_target_diamondrectangles.svg	31	yes	second	0	686	4	3	antiphase_hc_soi.wav	1	0	0			1				0	
6.6.1	win	2023-07-12	22:37:07	22:49:35	742891	63ea44a0adefd2af8e13015c	3	1	headphonecheck_testphase	15	test_collectResponse	15	stimuli_distractor_diamondtriangles.svg	stimuli_target_diamondrectangles.svg	31	yes	third	0	964	5	1	antiphase_hc_iso.wav	2	0	0			1				0	
6.6.1	win	2023-07-12	22:37:07	22:49:35	742891	63ea44a0adefd2af8e13015c	3	1	headphonecheck_testphase	15	test_collectResponse	18	stimuli_distractor_diamondtriangles.svg	stimuli_target_diamondrectangles.svg	31	yes	second	0	533	6	2	antiphase_hc_ios.wav	3	0	0			1				0	
6.6.1	win	2023-07-12	22:37:07	22:49:35	742891	63ea44a0adefd2af8e13015c	3	1	stereocheck_calibration	17	stereocheck_calibrationIntro	1	stimuli_distractor_diamondtriangles.svg	stimuli_target_diamondrectangles.svg	31	yes	stereocheck_calibrationButton	0	71154	6	2	antiphase_hc_ios.wav	3	0	0			1				0	
6.6.1	win	2023-07-12	22:37:07	22:49:35	742891	63ea44a0adefd2af8e13015c	3	1	stereocheck_testphase	18	stereocheck_test_collectResponse	3	stimuli_distractor_diamondtriangles.svg	stimuli_target_diamondrectangles.svg	31	yes	stereocheck_right	1	551	6	2	antiphase_hc_ios.wav	3	1	6	noise_calib_stim_RIGHT.wav	2	1				0	
6.6.1	win	2023-07-12	22:37:07	22:49:35	742891	63ea44a0adefd2af8e13015c	3	1	stereocheck_testphase	18	stereocheck_test_collectResponse	6	stimuli_distractor_diamondtriangles.svg	stimuli_target_diamondrectangles.svg	31	yes	stereocheck_left	1	681	6	2	antiphase_hc_ios.wav	3	2	3	noise_calib_stim_LEFT.wav	1	1				0	
6.6.1	win	2023-07-12	22:37:07	22:49:35	742891	63ea44a0adefd2af8e13015c	3	1	stereocheck_testphase	18	stereocheck_test_collectResponse	9	stimuli_distractor_diamondtriangles.svg	stimuli_target_diamondrectangles.svg	31	yes	stereocheck_right	1	607	6	2	antiphase_hc_ios.wav	3	3	4	noise_calib_stim_RIGHT.wav	2	1				0	
6.6.1	win	2023-07-12	22:37:07	22:49:35	742891	63ea44a0adefd2af8e13015c	3	1	stereocheck_testphase	18	stereocheck_test_collectResponse	12	stimuli_distractor_diamondtriangles.svg	stimuli_target_diamondrectangles.svg	31	yes	stereocheck_right	1	500	6	2	antiphase_hc_ios.wav	3	4	5	noise_calib_stim_RIGHT.wav	2	1				0	
6.6.1	win	2023-07-12	22:37:07	22:49:35	742891	63ea44a0adefd2af8e13015c	3	1	stereocheck_testphase	18	stereocheck_test_collectResponse	15	stimuli_distractor_diamondtriangles.svg	stimuli_target_diamondrectangles.svg	31	yes	stereocheck_left	1	507	6	2	antiphase_hc_ios.wav	3	5	2	noise_calib_stim_LEFT.wav	1	1				0	
6.6.1	win	2023-07-12	22:37:07	22:49:35	742891	63ea44a0adefd2af8e13015c	3	1	stereocheck_testphase	18	stereocheck_test_collectResponse	18	stimuli_distractor_diamondtriangles.svg	stimuli_target_diamondrectangles.svg	31	yes	stereocheck_left	1	579	6	2	antiphase_hc_ios.wav	3	6	1	noise_calib_stim_LEFT.wav	1	1				0	
6.6.1	win	2023-07-12	22:37:07	22:49:35	742891	63ea44a0adefd2af8e13015c	3	1	DL_practice	21	DL_practice	2	stimuli_distractor_diamondtriangles.svg	stimuli_target_diamondrectangles.svg	31	yes	ga	0	3354	6	2	antiphase_hc_ios.wav	3	6	1	noise_calib_stim_LEFT.wav	1	36	blb_dichoticlistening_ta-ta.mp3	ta	ta	0	other
6.6.1	win	2023-07-12	22:37:07	22:49:35	742891	63ea44a0adefd2af8e13015c	3	1	DL_practice	21	DL_practice	3	stimuli_distractor_diamondtriangles.svg	stimuli_target_diamondrectangles.svg	31	yes	ka	1	2124	6	2	antiphase_hc_ios.wav	3	6	1	noise_calib_stim_LEFT.wav	1	23	blb_dichoticlistening_ka-pa.mp3	ka	pa	1	left
6.6.1	win	2023-07-12	22:37:07	22:49:35	742891	63ea44a0adefd2af8e13015c	3	1	DL_practice	21	DL_practice	4	stimuli_distractor_diamondtriangles.svg	stimuli_target_diamondrectangles.svg	31	yes	ga	0	848	6	2	antiphase_hc_ios.wav	3	6	1	noise_calib_stim_LEFT.wav	1	7	blb_dichoticlistening_da-ba.mp3	da	ba	1	other
6.6.1	win	2023-07-12	22:37:07	22:49:35	742891	63ea44a0adefd2af8e13015c	3	1	DL_practice	21	DL_practice	5	stimuli_distractor_diamondtriangles.svg	stimuli_target_diamondrectangles.svg	31	yes	ka	1	1655	6	2	antiphase_hc_ios.wav	3	6	1	noise_calib_stim_LEFT.wav	1	22	blb_dichoticlistening_ka-ka.mp3	ka	ka	0	left
6.6.1	win	2023-07-12	22:37:07	22:49:35	742891	63ea44a0adefd2af8e13015c	3	1	DL_practice	21	DL_practice	6	stimuli_distractor_diamondtriangles.svg	stimuli_target_diamondrectangles.svg	31	yes	ta	0	1495	6	2	antiphase_hc_ios.wav	3	6	1	noise_calib_stim_LEFT.wav	1	8	blb_dichoticlistening_da-da.mp3	da	da	0	other
6.6.1	win	2023-07-12	22:37:07	22:49:35	742891	63ea44a0adefd2af8e13015c	3	1	DL_practice	21	DL_practice	7	stimuli_distractor_diamondtriangles.svg	stimuli_target_diamondrectangles.svg	31	yes	pa	0	1002	6	2	antiphase_hc_ios.wav	3	6	1	noise_calib_stim_LEFT.wav	1	1	blb_dichoticlistening_ba-ba.mp3	ba	ba	0	other
6.6.1	win	2023-07-12	22:37:07	22:49:35	742891	63ea44a0adefd2af8e13015c	3	1	DL_practice	21	DL_practice	8	stimuli_distractor_diamondtriangles.svg	stimuli_target_diamondrectangles.svg	31	yes	ga	1	2089	6	2	antiphase_hc_ios.wav	3	6	1	noise_calib_stim_LEFT.wav	1	15	blb_dichoticlistening_ga-ga.mp3	ga	ga	0	left
6.6.1	win	2023-07-12	22:37:07	22:49:35	742891	63ea44a0adefd2af8e13015c	3	1	DL_practice	21	DL_practice	9	stimuli_distractor_diamondtriangles.svg	stimuli_target_diamondrectangles.svg	31	yes	da	0	2543	6	2	antiphase_hc_ios.wav	3	6	1	noise_calib_stim_LEFT.wav	1	29	blb_dichoticlistening_pa-pa.mp3	pa	pa	0	other
6.6.1	win	2023-07-12	22:37:07	22:49:35	742891	63ea44a0adefd2af8e13015c	3	1	DL_practice	21	DL_practice	10	stimuli_distractor_diamondtriangles.svg	stimuli_target_diamondrectangles.svg	31	yes	ba	0	2513	6	2	antiphase_hc_ios.wav	3	6	1	noise_calib_stim_LEFT.wav	1	18	blb_dichoticlistening_ga-ta.mp3	ga	ta	1	other
6.6.1	win	2023-07-12	22:37:07	22:49:35	742891	63ea44a0adefd2af8e13015c	3	1	DL_test	23	DL_test	1	stimuli_distractor_diamondtriangles.svg	stimuli_target_diamondrectangles.svg	31	yes	da	0	1654	6	2	antiphase_hc_ios.wav	3	6	1	noise_calib_stim_LEFT.wav	1	18	blb_dichoticlistening_ga-ta.mp3	ga	ta	1	other
6.6.1	win	2023-07-12	22:37:07	22:49:35	742891	63ea44a0adefd2af8e13015c	3	1	DL_test	23	DL_test	2	stimuli_distractor_diamondtriangles.svg	stimuli_target_diamondrectangles.svg	31	yes	ta	1	1725	6	2	antiphase_hc_ios.wav	3	6	1	noise_calib_stim_LEFT.wav	1	36	blb_dichoticlistening_ta-ta.mp3	ta	ta	0	left
6.6.1	win	2023-07-12	22:37:07	22:49:35	742891	63ea44a0adefd2af8e13015c	3	1	DL_test	23	DL_test	3	stimuli_distractor_diamondtriangles.svg	stimuli_target_diamondrectangles.svg	31	yes	ka	0	1996	6	2	antiphase_hc_ios.wav	3	6	1	noise_calib_stim_LEFT.wav	1	2	blb_dichoticlistening_ba-da.mp3	ba	da	1	other
6.6.1	win	2023-07-12	22:37:07	22:49:35	742891	63ea44a0adefd2af8e13015c	3	1	DL_test	23	DL_test	4	stimuli_distractor_diamondtriangles.svg	stimuli_target_diamondrectangles.svg	31	yes	da	0	2616	6	2	antiphase_hc_ios.wav	3	6	1	noise_calib_stim_LEFT.wav	1	30	blb_dichoticlistening_pa-ta.mp3	pa	ta	1	other
6.6.1	win	2023-07-12	22:37:07	22:49:35	742891	63ea44a0adefd2af8e13015c	3	1	DL_test	23	DL_test	5	stimuli_distractor_diamondtriangles.svg	stimuli_target_diamondrectangles.svg	31	yes	ba	1	2964	6	2	antiphase_hc_ios.wav	3	6	1	noise_calib_stim_LEFT.wav	1	19	blb_dichoticlistening_ka-ba.mp3	ka	ba	1	right
6.6.1	win	2023-07-12	22:37:07	22:49:35	742891	63ea44a0adefd2af8e13015c	3	1	DL_test	23	DL_test	6	stimuli_distractor_diamondtriangles.svg	stimuli_target_diamondrectangles.svg	31	yes	da	0	1440	6	2	antiphase_hc_ios.wav	3	6	1	noise_calib_stim_LEFT.wav	1	31	blb_dichoticlistening_ta-ba.mp3	ta	ba	1	other
6.6.1	win	2023-07-12	22:37:07	22:49:35	742891	63ea44a0adefd2af8e13015c	3	1	DL_test	23	DL_test	7	stimuli_distractor_diamondtriangles.svg	stimuli_target_diamondrectangles.svg	31	yes	ta	0	1716	6	2	antiphase_hc_ios.wav	3	6	1	noise_calib_stim_LEFT.wav	1	7	blb_dichoticlistening_da-ba.mp3	da	ba	1	other
6.6.1	win	2023-07-12	22:37:07	22:49:35	742891	63ea44a0adefd2af8e13015c	3	1	DL_test	23	DL_test	8	stimuli_distractor_diamondtriangles.svg	stimuli_target_diamondrectangles.svg	31	yes	ka	0	1366	6	2	antiphase_hc_ios.wav	3	6	1	noise_calib_stim_LEFT.wav	1	9	blb_dichoticlistening_da-ga.mp3	da	ga	1	other
6.6.1	win	2023-07-12	22:37:07	22:49:35	742891	63ea44a0adefd2af8e13015c	3	1	DL_test	23	DL_test	9	stimuli_distractor_diamondtriangles.svg	stimuli_target_diamondrectangles.svg	31	yes	pa	1	1214	6	2	antiphase_hc_ios.wav	3	6	1	noise_calib_stim_LEFT.wav	1	25	blb_dichoticlistening_pa-ba.mp3	pa	ba	1	left
6.6.1	win	2023-07-12	22:37:07	22:49:35	742891	63ea44a0adefd2af8e13015c	3	1	DL_test	23	DL_test	10	stimuli_distractor_diamondtriangles.svg	stimuli_target_diamondrectangles.svg	31	yes	ka	0	1644	6	2	antiphase_hc_ios.wav	3	6	1	noise_calib_stim_LEFT.wav	1	14	blb_dichoticlistening_ga-da.mp3	ga	da	1	other
6.6.1	win	2023-07-12	22:37:07	22:49:35	742891	63ea44a0adefd2af8e13015c	3	1	DL_test	23	DL_test	11	stimuli_distractor_diamondtriangles.svg	stimuli_target_diamondrectangles.svg	31	yes	ta	1	1403	6	2	antiphase_hc_ios.wav	3	6	1	noise_calib_stim_LEFT.wav	1	32	blb_dichoticlistening_ta-da.mp3	ta	da	1	left
6.6.1	win	2023-07-12	22:37:07	22:49:35	742891	63ea44a0adefd2af8e13015c	3	1	DL_test	23	DL_test	12	stimuli_distractor_diamondtriangles.svg	stimuli_target_diamondrectangles.svg	31	yes	ta	0	1687	6	2	antiphase_hc_ios.wav	3	6	1	noise_calib_stim_LEFT.wav	1	4	blb_dichoticlistening_ba-ka.mp3	ba	ka	1	other
6.6.1	win	2023-07-12	22:37:07	22:49:35	742891	63ea44a0adefd2af8e13015c	3	1	DL_test	23	DL_test	13	stimuli_distractor_diamondtriangles.svg	stimuli_target_diamondrectangles.svg	31	yes	ta	1	1500	6	2	antiphase_hc_ios.wav	3	6	1	noise_calib_stim_LEFT.wav	1	34	blb_dichoticlistening_ta-ka.mp3	ta	ka	1	left
6.6.1	win	2023-07-12	22:37:07	22:49:35	742891	63ea44a0adefd2af8e13015c	3	1	DL_test	23	DL_test	14	stimuli_distractor_diamondtriangles.svg	stimuli_target_diamondrectangles.svg	31	yes	pa	0	1952	6	2	antiphase_hc_ios.wav	3	6	1	noise_calib_stim_LEFT.wav	1	3	blb_dichoticlistening_ba-ga.mp3	ba	ga	1	other
6.6.1	win	2023-07-12	22:37:07	22:49:35	742891	63ea44a0adefd2af8e13015c	3	1	DL_test	23	DL_test	15	stimuli_distractor_diamondtriangles.svg	stimuli_target_diamondrectangles.svg	31	yes	da	0	1378	6	2	antiphase_hc_ios.wav	3	6	1	noise_calib_stim_LEFT.wav	1	1	blb_dichoticlistening_ba-ba.mp3	ba	ba	0	other
6.6.1	win	2023-07-12	22:37:07	22:49:35	742891	63ea44a0adefd2af8e13015c	3	1	DL_test	23	DL_test	16	stimuli_distractor_diamondtriangles.svg	stimuli_target_diamondrectangles.svg	31	yes	ka	1	1346	6	2	antiphase_hc_ios.wav	3	6	1	noise_calib_stim_LEFT.wav	1	16	blb_dichoticlistening_ga-ka.mp3	ga	ka	1	right
6.6.1	win	2023-07-12	22:37:07	22:49:35	742891	63ea44a0adefd2af8e13015c	3	1	DL_test	23	DL_test	17	stimuli_distractor_diamondtriangles.svg	stimuli_target_diamondrectangles.svg	31	yes	ta	1	1380	6	2	antiphase_hc_ios.wav	3	6	1	noise_calib_stim_LEFT.wav	1	12	blb_dichoticlistening_da-ta.mp3	da	ta	1	right
6.6.1	win	2023-07-12	22:37:07	22:49:35	742891	63ea44a0adefd2af8e13015c	3	1	DL_test	23	DL_test	18	stimuli_distractor_diamondtriangles.svg	stimuli_target_diamondrectangles.svg	31	yes	ta	1	2281	6	2	antiphase_hc_ios.wav	3	6	1	noise_calib_stim_LEFT.wav	1	35	blb_dichoticlistening_ta-pa.mp3	ta	pa	1	left
6.6.1	win	2023-07-12	22:37:07	22:49:35	742891	63ea44a0adefd2af8e13015c	3	1	DL_test	23	DL_test	19	stimuli_distractor_diamondtriangles.svg	stimuli_target_diamondrectangles.svg	31	yes	da	0	1546	6	2	antiphase_hc_ios.wav	3	6	1	noise_calib_stim_LEFT.wav	1	5	blb_dichoticlistening_ba-pa.mp3	ba	pa	1	other
6.6.1	win	2023-07-12	22:37:07	22:49:35	742891	63ea44a0adefd2af8e13015c	3	1	DL_test	23	DL_test	20	stimuli_distractor_diamondtriangles.svg	stimuli_target_diamondrectangles.svg	31	yes	ka	0	1624	6	2	antiphase_hc_ios.wav	3	6	1	noise_calib_stim_LEFT.wav	1	33	blb_dichoticlistening_ta-ga.mp3	ta	ga	1	other
6.6.1	win	2023-07-12	22:37:07	22:49:35	742891	63ea44a0adefd2af8e13015c	3	1	DL_test	23	DL_test	21	stimuli_distractor_diamondtriangles.svg	stimuli_target_diamondrectangles.svg	31	yes	ka	1	1196	6	2	antiphase_hc_ios.wav	3	6	1	noise_calib_stim_LEFT.wav	1	21	blb_dichoticlistening_ka-ga.mp3	ka	ga	1	left
6.6.1	win	2023-07-12	22:37:07	22:49:35	742891	63ea44a0adefd2af8e13015c	3	1	DL_test	23	DL_test	22	stimuli_distractor_diamondtriangles.svg	stimuli_target_diamondrectangles.svg	31	yes	ka	0	1129	6	2	antiphase_hc_ios.wav	3	6	1	noise_calib_stim_LEFT.wav	1	27	blb_dichoticlistening_pa-ga.mp3	pa	ga	1	other
6.6.1	win	2023-07-12	22:37:07	22:49:35	742891	63ea44a0adefd2af8e13015c	3	1	DL_test	23	DL_test	23	stimuli_distractor_diamondtriangles.svg	stimuli_target_diamondrectangles.svg	31	yes	ta	1	1336	6	2	antiphase_hc_ios.wav	3	6	1	noise_calib_stim_LEFT.wav	1	24	blb_dichoticlistening_ka-ta.mp3	ka	ta	1	right
6.6.1	win	2023-07-12	22:37:07	22:49:35	742891	63ea44a0adefd2af8e13015c	3	1	DL_test	23	DL_test	24	stimuli_distractor_diamondtriangles.svg	stimuli_target_diamondrectangles.svg	31	yes	ta	0	1149	6	2	antiphase_hc_ios.wav	3	6	1	noise_calib_stim_LEFT.wav	1	26	blb_dichoticlistening_pa-da.mp3	pa	da	1	other
6.6.1	win	2023-07-12	22:37:07	22:49:35	742891	63ea44a0adefd2af8e13015c	3	1	DL_test	23	DL_test	25	stimuli_distractor_diamondtriangles.svg	stimuli_target_diamondrectangles.svg	31	yes	ka	0	1457	6	2	antiphase_hc_ios.wav	3	6	1	noise_calib_stim_LEFT.wav	1	15	blb_dichoticlistening_ga-ga.mp3	ga	ga	0	other
6.6.1	win	2023-07-12	22:37:07	22:49:35	742891	63ea44a0adefd2af8e13015c	3	1	DL_test	23	DL_test	26	stimuli_distractor_diamondtriangles.svg	stimuli_target_diamondrectangles.svg	31	yes	ta	0	1688	6	2	antiphase_hc_ios.wav	3	6	1	noise_calib_stim_LEFT.wav	1	8	blb_dichoticlistening_da-da.mp3	da	da	0	other
