build	computer.platform	date	time	timestamp	time_elapsed_ms	subject	group	session	blockcode	blocknum	trialcode	trialnum	stimulus_left	stimulus_right	stim_index	target_present	response	correct	latency	headphonecheck_countTestTrials	headphonecheck_index	headphonecheck_testSound	headphonecheck_correctResponse	stereocheck_countTestTrials	stereocheck_index	stereocheck_testSound	stereocheck_correctResponse	DL_index	DL_soundfile	DL_leftSound	DL_rightSound	DL_dualSound	DL_choice
6.6.1	and	2023-07-06	21:42:53	0	0	60fd58f89d037589c34f5a18	2	1	headphonecheck_calibration	4	headphonecheck_calibrationIntro	1			0		calibrationButton	0	2123	0	0			0	0			1				0	
6.6.1	and	2023-07-06	21:42:53	0	0	60fd58f89d037589c34f5a18	2	1	headphonecheck_testphase	5	test_collectResponse	3			0		first	1	3653	1	4	antiphase_hc_sio.wav	1	0	0			1				0	
6.6.1	and	2023-07-06	21:42:53	0	0	60fd58f89d037589c34f5a18	2	1	headphonecheck_testphase	5	test_collectResponse	6			0		first	1	2900	2	3	antiphase_hc_soi.wav	1	0	0			1				0	
6.6.1	and	2023-07-06	21:42:53	0	0	60fd58f89d037589c34f5a18	2	1	headphonecheck_testphase	5	test_collectResponse	9			0		third	1	859	3	6	antiphase_hc_ois.wav	3	0	0			1				0	
6.6.1	and	2023-07-06	21:42:53	0	0	60fd58f89d037589c34f5a18	2	1	headphonecheck_testphase	5	test_collectResponse	12			0		second	1	529	4	1	antiphase_hc_iso.wav	2	0	0			1				0	
6.6.1	and	2023-07-06	21:42:53	0	0	60fd58f89d037589c34f5a18	2	1	headphonecheck_testphase	5	test_collectResponse	15			0		second	1	612	5	5	antiphase_hc_osi.wav	2	0	0			1				0	
6.6.1	and	2023-07-06	21:42:53	0	0	60fd58f89d037589c34f5a18	2	1	headphonecheck_testphase	5	test_collectResponse	18			0		third	1	781	6	2	antiphase_hc_ios.wav	3	0	0			1				0	
6.6.1	and	2023-07-06	21:42:53	0	0	60fd58f89d037589c34f5a18	2	1	stereocheck_calibration	7	stereocheck_calibrationIntro	1			0		stereocheck_calibrationButton	0	1933	6	2	antiphase_hc_ios.wav	3	0	0			1				0	
6.6.1	and	2023-07-06	21:42:53	0	0	60fd58f89d037589c34f5a18	2	1	stereocheck_testphase	8	stereocheck_test_collectResponse	3			0		stereocheck_right	1	503	6	2	antiphase_hc_ios.wav	3	1	4	noise_calib_stim_RIGHT.wav	2	1				0	
6.6.1	and	2023-07-06	21:42:53	0	0	60fd58f89d037589c34f5a18	2	1	stereocheck_testphase	8	stereocheck_test_collectResponse	6			0		stereocheck_right	1	394	6	2	antiphase_hc_ios.wav	3	2	5	noise_calib_stim_RIGHT.wav	2	1				0	
6.6.1	and	2023-07-06	21:42:53	0	0	60fd58f89d037589c34f5a18	2	1	stereocheck_testphase	8	stereocheck_test_collectResponse	9			0		stereocheck_left	1	403	6	2	antiphase_hc_ios.wav	3	3	3	noise_calib_stim_LEFT.wav	1	1				0	
6.6.1	and	2023-07-06	21:42:53	0	0	60fd58f89d037589c34f5a18	2	1	stereocheck_testphase	8	stereocheck_test_collectResponse	12			0		stereocheck_left	1	161	6	2	antiphase_hc_ios.wav	3	4	1	noise_calib_stim_LEFT.wav	1	1				0	
6.6.1	and	2023-07-06	21:42:53	0	0	60fd58f89d037589c34f5a18	2	1	stereocheck_testphase	8	stereocheck_test_collectResponse	15			0		stereocheck_right	1	269	6	2	antiphase_hc_ios.wav	3	5	6	noise_calib_stim_RIGHT.wav	2	1				0	
6.6.1	and	2023-07-06	21:42:53	0	0	60fd58f89d037589c34f5a18	2	1	stereocheck_testphase	8	stereocheck_test_collectResponse	18			0		stereocheck_left	1	340	6	2	antiphase_hc_ios.wav	3	6	2	noise_calib_stim_LEFT.wav	1	1				0	
6.6.1	and	2023-07-06	21:42:53	0	0	60fd58f89d037589c34f5a18	2	1	DL_practice	11	DL_practice	2			0		ta	0	5323	6	2	antiphase_hc_ios.wav	3	6	2	noise_calib_stim_LEFT.wav	1	23	blb_dichoticlistening_ka-pa.mp3	ka	pa	1	other
6.6.1	and	2023-07-06	21:42:53	0	0	60fd58f89d037589c34f5a18	2	1	DL_practice	11	DL_practice	3			0		ka	1	1441	6	2	antiphase_hc_ios.wav	3	6	2	noise_calib_stim_LEFT.wav	1	22	blb_dichoticlistening_ka-ka.mp3	ka	ka	0	left
6.6.1	and	2023-07-06	21:42:53	0	0	60fd58f89d037589c34f5a18	2	1	DL_practice	11	DL_practice	4			0		da	1	1597	6	2	antiphase_hc_ios.wav	3	6	2	noise_calib_stim_LEFT.wav	1	8	blb_dichoticlistening_da-da.mp3	da	da	0	left
6.6.1	and	2023-07-06	21:42:53	0	0	60fd58f89d037589c34f5a18	2	1	DL_practice	11	DL_practice	5			0		ta	1	1702	6	2	antiphase_hc_ios.wav	3	6	2	noise_calib_stim_LEFT.wav	1	36	blb_dichoticlistening_ta-ta.mp3	ta	ta	0	left
6.6.1	and	2023-07-06	21:42:53	0	0	60fd58f89d037589c34f5a18	2	1	DL_practice	11	DL_practice	6			0		ga	1	1781	6	2	antiphase_hc_ios.wav	3	6	2	noise_calib_stim_LEFT.wav	1	15	blb_dichoticlistening_ga-ga.mp3	ga	ga	0	left
6.6.1	and	2023-07-06	21:42:53	0	0	60fd58f89d037589c34f5a18	2	1	DL_practice	11	DL_practice	7			0		pa	1	1881	6	2	antiphase_hc_ios.wav	3	6	2	noise_calib_stim_LEFT.wav	1	29	blb_dichoticlistening_pa-pa.mp3	pa	pa	0	left
6.6.1	and	2023-07-06	21:42:53	0	0	60fd58f89d037589c34f5a18	2	1	DL_practice	11	DL_practice	8			0		da	1	1728	6	2	antiphase_hc_ios.wav	3	6	2	noise_calib_stim_LEFT.wav	1	7	blb_dichoticlistening_da-ba.mp3	da	ba	1	left
6.6.1	and	2023-07-06	21:42:53	0	0	60fd58f89d037589c34f5a18	2	1	DL_practice	11	DL_practice	9			0		ta	1	1894	6	2	antiphase_hc_ios.wav	3	6	2	noise_calib_stim_LEFT.wav	1	18	blb_dichoticlistening_ga-ta.mp3	ga	ta	1	right
6.6.1	and	2023-07-06	21:42:53	0	0	60fd58f89d037589c34f5a18	2	1	DL_practice	11	DL_practice	10			0		ba	1	1390	6	2	antiphase_hc_ios.wav	3	6	2	noise_calib_stim_LEFT.wav	1	1	blb_dichoticlistening_ba-ba.mp3	ba	ba	0	left
6.6.1	and	2023-07-06	21:42:53	0	0	60fd58f89d037589c34f5a18	2	1	DL_test	13	DL_test	1			0		ka	1	1895	6	2	antiphase_hc_ios.wav	3	6	2	noise_calib_stim_LEFT.wav	1	24	blb_dichoticlistening_ka-ta.mp3	ka	ta	1	left
6.6.1	and	2023-07-06	21:42:53	0	0	60fd58f89d037589c34f5a18	2	1	DL_test	13	DL_test	2			0		ta	0	2357	6	2	antiphase_hc_ios.wav	3	6	2	noise_calib_stim_LEFT.wav	1	17	blb_dichoticlistening_ga-pa.mp3	ga	pa	1	other
6.6.1	and	2023-07-06	21:42:53	0	0	60fd58f89d037589c34f5a18	2	1	DL_test	13	DL_test	3			0		ka	1	1322	6	2	antiphase_hc_ios.wav	3	6	2	noise_calib_stim_LEFT.wav	1	22	blb_dichoticlistening_ka-ka.mp3	ka	ka	0	left
6.6.1	and	2023-07-06	21:42:53	0	0	60fd58f89d037589c34f5a18	2	1	DL_test	13	DL_test	4			0		da	1	1177	6	2	antiphase_hc_ios.wav	3	6	2	noise_calib_stim_LEFT.wav	1	8	blb_dichoticlistening_da-da.mp3	da	da	0	left
6.6.1	and	2023-07-06	21:42:53	0	0	60fd58f89d037589c34f5a18	2	1	DL_test	13	DL_test	5			0		ga	1	1718	6	2	antiphase_hc_ios.wav	3	6	2	noise_calib_stim_LEFT.wav	1	14	blb_dichoticlistening_ga-da.mp3	ga	da	1	left
6.6.1	and	2023-07-06	21:42:53	0	0	60fd58f89d037589c34f5a18	2	1	DL_test	13	DL_test	6			0		ga	1	1131	6	2	antiphase_hc_ios.wav	3	6	2	noise_calib_stim_LEFT.wav	1	3	blb_dichoticlistening_ba-ga.mp3	ba	ga	1	right
6.6.1	and	2023-07-06	21:42:53	0	0	60fd58f89d037589c34f5a18	2	1	DL_test	13	DL_test	7			0		ga	0	118	6	2	antiphase_hc_ios.wav	3	6	2	noise_calib_stim_LEFT.wav	1	5	blb_dichoticlistening_ba-pa.mp3	ba	pa	1	other
6.6.1	and	2023-07-06	21:42:53	0	0	60fd58f89d037589c34f5a18	2	1	DL_test	13	DL_test	8			0		pa	1	1511	6	2	antiphase_hc_ios.wav	3	6	2	noise_calib_stim_LEFT.wav	1	23	blb_dichoticlistening_ka-pa.mp3	ka	pa	1	right
6.6.1	and	2023-07-06	21:42:53	0	0	60fd58f89d037589c34f5a18	2	1	DL_test	13	DL_test	9			0		ba	1	1909	6	2	antiphase_hc_ios.wav	3	6	2	noise_calib_stim_LEFT.wav	1	1	blb_dichoticlistening_ba-ba.mp3	ba	ba	0	left
6.6.1	and	2023-07-06	21:42:53	0	0	60fd58f89d037589c34f5a18	2	1	DL_test	13	DL_test	10			0		ka	1	1342	6	2	antiphase_hc_ios.wav	3	6	2	noise_calib_stim_LEFT.wav	1	4	blb_dichoticlistening_ba-ka.mp3	ba	ka	1	right
6.6.1	and	2023-07-06	21:42:53	0	0	60fd58f89d037589c34f5a18	2	1	DL_test	13	DL_test	11			0		pa	1	1444	6	2	antiphase_hc_ios.wav	3	6	2	noise_calib_stim_LEFT.wav	1	26	blb_dichoticlistening_pa-da.mp3	pa	da	1	left
6.6.1	and	2023-07-06	21:42:53	0	0	60fd58f89d037589c34f5a18	2	1	DL_test	13	DL_test	12			0		ga	1	1821	6	2	antiphase_hc_ios.wav	3	6	2	noise_calib_stim_LEFT.wav	1	9	blb_dichoticlistening_da-ga.mp3	da	ga	1	right
6.6.1	and	2023-07-06	21:42:53	0	0	60fd58f89d037589c34f5a18	2	1	DL_test	13	DL_test	13			0		pa	1	2032	6	2	antiphase_hc_ios.wav	3	6	2	noise_calib_stim_LEFT.wav	1	29	blb_dichoticlistening_pa-pa.mp3	pa	pa	0	left
6.6.1	and	2023-07-06	21:42:53	0	0	60fd58f89d037589c34f5a18	2	1	DL_test	13	DL_test	14			0		pa	1	2850	6	2	antiphase_hc_ios.wav	3	6	2	noise_calib_stim_LEFT.wav	1	25	blb_dichoticlistening_pa-ba.mp3	pa	ba	1	left
6.6.1	and	2023-07-06	21:42:53	0	0	60fd58f89d037589c34f5a18	2	1	DL_test	13	DL_test	15			0		ka	1	1547	6	2	antiphase_hc_ios.wav	3	6	2	noise_calib_stim_LEFT.wav	1	19	blb_dichoticlistening_ka-ba.mp3	ka	ba	1	left
6.6.1	and	2023-07-06	21:42:53	0	0	60fd58f89d037589c34f5a18	2	1	DL_test	13	DL_test	16			0		ka	0	2465	6	2	antiphase_hc_ios.wav	3	6	2	noise_calib_stim_LEFT.wav	1	27	blb_dichoticlistening_pa-ga.mp3	pa	ga	1	other
6.6.1	and	2023-07-06	21:42:53	0	0	60fd58f89d037589c34f5a18	2	1	DL_test	13	DL_test	17			0		ga	1	1208	6	2	antiphase_hc_ios.wav	3	6	2	noise_calib_stim_LEFT.wav	1	15	blb_dichoticlistening_ga-ga.mp3	ga	ga	0	left
6.6.1	and	2023-07-06	21:42:53	0	0	60fd58f89d037589c34f5a18	2	1	DL_test	13	DL_test	18			0		pa	1	3885	6	2	antiphase_hc_ios.wav	3	6	2	noise_calib_stim_LEFT.wav	1	35	blb_dichoticlistening_ta-pa.mp3	ta	pa	1	right
6.6.1	and	2023-07-06	21:42:53	0	0	60fd58f89d037589c34f5a18	2	1	DL_test	13	DL_test	19			0		pa	1	2308	6	2	antiphase_hc_ios.wav	3	6	2	noise_calib_stim_LEFT.wav	1	30	blb_dichoticlistening_pa-ta.mp3	pa	ta	1	left
6.6.1	and	2023-07-06	21:42:53	0	0	60fd58f89d037589c34f5a18	2	1	DL_test	13	DL_test	20			0		ka	1	1300	6	2	antiphase_hc_ios.wav	3	6	2	noise_calib_stim_LEFT.wav	1	20	blb_dichoticlistening_ka-da.mp3	ka	da	1	left
6.6.1	and	2023-07-06	21:42:53	0	0	60fd58f89d037589c34f5a18	2	1	DL_test	13	DL_test	21			0		ka	0	2826	6	2	antiphase_hc_ios.wav	3	6	2	noise_calib_stim_LEFT.wav	1	11	blb_dichoticlistening_da-pa.mp3	da	pa	1	other
6.6.1	and	2023-07-06	21:42:53	0	0	60fd58f89d037589c34f5a18	2	1	DL_test	13	DL_test	22			0		ba	1	2165	6	2	antiphase_hc_ios.wav	3	6	2	noise_calib_stim_LEFT.wav	1	13	blb_dichoticlistening_ga-ba.mp3	ga	ba	1	right
6.6.1	and	2023-07-06	21:42:53	0	0	60fd58f89d037589c34f5a18	2	1	DL_test	13	DL_test	23			0		da	1	1265	6	2	antiphase_hc_ios.wav	3	6	2	noise_calib_stim_LEFT.wav	1	2	blb_dichoticlistening_ba-da.mp3	ba	da	1	right
6.6.1	and	2023-07-06	21:42:53	0	0	60fd58f89d037589c34f5a18	2	1	DL_test	13	DL_test	24			0		ka	0	1450	6	2	antiphase_hc_ios.wav	3	6	2	noise_calib_stim_LEFT.wav	1	33	blb_dichoticlistening_ta-ga.mp3	ta	ga	1	other
6.6.1	and	2023-07-06	21:42:53	0	0	60fd58f89d037589c34f5a18	2	1	DL_test	13	DL_test	25			0		ka	1	1075	6	2	antiphase_hc_ios.wav	3	6	2	noise_calib_stim_LEFT.wav	1	16	blb_dichoticlistening_ga-ka.mp3	ga	ka	1	right
6.6.1	and	2023-07-06	21:42:53	0	0	60fd58f89d037589c34f5a18	2	1	DL_test	13	DL_test	26			0		pa	0	1316	6	2	antiphase_hc_ios.wav	3	6	2	noise_calib_stim_LEFT.wav	1	31	blb_dichoticlistening_ta-ba.mp3	ta	ba	1	other
6.6.1	and	2023-07-06	21:42:53	0	0	60fd58f89d037589c34f5a18	2	1	DL_test	13	DL_test	27			0		ta	1	1554	6	2	antiphase_hc_ios.wav	3	6	2	noise_calib_stim_LEFT.wav	1	12	blb_dichoticlistening_da-ta.mp3	da	ta	1	right
6.6.1	and	2023-07-06	21:42:53	0	0	60fd58f89d037589c34f5a18	2	1	DL_test	13	DL_test	28			0		ta	1	2391	6	2	antiphase_hc_ios.wav	3	6	2	noise_calib_stim_LEFT.wav	1	18	blb_dichoticlistening_ga-ta.mp3	ga	ta	1	right
6.6.1	and	2023-07-06	21:42:53	0	0	60fd58f89d037589c34f5a18	2	1	DL_test	13	DL_test	29			0		ka	0	4956	6	2	antiphase_hc_ios.wav	3	6	2	noise_calib_stim_LEFT.wav	1	6	blb_dichoticlistening_ba-ta.mp3	ba	ta	1	other
6.6.1	and	2023-07-06	21:42:53	0	0	60fd58f89d037589c34f5a18	2	1	DL_test	13	DL_test	30			0		da	1	1873	6	2	antiphase_hc_ios.wav	3	6	2	noise_calib_stim_LEFT.wav	1	7	blb_dichoticlistening_da-ba.mp3	da	ba	1	left
6.6.1	and	2023-07-06	21:42:53	0	0	60fd58f89d037589c34f5a18	2	1	DL_test	13	DL_test	31			0		ta	1	2169	6	2	antiphase_hc_ios.wav	3	6	2	noise_calib_stim_LEFT.wav	1	32	blb_dichoticlistening_ta-da.mp3	ta	da	1	left
6.6.1	and	2023-07-06	21:42:53	0	0	60fd58f89d037589c34f5a18	2	1	DL_test	13	DL_test	32			0		pa	0	1862	6	2	antiphase_hc_ios.wav	3	6	2	noise_calib_stim_LEFT.wav	1	10	blb_dichoticlistening_da-ka.mp3	da	ka	1	other
6.6.1	and	2023-07-06	21:42:53	0	0	60fd58f89d037589c34f5a18	2	1	DL_test	13	DL_test	33			0		ka	1	1264	6	2	antiphase_hc_ios.wav	3	6	2	noise_calib_stim_LEFT.wav	1	28	blb_dichoticlistening_pa-ka.mp3	pa	ka	1	right
6.6.1	and	2023-07-06	21:42:53	0	0	60fd58f89d037589c34f5a18	2	1	DL_test	13	DL_test	34			0		ka	1	1272	6	2	antiphase_hc_ios.wav	3	6	2	noise_calib_stim_LEFT.wav	1	34	blb_dichoticlistening_ta-ka.mp3	ta	ka	1	right
6.6.1	and	2023-07-06	21:42:53	0	0	60fd58f89d037589c34f5a18	2	1	DL_test	13	DL_test	35			0		ka	1	1201	6	2	antiphase_hc_ios.wav	3	6	2	noise_calib_stim_LEFT.wav	1	21	blb_dichoticlistening_ka-ga.mp3	ka	ga	1	left
6.6.1	and	2023-07-06	21:42:53	0	0	60fd58f89d037589c34f5a18	2	1	DL_test	13	DL_test	36			0		ta	1	1555	6	2	antiphase_hc_ios.wav	3	6	2	noise_calib_stim_LEFT.wav	1	36	blb_dichoticlistening_ta-ta.mp3	ta	ta	0	left
6.6.1	and	2023-07-06	21:42:53	0	0	60fd58f89d037589c34f5a18	2	1	DL_test	14	DL_test	1			0		ta	1	1691	6	2	antiphase_hc_ios.wav	3	6	2	noise_calib_stim_LEFT.wav	1	36	blb_dichoticlistening_ta-ta.mp3	ta	ta	0	left
6.6.1	and	2023-07-06	21:42:53	0	0	60fd58f89d037589c34f5a18	2	1	DL_test	14	DL_test	2			0		pa	1	1700	6	2	antiphase_hc_ios.wav	3	6	2	noise_calib_stim_LEFT.wav	1	17	blb_dichoticlistening_ga-pa.mp3	ga	pa	1	right
6.6.1	and	2023-07-06	21:42:53	0	0	60fd58f89d037589c34f5a18	2	1	DL_test	14	DL_test	3			0		pa	0	2291	6	2	antiphase_hc_ios.wav	3	6	2	noise_calib_stim_LEFT.wav	1	10	blb_dichoticlistening_da-ka.mp3	da	ka	1	other
6.6.1	and	2023-07-06	21:42:53	0	0	60fd58f89d037589c34f5a18	2	1	DL_test	14	DL_test	4			0		ka	1	1844	6	2	antiphase_hc_ios.wav	3	6	2	noise_calib_stim_LEFT.wav	1	19	blb_dichoticlistening_ka-ba.mp3	ka	ba	1	left
6.6.1	and	2023-07-06	21:42:53	0	0	60fd58f89d037589c34f5a18	2	1	DL_test	14	DL_test	5			0		ka	0	1222	6	2	antiphase_hc_ios.wav	3	6	2	noise_calib_stim_LEFT.wav	1	33	blb_dichoticlistening_ta-ga.mp3	ta	ga	1	other
6.6.1	and	2023-07-06	21:42:53	0	0	60fd58f89d037589c34f5a18	2	1	DL_test	14	DL_test	6			0		ta	1	1878	6	2	antiphase_hc_ios.wav	3	6	2	noise_calib_stim_LEFT.wav	1	30	blb_dichoticlistening_pa-ta.mp3	pa	ta	1	right
6.6.1	and	2023-07-06	21:42:53	0	0	60fd58f89d037589c34f5a18	2	1	DL_test	14	DL_test	7			0		pa	0	2071	6	2	antiphase_hc_ios.wav	3	6	2	noise_calib_stim_LEFT.wav	1	31	blb_dichoticlistening_ta-ba.mp3	ta	ba	1	other
6.6.1	and	2023-07-06	21:42:53	0	0	60fd58f89d037589c34f5a18	2	1	DL_test	14	DL_test	8			0		ta	1	2111	6	2	antiphase_hc_ios.wav	3	6	2	noise_calib_stim_LEFT.wav	1	32	blb_dichoticlistening_ta-da.mp3	ta	da	1	left
6.6.1	and	2023-07-06	21:42:53	0	0	60fd58f89d037589c34f5a18	2	1	DL_test	14	DL_test	9			0		pa	1	2294	6	2	antiphase_hc_ios.wav	3	6	2	noise_calib_stim_LEFT.wav	1	27	blb_dichoticlistening_pa-ga.mp3	pa	ga	1	left
6.6.1	and	2023-07-06	21:42:53	0	0	60fd58f89d037589c34f5a18	2	1	DL_test	14	DL_test	10			0		pa	1	2005	6	2	antiphase_hc_ios.wav	3	6	2	noise_calib_stim_LEFT.wav	1	11	blb_dichoticlistening_da-pa.mp3	da	pa	1	right
6.6.1	and	2023-07-06	21:42:53	0	0	60fd58f89d037589c34f5a18	2	1	DL_test	14	DL_test	11			0		ga	1	1970	6	2	antiphase_hc_ios.wav	3	6	2	noise_calib_stim_LEFT.wav	1	3	blb_dichoticlistening_ba-ga.mp3	ba	ga	1	right
6.6.1	and	2023-07-06	21:42:53	0	0	60fd58f89d037589c34f5a18	2	1	DL_test	14	DL_test	12			0		ka	1	1958	6	2	antiphase_hc_ios.wav	3	6	2	noise_calib_stim_LEFT.wav	1	24	blb_dichoticlistening_ka-ta.mp3	ka	ta	1	left
6.6.1	and	2023-07-06	21:42:53	0	0	60fd58f89d037589c34f5a18	2	1	DL_test	14	DL_test	13			0		pa	1	1524	6	2	antiphase_hc_ios.wav	3	6	2	noise_calib_stim_LEFT.wav	1	5	blb_dichoticlistening_ba-pa.mp3	ba	pa	1	right
6.6.1	and	2023-07-06	21:42:53	0	0	60fd58f89d037589c34f5a18	2	1	DL_test	14	DL_test	14			0		ka	1	1177	6	2	antiphase_hc_ios.wav	3	6	2	noise_calib_stim_LEFT.wav	1	16	blb_dichoticlistening_ga-ka.mp3	ga	ka	1	right
6.6.1	and	2023-07-06	21:42:53	0	0	60fd58f89d037589c34f5a18	2	1	DL_test	14	DL_test	15			0		ka	1	2885	6	2	antiphase_hc_ios.wav	3	6	2	noise_calib_stim_LEFT.wav	1	23	blb_dichoticlistening_ka-pa.mp3	ka	pa	1	left
6.6.1	and	2023-07-06	21:42:53	0	0	60fd58f89d037589c34f5a18	2	1	DL_test	14	DL_test	16			0		pa	1	1150	6	2	antiphase_hc_ios.wav	3	6	2	noise_calib_stim_LEFT.wav	1	25	blb_dichoticlistening_pa-ba.mp3	pa	ba	1	left
6.6.1	and	2023-07-06	21:42:53	0	0	60fd58f89d037589c34f5a18	2	1	DL_test	14	DL_test	17			0		da	1	1107	6	2	antiphase_hc_ios.wav	3	6	2	noise_calib_stim_LEFT.wav	1	7	blb_dichoticlistening_da-ba.mp3	da	ba	1	left
6.6.1	and	2023-07-06	21:42:53	0	0	60fd58f89d037589c34f5a18	2	1	DL_test	14	DL_test	18			0		ga	1	1762	6	2	antiphase_hc_ios.wav	3	6	2	noise_calib_stim_LEFT.wav	1	15	blb_dichoticlistening_ga-ga.mp3	ga	ga	0	left
6.6.1	and	2023-07-06	21:42:53	0	0	60fd58f89d037589c34f5a18	2	1	DL_test	14	DL_test	19			0		ka	1	1310	6	2	antiphase_hc_ios.wav	3	6	2	noise_calib_stim_LEFT.wav	1	21	blb_dichoticlistening_ka-ga.mp3	ka	ga	1	left
6.6.1	and	2023-07-06	21:42:53	0	0	60fd58f89d037589c34f5a18	2	1	DL_test	14	DL_test	20			0		ka	0	1669	6	2	antiphase_hc_ios.wav	3	6	2	noise_calib_stim_LEFT.wav	1	18	blb_dichoticlistening_ga-ta.mp3	ga	ta	1	other
6.6.1	and	2023-07-06	21:42:53	0	0	60fd58f89d037589c34f5a18	2	1	DL_test	14	DL_test	21			0		ka	1	2158	6	2	antiphase_hc_ios.wav	3	6	2	noise_calib_stim_LEFT.wav	1	28	blb_dichoticlistening_pa-ka.mp3	pa	ka	1	right
6.6.1	and	2023-07-06	21:42:53	0	0	60fd58f89d037589c34f5a18	2	1	DL_test	14	DL_test	22			0		ga	1	1043	6	2	antiphase_hc_ios.wav	3	6	2	noise_calib_stim_LEFT.wav	1	13	blb_dichoticlistening_ga-ba.mp3	ga	ba	1	left
6.6.1	and	2023-07-06	21:42:53	0	0	60fd58f89d037589c34f5a18	2	1	DL_test	14	DL_test	23			0		ta	1	1501	6	2	antiphase_hc_ios.wav	3	6	2	noise_calib_stim_LEFT.wav	1	6	blb_dichoticlistening_ba-ta.mp3	ba	ta	1	right
6.6.1	and	2023-07-06	21:42:53	0	0	60fd58f89d037589c34f5a18	2	1	DL_test	14	DL_test	24			0		ka	1	1611	6	2	antiphase_hc_ios.wav	3	6	2	noise_calib_stim_LEFT.wav	1	34	blb_dichoticlistening_ta-ka.mp3	ta	ka	1	right
6.6.1	and	2023-07-06	21:42:53	0	0	60fd58f89d037589c34f5a18	2	1	DL_test	14	DL_test	25			0		pa	1	1686	6	2	antiphase_hc_ios.wav	3	6	2	noise_calib_stim_LEFT.wav	1	29	blb_dichoticlistening_pa-pa.mp3	pa	pa	0	left
6.6.1	and	2023-07-06	21:42:53	0	0	60fd58f89d037589c34f5a18	2	1	DL_test	14	DL_test	26			0		ta	1	2415	6	2	antiphase_hc_ios.wav	3	6	2	noise_calib_stim_LEFT.wav	1	35	blb_dichoticlistening_ta-pa.mp3	ta	pa	1	left
6.6.1	and	2023-07-06	21:42:53	0	0	60fd58f89d037589c34f5a18	2	1	DL_test	14	DL_test	27			0		da	1	2425	6	2	antiphase_hc_ios.wav	3	6	2	noise_calib_stim_LEFT.wav	1	26	blb_dichoticlistening_pa-da.mp3	pa	da	1	right
6.6.1	and	2023-07-06	21:42:53	0	0	60fd58f89d037589c34f5a18	2	1	DL_test	14	DL_test	28			0		da	1	1027	6	2	antiphase_hc_ios.wav	3	6	2	noise_calib_stim_LEFT.wav	1	8	blb_dichoticlistening_da-da.mp3	da	da	0	left
6.6.1	and	2023-07-06	21:42:53	0	0	60fd58f89d037589c34f5a18	2	1	DL_test	14	DL_test	29			0		ka	1	1254	6	2	antiphase_hc_ios.wav	3	6	2	noise_calib_stim_LEFT.wav	1	22	blb_dichoticlistening_ka-ka.mp3	ka	ka	0	left
6.6.1	and	2023-07-06	21:42:53	0	0	60fd58f89d037589c34f5a18	2	1	DL_test	14	DL_test	30			0		ba	1	1487	6	2	antiphase_hc_ios.wav	3	6	2	noise_calib_stim_LEFT.wav	1	1	blb_dichoticlistening_ba-ba.mp3	ba	ba	0	left
6.6.1	and	2023-07-06	21:42:53	0	0	60fd58f89d037589c34f5a18	2	1	DL_test	14	DL_test	31			0		ka	1	1567	6	2	antiphase_hc_ios.wav	3	6	2	noise_calib_stim_LEFT.wav	1	20	blb_dichoticlistening_ka-da.mp3	ka	da	1	left
6.6.1	and	2023-07-06	21:42:53	0	0	60fd58f89d037589c34f5a18	2	1	DL_test	14	DL_test	32			0		ga	1	1347	6	2	antiphase_hc_ios.wav	3	6	2	noise_calib_stim_LEFT.wav	1	9	blb_dichoticlistening_da-ga.mp3	da	ga	1	right
6.6.1	and	2023-07-06	21:42:53	0	0	60fd58f89d037589c34f5a18	2	1	DL_test	14	DL_test	33			0		ta	1	1713	6	2	antiphase_hc_ios.wav	3	6	2	noise_calib_stim_LEFT.wav	1	12	blb_dichoticlistening_da-ta.mp3	da	ta	1	right
6.6.1	and	2023-07-06	21:42:53	0	0	60fd58f89d037589c34f5a18	2	1	DL_test	14	DL_test	34			0		da	1	1367	6	2	antiphase_hc_ios.wav	3	6	2	noise_calib_stim_LEFT.wav	1	2	blb_dichoticlistening_ba-da.mp3	ba	da	1	right
6.6.1	and	2023-07-06	21:42:53	0	0	60fd58f89d037589c34f5a18	2	1	DL_test	14	DL_test	35			0		ga	1	1188	6	2	antiphase_hc_ios.wav	3	6	2	noise_calib_stim_LEFT.wav	1	14	blb_dichoticlistening_ga-da.mp3	ga	da	1	left
6.6.1	and	2023-07-06	21:42:53	0	0	60fd58f89d037589c34f5a18	2	1	DL_test	14	DL_test	36			0		ka	1	960	6	2	antiphase_hc_ios.wav	3	6	2	noise_calib_stim_LEFT.wav	1	4	blb_dichoticlistening_ba-ka.mp3	ba	ka	1	right
6.6.1	and	2023-07-06	21:42:53	0	0	60fd58f89d037589c34f5a18	2	1	DL_test	15	DL_test	1			0		ka	0	1304	6	2	antiphase_hc_ios.wav	3	6	2	noise_calib_stim_LEFT.wav	1	33	blb_dichoticlistening_ta-ga.mp3	ta	ga	1	other
6.6.1	and	2023-07-06	21:42:53	0	0	60fd58f89d037589c34f5a18	2	1	DL_test	15	DL_test	2			0		pa	1	1216	6	2	antiphase_hc_ios.wav	3	6	2	noise_calib_stim_LEFT.wav	1	17	blb_dichoticlistening_ga-pa.mp3	ga	pa	1	right
6.6.1	and	2023-07-06	21:42:53	0	0	60fd58f89d037589c34f5a18	2	1	DL_test	15	DL_test	3			0		ta	1	2273	6	2	antiphase_hc_ios.wav	3	6	2	noise_calib_stim_LEFT.wav	1	31	blb_dichoticlistening_ta-ba.mp3	ta	ba	1	left
6.6.1	and	2023-07-06	21:42:53	0	0	60fd58f89d037589c34f5a18	2	1	DL_test	15	DL_test	4			0		da	0	3594	6	2	antiphase_hc_ios.wav	3	6	2	noise_calib_stim_LEFT.wav	1	13	blb_dichoticlistening_ga-ba.mp3	ga	ba	1	other
6.6.1	and	2023-07-06	21:42:53	0	0	60fd58f89d037589c34f5a18	2	1	DL_test	15	DL_test	5			0		ga	1	1286	6	2	antiphase_hc_ios.wav	3	6	2	noise_calib_stim_LEFT.wav	1	9	blb_dichoticlistening_da-ga.mp3	da	ga	1	right
6.6.1	and	2023-07-06	21:42:53	0	0	60fd58f89d037589c34f5a18	2	1	DL_test	15	DL_test	6			0		pa	1	1337	6	2	antiphase_hc_ios.wav	3	6	2	noise_calib_stim_LEFT.wav	1	29	blb_dichoticlistening_pa-pa.mp3	pa	pa	0	left
6.6.1	and	2023-07-06	21:42:53	0	0	60fd58f89d037589c34f5a18	2	1	DL_test	15	DL_test	7			0		da	1	1204	6	2	antiphase_hc_ios.wav	3	6	2	noise_calib_stim_LEFT.wav	1	2	blb_dichoticlistening_ba-da.mp3	ba	da	1	right
6.6.1	and	2023-07-06	21:42:53	0	0	60fd58f89d037589c34f5a18	2	1	DL_test	15	DL_test	8			0		pa	1	1279	6	2	antiphase_hc_ios.wav	3	6	2	noise_calib_stim_LEFT.wav	1	5	blb_dichoticlistening_ba-pa.mp3	ba	pa	1	right
6.6.1	and	2023-07-06	21:42:53	0	0	60fd58f89d037589c34f5a18	2	1	DL_test	15	DL_test	9			0		ta	1	1831	6	2	antiphase_hc_ios.wav	3	6	2	noise_calib_stim_LEFT.wav	1	32	blb_dichoticlistening_ta-da.mp3	ta	da	1	left
6.6.1	and	2023-07-06	21:42:53	0	0	60fd58f89d037589c34f5a18	2	1	DL_test	15	DL_test	10			0		ka	1	1296	6	2	antiphase_hc_ios.wav	3	6	2	noise_calib_stim_LEFT.wav	1	34	blb_dichoticlistening_ta-ka.mp3	ta	ka	1	right
6.6.1	and	2023-07-06	21:42:53	0	0	60fd58f89d037589c34f5a18	2	1	DL_test	15	DL_test	11			0		ka	1	1648	6	2	antiphase_hc_ios.wav	3	6	2	noise_calib_stim_LEFT.wav	1	28	blb_dichoticlistening_pa-ka.mp3	pa	ka	1	right
6.6.1	and	2023-07-06	21:42:53	0	0	60fd58f89d037589c34f5a18	2	1	DL_test	15	DL_test	12			0		ta	1	1633	6	2	antiphase_hc_ios.wav	3	6	2	noise_calib_stim_LEFT.wav	1	36	blb_dichoticlistening_ta-ta.mp3	ta	ta	0	left
6.6.1	and	2023-07-06	21:42:53	0	0	60fd58f89d037589c34f5a18	2	1	DL_test	15	DL_test	13			0		ga	1	1171	6	2	antiphase_hc_ios.wav	3	6	2	noise_calib_stim_LEFT.wav	1	15	blb_dichoticlistening_ga-ga.mp3	ga	ga	0	left
6.6.1	and	2023-07-06	21:42:53	0	0	60fd58f89d037589c34f5a18	2	1	DL_test	15	DL_test	14			0		pa	1	1599	6	2	antiphase_hc_ios.wav	3	6	2	noise_calib_stim_LEFT.wav	1	11	blb_dichoticlistening_da-pa.mp3	da	pa	1	right
6.6.1	and	2023-07-06	21:42:53	0	0	60fd58f89d037589c34f5a18	2	1	DL_test	15	DL_test	15			0		ka	1	1386	6	2	antiphase_hc_ios.wav	3	6	2	noise_calib_stim_LEFT.wav	1	21	blb_dichoticlistening_ka-ga.mp3	ka	ga	1	left
6.6.1	and	2023-07-06	21:42:53	0	0	60fd58f89d037589c34f5a18	2	1	DL_test	15	DL_test	16			0		ta	1	1478	6	2	antiphase_hc_ios.wav	3	6	2	noise_calib_stim_LEFT.wav	1	24	blb_dichoticlistening_ka-ta.mp3	ka	ta	1	right
6.6.1	and	2023-07-06	21:42:53	0	0	60fd58f89d037589c34f5a18	2	1	DL_test	15	DL_test	17			0		ka	1	1582	6	2	antiphase_hc_ios.wav	3	6	2	noise_calib_stim_LEFT.wav	1	23	blb_dichoticlistening_ka-pa.mp3	ka	pa	1	left
6.6.1	and	2023-07-06	21:42:53	0	0	60fd58f89d037589c34f5a18	2	1	DL_test	15	DL_test	18			0		ta	1	1690	6	2	antiphase_hc_ios.wav	3	6	2	noise_calib_stim_LEFT.wav	1	18	blb_dichoticlistening_ga-ta.mp3	ga	ta	1	right
6.6.1	and	2023-07-06	21:42:53	0	0	60fd58f89d037589c34f5a18	2	1	DL_test	15	DL_test	19			0		ka	1	1298	6	2	antiphase_hc_ios.wav	3	6	2	noise_calib_stim_LEFT.wav	1	22	blb_dichoticlistening_ka-ka.mp3	ka	ka	0	left
6.6.1	and	2023-07-06	21:42:53	0	0	60fd58f89d037589c34f5a18	2	1	DL_test	15	DL_test	20			0		ta	1	1321	6	2	antiphase_hc_ios.wav	3	6	2	noise_calib_stim_LEFT.wav	1	30	blb_dichoticlistening_pa-ta.mp3	pa	ta	1	right
6.6.1	and	2023-07-06	21:42:53	0	0	60fd58f89d037589c34f5a18	2	1	DL_test	15	DL_test	21			0		da	1	1792	6	2	antiphase_hc_ios.wav	3	6	2	noise_calib_stim_LEFT.wav	1	8	blb_dichoticlistening_da-da.mp3	da	da	0	left
6.6.1	and	2023-07-06	21:42:53	0	0	60fd58f89d037589c34f5a18	2	1	DL_test	15	DL_test	22			0		ka	1	1452	6	2	antiphase_hc_ios.wav	3	6	2	noise_calib_stim_LEFT.wav	1	20	blb_dichoticlistening_ka-da.mp3	ka	da	1	left
6.6.1	and	2023-07-06	21:42:53	0	0	60fd58f89d037589c34f5a18	2	1	DL_test	15	DL_test	23			0		ka	1	2230	6	2	antiphase_hc_ios.wav	3	6	2	noise_calib_stim_LEFT.wav	1	16	blb_dichoticlistening_ga-ka.mp3	ga	ka	1	right
6.6.1	and	2023-07-06	21:42:53	0	0	60fd58f89d037589c34f5a18	2	1	DL_test	15	DL_test	24			0		pa	1	1439	6	2	antiphase_hc_ios.wav	3	6	2	noise_calib_stim_LEFT.wav	1	27	blb_dichoticlistening_pa-ga.mp3	pa	ga	1	left
6.6.1	and	2023-07-06	21:42:53	0	0	60fd58f89d037589c34f5a18	2	1	DL_test	15	DL_test	25			0		ga	1	1337	6	2	antiphase_hc_ios.wav	3	6	2	noise_calib_stim_LEFT.wav	1	3	blb_dichoticlistening_ba-ga.mp3	ba	ga	1	right
6.6.1	and	2023-07-06	21:42:53	0	0	60fd58f89d037589c34f5a18	2	1	DL_test	15	DL_test	26			0		ba	1	1751	6	2	antiphase_hc_ios.wav	3	6	2	noise_calib_stim_LEFT.wav	1	1	blb_dichoticlistening_ba-ba.mp3	ba	ba	0	left
6.6.1	and	2023-07-06	21:42:53	0	0	60fd58f89d037589c34f5a18	2	1	DL_test	15	DL_test	27			0		ka	1	1516	6	2	antiphase_hc_ios.wav	3	6	2	noise_calib_stim_LEFT.wav	1	19	blb_dichoticlistening_ka-ba.mp3	ka	ba	1	left
6.6.1	and	2023-07-06	21:42:53	0	0	60fd58f89d037589c34f5a18	2	1	DL_test	15	DL_test	28			0		ka	1	940	6	2	antiphase_hc_ios.wav	3	6	2	noise_calib_stim_LEFT.wav	1	4	blb_dichoticlistening_ba-ka.mp3	ba	ka	1	right
6.6.1	and	2023-07-06	21:42:53	0	0	60fd58f89d037589c34f5a18	2	1	DL_test	15	DL_test	29			0		pa	0	1697	6	2	antiphase_hc_ios.wav	3	6	2	noise_calib_stim_LEFT.wav	1	10	blb_dichoticlistening_da-ka.mp3	da	ka	1	other
6.6.1	and	2023-07-06	21:42:53	0	0	60fd58f89d037589c34f5a18	2	1	DL_test	15	DL_test	30			0		ta	1	1625	6	2	antiphase_hc_ios.wav	3	6	2	noise_calib_stim_LEFT.wav	1	12	blb_dichoticlistening_da-ta.mp3	da	ta	1	right
6.6.1	and	2023-07-06	21:42:53	0	0	60fd58f89d037589c34f5a18	2	1	DL_test	15	DL_test	31			0		da	1	2291	6	2	antiphase_hc_ios.wav	3	6	2	noise_calib_stim_LEFT.wav	1	26	blb_dichoticlistening_pa-da.mp3	pa	da	1	right
6.6.1	and	2023-07-06	21:42:53	0	0	60fd58f89d037589c34f5a18	2	1	DL_test	15	DL_test	32			0		pa	1	1323	6	2	antiphase_hc_ios.wav	3	6	2	noise_calib_stim_LEFT.wav	1	35	blb_dichoticlistening_ta-pa.mp3	ta	pa	1	right
6.6.1	and	2023-07-06	21:42:53	0	0	60fd58f89d037589c34f5a18	2	1	DL_test	15	DL_test	33			0		da	1	1338	6	2	antiphase_hc_ios.wav	3	6	2	noise_calib_stim_LEFT.wav	1	7	blb_dichoticlistening_da-ba.mp3	da	ba	1	left
6.6.1	and	2023-07-06	21:42:53	0	0	60fd58f89d037589c34f5a18	2	1	DL_test	15	DL_test	34			0		pa	1	1089	6	2	antiphase_hc_ios.wav	3	6	2	noise_calib_stim_LEFT.wav	1	25	blb_dichoticlistening_pa-ba.mp3	pa	ba	1	left
6.6.1	and	2023-07-06	21:42:53	0	0	60fd58f89d037589c34f5a18	2	1	DL_test	15	DL_test	35			0		da	1	1384	6	2	antiphase_hc_ios.wav	3	6	2	noise_calib_stim_LEFT.wav	1	14	blb_dichoticlistening_ga-da.mp3	ga	da	1	right
6.6.1	and	2023-07-06	21:42:53	0	0	60fd58f89d037589c34f5a18	2	1	DL_test	15	DL_test	36			0		ta	1	1437	6	2	antiphase_hc_ios.wav	3	6	2	noise_calib_stim_LEFT.wav	1	6	blb_dichoticlistening_ba-ta.mp3	ba	ta	1	right
6.6.1	and	2023-07-06	21:42:53	0	0	60fd58f89d037589c34f5a18	2	1	DL_test	16	DL_test	1			0		pa	1	1260	6	2	antiphase_hc_ios.wav	3	6	2	noise_calib_stim_LEFT.wav	1	17	blb_dichoticlistening_ga-pa.mp3	ga	pa	1	right
6.6.1	and	2023-07-06	21:42:53	0	0	60fd58f89d037589c34f5a18	2	1	DL_test	16	DL_test	2			0		da	1	1438	6	2	antiphase_hc_ios.wav	3	6	2	noise_calib_stim_LEFT.wav	1	14	blb_dichoticlistening_ga-da.mp3	ga	da	1	right
6.6.1	and	2023-07-06	21:42:53	0	0	60fd58f89d037589c34f5a18	2	1	DL_test	16	DL_test	3			0		ka	1	1199	6	2	antiphase_hc_ios.wav	3	6	2	noise_calib_stim_LEFT.wav	1	4	blb_dichoticlistening_ba-ka.mp3	ba	ka	1	right
6.6.1	and	2023-07-06	21:42:53	0	0	60fd58f89d037589c34f5a18	2	1	DL_test	16	DL_test	4			0		ga	1	1226	6	2	antiphase_hc_ios.wav	3	6	2	noise_calib_stim_LEFT.wav	1	15	blb_dichoticlistening_ga-ga.mp3	ga	ga	0	left
6.6.1	and	2023-07-06	21:42:53	0	0	60fd58f89d037589c34f5a18	2	1	DL_test	16	DL_test	5			0		ta	1	1580	6	2	antiphase_hc_ios.wav	3	6	2	noise_calib_stim_LEFT.wav	1	24	blb_dichoticlistening_ka-ta.mp3	ka	ta	1	right
6.6.1	and	2023-07-06	21:42:53	0	0	60fd58f89d037589c34f5a18	2	1	DL_test	16	DL_test	6			0		pa	0	1073	6	2	antiphase_hc_ios.wav	3	6	2	noise_calib_stim_LEFT.wav	1	31	blb_dichoticlistening_ta-ba.mp3	ta	ba	1	other
6.6.1	and	2023-07-06	21:42:53	0	0	60fd58f89d037589c34f5a18	2	1	DL_test	16	DL_test	7			0		pa	0	1778	6	2	antiphase_hc_ios.wav	3	6	2	noise_calib_stim_LEFT.wav	1	10	blb_dichoticlistening_da-ka.mp3	da	ka	1	other
6.6.1	and	2023-07-06	21:42:53	0	0	60fd58f89d037589c34f5a18	2	1	DL_test	16	DL_test	8			0		ka	1	1445	6	2	antiphase_hc_ios.wav	3	6	2	noise_calib_stim_LEFT.wav	1	22	blb_dichoticlistening_ka-ka.mp3	ka	ka	0	left
6.6.1	and	2023-07-06	21:42:53	0	0	60fd58f89d037589c34f5a18	2	1	DL_test	16	DL_test	9			0		ka	1	1447	6	2	antiphase_hc_ios.wav	3	6	2	noise_calib_stim_LEFT.wav	1	19	blb_dichoticlistening_ka-ba.mp3	ka	ba	1	left
6.6.1	and	2023-07-06	21:42:53	0	0	60fd58f89d037589c34f5a18	2	1	DL_test	16	DL_test	10			0		ta	1	1633	6	2	antiphase_hc_ios.wav	3	6	2	noise_calib_stim_LEFT.wav	1	36	blb_dichoticlistening_ta-ta.mp3	ta	ta	0	left
6.6.1	and	2023-07-06	21:42:53	0	0	60fd58f89d037589c34f5a18	2	1	DL_test	16	DL_test	11			0		ba	1	2481	6	2	antiphase_hc_ios.wav	3	6	2	noise_calib_stim_LEFT.wav	1	3	blb_dichoticlistening_ba-ga.mp3	ba	ga	1	left
6.6.1	and	2023-07-06	21:42:53	0	0	60fd58f89d037589c34f5a18	2	1	DL_test	16	DL_test	12			0		ba	1	1498	6	2	antiphase_hc_ios.wav	3	6	2	noise_calib_stim_LEFT.wav	1	13	blb_dichoticlistening_ga-ba.mp3	ga	ba	1	right
6.6.1	and	2023-07-06	21:42:53	0	0	60fd58f89d037589c34f5a18	2	1	DL_test	16	DL_test	13			0		pa	1	1322	6	2	antiphase_hc_ios.wav	3	6	2	noise_calib_stim_LEFT.wav	1	35	blb_dichoticlistening_ta-pa.mp3	ta	pa	1	right
6.6.1	and	2023-07-06	21:42:53	0	0	60fd58f89d037589c34f5a18	2	1	DL_test	16	DL_test	14			0		ta	1	1920	6	2	antiphase_hc_ios.wav	3	6	2	noise_calib_stim_LEFT.wav	1	12	blb_dichoticlistening_da-ta.mp3	da	ta	1	right
6.6.1	and	2023-07-06	21:42:53	0	0	60fd58f89d037589c34f5a18	2	1	DL_test	16	DL_test	15			0		pa	1	2078	6	2	antiphase_hc_ios.wav	3	6	2	noise_calib_stim_LEFT.wav	1	30	blb_dichoticlistening_pa-ta.mp3	pa	ta	1	left
6.6.1	and	2023-07-06	21:42:53	0	0	60fd58f89d037589c34f5a18	2	1	DL_test	16	DL_test	16			0		ba	1	1366	6	2	antiphase_hc_ios.wav	3	6	2	noise_calib_stim_LEFT.wav	1	1	blb_dichoticlistening_ba-ba.mp3	ba	ba	0	left
6.6.1	and	2023-07-06	21:42:53	0	0	60fd58f89d037589c34f5a18	2	1	DL_test	16	DL_test	17			0		ka	1	1187	6	2	antiphase_hc_ios.wav	3	6	2	noise_calib_stim_LEFT.wav	1	34	blb_dichoticlistening_ta-ka.mp3	ta	ka	1	right
6.6.1	and	2023-07-06	21:42:53	0	0	60fd58f89d037589c34f5a18	2	1	DL_test	16	DL_test	18			0		da	1	1160	6	2	antiphase_hc_ios.wav	3	6	2	noise_calib_stim_LEFT.wav	1	8	blb_dichoticlistening_da-da.mp3	da	da	0	left
6.6.1	and	2023-07-06	21:42:53	0	0	60fd58f89d037589c34f5a18	2	1	DL_test	16	DL_test	19			0		ka	0	1684	6	2	antiphase_hc_ios.wav	3	6	2	noise_calib_stim_LEFT.wav	1	33	blb_dichoticlistening_ta-ga.mp3	ta	ga	1	other
6.6.1	and	2023-07-06	21:42:53	0	0	60fd58f89d037589c34f5a18	2	1	DL_test	16	DL_test	20			0		ka	1	1044	6	2	antiphase_hc_ios.wav	3	6	2	noise_calib_stim_LEFT.wav	1	16	blb_dichoticlistening_ga-ka.mp3	ga	ka	1	right
6.6.1	and	2023-07-06	21:42:53	0	0	60fd58f89d037589c34f5a18	2	1	DL_test	16	DL_test	21			0		da	1	1245	6	2	antiphase_hc_ios.wav	3	6	2	noise_calib_stim_LEFT.wav	1	7	blb_dichoticlistening_da-ba.mp3	da	ba	1	left
6.6.1	and	2023-07-06	21:42:53	0	0	60fd58f89d037589c34f5a18	2	1	DL_test	16	DL_test	22			0		pa	1	1159	6	2	antiphase_hc_ios.wav	3	6	2	noise_calib_stim_LEFT.wav	1	11	blb_dichoticlistening_da-pa.mp3	da	pa	1	right
6.6.1	and	2023-07-06	21:42:53	0	0	60fd58f89d037589c34f5a18	2	1	DL_test	16	DL_test	23			0		ka	1	1004	6	2	antiphase_hc_ios.wav	3	6	2	noise_calib_stim_LEFT.wav	1	20	blb_dichoticlistening_ka-da.mp3	ka	da	1	left
6.6.1	and	2023-07-06	21:42:53	0	0	60fd58f89d037589c34f5a18	2	1	DL_test	16	DL_test	24			0		ka	1	1607	6	2	antiphase_hc_ios.wav	3	6	2	noise_calib_stim_LEFT.wav	1	28	blb_dichoticlistening_pa-ka.mp3	pa	ka	1	right
6.6.1	and	2023-07-06	21:42:53	0	0	60fd58f89d037589c34f5a18	2	1	DL_test	16	DL_test	25			0		ka	1	2219	6	2	antiphase_hc_ios.wav	3	6	2	noise_calib_stim_LEFT.wav	1	23	blb_dichoticlistening_ka-pa.mp3	ka	pa	1	left
6.6.1	and	2023-07-06	21:42:53	0	0	60fd58f89d037589c34f5a18	2	1	DL_test	16	DL_test	26			0		ka	1	941	6	2	antiphase_hc_ios.wav	3	6	2	noise_calib_stim_LEFT.wav	1	21	blb_dichoticlistening_ka-ga.mp3	ka	ga	1	left
6.6.1	and	2023-07-06	21:42:53	0	0	60fd58f89d037589c34f5a18	2	1	DL_test	16	DL_test	27			0		da	1	1691	6	2	antiphase_hc_ios.wav	3	6	2	noise_calib_stim_LEFT.wav	1	9	blb_dichoticlistening_da-ga.mp3	da	ga	1	left
6.6.1	and	2023-07-06	21:42:53	0	0	60fd58f89d037589c34f5a18	2	1	DL_test	16	DL_test	28			0		da	1	1179	6	2	antiphase_hc_ios.wav	3	6	2	noise_calib_stim_LEFT.wav	1	2	blb_dichoticlistening_ba-da.mp3	ba	da	1	right
6.6.1	and	2023-07-06	21:42:53	0	0	60fd58f89d037589c34f5a18	2	1	DL_test	16	DL_test	29			0		ta	1	1264	6	2	antiphase_hc_ios.wav	3	6	2	noise_calib_stim_LEFT.wav	1	32	blb_dichoticlistening_ta-da.mp3	ta	da	1	left
6.6.1	and	2023-07-06	21:42:53	0	0	60fd58f89d037589c34f5a18	2	1	DL_test	16	DL_test	30			0		pa	1	1561	6	2	antiphase_hc_ios.wav	3	6	2	noise_calib_stim_LEFT.wav	1	27	blb_dichoticlistening_pa-ga.mp3	pa	ga	1	left
6.6.1	and	2023-07-06	21:42:53	0	0	60fd58f89d037589c34f5a18	2	1	DL_test	16	DL_test	31			0		pa	1	1677	6	2	antiphase_hc_ios.wav	3	6	2	noise_calib_stim_LEFT.wav	1	25	blb_dichoticlistening_pa-ba.mp3	pa	ba	1	left
6.6.1	and	2023-07-06	21:42:53	0	0	60fd58f89d037589c34f5a18	2	1	DL_test	16	DL_test	32			0		pa	1	1164	6	2	antiphase_hc_ios.wav	3	6	2	noise_calib_stim_LEFT.wav	1	26	blb_dichoticlistening_pa-da.mp3	pa	da	1	left
6.6.1	and	2023-07-06	21:42:53	0	0	60fd58f89d037589c34f5a18	2	1	DL_test	16	DL_test	33			0		pa	1	1393	6	2	antiphase_hc_ios.wav	3	6	2	noise_calib_stim_LEFT.wav	1	29	blb_dichoticlistening_pa-pa.mp3	pa	pa	0	left
6.6.1	and	2023-07-06	21:42:53	0	0	60fd58f89d037589c34f5a18	2	1	DL_test	16	DL_test	34			0		ta	1	2045	6	2	antiphase_hc_ios.wav	3	6	2	noise_calib_stim_LEFT.wav	1	6	blb_dichoticlistening_ba-ta.mp3	ba	ta	1	right
6.6.1	and	2023-07-06	21:42:53	0	0	60fd58f89d037589c34f5a18	2	1	DL_test	16	DL_test	35			0		ta	1	3221	6	2	antiphase_hc_ios.wav	3	6	2	noise_calib_stim_LEFT.wav	1	18	blb_dichoticlistening_ga-ta.mp3	ga	ta	1	right
6.6.1	and	2023-07-06	21:42:53	0	0	60fd58f89d037589c34f5a18	2	1	DL_test	16	DL_test	36			0		pa	1	1425	6	2	antiphase_hc_ios.wav	3	6	2	noise_calib_stim_LEFT.wav	1	5	blb_dichoticlistening_ba-pa.mp3	ba	pa	1	right
6.6.1	and	2023-07-06	21:42:53	21:54:12	655399	60fd58f89d037589c34f5a18	2	1	practice_z	22	practice_z	1	stimuli_target_diamondsquares.svg	stimuli_distractor_trianglediamonds.svg	6	yes	0	0	2000	6	2	antiphase_hc_ios.wav	3	6	2	noise_calib_stim_LEFT.wav	1	5	blb_dichoticlistening_ba-pa.mp3	ba	pa	1	right
6.6.1	and	2023-07-06	21:42:53	21:54:12	655399	60fd58f89d037589c34f5a18	2	1	practice_z	22	advance_on_keypress_ZEE	2	stimuli_target_diamondsquares.svg	stimuli_distractor_trianglediamonds.svg	6	yes	57	0	1258	6	2	antiphase_hc_ios.wav	3	6	2	noise_calib_stim_LEFT.wav	1	5	blb_dichoticlistening_ba-pa.mp3	ba	pa	1	right
6.6.1	and	2023-07-06	21:42:53	21:54:17	660282	60fd58f89d037589c34f5a18	2	1	practice_z	22	practice_z	3	stimuli_distractor_trianglediamonds.svg	stimuli_target_squarediamonds.svg	11	yes	0	0	2000	6	2	antiphase_hc_ios.wav	3	6	2	noise_calib_stim_LEFT.wav	1	5	blb_dichoticlistening_ba-pa.mp3	ba	pa	1	right
6.6.1	and	2023-07-06	21:42:53	21:54:17	660282	60fd58f89d037589c34f5a18	2	1	practice_z	22	advance_on_keypress_ZEE	4	stimuli_distractor_trianglediamonds.svg	stimuli_target_squarediamonds.svg	11	yes	57	0	586	6	2	antiphase_hc_ios.wav	3	6	2	noise_calib_stim_LEFT.wav	1	5	blb_dichoticlistening_ba-pa.mp3	ba	pa	1	right
6.6.1	and	2023-07-06	21:42:53	21:54:20	663448	60fd58f89d037589c34f5a18	2	1	practice_z	22	practice_z	5	stimuli_target_squarediamonds.svg	stimuli_distractor_trianglediamonds.svg	5	yes	44	1	949	6	2	antiphase_hc_ios.wav	3	6	2	noise_calib_stim_LEFT.wav	1	5	blb_dichoticlistening_ba-pa.mp3	ba	pa	1	right
6.6.1	and	2023-07-06	21:42:53	21:54:20	663448	60fd58f89d037589c34f5a18	2	1	practice_z	22	advance_on_keypress_ZEE	6	stimuli_target_squarediamonds.svg	stimuli_distractor_trianglediamonds.svg	5	yes	57	0	762	6	2	antiphase_hc_ios.wav	3	6	2	noise_calib_stim_LEFT.wav	1	5	blb_dichoticlistening_ba-pa.mp3	ba	pa	1	right
6.6.1	and	2023-07-06	21:42:53	21:54:25	667834	60fd58f89d037589c34f5a18	2	1	practice_z	22	practice_z	7	stimuli_distractor_diamondtriangles.svg	stimuli_distractor_trianglediamonds.svg	14	no	0	1	2000	6	2	antiphase_hc_ios.wav	3	6	2	noise_calib_stim_LEFT.wav	1	5	blb_dichoticlistening_ba-pa.mp3	ba	pa	1	right
6.6.1	and	2023-07-06	21:42:53	21:54:25	667834	60fd58f89d037589c34f5a18	2	1	practice_z	22	advance_on_keypress_ZEE	8	stimuli_distractor_diamondtriangles.svg	stimuli_distractor_trianglediamonds.svg	14	no	57	0	620	6	2	antiphase_hc_ios.wav	3	6	2	noise_calib_stim_LEFT.wav	1	5	blb_dichoticlistening_ba-pa.mp3	ba	pa	1	right
6.6.1	and	2023-07-06	21:42:53	21:54:29	672084	60fd58f89d037589c34f5a18	2	1	practice_z	22	practice_z	9	stimuli_distractor_trianglediamonds.svg	stimuli_distractor_trianglediamonds.svg	15	no	0	1	2000	6	2	antiphase_hc_ios.wav	3	6	2	noise_calib_stim_LEFT.wav	1	5	blb_dichoticlistening_ba-pa.mp3	ba	pa	1	right
6.6.1	and	2023-07-06	21:42:53	21:54:29	672084	60fd58f89d037589c34f5a18	2	1	practice_z	22	advance_on_keypress_ZEE	10	stimuli_distractor_trianglediamonds.svg	stimuli_distractor_trianglediamonds.svg	15	no	57	0	541	6	2	antiphase_hc_ios.wav	3	6	2	noise_calib_stim_LEFT.wav	1	5	blb_dichoticlistening_ba-pa.mp3	ba	pa	1	right
6.6.1	and	2023-07-06	21:42:53	21:54:33	676250	60fd58f89d037589c34f5a18	2	1	practice_z	22	practice_z	11	stimuli_distractor_trianglediamonds.svg	stimuli_distractor_diamondtriangles.svg	16	no	0	1	2000	6	2	antiphase_hc_ios.wav	3	6	2	noise_calib_stim_LEFT.wav	1	5	blb_dichoticlistening_ba-pa.mp3	ba	pa	1	right
6.6.1	and	2023-07-06	21:42:53	21:54:33	676250	60fd58f89d037589c34f5a18	2	1	practice_z	22	advance_on_keypress_ZEE	12	stimuli_distractor_trianglediamonds.svg	stimuli_distractor_diamondtriangles.svg	16	no	57	0	604	6	2	antiphase_hc_ios.wav	3	6	2	noise_calib_stim_LEFT.wav	1	5	blb_dichoticlistening_ba-pa.mp3	ba	pa	1	right
6.6.1	and	2023-07-06	21:42:53	21:54:36	679176	60fd58f89d037589c34f5a18	2	1	practice_z	22	practice_z	13	stimuli_distractor_diamondtriangles.svg	stimuli_target_rectangletriangles.svg	7	yes	44	1	694	6	2	antiphase_hc_ios.wav	3	6	2	noise_calib_stim_LEFT.wav	1	5	blb_dichoticlistening_ba-pa.mp3	ba	pa	1	right
6.6.1	and	2023-07-06	21:42:53	21:54:36	679176	60fd58f89d037589c34f5a18	2	1	practice_z	22	advance_on_keypress_ZEE	14	stimuli_distractor_diamondtriangles.svg	stimuli_target_rectangletriangles.svg	7	yes	57	0	589	6	2	antiphase_hc_ios.wav	3	6	2	noise_calib_stim_LEFT.wav	1	5	blb_dichoticlistening_ba-pa.mp3	ba	pa	1	right
6.6.1	and	2023-07-06	21:42:53	21:54:39	682118	60fd58f89d037589c34f5a18	2	1	practice_z	22	practice_z	15	stimuli_target_rectanglediamonds.svg	stimuli_distractor_trianglediamonds.svg	4	yes	44	1	735	6	2	antiphase_hc_ios.wav	3	6	2	noise_calib_stim_LEFT.wav	1	5	blb_dichoticlistening_ba-pa.mp3	ba	pa	1	right
6.6.1	and	2023-07-06	21:42:53	21:54:39	682118	60fd58f89d037589c34f5a18	2	1	practice_z	22	advance_on_keypress_ZEE	16	stimuli_target_rectanglediamonds.svg	stimuli_distractor_trianglediamonds.svg	4	yes	57	0	686	6	2	antiphase_hc_ios.wav	3	6	2	noise_calib_stim_LEFT.wav	1	5	blb_dichoticlistening_ba-pa.mp3	ba	pa	1	right
6.6.1	and	2023-07-06	21:42:53	21:54:43	686433	60fd58f89d037589c34f5a18	2	1	practice_z	22	practice_z	17	stimuli_distractor_diamondtriangles.svg	stimuli_distractor_diamondtriangles.svg	13	no	0	1	2000	6	2	antiphase_hc_ios.wav	3	6	2	noise_calib_stim_LEFT.wav	1	5	blb_dichoticlistening_ba-pa.mp3	ba	pa	1	right
6.6.1	and	2023-07-06	21:42:53	21:54:43	686433	60fd58f89d037589c34f5a18	2	1	practice_z	22	advance_on_keypress_ZEE	18	stimuli_distractor_diamondtriangles.svg	stimuli_distractor_diamondtriangles.svg	13	no	57	0	501	6	2	antiphase_hc_ios.wav	3	6	2	noise_calib_stim_LEFT.wav	1	5	blb_dichoticlistening_ba-pa.mp3	ba	pa	1	right
6.6.1	and	2023-07-06	21:42:53	21:54:46	689410	60fd58f89d037589c34f5a18	2	1	practice_z	22	practice_z	19	stimuli_target_rectanglediamonds.svg	stimuli_distractor_diamondtriangles.svg	1	yes	44	1	844	6	2	antiphase_hc_ios.wav	3	6	2	noise_calib_stim_LEFT.wav	1	5	blb_dichoticlistening_ba-pa.mp3	ba	pa	1	right
6.6.1	and	2023-07-06	21:42:53	21:54:46	689410	60fd58f89d037589c34f5a18	2	1	practice_z	22	advance_on_keypress_ZEE	20	stimuli_target_rectanglediamonds.svg	stimuli_distractor_diamondtriangles.svg	1	yes	57	0	579	6	2	antiphase_hc_ios.wav	3	6	2	noise_calib_stim_LEFT.wav	1	5	blb_dichoticlistening_ba-pa.mp3	ba	pa	1	right
6.6.1	and	2023-07-06	21:42:53	21:54:51	693616	60fd58f89d037589c34f5a18	2	1	practice_z	22	practice_z	21	stimuli_target_diamondsquares.svg	stimuli_distractor_diamondtriangles.svg	3	yes	0	0	2000	6	2	antiphase_hc_ios.wav	3	6	2	noise_calib_stim_LEFT.wav	1	5	blb_dichoticlistening_ba-pa.mp3	ba	pa	1	right
6.6.1	and	2023-07-06	21:42:53	21:54:51	693616	60fd58f89d037589c34f5a18	2	1	practice_z	22	advance_on_keypress_ZEE	22	stimuli_target_diamondsquares.svg	stimuli_distractor_diamondtriangles.svg	3	yes	57	0	503	6	2	antiphase_hc_ios.wav	3	6	2	noise_calib_stim_LEFT.wav	1	5	blb_dichoticlistening_ba-pa.mp3	ba	pa	1	right
6.6.1	and	2023-07-06	21:42:53	21:54:53	696428	60fd58f89d037589c34f5a18	2	1	practice_z	22	practice_z	23	stimuli_target_squarediamonds.svg	stimuli_distractor_diamondtriangles.svg	2	yes	44	1	679	6	2	antiphase_hc_ios.wav	3	6	2	noise_calib_stim_LEFT.wav	1	5	blb_dichoticlistening_ba-pa.mp3	ba	pa	1	right
6.6.1	and	2023-07-06	21:42:53	21:54:53	696428	60fd58f89d037589c34f5a18	2	1	practice_z	22	advance_on_keypress_ZEE	24	stimuli_target_squarediamonds.svg	stimuli_distractor_diamondtriangles.svg	2	yes	57	0	590	6	2	antiphase_hc_ios.wav	3	6	2	noise_calib_stim_LEFT.wav	1	5	blb_dichoticlistening_ba-pa.mp3	ba	pa	1	right
6.6.1	and	2023-07-06	21:42:53	21:54:56	699431	60fd58f89d037589c34f5a18	2	1	practice_z	22	practice_z	25	stimuli_distractor_diamondtriangles.svg	stimuli_target_diamondrectangles.svg	8	yes	44	1	782	6	2	antiphase_hc_ios.wav	3	6	2	noise_calib_stim_LEFT.wav	1	5	blb_dichoticlistening_ba-pa.mp3	ba	pa	1	right
6.6.1	and	2023-07-06	21:42:53	21:54:56	699431	60fd58f89d037589c34f5a18	2	1	practice_z	22	advance_on_keypress_ZEE	26	stimuli_distractor_diamondtriangles.svg	stimuli_target_diamondrectangles.svg	8	yes	57	0	517	6	2	antiphase_hc_ios.wav	3	6	2	noise_calib_stim_LEFT.wav	1	5	blb_dichoticlistening_ba-pa.mp3	ba	pa	1	right
6.6.1	and	2023-07-06	21:42:53	21:55:00	702526	60fd58f89d037589c34f5a18	2	1	practice_z	22	practice_z	27	stimuli_distractor_diamondtriangles.svg	stimuli_target_trianglerectangles.svg	9	yes	44	1	943	6	2	antiphase_hc_ios.wav	3	6	2	noise_calib_stim_LEFT.wav	1	5	blb_dichoticlistening_ba-pa.mp3	ba	pa	1	right
6.6.1	and	2023-07-06	21:42:53	21:55:00	702526	60fd58f89d037589c34f5a18	2	1	practice_z	22	advance_on_keypress_ZEE	28	stimuli_distractor_diamondtriangles.svg	stimuli_target_trianglerectangles.svg	9	yes	57	0	506	6	2	antiphase_hc_ios.wav	3	6	2	noise_calib_stim_LEFT.wav	1	5	blb_dichoticlistening_ba-pa.mp3	ba	pa	1	right
6.6.1	and	2023-07-06	21:42:53	21:55:02	705438	60fd58f89d037589c34f5a18	2	1	practice_z	22	practice_z	29	stimuli_distractor_trianglediamonds.svg	stimuli_target_diamondrectangles.svg	12	yes	44	1	788	6	2	antiphase_hc_ios.wav	3	6	2	noise_calib_stim_LEFT.wav	1	5	blb_dichoticlistening_ba-pa.mp3	ba	pa	1	right
6.6.1	and	2023-07-06	21:42:53	21:55:02	705438	60fd58f89d037589c34f5a18	2	1	practice_z	22	advance_on_keypress_ZEE	30	stimuli_distractor_trianglediamonds.svg	stimuli_target_diamondrectangles.svg	12	yes	57	0	594	6	2	antiphase_hc_ios.wav	3	6	2	noise_calib_stim_LEFT.wav	1	5	blb_dichoticlistening_ba-pa.mp3	ba	pa	1	right
6.6.1	and	2023-07-06	21:42:53	21:55:05	708275	60fd58f89d037589c34f5a18	2	1	practice_z	22	practice_z	31	stimuli_distractor_trianglediamonds.svg	stimuli_target_rectanglediamonds.svg	10	yes	44	1	625	6	2	antiphase_hc_ios.wav	3	6	2	noise_calib_stim_LEFT.wav	1	5	blb_dichoticlistening_ba-pa.mp3	ba	pa	1	right
6.6.1	and	2023-07-06	21:42:53	21:55:05	708275	60fd58f89d037589c34f5a18	2	1	practice_z	22	advance_on_keypress_ZEE	32	stimuli_distractor_trianglediamonds.svg	stimuli_target_rectanglediamonds.svg	10	yes	57	0	578	6	2	antiphase_hc_ios.wav	3	6	2	noise_calib_stim_LEFT.wav	1	5	blb_dichoticlistening_ba-pa.mp3	ba	pa	1	right
6.6.1	and	2023-07-06	21:42:53	21:55:10	712750	60fd58f89d037589c34f5a18	2	1	main_z	24	main_z	1	stimuli_distractor_diamondtriangles.svg	stimuli_target_squaretriangles.svg	15	yes	44	1	918	6	2	antiphase_hc_ios.wav	3	6	2	noise_calib_stim_LEFT.wav	1	5	blb_dichoticlistening_ba-pa.mp3	ba	pa	1	right
6.6.1	and	2023-07-06	21:42:53	21:55:10	712750	60fd58f89d037589c34f5a18	2	1	main_z	24	advance_on_keypress_ZEE	2	stimuli_distractor_diamondtriangles.svg	stimuli_target_squaretriangles.svg	15	yes	57	0	2545	6	2	antiphase_hc_ios.wav	3	6	2	noise_calib_stim_LEFT.wav	1	5	blb_dichoticlistening_ba-pa.mp3	ba	pa	1	right
6.6.1	and	2023-07-06	21:42:53	21:55:14	716887	60fd58f89d037589c34f5a18	2	1	main_z	24	main_z	3	stimuli_distractor_diamondtriangles.svg	stimuli_target_diamondrectangles.svg	31	yes	44	1	955	6	2	antiphase_hc_ios.wav	3	6	2	noise_calib_stim_LEFT.wav	1	5	blb_dichoticlistening_ba-pa.mp3	ba	pa	1	right
6.6.1	and	2023-07-06	21:42:53	21:55:14	716887	60fd58f89d037589c34f5a18	2	1	main_z	24	advance_on_keypress_ZEE	4	stimuli_distractor_diamondtriangles.svg	stimuli_target_diamondrectangles.svg	31	yes	57	0	1014	6	2	antiphase_hc_ios.wav	3	6	2	noise_calib_stim_LEFT.wav	1	5	blb_dichoticlistening_ba-pa.mp3	ba	pa	1	right
6.6.1	and	2023-07-06	21:42:53	21:55:16	719255	60fd58f89d037589c34f5a18	2	1	main_z	24	main_z	5	stimuli_distractor_diamondtriangles.svg	stimuli_target_rectangletriangles.svg	13	yes	44	1	723	6	2	antiphase_hc_ios.wav	3	6	2	noise_calib_stim_LEFT.wav	1	5	blb_dichoticlistening_ba-pa.mp3	ba	pa	1	right
6.6.1	and	2023-07-06	21:42:53	21:55:16	719255	60fd58f89d037589c34f5a18	2	1	main_z	24	advance_on_keypress_ZEE	6	stimuli_distractor_diamondtriangles.svg	stimuli_target_rectangletriangles.svg	13	yes	57	0	606	6	2	antiphase_hc_ios.wav	3	6	2	noise_calib_stim_LEFT.wav	1	5	blb_dichoticlistening_ba-pa.mp3	ba	pa	1	right
6.6.1	and	2023-07-06	21:42:53	21:55:19	721991	60fd58f89d037589c34f5a18	2	1	main_z	24	main_z	7	stimuli_distractor_trianglediamonds.svg	stimuli_target_squaretriangles.svg	11	yes	44	1	1509	6	2	antiphase_hc_ios.wav	3	6	2	noise_calib_stim_LEFT.wav	1	5	blb_dichoticlistening_ba-pa.mp3	ba	pa	1	right
6.6.1	and	2023-07-06	21:42:53	21:55:19	721991	60fd58f89d037589c34f5a18	2	1	main_z	24	advance_on_keypress_ZEE	8	stimuli_distractor_trianglediamonds.svg	stimuli_target_squaretriangles.svg	11	yes	57	0	670	6	2	antiphase_hc_ios.wav	3	6	2	noise_calib_stim_LEFT.wav	1	5	blb_dichoticlistening_ba-pa.mp3	ba	pa	1	right
6.6.1	and	2023-07-06	21:42:53	21:55:21	724169	60fd58f89d037589c34f5a18	2	1	main_z	24	main_z	9	stimuli_distractor_trianglediamonds.svg	stimuli_target_rectanglediamonds.svg	10	yes	44	1	887	6	2	antiphase_hc_ios.wav	3	6	2	noise_calib_stim_LEFT.wav	1	5	blb_dichoticlistening_ba-pa.mp3	ba	pa	1	right
6.6.1	and	2023-07-06	21:42:53	21:55:21	724169	60fd58f89d037589c34f5a18	2	1	main_z	24	advance_on_keypress_ZEE	10	stimuli_distractor_trianglediamonds.svg	stimuli_target_rectanglediamonds.svg	10	yes	57	0	712	6	2	antiphase_hc_ios.wav	3	6	2	noise_calib_stim_LEFT.wav	1	5	blb_dichoticlistening_ba-pa.mp3	ba	pa	1	right
6.6.1	and	2023-07-06	21:42:53	21:55:24	726462	60fd58f89d037589c34f5a18	2	1	main_z	24	main_z	11	stimuli_target_squarediamonds.svg	stimuli_distractor_trianglediamonds.svg	4	yes	44	1	963	6	2	antiphase_hc_ios.wav	3	6	2	noise_calib_stim_LEFT.wav	1	5	blb_dichoticlistening_ba-pa.mp3	ba	pa	1	right
6.6.1	and	2023-07-06	21:42:53	21:55:24	726462	60fd58f89d037589c34f5a18	2	1	main_z	24	advance_on_keypress_ZEE	12	stimuli_target_squarediamonds.svg	stimuli_distractor_trianglediamonds.svg	4	yes	57	0	515	6	2	antiphase_hc_ios.wav	3	6	2	noise_calib_stim_LEFT.wav	1	5	blb_dichoticlistening_ba-pa.mp3	ba	pa	1	right
6.6.1	and	2023-07-06	21:42:53	21:55:26	729343	60fd58f89d037589c34f5a18	2	1	main_z	24	main_z	13	stimuli_distractor_trianglediamonds.svg	stimuli_target_rectangletriangles.svg	9	yes	44	1	1727	6	2	antiphase_hc_ios.wav	3	6	2	noise_calib_stim_LEFT.wav	1	5	blb_dichoticlistening_ba-pa.mp3	ba	pa	1	right
6.6.1	and	2023-07-06	21:42:53	21:55:26	729343	60fd58f89d037589c34f5a18	2	1	main_z	24	advance_on_keypress_ZEE	14	stimuli_distractor_trianglediamonds.svg	stimuli_target_rectangletriangles.svg	9	yes	57	0	531	6	2	antiphase_hc_ios.wav	3	6	2	noise_calib_stim_LEFT.wav	1	5	blb_dichoticlistening_ba-pa.mp3	ba	pa	1	right
6.6.1	and	2023-07-06	21:42:53	21:55:30	732500	60fd58f89d037589c34f5a18	2	1	main_z	24	main_z	15	stimuli_target_trianglerectangles.svg	stimuli_distractor_diamondtriangles.svg	21	yes	0	0	2000	6	2	antiphase_hc_ios.wav	3	6	2	noise_calib_stim_LEFT.wav	1	5	blb_dichoticlistening_ba-pa.mp3	ba	pa	1	right
6.6.1	and	2023-07-06	21:42:53	21:55:30	732500	60fd58f89d037589c34f5a18	2	1	main_z	24	advance_on_keypress_ZEE	16	stimuli_target_trianglerectangles.svg	stimuli_distractor_diamondtriangles.svg	21	yes	57	0	610	6	2	antiphase_hc_ios.wav	3	6	2	noise_calib_stim_LEFT.wav	1	5	blb_dichoticlistening_ba-pa.mp3	ba	pa	1	right
6.6.1	and	2023-07-06	21:42:53	21:55:31	734301	60fd58f89d037589c34f5a18	2	1	main_z	24	main_z	17	stimuli_distractor_trianglediamonds.svg	stimuli_target_diamondsquares.svg	28	yes	44	1	568	6	2	antiphase_hc_ios.wav	3	6	2	noise_calib_stim_LEFT.wav	1	5	blb_dichoticlistening_ba-pa.mp3	ba	pa	1	right
6.6.1	and	2023-07-06	21:42:53	21:55:31	734301	60fd58f89d037589c34f5a18	2	1	main_z	24	advance_on_keypress_ZEE	18	stimuli_distractor_trianglediamonds.svg	stimuli_target_diamondsquares.svg	28	yes	57	0	683	6	2	antiphase_hc_ios.wav	3	6	2	noise_calib_stim_LEFT.wav	1	5	blb_dichoticlistening_ba-pa.mp3	ba	pa	1	right
6.6.1	and	2023-07-06	21:42:53	21:55:33	736319	60fd58f89d037589c34f5a18	2	1	main_z	24	main_z	19	stimuli_target_rectangletriangles.svg	stimuli_distractor_diamondtriangles.svg	5	yes	44	1	703	6	2	antiphase_hc_ios.wav	3	6	2	noise_calib_stim_LEFT.wav	1	5	blb_dichoticlistening_ba-pa.mp3	ba	pa	1	right
6.6.1	and	2023-07-06	21:42:53	21:55:33	736319	60fd58f89d037589c34f5a18	2	1	main_z	24	advance_on_keypress_ZEE	20	stimuli_target_rectangletriangles.svg	stimuli_distractor_diamondtriangles.svg	5	yes	57	0	517	6	2	antiphase_hc_ios.wav	3	6	2	noise_calib_stim_LEFT.wav	1	5	blb_dichoticlistening_ba-pa.mp3	ba	pa	1	right
6.6.1	and	2023-07-06	21:42:53	21:55:36	738656	60fd58f89d037589c34f5a18	2	1	main_z	24	main_z	21	stimuli_target_trianglesquares.svg	stimuli_distractor_diamondtriangles.svg	22	yes	44	1	1189	6	2	antiphase_hc_ios.wav	3	6	2	noise_calib_stim_LEFT.wav	1	5	blb_dichoticlistening_ba-pa.mp3	ba	pa	1	right
6.6.1	and	2023-07-06	21:42:53	21:55:36	738656	60fd58f89d037589c34f5a18	2	1	main_z	24	advance_on_keypress_ZEE	22	stimuli_target_trianglesquares.svg	stimuli_distractor_diamondtriangles.svg	22	yes	57	0	479	6	2	antiphase_hc_ios.wav	3	6	2	noise_calib_stim_LEFT.wav	1	5	blb_dichoticlistening_ba-pa.mp3	ba	pa	1	right
6.6.1	and	2023-07-06	21:42:53	21:55:38	740739	60fd58f89d037589c34f5a18	2	1	main_z	24	main_z	23	stimuli_distractor_trianglediamonds.svg	stimuli_target_squarediamonds.svg	12	yes	44	1	973	6	2	antiphase_hc_ios.wav	3	6	2	noise_calib_stim_LEFT.wav	1	5	blb_dichoticlistening_ba-pa.mp3	ba	pa	1	right
6.6.1	and	2023-07-06	21:42:53	21:55:38	740739	60fd58f89d037589c34f5a18	2	1	main_z	24	advance_on_keypress_ZEE	24	stimuli_distractor_trianglediamonds.svg	stimuli_target_squarediamonds.svg	12	yes	57	0	473	6	2	antiphase_hc_ios.wav	3	6	2	noise_calib_stim_LEFT.wav	1	5	blb_dichoticlistening_ba-pa.mp3	ba	pa	1	right
6.6.1	and	2023-07-06	21:42:53	21:55:41	743833	60fd58f89d037589c34f5a18	2	1	main_z	24	main_z	25	stimuli_distractor_trianglediamonds.svg	stimuli_distractor_diamondtriangles.svg	35	no	0	1	2000	6	2	antiphase_hc_ios.wav	3	6	2	noise_calib_stim_LEFT.wav	1	5	blb_dichoticlistening_ba-pa.mp3	ba	pa	1	right
6.6.1	and	2023-07-06	21:42:53	21:55:41	743833	60fd58f89d037589c34f5a18	2	1	main_z	24	advance_on_keypress_ZEE	26	stimuli_distractor_trianglediamonds.svg	stimuli_distractor_diamondtriangles.svg	35	no	57	0	450	6	2	antiphase_hc_ios.wav	3	6	2	noise_calib_stim_LEFT.wav	1	5	blb_dichoticlistening_ba-pa.mp3	ba	pa	1	right
6.6.1	and	2023-07-06	21:42:53	21:55:43	745653	60fd58f89d037589c34f5a18	2	1	main_z	24	main_z	27	stimuli_target_squaretriangles.svg	stimuli_distractor_diamondtriangles.svg	7	yes	44	1	737	6	2	antiphase_hc_ios.wav	3	6	2	noise_calib_stim_LEFT.wav	1	5	blb_dichoticlistening_ba-pa.mp3	ba	pa	1	right
6.6.1	and	2023-07-06	21:42:53	21:55:43	745653	60fd58f89d037589c34f5a18	2	1	main_z	24	advance_on_keypress_ZEE	28	stimuli_target_squaretriangles.svg	stimuli_distractor_diamondtriangles.svg	7	yes	57	0	468	6	2	antiphase_hc_ios.wav	3	6	2	noise_calib_stim_LEFT.wav	1	5	blb_dichoticlistening_ba-pa.mp3	ba	pa	1	right
6.6.1	and	2023-07-06	21:42:53	21:55:45	747707	60fd58f89d037589c34f5a18	2	1	main_z	24	main_z	29	stimuli_target_rectanglediamonds.svg	stimuli_distractor_trianglediamonds.svg	2	yes	44	1	957	6	2	antiphase_hc_ios.wav	3	6	2	noise_calib_stim_LEFT.wav	1	5	blb_dichoticlistening_ba-pa.mp3	ba	pa	1	right
6.6.1	and	2023-07-06	21:42:53	21:55:45	747707	60fd58f89d037589c34f5a18	2	1	main_z	24	advance_on_keypress_ZEE	30	stimuli_target_rectanglediamonds.svg	stimuli_distractor_trianglediamonds.svg	2	yes	57	0	443	6	2	antiphase_hc_ios.wav	3	6	2	noise_calib_stim_LEFT.wav	1	5	blb_dichoticlistening_ba-pa.mp3	ba	pa	1	right
6.6.1	and	2023-07-06	21:42:53	21:55:48	750517	60fd58f89d037589c34f5a18	2	1	main_z	24	main_z	31	stimuli_target_diamondrectangles.svg	stimuli_distractor_diamondtriangles.svg	23	yes	44	1	1751	6	2	antiphase_hc_ios.wav	3	6	2	noise_calib_stim_LEFT.wav	1	5	blb_dichoticlistening_ba-pa.mp3	ba	pa	1	right
6.6.1	and	2023-07-06	21:42:53	21:55:48	750517	60fd58f89d037589c34f5a18	2	1	main_z	24	advance_on_keypress_ZEE	32	stimuli_target_diamondrectangles.svg	stimuli_distractor_diamondtriangles.svg	23	yes	57	0	400	6	2	antiphase_hc_ios.wav	3	6	2	noise_calib_stim_LEFT.wav	1	5	blb_dichoticlistening_ba-pa.mp3	ba	pa	1	right
6.6.1	and	2023-07-06	21:42:53	21:55:49	752413	60fd58f89d037589c34f5a18	2	1	main_z	24	main_z	33	stimuli_distractor_diamondtriangles.svg	stimuli_target_squarediamonds.svg	16	yes	44	1	863	6	2	antiphase_hc_ios.wav	3	6	2	noise_calib_stim_LEFT.wav	1	5	blb_dichoticlistening_ba-pa.mp3	ba	pa	1	right
6.6.1	and	2023-07-06	21:42:53	21:55:49	752413	60fd58f89d037589c34f5a18	2	1	main_z	24	advance_on_keypress_ZEE	34	stimuli_distractor_diamondtriangles.svg	stimuli_target_squarediamonds.svg	16	yes	57	0	390	6	2	antiphase_hc_ios.wav	3	6	2	noise_calib_stim_LEFT.wav	1	5	blb_dichoticlistening_ba-pa.mp3	ba	pa	1	right
6.6.1	and	2023-07-06	21:42:53	21:55:51	754376	60fd58f89d037589c34f5a18	2	1	main_z	24	main_z	35	stimuli_distractor_trianglediamonds.svg	stimuli_target_trianglerectangles.svg	25	yes	44	1	942	6	2	antiphase_hc_ios.wav	3	6	2	noise_calib_stim_LEFT.wav	1	5	blb_dichoticlistening_ba-pa.mp3	ba	pa	1	right
6.6.1	and	2023-07-06	21:42:53	21:55:51	754376	60fd58f89d037589c34f5a18	2	1	main_z	24	advance_on_keypress_ZEE	36	stimuli_distractor_trianglediamonds.svg	stimuli_target_trianglerectangles.svg	25	yes	57	0	460	6	2	antiphase_hc_ios.wav	3	6	2	noise_calib_stim_LEFT.wav	1	5	blb_dichoticlistening_ba-pa.mp3	ba	pa	1	right
6.6.1	and	2023-07-06	21:42:53	21:55:53	756429	60fd58f89d037589c34f5a18	2	1	main_z	24	main_z	37	stimuli_target_diamondsquares.svg	stimuli_distractor_diamondtriangles.svg	24	yes	44	1	980	6	2	antiphase_hc_ios.wav	3	6	2	noise_calib_stim_LEFT.wav	1	5	blb_dichoticlistening_ba-pa.mp3	ba	pa	1	right
6.6.1	and	2023-07-06	21:42:53	21:55:53	756429	60fd58f89d037589c34f5a18	2	1	main_z	24	advance_on_keypress_ZEE	38	stimuli_target_diamondsquares.svg	stimuli_distractor_diamondtriangles.svg	24	yes	57	0	439	6	2	antiphase_hc_ios.wav	3	6	2	noise_calib_stim_LEFT.wav	1	5	blb_dichoticlistening_ba-pa.mp3	ba	pa	1	right
6.6.1	and	2023-07-06	21:42:53	21:55:57	759500	60fd58f89d037589c34f5a18	2	1	main_z	24	main_z	39	stimuli_distractor_trianglediamonds.svg	stimuli_distractor_trianglediamonds.svg	34	no	0	1	2000	6	2	antiphase_hc_ios.wav	3	6	2	noise_calib_stim_LEFT.wav	1	5	blb_dichoticlistening_ba-pa.mp3	ba	pa	1	right
6.6.1	and	2023-07-06	21:42:53	21:55:57	759500	60fd58f89d037589c34f5a18	2	1	main_z	24	advance_on_keypress_ZEE	40	stimuli_distractor_trianglediamonds.svg	stimuli_distractor_trianglediamonds.svg	34	no	57	0	593	6	2	antiphase_hc_ios.wav	3	6	2	noise_calib_stim_LEFT.wav	1	5	blb_dichoticlistening_ba-pa.mp3	ba	pa	1	right
6.6.1	and	2023-07-06	21:42:53	21:55:59	761495	60fd58f89d037589c34f5a18	2	1	main_z	24	main_z	41	stimuli_target_squaretriangles.svg	stimuli_distractor_trianglediamonds.svg	3	yes	44	1	779	6	2	antiphase_hc_ios.wav	3	6	2	noise_calib_stim_LEFT.wav	1	5	blb_dichoticlistening_ba-pa.mp3	ba	pa	1	right
6.6.1	and	2023-07-06	21:42:53	21:55:59	761495	60fd58f89d037589c34f5a18	2	1	main_z	24	advance_on_keypress_ZEE	42	stimuli_target_squaretriangles.svg	stimuli_distractor_trianglediamonds.svg	3	yes	57	0	456	6	2	antiphase_hc_ios.wav	3	6	2	noise_calib_stim_LEFT.wav	1	5	blb_dichoticlistening_ba-pa.mp3	ba	pa	1	right
6.6.1	and	2023-07-06	21:42:53	21:56:01	763485	60fd58f89d037589c34f5a18	2	1	main_z	24	main_z	43	stimuli_distractor_diamondtriangles.svg	stimuli_target_trianglerectangles.svg	29	yes	44	1	902	6	2	antiphase_hc_ios.wav	3	6	2	noise_calib_stim_LEFT.wav	1	5	blb_dichoticlistening_ba-pa.mp3	ba	pa	1	right
6.6.1	and	2023-07-06	21:42:53	21:56:01	763485	60fd58f89d037589c34f5a18	2	1	main_z	24	advance_on_keypress_ZEE	44	stimuli_distractor_diamondtriangles.svg	stimuli_target_trianglerectangles.svg	29	yes	57	0	413	6	2	antiphase_hc_ios.wav	3	6	2	noise_calib_stim_LEFT.wav	1	5	blb_dichoticlistening_ba-pa.mp3	ba	pa	1	right
6.6.1	and	2023-07-06	21:42:53	21:56:03	765476	60fd58f89d037589c34f5a18	2	1	main_z	24	main_z	45	stimuli_distractor_diamondtriangles.svg	stimuli_target_trianglesquares.svg	30	yes	44	1	960	6	2	antiphase_hc_ios.wav	3	6	2	noise_calib_stim_LEFT.wav	1	5	blb_dichoticlistening_ba-pa.mp3	ba	pa	1	right
6.6.1	and	2023-07-06	21:42:53	21:56:03	765476	60fd58f89d037589c34f5a18	2	1	main_z	24	advance_on_keypress_ZEE	46	stimuli_distractor_diamondtriangles.svg	stimuli_target_trianglesquares.svg	30	yes	57	0	443	6	2	antiphase_hc_ios.wav	3	6	2	noise_calib_stim_LEFT.wav	1	5	blb_dichoticlistening_ba-pa.mp3	ba	pa	1	right
6.6.1	and	2023-07-06	21:42:53	21:56:06	768534	60fd58f89d037589c34f5a18	2	1	main_z	24	main_z	47	stimuli_distractor_trianglediamonds.svg	stimuli_distractor_diamondtriangles.svg	36	no	0	1	2000	6	2	antiphase_hc_ios.wav	3	6	2	noise_calib_stim_LEFT.wav	1	5	blb_dichoticlistening_ba-pa.mp3	ba	pa	1	right
6.6.1	and	2023-07-06	21:42:53	21:56:06	768534	60fd58f89d037589c34f5a18	2	1	main_z	24	advance_on_keypress_ZEE	48	stimuli_distractor_trianglediamonds.svg	stimuli_distractor_diamondtriangles.svg	36	no	57	0	602	6	2	antiphase_hc_ios.wav	3	6	2	noise_calib_stim_LEFT.wav	1	5	blb_dichoticlistening_ba-pa.mp3	ba	pa	1	right
6.6.1	and	2023-07-06	21:42:53	21:56:09	771767	60fd58f89d037589c34f5a18	2	1	main_z	24	main_z	49	stimuli_distractor_trianglediamonds.svg	stimuli_distractor_trianglediamonds.svg	33	no	0	1	2000	6	2	antiphase_hc_ios.wav	3	6	2	noise_calib_stim_LEFT.wav	1	5	blb_dichoticlistening_ba-pa.mp3	ba	pa	1	right
6.6.1	and	2023-07-06	21:42:53	21:56:09	771767	60fd58f89d037589c34f5a18	2	1	main_z	24	advance_on_keypress_ZEE	50	stimuli_distractor_trianglediamonds.svg	stimuli_distractor_trianglediamonds.svg	33	no	57	0	451	6	2	antiphase_hc_ios.wav	3	6	2	noise_calib_stim_LEFT.wav	1	5	blb_dichoticlistening_ba-pa.mp3	ba	pa	1	right
6.6.1	and	2023-07-06	21:42:53	21:56:12	774851	60fd58f89d037589c34f5a18	2	1	main_z	24	main_z	51	stimuli_distractor_diamondtriangles.svg	stimuli_distractor_trianglediamonds.svg	38	no	0	1	2000	6	2	antiphase_hc_ios.wav	3	6	2	noise_calib_stim_LEFT.wav	1	5	blb_dichoticlistening_ba-pa.mp3	ba	pa	1	right
6.6.1	and	2023-07-06	21:42:53	21:56:12	774851	60fd58f89d037589c34f5a18	2	1	main_z	24	advance_on_keypress_ZEE	52	stimuli_distractor_diamondtriangles.svg	stimuli_distractor_trianglediamonds.svg	38	no	57	0	495	6	2	antiphase_hc_ios.wav	3	6	2	noise_calib_stim_LEFT.wav	1	5	blb_dichoticlistening_ba-pa.mp3	ba	pa	1	right
6.6.1	and	2023-07-06	21:42:53	21:56:14	776663	60fd58f89d037589c34f5a18	2	1	main_z	24	main_z	53	stimuli_target_diamondrectangles.svg	stimuli_distractor_trianglediamonds.svg	19	yes	44	1	679	6	2	antiphase_hc_ios.wav	3	6	2	noise_calib_stim_LEFT.wav	1	5	blb_dichoticlistening_ba-pa.mp3	ba	pa	1	right
6.6.1	and	2023-07-06	21:42:53	21:56:14	776663	60fd58f89d037589c34f5a18	2	1	main_z	24	advance_on_keypress_ZEE	54	stimuli_target_diamondrectangles.svg	stimuli_distractor_trianglediamonds.svg	19	yes	57	0	640	6	2	antiphase_hc_ios.wav	3	6	2	noise_calib_stim_LEFT.wav	1	5	blb_dichoticlistening_ba-pa.mp3	ba	pa	1	right
6.6.1	and	2023-07-06	21:42:53	21:56:16	778716	60fd58f89d037589c34f5a18	2	1	main_z	24	main_z	55	stimuli_target_trianglesquares.svg	stimuli_distractor_trianglediamonds.svg	18	yes	44	1	783	6	2	antiphase_hc_ios.wav	3	6	2	noise_calib_stim_LEFT.wav	1	5	blb_dichoticlistening_ba-pa.mp3	ba	pa	1	right
6.6.1	and	2023-07-06	21:42:53	21:56:16	778716	60fd58f89d037589c34f5a18	2	1	main_z	24	advance_on_keypress_ZEE	56	stimuli_target_trianglesquares.svg	stimuli_distractor_trianglediamonds.svg	18	yes	57	0	481	6	2	antiphase_hc_ios.wav	3	6	2	noise_calib_stim_LEFT.wav	1	5	blb_dichoticlistening_ba-pa.mp3	ba	pa	1	right
6.6.1	and	2023-07-06	21:42:53	21:56:18	780611	60fd58f89d037589c34f5a18	2	1	main_z	24	main_z	57	stimuli_distractor_diamondtriangles.svg	stimuli_target_diamondsquares.svg	32	yes	44	1	777	6	2	antiphase_hc_ios.wav	3	6	2	noise_calib_stim_LEFT.wav	1	5	blb_dichoticlistening_ba-pa.mp3	ba	pa	1	right
6.6.1	and	2023-07-06	21:42:53	21:56:18	780611	60fd58f89d037589c34f5a18	2	1	main_z	24	advance_on_keypress_ZEE	58	stimuli_distractor_diamondtriangles.svg	stimuli_target_diamondsquares.svg	32	yes	57	0	471	6	2	antiphase_hc_ios.wav	3	6	2	noise_calib_stim_LEFT.wav	1	5	blb_dichoticlistening_ba-pa.mp3	ba	pa	1	right
6.6.1	and	2023-07-06	21:42:53	21:56:21	783701	60fd58f89d037589c34f5a18	2	1	main_z	24	main_z	59	stimuli_distractor_diamondtriangles.svg	stimuli_distractor_trianglediamonds.svg	37	no	0	1	2000	6	2	antiphase_hc_ios.wav	3	6	2	noise_calib_stim_LEFT.wav	1	5	blb_dichoticlistening_ba-pa.mp3	ba	pa	1	right
6.6.1	and	2023-07-06	21:42:53	21:56:21	783701	60fd58f89d037589c34f5a18	2	1	main_z	24	advance_on_keypress_ZEE	60	stimuli_distractor_diamondtriangles.svg	stimuli_distractor_trianglediamonds.svg	37	no	57	0	534	6	2	antiphase_hc_ios.wav	3	6	2	noise_calib_stim_LEFT.wav	1	5	blb_dichoticlistening_ba-pa.mp3	ba	pa	1	right
6.6.1	and	2023-07-06	21:42:53	21:56:23	785614	60fd58f89d037589c34f5a18	2	1	main_z	24	main_z	61	stimuli_target_rectangletriangles.svg	stimuli_distractor_trianglediamonds.svg	1	yes	44	1	747	6	2	antiphase_hc_ios.wav	3	6	2	noise_calib_stim_LEFT.wav	1	5	blb_dichoticlistening_ba-pa.mp3	ba	pa	1	right
6.6.1	and	2023-07-06	21:42:53	21:56:23	785614	60fd58f89d037589c34f5a18	2	1	main_z	24	advance_on_keypress_ZEE	62	stimuli_target_rectangletriangles.svg	stimuli_distractor_trianglediamonds.svg	1	yes	57	0	435	6	2	antiphase_hc_ios.wav	3	6	2	noise_calib_stim_LEFT.wav	1	5	blb_dichoticlistening_ba-pa.mp3	ba	pa	1	right
6.6.1	and	2023-07-06	21:42:53	21:56:25	787701	60fd58f89d037589c34f5a18	2	1	main_z	24	main_z	63	stimuli_target_trianglerectangles.svg	stimuli_distractor_trianglediamonds.svg	17	yes	44	1	1018	6	2	antiphase_hc_ios.wav	3	6	2	noise_calib_stim_LEFT.wav	1	5	blb_dichoticlistening_ba-pa.mp3	ba	pa	1	right
6.6.1	and	2023-07-06	21:42:53	21:56:25	787701	60fd58f89d037589c34f5a18	2	1	main_z	24	advance_on_keypress_ZEE	64	stimuli_target_trianglerectangles.svg	stimuli_distractor_trianglediamonds.svg	17	yes	57	0	450	6	2	antiphase_hc_ios.wav	3	6	2	noise_calib_stim_LEFT.wav	1	5	blb_dichoticlistening_ba-pa.mp3	ba	pa	1	right
6.6.1	and	2023-07-06	21:42:53	21:56:28	790785	60fd58f89d037589c34f5a18	2	1	main_z	24	main_z	65	stimuli_distractor_diamondtriangles.svg	stimuli_distractor_diamondtriangles.svg	40	no	0	1	2000	6	2	antiphase_hc_ios.wav	3	6	2	noise_calib_stim_LEFT.wav	1	5	blb_dichoticlistening_ba-pa.mp3	ba	pa	1	right
6.6.1	and	2023-07-06	21:42:53	21:56:28	790785	60fd58f89d037589c34f5a18	2	1	main_z	24	advance_on_keypress_ZEE	66	stimuli_distractor_diamondtriangles.svg	stimuli_distractor_diamondtriangles.svg	40	no	57	0	537	6	2	antiphase_hc_ios.wav	3	6	2	noise_calib_stim_LEFT.wav	1	5	blb_dichoticlistening_ba-pa.mp3	ba	pa	1	right
6.6.1	and	2023-07-06	21:42:53	21:56:31	793950	60fd58f89d037589c34f5a18	2	1	main_z	24	main_z	67	stimuli_distractor_diamondtriangles.svg	stimuli_distractor_diamondtriangles.svg	39	no	0	1	2000	6	2	antiphase_hc_ios.wav	3	6	2	noise_calib_stim_LEFT.wav	1	5	blb_dichoticlistening_ba-pa.mp3	ba	pa	1	right
6.6.1	and	2023-07-06	21:42:53	21:56:31	793950	60fd58f89d037589c34f5a18	2	1	main_z	24	advance_on_keypress_ZEE	68	stimuli_distractor_diamondtriangles.svg	stimuli_distractor_diamondtriangles.svg	39	no	57	0	307	6	2	antiphase_hc_ios.wav	3	6	2	noise_calib_stim_LEFT.wav	1	5	blb_dichoticlistening_ba-pa.mp3	ba	pa	1	right
6.6.1	and	2023-07-06	21:42:53	21:56:33	795498	60fd58f89d037589c34f5a18	2	1	main_z	24	main_z	69	stimuli_distractor_trianglediamonds.svg	stimuli_target_trianglesquares.svg	26	yes	44	1	614	6	2	antiphase_hc_ios.wav	3	6	2	noise_calib_stim_LEFT.wav	1	5	blb_dichoticlistening_ba-pa.mp3	ba	pa	1	right
6.6.1	and	2023-07-06	21:42:53	21:56:33	795498	60fd58f89d037589c34f5a18	2	1	main_z	24	advance_on_keypress_ZEE	70	stimuli_distractor_trianglediamonds.svg	stimuli_target_trianglesquares.svg	26	yes	57	0	584	6	2	antiphase_hc_ios.wav	3	6	2	noise_calib_stim_LEFT.wav	1	5	blb_dichoticlistening_ba-pa.mp3	ba	pa	1	right
6.6.1	and	2023-07-06	21:42:53	21:56:35	797518	60fd58f89d037589c34f5a18	2	1	main_z	24	main_z	71	stimuli_distractor_trianglediamonds.svg	stimuli_target_diamondrectangles.svg	27	yes	44	1	801	6	2	antiphase_hc_ios.wav	3	6	2	noise_calib_stim_LEFT.wav	1	5	blb_dichoticlistening_ba-pa.mp3	ba	pa	1	right
6.6.1	and	2023-07-06	21:42:53	21:56:35	797518	60fd58f89d037589c34f5a18	2	1	main_z	24	advance_on_keypress_ZEE	72	stimuli_distractor_trianglediamonds.svg	stimuli_target_diamondrectangles.svg	27	yes	57	0	463	6	2	antiphase_hc_ios.wav	3	6	2	noise_calib_stim_LEFT.wav	1	5	blb_dichoticlistening_ba-pa.mp3	ba	pa	1	right
6.6.1	and	2023-07-06	21:42:53	21:56:36	799431	60fd58f89d037589c34f5a18	2	1	main_z	24	main_z	73	stimuli_target_squarediamonds.svg	stimuli_distractor_diamondtriangles.svg	8	yes	44	1	814	6	2	antiphase_hc_ios.wav	3	6	2	noise_calib_stim_LEFT.wav	1	5	blb_dichoticlistening_ba-pa.mp3	ba	pa	1	right
6.6.1	and	2023-07-06	21:42:53	21:56:36	799431	60fd58f89d037589c34f5a18	2	1	main_z	24	advance_on_keypress_ZEE	74	stimuli_target_squarediamonds.svg	stimuli_distractor_diamondtriangles.svg	8	yes	57	0	376	6	2	antiphase_hc_ios.wav	3	6	2	noise_calib_stim_LEFT.wav	1	5	blb_dichoticlistening_ba-pa.mp3	ba	pa	1	right
6.6.1	and	2023-07-06	21:42:53	21:56:38	801208	60fd58f89d037589c34f5a18	2	1	main_z	24	main_z	75	stimuli_target_rectanglediamonds.svg	stimuli_distractor_diamondtriangles.svg	6	yes	44	1	775	6	2	antiphase_hc_ios.wav	3	6	2	noise_calib_stim_LEFT.wav	1	5	blb_dichoticlistening_ba-pa.mp3	ba	pa	1	right
6.6.1	and	2023-07-06	21:42:53	21:56:38	801208	60fd58f89d037589c34f5a18	2	1	main_z	24	advance_on_keypress_ZEE	76	stimuli_target_rectanglediamonds.svg	stimuli_distractor_diamondtriangles.svg	6	yes	57	0	328	6	2	antiphase_hc_ios.wav	3	6	2	noise_calib_stim_LEFT.wav	1	5	blb_dichoticlistening_ba-pa.mp3	ba	pa	1	right
6.6.1	and	2023-07-06	21:42:53	21:56:40	802831	60fd58f89d037589c34f5a18	2	1	main_z	24	main_z	77	stimuli_distractor_diamondtriangles.svg	stimuli_target_rectanglediamonds.svg	14	yes	44	1	681	6	2	antiphase_hc_ios.wav	3	6	2	noise_calib_stim_LEFT.wav	1	5	blb_dichoticlistening_ba-pa.mp3	ba	pa	1	right
6.6.1	and	2023-07-06	21:42:53	21:56:40	802831	60fd58f89d037589c34f5a18	2	1	main_z	24	advance_on_keypress_ZEE	78	stimuli_distractor_diamondtriangles.svg	stimuli_target_rectanglediamonds.svg	14	yes	57	0	427	6	2	antiphase_hc_ios.wav	3	6	2	noise_calib_stim_LEFT.wav	1	5	blb_dichoticlistening_ba-pa.mp3	ba	pa	1	right
6.6.1	and	2023-07-06	21:42:53	21:56:42	805029	60fd58f89d037589c34f5a18	2	1	main_z	24	main_z	79	stimuli_target_diamondsquares.svg	stimuli_distractor_trianglediamonds.svg	20	yes	44	1	1145	6	2	antiphase_hc_ios.wav	3	6	2	noise_calib_stim_LEFT.wav	1	5	blb_dichoticlistening_ba-pa.mp3	ba	pa	1	right
6.6.1	and	2023-07-06	21:42:53	21:56:42	805029	60fd58f89d037589c34f5a18	2	1	main_z	24	advance_on_keypress_ZEE	80	stimuli_target_diamondsquares.svg	stimuli_distractor_trianglediamonds.svg	20	yes	57	0	382	6	2	antiphase_hc_ios.wav	3	6	2	noise_calib_stim_LEFT.wav	1	5	blb_dichoticlistening_ba-pa.mp3	ba	pa	1	right
6.6.1	and	2023-07-06	21:42:53	21:56:44	807070	60fd58f89d037589c34f5a18	2	1	main_z	24	main_z	81	stimuli_target_trianglesquares.svg	stimuli_distractor_diamondtriangles.svg	22	yes	44	1	1035	6	2	antiphase_hc_ios.wav	3	6	2	noise_calib_stim_LEFT.wav	1	5	blb_dichoticlistening_ba-pa.mp3	ba	pa	1	right
6.6.1	and	2023-07-06	21:42:53	21:56:44	807070	60fd58f89d037589c34f5a18	2	1	main_z	24	advance_on_keypress_ZEE	82	stimuli_target_trianglesquares.svg	stimuli_distractor_diamondtriangles.svg	22	yes	57	0	349	6	2	antiphase_hc_ios.wav	3	6	2	noise_calib_stim_LEFT.wav	1	5	blb_dichoticlistening_ba-pa.mp3	ba	pa	1	right
6.6.1	and	2023-07-06	21:42:53	21:56:46	809091	60fd58f89d037589c34f5a18	2	1	main_z	24	main_z	83	stimuli_target_trianglesquares.svg	stimuli_distractor_trianglediamonds.svg	18	yes	44	1	1040	6	2	antiphase_hc_ios.wav	3	6	2	noise_calib_stim_LEFT.wav	1	5	blb_dichoticlistening_ba-pa.mp3	ba	pa	1	right
6.6.1	and	2023-07-06	21:42:53	21:56:46	809091	60fd58f89d037589c34f5a18	2	1	main_z	24	advance_on_keypress_ZEE	84	stimuli_target_trianglesquares.svg	stimuli_distractor_trianglediamonds.svg	18	yes	57	0	349	6	2	antiphase_hc_ios.wav	3	6	2	noise_calib_stim_LEFT.wav	1	5	blb_dichoticlistening_ba-pa.mp3	ba	pa	1	right
6.6.1	and	2023-07-06	21:42:53	21:56:48	810974	60fd58f89d037589c34f5a18	2	1	main_z	24	main_z	85	stimuli_target_rectangletriangles.svg	stimuli_distractor_trianglediamonds.svg	1	yes	44	1	906	6	2	antiphase_hc_ios.wav	3	6	2	noise_calib_stim_LEFT.wav	1	5	blb_dichoticlistening_ba-pa.mp3	ba	pa	1	right
6.6.1	and	2023-07-06	21:42:53	21:56:48	810974	60fd58f89d037589c34f5a18	2	1	main_z	24	advance_on_keypress_ZEE	86	stimuli_target_rectangletriangles.svg	stimuli_distractor_trianglediamonds.svg	1	yes	57	0	388	6	2	antiphase_hc_ios.wav	3	6	2	noise_calib_stim_LEFT.wav	1	5	blb_dichoticlistening_ba-pa.mp3	ba	pa	1	right
6.6.1	and	2023-07-06	21:42:53	21:56:50	812893	60fd58f89d037589c34f5a18	2	1	main_z	24	main_z	87	stimuli_target_diamondsquares.svg	stimuli_distractor_trianglediamonds.svg	20	yes	44	1	908	6	2	antiphase_hc_ios.wav	3	6	2	noise_calib_stim_LEFT.wav	1	5	blb_dichoticlistening_ba-pa.mp3	ba	pa	1	right
6.6.1	and	2023-07-06	21:42:53	21:56:50	812893	60fd58f89d037589c34f5a18	2	1	main_z	24	advance_on_keypress_ZEE	88	stimuli_target_diamondsquares.svg	stimuli_distractor_trianglediamonds.svg	20	yes	57	0	470	6	2	antiphase_hc_ios.wav	3	6	2	noise_calib_stim_LEFT.wav	1	5	blb_dichoticlistening_ba-pa.mp3	ba	pa	1	right
6.6.1	and	2023-07-06	21:42:53	21:56:52	814957	60fd58f89d037589c34f5a18	2	1	main_z	24	main_z	89	stimuli_distractor_trianglediamonds.svg	stimuli_target_diamondrectangles.svg	27	yes	44	1	973	6	2	antiphase_hc_ios.wav	3	6	2	noise_calib_stim_LEFT.wav	1	5	blb_dichoticlistening_ba-pa.mp3	ba	pa	1	right
6.6.1	and	2023-07-06	21:42:53	21:56:52	814957	60fd58f89d037589c34f5a18	2	1	main_z	24	advance_on_keypress_ZEE	90	stimuli_distractor_trianglediamonds.svg	stimuli_target_diamondrectangles.svg	27	yes	57	0	382	6	2	antiphase_hc_ios.wav	3	6	2	noise_calib_stim_LEFT.wav	1	5	blb_dichoticlistening_ba-pa.mp3	ba	pa	1	right
6.6.1	and	2023-07-06	21:42:53	21:56:54	816917	60fd58f89d037589c34f5a18	2	1	main_z	24	main_z	91	stimuli_target_squaretriangles.svg	stimuli_distractor_diamondtriangles.svg	7	yes	44	1	950	6	2	antiphase_hc_ios.wav	3	6	2	noise_calib_stim_LEFT.wav	1	5	blb_dichoticlistening_ba-pa.mp3	ba	pa	1	right
6.6.1	and	2023-07-06	21:42:53	21:56:54	816917	60fd58f89d037589c34f5a18	2	1	main_z	24	advance_on_keypress_ZEE	92	stimuli_target_squaretriangles.svg	stimuli_distractor_diamondtriangles.svg	7	yes	57	0	334	6	2	antiphase_hc_ios.wav	3	6	2	noise_calib_stim_LEFT.wav	1	5	blb_dichoticlistening_ba-pa.mp3	ba	pa	1	right
6.6.1	and	2023-07-06	21:42:53	21:56:56	818856	60fd58f89d037589c34f5a18	2	1	main_z	24	main_z	93	stimuli_distractor_diamondtriangles.svg	stimuli_target_trianglesquares.svg	30	yes	44	1	972	6	2	antiphase_hc_ios.wav	3	6	2	noise_calib_stim_LEFT.wav	1	5	blb_dichoticlistening_ba-pa.mp3	ba	pa	1	right
6.6.1	and	2023-07-06	21:42:53	21:56:56	818856	60fd58f89d037589c34f5a18	2	1	main_z	24	advance_on_keypress_ZEE	94	stimuli_distractor_diamondtriangles.svg	stimuli_target_trianglesquares.svg	30	yes	57	0	364	6	2	antiphase_hc_ios.wav	3	6	2	noise_calib_stim_LEFT.wav	1	5	blb_dichoticlistening_ba-pa.mp3	ba	pa	1	right
6.6.1	and	2023-07-06	21:42:53	21:56:59	821852	60fd58f89d037589c34f5a18	2	1	main_z	24	main_z	95	stimuli_distractor_diamondtriangles.svg	stimuli_distractor_diamondtriangles.svg	40	no	0	1	2000	6	2	antiphase_hc_ios.wav	3	6	2	noise_calib_stim_LEFT.wav	1	5	blb_dichoticlistening_ba-pa.mp3	ba	pa	1	right
6.6.1	and	2023-07-06	21:42:53	21:56:59	821852	60fd58f89d037589c34f5a18	2	1	main_z	24	advance_on_keypress_ZEE	96	stimuli_distractor_diamondtriangles.svg	stimuli_distractor_diamondtriangles.svg	40	no	57	0	369	6	2	antiphase_hc_ios.wav	3	6	2	noise_calib_stim_LEFT.wav	1	5	blb_dichoticlistening_ba-pa.mp3	ba	pa	1	right
6.6.1	and	2023-07-06	21:42:53	21:57:01	823563	60fd58f89d037589c34f5a18	2	1	main_z	24	main_z	97	stimuli_distractor_diamondtriangles.svg	stimuli_target_squarediamonds.svg	16	yes	44	1	712	6	2	antiphase_hc_ios.wav	3	6	2	noise_calib_stim_LEFT.wav	1	5	blb_dichoticlistening_ba-pa.mp3	ba	pa	1	right
6.6.1	and	2023-07-06	21:42:53	21:57:01	823563	60fd58f89d037589c34f5a18	2	1	main_z	24	advance_on_keypress_ZEE	98	stimuli_distractor_diamondtriangles.svg	stimuli_target_squarediamonds.svg	16	yes	57	0	386	6	2	antiphase_hc_ios.wav	3	6	2	noise_calib_stim_LEFT.wav	1	5	blb_dichoticlistening_ba-pa.mp3	ba	pa	1	right
6.6.1	and	2023-07-06	21:42:53	21:57:04	826568	60fd58f89d037589c34f5a18	2	1	main_z	24	main_z	99	stimuli_distractor_trianglediamonds.svg	stimuli_distractor_diamondtriangles.svg	35	no	0	1	2000	6	2	antiphase_hc_ios.wav	3	6	2	noise_calib_stim_LEFT.wav	1	5	blb_dichoticlistening_ba-pa.mp3	ba	pa	1	right
6.6.1	and	2023-07-06	21:42:53	21:57:04	826568	60fd58f89d037589c34f5a18	2	1	main_z	24	advance_on_keypress_ZEE	100	stimuli_distractor_trianglediamonds.svg	stimuli_distractor_diamondtriangles.svg	35	no	57	0	800	6	2	antiphase_hc_ios.wav	3	6	2	noise_calib_stim_LEFT.wav	1	5	blb_dichoticlistening_ba-pa.mp3	ba	pa	1	right
6.6.1	and	2023-07-06	21:42:53	21:57:06	828855	60fd58f89d037589c34f5a18	2	1	main_z	24	main_z	101	stimuli_distractor_trianglediamonds.svg	stimuli_target_trianglerectangles.svg	25	yes	44	1	854	6	2	antiphase_hc_ios.wav	3	6	2	noise_calib_stim_LEFT.wav	1	5	blb_dichoticlistening_ba-pa.mp3	ba	pa	1	right
6.6.1	and	2023-07-06	21:42:53	21:57:06	828855	60fd58f89d037589c34f5a18	2	1	main_z	24	advance_on_keypress_ZEE	102	stimuli_distractor_trianglediamonds.svg	stimuli_target_trianglerectangles.svg	25	yes	57	0	417	6	2	antiphase_hc_ios.wav	3	6	2	noise_calib_stim_LEFT.wav	1	5	blb_dichoticlistening_ba-pa.mp3	ba	pa	1	right
6.6.1	and	2023-07-06	21:42:53	21:57:08	830880	60fd58f89d037589c34f5a18	2	1	main_z	24	main_z	103	stimuli_distractor_trianglediamonds.svg	stimuli_target_diamondsquares.svg	28	yes	44	1	979	6	2	antiphase_hc_ios.wav	3	6	2	noise_calib_stim_LEFT.wav	1	5	blb_dichoticlistening_ba-pa.mp3	ba	pa	1	right
6.6.1	and	2023-07-06	21:42:53	21:57:08	830880	60fd58f89d037589c34f5a18	2	1	main_z	24	advance_on_keypress_ZEE	104	stimuli_distractor_trianglediamonds.svg	stimuli_target_diamondsquares.svg	28	yes	57	0	324	6	2	antiphase_hc_ios.wav	3	6	2	noise_calib_stim_LEFT.wav	1	5	blb_dichoticlistening_ba-pa.mp3	ba	pa	1	right
6.6.1	and	2023-07-06	21:42:53	21:57:11	833836	60fd58f89d037589c34f5a18	2	1	main_z	24	main_z	105	stimuli_target_diamondrectangles.svg	stimuli_distractor_diamondtriangles.svg	23	yes	0	0	2000	6	2	antiphase_hc_ios.wav	3	6	2	noise_calib_stim_LEFT.wav	1	5	blb_dichoticlistening_ba-pa.mp3	ba	pa	1	right
6.6.1	and	2023-07-06	21:42:53	21:57:11	833836	60fd58f89d037589c34f5a18	2	1	main_z	24	advance_on_keypress_ZEE	106	stimuli_target_diamondrectangles.svg	stimuli_distractor_diamondtriangles.svg	23	yes	57	0	476	6	2	antiphase_hc_ios.wav	3	6	2	noise_calib_stim_LEFT.wav	1	5	blb_dichoticlistening_ba-pa.mp3	ba	pa	1	right
6.6.1	and	2023-07-06	21:42:53	21:57:13	835557	60fd58f89d037589c34f5a18	2	1	main_z	24	main_z	107	stimuli_distractor_diamondtriangles.svg	stimuli_target_diamondrectangles.svg	31	yes	44	1	623	6	2	antiphase_hc_ios.wav	3	6	2	noise_calib_stim_LEFT.wav	1	5	blb_dichoticlistening_ba-pa.mp3	ba	pa	1	right
6.6.1	and	2023-07-06	21:42:53	21:57:13	835557	60fd58f89d037589c34f5a18	2	1	main_z	24	advance_on_keypress_ZEE	108	stimuli_distractor_diamondtriangles.svg	stimuli_target_diamondrectangles.svg	31	yes	57	0	428	6	2	antiphase_hc_ios.wav	3	6	2	noise_calib_stim_LEFT.wav	1	5	blb_dichoticlistening_ba-pa.mp3	ba	pa	1	right
6.6.1	and	2023-07-06	21:42:53	21:57:14	837409	60fd58f89d037589c34f5a18	2	1	main_z	24	main_z	109	stimuli_distractor_diamondtriangles.svg	stimuli_target_trianglerectangles.svg	29	yes	44	1	808	6	2	antiphase_hc_ios.wav	3	6	2	noise_calib_stim_LEFT.wav	1	5	blb_dichoticlistening_ba-pa.mp3	ba	pa	1	right
6.6.1	and	2023-07-06	21:42:53	21:57:14	837409	60fd58f89d037589c34f5a18	2	1	main_z	24	advance_on_keypress_ZEE	110	stimuli_distractor_diamondtriangles.svg	stimuli_target_trianglerectangles.svg	29	yes	57	0	405	6	2	antiphase_hc_ios.wav	3	6	2	noise_calib_stim_LEFT.wav	1	5	blb_dichoticlistening_ba-pa.mp3	ba	pa	1	right
6.6.1	and	2023-07-06	21:42:53	21:57:17	840435	60fd58f89d037589c34f5a18	2	1	main_z	24	main_z	111	stimuli_distractor_diamondtriangles.svg	stimuli_distractor_trianglediamonds.svg	38	no	0	1	2000	6	2	antiphase_hc_ios.wav	3	6	2	noise_calib_stim_LEFT.wav	1	5	blb_dichoticlistening_ba-pa.mp3	ba	pa	1	right
6.6.1	and	2023-07-06	21:42:53	21:57:17	840435	60fd58f89d037589c34f5a18	2	1	main_z	24	advance_on_keypress_ZEE	112	stimuli_distractor_diamondtriangles.svg	stimuli_distractor_trianglediamonds.svg	38	no	57	0	590	6	2	antiphase_hc_ios.wav	3	6	2	noise_calib_stim_LEFT.wav	1	5	blb_dichoticlistening_ba-pa.mp3	ba	pa	1	right
6.6.1	and	2023-07-06	21:42:53	21:57:20	842472	60fd58f89d037589c34f5a18	2	1	main_z	24	main_z	113	stimuli_target_trianglerectangles.svg	stimuli_distractor_trianglediamonds.svg	17	yes	44	1	821	6	2	antiphase_hc_ios.wav	3	6	2	noise_calib_stim_LEFT.wav	1	5	blb_dichoticlistening_ba-pa.mp3	ba	pa	1	right
6.6.1	and	2023-07-06	21:42:53	21:57:20	842472	60fd58f89d037589c34f5a18	2	1	main_z	24	advance_on_keypress_ZEE	114	stimuli_target_trianglerectangles.svg	stimuli_distractor_trianglediamonds.svg	17	yes	57	0	357	6	2	antiphase_hc_ios.wav	3	6	2	noise_calib_stim_LEFT.wav	1	5	blb_dichoticlistening_ba-pa.mp3	ba	pa	1	right
6.6.1	and	2023-07-06	21:42:53	21:57:21	844234	60fd58f89d037589c34f5a18	2	1	main_z	24	main_z	115	stimuli_distractor_diamondtriangles.svg	stimuli_target_diamondsquares.svg	32	yes	44	1	783	6	2	antiphase_hc_ios.wav	3	6	2	noise_calib_stim_LEFT.wav	1	5	blb_dichoticlistening_ba-pa.mp3	ba	pa	1	right
6.6.1	and	2023-07-06	21:42:53	21:57:21	844234	60fd58f89d037589c34f5a18	2	1	main_z	24	advance_on_keypress_ZEE	116	stimuli_distractor_diamondtriangles.svg	stimuli_target_diamondsquares.svg	32	yes	57	0	337	6	2	antiphase_hc_ios.wav	3	6	2	noise_calib_stim_LEFT.wav	1	5	blb_dichoticlistening_ba-pa.mp3	ba	pa	1	right
6.6.1	and	2023-07-06	21:42:53	21:57:23	845880	60fd58f89d037589c34f5a18	2	1	main_z	24	main_z	117	stimuli_distractor_diamondtriangles.svg	stimuli_target_rectanglediamonds.svg	14	yes	44	1	678	6	2	antiphase_hc_ios.wav	3	6	2	noise_calib_stim_LEFT.wav	1	5	blb_dichoticlistening_ba-pa.mp3	ba	pa	1	right
6.6.1	and	2023-07-06	21:42:53	21:57:23	845880	60fd58f89d037589c34f5a18	2	1	main_z	24	advance_on_keypress_ZEE	118	stimuli_distractor_diamondtriangles.svg	stimuli_target_rectanglediamonds.svg	14	yes	57	0	645	6	2	antiphase_hc_ios.wav	3	6	2	noise_calib_stim_LEFT.wav	1	5	blb_dichoticlistening_ba-pa.mp3	ba	pa	1	right
6.6.1	and	2023-07-06	21:42:53	21:57:26	849136	60fd58f89d037589c34f5a18	2	1	main_z	24	main_z	119	stimuli_distractor_trianglediamonds.svg	stimuli_distractor_diamondtriangles.svg	36	no	0	1	2000	6	2	antiphase_hc_ios.wav	3	6	2	noise_calib_stim_LEFT.wav	1	5	blb_dichoticlistening_ba-pa.mp3	ba	pa	1	right
6.6.1	and	2023-07-06	21:42:53	21:57:26	849136	60fd58f89d037589c34f5a18	2	1	main_z	24	advance_on_keypress_ZEE	120	stimuli_distractor_trianglediamonds.svg	stimuli_distractor_diamondtriangles.svg	36	no	57	0	625	6	2	antiphase_hc_ios.wav	3	6	2	noise_calib_stim_LEFT.wav	1	5	blb_dichoticlistening_ba-pa.mp3	ba	pa	1	right
6.6.1	and	2023-07-06	21:42:53	21:57:29	852385	60fd58f89d037589c34f5a18	2	1	main_z	24	main_z	121	stimuli_distractor_diamondtriangles.svg	stimuli_distractor_trianglediamonds.svg	37	no	0	1	2000	6	2	antiphase_hc_ios.wav	3	6	2	noise_calib_stim_LEFT.wav	1	5	blb_dichoticlistening_ba-pa.mp3	ba	pa	1	right
6.6.1	and	2023-07-06	21:42:53	21:57:29	852385	60fd58f89d037589c34f5a18	2	1	main_z	24	advance_on_keypress_ZEE	122	stimuli_distractor_diamondtriangles.svg	stimuli_distractor_trianglediamonds.svg	37	no	57	0	300	6	2	antiphase_hc_ios.wav	3	6	2	noise_calib_stim_LEFT.wav	1	5	blb_dichoticlistening_ba-pa.mp3	ba	pa	1	right
6.6.1	and	2023-07-06	21:42:53	21:57:32	855319	60fd58f89d037589c34f5a18	2	1	main_z	24	main_z	123	stimuli_distractor_trianglediamonds.svg	stimuli_distractor_trianglediamonds.svg	33	no	0	1	2000	6	2	antiphase_hc_ios.wav	3	6	2	noise_calib_stim_LEFT.wav	1	5	blb_dichoticlistening_ba-pa.mp3	ba	pa	1	right
6.6.1	and	2023-07-06	21:42:53	21:57:32	855319	60fd58f89d037589c34f5a18	2	1	main_z	24	advance_on_keypress_ZEE	124	stimuli_distractor_trianglediamonds.svg	stimuli_distractor_trianglediamonds.svg	33	no	57	0	94	6	2	antiphase_hc_ios.wav	3	6	2	noise_calib_stim_LEFT.wav	1	5	blb_dichoticlistening_ba-pa.mp3	ba	pa	1	right
6.6.1	and	2023-07-06	21:42:53	21:57:34	857002	60fd58f89d037589c34f5a18	2	1	main_z	24	main_z	125	stimuli_distractor_trianglediamonds.svg	stimuli_target_rectanglediamonds.svg	10	yes	44	1	967	6	2	antiphase_hc_ios.wav	3	6	2	noise_calib_stim_LEFT.wav	1	5	blb_dichoticlistening_ba-pa.mp3	ba	pa	1	right
6.6.1	and	2023-07-06	21:42:53	21:57:34	857002	60fd58f89d037589c34f5a18	2	1	main_z	24	advance_on_keypress_ZEE	126	stimuli_distractor_trianglediamonds.svg	stimuli_target_rectanglediamonds.svg	10	yes	57	0	405	6	2	antiphase_hc_ios.wav	3	6	2	noise_calib_stim_LEFT.wav	1	5	blb_dichoticlistening_ba-pa.mp3	ba	pa	1	right
6.6.1	and	2023-07-06	21:42:53	21:57:36	858529	60fd58f89d037589c34f5a18	2	1	main_z	24	main_z	127	stimuli_distractor_trianglediamonds.svg	stimuli_target_rectangletriangles.svg	9	yes	44	1	494	6	2	antiphase_hc_ios.wav	3	6	2	noise_calib_stim_LEFT.wav	1	5	blb_dichoticlistening_ba-pa.mp3	ba	pa	1	right
6.6.1	and	2023-07-06	21:42:53	21:57:36	858529	60fd58f89d037589c34f5a18	2	1	main_z	24	advance_on_keypress_ZEE	128	stimuli_distractor_trianglediamonds.svg	stimuli_target_rectangletriangles.svg	9	yes	57	0	414	6	2	antiphase_hc_ios.wav	3	6	2	noise_calib_stim_LEFT.wav	1	5	blb_dichoticlistening_ba-pa.mp3	ba	pa	1	right
6.6.1	and	2023-07-06	21:42:53	21:57:37	860148	60fd58f89d037589c34f5a18	2	1	main_z	24	main_z	129	stimuli_target_squarediamonds.svg	stimuli_distractor_trianglediamonds.svg	4	yes	44	1	578	6	2	antiphase_hc_ios.wav	3	6	2	noise_calib_stim_LEFT.wav	1	5	blb_dichoticlistening_ba-pa.mp3	ba	pa	1	right
6.6.1	and	2023-07-06	21:42:53	21:57:37	860148	60fd58f89d037589c34f5a18	2	1	main_z	24	advance_on_keypress_ZEE	130	stimuli_target_squarediamonds.svg	stimuli_distractor_trianglediamonds.svg	4	yes	57	0	360	6	2	antiphase_hc_ios.wav	3	6	2	noise_calib_stim_LEFT.wav	1	5	blb_dichoticlistening_ba-pa.mp3	ba	pa	1	right
6.6.1	and	2023-07-06	21:42:53	21:57:40	863135	60fd58f89d037589c34f5a18	2	1	main_z	24	main_z	131	stimuli_distractor_diamondtriangles.svg	stimuli_distractor_diamondtriangles.svg	39	no	0	1	2000	6	2	antiphase_hc_ios.wav	3	6	2	noise_calib_stim_LEFT.wav	1	5	blb_dichoticlistening_ba-pa.mp3	ba	pa	1	right
6.6.1	and	2023-07-06	21:42:53	21:57:40	863135	60fd58f89d037589c34f5a18	2	1	main_z	24	advance_on_keypress_ZEE	132	stimuli_distractor_diamondtriangles.svg	stimuli_distractor_diamondtriangles.svg	39	no	57	0	313	6	2	antiphase_hc_ios.wav	3	6	2	noise_calib_stim_LEFT.wav	1	5	blb_dichoticlistening_ba-pa.mp3	ba	pa	1	right
6.6.1	and	2023-07-06	21:42:53	21:57:42	864651	60fd58f89d037589c34f5a18	2	1	main_z	24	main_z	133	stimuli_distractor_diamondtriangles.svg	stimuli_target_rectangletriangles.svg	13	yes	44	1	566	6	2	antiphase_hc_ios.wav	3	6	2	noise_calib_stim_LEFT.wav	1	5	blb_dichoticlistening_ba-pa.mp3	ba	pa	1	right
6.6.1	and	2023-07-06	21:42:53	21:57:42	864651	60fd58f89d037589c34f5a18	2	1	main_z	24	advance_on_keypress_ZEE	134	stimuli_distractor_diamondtriangles.svg	stimuli_target_rectangletriangles.svg	13	yes	57	0	421	6	2	antiphase_hc_ios.wav	3	6	2	noise_calib_stim_LEFT.wav	1	5	blb_dichoticlistening_ba-pa.mp3	ba	pa	1	right
6.6.1	and	2023-07-06	21:42:53	21:57:43	866261	60fd58f89d037589c34f5a18	2	1	main_z	24	main_z	135	stimuli_target_rectanglediamonds.svg	stimuli_distractor_trianglediamonds.svg	2	yes	44	1	559	6	2	antiphase_hc_ios.wav	3	6	2	noise_calib_stim_LEFT.wav	1	5	blb_dichoticlistening_ba-pa.mp3	ba	pa	1	right
6.6.1	and	2023-07-06	21:42:53	21:57:43	866261	60fd58f89d037589c34f5a18	2	1	main_z	24	advance_on_keypress_ZEE	136	stimuli_target_rectanglediamonds.svg	stimuli_distractor_trianglediamonds.svg	2	yes	57	0	436	6	2	antiphase_hc_ios.wav	3	6	2	noise_calib_stim_LEFT.wav	1	5	blb_dichoticlistening_ba-pa.mp3	ba	pa	1	right
6.6.1	and	2023-07-06	21:42:53	21:57:46	869319	60fd58f89d037589c34f5a18	2	1	main_z	24	main_z	137	stimuli_distractor_trianglediamonds.svg	stimuli_distractor_trianglediamonds.svg	34	no	0	1	2000	6	2	antiphase_hc_ios.wav	3	6	2	noise_calib_stim_LEFT.wav	1	5	blb_dichoticlistening_ba-pa.mp3	ba	pa	1	right
6.6.1	and	2023-07-06	21:42:53	21:57:46	869319	60fd58f89d037589c34f5a18	2	1	main_z	24	advance_on_keypress_ZEE	138	stimuli_distractor_trianglediamonds.svg	stimuli_distractor_trianglediamonds.svg	34	no	57	0	659	6	2	antiphase_hc_ios.wav	3	6	2	noise_calib_stim_LEFT.wav	1	5	blb_dichoticlistening_ba-pa.mp3	ba	pa	1	right
6.6.1	and	2023-07-06	21:42:53	21:57:49	871683	60fd58f89d037589c34f5a18	2	1	main_z	24	main_z	139	stimuli_target_squarediamonds.svg	stimuli_distractor_diamondtriangles.svg	8	yes	44	1	1081	6	2	antiphase_hc_ios.wav	3	6	2	noise_calib_stim_LEFT.wav	1	5	blb_dichoticlistening_ba-pa.mp3	ba	pa	1	right
6.6.1	and	2023-07-06	21:42:53	21:57:49	871683	60fd58f89d037589c34f5a18	2	1	main_z	24	advance_on_keypress_ZEE	140	stimuli_target_squarediamonds.svg	stimuli_distractor_diamondtriangles.svg	8	yes	57	0	397	6	2	antiphase_hc_ios.wav	3	6	2	noise_calib_stim_LEFT.wav	1	5	blb_dichoticlistening_ba-pa.mp3	ba	pa	1	right
6.6.1	and	2023-07-06	21:42:53	21:57:51	873825	60fd58f89d037589c34f5a18	2	1	main_z	24	main_z	141	stimuli_target_diamondsquares.svg	stimuli_distractor_diamondtriangles.svg	24	yes	44	1	1106	6	2	antiphase_hc_ios.wav	3	6	2	noise_calib_stim_LEFT.wav	1	5	blb_dichoticlistening_ba-pa.mp3	ba	pa	1	right
6.6.1	and	2023-07-06	21:42:53	21:57:51	873825	60fd58f89d037589c34f5a18	2	1	main_z	24	advance_on_keypress_ZEE	142	stimuli_target_diamondsquares.svg	stimuli_distractor_diamondtriangles.svg	24	yes	57	0	378	6	2	antiphase_hc_ios.wav	3	6	2	noise_calib_stim_LEFT.wav	1	5	blb_dichoticlistening_ba-pa.mp3	ba	pa	1	right
6.6.1	and	2023-07-06	21:42:53	21:57:53	875728	60fd58f89d037589c34f5a18	2	1	main_z	24	main_z	143	stimuli_distractor_trianglediamonds.svg	stimuli_target_squaretriangles.svg	11	yes	44	1	911	6	2	antiphase_hc_ios.wav	3	6	2	noise_calib_stim_LEFT.wav	1	5	blb_dichoticlistening_ba-pa.mp3	ba	pa	1	right
6.6.1	and	2023-07-06	21:42:53	21:57:53	875728	60fd58f89d037589c34f5a18	2	1	main_z	24	advance_on_keypress_ZEE	144	stimuli_distractor_trianglediamonds.svg	stimuli_target_squaretriangles.svg	11	yes	57	0	383	6	2	antiphase_hc_ios.wav	3	6	2	noise_calib_stim_LEFT.wav	1	5	blb_dichoticlistening_ba-pa.mp3	ba	pa	1	right
6.6.1	and	2023-07-06	21:42:53	21:57:55	877751	60fd58f89d037589c34f5a18	2	1	main_z	24	main_z	145	stimuli_target_rectanglediamonds.svg	stimuli_distractor_diamondtriangles.svg	6	yes	44	1	1015	6	2	antiphase_hc_ios.wav	3	6	2	noise_calib_stim_LEFT.wav	1	5	blb_dichoticlistening_ba-pa.mp3	ba	pa	1	right
6.6.1	and	2023-07-06	21:42:53	21:57:55	877751	60fd58f89d037589c34f5a18	2	1	main_z	24	advance_on_keypress_ZEE	146	stimuli_target_rectanglediamonds.svg	stimuli_distractor_diamondtriangles.svg	6	yes	57	0	390	6	2	antiphase_hc_ios.wav	3	6	2	noise_calib_stim_LEFT.wav	1	5	blb_dichoticlistening_ba-pa.mp3	ba	pa	1	right
6.6.1	and	2023-07-06	21:42:53	21:57:57	879734	60fd58f89d037589c34f5a18	2	1	main_z	24	main_z	147	stimuli_distractor_trianglediamonds.svg	stimuli_target_trianglesquares.svg	26	yes	44	1	966	6	2	antiphase_hc_ios.wav	3	6	2	noise_calib_stim_LEFT.wav	1	5	blb_dichoticlistening_ba-pa.mp3	ba	pa	1	right
6.6.1	and	2023-07-06	21:42:53	21:57:57	879734	60fd58f89d037589c34f5a18	2	1	main_z	24	advance_on_keypress_ZEE	148	stimuli_distractor_trianglediamonds.svg	stimuli_target_trianglesquares.svg	26	yes	57	0	391	6	2	antiphase_hc_ios.wav	3	6	2	noise_calib_stim_LEFT.wav	1	5	blb_dichoticlistening_ba-pa.mp3	ba	pa	1	right
6.6.1	and	2023-07-06	21:42:53	21:57:59	881812	60fd58f89d037589c34f5a18	2	1	main_z	24	main_z	149	stimuli_distractor_diamondtriangles.svg	stimuli_target_squaretriangles.svg	15	yes	44	1	1060	6	2	antiphase_hc_ios.wav	3	6	2	noise_calib_stim_LEFT.wav	1	5	blb_dichoticlistening_ba-pa.mp3	ba	pa	1	right
6.6.1	and	2023-07-06	21:42:53	21:57:59	881812	60fd58f89d037589c34f5a18	2	1	main_z	24	advance_on_keypress_ZEE	150	stimuli_distractor_diamondtriangles.svg	stimuli_target_squaretriangles.svg	15	yes	57	0	435	6	2	antiphase_hc_ios.wav	3	6	2	noise_calib_stim_LEFT.wav	1	5	blb_dichoticlistening_ba-pa.mp3	ba	pa	1	right
6.6.1	and	2023-07-06	21:42:53	21:58:01	883688	60fd58f89d037589c34f5a18	2	1	main_z	24	main_z	151	stimuli_target_squaretriangles.svg	stimuli_distractor_trianglediamonds.svg	3	yes	44	1	819	6	2	antiphase_hc_ios.wav	3	6	2	noise_calib_stim_LEFT.wav	1	5	blb_dichoticlistening_ba-pa.mp3	ba	pa	1	right
6.6.1	and	2023-07-06	21:42:53	21:58:01	883688	60fd58f89d037589c34f5a18	2	1	main_z	24	advance_on_keypress_ZEE	152	stimuli_target_squaretriangles.svg	stimuli_distractor_trianglediamonds.svg	3	yes	57	0	436	6	2	antiphase_hc_ios.wav	3	6	2	noise_calib_stim_LEFT.wav	1	5	blb_dichoticlistening_ba-pa.mp3	ba	pa	1	right
6.6.1	and	2023-07-06	21:42:53	21:58:02	885385	60fd58f89d037589c34f5a18	2	1	main_z	24	main_z	153	stimuli_target_rectangletriangles.svg	stimuli_distractor_diamondtriangles.svg	5	yes	44	1	632	6	2	antiphase_hc_ios.wav	3	6	2	noise_calib_stim_LEFT.wav	1	5	blb_dichoticlistening_ba-pa.mp3	ba	pa	1	right
6.6.1	and	2023-07-06	21:42:53	21:58:02	885385	60fd58f89d037589c34f5a18	2	1	main_z	24	advance_on_keypress_ZEE	154	stimuli_target_rectangletriangles.svg	stimuli_distractor_diamondtriangles.svg	5	yes	57	0	647	6	2	antiphase_hc_ios.wav	3	6	2	noise_calib_stim_LEFT.wav	1	5	blb_dichoticlistening_ba-pa.mp3	ba	pa	1	right
6.6.1	and	2023-07-06	21:42:53	21:58:06	888669	60fd58f89d037589c34f5a18	2	1	main_z	24	main_z	155	stimuli_target_trianglerectangles.svg	stimuli_distractor_diamondtriangles.svg	21	yes	0	0	2000	6	2	antiphase_hc_ios.wav	3	6	2	noise_calib_stim_LEFT.wav	1	5	blb_dichoticlistening_ba-pa.mp3	ba	pa	1	right
6.6.1	and	2023-07-06	21:42:53	21:58:06	888669	60fd58f89d037589c34f5a18	2	1	main_z	24	advance_on_keypress_ZEE	156	stimuli_target_trianglerectangles.svg	stimuli_distractor_diamondtriangles.svg	21	yes	57	0	472	6	2	antiphase_hc_ios.wav	3	6	2	noise_calib_stim_LEFT.wav	1	5	blb_dichoticlistening_ba-pa.mp3	ba	pa	1	right
6.6.1	and	2023-07-06	21:42:53	21:58:08	890485	60fd58f89d037589c34f5a18	2	1	main_z	24	main_z	157	stimuli_distractor_trianglediamonds.svg	stimuli_target_squarediamonds.svg	12	yes	44	1	716	6	2	antiphase_hc_ios.wav	3	6	2	noise_calib_stim_LEFT.wav	1	5	blb_dichoticlistening_ba-pa.mp3	ba	pa	1	right
6.6.1	and	2023-07-06	21:42:53	21:58:08	890485	60fd58f89d037589c34f5a18	2	1	main_z	24	advance_on_keypress_ZEE	158	stimuli_distractor_trianglediamonds.svg	stimuli_target_squarediamonds.svg	12	yes	57	0	375	6	2	antiphase_hc_ios.wav	3	6	2	noise_calib_stim_LEFT.wav	1	5	blb_dichoticlistening_ba-pa.mp3	ba	pa	1	right
6.6.1	and	2023-07-06	21:42:53	21:58:10	892500	60fd58f89d037589c34f5a18	2	1	main_z	24	main_z	159	stimuli_target_diamondrectangles.svg	stimuli_distractor_trianglediamonds.svg	19	yes	44	1	1015	6	2	antiphase_hc_ios.wav	3	6	2	noise_calib_stim_LEFT.wav	1	5	blb_dichoticlistening_ba-pa.mp3	ba	pa	1	right
6.6.1	and	2023-07-06	21:42:53	21:58:10	892500	60fd58f89d037589c34f5a18	2	1	main_z	24	advance_on_keypress_ZEE	160	stimuli_target_diamondrectangles.svg	stimuli_distractor_trianglediamonds.svg	19	yes	57	0	394	6	2	antiphase_hc_ios.wav	3	6	2	noise_calib_stim_LEFT.wav	1	5	blb_dichoticlistening_ba-pa.mp3	ba	pa	1	right
6.6.1	and	2023-07-06	21:42:53	21:58:24	906492	60fd58f89d037589c34f5a18	2	1	practice_slash	26	practice_slash	1	stimuli_distractor_diamondtriangles.svg	stimuli_target_trianglerectangles.svg	9	yes	53	1	1122	6	2	antiphase_hc_ios.wav	3	6	2	noise_calib_stim_LEFT.wav	1	5	blb_dichoticlistening_ba-pa.mp3	ba	pa	1	right
6.6.1	and	2023-07-06	21:42:53	21:58:24	906492	60fd58f89d037589c34f5a18	2	1	practice_slash	26	advance_on_keypress_SLASH	2	stimuli_distractor_diamondtriangles.svg	stimuli_target_trianglerectangles.svg	9	yes	57	0	595	6	2	antiphase_hc_ios.wav	3	6	2	noise_calib_stim_LEFT.wav	1	5	blb_dichoticlistening_ba-pa.mp3	ba	pa	1	right
6.6.1	and	2023-07-06	21:42:53	21:58:27	909592	60fd58f89d037589c34f5a18	2	1	practice_slash	26	practice_slash	3	stimuli_distractor_trianglediamonds.svg	stimuli_target_diamondrectangles.svg	12	yes	53	1	889	6	2	antiphase_hc_ios.wav	3	6	2	noise_calib_stim_LEFT.wav	1	5	blb_dichoticlistening_ba-pa.mp3	ba	pa	1	right
6.6.1	and	2023-07-06	21:42:53	21:58:27	909592	60fd58f89d037589c34f5a18	2	1	practice_slash	26	advance_on_keypress_SLASH	4	stimuli_distractor_trianglediamonds.svg	stimuli_target_diamondrectangles.svg	12	yes	57	0	542	6	2	antiphase_hc_ios.wav	3	6	2	noise_calib_stim_LEFT.wav	1	5	blb_dichoticlistening_ba-pa.mp3	ba	pa	1	right
6.6.1	and	2023-07-06	21:42:53	21:58:31	913756	60fd58f89d037589c34f5a18	2	1	practice_slash	26	practice_slash	5	stimuli_distractor_diamondtriangles.svg	stimuli_distractor_diamondtriangles.svg	13	no	0	1	2000	6	2	antiphase_hc_ios.wav	3	6	2	noise_calib_stim_LEFT.wav	1	5	blb_dichoticlistening_ba-pa.mp3	ba	pa	1	right
6.6.1	and	2023-07-06	21:42:53	21:58:31	913756	60fd58f89d037589c34f5a18	2	1	practice_slash	26	advance_on_keypress_SLASH	6	stimuli_distractor_diamondtriangles.svg	stimuli_distractor_diamondtriangles.svg	13	no	57	0	547	6	2	antiphase_hc_ios.wav	3	6	2	noise_calib_stim_LEFT.wav	1	5	blb_dichoticlistening_ba-pa.mp3	ba	pa	1	right
6.6.1	and	2023-07-06	21:42:53	21:58:34	916497	60fd58f89d037589c34f5a18	2	1	practice_slash	26	practice_slash	7	stimuli_target_squarediamonds.svg	stimuli_distractor_diamondtriangles.svg	2	yes	53	1	559	6	2	antiphase_hc_ios.wav	3	6	2	noise_calib_stim_LEFT.wav	1	5	blb_dichoticlistening_ba-pa.mp3	ba	pa	1	right
6.6.1	and	2023-07-06	21:42:53	21:58:34	916497	60fd58f89d037589c34f5a18	2	1	practice_slash	26	advance_on_keypress_SLASH	8	stimuli_target_squarediamonds.svg	stimuli_distractor_diamondtriangles.svg	2	yes	57	0	513	6	2	antiphase_hc_ios.wav	3	6	2	noise_calib_stim_LEFT.wav	1	5	blb_dichoticlistening_ba-pa.mp3	ba	pa	1	right
6.6.1	and	2023-07-06	21:42:53	21:58:36	919167	60fd58f89d037589c34f5a18	2	1	practice_slash	26	practice_slash	9	stimuli_target_rectanglediamonds.svg	stimuli_distractor_diamondtriangles.svg	1	yes	53	1	547	6	2	antiphase_hc_ios.wav	3	6	2	noise_calib_stim_LEFT.wav	1	5	blb_dichoticlistening_ba-pa.mp3	ba	pa	1	right
6.6.1	and	2023-07-06	21:42:53	21:58:36	919167	60fd58f89d037589c34f5a18	2	1	practice_slash	26	advance_on_keypress_SLASH	10	stimuli_target_rectanglediamonds.svg	stimuli_distractor_diamondtriangles.svg	1	yes	57	0	505	6	2	antiphase_hc_ios.wav	3	6	2	noise_calib_stim_LEFT.wav	1	5	blb_dichoticlistening_ba-pa.mp3	ba	pa	1	right
6.6.1	and	2023-07-06	21:42:53	21:58:40	923304	60fd58f89d037589c34f5a18	2	1	practice_slash	26	practice_slash	11	stimuli_distractor_trianglediamonds.svg	stimuli_distractor_diamondtriangles.svg	16	no	0	1	2000	6	2	antiphase_hc_ios.wav	3	6	2	noise_calib_stim_LEFT.wav	1	5	blb_dichoticlistening_ba-pa.mp3	ba	pa	1	right
6.6.1	and	2023-07-06	21:42:53	21:58:40	923304	60fd58f89d037589c34f5a18	2	1	practice_slash	26	advance_on_keypress_SLASH	12	stimuli_distractor_trianglediamonds.svg	stimuli_distractor_diamondtriangles.svg	16	no	57	0	538	6	2	antiphase_hc_ios.wav	3	6	2	noise_calib_stim_LEFT.wav	1	5	blb_dichoticlistening_ba-pa.mp3	ba	pa	1	right
6.6.1	and	2023-07-06	21:42:53	21:58:45	927472	60fd58f89d037589c34f5a18	2	1	practice_slash	26	practice_slash	13	stimuli_distractor_diamondtriangles.svg	stimuli_distractor_trianglediamonds.svg	14	no	0	1	2000	6	2	antiphase_hc_ios.wav	3	6	2	noise_calib_stim_LEFT.wav	1	5	blb_dichoticlistening_ba-pa.mp3	ba	pa	1	right
6.6.1	and	2023-07-06	21:42:53	21:58:45	927472	60fd58f89d037589c34f5a18	2	1	practice_slash	26	advance_on_keypress_SLASH	14	stimuli_distractor_diamondtriangles.svg	stimuli_distractor_trianglediamonds.svg	14	no	57	0	500	6	2	antiphase_hc_ios.wav	3	6	2	noise_calib_stim_LEFT.wav	1	5	blb_dichoticlistening_ba-pa.mp3	ba	pa	1	right
6.6.1	and	2023-07-06	21:42:53	21:58:47	930401	60fd58f89d037589c34f5a18	2	1	practice_slash	26	practice_slash	15	stimuli_distractor_diamondtriangles.svg	stimuli_target_diamondrectangles.svg	8	yes	53	1	796	6	2	antiphase_hc_ios.wav	3	6	2	noise_calib_stim_LEFT.wav	1	5	blb_dichoticlistening_ba-pa.mp3	ba	pa	1	right
6.6.1	and	2023-07-06	21:42:53	21:58:47	930401	60fd58f89d037589c34f5a18	2	1	practice_slash	26	advance_on_keypress_SLASH	16	stimuli_distractor_diamondtriangles.svg	stimuli_target_diamondrectangles.svg	8	yes	57	0	492	6	2	antiphase_hc_ios.wav	3	6	2	noise_calib_stim_LEFT.wav	1	5	blb_dichoticlistening_ba-pa.mp3	ba	pa	1	right
6.6.1	and	2023-07-06	21:42:53	21:58:50	933135	60fd58f89d037589c34f5a18	2	1	practice_slash	26	practice_slash	17	stimuli_target_rectanglediamonds.svg	stimuli_distractor_trianglediamonds.svg	4	yes	53	1	614	6	2	antiphase_hc_ios.wav	3	6	2	noise_calib_stim_LEFT.wav	1	5	blb_dichoticlistening_ba-pa.mp3	ba	pa	1	right
6.6.1	and	2023-07-06	21:42:53	21:58:50	933135	60fd58f89d037589c34f5a18	2	1	practice_slash	26	advance_on_keypress_SLASH	18	stimuli_target_rectanglediamonds.svg	stimuli_distractor_trianglediamonds.svg	4	yes	57	0	456	6	2	antiphase_hc_ios.wav	3	6	2	noise_calib_stim_LEFT.wav	1	5	blb_dichoticlistening_ba-pa.mp3	ba	pa	1	right
6.6.1	and	2023-07-06	21:42:53	21:58:53	935857	60fd58f89d037589c34f5a18	2	1	practice_slash	26	practice_slash	19	stimuli_distractor_trianglediamonds.svg	stimuli_target_squarediamonds.svg	11	yes	53	1	637	6	2	antiphase_hc_ios.wav	3	6	2	noise_calib_stim_LEFT.wav	1	5	blb_dichoticlistening_ba-pa.mp3	ba	pa	1	right
