build	computer.platform	date	time	timestamp	time_elapsed_ms	subject	group	session	blockcode	blocknum	trialcode	trialnum	stimulus_left	stimulus_right	stim_index	target_present	response	correct	latency	headphonecheck_countTestTrials	headphonecheck_index	headphonecheck_testSound	headphonecheck_correctResponse	stereocheck_countTestTrials	stereocheck_index	stereocheck_testSound	stereocheck_correctResponse	DL_index	DL_soundfile	DL_leftSound	DL_rightSound	DL_dualSound	DL_choice
6.6.1	win	2023-06-13	04:17:30	04:18:44	67697	62bc3401dc67c7598dbba4a6	4	1	practice_z	5	practice_z	1	stimuli_distractor_trianglediamonds.svg	stimuli_target_rectanglediamonds.svg	10	yes	0	0	2000	0	0			0	0			1				0	
6.6.1	win	2023-06-13	04:17:30	04:18:44	67697	62bc3401dc67c7598dbba4a6	4	1	practice_z	5	advance_on_keypress_ZEE	2	stimuli_distractor_trianglediamonds.svg	stimuli_target_rectanglediamonds.svg	10	yes	57	0	5910	0	0			0	0			1				0	
6.6.1	win	2023-06-13	04:17:30	04:18:52	75611	62bc3401dc67c7598dbba4a6	4	1	practice_z	5	practice_z	3	stimuli_distractor_trianglediamonds.svg	stimuli_target_squarediamonds.svg	11	yes	44	1	355	0	0			0	0			1				0	
6.6.1	win	2023-06-13	04:17:30	04:18:52	75611	62bc3401dc67c7598dbba4a6	4	1	practice_z	5	advance_on_keypress_ZEE	4	stimuli_distractor_trianglediamonds.svg	stimuli_target_squarediamonds.svg	11	yes	57	0	722	0	0			0	0			1				0	
6.6.1	win	2023-06-13	04:17:30	04:18:54	78283	62bc3401dc67c7598dbba4a6	4	1	practice_z	5	practice_z	5	stimuli_target_squarediamonds.svg	stimuli_distractor_trianglediamonds.svg	5	yes	44	1	307	0	0			0	0			1				0	
6.6.1	win	2023-06-13	04:17:30	04:18:54	78283	62bc3401dc67c7598dbba4a6	4	1	practice_z	5	advance_on_keypress_ZEE	6	stimuli_target_squarediamonds.svg	stimuli_distractor_trianglediamonds.svg	5	yes	57	0	677	0	0			0	0			1				0	
6.6.1	win	2023-06-13	04:17:30	04:18:57	81027	62bc3401dc67c7598dbba4a6	4	1	practice_z	5	practice_z	7	stimuli_target_diamondsquares.svg	stimuli_distractor_trianglediamonds.svg	6	yes	44	1	432	0	0			0	0			1				0	
6.6.1	win	2023-06-13	04:17:30	04:18:57	81027	62bc3401dc67c7598dbba4a6	4	1	practice_z	5	advance_on_keypress_ZEE	8	stimuli_target_diamondsquares.svg	stimuli_distractor_trianglediamonds.svg	6	yes	57	0	132	0	0			0	0			1				0	
6.6.1	win	2023-06-13	04:17:30	04:19:00	83332	62bc3401dc67c7598dbba4a6	4	1	practice_z	5	practice_z	9	stimuli_distractor_diamondtriangles.svg	stimuli_distractor_trianglediamonds.svg	14	no	44	0	517	0	0			0	0			1				0	
6.6.1	win	2023-06-13	04:17:30	04:19:00	83332	62bc3401dc67c7598dbba4a6	4	1	practice_z	5	advance_on_keypress_ZEE	10	stimuli_distractor_diamondtriangles.svg	stimuli_distractor_trianglediamonds.svg	14	no	57	0	190	0	0			0	0			1				0	
6.6.1	win	2023-06-13	04:17:30	04:19:02	85459	62bc3401dc67c7598dbba4a6	4	1	practice_z	5	practice_z	11	stimuli_distractor_trianglediamonds.svg	stimuli_distractor_trianglediamonds.svg	15	no	44	0	293	0	0			0	0			1				0	
6.6.1	win	2023-06-13	04:17:30	04:19:02	85459	62bc3401dc67c7598dbba4a6	4	1	practice_z	5	advance_on_keypress_ZEE	12	stimuli_distractor_trianglediamonds.svg	stimuli_distractor_trianglediamonds.svg	15	no	57	0	47	0	0			0	0			1				0	
6.6.1	win	2023-06-13	04:17:30	04:19:03	87227	62bc3401dc67c7598dbba4a6	4	1	practice_z	5	practice_z	13	stimuli_distractor_diamondtriangles.svg	stimuli_target_trianglerectangles.svg	9	yes	44	1	76	0	0			0	0			1				0	
6.6.1	win	2023-06-13	04:17:30	04:19:03	87227	62bc3401dc67c7598dbba4a6	4	1	practice_z	5	advance_on_keypress_ZEE	14	stimuli_distractor_diamondtriangles.svg	stimuli_target_trianglerectangles.svg	9	yes	57	0	7	0	0			0	0			1				0	
6.6.1	win	2023-06-13	04:17:30	04:19:07	90886	62bc3401dc67c7598dbba4a6	4	1	practice_z	5	practice_z	15	stimuli_distractor_diamondtriangles.svg	stimuli_target_rectangletriangles.svg	7	yes	0	0	2000	0	0			0	0			1				0	
6.6.1	win	2023-06-13	04:17:30	04:19:07	90886	62bc3401dc67c7598dbba4a6	4	1	practice_z	5	advance_on_keypress_ZEE	16	stimuli_distractor_diamondtriangles.svg	stimuli_target_rectangletriangles.svg	7	yes	57	0	24	0	0			0	0			1				0	
6.6.1	win	2023-06-13	04:17:30	04:19:09	93147	62bc3401dc67c7598dbba4a6	4	1	practice_z	5	practice_z	17	stimuli_distractor_trianglediamonds.svg	stimuli_target_diamondrectangles.svg	12	yes	44	1	590	0	0			0	0			1				0	
6.6.1	win	2023-06-13	04:17:30	04:19:09	93147	62bc3401dc67c7598dbba4a6	4	1	practice_z	5	advance_on_keypress_ZEE	18	stimuli_distractor_trianglediamonds.svg	stimuli_target_diamondrectangles.svg	12	yes	57	0	4	0	0			0	0			1				0	
6.6.1	win	2023-06-13	04:17:30	04:19:13	96809	62bc3401dc67c7598dbba4a6	4	1	practice_z	5	practice_z	19	stimuli_distractor_diamondtriangles.svg	stimuli_distractor_diamondtriangles.svg	13	no	0	1	2000	0	0			0	0			1				0	
6.6.1	win	2023-06-13	04:17:30	04:19:13	96809	62bc3401dc67c7598dbba4a6	4	1	practice_z	5	advance_on_keypress_ZEE	20	stimuli_distractor_diamondtriangles.svg	stimuli_distractor_diamondtriangles.svg	13	no	57	0	238	0	0			0	0			1				0	
6.6.1	win	2023-06-13	04:17:30	04:19:16	99355	62bc3401dc67c7598dbba4a6	4	1	practice_z	5	practice_z	21	stimuli_target_rectanglediamonds.svg	stimuli_distractor_trianglediamonds.svg	4	yes	44	1	659	0	0			0	0			1				0	
6.6.1	win	2023-06-13	04:17:30	04:19:16	99355	62bc3401dc67c7598dbba4a6	4	1	practice_z	5	advance_on_keypress_ZEE	22	stimuli_target_rectanglediamonds.svg	stimuli_distractor_trianglediamonds.svg	4	yes	57	0	302	0	0			0	0			1				0	
6.6.1	win	2023-06-13	04:17:30	04:19:19	103298	62bc3401dc67c7598dbba4a6	4	1	practice_z	5	practice_z	23	stimuli_distractor_trianglediamonds.svg	stimuli_distractor_diamondtriangles.svg	16	no	0	1	2000	0	0			0	0			1				0	
6.6.1	win	2023-06-13	04:17:30	04:19:19	103298	62bc3401dc67c7598dbba4a6	4	1	practice_z	5	advance_on_keypress_ZEE	24	stimuli_distractor_trianglediamonds.svg	stimuli_distractor_diamondtriangles.svg	16	no	57	0	60	0	0			0	0			1				0	
6.6.1	win	2023-06-13	04:17:30	04:19:22	105675	62bc3401dc67c7598dbba4a6	4	1	practice_z	5	practice_z	25	stimuli_target_diamondsquares.svg	stimuli_distractor_diamondtriangles.svg	3	yes	44	1	673	0	0			0	0			1				0	
6.6.1	win	2023-06-13	04:17:30	04:19:22	105675	62bc3401dc67c7598dbba4a6	4	1	practice_z	5	advance_on_keypress_ZEE	26	stimuli_target_diamondsquares.svg	stimuli_distractor_diamondtriangles.svg	3	yes	57	0	322	0	0			0	0			1				0	
6.6.1	win	2023-06-13	04:17:30	04:19:26	109638	62bc3401dc67c7598dbba4a6	4	1	practice_z	5	practice_z	27	stimuli_distractor_diamondtriangles.svg	stimuli_target_diamondrectangles.svg	8	yes	0	0	2000	0	0			0	0			1				0	
6.6.1	win	2023-06-13	04:17:30	04:19:26	109638	62bc3401dc67c7598dbba4a6	4	1	practice_z	5	advance_on_keypress_ZEE	28	stimuli_distractor_diamondtriangles.svg	stimuli_target_diamondrectangles.svg	8	yes	57	0	280	0	0			0	0			1				0	
6.6.1	win	2023-06-13	04:17:30	04:19:28	112042	62bc3401dc67c7598dbba4a6	4	1	practice_z	5	practice_z	29	stimuli_target_squarediamonds.svg	stimuli_distractor_diamondtriangles.svg	2	yes	44	1	467	0	0			0	0			1				0	
6.6.1	win	2023-06-13	04:17:30	04:19:28	112042	62bc3401dc67c7598dbba4a6	4	1	practice_z	5	advance_on_keypress_ZEE	30	stimuli_target_squarediamonds.svg	stimuli_distractor_diamondtriangles.svg	2	yes	57	0	325	0	0			0	0			1				0	
6.6.1	win	2023-06-13	04:17:30	04:19:31	114435	62bc3401dc67c7598dbba4a6	4	1	practice_z	5	practice_z	31	stimuli_target_rectanglediamonds.svg	stimuli_distractor_diamondtriangles.svg	1	yes	44	1	423	0	0			0	0			1				0	
6.6.1	win	2023-06-13	04:17:30	04:19:31	114435	62bc3401dc67c7598dbba4a6	4	1	practice_z	5	advance_on_keypress_ZEE	32	stimuli_target_rectanglediamonds.svg	stimuli_distractor_diamondtriangles.svg	1	yes	57	0	164	0	0			0	0			1				0	
6.6.1	win	2023-06-13	04:17:30	04:19:34	118145	62bc3401dc67c7598dbba4a6	4	1	main_z	7	main_z	1	stimuli_distractor_diamondtriangles.svg	stimuli_target_trianglesquares.svg	30	yes	44	1	647	0	0			0	0			1				0	
6.6.1	win	2023-06-13	04:17:30	04:19:34	118145	62bc3401dc67c7598dbba4a6	4	1	main_z	7	advance_on_keypress_ZEE	2	stimuli_distractor_diamondtriangles.svg	stimuli_target_trianglesquares.svg	30	yes	57	0	468	0	0			0	0			1				0	
6.6.1	win	2023-06-13	04:17:30	04:19:37	121249	62bc3401dc67c7598dbba4a6	4	1	main_z	7	main_z	3	stimuli_distractor_trianglediamonds.svg	stimuli_distractor_diamondtriangles.svg	36	no	0	1	2000	0	0			0	0			1				0	
6.6.1	win	2023-06-13	04:17:30	04:19:37	121249	62bc3401dc67c7598dbba4a6	4	1	main_z	7	advance_on_keypress_ZEE	4	stimuli_distractor_trianglediamonds.svg	stimuli_distractor_diamondtriangles.svg	36	no	57	0	380	0	0			0	0			1				0	
6.6.1	win	2023-06-13	04:17:30	04:19:40	124268	62bc3401dc67c7598dbba4a6	4	1	main_z	7	main_z	5	stimuli_distractor_diamondtriangles.svg	stimuli_distractor_diamondtriangles.svg	40	no	0	1	2000	0	0			0	0			1				0	
6.6.1	win	2023-06-13	04:17:30	04:19:40	124268	62bc3401dc67c7598dbba4a6	4	1	main_z	7	advance_on_keypress_ZEE	6	stimuli_distractor_diamondtriangles.svg	stimuli_distractor_diamondtriangles.svg	40	no	57	0	3081	0	0			0	0			1				0	
6.6.1	win	2023-06-13	04:17:30	04:19:46	130007	62bc3401dc67c7598dbba4a6	4	1	main_z	7	main_z	7	stimuli_distractor_diamondtriangles.svg	stimuli_target_squaretriangles.svg	15	yes	0	0	2000	0	0			0	0			1				0	
6.6.1	win	2023-06-13	04:17:30	04:19:46	130007	62bc3401dc67c7598dbba4a6	4	1	main_z	7	advance_on_keypress_ZEE	8	stimuli_distractor_diamondtriangles.svg	stimuli_target_squaretriangles.svg	15	yes	57	0	318	0	0			0	0			1				0	
6.6.1	win	2023-06-13	04:17:30	04:19:48	131520	62bc3401dc67c7598dbba4a6	4	1	main_z	7	main_z	9	stimuli_distractor_trianglediamonds.svg	stimuli_target_rectangletriangles.svg	9	yes	44	1	543	0	0			0	0			1				0	
6.6.1	win	2023-06-13	04:17:30	04:19:48	131520	62bc3401dc67c7598dbba4a6	4	1	main_z	7	advance_on_keypress_ZEE	10	stimuli_distractor_trianglediamonds.svg	stimuli_target_rectangletriangles.svg	9	yes	57	0	280	0	0			0	0			1				0	
6.6.1	win	2023-06-13	04:17:30	04:19:49	132904	62bc3401dc67c7598dbba4a6	4	1	main_z	7	main_z	11	stimuli_target_rectangletriangles.svg	stimuli_distractor_trianglediamonds.svg	1	yes	44	1	476	0	0			0	0			1				0	
6.6.1	win	2023-06-13	04:17:30	04:19:49	132904	62bc3401dc67c7598dbba4a6	4	1	main_z	7	advance_on_keypress_ZEE	12	stimuli_target_rectangletriangles.svg	stimuli_distractor_trianglediamonds.svg	1	yes	57	0	160	0	0			0	0			1				0	
6.6.1	win	2023-06-13	04:17:30	04:19:50	134081	62bc3401dc67c7598dbba4a6	4	1	main_z	7	main_z	13	stimuli_target_diamondsquares.svg	stimuli_distractor_diamondtriangles.svg	24	yes	44	1	384	0	0			0	0			1				0	
6.6.1	win	2023-06-13	04:17:30	04:19:50	134081	62bc3401dc67c7598dbba4a6	4	1	main_z	7	advance_on_keypress_ZEE	14	stimuli_target_diamondsquares.svg	stimuli_distractor_diamondtriangles.svg	24	yes	57	0	151	0	0			0	0			1				0	
6.6.1	win	2023-06-13	04:17:30	04:19:52	135397	62bc3401dc67c7598dbba4a6	4	1	main_z	7	main_z	15	stimuli_target_squaretriangles.svg	stimuli_distractor_diamondtriangles.svg	7	yes	44	1	512	0	0			0	0			1				0	
6.6.1	win	2023-06-13	04:17:30	04:19:52	135397	62bc3401dc67c7598dbba4a6	4	1	main_z	7	advance_on_keypress_ZEE	16	stimuli_target_squaretriangles.svg	stimuli_distractor_diamondtriangles.svg	7	yes	57	0	217	0	0			0	0			1				0	
6.6.1	win	2023-06-13	04:17:30	04:19:53	137040	62bc3401dc67c7598dbba4a6	4	1	main_z	7	main_z	17	stimuli_distractor_diamondtriangles.svg	stimuli_target_diamondrectangles.svg	31	yes	44	1	775	0	0			0	0			1				0	
6.6.1	win	2023-06-13	04:17:30	04:19:53	137040	62bc3401dc67c7598dbba4a6	4	1	main_z	7	advance_on_keypress_ZEE	18	stimuli_distractor_diamondtriangles.svg	stimuli_target_diamondrectangles.svg	31	yes	57	0	374	0	0			0	0			1				0	
6.6.1	win	2023-06-13	04:17:30	04:19:56	140051	62bc3401dc67c7598dbba4a6	4	1	main_z	7	main_z	19	stimuli_distractor_diamondtriangles.svg	stimuli_distractor_trianglediamonds.svg	37	no	0	1	2000	0	0			0	0			1				0	
6.6.1	win	2023-06-13	04:17:30	04:19:56	140051	62bc3401dc67c7598dbba4a6	4	1	main_z	7	advance_on_keypress_ZEE	20	stimuli_distractor_diamondtriangles.svg	stimuli_distractor_trianglediamonds.svg	37	no	57	0	27	0	0			0	0			1				0	
6.6.1	win	2023-06-13	04:17:30	04:19:57	141112	62bc3401dc67c7598dbba4a6	4	1	main_z	7	main_z	21	stimuli_distractor_trianglediamonds.svg	stimuli_target_rectanglediamonds.svg	10	yes	44	1	393	0	0			0	0			1				0	
6.6.1	win	2023-06-13	04:17:30	04:19:57	141112	62bc3401dc67c7598dbba4a6	4	1	main_z	7	advance_on_keypress_ZEE	22	stimuli_distractor_trianglediamonds.svg	stimuli_target_rectanglediamonds.svg	10	yes	57	0	232	0	0			0	0			1				0	
6.6.1	win	2023-06-13	04:17:30	04:20:00	143988	62bc3401dc67c7598dbba4a6	4	1	main_z	7	main_z	23	stimuli_distractor_trianglediamonds.svg	stimuli_distractor_trianglediamonds.svg	34	no	0	1	2000	0	0			0	0			1				0	
6.6.1	win	2023-06-13	04:17:30	04:20:00	143988	62bc3401dc67c7598dbba4a6	4	1	main_z	7	advance_on_keypress_ZEE	24	stimuli_distractor_trianglediamonds.svg	stimuli_distractor_trianglediamonds.svg	34	no	57	0	289	0	0			0	0			1				0	
6.6.1	win	2023-06-13	04:17:30	04:20:03	146924	62bc3401dc67c7598dbba4a6	4	1	main_z	7	main_z	25	stimuli_target_squarediamonds.svg	stimuli_distractor_diamondtriangles.svg	8	yes	0	0	2000	0	0			0	0			1				0	
6.6.1	win	2023-06-13	04:17:30	04:20:03	146924	62bc3401dc67c7598dbba4a6	4	1	main_z	7	advance_on_keypress_ZEE	26	stimuli_target_squarediamonds.svg	stimuli_distractor_diamondtriangles.svg	8	yes	57	0	321	0	0			0	0			1				0	
6.6.1	win	2023-06-13	04:17:30	04:20:05	148376	62bc3401dc67c7598dbba4a6	4	1	main_z	7	main_z	27	stimuli_distractor_diamondtriangles.svg	stimuli_target_trianglerectangles.svg	29	yes	44	1	483	0	0			0	0			1				0	
6.6.1	win	2023-06-13	04:17:30	04:20:05	148376	62bc3401dc67c7598dbba4a6	4	1	main_z	7	advance_on_keypress_ZEE	28	stimuli_distractor_diamondtriangles.svg	stimuli_target_trianglerectangles.svg	29	yes	57	0	230	0	0			0	0			1				0	
6.6.1	win	2023-06-13	04:17:30	04:20:06	149672	62bc3401dc67c7598dbba4a6	4	1	main_z	7	main_z	29	stimuli_target_rectanglediamonds.svg	stimuli_distractor_diamondtriangles.svg	6	yes	44	1	428	0	0			0	0			1				0	
6.6.1	win	2023-06-13	04:17:30	04:20:06	149672	62bc3401dc67c7598dbba4a6	4	1	main_z	7	advance_on_keypress_ZEE	30	stimuli_target_rectanglediamonds.svg	stimuli_distractor_diamondtriangles.svg	6	yes	57	0	225	0	0			0	0			1				0	
6.6.1	win	2023-06-13	04:17:30	04:20:07	151008	62bc3401dc67c7598dbba4a6	4	1	main_z	7	main_z	31	stimuli_target_diamondsquares.svg	stimuli_distractor_trianglediamonds.svg	20	yes	44	1	479	0	0			0	0			1				0	
6.6.1	win	2023-06-13	04:17:30	04:20:07	151008	62bc3401dc67c7598dbba4a6	4	1	main_z	7	advance_on_keypress_ZEE	32	stimuli_target_diamondsquares.svg	stimuli_distractor_trianglediamonds.svg	20	yes	57	0	234	0	0			0	0			1				0	
6.6.1	win	2023-06-13	04:17:30	04:20:09	152352	62bc3401dc67c7598dbba4a6	4	1	main_z	7	main_z	33	stimuli_target_trianglerectangles.svg	stimuli_distractor_trianglediamonds.svg	17	yes	44	1	472	0	0			0	0			1				0	
6.6.1	win	2023-06-13	04:17:30	04:20:09	152352	62bc3401dc67c7598dbba4a6	4	1	main_z	7	advance_on_keypress_ZEE	34	stimuli_target_trianglerectangles.svg	stimuli_distractor_trianglediamonds.svg	17	yes	57	0	250	0	0			0	0			1				0	
6.6.1	win	2023-06-13	04:17:30	04:20:10	153632	62bc3401dc67c7598dbba4a6	4	1	main_z	7	main_z	35	stimuli_distractor_trianglediamonds.svg	stimuli_target_trianglesquares.svg	26	yes	44	1	384	0	0			0	0			1				0	
6.6.1	win	2023-06-13	04:17:30	04:20:10	153632	62bc3401dc67c7598dbba4a6	4	1	main_z	7	advance_on_keypress_ZEE	36	stimuli_distractor_trianglediamonds.svg	stimuli_target_trianglesquares.svg	26	yes	57	0	374	0	0			0	0			1				0	
6.6.1	win	2023-06-13	04:17:30	04:20:11	155128	62bc3401dc67c7598dbba4a6	4	1	main_z	7	main_z	37	stimuli_target_squarediamonds.svg	stimuli_distractor_trianglediamonds.svg	4	yes	44	1	477	0	0			0	0			1				0	
6.6.1	win	2023-06-13	04:17:30	04:20:11	155128	62bc3401dc67c7598dbba4a6	4	1	main_z	7	advance_on_keypress_ZEE	38	stimuli_target_squarediamonds.svg	stimuli_distractor_trianglediamonds.svg	4	yes	57	0	217	0	0			0	0			1				0	
6.6.1	win	2023-06-13	04:17:30	04:20:14	157985	62bc3401dc67c7598dbba4a6	4	1	main_z	7	main_z	39	stimuli_distractor_trianglediamonds.svg	stimuli_target_squarediamonds.svg	12	yes	0	0	2000	0	0			0	0			1				0	
6.6.1	win	2023-06-13	04:17:30	04:20:14	157985	62bc3401dc67c7598dbba4a6	4	1	main_z	7	advance_on_keypress_ZEE	40	stimuli_distractor_trianglediamonds.svg	stimuli_target_squarediamonds.svg	12	yes	57	0	387	0	0			0	0			1				0	
6.6.1	win	2023-06-13	04:17:30	04:20:17	161021	62bc3401dc67c7598dbba4a6	4	1	main_z	7	main_z	41	stimuli_distractor_diamondtriangles.svg	stimuli_distractor_trianglediamonds.svg	38	no	0	1	2000	0	0			0	0			1				0	
6.6.1	win	2023-06-13	04:17:30	04:20:17	161021	62bc3401dc67c7598dbba4a6	4	1	main_z	7	advance_on_keypress_ZEE	42	stimuli_distractor_diamondtriangles.svg	stimuli_distractor_trianglediamonds.svg	38	no	57	0	207	0	0			0	0			1				0	
6.6.1	win	2023-06-13	04:17:30	04:20:20	163874	62bc3401dc67c7598dbba4a6	4	1	main_z	7	main_z	43	stimuli_distractor_trianglediamonds.svg	stimuli_target_diamondsquares.svg	28	yes	0	0	2000	0	0			0	0			1				0	
6.6.1	win	2023-06-13	04:17:30	04:20:20	163874	62bc3401dc67c7598dbba4a6	4	1	main_z	7	advance_on_keypress_ZEE	44	stimuli_distractor_trianglediamonds.svg	stimuli_target_diamondsquares.svg	28	yes	57	0	378	0	0			0	0			1				0	
6.6.1	win	2023-06-13	04:17:30	04:20:21	165312	62bc3401dc67c7598dbba4a6	4	1	main_z	7	main_z	45	stimuli_distractor_diamondtriangles.svg	stimuli_target_rectanglediamonds.svg	14	yes	44	1	418	0	0			0	0			1				0	
6.6.1	win	2023-06-13	04:17:30	04:20:21	165312	62bc3401dc67c7598dbba4a6	4	1	main_z	7	advance_on_keypress_ZEE	46	stimuli_distractor_diamondtriangles.svg	stimuli_target_rectanglediamonds.svg	14	yes	57	0	208	0	0			0	0			1				0	
6.6.1	win	2023-06-13	04:17:30	04:20:23	166552	62bc3401dc67c7598dbba4a6	4	1	main_z	7	main_z	47	stimuli_target_diamondrectangles.svg	stimuli_distractor_trianglediamonds.svg	19	yes	44	1	390	0	0			0	0			1				0	
6.6.1	win	2023-06-13	04:17:30	04:20:23	166552	62bc3401dc67c7598dbba4a6	4	1	main_z	7	advance_on_keypress_ZEE	48	stimuli_target_diamondrectangles.svg	stimuli_distractor_trianglediamonds.svg	19	yes	57	0	229	0	0			0	0			1				0	
6.6.1	win	2023-06-13	04:17:30	04:20:26	169413	62bc3401dc67c7598dbba4a6	4	1	main_z	7	main_z	49	stimuli_distractor_diamondtriangles.svg	stimuli_distractor_diamondtriangles.svg	39	no	0	1	2000	0	0			0	0			1				0	
6.6.1	win	2023-06-13	04:17:30	04:20:26	169413	62bc3401dc67c7598dbba4a6	4	1	main_z	7	advance_on_keypress_ZEE	50	stimuli_distractor_diamondtriangles.svg	stimuli_distractor_diamondtriangles.svg	39	no	57	0	0	0	0			0	0			1				0	
6.6.1	win	2023-06-13	04:17:30	04:20:27	170535	62bc3401dc67c7598dbba4a6	4	1	main_z	7	main_z	51	stimuli_distractor_trianglediamonds.svg	stimuli_target_diamondrectangles.svg	27	yes	44	1	453	0	0			0	0			1				0	
6.6.1	win	2023-06-13	04:17:30	04:20:27	170535	62bc3401dc67c7598dbba4a6	4	1	main_z	7	advance_on_keypress_ZEE	52	stimuli_distractor_trianglediamonds.svg	stimuli_target_diamondrectangles.svg	27	yes	57	0	178	0	0			0	0			1				0	
6.6.1	win	2023-06-13	04:17:30	04:20:28	171759	62bc3401dc67c7598dbba4a6	4	1	main_z	7	main_z	53	stimuli_target_trianglesquares.svg	stimuli_distractor_diamondtriangles.svg	22	yes	44	1	410	0	0			0	0			1				0	
6.6.1	win	2023-06-13	04:17:30	04:20:28	171759	62bc3401dc67c7598dbba4a6	4	1	main_z	7	advance_on_keypress_ZEE	54	stimuli_target_trianglesquares.svg	stimuli_distractor_diamondtriangles.svg	22	yes	57	0	216	0	0			0	0			1				0	
6.6.1	win	2023-06-13	04:17:30	04:20:29	172959	62bc3401dc67c7598dbba4a6	4	1	main_z	7	main_z	55	stimuli_target_rectanglediamonds.svg	stimuli_distractor_trianglediamonds.svg	2	yes	44	1	342	0	0			0	0			1				0	
6.6.1	win	2023-06-13	04:17:30	04:20:29	172959	62bc3401dc67c7598dbba4a6	4	1	main_z	7	advance_on_keypress_ZEE	56	stimuli_target_rectanglediamonds.svg	stimuli_distractor_trianglediamonds.svg	2	yes	57	0	207	0	0			0	0			1				0	
6.6.1	win	2023-06-13	04:17:30	04:20:32	175802	62bc3401dc67c7598dbba4a6	4	1	main_z	7	main_z	57	stimuli_distractor_trianglediamonds.svg	stimuli_distractor_diamondtriangles.svg	35	no	0	1	2000	0	0			0	0			1				0	
6.6.1	win	2023-06-13	04:17:30	04:20:32	175802	62bc3401dc67c7598dbba4a6	4	1	main_z	7	advance_on_keypress_ZEE	58	stimuli_distractor_trianglediamonds.svg	stimuli_distractor_diamondtriangles.svg	35	no	57	0	466	0	0			0	0			1				0	
6.6.1	win	2023-06-13	04:17:30	04:20:35	178922	62bc3401dc67c7598dbba4a6	4	1	main_z	7	main_z	59	stimuli_distractor_diamondtriangles.svg	stimuli_target_diamondsquares.svg	32	yes	0	0	2000	0	0			0	0			1				0	
6.6.1	win	2023-06-13	04:17:30	04:20:35	178922	62bc3401dc67c7598dbba4a6	4	1	main_z	7	advance_on_keypress_ZEE	60	stimuli_distractor_diamondtriangles.svg	stimuli_target_diamondsquares.svg	32	yes	57	0	506	0	0			0	0			1				0	
6.6.1	win	2023-06-13	04:17:30	04:20:38	182075	62bc3401dc67c7598dbba4a6	4	1	main_z	7	main_z	61	stimuli_distractor_trianglediamonds.svg	stimuli_target_squaretriangles.svg	11	yes	0	0	2000	0	0			0	0			1				0	
6.6.1	win	2023-06-13	04:17:30	04:20:38	182075	62bc3401dc67c7598dbba4a6	4	1	main_z	7	advance_on_keypress_ZEE	62	stimuli_distractor_trianglediamonds.svg	stimuli_target_squaretriangles.svg	11	yes	57	0	441	0	0			0	0			1				0	
6.6.1	win	2023-06-13	04:17:30	04:20:41	185161	62bc3401dc67c7598dbba4a6	4	1	main_z	7	main_z	63	stimuli_distractor_trianglediamonds.svg	stimuli_distractor_trianglediamonds.svg	33	no	0	1	2000	0	0			0	0			1				0	
6.6.1	win	2023-06-13	04:17:30	04:20:41	185161	62bc3401dc67c7598dbba4a6	4	1	main_z	7	advance_on_keypress_ZEE	64	stimuli_distractor_trianglediamonds.svg	stimuli_distractor_trianglediamonds.svg	33	no	57	0	187	0	0			0	0			1				0	
6.6.1	win	2023-06-13	04:17:30	04:20:44	187998	62bc3401dc67c7598dbba4a6	4	1	main_z	7	main_z	65	stimuli_target_diamondrectangles.svg	stimuli_distractor_diamondtriangles.svg	23	yes	0	0	2000	0	0			0	0			1				0	
6.6.1	win	2023-06-13	04:17:30	04:20:44	187998	62bc3401dc67c7598dbba4a6	4	1	main_z	7	advance_on_keypress_ZEE	66	stimuli_target_diamondrectangles.svg	stimuli_distractor_diamondtriangles.svg	23	yes	57	0	23	0	0			0	0			1				0	
6.6.1	win	2023-06-13	04:17:30	04:20:45	189087	62bc3401dc67c7598dbba4a6	4	1	main_z	7	main_z	67	stimuli_target_trianglesquares.svg	stimuli_distractor_trianglediamonds.svg	18	yes	44	1	421	0	0			0	0			1				0	
6.6.1	win	2023-06-13	04:17:30	04:20:45	189087	62bc3401dc67c7598dbba4a6	4	1	main_z	7	advance_on_keypress_ZEE	68	stimuli_target_trianglesquares.svg	stimuli_distractor_trianglediamonds.svg	18	yes	57	0	234	0	0			0	0			1				0	
6.6.1	win	2023-06-13	04:17:30	04:20:47	190359	62bc3401dc67c7598dbba4a6	4	1	main_z	7	main_z	69	stimuli_target_trianglerectangles.svg	stimuli_distractor_diamondtriangles.svg	21	yes	44	1	391	0	0			0	0			1				0	
6.6.1	win	2023-06-13	04:17:30	04:20:47	190359	62bc3401dc67c7598dbba4a6	4	1	main_z	7	advance_on_keypress_ZEE	70	stimuli_target_trianglerectangles.svg	stimuli_distractor_diamondtriangles.svg	21	yes	57	0	174	0	0			0	0			1				0	
6.6.1	win	2023-06-13	04:17:30	04:20:48	191647	62bc3401dc67c7598dbba4a6	4	1	main_z	7	main_z	71	stimuli_distractor_trianglediamonds.svg	stimuli_target_trianglerectangles.svg	25	yes	44	1	478	0	0			0	0			1				0	
6.6.1	win	2023-06-13	04:17:30	04:20:48	191647	62bc3401dc67c7598dbba4a6	4	1	main_z	7	advance_on_keypress_ZEE	72	stimuli_distractor_trianglediamonds.svg	stimuli_target_trianglerectangles.svg	25	yes	57	0	178	0	0			0	0			1				0	
6.6.1	win	2023-06-13	04:17:30	04:20:51	194454	62bc3401dc67c7598dbba4a6	4	1	main_z	7	main_z	73	stimuli_target_squaretriangles.svg	stimuli_distractor_trianglediamonds.svg	3	yes	0	0	2000	0	0			0	0			1				0	
6.6.1	win	2023-06-13	04:17:30	04:20:51	194454	62bc3401dc67c7598dbba4a6	4	1	main_z	7	advance_on_keypress_ZEE	74	stimuli_target_squaretriangles.svg	stimuli_distractor_trianglediamonds.svg	3	yes	57	0	318	0	0			0	0			1				0	
6.6.1	win	2023-06-13	04:17:30	04:20:54	197423	62bc3401dc67c7598dbba4a6	4	1	main_z	7	main_z	75	stimuli_distractor_diamondtriangles.svg	stimuli_target_rectangletriangles.svg	13	yes	0	0	2000	0	0			0	0			1				0	
6.6.1	win	2023-06-13	04:17:30	04:20:54	197423	62bc3401dc67c7598dbba4a6	4	1	main_z	7	advance_on_keypress_ZEE	76	stimuli_distractor_diamondtriangles.svg	stimuli_target_rectangletriangles.svg	13	yes	57	0	357	0	0			0	0			1				0	
6.6.1	win	2023-06-13	04:17:30	04:20:57	200426	62bc3401dc67c7598dbba4a6	4	1	main_z	7	main_z	77	stimuli_target_rectangletriangles.svg	stimuli_distractor_diamondtriangles.svg	5	yes	0	0	2000	0	0			0	0			1				0	
6.6.1	win	2023-06-13	04:17:30	04:20:57	200426	62bc3401dc67c7598dbba4a6	4	1	main_z	7	advance_on_keypress_ZEE	78	stimuli_target_rectangletriangles.svg	stimuli_distractor_diamondtriangles.svg	5	yes	57	0	338	0	0			0	0			1				0	
6.6.1	win	2023-06-13	04:17:30	04:21:00	203412	62bc3401dc67c7598dbba4a6	4	1	main_z	7	main_z	79	stimuli_distractor_diamondtriangles.svg	stimuli_target_squarediamonds.svg	16	yes	0	0	2000	0	0			0	0			1				0	
6.6.1	win	2023-06-13	04:17:30	04:21:00	203412	62bc3401dc67c7598dbba4a6	4	1	main_z	7	advance_on_keypress_ZEE	80	stimuli_distractor_diamondtriangles.svg	stimuli_target_squarediamonds.svg	16	yes	57	0	255	0	0			0	0			1				0	
6.6.1	win	2023-06-13	04:17:30	04:21:01	204999	62bc3401dc67c7598dbba4a6	4	1	main_z	7	main_z	81	stimuli_distractor_trianglediamonds.svg	stimuli_target_trianglesquares.svg	26	yes	44	1	683	0	0			0	0			1				0	
6.6.1	win	2023-06-13	04:17:30	04:21:01	204999	62bc3401dc67c7598dbba4a6	4	1	main_z	7	advance_on_keypress_ZEE	82	stimuli_distractor_trianglediamonds.svg	stimuli_target_trianglesquares.svg	26	yes	57	0	422	0	0			0	0			1				0	
6.6.1	win	2023-06-13	04:17:30	04:21:03	206487	62bc3401dc67c7598dbba4a6	4	1	main_z	7	main_z	83	stimuli_distractor_trianglediamonds.svg	stimuli_target_squaretriangles.svg	11	yes	44	1	419	0	0			0	0			1				0	
6.6.1	win	2023-06-13	04:17:30	04:21:03	206487	62bc3401dc67c7598dbba4a6	4	1	main_z	7	advance_on_keypress_ZEE	84	stimuli_distractor_trianglediamonds.svg	stimuli_target_squaretriangles.svg	11	yes	57	0	265	0	0			0	0			1				0	
6.6.1	win	2023-06-13	04:17:30	04:21:04	207847	62bc3401dc67c7598dbba4a6	4	1	main_z	7	main_z	85	stimuli_target_rectangletriangles.svg	stimuli_distractor_diamondtriangles.svg	5	yes	44	1	445	0	0			0	0			1				0	
6.6.1	win	2023-06-13	04:17:30	04:21:04	207847	62bc3401dc67c7598dbba4a6	4	1	main_z	7	advance_on_keypress_ZEE	86	stimuli_target_rectangletriangles.svg	stimuli_distractor_diamondtriangles.svg	5	yes	57	0	226	0	0			0	0			1				0	
6.6.1	win	2023-06-13	04:17:30	04:21:05	209151	62bc3401dc67c7598dbba4a6	4	1	main_z	7	main_z	87	stimuli_target_squarediamonds.svg	stimuli_distractor_diamondtriangles.svg	8	yes	44	1	447	0	0			0	0			1				0	
6.6.1	win	2023-06-13	04:17:30	04:21:05	209151	62bc3401dc67c7598dbba4a6	4	1	main_z	7	advance_on_keypress_ZEE	88	stimuli_target_squarediamonds.svg	stimuli_distractor_diamondtriangles.svg	8	yes	57	0	204	0	0			0	0			1				0	
6.6.1	win	2023-06-13	04:17:30	04:21:08	211988	62bc3401dc67c7598dbba4a6	4	1	main_z	7	main_z	89	stimuli_distractor_diamondtriangles.svg	stimuli_target_squarediamonds.svg	16	yes	0	0	2000	0	0			0	0			1				0	
6.6.1	win	2023-06-13	04:17:30	04:21:08	211988	62bc3401dc67c7598dbba4a6	4	1	main_z	7	advance_on_keypress_ZEE	90	stimuli_distractor_diamondtriangles.svg	stimuli_target_squarediamonds.svg	16	yes	57	0	415	0	0			0	0			1				0	
6.6.1	win	2023-06-13	04:17:30	04:21:10	213487	62bc3401dc67c7598dbba4a6	4	1	main_z	7	main_z	91	stimuli_distractor_diamondtriangles.svg	stimuli_target_squaretriangles.svg	15	yes	44	1	429	0	0			0	0			1				0	
6.6.1	win	2023-06-13	04:17:30	04:21:10	213487	62bc3401dc67c7598dbba4a6	4	1	main_z	7	advance_on_keypress_ZEE	92	stimuli_distractor_diamondtriangles.svg	stimuli_target_squaretriangles.svg	15	yes	57	0	227	0	0			0	0			1				0	
6.6.1	win	2023-06-13	04:17:30	04:21:11	214807	62bc3401dc67c7598dbba4a6	4	1	main_z	7	main_z	93	stimuli_distractor_diamondtriangles.svg	stimuli_distractor_trianglediamonds.svg	38	no	44	0	464	0	0			0	0			1				0	
6.6.1	win	2023-06-13	04:17:30	04:21:11	214807	62bc3401dc67c7598dbba4a6	4	1	main_z	7	advance_on_keypress_ZEE	94	stimuli_distractor_diamondtriangles.svg	stimuli_distractor_trianglediamonds.svg	38	no	57	0	188	0	0			0	0			1				0	
6.6.1	win	2023-06-13	04:17:30	04:21:14	217643	62bc3401dc67c7598dbba4a6	4	1	main_z	7	main_z	95	stimuli_distractor_trianglediamonds.svg	stimuli_target_diamondrectangles.svg	27	yes	0	0	2000	0	0			0	0			1				0	
6.6.1	win	2023-06-13	04:17:30	04:21:14	217643	62bc3401dc67c7598dbba4a6	4	1	main_z	7	advance_on_keypress_ZEE	96	stimuli_distractor_trianglediamonds.svg	stimuli_target_diamondrectangles.svg	27	yes	57	0	248	0	0			0	0			1				0	
6.6.1	win	2023-06-13	04:17:30	04:21:17	220547	62bc3401dc67c7598dbba4a6	4	1	main_z	7	main_z	97	stimuli_target_diamondrectangles.svg	stimuli_distractor_diamondtriangles.svg	23	yes	0	0	2000	0	0			0	0			1				0	
6.6.1	win	2023-06-13	04:17:30	04:21:17	220547	62bc3401dc67c7598dbba4a6	4	1	main_z	7	advance_on_keypress_ZEE	98	stimuli_target_diamondrectangles.svg	stimuli_distractor_diamondtriangles.svg	23	yes	57	0	57	0	0			0	0			1				0	
6.6.1	win	2023-06-13	04:17:30	04:21:18	221765	62bc3401dc67c7598dbba4a6	4	1	main_z	7	main_z	99	stimuli_target_trianglerectangles.svg	stimuli_distractor_diamondtriangles.svg	21	yes	44	1	503	0	0			0	0			1				0	
6.6.1	win	2023-06-13	04:17:30	04:21:18	221765	62bc3401dc67c7598dbba4a6	4	1	main_z	7	advance_on_keypress_ZEE	100	stimuli_target_trianglerectangles.svg	stimuli_distractor_diamondtriangles.svg	21	yes	57	0	159	0	0			0	0			1				0	
6.6.1	win	2023-06-13	04:17:30	04:21:21	224567	62bc3401dc67c7598dbba4a6	4	1	main_z	7	main_z	101	stimuli_distractor_diamondtriangles.svg	stimuli_distractor_trianglediamonds.svg	37	no	0	1	2000	0	0			0	0			1				0	
6.6.1	win	2023-06-13	04:17:30	04:21:21	224567	62bc3401dc67c7598dbba4a6	4	1	main_z	7	advance_on_keypress_ZEE	102	stimuli_distractor_diamondtriangles.svg	stimuli_distractor_trianglediamonds.svg	37	no	57	0	364	0	0			0	0			1				0	
6.6.1	win	2023-06-13	04:17:30	04:21:24	227586	62bc3401dc67c7598dbba4a6	4	1	main_z	7	main_z	103	stimuli_distractor_diamondtriangles.svg	stimuli_target_trianglerectangles.svg	29	yes	0	0	2000	0	0			0	0			1				0	
6.6.1	win	2023-06-13	04:17:30	04:21:24	227586	62bc3401dc67c7598dbba4a6	4	1	main_z	7	advance_on_keypress_ZEE	104	stimuli_distractor_diamondtriangles.svg	stimuli_target_trianglerectangles.svg	29	yes	57	0	521	0	0			0	0			1				0	
6.6.1	win	2023-06-13	04:17:30	04:21:27	230756	62bc3401dc67c7598dbba4a6	4	1	main_z	7	main_z	105	stimuli_distractor_trianglediamonds.svg	stimuli_distractor_diamondtriangles.svg	36	no	0	1	2000	0	0			0	0			1				0	
6.6.1	win	2023-06-13	04:17:30	04:21:27	230756	62bc3401dc67c7598dbba4a6	4	1	main_z	7	advance_on_keypress_ZEE	106	stimuli_distractor_trianglediamonds.svg	stimuli_distractor_diamondtriangles.svg	36	no	57	0	95	0	0			0	0			1				0	
6.6.1	win	2023-06-13	04:17:30	04:21:30	233492	62bc3401dc67c7598dbba4a6	4	1	main_z	7	main_z	107	stimuli_distractor_diamondtriangles.svg	stimuli_target_rectanglediamonds.svg	14	yes	0	0	2000	0	0			0	0			1				0	
6.6.1	win	2023-06-13	04:17:30	04:21:30	233492	62bc3401dc67c7598dbba4a6	4	1	main_z	7	advance_on_keypress_ZEE	108	stimuli_distractor_diamondtriangles.svg	stimuli_target_rectanglediamonds.svg	14	yes	57	0	143	0	0			0	0			1				0	
6.6.1	win	2023-06-13	04:17:30	04:21:31	234726	62bc3401dc67c7598dbba4a6	4	1	main_z	7	main_z	109	stimuli_target_squaretriangles.svg	stimuli_distractor_diamondtriangles.svg	7	yes	44	1	448	0	0			0	0			1				0	
6.6.1	win	2023-06-13	04:17:30	04:21:31	234726	62bc3401dc67c7598dbba4a6	4	1	main_z	7	advance_on_keypress_ZEE	110	stimuli_target_squaretriangles.svg	stimuli_distractor_diamondtriangles.svg	7	yes	57	0	172	0	0			0	0			1				0	
6.6.1	win	2023-06-13	04:17:30	04:21:32	235982	62bc3401dc67c7598dbba4a6	4	1	main_z	7	main_z	111	stimuli_target_trianglesquares.svg	stimuli_distractor_trianglediamonds.svg	18	yes	44	1	436	0	0			0	0			1				0	
6.6.1	win	2023-06-13	04:17:30	04:21:32	235982	62bc3401dc67c7598dbba4a6	4	1	main_z	7	advance_on_keypress_ZEE	112	stimuli_target_trianglesquares.svg	stimuli_distractor_trianglediamonds.svg	18	yes	57	0	153	0	0			0	0			1				0	
6.6.1	win	2023-06-13	04:17:30	04:21:35	238780	62bc3401dc67c7598dbba4a6	4	1	main_z	7	main_z	113	stimuli_distractor_trianglediamonds.svg	stimuli_target_diamondsquares.svg	28	yes	0	0	2000	0	0			0	0			1				0	
6.6.1	win	2023-06-13	04:17:30	04:21:35	238780	62bc3401dc67c7598dbba4a6	4	1	main_z	7	advance_on_keypress_ZEE	114	stimuli_distractor_trianglediamonds.svg	stimuli_target_diamondsquares.svg	28	yes	57	0	751	0	0			0	0			1				0	
6.6.1	win	2023-06-13	04:17:30	04:21:38	242184	62bc3401dc67c7598dbba4a6	4	1	main_z	7	main_z	115	stimuli_distractor_trianglediamonds.svg	stimuli_target_rectangletriangles.svg	9	yes	0	0	2000	0	0			0	0			1				0	
6.6.1	win	2023-06-13	04:17:30	04:21:38	242184	62bc3401dc67c7598dbba4a6	4	1	main_z	7	advance_on_keypress_ZEE	116	stimuli_distractor_trianglediamonds.svg	stimuli_target_rectangletriangles.svg	9	yes	57	0	235	0	0			0	0			1				0	
6.6.1	win	2023-06-13	04:17:30	04:21:40	243542	62bc3401dc67c7598dbba4a6	4	1	main_z	7	main_z	117	stimuli_distractor_diamondtriangles.svg	stimuli_target_rectangletriangles.svg	13	yes	44	1	472	0	0			0	0			1				0	
6.6.1	win	2023-06-13	04:17:30	04:21:40	243542	62bc3401dc67c7598dbba4a6	4	1	main_z	7	advance_on_keypress_ZEE	118	stimuli_distractor_diamondtriangles.svg	stimuli_target_rectangletriangles.svg	13	yes	57	0	204	0	0			0	0			1				0	
6.6.1	win	2023-06-13	04:17:30	04:21:41	244770	62bc3401dc67c7598dbba4a6	4	1	main_z	7	main_z	119	stimuli_distractor_trianglediamonds.svg	stimuli_target_rectanglediamonds.svg	10	yes	44	1	378	0	0			0	0			1				0	
6.6.1	win	2023-06-13	04:17:30	04:21:41	244770	62bc3401dc67c7598dbba4a6	4	1	main_z	7	advance_on_keypress_ZEE	120	stimuli_distractor_trianglediamonds.svg	stimuli_target_rectanglediamonds.svg	10	yes	57	0	209	0	0			0	0			1				0	
6.6.1	win	2023-06-13	04:17:30	04:21:42	246038	62bc3401dc67c7598dbba4a6	4	1	main_z	7	main_z	121	stimuli_distractor_diamondtriangles.svg	stimuli_distractor_diamondtriangles.svg	40	no	44	0	416	0	0			0	0			1				0	
6.6.1	win	2023-06-13	04:17:30	04:21:42	246038	62bc3401dc67c7598dbba4a6	4	1	main_z	7	advance_on_keypress_ZEE	122	stimuli_distractor_diamondtriangles.svg	stimuli_distractor_diamondtriangles.svg	40	no	57	0	158	0	0			0	0			1				0	
6.6.1	win	2023-06-13	04:17:30	04:21:45	248840	62bc3401dc67c7598dbba4a6	4	1	main_z	7	main_z	123	stimuli_target_trianglesquares.svg	stimuli_distractor_diamondtriangles.svg	22	yes	0	0	2000	0	0			0	0			1				0	
6.6.1	win	2023-06-13	04:17:30	04:21:45	248840	62bc3401dc67c7598dbba4a6	4	1	main_z	7	advance_on_keypress_ZEE	124	stimuli_target_trianglesquares.svg	stimuli_distractor_diamondtriangles.svg	22	yes	57	0	43	0	0			0	0			1				0	
6.6.1	win	2023-06-13	04:17:30	04:21:48	251526	62bc3401dc67c7598dbba4a6	4	1	main_z	7	main_z	125	stimuli_distractor_diamondtriangles.svg	stimuli_target_trianglesquares.svg	30	yes	0	0	2000	0	0			0	0			1				0	
6.6.1	win	2023-06-13	04:17:30	04:21:48	251526	62bc3401dc67c7598dbba4a6	4	1	main_z	7	advance_on_keypress_ZEE	126	stimuli_distractor_diamondtriangles.svg	stimuli_target_trianglesquares.svg	30	yes	57	0	0	0	0			0	0			1				0	
6.6.1	win	2023-06-13	04:17:30	04:21:49	252598	62bc3401dc67c7598dbba4a6	4	1	main_z	7	main_z	127	stimuli_target_squaretriangles.svg	stimuli_distractor_trianglediamonds.svg	3	yes	44	1	402	0	0			0	0			1				0	
6.6.1	win	2023-06-13	04:17:30	04:21:49	252598	62bc3401dc67c7598dbba4a6	4	1	main_z	7	advance_on_keypress_ZEE	128	stimuli_target_squaretriangles.svg	stimuli_distractor_trianglediamonds.svg	3	yes	57	0	184	0	0			0	0			1				0	
6.6.1	win	2023-06-13	04:17:30	04:21:50	253774	62bc3401dc67c7598dbba4a6	4	1	main_z	7	main_z	129	stimuli_target_squarediamonds.svg	stimuli_distractor_trianglediamonds.svg	4	yes	44	1	343	0	0			0	0			1				0	
6.6.1	win	2023-06-13	04:17:30	04:21:50	253774	62bc3401dc67c7598dbba4a6	4	1	main_z	7	advance_on_keypress_ZEE	130	stimuli_target_squarediamonds.svg	stimuli_distractor_trianglediamonds.svg	4	yes	57	0	192	0	0			0	0			1				0	
6.6.1	win	2023-06-13	04:17:30	04:21:51	254990	62bc3401dc67c7598dbba4a6	4	1	main_z	7	main_z	131	stimuli_distractor_diamondtriangles.svg	stimuli_target_diamondrectangles.svg	31	yes	44	1	391	0	0			0	0			1				0	
6.6.1	win	2023-06-13	04:17:30	04:21:51	254990	62bc3401dc67c7598dbba4a6	4	1	main_z	7	advance_on_keypress_ZEE	132	stimuli_distractor_diamondtriangles.svg	stimuli_target_diamondrectangles.svg	31	yes	57	0	214	0	0			0	0			1				0	
6.6.1	win	2023-06-13	04:17:30	04:21:52	256294	62bc3401dc67c7598dbba4a6	4	1	main_z	7	main_z	133	stimuli_target_rectangletriangles.svg	stimuli_distractor_trianglediamonds.svg	1	yes	44	1	444	0	0			0	0			1				0	
6.6.1	win	2023-06-13	04:17:30	04:21:52	256294	62bc3401dc67c7598dbba4a6	4	1	main_z	7	advance_on_keypress_ZEE	134	stimuli_target_rectangletriangles.svg	stimuli_distractor_trianglediamonds.svg	1	yes	57	0	201	0	0			0	0			1				0	
6.6.1	win	2023-06-13	04:17:30	04:21:54	257606	62bc3401dc67c7598dbba4a6	4	1	main_z	7	main_z	135	stimuli_target_trianglerectangles.svg	stimuli_distractor_trianglediamonds.svg	17	yes	44	1	472	0	0			0	0			1				0	
6.6.1	win	2023-06-13	04:17:30	04:21:54	257606	62bc3401dc67c7598dbba4a6	4	1	main_z	7	advance_on_keypress_ZEE	136	stimuli_target_trianglerectangles.svg	stimuli_distractor_trianglediamonds.svg	17	yes	57	0	163	0	0			0	0			1				0	
6.6.1	win	2023-06-13	04:17:30	04:21:55	258854	62bc3401dc67c7598dbba4a6	4	1	main_z	7	main_z	137	stimuli_distractor_trianglediamonds.svg	stimuli_distractor_diamondtriangles.svg	35	no	44	0	452	0	0			0	0			1				0	
6.6.1	win	2023-06-13	04:17:30	04:21:55	258854	62bc3401dc67c7598dbba4a6	4	1	main_z	7	advance_on_keypress_ZEE	138	stimuli_distractor_trianglediamonds.svg	stimuli_distractor_diamondtriangles.svg	35	no	57	0	176	0	0			0	0			1				0	
6.6.1	win	2023-06-13	04:17:30	04:21:56	260142	62bc3401dc67c7598dbba4a6	4	1	main_z	7	main_z	139	stimuli_distractor_trianglediamonds.svg	stimuli_distractor_trianglediamonds.svg	33	no	44	0	472	0	0			0	0			1				0	
6.6.1	win	2023-06-13	04:17:30	04:21:56	260142	62bc3401dc67c7598dbba4a6	4	1	main_z	7	advance_on_keypress_ZEE	140	stimuli_distractor_trianglediamonds.svg	stimuli_distractor_trianglediamonds.svg	33	no	57	0	275	0	0			0	0			1				0	
6.6.1	win	2023-06-13	04:17:30	04:21:59	263055	62bc3401dc67c7598dbba4a6	4	1	main_z	7	main_z	141	stimuli_distractor_diamondtriangles.svg	stimuli_distractor_diamondtriangles.svg	39	no	0	1	2000	0	0			0	0			1				0	
6.6.1	win	2023-06-13	04:17:30	04:21:59	263055	62bc3401dc67c7598dbba4a6	4	1	main_z	7	advance_on_keypress_ZEE	142	stimuli_distractor_diamondtriangles.svg	stimuli_distractor_diamondtriangles.svg	39	no	57	0	236	0	0			0	0			1				0	
6.6.1	win	2023-06-13	04:17:30	04:22:01	264333	62bc3401dc67c7598dbba4a6	4	1	main_z	7	main_z	143	stimuli_target_rectanglediamonds.svg	stimuli_distractor_trianglediamonds.svg	2	yes	44	1	393	0	0			0	0			1				0	
6.6.1	win	2023-06-13	04:17:30	04:22:01	264333	62bc3401dc67c7598dbba4a6	4	1	main_z	7	advance_on_keypress_ZEE	144	stimuli_target_rectanglediamonds.svg	stimuli_distractor_trianglediamonds.svg	2	yes	57	0	192	0	0			0	0			1				0	
6.6.1	win	2023-06-13	04:17:30	04:22:03	267158	62bc3401dc67c7598dbba4a6	4	1	main_z	7	main_z	145	stimuli_distractor_trianglediamonds.svg	stimuli_target_trianglerectangles.svg	25	yes	0	0	2000	0	0			0	0			1				0	
6.6.1	win	2023-06-13	04:17:30	04:22:03	267158	62bc3401dc67c7598dbba4a6	4	1	main_z	7	advance_on_keypress_ZEE	146	stimuli_distractor_trianglediamonds.svg	stimuli_target_trianglerectangles.svg	25	yes	57	0	244	0	0			0	0			1				0	
6.6.1	win	2023-06-13	04:17:30	04:22:05	268533	62bc3401dc67c7598dbba4a6	4	1	main_z	7	main_z	147	stimuli_target_rectanglediamonds.svg	stimuli_distractor_diamondtriangles.svg	6	yes	44	1	489	0	0			0	0			1				0	
6.6.1	win	2023-06-13	04:17:30	04:22:05	268533	62bc3401dc67c7598dbba4a6	4	1	main_z	7	advance_on_keypress_ZEE	148	stimuli_target_rectanglediamonds.svg	stimuli_distractor_diamondtriangles.svg	6	yes	57	0	220	0	0			0	0			1				0	
6.6.1	win	2023-06-13	04:17:30	04:22:06	269805	62bc3401dc67c7598dbba4a6	4	1	main_z	7	main_z	149	stimuli_target_diamondsquares.svg	stimuli_distractor_trianglediamonds.svg	20	yes	44	1	410	0	0			0	0			1				0	
6.6.1	win	2023-06-13	04:17:30	04:22:06	269805	62bc3401dc67c7598dbba4a6	4	1	main_z	7	advance_on_keypress_ZEE	150	stimuli_target_diamondsquares.svg	stimuli_distractor_trianglediamonds.svg	20	yes	57	0	184	0	0			0	0			1				0	
6.6.1	win	2023-06-13	04:17:30	04:22:09	272630	62bc3401dc67c7598dbba4a6	4	1	main_z	7	main_z	151	stimuli_distractor_trianglediamonds.svg	stimuli_target_squarediamonds.svg	12	yes	0	0	2000	0	0			0	0			1				0	
6.6.1	win	2023-06-13	04:17:30	04:22:09	272630	62bc3401dc67c7598dbba4a6	4	1	main_z	7	advance_on_keypress_ZEE	152	stimuli_distractor_trianglediamonds.svg	stimuli_target_squarediamonds.svg	12	yes	57	0	4	0	0			0	0			1				0	
6.6.1	win	2023-06-13	04:17:30	04:22:10	273757	62bc3401dc67c7598dbba4a6	4	1	main_z	7	main_z	153	stimuli_target_diamondsquares.svg	stimuli_distractor_diamondtriangles.svg	24	yes	44	1	458	0	0			0	0			1				0	
6.6.1	win	2023-06-13	04:17:30	04:22:10	273757	62bc3401dc67c7598dbba4a6	4	1	main_z	7	advance_on_keypress_ZEE	154	stimuli_target_diamondsquares.svg	stimuli_distractor_diamondtriangles.svg	24	yes	57	0	294	0	0			0	0			1				0	
6.6.1	win	2023-06-13	04:17:30	04:22:11	275093	62bc3401dc67c7598dbba4a6	4	1	main_z	7	main_z	155	stimuli_target_diamondrectangles.svg	stimuli_distractor_trianglediamonds.svg	19	yes	44	1	409	0	0			0	0			1				0	
6.6.1	win	2023-06-13	04:17:30	04:22:11	275093	62bc3401dc67c7598dbba4a6	4	1	main_z	7	advance_on_keypress_ZEE	156	stimuli_target_diamondrectangles.svg	stimuli_distractor_trianglediamonds.svg	19	yes	57	0	199	0	0			0	0			1				0	
6.6.1	win	2023-06-13	04:17:30	04:22:13	276325	62bc3401dc67c7598dbba4a6	4	1	main_z	7	main_z	157	stimuli_distractor_diamondtriangles.svg	stimuli_target_diamondsquares.svg	32	yes	44	1	390	0	0			0	0			1				0	
6.6.1	win	2023-06-13	04:17:30	04:22:13	276325	62bc3401dc67c7598dbba4a6	4	1	main_z	7	advance_on_keypress_ZEE	158	stimuli_distractor_diamondtriangles.svg	stimuli_target_diamondsquares.svg	32	yes	57	0	197	0	0			0	0			1				0	
6.6.1	win	2023-06-13	04:17:30	04:22:15	279153	62bc3401dc67c7598dbba4a6	4	1	main_z	7	main_z	159	stimuli_distractor_trianglediamonds.svg	stimuli_distractor_trianglediamonds.svg	34	no	0	1	2000	0	0			0	0			1				0	
6.6.1	win	2023-06-13	04:17:30	04:22:15	279153	62bc3401dc67c7598dbba4a6	4	1	main_z	7	advance_on_keypress_ZEE	160	stimuli_distractor_trianglediamonds.svg	stimuli_distractor_trianglediamonds.svg	34	no	57	0	177	0	0			0	0			1				0	
6.6.1	win	2023-06-13	04:17:30	04:22:25	288662	62bc3401dc67c7598dbba4a6	4	1	practice_slash	9	practice_slash	1	stimuli_target_squarediamonds.svg	stimuli_distractor_trianglediamonds.svg	5	yes	53	1	1232	0	0			0	0			1				0	
6.6.1	win	2023-06-13	04:17:30	04:22:25	288662	62bc3401dc67c7598dbba4a6	4	1	practice_slash	9	advance_on_keypress_SLASH	2	stimuli_target_squarediamonds.svg	stimuli_distractor_trianglediamonds.svg	5	yes	57	0	827	0	0			0	0			1				0	
6.6.1	win	2023-06-13	04:17:30	04:22:28	291679	62bc3401dc67c7598dbba4a6	4	1	practice_slash	9	practice_slash	3	stimuli_distractor_diamondtriangles.svg	stimuli_target_diamondrectangles.svg	8	yes	53	1	545	0	0			0	0			1				0	
6.6.1	win	2023-06-13	04:17:30	04:22:28	291679	62bc3401dc67c7598dbba4a6	4	1	practice_slash	9	advance_on_keypress_SLASH	4	stimuli_distractor_diamondtriangles.svg	stimuli_target_diamondrectangles.svg	8	yes	57	0	329	0	0			0	0			1				0	
6.6.1	win	2023-06-13	04:17:30	04:22:30	293854	62bc3401dc67c7598dbba4a6	4	1	practice_slash	9	practice_slash	5	stimuli_target_diamondsquares.svg	stimuli_distractor_trianglediamonds.svg	6	yes	53	1	218	0	0			0	0			1				0	
6.6.1	win	2023-06-13	04:17:30	04:22:30	293854	62bc3401dc67c7598dbba4a6	4	1	practice_slash	9	advance_on_keypress_SLASH	6	stimuli_target_diamondsquares.svg	stimuli_distractor_trianglediamonds.svg	6	yes	57	0	111	0	0			0	0			1				0	
6.6.1	win	2023-06-13	04:17:30	04:22:32	296055	62bc3401dc67c7598dbba4a6	4	1	practice_slash	9	practice_slash	7	stimuli_target_rectanglediamonds.svg	stimuli_distractor_diamondtriangles.svg	1	yes	53	1	450	0	0			0	0			1				0	
6.6.1	win	2023-06-13	04:17:30	04:22:32	296055	62bc3401dc67c7598dbba4a6	4	1	practice_slash	9	advance_on_keypress_SLASH	8	stimuli_target_rectanglediamonds.svg	stimuli_distractor_diamondtriangles.svg	1	yes	57	0	309	0	0			0	0			1				0	
6.6.1	win	2023-06-13	04:17:30	04:22:35	298534	62bc3401dc67c7598dbba4a6	4	1	practice_slash	9	practice_slash	9	stimuli_target_rectanglediamonds.svg	stimuli_distractor_trianglediamonds.svg	4	yes	53	1	527	0	0			0	0			1				0	
6.6.1	win	2023-06-13	04:17:30	04:22:35	298534	62bc3401dc67c7598dbba4a6	4	1	practice_slash	9	advance_on_keypress_SLASH	10	stimuli_target_rectanglediamonds.svg	stimuli_distractor_trianglediamonds.svg	4	yes	57	0	376	0	0			0	0			1				0	
6.6.1	win	2023-06-13	04:17:30	04:22:39	302543	62bc3401dc67c7598dbba4a6	4	1	practice_slash	9	practice_slash	11	stimuli_distractor_diamondtriangles.svg	stimuli_distractor_diamondtriangles.svg	13	no	0	1	2000	0	0			0	0			1				0	
6.6.1	win	2023-06-13	04:17:30	04:22:39	302543	62bc3401dc67c7598dbba4a6	4	1	practice_slash	9	advance_on_keypress_SLASH	12	stimuli_distractor_diamondtriangles.svg	stimuli_distractor_diamondtriangles.svg	13	no	57	0	50	0	0			0	0			1				0	
6.6.1	win	2023-06-13	04:17:30	04:22:41	304735	62bc3401dc67c7598dbba4a6	4	1	practice_slash	9	practice_slash	13	stimuli_distractor_trianglediamonds.svg	stimuli_target_squarediamonds.svg	11	yes	53	1	487	0	0			0	0			1				0	
6.6.1	win	2023-06-13	04:17:30	04:22:41	304735	62bc3401dc67c7598dbba4a6	4	1	practice_slash	9	advance_on_keypress_SLASH	14	stimuli_distractor_trianglediamonds.svg	stimuli_target_squarediamonds.svg	11	yes	57	0	377	0	0			0	0			1				0	
6.6.1	win	2023-06-13	04:17:30	04:22:45	308750	62bc3401dc67c7598dbba4a6	4	1	practice_slash	9	practice_slash	15	stimuli_distractor_diamondtriangles.svg	stimuli_target_rectangletriangles.svg	7	yes	0	0	2000	0	0			0	0			1				0	
6.6.1	win	2023-06-13	04:17:30	04:22:45	308750	62bc3401dc67c7598dbba4a6	4	1	practice_slash	9	advance_on_keypress_SLASH	16	stimuli_distractor_diamondtriangles.svg	stimuli_target_rectangletriangles.svg	7	yes	57	0	204	0	0			0	0			1				0	
6.6.1	win	2023-06-13	04:17:30	04:22:47	311278	62bc3401dc67c7598dbba4a6	4	1	practice_slash	9	practice_slash	17	stimuli_target_diamondsquares.svg	stimuli_distractor_diamondtriangles.svg	3	yes	53	1	675	0	0			0	0			1				0	
6.6.1	win	2023-06-13	04:17:30	04:22:47	311278	62bc3401dc67c7598dbba4a6	4	1	practice_slash	9	advance_on_keypress_SLASH	18	stimuli_target_diamondsquares.svg	stimuli_distractor_diamondtriangles.svg	3	yes	57	0	645	0	0			0	0			1				0	
6.6.1	win	2023-06-13	04:17:30	04:22:50	314038	62bc3401dc67c7598dbba4a6	4	1	practice_slash	9	practice_slash	19	stimuli_target_squarediamonds.svg	stimuli_distractor_diamondtriangles.svg	2	yes	53	1	482	0	0			0	0			1				0	
6.6.1	win	2023-06-13	04:17:30	04:22:50	314038	62bc3401dc67c7598dbba4a6	4	1	practice_slash	9	advance_on_keypress_SLASH	20	stimuli_target_squarediamonds.svg	stimuli_distractor_diamondtriangles.svg	2	yes	57	0	724	0	0			0	0			1				0	
6.6.1	win	2023-06-13	04:17:30	04:22:55	318409	62bc3401dc67c7598dbba4a6	4	1	practice_slash	9	practice_slash	21	stimuli_distractor_diamondtriangles.svg	stimuli_target_trianglerectangles.svg	9	yes	0	0	2000	0	0			0	0			1				0	
6.6.1	win	2023-06-13	04:17:30	04:22:55	318409	62bc3401dc67c7598dbba4a6	4	1	practice_slash	9	advance_on_keypress_SLASH	22	stimuli_distractor_diamondtriangles.svg	stimuli_target_trianglerectangles.svg	9	yes	57	0	697	0	0			0	0			1				0	
6.6.1	win	2023-06-13	04:17:30	04:22:58	321622	62bc3401dc67c7598dbba4a6	4	1	practice_slash	9	practice_slash	23	stimuli_distractor_diamondtriangles.svg	stimuli_distractor_trianglediamonds.svg	14	no	53	0	875	0	0			0	0			1				0	
6.6.1	win	2023-06-13	04:17:30	04:22:58	321622	62bc3401dc67c7598dbba4a6	4	1	practice_slash	9	advance_on_keypress_SLASH	24	stimuli_distractor_diamondtriangles.svg	stimuli_distractor_trianglediamonds.svg	14	no	57	0	294	0	0			0	0			1				0	
6.6.1	win	2023-06-13	04:17:30	04:23:00	324150	62bc3401dc67c7598dbba4a6	4	1	practice_slash	9	practice_slash	25	stimuli_distractor_trianglediamonds.svg	stimuli_distractor_diamondtriangles.svg	16	no	53	0	601	0	0			0	0			1				0	
6.6.1	win	2023-06-13	04:17:30	04:23:00	324150	62bc3401dc67c7598dbba4a6	4	1	practice_slash	9	advance_on_keypress_SLASH	26	stimuli_distractor_trianglediamonds.svg	stimuli_distractor_diamondtriangles.svg	16	no	57	0	102	0	0			0	0			1				0	
6.6.1	win	2023-06-13	04:17:30	04:23:03	326342	62bc3401dc67c7598dbba4a6	4	1	practice_slash	9	practice_slash	27	stimuli_distractor_trianglediamonds.svg	stimuli_target_rectanglediamonds.svg	10	yes	53	1	440	0	0			0	0			1				0	
6.6.1	win	2023-06-13	04:17:30	04:23:03	326342	62bc3401dc67c7598dbba4a6	4	1	practice_slash	9	advance_on_keypress_SLASH	28	stimuli_distractor_trianglediamonds.svg	stimuli_target_rectanglediamonds.svg	10	yes	57	0	116	0	0			0	0			1				0	
6.6.1	win	2023-06-13	04:17:30	04:23:05	328637	62bc3401dc67c7598dbba4a6	4	1	practice_slash	9	practice_slash	29	stimuli_distractor_trianglediamonds.svg	stimuli_target_diamondrectangles.svg	12	yes	53	1	534	0	0			0	0			1				0	
6.6.1	win	2023-06-13	04:17:30	04:23:05	328637	62bc3401dc67c7598dbba4a6	4	1	practice_slash	9	advance_on_keypress_SLASH	30	stimuli_distractor_trianglediamonds.svg	stimuli_target_diamondrectangles.svg	12	yes	57	0	6	0	0			0	0			1				0	
6.6.1	win	2023-06-13	04:17:30	04:23:07	331022	62bc3401dc67c7598dbba4a6	4	1	practice_slash	9	practice_slash	31	stimuli_distractor_trianglediamonds.svg	stimuli_distractor_trianglediamonds.svg	15	no	53	0	716	0	0			0	0			1				0	
6.6.1	win	2023-06-13	04:17:30	04:23:07	331022	62bc3401dc67c7598dbba4a6	4	1	practice_slash	9	advance_on_keypress_SLASH	32	stimuli_distractor_trianglediamonds.svg	stimuli_distractor_trianglediamonds.svg	15	no	57	0	492	0	0			0	0			1				0	
6.6.1	win	2023-06-13	04:17:30	04:23:11	334732	62bc3401dc67c7598dbba4a6	4	1	main_slash	11	main_slash	1	stimuli_distractor_diamondtriangles.svg	stimuli_target_trianglerectangles.svg	29	yes	53	1	590	0	0			0	0			1				0	
6.6.1	win	2023-06-13	04:17:30	04:23:11	334732	62bc3401dc67c7598dbba4a6	4	1	main_slash	11	advance_on_keypress_SLASH	2	stimuli_distractor_diamondtriangles.svg	stimuli_target_trianglerectangles.svg	29	yes	57	0	269	0	0			0	0			1				0	
6.6.1	win	2023-06-13	04:17:30	04:23:12	336292	62bc3401dc67c7598dbba4a6	4	1	main_slash	11	main_slash	3	stimuli_target_squarediamonds.svg	stimuli_distractor_trianglediamonds.svg	4	yes	53	1	648	0	0			0	0			1				0	
6.6.1	win	2023-06-13	04:17:30	04:23:12	336292	62bc3401dc67c7598dbba4a6	4	1	main_slash	11	advance_on_keypress_SLASH	4	stimuli_target_squarediamonds.svg	stimuli_distractor_trianglediamonds.svg	4	yes	57	0	1172	0	0			0	0			1				0	
6.6.1	win	2023-06-13	04:17:30	04:23:16	340113	62bc3401dc67c7598dbba4a6	4	1	main_slash	11	main_slash	5	stimuli_distractor_diamondtriangles.svg	stimuli_target_rectangletriangles.svg	13	yes	0	0	2000	0	0			0	0			1				0	
6.6.1	win	2023-06-13	04:17:30	04:23:16	340113	62bc3401dc67c7598dbba4a6	4	1	main_slash	11	advance_on_keypress_SLASH	6	stimuli_distractor_diamondtriangles.svg	stimuli_target_rectangletriangles.svg	13	yes	57	0	88	0	0			0	0			1				0	
6.6.1	win	2023-06-13	04:17:30	04:23:17	341232	62bc3401dc67c7598dbba4a6	4	1	main_slash	11	main_slash	7	stimuli_distractor_trianglediamonds.svg	stimuli_target_squaretriangles.svg	11	yes	53	1	379	0	0			0	0			1				0	
6.6.1	win	2023-06-13	04:17:30	04:23:17	341232	62bc3401dc67c7598dbba4a6	4	1	main_slash	11	advance_on_keypress_SLASH	8	stimuli_distractor_trianglediamonds.svg	stimuli_target_squaretriangles.svg	11	yes	57	0	194	0	0			0	0			1				0	
6.6.1	win	2023-06-13	04:17:30	04:23:19	342532	62bc3401dc67c7598dbba4a6	4	1	main_slash	11	main_slash	9	stimuli_distractor_diamondtriangles.svg	stimuli_target_squarediamonds.svg	16	yes	53	1	465	0	0			0	0			1				0	
6.6.1	win	2023-06-13	04:17:30	04:23:19	342532	62bc3401dc67c7598dbba4a6	4	1	main_slash	11	advance_on_keypress_SLASH	10	stimuli_distractor_diamondtriangles.svg	stimuli_target_squarediamonds.svg	16	yes	57	0	141	0	0			0	0			1				0	
6.6.1	win	2023-06-13	04:17:30	04:23:22	345318	62bc3401dc67c7598dbba4a6	4	1	main_slash	11	main_slash	11	stimuli_target_diamondrectangles.svg	stimuli_distractor_diamondtriangles.svg	23	yes	0	0	2000	0	0			0	0			1				0	
6.6.1	win	2023-06-13	04:17:30	04:23:22	345318	62bc3401dc67c7598dbba4a6	4	1	main_slash	11	advance_on_keypress_SLASH	12	stimuli_target_diamondrectangles.svg	stimuli_distractor_diamondtriangles.svg	23	yes	57	0	499	0	0			0	0			1				0	
6.6.1	win	2023-06-13	04:17:30	04:23:23	346964	62bc3401dc67c7598dbba4a6	4	1	main_slash	11	main_slash	13	stimuli_target_squaretriangles.svg	stimuli_distractor_diamondtriangles.svg	7	yes	53	1	493	0	0			0	0			1				0	
6.6.1	win	2023-06-13	04:17:30	04:23:23	346964	62bc3401dc67c7598dbba4a6	4	1	main_slash	11	advance_on_keypress_SLASH	14	stimuli_target_squaretriangles.svg	stimuli_distractor_diamondtriangles.svg	7	yes	57	0	192	0	0			0	0			1				0	
6.6.1	win	2023-06-13	04:17:30	04:23:25	348428	62bc3401dc67c7598dbba4a6	4	1	main_slash	11	main_slash	15	stimuli_distractor_trianglediamonds.svg	stimuli_target_rectanglediamonds.svg	10	yes	53	1	639	0	0			0	0			1				0	
6.6.1	win	2023-06-13	04:17:30	04:23:25	348428	62bc3401dc67c7598dbba4a6	4	1	main_slash	11	advance_on_keypress_SLASH	16	stimuli_distractor_trianglediamonds.svg	stimuli_target_rectanglediamonds.svg	10	yes	57	0	163	0	0			0	0			1				0	
6.6.1	win	2023-06-13	04:17:30	04:23:27	351224	62bc3401dc67c7598dbba4a6	4	1	main_slash	11	main_slash	17	stimuli_distractor_trianglediamonds.svg	stimuli_distractor_diamondtriangles.svg	36	no	0	1	2000	0	0			0	0			1				0	
6.6.1	win	2023-06-13	04:17:30	04:23:27	351224	62bc3401dc67c7598dbba4a6	4	1	main_slash	11	advance_on_keypress_SLASH	18	stimuli_distractor_trianglediamonds.svg	stimuli_distractor_diamondtriangles.svg	36	no	57	0	488	0	0			0	0			1				0	
6.6.1	win	2023-06-13	04:17:30	04:23:29	352876	62bc3401dc67c7598dbba4a6	4	1	main_slash	11	main_slash	19	stimuli_target_diamondrectangles.svg	stimuli_distractor_trianglediamonds.svg	19	yes	53	1	508	0	0			0	0			1				0	
6.6.1	win	2023-06-13	04:17:30	04:23:29	352876	62bc3401dc67c7598dbba4a6	4	1	main_slash	11	advance_on_keypress_SLASH	20	stimuli_target_diamondrectangles.svg	stimuli_distractor_trianglediamonds.svg	19	yes	57	0	197	0	0			0	0			1				0	
6.6.1	win	2023-06-13	04:17:30	04:23:32	355728	62bc3401dc67c7598dbba4a6	4	1	main_slash	11	main_slash	21	stimuli_distractor_trianglediamonds.svg	stimuli_target_diamondsquares.svg	28	yes	0	0	2000	0	0			0	0			1				0	
6.6.1	win	2023-06-13	04:17:30	04:23:32	355728	62bc3401dc67c7598dbba4a6	4	1	main_slash	11	advance_on_keypress_SLASH	22	stimuli_distractor_trianglediamonds.svg	stimuli_target_diamondsquares.svg	28	yes	57	0	280	0	0			0	0			1				0	
6.6.1	win	2023-06-13	04:17:30	04:23:35	358648	62bc3401dc67c7598dbba4a6	4	1	main_slash	11	main_slash	23	stimuli_target_trianglesquares.svg	stimuli_distractor_diamondtriangles.svg	22	yes	0	0	2000	0	0			0	0			1				0	
6.6.1	win	2023-06-13	04:17:30	04:23:35	358648	62bc3401dc67c7598dbba4a6	4	1	main_slash	11	advance_on_keypress_SLASH	24	stimuli_target_trianglesquares.svg	stimuli_distractor_diamondtriangles.svg	22	yes	57	0	240	0	0			0	0			1				0	
6.6.1	win	2023-06-13	04:17:30	04:23:36	360020	62bc3401dc67c7598dbba4a6	4	1	main_slash	11	main_slash	25	stimuli_distractor_trianglediamonds.svg	stimuli_distractor_diamondtriangles.svg	35	no	53	0	485	0	0			0	0			1				0	
6.6.1	win	2023-06-13	04:17:30	04:23:36	360020	62bc3401dc67c7598dbba4a6	4	1	main_slash	11	advance_on_keypress_SLASH	26	stimuli_distractor_trianglediamonds.svg	stimuli_distractor_diamondtriangles.svg	35	no	57	0	192	0	0			0	0			1				0	
6.6.1	win	2023-06-13	04:17:30	04:23:39	362852	62bc3401dc67c7598dbba4a6	4	1	main_slash	11	main_slash	27	stimuli_distractor_diamondtriangles.svg	stimuli_distractor_diamondtriangles.svg	39	no	0	1	2000	0	0			0	0			1				0	
6.6.1	win	2023-06-13	04:17:30	04:23:39	362852	62bc3401dc67c7598dbba4a6	4	1	main_slash	11	advance_on_keypress_SLASH	28	stimuli_distractor_diamondtriangles.svg	stimuli_distractor_diamondtriangles.svg	39	no	57	0	76	0	0			0	0			1				0	
6.6.1	win	2023-06-13	04:17:30	04:23:40	364043	62bc3401dc67c7598dbba4a6	4	1	main_slash	11	main_slash	29	stimuli_target_trianglerectangles.svg	stimuli_distractor_trianglediamonds.svg	17	yes	53	1	472	0	0			0	0			1				0	
6.6.1	win	2023-06-13	04:17:30	04:23:40	364043	62bc3401dc67c7598dbba4a6	4	1	main_slash	11	advance_on_keypress_SLASH	30	stimuli_target_trianglerectangles.svg	stimuli_distractor_trianglediamonds.svg	17	yes	57	0	180	0	0			0	0			1				0	
6.6.1	win	2023-06-13	04:17:30	04:23:41	365244	62bc3401dc67c7598dbba4a6	4	1	main_slash	11	main_slash	31	stimuli_distractor_trianglediamonds.svg	stimuli_target_diamondrectangles.svg	27	yes	53	1	388	0	0			0	0			1				0	
6.6.1	win	2023-06-13	04:17:30	04:23:41	365244	62bc3401dc67c7598dbba4a6	4	1	main_slash	11	advance_on_keypress_SLASH	32	stimuli_distractor_trianglediamonds.svg	stimuli_target_diamondrectangles.svg	27	yes	57	0	163	0	0			0	0			1				0	
6.6.1	win	2023-06-13	04:17:30	04:23:44	368040	62bc3401dc67c7598dbba4a6	4	1	main_slash	11	main_slash	33	stimuli_distractor_diamondtriangles.svg	stimuli_target_diamondsquares.svg	32	yes	0	0	2000	0	0			0	0			1				0	
6.6.1	win	2023-06-13	04:17:30	04:23:44	368040	62bc3401dc67c7598dbba4a6	4	1	main_slash	11	advance_on_keypress_SLASH	34	stimuli_distractor_diamondtriangles.svg	stimuli_target_diamondsquares.svg	32	yes	57	0	392	0	0			0	0			1				0	
6.6.1	win	2023-06-13	04:17:30	04:23:46	369467	62bc3401dc67c7598dbba4a6	4	1	main_slash	11	main_slash	35	stimuli_target_diamondsquares.svg	stimuli_distractor_diamondtriangles.svg	24	yes	53	1	391	0	0			0	0			1				0	
6.6.1	win	2023-06-13	04:17:30	04:23:46	369467	62bc3401dc67c7598dbba4a6	4	1	main_slash	11	advance_on_keypress_SLASH	36	stimuli_target_diamondsquares.svg	stimuli_distractor_diamondtriangles.svg	24	yes	57	0	166	0	0			0	0			1				0	
6.6.1	win	2023-06-13	04:17:30	04:23:48	372278	62bc3401dc67c7598dbba4a6	4	1	main_slash	11	main_slash	37	stimuli_distractor_trianglediamonds.svg	stimuli_distractor_trianglediamonds.svg	34	no	0	1	2000	0	0			0	0			1				0	
6.6.1	win	2023-06-13	04:17:30	04:23:48	372278	62bc3401dc67c7598dbba4a6	4	1	main_slash	11	advance_on_keypress_SLASH	38	stimuli_distractor_trianglediamonds.svg	stimuli_distractor_trianglediamonds.svg	34	no	57	0	98	0	0			0	0			1				0	
6.6.1	win	2023-06-13	04:17:30	04:23:51	375030	62bc3401dc67c7598dbba4a6	4	1	main_slash	11	main_slash	39	stimuli_distractor_trianglediamonds.svg	stimuli_target_trianglerectangles.svg	25	yes	0	0	2000	0	0			0	0			1				0	
6.6.1	win	2023-06-13	04:17:30	04:23:51	375030	62bc3401dc67c7598dbba4a6	4	1	main_slash	11	advance_on_keypress_SLASH	40	stimuli_distractor_trianglediamonds.svg	stimuli_target_trianglerectangles.svg	25	yes	57	0	138	0	0			0	0			1				0	
6.6.1	win	2023-06-13	04:17:30	04:23:52	376203	62bc3401dc67c7598dbba4a6	4	1	main_slash	11	main_slash	41	stimuli_distractor_diamondtriangles.svg	stimuli_target_diamondrectangles.svg	31	yes	53	1	387	0	0			0	0			1				0	
6.6.1	win	2023-06-13	04:17:30	04:23:52	376203	62bc3401dc67c7598dbba4a6	4	1	main_slash	11	advance_on_keypress_SLASH	42	stimuli_distractor_diamondtriangles.svg	stimuli_target_diamondrectangles.svg	31	yes	57	0	178	0	0			0	0			1				0	
6.6.1	win	2023-06-13	04:17:30	04:23:54	377427	62bc3401dc67c7598dbba4a6	4	1	main_slash	11	main_slash	43	stimuli_distractor_diamondtriangles.svg	stimuli_distractor_trianglediamonds.svg	37	no	53	0	410	0	0			0	0			1				0	
6.6.1	win	2023-06-13	04:17:30	04:23:54	377427	62bc3401dc67c7598dbba4a6	4	1	main_slash	11	advance_on_keypress_SLASH	44	stimuli_distractor_diamondtriangles.svg	stimuli_distractor_trianglediamonds.svg	37	no	57	0	216	0	0			0	0			1				0	
6.6.1	win	2023-06-13	04:17:30	04:23:56	380286	62bc3401dc67c7598dbba4a6	4	1	main_slash	11	main_slash	45	stimuli_distractor_diamondtriangles.svg	stimuli_distractor_diamondtriangles.svg	40	no	0	1	2000	0	0			0	0			1				0	
6.6.1	win	2023-06-13	04:17:30	04:23:56	380286	62bc3401dc67c7598dbba4a6	4	1	main_slash	11	advance_on_keypress_SLASH	46	stimuli_distractor_diamondtriangles.svg	stimuli_distractor_diamondtriangles.svg	40	no	57	0	58	0	0			0	0			1				0	
6.6.1	win	2023-06-13	04:17:30	04:23:58	381411	62bc3401dc67c7598dbba4a6	4	1	main_slash	11	main_slash	47	stimuli_target_trianglesquares.svg	stimuli_distractor_trianglediamonds.svg	18	yes	53	1	423	0	0			0	0			1				0	
6.6.1	win	2023-06-13	04:17:30	04:23:58	381411	62bc3401dc67c7598dbba4a6	4	1	main_slash	11	advance_on_keypress_SLASH	48	stimuli_target_trianglesquares.svg	stimuli_distractor_trianglediamonds.svg	18	yes	57	0	229	0	0			0	0			1				0	
6.6.1	win	2023-06-13	04:17:30	04:23:59	382789	62bc3401dc67c7598dbba4a6	4	1	main_slash	11	main_slash	49	stimuli_distractor_diamondtriangles.svg	stimuli_target_rectanglediamonds.svg	14	yes	53	1	514	0	0			0	0			1				0	
6.6.1	win	2023-06-13	04:17:30	04:23:59	382789	62bc3401dc67c7598dbba4a6	4	1	main_slash	11	advance_on_keypress_SLASH	50	stimuli_distractor_diamondtriangles.svg	stimuli_target_rectanglediamonds.svg	14	yes	57	0	132	0	0			0	0			1				0	
6.6.1	win	2023-06-13	04:17:30	04:24:00	384131	62bc3401dc67c7598dbba4a6	4	1	main_slash	11	main_slash	51	stimuli_target_diamondsquares.svg	stimuli_distractor_trianglediamonds.svg	20	yes	53	1	557	0	0			0	0			1				0	
6.6.1	win	2023-06-13	04:17:30	04:24:00	384131	62bc3401dc67c7598dbba4a6	4	1	main_slash	11	advance_on_keypress_SLASH	52	stimuli_target_diamondsquares.svg	stimuli_distractor_trianglediamonds.svg	20	yes	57	0	165	0	0			0	0			1				0	
6.6.1	win	2023-06-13	04:17:30	04:24:03	386942	62bc3401dc67c7598dbba4a6	4	1	main_slash	11	main_slash	53	stimuli_distractor_diamondtriangles.svg	stimuli_target_squaretriangles.svg	15	yes	0	0	2000	0	0			0	0			1				0	
6.6.1	win	2023-06-13	04:17:30	04:24:03	386942	62bc3401dc67c7598dbba4a6	4	1	main_slash	11	advance_on_keypress_SLASH	54	stimuli_distractor_diamondtriangles.svg	stimuli_target_squaretriangles.svg	15	yes	57	0	226	0	0			0	0			1				0	
6.6.1	win	2023-06-13	04:17:30	04:24:06	389812	62bc3401dc67c7598dbba4a6	4	1	main_slash	11	main_slash	55	stimuli_distractor_diamondtriangles.svg	stimuli_distractor_trianglediamonds.svg	38	no	0	1	2000	0	0			0	0			1				0	
6.6.1	win	2023-06-13	04:17:30	04:24:06	389812	62bc3401dc67c7598dbba4a6	4	1	main_slash	11	advance_on_keypress_SLASH	56	stimuli_distractor_diamondtriangles.svg	stimuli_distractor_trianglediamonds.svg	38	no	57	0	101	0	0			0	0			1				0	
6.6.1	win	2023-06-13	04:17:30	04:24:07	391019	62bc3401dc67c7598dbba4a6	4	1	main_slash	11	main_slash	57	stimuli_target_rectangletriangles.svg	stimuli_distractor_diamondtriangles.svg	5	yes	53	1	455	0	0			0	0			1				0	
6.6.1	win	2023-06-13	04:17:30	04:24:07	391019	62bc3401dc67c7598dbba4a6	4	1	main_slash	11	advance_on_keypress_SLASH	58	stimuli_target_rectangletriangles.svg	stimuli_distractor_diamondtriangles.svg	5	yes	57	0	171	0	0			0	0			1				0	
6.6.1	win	2023-06-13	04:17:30	04:24:10	393832	62bc3401dc67c7598dbba4a6	4	1	main_slash	11	main_slash	59	stimuli_distractor_trianglediamonds.svg	stimuli_target_trianglesquares.svg	26	yes	0	0	2000	0	0			0	0			1				0	
6.6.1	win	2023-06-13	04:17:30	04:24:10	393832	62bc3401dc67c7598dbba4a6	4	1	main_slash	11	advance_on_keypress_SLASH	60	stimuli_distractor_trianglediamonds.svg	stimuli_target_trianglesquares.svg	26	yes	57	0	104	0	0			0	0			1				0	
6.6.1	win	2023-06-13	04:17:30	04:24:11	394979	62bc3401dc67c7598dbba4a6	4	1	main_slash	11	main_slash	61	stimuli_target_squaretriangles.svg	stimuli_distractor_trianglediamonds.svg	3	yes	53	1	394	0	0			0	0			1				0	
6.6.1	win	2023-06-13	04:17:30	04:24:11	394979	62bc3401dc67c7598dbba4a6	4	1	main_slash	11	advance_on_keypress_SLASH	62	stimuli_target_squaretriangles.svg	stimuli_distractor_trianglediamonds.svg	3	yes	57	0	193	0	0			0	0			1				0	
6.6.1	win	2023-06-13	04:17:30	04:24:12	396251	62bc3401dc67c7598dbba4a6	4	1	main_slash	11	main_slash	63	stimuli_distractor_diamondtriangles.svg	stimuli_target_trianglesquares.svg	30	yes	53	1	449	0	0			0	0			1				0	
6.6.1	win	2023-06-13	04:17:30	04:24:12	396251	62bc3401dc67c7598dbba4a6	4	1	main_slash	11	advance_on_keypress_SLASH	64	stimuli_distractor_diamondtriangles.svg	stimuli_target_trianglesquares.svg	30	yes	57	0	188	0	0			0	0			1				0	
6.6.1	win	2023-06-13	04:17:30	04:24:14	397507	62bc3401dc67c7598dbba4a6	4	1	main_slash	11	main_slash	65	stimuli_target_squarediamonds.svg	stimuli_distractor_diamondtriangles.svg	8	yes	53	1	420	0	0			0	0			1				0	
6.6.1	win	2023-06-13	04:17:30	04:24:14	397507	62bc3401dc67c7598dbba4a6	4	1	main_slash	11	advance_on_keypress_SLASH	66	stimuli_target_squarediamonds.svg	stimuli_distractor_diamondtriangles.svg	8	yes	57	0	185	0	0			0	0			1				0	
6.6.1	win	2023-06-13	04:17:30	04:24:17	400339	62bc3401dc67c7598dbba4a6	4	1	main_slash	11	main_slash	67	stimuli_distractor_trianglediamonds.svg	stimuli_distractor_trianglediamonds.svg	33	no	0	1	2000	0	0			0	0			1				0	
6.6.1	win	2023-06-13	04:17:30	04:24:17	400339	62bc3401dc67c7598dbba4a6	4	1	main_slash	11	advance_on_keypress_SLASH	68	stimuli_distractor_trianglediamonds.svg	stimuli_distractor_trianglediamonds.svg	33	no	57	0	293	0	0			0	0			1				0	
6.6.1	win	2023-06-13	04:17:30	04:24:18	401791	62bc3401dc67c7598dbba4a6	4	1	main_slash	11	main_slash	69	stimuli_target_rectanglediamonds.svg	stimuli_distractor_diamondtriangles.svg	6	yes	53	1	512	0	0			0	0			1				0	
6.6.1	win	2023-06-13	04:17:30	04:24:18	401791	62bc3401dc67c7598dbba4a6	4	1	main_slash	11	advance_on_keypress_SLASH	70	stimuli_target_rectanglediamonds.svg	stimuli_distractor_diamondtriangles.svg	6	yes	57	0	209	0	0			0	0			1				0	
6.6.1	win	2023-06-13	04:17:30	04:24:19	403259	62bc3401dc67c7598dbba4a6	4	1	main_slash	11	main_slash	71	stimuli_distractor_trianglediamonds.svg	stimuli_target_rectangletriangles.svg	9	yes	53	1	616	0	0			0	0			1				0	
6.6.1	win	2023-06-13	04:17:30	04:24:19	403259	62bc3401dc67c7598dbba4a6	4	1	main_slash	11	advance_on_keypress_SLASH	72	stimuli_distractor_trianglediamonds.svg	stimuli_target_rectangletriangles.svg	9	yes	57	0	285	0	0			0	0			1				0	
6.6.1	win	2023-06-13	04:17:30	04:24:21	404835	62bc3401dc67c7598dbba4a6	4	1	main_slash	11	main_slash	73	stimuli_target_rectanglediamonds.svg	stimuli_distractor_trianglediamonds.svg	2	yes	53	1	640	0	0			0	0			1				0	
6.6.1	win	2023-06-13	04:17:30	04:24:21	404835	62bc3401dc67c7598dbba4a6	4	1	main_slash	11	advance_on_keypress_SLASH	74	stimuli_target_rectanglediamonds.svg	stimuli_distractor_trianglediamonds.svg	2	yes	57	0	117	0	0			0	0			1				0	
6.6.1	win	2023-06-13	04:17:30	04:24:22	406115	62bc3401dc67c7598dbba4a6	4	1	main_slash	11	main_slash	75	stimuli_distractor_trianglediamonds.svg	stimuli_target_squarediamonds.svg	12	yes	53	1	519	0	0			0	0			1				0	
6.6.1	win	2023-06-13	04:17:30	04:24:22	406115	62bc3401dc67c7598dbba4a6	4	1	main_slash	11	advance_on_keypress_SLASH	76	stimuli_distractor_trianglediamonds.svg	stimuli_target_squarediamonds.svg	12	yes	57	0	120	0	0			0	0			1				0	
6.6.1	win	2023-06-13	04:17:30	04:24:25	408880	62bc3401dc67c7598dbba4a6	4	1	main_slash	11	main_slash	77	stimuli_target_trianglerectangles.svg	stimuli_distractor_diamondtriangles.svg	21	yes	0	0	2000	0	0			0	0			1				0	
6.6.1	win	2023-06-13	04:17:30	04:24:25	408880	62bc3401dc67c7598dbba4a6	4	1	main_slash	11	advance_on_keypress_SLASH	78	stimuli_target_trianglerectangles.svg	stimuli_distractor_diamondtriangles.svg	21	yes	57	0	223	0	0			0	0			1				0	
6.6.1	win	2023-06-13	04:17:30	04:24:27	410331	62bc3401dc67c7598dbba4a6	4	1	main_slash	11	main_slash	79	stimuli_target_rectangletriangles.svg	stimuli_distractor_trianglediamonds.svg	1	yes	53	1	581	0	0			0	0			1				0	
6.6.1	win	2023-06-13	04:17:30	04:24:27	410331	62bc3401dc67c7598dbba4a6	4	1	main_slash	11	advance_on_keypress_SLASH	80	stimuli_target_rectangletriangles.svg	stimuli_distractor_trianglediamonds.svg	1	yes	57	0	156	0	0			0	0			1				0	
6.6.1	win	2023-06-13	04:17:30	04:24:28	411659	62bc3401dc67c7598dbba4a6	4	1	main_slash	11	main_slash	81	stimuli_target_diamondrectangles.svg	stimuli_distractor_trianglediamonds.svg	19	yes	53	1	541	0	0			0	0			1				0	
6.6.1	win	2023-06-13	04:17:30	04:24:28	411659	62bc3401dc67c7598dbba4a6	4	1	main_slash	11	advance_on_keypress_SLASH	82	stimuli_target_diamondrectangles.svg	stimuli_distractor_trianglediamonds.svg	19	yes	57	0	133	0	0			0	0			1				0	
6.6.1	win	2023-06-13	04:17:30	04:24:29	412882	62bc3401dc67c7598dbba4a6	4	1	main_slash	11	main_slash	83	stimuli_target_diamondsquares.svg	stimuli_distractor_trianglediamonds.svg	20	yes	53	1	447	0	0			0	0			1				0	
6.6.1	win	2023-06-13	04:17:30	04:24:29	412882	62bc3401dc67c7598dbba4a6	4	1	main_slash	11	advance_on_keypress_SLASH	84	stimuli_target_diamondsquares.svg	stimuli_distractor_trianglediamonds.svg	20	yes	57	0	156	0	0			0	0			1				0	
6.6.1	win	2023-06-13	04:17:30	04:24:32	415670	62bc3401dc67c7598dbba4a6	4	1	main_slash	11	main_slash	85	stimuli_distractor_diamondtriangles.svg	stimuli_distractor_trianglediamonds.svg	38	no	0	1	2000	0	0			0	0			1				0	
6.6.1	win	2023-06-13	04:17:30	04:24:32	415670	62bc3401dc67c7598dbba4a6	4	1	main_slash	11	advance_on_keypress_SLASH	86	stimuli_distractor_diamondtriangles.svg	stimuli_distractor_trianglediamonds.svg	38	no	57	0	17	0	0			0	0			1				0	
6.6.1	win	2023-06-13	04:17:30	04:24:33	416986	62bc3401dc67c7598dbba4a6	4	1	main_slash	11	main_slash	87	stimuli_distractor_trianglediamonds.svg	stimuli_target_diamondrectangles.svg	27	yes	53	1	647	0	0			0	0			1				0	
6.6.1	win	2023-06-13	04:17:30	04:24:33	416986	62bc3401dc67c7598dbba4a6	4	1	main_slash	11	advance_on_keypress_SLASH	88	stimuli_distractor_trianglediamonds.svg	stimuli_target_diamondrectangles.svg	27	yes	57	0	148	0	0			0	0			1				0	
6.6.1	win	2023-06-13	04:17:30	04:24:34	418226	62bc3401dc67c7598dbba4a6	4	1	main_slash	11	main_slash	89	stimuli_distractor_diamondtriangles.svg	stimuli_target_rectanglediamonds.svg	14	yes	53	1	452	0	0			0	0			1				0	
6.6.1	win	2023-06-13	04:17:30	04:24:34	418226	62bc3401dc67c7598dbba4a6	4	1	main_slash	11	advance_on_keypress_SLASH	90	stimuli_distractor_diamondtriangles.svg	stimuli_target_rectanglediamonds.svg	14	yes	57	0	128	0	0			0	0			1				0	
6.6.1	win	2023-06-13	04:17:30	04:24:36	419547	62bc3401dc67c7598dbba4a6	4	1	main_slash	11	main_slash	91	stimuli_target_rectangletriangles.svg	stimuli_distractor_diamondtriangles.svg	5	yes	53	1	554	0	0			0	0			1				0	
6.6.1	win	2023-06-13	04:17:30	04:24:36	419547	62bc3401dc67c7598dbba4a6	4	1	main_slash	11	advance_on_keypress_SLASH	92	stimuli_target_rectangletriangles.svg	stimuli_distractor_diamondtriangles.svg	5	yes	57	0	82	0	0			0	0			1				0	
6.6.1	win	2023-06-13	04:17:30	04:24:37	420762	62bc3401dc67c7598dbba4a6	4	1	main_slash	11	main_slash	93	stimuli_target_diamondrectangles.svg	stimuli_distractor_diamondtriangles.svg	23	yes	53	1	486	0	0			0	0			1				0	
6.6.1	win	2023-06-13	04:17:30	04:24:37	420762	62bc3401dc67c7598dbba4a6	4	1	main_slash	11	advance_on_keypress_SLASH	94	stimuli_target_diamondrectangles.svg	stimuli_distractor_diamondtriangles.svg	23	yes	57	0	145	0	0			0	0			1				0	
6.6.1	win	2023-06-13	04:17:30	04:24:40	423545	62bc3401dc67c7598dbba4a6	4	1	main_slash	11	main_slash	95	stimuli_distractor_diamondtriangles.svg	stimuli_target_trianglerectangles.svg	29	yes	0	0	2000	0	0			0	0			1				0	
6.6.1	win	2023-06-13	04:17:30	04:24:40	423545	62bc3401dc67c7598dbba4a6	4	1	main_slash	11	advance_on_keypress_SLASH	96	stimuli_distractor_diamondtriangles.svg	stimuli_target_trianglerectangles.svg	29	yes	57	0	335	0	0			0	0			1				0	
6.6.1	win	2023-06-13	04:17:30	04:24:41	425066	62bc3401dc67c7598dbba4a6	4	1	main_slash	11	main_slash	97	stimuli_distractor_trianglediamonds.svg	stimuli_target_rectangletriangles.svg	9	yes	53	1	535	0	0			0	0			1				0	
6.6.1	win	2023-06-13	04:17:30	04:24:41	425066	62bc3401dc67c7598dbba4a6	4	1	main_slash	11	advance_on_keypress_SLASH	98	stimuli_distractor_trianglediamonds.svg	stimuli_target_rectangletriangles.svg	9	yes	57	0	120	0	0			0	0			1				0	
6.6.1	win	2023-06-13	04:17:30	04:24:43	426362	62bc3401dc67c7598dbba4a6	4	1	main_slash	11	main_slash	99	stimuli_distractor_trianglediamonds.svg	stimuli_target_diamondsquares.svg	28	yes	53	1	530	0	0			0	0			1				0	
6.6.1	win	2023-06-13	04:17:30	04:24:43	426362	62bc3401dc67c7598dbba4a6	4	1	main_slash	11	advance_on_keypress_SLASH	100	stimuli_distractor_trianglediamonds.svg	stimuli_target_diamondsquares.svg	28	yes	57	0	124	0	0			0	0			1				0	
6.6.1	win	2023-06-13	04:17:30	04:24:44	427698	62bc3401dc67c7598dbba4a6	4	1	main_slash	11	main_slash	101	stimuli_distractor_trianglediamonds.svg	stimuli_target_squaretriangles.svg	11	yes	53	1	582	0	0			0	0			1				0	
6.6.1	win	2023-06-13	04:17:30	04:24:44	427698	62bc3401dc67c7598dbba4a6	4	1	main_slash	11	advance_on_keypress_SLASH	102	stimuli_distractor_trianglediamonds.svg	stimuli_target_squaretriangles.svg	11	yes	57	0	236	0	0			0	0			1				0	
6.6.1	win	2023-06-13	04:17:30	04:24:45	429226	62bc3401dc67c7598dbba4a6	4	1	main_slash	11	main_slash	103	stimuli_distractor_trianglediamonds.svg	stimuli_distractor_trianglediamonds.svg	34	no	53	0	642	0	0			0	0			1				0	
6.6.1	win	2023-06-13	04:17:30	04:24:45	429226	62bc3401dc67c7598dbba4a6	4	1	main_slash	11	advance_on_keypress_SLASH	104	stimuli_distractor_trianglediamonds.svg	stimuli_distractor_trianglediamonds.svg	34	no	57	0	150	0	0			0	0			1				0	
6.6.1	win	2023-06-13	04:17:30	04:24:47	430554	62bc3401dc67c7598dbba4a6	4	1	main_slash	11	main_slash	105	stimuli_target_trianglerectangles.svg	stimuli_distractor_diamondtriangles.svg	21	yes	53	1	535	0	0			0	0			1				0	
6.6.1	win	2023-06-13	04:17:30	04:24:47	430554	62bc3401dc67c7598dbba4a6	4	1	main_slash	11	advance_on_keypress_SLASH	106	stimuli_target_trianglerectangles.svg	stimuli_distractor_diamondtriangles.svg	21	yes	57	0	128	0	0			0	0			1				0	
6.6.1	win	2023-06-13	04:17:30	04:24:48	431818	62bc3401dc67c7598dbba4a6	4	1	main_slash	11	main_slash	107	stimuli_target_rectangletriangles.svg	stimuli_distractor_trianglediamonds.svg	1	yes	53	1	498	0	0			0	0			1				0	
6.6.1	win	2023-06-13	04:17:30	04:24:48	431818	62bc3401dc67c7598dbba4a6	4	1	main_slash	11	advance_on_keypress_SLASH	108	stimuli_target_rectangletriangles.svg	stimuli_distractor_trianglediamonds.svg	1	yes	57	0	132	0	0			0	0			1				0	
6.6.1	win	2023-06-13	04:17:30	04:24:51	434589	62bc3401dc67c7598dbba4a6	4	1	main_slash	11	main_slash	109	stimuli_distractor_diamondtriangles.svg	stimuli_target_trianglesquares.svg	30	yes	0	0	2000	0	0			0	0			1				0	
6.6.1	win	2023-06-13	04:17:30	04:24:51	434589	62bc3401dc67c7598dbba4a6	4	1	main_slash	11	advance_on_keypress_SLASH	110	stimuli_distractor_diamondtriangles.svg	stimuli_target_trianglesquares.svg	30	yes	57	0	162	0	0			0	0			1				0	
6.6.1	win	2023-06-13	04:17:30	04:24:52	435954	62bc3401dc67c7598dbba4a6	4	1	main_slash	11	main_slash	111	stimuli_target_rectanglediamonds.svg	stimuli_distractor_diamondtriangles.svg	6	yes	53	1	563	0	0			0	0			1				0	
6.6.1	win	2023-06-13	04:17:30	04:24:52	435954	62bc3401dc67c7598dbba4a6	4	1	main_slash	11	advance_on_keypress_SLASH	112	stimuli_target_rectanglediamonds.svg	stimuli_distractor_diamondtriangles.svg	6	yes	57	0	115	0	0			0	0			1				0	
6.6.1	win	2023-06-13	04:17:30	04:24:53	437282	62bc3401dc67c7598dbba4a6	4	1	main_slash	11	main_slash	113	stimuli_distractor_trianglediamonds.svg	stimuli_target_trianglerectangles.svg	25	yes	53	1	573	0	0			0	0			1				0	
6.6.1	win	2023-06-13	04:17:30	04:24:53	437282	62bc3401dc67c7598dbba4a6	4	1	main_slash	11	advance_on_keypress_SLASH	114	stimuli_distractor_trianglediamonds.svg	stimuli_target_trianglerectangles.svg	25	yes	57	0	116	0	0			0	0			1				0	
6.6.1	win	2023-06-13	04:17:30	04:24:55	438538	62bc3401dc67c7598dbba4a6	4	1	main_slash	11	main_slash	115	stimuli_distractor_diamondtriangles.svg	stimuli_target_rectangletriangles.svg	13	yes	53	1	494	0	0			0	0			1				0	
6.6.1	win	2023-06-13	04:17:30	04:24:55	438538	62bc3401dc67c7598dbba4a6	4	1	main_slash	11	advance_on_keypress_SLASH	116	stimuli_distractor_diamondtriangles.svg	stimuli_target_rectangletriangles.svg	13	yes	57	0	121	0	0			0	0			1				0	
6.6.1	win	2023-06-13	04:17:30	04:24:57	441295	62bc3401dc67c7598dbba4a6	4	1	main_slash	11	main_slash	117	stimuli_distractor_diamondtriangles.svg	stimuli_distractor_diamondtriangles.svg	40	no	0	1	2000	0	0			0	0			1				0	
6.6.1	win	2023-06-13	04:17:30	04:24:57	441295	62bc3401dc67c7598dbba4a6	4	1	main_slash	11	advance_on_keypress_SLASH	118	stimuli_distractor_diamondtriangles.svg	stimuli_distractor_diamondtriangles.svg	40	no	57	0	232	0	0			0	0			1				0	
6.6.1	win	2023-06-13	04:17:30	04:24:59	442634	62bc3401dc67c7598dbba4a6	4	1	main_slash	11	main_slash	119	stimuli_target_squaretriangles.svg	stimuli_distractor_trianglediamonds.svg	3	yes	53	1	453	0	0			0	0			1				0	
6.6.1	win	2023-06-13	04:17:30	04:24:59	442634	62bc3401dc67c7598dbba4a6	4	1	main_slash	11	advance_on_keypress_SLASH	120	stimuli_target_squaretriangles.svg	stimuli_distractor_trianglediamonds.svg	3	yes	57	0	128	0	0			0	0			1				0	
6.6.1	win	2023-06-13	04:17:30	04:25:00	443954	62bc3401dc67c7598dbba4a6	4	1	main_slash	11	main_slash	121	stimuli_target_trianglesquares.svg	stimuli_distractor_trianglediamonds.svg	18	yes	53	1	555	0	0			0	0			1				0	
6.6.1	win	2023-06-13	04:17:30	04:25:00	443954	62bc3401dc67c7598dbba4a6	4	1	main_slash	11	advance_on_keypress_SLASH	122	stimuli_target_trianglesquares.svg	stimuli_distractor_trianglediamonds.svg	18	yes	57	0	123	0	0			0	0			1				0	
6.6.1	win	2023-06-13	04:17:30	04:25:02	445314	62bc3401dc67c7598dbba4a6	4	1	main_slash	11	main_slash	123	stimuli_target_squaretriangles.svg	stimuli_distractor_diamondtriangles.svg	7	yes	53	1	597	0	0			0	0			1				0	
6.6.1	win	2023-06-13	04:17:30	04:25:02	445314	62bc3401dc67c7598dbba4a6	4	1	main_slash	11	advance_on_keypress_SLASH	124	stimuli_target_squaretriangles.svg	stimuli_distractor_diamondtriangles.svg	7	yes	57	0	100	0	0			0	0			1				0	
6.6.1	win	2023-06-13	04:17:30	04:25:03	446571	62bc3401dc67c7598dbba4a6	4	1	main_slash	11	main_slash	125	stimuli_distractor_diamondtriangles.svg	stimuli_target_squarediamonds.svg	16	yes	53	1	518	0	0			0	0			1				0	
6.6.1	win	2023-06-13	04:17:30	04:25:03	446571	62bc3401dc67c7598dbba4a6	4	1	main_slash	11	advance_on_keypress_SLASH	126	stimuli_distractor_diamondtriangles.svg	stimuli_target_squarediamonds.svg	16	yes	57	0	119	0	0			0	0			1				0	
6.6.1	win	2023-06-13	04:17:30	04:25:04	447882	62bc3401dc67c7598dbba4a6	4	1	main_slash	11	main_slash	127	stimuli_target_trianglesquares.svg	stimuli_distractor_diamondtriangles.svg	22	yes	53	1	545	0	0			0	0			1				0	
6.6.1	win	2023-06-13	04:17:30	04:25:04	447882	62bc3401dc67c7598dbba4a6	4	1	main_slash	11	advance_on_keypress_SLASH	128	stimuli_target_trianglesquares.svg	stimuli_distractor_diamondtriangles.svg	22	yes	57	0	98	0	0			0	0			1				0	
6.6.1	win	2023-06-13	04:17:30	04:25:05	449114	62bc3401dc67c7598dbba4a6	4	1	main_slash	11	main_slash	129	stimuli_distractor_trianglediamonds.svg	stimuli_distractor_diamondtriangles.svg	36	no	53	0	492	0	0			0	0			1				0	
6.6.1	win	2023-06-13	04:17:30	04:25:05	449114	62bc3401dc67c7598dbba4a6	4	1	main_slash	11	advance_on_keypress_SLASH	130	stimuli_distractor_trianglediamonds.svg	stimuli_distractor_diamondtriangles.svg	36	no	57	0	167	0	0			0	0			1				0	
6.6.1	win	2023-06-13	04:17:30	04:25:07	450354	62bc3401dc67c7598dbba4a6	4	1	main_slash	11	main_slash	131	stimuli_distractor_trianglediamonds.svg	stimuli_distractor_trianglediamonds.svg	33	no	53	0	431	0	0			0	0			1				0	
6.6.1	win	2023-06-13	04:17:30	04:25:07	450354	62bc3401dc67c7598dbba4a6	4	1	main_slash	11	advance_on_keypress_SLASH	132	stimuli_distractor_trianglediamonds.svg	stimuli_distractor_trianglediamonds.svg	33	no	57	0	68	0	0			0	0			1				0	
6.6.1	win	2023-06-13	04:17:30	04:25:08	451530	62bc3401dc67c7598dbba4a6	4	1	main_slash	11	main_slash	133	stimuli_target_trianglerectangles.svg	stimuli_distractor_trianglediamonds.svg	17	yes	53	1	456	0	0			0	0			1				0	
6.6.1	win	2023-06-13	04:17:30	04:25:08	451530	62bc3401dc67c7598dbba4a6	4	1	main_slash	11	advance_on_keypress_SLASH	134	stimuli_target_trianglerectangles.svg	stimuli_distractor_trianglediamonds.svg	17	yes	57	0	141	0	0			0	0			1				0	
6.6.1	win	2023-06-13	04:17:30	04:25:11	454308	62bc3401dc67c7598dbba4a6	4	1	main_slash	11	main_slash	135	stimuli_distractor_diamondtriangles.svg	stimuli_target_squaretriangles.svg	15	yes	0	0	2000	0	0			0	0			1				0	
6.6.1	win	2023-06-13	04:17:30	04:25:11	454308	62bc3401dc67c7598dbba4a6	4	1	main_slash	11	advance_on_keypress_SLASH	136	stimuli_distractor_diamondtriangles.svg	stimuli_target_squaretriangles.svg	15	yes	57	0	162	0	0			0	0			1				0	
6.6.1	win	2023-06-13	04:17:30	04:25:13	457111	62bc3401dc67c7598dbba4a6	4	1	main_slash	11	main_slash	137	stimuli_distractor_trianglediamonds.svg	stimuli_distractor_diamondtriangles.svg	35	no	0	1	2000	0	0			0	0			1				0	
6.6.1	win	2023-06-13	04:17:30	04:25:13	457111	62bc3401dc67c7598dbba4a6	4	1	main_slash	11	advance_on_keypress_SLASH	138	stimuli_distractor_trianglediamonds.svg	stimuli_distractor_diamondtriangles.svg	35	no	57	0	87	0	0			0	0			1				0	
6.6.1	win	2023-06-13	04:17:30	04:25:16	459847	62bc3401dc67c7598dbba4a6	4	1	main_slash	11	main_slash	139	stimuli_distractor_trianglediamonds.svg	stimuli_target_trianglesquares.svg	26	yes	0	0	2000	0	0			0	0			1				0	
6.6.1	win	2023-06-13	04:17:30	04:25:16	459847	62bc3401dc67c7598dbba4a6	4	1	main_slash	11	advance_on_keypress_SLASH	140	stimuli_distractor_trianglediamonds.svg	stimuli_target_trianglesquares.svg	26	yes	57	0	127	0	0			0	0			1				0	
6.6.1	win	2023-06-13	04:17:30	04:25:19	462616	62bc3401dc67c7598dbba4a6	4	1	main_slash	11	main_slash	141	stimuli_target_diamondsquares.svg	stimuli_distractor_diamondtriangles.svg	24	yes	0	0	2000	0	0			0	0			1				0	
6.6.1	win	2023-06-13	04:17:30	04:25:19	462616	62bc3401dc67c7598dbba4a6	4	1	main_slash	11	advance_on_keypress_SLASH	142	stimuli_target_diamondsquares.svg	stimuli_distractor_diamondtriangles.svg	24	yes	57	0	134	0	0			0	0			1				0	
6.6.1	win	2023-06-13	04:17:30	04:25:22	465402	62bc3401dc67c7598dbba4a6	4	1	main_slash	11	main_slash	143	stimuli_distractor_diamondtriangles.svg	stimuli_distractor_diamondtriangles.svg	39	no	0	1	2000	0	0			0	0			1				0	
6.6.1	win	2023-06-13	04:17:30	04:25:22	465402	62bc3401dc67c7598dbba4a6	4	1	main_slash	11	advance_on_keypress_SLASH	144	stimuli_distractor_diamondtriangles.svg	stimuli_distractor_diamondtriangles.svg	39	no	57	0	604	0	0			0	0			1				0	
6.6.1	win	2023-06-13	04:17:30	04:25:23	467081	62bc3401dc67c7598dbba4a6	4	1	main_slash	11	main_slash	145	stimuli_target_squarediamonds.svg	stimuli_distractor_trianglediamonds.svg	4	yes	53	1	426	0	0			0	0			1				0	
6.6.1	win	2023-06-13	04:17:30	04:25:23	467081	62bc3401dc67c7598dbba4a6	4	1	main_slash	11	advance_on_keypress_SLASH	146	stimuli_target_squarediamonds.svg	stimuli_distractor_trianglediamonds.svg	4	yes	57	0	168	0	0			0	0			1				0	
6.6.1	win	2023-06-13	04:17:30	04:25:25	468369	62bc3401dc67c7598dbba4a6	4	1	main_slash	11	main_slash	147	stimuli_distractor_trianglediamonds.svg	stimuli_target_rectanglediamonds.svg	10	yes	53	1	479	0	0			0	0			1				0	
6.6.1	win	2023-06-13	04:17:30	04:25:25	468369	62bc3401dc67c7598dbba4a6	4	1	main_slash	11	advance_on_keypress_SLASH	148	stimuli_distractor_trianglediamonds.svg	stimuli_target_rectanglediamonds.svg	10	yes	57	0	139	0	0			0	0			1				0	
6.6.1	win	2023-06-13	04:17:30	04:25:26	469545	62bc3401dc67c7598dbba4a6	4	1	main_slash	11	main_slash	149	stimuli_distractor_trianglediamonds.svg	stimuli_target_squarediamonds.svg	12	yes	53	1	404	0	0			0	0			1				0	
6.6.1	win	2023-06-13	04:17:30	04:25:26	469545	62bc3401dc67c7598dbba4a6	4	1	main_slash	11	advance_on_keypress_SLASH	150	stimuli_distractor_trianglediamonds.svg	stimuli_target_squarediamonds.svg	12	yes	57	0	163	0	0			0	0			1				0	
6.6.1	win	2023-06-13	04:17:30	04:25:27	470809	62bc3401dc67c7598dbba4a6	4	1	main_slash	11	main_slash	151	stimuli_distractor_diamondtriangles.svg	stimuli_target_diamondsquares.svg	32	yes	53	1	467	0	0			0	0			1				0	
6.6.1	win	2023-06-13	04:17:30	04:25:27	470809	62bc3401dc67c7598dbba4a6	4	1	main_slash	11	advance_on_keypress_SLASH	152	stimuli_distractor_diamondtriangles.svg	stimuli_target_diamondsquares.svg	32	yes	57	0	135	0	0			0	0			1				0	
6.6.1	win	2023-06-13	04:17:30	04:25:28	472041	62bc3401dc67c7598dbba4a6	4	1	main_slash	11	main_slash	153	stimuli_target_squarediamonds.svg	stimuli_distractor_diamondtriangles.svg	8	yes	53	1	448	0	0			0	0			1				0	
6.6.1	win	2023-06-13	04:17:30	04:25:28	472041	62bc3401dc67c7598dbba4a6	4	1	main_slash	11	advance_on_keypress_SLASH	154	stimuli_target_squarediamonds.svg	stimuli_distractor_diamondtriangles.svg	8	yes	57	0	165	0	0			0	0			1				0	
6.6.1	win	2023-06-13	04:17:30	04:25:29	473257	62bc3401dc67c7598dbba4a6	4	1	main_slash	11	main_slash	155	stimuli_distractor_diamondtriangles.svg	stimuli_target_diamondrectangles.svg	31	yes	53	1	413	0	0			0	0			1				0	
6.6.1	win	2023-06-13	04:17:30	04:25:29	473257	62bc3401dc67c7598dbba4a6	4	1	main_slash	11	advance_on_keypress_SLASH	156	stimuli_distractor_diamondtriangles.svg	stimuli_target_diamondrectangles.svg	31	yes	57	0	163	0	0			0	0			1				0	
6.6.1	win	2023-06-13	04:17:30	04:25:31	474601	62bc3401dc67c7598dbba4a6	4	1	main_slash	11	main_slash	157	stimuli_distractor_diamondtriangles.svg	stimuli_distractor_trianglediamonds.svg	37	no	53	0	555	0	0			0	0			1				0	
6.6.1	win	2023-06-13	04:17:30	04:25:31	474601	62bc3401dc67c7598dbba4a6	4	1	main_slash	11	advance_on_keypress_SLASH	158	stimuli_distractor_diamondtriangles.svg	stimuli_distractor_trianglediamonds.svg	37	no	57	0	100	0	0			0	0			1				0	
6.6.1	win	2023-06-13	04:17:30	04:25:32	475785	62bc3401dc67c7598dbba4a6	4	1	main_slash	11	main_slash	159	stimuli_target_rectanglediamonds.svg	stimuli_distractor_trianglediamonds.svg	2	yes	53	1	438	0	0			0	0			1				0	
6.6.1	win	2023-06-13	04:17:30	04:25:32	475785	62bc3401dc67c7598dbba4a6	4	1	main_slash	11	advance_on_keypress_SLASH	160	stimuli_target_rectanglediamonds.svg	stimuli_distractor_trianglediamonds.svg	2	yes	57	0	131	0	0			0	0			1				0	
6.6.1	win	2023-06-13	04:17:30	04:25:32	475785	62bc3401dc67c7598dbba4a6	4	1	headphonecheck_calibration	14	headphonecheck_calibrationIntro	1	stimuli_target_rectanglediamonds.svg	stimuli_distractor_trianglediamonds.svg	2	yes	calibrationButton	0	773	0	0			0	0			1				0	
6.6.1	win	2023-06-13	04:17:30	04:25:32	475785	62bc3401dc67c7598dbba4a6	4	1	headphonecheck_testphase	15	test_collectResponse	3	stimuli_target_rectanglediamonds.svg	stimuli_distractor_trianglediamonds.svg	2	yes	second	1	4885	1	5	antiphase_hc_osi.wav	2	0	0			1				0	
6.6.1	win	2023-06-13	04:17:30	04:25:32	475785	62bc3401dc67c7598dbba4a6	4	1	headphonecheck_testphase	15	test_collectResponse	6	stimuli_target_rectanglediamonds.svg	stimuli_distractor_trianglediamonds.svg	2	yes	first	1	1153	2	4	antiphase_hc_sio.wav	1	0	0			1				0	
6.6.1	win	2023-06-13	04:17:30	04:25:32	475785	62bc3401dc67c7598dbba4a6	4	1	headphonecheck_testphase	15	test_collectResponse	9	stimuli_target_rectanglediamonds.svg	stimuli_distractor_trianglediamonds.svg	2	yes	third	1	150	3	2	antiphase_hc_ios.wav	3	0	0			1				0	
6.6.1	win	2023-06-13	04:17:30	04:25:32	475785	62bc3401dc67c7598dbba4a6	4	1	headphonecheck_testphase	15	test_collectResponse	12	stimuli_target_rectanglediamonds.svg	stimuli_distractor_trianglediamonds.svg	2	yes	third	1	111	4	6	antiphase_hc_ois.wav	3	0	0			1				0	
6.6.1	win	2023-06-13	04:17:30	04:25:32	475785	62bc3401dc67c7598dbba4a6	4	1	headphonecheck_testphase	15	test_collectResponse	15	stimuli_target_rectanglediamonds.svg	stimuli_distractor_trianglediamonds.svg	2	yes	second	1	167	5	1	antiphase_hc_iso.wav	2	0	0			1				0	
6.6.1	win	2023-06-13	04:17:30	04:25:32	475785	62bc3401dc67c7598dbba4a6	4	1	headphonecheck_testphase	15	test_collectResponse	18	stimuli_target_rectanglediamonds.svg	stimuli_distractor_trianglediamonds.svg	2	yes	first	1	0	6	3	antiphase_hc_soi.wav	1	0	0			1				0	
6.6.1	win	2023-06-13	04:17:30	04:25:32	475785	62bc3401dc67c7598dbba4a6	4	1	stereocheck_calibration	17	stereocheck_calibrationIntro	1	stimuli_target_rectanglediamonds.svg	stimuli_distractor_trianglediamonds.svg	2	yes	stereocheck_calibrationButton	0	764	6	3	antiphase_hc_soi.wav	1	0	0			1				0	
6.6.1	win	2023-06-13	04:17:30	04:25:32	475785	62bc3401dc67c7598dbba4a6	4	1	stereocheck_testphase	18	stereocheck_test_collectResponse	3	stimuli_target_rectanglediamonds.svg	stimuli_distractor_trianglediamonds.svg	2	yes	stereocheck_right	0	85	6	3	antiphase_hc_soi.wav	1	1	1	noise_calib_stim_LEFT.wav	1	1				0	
6.6.1	win	2023-06-13	04:17:30	04:25:32	475785	62bc3401dc67c7598dbba4a6	4	1	stereocheck_testphase	18	stereocheck_test_collectResponse	6	stimuli_target_rectanglediamonds.svg	stimuli_distractor_trianglediamonds.svg	2	yes	stereocheck_right	0	1182	6	3	antiphase_hc_soi.wav	1	2	2	noise_calib_stim_LEFT.wav	1	1				0	
6.6.1	win	2023-06-13	04:17:30	04:25:32	475785	62bc3401dc67c7598dbba4a6	4	1	stereocheck_testphase	18	stereocheck_test_collectResponse	9	stimuli_target_rectanglediamonds.svg	stimuli_distractor_trianglediamonds.svg	2	yes	stereocheck_left	0	78	6	3	antiphase_hc_soi.wav	1	3	4	noise_calib_stim_RIGHT.wav	2	1				0	
6.6.1	win	2023-06-13	04:17:30	04:25:32	475785	62bc3401dc67c7598dbba4a6	4	1	stereocheck_testphase	18	stereocheck_test_collectResponse	12	stimuli_target_rectanglediamonds.svg	stimuli_distractor_trianglediamonds.svg	2	yes	stereocheck_right	0	96	6	3	antiphase_hc_soi.wav	1	4	3	noise_calib_stim_LEFT.wav	1	1				0	
6.6.1	win	2023-06-13	04:17:30	04:25:32	475785	62bc3401dc67c7598dbba4a6	4	1	stereocheck_testphase	18	stereocheck_test_collectResponse	15	stimuli_target_rectanglediamonds.svg	stimuli_distractor_trianglediamonds.svg	2	yes	stereocheck_left	0	80	6	3	antiphase_hc_soi.wav	1	5	5	noise_calib_stim_RIGHT.wav	2	1				0	
6.6.1	win	2023-06-13	04:17:30	04:25:32	475785	62bc3401dc67c7598dbba4a6	4	1	stereocheck_testphase	18	stereocheck_test_collectResponse	18	stimuli_target_rectanglediamonds.svg	stimuli_distractor_trianglediamonds.svg	2	yes	stereocheck_left	0	73	6	3	antiphase_hc_soi.wav	1	6	6	noise_calib_stim_RIGHT.wav	2	1				0	
6.6.1	win	2023-06-13	04:17:30	04:25:32	475785	62bc3401dc67c7598dbba4a6	4	1	DL_practice	21	DL_practice	2	stimuli_target_rectanglediamonds.svg	stimuli_distractor_trianglediamonds.svg	2	yes	ta	1	1052	6	3	antiphase_hc_soi.wav	1	6	6	noise_calib_stim_RIGHT.wav	2	36	blb_dichoticlistening_ta-ta.mp3	ta	ta	0	left
6.6.1	win	2023-06-13	04:17:30	04:25:32	475785	62bc3401dc67c7598dbba4a6	4	1	DL_practice	21	DL_practice	3	stimuli_target_rectanglediamonds.svg	stimuli_distractor_trianglediamonds.svg	2	yes	ta	0	711	6	3	antiphase_hc_soi.wav	1	6	6	noise_calib_stim_RIGHT.wav	2	23	blb_dichoticlistening_ka-pa.mp3	ka	pa	1	other
6.6.1	win	2023-06-13	04:17:30	04:25:32	475785	62bc3401dc67c7598dbba4a6	4	1	DL_practice	21	DL_practice	4	stimuli_target_rectanglediamonds.svg	stimuli_distractor_trianglediamonds.svg	2	yes	ga	0	824	6	3	antiphase_hc_soi.wav	1	6	6	noise_calib_stim_RIGHT.wav	2	7	blb_dichoticlistening_da-ba.mp3	da	ba	1	other
6.6.1	win	2023-06-13	04:17:30	04:25:32	475785	62bc3401dc67c7598dbba4a6	4	1	DL_practice	21	DL_practice	5	stimuli_target_rectanglediamonds.svg	stimuli_distractor_trianglediamonds.svg	2	yes	ga	1	621	6	3	antiphase_hc_soi.wav	1	6	6	noise_calib_stim_RIGHT.wav	2	18	blb_dichoticlistening_ga-ta.mp3	ga	ta	1	left
6.6.1	win	2023-06-13	04:17:30	04:25:32	475785	62bc3401dc67c7598dbba4a6	4	1	DL_practice	21	DL_practice	6	stimuli_target_rectanglediamonds.svg	stimuli_distractor_trianglediamonds.svg	2	yes	pa	1	832	6	3	antiphase_hc_soi.wav	1	6	6	noise_calib_stim_RIGHT.wav	2	29	blb_dichoticlistening_pa-pa.mp3	pa	pa	0	left
6.6.1	win	2023-06-13	04:17:30	04:25:32	475785	62bc3401dc67c7598dbba4a6	4	1	DL_practice	21	DL_practice	7	stimuli_target_rectanglediamonds.svg	stimuli_distractor_trianglediamonds.svg	2	yes	ga	1	709	6	3	antiphase_hc_soi.wav	1	6	6	noise_calib_stim_RIGHT.wav	2	15	blb_dichoticlistening_ga-ga.mp3	ga	ga	0	left
6.6.1	win	2023-06-13	04:17:30	04:25:32	475785	62bc3401dc67c7598dbba4a6	4	1	DL_practice	21	DL_practice	8	stimuli_target_rectanglediamonds.svg	stimuli_distractor_trianglediamonds.svg	2	yes	ba	1	1751	6	3	antiphase_hc_soi.wav	1	6	6	noise_calib_stim_RIGHT.wav	2	1	blb_dichoticlistening_ba-ba.mp3	ba	ba	0	left
6.6.1	win	2023-06-13	04:17:30	04:25:32	475785	62bc3401dc67c7598dbba4a6	4	1	DL_practice	21	DL_practice	9	stimuli_target_rectanglediamonds.svg	stimuli_distractor_trianglediamonds.svg	2	yes	da	1	621	6	3	antiphase_hc_soi.wav	1	6	6	noise_calib_stim_RIGHT.wav	2	8	blb_dichoticlistening_da-da.mp3	da	da	0	left
6.6.1	win	2023-06-13	04:17:30	04:25:32	475785	62bc3401dc67c7598dbba4a6	4	1	DL_practice	21	DL_practice	10	stimuli_target_rectanglediamonds.svg	stimuli_distractor_trianglediamonds.svg	2	yes	ka	1	961	6	3	antiphase_hc_soi.wav	1	6	6	noise_calib_stim_RIGHT.wav	2	22	blb_dichoticlistening_ka-ka.mp3	ka	ka	0	left
6.6.1	win	2023-06-13	04:17:30	04:25:32	475785	62bc3401dc67c7598dbba4a6	4	1	DL_test	23	DL_test	1	stimuli_target_rectanglediamonds.svg	stimuli_distractor_trianglediamonds.svg	2	yes	ba	1	1424	6	3	antiphase_hc_soi.wav	1	6	6	noise_calib_stim_RIGHT.wav	2	1	blb_dichoticlistening_ba-ba.mp3	ba	ba	0	left
6.6.1	win	2023-06-13	04:17:30	04:25:32	475785	62bc3401dc67c7598dbba4a6	4	1	DL_test	23	DL_test	2	stimuli_target_rectanglediamonds.svg	stimuli_distractor_trianglediamonds.svg	2	yes	ba	1	660	6	3	antiphase_hc_soi.wav	1	6	6	noise_calib_stim_RIGHT.wav	2	13	blb_dichoticlistening_ga-ba.mp3	ga	ba	1	right
6.6.1	win	2023-06-13	04:17:30	04:25:32	475785	62bc3401dc67c7598dbba4a6	4	1	DL_test	23	DL_test	3	stimuli_target_rectanglediamonds.svg	stimuli_distractor_trianglediamonds.svg	2	yes	da	1	936	6	3	antiphase_hc_soi.wav	1	6	6	noise_calib_stim_RIGHT.wav	2	2	blb_dichoticlistening_ba-da.mp3	ba	da	1	right
6.6.1	win	2023-06-13	04:17:30	04:25:32	475785	62bc3401dc67c7598dbba4a6	4	1	DL_test	23	DL_test	4	stimuli_target_rectanglediamonds.svg	stimuli_distractor_trianglediamonds.svg	2	yes	ka	1	1079	6	3	antiphase_hc_soi.wav	1	6	6	noise_calib_stim_RIGHT.wav	2	4	blb_dichoticlistening_ba-ka.mp3	ba	ka	1	right
6.6.1	win	2023-06-13	04:17:30	04:25:32	475785	62bc3401dc67c7598dbba4a6	4	1	DL_test	23	DL_test	5	stimuli_target_rectanglediamonds.svg	stimuli_distractor_trianglediamonds.svg	2	yes	pa	1	985	6	3	antiphase_hc_soi.wav	1	6	6	noise_calib_stim_RIGHT.wav	2	28	blb_dichoticlistening_pa-ka.mp3	pa	ka	1	left
6.6.1	win	2023-06-13	04:17:30	04:25:32	475785	62bc3401dc67c7598dbba4a6	4	1	DL_test	23	DL_test	6	stimuli_target_rectanglediamonds.svg	stimuli_distractor_trianglediamonds.svg	2	yes	ta	1	943	6	3	antiphase_hc_soi.wav	1	6	6	noise_calib_stim_RIGHT.wav	2	36	blb_dichoticlistening_ta-ta.mp3	ta	ta	0	left
6.6.1	win	2023-06-13	04:17:30	04:25:32	475785	62bc3401dc67c7598dbba4a6	4	1	DL_test	23	DL_test	7	stimuli_target_rectanglediamonds.svg	stimuli_distractor_trianglediamonds.svg	2	yes	ka	1	1358	6	3	antiphase_hc_soi.wav	1	6	6	noise_calib_stim_RIGHT.wav	2	23	blb_dichoticlistening_ka-pa.mp3	ka	pa	1	left
6.6.1	win	2023-06-13	04:17:30	04:25:32	475785	62bc3401dc67c7598dbba4a6	4	1	DL_test	23	DL_test	8	stimuli_target_rectanglediamonds.svg	stimuli_distractor_trianglediamonds.svg	2	yes	ka	1	725	6	3	antiphase_hc_soi.wav	1	6	6	noise_calib_stim_RIGHT.wav	2	34	blb_dichoticlistening_ta-ka.mp3	ta	ka	1	right
6.6.1	win	2023-06-13	04:17:30	04:25:32	475785	62bc3401dc67c7598dbba4a6	4	1	DL_test	23	DL_test	9	stimuli_target_rectanglediamonds.svg	stimuli_distractor_trianglediamonds.svg	2	yes	pa	1	599	6	3	antiphase_hc_soi.wav	1	6	6	noise_calib_stim_RIGHT.wav	2	5	blb_dichoticlistening_ba-pa.mp3	ba	pa	1	right
6.6.1	win	2023-06-13	04:17:30	04:25:32	475785	62bc3401dc67c7598dbba4a6	4	1	DL_test	23	DL_test	10	stimuli_target_rectanglediamonds.svg	stimuli_distractor_trianglediamonds.svg	2	yes	da	1	659	6	3	antiphase_hc_soi.wav	1	6	6	noise_calib_stim_RIGHT.wav	2	12	blb_dichoticlistening_da-ta.mp3	da	ta	1	left
6.6.1	win	2023-06-13	04:17:30	04:25:32	475785	62bc3401dc67c7598dbba4a6	4	1	DL_test	23	DL_test	11	stimuli_target_rectanglediamonds.svg	stimuli_distractor_trianglediamonds.svg	2	yes	ga	1	1061	6	3	antiphase_hc_soi.wav	1	6	6	noise_calib_stim_RIGHT.wav	2	18	blb_dichoticlistening_ga-ta.mp3	ga	ta	1	left
6.6.1	win	2023-06-13	04:17:30	04:25:32	475785	62bc3401dc67c7598dbba4a6	4	1	DL_test	23	DL_test	12	stimuli_target_rectanglediamonds.svg	stimuli_distractor_trianglediamonds.svg	2	yes	ka	1	768	6	3	antiphase_hc_soi.wav	1	6	6	noise_calib_stim_RIGHT.wav	2	21	blb_dichoticlistening_ka-ga.mp3	ka	ga	1	left
6.6.1	win	2023-06-13	04:17:30	04:25:32	475785	62bc3401dc67c7598dbba4a6	4	1	DL_test	23	DL_test	13	stimuli_target_rectanglediamonds.svg	stimuli_distractor_trianglediamonds.svg	2	yes	ga	1	511	6	3	antiphase_hc_soi.wav	1	6	6	noise_calib_stim_RIGHT.wav	2	15	blb_dichoticlistening_ga-ga.mp3	ga	ga	0	left
6.6.1	win	2023-06-13	04:17:30	04:25:32	475785	62bc3401dc67c7598dbba4a6	4	1	DL_test	23	DL_test	14	stimuli_target_rectanglediamonds.svg	stimuli_distractor_trianglediamonds.svg	2	yes	pa	0	817	6	3	antiphase_hc_soi.wav	1	6	6	noise_calib_stim_RIGHT.wav	2	10	blb_dichoticlistening_da-ka.mp3	da	ka	1	other
6.6.1	win	2023-06-13	04:17:30	04:25:32	475785	62bc3401dc67c7598dbba4a6	4	1	DL_test	23	DL_test	15	stimuli_target_rectanglediamonds.svg	stimuli_distractor_trianglediamonds.svg	2	yes	da	1	1210	6	3	antiphase_hc_soi.wav	1	6	6	noise_calib_stim_RIGHT.wav	2	7	blb_dichoticlistening_da-ba.mp3	da	ba	1	left
6.6.1	win	2023-06-13	04:17:30	04:25:32	475785	62bc3401dc67c7598dbba4a6	4	1	DL_test	23	DL_test	16	stimuli_target_rectanglediamonds.svg	stimuli_distractor_trianglediamonds.svg	2	yes	ka	1	1167	6	3	antiphase_hc_soi.wav	1	6	6	noise_calib_stim_RIGHT.wav	2	22	blb_dichoticlistening_ka-ka.mp3	ka	ka	0	left
6.6.1	win	2023-06-13	04:17:30	04:25:32	475785	62bc3401dc67c7598dbba4a6	4	1	DL_test	23	DL_test	17	stimuli_target_rectanglediamonds.svg	stimuli_distractor_trianglediamonds.svg	2	yes	ka	1	734	6	3	antiphase_hc_soi.wav	1	6	6	noise_calib_stim_RIGHT.wav	2	19	blb_dichoticlistening_ka-ba.mp3	ka	ba	1	left
6.6.1	win	2023-06-13	04:17:30	04:25:32	475785	62bc3401dc67c7598dbba4a6	4	1	DL_test	23	DL_test	18	stimuli_target_rectanglediamonds.svg	stimuli_distractor_trianglediamonds.svg	2	yes	pa	1	838	6	3	antiphase_hc_soi.wav	1	6	6	noise_calib_stim_RIGHT.wav	2	25	blb_dichoticlistening_pa-ba.mp3	pa	ba	1	left
6.6.1	win	2023-06-13	04:17:30	04:25:32	475785	62bc3401dc67c7598dbba4a6	4	1	DL_test	23	DL_test	19	stimuli_target_rectanglediamonds.svg	stimuli_distractor_trianglediamonds.svg	2	yes	pa	1	994	6	3	antiphase_hc_soi.wav	1	6	6	noise_calib_stim_RIGHT.wav	2	26	blb_dichoticlistening_pa-da.mp3	pa	da	1	left
6.6.1	win	2023-06-13	04:17:30	04:25:32	475785	62bc3401dc67c7598dbba4a6	4	1	DL_test	23	DL_test	20	stimuli_target_rectanglediamonds.svg	stimuli_distractor_trianglediamonds.svg	2	yes	pa	1	664	6	3	antiphase_hc_soi.wav	1	6	6	noise_calib_stim_RIGHT.wav	2	27	blb_dichoticlistening_pa-ga.mp3	pa	ga	1	left
6.6.1	win	2023-06-13	04:17:30	04:25:32	475785	62bc3401dc67c7598dbba4a6	4	1	DL_test	23	DL_test	21	stimuli_target_rectanglediamonds.svg	stimuli_distractor_trianglediamonds.svg	2	yes	ta	1	747	6	3	antiphase_hc_soi.wav	1	6	6	noise_calib_stim_RIGHT.wav	2	35	blb_dichoticlistening_ta-pa.mp3	ta	pa	1	left
6.6.1	win	2023-06-13	04:17:30	04:25:32	475785	62bc3401dc67c7598dbba4a6	4	1	DL_test	23	DL_test	22	stimuli_target_rectanglediamonds.svg	stimuli_distractor_trianglediamonds.svg	2	yes	ka	1	1490	6	3	antiphase_hc_soi.wav	1	6	6	noise_calib_stim_RIGHT.wav	2	20	blb_dichoticlistening_ka-da.mp3	ka	da	1	left
6.6.1	win	2023-06-13	04:17:30	04:25:32	475785	62bc3401dc67c7598dbba4a6	4	1	DL_test	23	DL_test	23	stimuli_target_rectanglediamonds.svg	stimuli_distractor_trianglediamonds.svg	2	yes	ta	1	1499	6	3	antiphase_hc_soi.wav	1	6	6	noise_calib_stim_RIGHT.wav	2	32	blb_dichoticlistening_ta-da.mp3	ta	da	1	left
6.6.1	win	2023-06-13	04:17:30	04:25:32	475785	62bc3401dc67c7598dbba4a6	4	1	DL_test	23	DL_test	24	stimuli_target_rectanglediamonds.svg	stimuli_distractor_trianglediamonds.svg	2	yes	ta	0	955	6	3	antiphase_hc_soi.wav	1	6	6	noise_calib_stim_RIGHT.wav	2	11	blb_dichoticlistening_da-pa.mp3	da	pa	1	other
6.6.1	win	2023-06-13	04:17:30	04:25:32	475785	62bc3401dc67c7598dbba4a6	4	1	DL_test	23	DL_test	25	stimuli_target_rectanglediamonds.svg	stimuli_distractor_trianglediamonds.svg	2	yes	ga	1	921	6	3	antiphase_hc_soi.wav	1	6	6	noise_calib_stim_RIGHT.wav	2	9	blb_dichoticlistening_da-ga.mp3	da	ga	1	right
6.6.1	win	2023-06-13	04:17:30	04:25:32	475785	62bc3401dc67c7598dbba4a6	4	1	DL_test	23	DL_test	26	stimuli_target_rectanglediamonds.svg	stimuli_distractor_trianglediamonds.svg	2	yes	ka	1	2608	6	3	antiphase_hc_soi.wav	1	6	6	noise_calib_stim_RIGHT.wav	2	24	blb_dichoticlistening_ka-ta.mp3	ka	ta	1	left
