build	computer.platform	date	time	timestamp	time_elapsed_ms	subject	group	session	blockcode	blocknum	trialcode	trialnum	stimulus_left	stimulus_right	stim_index	target_present	response	correct	latency	headphonecheck_countTestTrials	headphonecheck_index	headphonecheck_testSound	headphonecheck_correctResponse	stereocheck_countTestTrials	stereocheck_index	stereocheck_testSound	stereocheck_correctResponse	DL_index	DL_soundfile	DL_leftSound	DL_rightSound	DL_dualSound	DL_choice
6.6.1	mac	2023-06-27	09:25:03	09:31:47	399721	603ed5d8d98e95fc0e0a67a9	3	1	practice_slash	5	practice_slash	1	stimuli_distractor_diamondtriangles.svg	stimuli_target_diamondrectangles.svg	8	yes	0	0	2000	0	0			0	0			1				0	
6.6.1	mac	2023-06-27	09:25:03	09:31:47	399721	603ed5d8d98e95fc0e0a67a9	3	1	practice_slash	5	advance_on_keypress_SLASH	2	stimuli_distractor_diamondtriangles.svg	stimuli_target_diamondrectangles.svg	8	yes	57	0	1552	0	0			0	0			1				0	
6.6.1	mac	2023-06-27	09:25:03	09:31:51	404343	603ed5d8d98e95fc0e0a67a9	3	1	practice_slash	5	practice_slash	3	stimuli_distractor_trianglediamonds.svg	stimuli_target_diamondrectangles.svg	12	yes	53	1	1432	0	0			0	0			1				0	
6.6.1	mac	2023-06-27	09:25:03	09:31:51	404343	603ed5d8d98e95fc0e0a67a9	3	1	practice_slash	5	advance_on_keypress_SLASH	4	stimuli_distractor_trianglediamonds.svg	stimuli_target_diamondrectangles.svg	12	yes	57	0	1812	0	0			0	0			1				0	
6.6.1	mac	2023-06-27	09:25:03	09:31:55	408167	603ed5d8d98e95fc0e0a67a9	3	1	practice_slash	5	practice_slash	5	stimuli_distractor_diamondtriangles.svg	stimuli_distractor_trianglediamonds.svg	14	no	53	0	386	0	0			0	0			1				0	
6.6.1	mac	2023-06-27	09:25:03	09:31:55	408167	603ed5d8d98e95fc0e0a67a9	3	1	practice_slash	5	advance_on_keypress_SLASH	6	stimuli_distractor_diamondtriangles.svg	stimuli_distractor_trianglediamonds.svg	14	no	57	0	1016	0	0			0	0			1				0	
6.6.1	mac	2023-06-27	09:25:03	09:31:58	411479	603ed5d8d98e95fc0e0a67a9	3	1	practice_slash	5	practice_slash	7	stimuli_target_rectanglediamonds.svg	stimuli_distractor_diamondtriangles.svg	1	yes	53	1	662	0	0			0	0			1				0	
6.6.1	mac	2023-06-27	09:25:03	09:31:58	411479	603ed5d8d98e95fc0e0a67a9	3	1	practice_slash	5	advance_on_keypress_SLASH	8	stimuli_target_rectanglediamonds.svg	stimuli_distractor_diamondtriangles.svg	1	yes	57	0	593	0	0			0	0			1				0	
6.6.1	mac	2023-06-27	09:25:03	09:32:01	414167	603ed5d8d98e95fc0e0a67a9	3	1	practice_slash	5	practice_slash	9	stimuli_distractor_trianglediamonds.svg	stimuli_distractor_diamondtriangles.svg	16	no	53	0	482	0	0			0	0			1				0	
6.6.1	mac	2023-06-27	09:25:03	09:32:01	414167	603ed5d8d98e95fc0e0a67a9	3	1	practice_slash	5	advance_on_keypress_SLASH	10	stimuli_distractor_trianglediamonds.svg	stimuli_distractor_diamondtriangles.svg	16	no	57	0	1492	0	0			0	0			1				0	
6.6.1	mac	2023-06-27	09:25:03	09:32:04	417607	603ed5d8d98e95fc0e0a67a9	3	1	practice_slash	5	practice_slash	11	stimuli_target_rectanglediamonds.svg	stimuli_distractor_trianglediamonds.svg	4	yes	53	1	318	0	0			0	0			1				0	
6.6.1	mac	2023-06-27	09:25:03	09:32:04	417607	603ed5d8d98e95fc0e0a67a9	3	1	practice_slash	5	advance_on_keypress_SLASH	12	stimuli_target_rectanglediamonds.svg	stimuli_distractor_trianglediamonds.svg	4	yes	57	0	103	0	0			0	0			1				0	
6.6.1	mac	2023-06-27	09:25:03	09:32:07	419767	603ed5d8d98e95fc0e0a67a9	3	1	practice_slash	5	practice_slash	13	stimuli_distractor_trianglediamonds.svg	stimuli_distractor_trianglediamonds.svg	15	no	53	0	427	0	0			0	0			1				0	
6.6.1	mac	2023-06-27	09:25:03	09:32:07	419767	603ed5d8d98e95fc0e0a67a9	3	1	practice_slash	5	advance_on_keypress_SLASH	14	stimuli_distractor_trianglediamonds.svg	stimuli_distractor_trianglediamonds.svg	15	no	57	0	1343	0	0			0	0			1				0	
6.6.1	mac	2023-06-27	09:25:03	09:32:10	423096	603ed5d8d98e95fc0e0a67a9	3	1	practice_slash	5	practice_slash	15	stimuli_distractor_diamondtriangles.svg	stimuli_target_rectangletriangles.svg	7	yes	53	1	351	0	0			0	0			1				0	
6.6.1	mac	2023-06-27	09:25:03	09:32:10	423096	603ed5d8d98e95fc0e0a67a9	3	1	practice_slash	5	advance_on_keypress_SLASH	16	stimuli_distractor_diamondtriangles.svg	stimuli_target_rectangletriangles.svg	7	yes	57	0	567	0	0			0	0			1				0	
6.6.1	mac	2023-06-27	09:25:03	09:32:13	425912	603ed5d8d98e95fc0e0a67a9	3	1	practice_slash	5	practice_slash	17	stimuli_distractor_diamondtriangles.svg	stimuli_target_trianglerectangles.svg	9	yes	53	1	615	0	0			0	0			1				0	
6.6.1	mac	2023-06-27	09:25:03	09:32:13	425912	603ed5d8d98e95fc0e0a67a9	3	1	practice_slash	5	advance_on_keypress_SLASH	18	stimuli_distractor_diamondtriangles.svg	stimuli_target_trianglerectangles.svg	9	yes	57	0	420	0	0			0	0			1				0	
6.6.1	mac	2023-06-27	09:25:03	09:32:15	428424	603ed5d8d98e95fc0e0a67a9	3	1	practice_slash	5	practice_slash	19	stimuli_distractor_diamondtriangles.svg	stimuli_distractor_diamondtriangles.svg	13	no	53	0	458	0	0			0	0			1				0	
6.6.1	mac	2023-06-27	09:25:03	09:32:15	428424	603ed5d8d98e95fc0e0a67a9	3	1	practice_slash	5	advance_on_keypress_SLASH	20	stimuli_distractor_diamondtriangles.svg	stimuli_distractor_diamondtriangles.svg	13	no	57	0	317	0	0			0	0			1				0	
6.6.1	mac	2023-06-27	09:25:03	09:32:18	430855	603ed5d8d98e95fc0e0a67a9	3	1	practice_slash	5	practice_slash	21	stimuli_target_squarediamonds.svg	stimuli_distractor_diamondtriangles.svg	2	yes	53	1	488	0	0			0	0			1				0	
6.6.1	mac	2023-06-27	09:25:03	09:32:18	430855	603ed5d8d98e95fc0e0a67a9	3	1	practice_slash	5	advance_on_keypress_SLASH	22	stimuli_target_squarediamonds.svg	stimuli_distractor_diamondtriangles.svg	2	yes	57	0	587	0	0			0	0			1				0	
6.6.1	mac	2023-06-27	09:25:03	09:32:20	433511	603ed5d8d98e95fc0e0a67a9	3	1	practice_slash	5	practice_slash	23	stimuli_target_squarediamonds.svg	stimuli_distractor_trianglediamonds.svg	5	yes	53	1	442	0	0			0	0			1				0	
6.6.1	mac	2023-06-27	09:25:03	09:32:20	433511	603ed5d8d98e95fc0e0a67a9	3	1	practice_slash	5	advance_on_keypress_SLASH	24	stimuli_target_squarediamonds.svg	stimuli_distractor_trianglediamonds.svg	5	yes	57	0	1247	0	0			0	0			1				0	
6.6.1	mac	2023-06-27	09:25:03	09:32:24	436759	603ed5d8d98e95fc0e0a67a9	3	1	practice_slash	5	practice_slash	25	stimuli_distractor_trianglediamonds.svg	stimuli_target_rectanglediamonds.svg	10	yes	53	1	372	0	0			0	0			1				0	
6.6.1	mac	2023-06-27	09:25:03	09:32:24	436759	603ed5d8d98e95fc0e0a67a9	3	1	practice_slash	5	advance_on_keypress_SLASH	26	stimuli_distractor_trianglediamonds.svg	stimuli_target_rectanglediamonds.svg	10	yes	57	0	441	0	0			0	0			1				0	
6.6.1	mac	2023-06-27	09:25:03	09:32:26	439239	603ed5d8d98e95fc0e0a67a9	3	1	practice_slash	5	practice_slash	27	stimuli_target_diamondsquares.svg	stimuli_distractor_diamondtriangles.svg	3	yes	53	1	399	0	0			0	0			1				0	
6.6.1	mac	2023-06-27	09:25:03	09:32:26	439239	603ed5d8d98e95fc0e0a67a9	3	1	practice_slash	5	advance_on_keypress_SLASH	28	stimuli_target_diamondsquares.svg	stimuli_distractor_diamondtriangles.svg	3	yes	57	0	836	0	0			0	0			1				0	
6.6.1	mac	2023-06-27	09:25:03	09:32:29	442007	603ed5d8d98e95fc0e0a67a9	3	1	practice_slash	5	practice_slash	29	stimuli_target_diamondsquares.svg	stimuli_distractor_trianglediamonds.svg	6	yes	53	1	297	0	0			0	0			1				0	
6.6.1	mac	2023-06-27	09:25:03	09:32:29	442007	603ed5d8d98e95fc0e0a67a9	3	1	practice_slash	5	advance_on_keypress_SLASH	30	stimuli_target_diamondsquares.svg	stimuli_distractor_trianglediamonds.svg	6	yes	57	0	435	0	0			0	0			1				0	
6.6.1	mac	2023-06-27	09:25:03	09:32:31	444375	603ed5d8d98e95fc0e0a67a9	3	1	practice_slash	5	practice_slash	31	stimuli_distractor_trianglediamonds.svg	stimuli_target_squarediamonds.svg	11	yes	53	1	298	0	0			0	0			1				0	
6.6.1	mac	2023-06-27	09:25:03	09:32:31	444375	603ed5d8d98e95fc0e0a67a9	3	1	practice_slash	5	advance_on_keypress_SLASH	32	stimuli_distractor_trianglediamonds.svg	stimuli_target_squarediamonds.svg	11	yes	57	0	370	0	0			0	0			1				0	
6.6.1	mac	2023-06-27	09:25:03	09:32:54	467327	603ed5d8d98e95fc0e0a67a9	3	1	main_slash	7	main_slash	1	stimuli_distractor_diamondtriangles.svg	stimuli_target_squaretriangles.svg	15	yes	53	1	312	0	0			0	0			1				0	
6.6.1	mac	2023-06-27	09:25:03	09:32:54	467327	603ed5d8d98e95fc0e0a67a9	3	1	main_slash	7	advance_on_keypress_SLASH	2	stimuli_distractor_diamondtriangles.svg	stimuli_target_squaretriangles.svg	15	yes	57	0	331	0	0			0	0			1				0	
6.6.1	mac	2023-06-27	09:25:03	09:32:55	468575	603ed5d8d98e95fc0e0a67a9	3	1	main_slash	7	main_slash	3	stimuli_distractor_diamondtriangles.svg	stimuli_target_diamondsquares.svg	32	yes	53	1	276	0	0			0	0			1				0	
6.6.1	mac	2023-06-27	09:25:03	09:32:55	468575	603ed5d8d98e95fc0e0a67a9	3	1	main_slash	7	advance_on_keypress_SLASH	4	stimuli_distractor_diamondtriangles.svg	stimuli_target_diamondsquares.svg	32	yes	57	0	216	0	0			0	0			1				0	
6.6.1	mac	2023-06-27	09:25:03	09:32:56	469487	603ed5d8d98e95fc0e0a67a9	3	1	main_slash	7	main_slash	5	stimuli_target_diamondsquares.svg	stimuli_distractor_diamondtriangles.svg	24	yes	53	1	71	0	0			0	0			1				0	
6.6.1	mac	2023-06-27	09:25:03	09:32:56	469487	603ed5d8d98e95fc0e0a67a9	3	1	main_slash	7	advance_on_keypress_SLASH	6	stimuli_target_diamondsquares.svg	stimuli_distractor_diamondtriangles.svg	24	yes	57	0	179	0	0			0	0			1				0	
6.6.1	mac	2023-06-27	09:25:03	09:32:57	470543	603ed5d8d98e95fc0e0a67a9	3	1	main_slash	7	main_slash	7	stimuli_target_diamondrectangles.svg	stimuli_distractor_trianglediamonds.svg	19	yes	53	1	259	0	0			0	0			1				0	
6.6.1	mac	2023-06-27	09:25:03	09:32:57	470543	603ed5d8d98e95fc0e0a67a9	3	1	main_slash	7	advance_on_keypress_SLASH	8	stimuli_target_diamondrectangles.svg	stimuli_distractor_trianglediamonds.svg	19	yes	57	0	183	0	0			0	0			1				0	
6.6.1	mac	2023-06-27	09:25:03	09:32:59	471631	603ed5d8d98e95fc0e0a67a9	3	1	main_slash	7	main_slash	9	stimuli_target_rectanglediamonds.svg	stimuli_distractor_diamondtriangles.svg	6	yes	53	1	279	0	0			0	0			1				0	
6.6.1	mac	2023-06-27	09:25:03	09:32:59	471631	603ed5d8d98e95fc0e0a67a9	3	1	main_slash	7	advance_on_keypress_SLASH	10	stimuli_target_rectanglediamonds.svg	stimuli_distractor_diamondtriangles.svg	6	yes	57	0	154	0	0			0	0			1				0	
6.6.1	mac	2023-06-27	09:25:03	09:33:00	472671	603ed5d8d98e95fc0e0a67a9	3	1	main_slash	7	main_slash	11	stimuli_target_trianglesquares.svg	stimuli_distractor_trianglediamonds.svg	18	yes	53	1	253	0	0			0	0			1				0	
6.6.1	mac	2023-06-27	09:25:03	09:33:00	472671	603ed5d8d98e95fc0e0a67a9	3	1	main_slash	7	advance_on_keypress_SLASH	12	stimuli_target_trianglesquares.svg	stimuli_distractor_trianglediamonds.svg	18	yes	57	0	208	0	0			0	0			1				0	
6.6.1	mac	2023-06-27	09:25:03	09:33:01	473695	603ed5d8d98e95fc0e0a67a9	3	1	main_slash	7	main_slash	13	stimuli_distractor_trianglediamonds.svg	stimuli_distractor_diamondtriangles.svg	36	no	53	0	191	0	0			0	0			1				0	
6.6.1	mac	2023-06-27	09:25:03	09:33:01	473695	603ed5d8d98e95fc0e0a67a9	3	1	main_slash	7	advance_on_keypress_SLASH	14	stimuli_distractor_trianglediamonds.svg	stimuli_distractor_diamondtriangles.svg	36	no	57	0	158	0	0			0	0			1				0	
6.6.1	mac	2023-06-27	09:25:03	09:33:02	474751	603ed5d8d98e95fc0e0a67a9	3	1	main_slash	7	main_slash	15	stimuli_distractor_diamondtriangles.svg	stimuli_distractor_trianglediamonds.svg	37	no	53	0	263	0	0			0	0			1				0	
6.6.1	mac	2023-06-27	09:25:03	09:33:02	474751	603ed5d8d98e95fc0e0a67a9	3	1	main_slash	7	advance_on_keypress_SLASH	16	stimuli_distractor_diamondtriangles.svg	stimuli_distractor_trianglediamonds.svg	37	no	57	0	156	0	0			0	0			1				0	
6.6.1	mac	2023-06-27	09:25:03	09:33:03	475791	603ed5d8d98e95fc0e0a67a9	3	1	main_slash	7	main_slash	17	stimuli_target_diamondsquares.svg	stimuli_distractor_trianglediamonds.svg	20	yes	53	1	252	0	0			0	0			1				0	
6.6.1	mac	2023-06-27	09:25:03	09:33:03	475791	603ed5d8d98e95fc0e0a67a9	3	1	main_slash	7	advance_on_keypress_SLASH	18	stimuli_target_diamondsquares.svg	stimuli_distractor_trianglediamonds.svg	20	yes	57	0	161	0	0			0	0			1				0	
6.6.1	mac	2023-06-27	09:25:03	09:33:04	476879	603ed5d8d98e95fc0e0a67a9	3	1	main_slash	7	main_slash	19	stimuli_distractor_diamondtriangles.svg	stimuli_target_trianglerectangles.svg	29	yes	53	1	306	0	0			0	0			1				0	
6.6.1	mac	2023-06-27	09:25:03	09:33:04	476879	603ed5d8d98e95fc0e0a67a9	3	1	main_slash	7	advance_on_keypress_SLASH	20	stimuli_distractor_diamondtriangles.svg	stimuli_target_trianglerectangles.svg	29	yes	57	0	213	0	0			0	0			1				0	
6.6.1	mac	2023-06-27	09:25:03	09:33:07	479721	603ed5d8d98e95fc0e0a67a9	3	1	main_slash	7	main_slash	21	stimuli_distractor_diamondtriangles.svg	stimuli_target_diamondrectangles.svg	31	yes	0	0	2000	0	0			0	0			1				0	
6.6.1	mac	2023-06-27	09:25:03	09:33:07	479721	603ed5d8d98e95fc0e0a67a9	3	1	main_slash	7	advance_on_keypress_SLASH	22	stimuli_distractor_diamondtriangles.svg	stimuli_target_diamondrectangles.svg	31	yes	57	0	913	0	0			0	0			1				0	
6.6.1	mac	2023-06-27	09:25:03	09:33:09	481711	603ed5d8d98e95fc0e0a67a9	3	1	main_slash	7	main_slash	23	stimuli_distractor_trianglediamonds.svg	stimuli_target_rectanglediamonds.svg	10	yes	53	1	451	0	0			0	0			1				0	
6.6.1	mac	2023-06-27	09:25:03	09:33:09	481711	603ed5d8d98e95fc0e0a67a9	3	1	main_slash	7	advance_on_keypress_SLASH	24	stimuli_distractor_trianglediamonds.svg	stimuli_target_rectanglediamonds.svg	10	yes	57	0	239	0	0			0	0			1				0	
6.6.1	mac	2023-06-27	09:25:03	09:33:10	482863	603ed5d8d98e95fc0e0a67a9	3	1	main_slash	7	main_slash	25	stimuli_target_squaretriangles.svg	stimuli_distractor_diamondtriangles.svg	7	yes	53	1	285	0	0			0	0			1				0	
6.6.1	mac	2023-06-27	09:25:03	09:33:10	482863	603ed5d8d98e95fc0e0a67a9	3	1	main_slash	7	advance_on_keypress_SLASH	26	stimuli_target_squaretriangles.svg	stimuli_distractor_diamondtriangles.svg	7	yes	57	0	144	0	0			0	0			1				0	
6.6.1	mac	2023-06-27	09:25:03	09:33:11	483871	603ed5d8d98e95fc0e0a67a9	3	1	main_slash	7	main_slash	27	stimuli_distractor_diamondtriangles.svg	stimuli_distractor_diamondtriangles.svg	39	no	53	0	242	0	0			0	0			1				0	
6.6.1	mac	2023-06-27	09:25:03	09:33:11	483871	603ed5d8d98e95fc0e0a67a9	3	1	main_slash	7	advance_on_keypress_SLASH	28	stimuli_distractor_diamondtriangles.svg	stimuli_distractor_diamondtriangles.svg	39	no	57	0	135	0	0			0	0			1				0	
6.6.1	mac	2023-06-27	09:25:03	09:33:12	484927	603ed5d8d98e95fc0e0a67a9	3	1	main_slash	7	main_slash	29	stimuli_distractor_trianglediamonds.svg	stimuli_distractor_diamondtriangles.svg	35	no	53	0	297	0	0			0	0			1				0	
6.6.1	mac	2023-06-27	09:25:03	09:33:12	484927	603ed5d8d98e95fc0e0a67a9	3	1	main_slash	7	advance_on_keypress_SLASH	30	stimuli_distractor_trianglediamonds.svg	stimuli_distractor_diamondtriangles.svg	35	no	57	0	109	0	0			0	0			1				0	
6.6.1	mac	2023-06-27	09:25:03	09:33:13	485967	603ed5d8d98e95fc0e0a67a9	3	1	main_slash	7	main_slash	31	stimuli_target_squarediamonds.svg	stimuli_distractor_trianglediamonds.svg	4	yes	53	1	304	0	0			0	0			1				0	
6.6.1	mac	2023-06-27	09:25:03	09:33:13	485967	603ed5d8d98e95fc0e0a67a9	3	1	main_slash	7	advance_on_keypress_SLASH	32	stimuli_target_squarediamonds.svg	stimuli_distractor_trianglediamonds.svg	4	yes	57	0	146	0	0			0	0			1				0	
6.6.1	mac	2023-06-27	09:25:03	09:33:14	487023	603ed5d8d98e95fc0e0a67a9	3	1	main_slash	7	main_slash	33	stimuli_distractor_trianglediamonds.svg	stimuli_distractor_trianglediamonds.svg	34	no	53	0	275	0	0			0	0			1				0	
6.6.1	mac	2023-06-27	09:25:03	09:33:14	487023	603ed5d8d98e95fc0e0a67a9	3	1	main_slash	7	advance_on_keypress_SLASH	34	stimuli_distractor_trianglediamonds.svg	stimuli_distractor_trianglediamonds.svg	34	no	57	0	152	0	0			0	0			1				0	
6.6.1	mac	2023-06-27	09:25:03	09:33:15	488095	603ed5d8d98e95fc0e0a67a9	3	1	main_slash	7	main_slash	35	stimuli_distractor_diamondtriangles.svg	stimuli_distractor_trianglediamonds.svg	38	no	53	0	296	0	0			0	0			1				0	
6.6.1	mac	2023-06-27	09:25:03	09:33:15	488095	603ed5d8d98e95fc0e0a67a9	3	1	main_slash	7	advance_on_keypress_SLASH	36	stimuli_distractor_diamondtriangles.svg	stimuli_distractor_trianglediamonds.svg	38	no	57	0	107	0	0			0	0			1				0	
6.6.1	mac	2023-06-27	09:25:03	09:33:16	488959	603ed5d8d98e95fc0e0a67a9	3	1	main_slash	7	main_slash	37	stimuli_target_rectanglediamonds.svg	stimuli_distractor_trianglediamonds.svg	2	yes	53	1	126	0	0			0	0			1				0	
6.6.1	mac	2023-06-27	09:25:03	09:33:16	488959	603ed5d8d98e95fc0e0a67a9	3	1	main_slash	7	advance_on_keypress_SLASH	38	stimuli_target_rectanglediamonds.svg	stimuli_distractor_trianglediamonds.svg	2	yes	57	0	184	0	0			0	0			1				0	
6.6.1	mac	2023-06-27	09:25:03	09:33:17	489855	603ed5d8d98e95fc0e0a67a9	3	1	main_slash	7	main_slash	39	stimuli_target_trianglerectangles.svg	stimuli_distractor_trianglediamonds.svg	17	yes	53	1	88	0	0			0	0			1				0	
6.6.1	mac	2023-06-27	09:25:03	09:33:17	489855	603ed5d8d98e95fc0e0a67a9	3	1	main_slash	7	advance_on_keypress_SLASH	40	stimuli_target_trianglerectangles.svg	stimuli_distractor_trianglediamonds.svg	17	yes	57	0	196	0	0			0	0			1				0	
6.6.1	mac	2023-06-27	09:25:03	09:33:18	490767	603ed5d8d98e95fc0e0a67a9	3	1	main_slash	7	main_slash	41	stimuli_distractor_trianglediamonds.svg	stimuli_target_trianglerectangles.svg	25	yes	53	1	82	0	0			0	0			1				0	
6.6.1	mac	2023-06-27	09:25:03	09:33:18	490767	603ed5d8d98e95fc0e0a67a9	3	1	main_slash	7	advance_on_keypress_SLASH	42	stimuli_distractor_trianglediamonds.svg	stimuli_target_trianglerectangles.svg	25	yes	57	0	702	0	0			0	0			1				0	
6.6.1	mac	2023-06-27	09:25:03	09:33:20	492639	603ed5d8d98e95fc0e0a67a9	3	1	main_slash	7	main_slash	43	stimuli_target_trianglesquares.svg	stimuli_distractor_diamondtriangles.svg	22	yes	53	1	537	0	0			0	0			1				0	
6.6.1	mac	2023-06-27	09:25:03	09:33:20	492639	603ed5d8d98e95fc0e0a67a9	3	1	main_slash	7	advance_on_keypress_SLASH	44	stimuli_target_trianglesquares.svg	stimuli_distractor_diamondtriangles.svg	22	yes	57	0	193	0	0			0	0			1				0	
6.6.1	mac	2023-06-27	09:25:03	09:33:22	495451	603ed5d8d98e95fc0e0a67a9	3	1	main_slash	7	main_slash	45	stimuli_distractor_trianglediamonds.svg	stimuli_target_squaretriangles.svg	11	yes	0	0	2000	0	0			0	0			1				0	
6.6.1	mac	2023-06-27	09:25:03	09:33:22	495451	603ed5d8d98e95fc0e0a67a9	3	1	main_slash	7	advance_on_keypress_SLASH	46	stimuli_distractor_trianglediamonds.svg	stimuli_target_squaretriangles.svg	11	yes	57	0	719	0	0			0	0			1				0	
6.6.1	mac	2023-06-27	09:25:03	09:33:24	497295	603ed5d8d98e95fc0e0a67a9	3	1	main_slash	7	main_slash	47	stimuli_target_squarediamonds.svg	stimuli_distractor_diamondtriangles.svg	8	yes	53	1	505	0	0			0	0			1				0	
6.6.1	mac	2023-06-27	09:25:03	09:33:24	497295	603ed5d8d98e95fc0e0a67a9	3	1	main_slash	7	advance_on_keypress_SLASH	48	stimuli_target_squarediamonds.svg	stimuli_distractor_diamondtriangles.svg	8	yes	57	0	196	0	0			0	0			1				0	
6.6.1	mac	2023-06-27	09:25:03	09:33:25	498559	603ed5d8d98e95fc0e0a67a9	3	1	main_slash	7	main_slash	49	stimuli_target_squaretriangles.svg	stimuli_distractor_trianglediamonds.svg	3	yes	53	1	435	0	0			0	0			1				0	
6.6.1	mac	2023-06-27	09:25:03	09:33:25	498559	603ed5d8d98e95fc0e0a67a9	3	1	main_slash	7	advance_on_keypress_SLASH	50	stimuli_target_squaretriangles.svg	stimuli_distractor_trianglediamonds.svg	3	yes	57	0	224	0	0			0	0			1				0	
6.6.1	mac	2023-06-27	09:25:03	09:33:27	499711	603ed5d8d98e95fc0e0a67a9	3	1	main_slash	7	main_slash	51	stimuli_target_rectangletriangles.svg	stimuli_distractor_trianglediamonds.svg	1	yes	53	1	302	0	0			0	0			1				0	
6.6.1	mac	2023-06-27	09:25:03	09:33:27	499711	603ed5d8d98e95fc0e0a67a9	3	1	main_slash	7	advance_on_keypress_SLASH	52	stimuli_target_rectangletriangles.svg	stimuli_distractor_trianglediamonds.svg	1	yes	57	0	209	0	0			0	0			1				0	
6.6.1	mac	2023-06-27	09:25:03	09:33:28	500783	603ed5d8d98e95fc0e0a67a9	3	1	main_slash	7	main_slash	53	stimuli_distractor_trianglediamonds.svg	stimuli_target_squarediamonds.svg	12	yes	53	1	240	0	0			0	0			1				0	
6.6.1	mac	2023-06-27	09:25:03	09:33:28	500783	603ed5d8d98e95fc0e0a67a9	3	1	main_slash	7	advance_on_keypress_SLASH	54	stimuli_distractor_trianglediamonds.svg	stimuli_target_squarediamonds.svg	12	yes	57	0	182	0	0			0	0			1				0	
6.6.1	mac	2023-06-27	09:25:03	09:33:29	501935	603ed5d8d98e95fc0e0a67a9	3	1	main_slash	7	main_slash	55	stimuli_distractor_diamondtriangles.svg	stimuli_distractor_diamondtriangles.svg	40	no	53	0	341	0	0			0	0			1				0	
6.6.1	mac	2023-06-27	09:25:03	09:33:29	501935	603ed5d8d98e95fc0e0a67a9	3	1	main_slash	7	advance_on_keypress_SLASH	56	stimuli_distractor_diamondtriangles.svg	stimuli_distractor_diamondtriangles.svg	40	no	57	0	198	0	0			0	0			1				0	
6.6.1	mac	2023-06-27	09:25:03	09:33:30	503103	603ed5d8d98e95fc0e0a67a9	3	1	main_slash	7	main_slash	57	stimuli_distractor_diamondtriangles.svg	stimuli_target_squarediamonds.svg	16	yes	53	1	342	0	0			0	0			1				0	
6.6.1	mac	2023-06-27	09:25:03	09:33:30	503103	603ed5d8d98e95fc0e0a67a9	3	1	main_slash	7	advance_on_keypress_SLASH	58	stimuli_distractor_diamondtriangles.svg	stimuli_target_squarediamonds.svg	16	yes	57	0	199	0	0			0	0			1				0	
6.6.1	mac	2023-06-27	09:25:03	09:33:31	504239	603ed5d8d98e95fc0e0a67a9	3	1	main_slash	7	main_slash	59	stimuli_target_trianglerectangles.svg	stimuli_distractor_diamondtriangles.svg	21	yes	53	1	310	0	0			0	0			1				0	
6.6.1	mac	2023-06-27	09:25:03	09:33:31	504239	603ed5d8d98e95fc0e0a67a9	3	1	main_slash	7	advance_on_keypress_SLASH	60	stimuli_target_trianglerectangles.svg	stimuli_distractor_diamondtriangles.svg	21	yes	57	0	200	0	0			0	0			1				0	
6.6.1	mac	2023-06-27	09:25:03	09:33:32	505391	603ed5d8d98e95fc0e0a67a9	3	1	main_slash	7	main_slash	61	stimuli_distractor_trianglediamonds.svg	stimuli_target_trianglesquares.svg	26	yes	53	1	328	0	0			0	0			1				0	
6.6.1	mac	2023-06-27	09:25:03	09:33:32	505391	603ed5d8d98e95fc0e0a67a9	3	1	main_slash	7	advance_on_keypress_SLASH	62	stimuli_distractor_trianglediamonds.svg	stimuli_target_trianglesquares.svg	26	yes	57	0	169	0	0			0	0			1				0	
6.6.1	mac	2023-06-27	09:25:03	09:33:33	506463	603ed5d8d98e95fc0e0a67a9	3	1	main_slash	7	main_slash	63	stimuli_distractor_diamondtriangles.svg	stimuli_target_trianglesquares.svg	30	yes	53	1	282	0	0			0	0			1				0	
6.6.1	mac	2023-06-27	09:25:03	09:33:33	506463	603ed5d8d98e95fc0e0a67a9	3	1	main_slash	7	advance_on_keypress_SLASH	64	stimuli_distractor_diamondtriangles.svg	stimuli_target_trianglesquares.svg	30	yes	57	0	221	0	0			0	0			1				0	
6.6.1	mac	2023-06-27	09:25:03	09:33:34	507471	603ed5d8d98e95fc0e0a67a9	3	1	main_slash	7	main_slash	65	stimuli_distractor_trianglediamonds.svg	stimuli_distractor_trianglediamonds.svg	33	no	53	0	156	0	0			0	0			1				0	
6.6.1	mac	2023-06-27	09:25:03	09:33:34	507471	603ed5d8d98e95fc0e0a67a9	3	1	main_slash	7	advance_on_keypress_SLASH	66	stimuli_distractor_trianglediamonds.svg	stimuli_distractor_trianglediamonds.svg	33	no	57	0	284	0	0			0	0			1				0	
6.6.1	mac	2023-06-27	09:25:03	09:33:35	508591	603ed5d8d98e95fc0e0a67a9	3	1	main_slash	7	main_slash	67	stimuli_distractor_diamondtriangles.svg	stimuli_target_rectangletriangles.svg	13	yes	53	1	208	0	0			0	0			1				0	
6.6.1	mac	2023-06-27	09:25:03	09:33:35	508591	603ed5d8d98e95fc0e0a67a9	3	1	main_slash	7	advance_on_keypress_SLASH	68	stimuli_distractor_diamondtriangles.svg	stimuli_target_rectangletriangles.svg	13	yes	57	0	406	0	0			0	0			1				0	
6.6.1	mac	2023-06-27	09:25:03	09:33:37	509887	603ed5d8d98e95fc0e0a67a9	3	1	main_slash	7	main_slash	69	stimuli_distractor_trianglediamonds.svg	stimuli_target_diamondsquares.svg	28	yes	53	1	270	0	0			0	0			1				0	
6.6.1	mac	2023-06-27	09:25:03	09:33:37	509887	603ed5d8d98e95fc0e0a67a9	3	1	main_slash	7	advance_on_keypress_SLASH	70	stimuli_distractor_trianglediamonds.svg	stimuli_target_diamondsquares.svg	28	yes	57	0	178	0	0			0	0			1				0	
6.6.1	mac	2023-06-27	09:25:03	09:33:38	510783	603ed5d8d98e95fc0e0a67a9	3	1	main_slash	7	main_slash	71	stimuli_distractor_trianglediamonds.svg	stimuli_target_diamondrectangles.svg	27	yes	53	1	98	0	0			0	0			1				0	
6.6.1	mac	2023-06-27	09:25:03	09:33:38	510783	603ed5d8d98e95fc0e0a67a9	3	1	main_slash	7	advance_on_keypress_SLASH	72	stimuli_distractor_trianglediamonds.svg	stimuli_target_diamondrectangles.svg	27	yes	57	0	173	0	0			0	0			1				0	
6.6.1	mac	2023-06-27	09:25:03	09:33:39	511839	603ed5d8d98e95fc0e0a67a9	3	1	main_slash	7	main_slash	73	stimuli_target_rectangletriangles.svg	stimuli_distractor_diamondtriangles.svg	5	yes	53	1	254	0	0			0	0			1				0	
6.6.1	mac	2023-06-27	09:25:03	09:33:39	511839	603ed5d8d98e95fc0e0a67a9	3	1	main_slash	7	advance_on_keypress_SLASH	74	stimuli_target_rectangletriangles.svg	stimuli_distractor_diamondtriangles.svg	5	yes	57	0	130	0	0			0	0			1				0	
6.6.1	mac	2023-06-27	09:25:03	09:33:40	512671	603ed5d8d98e95fc0e0a67a9	3	1	main_slash	7	main_slash	75	stimuli_distractor_trianglediamonds.svg	stimuli_target_rectangletriangles.svg	9	yes	53	1	68	0	0			0	0			1				0	
6.6.1	mac	2023-06-27	09:25:03	09:33:40	512671	603ed5d8d98e95fc0e0a67a9	3	1	main_slash	7	advance_on_keypress_SLASH	76	stimuli_distractor_trianglediamonds.svg	stimuli_target_rectangletriangles.svg	9	yes	57	0	97	0	0			0	0			1				0	
6.6.1	mac	2023-06-27	09:25:03	09:33:40	513534	603ed5d8d98e95fc0e0a67a9	3	1	main_slash	7	main_slash	77	stimuli_distractor_diamondtriangles.svg	stimuli_target_rectanglediamonds.svg	14	yes	53	1	131	0	0			0	0			1				0	
6.6.1	mac	2023-06-27	09:25:03	09:33:40	513534	603ed5d8d98e95fc0e0a67a9	3	1	main_slash	7	advance_on_keypress_SLASH	78	stimuli_distractor_diamondtriangles.svg	stimuli_target_rectanglediamonds.svg	14	yes	57	0	156	0	0			0	0			1				0	
6.6.1	mac	2023-06-27	09:25:03	09:33:41	514399	603ed5d8d98e95fc0e0a67a9	3	1	main_slash	7	main_slash	79	stimuli_target_diamondrectangles.svg	stimuli_distractor_diamondtriangles.svg	23	yes	53	1	78	0	0			0	0			1				0	
6.6.1	mac	2023-06-27	09:25:03	09:33:41	514399	603ed5d8d98e95fc0e0a67a9	3	1	main_slash	7	advance_on_keypress_SLASH	80	stimuli_target_diamondrectangles.svg	stimuli_distractor_diamondtriangles.svg	23	yes	57	0	202	0	0			0	0			1				0	
6.6.1	mac	2023-06-27	09:25:03	09:33:42	515375	603ed5d8d98e95fc0e0a67a9	3	1	main_slash	7	main_slash	81	stimuli_distractor_diamondtriangles.svg	stimuli_distractor_diamondtriangles.svg	40	no	53	0	153	0	0			0	0			1				0	
6.6.1	mac	2023-06-27	09:25:03	09:33:42	515375	603ed5d8d98e95fc0e0a67a9	3	1	main_slash	7	advance_on_keypress_SLASH	82	stimuli_distractor_diamondtriangles.svg	stimuli_distractor_diamondtriangles.svg	40	no	57	0	147	0	0			0	0			1				0	
6.6.1	mac	2023-06-27	09:25:03	09:33:43	516383	603ed5d8d98e95fc0e0a67a9	3	1	main_slash	7	main_slash	83	stimuli_target_trianglerectangles.svg	stimuli_distractor_trianglediamonds.svg	17	yes	53	1	227	0	0			0	0			1				0	
6.6.1	mac	2023-06-27	09:25:03	09:33:43	516383	603ed5d8d98e95fc0e0a67a9	3	1	main_slash	7	advance_on_keypress_SLASH	84	stimuli_target_trianglerectangles.svg	stimuli_distractor_trianglediamonds.svg	17	yes	57	0	26	0	0			0	0			1				0	
6.6.1	mac	2023-06-27	09:25:03	09:33:44	517311	603ed5d8d98e95fc0e0a67a9	3	1	main_slash	7	main_slash	85	stimuli_target_trianglesquares.svg	stimuli_distractor_trianglediamonds.svg	18	yes	53	1	288	0	0			0	0			1				0	
6.6.1	mac	2023-06-27	09:25:03	09:33:44	517311	603ed5d8d98e95fc0e0a67a9	3	1	main_slash	7	advance_on_keypress_SLASH	86	stimuli_target_trianglesquares.svg	stimuli_distractor_trianglediamonds.svg	18	yes	57	0	131	0	0			0	0			1				0	
6.6.1	mac	2023-06-27	09:25:03	09:33:45	518191	603ed5d8d98e95fc0e0a67a9	3	1	main_slash	7	main_slash	87	stimuli_target_trianglesquares.svg	stimuli_distractor_diamondtriangles.svg	22	yes	53	1	117	0	0			0	0			1				0	
6.6.1	mac	2023-06-27	09:25:03	09:33:45	518191	603ed5d8d98e95fc0e0a67a9	3	1	main_slash	7	advance_on_keypress_SLASH	88	stimuli_target_trianglesquares.svg	stimuli_distractor_diamondtriangles.svg	22	yes	57	0	111	0	0			0	0			1				0	
6.6.1	mac	2023-06-27	09:25:03	09:33:46	519103	603ed5d8d98e95fc0e0a67a9	3	1	main_slash	7	main_slash	89	stimuli_distractor_trianglediamonds.svg	stimuli_target_squaretriangles.svg	11	yes	53	1	178	0	0			0	0			1				0	
6.6.1	mac	2023-06-27	09:25:03	09:33:46	519103	603ed5d8d98e95fc0e0a67a9	3	1	main_slash	7	advance_on_keypress_SLASH	90	stimuli_distractor_trianglediamonds.svg	stimuli_target_squaretriangles.svg	11	yes	57	0	98	0	0			0	0			1				0	
6.6.1	mac	2023-06-27	09:25:03	09:33:47	519919	603ed5d8d98e95fc0e0a67a9	3	1	main_slash	7	main_slash	91	stimuli_distractor_diamondtriangles.svg	stimuli_target_trianglesquares.svg	30	yes	53	1	93	0	0			0	0			1				0	
6.6.1	mac	2023-06-27	09:25:03	09:33:47	519919	603ed5d8d98e95fc0e0a67a9	3	1	main_slash	7	advance_on_keypress_SLASH	92	stimuli_distractor_diamondtriangles.svg	stimuli_target_trianglesquares.svg	30	yes	57	0	137	0	0			0	0			1				0	
6.6.1	mac	2023-06-27	09:25:03	09:33:48	520735	603ed5d8d98e95fc0e0a67a9	3	1	main_slash	7	main_slash	93	stimuli_target_rectangletriangles.svg	stimuli_distractor_trianglediamonds.svg	1	yes	53	1	59	0	0			0	0			1				0	
6.6.1	mac	2023-06-27	09:25:03	09:33:48	520735	603ed5d8d98e95fc0e0a67a9	3	1	main_slash	7	advance_on_keypress_SLASH	94	stimuli_target_rectangletriangles.svg	stimuli_distractor_trianglediamonds.svg	1	yes	57	0	143	0	0			0	0			1				0	
6.6.1	mac	2023-06-27	09:25:03	09:33:48	521551	603ed5d8d98e95fc0e0a67a9	3	1	main_slash	7	main_slash	95	stimuli_distractor_diamondtriangles.svg	stimuli_distractor_trianglediamonds.svg	38	no	53	0	41	0	0			0	0			1				0	
6.6.1	mac	2023-06-27	09:25:03	09:33:48	521551	603ed5d8d98e95fc0e0a67a9	3	1	main_slash	7	advance_on_keypress_SLASH	96	stimuli_distractor_diamondtriangles.svg	stimuli_distractor_trianglediamonds.svg	38	no	57	0	174	0	0			0	0			1				0	
6.6.1	mac	2023-06-27	09:25:03	09:33:49	522399	603ed5d8d98e95fc0e0a67a9	3	1	main_slash	7	main_slash	97	stimuli_target_diamondsquares.svg	stimuli_distractor_diamondtriangles.svg	24	yes	53	1	38	0	0			0	0			1				0	
6.6.1	mac	2023-06-27	09:25:03	09:33:49	522399	603ed5d8d98e95fc0e0a67a9	3	1	main_slash	7	advance_on_keypress_SLASH	98	stimuli_target_diamondsquares.svg	stimuli_distractor_diamondtriangles.svg	24	yes	57	0	139	0	0			0	0			1				0	
6.6.1	mac	2023-06-27	09:25:03	09:33:50	523343	603ed5d8d98e95fc0e0a67a9	3	1	main_slash	7	main_slash	99	stimuli_target_squarediamonds.svg	stimuli_distractor_trianglediamonds.svg	4	yes	53	1	165	0	0			0	0			1				0	
6.6.1	mac	2023-06-27	09:25:03	09:33:50	523343	603ed5d8d98e95fc0e0a67a9	3	1	main_slash	7	advance_on_keypress_SLASH	100	stimuli_target_squarediamonds.svg	stimuli_distractor_trianglediamonds.svg	4	yes	57	0	124	0	0			0	0			1				0	
6.6.1	mac	2023-06-27	09:25:03	09:33:51	524335	603ed5d8d98e95fc0e0a67a9	3	1	main_slash	7	main_slash	101	stimuli_distractor_trianglediamonds.svg	stimuli_target_squarediamonds.svg	12	yes	53	1	239	0	0			0	0			1				0	
6.6.1	mac	2023-06-27	09:25:03	09:33:51	524335	603ed5d8d98e95fc0e0a67a9	3	1	main_slash	7	advance_on_keypress_SLASH	102	stimuli_distractor_trianglediamonds.svg	stimuli_target_squarediamonds.svg	12	yes	57	0	101	0	0			0	0			1				0	
6.6.1	mac	2023-06-27	09:25:03	09:33:52	525343	603ed5d8d98e95fc0e0a67a9	3	1	main_slash	7	main_slash	103	stimuli_distractor_diamondtriangles.svg	stimuli_target_rectanglediamonds.svg	14	yes	53	1	280	0	0			0	0			1				0	
6.6.1	mac	2023-06-27	09:25:03	09:33:52	525343	603ed5d8d98e95fc0e0a67a9	3	1	main_slash	7	advance_on_keypress_SLASH	104	stimuli_distractor_diamondtriangles.svg	stimuli_target_rectanglediamonds.svg	14	yes	57	0	123	0	0			0	0			1				0	
6.6.1	mac	2023-06-27	09:25:03	09:33:53	526303	603ed5d8d98e95fc0e0a67a9	3	1	main_slash	7	main_slash	105	stimuli_target_diamondrectangles.svg	stimuli_distractor_trianglediamonds.svg	19	yes	53	1	205	0	0			0	0			1				0	
6.6.1	mac	2023-06-27	09:25:03	09:33:53	526303	603ed5d8d98e95fc0e0a67a9	3	1	main_slash	7	advance_on_keypress_SLASH	106	stimuli_target_diamondrectangles.svg	stimuli_distractor_trianglediamonds.svg	19	yes	57	0	148	0	0			0	0			1				0	
6.6.1	mac	2023-06-27	09:25:03	09:33:54	527295	603ed5d8d98e95fc0e0a67a9	3	1	main_slash	7	main_slash	107	stimuli_distractor_trianglediamonds.svg	stimuli_target_rectangletriangles.svg	9	yes	53	1	213	0	0			0	0			1				0	
6.6.1	mac	2023-06-27	09:25:03	09:33:54	527295	603ed5d8d98e95fc0e0a67a9	3	1	main_slash	7	advance_on_keypress_SLASH	108	stimuli_distractor_trianglediamonds.svg	stimuli_target_rectangletriangles.svg	9	yes	57	0	187	0	0			0	0			1				0	
6.6.1	mac	2023-06-27	09:25:03	09:33:55	528399	603ed5d8d98e95fc0e0a67a9	3	1	main_slash	7	main_slash	109	stimuli_target_trianglerectangles.svg	stimuli_distractor_diamondtriangles.svg	21	yes	53	1	283	0	0			0	0			1				0	
6.6.1	mac	2023-06-27	09:25:03	09:33:55	528399	603ed5d8d98e95fc0e0a67a9	3	1	main_slash	7	advance_on_keypress_SLASH	110	stimuli_target_trianglerectangles.svg	stimuli_distractor_diamondtriangles.svg	21	yes	57	0	175	0	0			0	0			1				0	
6.6.1	mac	2023-06-27	09:25:03	09:33:56	529471	603ed5d8d98e95fc0e0a67a9	3	1	main_slash	7	main_slash	111	stimuli_target_diamondrectangles.svg	stimuli_distractor_diamondtriangles.svg	23	yes	53	1	272	0	0			0	0			1				0	
6.6.1	mac	2023-06-27	09:25:03	09:33:56	529471	603ed5d8d98e95fc0e0a67a9	3	1	main_slash	7	advance_on_keypress_SLASH	112	stimuli_target_diamondrectangles.svg	stimuli_distractor_diamondtriangles.svg	23	yes	57	0	147	0	0			0	0			1				0	
6.6.1	mac	2023-06-27	09:25:03	09:33:57	530543	603ed5d8d98e95fc0e0a67a9	3	1	main_slash	7	main_slash	113	stimuli_distractor_diamondtriangles.svg	stimuli_target_rectangletriangles.svg	13	yes	53	1	293	0	0			0	0			1				0	
6.6.1	mac	2023-06-27	09:25:03	09:33:57	530543	603ed5d8d98e95fc0e0a67a9	3	1	main_slash	7	advance_on_keypress_SLASH	114	stimuli_distractor_diamondtriangles.svg	stimuli_target_rectangletriangles.svg	13	yes	57	0	167	0	0			0	0			1				0	
6.6.1	mac	2023-06-27	09:25:03	09:33:58	531551	603ed5d8d98e95fc0e0a67a9	3	1	main_slash	7	main_slash	115	stimuli_distractor_diamondtriangles.svg	stimuli_target_trianglerectangles.svg	29	yes	53	1	216	0	0			0	0			1				0	
6.6.1	mac	2023-06-27	09:25:03	09:33:58	531551	603ed5d8d98e95fc0e0a67a9	3	1	main_slash	7	advance_on_keypress_SLASH	116	stimuli_distractor_diamondtriangles.svg	stimuli_target_trianglerectangles.svg	29	yes	57	0	174	0	0			0	0			1				0	
6.6.1	mac	2023-06-27	09:25:03	09:33:59	532463	603ed5d8d98e95fc0e0a67a9	3	1	main_slash	7	main_slash	117	stimuli_distractor_trianglediamonds.svg	stimuli_target_diamondrectangles.svg	27	yes	53	1	110	0	0			0	0			1				0	
6.6.1	mac	2023-06-27	09:25:03	09:33:59	532463	603ed5d8d98e95fc0e0a67a9	3	1	main_slash	7	advance_on_keypress_SLASH	118	stimuli_distractor_trianglediamonds.svg	stimuli_target_diamondrectangles.svg	27	yes	57	0	217	0	0			0	0			1				0	
6.6.1	mac	2023-06-27	09:25:03	09:34:00	533535	603ed5d8d98e95fc0e0a67a9	3	1	main_slash	7	main_slash	119	stimuli_distractor_trianglediamonds.svg	stimuli_target_diamondsquares.svg	28	yes	53	1	231	0	0			0	0			1				0	
6.6.1	mac	2023-06-27	09:25:03	09:34:00	533535	603ed5d8d98e95fc0e0a67a9	3	1	main_slash	7	advance_on_keypress_SLASH	120	stimuli_distractor_trianglediamonds.svg	stimuli_target_diamondsquares.svg	28	yes	57	0	92	0	0			0	0			1				0	
6.6.1	mac	2023-06-27	09:25:03	09:34:01	534351	603ed5d8d98e95fc0e0a67a9	3	1	main_slash	7	main_slash	121	stimuli_distractor_trianglediamonds.svg	stimuli_target_rectanglediamonds.svg	10	yes	53	1	96	0	0			0	0			1				0	
6.6.1	mac	2023-06-27	09:25:03	09:34:01	534351	603ed5d8d98e95fc0e0a67a9	3	1	main_slash	7	advance_on_keypress_SLASH	122	stimuli_distractor_trianglediamonds.svg	stimuli_target_rectanglediamonds.svg	10	yes	57	0	123	0	0			0	0			1				0	
6.6.1	mac	2023-06-27	09:25:03	09:34:04	537103	603ed5d8d98e95fc0e0a67a9	3	1	main_slash	7	main_slash	123	stimuli_distractor_trianglediamonds.svg	stimuli_distractor_trianglediamonds.svg	33	no	0	1	2000	0	0			0	0			1				0	
6.6.1	mac	2023-06-27	09:25:03	09:34:04	537103	603ed5d8d98e95fc0e0a67a9	3	1	main_slash	7	advance_on_keypress_SLASH	124	stimuli_distractor_trianglediamonds.svg	stimuli_distractor_trianglediamonds.svg	33	no	57	0	684	0	0			0	0			1				0	
6.6.1	mac	2023-06-27	09:25:03	09:34:06	538799	603ed5d8d98e95fc0e0a67a9	3	1	main_slash	7	main_slash	125	stimuli_target_squarediamonds.svg	stimuli_distractor_diamondtriangles.svg	8	yes	53	1	374	0	0			0	0			1				0	
6.6.1	mac	2023-06-27	09:25:03	09:34:06	538799	603ed5d8d98e95fc0e0a67a9	3	1	main_slash	7	advance_on_keypress_SLASH	126	stimuli_target_squarediamonds.svg	stimuli_distractor_diamondtriangles.svg	8	yes	57	0	215	0	0			0	0			1				0	
6.6.1	mac	2023-06-27	09:25:03	09:34:07	539903	603ed5d8d98e95fc0e0a67a9	3	1	main_slash	7	main_slash	127	stimuli_distractor_diamondtriangles.svg	stimuli_target_squarediamonds.svg	16	yes	53	1	261	0	0			0	0			1				0	
6.6.1	mac	2023-06-27	09:25:03	09:34:07	539903	603ed5d8d98e95fc0e0a67a9	3	1	main_slash	7	advance_on_keypress_SLASH	128	stimuli_distractor_diamondtriangles.svg	stimuli_target_squarediamonds.svg	16	yes	57	0	218	0	0			0	0			1				0	
6.6.1	mac	2023-06-27	09:25:03	09:34:08	540975	603ed5d8d98e95fc0e0a67a9	3	1	main_slash	7	main_slash	129	stimuli_distractor_trianglediamonds.svg	stimuli_distractor_trianglediamonds.svg	34	no	53	0	232	0	0			0	0			1				0	
6.6.1	mac	2023-06-27	09:25:03	09:34:08	540975	603ed5d8d98e95fc0e0a67a9	3	1	main_slash	7	advance_on_keypress_SLASH	130	stimuli_distractor_trianglediamonds.svg	stimuli_distractor_trianglediamonds.svg	34	no	57	0	173	0	0			0	0			1				0	
6.6.1	mac	2023-06-27	09:25:03	09:34:09	542047	603ed5d8d98e95fc0e0a67a9	3	1	main_slash	7	main_slash	131	stimuli_distractor_trianglediamonds.svg	stimuli_target_trianglerectangles.svg	25	yes	53	1	270	0	0			0	0			1				0	
6.6.1	mac	2023-06-27	09:25:03	09:34:09	542047	603ed5d8d98e95fc0e0a67a9	3	1	main_slash	7	advance_on_keypress_SLASH	132	stimuli_distractor_trianglediamonds.svg	stimuli_target_trianglerectangles.svg	25	yes	57	0	257	0	0			0	0			1				0	
6.6.1	mac	2023-06-27	09:25:03	09:34:10	543103	603ed5d8d98e95fc0e0a67a9	3	1	main_slash	7	main_slash	133	stimuli_distractor_diamondtriangles.svg	stimuli_target_diamondsquares.svg	32	yes	53	1	175	0	0			0	0			1				0	
6.6.1	mac	2023-06-27	09:25:03	09:34:10	543103	603ed5d8d98e95fc0e0a67a9	3	1	main_slash	7	advance_on_keypress_SLASH	134	stimuli_distractor_diamondtriangles.svg	stimuli_target_diamondsquares.svg	32	yes	57	0	286	0	0			0	0			1				0	
6.6.1	mac	2023-06-27	09:25:03	09:34:11	544239	603ed5d8d98e95fc0e0a67a9	3	1	main_slash	7	main_slash	135	stimuli_distractor_trianglediamonds.svg	stimuli_distractor_diamondtriangles.svg	35	no	53	0	227	0	0			0	0			1				0	
6.6.1	mac	2023-06-27	09:25:03	09:34:11	544239	603ed5d8d98e95fc0e0a67a9	3	1	main_slash	7	advance_on_keypress_SLASH	136	stimuli_distractor_trianglediamonds.svg	stimuli_distractor_diamondtriangles.svg	35	no	57	0	217	0	0			0	0			1				0	
6.6.1	mac	2023-06-27	09:25:03	09:34:12	545295	603ed5d8d98e95fc0e0a67a9	3	1	main_slash	7	main_slash	137	stimuli_distractor_diamondtriangles.svg	stimuli_distractor_trianglediamonds.svg	37	no	53	0	216	0	0			0	0			1				0	
6.6.1	mac	2023-06-27	09:25:03	09:34:12	545295	603ed5d8d98e95fc0e0a67a9	3	1	main_slash	7	advance_on_keypress_SLASH	138	stimuli_distractor_diamondtriangles.svg	stimuli_distractor_trianglediamonds.svg	37	no	57	0	157	0	0			0	0			1				0	
6.6.1	mac	2023-06-27	09:25:03	09:34:13	546222	603ed5d8d98e95fc0e0a67a9	3	1	main_slash	7	main_slash	139	stimuli_target_diamondsquares.svg	stimuli_distractor_trianglediamonds.svg	20	yes	53	1	142	0	0			0	0			1				0	
6.6.1	mac	2023-06-27	09:25:03	09:34:13	546222	603ed5d8d98e95fc0e0a67a9	3	1	main_slash	7	advance_on_keypress_SLASH	140	stimuli_target_diamondsquares.svg	stimuli_distractor_trianglediamonds.svg	20	yes	57	0	159	0	0			0	0			1				0	
6.6.1	mac	2023-06-27	09:25:03	09:34:14	547215	603ed5d8d98e95fc0e0a67a9	3	1	main_slash	7	main_slash	141	stimuli_distractor_diamondtriangles.svg	stimuli_distractor_diamondtriangles.svg	39	no	53	0	201	0	0			0	0			1				0	
6.6.1	mac	2023-06-27	09:25:03	09:34:14	547215	603ed5d8d98e95fc0e0a67a9	3	1	main_slash	7	advance_on_keypress_SLASH	142	stimuli_distractor_diamondtriangles.svg	stimuli_distractor_diamondtriangles.svg	39	no	57	0	143	0	0			0	0			1				0	
6.6.1	mac	2023-06-27	09:25:03	09:34:15	548319	603ed5d8d98e95fc0e0a67a9	3	1	main_slash	7	main_slash	143	stimuli_target_squaretriangles.svg	stimuli_distractor_diamondtriangles.svg	7	yes	53	1	336	0	0			0	0			1				0	
6.6.1	mac	2023-06-27	09:25:03	09:34:15	548319	603ed5d8d98e95fc0e0a67a9	3	1	main_slash	7	advance_on_keypress_SLASH	144	stimuli_target_squaretriangles.svg	stimuli_distractor_diamondtriangles.svg	7	yes	57	0	257	0	0			0	0			1				0	
6.6.1	mac	2023-06-27	09:25:03	09:34:16	549279	603ed5d8d98e95fc0e0a67a9	3	1	main_slash	7	main_slash	145	stimuli_distractor_trianglediamonds.svg	stimuli_target_trianglesquares.svg	26	yes	53	1	80	0	0			0	0			1				0	
6.6.1	mac	2023-06-27	09:25:03	09:34:16	549279	603ed5d8d98e95fc0e0a67a9	3	1	main_slash	7	advance_on_keypress_SLASH	146	stimuli_distractor_trianglediamonds.svg	stimuli_target_trianglesquares.svg	26	yes	57	0	362	0	0			0	0			1				0	
6.6.1	mac	2023-06-27	09:25:03	09:34:17	550511	603ed5d8d98e95fc0e0a67a9	3	1	main_slash	7	main_slash	147	stimuli_target_rectanglediamonds.svg	stimuli_distractor_diamondtriangles.svg	6	yes	53	1	227	0	0			0	0			1				0	
6.6.1	mac	2023-06-27	09:25:03	09:34:17	550511	603ed5d8d98e95fc0e0a67a9	3	1	main_slash	7	advance_on_keypress_SLASH	148	stimuli_target_rectanglediamonds.svg	stimuli_distractor_diamondtriangles.svg	6	yes	57	0	312	0	0			0	0			1				0	
6.6.1	mac	2023-06-27	09:25:03	09:34:19	551711	603ed5d8d98e95fc0e0a67a9	3	1	main_slash	7	main_slash	149	stimuli_distractor_trianglediamonds.svg	stimuli_distractor_diamondtriangles.svg	36	no	53	0	259	0	0			0	0			1				0	
6.6.1	mac	2023-06-27	09:25:03	09:34:19	551711	603ed5d8d98e95fc0e0a67a9	3	1	main_slash	7	advance_on_keypress_SLASH	150	stimuli_distractor_trianglediamonds.svg	stimuli_distractor_diamondtriangles.svg	36	no	57	0	263	0	0			0	0			1				0	
6.6.1	mac	2023-06-27	09:25:03	09:34:20	552831	603ed5d8d98e95fc0e0a67a9	3	1	main_slash	7	main_slash	151	stimuli_target_rectanglediamonds.svg	stimuli_distractor_trianglediamonds.svg	2	yes	53	1	228	0	0			0	0			1				0	
6.6.1	mac	2023-06-27	09:25:03	09:34:20	552831	603ed5d8d98e95fc0e0a67a9	3	1	main_slash	7	advance_on_keypress_SLASH	152	stimuli_target_rectanglediamonds.svg	stimuli_distractor_trianglediamonds.svg	2	yes	57	0	234	0	0			0	0			1				0	
6.6.1	mac	2023-06-27	09:25:03	09:34:21	553935	603ed5d8d98e95fc0e0a67a9	3	1	main_slash	7	main_slash	153	stimuli_target_squaretriangles.svg	stimuli_distractor_trianglediamonds.svg	3	yes	53	1	248	0	0			0	0			1				0	
6.6.1	mac	2023-06-27	09:25:03	09:34:21	553935	603ed5d8d98e95fc0e0a67a9	3	1	main_slash	7	advance_on_keypress_SLASH	154	stimuli_target_squaretriangles.svg	stimuli_distractor_trianglediamonds.svg	3	yes	57	0	285	0	0			0	0			1				0	
6.6.1	mac	2023-06-27	09:25:03	09:34:22	555151	603ed5d8d98e95fc0e0a67a9	3	1	main_slash	7	main_slash	155	stimuli_target_rectangletriangles.svg	stimuli_distractor_diamondtriangles.svg	5	yes	53	1	296	0	0			0	0			1				0	
6.6.1	mac	2023-06-27	09:25:03	09:34:22	555151	603ed5d8d98e95fc0e0a67a9	3	1	main_slash	7	advance_on_keypress_SLASH	156	stimuli_target_rectangletriangles.svg	stimuli_distractor_diamondtriangles.svg	5	yes	57	0	314	0	0			0	0			1				0	
6.6.1	mac	2023-06-27	09:25:03	09:34:23	556255	603ed5d8d98e95fc0e0a67a9	3	1	main_slash	7	main_slash	157	stimuli_distractor_diamondtriangles.svg	stimuli_target_squaretriangles.svg	15	yes	53	1	149	0	0			0	0			1				0	
6.6.1	mac	2023-06-27	09:25:03	09:34:23	556255	603ed5d8d98e95fc0e0a67a9	3	1	main_slash	7	advance_on_keypress_SLASH	158	stimuli_distractor_diamondtriangles.svg	stimuli_target_squaretriangles.svg	15	yes	57	0	270	0	0			0	0			1				0	
6.6.1	mac	2023-06-27	09:25:03	09:34:24	557215	603ed5d8d98e95fc0e0a67a9	3	1	main_slash	7	main_slash	159	stimuli_distractor_diamondtriangles.svg	stimuli_target_diamondrectangles.svg	31	yes	53	1	59	0	0			0	0			1				0	
6.6.1	mac	2023-06-27	09:25:03	09:34:24	557215	603ed5d8d98e95fc0e0a67a9	3	1	main_slash	7	advance_on_keypress_SLASH	160	stimuli_distractor_diamondtriangles.svg	stimuli_target_diamondrectangles.svg	31	yes	57	0	319	0	0			0	0			1				0	
6.6.1	mac	2023-06-27	09:25:03	09:34:56	588967	603ed5d8d98e95fc0e0a67a9	3	1	practice_z	9	practice_z	1	stimuli_distractor_diamondtriangles.svg	stimuli_distractor_diamondtriangles.svg	13	no	44	0	318	0	0			0	0			1				0	
6.6.1	mac	2023-06-27	09:25:03	09:34:56	588967	603ed5d8d98e95fc0e0a67a9	3	1	practice_z	9	advance_on_keypress_ZEE	2	stimuli_distractor_diamondtriangles.svg	stimuli_distractor_diamondtriangles.svg	13	no	57	0	1159	0	0			0	0			1				0	
6.6.1	mac	2023-06-27	09:25:03	09:34:59	592024	603ed5d8d98e95fc0e0a67a9	3	1	practice_z	9	practice_z	3	stimuli_target_squarediamonds.svg	stimuli_distractor_diamondtriangles.svg	2	yes	44	1	271	0	0			0	0			1				0	
6.6.1	mac	2023-06-27	09:25:03	09:34:59	592024	603ed5d8d98e95fc0e0a67a9	3	1	practice_z	9	advance_on_keypress_ZEE	4	stimuli_target_squarediamonds.svg	stimuli_distractor_diamondtriangles.svg	2	yes	57	0	523	0	0			0	0			1				0	
6.6.1	mac	2023-06-27	09:25:03	09:35:01	594487	603ed5d8d98e95fc0e0a67a9	3	1	practice_z	9	practice_z	5	stimuli_target_diamondsquares.svg	stimuli_distractor_diamondtriangles.svg	3	yes	44	1	317	0	0			0	0			1				0	
6.6.1	mac	2023-06-27	09:25:03	09:35:01	594487	603ed5d8d98e95fc0e0a67a9	3	1	practice_z	9	advance_on_keypress_ZEE	6	stimuli_target_diamondsquares.svg	stimuli_distractor_diamondtriangles.svg	3	yes	57	0	870	0	0			0	0			1				0	
6.6.1	mac	2023-06-27	09:25:03	09:35:05	597639	603ed5d8d98e95fc0e0a67a9	3	1	practice_z	9	practice_z	7	stimuli_target_diamondsquares.svg	stimuli_distractor_trianglediamonds.svg	6	yes	44	1	650	0	0			0	0			1				0	
6.6.1	mac	2023-06-27	09:25:03	09:35:05	597639	603ed5d8d98e95fc0e0a67a9	3	1	practice_z	9	advance_on_keypress_ZEE	8	stimuli_target_diamondsquares.svg	stimuli_distractor_trianglediamonds.svg	6	yes	57	0	277	0	0			0	0			1				0	
6.6.1	mac	2023-06-27	09:25:03	09:35:07	600055	603ed5d8d98e95fc0e0a67a9	3	1	practice_z	9	practice_z	9	stimuli_distractor_trianglediamonds.svg	stimuli_target_rectanglediamonds.svg	10	yes	44	1	514	0	0			0	0			1				0	
6.6.1	mac	2023-06-27	09:25:03	09:35:07	600055	603ed5d8d98e95fc0e0a67a9	3	1	practice_z	9	advance_on_keypress_ZEE	10	stimuli_distractor_trianglediamonds.svg	stimuli_target_rectanglediamonds.svg	10	yes	57	0	275	0	0			0	0			1				0	
6.6.1	mac	2023-06-27	09:25:03	09:35:09	602615	603ed5d8d98e95fc0e0a67a9	3	1	practice_z	9	practice_z	11	stimuli_distractor_diamondtriangles.svg	stimuli_target_rectangletriangles.svg	7	yes	44	1	672	0	0			0	0			1				0	
6.6.1	mac	2023-06-27	09:25:03	09:35:09	602615	603ed5d8d98e95fc0e0a67a9	3	1	practice_z	9	advance_on_keypress_ZEE	12	stimuli_distractor_diamondtriangles.svg	stimuli_target_rectangletriangles.svg	7	yes	57	0	283	0	0			0	0			1				0	
6.6.1	mac	2023-06-27	09:25:03	09:35:12	605383	603ed5d8d98e95fc0e0a67a9	3	1	practice_z	9	practice_z	13	stimuli_target_rectanglediamonds.svg	stimuli_distractor_diamondtriangles.svg	1	yes	44	1	855	0	0			0	0			1				0	
6.6.1	mac	2023-06-27	09:25:03	09:35:12	605383	603ed5d8d98e95fc0e0a67a9	3	1	practice_z	9	advance_on_keypress_ZEE	14	stimuli_target_rectanglediamonds.svg	stimuli_distractor_diamondtriangles.svg	1	yes	57	0	281	0	0			0	0			1				0	
6.6.1	mac	2023-06-27	09:25:03	09:35:15	607831	603ed5d8d98e95fc0e0a67a9	3	1	practice_z	9	practice_z	15	stimuli_target_squarediamonds.svg	stimuli_distractor_trianglediamonds.svg	5	yes	44	1	533	0	0			0	0			1				0	
6.6.1	mac	2023-06-27	09:25:03	09:35:15	607831	603ed5d8d98e95fc0e0a67a9	3	1	practice_z	9	advance_on_keypress_ZEE	16	stimuli_target_squarediamonds.svg	stimuli_distractor_trianglediamonds.svg	5	yes	57	0	229	0	0			0	0			1				0	
6.6.1	mac	2023-06-27	09:25:03	09:35:17	610519	603ed5d8d98e95fc0e0a67a9	3	1	practice_z	9	practice_z	17	stimuli_distractor_diamondtriangles.svg	stimuli_target_diamondrectangles.svg	8	yes	44	1	819	0	0			0	0			1				0	
6.6.1	mac	2023-06-27	09:25:03	09:35:17	610519	603ed5d8d98e95fc0e0a67a9	3	1	practice_z	9	advance_on_keypress_ZEE	18	stimuli_distractor_diamondtriangles.svg	stimuli_target_diamondrectangles.svg	8	yes	57	0	295	0	0			0	0			1				0	
6.6.1	mac	2023-06-27	09:25:03	09:35:20	613015	603ed5d8d98e95fc0e0a67a9	3	1	practice_z	9	practice_z	19	stimuli_distractor_trianglediamonds.svg	stimuli_distractor_trianglediamonds.svg	15	no	44	0	563	0	0			0	0			1				0	
6.6.1	mac	2023-06-27	09:25:03	09:35:20	613015	603ed5d8d98e95fc0e0a67a9	3	1	practice_z	9	advance_on_keypress_ZEE	20	stimuli_distractor_trianglediamonds.svg	stimuli_distractor_trianglediamonds.svg	15	no	57	0	482	0	0			0	0			1				0	
6.6.1	mac	2023-06-27	09:25:03	09:35:22	615383	603ed5d8d98e95fc0e0a67a9	3	1	practice_z	9	practice_z	21	stimuli_distractor_trianglediamonds.svg	stimuli_target_diamondrectangles.svg	12	yes	44	1	263	0	0			0	0			1				0	
6.6.1	mac	2023-06-27	09:25:03	09:35:22	615383	603ed5d8d98e95fc0e0a67a9	3	1	practice_z	9	advance_on_keypress_ZEE	22	stimuli_distractor_trianglediamonds.svg	stimuli_target_diamondrectangles.svg	12	yes	57	0	482	0	0			0	0			1				0	
6.6.1	mac	2023-06-27	09:25:03	09:35:25	617751	603ed5d8d98e95fc0e0a67a9	3	1	practice_z	9	practice_z	23	stimuli_distractor_trianglediamonds.svg	stimuli_target_squarediamonds.svg	11	yes	44	1	262	0	0			0	0			1				0	
6.6.1	mac	2023-06-27	09:25:03	09:35:25	617751	603ed5d8d98e95fc0e0a67a9	3	1	practice_z	9	advance_on_keypress_ZEE	24	stimuli_distractor_trianglediamonds.svg	stimuli_target_squarediamonds.svg	11	yes	57	0	370	0	0			0	0			1				0	
6.6.1	mac	2023-06-27	09:25:03	09:35:27	620007	603ed5d8d98e95fc0e0a67a9	3	1	practice_z	9	practice_z	25	stimuli_distractor_diamondtriangles.svg	stimuli_distractor_trianglediamonds.svg	14	no	44	0	266	0	0			0	0			1				0	
6.6.1	mac	2023-06-27	09:25:03	09:35:27	620007	603ed5d8d98e95fc0e0a67a9	3	1	practice_z	9	advance_on_keypress_ZEE	26	stimuli_distractor_diamondtriangles.svg	stimuli_distractor_trianglediamonds.svg	14	no	57	0	789	0	0			0	0			1				0	
6.6.1	mac	2023-06-27	09:25:03	09:35:30	622807	603ed5d8d98e95fc0e0a67a9	3	1	practice_z	9	practice_z	27	stimuli_target_rectanglediamonds.svg	stimuli_distractor_trianglediamonds.svg	4	yes	44	1	380	0	0			0	0			1				0	
6.6.1	mac	2023-06-27	09:25:03	09:35:30	622807	603ed5d8d98e95fc0e0a67a9	3	1	practice_z	9	advance_on_keypress_ZEE	28	stimuli_target_rectanglediamonds.svg	stimuli_distractor_trianglediamonds.svg	4	yes	57	0	690	0	0			0	0			1				0	
6.6.1	mac	2023-06-27	09:25:03	09:35:32	625463	603ed5d8d98e95fc0e0a67a9	3	1	practice_z	9	practice_z	29	stimuli_distractor_trianglediamonds.svg	stimuli_distractor_diamondtriangles.svg	16	no	44	0	334	0	0			0	0			1				0	
6.6.1	mac	2023-06-27	09:25:03	09:35:32	625463	603ed5d8d98e95fc0e0a67a9	3	1	practice_z	9	advance_on_keypress_ZEE	30	stimuli_distractor_trianglediamonds.svg	stimuli_distractor_diamondtriangles.svg	16	no	57	0	1079	0	0			0	0			1				0	
6.6.1	mac	2023-06-27	09:25:03	09:35:35	628471	603ed5d8d98e95fc0e0a67a9	3	1	practice_z	9	practice_z	31	stimuli_distractor_diamondtriangles.svg	stimuli_target_trianglerectangles.svg	9	yes	44	1	289	0	0			0	0			1				0	
6.6.1	mac	2023-06-27	09:25:03	09:35:35	628471	603ed5d8d98e95fc0e0a67a9	3	1	practice_z	9	advance_on_keypress_ZEE	32	stimuli_distractor_diamondtriangles.svg	stimuli_target_trianglerectangles.svg	9	yes	57	0	364	0	0			0	0			1				0	
6.6.1	mac	2023-06-27	09:25:03	09:35:39	632271	603ed5d8d98e95fc0e0a67a9	3	1	main_z	11	main_z	1	stimuli_target_squaretriangles.svg	stimuli_distractor_trianglediamonds.svg	3	yes	44	1	335	0	0			0	0			1				0	
6.6.1	mac	2023-06-27	09:25:03	09:35:39	632271	603ed5d8d98e95fc0e0a67a9	3	1	main_z	11	advance_on_keypress_ZEE	2	stimuli_target_squaretriangles.svg	stimuli_distractor_trianglediamonds.svg	3	yes	57	0	129	0	0			0	0			1				0	
6.6.1	mac	2023-06-27	09:25:03	09:35:41	633727	603ed5d8d98e95fc0e0a67a9	3	1	main_z	11	main_z	3	stimuli_distractor_diamondtriangles.svg	stimuli_distractor_diamondtriangles.svg	39	no	44	0	707	0	0			0	0			1				0	
6.6.1	mac	2023-06-27	09:25:03	09:35:41	633727	603ed5d8d98e95fc0e0a67a9	3	1	main_z	11	advance_on_keypress_ZEE	4	stimuli_distractor_diamondtriangles.svg	stimuli_distractor_diamondtriangles.svg	39	no	57	0	213	0	0			0	0			1				0	
6.6.1	mac	2023-06-27	09:25:03	09:35:42	635119	603ed5d8d98e95fc0e0a67a9	3	1	main_z	11	main_z	5	stimuli_target_squaretriangles.svg	stimuli_distractor_diamondtriangles.svg	7	yes	44	1	548	0	0			0	0			1				0	
6.6.1	mac	2023-06-27	09:25:03	09:35:42	635119	603ed5d8d98e95fc0e0a67a9	3	1	main_z	11	advance_on_keypress_ZEE	6	stimuli_target_squaretriangles.svg	stimuli_distractor_diamondtriangles.svg	7	yes	57	0	524	0	0			0	0			1				0	
6.6.1	mac	2023-06-27	09:25:03	09:35:44	636847	603ed5d8d98e95fc0e0a67a9	3	1	main_z	11	main_z	7	stimuli_distractor_trianglediamonds.svg	stimuli_target_rectangletriangles.svg	9	yes	44	1	574	0	0			0	0			1				0	
6.6.1	mac	2023-06-27	09:25:03	09:35:44	636847	603ed5d8d98e95fc0e0a67a9	3	1	main_z	11	advance_on_keypress_ZEE	8	stimuli_distractor_trianglediamonds.svg	stimuli_target_rectangletriangles.svg	9	yes	57	0	477	0	0			0	0			1				0	
6.6.1	mac	2023-06-27	09:25:03	09:35:47	639955	603ed5d8d98e95fc0e0a67a9	3	1	main_z	11	main_z	9	stimuli_distractor_trianglediamonds.svg	stimuli_target_diamondrectangles.svg	27	yes	0	0	2000	0	0			0	0			1				0	
6.6.1	mac	2023-06-27	09:25:03	09:35:47	639955	603ed5d8d98e95fc0e0a67a9	3	1	main_z	11	advance_on_keypress_ZEE	10	stimuli_distractor_trianglediamonds.svg	stimuli_target_diamondrectangles.svg	27	yes	57	0	727	0	0			0	0			1				0	
6.6.1	mac	2023-06-27	09:25:03	09:35:49	641679	603ed5d8d98e95fc0e0a67a9	3	1	main_z	11	main_z	11	stimuli_distractor_diamondtriangles.svg	stimuli_target_squarediamonds.svg	16	yes	44	1	369	0	0			0	0			1				0	
6.6.1	mac	2023-06-27	09:25:03	09:35:49	641679	603ed5d8d98e95fc0e0a67a9	3	1	main_z	11	advance_on_keypress_ZEE	12	stimuli_distractor_diamondtriangles.svg	stimuli_target_squarediamonds.svg	16	yes	57	0	369	0	0			0	0			1				0	
6.6.1	mac	2023-06-27	09:25:03	09:35:50	642943	603ed5d8d98e95fc0e0a67a9	3	1	main_z	11	main_z	13	stimuli_target_diamondsquares.svg	stimuli_distractor_diamondtriangles.svg	24	yes	44	1	265	0	0			0	0			1				0	
6.6.1	mac	2023-06-27	09:25:03	09:35:50	642943	603ed5d8d98e95fc0e0a67a9	3	1	main_z	11	advance_on_keypress_ZEE	14	stimuli_target_diamondsquares.svg	stimuli_distractor_diamondtriangles.svg	24	yes	57	0	156	0	0			0	0			1				0	
6.6.1	mac	2023-06-27	09:25:03	09:35:51	644047	603ed5d8d98e95fc0e0a67a9	3	1	main_z	11	main_z	15	stimuli_target_trianglesquares.svg	stimuli_distractor_trianglediamonds.svg	18	yes	44	1	318	0	0			0	0			1				0	
6.6.1	mac	2023-06-27	09:25:03	09:35:51	644047	603ed5d8d98e95fc0e0a67a9	3	1	main_z	11	advance_on_keypress_ZEE	16	stimuli_target_trianglesquares.svg	stimuli_distractor_trianglediamonds.svg	18	yes	57	0	143	0	0			0	0			1				0	
6.6.1	mac	2023-06-27	09:25:03	09:35:52	645023	603ed5d8d98e95fc0e0a67a9	3	1	main_z	11	main_z	17	stimuli_target_trianglerectangles.svg	stimuli_distractor_diamondtriangles.svg	21	yes	44	1	210	0	0			0	0			1				0	
6.6.1	mac	2023-06-27	09:25:03	09:35:52	645023	603ed5d8d98e95fc0e0a67a9	3	1	main_z	11	advance_on_keypress_ZEE	18	stimuli_target_trianglerectangles.svg	stimuli_distractor_diamondtriangles.svg	21	yes	57	0	137	0	0			0	0			1				0	
6.6.1	mac	2023-06-27	09:25:03	09:35:53	645855	603ed5d8d98e95fc0e0a67a9	3	1	main_z	11	main_z	19	stimuli_distractor_diamondtriangles.svg	stimuli_target_trianglerectangles.svg	29	yes	44	1	75	0	0			0	0			1				0	
6.6.1	mac	2023-06-27	09:25:03	09:35:53	645855	603ed5d8d98e95fc0e0a67a9	3	1	main_z	11	advance_on_keypress_ZEE	20	stimuli_distractor_diamondtriangles.svg	stimuli_target_trianglerectangles.svg	29	yes	57	0	214	0	0			0	0			1				0	
6.6.1	mac	2023-06-27	09:25:03	09:35:56	648696	603ed5d8d98e95fc0e0a67a9	3	1	main_z	11	main_z	21	stimuli_target_squarediamonds.svg	stimuli_distractor_trianglediamonds.svg	4	yes	0	0	2000	0	0			0	0			1				0	
6.6.1	mac	2023-06-27	09:25:03	09:35:56	648696	603ed5d8d98e95fc0e0a67a9	3	1	main_z	11	advance_on_keypress_ZEE	22	stimuli_target_squarediamonds.svg	stimuli_distractor_trianglediamonds.svg	4	yes	57	0	371	0	0			0	0			1				0	
6.6.1	mac	2023-06-27	09:25:03	09:35:59	651699	603ed5d8d98e95fc0e0a67a9	3	1	main_z	11	main_z	23	stimuli_distractor_diamondtriangles.svg	stimuli_target_trianglesquares.svg	30	yes	0	0	2000	0	0			0	0			1				0	
6.6.1	mac	2023-06-27	09:25:03	09:35:59	651699	603ed5d8d98e95fc0e0a67a9	3	1	main_z	11	advance_on_keypress_ZEE	24	stimuli_distractor_diamondtriangles.svg	stimuli_target_trianglesquares.svg	30	yes	57	0	888	0	0			0	0			1				0	
6.6.1	mac	2023-06-27	09:25:03	09:36:00	653567	603ed5d8d98e95fc0e0a67a9	3	1	main_z	11	main_z	25	stimuli_distractor_diamondtriangles.svg	stimuli_target_diamondrectangles.svg	31	yes	44	1	347	0	0			0	0			1				0	
6.6.1	mac	2023-06-27	09:25:03	09:36:00	653567	603ed5d8d98e95fc0e0a67a9	3	1	main_z	11	advance_on_keypress_ZEE	26	stimuli_distractor_diamondtriangles.svg	stimuli_target_diamondrectangles.svg	31	yes	57	0	715	0	0			0	0			1				0	
6.6.1	mac	2023-06-27	09:25:03	09:36:02	655247	603ed5d8d98e95fc0e0a67a9	3	1	main_z	11	main_z	27	stimuli_distractor_diamondtriangles.svg	stimuli_distractor_trianglediamonds.svg	38	no	44	0	326	0	0			0	0			1				0	
6.6.1	mac	2023-06-27	09:25:03	09:36:02	655247	603ed5d8d98e95fc0e0a67a9	3	1	main_z	11	advance_on_keypress_ZEE	28	stimuli_distractor_diamondtriangles.svg	stimuli_distractor_trianglediamonds.svg	38	no	57	0	136	0	0			0	0			1				0	
6.6.1	mac	2023-06-27	09:25:03	09:36:03	656383	603ed5d8d98e95fc0e0a67a9	3	1	main_z	11	main_z	29	stimuli_distractor_diamondtriangles.svg	stimuli_target_rectangletriangles.svg	13	yes	44	1	377	0	0			0	0			1				0	
6.6.1	mac	2023-06-27	09:25:03	09:36:03	656383	603ed5d8d98e95fc0e0a67a9	3	1	main_z	11	advance_on_keypress_ZEE	30	stimuli_distractor_diamondtriangles.svg	stimuli_target_rectangletriangles.svg	13	yes	57	0	121	0	0			0	0			1				0	
6.6.1	mac	2023-06-27	09:25:03	09:36:04	657407	603ed5d8d98e95fc0e0a67a9	3	1	main_z	11	main_z	31	stimuli_distractor_trianglediamonds.svg	stimuli_target_rectanglediamonds.svg	10	yes	44	1	283	0	0			0	0			1				0	
6.6.1	mac	2023-06-27	09:25:03	09:36:04	657407	603ed5d8d98e95fc0e0a67a9	3	1	main_z	11	advance_on_keypress_ZEE	32	stimuli_distractor_trianglediamonds.svg	stimuli_target_rectanglediamonds.svg	10	yes	57	0	111	0	0			0	0			1				0	
6.6.1	mac	2023-06-27	09:25:03	09:36:05	658255	603ed5d8d98e95fc0e0a67a9	3	1	main_z	11	main_z	33	stimuli_distractor_trianglediamonds.svg	stimuli_target_trianglesquares.svg	26	yes	44	1	113	0	0			0	0			1				0	
6.6.1	mac	2023-06-27	09:25:03	09:36:05	658255	603ed5d8d98e95fc0e0a67a9	3	1	main_z	11	advance_on_keypress_ZEE	34	stimuli_distractor_trianglediamonds.svg	stimuli_target_trianglesquares.svg	26	yes	57	0	140	0	0			0	0			1				0	
6.6.1	mac	2023-06-27	09:25:03	09:36:07	659711	603ed5d8d98e95fc0e0a67a9	3	1	main_z	11	main_z	35	stimuli_target_squarediamonds.svg	stimuli_distractor_diamondtriangles.svg	8	yes	44	1	686	0	0			0	0			1				0	
6.6.1	mac	2023-06-27	09:25:03	09:36:07	659711	603ed5d8d98e95fc0e0a67a9	3	1	main_z	11	advance_on_keypress_ZEE	36	stimuli_target_squarediamonds.svg	stimuli_distractor_diamondtriangles.svg	8	yes	57	0	240	0	0			0	0			1				0	
6.6.1	mac	2023-06-27	09:25:03	09:36:08	660815	603ed5d8d98e95fc0e0a67a9	3	1	main_z	11	main_z	37	stimuli_target_rectanglediamonds.svg	stimuli_distractor_trianglediamonds.svg	2	yes	44	1	238	0	0			0	0			1				0	
6.6.1	mac	2023-06-27	09:25:03	09:36:08	660815	603ed5d8d98e95fc0e0a67a9	3	1	main_z	11	advance_on_keypress_ZEE	38	stimuli_target_rectanglediamonds.svg	stimuli_distractor_trianglediamonds.svg	2	yes	57	0	164	0	0			0	0			1				0	
6.6.1	mac	2023-06-27	09:25:03	09:36:09	662287	603ed5d8d98e95fc0e0a67a9	3	1	main_z	11	main_z	39	stimuli_distractor_diamondtriangles.svg	stimuli_distractor_trianglediamonds.svg	37	no	44	0	676	0	0			0	0			1				0	
6.6.1	mac	2023-06-27	09:25:03	09:36:09	662287	603ed5d8d98e95fc0e0a67a9	3	1	main_z	11	advance_on_keypress_ZEE	40	stimuli_distractor_diamondtriangles.svg	stimuli_distractor_trianglediamonds.svg	37	no	57	0	136	0	0			0	0			1				0	
6.6.1	mac	2023-06-27	09:25:03	09:36:10	663327	603ed5d8d98e95fc0e0a67a9	3	1	main_z	11	main_z	41	stimuli_distractor_trianglediamonds.svg	stimuli_target_diamondsquares.svg	28	yes	44	1	282	0	0			0	0			1				0	
6.6.1	mac	2023-06-27	09:25:03	09:36:10	663327	603ed5d8d98e95fc0e0a67a9	3	1	main_z	11	advance_on_keypress_ZEE	42	stimuli_distractor_trianglediamonds.svg	stimuli_target_diamondsquares.svg	28	yes	57	0	189	0	0			0	0			1				0	
6.6.1	mac	2023-06-27	09:25:03	09:36:11	664479	603ed5d8d98e95fc0e0a67a9	3	1	main_z	11	main_z	43	stimuli_distractor_diamondtriangles.svg	stimuli_distractor_diamondtriangles.svg	40	no	44	0	333	0	0			0	0			1				0	
6.6.1	mac	2023-06-27	09:25:03	09:36:11	664479	603ed5d8d98e95fc0e0a67a9	3	1	main_z	11	advance_on_keypress_ZEE	44	stimuli_distractor_diamondtriangles.svg	stimuli_distractor_diamondtriangles.svg	40	no	57	0	174	0	0			0	0			1				0	
6.6.1	mac	2023-06-27	09:25:03	09:36:13	665647	603ed5d8d98e95fc0e0a67a9	3	1	main_z	11	main_z	45	stimuli_target_trianglesquares.svg	stimuli_distractor_diamondtriangles.svg	22	yes	44	1	366	0	0			0	0			1				0	
6.6.1	mac	2023-06-27	09:25:03	09:36:13	665647	603ed5d8d98e95fc0e0a67a9	3	1	main_z	11	advance_on_keypress_ZEE	46	stimuli_target_trianglesquares.svg	stimuli_distractor_diamondtriangles.svg	22	yes	57	0	830	0	0			0	0			1				0	
6.6.1	mac	2023-06-27	09:25:03	09:36:14	667455	603ed5d8d98e95fc0e0a67a9	3	1	main_z	11	main_z	47	stimuli_distractor_trianglediamonds.svg	stimuli_target_trianglerectangles.svg	25	yes	44	1	340	0	0			0	0			1				0	
6.6.1	mac	2023-06-27	09:25:03	09:36:14	667455	603ed5d8d98e95fc0e0a67a9	3	1	main_z	11	advance_on_keypress_ZEE	48	stimuli_distractor_trianglediamonds.svg	stimuli_target_trianglerectangles.svg	25	yes	57	0	389	0	0			0	0			1				0	
6.6.1	mac	2023-06-27	09:25:03	09:36:15	668543	603ed5d8d98e95fc0e0a67a9	3	1	main_z	11	main_z	49	stimuli_target_trianglerectangles.svg	stimuli_distractor_trianglediamonds.svg	17	yes	44	1	77	0	0			0	0			1				0	
6.6.1	mac	2023-06-27	09:25:03	09:36:15	668543	603ed5d8d98e95fc0e0a67a9	3	1	main_z	11	advance_on_keypress_ZEE	50	stimuli_target_trianglerectangles.svg	stimuli_distractor_trianglediamonds.svg	17	yes	57	0	344	0	0			0	0			1				0	
6.6.1	mac	2023-06-27	09:25:03	09:36:17	670223	603ed5d8d98e95fc0e0a67a9	3	1	main_z	11	main_z	51	stimuli_distractor_trianglediamonds.svg	stimuli_distractor_diamondtriangles.svg	35	no	44	0	722	0	0			0	0			1				0	
6.6.1	mac	2023-06-27	09:25:03	09:36:17	670223	603ed5d8d98e95fc0e0a67a9	3	1	main_z	11	advance_on_keypress_ZEE	52	stimuli_distractor_trianglediamonds.svg	stimuli_distractor_diamondtriangles.svg	35	no	57	0	741	0	0			0	0			1				0	
6.6.1	mac	2023-06-27	09:25:03	09:36:19	672255	603ed5d8d98e95fc0e0a67a9	3	1	main_z	11	main_z	53	stimuli_distractor_diamondtriangles.svg	stimuli_target_diamondsquares.svg	32	yes	44	1	670	0	0			0	0			1				0	
6.6.1	mac	2023-06-27	09:25:03	09:36:19	672255	603ed5d8d98e95fc0e0a67a9	3	1	main_z	11	advance_on_keypress_ZEE	54	stimuli_distractor_diamondtriangles.svg	stimuli_target_diamondsquares.svg	32	yes	57	0	593	0	0			0	0			1				0	
6.6.1	mac	2023-06-27	09:25:03	09:36:21	673823	603ed5d8d98e95fc0e0a67a9	3	1	main_z	11	main_z	55	stimuli_distractor_trianglediamonds.svg	stimuli_distractor_trianglediamonds.svg	34	no	44	0	352	0	0			0	0			1				0	
6.6.1	mac	2023-06-27	09:25:03	09:36:21	673823	603ed5d8d98e95fc0e0a67a9	3	1	main_z	11	advance_on_keypress_ZEE	56	stimuli_distractor_trianglediamonds.svg	stimuli_distractor_trianglediamonds.svg	34	no	57	0	177	0	0			0	0			1				0	
6.6.1	mac	2023-06-27	09:25:03	09:36:22	674927	603ed5d8d98e95fc0e0a67a9	3	1	main_z	11	main_z	57	stimuli_target_rectangletriangles.svg	stimuli_distractor_diamondtriangles.svg	5	yes	44	1	306	0	0			0	0			1				0	
6.6.1	mac	2023-06-27	09:25:03	09:36:22	674927	603ed5d8d98e95fc0e0a67a9	3	1	main_z	11	advance_on_keypress_ZEE	58	stimuli_target_rectangletriangles.svg	stimuli_distractor_diamondtriangles.svg	5	yes	57	0	101	0	0			0	0			1				0	
6.6.1	mac	2023-06-27	09:25:03	09:36:23	675711	603ed5d8d98e95fc0e0a67a9	3	1	main_z	11	main_z	59	stimuli_distractor_trianglediamonds.svg	stimuli_distractor_diamondtriangles.svg	36	no	44	0	56	0	0			0	0			1				0	
6.6.1	mac	2023-06-27	09:25:03	09:36:23	675711	603ed5d8d98e95fc0e0a67a9	3	1	main_z	11	advance_on_keypress_ZEE	60	stimuli_distractor_trianglediamonds.svg	stimuli_distractor_diamondtriangles.svg	36	no	57	0	140	0	0			0	0			1				0	
6.6.1	mac	2023-06-27	09:25:03	09:36:24	677135	603ed5d8d98e95fc0e0a67a9	3	1	main_z	11	main_z	61	stimuli_distractor_trianglediamonds.svg	stimuli_target_squaretriangles.svg	11	yes	44	1	645	0	0			0	0			1				0	
6.6.1	mac	2023-06-27	09:25:03	09:36:24	677135	603ed5d8d98e95fc0e0a67a9	3	1	main_z	11	advance_on_keypress_ZEE	62	stimuli_distractor_trianglediamonds.svg	stimuli_target_squaretriangles.svg	11	yes	57	0	218	0	0			0	0			1				0	
6.6.1	mac	2023-06-27	09:25:03	09:36:26	679503	603ed5d8d98e95fc0e0a67a9	3	1	main_z	11	main_z	63	stimuli_target_rectangletriangles.svg	stimuli_distractor_trianglediamonds.svg	1	yes	44	1	1529	0	0			0	0			1				0	
6.6.1	mac	2023-06-27	09:25:03	09:36:26	679503	603ed5d8d98e95fc0e0a67a9	3	1	main_z	11	advance_on_keypress_ZEE	64	stimuli_target_rectangletriangles.svg	stimuli_distractor_trianglediamonds.svg	1	yes	57	0	266	0	0			0	0			1				0	
6.6.1	mac	2023-06-27	09:25:03	09:36:28	680799	603ed5d8d98e95fc0e0a67a9	3	1	main_z	11	main_z	65	stimuli_target_diamondrectangles.svg	stimuli_distractor_trianglediamonds.svg	19	yes	44	1	406	0	0			0	0			1				0	
6.6.1	mac	2023-06-27	09:25:03	09:36:28	680799	603ed5d8d98e95fc0e0a67a9	3	1	main_z	11	advance_on_keypress_ZEE	66	stimuli_target_diamondrectangles.svg	stimuli_distractor_trianglediamonds.svg	19	yes	57	0	108	0	0			0	0			1				0	
6.6.1	mac	2023-06-27	09:25:03	09:36:29	681967	603ed5d8d98e95fc0e0a67a9	3	1	main_z	11	main_z	67	stimuli_distractor_diamondtriangles.svg	stimuli_target_squaretriangles.svg	15	yes	44	1	423	0	0			0	0			1				0	
6.6.1	mac	2023-06-27	09:25:03	09:36:29	681967	603ed5d8d98e95fc0e0a67a9	3	1	main_z	11	advance_on_keypress_ZEE	68	stimuli_distractor_diamondtriangles.svg	stimuli_target_squaretriangles.svg	15	yes	57	0	156	0	0			0	0			1				0	
6.6.1	mac	2023-06-27	09:25:03	09:36:30	683039	603ed5d8d98e95fc0e0a67a9	3	1	main_z	11	main_z	69	stimuli_distractor_diamondtriangles.svg	stimuli_target_rectanglediamonds.svg	14	yes	44	1	277	0	0			0	0			1				0	
6.6.1	mac	2023-06-27	09:25:03	09:36:30	683039	603ed5d8d98e95fc0e0a67a9	3	1	main_z	11	advance_on_keypress_ZEE	70	stimuli_distractor_diamondtriangles.svg	stimuli_target_rectanglediamonds.svg	14	yes	57	0	378	0	0			0	0			1				0	
6.6.1	mac	2023-06-27	09:25:03	09:36:33	686027	603ed5d8d98e95fc0e0a67a9	3	1	main_z	11	main_z	71	stimuli_distractor_trianglediamonds.svg	stimuli_target_squarediamonds.svg	12	yes	0	0	2000	0	0			0	0			1				0	
6.6.1	mac	2023-06-27	09:25:03	09:36:33	686027	603ed5d8d98e95fc0e0a67a9	3	1	main_z	11	advance_on_keypress_ZEE	72	stimuli_distractor_trianglediamonds.svg	stimuli_target_squarediamonds.svg	12	yes	57	0	9071	0	0			0	0			1				0	
6.6.1	mac	2023-06-27	09:25:03	09:36:43	696175	603ed5d8d98e95fc0e0a67a9	3	1	main_z	11	main_z	73	stimuli_distractor_trianglediamonds.svg	stimuli_distractor_trianglediamonds.svg	33	no	44	0	452	0	0			0	0			1				0	
6.6.1	mac	2023-06-27	09:25:03	09:36:43	696175	603ed5d8d98e95fc0e0a67a9	3	1	main_z	11	advance_on_keypress_ZEE	74	stimuli_distractor_trianglediamonds.svg	stimuli_distractor_trianglediamonds.svg	33	no	57	0	129	0	0			0	0			1				0	
6.6.1	mac	2023-06-27	09:25:03	09:36:44	697343	603ed5d8d98e95fc0e0a67a9	3	1	main_z	11	main_z	75	stimuli_target_rectanglediamonds.svg	stimuli_distractor_diamondtriangles.svg	6	yes	44	1	403	0	0			0	0			1				0	
6.6.1	mac	2023-06-27	09:25:03	09:36:44	697343	603ed5d8d98e95fc0e0a67a9	3	1	main_z	11	advance_on_keypress_ZEE	76	stimuli_target_rectanglediamonds.svg	stimuli_distractor_diamondtriangles.svg	6	yes	57	0	17	0	0			0	0			1				0	
6.6.1	mac	2023-06-27	09:25:03	09:36:46	698719	603ed5d8d98e95fc0e0a67a9	3	1	main_z	11	main_z	77	stimuli_target_diamondsquares.svg	stimuli_distractor_trianglediamonds.svg	20	yes	44	1	728	0	0			0	0			1				0	
6.6.1	mac	2023-06-27	09:25:03	09:36:46	698719	603ed5d8d98e95fc0e0a67a9	3	1	main_z	11	advance_on_keypress_ZEE	78	stimuli_target_diamondsquares.svg	stimuli_distractor_trianglediamonds.svg	20	yes	57	0	618	0	0			0	0			1				0	
6.6.1	mac	2023-06-27	09:25:03	09:36:47	700287	603ed5d8d98e95fc0e0a67a9	3	1	main_z	11	main_z	79	stimuli_target_diamondrectangles.svg	stimuli_distractor_diamondtriangles.svg	23	yes	44	1	327	0	0			0	0			1				0	
6.6.1	mac	2023-06-27	09:25:03	09:36:47	700287	603ed5d8d98e95fc0e0a67a9	3	1	main_z	11	advance_on_keypress_ZEE	80	stimuli_target_diamondrectangles.svg	stimuli_distractor_diamondtriangles.svg	23	yes	57	0	554	0	0			0	0			1				0	
6.6.1	mac	2023-06-27	09:25:03	09:36:49	701935	603ed5d8d98e95fc0e0a67a9	3	1	main_z	11	main_z	81	stimuli_distractor_trianglediamonds.svg	stimuli_target_trianglerectangles.svg	25	yes	44	1	474	0	0			0	0			1				0	
6.6.1	mac	2023-06-27	09:25:03	09:36:49	701935	603ed5d8d98e95fc0e0a67a9	3	1	main_z	11	advance_on_keypress_ZEE	82	stimuli_distractor_trianglediamonds.svg	stimuli_target_trianglerectangles.svg	25	yes	57	0	726	0	0			0	0			1				0	
6.6.1	mac	2023-06-27	09:25:03	09:36:51	704223	603ed5d8d98e95fc0e0a67a9	3	1	main_z	11	main_z	83	stimuli_target_trianglerectangles.svg	stimuli_distractor_trianglediamonds.svg	17	yes	44	1	944	0	0			0	0			1				0	
6.6.1	mac	2023-06-27	09:25:03	09:36:51	704223	603ed5d8d98e95fc0e0a67a9	3	1	main_z	11	advance_on_keypress_ZEE	84	stimuli_target_trianglerectangles.svg	stimuli_distractor_trianglediamonds.svg	17	yes	57	0	857	0	0			0	0			1				0	
6.6.1	mac	2023-06-27	09:25:03	09:36:53	706063	603ed5d8d98e95fc0e0a67a9	3	1	main_z	11	main_z	85	stimuli_target_trianglesquares.svg	stimuli_distractor_diamondtriangles.svg	22	yes	44	1	365	0	0			0	0			1				0	
6.6.1	mac	2023-06-27	09:25:03	09:36:53	706063	603ed5d8d98e95fc0e0a67a9	3	1	main_z	11	advance_on_keypress_ZEE	86	stimuli_target_trianglesquares.svg	stimuli_distractor_diamondtriangles.svg	22	yes	57	0	221	0	0			0	0			1				0	
6.6.1	mac	2023-06-27	09:25:03	09:36:54	707423	603ed5d8d98e95fc0e0a67a9	3	1	main_z	11	main_z	87	stimuli_distractor_trianglediamonds.svg	stimuli_target_diamondrectangles.svg	27	yes	44	1	509	0	0			0	0			1				0	
6.6.1	mac	2023-06-27	09:25:03	09:36:54	707423	603ed5d8d98e95fc0e0a67a9	3	1	main_z	11	advance_on_keypress_ZEE	88	stimuli_distractor_trianglediamonds.svg	stimuli_target_diamondrectangles.svg	27	yes	57	0	214	0	0			0	0			1				0	
6.6.1	mac	2023-06-27	09:25:03	09:36:56	708639	603ed5d8d98e95fc0e0a67a9	3	1	main_z	11	main_z	89	stimuli_target_rectanglediamonds.svg	stimuli_distractor_diamondtriangles.svg	6	yes	44	1	373	0	0			0	0			1				0	
6.6.1	mac	2023-06-27	09:25:03	09:36:56	708639	603ed5d8d98e95fc0e0a67a9	3	1	main_z	11	advance_on_keypress_ZEE	90	stimuli_target_rectanglediamonds.svg	stimuli_distractor_diamondtriangles.svg	6	yes	57	0	165	0	0			0	0			1				0	
6.6.1	mac	2023-06-27	09:25:03	09:36:57	709919	603ed5d8d98e95fc0e0a67a9	3	1	main_z	11	main_z	91	stimuli_target_squaretriangles.svg	stimuli_distractor_trianglediamonds.svg	3	yes	44	1	485	0	0			0	0			1				0	
6.6.1	mac	2023-06-27	09:25:03	09:36:57	709919	603ed5d8d98e95fc0e0a67a9	3	1	main_z	11	advance_on_keypress_ZEE	92	stimuli_target_squaretriangles.svg	stimuli_distractor_trianglediamonds.svg	3	yes	57	0	128	0	0			0	0			1				0	
6.6.1	mac	2023-06-27	09:25:03	09:36:58	711135	603ed5d8d98e95fc0e0a67a9	3	1	main_z	11	main_z	93	stimuli_target_squaretriangles.svg	stimuli_distractor_diamondtriangles.svg	7	yes	44	1	468	0	0			0	0			1				0	
6.6.1	mac	2023-06-27	09:25:03	09:36:58	711135	603ed5d8d98e95fc0e0a67a9	3	1	main_z	11	advance_on_keypress_ZEE	94	stimuli_target_squaretriangles.svg	stimuli_distractor_diamondtriangles.svg	7	yes	57	0	159	0	0			0	0			1				0	
6.6.1	mac	2023-06-27	09:25:03	09:36:59	712302	603ed5d8d98e95fc0e0a67a9	3	1	main_z	11	main_z	95	stimuli_distractor_trianglediamonds.svg	stimuli_distractor_trianglediamonds.svg	34	no	44	0	383	0	0			0	0			1				0	
6.6.1	mac	2023-06-27	09:25:03	09:36:59	712302	603ed5d8d98e95fc0e0a67a9	3	1	main_z	11	advance_on_keypress_ZEE	96	stimuli_distractor_trianglediamonds.svg	stimuli_distractor_trianglediamonds.svg	34	no	57	0	111	0	0			0	0			1				0	
6.6.1	mac	2023-06-27	09:25:03	09:37:00	713487	603ed5d8d98e95fc0e0a67a9	3	1	main_z	11	main_z	97	stimuli_target_rectangletriangles.svg	stimuli_distractor_trianglediamonds.svg	1	yes	44	1	450	0	0			0	0			1				0	
6.6.1	mac	2023-06-27	09:25:03	09:37:00	713487	603ed5d8d98e95fc0e0a67a9	3	1	main_z	11	advance_on_keypress_ZEE	98	stimuli_target_rectangletriangles.svg	stimuli_distractor_trianglediamonds.svg	1	yes	57	0	1215	0	0			0	0			1				0	
6.6.1	mac	2023-06-27	09:25:03	09:37:03	715679	603ed5d8d98e95fc0e0a67a9	3	1	main_z	11	main_z	99	stimuli_distractor_trianglediamonds.svg	stimuli_target_diamondsquares.svg	28	yes	44	1	340	0	0			0	0			1				0	
6.6.1	mac	2023-06-27	09:25:03	09:37:03	715679	603ed5d8d98e95fc0e0a67a9	3	1	main_z	11	advance_on_keypress_ZEE	100	stimuli_distractor_trianglediamonds.svg	stimuli_target_diamondsquares.svg	28	yes	57	0	149	0	0			0	0			1				0	
6.6.1	mac	2023-06-27	09:25:03	09:37:05	718454	603ed5d8d98e95fc0e0a67a9	3	1	main_z	11	main_z	101	stimuli_distractor_diamondtriangles.svg	stimuli_target_diamondsquares.svg	32	yes	0	0	2000	0	0			0	0			1				0	
6.6.1	mac	2023-06-27	09:25:03	09:37:05	718454	603ed5d8d98e95fc0e0a67a9	3	1	main_z	11	advance_on_keypress_ZEE	102	stimuli_distractor_diamondtriangles.svg	stimuli_target_diamondsquares.svg	32	yes	57	0	437	0	0			0	0			1				0	
6.6.1	mac	2023-06-27	09:25:03	09:37:07	719839	603ed5d8d98e95fc0e0a67a9	3	1	main_z	11	main_z	103	stimuli_distractor_diamondtriangles.svg	stimuli_distractor_diamondtriangles.svg	40	no	44	0	330	0	0			0	0			1				0	
6.6.1	mac	2023-06-27	09:25:03	09:37:07	719839	603ed5d8d98e95fc0e0a67a9	3	1	main_z	11	advance_on_keypress_ZEE	104	stimuli_distractor_diamondtriangles.svg	stimuli_distractor_diamondtriangles.svg	40	no	57	0	187	0	0			0	0			1				0	
6.6.1	mac	2023-06-27	09:25:03	09:37:08	720943	603ed5d8d98e95fc0e0a67a9	3	1	main_z	11	main_z	105	stimuli_distractor_diamondtriangles.svg	stimuli_distractor_diamondtriangles.svg	39	no	44	0	284	0	0			0	0			1				0	
6.6.1	mac	2023-06-27	09:25:03	09:37:08	720943	603ed5d8d98e95fc0e0a67a9	3	1	main_z	11	advance_on_keypress_ZEE	106	stimuli_distractor_diamondtriangles.svg	stimuli_distractor_diamondtriangles.svg	39	no	57	0	127	0	0			0	0			1				0	
6.6.1	mac	2023-06-27	09:25:03	09:37:09	721903	603ed5d8d98e95fc0e0a67a9	3	1	main_z	11	main_z	107	stimuli_target_rectanglediamonds.svg	stimuli_distractor_trianglediamonds.svg	2	yes	44	1	210	0	0			0	0			1				0	
6.6.1	mac	2023-06-27	09:25:03	09:37:09	721903	603ed5d8d98e95fc0e0a67a9	3	1	main_z	11	advance_on_keypress_ZEE	108	stimuli_target_rectanglediamonds.svg	stimuli_distractor_trianglediamonds.svg	2	yes	57	0	135	0	0			0	0			1				0	
6.6.1	mac	2023-06-27	09:25:03	09:37:10	722687	603ed5d8d98e95fc0e0a67a9	3	1	main_z	11	main_z	109	stimuli_distractor_trianglediamonds.svg	stimuli_distractor_trianglediamonds.svg	33	no	44	0	25	0	0			0	0			1				0	
6.6.1	mac	2023-06-27	09:25:03	09:37:10	722687	603ed5d8d98e95fc0e0a67a9	3	1	main_z	11	advance_on_keypress_ZEE	110	stimuli_distractor_trianglediamonds.svg	stimuli_distractor_trianglediamonds.svg	33	no	57	0	175	0	0			0	0			1				0	
6.6.1	mac	2023-06-27	09:25:03	09:37:12	725494	603ed5d8d98e95fc0e0a67a9	3	1	main_z	11	main_z	111	stimuli_distractor_trianglediamonds.svg	stimuli_target_squaretriangles.svg	11	yes	0	0	2000	0	0			0	0			1				0	
6.6.1	mac	2023-06-27	09:25:03	09:37:12	725494	603ed5d8d98e95fc0e0a67a9	3	1	main_z	11	advance_on_keypress_ZEE	112	stimuli_distractor_trianglediamonds.svg	stimuli_target_squaretriangles.svg	11	yes	57	0	485	0	0			0	0			1				0	
6.6.1	mac	2023-06-27	09:25:03	09:37:14	727151	603ed5d8d98e95fc0e0a67a9	3	1	main_z	11	main_z	113	stimuli_distractor_trianglediamonds.svg	stimuli_distractor_diamondtriangles.svg	36	no	44	0	536	0	0			0	0			1				0	
6.6.1	mac	2023-06-27	09:25:03	09:37:14	727151	603ed5d8d98e95fc0e0a67a9	3	1	main_z	11	advance_on_keypress_ZEE	114	stimuli_distractor_trianglediamonds.svg	stimuli_distractor_diamondtriangles.svg	36	no	57	0	209	0	0			0	0			1				0	
6.6.1	mac	2023-06-27	09:25:03	09:37:15	728559	603ed5d8d98e95fc0e0a67a9	3	1	main_z	11	main_z	115	stimuli_distractor_trianglediamonds.svg	stimuli_target_rectanglediamonds.svg	10	yes	44	1	576	0	0			0	0			1				0	
6.6.1	mac	2023-06-27	09:25:03	09:37:15	728559	603ed5d8d98e95fc0e0a67a9	3	1	main_z	11	advance_on_keypress_ZEE	116	stimuli_distractor_trianglediamonds.svg	stimuli_target_rectanglediamonds.svg	10	yes	57	0	1439	0	0			0	0			1				0	
6.6.1	mac	2023-06-27	09:25:03	09:37:18	731023	603ed5d8d98e95fc0e0a67a9	3	1	main_z	11	main_z	117	stimuli_distractor_trianglediamonds.svg	stimuli_target_trianglesquares.svg	26	yes	44	1	388	0	0			0	0			1				0	
6.6.1	mac	2023-06-27	09:25:03	09:37:18	731023	603ed5d8d98e95fc0e0a67a9	3	1	main_z	11	advance_on_keypress_ZEE	118	stimuli_distractor_trianglediamonds.svg	stimuli_target_trianglesquares.svg	26	yes	57	0	227	0	0			0	0			1				0	
6.6.1	mac	2023-06-27	09:25:03	09:37:19	732575	603ed5d8d98e95fc0e0a67a9	3	1	main_z	11	main_z	119	stimuli_target_diamondsquares.svg	stimuli_distractor_diamondtriangles.svg	24	yes	44	1	706	0	0			0	0			1				0	
6.6.1	mac	2023-06-27	09:25:03	09:37:19	732575	603ed5d8d98e95fc0e0a67a9	3	1	main_z	11	advance_on_keypress_ZEE	120	stimuli_target_diamondsquares.svg	stimuli_distractor_diamondtriangles.svg	24	yes	57	0	292	0	0			0	0			1				0	
6.6.1	mac	2023-06-27	09:25:03	09:37:21	733791	603ed5d8d98e95fc0e0a67a9	3	1	main_z	11	main_z	121	stimuli_distractor_diamondtriangles.svg	stimuli_target_rectangletriangles.svg	13	yes	44	1	303	0	0			0	0			1				0	
6.6.1	mac	2023-06-27	09:25:03	09:37:21	733791	603ed5d8d98e95fc0e0a67a9	3	1	main_z	11	advance_on_keypress_ZEE	122	stimuli_distractor_diamondtriangles.svg	stimuli_target_rectangletriangles.svg	13	yes	57	0	98	0	0			0	0			1				0	
6.6.1	mac	2023-06-27	09:25:03	09:37:21	734526	603ed5d8d98e95fc0e0a67a9	3	1	main_z	11	main_z	123	stimuli_target_trianglesquares.svg	stimuli_distractor_trianglediamonds.svg	18	yes	44	1	5	0	0			0	0			1				0	
6.6.1	mac	2023-06-27	09:25:03	09:37:21	734526	603ed5d8d98e95fc0e0a67a9	3	1	main_z	11	advance_on_keypress_ZEE	124	stimuli_target_trianglesquares.svg	stimuli_distractor_trianglediamonds.svg	18	yes	57	0	124	0	0			0	0			1				0	
6.6.1	mac	2023-06-27	09:25:03	09:37:24	737287	603ed5d8d98e95fc0e0a67a9	3	1	main_z	11	main_z	125	stimuli_distractor_diamondtriangles.svg	stimuli_target_squarediamonds.svg	16	yes	0	0	2000	0	0			0	0			1				0	
6.6.1	mac	2023-06-27	09:25:03	09:37:24	737287	603ed5d8d98e95fc0e0a67a9	3	1	main_z	11	advance_on_keypress_ZEE	126	stimuli_distractor_diamondtriangles.svg	stimuli_target_squarediamonds.svg	16	yes	57	0	516	0	0			0	0			1				0	
6.6.1	mac	2023-06-27	09:25:03	09:37:27	740439	603ed5d8d98e95fc0e0a67a9	3	1	main_z	11	main_z	127	stimuli_distractor_diamondtriangles.svg	stimuli_target_trianglesquares.svg	30	yes	0	0	2000	0	0			0	0			1				0	
6.6.1	mac	2023-06-27	09:25:03	09:37:27	740439	603ed5d8d98e95fc0e0a67a9	3	1	main_z	11	advance_on_keypress_ZEE	128	stimuli_distractor_diamondtriangles.svg	stimuli_target_trianglesquares.svg	30	yes	57	0	451	0	0			0	0			1				0	
6.6.1	mac	2023-06-27	09:25:03	09:37:29	742047	603ed5d8d98e95fc0e0a67a9	3	1	main_z	11	main_z	129	stimuli_target_diamondsquares.svg	stimuli_distractor_trianglediamonds.svg	20	yes	44	1	519	0	0			0	0			1				0	
6.6.1	mac	2023-06-27	09:25:03	09:37:29	742047	603ed5d8d98e95fc0e0a67a9	3	1	main_z	11	advance_on_keypress_ZEE	130	stimuli_target_diamondsquares.svg	stimuli_distractor_trianglediamonds.svg	20	yes	57	0	177	0	0			0	0			1				0	
6.6.1	mac	2023-06-27	09:25:03	09:37:30	743199	603ed5d8d98e95fc0e0a67a9	3	1	main_z	11	main_z	131	stimuli_target_diamondrectangles.svg	stimuli_distractor_trianglediamonds.svg	19	yes	44	1	354	0	0			0	0			1				0	
6.6.1	mac	2023-06-27	09:25:03	09:37:30	743199	603ed5d8d98e95fc0e0a67a9	3	1	main_z	11	advance_on_keypress_ZEE	132	stimuli_target_diamondrectangles.svg	stimuli_distractor_trianglediamonds.svg	19	yes	57	0	114	0	0			0	0			1				0	
6.6.1	mac	2023-06-27	09:25:03	09:37:31	744175	603ed5d8d98e95fc0e0a67a9	3	1	main_z	11	main_z	133	stimuli_target_trianglerectangles.svg	stimuli_distractor_diamondtriangles.svg	21	yes	44	1	229	0	0			0	0			1				0	
6.6.1	mac	2023-06-27	09:25:03	09:37:31	744175	603ed5d8d98e95fc0e0a67a9	3	1	main_z	11	advance_on_keypress_ZEE	134	stimuli_target_trianglerectangles.svg	stimuli_distractor_diamondtriangles.svg	21	yes	57	0	122	0	0			0	0			1				0	
6.6.1	mac	2023-06-27	09:25:03	09:37:32	744942	603ed5d8d98e95fc0e0a67a9	3	1	main_z	11	main_z	135	stimuli_distractor_trianglediamonds.svg	stimuli_target_squarediamonds.svg	12	yes	44	1	12	0	0			0	0			1				0	
6.6.1	mac	2023-06-27	09:25:03	09:37:32	744942	603ed5d8d98e95fc0e0a67a9	3	1	main_z	11	advance_on_keypress_ZEE	136	stimuli_distractor_trianglediamonds.svg	stimuli_target_squarediamonds.svg	12	yes	57	0	170	0	0			0	0			1				0	
6.6.1	mac	2023-06-27	09:25:03	09:37:33	746431	603ed5d8d98e95fc0e0a67a9	3	1	main_z	11	main_z	137	stimuli_distractor_diamondtriangles.svg	stimuli_target_rectanglediamonds.svg	14	yes	44	1	684	0	0			0	0			1				0	
6.6.1	mac	2023-06-27	09:25:03	09:37:33	746431	603ed5d8d98e95fc0e0a67a9	3	1	main_z	11	advance_on_keypress_ZEE	138	stimuli_distractor_diamondtriangles.svg	stimuli_target_rectanglediamonds.svg	14	yes	57	0	207	0	0			0	0			1				0	
6.6.1	mac	2023-06-27	09:25:03	09:37:35	747871	603ed5d8d98e95fc0e0a67a9	3	1	main_z	11	main_z	139	stimuli_distractor_diamondtriangles.svg	stimuli_distractor_trianglediamonds.svg	38	no	44	0	605	0	0			0	0			1				0	
6.6.1	mac	2023-06-27	09:25:03	09:37:35	747871	603ed5d8d98e95fc0e0a67a9	3	1	main_z	11	advance_on_keypress_ZEE	140	stimuli_distractor_diamondtriangles.svg	stimuli_distractor_trianglediamonds.svg	38	no	57	0	196	0	0			0	0			1				0	
6.6.1	mac	2023-06-27	09:25:03	09:37:36	749247	603ed5d8d98e95fc0e0a67a9	3	1	main_z	11	main_z	141	stimuli_distractor_diamondtriangles.svg	stimuli_target_squaretriangles.svg	15	yes	44	1	564	0	0			0	0			1				0	
6.6.1	mac	2023-06-27	09:25:03	09:37:36	749247	603ed5d8d98e95fc0e0a67a9	3	1	main_z	11	advance_on_keypress_ZEE	142	stimuli_distractor_diamondtriangles.svg	stimuli_target_squaretriangles.svg	15	yes	57	0	236	0	0			0	0			1				0	
6.6.1	mac	2023-06-27	09:25:03	09:37:37	750510	603ed5d8d98e95fc0e0a67a9	3	1	main_z	11	main_z	143	stimuli_distractor_trianglediamonds.svg	stimuli_distractor_diamondtriangles.svg	35	no	44	0	393	0	0			0	0			1				0	
6.6.1	mac	2023-06-27	09:25:03	09:37:37	750510	603ed5d8d98e95fc0e0a67a9	3	1	main_z	11	advance_on_keypress_ZEE	144	stimuli_distractor_trianglediamonds.svg	stimuli_distractor_diamondtriangles.svg	35	no	57	0	144	0	0			0	0			1				0	
6.6.1	mac	2023-06-27	09:25:03	09:37:39	751839	603ed5d8d98e95fc0e0a67a9	3	1	main_z	11	main_z	145	stimuli_distractor_diamondtriangles.svg	stimuli_target_trianglerectangles.svg	29	yes	44	1	553	0	0			0	0			1				0	
6.6.1	mac	2023-06-27	09:25:03	09:37:39	751839	603ed5d8d98e95fc0e0a67a9	3	1	main_z	11	advance_on_keypress_ZEE	146	stimuli_distractor_diamondtriangles.svg	stimuli_target_trianglerectangles.svg	29	yes	57	0	177	0	0			0	0			1				0	
6.6.1	mac	2023-06-27	09:25:03	09:37:40	753231	603ed5d8d98e95fc0e0a67a9	3	1	main_z	11	main_z	147	stimuli_target_diamondrectangles.svg	stimuli_distractor_diamondtriangles.svg	23	yes	44	1	594	0	0			0	0			1				0	
6.6.1	mac	2023-06-27	09:25:03	09:37:40	753231	603ed5d8d98e95fc0e0a67a9	3	1	main_z	11	advance_on_keypress_ZEE	148	stimuli_target_diamondrectangles.svg	stimuli_distractor_diamondtriangles.svg	23	yes	57	0	170	0	0			0	0			1				0	
6.6.1	mac	2023-06-27	09:25:03	09:37:41	754542	603ed5d8d98e95fc0e0a67a9	3	1	main_z	11	main_z	149	stimuli_distractor_diamondtriangles.svg	stimuli_target_diamondrectangles.svg	31	yes	44	1	522	0	0			0	0			1				0	
6.6.1	mac	2023-06-27	09:25:03	09:37:41	754542	603ed5d8d98e95fc0e0a67a9	3	1	main_z	11	advance_on_keypress_ZEE	150	stimuli_distractor_diamondtriangles.svg	stimuli_target_diamondrectangles.svg	31	yes	57	0	187	0	0			0	0			1				0	
6.6.1	mac	2023-06-27	09:25:03	09:37:42	755503	603ed5d8d98e95fc0e0a67a9	3	1	main_z	11	main_z	151	stimuli_target_squarediamonds.svg	stimuli_distractor_trianglediamonds.svg	4	yes	44	1	130	0	0			0	0			1				0	
6.6.1	mac	2023-06-27	09:25:03	09:37:42	755503	603ed5d8d98e95fc0e0a67a9	3	1	main_z	11	advance_on_keypress_ZEE	152	stimuli_target_squarediamonds.svg	stimuli_distractor_trianglediamonds.svg	4	yes	57	0	108	0	0			0	0			1				0	
6.6.1	mac	2023-06-27	09:25:03	09:37:43	756271	603ed5d8d98e95fc0e0a67a9	3	1	main_z	11	main_z	153	stimuli_distractor_trianglediamonds.svg	stimuli_target_rectangletriangles.svg	9	yes	44	1	32	0	0			0	0			1				0	
6.6.1	mac	2023-06-27	09:25:03	09:37:43	756271	603ed5d8d98e95fc0e0a67a9	3	1	main_z	11	advance_on_keypress_ZEE	154	stimuli_distractor_trianglediamonds.svg	stimuli_target_rectangletriangles.svg	9	yes	57	0	92	0	0			0	0			1				0	
6.6.1	mac	2023-06-27	09:25:03	09:37:44	757615	603ed5d8d98e95fc0e0a67a9	3	1	main_z	11	main_z	155	stimuli_target_rectangletriangles.svg	stimuli_distractor_diamondtriangles.svg	5	yes	44	1	625	0	0			0	0			1				0	
6.6.1	mac	2023-06-27	09:25:03	09:37:44	757615	603ed5d8d98e95fc0e0a67a9	3	1	main_z	11	advance_on_keypress_ZEE	156	stimuli_target_rectangletriangles.svg	stimuli_distractor_diamondtriangles.svg	5	yes	57	0	214	0	0			0	0			1				0	
6.6.1	mac	2023-06-27	09:25:03	09:37:46	758895	603ed5d8d98e95fc0e0a67a9	3	1	main_z	11	main_z	157	stimuli_target_squarediamonds.svg	stimuli_distractor_diamondtriangles.svg	8	yes	44	1	437	0	0			0	0			1				0	
6.6.1	mac	2023-06-27	09:25:03	09:37:46	758895	603ed5d8d98e95fc0e0a67a9	3	1	main_z	11	advance_on_keypress_ZEE	158	stimuli_target_squarediamonds.svg	stimuli_distractor_diamondtriangles.svg	8	yes	57	0	162	0	0			0	0			1				0	
6.6.1	mac	2023-06-27	09:25:03	09:37:47	760111	603ed5d8d98e95fc0e0a67a9	3	1	main_z	11	main_z	159	stimuli_distractor_diamondtriangles.svg	stimuli_distractor_trianglediamonds.svg	37	no	44	0	418	0	0			0	0			1				0	
6.6.1	mac	2023-06-27	09:25:03	09:37:47	760111	603ed5d8d98e95fc0e0a67a9	3	1	main_z	11	advance_on_keypress_ZEE	160	stimuli_distractor_diamondtriangles.svg	stimuli_distractor_trianglediamonds.svg	37	no	57	0	240	0	0			0	0			1				0	
6.6.1	mac	2023-06-27	09:25:03	09:37:47	760111	603ed5d8d98e95fc0e0a67a9	3	1	headphonecheck_calibration	14	headphonecheck_calibrationIntro	1	stimuli_distractor_diamondtriangles.svg	stimuli_distractor_trianglediamonds.svg	37	no	calibrationButton	0	2474	0	0			0	0			1				0	
6.6.1	mac	2023-06-27	09:25:03	09:37:47	760111	603ed5d8d98e95fc0e0a67a9	3	1	headphonecheck_testphase	15	test_collectResponse	3	stimuli_distractor_diamondtriangles.svg	stimuli_distractor_trianglediamonds.svg	37	no	first	0	11609	1	2	antiphase_hc_ios.wav	3	0	0			1				0	
6.6.1	mac	2023-06-27	09:25:03	09:37:47	760111	603ed5d8d98e95fc0e0a67a9	3	1	headphonecheck_testphase	15	test_collectResponse	6	stimuli_distractor_diamondtriangles.svg	stimuli_distractor_trianglediamonds.svg	37	no	third	0	816	2	4	antiphase_hc_sio.wav	1	0	0			1				0	
6.6.1	mac	2023-06-27	09:25:03	09:37:47	760111	603ed5d8d98e95fc0e0a67a9	3	1	headphonecheck_testphase	15	test_collectResponse	9	stimuli_distractor_diamondtriangles.svg	stimuli_distractor_trianglediamonds.svg	37	no	third	0	2415	3	1	antiphase_hc_iso.wav	2	0	0			1				0	
6.6.1	mac	2023-06-27	09:25:03	09:37:47	760111	603ed5d8d98e95fc0e0a67a9	3	1	headphonecheck_testphase	15	test_collectResponse	12	stimuli_distractor_diamondtriangles.svg	stimuli_distractor_trianglediamonds.svg	37	no	second	0	1082	4	3	antiphase_hc_soi.wav	1	0	0			1				0	
6.6.1	mac	2023-06-27	09:25:03	09:37:47	760111	603ed5d8d98e95fc0e0a67a9	3	1	headphonecheck_testphase	15	test_collectResponse	15	stimuli_distractor_diamondtriangles.svg	stimuli_distractor_trianglediamonds.svg	37	no	first	0	619	5	5	antiphase_hc_osi.wav	2	0	0			1				0	
6.6.1	mac	2023-06-27	09:25:03	09:37:47	760111	603ed5d8d98e95fc0e0a67a9	3	1	headphonecheck_testphase	15	test_collectResponse	18	stimuli_distractor_diamondtriangles.svg	stimuli_distractor_trianglediamonds.svg	37	no	third	1	530	6	6	antiphase_hc_ois.wav	3	0	0			1				0	
6.6.1	mac	2023-06-27	09:25:03	09:37:47	760111	603ed5d8d98e95fc0e0a67a9	3	1	stereocheck_calibration	17	stereocheck_calibrationIntro	1	stimuli_distractor_diamondtriangles.svg	stimuli_distractor_trianglediamonds.svg	37	no	stereocheck_calibrationButton	0	6005	6	6	antiphase_hc_ois.wav	3	0	0			1				0	
6.6.1	mac	2023-06-27	09:25:03	09:37:47	760111	603ed5d8d98e95fc0e0a67a9	3	1	stereocheck_testphase	18	stereocheck_test_collectResponse	3	stimuli_distractor_diamondtriangles.svg	stimuli_distractor_trianglediamonds.svg	37	no	stereocheck_left	1	703	6	6	antiphase_hc_ois.wav	3	1	1	noise_calib_stim_LEFT.wav	1	1				0	
6.6.1	mac	2023-06-27	09:25:03	09:37:47	760111	603ed5d8d98e95fc0e0a67a9	3	1	stereocheck_testphase	18	stereocheck_test_collectResponse	6	stimuli_distractor_diamondtriangles.svg	stimuli_distractor_trianglediamonds.svg	37	no	stereocheck_right	1	412	6	6	antiphase_hc_ois.wav	3	2	5	noise_calib_stim_RIGHT.wav	2	1				0	
6.6.1	mac	2023-06-27	09:25:03	09:37:47	760111	603ed5d8d98e95fc0e0a67a9	3	1	stereocheck_testphase	18	stereocheck_test_collectResponse	9	stimuli_distractor_diamondtriangles.svg	stimuli_distractor_trianglediamonds.svg	37	no	stereocheck_right	1	260	6	6	antiphase_hc_ois.wav	3	3	4	noise_calib_stim_RIGHT.wav	2	1				0	
6.6.1	mac	2023-06-27	09:25:03	09:37:47	760111	603ed5d8d98e95fc0e0a67a9	3	1	stereocheck_testphase	18	stereocheck_test_collectResponse	12	stimuli_distractor_diamondtriangles.svg	stimuli_distractor_trianglediamonds.svg	37	no	stereocheck_right	1	252	6	6	antiphase_hc_ois.wav	3	4	6	noise_calib_stim_RIGHT.wav	2	1				0	
6.6.1	mac	2023-06-27	09:25:03	09:37:47	760111	603ed5d8d98e95fc0e0a67a9	3	1	stereocheck_testphase	18	stereocheck_test_collectResponse	15	stimuli_distractor_diamondtriangles.svg	stimuli_distractor_trianglediamonds.svg	37	no	stereocheck_left	1	299	6	6	antiphase_hc_ois.wav	3	5	2	noise_calib_stim_LEFT.wav	1	1				0	
6.6.1	mac	2023-06-27	09:25:03	09:37:47	760111	603ed5d8d98e95fc0e0a67a9	3	1	stereocheck_testphase	18	stereocheck_test_collectResponse	18	stimuli_distractor_diamondtriangles.svg	stimuli_distractor_trianglediamonds.svg	37	no	stereocheck_left	1	275	6	6	antiphase_hc_ois.wav	3	6	3	noise_calib_stim_LEFT.wav	1	1				0	
6.6.1	mac	2023-06-27	09:25:03	09:37:47	760111	603ed5d8d98e95fc0e0a67a9	3	1	DL_practice	21	DL_practice	2	stimuli_distractor_diamondtriangles.svg	stimuli_distractor_trianglediamonds.svg	37	no	da	1	3831	6	6	antiphase_hc_ois.wav	3	6	3	noise_calib_stim_LEFT.wav	1	8	blb_dichoticlistening_da-da.mp3	da	da	0	left
6.6.1	mac	2023-06-27	09:25:03	09:37:47	760111	603ed5d8d98e95fc0e0a67a9	3	1	DL_practice	21	DL_practice	3	stimuli_distractor_diamondtriangles.svg	stimuli_distractor_trianglediamonds.svg	37	no	ka	1	1509	6	6	antiphase_hc_ois.wav	3	6	3	noise_calib_stim_LEFT.wav	1	23	blb_dichoticlistening_ka-pa.mp3	ka	pa	1	left
6.6.1	mac	2023-06-27	09:25:03	09:37:47	760111	603ed5d8d98e95fc0e0a67a9	3	1	DL_practice	21	DL_practice	4	stimuli_distractor_diamondtriangles.svg	stimuli_distractor_trianglediamonds.svg	37	no	pa	1	963	6	6	antiphase_hc_ois.wav	3	6	3	noise_calib_stim_LEFT.wav	1	29	blb_dichoticlistening_pa-pa.mp3	pa	pa	0	left
6.6.1	mac	2023-06-27	09:25:03	09:37:47	760111	603ed5d8d98e95fc0e0a67a9	3	1	DL_practice	21	DL_practice	5	stimuli_distractor_diamondtriangles.svg	stimuli_distractor_trianglediamonds.svg	37	no	ga	1	1299	6	6	antiphase_hc_ois.wav	3	6	3	noise_calib_stim_LEFT.wav	1	18	blb_dichoticlistening_ga-ta.mp3	ga	ta	1	left
6.6.1	mac	2023-06-27	09:25:03	09:37:47	760111	603ed5d8d98e95fc0e0a67a9	3	1	DL_practice	21	DL_practice	6	stimuli_distractor_diamondtriangles.svg	stimuli_distractor_trianglediamonds.svg	37	no	ga	1	736	6	6	antiphase_hc_ois.wav	3	6	3	noise_calib_stim_LEFT.wav	1	15	blb_dichoticlistening_ga-ga.mp3	ga	ga	0	left
6.6.1	mac	2023-06-27	09:25:03	09:37:47	760111	603ed5d8d98e95fc0e0a67a9	3	1	DL_practice	21	DL_practice	7	stimuli_distractor_diamondtriangles.svg	stimuli_distractor_trianglediamonds.svg	37	no	ka	1	1545	6	6	antiphase_hc_ois.wav	3	6	3	noise_calib_stim_LEFT.wav	1	22	blb_dichoticlistening_ka-ka.mp3	ka	ka	0	left
6.6.1	mac	2023-06-27	09:25:03	09:37:47	760111	603ed5d8d98e95fc0e0a67a9	3	1	DL_practice	21	DL_practice	8	stimuli_distractor_diamondtriangles.svg	stimuli_distractor_trianglediamonds.svg	37	no	ta	1	2084	6	6	antiphase_hc_ois.wav	3	6	3	noise_calib_stim_LEFT.wav	1	36	blb_dichoticlistening_ta-ta.mp3	ta	ta	0	left
6.6.1	mac	2023-06-27	09:25:03	09:37:47	760111	603ed5d8d98e95fc0e0a67a9	3	1	DL_practice	21	DL_practice	9	stimuli_distractor_diamondtriangles.svg	stimuli_distractor_trianglediamonds.svg	37	no	ba	1	1319	6	6	antiphase_hc_ois.wav	3	6	3	noise_calib_stim_LEFT.wav	1	7	blb_dichoticlistening_da-ba.mp3	da	ba	1	right
6.6.1	mac	2023-06-27	09:25:03	09:37:47	760111	603ed5d8d98e95fc0e0a67a9	3	1	DL_practice	21	DL_practice	10	stimuli_distractor_diamondtriangles.svg	stimuli_distractor_trianglediamonds.svg	37	no	ba	1	920	6	6	antiphase_hc_ois.wav	3	6	3	noise_calib_stim_LEFT.wav	1	1	blb_dichoticlistening_ba-ba.mp3	ba	ba	0	left
6.6.1	mac	2023-06-27	09:25:03	09:37:47	760111	603ed5d8d98e95fc0e0a67a9	3	1	DL_test	23	DL_test	1	stimuli_distractor_diamondtriangles.svg	stimuli_distractor_trianglediamonds.svg	37	no	ga	1	934	6	6	antiphase_hc_ois.wav	3	6	3	noise_calib_stim_LEFT.wav	1	18	blb_dichoticlistening_ga-ta.mp3	ga	ta	1	left
6.6.1	mac	2023-06-27	09:25:03	09:37:47	760111	603ed5d8d98e95fc0e0a67a9	3	1	DL_test	23	DL_test	2	stimuli_distractor_diamondtriangles.svg	stimuli_distractor_trianglediamonds.svg	37	no	ta	1	1958	6	6	antiphase_hc_ois.wav	3	6	3	noise_calib_stim_LEFT.wav	1	36	blb_dichoticlistening_ta-ta.mp3	ta	ta	0	left
6.6.1	mac	2023-06-27	09:25:03	09:37:47	760111	603ed5d8d98e95fc0e0a67a9	3	1	DL_test	23	DL_test	3	stimuli_distractor_diamondtriangles.svg	stimuli_distractor_trianglediamonds.svg	37	no	ba	1	1217	6	6	antiphase_hc_ois.wav	3	6	3	noise_calib_stim_LEFT.wav	1	13	blb_dichoticlistening_ga-ba.mp3	ga	ba	1	right
6.6.1	mac	2023-06-27	09:25:03	09:37:47	760111	603ed5d8d98e95fc0e0a67a9	3	1	DL_test	23	DL_test	4	stimuli_distractor_diamondtriangles.svg	stimuli_distractor_trianglediamonds.svg	37	no	da	1	899	6	6	antiphase_hc_ois.wav	3	6	3	noise_calib_stim_LEFT.wav	1	11	blb_dichoticlistening_da-pa.mp3	da	pa	1	left
6.6.1	mac	2023-06-27	09:25:03	09:37:47	760111	603ed5d8d98e95fc0e0a67a9	3	1	DL_test	23	DL_test	5	stimuli_distractor_diamondtriangles.svg	stimuli_distractor_trianglediamonds.svg	37	no	pa	1	1140	6	6	antiphase_hc_ois.wav	3	6	3	noise_calib_stim_LEFT.wav	1	25	blb_dichoticlistening_pa-ba.mp3	pa	ba	1	left
6.6.1	mac	2023-06-27	09:25:03	09:37:47	760111	603ed5d8d98e95fc0e0a67a9	3	1	DL_test	23	DL_test	6	stimuli_distractor_diamondtriangles.svg	stimuli_distractor_trianglediamonds.svg	37	no	pa	0	816	6	6	antiphase_hc_ois.wav	3	6	3	noise_calib_stim_LEFT.wav	1	4	blb_dichoticlistening_ba-ka.mp3	ba	ka	1	other
6.6.1	mac	2023-06-27	09:25:03	09:37:47	760111	603ed5d8d98e95fc0e0a67a9	3	1	DL_test	23	DL_test	7	stimuli_distractor_diamondtriangles.svg	stimuli_distractor_trianglediamonds.svg	37	no	da	1	1749	6	6	antiphase_hc_ois.wav	3	6	3	noise_calib_stim_LEFT.wav	1	26	blb_dichoticlistening_pa-da.mp3	pa	da	1	right
6.6.1	mac	2023-06-27	09:25:03	09:37:47	760111	603ed5d8d98e95fc0e0a67a9	3	1	DL_test	23	DL_test	8	stimuli_distractor_diamondtriangles.svg	stimuli_distractor_trianglediamonds.svg	37	no	pa	1	1281	6	6	antiphase_hc_ois.wav	3	6	3	noise_calib_stim_LEFT.wav	1	29	blb_dichoticlistening_pa-pa.mp3	pa	pa	0	left
6.6.1	mac	2023-06-27	09:25:03	09:37:47	760111	603ed5d8d98e95fc0e0a67a9	3	1	DL_test	23	DL_test	9	stimuli_distractor_diamondtriangles.svg	stimuli_distractor_trianglediamonds.svg	37	no	ta	0	1027	6	6	antiphase_hc_ois.wav	3	6	3	noise_calib_stim_LEFT.wav	1	19	blb_dichoticlistening_ka-ba.mp3	ka	ba	1	other
6.6.1	mac	2023-06-27	09:25:03	09:37:47	760111	603ed5d8d98e95fc0e0a67a9	3	1	DL_test	23	DL_test	10	stimuli_distractor_diamondtriangles.svg	stimuli_distractor_trianglediamonds.svg	37	no	ta	0	624	6	6	antiphase_hc_ois.wav	3	6	3	noise_calib_stim_LEFT.wav	1	7	blb_dichoticlistening_da-ba.mp3	da	ba	1	other
6.6.1	mac	2023-06-27	09:25:03	09:37:47	760111	603ed5d8d98e95fc0e0a67a9	3	1	DL_test	23	DL_test	11	stimuli_distractor_diamondtriangles.svg	stimuli_distractor_trianglediamonds.svg	37	no	ta	1	426	6	6	antiphase_hc_ois.wav	3	6	3	noise_calib_stim_LEFT.wav	1	6	blb_dichoticlistening_ba-ta.mp3	ba	ta	1	right
6.6.1	mac	2023-06-27	09:25:03	09:37:47	760111	603ed5d8d98e95fc0e0a67a9	3	1	DL_test	23	DL_test	12	stimuli_distractor_diamondtriangles.svg	stimuli_distractor_trianglediamonds.svg	37	no	ka	0	1839	6	6	antiphase_hc_ois.wav	3	6	3	noise_calib_stim_LEFT.wav	1	33	blb_dichoticlistening_ta-ga.mp3	ta	ga	1	other
6.6.1	mac	2023-06-27	09:25:03	09:37:47	760111	603ed5d8d98e95fc0e0a67a9	3	1	DL_test	23	DL_test	13	stimuli_distractor_diamondtriangles.svg	stimuli_distractor_trianglediamonds.svg	37	no	ta	0	1571	6	6	antiphase_hc_ois.wav	3	6	3	noise_calib_stim_LEFT.wav	1	20	blb_dichoticlistening_ka-da.mp3	ka	da	1	other
6.6.1	mac	2023-06-27	09:25:03	09:37:47	760111	603ed5d8d98e95fc0e0a67a9	3	1	DL_test	23	DL_test	14	stimuli_distractor_diamondtriangles.svg	stimuli_distractor_trianglediamonds.svg	37	no	ka	1	1281	6	6	antiphase_hc_ois.wav	3	6	3	noise_calib_stim_LEFT.wav	1	16	blb_dichoticlistening_ga-ka.mp3	ga	ka	1	right
6.6.1	mac	2023-06-27	09:25:03	09:37:47	760111	603ed5d8d98e95fc0e0a67a9	3	1	DL_test	23	DL_test	15	stimuli_distractor_diamondtriangles.svg	stimuli_distractor_trianglediamonds.svg	37	no	ta	1	1459	6	6	antiphase_hc_ois.wav	3	6	3	noise_calib_stim_LEFT.wav	1	12	blb_dichoticlistening_da-ta.mp3	da	ta	1	right
6.6.1	mac	2023-06-27	09:25:03	09:37:47	760111	603ed5d8d98e95fc0e0a67a9	3	1	DL_test	23	DL_test	16	stimuli_distractor_diamondtriangles.svg	stimuli_distractor_trianglediamonds.svg	37	no	ta	1	2484	6	6	antiphase_hc_ois.wav	3	6	3	noise_calib_stim_LEFT.wav	1	35	blb_dichoticlistening_ta-pa.mp3	ta	pa	1	left
6.6.1	mac	2023-06-27	09:25:03	09:37:47	760111	603ed5d8d98e95fc0e0a67a9	3	1	DL_test	23	DL_test	17	stimuli_distractor_diamondtriangles.svg	stimuli_distractor_trianglediamonds.svg	37	no	ka	1	1212	6	6	antiphase_hc_ois.wav	3	6	3	noise_calib_stim_LEFT.wav	1	21	blb_dichoticlistening_ka-ga.mp3	ka	ga	1	left
6.6.1	mac	2023-06-27	09:25:03	09:37:47	760111	603ed5d8d98e95fc0e0a67a9	3	1	DL_test	23	DL_test	18	stimuli_distractor_diamondtriangles.svg	stimuli_distractor_trianglediamonds.svg	37	no	ta	1	2617	6	6	antiphase_hc_ois.wav	3	6	3	noise_calib_stim_LEFT.wav	1	34	blb_dichoticlistening_ta-ka.mp3	ta	ka	1	left
6.6.1	mac	2023-06-27	09:25:03	09:37:47	760111	603ed5d8d98e95fc0e0a67a9	3	1	DL_test	23	DL_test	19	stimuli_distractor_diamondtriangles.svg	stimuli_distractor_trianglediamonds.svg	37	no	ta	0	2206	6	6	antiphase_hc_ois.wav	3	6	3	noise_calib_stim_LEFT.wav	1	2	blb_dichoticlistening_ba-da.mp3	ba	da	1	other
6.6.1	mac	2023-06-27	09:25:03	09:37:47	760111	603ed5d8d98e95fc0e0a67a9	3	1	DL_test	23	DL_test	20	stimuli_distractor_diamondtriangles.svg	stimuli_distractor_trianglediamonds.svg	37	no	pa	0	691	6	6	antiphase_hc_ois.wav	3	6	3	noise_calib_stim_LEFT.wav	1	1	blb_dichoticlistening_ba-ba.mp3	ba	ba	0	other
6.6.1	mac	2023-06-27	09:25:03	09:37:47	760111	603ed5d8d98e95fc0e0a67a9	3	1	DL_test	23	DL_test	21	stimuli_distractor_diamondtriangles.svg	stimuli_distractor_trianglediamonds.svg	37	no	da	1	1878	6	6	antiphase_hc_ois.wav	3	6	3	noise_calib_stim_LEFT.wav	1	32	blb_dichoticlistening_ta-da.mp3	ta	da	1	right
6.6.1	mac	2023-06-27	09:25:03	09:37:47	760111	603ed5d8d98e95fc0e0a67a9	3	1	DL_test	23	DL_test	22	stimuli_distractor_diamondtriangles.svg	stimuli_distractor_trianglediamonds.svg	37	no	ta	0	1920	6	6	antiphase_hc_ois.wav	3	6	3	noise_calib_stim_LEFT.wav	1	10	blb_dichoticlistening_da-ka.mp3	da	ka	1	other
6.6.1	mac	2023-06-27	09:25:03	09:37:47	760111	603ed5d8d98e95fc0e0a67a9	3	1	DL_test	23	DL_test	23	stimuli_distractor_diamondtriangles.svg	stimuli_distractor_trianglediamonds.svg	37	no	da	1	969	6	6	antiphase_hc_ois.wav	3	6	3	noise_calib_stim_LEFT.wav	1	14	blb_dichoticlistening_ga-da.mp3	ga	da	1	right
6.6.1	mac	2023-06-27	09:25:03	09:37:47	760111	603ed5d8d98e95fc0e0a67a9	3	1	DL_test	23	DL_test	24	stimuli_distractor_diamondtriangles.svg	stimuli_distractor_trianglediamonds.svg	37	no	ka	0	1060	6	6	antiphase_hc_ois.wav	3	6	3	noise_calib_stim_LEFT.wav	1	17	blb_dichoticlistening_ga-pa.mp3	ga	pa	1	other
6.6.1	mac	2023-06-27	09:25:03	09:37:47	760111	603ed5d8d98e95fc0e0a67a9	3	1	DL_test	23	DL_test	25	stimuli_distractor_diamondtriangles.svg	stimuli_distractor_trianglediamonds.svg	37	no	ka	1	1467	6	6	antiphase_hc_ois.wav	3	6	3	noise_calib_stim_LEFT.wav	1	23	blb_dichoticlistening_ka-pa.mp3	ka	pa	1	left
6.6.1	mac	2023-06-27	09:25:03	09:37:47	760111	603ed5d8d98e95fc0e0a67a9	3	1	DL_test	23	DL_test	26	stimuli_distractor_diamondtriangles.svg	stimuli_distractor_trianglediamonds.svg	37	no	ka	1	814	6	6	antiphase_hc_ois.wav	3	6	3	noise_calib_stim_LEFT.wav	1	24	blb_dichoticlistening_ka-ta.mp3	ka	ta	1	left
