build	computer.platform	date	time	timestamp	time_elapsed_ms	subject	group	session	blockcode	blocknum	trialcode	trialnum	stimulus_left	stimulus_right	stim_index	target_present	response	correct	latency	headphonecheck_countTestTrials	headphonecheck_index	headphonecheck_testSound	headphonecheck_correctResponse	stereocheck_countTestTrials	stereocheck_index	stereocheck_testSound	stereocheck_correctResponse	DL_index	DL_soundfile	DL_leftSound	DL_rightSound	DL_dualSound	DL_choice
6.6.1	win	2023-06-02	04:15:25	0	0	5ee1be444c9d75206ce5aa92	2	1	headphonecheck_calibration	4	headphonecheck_calibrationIntro	1			0		calibrationButton	0	1216	0	0			0	0			1				0	
6.6.1	win	2023-06-02	04:15:25	0	0	5ee1be444c9d75206ce5aa92	2	1	headphonecheck_testphase	5	test_collectResponse	3			0		third	1	210	1	2	antiphase_hc_ios.wav	3	0	0			1				0	
6.6.1	win	2023-06-02	04:15:25	0	0	5ee1be444c9d75206ce5aa92	2	1	headphonecheck_testphase	5	test_collectResponse	6			0		third	1	358	2	6	antiphase_hc_ois.wav	3	0	0			1				0	
6.6.1	win	2023-06-02	04:15:25	0	0	5ee1be444c9d75206ce5aa92	2	1	headphonecheck_testphase	5	test_collectResponse	9			0		first	1	301	3	4	antiphase_hc_sio.wav	1	0	0			1				0	
6.6.1	win	2023-06-02	04:15:25	0	0	5ee1be444c9d75206ce5aa92	2	1	headphonecheck_testphase	5	test_collectResponse	12			0		second	1	520	4	1	antiphase_hc_iso.wav	2	0	0			1				0	
6.6.1	win	2023-06-02	04:15:25	0	0	5ee1be444c9d75206ce5aa92	2	1	headphonecheck_testphase	5	test_collectResponse	15			0		first	1	401	5	3	antiphase_hc_soi.wav	1	0	0			1				0	
6.6.1	win	2023-06-02	04:15:25	0	0	5ee1be444c9d75206ce5aa92	2	1	headphonecheck_testphase	5	test_collectResponse	18			0		second	1	5327	6	5	antiphase_hc_osi.wav	2	0	0			1				0	
6.6.1	win	2023-06-02	04:15:25	0	0	5ee1be444c9d75206ce5aa92	2	1	stereocheck_calibration	7	stereocheck_calibrationIntro	1			0		stereocheck_calibrationButton	0	4859	6	5	antiphase_hc_osi.wav	2	0	0			1				0	
6.6.1	win	2023-06-02	04:15:25	0	0	5ee1be444c9d75206ce5aa92	2	1	stereocheck_testphase	8	stereocheck_test_collectResponse	3			0		stereocheck_right	1	809	6	5	antiphase_hc_osi.wav	2	1	5	noise_calib_stim_RIGHT.wav	2	1				0	
6.6.1	win	2023-06-02	04:15:25	0	0	5ee1be444c9d75206ce5aa92	2	1	stereocheck_testphase	8	stereocheck_test_collectResponse	6			0		stereocheck_left	1	298	6	5	antiphase_hc_osi.wav	2	2	1	noise_calib_stim_LEFT.wav	1	1				0	
6.6.1	win	2023-06-02	04:15:25	0	0	5ee1be444c9d75206ce5aa92	2	1	stereocheck_testphase	8	stereocheck_test_collectResponse	9			0		stereocheck_left	1	205	6	5	antiphase_hc_osi.wav	2	3	3	noise_calib_stim_LEFT.wav	1	1				0	
6.6.1	win	2023-06-02	04:15:25	0	0	5ee1be444c9d75206ce5aa92	2	1	stereocheck_testphase	8	stereocheck_test_collectResponse	12			0		stereocheck_right	1	476	6	5	antiphase_hc_osi.wav	2	4	4	noise_calib_stim_RIGHT.wav	2	1				0	
6.6.1	win	2023-06-02	04:15:25	0	0	5ee1be444c9d75206ce5aa92	2	1	stereocheck_testphase	8	stereocheck_test_collectResponse	15			0		stereocheck_left	1	334	6	5	antiphase_hc_osi.wav	2	5	2	noise_calib_stim_LEFT.wav	1	1				0	
6.6.1	win	2023-06-02	04:15:25	0	0	5ee1be444c9d75206ce5aa92	2	1	stereocheck_testphase	8	stereocheck_test_collectResponse	18			0		stereocheck_right	1	22	6	5	antiphase_hc_osi.wav	2	6	6	noise_calib_stim_RIGHT.wav	2	1				0	
6.6.1	win	2023-06-02	04:15:25	0	0	5ee1be444c9d75206ce5aa92	2	1	DL_practice	11	DL_practice	2			0		ga	1	1988	6	5	antiphase_hc_osi.wav	2	6	6	noise_calib_stim_RIGHT.wav	2	18	blb_dichoticlistening_ga-ta.mp3	ga	ta	1	left
6.6.1	win	2023-06-02	04:15:25	0	0	5ee1be444c9d75206ce5aa92	2	1	DL_practice	11	DL_practice	3			0		ga	1	849	6	5	antiphase_hc_osi.wav	2	6	6	noise_calib_stim_RIGHT.wav	2	15	blb_dichoticlistening_ga-ga.mp3	ga	ga	0	left
6.6.1	win	2023-06-02	04:15:25	0	0	5ee1be444c9d75206ce5aa92	2	1	DL_practice	11	DL_practice	4			0		da	1	1104	6	5	antiphase_hc_osi.wav	2	6	6	noise_calib_stim_RIGHT.wav	2	8	blb_dichoticlistening_da-da.mp3	da	da	0	left
6.6.1	win	2023-06-02	04:15:25	0	0	5ee1be444c9d75206ce5aa92	2	1	DL_practice	11	DL_practice	5			0		pa	1	972	6	5	antiphase_hc_osi.wav	2	6	6	noise_calib_stim_RIGHT.wav	2	29	blb_dichoticlistening_pa-pa.mp3	pa	pa	0	left
6.6.1	win	2023-06-02	04:15:25	0	0	5ee1be444c9d75206ce5aa92	2	1	DL_practice	11	DL_practice	6			0		da	1	1785	6	5	antiphase_hc_osi.wav	2	6	6	noise_calib_stim_RIGHT.wav	2	7	blb_dichoticlistening_da-ba.mp3	da	ba	1	left
6.6.1	win	2023-06-02	04:15:25	0	0	5ee1be444c9d75206ce5aa92	2	1	DL_practice	11	DL_practice	7			0		ba	1	1299	6	5	antiphase_hc_osi.wav	2	6	6	noise_calib_stim_RIGHT.wav	2	1	blb_dichoticlistening_ba-ba.mp3	ba	ba	0	left
6.6.1	win	2023-06-02	04:15:25	0	0	5ee1be444c9d75206ce5aa92	2	1	DL_practice	11	DL_practice	8			0		pa	1	1054	6	5	antiphase_hc_osi.wav	2	6	6	noise_calib_stim_RIGHT.wav	2	23	blb_dichoticlistening_ka-pa.mp3	ka	pa	1	right
6.6.1	win	2023-06-02	04:15:25	0	0	5ee1be444c9d75206ce5aa92	2	1	DL_practice	11	DL_practice	9			0		ta	1	1008	6	5	antiphase_hc_osi.wav	2	6	6	noise_calib_stim_RIGHT.wav	2	36	blb_dichoticlistening_ta-ta.mp3	ta	ta	0	left
6.6.1	win	2023-06-02	04:15:25	0	0	5ee1be444c9d75206ce5aa92	2	1	DL_practice	11	DL_practice	10			0		ka	1	1264	6	5	antiphase_hc_osi.wav	2	6	6	noise_calib_stim_RIGHT.wav	2	22	blb_dichoticlistening_ka-ka.mp3	ka	ka	0	left
6.6.1	win	2023-06-02	04:15:25	0	0	5ee1be444c9d75206ce5aa92	2	1	DL_test	13	DL_test	1			0		ba	1	1154	6	5	antiphase_hc_osi.wav	2	6	6	noise_calib_stim_RIGHT.wav	2	13	blb_dichoticlistening_ga-ba.mp3	ga	ba	1	right
6.6.1	win	2023-06-02	04:15:25	0	0	5ee1be444c9d75206ce5aa92	2	1	DL_test	13	DL_test	2			0		ta	0	1647	6	5	antiphase_hc_osi.wav	2	6	6	noise_calib_stim_RIGHT.wav	2	26	blb_dichoticlistening_pa-da.mp3	pa	da	1	other
6.6.1	win	2023-06-02	04:15:25	0	0	5ee1be444c9d75206ce5aa92	2	1	DL_test	13	DL_test	3			0		ga	1	1704	6	5	antiphase_hc_osi.wav	2	6	6	noise_calib_stim_RIGHT.wav	2	33	blb_dichoticlistening_ta-ga.mp3	ta	ga	1	right
6.6.1	win	2023-06-02	04:15:25	0	0	5ee1be444c9d75206ce5aa92	2	1	DL_test	13	DL_test	4			0		pa	1	1236	6	5	antiphase_hc_osi.wav	2	6	6	noise_calib_stim_RIGHT.wav	2	11	blb_dichoticlistening_da-pa.mp3	da	pa	1	right
6.6.1	win	2023-06-02	04:15:25	0	0	5ee1be444c9d75206ce5aa92	2	1	DL_test	13	DL_test	5			0		da	1	1019	6	5	antiphase_hc_osi.wav	2	6	6	noise_calib_stim_RIGHT.wav	2	2	blb_dichoticlistening_ba-da.mp3	ba	da	1	right
6.6.1	win	2023-06-02	04:15:25	0	0	5ee1be444c9d75206ce5aa92	2	1	DL_test	13	DL_test	6			0		da	1	1321	6	5	antiphase_hc_osi.wav	2	6	6	noise_calib_stim_RIGHT.wav	2	7	blb_dichoticlistening_da-ba.mp3	da	ba	1	left
6.6.1	win	2023-06-02	04:15:25	0	0	5ee1be444c9d75206ce5aa92	2	1	DL_test	13	DL_test	7			0		pa	0	1751	6	5	antiphase_hc_osi.wav	2	6	6	noise_calib_stim_RIGHT.wav	2	19	blb_dichoticlistening_ka-ba.mp3	ka	ba	1	other
6.6.1	win	2023-06-02	04:15:25	0	0	5ee1be444c9d75206ce5aa92	2	1	DL_test	13	DL_test	8			0		ta	1	1010	6	5	antiphase_hc_osi.wav	2	6	6	noise_calib_stim_RIGHT.wav	2	24	blb_dichoticlistening_ka-ta.mp3	ka	ta	1	right
6.6.1	win	2023-06-02	04:15:25	0	0	5ee1be444c9d75206ce5aa92	2	1	DL_test	13	DL_test	9			0		ga	1	1355	6	5	antiphase_hc_osi.wav	2	6	6	noise_calib_stim_RIGHT.wav	2	18	blb_dichoticlistening_ga-ta.mp3	ga	ta	1	left
6.6.1	win	2023-06-02	04:15:25	0	0	5ee1be444c9d75206ce5aa92	2	1	DL_test	13	DL_test	10			0		ta	1	1272	6	5	antiphase_hc_osi.wav	2	6	6	noise_calib_stim_RIGHT.wav	2	36	blb_dichoticlistening_ta-ta.mp3	ta	ta	0	left
6.6.1	win	2023-06-02	04:15:25	0	0	5ee1be444c9d75206ce5aa92	2	1	DL_test	13	DL_test	11			0		pa	1	2052	6	5	antiphase_hc_osi.wav	2	6	6	noise_calib_stim_RIGHT.wav	2	23	blb_dichoticlistening_ka-pa.mp3	ka	pa	1	right
6.6.1	win	2023-06-02	04:15:25	0	0	5ee1be444c9d75206ce5aa92	2	1	DL_test	13	DL_test	12			0		da	1	1348	6	5	antiphase_hc_osi.wav	2	6	6	noise_calib_stim_RIGHT.wav	2	8	blb_dichoticlistening_da-da.mp3	da	da	0	left
6.6.1	win	2023-06-02	04:15:25	0	0	5ee1be444c9d75206ce5aa92	2	1	DL_test	13	DL_test	13			0		ta	1	1191	6	5	antiphase_hc_osi.wav	2	6	6	noise_calib_stim_RIGHT.wav	2	6	blb_dichoticlistening_ba-ta.mp3	ba	ta	1	right
6.6.1	win	2023-06-02	04:15:25	0	0	5ee1be444c9d75206ce5aa92	2	1	DL_test	13	DL_test	14			0		ka	1	1226	6	5	antiphase_hc_osi.wav	2	6	6	noise_calib_stim_RIGHT.wav	2	34	blb_dichoticlistening_ta-ka.mp3	ta	ka	1	right
6.6.1	win	2023-06-02	04:15:25	0	0	5ee1be444c9d75206ce5aa92	2	1	DL_test	13	DL_test	15			0		ta	1	798	6	5	antiphase_hc_osi.wav	2	6	6	noise_calib_stim_RIGHT.wav	2	30	blb_dichoticlistening_pa-ta.mp3	pa	ta	1	right
6.6.1	win	2023-06-02	04:15:25	0	0	5ee1be444c9d75206ce5aa92	2	1	DL_test	13	DL_test	16			0		pa	1	1028	6	5	antiphase_hc_osi.wav	2	6	6	noise_calib_stim_RIGHT.wav	2	35	blb_dichoticlistening_ta-pa.mp3	ta	pa	1	right
6.6.1	win	2023-06-02	04:15:25	0	0	5ee1be444c9d75206ce5aa92	2	1	DL_test	13	DL_test	17			0		ka	1	843	6	5	antiphase_hc_osi.wav	2	6	6	noise_calib_stim_RIGHT.wav	2	22	blb_dichoticlistening_ka-ka.mp3	ka	ka	0	left
6.6.1	win	2023-06-02	04:15:25	0	0	5ee1be444c9d75206ce5aa92	2	1	DL_test	13	DL_test	18			0		ga	1	737	6	5	antiphase_hc_osi.wav	2	6	6	noise_calib_stim_RIGHT.wav	2	15	blb_dichoticlistening_ga-ga.mp3	ga	ga	0	left
6.6.1	win	2023-06-02	04:15:25	0	0	5ee1be444c9d75206ce5aa92	2	1	DL_test	13	DL_test	19			0		ta	1	821	6	5	antiphase_hc_osi.wav	2	6	6	noise_calib_stim_RIGHT.wav	2	12	blb_dichoticlistening_da-ta.mp3	da	ta	1	right
6.6.1	win	2023-06-02	04:15:25	0	0	5ee1be444c9d75206ce5aa92	2	1	DL_test	13	DL_test	20			0		pa	1	937	6	5	antiphase_hc_osi.wav	2	6	6	noise_calib_stim_RIGHT.wav	2	29	blb_dichoticlistening_pa-pa.mp3	pa	pa	0	left
6.6.1	win	2023-06-02	04:15:25	0	0	5ee1be444c9d75206ce5aa92	2	1	DL_test	13	DL_test	21			0		ga	1	895	6	5	antiphase_hc_osi.wav	2	6	6	noise_calib_stim_RIGHT.wav	2	9	blb_dichoticlistening_da-ga.mp3	da	ga	1	right
6.6.1	win	2023-06-02	04:15:25	0	0	5ee1be444c9d75206ce5aa92	2	1	DL_test	13	DL_test	22			0		ka	0	2527	6	5	antiphase_hc_osi.wav	2	6	6	noise_calib_stim_RIGHT.wav	2	32	blb_dichoticlistening_ta-da.mp3	ta	da	1	other
6.6.1	win	2023-06-02	04:15:25	0	0	5ee1be444c9d75206ce5aa92	2	1	DL_test	13	DL_test	23			0		ga	1	889	6	5	antiphase_hc_osi.wav	2	6	6	noise_calib_stim_RIGHT.wav	2	21	blb_dichoticlistening_ka-ga.mp3	ka	ga	1	right
6.6.1	win	2023-06-02	04:15:25	0	0	5ee1be444c9d75206ce5aa92	2	1	DL_test	13	DL_test	24			0		ba	1	1135	6	5	antiphase_hc_osi.wav	2	6	6	noise_calib_stim_RIGHT.wav	2	1	blb_dichoticlistening_ba-ba.mp3	ba	ba	0	left
6.6.1	win	2023-06-02	04:15:25	0	0	5ee1be444c9d75206ce5aa92	2	1	DL_test	13	DL_test	25			0		ka	1	1048	6	5	antiphase_hc_osi.wav	2	6	6	noise_calib_stim_RIGHT.wav	2	28	blb_dichoticlistening_pa-ka.mp3	pa	ka	1	right
6.6.1	win	2023-06-02	04:15:25	0	0	5ee1be444c9d75206ce5aa92	2	1	DL_test	13	DL_test	26			0		da	0	938	6	5	antiphase_hc_osi.wav	2	6	6	noise_calib_stim_RIGHT.wav	2	25	blb_dichoticlistening_pa-ba.mp3	pa	ba	1	other
6.6.1	win	2023-06-02	04:15:25	0	0	5ee1be444c9d75206ce5aa92	2	1	DL_test	13	DL_test	27			0		ga	1	863	6	5	antiphase_hc_osi.wav	2	6	6	noise_calib_stim_RIGHT.wav	2	27	blb_dichoticlistening_pa-ga.mp3	pa	ga	1	right
6.6.1	win	2023-06-02	04:15:25	0	0	5ee1be444c9d75206ce5aa92	2	1	DL_test	13	DL_test	28			0		ga	0	1040	6	5	antiphase_hc_osi.wav	2	6	6	noise_calib_stim_RIGHT.wav	2	20	blb_dichoticlistening_ka-da.mp3	ka	da	1	other
6.6.1	win	2023-06-02	04:15:25	0	0	5ee1be444c9d75206ce5aa92	2	1	DL_test	13	DL_test	29			0		ga	0	1646	6	5	antiphase_hc_osi.wav	2	6	6	noise_calib_stim_RIGHT.wav	2	31	blb_dichoticlistening_ta-ba.mp3	ta	ba	1	other
6.6.1	win	2023-06-02	04:15:25	0	0	5ee1be444c9d75206ce5aa92	2	1	DL_test	13	DL_test	30			0		ka	1	2077	6	5	antiphase_hc_osi.wav	2	6	6	noise_calib_stim_RIGHT.wav	2	16	blb_dichoticlistening_ga-ka.mp3	ga	ka	1	right
6.6.1	win	2023-06-02	04:15:25	0	0	5ee1be444c9d75206ce5aa92	2	1	DL_test	13	DL_test	31			0		ga	1	2289	6	5	antiphase_hc_osi.wav	2	6	6	noise_calib_stim_RIGHT.wav	2	17	blb_dichoticlistening_ga-pa.mp3	ga	pa	1	left
6.6.1	win	2023-06-02	04:15:25	0	0	5ee1be444c9d75206ce5aa92	2	1	DL_test	13	DL_test	32			0		da	1	1115	6	5	antiphase_hc_osi.wav	2	6	6	noise_calib_stim_RIGHT.wav	2	14	blb_dichoticlistening_ga-da.mp3	ga	da	1	right
6.6.1	win	2023-06-02	04:15:25	0	0	5ee1be444c9d75206ce5aa92	2	1	DL_test	13	DL_test	33			0		pa	0	1106	6	5	antiphase_hc_osi.wav	2	6	6	noise_calib_stim_RIGHT.wav	2	10	blb_dichoticlistening_da-ka.mp3	da	ka	1	other
6.6.1	win	2023-06-02	04:15:25	0	0	5ee1be444c9d75206ce5aa92	2	1	DL_test	13	DL_test	34			0		ka	1	1486	6	5	antiphase_hc_osi.wav	2	6	6	noise_calib_stim_RIGHT.wav	2	4	blb_dichoticlistening_ba-ka.mp3	ba	ka	1	right
6.6.1	win	2023-06-02	04:15:25	0	0	5ee1be444c9d75206ce5aa92	2	1	DL_test	13	DL_test	35			0		ga	1	933	6	5	antiphase_hc_osi.wav	2	6	6	noise_calib_stim_RIGHT.wav	2	3	blb_dichoticlistening_ba-ga.mp3	ba	ga	1	right
6.6.1	win	2023-06-02	04:15:25	0	0	5ee1be444c9d75206ce5aa92	2	1	DL_test	13	DL_test	36			0		pa	1	1182	6	5	antiphase_hc_osi.wav	2	6	6	noise_calib_stim_RIGHT.wav	2	5	blb_dichoticlistening_ba-pa.mp3	ba	pa	1	right
6.6.1	win	2023-06-02	04:15:25	0	0	5ee1be444c9d75206ce5aa92	2	1	DL_test	14	DL_test	1			0		ga	1	1177	6	5	antiphase_hc_osi.wav	2	6	6	noise_calib_stim_RIGHT.wav	2	16	blb_dichoticlistening_ga-ka.mp3	ga	ka	1	left
6.6.1	win	2023-06-02	04:15:25	0	0	5ee1be444c9d75206ce5aa92	2	1	DL_test	14	DL_test	2			0		pa	1	1669	6	5	antiphase_hc_osi.wav	2	6	6	noise_calib_stim_RIGHT.wav	2	11	blb_dichoticlistening_da-pa.mp3	da	pa	1	right
6.6.1	win	2023-06-02	04:15:25	0	0	5ee1be444c9d75206ce5aa92	2	1	DL_test	14	DL_test	3			0		da	1	1220	6	5	antiphase_hc_osi.wav	2	6	6	noise_calib_stim_RIGHT.wav	2	2	blb_dichoticlistening_ba-da.mp3	ba	da	1	right
6.6.1	win	2023-06-02	04:15:25	0	0	5ee1be444c9d75206ce5aa92	2	1	DL_test	14	DL_test	4			0		ka	1	1248	6	5	antiphase_hc_osi.wav	2	6	6	noise_calib_stim_RIGHT.wav	2	21	blb_dichoticlistening_ka-ga.mp3	ka	ga	1	left
6.6.1	win	2023-06-02	04:15:25	0	0	5ee1be444c9d75206ce5aa92	2	1	DL_test	14	DL_test	5			0		pa	0	1117	6	5	antiphase_hc_osi.wav	2	6	6	noise_calib_stim_RIGHT.wav	2	19	blb_dichoticlistening_ka-ba.mp3	ka	ba	1	other
6.6.1	win	2023-06-02	04:15:25	0	0	5ee1be444c9d75206ce5aa92	2	1	DL_test	14	DL_test	6			0		ka	0	1369	6	5	antiphase_hc_osi.wav	2	6	6	noise_calib_stim_RIGHT.wav	2	32	blb_dichoticlistening_ta-da.mp3	ta	da	1	other
6.6.1	win	2023-06-02	04:15:25	0	0	5ee1be444c9d75206ce5aa92	2	1	DL_test	14	DL_test	7			0		ga	1	744	6	5	antiphase_hc_osi.wav	2	6	6	noise_calib_stim_RIGHT.wav	2	15	blb_dichoticlistening_ga-ga.mp3	ga	ga	0	left
6.6.1	win	2023-06-02	04:15:25	0	0	5ee1be444c9d75206ce5aa92	2	1	DL_test	14	DL_test	8			0		ka	1	1782	6	5	antiphase_hc_osi.wav	2	6	6	noise_calib_stim_RIGHT.wav	2	4	blb_dichoticlistening_ba-ka.mp3	ba	ka	1	right
6.6.1	win	2023-06-02	04:15:25	0	0	5ee1be444c9d75206ce5aa92	2	1	DL_test	14	DL_test	9			0		ba	1	1330	6	5	antiphase_hc_osi.wav	2	6	6	noise_calib_stim_RIGHT.wav	2	25	blb_dichoticlistening_pa-ba.mp3	pa	ba	1	right
6.6.1	win	2023-06-02	04:15:25	0	0	5ee1be444c9d75206ce5aa92	2	1	DL_test	14	DL_test	10			0		pa	1	1870	6	5	antiphase_hc_osi.wav	2	6	6	noise_calib_stim_RIGHT.wav	2	17	blb_dichoticlistening_ga-pa.mp3	ga	pa	1	right
6.6.1	win	2023-06-02	04:15:25	0	0	5ee1be444c9d75206ce5aa92	2	1	DL_test	14	DL_test	11			0		pa	1	2754	6	5	antiphase_hc_osi.wav	2	6	6	noise_calib_stim_RIGHT.wav	2	26	blb_dichoticlistening_pa-da.mp3	pa	da	1	left
6.6.1	win	2023-06-02	04:15:25	0	0	5ee1be444c9d75206ce5aa92	2	1	DL_test	14	DL_test	12			0		ta	1	1249	6	5	antiphase_hc_osi.wav	2	6	6	noise_calib_stim_RIGHT.wav	2	36	blb_dichoticlistening_ta-ta.mp3	ta	ta	0	left
6.6.1	win	2023-06-02	04:15:25	0	0	5ee1be444c9d75206ce5aa92	2	1	DL_test	14	DL_test	13			0		pa	0	4775	6	5	antiphase_hc_osi.wav	2	6	6	noise_calib_stim_RIGHT.wav	2	7	blb_dichoticlistening_da-ba.mp3	da	ba	1	other
6.6.1	win	2023-06-02	04:15:25	0	0	5ee1be444c9d75206ce5aa92	2	1	DL_test	14	DL_test	14			0		pa	1	1342	6	5	antiphase_hc_osi.wav	2	6	6	noise_calib_stim_RIGHT.wav	2	35	blb_dichoticlistening_ta-pa.mp3	ta	pa	1	right
6.6.1	win	2023-06-02	04:15:25	0	0	5ee1be444c9d75206ce5aa92	2	1	DL_test	14	DL_test	15			0		ga	1	2831	6	5	antiphase_hc_osi.wav	2	6	6	noise_calib_stim_RIGHT.wav	2	3	blb_dichoticlistening_ba-ga.mp3	ba	ga	1	right
6.6.1	win	2023-06-02	04:15:25	0	0	5ee1be444c9d75206ce5aa92	2	1	DL_test	14	DL_test	16			0		da	1	1180	6	5	antiphase_hc_osi.wav	2	6	6	noise_calib_stim_RIGHT.wav	2	8	blb_dichoticlistening_da-da.mp3	da	da	0	left
6.6.1	win	2023-06-02	04:15:25	0	0	5ee1be444c9d75206ce5aa92	2	1	DL_test	14	DL_test	17			0		pa	1	1218	6	5	antiphase_hc_osi.wav	2	6	6	noise_calib_stim_RIGHT.wav	2	29	blb_dichoticlistening_pa-pa.mp3	pa	pa	0	left
6.6.1	win	2023-06-02	04:15:25	0	0	5ee1be444c9d75206ce5aa92	2	1	DL_test	14	DL_test	18			0		ka	1	1033	6	5	antiphase_hc_osi.wav	2	6	6	noise_calib_stim_RIGHT.wav	2	22	blb_dichoticlistening_ka-ka.mp3	ka	ka	0	left
6.6.1	win	2023-06-02	04:15:25	0	0	5ee1be444c9d75206ce5aa92	2	1	DL_test	14	DL_test	19			0		ga	1	1005	6	5	antiphase_hc_osi.wav	2	6	6	noise_calib_stim_RIGHT.wav	2	33	blb_dichoticlistening_ta-ga.mp3	ta	ga	1	right
6.6.1	win	2023-06-02	04:15:25	0	0	5ee1be444c9d75206ce5aa92	2	1	DL_test	14	DL_test	20			0		ga	1	648	6	5	antiphase_hc_osi.wav	2	6	6	noise_calib_stim_RIGHT.wav	2	14	blb_dichoticlistening_ga-da.mp3	ga	da	1	left
6.6.1	win	2023-06-02	04:15:25	0	0	5ee1be444c9d75206ce5aa92	2	1	DL_test	14	DL_test	21			0		ga	1	637	6	5	antiphase_hc_osi.wav	2	6	6	noise_calib_stim_RIGHT.wav	2	27	blb_dichoticlistening_pa-ga.mp3	pa	ga	1	right
6.6.1	win	2023-06-02	04:15:25	0	0	5ee1be444c9d75206ce5aa92	2	1	DL_test	14	DL_test	22			0		ta	1	1362	6	5	antiphase_hc_osi.wav	2	6	6	noise_calib_stim_RIGHT.wav	2	12	blb_dichoticlistening_da-ta.mp3	da	ta	1	right
6.6.1	win	2023-06-02	04:15:25	0	0	5ee1be444c9d75206ce5aa92	2	1	DL_test	14	DL_test	23			0		ta	1	1784	6	5	antiphase_hc_osi.wav	2	6	6	noise_calib_stim_RIGHT.wav	2	34	blb_dichoticlistening_ta-ka.mp3	ta	ka	1	left
6.6.1	win	2023-06-02	04:15:25	0	0	5ee1be444c9d75206ce5aa92	2	1	DL_test	14	DL_test	24			0		ka	1	1668	6	5	antiphase_hc_osi.wav	2	6	6	noise_calib_stim_RIGHT.wav	2	20	blb_dichoticlistening_ka-da.mp3	ka	da	1	left
6.6.1	win	2023-06-02	04:15:25	0	0	5ee1be444c9d75206ce5aa92	2	1	DL_test	14	DL_test	25			0		ba	1	1030	6	5	antiphase_hc_osi.wav	2	6	6	noise_calib_stim_RIGHT.wav	2	13	blb_dichoticlistening_ga-ba.mp3	ga	ba	1	right
6.6.1	win	2023-06-02	04:15:25	0	0	5ee1be444c9d75206ce5aa92	2	1	DL_test	14	DL_test	26			0		ba	1	998	6	5	antiphase_hc_osi.wav	2	6	6	noise_calib_stim_RIGHT.wav	2	1	blb_dichoticlistening_ba-ba.mp3	ba	ba	0	left
6.6.1	win	2023-06-02	04:15:25	0	0	5ee1be444c9d75206ce5aa92	2	1	DL_test	14	DL_test	27			0		ga	1	751	6	5	antiphase_hc_osi.wav	2	6	6	noise_calib_stim_RIGHT.wav	2	9	blb_dichoticlistening_da-ga.mp3	da	ga	1	right
6.6.1	win	2023-06-02	04:15:25	0	0	5ee1be444c9d75206ce5aa92	2	1	DL_test	14	DL_test	28			0		ta	1	1207	6	5	antiphase_hc_osi.wav	2	6	6	noise_calib_stim_RIGHT.wav	2	18	blb_dichoticlistening_ga-ta.mp3	ga	ta	1	right
6.6.1	win	2023-06-02	04:15:25	0	0	5ee1be444c9d75206ce5aa92	2	1	DL_test	14	DL_test	29			0		ka	0	1299	6	5	antiphase_hc_osi.wav	2	6	6	noise_calib_stim_RIGHT.wav	2	6	blb_dichoticlistening_ba-ta.mp3	ba	ta	1	other
6.6.1	win	2023-06-02	04:15:25	0	0	5ee1be444c9d75206ce5aa92	2	1	DL_test	14	DL_test	30			0		ka	1	1120	6	5	antiphase_hc_osi.wav	2	6	6	noise_calib_stim_RIGHT.wav	2	28	blb_dichoticlistening_pa-ka.mp3	pa	ka	1	right
6.6.1	win	2023-06-02	04:15:25	0	0	5ee1be444c9d75206ce5aa92	2	1	DL_test	14	DL_test	31			0		ta	1	858	6	5	antiphase_hc_osi.wav	2	6	6	noise_calib_stim_RIGHT.wav	2	30	blb_dichoticlistening_pa-ta.mp3	pa	ta	1	right
6.6.1	win	2023-06-02	04:15:25	0	0	5ee1be444c9d75206ce5aa92	2	1	DL_test	14	DL_test	32			0		pa	1	1227	6	5	antiphase_hc_osi.wav	2	6	6	noise_calib_stim_RIGHT.wav	2	23	blb_dichoticlistening_ka-pa.mp3	ka	pa	1	right
6.6.1	win	2023-06-02	04:15:25	0	0	5ee1be444c9d75206ce5aa92	2	1	DL_test	14	DL_test	33			0		pa	1	1168	6	5	antiphase_hc_osi.wav	2	6	6	noise_calib_stim_RIGHT.wav	2	5	blb_dichoticlistening_ba-pa.mp3	ba	pa	1	right
6.6.1	win	2023-06-02	04:15:25	0	0	5ee1be444c9d75206ce5aa92	2	1	DL_test	14	DL_test	34			0		ka	1	980	6	5	antiphase_hc_osi.wav	2	6	6	noise_calib_stim_RIGHT.wav	2	24	blb_dichoticlistening_ka-ta.mp3	ka	ta	1	left
6.6.1	win	2023-06-02	04:15:25	0	0	5ee1be444c9d75206ce5aa92	2	1	DL_test	14	DL_test	35			0		pa	0	1038	6	5	antiphase_hc_osi.wav	2	6	6	noise_calib_stim_RIGHT.wav	2	10	blb_dichoticlistening_da-ka.mp3	da	ka	1	other
6.6.1	win	2023-06-02	04:15:25	0	0	5ee1be444c9d75206ce5aa92	2	1	DL_test	14	DL_test	36			0		ta	1	2827	6	5	antiphase_hc_osi.wav	2	6	6	noise_calib_stim_RIGHT.wav	2	31	blb_dichoticlistening_ta-ba.mp3	ta	ba	1	left
6.6.1	win	2023-06-02	04:15:25	0	0	5ee1be444c9d75206ce5aa92	2	1	DL_test	15	DL_test	1			0		pa	1	1371	6	5	antiphase_hc_osi.wav	2	6	6	noise_calib_stim_RIGHT.wav	2	35	blb_dichoticlistening_ta-pa.mp3	ta	pa	1	right
6.6.1	win	2023-06-02	04:15:25	0	0	5ee1be444c9d75206ce5aa92	2	1	DL_test	15	DL_test	2			0		ta	1	1109	6	5	antiphase_hc_osi.wav	2	6	6	noise_calib_stim_RIGHT.wav	2	36	blb_dichoticlistening_ta-ta.mp3	ta	ta	0	left
6.6.1	win	2023-06-02	04:15:25	0	0	5ee1be444c9d75206ce5aa92	2	1	DL_test	15	DL_test	3			0		pa	0	1568	6	5	antiphase_hc_osi.wav	2	6	6	noise_calib_stim_RIGHT.wav	2	10	blb_dichoticlistening_da-ka.mp3	da	ka	1	other
6.6.1	win	2023-06-02	04:15:25	0	0	5ee1be444c9d75206ce5aa92	2	1	DL_test	15	DL_test	4			0		ta	1	716	6	5	antiphase_hc_osi.wav	2	6	6	noise_calib_stim_RIGHT.wav	2	12	blb_dichoticlistening_da-ta.mp3	da	ta	1	right
6.6.1	win	2023-06-02	04:15:25	0	0	5ee1be444c9d75206ce5aa92	2	1	DL_test	15	DL_test	5			0		ka	1	1105	6	5	antiphase_hc_osi.wav	2	6	6	noise_calib_stim_RIGHT.wav	2	16	blb_dichoticlistening_ga-ka.mp3	ga	ka	1	right
6.6.1	win	2023-06-02	04:15:25	0	0	5ee1be444c9d75206ce5aa92	2	1	DL_test	15	DL_test	6			0		ta	1	736	6	5	antiphase_hc_osi.wav	2	6	6	noise_calib_stim_RIGHT.wav	2	30	blb_dichoticlistening_pa-ta.mp3	pa	ta	1	right
6.6.1	win	2023-06-02	04:15:25	0	0	5ee1be444c9d75206ce5aa92	2	1	DL_test	15	DL_test	7			0		pa	1	797	6	5	antiphase_hc_osi.wav	2	6	6	noise_calib_stim_RIGHT.wav	2	17	blb_dichoticlistening_ga-pa.mp3	ga	pa	1	right
6.6.1	win	2023-06-02	04:15:25	0	0	5ee1be444c9d75206ce5aa92	2	1	DL_test	15	DL_test	8			0		ga	0	1357	6	5	antiphase_hc_osi.wav	2	6	6	noise_calib_stim_RIGHT.wav	2	20	blb_dichoticlistening_ka-da.mp3	ka	da	1	other
6.6.1	win	2023-06-02	04:15:25	0	0	5ee1be444c9d75206ce5aa92	2	1	DL_test	15	DL_test	9			0		da	1	996	6	5	antiphase_hc_osi.wav	2	6	6	noise_calib_stim_RIGHT.wav	2	26	blb_dichoticlistening_pa-da.mp3	pa	da	1	right
6.6.1	win	2023-06-02	04:15:25	0	0	5ee1be444c9d75206ce5aa92	2	1	DL_test	15	DL_test	10			0		ta	1	1508	6	5	antiphase_hc_osi.wav	2	6	6	noise_calib_stim_RIGHT.wav	2	34	blb_dichoticlistening_ta-ka.mp3	ta	ka	1	left
6.6.1	win	2023-06-02	04:15:25	0	0	5ee1be444c9d75206ce5aa92	2	1	DL_test	15	DL_test	11			0		ga	1	1415	6	5	antiphase_hc_osi.wav	2	6	6	noise_calib_stim_RIGHT.wav	2	13	blb_dichoticlistening_ga-ba.mp3	ga	ba	1	left
6.6.1	win	2023-06-02	04:15:25	0	0	5ee1be444c9d75206ce5aa92	2	1	DL_test	15	DL_test	12			0		ka	1	1155	6	5	antiphase_hc_osi.wav	2	6	6	noise_calib_stim_RIGHT.wav	2	24	blb_dichoticlistening_ka-ta.mp3	ka	ta	1	left
6.6.1	win	2023-06-02	04:15:25	0	0	5ee1be444c9d75206ce5aa92	2	1	DL_test	15	DL_test	13			0		ka	1	972	6	5	antiphase_hc_osi.wav	2	6	6	noise_calib_stim_RIGHT.wav	2	28	blb_dichoticlistening_pa-ka.mp3	pa	ka	1	right
6.6.1	win	2023-06-02	04:15:25	0	0	5ee1be444c9d75206ce5aa92	2	1	DL_test	15	DL_test	14			0		da	1	922	6	5	antiphase_hc_osi.wav	2	6	6	noise_calib_stim_RIGHT.wav	2	2	blb_dichoticlistening_ba-da.mp3	ba	da	1	right
6.6.1	win	2023-06-02	04:15:25	0	0	5ee1be444c9d75206ce5aa92	2	1	DL_test	15	DL_test	15			0		ta	1	960	6	5	antiphase_hc_osi.wav	2	6	6	noise_calib_stim_RIGHT.wav	2	6	blb_dichoticlistening_ba-ta.mp3	ba	ta	1	right
6.6.1	win	2023-06-02	04:15:25	0	0	5ee1be444c9d75206ce5aa92	2	1	DL_test	15	DL_test	16			0		pa	1	865	6	5	antiphase_hc_osi.wav	2	6	6	noise_calib_stim_RIGHT.wav	2	29	blb_dichoticlistening_pa-pa.mp3	pa	pa	0	left
6.6.1	win	2023-06-02	04:15:25	0	0	5ee1be444c9d75206ce5aa92	2	1	DL_test	15	DL_test	17			0		ka	1	807	6	5	antiphase_hc_osi.wav	2	6	6	noise_calib_stim_RIGHT.wav	2	22	blb_dichoticlistening_ka-ka.mp3	ka	ka	0	left
6.6.1	win	2023-06-02	04:15:25	0	0	5ee1be444c9d75206ce5aa92	2	1	DL_test	15	DL_test	18			0		ga	1	985	6	5	antiphase_hc_osi.wav	2	6	6	noise_calib_stim_RIGHT.wav	2	14	blb_dichoticlistening_ga-da.mp3	ga	da	1	left
6.6.1	win	2023-06-02	04:15:25	0	0	5ee1be444c9d75206ce5aa92	2	1	DL_test	15	DL_test	19			0		ba	1	1481	6	5	antiphase_hc_osi.wav	2	6	6	noise_calib_stim_RIGHT.wav	2	1	blb_dichoticlistening_ba-ba.mp3	ba	ba	0	left
6.6.1	win	2023-06-02	04:15:25	0	0	5ee1be444c9d75206ce5aa92	2	1	DL_test	15	DL_test	20			0		da	1	1105	6	5	antiphase_hc_osi.wav	2	6	6	noise_calib_stim_RIGHT.wav	2	8	blb_dichoticlistening_da-da.mp3	da	da	0	left
6.6.1	win	2023-06-02	04:15:25	0	0	5ee1be444c9d75206ce5aa92	2	1	DL_test	15	DL_test	21			0		ka	1	1664	6	5	antiphase_hc_osi.wav	2	6	6	noise_calib_stim_RIGHT.wav	2	19	blb_dichoticlistening_ka-ba.mp3	ka	ba	1	left
6.6.1	win	2023-06-02	04:15:25	0	0	5ee1be444c9d75206ce5aa92	2	1	DL_test	15	DL_test	22			0		ba	1	1038	6	5	antiphase_hc_osi.wav	2	6	6	noise_calib_stim_RIGHT.wav	2	7	blb_dichoticlistening_da-ba.mp3	da	ba	1	right
6.6.1	win	2023-06-02	04:15:25	0	0	5ee1be444c9d75206ce5aa92	2	1	DL_test	15	DL_test	23			0		pa	1	760	6	5	antiphase_hc_osi.wav	2	6	6	noise_calib_stim_RIGHT.wav	2	11	blb_dichoticlistening_da-pa.mp3	da	pa	1	right
6.6.1	win	2023-06-02	04:15:25	0	0	5ee1be444c9d75206ce5aa92	2	1	DL_test	15	DL_test	24			0		pa	1	790	6	5	antiphase_hc_osi.wav	2	6	6	noise_calib_stim_RIGHT.wav	2	23	blb_dichoticlistening_ka-pa.mp3	ka	pa	1	right
6.6.1	win	2023-06-02	04:15:25	0	0	5ee1be444c9d75206ce5aa92	2	1	DL_test	15	DL_test	25			0		ga	1	902	6	5	antiphase_hc_osi.wav	2	6	6	noise_calib_stim_RIGHT.wav	2	9	blb_dichoticlistening_da-ga.mp3	da	ga	1	right
6.6.1	win	2023-06-02	04:15:25	0	0	5ee1be444c9d75206ce5aa92	2	1	DL_test	15	DL_test	26			0		ba	1	1018	6	5	antiphase_hc_osi.wav	2	6	6	noise_calib_stim_RIGHT.wav	2	25	blb_dichoticlistening_pa-ba.mp3	pa	ba	1	right
6.6.1	win	2023-06-02	04:15:25	0	0	5ee1be444c9d75206ce5aa92	2	1	DL_test	15	DL_test	27			0		ga	1	819	6	5	antiphase_hc_osi.wav	2	6	6	noise_calib_stim_RIGHT.wav	2	21	blb_dichoticlistening_ka-ga.mp3	ka	ga	1	right
6.6.1	win	2023-06-02	04:15:25	0	0	5ee1be444c9d75206ce5aa92	2	1	DL_test	15	DL_test	28			0		ta	1	792	6	5	antiphase_hc_osi.wav	2	6	6	noise_calib_stim_RIGHT.wav	2	18	blb_dichoticlistening_ga-ta.mp3	ga	ta	1	right
6.6.1	win	2023-06-02	04:15:25	0	0	5ee1be444c9d75206ce5aa92	2	1	DL_test	15	DL_test	29			0		da	1	989	6	5	antiphase_hc_osi.wav	2	6	6	noise_calib_stim_RIGHT.wav	2	32	blb_dichoticlistening_ta-da.mp3	ta	da	1	right
6.6.1	win	2023-06-02	04:15:25	0	0	5ee1be444c9d75206ce5aa92	2	1	DL_test	15	DL_test	30			0		ta	1	1202	6	5	antiphase_hc_osi.wav	2	6	6	noise_calib_stim_RIGHT.wav	2	31	blb_dichoticlistening_ta-ba.mp3	ta	ba	1	left
6.6.1	win	2023-06-02	04:15:25	0	0	5ee1be444c9d75206ce5aa92	2	1	DL_test	15	DL_test	31			0		ka	0	691	6	5	antiphase_hc_osi.wav	2	6	6	noise_calib_stim_RIGHT.wav	2	3	blb_dichoticlistening_ba-ga.mp3	ba	ga	1	other
6.6.1	win	2023-06-02	04:15:25	0	0	5ee1be444c9d75206ce5aa92	2	1	DL_test	15	DL_test	32			0		pa	1	790	6	5	antiphase_hc_osi.wav	2	6	6	noise_calib_stim_RIGHT.wav	2	5	blb_dichoticlistening_ba-pa.mp3	ba	pa	1	right
6.6.1	win	2023-06-02	04:15:25	0	0	5ee1be444c9d75206ce5aa92	2	1	DL_test	15	DL_test	33			0		ga	1	859	6	5	antiphase_hc_osi.wav	2	6	6	noise_calib_stim_RIGHT.wav	2	27	blb_dichoticlistening_pa-ga.mp3	pa	ga	1	right
6.6.1	win	2023-06-02	04:15:25	0	0	5ee1be444c9d75206ce5aa92	2	1	DL_test	15	DL_test	34			0		ga	1	901	6	5	antiphase_hc_osi.wav	2	6	6	noise_calib_stim_RIGHT.wav	2	33	blb_dichoticlistening_ta-ga.mp3	ta	ga	1	right
6.6.1	win	2023-06-02	04:15:25	0	0	5ee1be444c9d75206ce5aa92	2	1	DL_test	15	DL_test	35			0		ga	1	722	6	5	antiphase_hc_osi.wav	2	6	6	noise_calib_stim_RIGHT.wav	2	15	blb_dichoticlistening_ga-ga.mp3	ga	ga	0	left
6.6.1	win	2023-06-02	04:15:25	0	0	5ee1be444c9d75206ce5aa92	2	1	DL_test	15	DL_test	36			0		ka	1	730	6	5	antiphase_hc_osi.wav	2	6	6	noise_calib_stim_RIGHT.wav	2	4	blb_dichoticlistening_ba-ka.mp3	ba	ka	1	right
6.6.1	win	2023-06-02	04:15:25	0	0	5ee1be444c9d75206ce5aa92	2	1	DL_test	16	DL_test	1			0		ga	1	952	6	5	antiphase_hc_osi.wav	2	6	6	noise_calib_stim_RIGHT.wav	2	14	blb_dichoticlistening_ga-da.mp3	ga	da	1	left
6.6.1	win	2023-06-02	04:15:25	0	0	5ee1be444c9d75206ce5aa92	2	1	DL_test	16	DL_test	2			0		ka	1	1649	6	5	antiphase_hc_osi.wav	2	6	6	noise_calib_stim_RIGHT.wav	2	21	blb_dichoticlistening_ka-ga.mp3	ka	ga	1	left
6.6.1	win	2023-06-02	04:15:25	0	0	5ee1be444c9d75206ce5aa92	2	1	DL_test	16	DL_test	3			0		da	1	940	6	5	antiphase_hc_osi.wav	2	6	6	noise_calib_stim_RIGHT.wav	2	2	blb_dichoticlistening_ba-da.mp3	ba	da	1	right
6.6.1	win	2023-06-02	04:15:25	0	0	5ee1be444c9d75206ce5aa92	2	1	DL_test	16	DL_test	4			0		ba	1	1025	6	5	antiphase_hc_osi.wav	2	6	6	noise_calib_stim_RIGHT.wav	2	13	blb_dichoticlistening_ga-ba.mp3	ga	ba	1	right
6.6.1	win	2023-06-02	04:15:25	0	0	5ee1be444c9d75206ce5aa92	2	1	DL_test	16	DL_test	5			0		pa	1	938	6	5	antiphase_hc_osi.wav	2	6	6	noise_calib_stim_RIGHT.wav	2	35	blb_dichoticlistening_ta-pa.mp3	ta	pa	1	right
6.6.1	win	2023-06-02	04:15:25	0	0	5ee1be444c9d75206ce5aa92	2	1	DL_test	16	DL_test	6			0		ta	1	1212	6	5	antiphase_hc_osi.wav	2	6	6	noise_calib_stim_RIGHT.wav	2	18	blb_dichoticlistening_ga-ta.mp3	ga	ta	1	right
6.6.1	win	2023-06-02	04:15:25	0	0	5ee1be444c9d75206ce5aa92	2	1	DL_test	16	DL_test	7			0		pa	1	1571	6	5	antiphase_hc_osi.wav	2	6	6	noise_calib_stim_RIGHT.wav	2	27	blb_dichoticlistening_pa-ga.mp3	pa	ga	1	left
6.6.1	win	2023-06-02	04:15:25	0	0	5ee1be444c9d75206ce5aa92	2	1	DL_test	16	DL_test	8			0		ba	1	1107	6	5	antiphase_hc_osi.wav	2	6	6	noise_calib_stim_RIGHT.wav	2	7	blb_dichoticlistening_da-ba.mp3	da	ba	1	right
6.6.1	win	2023-06-02	04:15:25	0	0	5ee1be444c9d75206ce5aa92	2	1	DL_test	16	DL_test	9			0		ka	1	1302	6	5	antiphase_hc_osi.wav	2	6	6	noise_calib_stim_RIGHT.wav	2	20	blb_dichoticlistening_ka-da.mp3	ka	da	1	left
6.6.1	win	2023-06-02	04:15:25	0	0	5ee1be444c9d75206ce5aa92	2	1	DL_test	16	DL_test	10			0		ta	1	818	6	5	antiphase_hc_osi.wav	2	6	6	noise_calib_stim_RIGHT.wav	2	32	blb_dichoticlistening_ta-da.mp3	ta	da	1	left
6.6.1	win	2023-06-02	04:15:25	0	0	5ee1be444c9d75206ce5aa92	2	1	DL_test	16	DL_test	11			0		pa	1	1447	6	5	antiphase_hc_osi.wav	2	6	6	noise_calib_stim_RIGHT.wav	2	23	blb_dichoticlistening_ka-pa.mp3	ka	pa	1	right
6.6.1	win	2023-06-02	04:15:25	0	0	5ee1be444c9d75206ce5aa92	2	1	DL_test	16	DL_test	12			0		ga	1	701	6	5	antiphase_hc_osi.wav	2	6	6	noise_calib_stim_RIGHT.wav	2	15	blb_dichoticlistening_ga-ga.mp3	ga	ga	0	left
6.6.1	win	2023-06-02	04:15:25	0	0	5ee1be444c9d75206ce5aa92	2	1	DL_test	16	DL_test	13			0		ka	1	643	6	5	antiphase_hc_osi.wav	2	6	6	noise_calib_stim_RIGHT.wav	2	16	blb_dichoticlistening_ga-ka.mp3	ga	ka	1	right
6.6.1	win	2023-06-02	04:15:25	0	0	5ee1be444c9d75206ce5aa92	2	1	DL_test	16	DL_test	14			0		ta	1	676	6	5	antiphase_hc_osi.wav	2	6	6	noise_calib_stim_RIGHT.wav	2	6	blb_dichoticlistening_ba-ta.mp3	ba	ta	1	right
6.6.1	win	2023-06-02	04:15:25	0	0	5ee1be444c9d75206ce5aa92	2	1	DL_test	16	DL_test	15			0		ta	1	915	6	5	antiphase_hc_osi.wav	2	6	6	noise_calib_stim_RIGHT.wav	2	30	blb_dichoticlistening_pa-ta.mp3	pa	ta	1	right
6.6.1	win	2023-06-02	04:15:25	0	0	5ee1be444c9d75206ce5aa92	2	1	DL_test	16	DL_test	16			0		pa	1	589	6	5	antiphase_hc_osi.wav	2	6	6	noise_calib_stim_RIGHT.wav	2	11	blb_dichoticlistening_da-pa.mp3	da	pa	1	right
6.6.1	win	2023-06-02	04:15:25	0	0	5ee1be444c9d75206ce5aa92	2	1	DL_test	16	DL_test	17			0		ka	1	647	6	5	antiphase_hc_osi.wav	2	6	6	noise_calib_stim_RIGHT.wav	2	4	blb_dichoticlistening_ba-ka.mp3	ba	ka	1	right
6.6.1	win	2023-06-02	04:15:25	0	0	5ee1be444c9d75206ce5aa92	2	1	DL_test	16	DL_test	18			0		ga	1	720	6	5	antiphase_hc_osi.wav	2	6	6	noise_calib_stim_RIGHT.wav	2	9	blb_dichoticlistening_da-ga.mp3	da	ga	1	right
6.6.1	win	2023-06-02	04:15:25	0	0	5ee1be444c9d75206ce5aa92	2	1	DL_test	16	DL_test	19			0		ba	1	1945	6	5	antiphase_hc_osi.wav	2	6	6	noise_calib_stim_RIGHT.wav	2	25	blb_dichoticlistening_pa-ba.mp3	pa	ba	1	right
6.6.1	win	2023-06-02	04:15:25	0	0	5ee1be444c9d75206ce5aa92	2	1	DL_test	16	DL_test	20			0		ka	1	794	6	5	antiphase_hc_osi.wav	2	6	6	noise_calib_stim_RIGHT.wav	2	34	blb_dichoticlistening_ta-ka.mp3	ta	ka	1	right
6.6.1	win	2023-06-02	04:15:25	0	0	5ee1be444c9d75206ce5aa92	2	1	DL_test	16	DL_test	21			0		ta	1	618	6	5	antiphase_hc_osi.wav	2	6	6	noise_calib_stim_RIGHT.wav	2	12	blb_dichoticlistening_da-ta.mp3	da	ta	1	right
6.6.1	win	2023-06-02	04:15:25	0	0	5ee1be444c9d75206ce5aa92	2	1	DL_test	16	DL_test	22			0		pa	0	915	6	5	antiphase_hc_osi.wav	2	6	6	noise_calib_stim_RIGHT.wav	2	10	blb_dichoticlistening_da-ka.mp3	da	ka	1	other
6.6.1	win	2023-06-02	04:15:25	0	0	5ee1be444c9d75206ce5aa92	2	1	DL_test	16	DL_test	23			0		ka	1	1341	6	5	antiphase_hc_osi.wav	2	6	6	noise_calib_stim_RIGHT.wav	2	19	blb_dichoticlistening_ka-ba.mp3	ka	ba	1	left
6.6.1	win	2023-06-02	04:15:25	0	0	5ee1be444c9d75206ce5aa92	2	1	DL_test	16	DL_test	24			0		pa	1	1180	6	5	antiphase_hc_osi.wav	2	6	6	noise_calib_stim_RIGHT.wav	2	29	blb_dichoticlistening_pa-pa.mp3	pa	pa	0	left
6.6.1	win	2023-06-02	04:15:25	0	0	5ee1be444c9d75206ce5aa92	2	1	DL_test	16	DL_test	25			0		ka	1	865	6	5	antiphase_hc_osi.wav	2	6	6	noise_calib_stim_RIGHT.wav	2	24	blb_dichoticlistening_ka-ta.mp3	ka	ta	1	left
6.6.1	win	2023-06-02	04:15:25	0	0	5ee1be444c9d75206ce5aa92	2	1	DL_test	16	DL_test	26			0		da	1	965	6	5	antiphase_hc_osi.wav	2	6	6	noise_calib_stim_RIGHT.wav	2	26	blb_dichoticlistening_pa-da.mp3	pa	da	1	right
6.6.1	win	2023-06-02	04:15:25	0	0	5ee1be444c9d75206ce5aa92	2	1	DL_test	16	DL_test	27			0		ga	1	804	6	5	antiphase_hc_osi.wav	2	6	6	noise_calib_stim_RIGHT.wav	2	3	blb_dichoticlistening_ba-ga.mp3	ba	ga	1	right
6.6.1	win	2023-06-02	04:15:25	0	0	5ee1be444c9d75206ce5aa92	2	1	DL_test	16	DL_test	28			0		ka	0	1022	6	5	antiphase_hc_osi.wav	2	6	6	noise_calib_stim_RIGHT.wav	2	33	blb_dichoticlistening_ta-ga.mp3	ta	ga	1	other
6.6.1	win	2023-06-02	04:15:25	0	0	5ee1be444c9d75206ce5aa92	2	1	DL_test	16	DL_test	29			0		pa	1	610	6	5	antiphase_hc_osi.wav	2	6	6	noise_calib_stim_RIGHT.wav	2	17	blb_dichoticlistening_ga-pa.mp3	ga	pa	1	right
6.6.1	win	2023-06-02	04:15:25	0	0	5ee1be444c9d75206ce5aa92	2	1	DL_test	16	DL_test	30			0		ta	1	764	6	5	antiphase_hc_osi.wav	2	6	6	noise_calib_stim_RIGHT.wav	2	36	blb_dichoticlistening_ta-ta.mp3	ta	ta	0	left
6.6.1	win	2023-06-02	04:15:25	0	0	5ee1be444c9d75206ce5aa92	2	1	DL_test	16	DL_test	31			0		pa	1	639	6	5	antiphase_hc_osi.wav	2	6	6	noise_calib_stim_RIGHT.wav	2	5	blb_dichoticlistening_ba-pa.mp3	ba	pa	1	right
6.6.1	win	2023-06-02	04:15:25	0	0	5ee1be444c9d75206ce5aa92	2	1	DL_test	16	DL_test	32			0		da	1	923	6	5	antiphase_hc_osi.wav	2	6	6	noise_calib_stim_RIGHT.wav	2	8	blb_dichoticlistening_da-da.mp3	da	da	0	left
6.6.1	win	2023-06-02	04:15:25	0	0	5ee1be444c9d75206ce5aa92	2	1	DL_test	16	DL_test	33			0		ka	1	498	6	5	antiphase_hc_osi.wav	2	6	6	noise_calib_stim_RIGHT.wav	2	28	blb_dichoticlistening_pa-ka.mp3	pa	ka	1	right
6.6.1	win	2023-06-02	04:15:25	0	0	5ee1be444c9d75206ce5aa92	2	1	DL_test	16	DL_test	34			0		pa	0	490	6	5	antiphase_hc_osi.wav	2	6	6	noise_calib_stim_RIGHT.wav	2	1	blb_dichoticlistening_ba-ba.mp3	ba	ba	0	other
6.6.1	win	2023-06-02	04:15:25	0	0	5ee1be444c9d75206ce5aa92	2	1	DL_test	16	DL_test	35			0		ta	1	1211	6	5	antiphase_hc_osi.wav	2	6	6	noise_calib_stim_RIGHT.wav	2	31	blb_dichoticlistening_ta-ba.mp3	ta	ba	1	left
6.6.1	win	2023-06-02	04:15:25	0	0	5ee1be444c9d75206ce5aa92	2	1	DL_test	16	DL_test	36			0		ka	1	929	6	5	antiphase_hc_osi.wav	2	6	6	noise_calib_stim_RIGHT.wav	2	22	blb_dichoticlistening_ka-ka.mp3	ka	ka	0	left
6.6.1	win	2023-06-02	04:15:25	04:26:22	652303	5ee1be444c9d75206ce5aa92	2	1	practice_z	22	practice_z	1	stimuli_distractor_diamondtriangles.svg	stimuli_distractor_trianglediamonds.svg	14	no	0	1	2000	6	5	antiphase_hc_osi.wav	2	6	6	noise_calib_stim_RIGHT.wav	2	22	blb_dichoticlistening_ka-ka.mp3	ka	ka	0	left
6.6.1	win	2023-06-02	04:15:25	04:26:22	652303	5ee1be444c9d75206ce5aa92	2	1	practice_z	22	advance_on_keypress_ZEE	2	stimuli_distractor_diamondtriangles.svg	stimuli_distractor_trianglediamonds.svg	14	no	57	0	584	6	5	antiphase_hc_osi.wav	2	6	6	noise_calib_stim_RIGHT.wav	2	22	blb_dichoticlistening_ka-ka.mp3	ka	ka	0	left
6.6.1	win	2023-06-02	04:15:25	04:26:25	655550	5ee1be444c9d75206ce5aa92	2	1	practice_z	22	practice_z	3	stimuli_target_rectanglediamonds.svg	stimuli_distractor_diamondtriangles.svg	1	yes	44	1	1018	6	5	antiphase_hc_osi.wav	2	6	6	noise_calib_stim_RIGHT.wav	2	22	blb_dichoticlistening_ka-ka.mp3	ka	ka	0	left
6.6.1	win	2023-06-02	04:15:25	04:26:25	655550	5ee1be444c9d75206ce5aa92	2	1	practice_z	22	advance_on_keypress_ZEE	4	stimuli_target_rectanglediamonds.svg	stimuli_distractor_diamondtriangles.svg	1	yes	57	0	1292	6	5	antiphase_hc_osi.wav	2	6	6	noise_calib_stim_RIGHT.wav	2	22	blb_dichoticlistening_ka-ka.mp3	ka	ka	0	left
6.6.1	win	2023-06-02	04:15:25	04:26:29	659450	5ee1be444c9d75206ce5aa92	2	1	practice_z	22	practice_z	5	stimuli_target_squarediamonds.svg	stimuli_distractor_diamondtriangles.svg	2	yes	44	1	954	6	5	antiphase_hc_osi.wav	2	6	6	noise_calib_stim_RIGHT.wav	2	22	blb_dichoticlistening_ka-ka.mp3	ka	ka	0	left
6.6.1	win	2023-06-02	04:15:25	04:26:29	659450	5ee1be444c9d75206ce5aa92	2	1	practice_z	22	advance_on_keypress_ZEE	6	stimuli_target_squarediamonds.svg	stimuli_distractor_diamondtriangles.svg	2	yes	57	0	1068	6	5	antiphase_hc_osi.wav	2	6	6	noise_calib_stim_RIGHT.wav	2	22	blb_dichoticlistening_ka-ka.mp3	ka	ka	0	left
6.6.1	win	2023-06-02	04:15:25	04:26:32	663164	5ee1be444c9d75206ce5aa92	2	1	practice_z	22	practice_z	7	stimuli_target_rectanglediamonds.svg	stimuli_distractor_trianglediamonds.svg	4	yes	44	1	1004	6	5	antiphase_hc_osi.wav	2	6	6	noise_calib_stim_RIGHT.wav	2	22	blb_dichoticlistening_ka-ka.mp3	ka	ka	0	left
6.6.1	win	2023-06-02	04:15:25	04:26:32	663164	5ee1be444c9d75206ce5aa92	2	1	practice_z	22	advance_on_keypress_ZEE	8	stimuli_target_rectanglediamonds.svg	stimuli_distractor_trianglediamonds.svg	4	yes	57	0	1402	6	5	antiphase_hc_osi.wav	2	6	6	noise_calib_stim_RIGHT.wav	2	22	blb_dichoticlistening_ka-ka.mp3	ka	ka	0	left
6.6.1	win	2023-06-02	04:15:25	04:26:38	668207	5ee1be444c9d75206ce5aa92	2	1	practice_z	22	practice_z	9	stimuli_distractor_diamondtriangles.svg	stimuli_distractor_diamondtriangles.svg	13	no	0	1	2000	6	5	antiphase_hc_osi.wav	2	6	6	noise_calib_stim_RIGHT.wav	2	22	blb_dichoticlistening_ka-ka.mp3	ka	ka	0	left
6.6.1	win	2023-06-02	04:15:25	04:26:38	668207	5ee1be444c9d75206ce5aa92	2	1	practice_z	22	advance_on_keypress_ZEE	10	stimuli_distractor_diamondtriangles.svg	stimuli_distractor_diamondtriangles.svg	13	no	57	0	1351	6	5	antiphase_hc_osi.wav	2	6	6	noise_calib_stim_RIGHT.wav	2	22	blb_dichoticlistening_ka-ka.mp3	ka	ka	0	left
6.6.1	win	2023-06-02	04:15:25	04:26:41	672126	5ee1be444c9d75206ce5aa92	2	1	practice_z	22	practice_z	11	stimuli_distractor_trianglediamonds.svg	stimuli_target_squarediamonds.svg	11	yes	44	1	923	6	5	antiphase_hc_osi.wav	2	6	6	noise_calib_stim_RIGHT.wav	2	22	blb_dichoticlistening_ka-ka.mp3	ka	ka	0	left
6.6.1	win	2023-06-02	04:15:25	04:26:41	672126	5ee1be444c9d75206ce5aa92	2	1	practice_z	22	advance_on_keypress_ZEE	12	stimuli_distractor_trianglediamonds.svg	stimuli_target_squarediamonds.svg	11	yes	57	0	497	6	5	antiphase_hc_osi.wav	2	6	6	noise_calib_stim_RIGHT.wav	2	22	blb_dichoticlistening_ka-ka.mp3	ka	ka	0	left
6.6.1	win	2023-06-02	04:15:25	04:26:45	675195	5ee1be444c9d75206ce5aa92	2	1	practice_z	22	practice_z	13	stimuli_target_diamondsquares.svg	stimuli_distractor_trianglediamonds.svg	6	yes	44	1	928	6	5	antiphase_hc_osi.wav	2	6	6	noise_calib_stim_RIGHT.wav	2	22	blb_dichoticlistening_ka-ka.mp3	ka	ka	0	left
6.6.1	win	2023-06-02	04:15:25	04:26:45	675195	5ee1be444c9d75206ce5aa92	2	1	practice_z	22	advance_on_keypress_ZEE	14	stimuli_target_diamondsquares.svg	stimuli_distractor_trianglediamonds.svg	6	yes	57	0	526	6	5	antiphase_hc_osi.wav	2	6	6	noise_calib_stim_RIGHT.wav	2	22	blb_dichoticlistening_ka-ka.mp3	ka	ka	0	left
6.6.1	win	2023-06-02	04:15:25	04:26:48	678804	5ee1be444c9d75206ce5aa92	2	1	practice_z	22	practice_z	15	stimuli_distractor_diamondtriangles.svg	stimuli_target_diamondrectangles.svg	8	yes	44	1	1423	6	5	antiphase_hc_osi.wav	2	6	6	noise_calib_stim_RIGHT.wav	2	22	blb_dichoticlistening_ka-ka.mp3	ka	ka	0	left
6.6.1	win	2023-06-02	04:15:25	04:26:48	678804	5ee1be444c9d75206ce5aa92	2	1	practice_z	22	advance_on_keypress_ZEE	16	stimuli_distractor_diamondtriangles.svg	stimuli_target_diamondrectangles.svg	8	yes	57	0	484	6	5	antiphase_hc_osi.wav	2	6	6	noise_calib_stim_RIGHT.wav	2	22	blb_dichoticlistening_ka-ka.mp3	ka	ka	0	left
6.6.1	win	2023-06-02	04:15:25	04:26:51	682128	5ee1be444c9d75206ce5aa92	2	1	practice_z	22	practice_z	17	stimuli_distractor_diamondtriangles.svg	stimuli_target_trianglerectangles.svg	9	yes	44	1	1201	6	5	antiphase_hc_osi.wav	2	6	6	noise_calib_stim_RIGHT.wav	2	22	blb_dichoticlistening_ka-ka.mp3	ka	ka	0	left
6.6.1	win	2023-06-02	04:15:25	04:26:51	682128	5ee1be444c9d75206ce5aa92	2	1	practice_z	22	advance_on_keypress_ZEE	18	stimuli_distractor_diamondtriangles.svg	stimuli_target_trianglerectangles.svg	9	yes	57	0	559	6	5	antiphase_hc_osi.wav	2	6	6	noise_calib_stim_RIGHT.wav	2	22	blb_dichoticlistening_ka-ka.mp3	ka	ka	0	left
6.6.1	win	2023-06-02	04:15:25	04:26:55	685255	5ee1be444c9d75206ce5aa92	2	1	practice_z	22	practice_z	19	stimuli_target_squarediamonds.svg	stimuli_distractor_trianglediamonds.svg	5	yes	44	1	931	6	5	antiphase_hc_osi.wav	2	6	6	noise_calib_stim_RIGHT.wav	2	22	blb_dichoticlistening_ka-ka.mp3	ka	ka	0	left
6.6.1	win	2023-06-02	04:15:25	04:26:55	685255	5ee1be444c9d75206ce5aa92	2	1	practice_z	22	advance_on_keypress_ZEE	20	stimuli_target_squarediamonds.svg	stimuli_distractor_trianglediamonds.svg	5	yes	57	0	443	6	5	antiphase_hc_osi.wav	2	6	6	noise_calib_stim_RIGHT.wav	2	22	blb_dichoticlistening_ka-ka.mp3	ka	ka	0	left
6.6.1	win	2023-06-02	04:15:25	04:26:58	688267	5ee1be444c9d75206ce5aa92	2	1	practice_z	22	practice_z	21	stimuli_distractor_diamondtriangles.svg	stimuli_target_rectangletriangles.svg	7	yes	44	1	911	6	5	antiphase_hc_osi.wav	2	6	6	noise_calib_stim_RIGHT.wav	2	22	blb_dichoticlistening_ka-ka.mp3	ka	ka	0	left
6.6.1	win	2023-06-02	04:15:25	04:26:58	688267	5ee1be444c9d75206ce5aa92	2	1	practice_z	22	advance_on_keypress_ZEE	22	stimuli_distractor_diamondtriangles.svg	stimuli_target_rectangletriangles.svg	7	yes	57	0	504	6	5	antiphase_hc_osi.wav	2	6	6	noise_calib_stim_RIGHT.wav	2	22	blb_dichoticlistening_ka-ka.mp3	ka	ka	0	left
6.6.1	win	2023-06-02	04:15:25	04:27:02	692420	5ee1be444c9d75206ce5aa92	2	1	practice_z	22	practice_z	23	stimuli_distractor_trianglediamonds.svg	stimuli_distractor_diamondtriangles.svg	16	no	0	1	2000	6	5	antiphase_hc_osi.wav	2	6	6	noise_calib_stim_RIGHT.wav	2	22	blb_dichoticlistening_ka-ka.mp3	ka	ka	0	left
6.6.1	win	2023-06-02	04:15:25	04:27:02	692420	5ee1be444c9d75206ce5aa92	2	1	practice_z	22	advance_on_keypress_ZEE	24	stimuli_distractor_trianglediamonds.svg	stimuli_distractor_diamondtriangles.svg	16	no	57	0	518	6	5	antiphase_hc_osi.wav	2	6	6	noise_calib_stim_RIGHT.wav	2	22	blb_dichoticlistening_ka-ka.mp3	ka	ka	0	left
6.6.1	win	2023-06-02	04:15:25	04:27:05	695500	5ee1be444c9d75206ce5aa92	2	1	practice_z	22	practice_z	25	stimuli_distractor_trianglediamonds.svg	stimuli_target_rectanglediamonds.svg	10	yes	44	1	917	6	5	antiphase_hc_osi.wav	2	6	6	noise_calib_stim_RIGHT.wav	2	22	blb_dichoticlistening_ka-ka.mp3	ka	ka	0	left
6.6.1	win	2023-06-02	04:15:25	04:27:05	695500	5ee1be444c9d75206ce5aa92	2	1	practice_z	22	advance_on_keypress_ZEE	26	stimuli_distractor_trianglediamonds.svg	stimuli_target_rectanglediamonds.svg	10	yes	57	0	531	6	5	antiphase_hc_osi.wav	2	6	6	noise_calib_stim_RIGHT.wav	2	22	blb_dichoticlistening_ka-ka.mp3	ka	ka	0	left
6.6.1	win	2023-06-02	04:15:25	04:27:08	698695	5ee1be444c9d75206ce5aa92	2	1	practice_z	22	practice_z	27	stimuli_target_diamondsquares.svg	stimuli_distractor_diamondtriangles.svg	3	yes	44	1	1015	6	5	antiphase_hc_osi.wav	2	6	6	noise_calib_stim_RIGHT.wav	2	22	blb_dichoticlistening_ka-ka.mp3	ka	ka	0	left
6.6.1	win	2023-06-02	04:15:25	04:27:08	698695	5ee1be444c9d75206ce5aa92	2	1	practice_z	22	advance_on_keypress_ZEE	28	stimuli_target_diamondsquares.svg	stimuli_distractor_diamondtriangles.svg	3	yes	57	0	446	6	5	antiphase_hc_osi.wav	2	6	6	noise_calib_stim_RIGHT.wav	2	22	blb_dichoticlistening_ka-ka.mp3	ka	ka	0	left
6.6.1	win	2023-06-02	04:15:25	04:27:12	702795	5ee1be444c9d75206ce5aa92	2	1	practice_z	22	practice_z	29	stimuli_distractor_trianglediamonds.svg	stimuli_distractor_trianglediamonds.svg	15	no	0	1	2000	6	5	antiphase_hc_osi.wav	2	6	6	noise_calib_stim_RIGHT.wav	2	22	blb_dichoticlistening_ka-ka.mp3	ka	ka	0	left
6.6.1	win	2023-06-02	04:15:25	04:27:12	702795	5ee1be444c9d75206ce5aa92	2	1	practice_z	22	advance_on_keypress_ZEE	30	stimuli_distractor_trianglediamonds.svg	stimuli_distractor_trianglediamonds.svg	15	no	57	0	779	6	5	antiphase_hc_osi.wav	2	6	6	noise_calib_stim_RIGHT.wav	2	22	blb_dichoticlistening_ka-ka.mp3	ka	ka	0	left
6.6.1	win	2023-06-02	04:15:25	04:27:15	706118	5ee1be444c9d75206ce5aa92	2	1	practice_z	22	practice_z	31	stimuli_distractor_trianglediamonds.svg	stimuli_target_diamondrectangles.svg	12	yes	44	1	893	6	5	antiphase_hc_osi.wav	2	6	6	noise_calib_stim_RIGHT.wav	2	22	blb_dichoticlistening_ka-ka.mp3	ka	ka	0	left
6.6.1	win	2023-06-02	04:15:25	04:27:15	706118	5ee1be444c9d75206ce5aa92	2	1	practice_z	22	advance_on_keypress_ZEE	32	stimuli_distractor_trianglediamonds.svg	stimuli_target_diamondrectangles.svg	12	yes	57	0	454	6	5	antiphase_hc_osi.wav	2	6	6	noise_calib_stim_RIGHT.wav	2	22	blb_dichoticlistening_ka-ka.mp3	ka	ka	0	left
6.6.1	win	2023-06-02	04:15:25	04:27:21	711739	5ee1be444c9d75206ce5aa92	2	1	main_z	24	main_z	1	stimuli_target_diamondsquares.svg	stimuli_distractor_trianglediamonds.svg	20	yes	44	1	839	6	5	antiphase_hc_osi.wav	2	6	6	noise_calib_stim_RIGHT.wav	2	22	blb_dichoticlistening_ka-ka.mp3	ka	ka	0	left
6.6.1	win	2023-06-02	04:15:25	04:27:21	711739	5ee1be444c9d75206ce5aa92	2	1	main_z	24	advance_on_keypress_ZEE	2	stimuli_target_diamondsquares.svg	stimuli_distractor_trianglediamonds.svg	20	yes	57	0	653	6	5	antiphase_hc_osi.wav	2	6	6	noise_calib_stim_RIGHT.wav	2	22	blb_dichoticlistening_ka-ka.mp3	ka	ka	0	left
6.6.1	win	2023-06-02	04:15:25	04:27:24	715032	5ee1be444c9d75206ce5aa92	2	1	main_z	24	main_z	3	stimuli_distractor_trianglediamonds.svg	stimuli_distractor_diamondtriangles.svg	36	no	0	1	2000	6	5	antiphase_hc_osi.wav	2	6	6	noise_calib_stim_RIGHT.wav	2	22	blb_dichoticlistening_ka-ka.mp3	ka	ka	0	left
6.6.1	win	2023-06-02	04:15:25	04:27:24	715032	5ee1be444c9d75206ce5aa92	2	1	main_z	24	advance_on_keypress_ZEE	4	stimuli_distractor_trianglediamonds.svg	stimuli_distractor_diamondtriangles.svg	36	no	57	0	436	6	5	antiphase_hc_osi.wav	2	6	6	noise_calib_stim_RIGHT.wav	2	22	blb_dichoticlistening_ka-ka.mp3	ka	ka	0	left
6.6.1	win	2023-06-02	04:15:25	04:27:26	717073	5ee1be444c9d75206ce5aa92	2	1	main_z	24	main_z	5	stimuli_target_trianglerectangles.svg	stimuli_distractor_diamondtriangles.svg	21	yes	44	1	960	6	5	antiphase_hc_osi.wav	2	6	6	noise_calib_stim_RIGHT.wav	2	22	blb_dichoticlistening_ka-ka.mp3	ka	ka	0	left
6.6.1	win	2023-06-02	04:15:25	04:27:26	717073	5ee1be444c9d75206ce5aa92	2	1	main_z	24	advance_on_keypress_ZEE	6	stimuli_target_trianglerectangles.svg	stimuli_distractor_diamondtriangles.svg	21	yes	57	0	667	6	5	antiphase_hc_osi.wav	2	6	6	noise_calib_stim_RIGHT.wav	2	22	blb_dichoticlistening_ka-ka.mp3	ka	ka	0	left
6.6.1	win	2023-06-02	04:15:25	04:27:29	719453	5ee1be444c9d75206ce5aa92	2	1	main_z	24	main_z	7	stimuli_distractor_trianglediamonds.svg	stimuli_target_rectanglediamonds.svg	10	yes	44	1	1076	6	5	antiphase_hc_osi.wav	2	6	6	noise_calib_stim_RIGHT.wav	2	22	blb_dichoticlistening_ka-ka.mp3	ka	ka	0	left
6.6.1	win	2023-06-02	04:15:25	04:27:29	719453	5ee1be444c9d75206ce5aa92	2	1	main_z	24	advance_on_keypress_ZEE	8	stimuli_distractor_trianglediamonds.svg	stimuli_target_rectanglediamonds.svg	10	yes	57	0	280	6	5	antiphase_hc_osi.wav	2	6	6	noise_calib_stim_RIGHT.wav	2	22	blb_dichoticlistening_ka-ka.mp3	ka	ka	0	left
6.6.1	win	2023-06-02	04:15:25	04:27:31	721430	5ee1be444c9d75206ce5aa92	2	1	main_z	24	main_z	9	stimuli_target_squaretriangles.svg	stimuli_distractor_diamondtriangles.svg	7	yes	44	1	1054	6	5	antiphase_hc_osi.wav	2	6	6	noise_calib_stim_RIGHT.wav	2	22	blb_dichoticlistening_ka-ka.mp3	ka	ka	0	left
6.6.1	win	2023-06-02	04:15:25	04:27:31	721430	5ee1be444c9d75206ce5aa92	2	1	main_z	24	advance_on_keypress_ZEE	10	stimuli_target_squaretriangles.svg	stimuli_distractor_diamondtriangles.svg	7	yes	57	0	378	6	5	antiphase_hc_osi.wav	2	6	6	noise_calib_stim_RIGHT.wav	2	22	blb_dichoticlistening_ka-ka.mp3	ka	ka	0	left
6.6.1	win	2023-06-02	04:15:25	04:27:33	723573	5ee1be444c9d75206ce5aa92	2	1	main_z	24	main_z	11	stimuli_distractor_trianglediamonds.svg	stimuli_target_trianglerectangles.svg	25	yes	44	1	1115	6	5	antiphase_hc_osi.wav	2	6	6	noise_calib_stim_RIGHT.wav	2	22	blb_dichoticlistening_ka-ka.mp3	ka	ka	0	left
6.6.1	win	2023-06-02	04:15:25	04:27:33	723573	5ee1be444c9d75206ce5aa92	2	1	main_z	24	advance_on_keypress_ZEE	12	stimuli_distractor_trianglediamonds.svg	stimuli_target_trianglerectangles.svg	25	yes	57	0	266	6	5	antiphase_hc_osi.wav	2	6	6	noise_calib_stim_RIGHT.wav	2	22	blb_dichoticlistening_ka-ka.mp3	ka	ka	0	left
6.6.1	win	2023-06-02	04:15:25	04:27:35	725454	5ee1be444c9d75206ce5aa92	2	1	main_z	24	main_z	13	stimuli_target_squarediamonds.svg	stimuli_distractor_trianglediamonds.svg	4	yes	44	1	964	6	5	antiphase_hc_osi.wav	2	6	6	noise_calib_stim_RIGHT.wav	2	22	blb_dichoticlistening_ka-ka.mp3	ka	ka	0	left
6.6.1	win	2023-06-02	04:15:25	04:27:35	725454	5ee1be444c9d75206ce5aa92	2	1	main_z	24	advance_on_keypress_ZEE	14	stimuli_target_squarediamonds.svg	stimuli_distractor_trianglediamonds.svg	4	yes	57	0	280	6	5	antiphase_hc_osi.wav	2	6	6	noise_calib_stim_RIGHT.wav	2	22	blb_dichoticlistening_ka-ka.mp3	ka	ka	0	left
6.6.1	win	2023-06-02	04:15:25	04:27:37	727360	5ee1be444c9d75206ce5aa92	2	1	main_z	24	main_z	15	stimuli_target_trianglesquares.svg	stimuli_distractor_diamondtriangles.svg	22	yes	44	1	972	6	5	antiphase_hc_osi.wav	2	6	6	noise_calib_stim_RIGHT.wav	2	22	blb_dichoticlistening_ka-ka.mp3	ka	ka	0	left
6.6.1	win	2023-06-02	04:15:25	04:27:37	727360	5ee1be444c9d75206ce5aa92	2	1	main_z	24	advance_on_keypress_ZEE	16	stimuli_target_trianglesquares.svg	stimuli_distractor_diamondtriangles.svg	22	yes	57	0	244	6	5	antiphase_hc_osi.wav	2	6	6	noise_calib_stim_RIGHT.wav	2	22	blb_dichoticlistening_ka-ka.mp3	ka	ka	0	left
6.6.1	win	2023-06-02	04:15:25	04:27:38	729186	5ee1be444c9d75206ce5aa92	2	1	main_z	24	main_z	17	stimuli_target_squaretriangles.svg	stimuli_distractor_trianglediamonds.svg	3	yes	44	1	949	6	5	antiphase_hc_osi.wav	2	6	6	noise_calib_stim_RIGHT.wav	2	22	blb_dichoticlistening_ka-ka.mp3	ka	ka	0	left
6.6.1	win	2023-06-02	04:15:25	04:27:38	729186	5ee1be444c9d75206ce5aa92	2	1	main_z	24	advance_on_keypress_ZEE	18	stimuli_target_squaretriangles.svg	stimuli_distractor_trianglediamonds.svg	3	yes	57	0	288	6	5	antiphase_hc_osi.wav	2	6	6	noise_calib_stim_RIGHT.wav	2	22	blb_dichoticlistening_ka-ka.mp3	ka	ka	0	left
6.6.1	win	2023-06-02	04:15:25	04:27:40	731023	5ee1be444c9d75206ce5aa92	2	1	main_z	24	main_z	19	stimuli_target_rectanglediamonds.svg	stimuli_distractor_trianglediamonds.svg	2	yes	44	1	906	6	5	antiphase_hc_osi.wav	2	6	6	noise_calib_stim_RIGHT.wav	2	22	blb_dichoticlistening_ka-ka.mp3	ka	ka	0	left
6.6.1	win	2023-06-02	04:15:25	04:27:40	731023	5ee1be444c9d75206ce5aa92	2	1	main_z	24	advance_on_keypress_ZEE	20	stimuli_target_rectanglediamonds.svg	stimuli_distractor_trianglediamonds.svg	2	yes	57	0	287	6	5	antiphase_hc_osi.wav	2	6	6	noise_calib_stim_RIGHT.wav	2	22	blb_dichoticlistening_ka-ka.mp3	ka	ka	0	left
6.6.1	win	2023-06-02	04:15:25	04:27:43	733949	5ee1be444c9d75206ce5aa92	2	1	main_z	24	main_z	21	stimuli_distractor_diamondtriangles.svg	stimuli_distractor_trianglediamonds.svg	37	no	0	1	2000	6	5	antiphase_hc_osi.wav	2	6	6	noise_calib_stim_RIGHT.wav	2	22	blb_dichoticlistening_ka-ka.mp3	ka	ka	0	left
6.6.1	win	2023-06-02	04:15:25	04:27:43	733949	5ee1be444c9d75206ce5aa92	2	1	main_z	24	advance_on_keypress_ZEE	22	stimuli_distractor_diamondtriangles.svg	stimuli_distractor_trianglediamonds.svg	37	no	57	0	422	6	5	antiphase_hc_osi.wav	2	6	6	noise_calib_stim_RIGHT.wav	2	22	blb_dichoticlistening_ka-ka.mp3	ka	ka	0	left
6.6.1	win	2023-06-02	04:15:25	04:27:45	736013	5ee1be444c9d75206ce5aa92	2	1	main_z	24	main_z	23	stimuli_distractor_trianglediamonds.svg	stimuli_target_trianglesquares.svg	26	yes	44	1	999	6	5	antiphase_hc_osi.wav	2	6	6	noise_calib_stim_RIGHT.wav	2	22	blb_dichoticlistening_ka-ka.mp3	ka	ka	0	left
6.6.1	win	2023-06-02	04:15:25	04:27:45	736013	5ee1be444c9d75206ce5aa92	2	1	main_z	24	advance_on_keypress_ZEE	24	stimuli_distractor_trianglediamonds.svg	stimuli_target_trianglesquares.svg	26	yes	57	0	493	6	5	antiphase_hc_osi.wav	2	6	6	noise_calib_stim_RIGHT.wav	2	22	blb_dichoticlistening_ka-ka.mp3	ka	ka	0	left
6.6.1	win	2023-06-02	04:15:25	04:27:47	738136	5ee1be444c9d75206ce5aa92	2	1	main_z	24	main_z	25	stimuli_distractor_trianglediamonds.svg	stimuli_target_diamondsquares.svg	28	yes	44	1	990	6	5	antiphase_hc_osi.wav	2	6	6	noise_calib_stim_RIGHT.wav	2	22	blb_dichoticlistening_ka-ka.mp3	ka	ka	0	left
6.6.1	win	2023-06-02	04:15:25	04:27:47	738136	5ee1be444c9d75206ce5aa92	2	1	main_z	24	advance_on_keypress_ZEE	26	stimuli_distractor_trianglediamonds.svg	stimuli_target_diamondsquares.svg	28	yes	57	0	232	6	5	antiphase_hc_osi.wav	2	6	6	noise_calib_stim_RIGHT.wav	2	22	blb_dichoticlistening_ka-ka.mp3	ka	ka	0	left
6.6.1	win	2023-06-02	04:15:25	04:27:49	739991	5ee1be444c9d75206ce5aa92	2	1	main_z	24	main_z	27	stimuli_distractor_trianglediamonds.svg	stimuli_target_squaretriangles.svg	11	yes	44	1	980	6	5	antiphase_hc_osi.wav	2	6	6	noise_calib_stim_RIGHT.wav	2	22	blb_dichoticlistening_ka-ka.mp3	ka	ka	0	left
6.6.1	win	2023-06-02	04:15:25	04:27:49	739991	5ee1be444c9d75206ce5aa92	2	1	main_z	24	advance_on_keypress_ZEE	28	stimuli_distractor_trianglediamonds.svg	stimuli_target_squaretriangles.svg	11	yes	57	0	262	6	5	antiphase_hc_osi.wav	2	6	6	noise_calib_stim_RIGHT.wav	2	22	blb_dichoticlistening_ka-ka.mp3	ka	ka	0	left
6.6.1	win	2023-06-02	04:15:25	04:27:51	741840	5ee1be444c9d75206ce5aa92	2	1	main_z	24	main_z	29	stimuli_target_rectanglediamonds.svg	stimuli_distractor_diamondtriangles.svg	6	yes	44	1	931	6	5	antiphase_hc_osi.wav	2	6	6	noise_calib_stim_RIGHT.wav	2	22	blb_dichoticlistening_ka-ka.mp3	ka	ka	0	left
6.6.1	win	2023-06-02	04:15:25	04:27:51	741840	5ee1be444c9d75206ce5aa92	2	1	main_z	24	advance_on_keypress_ZEE	30	stimuli_target_rectanglediamonds.svg	stimuli_distractor_diamondtriangles.svg	6	yes	57	0	259	6	5	antiphase_hc_osi.wav	2	6	6	noise_calib_stim_RIGHT.wav	2	22	blb_dichoticlistening_ka-ka.mp3	ka	ka	0	left
6.6.1	win	2023-06-02	04:15:25	04:27:53	743651	5ee1be444c9d75206ce5aa92	2	1	main_z	24	main_z	31	stimuli_distractor_diamondtriangles.svg	stimuli_target_rectanglediamonds.svg	14	yes	44	1	911	6	5	antiphase_hc_osi.wav	2	6	6	noise_calib_stim_RIGHT.wav	2	22	blb_dichoticlistening_ka-ka.mp3	ka	ka	0	left
6.6.1	win	2023-06-02	04:15:25	04:27:53	743651	5ee1be444c9d75206ce5aa92	2	1	main_z	24	advance_on_keypress_ZEE	32	stimuli_distractor_diamondtriangles.svg	stimuli_target_rectanglediamonds.svg	14	yes	57	0	272	6	5	antiphase_hc_osi.wav	2	6	6	noise_calib_stim_RIGHT.wav	2	22	blb_dichoticlistening_ka-ka.mp3	ka	ka	0	left
6.6.1	win	2023-06-02	04:15:25	04:27:56	746573	5ee1be444c9d75206ce5aa92	2	1	main_z	24	main_z	33	stimuli_distractor_diamondtriangles.svg	stimuli_distractor_trianglediamonds.svg	38	no	0	1	2000	6	5	antiphase_hc_osi.wav	2	6	6	noise_calib_stim_RIGHT.wav	2	22	blb_dichoticlistening_ka-ka.mp3	ka	ka	0	left
6.6.1	win	2023-06-02	04:15:25	04:27:56	746573	5ee1be444c9d75206ce5aa92	2	1	main_z	24	advance_on_keypress_ZEE	34	stimuli_distractor_diamondtriangles.svg	stimuli_distractor_trianglediamonds.svg	38	no	57	0	498	6	5	antiphase_hc_osi.wav	2	6	6	noise_calib_stim_RIGHT.wav	2	22	blb_dichoticlistening_ka-ka.mp3	ka	ka	0	left
6.6.1	win	2023-06-02	04:15:25	04:27:58	748692	5ee1be444c9d75206ce5aa92	2	1	main_z	24	main_z	35	stimuli_distractor_trianglediamonds.svg	stimuli_target_rectangletriangles.svg	9	yes	44	1	972	6	5	antiphase_hc_osi.wav	2	6	6	noise_calib_stim_RIGHT.wav	2	22	blb_dichoticlistening_ka-ka.mp3	ka	ka	0	left
6.6.1	win	2023-06-02	04:15:25	04:27:58	748692	5ee1be444c9d75206ce5aa92	2	1	main_z	24	advance_on_keypress_ZEE	36	stimuli_distractor_trianglediamonds.svg	stimuli_target_rectangletriangles.svg	9	yes	57	0	255	6	5	antiphase_hc_osi.wav	2	6	6	noise_calib_stim_RIGHT.wav	2	22	blb_dichoticlistening_ka-ka.mp3	ka	ka	0	left
6.6.1	win	2023-06-02	04:15:25	04:28:00	750630	5ee1be444c9d75206ce5aa92	2	1	main_z	24	main_z	37	stimuli_target_diamondrectangles.svg	stimuli_distractor_diamondtriangles.svg	23	yes	44	1	1045	6	5	antiphase_hc_osi.wav	2	6	6	noise_calib_stim_RIGHT.wav	2	22	blb_dichoticlistening_ka-ka.mp3	ka	ka	0	left
6.6.1	win	2023-06-02	04:15:25	04:28:00	750630	5ee1be444c9d75206ce5aa92	2	1	main_z	24	advance_on_keypress_ZEE	38	stimuli_target_diamondrectangles.svg	stimuli_distractor_diamondtriangles.svg	23	yes	57	0	345	6	5	antiphase_hc_osi.wav	2	6	6	noise_calib_stim_RIGHT.wav	2	22	blb_dichoticlistening_ka-ka.mp3	ka	ka	0	left
6.6.1	win	2023-06-02	04:15:25	04:28:03	753634	5ee1be444c9d75206ce5aa92	2	1	main_z	24	main_z	39	stimuli_distractor_trianglediamonds.svg	stimuli_distractor_trianglediamonds.svg	33	no	0	1	2000	6	5	antiphase_hc_osi.wav	2	6	6	noise_calib_stim_RIGHT.wav	2	22	blb_dichoticlistening_ka-ka.mp3	ka	ka	0	left
6.6.1	win	2023-06-02	04:15:25	04:28:03	753634	5ee1be444c9d75206ce5aa92	2	1	main_z	24	advance_on_keypress_ZEE	40	stimuli_distractor_trianglediamonds.svg	stimuli_distractor_trianglediamonds.svg	33	no	57	0	539	6	5	antiphase_hc_osi.wav	2	6	6	noise_calib_stim_RIGHT.wav	2	22	blb_dichoticlistening_ka-ka.mp3	ka	ka	0	left
6.6.1	win	2023-06-02	04:15:25	04:28:05	755891	5ee1be444c9d75206ce5aa92	2	1	main_z	24	main_z	41	stimuli_target_trianglerectangles.svg	stimuli_distractor_trianglediamonds.svg	17	yes	44	1	1076	6	5	antiphase_hc_osi.wav	2	6	6	noise_calib_stim_RIGHT.wav	2	22	blb_dichoticlistening_ka-ka.mp3	ka	ka	0	left
6.6.1	win	2023-06-02	04:15:25	04:28:05	755891	5ee1be444c9d75206ce5aa92	2	1	main_z	24	advance_on_keypress_ZEE	42	stimuli_target_trianglerectangles.svg	stimuli_distractor_trianglediamonds.svg	17	yes	57	0	180	6	5	antiphase_hc_osi.wav	2	6	6	noise_calib_stim_RIGHT.wav	2	22	blb_dichoticlistening_ka-ka.mp3	ka	ka	0	left
6.6.1	win	2023-06-02	04:15:25	04:28:07	757701	5ee1be444c9d75206ce5aa92	2	1	main_z	24	main_z	43	stimuli_target_rectangletriangles.svg	stimuli_distractor_diamondtriangles.svg	5	yes	44	1	971	6	5	antiphase_hc_osi.wav	2	6	6	noise_calib_stim_RIGHT.wav	2	22	blb_dichoticlistening_ka-ka.mp3	ka	ka	0	left
6.6.1	win	2023-06-02	04:15:25	04:28:07	757701	5ee1be444c9d75206ce5aa92	2	1	main_z	24	advance_on_keypress_ZEE	44	stimuli_target_rectangletriangles.svg	stimuli_distractor_diamondtriangles.svg	5	yes	57	0	211	6	5	antiphase_hc_osi.wav	2	6	6	noise_calib_stim_RIGHT.wav	2	22	blb_dichoticlistening_ka-ka.mp3	ka	ka	0	left
6.6.1	win	2023-06-02	04:15:25	04:28:09	759501	5ee1be444c9d75206ce5aa92	2	1	main_z	24	main_z	45	stimuli_distractor_trianglediamonds.svg	stimuli_target_diamondrectangles.svg	27	yes	44	1	940	6	5	antiphase_hc_osi.wav	2	6	6	noise_calib_stim_RIGHT.wav	2	22	blb_dichoticlistening_ka-ka.mp3	ka	ka	0	left
6.6.1	win	2023-06-02	04:15:25	04:28:09	759501	5ee1be444c9d75206ce5aa92	2	1	main_z	24	advance_on_keypress_ZEE	46	stimuli_distractor_trianglediamonds.svg	stimuli_target_diamondrectangles.svg	27	yes	57	0	218	6	5	antiphase_hc_osi.wav	2	6	6	noise_calib_stim_RIGHT.wav	2	22	blb_dichoticlistening_ka-ka.mp3	ka	ka	0	left
6.6.1	win	2023-06-02	04:15:25	04:28:11	761303	5ee1be444c9d75206ce5aa92	2	1	main_z	24	main_z	47	stimuli_distractor_diamondtriangles.svg	stimuli_target_trianglerectangles.svg	29	yes	44	1	943	6	5	antiphase_hc_osi.wav	2	6	6	noise_calib_stim_RIGHT.wav	2	22	blb_dichoticlistening_ka-ka.mp3	ka	ka	0	left
6.6.1	win	2023-06-02	04:15:25	04:28:11	761303	5ee1be444c9d75206ce5aa92	2	1	main_z	24	advance_on_keypress_ZEE	48	stimuli_distractor_diamondtriangles.svg	stimuli_target_trianglerectangles.svg	29	yes	57	0	254	6	5	antiphase_hc_osi.wav	2	6	6	noise_calib_stim_RIGHT.wav	2	22	blb_dichoticlistening_ka-ka.mp3	ka	ka	0	left
6.6.1	win	2023-06-02	04:15:25	04:28:12	763109	5ee1be444c9d75206ce5aa92	2	1	main_z	24	main_z	49	stimuli_target_squarediamonds.svg	stimuli_distractor_diamondtriangles.svg	8	yes	44	1	901	6	5	antiphase_hc_osi.wav	2	6	6	noise_calib_stim_RIGHT.wav	2	22	blb_dichoticlistening_ka-ka.mp3	ka	ka	0	left
6.6.1	win	2023-06-02	04:15:25	04:28:12	763109	5ee1be444c9d75206ce5aa92	2	1	main_z	24	advance_on_keypress_ZEE	50	stimuli_target_squarediamonds.svg	stimuli_distractor_diamondtriangles.svg	8	yes	57	0	1074	6	5	antiphase_hc_osi.wav	2	6	6	noise_calib_stim_RIGHT.wav	2	22	blb_dichoticlistening_ka-ka.mp3	ka	ka	0	left
6.6.1	win	2023-06-02	04:15:25	04:28:15	765786	5ee1be444c9d75206ce5aa92	2	1	main_z	24	main_z	51	stimuli_distractor_diamondtriangles.svg	stimuli_target_diamondrectangles.svg	31	yes	44	1	963	6	5	antiphase_hc_osi.wav	2	6	6	noise_calib_stim_RIGHT.wav	2	22	blb_dichoticlistening_ka-ka.mp3	ka	ka	0	left
6.6.1	win	2023-06-02	04:15:25	04:28:15	765786	5ee1be444c9d75206ce5aa92	2	1	main_z	24	advance_on_keypress_ZEE	52	stimuli_distractor_diamondtriangles.svg	stimuli_target_diamondrectangles.svg	31	yes	57	0	229	6	5	antiphase_hc_osi.wav	2	6	6	noise_calib_stim_RIGHT.wav	2	22	blb_dichoticlistening_ka-ka.mp3	ka	ka	0	left
6.6.1	win	2023-06-02	04:15:25	04:28:17	767572	5ee1be444c9d75206ce5aa92	2	1	main_z	24	main_z	53	stimuli_target_diamondsquares.svg	stimuli_distractor_diamondtriangles.svg	24	yes	44	1	900	6	5	antiphase_hc_osi.wav	2	6	6	noise_calib_stim_RIGHT.wav	2	22	blb_dichoticlistening_ka-ka.mp3	ka	ka	0	left
6.6.1	win	2023-06-02	04:15:25	04:28:17	767572	5ee1be444c9d75206ce5aa92	2	1	main_z	24	advance_on_keypress_ZEE	54	stimuli_target_diamondsquares.svg	stimuli_distractor_diamondtriangles.svg	24	yes	57	0	227	6	5	antiphase_hc_osi.wav	2	6	6	noise_calib_stim_RIGHT.wav	2	22	blb_dichoticlistening_ka-ka.mp3	ka	ka	0	left
6.6.1	win	2023-06-02	04:15:25	04:28:19	769481	5ee1be444c9d75206ce5aa92	2	1	main_z	24	main_z	55	stimuli_distractor_diamondtriangles.svg	stimuli_target_squaretriangles.svg	15	yes	44	1	1044	6	5	antiphase_hc_osi.wav	2	6	6	noise_calib_stim_RIGHT.wav	2	22	blb_dichoticlistening_ka-ka.mp3	ka	ka	0	left
6.6.1	win	2023-06-02	04:15:25	04:28:19	769481	5ee1be444c9d75206ce5aa92	2	1	main_z	24	advance_on_keypress_ZEE	56	stimuli_distractor_diamondtriangles.svg	stimuli_target_squaretriangles.svg	15	yes	57	0	181	6	5	antiphase_hc_osi.wav	2	6	6	noise_calib_stim_RIGHT.wav	2	22	blb_dichoticlistening_ka-ka.mp3	ka	ka	0	left
6.6.1	win	2023-06-02	04:15:25	04:28:21	771348	5ee1be444c9d75206ce5aa92	2	1	main_z	24	main_z	57	stimuli_distractor_diamondtriangles.svg	stimuli_target_squarediamonds.svg	16	yes	44	1	1029	6	5	antiphase_hc_osi.wav	2	6	6	noise_calib_stim_RIGHT.wav	2	22	blb_dichoticlistening_ka-ka.mp3	ka	ka	0	left
6.6.1	win	2023-06-02	04:15:25	04:28:21	771348	5ee1be444c9d75206ce5aa92	2	1	main_z	24	advance_on_keypress_ZEE	58	stimuli_distractor_diamondtriangles.svg	stimuli_target_squarediamonds.svg	16	yes	57	0	218	6	5	antiphase_hc_osi.wav	2	6	6	noise_calib_stim_RIGHT.wav	2	22	blb_dichoticlistening_ka-ka.mp3	ka	ka	0	left
6.6.1	win	2023-06-02	04:15:25	04:28:24	774217	5ee1be444c9d75206ce5aa92	2	1	main_z	24	main_z	59	stimuli_distractor_trianglediamonds.svg	stimuli_distractor_trianglediamonds.svg	34	no	0	1	2000	6	5	antiphase_hc_osi.wav	2	6	6	noise_calib_stim_RIGHT.wav	2	22	blb_dichoticlistening_ka-ka.mp3	ka	ka	0	left
6.6.1	win	2023-06-02	04:15:25	04:28:24	774217	5ee1be444c9d75206ce5aa92	2	1	main_z	24	advance_on_keypress_ZEE	60	stimuli_distractor_trianglediamonds.svg	stimuli_distractor_trianglediamonds.svg	34	no	57	0	412	6	5	antiphase_hc_osi.wav	2	6	6	noise_calib_stim_RIGHT.wav	2	22	blb_dichoticlistening_ka-ka.mp3	ka	ka	0	left
6.6.1	win	2023-06-02	04:15:25	04:28:25	776127	5ee1be444c9d75206ce5aa92	2	1	main_z	24	main_z	61	stimuli_target_rectangletriangles.svg	stimuli_distractor_trianglediamonds.svg	1	yes	44	1	846	6	5	antiphase_hc_osi.wav	2	6	6	noise_calib_stim_RIGHT.wav	2	22	blb_dichoticlistening_ka-ka.mp3	ka	ka	0	left
6.6.1	win	2023-06-02	04:15:25	04:28:25	776127	5ee1be444c9d75206ce5aa92	2	1	main_z	24	advance_on_keypress_ZEE	62	stimuli_target_rectangletriangles.svg	stimuli_distractor_trianglediamonds.svg	1	yes	57	0	669	6	5	antiphase_hc_osi.wav	2	6	6	noise_calib_stim_RIGHT.wav	2	22	blb_dichoticlistening_ka-ka.mp3	ka	ka	0	left
6.6.1	win	2023-06-02	04:15:25	04:28:28	778418	5ee1be444c9d75206ce5aa92	2	1	main_z	24	main_z	63	stimuli_distractor_diamondtriangles.svg	stimuli_target_trianglesquares.svg	30	yes	44	1	972	6	5	antiphase_hc_osi.wav	2	6	6	noise_calib_stim_RIGHT.wav	2	22	blb_dichoticlistening_ka-ka.mp3	ka	ka	0	left
6.6.1	win	2023-06-02	04:15:25	04:28:28	778418	5ee1be444c9d75206ce5aa92	2	1	main_z	24	advance_on_keypress_ZEE	64	stimuli_distractor_diamondtriangles.svg	stimuli_target_trianglesquares.svg	30	yes	57	0	440	6	5	antiphase_hc_osi.wav	2	6	6	noise_calib_stim_RIGHT.wav	2	22	blb_dichoticlistening_ka-ka.mp3	ka	ka	0	left
6.6.1	win	2023-06-02	04:15:25	04:28:31	781494	5ee1be444c9d75206ce5aa92	2	1	main_z	24	main_z	65	stimuli_distractor_diamondtriangles.svg	stimuli_distractor_diamondtriangles.svg	39	no	0	1	2000	6	5	antiphase_hc_osi.wav	2	6	6	noise_calib_stim_RIGHT.wav	2	22	blb_dichoticlistening_ka-ka.mp3	ka	ka	0	left
6.6.1	win	2023-06-02	04:15:25	04:28:31	781494	5ee1be444c9d75206ce5aa92	2	1	main_z	24	advance_on_keypress_ZEE	66	stimuli_distractor_diamondtriangles.svg	stimuli_distractor_diamondtriangles.svg	39	no	57	0	469	6	5	antiphase_hc_osi.wav	2	6	6	noise_calib_stim_RIGHT.wav	2	22	blb_dichoticlistening_ka-ka.mp3	ka	ka	0	left
6.6.1	win	2023-06-02	04:15:25	04:28:33	783601	5ee1be444c9d75206ce5aa92	2	1	main_z	24	main_z	67	stimuli_target_diamondrectangles.svg	stimuli_distractor_trianglediamonds.svg	19	yes	44	1	993	6	5	antiphase_hc_osi.wav	2	6	6	noise_calib_stim_RIGHT.wav	2	22	blb_dichoticlistening_ka-ka.mp3	ka	ka	0	left
6.6.1	win	2023-06-02	04:15:25	04:28:33	783601	5ee1be444c9d75206ce5aa92	2	1	main_z	24	advance_on_keypress_ZEE	68	stimuli_target_diamondrectangles.svg	stimuli_distractor_trianglediamonds.svg	19	yes	57	0	816	6	5	antiphase_hc_osi.wav	2	6	6	noise_calib_stim_RIGHT.wav	2	22	blb_dichoticlistening_ka-ka.mp3	ka	ka	0	left
6.6.1	win	2023-06-02	04:15:25	04:28:35	786185	5ee1be444c9d75206ce5aa92	2	1	main_z	24	main_z	69	stimuli_target_trianglesquares.svg	stimuli_distractor_trianglediamonds.svg	18	yes	44	1	1129	6	5	antiphase_hc_osi.wav	2	6	6	noise_calib_stim_RIGHT.wav	2	22	blb_dichoticlistening_ka-ka.mp3	ka	ka	0	left
6.6.1	win	2023-06-02	04:15:25	04:28:35	786185	5ee1be444c9d75206ce5aa92	2	1	main_z	24	advance_on_keypress_ZEE	70	stimuli_target_trianglesquares.svg	stimuli_distractor_trianglediamonds.svg	18	yes	57	0	394	6	5	antiphase_hc_osi.wav	2	6	6	noise_calib_stim_RIGHT.wav	2	22	blb_dichoticlistening_ka-ka.mp3	ka	ka	0	left
6.6.1	win	2023-06-02	04:15:25	04:28:38	788799	5ee1be444c9d75206ce5aa92	2	1	main_z	24	main_z	71	stimuli_distractor_trianglediamonds.svg	stimuli_distractor_diamondtriangles.svg	35	no	44	0	1561	6	5	antiphase_hc_osi.wav	2	6	6	noise_calib_stim_RIGHT.wav	2	22	blb_dichoticlistening_ka-ka.mp3	ka	ka	0	left
6.6.1	win	2023-06-02	04:15:25	04:28:38	788799	5ee1be444c9d75206ce5aa92	2	1	main_z	24	advance_on_keypress_ZEE	72	stimuli_distractor_trianglediamonds.svg	stimuli_distractor_diamondtriangles.svg	35	no	57	0	428	6	5	antiphase_hc_osi.wav	2	6	6	noise_calib_stim_RIGHT.wav	2	22	blb_dichoticlistening_ka-ka.mp3	ka	ka	0	left
6.6.1	win	2023-06-02	04:15:25	04:28:40	790849	5ee1be444c9d75206ce5aa92	2	1	main_z	24	main_z	73	stimuli_distractor_trianglediamonds.svg	stimuli_target_squarediamonds.svg	12	yes	44	1	981	6	5	antiphase_hc_osi.wav	2	6	6	noise_calib_stim_RIGHT.wav	2	22	blb_dichoticlistening_ka-ka.mp3	ka	ka	0	left
6.6.1	win	2023-06-02	04:15:25	04:28:40	790849	5ee1be444c9d75206ce5aa92	2	1	main_z	24	advance_on_keypress_ZEE	74	stimuli_distractor_trianglediamonds.svg	stimuli_target_squarediamonds.svg	12	yes	57	0	666	6	5	antiphase_hc_osi.wav	2	6	6	noise_calib_stim_RIGHT.wav	2	22	blb_dichoticlistening_ka-ka.mp3	ka	ka	0	left
6.6.1	win	2023-06-02	04:15:25	04:28:43	793309	5ee1be444c9d75206ce5aa92	2	1	main_z	24	main_z	75	stimuli_distractor_diamondtriangles.svg	stimuli_target_diamondsquares.svg	32	yes	44	1	1142	6	5	antiphase_hc_osi.wav	2	6	6	noise_calib_stim_RIGHT.wav	2	22	blb_dichoticlistening_ka-ka.mp3	ka	ka	0	left
6.6.1	win	2023-06-02	04:15:25	04:28:43	793309	5ee1be444c9d75206ce5aa92	2	1	main_z	24	advance_on_keypress_ZEE	76	stimuli_distractor_diamondtriangles.svg	stimuli_target_diamondsquares.svg	32	yes	57	0	260	6	5	antiphase_hc_osi.wav	2	6	6	noise_calib_stim_RIGHT.wav	2	22	blb_dichoticlistening_ka-ka.mp3	ka	ka	0	left
6.6.1	win	2023-06-02	04:15:25	04:28:45	795263	5ee1be444c9d75206ce5aa92	2	1	main_z	24	main_z	77	stimuli_distractor_diamondtriangles.svg	stimuli_target_rectangletriangles.svg	13	yes	44	1	1064	6	5	antiphase_hc_osi.wav	2	6	6	noise_calib_stim_RIGHT.wav	2	22	blb_dichoticlistening_ka-ka.mp3	ka	ka	0	left
6.6.1	win	2023-06-02	04:15:25	04:28:45	795263	5ee1be444c9d75206ce5aa92	2	1	main_z	24	advance_on_keypress_ZEE	78	stimuli_distractor_diamondtriangles.svg	stimuli_target_rectangletriangles.svg	13	yes	57	0	181	6	5	antiphase_hc_osi.wav	2	6	6	noise_calib_stim_RIGHT.wav	2	22	blb_dichoticlistening_ka-ka.mp3	ka	ka	0	left
6.6.1	win	2023-06-02	04:15:25	04:28:47	798097	5ee1be444c9d75206ce5aa92	2	1	main_z	24	main_z	79	stimuli_distractor_diamondtriangles.svg	stimuli_distractor_diamondtriangles.svg	40	no	0	1	2000	6	5	antiphase_hc_osi.wav	2	6	6	noise_calib_stim_RIGHT.wav	2	22	blb_dichoticlistening_ka-ka.mp3	ka	ka	0	left
6.6.1	win	2023-06-02	04:15:25	04:28:47	798097	5ee1be444c9d75206ce5aa92	2	1	main_z	24	advance_on_keypress_ZEE	80	stimuli_distractor_diamondtriangles.svg	stimuli_distractor_diamondtriangles.svg	40	no	57	0	420	6	5	antiphase_hc_osi.wav	2	6	6	noise_calib_stim_RIGHT.wav	2	22	blb_dichoticlistening_ka-ka.mp3	ka	ka	0	left
6.6.1	win	2023-06-02	04:15:25	04:28:49	800118	5ee1be444c9d75206ce5aa92	2	1	main_z	24	main_z	81	stimuli_target_squarediamonds.svg	stimuli_distractor_trianglediamonds.svg	4	yes	44	1	957	6	5	antiphase_hc_osi.wav	2	6	6	noise_calib_stim_RIGHT.wav	2	22	blb_dichoticlistening_ka-ka.mp3	ka	ka	0	left
6.6.1	win	2023-06-02	04:15:25	04:28:49	800118	5ee1be444c9d75206ce5aa92	2	1	main_z	24	advance_on_keypress_ZEE	82	stimuli_target_squarediamonds.svg	stimuli_distractor_trianglediamonds.svg	4	yes	57	0	230	6	5	antiphase_hc_osi.wav	2	6	6	noise_calib_stim_RIGHT.wav	2	22	blb_dichoticlistening_ka-ka.mp3	ka	ka	0	left
6.6.1	win	2023-06-02	04:15:25	04:28:51	802126	5ee1be444c9d75206ce5aa92	2	1	main_z	24	main_z	83	stimuli_target_trianglerectangles.svg	stimuli_distractor_diamondtriangles.svg	21	yes	44	1	1133	6	5	antiphase_hc_osi.wav	2	6	6	noise_calib_stim_RIGHT.wav	2	22	blb_dichoticlistening_ka-ka.mp3	ka	ka	0	left
6.6.1	win	2023-06-02	04:15:25	04:28:51	802126	5ee1be444c9d75206ce5aa92	2	1	main_z	24	advance_on_keypress_ZEE	84	stimuli_target_trianglerectangles.svg	stimuli_distractor_diamondtriangles.svg	21	yes	57	0	274	6	5	antiphase_hc_osi.wav	2	6	6	noise_calib_stim_RIGHT.wav	2	22	blb_dichoticlistening_ka-ka.mp3	ka	ka	0	left
6.6.1	win	2023-06-02	04:15:25	04:28:54	804386	5ee1be444c9d75206ce5aa92	2	1	main_z	24	main_z	85	stimuli_target_diamondrectangles.svg	stimuli_distractor_trianglediamonds.svg	19	yes	44	1	1345	6	5	antiphase_hc_osi.wav	2	6	6	noise_calib_stim_RIGHT.wav	2	22	blb_dichoticlistening_ka-ka.mp3	ka	ka	0	left
6.6.1	win	2023-06-02	04:15:25	04:28:54	804386	5ee1be444c9d75206ce5aa92	2	1	main_z	24	advance_on_keypress_ZEE	86	stimuli_target_diamondrectangles.svg	stimuli_distractor_trianglediamonds.svg	19	yes	57	0	494	6	5	antiphase_hc_osi.wav	2	6	6	noise_calib_stim_RIGHT.wav	2	22	blb_dichoticlistening_ka-ka.mp3	ka	ka	0	left
6.6.1	win	2023-06-02	04:15:25	04:28:56	806534	5ee1be444c9d75206ce5aa92	2	1	main_z	24	main_z	87	stimuli_target_rectanglediamonds.svg	stimuli_distractor_diamondtriangles.svg	6	yes	44	1	994	6	5	antiphase_hc_osi.wav	2	6	6	noise_calib_stim_RIGHT.wav	2	22	blb_dichoticlistening_ka-ka.mp3	ka	ka	0	left
6.6.1	win	2023-06-02	04:15:25	04:28:56	806534	5ee1be444c9d75206ce5aa92	2	1	main_z	24	advance_on_keypress_ZEE	88	stimuli_target_rectanglediamonds.svg	stimuli_distractor_diamondtriangles.svg	6	yes	57	0	207	6	5	antiphase_hc_osi.wav	2	6	6	noise_calib_stim_RIGHT.wav	2	22	blb_dichoticlistening_ka-ka.mp3	ka	ka	0	left
6.6.1	win	2023-06-02	04:15:25	04:28:58	808349	5ee1be444c9d75206ce5aa92	2	1	main_z	24	main_z	89	stimuli_distractor_trianglediamonds.svg	stimuli_target_trianglerectangles.svg	25	yes	44	1	962	6	5	antiphase_hc_osi.wav	2	6	6	noise_calib_stim_RIGHT.wav	2	22	blb_dichoticlistening_ka-ka.mp3	ka	ka	0	left
6.6.1	win	2023-06-02	04:15:25	04:28:58	808349	5ee1be444c9d75206ce5aa92	2	1	main_z	24	advance_on_keypress_ZEE	90	stimuli_distractor_trianglediamonds.svg	stimuli_target_trianglerectangles.svg	25	yes	57	0	401	6	5	antiphase_hc_osi.wav	2	6	6	noise_calib_stim_RIGHT.wav	2	22	blb_dichoticlistening_ka-ka.mp3	ka	ka	0	left
6.6.1	win	2023-06-02	04:15:25	04:29:01	811403	5ee1be444c9d75206ce5aa92	2	1	main_z	24	main_z	91	stimuli_distractor_diamondtriangles.svg	stimuli_distractor_diamondtriangles.svg	39	no	0	1	2000	6	5	antiphase_hc_osi.wav	2	6	6	noise_calib_stim_RIGHT.wav	2	22	blb_dichoticlistening_ka-ka.mp3	ka	ka	0	left
6.6.1	win	2023-06-02	04:15:25	04:29:01	811403	5ee1be444c9d75206ce5aa92	2	1	main_z	24	advance_on_keypress_ZEE	92	stimuli_distractor_diamondtriangles.svg	stimuli_distractor_diamondtriangles.svg	39	no	57	0	424	6	5	antiphase_hc_osi.wav	2	6	6	noise_calib_stim_RIGHT.wav	2	22	blb_dichoticlistening_ka-ka.mp3	ka	ka	0	left
6.6.1	win	2023-06-02	04:15:25	04:29:03	813480	5ee1be444c9d75206ce5aa92	2	1	main_z	24	main_z	93	stimuli_distractor_trianglediamonds.svg	stimuli_target_squaretriangles.svg	11	yes	44	1	1013	6	5	antiphase_hc_osi.wav	2	6	6	noise_calib_stim_RIGHT.wav	2	22	blb_dichoticlistening_ka-ka.mp3	ka	ka	0	left
6.6.1	win	2023-06-02	04:15:25	04:29:03	813480	5ee1be444c9d75206ce5aa92	2	1	main_z	24	advance_on_keypress_ZEE	94	stimuli_distractor_trianglediamonds.svg	stimuli_target_squaretriangles.svg	11	yes	57	0	225	6	5	antiphase_hc_osi.wav	2	6	6	noise_calib_stim_RIGHT.wav	2	22	blb_dichoticlistening_ka-ka.mp3	ka	ka	0	left
6.6.1	win	2023-06-02	04:15:25	04:29:05	815442	5ee1be444c9d75206ce5aa92	2	1	main_z	24	main_z	95	stimuli_distractor_trianglediamonds.svg	stimuli_target_diamondrectangles.svg	27	yes	44	1	1094	6	5	antiphase_hc_osi.wav	2	6	6	noise_calib_stim_RIGHT.wav	2	22	blb_dichoticlistening_ka-ka.mp3	ka	ka	0	left
6.6.1	win	2023-06-02	04:15:25	04:29:05	815442	5ee1be444c9d75206ce5aa92	2	1	main_z	24	advance_on_keypress_ZEE	96	stimuli_distractor_trianglediamonds.svg	stimuli_target_diamondrectangles.svg	27	yes	57	0	184	6	5	antiphase_hc_osi.wav	2	6	6	noise_calib_stim_RIGHT.wav	2	22	blb_dichoticlistening_ka-ka.mp3	ka	ka	0	left
6.6.1	win	2023-06-02	04:15:25	04:29:07	817379	5ee1be444c9d75206ce5aa92	2	1	main_z	24	main_z	97	stimuli_distractor_diamondtriangles.svg	stimuli_target_squarediamonds.svg	16	yes	44	1	1098	6	5	antiphase_hc_osi.wav	2	6	6	noise_calib_stim_RIGHT.wav	2	22	blb_dichoticlistening_ka-ka.mp3	ka	ka	0	left
6.6.1	win	2023-06-02	04:15:25	04:29:07	817379	5ee1be444c9d75206ce5aa92	2	1	main_z	24	advance_on_keypress_ZEE	98	stimuli_distractor_diamondtriangles.svg	stimuli_target_squarediamonds.svg	16	yes	57	0	198	6	5	antiphase_hc_osi.wav	2	6	6	noise_calib_stim_RIGHT.wav	2	22	blb_dichoticlistening_ka-ka.mp3	ka	ka	0	left
6.6.1	win	2023-06-02	04:15:25	04:29:09	819201	5ee1be444c9d75206ce5aa92	2	1	main_z	24	main_z	99	stimuli_target_trianglerectangles.svg	stimuli_distractor_trianglediamonds.svg	17	yes	44	1	972	6	5	antiphase_hc_osi.wav	2	6	6	noise_calib_stim_RIGHT.wav	2	22	blb_dichoticlistening_ka-ka.mp3	ka	ka	0	left
6.6.1	win	2023-06-02	04:15:25	04:29:09	819201	5ee1be444c9d75206ce5aa92	2	1	main_z	24	advance_on_keypress_ZEE	100	stimuli_target_trianglerectangles.svg	stimuli_distractor_trianglediamonds.svg	17	yes	57	0	175	6	5	antiphase_hc_osi.wav	2	6	6	noise_calib_stim_RIGHT.wav	2	22	blb_dichoticlistening_ka-ka.mp3	ka	ka	0	left
6.6.1	win	2023-06-02	04:15:25	04:29:10	820988	5ee1be444c9d75206ce5aa92	2	1	main_z	24	main_z	101	stimuli_target_rectangletriangles.svg	stimuli_distractor_trianglediamonds.svg	1	yes	44	1	977	6	5	antiphase_hc_osi.wav	2	6	6	noise_calib_stim_RIGHT.wav	2	22	blb_dichoticlistening_ka-ka.mp3	ka	ka	0	left
6.6.1	win	2023-06-02	04:15:25	04:29:10	820988	5ee1be444c9d75206ce5aa92	2	1	main_z	24	advance_on_keypress_ZEE	102	stimuli_target_rectangletriangles.svg	stimuli_distractor_trianglediamonds.svg	1	yes	57	0	151	6	5	antiphase_hc_osi.wav	2	6	6	noise_calib_stim_RIGHT.wav	2	22	blb_dichoticlistening_ka-ka.mp3	ka	ka	0	left
6.6.1	win	2023-06-02	04:15:25	04:29:12	822729	5ee1be444c9d75206ce5aa92	2	1	main_z	24	main_z	103	stimuli_distractor_trianglediamonds.svg	stimuli_target_rectanglediamonds.svg	10	yes	44	1	936	6	5	antiphase_hc_osi.wav	2	6	6	noise_calib_stim_RIGHT.wav	2	22	blb_dichoticlistening_ka-ka.mp3	ka	ka	0	left
6.6.1	win	2023-06-02	04:15:25	04:29:12	822729	5ee1be444c9d75206ce5aa92	2	1	main_z	24	advance_on_keypress_ZEE	104	stimuli_distractor_trianglediamonds.svg	stimuli_target_rectanglediamonds.svg	10	yes	57	0	237	6	5	antiphase_hc_osi.wav	2	6	6	noise_calib_stim_RIGHT.wav	2	22	blb_dichoticlistening_ka-ka.mp3	ka	ka	0	left
6.6.1	win	2023-06-02	04:15:25	04:29:14	824359	5ee1be444c9d75206ce5aa92	2	1	main_z	24	main_z	105	stimuli_target_squaretriangles.svg	stimuli_distractor_trianglediamonds.svg	3	yes	44	1	751	6	5	antiphase_hc_osi.wav	2	6	6	noise_calib_stim_RIGHT.wav	2	22	blb_dichoticlistening_ka-ka.mp3	ka	ka	0	left
6.6.1	win	2023-06-02	04:15:25	04:29:14	824359	5ee1be444c9d75206ce5aa92	2	1	main_z	24	advance_on_keypress_ZEE	106	stimuli_target_squaretriangles.svg	stimuli_distractor_trianglediamonds.svg	3	yes	57	0	270	6	5	antiphase_hc_osi.wav	2	6	6	noise_calib_stim_RIGHT.wav	2	22	blb_dichoticlistening_ka-ka.mp3	ka	ka	0	left
6.6.1	win	2023-06-02	04:15:25	04:29:15	826155	5ee1be444c9d75206ce5aa92	2	1	main_z	24	main_z	107	stimuli_distractor_diamondtriangles.svg	stimuli_target_diamondrectangles.svg	31	yes	44	1	883	6	5	antiphase_hc_osi.wav	2	6	6	noise_calib_stim_RIGHT.wav	2	22	blb_dichoticlistening_ka-ka.mp3	ka	ka	0	left
6.6.1	win	2023-06-02	04:15:25	04:29:15	826155	5ee1be444c9d75206ce5aa92	2	1	main_z	24	advance_on_keypress_ZEE	108	stimuli_distractor_diamondtriangles.svg	stimuli_target_diamondrectangles.svg	31	yes	57	0	284	6	5	antiphase_hc_osi.wav	2	6	6	noise_calib_stim_RIGHT.wav	2	22	blb_dichoticlistening_ka-ka.mp3	ka	ka	0	left
6.6.1	win	2023-06-02	04:15:25	04:29:18	829088	5ee1be444c9d75206ce5aa92	2	1	main_z	24	main_z	109	stimuli_distractor_trianglediamonds.svg	stimuli_distractor_diamondtriangles.svg	35	no	0	1	2000	6	5	antiphase_hc_osi.wav	2	6	6	noise_calib_stim_RIGHT.wav	2	22	blb_dichoticlistening_ka-ka.mp3	ka	ka	0	left
6.6.1	win	2023-06-02	04:15:25	04:29:18	829088	5ee1be444c9d75206ce5aa92	2	1	main_z	24	advance_on_keypress_ZEE	110	stimuli_distractor_trianglediamonds.svg	stimuli_distractor_diamondtriangles.svg	35	no	57	0	431	6	5	antiphase_hc_osi.wav	2	6	6	noise_calib_stim_RIGHT.wav	2	22	blb_dichoticlistening_ka-ka.mp3	ka	ka	0	left
6.6.1	win	2023-06-02	04:15:25	04:29:20	831072	5ee1be444c9d75206ce5aa92	2	1	main_z	24	main_z	111	stimuli_distractor_diamondtriangles.svg	stimuli_target_diamondsquares.svg	32	yes	44	1	903	6	5	antiphase_hc_osi.wav	2	6	6	noise_calib_stim_RIGHT.wav	2	22	blb_dichoticlistening_ka-ka.mp3	ka	ka	0	left
6.6.1	win	2023-06-02	04:15:25	04:29:20	831072	5ee1be444c9d75206ce5aa92	2	1	main_z	24	advance_on_keypress_ZEE	112	stimuli_distractor_diamondtriangles.svg	stimuli_target_diamondsquares.svg	32	yes	57	0	195	6	5	antiphase_hc_osi.wav	2	6	6	noise_calib_stim_RIGHT.wav	2	22	blb_dichoticlistening_ka-ka.mp3	ka	ka	0	left
6.6.1	win	2023-06-02	04:15:25	04:29:22	832881	5ee1be444c9d75206ce5aa92	2	1	main_z	24	main_z	113	stimuli_distractor_diamondtriangles.svg	stimuli_target_rectangletriangles.svg	13	yes	44	1	963	6	5	antiphase_hc_osi.wav	2	6	6	noise_calib_stim_RIGHT.wav	2	22	blb_dichoticlistening_ka-ka.mp3	ka	ka	0	left
6.6.1	win	2023-06-02	04:15:25	04:29:22	832881	5ee1be444c9d75206ce5aa92	2	1	main_z	24	advance_on_keypress_ZEE	114	stimuli_distractor_diamondtriangles.svg	stimuli_target_rectangletriangles.svg	13	yes	57	0	173	6	5	antiphase_hc_osi.wav	2	6	6	noise_calib_stim_RIGHT.wav	2	22	blb_dichoticlistening_ka-ka.mp3	ka	ka	0	left
6.6.1	win	2023-06-02	04:15:25	04:29:24	834878	5ee1be444c9d75206ce5aa92	2	1	main_z	24	main_z	115	stimuli_distractor_trianglediamonds.svg	stimuli_distractor_trianglediamonds.svg	33	no	44	0	1178	6	5	antiphase_hc_osi.wav	2	6	6	noise_calib_stim_RIGHT.wav	2	22	blb_dichoticlistening_ka-ka.mp3	ka	ka	0	left
6.6.1	win	2023-06-02	04:15:25	04:29:24	834878	5ee1be444c9d75206ce5aa92	2	1	main_z	24	advance_on_keypress_ZEE	116	stimuli_distractor_trianglediamonds.svg	stimuli_distractor_trianglediamonds.svg	33	no	57	0	638	6	5	antiphase_hc_osi.wav	2	6	6	noise_calib_stim_RIGHT.wav	2	22	blb_dichoticlistening_ka-ka.mp3	ka	ka	0	left
6.6.1	win	2023-06-02	04:15:25	04:29:26	837145	5ee1be444c9d75206ce5aa92	2	1	main_z	24	main_z	117	stimuli_target_rectanglediamonds.svg	stimuli_distractor_trianglediamonds.svg	2	yes	44	1	981	6	5	antiphase_hc_osi.wav	2	6	6	noise_calib_stim_RIGHT.wav	2	22	blb_dichoticlistening_ka-ka.mp3	ka	ka	0	left
6.6.1	win	2023-06-02	04:15:25	04:29:26	837145	5ee1be444c9d75206ce5aa92	2	1	main_z	24	advance_on_keypress_ZEE	118	stimuli_target_rectanglediamonds.svg	stimuli_distractor_trianglediamonds.svg	2	yes	57	0	153	6	5	antiphase_hc_osi.wav	2	6	6	noise_calib_stim_RIGHT.wav	2	22	blb_dichoticlistening_ka-ka.mp3	ka	ka	0	left
6.6.1	win	2023-06-02	04:15:25	04:29:28	838954	5ee1be444c9d75206ce5aa92	2	1	main_z	24	main_z	119	stimuli_distractor_trianglediamonds.svg	stimuli_target_squarediamonds.svg	12	yes	44	1	1008	6	5	antiphase_hc_osi.wav	2	6	6	noise_calib_stim_RIGHT.wav	2	22	blb_dichoticlistening_ka-ka.mp3	ka	ka	0	left
6.6.1	win	2023-06-02	04:15:25	04:29:28	838954	5ee1be444c9d75206ce5aa92	2	1	main_z	24	advance_on_keypress_ZEE	120	stimuli_distractor_trianglediamonds.svg	stimuli_target_squarediamonds.svg	12	yes	57	0	177	6	5	antiphase_hc_osi.wav	2	6	6	noise_calib_stim_RIGHT.wav	2	22	blb_dichoticlistening_ka-ka.mp3	ka	ka	0	left
6.6.1	win	2023-06-02	04:15:25	04:29:30	840841	5ee1be444c9d75206ce5aa92	2	1	main_z	24	main_z	121	stimuli_distractor_diamondtriangles.svg	stimuli_target_trianglerectangles.svg	29	yes	44	1	1063	6	5	antiphase_hc_osi.wav	2	6	6	noise_calib_stim_RIGHT.wav	2	22	blb_dichoticlistening_ka-ka.mp3	ka	ka	0	left
6.6.1	win	2023-06-02	04:15:25	04:29:30	840841	5ee1be444c9d75206ce5aa92	2	1	main_z	24	advance_on_keypress_ZEE	122	stimuli_distractor_diamondtriangles.svg	stimuli_target_trianglerectangles.svg	29	yes	57	0	207	6	5	antiphase_hc_osi.wav	2	6	6	noise_calib_stim_RIGHT.wav	2	22	blb_dichoticlistening_ka-ka.mp3	ka	ka	0	left
6.6.1	win	2023-06-02	04:15:25	04:29:32	842651	5ee1be444c9d75206ce5aa92	2	1	main_z	24	main_z	123	stimuli_target_trianglesquares.svg	stimuli_distractor_diamondtriangles.svg	22	yes	44	1	958	6	5	antiphase_hc_osi.wav	2	6	6	noise_calib_stim_RIGHT.wav	2	22	blb_dichoticlistening_ka-ka.mp3	ka	ka	0	left
6.6.1	win	2023-06-02	04:15:25	04:29:32	842651	5ee1be444c9d75206ce5aa92	2	1	main_z	24	advance_on_keypress_ZEE	124	stimuli_target_trianglesquares.svg	stimuli_distractor_diamondtriangles.svg	22	yes	57	0	179	6	5	antiphase_hc_osi.wav	2	6	6	noise_calib_stim_RIGHT.wav	2	22	blb_dichoticlistening_ka-ka.mp3	ka	ka	0	left
6.6.1	win	2023-06-02	04:15:25	04:29:34	844470	5ee1be444c9d75206ce5aa92	2	1	main_z	24	main_z	125	stimuli_target_rectangletriangles.svg	stimuli_distractor_diamondtriangles.svg	5	yes	44	1	995	6	5	antiphase_hc_osi.wav	2	6	6	noise_calib_stim_RIGHT.wav	2	22	blb_dichoticlistening_ka-ka.mp3	ka	ka	0	left
6.6.1	win	2023-06-02	04:15:25	04:29:34	844470	5ee1be444c9d75206ce5aa92	2	1	main_z	24	advance_on_keypress_ZEE	126	stimuli_target_rectangletriangles.svg	stimuli_distractor_diamondtriangles.svg	5	yes	57	0	191	6	5	antiphase_hc_osi.wav	2	6	6	noise_calib_stim_RIGHT.wav	2	22	blb_dichoticlistening_ka-ka.mp3	ka	ka	0	left
6.6.1	win	2023-06-02	04:15:25	04:29:36	846344	5ee1be444c9d75206ce5aa92	2	1	main_z	24	main_z	127	stimuli_distractor_trianglediamonds.svg	stimuli_target_rectangletriangles.svg	9	yes	44	1	1037	6	5	antiphase_hc_osi.wav	2	6	6	noise_calib_stim_RIGHT.wav	2	22	blb_dichoticlistening_ka-ka.mp3	ka	ka	0	left
6.6.1	win	2023-06-02	04:15:25	04:29:36	846344	5ee1be444c9d75206ce5aa92	2	1	main_z	24	advance_on_keypress_ZEE	128	stimuli_distractor_trianglediamonds.svg	stimuli_target_rectangletriangles.svg	9	yes	57	0	181	6	5	antiphase_hc_osi.wav	2	6	6	noise_calib_stim_RIGHT.wav	2	22	blb_dichoticlistening_ka-ka.mp3	ka	ka	0	left
6.6.1	win	2023-06-02	04:15:25	04:29:37	848084	5ee1be444c9d75206ce5aa92	2	1	main_z	24	main_z	129	stimuli_target_diamondsquares.svg	stimuli_distractor_trianglediamonds.svg	20	yes	44	1	912	6	5	antiphase_hc_osi.wav	2	6	6	noise_calib_stim_RIGHT.wav	2	22	blb_dichoticlistening_ka-ka.mp3	ka	ka	0	left
6.6.1	win	2023-06-02	04:15:25	04:29:37	848084	5ee1be444c9d75206ce5aa92	2	1	main_z	24	advance_on_keypress_ZEE	130	stimuli_target_diamondsquares.svg	stimuli_distractor_trianglediamonds.svg	20	yes	57	0	188	6	5	antiphase_hc_osi.wav	2	6	6	noise_calib_stim_RIGHT.wav	2	22	blb_dichoticlistening_ka-ka.mp3	ka	ka	0	left
6.6.1	win	2023-06-02	04:15:25	04:29:39	849822	5ee1be444c9d75206ce5aa92	2	1	main_z	24	main_z	131	stimuli_distractor_diamondtriangles.svg	stimuli_target_squaretriangles.svg	15	yes	44	1	901	6	5	antiphase_hc_osi.wav	2	6	6	noise_calib_stim_RIGHT.wav	2	22	blb_dichoticlistening_ka-ka.mp3	ka	ka	0	left
6.6.1	win	2023-06-02	04:15:25	04:29:39	849822	5ee1be444c9d75206ce5aa92	2	1	main_z	24	advance_on_keypress_ZEE	132	stimuli_distractor_diamondtriangles.svg	stimuli_target_squaretriangles.svg	15	yes	57	0	150	6	5	antiphase_hc_osi.wav	2	6	6	noise_calib_stim_RIGHT.wav	2	22	blb_dichoticlistening_ka-ka.mp3	ka	ka	0	left
6.6.1	win	2023-06-02	04:15:25	04:29:41	851624	5ee1be444c9d75206ce5aa92	2	1	main_z	24	main_z	133	stimuli_distractor_diamondtriangles.svg	stimuli_target_trianglesquares.svg	30	yes	44	1	1006	6	5	antiphase_hc_osi.wav	2	6	6	noise_calib_stim_RIGHT.wav	2	22	blb_dichoticlistening_ka-ka.mp3	ka	ka	0	left
6.6.1	win	2023-06-02	04:15:25	04:29:41	851624	5ee1be444c9d75206ce5aa92	2	1	main_z	24	advance_on_keypress_ZEE	134	stimuli_distractor_diamondtriangles.svg	stimuli_target_trianglesquares.svg	30	yes	57	0	150	6	5	antiphase_hc_osi.wav	2	6	6	noise_calib_stim_RIGHT.wav	2	22	blb_dichoticlistening_ka-ka.mp3	ka	ka	0	left
6.6.1	win	2023-06-02	04:15:25	04:29:44	854417	5ee1be444c9d75206ce5aa92	2	1	main_z	24	main_z	135	stimuli_distractor_diamondtriangles.svg	stimuli_distractor_trianglediamonds.svg	37	no	0	1	2000	6	5	antiphase_hc_osi.wav	2	6	6	noise_calib_stim_RIGHT.wav	2	22	blb_dichoticlistening_ka-ka.mp3	ka	ka	0	left
6.6.1	win	2023-06-02	04:15:25	04:29:44	854417	5ee1be444c9d75206ce5aa92	2	1	main_z	24	advance_on_keypress_ZEE	136	stimuli_distractor_diamondtriangles.svg	stimuli_distractor_trianglediamonds.svg	37	no	57	0	417	6	5	antiphase_hc_osi.wav	2	6	6	noise_calib_stim_RIGHT.wav	2	22	blb_dichoticlistening_ka-ka.mp3	ka	ka	0	left
6.6.1	win	2023-06-02	04:15:25	04:29:46	856334	5ee1be444c9d75206ce5aa92	2	1	main_z	24	main_z	137	stimuli_target_diamondsquares.svg	stimuli_distractor_diamondtriangles.svg	24	yes	44	1	852	6	5	antiphase_hc_osi.wav	2	6	6	noise_calib_stim_RIGHT.wav	2	22	blb_dichoticlistening_ka-ka.mp3	ka	ka	0	left
6.6.1	win	2023-06-02	04:15:25	04:29:46	856334	5ee1be444c9d75206ce5aa92	2	1	main_z	24	advance_on_keypress_ZEE	138	stimuli_target_diamondsquares.svg	stimuli_distractor_diamondtriangles.svg	24	yes	57	0	187	6	5	antiphase_hc_osi.wav	2	6	6	noise_calib_stim_RIGHT.wav	2	22	blb_dichoticlistening_ka-ka.mp3	ka	ka	0	left
6.6.1	win	2023-06-02	04:15:25	04:29:47	858154	5ee1be444c9d75206ce5aa92	2	1	main_z	24	main_z	139	stimuli_target_trianglesquares.svg	stimuli_distractor_trianglediamonds.svg	18	yes	44	1	991	6	5	antiphase_hc_osi.wav	2	6	6	noise_calib_stim_RIGHT.wav	2	22	blb_dichoticlistening_ka-ka.mp3	ka	ka	0	left
6.6.1	win	2023-06-02	04:15:25	04:29:47	858154	5ee1be444c9d75206ce5aa92	2	1	main_z	24	advance_on_keypress_ZEE	140	stimuli_target_trianglesquares.svg	stimuli_distractor_trianglediamonds.svg	18	yes	57	0	205	6	5	antiphase_hc_osi.wav	2	6	6	noise_calib_stim_RIGHT.wav	2	22	blb_dichoticlistening_ka-ka.mp3	ka	ka	0	left
6.6.1	win	2023-06-02	04:15:25	04:29:49	859966	5ee1be444c9d75206ce5aa92	2	1	main_z	24	main_z	141	stimuli_distractor_trianglediamonds.svg	stimuli_target_diamondsquares.svg	28	yes	44	1	970	6	5	antiphase_hc_osi.wav	2	6	6	noise_calib_stim_RIGHT.wav	2	22	blb_dichoticlistening_ka-ka.mp3	ka	ka	0	left
6.6.1	win	2023-06-02	04:15:25	04:29:49	859966	5ee1be444c9d75206ce5aa92	2	1	main_z	24	advance_on_keypress_ZEE	142	stimuli_distractor_trianglediamonds.svg	stimuli_target_diamondsquares.svg	28	yes	57	0	157	6	5	antiphase_hc_osi.wav	2	6	6	noise_calib_stim_RIGHT.wav	2	22	blb_dichoticlistening_ka-ka.mp3	ka	ka	0	left
6.6.1	win	2023-06-02	04:15:25	04:29:52	862761	5ee1be444c9d75206ce5aa92	2	1	main_z	24	main_z	143	stimuli_distractor_trianglediamonds.svg	stimuli_distractor_trianglediamonds.svg	34	no	0	1	2000	6	5	antiphase_hc_osi.wav	2	6	6	noise_calib_stim_RIGHT.wav	2	22	blb_dichoticlistening_ka-ka.mp3	ka	ka	0	left
6.6.1	win	2023-06-02	04:15:25	04:29:52	862761	5ee1be444c9d75206ce5aa92	2	1	main_z	24	advance_on_keypress_ZEE	144	stimuli_distractor_trianglediamonds.svg	stimuli_distractor_trianglediamonds.svg	34	no	57	0	444	6	5	antiphase_hc_osi.wav	2	6	6	noise_calib_stim_RIGHT.wav	2	22	blb_dichoticlistening_ka-ka.mp3	ka	ka	0	left
6.6.1	win	2023-06-02	04:15:25	04:29:55	865841	5ee1be444c9d75206ce5aa92	2	1	main_z	24	main_z	145	stimuli_distractor_diamondtriangles.svg	stimuli_distractor_trianglediamonds.svg	38	no	0	1	2000	6	5	antiphase_hc_osi.wav	2	6	6	noise_calib_stim_RIGHT.wav	2	22	blb_dichoticlistening_ka-ka.mp3	ka	ka	0	left
6.6.1	win	2023-06-02	04:15:25	04:29:55	865841	5ee1be444c9d75206ce5aa92	2	1	main_z	24	advance_on_keypress_ZEE	146	stimuli_distractor_diamondtriangles.svg	stimuli_distractor_trianglediamonds.svg	38	no	57	0	442	6	5	antiphase_hc_osi.wav	2	6	6	noise_calib_stim_RIGHT.wav	2	22	blb_dichoticlistening_ka-ka.mp3	ka	ka	0	left
6.6.1	win	2023-06-02	04:15:25	04:29:57	867845	5ee1be444c9d75206ce5aa92	2	1	main_z	24	main_z	147	stimuli_distractor_trianglediamonds.svg	stimuli_target_trianglesquares.svg	26	yes	44	1	923	6	5	antiphase_hc_osi.wav	2	6	6	noise_calib_stim_RIGHT.wav	2	22	blb_dichoticlistening_ka-ka.mp3	ka	ka	0	left
6.6.1	win	2023-06-02	04:15:25	04:29:57	867845	5ee1be444c9d75206ce5aa92	2	1	main_z	24	advance_on_keypress_ZEE	148	stimuli_distractor_trianglediamonds.svg	stimuli_target_trianglesquares.svg	26	yes	57	0	247	6	5	antiphase_hc_osi.wav	2	6	6	noise_calib_stim_RIGHT.wav	2	22	blb_dichoticlistening_ka-ka.mp3	ka	ka	0	left
6.6.1	win	2023-06-02	04:15:25	04:29:59	869878	5ee1be444c9d75206ce5aa92	2	1	main_z	24	main_z	149	stimuli_target_squarediamonds.svg	stimuli_distractor_diamondtriangles.svg	8	yes	44	1	1140	6	5	antiphase_hc_osi.wav	2	6	6	noise_calib_stim_RIGHT.wav	2	22	blb_dichoticlistening_ka-ka.mp3	ka	ka	0	left
6.6.1	win	2023-06-02	04:15:25	04:29:59	869878	5ee1be444c9d75206ce5aa92	2	1	main_z	24	advance_on_keypress_ZEE	150	stimuli_target_squarediamonds.svg	stimuli_distractor_diamondtriangles.svg	8	yes	57	0	371	6	5	antiphase_hc_osi.wav	2	6	6	noise_calib_stim_RIGHT.wav	2	22	blb_dichoticlistening_ka-ka.mp3	ka	ka	0	left
6.6.1	win	2023-06-02	04:15:25	04:30:02	872886	5ee1be444c9d75206ce5aa92	2	1	main_z	24	main_z	151	stimuli_distractor_trianglediamonds.svg	stimuli_distractor_diamondtriangles.svg	36	no	0	1	2000	6	5	antiphase_hc_osi.wav	2	6	6	noise_calib_stim_RIGHT.wav	2	22	blb_dichoticlistening_ka-ka.mp3	ka	ka	0	left
6.6.1	win	2023-06-02	04:15:25	04:30:02	872886	5ee1be444c9d75206ce5aa92	2	1	main_z	24	advance_on_keypress_ZEE	152	stimuli_distractor_trianglediamonds.svg	stimuli_distractor_diamondtriangles.svg	36	no	57	0	427	6	5	antiphase_hc_osi.wav	2	6	6	noise_calib_stim_RIGHT.wav	2	22	blb_dichoticlistening_ka-ka.mp3	ka	ka	0	left
6.6.1	win	2023-06-02	04:15:25	04:30:04	874942	5ee1be444c9d75206ce5aa92	2	1	main_z	24	main_z	153	stimuli_target_squaretriangles.svg	stimuli_distractor_diamondtriangles.svg	7	yes	44	1	993	6	5	antiphase_hc_osi.wav	2	6	6	noise_calib_stim_RIGHT.wav	2	22	blb_dichoticlistening_ka-ka.mp3	ka	ka	0	left
6.6.1	win	2023-06-02	04:15:25	04:30:04	874942	5ee1be444c9d75206ce5aa92	2	1	main_z	24	advance_on_keypress_ZEE	154	stimuli_target_squaretriangles.svg	stimuli_distractor_diamondtriangles.svg	7	yes	57	0	165	6	5	antiphase_hc_osi.wav	2	6	6	noise_calib_stim_RIGHT.wav	2	22	blb_dichoticlistening_ka-ka.mp3	ka	ka	0	left
6.6.1	win	2023-06-02	04:15:25	04:30:07	877748	5ee1be444c9d75206ce5aa92	2	1	main_z	24	main_z	155	stimuli_distractor_diamondtriangles.svg	stimuli_distractor_diamondtriangles.svg	40	no	0	1	2000	6	5	antiphase_hc_osi.wav	2	6	6	noise_calib_stim_RIGHT.wav	2	22	blb_dichoticlistening_ka-ka.mp3	ka	ka	0	left
6.6.1	win	2023-06-02	04:15:25	04:30:07	877748	5ee1be444c9d75206ce5aa92	2	1	main_z	24	advance_on_keypress_ZEE	156	stimuli_distractor_diamondtriangles.svg	stimuli_distractor_diamondtriangles.svg	40	no	57	0	431	6	5	antiphase_hc_osi.wav	2	6	6	noise_calib_stim_RIGHT.wav	2	22	blb_dichoticlistening_ka-ka.mp3	ka	ka	0	left
6.6.1	win	2023-06-02	04:15:25	04:30:09	879729	5ee1be444c9d75206ce5aa92	2	1	main_z	24	main_z	157	stimuli_target_diamondrectangles.svg	stimuli_distractor_diamondtriangles.svg	23	yes	44	1	900	6	5	antiphase_hc_osi.wav	2	6	6	noise_calib_stim_RIGHT.wav	2	22	blb_dichoticlistening_ka-ka.mp3	ka	ka	0	left
6.6.1	win	2023-06-02	04:15:25	04:30:09	879729	5ee1be444c9d75206ce5aa92	2	1	main_z	24	advance_on_keypress_ZEE	158	stimuli_target_diamondrectangles.svg	stimuli_distractor_diamondtriangles.svg	23	yes	57	0	262	6	5	antiphase_hc_osi.wav	2	6	6	noise_calib_stim_RIGHT.wav	2	22	blb_dichoticlistening_ka-ka.mp3	ka	ka	0	left
6.6.1	win	2023-06-02	04:15:25	04:30:11	881715	5ee1be444c9d75206ce5aa92	2	1	main_z	24	main_z	159	stimuli_distractor_diamondtriangles.svg	stimuli_target_rectanglediamonds.svg	14	yes	44	1	1071	6	5	antiphase_hc_osi.wav	2	6	6	noise_calib_stim_RIGHT.wav	2	22	blb_dichoticlistening_ka-ka.mp3	ka	ka	0	left
6.6.1	win	2023-06-02	04:15:25	04:30:11	881715	5ee1be444c9d75206ce5aa92	2	1	main_z	24	advance_on_keypress_ZEE	160	stimuli_distractor_diamondtriangles.svg	stimuli_target_rectanglediamonds.svg	14	yes	57	0	401	6	5	antiphase_hc_osi.wav	2	6	6	noise_calib_stim_RIGHT.wav	2	22	blb_dichoticlistening_ka-ka.mp3	ka	ka	0	left
6.6.1	win	2023-06-02	04:15:25	04:30:35	905512	5ee1be444c9d75206ce5aa92	2	1	practice_slash	26	practice_slash	1	stimuli_target_squarediamonds.svg	stimuli_distractor_trianglediamonds.svg	5	yes	0	0	2000	6	5	antiphase_hc_osi.wav	2	6	6	noise_calib_stim_RIGHT.wav	2	22	blb_dichoticlistening_ka-ka.mp3	ka	ka	0	left
6.6.1	win	2023-06-02	04:15:25	04:30:35	905512	5ee1be444c9d75206ce5aa92	2	1	practice_slash	26	advance_on_keypress_SLASH	2	stimuli_target_squarediamonds.svg	stimuli_distractor_trianglediamonds.svg	5	yes	57	0	616	6	5	antiphase_hc_osi.wav	2	6	6	noise_calib_stim_RIGHT.wav	2	22	blb_dichoticlistening_ka-ka.mp3	ka	ka	0	left
6.6.1	win	2023-06-02	04:15:25	04:30:38	908762	5ee1be444c9d75206ce5aa92	2	1	practice_slash	26	practice_slash	3	stimuli_target_rectanglediamonds.svg	stimuli_distractor_trianglediamonds.svg	4	yes	53	1	988	6	5	antiphase_hc_osi.wav	2	6	6	noise_calib_stim_RIGHT.wav	2	22	blb_dichoticlistening_ka-ka.mp3	ka	ka	0	left
6.6.1	win	2023-06-02	04:15:25	04:30:38	908762	5ee1be444c9d75206ce5aa92	2	1	practice_slash	26	advance_on_keypress_SLASH	4	stimuli_target_rectanglediamonds.svg	stimuli_distractor_trianglediamonds.svg	4	yes	57	0	476	6	5	antiphase_hc_osi.wav	2	6	6	noise_calib_stim_RIGHT.wav	2	22	blb_dichoticlistening_ka-ka.mp3	ka	ka	0	left
6.6.1	win	2023-06-02	04:15:25	04:30:41	911808	5ee1be444c9d75206ce5aa92	2	1	practice_slash	26	practice_slash	5	stimuli_target_squarediamonds.svg	stimuli_distractor_diamondtriangles.svg	2	yes	53	1	920	6	5	antiphase_hc_osi.wav	2	6	6	noise_calib_stim_RIGHT.wav	2	22	blb_dichoticlistening_ka-ka.mp3	ka	ka	0	left
6.6.1	win	2023-06-02	04:15:25	04:30:41	911808	5ee1be444c9d75206ce5aa92	2	1	practice_slash	26	advance_on_keypress_SLASH	6	stimuli_target_squarediamonds.svg	stimuli_distractor_diamondtriangles.svg	2	yes	57	0	418	6	5	antiphase_hc_osi.wav	2	6	6	noise_calib_stim_RIGHT.wav	2	22	blb_dichoticlistening_ka-ka.mp3	ka	ka	0	left
6.6.1	win	2023-06-02	04:15:25	04:30:44	914829	5ee1be444c9d75206ce5aa92	2	1	practice_slash	26	practice_slash	7	stimuli_target_diamondsquares.svg	stimuli_distractor_trianglediamonds.svg	6	yes	53	1	959	6	5	antiphase_hc_osi.wav	2	6	6	noise_calib_stim_RIGHT.wav	2	22	blb_dichoticlistening_ka-ka.mp3	ka	ka	0	left
6.6.1	win	2023-06-02	04:15:25	04:30:44	914829	5ee1be444c9d75206ce5aa92	2	1	practice_slash	26	advance_on_keypress_SLASH	8	stimuli_target_diamondsquares.svg	stimuli_distractor_trianglediamonds.svg	6	yes	57	0	452	6	5	antiphase_hc_osi.wav	2	6	6	noise_calib_stim_RIGHT.wav	2	22	blb_dichoticlistening_ka-ka.mp3	ka	ka	0	left
6.6.1	win	2023-06-02	04:15:25	04:30:47	917874	5ee1be444c9d75206ce5aa92	2	1	practice_slash	26	practice_slash	9	stimuli_target_diamondsquares.svg	stimuli_distractor_diamondtriangles.svg	3	yes	53	1	940	6	5	antiphase_hc_osi.wav	2	6	6	noise_calib_stim_RIGHT.wav	2	22	blb_dichoticlistening_ka-ka.mp3	ka	ka	0	left
6.6.1	win	2023-06-02	04:15:25	04:30:47	917874	5ee1be444c9d75206ce5aa92	2	1	practice_slash	26	advance_on_keypress_SLASH	10	stimuli_target_diamondsquares.svg	stimuli_distractor_diamondtriangles.svg	3	yes	57	0	3985	6	5	antiphase_hc_osi.wav	2	6	6	noise_calib_stim_RIGHT.wav	2	22	blb_dichoticlistening_ka-ka.mp3	ka	ka	0	left
6.6.1	win	2023-06-02	04:15:25	04:30:55	925495	5ee1be444c9d75206ce5aa92	2	1	practice_slash	26	practice_slash	11	stimuli_distractor_diamondtriangles.svg	stimuli_distractor_diamondtriangles.svg	13	no	0	1	2000	6	5	antiphase_hc_osi.wav	2	6	6	noise_calib_stim_RIGHT.wav	2	22	blb_dichoticlistening_ka-ka.mp3	ka	ka	0	left
6.6.1	win	2023-06-02	04:15:25	04:30:55	925495	5ee1be444c9d75206ce5aa92	2	1	practice_slash	26	advance_on_keypress_SLASH	12	stimuli_distractor_diamondtriangles.svg	stimuli_distractor_diamondtriangles.svg	13	no	57	0	534	6	5	antiphase_hc_osi.wav	2	6	6	noise_calib_stim_RIGHT.wav	2	22	blb_dichoticlistening_ka-ka.mp3	ka	ka	0	left
6.6.1	win	2023-06-02	04:15:25	04:30:58	928592	5ee1be444c9d75206ce5aa92	2	1	practice_slash	26	practice_slash	13	stimuli_distractor_diamondtriangles.svg	stimuli_target_diamondrectangles.svg	8	yes	53	1	917	6	5	antiphase_hc_osi.wav	2	6	6	noise_calib_stim_RIGHT.wav	2	22	blb_dichoticlistening_ka-ka.mp3	ka	ka	0	left
6.6.1	win	2023-06-02	04:15:25	04:30:58	928592	5ee1be444c9d75206ce5aa92	2	1	practice_slash	26	advance_on_keypress_SLASH	14	stimuli_distractor_diamondtriangles.svg	stimuli_target_diamondrectangles.svg	8	yes	57	0	489	6	5	antiphase_hc_osi.wav	2	6	6	noise_calib_stim_RIGHT.wav	2	22	blb_dichoticlistening_ka-ka.mp3	ka	ka	0	left
6.6.1	win	2023-06-02	04:15:25	04:31:02	932723	5ee1be444c9d75206ce5aa92	2	1	practice_slash	26	practice_slash	15	stimuli_distractor_diamondtriangles.svg	stimuli_distractor_trianglediamonds.svg	14	no	0	1	2000	6	5	antiphase_hc_osi.wav	2	6	6	noise_calib_stim_RIGHT.wav	2	22	blb_dichoticlistening_ka-ka.mp3	ka	ka	0	left
6.6.1	win	2023-06-02	04:15:25	04:31:02	932723	5ee1be444c9d75206ce5aa92	2	1	practice_slash	26	advance_on_keypress_SLASH	16	stimuli_distractor_diamondtriangles.svg	stimuli_distractor_trianglediamonds.svg	14	no	57	0	555	6	5	antiphase_hc_osi.wav	2	6	6	noise_calib_stim_RIGHT.wav	2	22	blb_dichoticlistening_ka-ka.mp3	ka	ka	0	left
6.6.1	win	2023-06-02	04:15:25	04:31:05	936066	5ee1be444c9d75206ce5aa92	2	1	practice_slash	26	practice_slash	17	stimuli_distractor_trianglediamonds.svg	stimuli_target_diamondrectangles.svg	12	yes	53	1	1148	6	5	antiphase_hc_osi.wav	2	6	6	noise_calib_stim_RIGHT.wav	2	22	blb_dichoticlistening_ka-ka.mp3	ka	ka	0	left
6.6.1	win	2023-06-02	04:15:25	04:31:05	936066	5ee1be444c9d75206ce5aa92	2	1	practice_slash	26	advance_on_keypress_SLASH	18	stimuli_distractor_trianglediamonds.svg	stimuli_target_diamondrectangles.svg	12	yes	57	0	669	6	5	antiphase_hc_osi.wav	2	6	6	noise_calib_stim_RIGHT.wav	2	22	blb_dichoticlistening_ka-ka.mp3	ka	ka	0	left
