build	computer.platform	date	time	timestamp	time_elapsed_ms	subject	group	session	blockcode	blocknum	trialcode	trialnum	stimulus_left	stimulus_right	stim_index	target_present	response	correct	latency	headphonecheck_countTestTrials	headphonecheck_index	headphonecheck_testSound	headphonecheck_correctResponse	stereocheck_countTestTrials	stereocheck_index	stereocheck_testSound	stereocheck_correctResponse	DL_index	DL_soundfile	DL_leftSound	DL_rightSound	DL_dualSound	DL_choice
6.6.1	win	2023-06-23	22:21:44	22:25:17	206112	63d8665164999168637f2029	4	1	practice_z	5	practice_z	1	stimuli_target_rectanglediamonds.svg	stimuli_distractor_trianglediamonds.svg	4	yes	44	1	1438	0	0			0	0			1				0	
6.6.1	win	2023-06-23	22:21:44	22:25:17	206112	63d8665164999168637f2029	4	1	practice_z	5	advance_on_keypress_ZEE	2	stimuli_target_rectanglediamonds.svg	stimuli_distractor_trianglediamonds.svg	4	yes	57	0	1906	0	0			0	0			1				0	
6.6.1	win	2023-06-23	22:21:44	22:25:22	211068	63d8665164999168637f2029	4	1	practice_z	5	practice_z	3	stimuli_target_diamondsquares.svg	stimuli_distractor_diamondtriangles.svg	3	yes	44	1	1376	0	0			0	0			1				0	
6.6.1	win	2023-06-23	22:21:44	22:25:22	211068	63d8665164999168637f2029	4	1	practice_z	5	advance_on_keypress_ZEE	4	stimuli_target_diamondsquares.svg	stimuli_distractor_diamondtriangles.svg	3	yes	57	0	528	0	0			0	0			1				0	
6.6.1	win	2023-06-23	22:21:44	22:25:25	214000	63d8665164999168637f2029	4	1	practice_z	5	practice_z	5	stimuli_distractor_trianglediamonds.svg	stimuli_target_rectanglediamonds.svg	10	yes	44	1	743	0	0			0	0			1				0	
6.6.1	win	2023-06-23	22:21:44	22:25:25	214000	63d8665164999168637f2029	4	1	practice_z	5	advance_on_keypress_ZEE	6	stimuli_distractor_trianglediamonds.svg	stimuli_target_rectanglediamonds.svg	10	yes	57	0	404	0	0			0	0			1				0	
6.6.1	win	2023-06-23	22:21:44	22:25:29	218074	63d8665164999168637f2029	4	1	practice_z	5	practice_z	7	stimuli_distractor_diamondtriangles.svg	stimuli_distractor_trianglediamonds.svg	14	no	0	1	2000	0	0			0	0			1				0	
6.6.1	win	2023-06-23	22:21:44	22:25:29	218074	63d8665164999168637f2029	4	1	practice_z	5	advance_on_keypress_ZEE	8	stimuli_distractor_diamondtriangles.svg	stimuli_distractor_trianglediamonds.svg	14	no	57	0	972	0	0			0	0			1				0	
6.6.1	win	2023-06-23	22:21:44	22:25:33	221516	63d8665164999168637f2029	4	1	practice_z	5	practice_z	9	stimuli_target_squarediamonds.svg	stimuli_distractor_diamondtriangles.svg	2	yes	44	1	809	0	0			0	0			1				0	
6.6.1	win	2023-06-23	22:21:44	22:25:33	221516	63d8665164999168637f2029	4	1	practice_z	5	advance_on_keypress_ZEE	10	stimuli_target_squarediamonds.svg	stimuli_distractor_diamondtriangles.svg	2	yes	57	0	1420	0	0			0	0			1				0	
6.6.1	win	2023-06-23	22:21:44	22:25:36	225361	63d8665164999168637f2029	4	1	practice_z	5	practice_z	11	stimuli_distractor_trianglediamonds.svg	stimuli_target_squarediamonds.svg	11	yes	44	1	772	0	0			0	0			1				0	
6.6.1	win	2023-06-23	22:21:44	22:25:36	225361	63d8665164999168637f2029	4	1	practice_z	5	advance_on_keypress_ZEE	12	stimuli_distractor_trianglediamonds.svg	stimuli_target_squarediamonds.svg	11	yes	57	0	532	0	0			0	0			1				0	
6.6.1	win	2023-06-23	22:21:44	22:25:40	228822	63d8665164999168637f2029	4	1	practice_z	5	practice_z	13	stimuli_distractor_trianglediamonds.svg	stimuli_target_diamondrectangles.svg	12	yes	44	1	1250	0	0			0	0			1				0	
6.6.1	win	2023-06-23	22:21:44	22:25:40	228822	63d8665164999168637f2029	4	1	practice_z	5	advance_on_keypress_ZEE	14	stimuli_distractor_trianglediamonds.svg	stimuli_target_diamondrectangles.svg	12	yes	57	0	718	0	0			0	0			1				0	
6.6.1	win	2023-06-23	22:21:44	22:25:44	233188	63d8665164999168637f2029	4	1	practice_z	5	practice_z	15	stimuli_distractor_trianglediamonds.svg	stimuli_distractor_diamondtriangles.svg	16	no	0	1	2000	0	0			0	0			1				0	
6.6.1	win	2023-06-23	22:21:44	22:25:44	233188	63d8665164999168637f2029	4	1	practice_z	5	advance_on_keypress_ZEE	16	stimuli_distractor_trianglediamonds.svg	stimuli_distractor_diamondtriangles.svg	16	no	57	0	477	0	0			0	0			1				0	
6.6.1	win	2023-06-23	22:21:44	22:25:48	236814	63d8665164999168637f2029	4	1	practice_z	5	practice_z	17	stimuli_distractor_diamondtriangles.svg	stimuli_target_trianglerectangles.svg	9	yes	44	1	1477	0	0			0	0			1				0	
6.6.1	win	2023-06-23	22:21:44	22:25:48	236814	63d8665164999168637f2029	4	1	practice_z	5	advance_on_keypress_ZEE	18	stimuli_distractor_diamondtriangles.svg	stimuli_target_trianglerectangles.svg	9	yes	57	0	877	0	0			0	0			1				0	
6.6.1	win	2023-06-23	22:21:44	22:25:51	240215	63d8665164999168637f2029	4	1	practice_z	5	practice_z	19	stimuli_distractor_diamondtriangles.svg	stimuli_target_diamondrectangles.svg	8	yes	44	1	861	0	0			0	0			1				0	
6.6.1	win	2023-06-23	22:21:44	22:25:51	240215	63d8665164999168637f2029	4	1	practice_z	5	advance_on_keypress_ZEE	20	stimuli_distractor_diamondtriangles.svg	stimuli_target_diamondrectangles.svg	8	yes	57	0	670	0	0			0	0			1				0	
6.6.1	win	2023-06-23	22:21:44	22:25:54	243385	63d8665164999168637f2029	4	1	practice_z	5	practice_z	21	stimuli_target_diamondsquares.svg	stimuli_distractor_trianglediamonds.svg	6	yes	44	1	830	0	0			0	0			1				0	
6.6.1	win	2023-06-23	22:21:44	22:25:54	243385	63d8665164999168637f2029	4	1	practice_z	5	advance_on_keypress_ZEE	22	stimuli_target_diamondsquares.svg	stimuli_distractor_trianglediamonds.svg	6	yes	57	0	434	0	0			0	0			1				0	
6.6.1	win	2023-06-23	22:21:44	22:25:58	246857	63d8665164999168637f2029	4	1	practice_z	5	practice_z	23	stimuli_distractor_diamondtriangles.svg	stimuli_target_rectangletriangles.svg	7	yes	44	1	1370	0	0			0	0			1				0	
6.6.1	win	2023-06-23	22:21:44	22:25:58	246857	63d8665164999168637f2029	4	1	practice_z	5	advance_on_keypress_ZEE	24	stimuli_distractor_diamondtriangles.svg	stimuli_target_rectangletriangles.svg	7	yes	57	0	452	0	0			0	0			1				0	
6.6.1	win	2023-06-23	22:21:44	22:26:02	250970	63d8665164999168637f2029	4	1	practice_z	5	practice_z	25	stimuli_distractor_diamondtriangles.svg	stimuli_distractor_diamondtriangles.svg	13	no	0	1	2000	0	0			0	0			1				0	
6.6.1	win	2023-06-23	22:21:44	22:26:02	250970	63d8665164999168637f2029	4	1	practice_z	5	advance_on_keypress_ZEE	26	stimuli_distractor_diamondtriangles.svg	stimuli_distractor_diamondtriangles.svg	13	no	57	0	611	0	0			0	0			1				0	
6.6.1	win	2023-06-23	22:21:44	22:26:05	253991	63d8665164999168637f2029	4	1	practice_z	5	practice_z	27	stimuli_target_squarediamonds.svg	stimuli_distractor_trianglediamonds.svg	5	yes	44	1	739	0	0			0	0			1				0	
6.6.1	win	2023-06-23	22:21:44	22:26:05	253991	63d8665164999168637f2029	4	1	practice_z	5	advance_on_keypress_ZEE	28	stimuli_target_squarediamonds.svg	stimuli_distractor_trianglediamonds.svg	5	yes	57	0	577	0	0			0	0			1				0	
6.6.1	win	2023-06-23	22:21:44	22:26:08	257006	63d8665164999168637f2029	4	1	practice_z	5	practice_z	29	stimuli_target_rectanglediamonds.svg	stimuli_distractor_diamondtriangles.svg	1	yes	44	1	773	0	0			0	0			1				0	
6.6.1	win	2023-06-23	22:21:44	22:26:08	257006	63d8665164999168637f2029	4	1	practice_z	5	advance_on_keypress_ZEE	30	stimuli_target_rectanglediamonds.svg	stimuli_distractor_diamondtriangles.svg	1	yes	57	0	402	0	0			0	0			1				0	
6.6.1	win	2023-06-23	22:21:44	22:26:12	261068	63d8665164999168637f2029	4	1	practice_z	5	practice_z	31	stimuli_distractor_trianglediamonds.svg	stimuli_distractor_trianglediamonds.svg	15	no	0	1	2000	0	0			0	0			1				0	
6.6.1	win	2023-06-23	22:21:44	22:26:12	261068	63d8665164999168637f2029	4	1	practice_z	5	advance_on_keypress_ZEE	32	stimuli_distractor_trianglediamonds.svg	stimuli_distractor_trianglediamonds.svg	15	no	57	0	377	0	0			0	0			1				0	
6.6.1	win	2023-06-23	22:21:44	22:26:20	268952	63d8665164999168637f2029	4	1	main_z	7	main_z	1	stimuli_target_trianglesquares.svg	stimuli_distractor_trianglediamonds.svg	18	yes	44	1	757	0	0			0	0			1				0	
6.6.1	win	2023-06-23	22:21:44	22:26:20	268952	63d8665164999168637f2029	4	1	main_z	7	advance_on_keypress_ZEE	2	stimuli_target_trianglesquares.svg	stimuli_distractor_trianglediamonds.svg	18	yes	57	0	2359	0	0			0	0			1				0	
6.6.1	win	2023-06-23	22:21:44	22:26:25	273978	63d8665164999168637f2029	4	1	main_z	7	main_z	3	stimuli_distractor_trianglediamonds.svg	stimuli_target_squaretriangles.svg	11	yes	0	0	2000	0	0			0	0			1				0	
6.6.1	win	2023-06-23	22:21:44	22:26:25	273978	63d8665164999168637f2029	4	1	main_z	7	advance_on_keypress_ZEE	4	stimuli_distractor_trianglediamonds.svg	stimuli_target_squaretriangles.svg	11	yes	57	0	1224	0	0			0	0			1				0	
6.6.1	win	2023-06-23	22:21:44	22:26:28	276673	63d8665164999168637f2029	4	1	main_z	7	main_z	5	stimuli_target_trianglerectangles.svg	stimuli_distractor_trianglediamonds.svg	17	yes	44	1	812	0	0			0	0			1				0	
6.6.1	win	2023-06-23	22:21:44	22:26:28	276673	63d8665164999168637f2029	4	1	main_z	7	advance_on_keypress_ZEE	6	stimuli_target_trianglerectangles.svg	stimuli_distractor_trianglediamonds.svg	17	yes	57	0	876	0	0			0	0			1				0	
6.6.1	win	2023-06-23	22:21:44	22:26:30	279051	63d8665164999168637f2029	4	1	main_z	7	main_z	7	stimuli_target_squaretriangles.svg	stimuli_distractor_diamondtriangles.svg	7	yes	44	1	841	0	0			0	0			1				0	
6.6.1	win	2023-06-23	22:21:44	22:26:30	279051	63d8665164999168637f2029	4	1	main_z	7	advance_on_keypress_ZEE	8	stimuli_target_squaretriangles.svg	stimuli_distractor_diamondtriangles.svg	7	yes	57	0	753	0	0			0	0			1				0	
6.6.1	win	2023-06-23	22:21:44	22:26:32	281371	63d8665164999168637f2029	4	1	main_z	7	main_z	9	stimuli_target_rectangletriangles.svg	stimuli_distractor_diamondtriangles.svg	5	yes	44	1	911	0	0			0	0			1				0	
6.6.1	win	2023-06-23	22:21:44	22:26:32	281371	63d8665164999168637f2029	4	1	main_z	7	advance_on_keypress_ZEE	10	stimuli_target_rectangletriangles.svg	stimuli_distractor_diamondtriangles.svg	5	yes	57	0	748	0	0			0	0			1				0	
6.6.1	win	2023-06-23	22:21:44	22:26:35	283739	63d8665164999168637f2029	4	1	main_z	7	main_z	11	stimuli_target_diamondrectangles.svg	stimuli_distractor_trianglediamonds.svg	19	yes	44	1	963	0	0			0	0			1				0	
6.6.1	win	2023-06-23	22:21:44	22:26:35	283739	63d8665164999168637f2029	4	1	main_z	7	advance_on_keypress_ZEE	12	stimuli_target_diamondrectangles.svg	stimuli_distractor_trianglediamonds.svg	19	yes	57	0	945	0	0			0	0			1				0	
6.6.1	win	2023-06-23	22:21:44	22:26:37	286235	63d8665164999168637f2029	4	1	main_z	7	main_z	13	stimuli_target_rectangletriangles.svg	stimuli_distractor_trianglediamonds.svg	1	yes	44	1	893	0	0			0	0			1				0	
6.6.1	win	2023-06-23	22:21:44	22:26:37	286235	63d8665164999168637f2029	4	1	main_z	7	advance_on_keypress_ZEE	14	stimuli_target_rectangletriangles.svg	stimuli_distractor_trianglediamonds.svg	1	yes	57	0	931	0	0			0	0			1				0	
6.6.1	win	2023-06-23	22:21:44	22:26:40	288745	63d8665164999168637f2029	4	1	main_z	7	main_z	15	stimuli_distractor_trianglediamonds.svg	stimuli_target_squarediamonds.svg	12	yes	44	1	919	0	0			0	0			1				0	
6.6.1	win	2023-06-23	22:21:44	22:26:40	288745	63d8665164999168637f2029	4	1	main_z	7	advance_on_keypress_ZEE	16	stimuli_distractor_trianglediamonds.svg	stimuli_target_squarediamonds.svg	12	yes	57	0	1057	0	0			0	0			1				0	
6.6.1	win	2023-06-23	22:21:44	22:26:42	291359	63d8665164999168637f2029	4	1	main_z	7	main_z	17	stimuli_target_diamondsquares.svg	stimuli_distractor_diamondtriangles.svg	24	yes	44	1	901	0	0			0	0			1				0	
6.6.1	win	2023-06-23	22:21:44	22:26:42	291359	63d8665164999168637f2029	4	1	main_z	7	advance_on_keypress_ZEE	18	stimuli_target_diamondsquares.svg	stimuli_distractor_diamondtriangles.svg	24	yes	57	0	935	0	0			0	0			1				0	
6.6.1	win	2023-06-23	22:21:44	22:26:46	294941	63d8665164999168637f2029	4	1	main_z	7	main_z	19	stimuli_distractor_diamondtriangles.svg	stimuli_distractor_trianglediamonds.svg	38	no	0	1	2000	0	0			0	0			1				0	
6.6.1	win	2023-06-23	22:21:44	22:26:46	294941	63d8665164999168637f2029	4	1	main_z	7	advance_on_keypress_ZEE	20	stimuli_distractor_diamondtriangles.svg	stimuli_distractor_trianglediamonds.svg	38	no	57	0	611	0	0			0	0			1				0	
6.6.1	win	2023-06-23	22:21:44	22:26:49	298208	63d8665164999168637f2029	4	1	main_z	7	main_z	21	stimuli_distractor_trianglediamonds.svg	stimuli_distractor_diamondtriangles.svg	36	no	0	1	2000	0	0			0	0			1				0	
6.6.1	win	2023-06-23	22:21:44	22:26:49	298208	63d8665164999168637f2029	4	1	main_z	7	advance_on_keypress_ZEE	22	stimuli_distractor_trianglediamonds.svg	stimuli_distractor_diamondtriangles.svg	36	no	57	0	434	0	0			0	0			1				0	
6.6.1	win	2023-06-23	22:21:44	22:26:51	300222	63d8665164999168637f2029	4	1	main_z	7	main_z	23	stimuli_target_squarediamonds.svg	stimuli_distractor_diamondtriangles.svg	8	yes	44	1	932	0	0			0	0			1				0	
6.6.1	win	2023-06-23	22:21:44	22:26:51	300222	63d8665164999168637f2029	4	1	main_z	7	advance_on_keypress_ZEE	24	stimuli_target_squarediamonds.svg	stimuli_distractor_diamondtriangles.svg	8	yes	57	0	1149	0	0			0	0			1				0	
6.6.1	win	2023-06-23	22:21:44	22:26:54	302882	63d8665164999168637f2029	4	1	main_z	7	main_z	25	stimuli_distractor_diamondtriangles.svg	stimuli_target_rectanglediamonds.svg	14	yes	44	1	859	0	0			0	0			1				0	
6.6.1	win	2023-06-23	22:21:44	22:26:54	302882	63d8665164999168637f2029	4	1	main_z	7	advance_on_keypress_ZEE	26	stimuli_distractor_diamondtriangles.svg	stimuli_target_rectanglediamonds.svg	14	yes	57	0	595	0	0			0	0			1				0	
6.6.1	win	2023-06-23	22:21:44	22:26:56	305211	63d8665164999168637f2029	4	1	main_z	7	main_z	27	stimuli_target_squarediamonds.svg	stimuli_distractor_trianglediamonds.svg	4	yes	44	1	1072	0	0			0	0			1				0	
6.6.1	win	2023-06-23	22:21:44	22:26:56	305211	63d8665164999168637f2029	4	1	main_z	7	advance_on_keypress_ZEE	28	stimuli_target_squarediamonds.svg	stimuli_distractor_trianglediamonds.svg	4	yes	57	0	629	0	0			0	0			1				0	
6.6.1	win	2023-06-23	22:21:44	22:26:59	307564	63d8665164999168637f2029	4	1	main_z	7	main_z	29	stimuli_distractor_diamondtriangles.svg	stimuli_distractor_trianglediamonds.svg	37	no	44	0	1075	0	0			0	0			1				0	
6.6.1	win	2023-06-23	22:21:44	22:26:59	307564	63d8665164999168637f2029	4	1	main_z	7	advance_on_keypress_ZEE	30	stimuli_distractor_diamondtriangles.svg	stimuli_distractor_trianglediamonds.svg	37	no	57	0	732	0	0			0	0			1				0	
6.6.1	win	2023-06-23	22:21:44	22:27:01	310044	63d8665164999168637f2029	4	1	main_z	7	main_z	31	stimuli_target_trianglesquares.svg	stimuli_distractor_diamondtriangles.svg	22	yes	44	1	1089	0	0			0	0			1				0	
6.6.1	win	2023-06-23	22:21:44	22:27:01	310044	63d8665164999168637f2029	4	1	main_z	7	advance_on_keypress_ZEE	32	stimuli_target_trianglesquares.svg	stimuli_distractor_diamondtriangles.svg	22	yes	57	0	567	0	0			0	0			1				0	
6.6.1	win	2023-06-23	22:21:44	22:27:03	312025	63d8665164999168637f2029	4	1	main_z	7	main_z	33	stimuli_distractor_diamondtriangles.svg	stimuli_target_squaretriangles.svg	15	yes	44	1	771	0	0			0	0			1				0	
6.6.1	win	2023-06-23	22:21:44	22:27:03	312025	63d8665164999168637f2029	4	1	main_z	7	advance_on_keypress_ZEE	34	stimuli_distractor_diamondtriangles.svg	stimuli_target_squaretriangles.svg	15	yes	57	0	599	0	0			0	0			1				0	
6.6.1	win	2023-06-23	22:21:44	22:27:05	314098	63d8665164999168637f2029	4	1	main_z	7	main_z	35	stimuli_target_rectanglediamonds.svg	stimuli_distractor_trianglediamonds.svg	2	yes	44	1	827	0	0			0	0			1				0	
6.6.1	win	2023-06-23	22:21:44	22:27:05	314098	63d8665164999168637f2029	4	1	main_z	7	advance_on_keypress_ZEE	36	stimuli_target_rectanglediamonds.svg	stimuli_distractor_trianglediamonds.svg	2	yes	57	0	581	0	0			0	0			1				0	
6.6.1	win	2023-06-23	22:21:44	22:27:07	316300	63d8665164999168637f2029	4	1	main_z	7	main_z	37	stimuli_distractor_trianglediamonds.svg	stimuli_target_diamondrectangles.svg	27	yes	44	1	962	0	0			0	0			1				0	
6.6.1	win	2023-06-23	22:21:44	22:27:07	316300	63d8665164999168637f2029	4	1	main_z	7	advance_on_keypress_ZEE	38	stimuli_distractor_trianglediamonds.svg	stimuli_target_diamondrectangles.svg	27	yes	57	0	570	0	0			0	0			1				0	
6.6.1	win	2023-06-23	22:21:44	22:27:09	318324	63d8665164999168637f2029	4	1	main_z	7	main_z	39	stimuli_target_rectanglediamonds.svg	stimuli_distractor_diamondtriangles.svg	6	yes	44	1	803	0	0			0	0			1				0	
6.6.1	win	2023-06-23	22:21:44	22:27:09	318324	63d8665164999168637f2029	4	1	main_z	7	advance_on_keypress_ZEE	40	stimuli_target_rectanglediamonds.svg	stimuli_distractor_diamondtriangles.svg	6	yes	57	0	587	0	0			0	0			1				0	
6.6.1	win	2023-06-23	22:21:44	22:27:12	320433	63d8665164999168637f2029	4	1	main_z	7	main_z	41	stimuli_distractor_diamondtriangles.svg	stimuli_target_trianglesquares.svg	30	yes	44	1	879	0	0			0	0			1				0	
6.6.1	win	2023-06-23	22:21:44	22:27:12	320433	63d8665164999168637f2029	4	1	main_z	7	advance_on_keypress_ZEE	42	stimuli_distractor_diamondtriangles.svg	stimuli_target_trianglesquares.svg	30	yes	57	0	518	0	0			0	0			1				0	
6.6.1	win	2023-06-23	22:21:44	22:27:15	323604	63d8665164999168637f2029	4	1	main_z	7	main_z	43	stimuli_distractor_trianglediamonds.svg	stimuli_distractor_trianglediamonds.svg	33	no	0	1	2000	0	0			0	0			1				0	
6.6.1	win	2023-06-23	22:21:44	22:27:15	323604	63d8665164999168637f2029	4	1	main_z	7	advance_on_keypress_ZEE	44	stimuli_distractor_trianglediamonds.svg	stimuli_distractor_trianglediamonds.svg	33	no	57	0	605	0	0			0	0			1				0	
6.6.1	win	2023-06-23	22:21:44	22:27:17	325574	63d8665164999168637f2029	4	1	main_z	7	main_z	45	stimuli_distractor_trianglediamonds.svg	stimuli_target_trianglesquares.svg	26	yes	44	1	720	0	0			0	0			1				0	
6.6.1	win	2023-06-23	22:21:44	22:27:17	325574	63d8665164999168637f2029	4	1	main_z	7	advance_on_keypress_ZEE	46	stimuli_distractor_trianglediamonds.svg	stimuli_target_trianglesquares.svg	26	yes	57	0	598	0	0			0	0			1				0	
6.6.1	win	2023-06-23	22:21:44	22:27:19	327567	63d8665164999168637f2029	4	1	main_z	7	main_z	47	stimuli_target_diamondrectangles.svg	stimuli_distractor_diamondtriangles.svg	23	yes	44	1	747	0	0			0	0			1				0	
6.6.1	win	2023-06-23	22:21:44	22:27:19	327567	63d8665164999168637f2029	4	1	main_z	7	advance_on_keypress_ZEE	48	stimuli_target_diamondrectangles.svg	stimuli_distractor_diamondtriangles.svg	23	yes	57	0	390	0	0			0	0			1				0	
6.6.1	win	2023-06-23	22:21:44	22:27:21	329436	63d8665164999168637f2029	4	1	main_z	7	main_z	49	stimuli_distractor_diamondtriangles.svg	stimuli_target_diamondsquares.svg	32	yes	44	1	816	0	0			0	0			1				0	
6.6.1	win	2023-06-23	22:21:44	22:27:21	329436	63d8665164999168637f2029	4	1	main_z	7	advance_on_keypress_ZEE	50	stimuli_distractor_diamondtriangles.svg	stimuli_target_diamondsquares.svg	32	yes	57	0	490	0	0			0	0			1				0	
6.6.1	win	2023-06-23	22:21:44	22:27:23	331475	63d8665164999168637f2029	4	1	main_z	7	main_z	51	stimuli_distractor_diamondtriangles.svg	stimuli_target_diamondrectangles.svg	31	yes	44	1	890	0	0			0	0			1				0	
6.6.1	win	2023-06-23	22:21:44	22:27:23	331475	63d8665164999168637f2029	4	1	main_z	7	advance_on_keypress_ZEE	52	stimuli_distractor_diamondtriangles.svg	stimuli_target_diamondrectangles.svg	31	yes	57	0	584	0	0			0	0			1				0	
6.6.1	win	2023-06-23	22:21:44	22:27:26	334542	63d8665164999168637f2029	4	1	main_z	7	main_z	53	stimuli_distractor_trianglediamonds.svg	stimuli_target_rectangletriangles.svg	9	yes	44	1	1806	0	0			0	0			1				0	
6.6.1	win	2023-06-23	22:21:44	22:27:26	334542	63d8665164999168637f2029	4	1	main_z	7	advance_on_keypress_ZEE	54	stimuli_distractor_trianglediamonds.svg	stimuli_target_rectangletriangles.svg	9	yes	57	0	564	0	0			0	0			1				0	
6.6.1	win	2023-06-23	22:21:44	22:27:28	336680	63d8665164999168637f2029	4	1	main_z	7	main_z	55	stimuli_distractor_trianglediamonds.svg	stimuli_distractor_diamondtriangles.svg	35	no	44	0	912	0	0			0	0			1				0	
6.6.1	win	2023-06-23	22:21:44	22:27:28	336680	63d8665164999168637f2029	4	1	main_z	7	advance_on_keypress_ZEE	56	stimuli_distractor_trianglediamonds.svg	stimuli_distractor_diamondtriangles.svg	35	no	57	0	493	0	0			0	0			1				0	
6.6.1	win	2023-06-23	22:21:44	22:27:31	339836	63d8665164999168637f2029	4	1	main_z	7	main_z	57	stimuli_distractor_trianglediamonds.svg	stimuli_target_rectanglediamonds.svg	10	yes	0	0	2000	0	0			0	0			1				0	
6.6.1	win	2023-06-23	22:21:44	22:27:31	339836	63d8665164999168637f2029	4	1	main_z	7	advance_on_keypress_ZEE	58	stimuli_distractor_trianglediamonds.svg	stimuli_target_rectanglediamonds.svg	10	yes	57	0	636	0	0			0	0			1				0	
6.6.1	win	2023-06-23	22:21:44	22:27:33	341951	63d8665164999168637f2029	4	1	main_z	7	main_z	59	stimuli_target_diamondsquares.svg	stimuli_distractor_trianglediamonds.svg	20	yes	44	1	832	0	0			0	0			1				0	
6.6.1	win	2023-06-23	22:21:44	22:27:33	341951	63d8665164999168637f2029	4	1	main_z	7	advance_on_keypress_ZEE	60	stimuli_target_diamondsquares.svg	stimuli_distractor_trianglediamonds.svg	20	yes	57	0	463	0	0			0	0			1				0	
6.6.1	win	2023-06-23	22:21:44	22:27:35	343889	63d8665164999168637f2029	4	1	main_z	7	main_z	61	stimuli_target_squaretriangles.svg	stimuli_distractor_trianglediamonds.svg	3	yes	44	1	822	0	0			0	0			1				0	
6.6.1	win	2023-06-23	22:21:44	22:27:35	343889	63d8665164999168637f2029	4	1	main_z	7	advance_on_keypress_ZEE	62	stimuli_target_squaretriangles.svg	stimuli_distractor_trianglediamonds.svg	3	yes	57	0	436	0	0			0	0			1				0	
6.6.1	win	2023-06-23	22:21:44	22:27:37	346357	63d8665164999168637f2029	4	1	main_z	7	main_z	63	stimuli_distractor_trianglediamonds.svg	stimuli_target_trianglerectangles.svg	25	yes	44	1	1340	0	0			0	0			1				0	
6.6.1	win	2023-06-23	22:21:44	22:27:37	346357	63d8665164999168637f2029	4	1	main_z	7	advance_on_keypress_ZEE	64	stimuli_distractor_trianglediamonds.svg	stimuli_target_trianglerectangles.svg	25	yes	57	0	453	0	0			0	0			1				0	
6.6.1	win	2023-06-23	22:21:44	22:27:40	349208	63d8665164999168637f2029	4	1	main_z	7	main_z	65	stimuli_distractor_diamondtriangles.svg	stimuli_target_squarediamonds.svg	16	yes	44	1	1740	0	0			0	0			1				0	
6.6.1	win	2023-06-23	22:21:44	22:27:40	349208	63d8665164999168637f2029	4	1	main_z	7	advance_on_keypress_ZEE	66	stimuli_distractor_diamondtriangles.svg	stimuli_target_squarediamonds.svg	16	yes	57	0	437	0	0			0	0			1				0	
6.6.1	win	2023-06-23	22:21:44	22:27:43	351470	63d8665164999168637f2029	4	1	main_z	7	main_z	67	stimuli_distractor_trianglediamonds.svg	stimuli_distractor_trianglediamonds.svg	34	no	44	0	1172	0	0			0	0			1				0	
6.6.1	win	2023-06-23	22:21:44	22:27:43	351470	63d8665164999168637f2029	4	1	main_z	7	advance_on_keypress_ZEE	68	stimuli_distractor_trianglediamonds.svg	stimuli_distractor_trianglediamonds.svg	34	no	57	0	546	0	0			0	0			1				0	
6.6.1	win	2023-06-23	22:21:44	22:27:46	354666	63d8665164999168637f2029	4	1	main_z	7	main_z	69	stimuli_distractor_diamondtriangles.svg	stimuli_distractor_diamondtriangles.svg	40	no	0	1	2000	0	0			0	0			1				0	
6.6.1	win	2023-06-23	22:21:44	22:27:46	354666	63d8665164999168637f2029	4	1	main_z	7	advance_on_keypress_ZEE	70	stimuli_distractor_diamondtriangles.svg	stimuli_distractor_diamondtriangles.svg	40	no	57	0	1221	0	0			0	0			1				0	
6.6.1	win	2023-06-23	22:21:44	22:27:48	357336	63d8665164999168637f2029	4	1	main_z	7	main_z	71	stimuli_distractor_trianglediamonds.svg	stimuli_target_diamondsquares.svg	28	yes	44	1	806	0	0			0	0			1				0	
6.6.1	win	2023-06-23	22:21:44	22:27:48	357336	63d8665164999168637f2029	4	1	main_z	7	advance_on_keypress_ZEE	72	stimuli_distractor_trianglediamonds.svg	stimuli_target_diamondsquares.svg	28	yes	57	0	596	0	0			0	0			1				0	
6.6.1	win	2023-06-23	22:21:44	22:27:51	359467	63d8665164999168637f2029	4	1	main_z	7	main_z	73	stimuli_distractor_diamondtriangles.svg	stimuli_target_trianglerectangles.svg	29	yes	44	1	886	0	0			0	0			1				0	
6.6.1	win	2023-06-23	22:21:44	22:27:51	359467	63d8665164999168637f2029	4	1	main_z	7	advance_on_keypress_ZEE	74	stimuli_distractor_diamondtriangles.svg	stimuli_target_trianglerectangles.svg	29	yes	57	0	460	0	0			0	0			1				0	
6.6.1	win	2023-06-23	22:21:44	22:27:53	361453	63d8665164999168637f2029	4	1	main_z	7	main_z	75	stimuli_distractor_diamondtriangles.svg	stimuli_target_rectangletriangles.svg	13	yes	44	1	870	0	0			0	0			1				0	
6.6.1	win	2023-06-23	22:21:44	22:27:53	361453	63d8665164999168637f2029	4	1	main_z	7	advance_on_keypress_ZEE	76	stimuli_distractor_diamondtriangles.svg	stimuli_target_rectangletriangles.svg	13	yes	57	0	449	0	0			0	0			1				0	
6.6.1	win	2023-06-23	22:21:44	22:27:56	364547	63d8665164999168637f2029	4	1	main_z	7	main_z	77	stimuli_distractor_diamondtriangles.svg	stimuli_distractor_diamondtriangles.svg	39	no	0	1	2000	0	0			0	0			1				0	
6.6.1	win	2023-06-23	22:21:44	22:27:56	364547	63d8665164999168637f2029	4	1	main_z	7	advance_on_keypress_ZEE	78	stimuli_distractor_diamondtriangles.svg	stimuli_distractor_diamondtriangles.svg	39	no	57	0	401	0	0			0	0			1				0	
6.6.1	win	2023-06-23	22:21:44	22:27:57	366392	63d8665164999168637f2029	4	1	main_z	7	main_z	79	stimuli_target_trianglerectangles.svg	stimuli_distractor_diamondtriangles.svg	21	yes	44	1	795	0	0			0	0			1				0	
6.6.1	win	2023-06-23	22:21:44	22:27:57	366392	63d8665164999168637f2029	4	1	main_z	7	advance_on_keypress_ZEE	80	stimuli_target_trianglerectangles.svg	stimuli_distractor_diamondtriangles.svg	21	yes	57	0	623	0	0			0	0			1				0	
6.6.1	win	2023-06-23	22:21:44	22:28:00	368554	63d8665164999168637f2029	4	1	main_z	7	main_z	81	stimuli_distractor_diamondtriangles.svg	stimuli_target_trianglerectangles.svg	29	yes	44	1	875	0	0			0	0			1				0	
6.6.1	win	2023-06-23	22:21:44	22:28:00	368554	63d8665164999168637f2029	4	1	main_z	7	advance_on_keypress_ZEE	82	stimuli_distractor_diamondtriangles.svg	stimuli_target_trianglerectangles.svg	29	yes	57	0	497	0	0			0	0			1				0	
6.6.1	win	2023-06-23	22:21:44	22:28:02	370470	63d8665164999168637f2029	4	1	main_z	7	main_z	83	stimuli_target_diamondsquares.svg	stimuli_distractor_trianglediamonds.svg	20	yes	44	1	757	0	0			0	0			1				0	
6.6.1	win	2023-06-23	22:21:44	22:28:02	370470	63d8665164999168637f2029	4	1	main_z	7	advance_on_keypress_ZEE	84	stimuli_target_diamondsquares.svg	stimuli_distractor_trianglediamonds.svg	20	yes	57	0	513	0	0			0	0			1				0	
6.6.1	win	2023-06-23	22:21:44	22:28:04	372473	63d8665164999168637f2029	4	1	main_z	7	main_z	85	stimuli_distractor_diamondtriangles.svg	stimuli_target_squaretriangles.svg	15	yes	44	1	827	0	0			0	0			1				0	
6.6.1	win	2023-06-23	22:21:44	22:28:04	372473	63d8665164999168637f2029	4	1	main_z	7	advance_on_keypress_ZEE	86	stimuli_distractor_diamondtriangles.svg	stimuli_target_squaretriangles.svg	15	yes	57	0	493	0	0			0	0			1				0	
6.6.1	win	2023-06-23	22:21:44	22:28:07	375629	63d8665164999168637f2029	4	1	main_z	7	main_z	87	stimuli_distractor_trianglediamonds.svg	stimuli_distractor_diamondtriangles.svg	35	no	0	1	2000	0	0			0	0			1				0	
6.6.1	win	2023-06-23	22:21:44	22:28:07	375629	63d8665164999168637f2029	4	1	main_z	7	advance_on_keypress_ZEE	88	stimuli_distractor_trianglediamonds.svg	stimuli_distractor_diamondtriangles.svg	35	no	57	0	302	0	0			0	0			1				0	
6.6.1	win	2023-06-23	22:21:44	22:28:08	377332	63d8665164999168637f2029	4	1	main_z	7	main_z	89	stimuli_target_squaretriangles.svg	stimuli_distractor_diamondtriangles.svg	7	yes	44	1	754	0	0			0	0			1				0	
6.6.1	win	2023-06-23	22:21:44	22:28:08	377332	63d8665164999168637f2029	4	1	main_z	7	advance_on_keypress_ZEE	90	stimuli_target_squaretriangles.svg	stimuli_distractor_diamondtriangles.svg	7	yes	57	0	487	0	0			0	0			1				0	
6.6.1	win	2023-06-23	22:21:44	22:28:10	379174	63d8665164999168637f2029	4	1	main_z	7	main_z	91	stimuli_distractor_trianglediamonds.svg	stimuli_target_rectangletriangles.svg	9	yes	44	1	713	0	0			0	0			1				0	
6.6.1	win	2023-06-23	22:21:44	22:28:10	379174	63d8665164999168637f2029	4	1	main_z	7	advance_on_keypress_ZEE	92	stimuli_distractor_trianglediamonds.svg	stimuli_target_rectangletriangles.svg	9	yes	57	0	513	0	0			0	0			1				0	
6.6.1	win	2023-06-23	22:21:44	22:28:12	381074	63d8665164999168637f2029	4	1	main_z	7	main_z	93	stimuli_target_squarediamonds.svg	stimuli_distractor_diamondtriangles.svg	8	yes	44	1	730	0	0			0	0			1				0	
6.6.1	win	2023-06-23	22:21:44	22:28:12	381074	63d8665164999168637f2029	4	1	main_z	7	advance_on_keypress_ZEE	94	stimuli_target_squarediamonds.svg	stimuli_distractor_diamondtriangles.svg	8	yes	57	0	473	0	0			0	0			1				0	
6.6.1	win	2023-06-23	22:21:44	22:28:14	382934	63d8665164999168637f2029	4	1	main_z	7	main_z	95	stimuli_target_diamondrectangles.svg	stimuli_distractor_diamondtriangles.svg	23	yes	44	1	739	0	0			0	0			1				0	
6.6.1	win	2023-06-23	22:21:44	22:28:14	382934	63d8665164999168637f2029	4	1	main_z	7	advance_on_keypress_ZEE	96	stimuli_target_diamondrectangles.svg	stimuli_distractor_diamondtriangles.svg	23	yes	57	0	457	0	0			0	0			1				0	
6.6.1	win	2023-06-23	22:21:44	22:28:16	384824	63d8665164999168637f2029	4	1	main_z	7	main_z	97	stimuli_target_trianglerectangles.svg	stimuli_distractor_diamondtriangles.svg	21	yes	44	1	764	0	0			0	0			1				0	
6.6.1	win	2023-06-23	22:21:44	22:28:16	384824	63d8665164999168637f2029	4	1	main_z	7	advance_on_keypress_ZEE	98	stimuli_target_trianglerectangles.svg	stimuli_distractor_diamondtriangles.svg	21	yes	57	0	429	0	0			0	0			1				0	
6.6.1	win	2023-06-23	22:21:44	22:28:18	386749	63d8665164999168637f2029	4	1	main_z	7	main_z	99	stimuli_target_rectangletriangles.svg	stimuli_distractor_diamondtriangles.svg	5	yes	44	1	839	0	0			0	0			1				0	
6.6.1	win	2023-06-23	22:21:44	22:28:18	386749	63d8665164999168637f2029	4	1	main_z	7	advance_on_keypress_ZEE	100	stimuli_target_rectangletriangles.svg	stimuli_distractor_diamondtriangles.svg	5	yes	57	0	450	0	0			0	0			1				0	
6.6.1	win	2023-06-23	22:21:44	22:28:20	388568	63d8665164999168637f2029	4	1	main_z	7	main_z	101	stimuli_target_squarediamonds.svg	stimuli_distractor_trianglediamonds.svg	4	yes	44	1	708	0	0			0	0			1				0	
6.6.1	win	2023-06-23	22:21:44	22:28:20	388568	63d8665164999168637f2029	4	1	main_z	7	advance_on_keypress_ZEE	102	stimuli_target_squarediamonds.svg	stimuli_distractor_trianglediamonds.svg	4	yes	57	0	414	0	0			0	0			1				0	
6.6.1	win	2023-06-23	22:21:44	22:28:22	390680	63d8665164999168637f2029	4	1	main_z	7	main_z	103	stimuli_distractor_diamondtriangles.svg	stimuli_target_diamondrectangles.svg	31	yes	44	1	1037	0	0			0	0			1				0	
6.6.1	win	2023-06-23	22:21:44	22:28:22	390680	63d8665164999168637f2029	4	1	main_z	7	advance_on_keypress_ZEE	104	stimuli_distractor_diamondtriangles.svg	stimuli_target_diamondrectangles.svg	31	yes	57	0	400	0	0			0	0			1				0	
6.6.1	win	2023-06-23	22:21:44	22:28:25	393507	63d8665164999168637f2029	4	1	main_z	7	main_z	105	stimuli_distractor_diamondtriangles.svg	stimuli_target_rectanglediamonds.svg	14	yes	44	1	1780	0	0			0	0			1				0	
6.6.1	win	2023-06-23	22:21:44	22:28:25	393507	63d8665164999168637f2029	4	1	main_z	7	advance_on_keypress_ZEE	106	stimuli_distractor_diamondtriangles.svg	stimuli_target_rectanglediamonds.svg	14	yes	57	0	713	0	0			0	0			1				0	
6.6.1	win	2023-06-23	22:21:44	22:28:27	395579	63d8665164999168637f2029	4	1	main_z	7	main_z	107	stimuli_target_rectanglediamonds.svg	stimuli_distractor_trianglediamonds.svg	2	yes	44	1	705	0	0			0	0			1				0	
6.6.1	win	2023-06-23	22:21:44	22:28:27	395579	63d8665164999168637f2029	4	1	main_z	7	advance_on_keypress_ZEE	108	stimuli_target_rectanglediamonds.svg	stimuli_distractor_trianglediamonds.svg	2	yes	57	0	375	0	0			0	0			1				0	
6.6.1	win	2023-06-23	22:21:44	22:28:28	397319	63d8665164999168637f2029	4	1	main_z	7	main_z	109	stimuli_distractor_diamondtriangles.svg	stimuli_target_trianglesquares.svg	30	yes	44	1	710	0	0			0	0			1				0	
6.6.1	win	2023-06-23	22:21:44	22:28:28	397319	63d8665164999168637f2029	4	1	main_z	7	advance_on_keypress_ZEE	110	stimuli_distractor_diamondtriangles.svg	stimuli_target_trianglesquares.svg	30	yes	57	0	400	0	0			0	0			1				0	
6.6.1	win	2023-06-23	22:21:44	22:28:31	400375	63d8665164999168637f2029	4	1	main_z	7	main_z	111	stimuli_distractor_trianglediamonds.svg	stimuli_distractor_trianglediamonds.svg	33	no	0	1	2000	0	0			0	0			1				0	
6.6.1	win	2023-06-23	22:21:44	22:28:31	400375	63d8665164999168637f2029	4	1	main_z	7	advance_on_keypress_ZEE	112	stimuli_distractor_trianglediamonds.svg	stimuli_distractor_trianglediamonds.svg	33	no	57	0	1003	0	0			0	0			1				0	
6.6.1	win	2023-06-23	22:21:44	22:28:34	402693	63d8665164999168637f2029	4	1	main_z	7	main_z	113	stimuli_distractor_trianglediamonds.svg	stimuli_target_squaretriangles.svg	11	yes	44	1	669	0	0			0	0			1				0	
6.6.1	win	2023-06-23	22:21:44	22:28:34	402693	63d8665164999168637f2029	4	1	main_z	7	advance_on_keypress_ZEE	114	stimuli_distractor_trianglediamonds.svg	stimuli_target_squaretriangles.svg	11	yes	57	0	325	0	0			0	0			1				0	
6.6.1	win	2023-06-23	22:21:44	22:28:37	405674	63d8665164999168637f2029	4	1	main_z	7	main_z	115	stimuli_distractor_diamondtriangles.svg	stimuli_distractor_trianglediamonds.svg	38	no	0	1	2000	0	0			0	0			1				0	
6.6.1	win	2023-06-23	22:21:44	22:28:37	405674	63d8665164999168637f2029	4	1	main_z	7	advance_on_keypress_ZEE	116	stimuli_distractor_diamondtriangles.svg	stimuli_distractor_trianglediamonds.svg	38	no	57	0	442	0	0			0	0			1				0	
6.6.1	win	2023-06-23	22:21:44	22:28:39	407586	63d8665164999168637f2029	4	1	main_z	7	main_z	117	stimuli_distractor_trianglediamonds.svg	stimuli_target_diamondrectangles.svg	27	yes	44	1	812	0	0			0	0			1				0	
6.6.1	win	2023-06-23	22:21:44	22:28:39	407586	63d8665164999168637f2029	4	1	main_z	7	advance_on_keypress_ZEE	118	stimuli_distractor_trianglediamonds.svg	stimuli_target_diamondrectangles.svg	27	yes	57	0	727	0	0			0	0			1				0	
6.6.1	win	2023-06-23	22:21:44	22:28:49	418003	63d8665164999168637f2029	4	1	main_z	7	main_z	119	stimuli_target_rectangletriangles.svg	stimuli_distractor_trianglediamonds.svg	1	yes	44	1	766	0	0			0	0			1				0	
6.6.1	win	2023-06-23	22:21:44	22:28:49	418003	63d8665164999168637f2029	4	1	main_z	7	advance_on_keypress_ZEE	120	stimuli_target_rectangletriangles.svg	stimuli_distractor_trianglediamonds.svg	1	yes	57	0	493	0	0			0	0			1				0	
6.6.1	win	2023-06-23	22:21:44	22:28:51	419867	63d8665164999168637f2029	4	1	main_z	7	main_z	121	stimuli_distractor_trianglediamonds.svg	stimuli_distractor_diamondtriangles.svg	36	no	44	0	713	0	0			0	0			1				0	
6.6.1	win	2023-06-23	22:21:44	22:28:51	419867	63d8665164999168637f2029	4	1	main_z	7	advance_on_keypress_ZEE	122	stimuli_distractor_trianglediamonds.svg	stimuli_distractor_diamondtriangles.svg	36	no	57	0	437	0	0			0	0			1				0	
6.6.1	win	2023-06-23	22:21:44	22:28:54	422955	63d8665164999168637f2029	4	1	main_z	7	main_z	123	stimuli_distractor_diamondtriangles.svg	stimuli_distractor_diamondtriangles.svg	40	no	0	1	2000	0	0			0	0			1				0	
6.6.1	win	2023-06-23	22:21:44	22:28:54	422955	63d8665164999168637f2029	4	1	main_z	7	advance_on_keypress_ZEE	124	stimuli_distractor_diamondtriangles.svg	stimuli_distractor_diamondtriangles.svg	40	no	57	0	530	0	0			0	0			1				0	
6.6.1	win	2023-06-23	22:21:44	22:28:56	424896	63d8665164999168637f2029	4	1	main_z	7	main_z	125	stimuli_target_rectanglediamonds.svg	stimuli_distractor_diamondtriangles.svg	6	yes	44	1	758	0	0			0	0			1				0	
6.6.1	win	2023-06-23	22:21:44	22:28:56	424896	63d8665164999168637f2029	4	1	main_z	7	advance_on_keypress_ZEE	126	stimuli_target_rectanglediamonds.svg	stimuli_distractor_diamondtriangles.svg	6	yes	57	0	430	0	0			0	0			1				0	
6.6.1	win	2023-06-23	22:21:44	22:28:58	426709	63d8665164999168637f2029	4	1	main_z	7	main_z	127	stimuli_distractor_diamondtriangles.svg	stimuli_target_diamondsquares.svg	32	yes	44	1	722	0	0			0	0			1				0	
6.6.1	win	2023-06-23	22:21:44	22:28:58	426709	63d8665164999168637f2029	4	1	main_z	7	advance_on_keypress_ZEE	128	stimuli_distractor_diamondtriangles.svg	stimuli_target_diamondsquares.svg	32	yes	57	0	438	0	0			0	0			1				0	
6.6.1	win	2023-06-23	22:21:44	22:29:00	428518	63d8665164999168637f2029	4	1	main_z	7	main_z	129	stimuli_target_diamondsquares.svg	stimuli_distractor_diamondtriangles.svg	24	yes	44	1	732	0	0			0	0			1				0	
6.6.1	win	2023-06-23	22:21:44	22:29:00	428518	63d8665164999168637f2029	4	1	main_z	7	advance_on_keypress_ZEE	130	stimuli_target_diamondsquares.svg	stimuli_distractor_diamondtriangles.svg	24	yes	57	0	686	0	0			0	0			1				0	
6.6.1	win	2023-06-23	22:21:44	22:29:02	430529	63d8665164999168637f2029	4	1	main_z	7	main_z	131	stimuli_target_squaretriangles.svg	stimuli_distractor_trianglediamonds.svg	3	yes	44	1	677	0	0			0	0			1				0	
6.6.1	win	2023-06-23	22:21:44	22:29:02	430529	63d8665164999168637f2029	4	1	main_z	7	advance_on_keypress_ZEE	132	stimuli_target_squaretriangles.svg	stimuli_distractor_trianglediamonds.svg	3	yes	57	0	413	0	0			0	0			1				0	
6.6.1	win	2023-06-23	22:21:44	22:29:04	433402	63d8665164999168637f2029	4	1	main_z	7	main_z	133	stimuli_distractor_diamondtriangles.svg	stimuli_distractor_trianglediamonds.svg	37	no	44	0	1799	0	0			0	0			1				0	
6.6.1	win	2023-06-23	22:21:44	22:29:04	433402	63d8665164999168637f2029	4	1	main_z	7	advance_on_keypress_ZEE	134	stimuli_distractor_diamondtriangles.svg	stimuli_distractor_trianglediamonds.svg	37	no	57	0	521	0	0			0	0			1				0	
6.6.1	win	2023-06-23	22:21:44	22:29:07	435562	63d8665164999168637f2029	4	1	main_z	7	main_z	135	stimuli_distractor_trianglediamonds.svg	stimuli_target_trianglesquares.svg	26	yes	44	1	743	0	0			0	0			1				0	
6.6.1	win	2023-06-23	22:21:44	22:29:07	435562	63d8665164999168637f2029	4	1	main_z	7	advance_on_keypress_ZEE	136	stimuli_distractor_trianglediamonds.svg	stimuli_target_trianglesquares.svg	26	yes	57	0	498	0	0			0	0			1				0	
6.6.1	win	2023-06-23	22:21:44	22:29:08	437404	63d8665164999168637f2029	4	1	main_z	7	main_z	137	stimuli_target_diamondrectangles.svg	stimuli_distractor_trianglediamonds.svg	19	yes	44	1	685	0	0			0	0			1				0	
6.6.1	win	2023-06-23	22:21:44	22:29:08	437404	63d8665164999168637f2029	4	1	main_z	7	advance_on_keypress_ZEE	138	stimuli_target_diamondrectangles.svg	stimuli_distractor_trianglediamonds.svg	19	yes	57	0	458	0	0			0	0			1				0	
6.6.1	win	2023-06-23	22:21:44	22:29:11	440114	63d8665164999168637f2029	4	1	main_z	7	main_z	139	stimuli_distractor_diamondtriangles.svg	stimuli_target_squarediamonds.svg	16	yes	44	1	1595	0	0			0	0			1				0	
6.6.1	win	2023-06-23	22:21:44	22:29:11	440114	63d8665164999168637f2029	4	1	main_z	7	advance_on_keypress_ZEE	140	stimuli_distractor_diamondtriangles.svg	stimuli_target_squarediamonds.svg	16	yes	57	0	381	0	0			0	0			1				0	
6.6.1	win	2023-06-23	22:21:44	22:29:14	443152	63d8665164999168637f2029	4	1	main_z	7	main_z	141	stimuli_distractor_trianglediamonds.svg	stimuli_distractor_trianglediamonds.svg	34	no	0	1	2000	0	0			0	0			1				0	
6.6.1	win	2023-06-23	22:21:44	22:29:14	443152	63d8665164999168637f2029	4	1	main_z	7	advance_on_keypress_ZEE	142	stimuli_distractor_trianglediamonds.svg	stimuli_distractor_trianglediamonds.svg	34	no	57	0	661	0	0			0	0			1				0	
6.6.1	win	2023-06-23	22:21:44	22:29:16	445334	63d8665164999168637f2029	4	1	main_z	7	main_z	143	stimuli_distractor_trianglediamonds.svg	stimuli_target_trianglerectangles.svg	25	yes	44	1	866	0	0			0	0			1				0	
6.6.1	win	2023-06-23	22:21:44	22:29:16	445334	63d8665164999168637f2029	4	1	main_z	7	advance_on_keypress_ZEE	144	stimuli_distractor_trianglediamonds.svg	stimuli_target_trianglerectangles.svg	25	yes	57	0	502	0	0			0	0			1				0	
6.6.1	win	2023-06-23	22:21:44	22:29:18	447260	63d8665164999168637f2029	4	1	main_z	7	main_z	145	stimuli_target_trianglesquares.svg	stimuli_distractor_diamondtriangles.svg	22	yes	44	1	777	0	0			0	0			1				0	
6.6.1	win	2023-06-23	22:21:44	22:29:18	447260	63d8665164999168637f2029	4	1	main_z	7	advance_on_keypress_ZEE	146	stimuli_target_trianglesquares.svg	stimuli_distractor_diamondtriangles.svg	22	yes	57	0	312	0	0			0	0			1				0	
6.6.1	win	2023-06-23	22:21:44	22:29:20	449089	63d8665164999168637f2029	4	1	main_z	7	main_z	147	stimuli_target_trianglesquares.svg	stimuli_distractor_trianglediamonds.svg	18	yes	44	1	844	0	0			0	0			1				0	
6.6.1	win	2023-06-23	22:21:44	22:29:20	449089	63d8665164999168637f2029	4	1	main_z	7	advance_on_keypress_ZEE	148	stimuli_target_trianglesquares.svg	stimuli_distractor_trianglediamonds.svg	18	yes	57	0	463	0	0			0	0			1				0	
6.6.1	win	2023-06-23	22:21:44	22:29:23	451671	63d8665164999168637f2029	4	1	main_z	7	main_z	149	stimuli_distractor_trianglediamonds.svg	stimuli_target_squarediamonds.svg	12	yes	44	1	1470	0	0			0	0			1				0	
6.6.1	win	2023-06-23	22:21:44	22:29:23	451671	63d8665164999168637f2029	4	1	main_z	7	advance_on_keypress_ZEE	150	stimuli_distractor_trianglediamonds.svg	stimuli_target_squarediamonds.svg	12	yes	57	0	335	0	0			0	0			1				0	
6.6.1	win	2023-06-23	22:21:44	22:29:25	453709	63d8665164999168637f2029	4	1	main_z	7	main_z	151	stimuli_target_trianglerectangles.svg	stimuli_distractor_trianglediamonds.svg	17	yes	44	1	1059	0	0			0	0			1				0	
6.6.1	win	2023-06-23	22:21:44	22:29:25	453709	63d8665164999168637f2029	4	1	main_z	7	advance_on_keypress_ZEE	152	stimuli_target_trianglerectangles.svg	stimuli_distractor_trianglediamonds.svg	17	yes	57	0	373	0	0			0	0			1				0	
6.6.1	win	2023-06-23	22:21:44	22:29:28	456750	63d8665164999168637f2029	4	1	main_z	7	main_z	153	stimuli_distractor_diamondtriangles.svg	stimuli_distractor_diamondtriangles.svg	39	no	0	1	2000	0	0			0	0			1				0	
6.6.1	win	2023-06-23	22:21:44	22:29:28	456750	63d8665164999168637f2029	4	1	main_z	7	advance_on_keypress_ZEE	154	stimuli_distractor_diamondtriangles.svg	stimuli_distractor_diamondtriangles.svg	39	no	57	0	540	0	0			0	0			1				0	
6.6.1	win	2023-06-23	22:21:44	22:29:31	459702	63d8665164999168637f2029	4	1	main_z	7	main_z	155	stimuli_distractor_trianglediamonds.svg	stimuli_target_rectanglediamonds.svg	10	yes	44	1	1753	0	0			0	0			1				0	
6.6.1	win	2023-06-23	22:21:44	22:29:31	459702	63d8665164999168637f2029	4	1	main_z	7	advance_on_keypress_ZEE	156	stimuli_distractor_trianglediamonds.svg	stimuli_target_rectanglediamonds.svg	10	yes	57	0	278	0	0			0	0			1				0	
6.6.1	win	2023-06-23	22:21:44	22:29:33	461517	63d8665164999168637f2029	4	1	main_z	7	main_z	157	stimuli_distractor_trianglediamonds.svg	stimuli_target_diamondsquares.svg	28	yes	44	1	885	0	0			0	0			1				0	
6.6.1	win	2023-06-23	22:21:44	22:29:33	461517	63d8665164999168637f2029	4	1	main_z	7	advance_on_keypress_ZEE	158	stimuli_distractor_trianglediamonds.svg	stimuli_target_diamondsquares.svg	28	yes	57	0	451	0	0			0	0			1				0	
6.6.1	win	2023-06-23	22:21:44	22:29:35	464125	63d8665164999168637f2029	4	1	main_z	7	main_z	159	stimuli_distractor_diamondtriangles.svg	stimuli_target_rectangletriangles.svg	13	yes	44	1	1510	0	0			0	0			1				0	
6.6.1	win	2023-06-23	22:21:44	22:29:35	464125	63d8665164999168637f2029	4	1	main_z	7	advance_on_keypress_ZEE	160	stimuli_distractor_diamondtriangles.svg	stimuli_target_rectangletriangles.svg	13	yes	57	0	418	0	0			0	0			1				0	
6.6.1	win	2023-06-23	22:21:44	22:30:04	493034	63d8665164999168637f2029	4	1	practice_slash	9	practice_slash	1	stimuli_target_squarediamonds.svg	stimuli_distractor_trianglediamonds.svg	5	yes	53	1	1503	0	0			0	0			1				0	
6.6.1	win	2023-06-23	22:21:44	22:30:04	493034	63d8665164999168637f2029	4	1	practice_slash	9	advance_on_keypress_SLASH	2	stimuli_target_squarediamonds.svg	stimuli_distractor_trianglediamonds.svg	5	yes	57	0	534	0	0			0	0			1				0	
6.6.1	win	2023-06-23	22:21:44	22:30:07	495955	63d8665164999168637f2029	4	1	practice_slash	9	practice_slash	3	stimuli_distractor_trianglediamonds.svg	stimuli_target_rectanglediamonds.svg	10	yes	53	1	725	0	0			0	0			1				0	
6.6.1	win	2023-06-23	22:21:44	22:30:07	495955	63d8665164999168637f2029	4	1	practice_slash	9	advance_on_keypress_SLASH	4	stimuli_distractor_trianglediamonds.svg	stimuli_target_rectanglediamonds.svg	10	yes	57	0	297	0	0			0	0			1				0	
6.6.1	win	2023-06-23	22:21:44	22:30:10	498846	63d8665164999168637f2029	4	1	practice_slash	9	practice_slash	5	stimuli_distractor_trianglediamonds.svg	stimuli_distractor_trianglediamonds.svg	15	no	53	0	933	0	0			0	0			1				0	
6.6.1	win	2023-06-23	22:21:44	22:30:10	498846	63d8665164999168637f2029	4	1	practice_slash	9	advance_on_keypress_SLASH	6	stimuli_distractor_trianglediamonds.svg	stimuli_distractor_trianglediamonds.svg	15	no	57	0	951	0	0			0	0			1				0	
6.6.1	win	2023-06-23	22:21:44	22:30:13	502235	63d8665164999168637f2029	4	1	practice_slash	9	practice_slash	7	stimuli_target_rectanglediamonds.svg	stimuli_distractor_diamondtriangles.svg	1	yes	53	1	790	0	0			0	0			1				0	
6.6.1	win	2023-06-23	22:21:44	22:30:13	502235	63d8665164999168637f2029	4	1	practice_slash	9	advance_on_keypress_SLASH	8	stimuli_target_rectanglediamonds.svg	stimuli_distractor_diamondtriangles.svg	1	yes	57	0	274	0	0			0	0			1				0	
6.6.1	win	2023-06-23	22:21:44	22:30:16	505062	63d8665164999168637f2029	4	1	practice_slash	9	practice_slash	9	stimuli_distractor_diamondtriangles.svg	stimuli_target_diamondrectangles.svg	8	yes	53	1	883	0	0			0	0			1				0	
6.6.1	win	2023-06-23	22:21:44	22:30:16	505062	63d8665164999168637f2029	4	1	practice_slash	9	advance_on_keypress_SLASH	10	stimuli_distractor_diamondtriangles.svg	stimuli_target_diamondrectangles.svg	8	yes	57	0	279	0	0			0	0			1				0	
6.6.1	win	2023-06-23	22:21:44	22:30:20	508995	63d8665164999168637f2029	4	1	practice_slash	9	practice_slash	11	stimuli_distractor_trianglediamonds.svg	stimuli_distractor_diamondtriangles.svg	16	no	0	1	2000	0	0			0	0			1				0	
6.6.1	win	2023-06-23	22:21:44	22:30:20	508995	63d8665164999168637f2029	4	1	practice_slash	9	advance_on_keypress_SLASH	12	stimuli_distractor_trianglediamonds.svg	stimuli_distractor_diamondtriangles.svg	16	no	57	0	755	0	0			0	0			1				0	
6.6.1	win	2023-06-23	22:21:44	22:30:23	512062	63d8665164999168637f2029	4	1	practice_slash	9	practice_slash	13	stimuli_target_rectanglediamonds.svg	stimuli_distractor_trianglediamonds.svg	4	yes	53	1	649	0	0			0	0			1				0	
6.6.1	win	2023-06-23	22:21:44	22:30:23	512062	63d8665164999168637f2029	4	1	practice_slash	9	advance_on_keypress_SLASH	14	stimuli_target_rectanglediamonds.svg	stimuli_distractor_trianglediamonds.svg	4	yes	57	0	402	0	0			0	0			1				0	
6.6.1	win	2023-06-23	22:21:44	22:30:27	516111	63d8665164999168637f2029	4	1	practice_slash	9	practice_slash	15	stimuli_distractor_diamondtriangles.svg	stimuli_distractor_diamondtriangles.svg	13	no	0	1	2000	0	0			0	0			1				0	
6.6.1	win	2023-06-23	22:21:44	22:30:27	516111	63d8665164999168637f2029	4	1	practice_slash	9	advance_on_keypress_SLASH	16	stimuli_distractor_diamondtriangles.svg	stimuli_distractor_diamondtriangles.svg	13	no	57	0	753	0	0			0	0			1				0	
6.6.1	win	2023-06-23	22:21:44	22:30:30	519260	63d8665164999168637f2029	4	1	practice_slash	9	practice_slash	17	stimuli_distractor_trianglediamonds.svg	stimuli_target_squarediamonds.svg	11	yes	53	1	733	0	0			0	0			1				0	
6.6.1	win	2023-06-23	22:21:44	22:30:30	519260	63d8665164999168637f2029	4	1	practice_slash	9	advance_on_keypress_SLASH	18	stimuli_distractor_trianglediamonds.svg	stimuli_target_squarediamonds.svg	11	yes	57	0	429	0	0			0	0			1				0	
6.6.1	win	2023-06-23	22:21:44	22:30:34	522547	63d8665164999168637f2029	4	1	practice_slash	9	practice_slash	19	stimuli_distractor_diamondtriangles.svg	stimuli_target_trianglerectangles.svg	9	yes	53	1	1204	0	0			0	0			1				0	
6.6.1	win	2023-06-23	22:21:44	22:30:34	522547	63d8665164999168637f2029	4	1	practice_slash	9	advance_on_keypress_SLASH	20	stimuli_distractor_diamondtriangles.svg	stimuli_target_trianglerectangles.svg	9	yes	57	0	389	0	0			0	0			1				0	
6.6.1	win	2023-06-23	22:21:44	22:30:36	525407	63d8665164999168637f2029	4	1	practice_slash	9	practice_slash	21	stimuli_target_diamondsquares.svg	stimuli_distractor_diamondtriangles.svg	3	yes	53	1	798	0	0			0	0			1				0	
6.6.1	win	2023-06-23	22:21:44	22:30:36	525407	63d8665164999168637f2029	4	1	practice_slash	9	advance_on_keypress_SLASH	22	stimuli_target_diamondsquares.svg	stimuli_distractor_diamondtriangles.svg	3	yes	57	0	642	0	0			0	0			1				0	
6.6.1	win	2023-06-23	22:21:44	22:30:40	528459	63d8665164999168637f2029	4	1	practice_slash	9	practice_slash	23	stimuli_distractor_diamondtriangles.svg	stimuli_distractor_trianglediamonds.svg	14	no	53	0	750	0	0			0	0			1				0	
6.6.1	win	2023-06-23	22:21:44	22:30:40	528459	63d8665164999168637f2029	4	1	practice_slash	9	advance_on_keypress_SLASH	24	stimuli_distractor_diamondtriangles.svg	stimuli_distractor_trianglediamonds.svg	14	no	57	0	711	0	0			0	0			1				0	
6.6.1	win	2023-06-23	22:21:44	22:30:43	531508	63d8665164999168637f2029	4	1	practice_slash	9	practice_slash	25	stimuli_target_squarediamonds.svg	stimuli_distractor_diamondtriangles.svg	2	yes	53	1	683	0	0			0	0			1				0	
6.6.1	win	2023-06-23	22:21:44	22:30:43	531508	63d8665164999168637f2029	4	1	practice_slash	9	advance_on_keypress_SLASH	26	stimuli_target_squarediamonds.svg	stimuli_distractor_diamondtriangles.svg	2	yes	57	0	303	0	0			0	0			1				0	
6.6.1	win	2023-06-23	22:21:44	22:30:45	534202	63d8665164999168637f2029	4	1	practice_slash	9	practice_slash	27	stimuli_distractor_diamondtriangles.svg	stimuli_target_rectangletriangles.svg	7	yes	53	1	727	0	0			0	0			1				0	
6.6.1	win	2023-06-23	22:21:44	22:30:45	534202	63d8665164999168637f2029	4	1	practice_slash	9	advance_on_keypress_SLASH	28	stimuli_distractor_diamondtriangles.svg	stimuli_target_rectangletriangles.svg	7	yes	57	0	321	0	0			0	0			1				0	
6.6.1	win	2023-06-23	22:21:44	22:30:48	536912	63d8665164999168637f2029	4	1	practice_slash	9	practice_slash	29	stimuli_distractor_trianglediamonds.svg	stimuli_target_diamondrectangles.svg	12	yes	53	1	719	0	0			0	0			1				0	
6.6.1	win	2023-06-23	22:21:44	22:30:48	536912	63d8665164999168637f2029	4	1	practice_slash	9	advance_on_keypress_SLASH	30	stimuli_distractor_trianglediamonds.svg	stimuli_target_diamondrectangles.svg	12	yes	57	0	239	0	0			0	0			1				0	
6.6.1	win	2023-06-23	22:21:44	22:30:51	539702	63d8665164999168637f2029	4	1	practice_slash	9	practice_slash	31	stimuli_target_diamondsquares.svg	stimuli_distractor_trianglediamonds.svg	6	yes	53	1	878	0	0			0	0			1				0	
6.6.1	win	2023-06-23	22:21:44	22:30:51	539702	63d8665164999168637f2029	4	1	practice_slash	9	advance_on_keypress_SLASH	32	stimuli_target_diamondsquares.svg	stimuli_distractor_trianglediamonds.svg	6	yes	57	0	283	0	0			0	0			1				0	
6.6.1	win	2023-06-23	22:21:44	22:30:57	545627	63d8665164999168637f2029	4	1	main_slash	11	main_slash	1	stimuli_target_trianglerectangles.svg	stimuli_distractor_diamondtriangles.svg	21	yes	53	1	758	0	0			0	0			1				0	
6.6.1	win	2023-06-23	22:21:44	22:30:57	545627	63d8665164999168637f2029	4	1	main_slash	11	advance_on_keypress_SLASH	2	stimuli_target_trianglerectangles.svg	stimuli_distractor_diamondtriangles.svg	21	yes	57	0	754	0	0			0	0			1				0	
6.6.1	win	2023-06-23	22:21:44	22:30:59	547739	63d8665164999168637f2029	4	1	main_slash	11	main_slash	3	stimuli_distractor_trianglediamonds.svg	stimuli_target_rectangletriangles.svg	9	yes	53	1	704	0	0			0	0			1				0	
6.6.1	win	2023-06-23	22:21:44	22:30:59	547739	63d8665164999168637f2029	4	1	main_slash	11	advance_on_keypress_SLASH	4	stimuli_distractor_trianglediamonds.svg	stimuli_target_rectangletriangles.svg	9	yes	57	0	538	0	0			0	0			1				0	
6.6.1	win	2023-06-23	22:21:44	22:31:01	549796	63d8665164999168637f2029	4	1	main_slash	11	main_slash	5	stimuli_target_trianglesquares.svg	stimuli_distractor_trianglediamonds.svg	18	yes	53	1	878	0	0			0	0			1				0	
6.6.1	win	2023-06-23	22:21:44	22:31:01	549796	63d8665164999168637f2029	4	1	main_slash	11	advance_on_keypress_SLASH	6	stimuli_target_trianglesquares.svg	stimuli_distractor_trianglediamonds.svg	18	yes	57	0	467	0	0			0	0			1				0	
6.6.1	win	2023-06-23	22:21:44	22:31:03	551724	63d8665164999168637f2029	4	1	main_slash	11	main_slash	7	stimuli_distractor_diamondtriangles.svg	stimuli_target_diamondrectangles.svg	31	yes	53	1	806	0	0			0	0			1				0	
6.6.1	win	2023-06-23	22:21:44	22:31:03	551724	63d8665164999168637f2029	4	1	main_slash	11	advance_on_keypress_SLASH	8	stimuli_distractor_diamondtriangles.svg	stimuli_target_diamondrectangles.svg	31	yes	57	0	514	0	0			0	0			1				0	
6.6.1	win	2023-06-23	22:21:44	22:31:05	553532	63d8665164999168637f2029	4	1	main_slash	11	main_slash	9	stimuli_target_rectanglediamonds.svg	stimuli_distractor_trianglediamonds.svg	2	yes	53	1	631	0	0			0	0			1				0	
6.6.1	win	2023-06-23	22:21:44	22:31:05	553532	63d8665164999168637f2029	4	1	main_slash	11	advance_on_keypress_SLASH	10	stimuli_target_rectanglediamonds.svg	stimuli_distractor_trianglediamonds.svg	2	yes	57	0	445	0	0			0	0			1				0	
6.6.1	win	2023-06-23	22:21:44	22:31:06	555351	63d8665164999168637f2029	4	1	main_slash	11	main_slash	11	stimuli_distractor_trianglediamonds.svg	stimuli_target_squarediamonds.svg	12	yes	53	1	716	0	0			0	0			1				0	
6.6.1	win	2023-06-23	22:21:44	22:31:06	555351	63d8665164999168637f2029	4	1	main_slash	11	advance_on_keypress_SLASH	12	stimuli_distractor_trianglediamonds.svg	stimuli_target_squarediamonds.svg	12	yes	57	0	506	0	0			0	0			1				0	
6.6.1	win	2023-06-23	22:21:44	22:31:08	557204	63d8665164999168637f2029	4	1	main_slash	11	main_slash	13	stimuli_distractor_trianglediamonds.svg	stimuli_target_diamondsquares.svg	28	yes	53	1	703	0	0			0	0			1				0	
6.6.1	win	2023-06-23	22:21:44	22:31:08	557204	63d8665164999168637f2029	4	1	main_slash	11	advance_on_keypress_SLASH	14	stimuli_distractor_trianglediamonds.svg	stimuli_target_diamondsquares.svg	28	yes	57	0	525	0	0			0	0			1				0	
6.6.1	win	2023-06-23	22:21:44	22:31:10	559136	63d8665164999168637f2029	4	1	main_slash	11	main_slash	15	stimuli_target_rectangletriangles.svg	stimuli_distractor_trianglediamonds.svg	1	yes	53	1	753	0	0			0	0			1				0	
6.6.1	win	2023-06-23	22:21:44	22:31:10	559136	63d8665164999168637f2029	4	1	main_slash	11	advance_on_keypress_SLASH	16	stimuli_target_rectangletriangles.svg	stimuli_distractor_trianglediamonds.svg	1	yes	57	0	552	0	0			0	0			1				0	
6.6.1	win	2023-06-23	22:21:44	22:31:12	561130	63d8665164999168637f2029	4	1	main_slash	11	main_slash	17	stimuli_distractor_diamondtriangles.svg	stimuli_target_squarediamonds.svg	16	yes	53	1	797	0	0			0	0			1				0	
6.6.1	win	2023-06-23	22:21:44	22:31:12	561130	63d8665164999168637f2029	4	1	main_slash	11	advance_on_keypress_SLASH	18	stimuli_distractor_diamondtriangles.svg	stimuli_target_squarediamonds.svg	16	yes	57	0	560	0	0			0	0			1				0	
6.6.1	win	2023-06-23	22:21:44	22:31:15	564349	63d8665164999168637f2029	4	1	main_slash	11	main_slash	19	stimuli_distractor_trianglediamonds.svg	stimuli_distractor_diamondtriangles.svg	36	no	0	1	2000	0	0			0	0			1				0	
6.6.1	win	2023-06-23	22:21:44	22:31:15	564349	63d8665164999168637f2029	4	1	main_slash	11	advance_on_keypress_SLASH	20	stimuli_distractor_trianglediamonds.svg	stimuli_distractor_diamondtriangles.svg	36	no	57	0	798	0	0			0	0			1				0	
6.6.1	win	2023-06-23	22:21:44	22:31:18	566627	63d8665164999168637f2029	4	1	main_slash	11	main_slash	21	stimuli_target_squarediamonds.svg	stimuli_distractor_diamondtriangles.svg	8	yes	53	1	829	0	0			0	0			1				0	
6.6.1	win	2023-06-23	22:21:44	22:31:18	566627	63d8665164999168637f2029	4	1	main_slash	11	advance_on_keypress_SLASH	22	stimuli_target_squarediamonds.svg	stimuli_distractor_diamondtriangles.svg	8	yes	57	0	523	0	0			0	0			1				0	
6.6.1	win	2023-06-23	22:21:44	22:31:20	568663	63d8665164999168637f2029	4	1	main_slash	11	main_slash	23	stimuli_target_rectangletriangles.svg	stimuli_distractor_diamondtriangles.svg	5	yes	53	1	864	0	0			0	0			1				0	
6.6.1	win	2023-06-23	22:21:44	22:31:20	568663	63d8665164999168637f2029	4	1	main_slash	11	advance_on_keypress_SLASH	24	stimuli_target_rectangletriangles.svg	stimuli_distractor_diamondtriangles.svg	5	yes	57	0	495	0	0			0	0			1				0	
6.6.1	win	2023-06-23	22:21:44	22:31:22	570681	63d8665164999168637f2029	4	1	main_slash	11	main_slash	25	stimuli_distractor_diamondtriangles.svg	stimuli_target_trianglerectangles.svg	29	yes	53	1	866	0	0			0	0			1				0	
6.6.1	win	2023-06-23	22:21:44	22:31:22	570681	63d8665164999168637f2029	4	1	main_slash	11	advance_on_keypress_SLASH	26	stimuli_distractor_diamondtriangles.svg	stimuli_target_trianglerectangles.svg	29	yes	57	0	504	0	0			0	0			1				0	
6.6.1	win	2023-06-23	22:21:44	22:31:24	572637	63d8665164999168637f2029	4	1	main_slash	11	main_slash	27	stimuli_target_trianglerectangles.svg	stimuli_distractor_trianglediamonds.svg	17	yes	53	1	806	0	0			0	0			1				0	
6.6.1	win	2023-06-23	22:21:44	22:31:24	572637	63d8665164999168637f2029	4	1	main_slash	11	advance_on_keypress_SLASH	28	stimuli_target_trianglerectangles.svg	stimuli_distractor_trianglediamonds.svg	17	yes	57	0	609	0	0			0	0			1				0	
6.6.1	win	2023-06-23	22:21:44	22:31:26	574753	63d8665164999168637f2029	4	1	main_slash	11	main_slash	29	stimuli_target_squaretriangles.svg	stimuli_distractor_trianglediamonds.svg	3	yes	53	1	855	0	0			0	0			1				0	
6.6.1	win	2023-06-23	22:21:44	22:31:26	574753	63d8665164999168637f2029	4	1	main_slash	11	advance_on_keypress_SLASH	30	stimuli_target_squaretriangles.svg	stimuli_distractor_trianglediamonds.svg	3	yes	57	0	498	0	0			0	0			1				0	
6.6.1	win	2023-06-23	22:21:44	22:31:28	576687	63d8665164999168637f2029	4	1	main_slash	11	main_slash	31	stimuli_distractor_diamondtriangles.svg	stimuli_target_diamondsquares.svg	32	yes	53	1	789	0	0			0	0			1				0	
6.6.1	win	2023-06-23	22:21:44	22:31:28	576687	63d8665164999168637f2029	4	1	main_slash	11	advance_on_keypress_SLASH	32	stimuli_distractor_diamondtriangles.svg	stimuli_target_diamondsquares.svg	32	yes	57	0	536	0	0			0	0			1				0	
6.6.1	win	2023-06-23	22:21:44	22:31:30	578647	63d8665164999168637f2029	4	1	main_slash	11	main_slash	33	stimuli_distractor_trianglediamonds.svg	stimuli_target_squaretriangles.svg	11	yes	53	1	784	0	0			0	0			1				0	
6.6.1	win	2023-06-23	22:21:44	22:31:30	578647	63d8665164999168637f2029	4	1	main_slash	11	advance_on_keypress_SLASH	34	stimuli_distractor_trianglediamonds.svg	stimuli_target_squaretriangles.svg	11	yes	57	0	479	0	0			0	0			1				0	
6.6.1	win	2023-06-23	22:21:44	22:31:33	581780	63d8665164999168637f2029	4	1	main_slash	11	main_slash	35	stimuli_distractor_diamondtriangles.svg	stimuli_distractor_trianglediamonds.svg	38	no	0	1	2000	0	0			0	0			1				0	
6.6.1	win	2023-06-23	22:21:44	22:31:33	581780	63d8665164999168637f2029	4	1	main_slash	11	advance_on_keypress_SLASH	36	stimuli_distractor_diamondtriangles.svg	stimuli_distractor_trianglediamonds.svg	38	no	57	0	936	0	0			0	0			1				0	
6.6.1	win	2023-06-23	22:21:44	22:31:35	584130	63d8665164999168637f2029	4	1	main_slash	11	main_slash	37	stimuli_distractor_diamondtriangles.svg	stimuli_target_rectangletriangles.svg	13	yes	53	1	767	0	0			0	0			1				0	
6.6.1	win	2023-06-23	22:21:44	22:31:35	584130	63d8665164999168637f2029	4	1	main_slash	11	advance_on_keypress_SLASH	38	stimuli_distractor_diamondtriangles.svg	stimuli_target_rectangletriangles.svg	13	yes	57	0	343	0	0			0	0			1				0	
6.6.1	win	2023-06-23	22:21:44	22:31:38	587129	63d8665164999168637f2029	4	1	main_slash	11	main_slash	39	stimuli_distractor_trianglediamonds.svg	stimuli_distractor_trianglediamonds.svg	34	no	0	1	2000	0	0			0	0			1				0	
6.6.1	win	2023-06-23	22:21:44	22:31:38	587129	63d8665164999168637f2029	4	1	main_slash	11	advance_on_keypress_SLASH	40	stimuli_distractor_trianglediamonds.svg	stimuli_distractor_trianglediamonds.svg	34	no	57	0	775	0	0			0	0			1				0	
6.6.1	win	2023-06-23	22:21:44	22:31:40	589412	63d8665164999168637f2029	4	1	main_slash	11	main_slash	41	stimuli_target_diamondsquares.svg	stimuli_distractor_diamondtriangles.svg	24	yes	53	1	850	0	0			0	0			1				0	
6.6.1	win	2023-06-23	22:21:44	22:31:40	589412	63d8665164999168637f2029	4	1	main_slash	11	advance_on_keypress_SLASH	42	stimuli_target_diamondsquares.svg	stimuli_distractor_diamondtriangles.svg	24	yes	57	0	462	0	0			0	0			1				0	
6.6.1	win	2023-06-23	22:21:44	22:31:44	592529	63d8665164999168637f2029	4	1	main_slash	11	main_slash	43	stimuli_distractor_trianglediamonds.svg	stimuli_distractor_trianglediamonds.svg	33	no	0	1	2000	0	0			0	0			1				0	
6.6.1	win	2023-06-23	22:21:44	22:31:44	592529	63d8665164999168637f2029	4	1	main_slash	11	advance_on_keypress_SLASH	44	stimuli_distractor_trianglediamonds.svg	stimuli_distractor_trianglediamonds.svg	33	no	57	0	489	0	0			0	0			1				0	
6.6.1	win	2023-06-23	22:21:44	22:31:46	594526	63d8665164999168637f2029	4	1	main_slash	11	main_slash	45	stimuli_target_diamondsquares.svg	stimuli_distractor_trianglediamonds.svg	20	yes	53	1	865	0	0			0	0			1				0	
6.6.1	win	2023-06-23	22:21:44	22:31:46	594526	63d8665164999168637f2029	4	1	main_slash	11	advance_on_keypress_SLASH	46	stimuli_target_diamondsquares.svg	stimuli_distractor_trianglediamonds.svg	20	yes	57	0	630	0	0			0	0			1				0	
6.6.1	win	2023-06-23	22:21:44	22:31:48	596695	63d8665164999168637f2029	4	1	main_slash	11	main_slash	47	stimuli_distractor_trianglediamonds.svg	stimuli_target_diamondrectangles.svg	27	yes	53	1	884	0	0			0	0			1				0	
6.6.1	win	2023-06-23	22:21:44	22:31:48	596695	63d8665164999168637f2029	4	1	main_slash	11	advance_on_keypress_SLASH	48	stimuli_distractor_trianglediamonds.svg	stimuli_target_diamondrectangles.svg	27	yes	57	0	524	0	0			0	0			1				0	
6.6.1	win	2023-06-23	22:21:44	22:31:50	598607	63d8665164999168637f2029	4	1	main_slash	11	main_slash	49	stimuli_target_diamondrectangles.svg	stimuli_distractor_trianglediamonds.svg	19	yes	53	1	731	0	0			0	0			1				0	
6.6.1	win	2023-06-23	22:21:44	22:31:50	598607	63d8665164999168637f2029	4	1	main_slash	11	advance_on_keypress_SLASH	50	stimuli_target_diamondrectangles.svg	stimuli_distractor_trianglediamonds.svg	19	yes	57	0	424	0	0			0	0			1				0	
6.6.1	win	2023-06-23	22:21:44	22:31:52	600563	63d8665164999168637f2029	4	1	main_slash	11	main_slash	51	stimuli_distractor_diamondtriangles.svg	stimuli_distractor_trianglediamonds.svg	37	no	53	0	869	0	0			0	0			1				0	
6.6.1	win	2023-06-23	22:21:44	22:31:52	600563	63d8665164999168637f2029	4	1	main_slash	11	advance_on_keypress_SLASH	52	stimuli_distractor_diamondtriangles.svg	stimuli_distractor_trianglediamonds.svg	37	no	57	0	446	0	0			0	0			1				0	
6.6.1	win	2023-06-23	22:21:44	22:31:54	602604	63d8665164999168637f2029	4	1	main_slash	11	main_slash	53	stimuli_target_squarediamonds.svg	stimuli_distractor_trianglediamonds.svg	4	yes	53	1	944	0	0			0	0			1				0	
6.6.1	win	2023-06-23	22:21:44	22:31:54	602604	63d8665164999168637f2029	4	1	main_slash	11	advance_on_keypress_SLASH	54	stimuli_target_squarediamonds.svg	stimuli_distractor_trianglediamonds.svg	4	yes	57	0	420	0	0			0	0			1				0	
6.6.1	win	2023-06-23	22:21:44	22:31:56	605094	63d8665164999168637f2029	4	1	main_slash	11	main_slash	55	stimuli_distractor_trianglediamonds.svg	stimuli_target_trianglesquares.svg	26	yes	53	1	1417	0	0			0	0			1				0	
6.6.1	win	2023-06-23	22:21:44	22:31:56	605094	63d8665164999168637f2029	4	1	main_slash	11	advance_on_keypress_SLASH	56	stimuli_distractor_trianglediamonds.svg	stimuli_target_trianglesquares.svg	26	yes	57	0	466	0	0			0	0			1				0	
6.6.1	win	2023-06-23	22:21:44	22:31:58	607138	63d8665164999168637f2029	4	1	main_slash	11	main_slash	57	stimuli_distractor_trianglediamonds.svg	stimuli_target_rectanglediamonds.svg	10	yes	53	1	930	0	0			0	0			1				0	
6.6.1	win	2023-06-23	22:21:44	22:31:58	607138	63d8665164999168637f2029	4	1	main_slash	11	advance_on_keypress_SLASH	58	stimuli_distractor_trianglediamonds.svg	stimuli_target_rectanglediamonds.svg	10	yes	57	0	428	0	0			0	0			1				0	
6.6.1	win	2023-06-23	22:21:44	22:32:00	609242	63d8665164999168637f2029	4	1	main_slash	11	main_slash	59	stimuli_target_trianglesquares.svg	stimuli_distractor_diamondtriangles.svg	22	yes	53	1	1016	0	0			0	0			1				0	
6.6.1	win	2023-06-23	22:21:44	22:32:00	609242	63d8665164999168637f2029	4	1	main_slash	11	advance_on_keypress_SLASH	60	stimuli_target_trianglesquares.svg	stimuli_distractor_diamondtriangles.svg	22	yes	57	0	431	0	0			0	0			1				0	
6.6.1	win	2023-06-23	22:21:44	22:32:02	611149	63d8665164999168637f2029	4	1	main_slash	11	main_slash	61	stimuli_distractor_trianglediamonds.svg	stimuli_target_trianglerectangles.svg	25	yes	53	1	823	0	0			0	0			1				0	
6.6.1	win	2023-06-23	22:21:44	22:32:02	611149	63d8665164999168637f2029	4	1	main_slash	11	advance_on_keypress_SLASH	62	stimuli_distractor_trianglediamonds.svg	stimuli_target_trianglerectangles.svg	25	yes	57	0	358	0	0			0	0			1				0	
6.6.1	win	2023-06-23	22:21:44	22:32:04	613131	63d8665164999168637f2029	4	1	main_slash	11	main_slash	63	stimuli_target_squaretriangles.svg	stimuli_distractor_diamondtriangles.svg	7	yes	53	1	955	0	0			0	0			1				0	
6.6.1	win	2023-06-23	22:21:44	22:32:04	613131	63d8665164999168637f2029	4	1	main_slash	11	advance_on_keypress_SLASH	64	stimuli_target_squaretriangles.svg	stimuli_distractor_diamondtriangles.svg	7	yes	57	0	388	0	0			0	0			1				0	
6.6.1	win	2023-06-23	22:21:44	22:32:07	616158	63d8665164999168637f2029	4	1	main_slash	11	main_slash	65	stimuli_distractor_trianglediamonds.svg	stimuli_distractor_diamondtriangles.svg	35	no	0	1	2000	0	0			0	0			1				0	
6.6.1	win	2023-06-23	22:21:44	22:32:07	616158	63d8665164999168637f2029	4	1	main_slash	11	advance_on_keypress_SLASH	66	stimuli_distractor_trianglediamonds.svg	stimuli_distractor_diamondtriangles.svg	35	no	57	0	805	0	0			0	0			1				0	
6.6.1	win	2023-06-23	22:21:44	22:32:11	619608	63d8665164999168637f2029	4	1	main_slash	11	main_slash	67	stimuli_distractor_diamondtriangles.svg	stimuli_distractor_diamondtriangles.svg	39	no	0	1	2000	0	0			0	0			1				0	
6.6.1	win	2023-06-23	22:21:44	22:32:11	619608	63d8665164999168637f2029	4	1	main_slash	11	advance_on_keypress_SLASH	68	stimuli_distractor_diamondtriangles.svg	stimuli_distractor_diamondtriangles.svg	39	no	57	0	300	0	0			0	0			1				0	
6.6.1	win	2023-06-23	22:21:44	22:32:12	621368	63d8665164999168637f2029	4	1	main_slash	11	main_slash	69	stimuli_distractor_diamondtriangles.svg	stimuli_target_rectanglediamonds.svg	14	yes	53	1	811	0	0			0	0			1				0	
6.6.1	win	2023-06-23	22:21:44	22:32:12	621368	63d8665164999168637f2029	4	1	main_slash	11	advance_on_keypress_SLASH	70	stimuli_distractor_diamondtriangles.svg	stimuli_target_rectanglediamonds.svg	14	yes	57	0	347	0	0			0	0			1				0	
6.6.1	win	2023-06-23	22:21:44	22:32:14	623141	63d8665164999168637f2029	4	1	main_slash	11	main_slash	71	stimuli_distractor_diamondtriangles.svg	stimuli_target_squaretriangles.svg	15	yes	53	1	768	0	0			0	0			1				0	
6.6.1	win	2023-06-23	22:21:44	22:32:14	623141	63d8665164999168637f2029	4	1	main_slash	11	advance_on_keypress_SLASH	72	stimuli_distractor_diamondtriangles.svg	stimuli_target_squaretriangles.svg	15	yes	57	0	358	0	0			0	0			1				0	
6.6.1	win	2023-06-23	22:21:44	22:32:17	626156	63d8665164999168637f2029	4	1	main_slash	11	main_slash	73	stimuli_distractor_diamondtriangles.svg	stimuli_distractor_diamondtriangles.svg	40	no	0	1	2000	0	0			0	0			1				0	
6.6.1	win	2023-06-23	22:21:44	22:32:17	626156	63d8665164999168637f2029	4	1	main_slash	11	advance_on_keypress_SLASH	74	stimuli_distractor_diamondtriangles.svg	stimuli_distractor_diamondtriangles.svg	40	no	57	0	582	0	0			0	0			1				0	
6.6.1	win	2023-06-23	22:21:44	22:32:19	628084	63d8665164999168637f2029	4	1	main_slash	11	main_slash	75	stimuli_distractor_diamondtriangles.svg	stimuli_target_trianglesquares.svg	30	yes	53	1	695	0	0			0	0			1				0	
6.6.1	win	2023-06-23	22:21:44	22:32:19	628084	63d8665164999168637f2029	4	1	main_slash	11	advance_on_keypress_SLASH	76	stimuli_distractor_diamondtriangles.svg	stimuli_target_trianglesquares.svg	30	yes	57	0	496	0	0			0	0			1				0	
6.6.1	win	2023-06-23	22:21:44	22:32:21	629926	63d8665164999168637f2029	4	1	main_slash	11	main_slash	77	stimuli_target_diamondrectangles.svg	stimuli_distractor_diamondtriangles.svg	23	yes	53	1	686	0	0			0	0			1				0	
6.6.1	win	2023-06-23	22:21:44	22:32:21	629926	63d8665164999168637f2029	4	1	main_slash	11	advance_on_keypress_SLASH	78	stimuli_target_diamondrectangles.svg	stimuli_distractor_diamondtriangles.svg	23	yes	57	0	373	0	0			0	0			1				0	
6.6.1	win	2023-06-23	22:21:44	22:32:23	631978	63d8665164999168637f2029	4	1	main_slash	11	main_slash	79	stimuli_target_rectanglediamonds.svg	stimuli_distractor_diamondtriangles.svg	6	yes	53	1	1039	0	0			0	0			1				0	
6.6.1	win	2023-06-23	22:21:44	22:32:23	631978	63d8665164999168637f2029	4	1	main_slash	11	advance_on_keypress_SLASH	80	stimuli_target_rectanglediamonds.svg	stimuli_distractor_diamondtriangles.svg	6	yes	57	0	352	0	0			0	0			1				0	
6.6.1	win	2023-06-23	22:21:44	22:32:25	633741	63d8665164999168637f2029	4	1	main_slash	11	main_slash	81	stimuli_distractor_trianglediamonds.svg	stimuli_target_rectanglediamonds.svg	10	yes	53	1	770	0	0			0	0			1				0	
6.6.1	win	2023-06-23	22:21:44	22:32:25	633741	63d8665164999168637f2029	4	1	main_slash	11	advance_on_keypress_SLASH	82	stimuli_distractor_trianglediamonds.svg	stimuli_target_rectanglediamonds.svg	10	yes	57	0	377	0	0			0	0			1				0	
6.6.1	win	2023-06-23	22:21:44	22:32:27	635540	63d8665164999168637f2029	4	1	main_slash	11	main_slash	83	stimuli_distractor_diamondtriangles.svg	stimuli_target_trianglesquares.svg	30	yes	53	1	768	0	0			0	0			1				0	
6.6.1	win	2023-06-23	22:21:44	22:32:27	635540	63d8665164999168637f2029	4	1	main_slash	11	advance_on_keypress_SLASH	84	stimuli_distractor_diamondtriangles.svg	stimuli_target_trianglesquares.svg	30	yes	57	0	411	0	0			0	0			1				0	
6.6.1	win	2023-06-23	22:21:44	22:32:29	637460	63d8665164999168637f2029	4	1	main_slash	11	main_slash	85	stimuli_target_trianglerectangles.svg	stimuli_distractor_diamondtriangles.svg	21	yes	53	1	855	0	0			0	0			1				0	
6.6.1	win	2023-06-23	22:21:44	22:32:29	637460	63d8665164999168637f2029	4	1	main_slash	11	advance_on_keypress_SLASH	86	stimuli_target_trianglerectangles.svg	stimuli_distractor_diamondtriangles.svg	21	yes	57	0	391	0	0			0	0			1				0	
6.6.1	win	2023-06-23	22:21:44	22:32:30	639286	63d8665164999168637f2029	4	1	main_slash	11	main_slash	87	stimuli_distractor_diamondtriangles.svg	stimuli_target_squarediamonds.svg	16	yes	53	1	782	0	0			0	0			1				0	
6.6.1	win	2023-06-23	22:21:44	22:32:30	639286	63d8665164999168637f2029	4	1	main_slash	11	advance_on_keypress_SLASH	88	stimuli_distractor_diamondtriangles.svg	stimuli_target_squarediamonds.svg	16	yes	57	0	336	0	0			0	0			1				0	
6.6.1	win	2023-06-23	22:21:44	22:32:32	641119	63d8665164999168637f2029	4	1	main_slash	11	main_slash	89	stimuli_target_trianglesquares.svg	stimuli_distractor_diamondtriangles.svg	22	yes	53	1	848	0	0			0	0			1				0	
6.6.1	win	2023-06-23	22:21:44	22:32:32	641119	63d8665164999168637f2029	4	1	main_slash	11	advance_on_keypress_SLASH	90	stimuli_target_trianglesquares.svg	stimuli_distractor_diamondtriangles.svg	22	yes	57	0	339	0	0			0	0			1				0	
6.6.1	win	2023-06-23	22:21:44	22:32:34	642901	63d8665164999168637f2029	4	1	main_slash	11	main_slash	91	stimuli_target_rectangletriangles.svg	stimuli_distractor_trianglediamonds.svg	1	yes	53	1	797	0	0			0	0			1				0	
6.6.1	win	2023-06-23	22:21:44	22:32:34	642901	63d8665164999168637f2029	4	1	main_slash	11	advance_on_keypress_SLASH	92	stimuli_target_rectangletriangles.svg	stimuli_distractor_trianglediamonds.svg	1	yes	57	0	351	0	0			0	0			1				0	
6.6.1	win	2023-06-23	22:21:44	22:32:36	644594	63d8665164999168637f2029	4	1	main_slash	11	main_slash	93	stimuli_target_rectanglediamonds.svg	stimuli_distractor_diamondtriangles.svg	6	yes	53	1	690	0	0			0	0			1				0	
6.6.1	win	2023-06-23	22:21:44	22:32:36	644594	63d8665164999168637f2029	4	1	main_slash	11	advance_on_keypress_SLASH	94	stimuli_target_rectanglediamonds.svg	stimuli_distractor_diamondtriangles.svg	6	yes	57	0	336	0	0			0	0			1				0	
6.6.1	win	2023-06-23	22:21:44	22:32:39	647587	63d8665164999168637f2029	4	1	main_slash	11	main_slash	95	stimuli_distractor_diamondtriangles.svg	stimuli_distractor_diamondtriangles.svg	39	no	0	1	2000	0	0			0	0			1				0	
6.6.1	win	2023-06-23	22:21:44	22:32:39	647587	63d8665164999168637f2029	4	1	main_slash	11	advance_on_keypress_SLASH	96	stimuli_distractor_diamondtriangles.svg	stimuli_distractor_diamondtriangles.svg	39	no	57	0	617	0	0			0	0			1				0	
6.6.1	win	2023-06-23	22:21:44	22:32:41	649651	63d8665164999168637f2029	4	1	main_slash	11	main_slash	97	stimuli_distractor_diamondtriangles.svg	stimuli_target_squaretriangles.svg	15	yes	53	1	796	0	0			0	0			1				0	
6.6.1	win	2023-06-23	22:21:44	22:32:41	649651	63d8665164999168637f2029	4	1	main_slash	11	advance_on_keypress_SLASH	98	stimuli_distractor_diamondtriangles.svg	stimuli_target_squaretriangles.svg	15	yes	57	0	380	0	0			0	0			1				0	
6.6.1	win	2023-06-23	22:21:44	22:32:42	651367	63d8665164999168637f2029	4	1	main_slash	11	main_slash	99	stimuli_target_rectanglediamonds.svg	stimuli_distractor_trianglediamonds.svg	2	yes	53	1	682	0	0			0	0			1				0	
6.6.1	win	2023-06-23	22:21:44	22:32:42	651367	63d8665164999168637f2029	4	1	main_slash	11	advance_on_keypress_SLASH	100	stimuli_target_rectanglediamonds.svg	stimuli_distractor_trianglediamonds.svg	2	yes	57	0	331	0	0			0	0			1				0	
6.6.1	win	2023-06-23	22:21:44	22:32:44	653053	63d8665164999168637f2029	4	1	main_slash	11	main_slash	101	stimuli_target_diamondrectangles.svg	stimuli_distractor_trianglediamonds.svg	19	yes	53	1	702	0	0			0	0			1				0	
6.6.1	win	2023-06-23	22:21:44	22:32:44	653053	63d8665164999168637f2029	4	1	main_slash	11	advance_on_keypress_SLASH	102	stimuli_target_diamondrectangles.svg	stimuli_distractor_trianglediamonds.svg	19	yes	57	0	329	0	0			0	0			1				0	
6.6.1	win	2023-06-23	22:21:44	22:32:46	654755	63d8665164999168637f2029	4	1	main_slash	11	main_slash	103	stimuli_distractor_trianglediamonds.svg	stimuli_target_diamondsquares.svg	28	yes	53	1	719	0	0			0	0			1				0	
6.6.1	win	2023-06-23	22:21:44	22:32:46	654755	63d8665164999168637f2029	4	1	main_slash	11	advance_on_keypress_SLASH	104	stimuli_distractor_trianglediamonds.svg	stimuli_target_diamondsquares.svg	28	yes	57	0	330	0	0			0	0			1				0	
6.6.1	win	2023-06-23	22:21:44	22:32:48	656498	63d8665164999168637f2029	4	1	main_slash	11	main_slash	105	stimuli_distractor_trianglediamonds.svg	stimuli_target_squaretriangles.svg	11	yes	53	1	764	0	0			0	0			1				0	
6.6.1	win	2023-06-23	22:21:44	22:32:48	656498	63d8665164999168637f2029	4	1	main_slash	11	advance_on_keypress_SLASH	106	stimuli_distractor_trianglediamonds.svg	stimuli_target_squaretriangles.svg	11	yes	57	0	298	0	0			0	0			1				0	
6.6.1	win	2023-06-23	22:21:44	22:32:49	658333	63d8665164999168637f2029	4	1	main_slash	11	main_slash	107	stimuli_distractor_trianglediamonds.svg	stimuli_target_trianglesquares.svg	26	yes	53	1	882	0	0			0	0			1				0	
6.6.1	win	2023-06-23	22:21:44	22:32:49	658333	63d8665164999168637f2029	4	1	main_slash	11	advance_on_keypress_SLASH	108	stimuli_distractor_trianglediamonds.svg	stimuli_target_trianglesquares.svg	26	yes	57	0	319	0	0			0	0			1				0	
6.6.1	win	2023-06-23	22:21:44	22:32:51	660021	63d8665164999168637f2029	4	1	main_slash	11	main_slash	109	stimuli_distractor_diamondtriangles.svg	stimuli_target_trianglerectangles.svg	29	yes	53	1	720	0	0			0	0			1				0	
6.6.1	win	2023-06-23	22:21:44	22:32:51	660021	63d8665164999168637f2029	4	1	main_slash	11	advance_on_keypress_SLASH	110	stimuli_distractor_diamondtriangles.svg	stimuli_target_trianglerectangles.svg	29	yes	57	0	319	0	0			0	0			1				0	
6.6.1	win	2023-06-23	22:21:44	22:32:53	661875	63d8665164999168637f2029	4	1	main_slash	11	main_slash	111	stimuli_distractor_trianglediamonds.svg	stimuli_target_trianglerectangles.svg	25	yes	53	1	890	0	0			0	0			1				0	
6.6.1	win	2023-06-23	22:21:44	22:32:53	661875	63d8665164999168637f2029	4	1	main_slash	11	advance_on_keypress_SLASH	112	stimuli_distractor_trianglediamonds.svg	stimuli_target_trianglerectangles.svg	25	yes	57	0	368	0	0			0	0			1				0	
6.6.1	win	2023-06-23	22:21:44	22:32:55	663740	63d8665164999168637f2029	4	1	main_slash	11	main_slash	113	stimuli_target_diamondsquares.svg	stimuli_distractor_trianglediamonds.svg	20	yes	53	1	840	0	0			0	0			1				0	
6.6.1	win	2023-06-23	22:21:44	22:32:55	663740	63d8665164999168637f2029	4	1	main_slash	11	advance_on_keypress_SLASH	114	stimuli_target_diamondsquares.svg	stimuli_distractor_trianglediamonds.svg	20	yes	57	0	303	0	0			0	0			1				0	
6.6.1	win	2023-06-23	22:21:44	22:32:57	665475	63d8665164999168637f2029	4	1	main_slash	11	main_slash	115	stimuli_distractor_trianglediamonds.svg	stimuli_target_rectangletriangles.svg	9	yes	53	1	775	0	0			0	0			1				0	
6.6.1	win	2023-06-23	22:21:44	22:32:57	665475	63d8665164999168637f2029	4	1	main_slash	11	advance_on_keypress_SLASH	116	stimuli_distractor_trianglediamonds.svg	stimuli_target_rectangletriangles.svg	9	yes	57	0	279	0	0			0	0			1				0	
6.6.1	win	2023-06-23	22:21:44	22:32:58	667124	63d8665164999168637f2029	4	1	main_slash	11	main_slash	117	stimuli_target_squarediamonds.svg	stimuli_distractor_diamondtriangles.svg	8	yes	53	1	707	0	0			0	0			1				0	
6.6.1	win	2023-06-23	22:21:44	22:32:58	667124	63d8665164999168637f2029	4	1	main_slash	11	advance_on_keypress_SLASH	118	stimuli_target_squarediamonds.svg	stimuli_distractor_diamondtriangles.svg	8	yes	57	0	301	0	0			0	0			1				0	
6.6.1	win	2023-06-23	22:21:44	22:33:01	669824	63d8665164999168637f2029	4	1	main_slash	11	main_slash	119	stimuli_distractor_trianglediamonds.svg	stimuli_distractor_diamondtriangles.svg	35	no	53	0	1741	0	0			0	0			1				0	
6.6.1	win	2023-06-23	22:21:44	22:33:01	669824	63d8665164999168637f2029	4	1	main_slash	11	advance_on_keypress_SLASH	120	stimuli_distractor_trianglediamonds.svg	stimuli_distractor_diamondtriangles.svg	35	no	57	0	273	0	0			0	0			1				0	
6.6.1	win	2023-06-23	22:21:44	22:33:04	672749	63d8665164999168637f2029	4	1	main_slash	11	main_slash	121	stimuli_distractor_trianglediamonds.svg	stimuli_distractor_trianglediamonds.svg	34	no	0	1	2000	0	0			0	0			1				0	
6.6.1	win	2023-06-23	22:21:44	22:33:04	672749	63d8665164999168637f2029	4	1	main_slash	11	advance_on_keypress_SLASH	122	stimuli_distractor_trianglediamonds.svg	stimuli_distractor_trianglediamonds.svg	34	no	57	0	686	0	0			0	0			1				0	
6.6.1	win	2023-06-23	22:21:44	22:33:06	674819	63d8665164999168637f2029	4	1	main_slash	11	main_slash	123	stimuli_target_squarediamonds.svg	stimuli_distractor_trianglediamonds.svg	4	yes	53	1	737	0	0			0	0			1				0	
6.6.1	win	2023-06-23	22:21:44	22:33:06	674819	63d8665164999168637f2029	4	1	main_slash	11	advance_on_keypress_SLASH	124	stimuli_target_squarediamonds.svg	stimuli_distractor_trianglediamonds.svg	4	yes	57	0	294	0	0			0	0			1				0	
6.6.1	win	2023-06-23	22:21:44	22:33:08	677077	63d8665164999168637f2029	4	1	main_slash	11	main_slash	125	stimuli_distractor_diamondtriangles.svg	stimuli_target_diamondsquares.svg	32	yes	53	1	1312	0	0			0	0			1				0	
6.6.1	win	2023-06-23	22:21:44	22:33:08	677077	63d8665164999168637f2029	4	1	main_slash	11	advance_on_keypress_SLASH	126	stimuli_distractor_diamondtriangles.svg	stimuli_target_diamondsquares.svg	32	yes	57	0	373	0	0			0	0			1				0	
6.6.1	win	2023-06-23	22:21:44	22:33:10	678847	63d8665164999168637f2029	4	1	main_slash	11	main_slash	127	stimuli_distractor_diamondtriangles.svg	stimuli_target_diamondrectangles.svg	31	yes	53	1	749	0	0			0	0			1				0	
6.6.1	win	2023-06-23	22:21:44	22:33:10	678847	63d8665164999168637f2029	4	1	main_slash	11	advance_on_keypress_SLASH	128	stimuli_distractor_diamondtriangles.svg	stimuli_target_diamondrectangles.svg	31	yes	57	0	354	0	0			0	0			1				0	
6.6.1	win	2023-06-23	22:21:44	22:33:12	680573	63d8665164999168637f2029	4	1	main_slash	11	main_slash	129	stimuli_distractor_trianglediamonds.svg	stimuli_target_squarediamonds.svg	12	yes	53	1	725	0	0			0	0			1				0	
6.6.1	win	2023-06-23	22:21:44	22:33:12	680573	63d8665164999168637f2029	4	1	main_slash	11	advance_on_keypress_SLASH	130	stimuli_distractor_trianglediamonds.svg	stimuli_target_squarediamonds.svg	12	yes	57	0	451	0	0			0	0			1				0	
6.6.1	win	2023-06-23	22:21:44	22:33:13	682396	63d8665164999168637f2029	4	1	main_slash	11	main_slash	131	stimuli_target_rectangletriangles.svg	stimuli_distractor_diamondtriangles.svg	5	yes	53	1	716	0	0			0	0			1				0	
6.6.1	win	2023-06-23	22:21:44	22:33:13	682396	63d8665164999168637f2029	4	1	main_slash	11	advance_on_keypress_SLASH	132	stimuli_target_rectangletriangles.svg	stimuli_distractor_diamondtriangles.svg	5	yes	57	0	336	0	0			0	0			1				0	
6.6.1	win	2023-06-23	22:21:44	22:33:16	685381	63d8665164999168637f2029	4	1	main_slash	11	main_slash	133	stimuli_distractor_trianglediamonds.svg	stimuli_distractor_diamondtriangles.svg	36	no	0	1	2000	0	0			0	0			1				0	
6.6.1	win	2023-06-23	22:21:44	22:33:16	685381	63d8665164999168637f2029	4	1	main_slash	11	advance_on_keypress_SLASH	134	stimuli_distractor_trianglediamonds.svg	stimuli_distractor_diamondtriangles.svg	36	no	57	0	684	0	0			0	0			1				0	
6.6.1	win	2023-06-23	22:21:44	22:33:18	687428	63d8665164999168637f2029	4	1	main_slash	11	main_slash	135	stimuli_distractor_diamondtriangles.svg	stimuli_target_rectangletriangles.svg	13	yes	53	1	716	0	0			0	0			1				0	
6.6.1	win	2023-06-23	22:21:44	22:33:18	687428	63d8665164999168637f2029	4	1	main_slash	11	advance_on_keypress_SLASH	136	stimuli_distractor_diamondtriangles.svg	stimuli_target_rectangletriangles.svg	13	yes	57	0	280	0	0			0	0			1				0	
6.6.1	win	2023-06-23	22:21:44	22:33:20	689101	63d8665164999168637f2029	4	1	main_slash	11	main_slash	137	stimuli_target_trianglesquares.svg	stimuli_distractor_trianglediamonds.svg	18	yes	53	1	738	0	0			0	0			1				0	
6.6.1	win	2023-06-23	22:21:44	22:33:20	689101	63d8665164999168637f2029	4	1	main_slash	11	advance_on_keypress_SLASH	138	stimuli_target_trianglesquares.svg	stimuli_distractor_trianglediamonds.svg	18	yes	57	0	290	0	0			0	0			1				0	
6.6.1	win	2023-06-23	22:21:44	22:33:22	690750	63d8665164999168637f2029	4	1	main_slash	11	main_slash	139	stimuli_target_trianglerectangles.svg	stimuli_distractor_trianglediamonds.svg	17	yes	53	1	722	0	0			0	0			1				0	
6.6.1	win	2023-06-23	22:21:44	22:33:22	690750	63d8665164999168637f2029	4	1	main_slash	11	advance_on_keypress_SLASH	140	stimuli_target_trianglerectangles.svg	stimuli_distractor_trianglediamonds.svg	17	yes	57	0	293	0	0			0	0			1				0	
6.6.1	win	2023-06-23	22:21:44	22:33:23	692429	63d8665164999168637f2029	4	1	main_slash	11	main_slash	141	stimuli_distractor_diamondtriangles.svg	stimuli_target_rectanglediamonds.svg	14	yes	53	1	734	0	0			0	0			1				0	
6.6.1	win	2023-06-23	22:21:44	22:33:23	692429	63d8665164999168637f2029	4	1	main_slash	11	advance_on_keypress_SLASH	142	stimuli_distractor_diamondtriangles.svg	stimuli_target_rectanglediamonds.svg	14	yes	57	0	270	0	0			0	0			1				0	
6.6.1	win	2023-06-23	22:21:44	22:33:26	695346	63d8665164999168637f2029	4	1	main_slash	11	main_slash	143	stimuli_distractor_diamondtriangles.svg	stimuli_distractor_trianglediamonds.svg	38	no	0	1	2000	0	0			0	0			1				0	
6.6.1	win	2023-06-23	22:21:44	22:33:26	695346	63d8665164999168637f2029	4	1	main_slash	11	advance_on_keypress_SLASH	144	stimuli_distractor_diamondtriangles.svg	stimuli_distractor_trianglediamonds.svg	38	no	57	0	578	0	0			0	0			1				0	
6.6.1	win	2023-06-23	22:21:44	22:33:29	697457	63d8665164999168637f2029	4	1	main_slash	11	main_slash	145	stimuli_distractor_trianglediamonds.svg	stimuli_distractor_trianglediamonds.svg	33	no	53	0	878	0	0			0	0			1				0	
6.6.1	win	2023-06-23	22:21:44	22:33:29	697457	63d8665164999168637f2029	4	1	main_slash	11	advance_on_keypress_SLASH	146	stimuli_distractor_trianglediamonds.svg	stimuli_distractor_trianglediamonds.svg	33	no	57	0	319	0	0			0	0			1				0	
6.6.1	win	2023-06-23	22:21:44	22:33:31	699543	63d8665164999168637f2029	4	1	main_slash	11	main_slash	147	stimuli_distractor_diamondtriangles.svg	stimuli_distractor_trianglediamonds.svg	37	no	53	0	1114	0	0			0	0			1				0	
6.6.1	win	2023-06-23	22:21:44	22:33:31	699543	63d8665164999168637f2029	4	1	main_slash	11	advance_on_keypress_SLASH	148	stimuli_distractor_diamondtriangles.svg	stimuli_distractor_trianglediamonds.svg	37	no	57	0	316	0	0			0	0			1				0	
6.6.1	win	2023-06-23	22:21:44	22:33:32	701195	63d8665164999168637f2029	4	1	main_slash	11	main_slash	149	stimuli_distractor_trianglediamonds.svg	stimuli_target_diamondrectangles.svg	27	yes	53	1	683	0	0			0	0			1				0	
6.6.1	win	2023-06-23	22:21:44	22:33:32	701195	63d8665164999168637f2029	4	1	main_slash	11	advance_on_keypress_SLASH	150	stimuli_distractor_trianglediamonds.svg	stimuli_target_diamondrectangles.svg	27	yes	57	0	301	0	0			0	0			1				0	
6.6.1	win	2023-06-23	22:21:44	22:33:34	702879	63d8665164999168637f2029	4	1	main_slash	11	main_slash	151	stimuli_target_squaretriangles.svg	stimuli_distractor_trianglediamonds.svg	3	yes	53	1	734	0	0			0	0			1				0	
6.6.1	win	2023-06-23	22:21:44	22:33:34	702879	63d8665164999168637f2029	4	1	main_slash	11	advance_on_keypress_SLASH	152	stimuli_target_squaretriangles.svg	stimuli_distractor_trianglediamonds.svg	3	yes	57	0	278	0	0			0	0			1				0	
6.6.1	win	2023-06-23	22:21:44	22:33:36	705368	63d8665164999168637f2029	4	1	main_slash	11	main_slash	153	stimuli_target_squaretriangles.svg	stimuli_distractor_diamondtriangles.svg	7	yes	53	1	1557	0	0			0	0			1				0	
6.6.1	win	2023-06-23	22:21:44	22:33:36	705368	63d8665164999168637f2029	4	1	main_slash	11	advance_on_keypress_SLASH	154	stimuli_target_squaretriangles.svg	stimuli_distractor_diamondtriangles.svg	7	yes	57	0	288	0	0			0	0			1				0	
6.6.1	win	2023-06-23	22:21:44	22:33:39	708311	63d8665164999168637f2029	4	1	main_slash	11	main_slash	155	stimuli_distractor_diamondtriangles.svg	stimuli_distractor_diamondtriangles.svg	40	no	0	1	2000	0	0			0	0			1				0	
6.6.1	win	2023-06-23	22:21:44	22:33:39	708311	63d8665164999168637f2029	4	1	main_slash	11	advance_on_keypress_SLASH	156	stimuli_distractor_diamondtriangles.svg	stimuli_distractor_diamondtriangles.svg	40	no	57	0	851	0	0			0	0			1				0	
6.6.1	win	2023-06-23	22:21:44	22:33:42	710669	63d8665164999168637f2029	4	1	main_slash	11	main_slash	157	stimuli_target_diamondrectangles.svg	stimuli_distractor_diamondtriangles.svg	23	yes	53	1	859	0	0			0	0			1				0	
6.6.1	win	2023-06-23	22:21:44	22:33:42	710669	63d8665164999168637f2029	4	1	main_slash	11	advance_on_keypress_SLASH	158	stimuli_target_diamondrectangles.svg	stimuli_distractor_diamondtriangles.svg	23	yes	57	0	288	0	0			0	0			1				0	
6.6.1	win	2023-06-23	22:21:44	22:33:43	712352	63d8665164999168637f2029	4	1	main_slash	11	main_slash	159	stimuli_target_diamondsquares.svg	stimuli_distractor_diamondtriangles.svg	24	yes	53	1	742	0	0			0	0			1				0	
6.6.1	win	2023-06-23	22:21:44	22:33:43	712352	63d8665164999168637f2029	4	1	main_slash	11	advance_on_keypress_SLASH	160	stimuli_target_diamondsquares.svg	stimuli_distractor_diamondtriangles.svg	24	yes	57	0	305	0	0			0	0			1				0	
6.6.1	win	2023-06-23	22:21:44	22:33:43	712352	63d8665164999168637f2029	4	1	headphonecheck_calibration	14	headphonecheck_calibrationIntro	1	stimuli_target_diamondsquares.svg	stimuli_distractor_diamondtriangles.svg	24	yes	calibrationButton	0	1388	0	0			0	0			1				0	
6.6.1	win	2023-06-23	22:21:44	22:33:43	712352	63d8665164999168637f2029	4	1	headphonecheck_testphase	15	test_collectResponse	3	stimuli_target_diamondsquares.svg	stimuli_distractor_diamondtriangles.svg	24	yes	first	1	6811	1	4	antiphase_hc_sio.wav	1	0	0			1				0	
6.6.1	win	2023-06-23	22:21:44	22:33:43	712352	63d8665164999168637f2029	4	1	headphonecheck_testphase	15	test_collectResponse	6	stimuli_target_diamondsquares.svg	stimuli_distractor_diamondtriangles.svg	24	yes	third	1	255	2	2	antiphase_hc_ios.wav	3	0	0			1				0	
6.6.1	win	2023-06-23	22:21:44	22:33:43	712352	63d8665164999168637f2029	4	1	headphonecheck_testphase	15	test_collectResponse	9	stimuli_target_diamondsquares.svg	stimuli_distractor_diamondtriangles.svg	24	yes	first	1	193	3	3	antiphase_hc_soi.wav	1	0	0			1				0	
6.6.1	win	2023-06-23	22:21:44	22:33:43	712352	63d8665164999168637f2029	4	1	headphonecheck_testphase	15	test_collectResponse	12	stimuli_target_diamondsquares.svg	stimuli_distractor_diamondtriangles.svg	24	yes	second	1	193	4	5	antiphase_hc_osi.wav	2	0	0			1				0	
6.6.1	win	2023-06-23	22:21:44	22:33:43	712352	63d8665164999168637f2029	4	1	headphonecheck_testphase	15	test_collectResponse	15	stimuli_target_diamondsquares.svg	stimuli_distractor_diamondtriangles.svg	24	yes	second	1	224	5	1	antiphase_hc_iso.wav	2	0	0			1				0	
6.6.1	win	2023-06-23	22:21:44	22:33:43	712352	63d8665164999168637f2029	4	1	headphonecheck_testphase	15	test_collectResponse	18	stimuli_target_diamondsquares.svg	stimuli_distractor_diamondtriangles.svg	24	yes	third	1	154	6	6	antiphase_hc_ois.wav	3	0	0			1				0	
6.6.1	win	2023-06-23	22:21:44	22:33:43	712352	63d8665164999168637f2029	4	1	stereocheck_calibration	17	stereocheck_calibrationIntro	1	stimuli_target_diamondsquares.svg	stimuli_distractor_diamondtriangles.svg	24	yes	stereocheck_calibrationButton	0	4418	6	6	antiphase_hc_ois.wav	3	0	0			1				0	
6.6.1	win	2023-06-23	22:21:44	22:33:43	712352	63d8665164999168637f2029	4	1	stereocheck_testphase	18	stereocheck_test_collectResponse	3	stimuli_target_diamondsquares.svg	stimuli_distractor_diamondtriangles.svg	24	yes	stereocheck_left	1	2997	6	6	antiphase_hc_ois.wav	3	1	3	noise_calib_stim_LEFT.wav	1	1				0	
6.6.1	win	2023-06-23	22:21:44	22:33:43	712352	63d8665164999168637f2029	4	1	stereocheck_testphase	18	stereocheck_test_collectResponse	6	stimuli_target_diamondsquares.svg	stimuli_distractor_diamondtriangles.svg	24	yes	stereocheck_right	1	248	6	6	antiphase_hc_ois.wav	3	2	4	noise_calib_stim_RIGHT.wav	2	1				0	
6.6.1	win	2023-06-23	22:21:44	22:33:43	712352	63d8665164999168637f2029	4	1	stereocheck_testphase	18	stereocheck_test_collectResponse	9	stimuli_target_diamondsquares.svg	stimuli_distractor_diamondtriangles.svg	24	yes	stereocheck_right	1	539	6	6	antiphase_hc_ois.wav	3	3	5	noise_calib_stim_RIGHT.wav	2	1				0	
6.6.1	win	2023-06-23	22:21:44	22:33:43	712352	63d8665164999168637f2029	4	1	stereocheck_testphase	18	stereocheck_test_collectResponse	12	stimuli_target_diamondsquares.svg	stimuli_distractor_diamondtriangles.svg	24	yes	stereocheck_right	1	197	6	6	antiphase_hc_ois.wav	3	4	6	noise_calib_stim_RIGHT.wav	2	1				0	
6.6.1	win	2023-06-23	22:21:44	22:33:43	712352	63d8665164999168637f2029	4	1	stereocheck_testphase	18	stereocheck_test_collectResponse	15	stimuli_target_diamondsquares.svg	stimuli_distractor_diamondtriangles.svg	24	yes	stereocheck_left	1	186	6	6	antiphase_hc_ois.wav	3	5	1	noise_calib_stim_LEFT.wav	1	1				0	
6.6.1	win	2023-06-23	22:21:44	22:33:43	712352	63d8665164999168637f2029	4	1	stereocheck_testphase	18	stereocheck_test_collectResponse	18	stimuli_target_diamondsquares.svg	stimuli_distractor_diamondtriangles.svg	24	yes	stereocheck_left	1	265	6	6	antiphase_hc_ois.wav	3	6	2	noise_calib_stim_LEFT.wav	1	1				0	
6.6.1	win	2023-06-23	22:21:44	22:33:43	712352	63d8665164999168637f2029	4	1	DL_practice	21	DL_practice	2	stimuli_target_diamondsquares.svg	stimuli_distractor_diamondtriangles.svg	24	yes	ga	1	1007	6	6	antiphase_hc_ois.wav	3	6	2	noise_calib_stim_LEFT.wav	1	15	blb_dichoticlistening_ga-ga.mp3	ga	ga	0	left
6.6.1	win	2023-06-23	22:21:44	22:33:43	712352	63d8665164999168637f2029	4	1	DL_practice	21	DL_practice	3	stimuli_target_diamondsquares.svg	stimuli_distractor_diamondtriangles.svg	24	yes	ka	1	1069	6	6	antiphase_hc_ois.wav	3	6	2	noise_calib_stim_LEFT.wav	1	23	blb_dichoticlistening_ka-pa.mp3	ka	pa	1	left
6.6.1	win	2023-06-23	22:21:44	22:33:43	712352	63d8665164999168637f2029	4	1	DL_practice	21	DL_practice	4	stimuli_target_diamondsquares.svg	stimuli_distractor_diamondtriangles.svg	24	yes	ka	1	719	6	6	antiphase_hc_ois.wav	3	6	2	noise_calib_stim_LEFT.wav	1	22	blb_dichoticlistening_ka-ka.mp3	ka	ka	0	left
6.6.1	win	2023-06-23	22:21:44	22:33:43	712352	63d8665164999168637f2029	4	1	DL_practice	21	DL_practice	5	stimuli_target_diamondsquares.svg	stimuli_distractor_diamondtriangles.svg	24	yes	ka	0	1260	6	6	antiphase_hc_ois.wav	3	6	2	noise_calib_stim_LEFT.wav	1	18	blb_dichoticlistening_ga-ta.mp3	ga	ta	1	other
6.6.1	win	2023-06-23	22:21:44	22:33:43	712352	63d8665164999168637f2029	4	1	DL_practice	21	DL_practice	6	stimuli_target_diamondsquares.svg	stimuli_distractor_diamondtriangles.svg	24	yes	pa	1	2346	6	6	antiphase_hc_ois.wav	3	6	2	noise_calib_stim_LEFT.wav	1	29	blb_dichoticlistening_pa-pa.mp3	pa	pa	0	left
6.6.1	win	2023-06-23	22:21:44	22:33:43	712352	63d8665164999168637f2029	4	1	DL_practice	21	DL_practice	7	stimuli_target_diamondsquares.svg	stimuli_distractor_diamondtriangles.svg	24	yes	ba	1	1322	6	6	antiphase_hc_ois.wav	3	6	2	noise_calib_stim_LEFT.wav	1	1	blb_dichoticlistening_ba-ba.mp3	ba	ba	0	left
6.6.1	win	2023-06-23	22:21:44	22:33:43	712352	63d8665164999168637f2029	4	1	DL_practice	21	DL_practice	8	stimuli_target_diamondsquares.svg	stimuli_distractor_diamondtriangles.svg	24	yes	da	1	1042	6	6	antiphase_hc_ois.wav	3	6	2	noise_calib_stim_LEFT.wav	1	7	blb_dichoticlistening_da-ba.mp3	da	ba	1	left
6.6.1	win	2023-06-23	22:21:44	22:33:43	712352	63d8665164999168637f2029	4	1	DL_practice	21	DL_practice	9	stimuli_target_diamondsquares.svg	stimuli_distractor_diamondtriangles.svg	24	yes	ta	1	1310	6	6	antiphase_hc_ois.wav	3	6	2	noise_calib_stim_LEFT.wav	1	36	blb_dichoticlistening_ta-ta.mp3	ta	ta	0	left
6.6.1	win	2023-06-23	22:21:44	22:33:43	712352	63d8665164999168637f2029	4	1	DL_practice	21	DL_practice	10	stimuli_target_diamondsquares.svg	stimuli_distractor_diamondtriangles.svg	24	yes	da	1	838	6	6	antiphase_hc_ois.wav	3	6	2	noise_calib_stim_LEFT.wav	1	8	blb_dichoticlistening_da-da.mp3	da	da	0	left
6.6.1	win	2023-06-23	22:21:44	22:33:43	712352	63d8665164999168637f2029	4	1	DL_test	23	DL_test	1	stimuli_target_diamondsquares.svg	stimuli_distractor_diamondtriangles.svg	24	yes	pa	1	1387	6	6	antiphase_hc_ois.wav	3	6	2	noise_calib_stim_LEFT.wav	1	26	blb_dichoticlistening_pa-da.mp3	pa	da	1	left
6.6.1	win	2023-06-23	22:21:44	22:33:43	712352	63d8665164999168637f2029	4	1	DL_test	23	DL_test	2	stimuli_target_diamondsquares.svg	stimuli_distractor_diamondtriangles.svg	24	yes	ka	1	756	6	6	antiphase_hc_ois.wav	3	6	2	noise_calib_stim_LEFT.wav	1	4	blb_dichoticlistening_ba-ka.mp3	ba	ka	1	right
6.6.1	win	2023-06-23	22:21:44	22:33:43	712352	63d8665164999168637f2029	4	1	DL_test	23	DL_test	3	stimuli_target_diamondsquares.svg	stimuli_distractor_diamondtriangles.svg	24	yes	pa	1	1179	6	6	antiphase_hc_ois.wav	3	6	2	noise_calib_stim_LEFT.wav	1	11	blb_dichoticlistening_da-pa.mp3	da	pa	1	right
6.6.1	win	2023-06-23	22:21:44	22:33:43	712352	63d8665164999168637f2029	4	1	DL_test	23	DL_test	4	stimuli_target_diamondsquares.svg	stimuli_distractor_diamondtriangles.svg	24	yes	ga	1	1302	6	6	antiphase_hc_ois.wav	3	6	2	noise_calib_stim_LEFT.wav	1	33	blb_dichoticlistening_ta-ga.mp3	ta	ga	1	right
6.6.1	win	2023-06-23	22:21:44	22:33:43	712352	63d8665164999168637f2029	4	1	DL_test	23	DL_test	5	stimuli_target_diamondsquares.svg	stimuli_distractor_diamondtriangles.svg	24	yes	ba	1	1088	6	6	antiphase_hc_ois.wav	3	6	2	noise_calib_stim_LEFT.wav	1	1	blb_dichoticlistening_ba-ba.mp3	ba	ba	0	left
6.6.1	win	2023-06-23	22:21:44	22:33:43	712352	63d8665164999168637f2029	4	1	DL_test	23	DL_test	6	stimuli_target_diamondsquares.svg	stimuli_distractor_diamondtriangles.svg	24	yes	ta	1	1035	6	6	antiphase_hc_ois.wav	3	6	2	noise_calib_stim_LEFT.wav	1	6	blb_dichoticlistening_ba-ta.mp3	ba	ta	1	right
6.6.1	win	2023-06-23	22:21:44	22:33:43	712352	63d8665164999168637f2029	4	1	DL_test	23	DL_test	7	stimuli_target_diamondsquares.svg	stimuli_distractor_diamondtriangles.svg	24	yes	da	1	782	6	6	antiphase_hc_ois.wav	3	6	2	noise_calib_stim_LEFT.wav	1	9	blb_dichoticlistening_da-ga.mp3	da	ga	1	left
6.6.1	win	2023-06-23	22:21:44	22:33:43	712352	63d8665164999168637f2029	4	1	DL_test	23	DL_test	8	stimuli_target_diamondsquares.svg	stimuli_distractor_diamondtriangles.svg	24	yes	ba	1	1275	6	6	antiphase_hc_ois.wav	3	6	2	noise_calib_stim_LEFT.wav	1	19	blb_dichoticlistening_ka-ba.mp3	ka	ba	1	right
6.6.1	win	2023-06-23	22:21:44	22:33:43	712352	63d8665164999168637f2029	4	1	DL_test	23	DL_test	9	stimuli_target_diamondsquares.svg	stimuli_distractor_diamondtriangles.svg	24	yes	da	1	930	6	6	antiphase_hc_ois.wav	3	6	2	noise_calib_stim_LEFT.wav	1	2	blb_dichoticlistening_ba-da.mp3	ba	da	1	right
6.6.1	win	2023-06-23	22:21:44	22:33:43	712352	63d8665164999168637f2029	4	1	DL_test	23	DL_test	10	stimuli_target_diamondsquares.svg	stimuli_distractor_diamondtriangles.svg	24	yes	ta	1	964	6	6	antiphase_hc_ois.wav	3	6	2	noise_calib_stim_LEFT.wav	1	36	blb_dichoticlistening_ta-ta.mp3	ta	ta	0	left
6.6.1	win	2023-06-23	22:21:44	22:33:43	712352	63d8665164999168637f2029	4	1	DL_test	23	DL_test	11	stimuli_target_diamondsquares.svg	stimuli_distractor_diamondtriangles.svg	24	yes	da	1	1146	6	6	antiphase_hc_ois.wav	3	6	2	noise_calib_stim_LEFT.wav	1	8	blb_dichoticlistening_da-da.mp3	da	da	0	left
6.6.1	win	2023-06-23	22:21:44	22:33:43	712352	63d8665164999168637f2029	4	1	DL_test	23	DL_test	12	stimuli_target_diamondsquares.svg	stimuli_distractor_diamondtriangles.svg	24	yes	ta	1	1288	6	6	antiphase_hc_ois.wav	3	6	2	noise_calib_stim_LEFT.wav	1	12	blb_dichoticlistening_da-ta.mp3	da	ta	1	right
6.6.1	win	2023-06-23	22:21:44	22:33:43	712352	63d8665164999168637f2029	4	1	DL_test	23	DL_test	13	stimuli_target_diamondsquares.svg	stimuli_distractor_diamondtriangles.svg	24	yes	ka	1	730	6	6	antiphase_hc_ois.wav	3	6	2	noise_calib_stim_LEFT.wav	1	23	blb_dichoticlistening_ka-pa.mp3	ka	pa	1	left
6.6.1	win	2023-06-23	22:21:44	22:33:43	712352	63d8665164999168637f2029	4	1	DL_test	23	DL_test	14	stimuli_target_diamondsquares.svg	stimuli_distractor_diamondtriangles.svg	24	yes	pa	1	834	6	6	antiphase_hc_ois.wav	3	6	2	noise_calib_stim_LEFT.wav	1	25	blb_dichoticlistening_pa-ba.mp3	pa	ba	1	left
6.6.1	win	2023-06-23	22:21:44	22:33:43	712352	63d8665164999168637f2029	4	1	DL_test	23	DL_test	15	stimuli_target_diamondsquares.svg	stimuli_distractor_diamondtriangles.svg	24	yes	pa	1	1365	6	6	antiphase_hc_ois.wav	3	6	2	noise_calib_stim_LEFT.wav	1	35	blb_dichoticlistening_ta-pa.mp3	ta	pa	1	right
6.6.1	win	2023-06-23	22:21:44	22:33:43	712352	63d8665164999168637f2029	4	1	DL_test	23	DL_test	16	stimuli_target_diamondsquares.svg	stimuli_distractor_diamondtriangles.svg	24	yes	ta	1	707	6	6	antiphase_hc_ois.wav	3	6	2	noise_calib_stim_LEFT.wav	1	30	blb_dichoticlistening_pa-ta.mp3	pa	ta	1	right
6.6.1	win	2023-06-23	22:21:44	22:33:43	712352	63d8665164999168637f2029	4	1	DL_test	23	DL_test	17	stimuli_target_diamondsquares.svg	stimuli_distractor_diamondtriangles.svg	24	yes	ga	1	951	6	6	antiphase_hc_ois.wav	3	6	2	noise_calib_stim_LEFT.wav	1	3	blb_dichoticlistening_ba-ga.mp3	ba	ga	1	right
6.6.1	win	2023-06-23	22:21:44	22:33:43	712352	63d8665164999168637f2029	4	1	DL_test	23	DL_test	18	stimuli_target_diamondsquares.svg	stimuli_distractor_diamondtriangles.svg	24	yes	ta	1	2700	6	6	antiphase_hc_ois.wav	3	6	2	noise_calib_stim_LEFT.wav	1	32	blb_dichoticlistening_ta-da.mp3	ta	da	1	left
6.6.1	win	2023-06-23	22:21:44	22:33:43	712352	63d8665164999168637f2029	4	1	DL_test	23	DL_test	19	stimuli_target_diamondsquares.svg	stimuli_distractor_diamondtriangles.svg	24	yes	ba	1	1076	6	6	antiphase_hc_ois.wav	3	6	2	noise_calib_stim_LEFT.wav	1	31	blb_dichoticlistening_ta-ba.mp3	ta	ba	1	right
6.6.1	win	2023-06-23	22:21:44	22:33:43	712352	63d8665164999168637f2029	4	1	DL_test	23	DL_test	20	stimuli_target_diamondsquares.svg	stimuli_distractor_diamondtriangles.svg	24	yes	ga	1	1422	6	6	antiphase_hc_ois.wav	3	6	2	noise_calib_stim_LEFT.wav	1	13	blb_dichoticlistening_ga-ba.mp3	ga	ba	1	left
6.6.1	win	2023-06-23	22:21:44	22:33:43	712352	63d8665164999168637f2029	4	1	DL_test	23	DL_test	21	stimuli_target_diamondsquares.svg	stimuli_distractor_diamondtriangles.svg	24	yes	ka	1	822	6	6	antiphase_hc_ois.wav	3	6	2	noise_calib_stim_LEFT.wav	1	28	blb_dichoticlistening_pa-ka.mp3	pa	ka	1	right
6.6.1	win	2023-06-23	22:21:44	22:33:43	712352	63d8665164999168637f2029	4	1	DL_test	23	DL_test	22	stimuli_target_diamondsquares.svg	stimuli_distractor_diamondtriangles.svg	24	yes	ta	1	1188	6	6	antiphase_hc_ois.wav	3	6	2	noise_calib_stim_LEFT.wav	1	18	blb_dichoticlistening_ga-ta.mp3	ga	ta	1	right
6.6.1	win	2023-06-23	22:21:44	22:33:43	712352	63d8665164999168637f2029	4	1	DL_test	23	DL_test	23	stimuli_target_diamondsquares.svg	stimuli_distractor_diamondtriangles.svg	24	yes	ka	1	895	6	6	antiphase_hc_ois.wav	3	6	2	noise_calib_stim_LEFT.wav	1	24	blb_dichoticlistening_ka-ta.mp3	ka	ta	1	left
6.6.1	win	2023-06-23	22:21:44	22:33:43	712352	63d8665164999168637f2029	4	1	DL_test	23	DL_test	24	stimuli_target_diamondsquares.svg	stimuli_distractor_diamondtriangles.svg	24	yes	ga	1	894	6	6	antiphase_hc_ois.wav	3	6	2	noise_calib_stim_LEFT.wav	1	14	blb_dichoticlistening_ga-da.mp3	ga	da	1	left
6.6.1	win	2023-06-23	22:21:44	22:33:43	712352	63d8665164999168637f2029	4	1	DL_test	23	DL_test	25	stimuli_target_diamondsquares.svg	stimuli_distractor_diamondtriangles.svg	24	yes	pa	0	763	6	6	antiphase_hc_ois.wav	3	6	2	noise_calib_stim_LEFT.wav	1	10	blb_dichoticlistening_da-ka.mp3	da	ka	1	other
6.6.1	win	2023-06-23	22:21:44	22:33:43	712352	63d8665164999168637f2029	4	1	DL_test	23	DL_test	26	stimuli_target_diamondsquares.svg	stimuli_distractor_diamondtriangles.svg	24	yes	pa	1	653	6	6	antiphase_hc_ois.wav	3	6	2	noise_calib_stim_LEFT.wav	1	5	blb_dichoticlistening_ba-pa.mp3	ba	pa	1	right
