build	computer.platform	date	time	timestamp	time_elapsed_ms	subject	group	session	blockcode	blocknum	trialcode	trialnum	stimulus_left	stimulus_right	stim_index	target_present	response	correct	latency	headphonecheck_countTestTrials	headphonecheck_index	headphonecheck_testSound	headphonecheck_correctResponse	stereocheck_countTestTrials	stereocheck_index	stereocheck_testSound	stereocheck_correctResponse	DL_index	DL_soundfile	DL_leftSound	DL_rightSound	DL_dualSound	DL_choice
6.6.1	win	2023-06-26	21:39:48	0	0	5ec62902bb44c16b842128f9	1	1	headphonecheck_calibration	4	headphonecheck_calibrationIntro	1			0		calibrationButton	0	1205	0	0			0	0			1				0	
6.6.1	win	2023-06-26	21:39:48	0	0	5ec62902bb44c16b842128f9	1	1	headphonecheck_testphase	5	test_collectResponse	3			0		first	1	337	1	3	antiphase_hc_soi.wav	1	0	0			1				0	
6.6.1	win	2023-06-26	21:39:48	0	0	5ec62902bb44c16b842128f9	1	1	headphonecheck_testphase	5	test_collectResponse	6			0		second	1	2299	2	1	antiphase_hc_iso.wav	2	0	0			1				0	
6.6.1	win	2023-06-26	21:39:48	0	0	5ec62902bb44c16b842128f9	1	1	headphonecheck_testphase	5	test_collectResponse	9			0		third	1	455	3	6	antiphase_hc_ois.wav	3	0	0			1				0	
6.6.1	win	2023-06-26	21:39:48	0	0	5ec62902bb44c16b842128f9	1	1	headphonecheck_testphase	5	test_collectResponse	12			0		third	1	306	4	2	antiphase_hc_ios.wav	3	0	0			1				0	
6.6.1	win	2023-06-26	21:39:48	0	0	5ec62902bb44c16b842128f9	1	1	headphonecheck_testphase	5	test_collectResponse	15			0		first	1	435	5	4	antiphase_hc_sio.wav	1	0	0			1				0	
6.6.1	win	2023-06-26	21:39:48	0	0	5ec62902bb44c16b842128f9	1	1	headphonecheck_testphase	5	test_collectResponse	18			0		second	1	369	6	5	antiphase_hc_osi.wav	2	0	0			1				0	
6.6.1	win	2023-06-26	21:39:48	0	0	5ec62902bb44c16b842128f9	1	1	stereocheck_calibration	7	stereocheck_calibrationIntro	1			0		stereocheck_calibrationButton	0	3792	6	5	antiphase_hc_osi.wav	2	0	0			1				0	
6.6.1	win	2023-06-26	21:39:48	0	0	5ec62902bb44c16b842128f9	1	1	stereocheck_testphase	8	stereocheck_test_collectResponse	3			0		stereocheck_right	1	2060	6	5	antiphase_hc_osi.wav	2	1	4	noise_calib_stim_RIGHT.wav	2	1				0	
6.6.1	win	2023-06-26	21:39:48	0	0	5ec62902bb44c16b842128f9	1	1	stereocheck_testphase	8	stereocheck_test_collectResponse	6			0		stereocheck_right	1	708	6	5	antiphase_hc_osi.wav	2	2	6	noise_calib_stim_RIGHT.wav	2	1				0	
6.6.1	win	2023-06-26	21:39:48	0	0	5ec62902bb44c16b842128f9	1	1	stereocheck_testphase	8	stereocheck_test_collectResponse	9			0		stereocheck_left	1	299	6	5	antiphase_hc_osi.wav	2	3	1	noise_calib_stim_LEFT.wav	1	1				0	
6.6.1	win	2023-06-26	21:39:48	0	0	5ec62902bb44c16b842128f9	1	1	stereocheck_testphase	8	stereocheck_test_collectResponse	12			0		stereocheck_left	1	273	6	5	antiphase_hc_osi.wav	2	4	3	noise_calib_stim_LEFT.wav	1	1				0	
6.6.1	win	2023-06-26	21:39:48	0	0	5ec62902bb44c16b842128f9	1	1	stereocheck_testphase	8	stereocheck_test_collectResponse	15			0		stereocheck_left	1	599	6	5	antiphase_hc_osi.wav	2	5	2	noise_calib_stim_LEFT.wav	1	1				0	
6.6.1	win	2023-06-26	21:39:48	0	0	5ec62902bb44c16b842128f9	1	1	stereocheck_testphase	8	stereocheck_test_collectResponse	18			0		stereocheck_right	1	252	6	5	antiphase_hc_osi.wav	2	6	5	noise_calib_stim_RIGHT.wav	2	1				0	
6.6.1	win	2023-06-26	21:39:48	0	0	5ec62902bb44c16b842128f9	1	1	DL_practice	11	DL_practice	2			0		ka	1	1014	6	5	antiphase_hc_osi.wav	2	6	5	noise_calib_stim_RIGHT.wav	2	23	blb_dichoticlistening_ka-pa.mp3	ka	pa	1	left
6.6.1	win	2023-06-26	21:39:48	0	0	5ec62902bb44c16b842128f9	1	1	DL_practice	11	DL_practice	3			0		da	1	797	6	5	antiphase_hc_osi.wav	2	6	5	noise_calib_stim_RIGHT.wav	2	7	blb_dichoticlistening_da-ba.mp3	da	ba	1	left
6.6.1	win	2023-06-26	21:39:48	0	0	5ec62902bb44c16b842128f9	1	1	DL_practice	11	DL_practice	4			0		da	0	788	6	5	antiphase_hc_osi.wav	2	6	5	noise_calib_stim_RIGHT.wav	2	18	blb_dichoticlistening_ga-ta.mp3	ga	ta	1	other
6.6.1	win	2023-06-26	21:39:48	0	0	5ec62902bb44c16b842128f9	1	1	DL_practice	11	DL_practice	5			0		da	1	912	6	5	antiphase_hc_osi.wav	2	6	5	noise_calib_stim_RIGHT.wav	2	8	blb_dichoticlistening_da-da.mp3	da	da	0	left
6.6.1	win	2023-06-26	21:39:48	0	0	5ec62902bb44c16b842128f9	1	1	DL_practice	11	DL_practice	6			0		ba	1	697	6	5	antiphase_hc_osi.wav	2	6	5	noise_calib_stim_RIGHT.wav	2	1	blb_dichoticlistening_ba-ba.mp3	ba	ba	0	left
6.6.1	win	2023-06-26	21:39:48	0	0	5ec62902bb44c16b842128f9	1	1	DL_practice	11	DL_practice	7			0		ka	0	502	6	5	antiphase_hc_osi.wav	2	6	5	noise_calib_stim_RIGHT.wav	2	15	blb_dichoticlistening_ga-ga.mp3	ga	ga	0	other
6.6.1	win	2023-06-26	21:39:48	0	0	5ec62902bb44c16b842128f9	1	1	DL_practice	11	DL_practice	8			0		ka	0	959	6	5	antiphase_hc_osi.wav	2	6	5	noise_calib_stim_RIGHT.wav	2	36	blb_dichoticlistening_ta-ta.mp3	ta	ta	0	other
6.6.1	win	2023-06-26	21:39:48	0	0	5ec62902bb44c16b842128f9	1	1	DL_practice	11	DL_practice	9			0		pa	1	1246	6	5	antiphase_hc_osi.wav	2	6	5	noise_calib_stim_RIGHT.wav	2	29	blb_dichoticlistening_pa-pa.mp3	pa	pa	0	left
6.6.1	win	2023-06-26	21:39:48	0	0	5ec62902bb44c16b842128f9	1	1	DL_practice	11	DL_practice	10			0		ka	1	1412	6	5	antiphase_hc_osi.wav	2	6	5	noise_calib_stim_RIGHT.wav	2	22	blb_dichoticlistening_ka-ka.mp3	ka	ka	0	left
6.6.1	win	2023-06-26	21:39:48	0	0	5ec62902bb44c16b842128f9	1	1	DL_test	13	DL_test	1			0		da	1	903	6	5	antiphase_hc_osi.wav	2	6	5	noise_calib_stim_RIGHT.wav	2	14	blb_dichoticlistening_ga-da.mp3	ga	da	1	right
6.6.1	win	2023-06-26	21:39:48	0	0	5ec62902bb44c16b842128f9	1	1	DL_test	13	DL_test	2			0		ga	1	774	6	5	antiphase_hc_osi.wav	2	6	5	noise_calib_stim_RIGHT.wav	2	18	blb_dichoticlistening_ga-ta.mp3	ga	ta	1	left
6.6.1	win	2023-06-26	21:39:48	0	0	5ec62902bb44c16b842128f9	1	1	DL_test	13	DL_test	3			0		ta	1	1370	6	5	antiphase_hc_osi.wav	2	6	5	noise_calib_stim_RIGHT.wav	2	30	blb_dichoticlistening_pa-ta.mp3	pa	ta	1	right
6.6.1	win	2023-06-26	21:39:48	0	0	5ec62902bb44c16b842128f9	1	1	DL_test	13	DL_test	4			0		da	1	1219	6	5	antiphase_hc_osi.wav	2	6	5	noise_calib_stim_RIGHT.wav	2	9	blb_dichoticlistening_da-ga.mp3	da	ga	1	left
6.6.1	win	2023-06-26	21:39:48	0	0	5ec62902bb44c16b842128f9	1	1	DL_test	13	DL_test	5			0		da	0	1288	6	5	antiphase_hc_osi.wav	2	6	5	noise_calib_stim_RIGHT.wav	2	13	blb_dichoticlistening_ga-ba.mp3	ga	ba	1	other
6.6.1	win	2023-06-26	21:39:48	0	0	5ec62902bb44c16b842128f9	1	1	DL_test	13	DL_test	6			0		ka	1	1195	6	5	antiphase_hc_osi.wav	2	6	5	noise_calib_stim_RIGHT.wav	2	24	blb_dichoticlistening_ka-ta.mp3	ka	ta	1	left
6.6.1	win	2023-06-26	21:39:48	0	0	5ec62902bb44c16b842128f9	1	1	DL_test	13	DL_test	7			0		ka	1	915	6	5	antiphase_hc_osi.wav	2	6	5	noise_calib_stim_RIGHT.wav	2	19	blb_dichoticlistening_ka-ba.mp3	ka	ba	1	left
6.6.1	win	2023-06-26	21:39:48	0	0	5ec62902bb44c16b842128f9	1	1	DL_test	13	DL_test	8			0		da	0	1239	6	5	antiphase_hc_osi.wav	2	6	5	noise_calib_stim_RIGHT.wav	2	31	blb_dichoticlistening_ta-ba.mp3	ta	ba	1	other
6.6.1	win	2023-06-26	21:39:48	0	0	5ec62902bb44c16b842128f9	1	1	DL_test	13	DL_test	9			0		da	1	1435	6	5	antiphase_hc_osi.wav	2	6	5	noise_calib_stim_RIGHT.wav	2	2	blb_dichoticlistening_ba-da.mp3	ba	da	1	right
6.6.1	win	2023-06-26	21:39:48	0	0	5ec62902bb44c16b842128f9	1	1	DL_test	13	DL_test	10			0		ka	1	1323	6	5	antiphase_hc_osi.wav	2	6	5	noise_calib_stim_RIGHT.wav	2	22	blb_dichoticlistening_ka-ka.mp3	ka	ka	0	left
6.6.1	win	2023-06-26	21:39:48	0	0	5ec62902bb44c16b842128f9	1	1	DL_test	13	DL_test	11			0		ka	1	1030	6	5	antiphase_hc_osi.wav	2	6	5	noise_calib_stim_RIGHT.wav	2	34	blb_dichoticlistening_ta-ka.mp3	ta	ka	1	right
6.6.1	win	2023-06-26	21:39:48	0	0	5ec62902bb44c16b842128f9	1	1	DL_test	13	DL_test	12			0		ta	1	2761	6	5	antiphase_hc_osi.wav	2	6	5	noise_calib_stim_RIGHT.wav	2	35	blb_dichoticlistening_ta-pa.mp3	ta	pa	1	left
6.6.1	win	2023-06-26	21:39:48	0	0	5ec62902bb44c16b842128f9	1	1	DL_test	13	DL_test	13			0		ga	1	1006	6	5	antiphase_hc_osi.wav	2	6	5	noise_calib_stim_RIGHT.wav	2	21	blb_dichoticlistening_ka-ga.mp3	ka	ga	1	right
6.6.1	win	2023-06-26	21:39:48	0	0	5ec62902bb44c16b842128f9	1	1	DL_test	13	DL_test	14			0		da	1	1053	6	5	antiphase_hc_osi.wav	2	6	5	noise_calib_stim_RIGHT.wav	2	26	blb_dichoticlistening_pa-da.mp3	pa	da	1	right
6.6.1	win	2023-06-26	21:39:48	0	0	5ec62902bb44c16b842128f9	1	1	DL_test	13	DL_test	15			0		da	1	1848	6	5	antiphase_hc_osi.wav	2	6	5	noise_calib_stim_RIGHT.wav	2	8	blb_dichoticlistening_da-da.mp3	da	da	0	left
6.6.1	win	2023-06-26	21:39:48	0	0	5ec62902bb44c16b842128f9	1	1	DL_test	13	DL_test	16			0		ba	1	1305	6	5	antiphase_hc_osi.wav	2	6	5	noise_calib_stim_RIGHT.wav	2	1	blb_dichoticlistening_ba-ba.mp3	ba	ba	0	left
6.6.1	win	2023-06-26	21:39:48	0	0	5ec62902bb44c16b842128f9	1	1	DL_test	13	DL_test	17			0		ga	1	1025	6	5	antiphase_hc_osi.wav	2	6	5	noise_calib_stim_RIGHT.wav	2	15	blb_dichoticlistening_ga-ga.mp3	ga	ga	0	left
6.6.1	win	2023-06-26	21:39:48	0	0	5ec62902bb44c16b842128f9	1	1	DL_test	13	DL_test	18			0		pa	1	1378	6	5	antiphase_hc_osi.wav	2	6	5	noise_calib_stim_RIGHT.wav	2	29	blb_dichoticlistening_pa-pa.mp3	pa	pa	0	left
6.6.1	win	2023-06-26	21:39:48	0	0	5ec62902bb44c16b842128f9	1	1	DL_test	13	DL_test	19			0		da	0	1133	6	5	antiphase_hc_osi.wav	2	6	5	noise_calib_stim_RIGHT.wav	2	23	blb_dichoticlistening_ka-pa.mp3	ka	pa	1	other
6.6.1	win	2023-06-26	21:39:48	0	0	5ec62902bb44c16b842128f9	1	1	DL_test	13	DL_test	20			0		ga	1	1379	6	5	antiphase_hc_osi.wav	2	6	5	noise_calib_stim_RIGHT.wav	2	16	blb_dichoticlistening_ga-ka.mp3	ga	ka	1	left
6.6.1	win	2023-06-26	21:39:48	0	0	5ec62902bb44c16b842128f9	1	1	DL_test	13	DL_test	21			0		da	1	1454	6	5	antiphase_hc_osi.wav	2	6	5	noise_calib_stim_RIGHT.wav	2	10	blb_dichoticlistening_da-ka.mp3	da	ka	1	left
6.6.1	win	2023-06-26	21:39:48	0	0	5ec62902bb44c16b842128f9	1	1	DL_test	13	DL_test	22			0		ba	1	1865	6	5	antiphase_hc_osi.wav	2	6	5	noise_calib_stim_RIGHT.wav	2	5	blb_dichoticlistening_ba-pa.mp3	ba	pa	1	left
6.6.1	win	2023-06-26	21:39:48	0	0	5ec62902bb44c16b842128f9	1	1	DL_test	13	DL_test	23			0		da	0	1604	6	5	antiphase_hc_osi.wav	2	6	5	noise_calib_stim_RIGHT.wav	2	6	blb_dichoticlistening_ba-ta.mp3	ba	ta	1	other
6.6.1	win	2023-06-26	21:39:48	0	0	5ec62902bb44c16b842128f9	1	1	DL_test	13	DL_test	24			0		ka	1	1298	6	5	antiphase_hc_osi.wav	2	6	5	noise_calib_stim_RIGHT.wav	2	28	blb_dichoticlistening_pa-ka.mp3	pa	ka	1	right
6.6.1	win	2023-06-26	21:39:48	0	0	5ec62902bb44c16b842128f9	1	1	DL_test	13	DL_test	25			0		ta	1	2783	6	5	antiphase_hc_osi.wav	2	6	5	noise_calib_stim_RIGHT.wav	2	36	blb_dichoticlistening_ta-ta.mp3	ta	ta	0	left
6.6.1	win	2023-06-26	21:39:48	0	0	5ec62902bb44c16b842128f9	1	1	DL_test	13	DL_test	26			0		da	1	980	6	5	antiphase_hc_osi.wav	2	6	5	noise_calib_stim_RIGHT.wav	2	7	blb_dichoticlistening_da-ba.mp3	da	ba	1	left
6.6.1	win	2023-06-26	21:39:48	0	0	5ec62902bb44c16b842128f9	1	1	DL_test	13	DL_test	27			0		ga	1	991	6	5	antiphase_hc_osi.wav	2	6	5	noise_calib_stim_RIGHT.wav	2	17	blb_dichoticlistening_ga-pa.mp3	ga	pa	1	left
6.6.1	win	2023-06-26	21:39:48	0	0	5ec62902bb44c16b842128f9	1	1	DL_test	13	DL_test	28			0		ga	1	1660	6	5	antiphase_hc_osi.wav	2	6	5	noise_calib_stim_RIGHT.wav	2	33	blb_dichoticlistening_ta-ga.mp3	ta	ga	1	right
6.6.1	win	2023-06-26	21:39:48	0	0	5ec62902bb44c16b842128f9	1	1	DL_test	13	DL_test	29			0		da	0	2181	6	5	antiphase_hc_osi.wav	2	6	5	noise_calib_stim_RIGHT.wav	2	3	blb_dichoticlistening_ba-ga.mp3	ba	ga	1	other
6.6.1	win	2023-06-26	21:39:48	0	0	5ec62902bb44c16b842128f9	1	1	DL_test	13	DL_test	30			0		ta	0	837	6	5	antiphase_hc_osi.wav	2	6	5	noise_calib_stim_RIGHT.wav	2	4	blb_dichoticlistening_ba-ka.mp3	ba	ka	1	other
6.6.1	win	2023-06-26	21:39:48	0	0	5ec62902bb44c16b842128f9	1	1	DL_test	13	DL_test	31			0		pa	1	1847	6	5	antiphase_hc_osi.wav	2	6	5	noise_calib_stim_RIGHT.wav	2	25	blb_dichoticlistening_pa-ba.mp3	pa	ba	1	left
6.6.1	win	2023-06-26	21:39:48	0	0	5ec62902bb44c16b842128f9	1	1	DL_test	13	DL_test	32			0		ga	0	348	6	5	antiphase_hc_osi.wav	2	6	5	noise_calib_stim_RIGHT.wav	2	20	blb_dichoticlistening_ka-da.mp3	ka	da	1	other
6.6.1	win	2023-06-26	21:39:48	0	0	5ec62902bb44c16b842128f9	1	1	DL_test	13	DL_test	33			0		da	1	114	6	5	antiphase_hc_osi.wav	2	6	5	noise_calib_stim_RIGHT.wav	2	11	blb_dichoticlistening_da-pa.mp3	da	pa	1	left
6.6.1	win	2023-06-26	21:39:48	0	0	5ec62902bb44c16b842128f9	1	1	DL_test	13	DL_test	34			0		da	1	1576	6	5	antiphase_hc_osi.wav	2	6	5	noise_calib_stim_RIGHT.wav	2	12	blb_dichoticlistening_da-ta.mp3	da	ta	1	left
6.6.1	win	2023-06-26	21:39:48	0	0	5ec62902bb44c16b842128f9	1	1	DL_test	13	DL_test	35			0		da	1	656	6	5	antiphase_hc_osi.wav	2	6	5	noise_calib_stim_RIGHT.wav	2	32	blb_dichoticlistening_ta-da.mp3	ta	da	1	right
6.6.1	win	2023-06-26	21:39:48	0	0	5ec62902bb44c16b842128f9	1	1	DL_test	13	DL_test	36			0		ga	1	662	6	5	antiphase_hc_osi.wav	2	6	5	noise_calib_stim_RIGHT.wav	2	27	blb_dichoticlistening_pa-ga.mp3	pa	ga	1	right
6.6.1	win	2023-06-26	21:39:48	0	0	5ec62902bb44c16b842128f9	1	1	DL_test	14	DL_test	1			0		da	1	854	6	5	antiphase_hc_osi.wav	2	6	5	noise_calib_stim_RIGHT.wav	2	7	blb_dichoticlistening_da-ba.mp3	da	ba	1	left
6.6.1	win	2023-06-26	21:39:48	0	0	5ec62902bb44c16b842128f9	1	1	DL_test	14	DL_test	2			0		ba	1	2687	6	5	antiphase_hc_osi.wav	2	6	5	noise_calib_stim_RIGHT.wav	2	5	blb_dichoticlistening_ba-pa.mp3	ba	pa	1	left
6.6.1	win	2023-06-26	21:39:48	0	0	5ec62902bb44c16b842128f9	1	1	DL_test	14	DL_test	3			0		da	1	1243	6	5	antiphase_hc_osi.wav	2	6	5	noise_calib_stim_RIGHT.wav	2	8	blb_dichoticlistening_da-da.mp3	da	da	0	left
6.6.1	win	2023-06-26	21:39:48	0	0	5ec62902bb44c16b842128f9	1	1	DL_test	14	DL_test	4			0		ka	1	1236	6	5	antiphase_hc_osi.wav	2	6	5	noise_calib_stim_RIGHT.wav	2	24	blb_dichoticlistening_ka-ta.mp3	ka	ta	1	left
6.6.1	win	2023-06-26	21:39:48	0	0	5ec62902bb44c16b842128f9	1	1	DL_test	14	DL_test	5			0		ga	1	1175	6	5	antiphase_hc_osi.wav	2	6	5	noise_calib_stim_RIGHT.wav	2	16	blb_dichoticlistening_ga-ka.mp3	ga	ka	1	left
6.6.1	win	2023-06-26	21:39:48	0	0	5ec62902bb44c16b842128f9	1	1	DL_test	14	DL_test	6			0		ka	1	703	6	5	antiphase_hc_osi.wav	2	6	5	noise_calib_stim_RIGHT.wav	2	22	blb_dichoticlistening_ka-ka.mp3	ka	ka	0	left
6.6.1	win	2023-06-26	21:39:48	0	0	5ec62902bb44c16b842128f9	1	1	DL_test	14	DL_test	7			0		da	1	1076	6	5	antiphase_hc_osi.wav	2	6	5	noise_calib_stim_RIGHT.wav	2	2	blb_dichoticlistening_ba-da.mp3	ba	da	1	right
6.6.1	win	2023-06-26	21:39:48	0	0	5ec62902bb44c16b842128f9	1	1	DL_test	14	DL_test	8			0		ta	1	1643	6	5	antiphase_hc_osi.wav	2	6	5	noise_calib_stim_RIGHT.wav	2	35	blb_dichoticlistening_ta-pa.mp3	ta	pa	1	left
6.6.1	win	2023-06-26	21:39:48	0	0	5ec62902bb44c16b842128f9	1	1	DL_test	14	DL_test	9			0		ka	1	1068	6	5	antiphase_hc_osi.wav	2	6	5	noise_calib_stim_RIGHT.wav	2	23	blb_dichoticlistening_ka-pa.mp3	ka	pa	1	left
6.6.1	win	2023-06-26	21:39:48	0	0	5ec62902bb44c16b842128f9	1	1	DL_test	14	DL_test	10			0		da	1	1204	6	5	antiphase_hc_osi.wav	2	6	5	noise_calib_stim_RIGHT.wav	2	12	blb_dichoticlistening_da-ta.mp3	da	ta	1	left
6.6.1	win	2023-06-26	21:39:48	0	0	5ec62902bb44c16b842128f9	1	1	DL_test	14	DL_test	11			0		pa	1	1467	6	5	antiphase_hc_osi.wav	2	6	5	noise_calib_stim_RIGHT.wav	2	29	blb_dichoticlistening_pa-pa.mp3	pa	pa	0	left
6.6.1	win	2023-06-26	21:39:48	0	0	5ec62902bb44c16b842128f9	1	1	DL_test	14	DL_test	12			0		ta	1	1573	6	5	antiphase_hc_osi.wav	2	6	5	noise_calib_stim_RIGHT.wav	2	30	blb_dichoticlistening_pa-ta.mp3	pa	ta	1	right
6.6.1	win	2023-06-26	21:39:48	0	0	5ec62902bb44c16b842128f9	1	1	DL_test	14	DL_test	13			0		ga	1	1785	6	5	antiphase_hc_osi.wav	2	6	5	noise_calib_stim_RIGHT.wav	2	21	blb_dichoticlistening_ka-ga.mp3	ka	ga	1	right
6.6.1	win	2023-06-26	21:39:48	0	0	5ec62902bb44c16b842128f9	1	1	DL_test	14	DL_test	14			0		da	0	1951	6	5	antiphase_hc_osi.wav	2	6	5	noise_calib_stim_RIGHT.wav	2	3	blb_dichoticlistening_ba-ga.mp3	ba	ga	1	other
6.6.1	win	2023-06-26	21:39:48	0	0	5ec62902bb44c16b842128f9	1	1	DL_test	14	DL_test	15			0		ba	1	3463	6	5	antiphase_hc_osi.wav	2	6	5	noise_calib_stim_RIGHT.wav	2	25	blb_dichoticlistening_pa-ba.mp3	pa	ba	1	right
6.6.1	win	2023-06-26	21:39:48	0	0	5ec62902bb44c16b842128f9	1	1	DL_test	14	DL_test	16			0		ka	1	1281	6	5	antiphase_hc_osi.wav	2	6	5	noise_calib_stim_RIGHT.wav	2	34	blb_dichoticlistening_ta-ka.mp3	ta	ka	1	right
6.6.1	win	2023-06-26	21:39:48	0	0	5ec62902bb44c16b842128f9	1	1	DL_test	14	DL_test	17			0		da	0	1258	6	5	antiphase_hc_osi.wav	2	6	5	noise_calib_stim_RIGHT.wav	2	1	blb_dichoticlistening_ba-ba.mp3	ba	ba	0	other
6.6.1	win	2023-06-26	21:39:48	0	0	5ec62902bb44c16b842128f9	1	1	DL_test	14	DL_test	18			0		ka	1	865	6	5	antiphase_hc_osi.wav	2	6	5	noise_calib_stim_RIGHT.wav	2	28	blb_dichoticlistening_pa-ka.mp3	pa	ka	1	right
6.6.1	win	2023-06-26	21:39:48	0	0	5ec62902bb44c16b842128f9	1	1	DL_test	14	DL_test	19			0		ga	1	1077	6	5	antiphase_hc_osi.wav	2	6	5	noise_calib_stim_RIGHT.wav	2	18	blb_dichoticlistening_ga-ta.mp3	ga	ta	1	left
6.6.1	win	2023-06-26	21:39:48	0	0	5ec62902bb44c16b842128f9	1	1	DL_test	14	DL_test	20			0		da	1	1246	6	5	antiphase_hc_osi.wav	2	6	5	noise_calib_stim_RIGHT.wav	2	26	blb_dichoticlistening_pa-da.mp3	pa	da	1	right
6.6.1	win	2023-06-26	21:39:48	0	0	5ec62902bb44c16b842128f9	1	1	DL_test	14	DL_test	21			0		ta	1	2163	6	5	antiphase_hc_osi.wav	2	6	5	noise_calib_stim_RIGHT.wav	2	36	blb_dichoticlistening_ta-ta.mp3	ta	ta	0	left
6.6.1	win	2023-06-26	21:39:48	0	0	5ec62902bb44c16b842128f9	1	1	DL_test	14	DL_test	22			0		ga	1	802	6	5	antiphase_hc_osi.wav	2	6	5	noise_calib_stim_RIGHT.wav	2	27	blb_dichoticlistening_pa-ga.mp3	pa	ga	1	right
6.6.1	win	2023-06-26	21:39:48	0	0	5ec62902bb44c16b842128f9	1	1	DL_test	14	DL_test	23			0		ka	1	1913	6	5	antiphase_hc_osi.wav	2	6	5	noise_calib_stim_RIGHT.wav	2	19	blb_dichoticlistening_ka-ba.mp3	ka	ba	1	left
6.6.1	win	2023-06-26	21:39:48	0	0	5ec62902bb44c16b842128f9	1	1	DL_test	14	DL_test	24			0		da	1	1379	6	5	antiphase_hc_osi.wav	2	6	5	noise_calib_stim_RIGHT.wav	2	9	blb_dichoticlistening_da-ga.mp3	da	ga	1	left
6.6.1	win	2023-06-26	21:39:48	0	0	5ec62902bb44c16b842128f9	1	1	DL_test	14	DL_test	25			0		ta	1	1713	6	5	antiphase_hc_osi.wav	2	6	5	noise_calib_stim_RIGHT.wav	2	31	blb_dichoticlistening_ta-ba.mp3	ta	ba	1	left
6.6.1	win	2023-06-26	21:39:48	0	0	5ec62902bb44c16b842128f9	1	1	DL_test	14	DL_test	26			0		ga	1	1528	6	5	antiphase_hc_osi.wav	2	6	5	noise_calib_stim_RIGHT.wav	2	17	blb_dichoticlistening_ga-pa.mp3	ga	pa	1	left
6.6.1	win	2023-06-26	21:39:48	0	0	5ec62902bb44c16b842128f9	1	1	DL_test	14	DL_test	27			0		da	1	1080	6	5	antiphase_hc_osi.wav	2	6	5	noise_calib_stim_RIGHT.wav	2	32	blb_dichoticlistening_ta-da.mp3	ta	da	1	right
6.6.1	win	2023-06-26	21:39:48	0	0	5ec62902bb44c16b842128f9	1	1	DL_test	14	DL_test	28			0		da	1	1436	6	5	antiphase_hc_osi.wav	2	6	5	noise_calib_stim_RIGHT.wav	2	14	blb_dichoticlistening_ga-da.mp3	ga	da	1	right
6.6.1	win	2023-06-26	21:39:48	0	0	5ec62902bb44c16b842128f9	1	1	DL_test	14	DL_test	29			0		ga	1	1226	6	5	antiphase_hc_osi.wav	2	6	5	noise_calib_stim_RIGHT.wav	2	15	blb_dichoticlistening_ga-ga.mp3	ga	ga	0	left
6.6.1	win	2023-06-26	21:39:48	0	0	5ec62902bb44c16b842128f9	1	1	DL_test	14	DL_test	30			0		da	1	1233	6	5	antiphase_hc_osi.wav	2	6	5	noise_calib_stim_RIGHT.wav	2	11	blb_dichoticlistening_da-pa.mp3	da	pa	1	left
6.6.1	win	2023-06-26	21:39:48	0	0	5ec62902bb44c16b842128f9	1	1	DL_test	14	DL_test	31			0		ga	0	1186	6	5	antiphase_hc_osi.wav	2	6	5	noise_calib_stim_RIGHT.wav	2	20	blb_dichoticlistening_ka-da.mp3	ka	da	1	other
6.6.1	win	2023-06-26	21:39:48	0	0	5ec62902bb44c16b842128f9	1	1	DL_test	14	DL_test	32			0		da	1	1063	6	5	antiphase_hc_osi.wav	2	6	5	noise_calib_stim_RIGHT.wav	2	10	blb_dichoticlistening_da-ka.mp3	da	ka	1	left
6.6.1	win	2023-06-26	21:39:48	0	0	5ec62902bb44c16b842128f9	1	1	DL_test	14	DL_test	33			0		ka	1	1563	6	5	antiphase_hc_osi.wav	2	6	5	noise_calib_stim_RIGHT.wav	2	4	blb_dichoticlistening_ba-ka.mp3	ba	ka	1	right
6.6.1	win	2023-06-26	21:39:48	0	0	5ec62902bb44c16b842128f9	1	1	DL_test	14	DL_test	34			0		da	0	986	6	5	antiphase_hc_osi.wav	2	6	5	noise_calib_stim_RIGHT.wav	2	13	blb_dichoticlistening_ga-ba.mp3	ga	ba	1	other
6.6.1	win	2023-06-26	21:39:48	0	0	5ec62902bb44c16b842128f9	1	1	DL_test	14	DL_test	35			0		ga	1	715	6	5	antiphase_hc_osi.wav	2	6	5	noise_calib_stim_RIGHT.wav	2	33	blb_dichoticlistening_ta-ga.mp3	ta	ga	1	right
6.6.1	win	2023-06-26	21:39:48	0	0	5ec62902bb44c16b842128f9	1	1	DL_test	14	DL_test	36			0		ta	1	1380	6	5	antiphase_hc_osi.wav	2	6	5	noise_calib_stim_RIGHT.wav	2	6	blb_dichoticlistening_ba-ta.mp3	ba	ta	1	right
6.6.1	win	2023-06-26	21:39:48	0	0	5ec62902bb44c16b842128f9	1	1	DL_test	15	DL_test	1			0		da	1	1375	6	5	antiphase_hc_osi.wav	2	6	5	noise_calib_stim_RIGHT.wav	2	32	blb_dichoticlistening_ta-da.mp3	ta	da	1	right
6.6.1	win	2023-06-26	21:39:48	0	0	5ec62902bb44c16b842128f9	1	1	DL_test	15	DL_test	2			0		ka	1	1114	6	5	antiphase_hc_osi.wav	2	6	5	noise_calib_stim_RIGHT.wav	2	28	blb_dichoticlistening_pa-ka.mp3	pa	ka	1	right
6.6.1	win	2023-06-26	21:39:48	0	0	5ec62902bb44c16b842128f9	1	1	DL_test	15	DL_test	3			0		ka	1	1692	6	5	antiphase_hc_osi.wav	2	6	5	noise_calib_stim_RIGHT.wav	2	19	blb_dichoticlistening_ka-ba.mp3	ka	ba	1	left
6.6.1	win	2023-06-26	21:39:48	0	0	5ec62902bb44c16b842128f9	1	1	DL_test	15	DL_test	4			0		ga	1	2104	6	5	antiphase_hc_osi.wav	2	6	5	noise_calib_stim_RIGHT.wav	2	21	blb_dichoticlistening_ka-ga.mp3	ka	ga	1	right
6.6.1	win	2023-06-26	21:39:48	0	0	5ec62902bb44c16b842128f9	1	1	DL_test	15	DL_test	5			0		ba	1	1419	6	5	antiphase_hc_osi.wav	2	6	5	noise_calib_stim_RIGHT.wav	2	1	blb_dichoticlistening_ba-ba.mp3	ba	ba	0	left
6.6.1	win	2023-06-26	21:39:48	0	0	5ec62902bb44c16b842128f9	1	1	DL_test	15	DL_test	6			0		ba	1	1946	6	5	antiphase_hc_osi.wav	2	6	5	noise_calib_stim_RIGHT.wav	2	3	blb_dichoticlistening_ba-ga.mp3	ba	ga	1	left
6.6.1	win	2023-06-26	21:39:48	0	0	5ec62902bb44c16b842128f9	1	1	DL_test	15	DL_test	7			0		ka	0	2926	6	5	antiphase_hc_osi.wav	2	6	5	noise_calib_stim_RIGHT.wav	2	18	blb_dichoticlistening_ga-ta.mp3	ga	ta	1	other
6.6.1	win	2023-06-26	21:39:48	0	0	5ec62902bb44c16b842128f9	1	1	DL_test	15	DL_test	8			0		ga	1	1494	6	5	antiphase_hc_osi.wav	2	6	5	noise_calib_stim_RIGHT.wav	2	15	blb_dichoticlistening_ga-ga.mp3	ga	ga	0	left
6.6.1	win	2023-06-26	21:39:48	0	0	5ec62902bb44c16b842128f9	1	1	DL_test	15	DL_test	9			0		ka	0	988	6	5	antiphase_hc_osi.wav	2	6	5	noise_calib_stim_RIGHT.wav	2	36	blb_dichoticlistening_ta-ta.mp3	ta	ta	0	other
6.6.1	win	2023-06-26	21:39:48	0	0	5ec62902bb44c16b842128f9	1	1	DL_test	15	DL_test	10			0		ka	1	2274	6	5	antiphase_hc_osi.wav	2	6	5	noise_calib_stim_RIGHT.wav	2	10	blb_dichoticlistening_da-ka.mp3	da	ka	1	right
6.6.1	win	2023-06-26	21:39:48	0	0	5ec62902bb44c16b842128f9	1	1	DL_test	15	DL_test	11			0		ba	0	5787	6	5	antiphase_hc_osi.wav	2	6	5	noise_calib_stim_RIGHT.wav	2	16	blb_dichoticlistening_ga-ka.mp3	ga	ka	1	other
6.6.1	win	2023-06-26	21:39:48	0	0	5ec62902bb44c16b842128f9	1	1	DL_test	15	DL_test	12			0		ga	0	6485	6	5	antiphase_hc_osi.wav	2	6	5	noise_calib_stim_RIGHT.wav	2	29	blb_dichoticlistening_pa-pa.mp3	pa	pa	0	other
6.6.1	win	2023-06-26	21:39:48	0	0	5ec62902bb44c16b842128f9	1	1	DL_test	15	DL_test	13			0		ga	1	1041	6	5	antiphase_hc_osi.wav	2	6	5	noise_calib_stim_RIGHT.wav	2	13	blb_dichoticlistening_ga-ba.mp3	ga	ba	1	left
6.6.1	win	2023-06-26	21:39:48	0	0	5ec62902bb44c16b842128f9	1	1	DL_test	15	DL_test	14			0		ta	1	1335	6	5	antiphase_hc_osi.wav	2	6	5	noise_calib_stim_RIGHT.wav	2	30	blb_dichoticlistening_pa-ta.mp3	pa	ta	1	right
6.6.1	win	2023-06-26	21:39:48	0	0	5ec62902bb44c16b842128f9	1	1	DL_test	15	DL_test	15			0		ka	1	930	6	5	antiphase_hc_osi.wav	2	6	5	noise_calib_stim_RIGHT.wav	2	22	blb_dichoticlistening_ka-ka.mp3	ka	ka	0	left
6.6.1	win	2023-06-26	21:39:48	0	0	5ec62902bb44c16b842128f9	1	1	DL_test	15	DL_test	16			0		da	1	1054	6	5	antiphase_hc_osi.wav	2	6	5	noise_calib_stim_RIGHT.wav	2	11	blb_dichoticlistening_da-pa.mp3	da	pa	1	left
6.6.1	win	2023-06-26	21:39:48	0	0	5ec62902bb44c16b842128f9	1	1	DL_test	15	DL_test	17			0		ka	1	1559	6	5	antiphase_hc_osi.wav	2	6	5	noise_calib_stim_RIGHT.wav	2	34	blb_dichoticlistening_ta-ka.mp3	ta	ka	1	right
6.6.1	win	2023-06-26	21:39:48	0	0	5ec62902bb44c16b842128f9	1	1	DL_test	15	DL_test	18			0		ka	1	1813	6	5	antiphase_hc_osi.wav	2	6	5	noise_calib_stim_RIGHT.wav	2	4	blb_dichoticlistening_ba-ka.mp3	ba	ka	1	right
6.6.1	win	2023-06-26	21:39:48	0	0	5ec62902bb44c16b842128f9	1	1	DL_test	15	DL_test	19			0		ka	1	896	6	5	antiphase_hc_osi.wav	2	6	5	noise_calib_stim_RIGHT.wav	2	23	blb_dichoticlistening_ka-pa.mp3	ka	pa	1	left
6.6.1	win	2023-06-26	21:39:48	0	0	5ec62902bb44c16b842128f9	1	1	DL_test	15	DL_test	20			0		ba	1	1745	6	5	antiphase_hc_osi.wav	2	6	5	noise_calib_stim_RIGHT.wav	2	2	blb_dichoticlistening_ba-da.mp3	ba	da	1	left
6.6.1	win	2023-06-26	21:39:48	0	0	5ec62902bb44c16b842128f9	1	1	DL_test	15	DL_test	21			0		ga	1	850	6	5	antiphase_hc_osi.wav	2	6	5	noise_calib_stim_RIGHT.wav	2	17	blb_dichoticlistening_ga-pa.mp3	ga	pa	1	left
6.6.1	win	2023-06-26	21:39:48	0	0	5ec62902bb44c16b842128f9	1	1	DL_test	15	DL_test	22			0		da	1	1370	6	5	antiphase_hc_osi.wav	2	6	5	noise_calib_stim_RIGHT.wav	2	12	blb_dichoticlistening_da-ta.mp3	da	ta	1	left
6.6.1	win	2023-06-26	21:39:48	0	0	5ec62902bb44c16b842128f9	1	1	DL_test	15	DL_test	23			0		pa	0	203	6	5	antiphase_hc_osi.wav	2	6	5	noise_calib_stim_RIGHT.wav	2	14	blb_dichoticlistening_ga-da.mp3	ga	da	1	other
6.6.1	win	2023-06-26	21:39:48	0	0	5ec62902bb44c16b842128f9	1	1	DL_test	15	DL_test	24			0		ga	1	1099	6	5	antiphase_hc_osi.wav	2	6	5	noise_calib_stim_RIGHT.wav	2	27	blb_dichoticlistening_pa-ga.mp3	pa	ga	1	right
6.6.1	win	2023-06-26	21:39:48	0	0	5ec62902bb44c16b842128f9	1	1	DL_test	15	DL_test	25			0		ta	1	1387	6	5	antiphase_hc_osi.wav	2	6	5	noise_calib_stim_RIGHT.wav	2	35	blb_dichoticlistening_ta-pa.mp3	ta	pa	1	left
6.6.1	win	2023-06-26	21:39:48	0	0	5ec62902bb44c16b842128f9	1	1	DL_test	15	DL_test	26			0		da	1	1051	6	5	antiphase_hc_osi.wav	2	6	5	noise_calib_stim_RIGHT.wav	2	7	blb_dichoticlistening_da-ba.mp3	da	ba	1	left
6.6.1	win	2023-06-26	21:39:48	0	0	5ec62902bb44c16b842128f9	1	1	DL_test	15	DL_test	27			0		ga	1	983	6	5	antiphase_hc_osi.wav	2	6	5	noise_calib_stim_RIGHT.wav	2	33	blb_dichoticlistening_ta-ga.mp3	ta	ga	1	right
6.6.1	win	2023-06-26	21:39:48	0	0	5ec62902bb44c16b842128f9	1	1	DL_test	15	DL_test	28			0		ba	1	1460	6	5	antiphase_hc_osi.wav	2	6	5	noise_calib_stim_RIGHT.wav	2	5	blb_dichoticlistening_ba-pa.mp3	ba	pa	1	left
6.6.1	win	2023-06-26	21:39:48	0	0	5ec62902bb44c16b842128f9	1	1	DL_test	15	DL_test	29			0		ga	0	637	6	5	antiphase_hc_osi.wav	2	6	5	noise_calib_stim_RIGHT.wav	2	20	blb_dichoticlistening_ka-da.mp3	ka	da	1	other
6.6.1	win	2023-06-26	21:39:48	0	0	5ec62902bb44c16b842128f9	1	1	DL_test	15	DL_test	30			0		ka	0	311	6	5	antiphase_hc_osi.wav	2	6	5	noise_calib_stim_RIGHT.wav	2	6	blb_dichoticlistening_ba-ta.mp3	ba	ta	1	other
6.6.1	win	2023-06-26	21:39:48	0	0	5ec62902bb44c16b842128f9	1	1	DL_test	15	DL_test	31			0		da	1	643	6	5	antiphase_hc_osi.wav	2	6	5	noise_calib_stim_RIGHT.wav	2	9	blb_dichoticlistening_da-ga.mp3	da	ga	1	left
6.6.1	win	2023-06-26	21:39:48	0	0	5ec62902bb44c16b842128f9	1	1	DL_test	15	DL_test	32			0		ga	0	323	6	5	antiphase_hc_osi.wav	2	6	5	noise_calib_stim_RIGHT.wav	2	26	blb_dichoticlistening_pa-da.mp3	pa	da	1	other
6.6.1	win	2023-06-26	21:39:48	0	0	5ec62902bb44c16b842128f9	1	1	DL_test	15	DL_test	33			0		ka	1	1018	6	5	antiphase_hc_osi.wav	2	6	5	noise_calib_stim_RIGHT.wav	2	24	blb_dichoticlistening_ka-ta.mp3	ka	ta	1	left
6.6.1	win	2023-06-26	21:39:48	0	0	5ec62902bb44c16b842128f9	1	1	DL_test	15	DL_test	34			0		da	1	1071	6	5	antiphase_hc_osi.wav	2	6	5	noise_calib_stim_RIGHT.wav	2	8	blb_dichoticlistening_da-da.mp3	da	da	0	left
6.6.1	win	2023-06-26	21:39:48	0	0	5ec62902bb44c16b842128f9	1	1	DL_test	15	DL_test	35			0		ta	1	1827	6	5	antiphase_hc_osi.wav	2	6	5	noise_calib_stim_RIGHT.wav	2	31	blb_dichoticlistening_ta-ba.mp3	ta	ba	1	left
6.6.1	win	2023-06-26	21:39:48	0	0	5ec62902bb44c16b842128f9	1	1	DL_test	15	DL_test	36			0		pa	1	2229	6	5	antiphase_hc_osi.wav	2	6	5	noise_calib_stim_RIGHT.wav	2	25	blb_dichoticlistening_pa-ba.mp3	pa	ba	1	left
6.6.1	win	2023-06-26	21:39:48	0	0	5ec62902bb44c16b842128f9	1	1	DL_test	16	DL_test	1			0		ka	1	724	6	5	antiphase_hc_osi.wav	2	6	5	noise_calib_stim_RIGHT.wav	2	19	blb_dichoticlistening_ka-ba.mp3	ka	ba	1	left
6.6.1	win	2023-06-26	21:39:48	0	0	5ec62902bb44c16b842128f9	1	1	DL_test	16	DL_test	2			0		ga	1	1549	6	5	antiphase_hc_osi.wav	2	6	5	noise_calib_stim_RIGHT.wav	2	21	blb_dichoticlistening_ka-ga.mp3	ka	ga	1	right
6.6.1	win	2023-06-26	21:39:48	0	0	5ec62902bb44c16b842128f9	1	1	DL_test	16	DL_test	3			0		pa	1	1264	6	5	antiphase_hc_osi.wav	2	6	5	noise_calib_stim_RIGHT.wav	2	29	blb_dichoticlistening_pa-pa.mp3	pa	pa	0	left
6.6.1	win	2023-06-26	21:39:48	0	0	5ec62902bb44c16b842128f9	1	1	DL_test	16	DL_test	4			0		da	1	1281	6	5	antiphase_hc_osi.wav	2	6	5	noise_calib_stim_RIGHT.wav	2	11	blb_dichoticlistening_da-pa.mp3	da	pa	1	left
6.6.1	win	2023-06-26	21:39:48	0	0	5ec62902bb44c16b842128f9	1	1	DL_test	16	DL_test	5			0		ta	1	1850	6	5	antiphase_hc_osi.wav	2	6	5	noise_calib_stim_RIGHT.wav	2	31	blb_dichoticlistening_ta-ba.mp3	ta	ba	1	left
6.6.1	win	2023-06-26	21:39:48	0	0	5ec62902bb44c16b842128f9	1	1	DL_test	16	DL_test	6			0		da	1	898	6	5	antiphase_hc_osi.wav	2	6	5	noise_calib_stim_RIGHT.wav	2	32	blb_dichoticlistening_ta-da.mp3	ta	da	1	right
6.6.1	win	2023-06-26	21:39:48	0	0	5ec62902bb44c16b842128f9	1	1	DL_test	16	DL_test	7			0		ba	1	1629	6	5	antiphase_hc_osi.wav	2	6	5	noise_calib_stim_RIGHT.wav	2	1	blb_dichoticlistening_ba-ba.mp3	ba	ba	0	left
6.6.1	win	2023-06-26	21:39:48	0	0	5ec62902bb44c16b842128f9	1	1	DL_test	16	DL_test	8			0		da	1	782	6	5	antiphase_hc_osi.wav	2	6	5	noise_calib_stim_RIGHT.wav	2	14	blb_dichoticlistening_ga-da.mp3	ga	da	1	right
6.6.1	win	2023-06-26	21:39:48	0	0	5ec62902bb44c16b842128f9	1	1	DL_test	16	DL_test	9			0		ta	1	1433	6	5	antiphase_hc_osi.wav	2	6	5	noise_calib_stim_RIGHT.wav	2	6	blb_dichoticlistening_ba-ta.mp3	ba	ta	1	right
6.6.1	win	2023-06-26	21:39:48	0	0	5ec62902bb44c16b842128f9	1	1	DL_test	16	DL_test	10			0		da	1	874	6	5	antiphase_hc_osi.wav	2	6	5	noise_calib_stim_RIGHT.wav	2	8	blb_dichoticlistening_da-da.mp3	da	da	0	left
6.6.1	win	2023-06-26	21:39:48	0	0	5ec62902bb44c16b842128f9	1	1	DL_test	16	DL_test	11			0		ga	1	711	6	5	antiphase_hc_osi.wav	2	6	5	noise_calib_stim_RIGHT.wav	2	16	blb_dichoticlistening_ga-ka.mp3	ga	ka	1	left
6.6.1	win	2023-06-26	21:39:48	0	0	5ec62902bb44c16b842128f9	1	1	DL_test	16	DL_test	12			0		ka	1	631	6	5	antiphase_hc_osi.wav	2	6	5	noise_calib_stim_RIGHT.wav	2	34	blb_dichoticlistening_ta-ka.mp3	ta	ka	1	right
6.6.1	win	2023-06-26	21:39:48	0	0	5ec62902bb44c16b842128f9	1	1	DL_test	16	DL_test	13			0		ga	1	1284	6	5	antiphase_hc_osi.wav	2	6	5	noise_calib_stim_RIGHT.wav	2	15	blb_dichoticlistening_ga-ga.mp3	ga	ga	0	left
6.6.1	win	2023-06-26	21:39:48	0	0	5ec62902bb44c16b842128f9	1	1	DL_test	16	DL_test	14			0		pa	1	1324	6	5	antiphase_hc_osi.wav	2	6	5	noise_calib_stim_RIGHT.wav	2	5	blb_dichoticlistening_ba-pa.mp3	ba	pa	1	right
6.6.1	win	2023-06-26	21:39:48	0	0	5ec62902bb44c16b842128f9	1	1	DL_test	16	DL_test	15			0		da	1	1206	6	5	antiphase_hc_osi.wav	2	6	5	noise_calib_stim_RIGHT.wav	2	12	blb_dichoticlistening_da-ta.mp3	da	ta	1	left
6.6.1	win	2023-06-26	21:39:48	0	0	5ec62902bb44c16b842128f9	1	1	DL_test	16	DL_test	16			0		ga	1	687	6	5	antiphase_hc_osi.wav	2	6	5	noise_calib_stim_RIGHT.wav	2	27	blb_dichoticlistening_pa-ga.mp3	pa	ga	1	right
6.6.1	win	2023-06-26	21:39:48	0	0	5ec62902bb44c16b842128f9	1	1	DL_test	16	DL_test	17			0		da	1	825	6	5	antiphase_hc_osi.wav	2	6	5	noise_calib_stim_RIGHT.wav	2	7	blb_dichoticlistening_da-ba.mp3	da	ba	1	left
6.6.1	win	2023-06-26	21:39:48	0	0	5ec62902bb44c16b842128f9	1	1	DL_test	16	DL_test	18			0		da	1	1161	6	5	antiphase_hc_osi.wav	2	6	5	noise_calib_stim_RIGHT.wav	2	9	blb_dichoticlistening_da-ga.mp3	da	ga	1	left
6.6.1	win	2023-06-26	21:39:48	0	0	5ec62902bb44c16b842128f9	1	1	DL_test	16	DL_test	19			0		pa	1	1008	6	5	antiphase_hc_osi.wav	2	6	5	noise_calib_stim_RIGHT.wav	2	25	blb_dichoticlistening_pa-ba.mp3	pa	ba	1	left
6.6.1	win	2023-06-26	21:39:48	0	0	5ec62902bb44c16b842128f9	1	1	DL_test	16	DL_test	20			0		ga	1	954	6	5	antiphase_hc_osi.wav	2	6	5	noise_calib_stim_RIGHT.wav	2	18	blb_dichoticlistening_ga-ta.mp3	ga	ta	1	left
6.6.1	win	2023-06-26	21:39:48	0	0	5ec62902bb44c16b842128f9	1	1	DL_test	16	DL_test	21			0		ka	0	1011	6	5	antiphase_hc_osi.wav	2	6	5	noise_calib_stim_RIGHT.wav	2	36	blb_dichoticlistening_ta-ta.mp3	ta	ta	0	other
6.6.1	win	2023-06-26	21:39:48	0	0	5ec62902bb44c16b842128f9	1	1	DL_test	16	DL_test	22			0		da	1	1223	6	5	antiphase_hc_osi.wav	2	6	5	noise_calib_stim_RIGHT.wav	2	26	blb_dichoticlistening_pa-da.mp3	pa	da	1	right
6.6.1	win	2023-06-26	21:39:48	0	0	5ec62902bb44c16b842128f9	1	1	DL_test	16	DL_test	23			0		da	1	954	6	5	antiphase_hc_osi.wav	2	6	5	noise_calib_stim_RIGHT.wav	2	10	blb_dichoticlistening_da-ka.mp3	da	ka	1	left
6.6.1	win	2023-06-26	21:39:48	0	0	5ec62902bb44c16b842128f9	1	1	DL_test	16	DL_test	24			0		da	1	1305	6	5	antiphase_hc_osi.wav	2	6	5	noise_calib_stim_RIGHT.wav	2	2	blb_dichoticlistening_ba-da.mp3	ba	da	1	right
6.6.1	win	2023-06-26	21:39:48	0	0	5ec62902bb44c16b842128f9	1	1	DL_test	16	DL_test	25			0		ga	1	1031	6	5	antiphase_hc_osi.wav	2	6	5	noise_calib_stim_RIGHT.wav	2	17	blb_dichoticlistening_ga-pa.mp3	ga	pa	1	left
6.6.1	win	2023-06-26	21:39:48	0	0	5ec62902bb44c16b842128f9	1	1	DL_test	16	DL_test	26			0		ka	1	1173	6	5	antiphase_hc_osi.wav	2	6	5	noise_calib_stim_RIGHT.wav	2	4	blb_dichoticlistening_ba-ka.mp3	ba	ka	1	right
6.6.1	win	2023-06-26	21:39:48	0	0	5ec62902bb44c16b842128f9	1	1	DL_test	16	DL_test	27			0		ka	1	743	6	5	antiphase_hc_osi.wav	2	6	5	noise_calib_stim_RIGHT.wav	2	28	blb_dichoticlistening_pa-ka.mp3	pa	ka	1	right
6.6.1	win	2023-06-26	21:39:48	0	0	5ec62902bb44c16b842128f9	1	1	DL_test	16	DL_test	28			0		ga	1	997	6	5	antiphase_hc_osi.wav	2	6	5	noise_calib_stim_RIGHT.wav	2	33	blb_dichoticlistening_ta-ga.mp3	ta	ga	1	right
6.6.1	win	2023-06-26	21:39:48	0	0	5ec62902bb44c16b842128f9	1	1	DL_test	16	DL_test	29			0		ga	1	932	6	5	antiphase_hc_osi.wav	2	6	5	noise_calib_stim_RIGHT.wav	2	3	blb_dichoticlistening_ba-ga.mp3	ba	ga	1	right
6.6.1	win	2023-06-26	21:39:48	0	0	5ec62902bb44c16b842128f9	1	1	DL_test	16	DL_test	30			0		ga	0	975	6	5	antiphase_hc_osi.wav	2	6	5	noise_calib_stim_RIGHT.wav	2	20	blb_dichoticlistening_ka-da.mp3	ka	da	1	other
6.6.1	win	2023-06-26	21:39:48	0	0	5ec62902bb44c16b842128f9	1	1	DL_test	16	DL_test	31			0		ka	1	1371	6	5	antiphase_hc_osi.wav	2	6	5	noise_calib_stim_RIGHT.wav	2	22	blb_dichoticlistening_ka-ka.mp3	ka	ka	0	left
6.6.1	win	2023-06-26	21:39:48	0	0	5ec62902bb44c16b842128f9	1	1	DL_test	16	DL_test	32			0		ka	1	744	6	5	antiphase_hc_osi.wav	2	6	5	noise_calib_stim_RIGHT.wav	2	23	blb_dichoticlistening_ka-pa.mp3	ka	pa	1	left
6.6.1	win	2023-06-26	21:39:48	0	0	5ec62902bb44c16b842128f9	1	1	DL_test	16	DL_test	33			0		ta	1	1762	6	5	antiphase_hc_osi.wav	2	6	5	noise_calib_stim_RIGHT.wav	2	35	blb_dichoticlistening_ta-pa.mp3	ta	pa	1	left
6.6.1	win	2023-06-26	21:39:48	0	0	5ec62902bb44c16b842128f9	1	1	DL_test	16	DL_test	34			0		ta	1	534	6	5	antiphase_hc_osi.wav	2	6	5	noise_calib_stim_RIGHT.wav	2	30	blb_dichoticlistening_pa-ta.mp3	pa	ta	1	right
6.6.1	win	2023-06-26	21:39:48	0	0	5ec62902bb44c16b842128f9	1	1	DL_test	16	DL_test	35			0		da	0	1084	6	5	antiphase_hc_osi.wav	2	6	5	noise_calib_stim_RIGHT.wav	2	13	blb_dichoticlistening_ga-ba.mp3	ga	ba	1	other
6.6.1	win	2023-06-26	21:39:48	0	0	5ec62902bb44c16b842128f9	1	1	DL_test	16	DL_test	36			0		ka	1	1217	6	5	antiphase_hc_osi.wav	2	6	5	noise_calib_stim_RIGHT.wav	2	24	blb_dichoticlistening_ka-ta.mp3	ka	ta	1	left
6.6.1	win	2023-06-26	21:39:48	21:51:24	691919	5ec62902bb44c16b842128f9	1	1	practice_slash	22	practice_slash	1	stimuli_distractor_trianglediamonds.svg	stimuli_target_rectanglediamonds.svg	10	yes	53	1	1243	6	5	antiphase_hc_osi.wav	2	6	5	noise_calib_stim_RIGHT.wav	2	24	blb_dichoticlistening_ka-ta.mp3	ka	ta	1	left
6.6.1	win	2023-06-26	21:39:48	21:51:24	691919	5ec62902bb44c16b842128f9	1	1	practice_slash	22	advance_on_keypress_SLASH	2	stimuli_distractor_trianglediamonds.svg	stimuli_target_rectanglediamonds.svg	10	yes	57	0	600	6	5	antiphase_hc_osi.wav	2	6	5	noise_calib_stim_RIGHT.wav	2	24	blb_dichoticlistening_ka-ta.mp3	ka	ta	1	left
6.6.1	win	2023-06-26	21:39:48	21:51:27	695015	5ec62902bb44c16b842128f9	1	1	practice_slash	22	practice_slash	3	stimuli_target_squarediamonds.svg	stimuli_distractor_trianglediamonds.svg	5	yes	53	1	841	6	5	antiphase_hc_osi.wav	2	6	5	noise_calib_stim_RIGHT.wav	2	24	blb_dichoticlistening_ka-ta.mp3	ka	ta	1	left
6.6.1	win	2023-06-26	21:39:48	21:51:27	695015	5ec62902bb44c16b842128f9	1	1	practice_slash	22	advance_on_keypress_SLASH	4	stimuli_target_squarediamonds.svg	stimuli_distractor_trianglediamonds.svg	5	yes	57	0	435	6	5	antiphase_hc_osi.wav	2	6	5	noise_calib_stim_RIGHT.wav	2	24	blb_dichoticlistening_ka-ta.mp3	ka	ta	1	left
6.6.1	win	2023-06-26	21:39:48	21:51:30	697881	5ec62902bb44c16b842128f9	1	1	practice_slash	22	practice_slash	5	stimuli_target_squarediamonds.svg	stimuli_distractor_diamondtriangles.svg	2	yes	53	1	791	6	5	antiphase_hc_osi.wav	2	6	5	noise_calib_stim_RIGHT.wav	2	24	blb_dichoticlistening_ka-ta.mp3	ka	ta	1	left
6.6.1	win	2023-06-26	21:39:48	21:51:30	697881	5ec62902bb44c16b842128f9	1	1	practice_slash	22	advance_on_keypress_SLASH	6	stimuli_target_squarediamonds.svg	stimuli_distractor_diamondtriangles.svg	2	yes	57	0	305	6	5	antiphase_hc_osi.wav	2	6	5	noise_calib_stim_RIGHT.wav	2	24	blb_dichoticlistening_ka-ta.mp3	ka	ta	1	left
6.6.1	win	2023-06-26	21:39:48	21:51:33	701283	5ec62902bb44c16b842128f9	1	1	practice_slash	22	practice_slash	7	stimuli_target_rectanglediamonds.svg	stimuli_distractor_diamondtriangles.svg	1	yes	53	1	1462	6	5	antiphase_hc_osi.wav	2	6	5	noise_calib_stim_RIGHT.wav	2	24	blb_dichoticlistening_ka-ta.mp3	ka	ta	1	left
6.6.1	win	2023-06-26	21:39:48	21:51:33	701283	5ec62902bb44c16b842128f9	1	1	practice_slash	22	advance_on_keypress_SLASH	8	stimuli_target_rectanglediamonds.svg	stimuli_distractor_diamondtriangles.svg	1	yes	57	0	423	6	5	antiphase_hc_osi.wav	2	6	5	noise_calib_stim_RIGHT.wav	2	24	blb_dichoticlistening_ka-ta.mp3	ka	ta	1	left
6.6.1	win	2023-06-26	21:39:48	21:51:36	703977	5ec62902bb44c16b842128f9	1	1	practice_slash	22	practice_slash	9	stimuli_target_diamondsquares.svg	stimuli_distractor_diamondtriangles.svg	3	yes	53	1	640	6	5	antiphase_hc_osi.wav	2	6	5	noise_calib_stim_RIGHT.wav	2	24	blb_dichoticlistening_ka-ta.mp3	ka	ta	1	left
6.6.1	win	2023-06-26	21:39:48	21:51:36	703977	5ec62902bb44c16b842128f9	1	1	practice_slash	22	advance_on_keypress_SLASH	10	stimuli_target_diamondsquares.svg	stimuli_distractor_diamondtriangles.svg	3	yes	57	0	2314	6	5	antiphase_hc_osi.wav	2	6	5	noise_calib_stim_RIGHT.wav	2	24	blb_dichoticlistening_ka-ta.mp3	ka	ta	1	left
6.6.1	win	2023-06-26	21:39:48	21:51:41	709144	5ec62902bb44c16b842128f9	1	1	practice_slash	22	practice_slash	11	stimuli_distractor_trianglediamonds.svg	stimuli_target_diamondrectangles.svg	12	yes	53	1	1208	6	5	antiphase_hc_osi.wav	2	6	5	noise_calib_stim_RIGHT.wav	2	24	blb_dichoticlistening_ka-ta.mp3	ka	ta	1	left
6.6.1	win	2023-06-26	21:39:48	21:51:41	709144	5ec62902bb44c16b842128f9	1	1	practice_slash	22	advance_on_keypress_SLASH	12	stimuli_distractor_trianglediamonds.svg	stimuli_target_diamondrectangles.svg	12	yes	57	0	436	6	5	antiphase_hc_osi.wav	2	6	5	noise_calib_stim_RIGHT.wav	2	24	blb_dichoticlistening_ka-ta.mp3	ka	ta	1	left
6.6.1	win	2023-06-26	21:39:48	21:51:44	712185	5ec62902bb44c16b842128f9	1	1	practice_slash	22	practice_slash	13	stimuli_distractor_diamondtriangles.svg	stimuli_distractor_trianglediamonds.svg	14	no	53	0	968	6	5	antiphase_hc_osi.wav	2	6	5	noise_calib_stim_RIGHT.wav	2	24	blb_dichoticlistening_ka-ta.mp3	ka	ta	1	left
6.6.1	win	2023-06-26	21:39:48	21:51:44	712185	5ec62902bb44c16b842128f9	1	1	practice_slash	22	advance_on_keypress_SLASH	14	stimuli_distractor_diamondtriangles.svg	stimuli_distractor_trianglediamonds.svg	14	no	57	0	1130	6	5	antiphase_hc_osi.wav	2	6	5	noise_calib_stim_RIGHT.wav	2	24	blb_dichoticlistening_ka-ta.mp3	ka	ta	1	left
6.6.1	win	2023-06-26	21:39:48	21:51:48	715953	5ec62902bb44c16b842128f9	1	1	practice_slash	22	practice_slash	15	stimuli_distractor_diamondtriangles.svg	stimuli_target_trianglerectangles.svg	9	yes	53	1	988	6	5	antiphase_hc_osi.wav	2	6	5	noise_calib_stim_RIGHT.wav	2	24	blb_dichoticlistening_ka-ta.mp3	ka	ta	1	left
6.6.1	win	2023-06-26	21:39:48	21:51:48	715953	5ec62902bb44c16b842128f9	1	1	practice_slash	22	advance_on_keypress_SLASH	16	stimuli_distractor_diamondtriangles.svg	stimuli_target_trianglerectangles.svg	9	yes	57	0	457	6	5	antiphase_hc_osi.wav	2	6	5	noise_calib_stim_RIGHT.wav	2	24	blb_dichoticlistening_ka-ta.mp3	ka	ta	1	left
6.6.1	win	2023-06-26	21:39:48	21:51:52	720048	5ec62902bb44c16b842128f9	1	1	practice_slash	22	practice_slash	17	stimuli_target_diamondsquares.svg	stimuli_distractor_trianglediamonds.svg	6	yes	0	0	2000	6	5	antiphase_hc_osi.wav	2	6	5	noise_calib_stim_RIGHT.wav	2	24	blb_dichoticlistening_ka-ta.mp3	ka	ta	1	left
6.6.1	win	2023-06-26	21:39:48	21:51:52	720048	5ec62902bb44c16b842128f9	1	1	practice_slash	22	advance_on_keypress_SLASH	18	stimuli_target_diamondsquares.svg	stimuli_distractor_trianglediamonds.svg	6	yes	57	0	591	6	5	antiphase_hc_osi.wav	2	6	5	noise_calib_stim_RIGHT.wav	2	24	blb_dichoticlistening_ka-ta.mp3	ka	ta	1	left
6.6.1	win	2023-06-26	21:39:48	21:51:55	723559	5ec62902bb44c16b842128f9	1	1	practice_slash	22	practice_slash	19	stimuli_distractor_diamondtriangles.svg	stimuli_target_diamondrectangles.svg	8	yes	53	1	1280	6	5	antiphase_hc_osi.wav	2	6	5	noise_calib_stim_RIGHT.wav	2	24	blb_dichoticlistening_ka-ta.mp3	ka	ta	1	left
6.6.1	win	2023-06-26	21:39:48	21:51:55	723559	5ec62902bb44c16b842128f9	1	1	practice_slash	22	advance_on_keypress_SLASH	20	stimuli_distractor_diamondtriangles.svg	stimuli_target_diamondrectangles.svg	8	yes	57	0	399	6	5	antiphase_hc_osi.wav	2	6	5	noise_calib_stim_RIGHT.wav	2	24	blb_dichoticlistening_ka-ta.mp3	ka	ta	1	left
6.6.1	win	2023-06-26	21:39:48	21:51:58	726520	5ec62902bb44c16b842128f9	1	1	practice_slash	22	practice_slash	21	stimuli_distractor_trianglediamonds.svg	stimuli_target_squarediamonds.svg	11	yes	53	1	909	6	5	antiphase_hc_osi.wav	2	6	5	noise_calib_stim_RIGHT.wav	2	24	blb_dichoticlistening_ka-ta.mp3	ka	ta	1	left
6.6.1	win	2023-06-26	21:39:48	21:51:58	726520	5ec62902bb44c16b842128f9	1	1	practice_slash	22	advance_on_keypress_SLASH	22	stimuli_distractor_trianglediamonds.svg	stimuli_target_squarediamonds.svg	11	yes	57	0	522	6	5	antiphase_hc_osi.wav	2	6	5	noise_calib_stim_RIGHT.wav	2	24	blb_dichoticlistening_ka-ta.mp3	ka	ta	1	left
6.6.1	win	2023-06-26	21:39:48	21:52:02	729767	5ec62902bb44c16b842128f9	1	1	practice_slash	22	practice_slash	23	stimuli_distractor_trianglediamonds.svg	stimuli_distractor_trianglediamonds.svg	15	no	53	0	1090	6	5	antiphase_hc_osi.wav	2	6	5	noise_calib_stim_RIGHT.wav	2	24	blb_dichoticlistening_ka-ta.mp3	ka	ta	1	left
6.6.1	win	2023-06-26	21:39:48	21:52:02	729767	5ec62902bb44c16b842128f9	1	1	practice_slash	22	advance_on_keypress_SLASH	24	stimuli_distractor_trianglediamonds.svg	stimuli_distractor_trianglediamonds.svg	15	no	57	0	424	6	5	antiphase_hc_osi.wav	2	6	5	noise_calib_stim_RIGHT.wav	2	24	blb_dichoticlistening_ka-ta.mp3	ka	ta	1	left
6.6.1	win	2023-06-26	21:39:48	21:52:04	732433	5ec62902bb44c16b842128f9	1	1	practice_slash	22	practice_slash	25	stimuli_distractor_diamondtriangles.svg	stimuli_target_rectangletriangles.svg	7	yes	53	1	608	6	5	antiphase_hc_osi.wav	2	6	5	noise_calib_stim_RIGHT.wav	2	24	blb_dichoticlistening_ka-ta.mp3	ka	ta	1	left
6.6.1	win	2023-06-26	21:39:48	21:52:04	732433	5ec62902bb44c16b842128f9	1	1	practice_slash	22	advance_on_keypress_SLASH	26	stimuli_distractor_diamondtriangles.svg	stimuli_target_rectangletriangles.svg	7	yes	57	0	569	6	5	antiphase_hc_osi.wav	2	6	5	noise_calib_stim_RIGHT.wav	2	24	blb_dichoticlistening_ka-ta.mp3	ka	ta	1	left
6.6.1	win	2023-06-26	21:39:48	21:52:08	736457	5ec62902bb44c16b842128f9	1	1	practice_slash	22	practice_slash	27	stimuli_distractor_trianglediamonds.svg	stimuli_distractor_diamondtriangles.svg	16	no	53	0	1815	6	5	antiphase_hc_osi.wav	2	6	5	noise_calib_stim_RIGHT.wav	2	24	blb_dichoticlistening_ka-ta.mp3	ka	ta	1	left
6.6.1	win	2023-06-26	21:39:48	21:52:08	736457	5ec62902bb44c16b842128f9	1	1	practice_slash	22	advance_on_keypress_SLASH	28	stimuli_distractor_trianglediamonds.svg	stimuli_distractor_diamondtriangles.svg	16	no	57	0	481	6	5	antiphase_hc_osi.wav	2	6	5	noise_calib_stim_RIGHT.wav	2	24	blb_dichoticlistening_ka-ta.mp3	ka	ta	1	left
6.6.1	win	2023-06-26	21:39:48	21:52:12	740590	5ec62902bb44c16b842128f9	1	1	practice_slash	22	practice_slash	29	stimuli_target_rectanglediamonds.svg	stimuli_distractor_trianglediamonds.svg	4	yes	0	0	2000	6	5	antiphase_hc_osi.wav	2	6	5	noise_calib_stim_RIGHT.wav	2	24	blb_dichoticlistening_ka-ta.mp3	ka	ta	1	left
6.6.1	win	2023-06-26	21:39:48	21:52:12	740590	5ec62902bb44c16b842128f9	1	1	practice_slash	22	advance_on_keypress_SLASH	30	stimuli_target_rectanglediamonds.svg	stimuli_distractor_trianglediamonds.svg	4	yes	57	0	438	6	5	antiphase_hc_osi.wav	2	6	5	noise_calib_stim_RIGHT.wav	2	24	blb_dichoticlistening_ka-ta.mp3	ka	ta	1	left
6.6.1	win	2023-06-26	21:39:48	21:52:16	744672	5ec62902bb44c16b842128f9	1	1	practice_slash	22	practice_slash	31	stimuli_distractor_diamondtriangles.svg	stimuli_distractor_diamondtriangles.svg	13	no	0	1	2000	6	5	antiphase_hc_osi.wav	2	6	5	noise_calib_stim_RIGHT.wav	2	24	blb_dichoticlistening_ka-ta.mp3	ka	ta	1	left
6.6.1	win	2023-06-26	21:39:48	21:52:16	744672	5ec62902bb44c16b842128f9	1	1	practice_slash	22	advance_on_keypress_SLASH	32	stimuli_distractor_diamondtriangles.svg	stimuli_distractor_diamondtriangles.svg	13	no	57	0	400	6	5	antiphase_hc_osi.wav	2	6	5	noise_calib_stim_RIGHT.wav	2	24	blb_dichoticlistening_ka-ta.mp3	ka	ta	1	left
6.6.1	win	2023-06-26	21:39:48	21:52:22	750371	5ec62902bb44c16b842128f9	1	1	main_slash	24	main_slash	1	stimuli_distractor_trianglediamonds.svg	stimuli_target_rectanglediamonds.svg	10	yes	53	1	954	6	5	antiphase_hc_osi.wav	2	6	5	noise_calib_stim_RIGHT.wav	2	24	blb_dichoticlistening_ka-ta.mp3	ka	ta	1	left
6.6.1	win	2023-06-26	21:39:48	21:52:22	750371	5ec62902bb44c16b842128f9	1	1	main_slash	24	advance_on_keypress_SLASH	2	stimuli_distractor_trianglediamonds.svg	stimuli_target_rectanglediamonds.svg	10	yes	57	0	764	6	5	antiphase_hc_osi.wav	2	6	5	noise_calib_stim_RIGHT.wav	2	24	blb_dichoticlistening_ka-ta.mp3	ka	ta	1	left
6.6.1	win	2023-06-26	21:39:48	21:52:24	752441	5ec62902bb44c16b842128f9	1	1	main_slash	24	main_slash	3	stimuli_distractor_trianglediamonds.svg	stimuli_target_trianglerectangles.svg	25	yes	53	1	657	6	5	antiphase_hc_osi.wav	2	6	5	noise_calib_stim_RIGHT.wav	2	24	blb_dichoticlistening_ka-ta.mp3	ka	ta	1	left
6.6.1	win	2023-06-26	21:39:48	21:52:24	752441	5ec62902bb44c16b842128f9	1	1	main_slash	24	advance_on_keypress_SLASH	4	stimuli_distractor_trianglediamonds.svg	stimuli_target_trianglerectangles.svg	25	yes	57	0	607	6	5	antiphase_hc_osi.wav	2	6	5	noise_calib_stim_RIGHT.wav	2	24	blb_dichoticlistening_ka-ta.mp3	ka	ta	1	left
6.6.1	win	2023-06-26	21:39:48	21:52:28	755683	5ec62902bb44c16b842128f9	1	1	main_slash	24	main_slash	5	stimuli_target_diamondsquares.svg	stimuli_distractor_diamondtriangles.svg	24	yes	0	0	2000	6	5	antiphase_hc_osi.wav	2	6	5	noise_calib_stim_RIGHT.wav	2	24	blb_dichoticlistening_ka-ta.mp3	ka	ta	1	left
6.6.1	win	2023-06-26	21:39:48	21:52:28	755683	5ec62902bb44c16b842128f9	1	1	main_slash	24	advance_on_keypress_SLASH	6	stimuli_target_diamondsquares.svg	stimuli_distractor_diamondtriangles.svg	24	yes	57	0	395	6	5	antiphase_hc_osi.wav	2	6	5	noise_calib_stim_RIGHT.wav	2	24	blb_dichoticlistening_ka-ta.mp3	ka	ta	1	left
6.6.1	win	2023-06-26	21:39:48	21:52:29	757396	5ec62902bb44c16b842128f9	1	1	main_slash	24	main_slash	7	stimuli_target_squaretriangles.svg	stimuli_distractor_trianglediamonds.svg	3	yes	53	1	665	6	5	antiphase_hc_osi.wav	2	6	5	noise_calib_stim_RIGHT.wav	2	24	blb_dichoticlistening_ka-ta.mp3	ka	ta	1	left
6.6.1	win	2023-06-26	21:39:48	21:52:29	757396	5ec62902bb44c16b842128f9	1	1	main_slash	24	advance_on_keypress_SLASH	8	stimuli_target_squaretriangles.svg	stimuli_distractor_trianglediamonds.svg	3	yes	57	0	483	6	5	antiphase_hc_osi.wav	2	6	5	noise_calib_stim_RIGHT.wav	2	24	blb_dichoticlistening_ka-ta.mp3	ka	ta	1	left
6.6.1	win	2023-06-26	21:39:48	21:52:31	759546	5ec62902bb44c16b842128f9	1	1	main_slash	24	main_slash	9	stimuli_distractor_trianglediamonds.svg	stimuli_target_trianglesquares.svg	26	yes	53	1	1015	6	5	antiphase_hc_osi.wav	2	6	5	noise_calib_stim_RIGHT.wav	2	24	blb_dichoticlistening_ka-ta.mp3	ka	ta	1	left
6.6.1	win	2023-06-26	21:39:48	21:52:31	759546	5ec62902bb44c16b842128f9	1	1	main_slash	24	advance_on_keypress_SLASH	10	stimuli_distractor_trianglediamonds.svg	stimuli_target_trianglesquares.svg	26	yes	57	0	418	6	5	antiphase_hc_osi.wav	2	6	5	noise_calib_stim_RIGHT.wav	2	24	blb_dichoticlistening_ka-ta.mp3	ka	ta	1	left
6.6.1	win	2023-06-26	21:39:48	21:52:33	761029	5ec62902bb44c16b842128f9	1	1	main_slash	24	main_slash	11	stimuli_distractor_trianglediamonds.svg	stimuli_target_squarediamonds.svg	12	yes	53	1	416	6	5	antiphase_hc_osi.wav	2	6	5	noise_calib_stim_RIGHT.wav	2	24	blb_dichoticlistening_ka-ta.mp3	ka	ta	1	left
6.6.1	win	2023-06-26	21:39:48	21:52:33	761029	5ec62902bb44c16b842128f9	1	1	main_slash	24	advance_on_keypress_SLASH	12	stimuli_distractor_trianglediamonds.svg	stimuli_target_squarediamonds.svg	12	yes	57	0	635	6	5	antiphase_hc_osi.wav	2	6	5	noise_calib_stim_RIGHT.wav	2	24	blb_dichoticlistening_ka-ta.mp3	ka	ta	1	left
6.6.1	win	2023-06-26	21:39:48	21:52:36	764313	5ec62902bb44c16b842128f9	1	1	main_slash	24	main_slash	13	stimuli_distractor_trianglediamonds.svg	stimuli_target_diamondrectangles.svg	27	yes	0	0	2000	6	5	antiphase_hc_osi.wav	2	6	5	noise_calib_stim_RIGHT.wav	2	24	blb_dichoticlistening_ka-ta.mp3	ka	ta	1	left
6.6.1	win	2023-06-26	21:39:48	21:52:36	764313	5ec62902bb44c16b842128f9	1	1	main_slash	24	advance_on_keypress_SLASH	14	stimuli_distractor_trianglediamonds.svg	stimuli_target_diamondrectangles.svg	27	yes	57	0	456	6	5	antiphase_hc_osi.wav	2	6	5	noise_calib_stim_RIGHT.wav	2	24	blb_dichoticlistening_ka-ta.mp3	ka	ta	1	left
6.6.1	win	2023-06-26	21:39:48	21:52:39	767411	5ec62902bb44c16b842128f9	1	1	main_slash	24	main_slash	15	stimuli_distractor_trianglediamonds.svg	stimuli_distractor_trianglediamonds.svg	33	no	0	1	2000	6	5	antiphase_hc_osi.wav	2	6	5	noise_calib_stim_RIGHT.wav	2	24	blb_dichoticlistening_ka-ta.mp3	ka	ta	1	left
6.6.1	win	2023-06-26	21:39:48	21:52:39	767411	5ec62902bb44c16b842128f9	1	1	main_slash	24	advance_on_keypress_SLASH	16	stimuli_distractor_trianglediamonds.svg	stimuli_distractor_trianglediamonds.svg	33	no	57	0	599	6	5	antiphase_hc_osi.wav	2	6	5	noise_calib_stim_RIGHT.wav	2	24	blb_dichoticlistening_ka-ta.mp3	ka	ta	1	left
6.6.1	win	2023-06-26	21:39:48	21:52:42	770660	5ec62902bb44c16b842128f9	1	1	main_slash	24	main_slash	17	stimuli_distractor_trianglediamonds.svg	stimuli_target_diamondsquares.svg	28	yes	0	0	2000	6	5	antiphase_hc_osi.wav	2	6	5	noise_calib_stim_RIGHT.wav	2	24	blb_dichoticlistening_ka-ta.mp3	ka	ta	1	left
6.6.1	win	2023-06-26	21:39:48	21:52:42	770660	5ec62902bb44c16b842128f9	1	1	main_slash	24	advance_on_keypress_SLASH	18	stimuli_distractor_trianglediamonds.svg	stimuli_target_diamondsquares.svg	28	yes	57	0	532	6	5	antiphase_hc_osi.wav	2	6	5	noise_calib_stim_RIGHT.wav	2	24	blb_dichoticlistening_ka-ta.mp3	ka	ta	1	left
6.6.1	win	2023-06-26	21:39:48	21:52:44	772571	5ec62902bb44c16b842128f9	1	1	main_slash	24	main_slash	19	stimuli_target_squaretriangles.svg	stimuli_distractor_diamondtriangles.svg	7	yes	53	1	729	6	5	antiphase_hc_osi.wav	2	6	5	noise_calib_stim_RIGHT.wav	2	24	blb_dichoticlistening_ka-ta.mp3	ka	ta	1	left
6.6.1	win	2023-06-26	21:39:48	21:52:44	772571	5ec62902bb44c16b842128f9	1	1	main_slash	24	advance_on_keypress_SLASH	20	stimuli_target_squaretriangles.svg	stimuli_distractor_diamondtriangles.svg	7	yes	57	0	527	6	5	antiphase_hc_osi.wav	2	6	5	noise_calib_stim_RIGHT.wav	2	24	blb_dichoticlistening_ka-ta.mp3	ka	ta	1	left
6.6.1	win	2023-06-26	21:39:48	21:52:48	775725	5ec62902bb44c16b842128f9	1	1	main_slash	24	main_slash	21	stimuli_target_trianglerectangles.svg	stimuli_distractor_trianglediamonds.svg	17	yes	0	0	2000	6	5	antiphase_hc_osi.wav	2	6	5	noise_calib_stim_RIGHT.wav	2	24	blb_dichoticlistening_ka-ta.mp3	ka	ta	1	left
6.6.1	win	2023-06-26	21:39:48	21:52:48	775725	5ec62902bb44c16b842128f9	1	1	main_slash	24	advance_on_keypress_SLASH	22	stimuli_target_trianglerectangles.svg	stimuli_distractor_trianglediamonds.svg	17	yes	57	0	659	6	5	antiphase_hc_osi.wav	2	6	5	noise_calib_stim_RIGHT.wav	2	24	blb_dichoticlistening_ka-ta.mp3	ka	ta	1	left
6.6.1	win	2023-06-26	21:39:48	21:52:51	779023	5ec62902bb44c16b842128f9	1	1	main_slash	24	main_slash	23	stimuli_distractor_trianglediamonds.svg	stimuli_target_rectangletriangles.svg	9	yes	0	0	2000	6	5	antiphase_hc_osi.wav	2	6	5	noise_calib_stim_RIGHT.wav	2	24	blb_dichoticlistening_ka-ta.mp3	ka	ta	1	left
6.6.1	win	2023-06-26	21:39:48	21:52:51	779023	5ec62902bb44c16b842128f9	1	1	main_slash	24	advance_on_keypress_SLASH	24	stimuli_distractor_trianglediamonds.svg	stimuli_target_rectangletriangles.svg	9	yes	57	0	712	6	5	antiphase_hc_osi.wav	2	6	5	noise_calib_stim_RIGHT.wav	2	24	blb_dichoticlistening_ka-ta.mp3	ka	ta	1	left
6.6.1	win	2023-06-26	21:39:48	21:52:52	780557	5ec62902bb44c16b842128f9	1	1	main_slash	24	main_slash	25	stimuli_target_rectanglediamonds.svg	stimuli_distractor_trianglediamonds.svg	2	yes	53	1	185	6	5	antiphase_hc_osi.wav	2	6	5	noise_calib_stim_RIGHT.wav	2	24	blb_dichoticlistening_ka-ta.mp3	ka	ta	1	left
6.6.1	win	2023-06-26	21:39:48	21:52:52	780557	5ec62902bb44c16b842128f9	1	1	main_slash	24	advance_on_keypress_SLASH	26	stimuli_target_rectanglediamonds.svg	stimuli_distractor_trianglediamonds.svg	2	yes	57	0	431	6	5	antiphase_hc_osi.wav	2	6	5	noise_calib_stim_RIGHT.wav	2	24	blb_dichoticlistening_ka-ta.mp3	ka	ta	1	left
6.6.1	win	2023-06-26	21:39:48	21:52:55	783638	5ec62902bb44c16b842128f9	1	1	main_slash	24	main_slash	27	stimuli_distractor_diamondtriangles.svg	stimuli_distractor_trianglediamonds.svg	38	no	0	1	2000	6	5	antiphase_hc_osi.wav	2	6	5	noise_calib_stim_RIGHT.wav	2	24	blb_dichoticlistening_ka-ta.mp3	ka	ta	1	left
6.6.1	win	2023-06-26	21:39:48	21:52:55	783638	5ec62902bb44c16b842128f9	1	1	main_slash	24	advance_on_keypress_SLASH	28	stimuli_distractor_diamondtriangles.svg	stimuli_distractor_trianglediamonds.svg	38	no	57	0	431	6	5	antiphase_hc_osi.wav	2	6	5	noise_calib_stim_RIGHT.wav	2	24	blb_dichoticlistening_ka-ta.mp3	ka	ta	1	left
6.6.1	win	2023-06-26	21:39:48	21:52:59	786720	5ec62902bb44c16b842128f9	1	1	main_slash	24	main_slash	29	stimuli_distractor_diamondtriangles.svg	stimuli_target_rectanglediamonds.svg	14	yes	0	0	2000	6	5	antiphase_hc_osi.wav	2	6	5	noise_calib_stim_RIGHT.wav	2	24	blb_dichoticlistening_ka-ta.mp3	ka	ta	1	left
6.6.1	win	2023-06-26	21:39:48	21:52:59	786720	5ec62902bb44c16b842128f9	1	1	main_slash	24	advance_on_keypress_SLASH	30	stimuli_distractor_diamondtriangles.svg	stimuli_target_rectanglediamonds.svg	14	yes	57	0	2028	6	5	antiphase_hc_osi.wav	2	6	5	noise_calib_stim_RIGHT.wav	2	24	blb_dichoticlistening_ka-ta.mp3	ka	ta	1	left
6.6.1	win	2023-06-26	21:39:48	21:53:03	791385	5ec62902bb44c16b842128f9	1	1	main_slash	24	main_slash	31	stimuli_target_trianglesquares.svg	stimuli_distractor_diamondtriangles.svg	22	yes	0	0	2000	6	5	antiphase_hc_osi.wav	2	6	5	noise_calib_stim_RIGHT.wav	2	24	blb_dichoticlistening_ka-ta.mp3	ka	ta	1	left
6.6.1	win	2023-06-26	21:39:48	21:53:03	791385	5ec62902bb44c16b842128f9	1	1	main_slash	24	advance_on_keypress_SLASH	32	stimuli_target_trianglesquares.svg	stimuli_distractor_diamondtriangles.svg	22	yes	57	0	174	6	5	antiphase_hc_osi.wav	2	6	5	noise_calib_stim_RIGHT.wav	2	24	blb_dichoticlistening_ka-ta.mp3	ka	ta	1	left
6.6.1	win	2023-06-26	21:39:48	21:53:06	794200	5ec62902bb44c16b842128f9	1	1	main_slash	24	main_slash	33	stimuli_target_rectangletriangles.svg	stimuli_distractor_trianglediamonds.svg	1	yes	0	0	2000	6	5	antiphase_hc_osi.wav	2	6	5	noise_calib_stim_RIGHT.wav	2	24	blb_dichoticlistening_ka-ta.mp3	ka	ta	1	left
6.6.1	win	2023-06-26	21:39:48	21:53:06	794200	5ec62902bb44c16b842128f9	1	1	main_slash	24	advance_on_keypress_SLASH	34	stimuli_target_rectangletriangles.svg	stimuli_distractor_trianglediamonds.svg	1	yes	57	0	1853	6	5	antiphase_hc_osi.wav	2	6	5	noise_calib_stim_RIGHT.wav	2	24	blb_dichoticlistening_ka-ta.mp3	ka	ta	1	left
6.6.1	win	2023-06-26	21:39:48	21:53:11	798699	5ec62902bb44c16b842128f9	1	1	main_slash	24	main_slash	35	stimuli_distractor_diamondtriangles.svg	stimuli_distractor_diamondtriangles.svg	39	no	0	1	2000	6	5	antiphase_hc_osi.wav	2	6	5	noise_calib_stim_RIGHT.wav	2	24	blb_dichoticlistening_ka-ta.mp3	ka	ta	1	left
6.6.1	win	2023-06-26	21:39:48	21:53:11	798699	5ec62902bb44c16b842128f9	1	1	main_slash	24	advance_on_keypress_SLASH	36	stimuli_distractor_diamondtriangles.svg	stimuli_distractor_diamondtriangles.svg	39	no	57	0	1673	6	5	antiphase_hc_osi.wav	2	6	5	noise_calib_stim_RIGHT.wav	2	24	blb_dichoticlistening_ka-ta.mp3	ka	ta	1	left
6.6.1	win	2023-06-26	21:39:48	21:53:15	803014	5ec62902bb44c16b842128f9	1	1	main_slash	24	main_slash	37	stimuli_target_squarediamonds.svg	stimuli_distractor_diamondtriangles.svg	8	yes	0	0	2000	6	5	antiphase_hc_osi.wav	2	6	5	noise_calib_stim_RIGHT.wav	2	24	blb_dichoticlistening_ka-ta.mp3	ka	ta	1	left
6.6.1	win	2023-06-26	21:39:48	21:53:15	803014	5ec62902bb44c16b842128f9	1	1	main_slash	24	advance_on_keypress_SLASH	38	stimuli_target_squarediamonds.svg	stimuli_distractor_diamondtriangles.svg	8	yes	57	0	2338	6	5	antiphase_hc_osi.wav	2	6	5	noise_calib_stim_RIGHT.wav	2	24	blb_dichoticlistening_ka-ta.mp3	ka	ta	1	left
6.6.1	win	2023-06-26	21:39:48	21:53:20	807995	5ec62902bb44c16b842128f9	1	1	main_slash	24	main_slash	39	stimuli_target_diamondrectangles.svg	stimuli_distractor_diamondtriangles.svg	23	yes	0	0	2000	6	5	antiphase_hc_osi.wav	2	6	5	noise_calib_stim_RIGHT.wav	2	24	blb_dichoticlistening_ka-ta.mp3	ka	ta	1	left
6.6.1	win	2023-06-26	21:39:48	21:53:20	807995	5ec62902bb44c16b842128f9	1	1	main_slash	24	advance_on_keypress_SLASH	40	stimuli_target_diamondrectangles.svg	stimuli_distractor_diamondtriangles.svg	23	yes	57	0	2829	6	5	antiphase_hc_osi.wav	2	6	5	noise_calib_stim_RIGHT.wav	2	24	blb_dichoticlistening_ka-ta.mp3	ka	ta	1	left
6.6.1	win	2023-06-26	21:39:48	21:53:25	813476	5ec62902bb44c16b842128f9	1	1	main_slash	24	main_slash	41	stimuli_distractor_diamondtriangles.svg	stimuli_target_rectangletriangles.svg	13	yes	0	0	2000	6	5	antiphase_hc_osi.wav	2	6	5	noise_calib_stim_RIGHT.wav	2	24	blb_dichoticlistening_ka-ta.mp3	ka	ta	1	left
6.6.1	win	2023-06-26	21:39:48	21:53:25	813476	5ec62902bb44c16b842128f9	1	1	main_slash	24	advance_on_keypress_SLASH	42	stimuli_distractor_diamondtriangles.svg	stimuli_target_rectangletriangles.svg	13	yes	57	0	224	6	5	antiphase_hc_osi.wav	2	6	5	noise_calib_stim_RIGHT.wav	2	24	blb_dichoticlistening_ka-ta.mp3	ka	ta	1	left
6.6.1	win	2023-06-26	21:39:48	21:53:28	816341	5ec62902bb44c16b842128f9	1	1	main_slash	24	main_slash	43	stimuli_distractor_diamondtriangles.svg	stimuli_target_diamondsquares.svg	32	yes	0	0	2000	6	5	antiphase_hc_osi.wav	2	6	5	noise_calib_stim_RIGHT.wav	2	24	blb_dichoticlistening_ka-ta.mp3	ka	ta	1	left
6.6.1	win	2023-06-26	21:39:48	21:53:28	816341	5ec62902bb44c16b842128f9	1	1	main_slash	24	advance_on_keypress_SLASH	44	stimuli_distractor_diamondtriangles.svg	stimuli_target_diamondsquares.svg	32	yes	57	0	249	6	5	antiphase_hc_osi.wav	2	6	5	noise_calib_stim_RIGHT.wav	2	24	blb_dichoticlistening_ka-ta.mp3	ka	ta	1	left
6.6.1	win	2023-06-26	21:39:48	21:53:31	819240	5ec62902bb44c16b842128f9	1	1	main_slash	24	main_slash	45	stimuli_distractor_trianglediamonds.svg	stimuli_distractor_diamondtriangles.svg	35	no	0	1	2000	6	5	antiphase_hc_osi.wav	2	6	5	noise_calib_stim_RIGHT.wav	2	24	blb_dichoticlistening_ka-ta.mp3	ka	ta	1	left
6.6.1	win	2023-06-26	21:39:48	21:53:31	819240	5ec62902bb44c16b842128f9	1	1	main_slash	24	advance_on_keypress_SLASH	46	stimuli_distractor_trianglediamonds.svg	stimuli_distractor_diamondtriangles.svg	35	no	57	0	12977	6	5	antiphase_hc_osi.wav	2	6	5	noise_calib_stim_RIGHT.wav	2	24	blb_dichoticlistening_ka-ta.mp3	ka	ta	1	left
6.6.1	win	2023-06-26	21:39:48	21:53:47	834868	5ec62902bb44c16b842128f9	1	1	main_slash	24	main_slash	47	stimuli_distractor_diamondtriangles.svg	stimuli_target_squaretriangles.svg	15	yes	0	0	2000	6	5	antiphase_hc_osi.wav	2	6	5	noise_calib_stim_RIGHT.wav	2	24	blb_dichoticlistening_ka-ta.mp3	ka	ta	1	left
6.6.1	win	2023-06-26	21:39:48	21:53:47	834868	5ec62902bb44c16b842128f9	1	1	main_slash	24	advance_on_keypress_SLASH	48	stimuli_distractor_diamondtriangles.svg	stimuli_target_squaretriangles.svg	15	yes	57	0	1073	6	5	antiphase_hc_osi.wav	2	6	5	noise_calib_stim_RIGHT.wav	2	24	blb_dichoticlistening_ka-ta.mp3	ka	ta	1	left
6.6.1	win	2023-06-26	21:39:48	21:53:50	838321	5ec62902bb44c16b842128f9	1	1	main_slash	24	main_slash	49	stimuli_target_diamondsquares.svg	stimuli_distractor_trianglediamonds.svg	20	yes	53	1	1738	6	5	antiphase_hc_osi.wav	2	6	5	noise_calib_stim_RIGHT.wav	2	24	blb_dichoticlistening_ka-ta.mp3	ka	ta	1	left
6.6.1	win	2023-06-26	21:39:48	21:53:50	838321	5ec62902bb44c16b842128f9	1	1	main_slash	24	advance_on_keypress_SLASH	50	stimuli_target_diamondsquares.svg	stimuli_distractor_trianglediamonds.svg	20	yes	57	0	460	6	5	antiphase_hc_osi.wav	2	6	5	noise_calib_stim_RIGHT.wav	2	24	blb_dichoticlistening_ka-ta.mp3	ka	ta	1	left
6.6.1	win	2023-06-26	21:39:48	21:53:52	840360	5ec62902bb44c16b842128f9	1	1	main_slash	24	main_slash	51	stimuli_target_rectanglediamonds.svg	stimuli_distractor_diamondtriangles.svg	6	yes	53	1	945	6	5	antiphase_hc_osi.wav	2	6	5	noise_calib_stim_RIGHT.wav	2	24	blb_dichoticlistening_ka-ta.mp3	ka	ta	1	left
6.6.1	win	2023-06-26	21:39:48	21:53:52	840360	5ec62902bb44c16b842128f9	1	1	main_slash	24	advance_on_keypress_SLASH	52	stimuli_target_rectanglediamonds.svg	stimuli_distractor_diamondtriangles.svg	6	yes	57	0	491	6	5	antiphase_hc_osi.wav	2	6	5	noise_calib_stim_RIGHT.wav	2	24	blb_dichoticlistening_ka-ta.mp3	ka	ta	1	left
6.6.1	win	2023-06-26	21:39:48	21:53:55	843481	5ec62902bb44c16b842128f9	1	1	main_slash	24	main_slash	53	stimuli_distractor_diamondtriangles.svg	stimuli_distractor_trianglediamonds.svg	37	no	0	1	2000	6	5	antiphase_hc_osi.wav	2	6	5	noise_calib_stim_RIGHT.wav	2	24	blb_dichoticlistening_ka-ta.mp3	ka	ta	1	left
6.6.1	win	2023-06-26	21:39:48	21:53:55	843481	5ec62902bb44c16b842128f9	1	1	main_slash	24	advance_on_keypress_SLASH	54	stimuli_distractor_diamondtriangles.svg	stimuli_distractor_trianglediamonds.svg	37	no	57	0	16914	6	5	antiphase_hc_osi.wav	2	6	5	noise_calib_stim_RIGHT.wav	2	24	blb_dichoticlistening_ka-ta.mp3	ka	ta	1	left
6.6.1	win	2023-06-26	21:39:48	21:54:15	863040	5ec62902bb44c16b842128f9	1	1	main_slash	24	main_slash	55	stimuli_distractor_diamondtriangles.svg	stimuli_target_trianglerectangles.svg	29	yes	0	0	2000	6	5	antiphase_hc_osi.wav	2	6	5	noise_calib_stim_RIGHT.wav	2	24	blb_dichoticlistening_ka-ta.mp3	ka	ta	1	left
6.6.1	win	2023-06-26	21:39:48	21:54:15	863040	5ec62902bb44c16b842128f9	1	1	main_slash	24	advance_on_keypress_SLASH	56	stimuli_distractor_diamondtriangles.svg	stimuli_target_trianglerectangles.svg	29	yes	57	0	642	6	5	antiphase_hc_osi.wav	2	6	5	noise_calib_stim_RIGHT.wav	2	24	blb_dichoticlistening_ka-ta.mp3	ka	ta	1	left
6.6.1	win	2023-06-26	21:39:48	21:54:18	866322	5ec62902bb44c16b842128f9	1	1	main_slash	24	main_slash	57	stimuli_distractor_trianglediamonds.svg	stimuli_distractor_diamondtriangles.svg	36	no	0	1	2000	6	5	antiphase_hc_osi.wav	2	6	5	noise_calib_stim_RIGHT.wav	2	24	blb_dichoticlistening_ka-ta.mp3	ka	ta	1	left
6.6.1	win	2023-06-26	21:39:48	21:54:18	866322	5ec62902bb44c16b842128f9	1	1	main_slash	24	advance_on_keypress_SLASH	58	stimuli_distractor_trianglediamonds.svg	stimuli_distractor_diamondtriangles.svg	36	no	57	0	2635	6	5	antiphase_hc_osi.wav	2	6	5	noise_calib_stim_RIGHT.wav	2	24	blb_dichoticlistening_ka-ta.mp3	ka	ta	1	left
6.6.1	win	2023-06-26	21:39:48	21:54:23	871603	5ec62902bb44c16b842128f9	1	1	main_slash	24	main_slash	59	stimuli_target_diamondrectangles.svg	stimuli_distractor_trianglediamonds.svg	19	yes	0	0	2000	6	5	antiphase_hc_osi.wav	2	6	5	noise_calib_stim_RIGHT.wav	2	24	blb_dichoticlistening_ka-ta.mp3	ka	ta	1	left
6.6.1	win	2023-06-26	21:39:48	21:54:23	871603	5ec62902bb44c16b842128f9	1	1	main_slash	24	advance_on_keypress_SLASH	60	stimuli_target_diamondrectangles.svg	stimuli_distractor_trianglediamonds.svg	19	yes	57	0	5586	6	5	antiphase_hc_osi.wav	2	6	5	noise_calib_stim_RIGHT.wav	2	24	blb_dichoticlistening_ka-ta.mp3	ka	ta	1	left
6.6.1	win	2023-06-26	21:39:48	21:54:32	879833	5ec62902bb44c16b842128f9	1	1	main_slash	24	main_slash	61	stimuli_distractor_trianglediamonds.svg	stimuli_target_squaretriangles.svg	11	yes	0	0	2000	6	5	antiphase_hc_osi.wav	2	6	5	noise_calib_stim_RIGHT.wav	2	24	blb_dichoticlistening_ka-ta.mp3	ka	ta	1	left
6.6.1	win	2023-06-26	21:39:48	21:54:32	879833	5ec62902bb44c16b842128f9	1	1	main_slash	24	advance_on_keypress_SLASH	62	stimuli_distractor_trianglediamonds.svg	stimuli_target_squaretriangles.svg	11	yes	57	0	592	6	5	antiphase_hc_osi.wav	2	6	5	noise_calib_stim_RIGHT.wav	2	24	blb_dichoticlistening_ka-ta.mp3	ka	ta	1	left
6.6.1	win	2023-06-26	21:39:48	21:54:35	883065	5ec62902bb44c16b842128f9	1	1	main_slash	24	main_slash	63	stimuli_distractor_trianglediamonds.svg	stimuli_distractor_trianglediamonds.svg	34	no	0	1	2000	6	5	antiphase_hc_osi.wav	2	6	5	noise_calib_stim_RIGHT.wav	2	24	blb_dichoticlistening_ka-ta.mp3	ka	ta	1	left
6.6.1	win	2023-06-26	21:39:48	21:54:35	883065	5ec62902bb44c16b842128f9	1	1	main_slash	24	advance_on_keypress_SLASH	64	stimuli_distractor_trianglediamonds.svg	stimuli_distractor_trianglediamonds.svg	34	no	57	0	1058	6	5	antiphase_hc_osi.wav	2	6	5	noise_calib_stim_RIGHT.wav	2	24	blb_dichoticlistening_ka-ta.mp3	ka	ta	1	left
6.6.1	win	2023-06-26	21:39:48	21:54:37	885466	5ec62902bb44c16b842128f9	1	1	main_slash	24	main_slash	65	stimuli_target_squarediamonds.svg	stimuli_distractor_trianglediamonds.svg	4	yes	53	1	702	6	5	antiphase_hc_osi.wav	2	6	5	noise_calib_stim_RIGHT.wav	2	24	blb_dichoticlistening_ka-ta.mp3	ka	ta	1	left
6.6.1	win	2023-06-26	21:39:48	21:54:37	885466	5ec62902bb44c16b842128f9	1	1	main_slash	24	advance_on_keypress_SLASH	66	stimuli_target_squarediamonds.svg	stimuli_distractor_trianglediamonds.svg	4	yes	57	0	978	6	5	antiphase_hc_osi.wav	2	6	5	noise_calib_stim_RIGHT.wav	2	24	blb_dichoticlistening_ka-ta.mp3	ka	ta	1	left
6.6.1	win	2023-06-26	21:39:48	21:54:41	889079	5ec62902bb44c16b842128f9	1	1	main_slash	24	main_slash	67	stimuli_target_trianglesquares.svg	stimuli_distractor_trianglediamonds.svg	18	yes	0	0	2000	6	5	antiphase_hc_osi.wav	2	6	5	noise_calib_stim_RIGHT.wav	2	24	blb_dichoticlistening_ka-ta.mp3	ka	ta	1	left
6.6.1	win	2023-06-26	21:39:48	21:54:41	889079	5ec62902bb44c16b842128f9	1	1	main_slash	24	advance_on_keypress_SLASH	68	stimuli_target_trianglesquares.svg	stimuli_distractor_trianglediamonds.svg	18	yes	57	0	499	6	5	antiphase_hc_osi.wav	2	6	5	noise_calib_stim_RIGHT.wav	2	24	blb_dichoticlistening_ka-ta.mp3	ka	ta	1	left
6.6.1	win	2023-06-26	21:39:48	21:54:44	892228	5ec62902bb44c16b842128f9	1	1	main_slash	24	main_slash	69	stimuli_distractor_diamondtriangles.svg	stimuli_target_trianglesquares.svg	30	yes	0	0	2000	6	5	antiphase_hc_osi.wav	2	6	5	noise_calib_stim_RIGHT.wav	2	24	blb_dichoticlistening_ka-ta.mp3	ka	ta	1	left
6.6.1	win	2023-06-26	21:39:48	21:54:44	892228	5ec62902bb44c16b842128f9	1	1	main_slash	24	advance_on_keypress_SLASH	70	stimuli_distractor_diamondtriangles.svg	stimuli_target_trianglesquares.svg	30	yes	57	0	4089	6	5	antiphase_hc_osi.wav	2	6	5	noise_calib_stim_RIGHT.wav	2	24	blb_dichoticlistening_ka-ta.mp3	ka	ta	1	left
6.6.1	win	2023-06-26	21:39:48	21:54:51	898959	5ec62902bb44c16b842128f9	1	1	main_slash	24	main_slash	71	stimuli_distractor_diamondtriangles.svg	stimuli_target_squarediamonds.svg	16	yes	0	0	2000	6	5	antiphase_hc_osi.wav	2	6	5	noise_calib_stim_RIGHT.wav	2	24	blb_dichoticlistening_ka-ta.mp3	ka	ta	1	left
6.6.1	win	2023-06-26	21:39:48	21:54:51	898959	5ec62902bb44c16b842128f9	1	1	main_slash	24	advance_on_keypress_SLASH	72	stimuli_distractor_diamondtriangles.svg	stimuli_target_squarediamonds.svg	16	yes	57	0	680	6	5	antiphase_hc_osi.wav	2	6	5	noise_calib_stim_RIGHT.wav	2	24	blb_dichoticlistening_ka-ta.mp3	ka	ta	1	left
6.6.1	win	2023-06-26	21:39:48	21:54:54	902291	5ec62902bb44c16b842128f9	1	1	main_slash	24	main_slash	73	stimuli_distractor_diamondtriangles.svg	stimuli_distractor_diamondtriangles.svg	40	no	0	1	2000	6	5	antiphase_hc_osi.wav	2	6	5	noise_calib_stim_RIGHT.wav	2	24	blb_dichoticlistening_ka-ta.mp3	ka	ta	1	left
6.6.1	win	2023-06-26	21:39:48	21:54:54	902291	5ec62902bb44c16b842128f9	1	1	main_slash	24	advance_on_keypress_SLASH	74	stimuli_distractor_diamondtriangles.svg	stimuli_distractor_diamondtriangles.svg	40	no	57	0	3204	6	5	antiphase_hc_osi.wav	2	6	5	noise_calib_stim_RIGHT.wav	2	24	blb_dichoticlistening_ka-ta.mp3	ka	ta	1	left
6.6.1	win	2023-06-26	21:39:48	21:55:00	908138	5ec62902bb44c16b842128f9	1	1	main_slash	24	main_slash	75	stimuli_target_trianglerectangles.svg	stimuli_distractor_diamondtriangles.svg	21	yes	0	0	2000	6	5	antiphase_hc_osi.wav	2	6	5	noise_calib_stim_RIGHT.wav	2	24	blb_dichoticlistening_ka-ta.mp3	ka	ta	1	left
6.6.1	win	2023-06-26	21:39:48	21:55:00	908138	5ec62902bb44c16b842128f9	1	1	main_slash	24	advance_on_keypress_SLASH	76	stimuli_target_trianglerectangles.svg	stimuli_distractor_diamondtriangles.svg	21	yes	57	0	67901	6	5	antiphase_hc_osi.wav	2	6	5	noise_calib_stim_RIGHT.wav	2	24	blb_dichoticlistening_ka-ta.mp3	ka	ta	1	left
6.6.1	win	2023-06-26	21:39:48	21:56:10	978677	5ec62902bb44c16b842128f9	1	1	main_slash	24	main_slash	77	stimuli_target_rectangletriangles.svg	stimuli_distractor_diamondtriangles.svg	5	yes	0	0	2000	6	5	antiphase_hc_osi.wav	2	6	5	noise_calib_stim_RIGHT.wav	2	24	blb_dichoticlistening_ka-ta.mp3	ka	ta	1	left
6.6.1	win	2023-06-26	21:39:48	21:56:10	978677	5ec62902bb44c16b842128f9	1	1	main_slash	24	advance_on_keypress_SLASH	78	stimuli_target_rectangletriangles.svg	stimuli_distractor_diamondtriangles.svg	5	yes	57	0	583	6	5	antiphase_hc_osi.wav	2	6	5	noise_calib_stim_RIGHT.wav	2	24	blb_dichoticlistening_ka-ta.mp3	ka	ta	1	left
6.6.1	win	2023-06-26	21:39:48	21:56:14	981909	5ec62902bb44c16b842128f9	1	1	main_slash	24	main_slash	79	stimuli_distractor_diamondtriangles.svg	stimuli_target_diamondrectangles.svg	31	yes	0	0	2000	6	5	antiphase_hc_osi.wav	2	6	5	noise_calib_stim_RIGHT.wav	2	24	blb_dichoticlistening_ka-ta.mp3	ka	ta	1	left
6.6.1	win	2023-06-26	21:39:48	21:56:14	981909	5ec62902bb44c16b842128f9	1	1	main_slash	24	advance_on_keypress_SLASH	80	stimuli_distractor_diamondtriangles.svg	stimuli_target_diamondrectangles.svg	31	yes	57	0	497	6	5	antiphase_hc_osi.wav	2	6	5	noise_calib_stim_RIGHT.wav	2	24	blb_dichoticlistening_ka-ta.mp3	ka	ta	1	left
6.6.1	win	2023-06-26	21:39:48	21:56:17	985058	5ec62902bb44c16b842128f9	1	1	main_slash	24	main_slash	81	stimuli_distractor_diamondtriangles.svg	stimuli_target_diamondsquares.svg	32	yes	0	0	2000	6	5	antiphase_hc_osi.wav	2	6	5	noise_calib_stim_RIGHT.wav	2	24	blb_dichoticlistening_ka-ta.mp3	ka	ta	1	left
6.6.1	win	2023-06-26	21:39:48	21:56:17	985058	5ec62902bb44c16b842128f9	1	1	main_slash	24	advance_on_keypress_SLASH	82	stimuli_distractor_diamondtriangles.svg	stimuli_target_diamondsquares.svg	32	yes	57	0	345	6	5	antiphase_hc_osi.wav	2	6	5	noise_calib_stim_RIGHT.wav	2	24	blb_dichoticlistening_ka-ta.mp3	ka	ta	1	left
6.6.1	win	2023-06-26	21:39:48	21:56:20	988040	5ec62902bb44c16b842128f9	1	1	main_slash	24	main_slash	83	stimuli_target_diamondsquares.svg	stimuli_distractor_trianglediamonds.svg	20	yes	0	0	2000	6	5	antiphase_hc_osi.wav	2	6	5	noise_calib_stim_RIGHT.wav	2	24	blb_dichoticlistening_ka-ta.mp3	ka	ta	1	left
6.6.1	win	2023-06-26	21:39:48	21:56:20	988040	5ec62902bb44c16b842128f9	1	1	main_slash	24	advance_on_keypress_SLASH	84	stimuli_target_diamondsquares.svg	stimuli_distractor_trianglediamonds.svg	20	yes	57	0	349	6	5	antiphase_hc_osi.wav	2	6	5	noise_calib_stim_RIGHT.wav	2	24	blb_dichoticlistening_ka-ta.mp3	ka	ta	1	left
6.6.1	win	2023-06-26	21:39:48	21:56:23	991038	5ec62902bb44c16b842128f9	1	1	main_slash	24	main_slash	85	stimuli_target_rectangletriangles.svg	stimuli_distractor_trianglediamonds.svg	1	yes	0	0	2000	6	5	antiphase_hc_osi.wav	2	6	5	noise_calib_stim_RIGHT.wav	2	24	blb_dichoticlistening_ka-ta.mp3	ka	ta	1	left
6.6.1	win	2023-06-26	21:39:48	21:56:23	991038	5ec62902bb44c16b842128f9	1	1	main_slash	24	advance_on_keypress_SLASH	86	stimuli_target_rectangletriangles.svg	stimuli_distractor_trianglediamonds.svg	1	yes	57	0	367	6	5	antiphase_hc_osi.wav	2	6	5	noise_calib_stim_RIGHT.wav	2	24	blb_dichoticlistening_ka-ta.mp3	ka	ta	1	left
6.6.1	win	2023-06-26	21:39:48	21:56:25	992904	5ec62902bb44c16b842128f9	1	1	main_slash	24	main_slash	87	stimuli_target_squarediamonds.svg	stimuli_distractor_diamondtriangles.svg	8	yes	53	1	850	6	5	antiphase_hc_osi.wav	2	6	5	noise_calib_stim_RIGHT.wav	2	24	blb_dichoticlistening_ka-ta.mp3	ka	ta	1	left
6.6.1	win	2023-06-26	21:39:48	21:56:25	992904	5ec62902bb44c16b842128f9	1	1	main_slash	24	advance_on_keypress_SLASH	88	stimuli_target_squarediamonds.svg	stimuli_distractor_diamondtriangles.svg	8	yes	57	0	741	6	5	antiphase_hc_osi.wav	2	6	5	noise_calib_stim_RIGHT.wav	2	24	blb_dichoticlistening_ka-ta.mp3	ka	ta	1	left
6.6.1	win	2023-06-26	21:39:48	21:56:27	994743	5ec62902bb44c16b842128f9	1	1	main_slash	24	main_slash	89	stimuli_distractor_trianglediamonds.svg	stimuli_distractor_diamondtriangles.svg	36	no	53	0	456	6	5	antiphase_hc_osi.wav	2	6	5	noise_calib_stim_RIGHT.wav	2	24	blb_dichoticlistening_ka-ta.mp3	ka	ta	1	left
6.6.1	win	2023-06-26	21:39:48	21:56:27	994743	5ec62902bb44c16b842128f9	1	1	main_slash	24	advance_on_keypress_SLASH	90	stimuli_distractor_trianglediamonds.svg	stimuli_distractor_diamondtriangles.svg	36	no	57	0	511	6	5	antiphase_hc_osi.wav	2	6	5	noise_calib_stim_RIGHT.wav	2	24	blb_dichoticlistening_ka-ta.mp3	ka	ta	1	left
6.6.1	win	2023-06-26	21:39:48	21:56:29	996862	5ec62902bb44c16b842128f9	1	1	main_slash	24	main_slash	91	stimuli_distractor_diamondtriangles.svg	stimuli_target_trianglerectangles.svg	29	yes	53	1	976	6	5	antiphase_hc_osi.wav	2	6	5	noise_calib_stim_RIGHT.wav	2	24	blb_dichoticlistening_ka-ta.mp3	ka	ta	1	left
6.6.1	win	2023-06-26	21:39:48	21:56:29	996862	5ec62902bb44c16b842128f9	1	1	main_slash	24	advance_on_keypress_SLASH	92	stimuli_distractor_diamondtriangles.svg	stimuli_target_trianglerectangles.svg	29	yes	57	0	530	6	5	antiphase_hc_osi.wav	2	6	5	noise_calib_stim_RIGHT.wav	2	24	blb_dichoticlistening_ka-ta.mp3	ka	ta	1	left
6.6.1	win	2023-06-26	21:39:48	21:56:32	999858	5ec62902bb44c16b842128f9	1	1	main_slash	24	main_slash	93	stimuli_distractor_trianglediamonds.svg	stimuli_target_diamondrectangles.svg	27	yes	53	1	1824	6	5	antiphase_hc_osi.wav	2	6	5	noise_calib_stim_RIGHT.wav	2	24	blb_dichoticlistening_ka-ta.mp3	ka	ta	1	left
6.6.1	win	2023-06-26	21:39:48	21:56:32	999858	5ec62902bb44c16b842128f9	1	1	main_slash	24	advance_on_keypress_SLASH	94	stimuli_distractor_trianglediamonds.svg	stimuli_target_diamondrectangles.svg	27	yes	57	0	517	6	5	antiphase_hc_osi.wav	2	6	5	noise_calib_stim_RIGHT.wav	2	24	blb_dichoticlistening_ka-ta.mp3	ka	ta	1	left
6.6.1	win	2023-06-26	21:39:48	21:56:35	1002799	5ec62902bb44c16b842128f9	1	1	main_slash	24	main_slash	95	stimuli_target_diamondrectangles.svg	stimuli_distractor_diamondtriangles.svg	23	yes	53	1	1783	6	5	antiphase_hc_osi.wav	2	6	5	noise_calib_stim_RIGHT.wav	2	24	blb_dichoticlistening_ka-ta.mp3	ka	ta	1	left
6.6.1	win	2023-06-26	21:39:48	21:56:35	1002799	5ec62902bb44c16b842128f9	1	1	main_slash	24	advance_on_keypress_SLASH	96	stimuli_target_diamondrectangles.svg	stimuli_distractor_diamondtriangles.svg	23	yes	57	0	670	6	5	antiphase_hc_osi.wav	2	6	5	noise_calib_stim_RIGHT.wav	2	24	blb_dichoticlistening_ka-ta.mp3	ka	ta	1	left
6.6.1	win	2023-06-26	21:39:48	21:56:38	1006116	5ec62902bb44c16b842128f9	1	1	main_slash	24	main_slash	97	stimuli_target_rectanglediamonds.svg	stimuli_distractor_diamondtriangles.svg	6	yes	0	0	2000	6	5	antiphase_hc_osi.wav	2	6	5	noise_calib_stim_RIGHT.wav	2	24	blb_dichoticlistening_ka-ta.mp3	ka	ta	1	left
6.6.1	win	2023-06-26	21:39:48	21:56:38	1006116	5ec62902bb44c16b842128f9	1	1	main_slash	24	advance_on_keypress_SLASH	98	stimuli_target_rectanglediamonds.svg	stimuli_distractor_diamondtriangles.svg	6	yes	57	0	650	6	5	antiphase_hc_osi.wav	2	6	5	noise_calib_stim_RIGHT.wav	2	24	blb_dichoticlistening_ka-ta.mp3	ka	ta	1	left
6.6.1	win	2023-06-26	21:39:48	21:56:41	1009415	5ec62902bb44c16b842128f9	1	1	main_slash	24	main_slash	99	stimuli_target_squaretriangles.svg	stimuli_distractor_diamondtriangles.svg	7	yes	0	0	2000	6	5	antiphase_hc_osi.wav	2	6	5	noise_calib_stim_RIGHT.wav	2	24	blb_dichoticlistening_ka-ta.mp3	ka	ta	1	left
6.6.1	win	2023-06-26	21:39:48	21:56:41	1009415	5ec62902bb44c16b842128f9	1	1	main_slash	24	advance_on_keypress_SLASH	100	stimuli_target_squaretriangles.svg	stimuli_distractor_diamondtriangles.svg	7	yes	57	0	1776	6	5	antiphase_hc_osi.wav	2	6	5	noise_calib_stim_RIGHT.wav	2	24	blb_dichoticlistening_ka-ta.mp3	ka	ta	1	left
6.6.1	win	2023-06-26	21:39:48	21:56:46	1013829	5ec62902bb44c16b842128f9	1	1	main_slash	24	main_slash	101	stimuli_distractor_trianglediamonds.svg	stimuli_target_trianglerectangles.svg	25	yes	0	0	2000	6	5	antiphase_hc_osi.wav	2	6	5	noise_calib_stim_RIGHT.wav	2	24	blb_dichoticlistening_ka-ta.mp3	ka	ta	1	left
6.6.1	win	2023-06-26	21:39:48	21:56:46	1013829	5ec62902bb44c16b842128f9	1	1	main_slash	24	advance_on_keypress_SLASH	102	stimuli_distractor_trianglediamonds.svg	stimuli_target_trianglerectangles.svg	25	yes	57	0	31147	6	5	antiphase_hc_osi.wav	2	6	5	noise_calib_stim_RIGHT.wav	2	24	blb_dichoticlistening_ka-ta.mp3	ka	ta	1	left
6.6.1	win	2023-06-26	21:39:48	21:57:19	1047616	5ec62902bb44c16b842128f9	1	1	main_slash	24	main_slash	103	stimuli_distractor_trianglediamonds.svg	stimuli_target_trianglesquares.svg	26	yes	0	0	2000	6	5	antiphase_hc_osi.wav	2	6	5	noise_calib_stim_RIGHT.wav	2	24	blb_dichoticlistening_ka-ta.mp3	ka	ta	1	left
6.6.1	win	2023-06-26	21:39:48	21:57:19	1047616	5ec62902bb44c16b842128f9	1	1	main_slash	24	advance_on_keypress_SLASH	104	stimuli_distractor_trianglediamonds.svg	stimuli_target_trianglesquares.svg	26	yes	57	0	1719	6	5	antiphase_hc_osi.wav	2	6	5	noise_calib_stim_RIGHT.wav	2	24	blb_dichoticlistening_ka-ta.mp3	ka	ta	1	left
6.6.1	win	2023-06-26	21:39:48	21:57:23	1050834	5ec62902bb44c16b842128f9	1	1	main_slash	24	main_slash	105	stimuli_distractor_diamondtriangles.svg	stimuli_target_trianglesquares.svg	30	yes	53	1	853	6	5	antiphase_hc_osi.wav	2	6	5	noise_calib_stim_RIGHT.wav	2	24	blb_dichoticlistening_ka-ta.mp3	ka	ta	1	left
6.6.1	win	2023-06-26	21:39:48	21:57:23	1050834	5ec62902bb44c16b842128f9	1	1	main_slash	24	advance_on_keypress_SLASH	106	stimuli_distractor_diamondtriangles.svg	stimuli_target_trianglesquares.svg	30	yes	57	0	418	6	5	antiphase_hc_osi.wav	2	6	5	noise_calib_stim_RIGHT.wav	2	24	blb_dichoticlistening_ka-ta.mp3	ka	ta	1	left
6.6.1	win	2023-06-26	21:39:48	21:57:26	1053897	5ec62902bb44c16b842128f9	1	1	main_slash	24	main_slash	107	stimuli_distractor_diamondtriangles.svg	stimuli_distractor_diamondtriangles.svg	40	no	0	1	2000	6	5	antiphase_hc_osi.wav	2	6	5	noise_calib_stim_RIGHT.wav	2	24	blb_dichoticlistening_ka-ta.mp3	ka	ta	1	left
6.6.1	win	2023-06-26	21:39:48	21:57:26	1053897	5ec62902bb44c16b842128f9	1	1	main_slash	24	advance_on_keypress_SLASH	108	stimuli_distractor_diamondtriangles.svg	stimuli_distractor_diamondtriangles.svg	40	no	57	0	634	6	5	antiphase_hc_osi.wav	2	6	5	noise_calib_stim_RIGHT.wav	2	24	blb_dichoticlistening_ka-ta.mp3	ka	ta	1	left
6.6.1	win	2023-06-26	21:39:48	21:57:29	1057179	5ec62902bb44c16b842128f9	1	1	main_slash	24	main_slash	109	stimuli_distractor_trianglediamonds.svg	stimuli_target_rectangletriangles.svg	9	yes	0	0	2000	6	5	antiphase_hc_osi.wav	2	6	5	noise_calib_stim_RIGHT.wav	2	24	blb_dichoticlistening_ka-ta.mp3	ka	ta	1	left
6.6.1	win	2023-06-26	21:39:48	21:57:29	1057179	5ec62902bb44c16b842128f9	1	1	main_slash	24	advance_on_keypress_SLASH	110	stimuli_distractor_trianglediamonds.svg	stimuli_target_rectangletriangles.svg	9	yes	57	0	3244	6	5	antiphase_hc_osi.wav	2	6	5	noise_calib_stim_RIGHT.wav	2	24	blb_dichoticlistening_ka-ta.mp3	ka	ta	1	left
6.6.1	win	2023-06-26	21:39:48	21:57:35	1063060	5ec62902bb44c16b842128f9	1	1	main_slash	24	main_slash	111	stimuli_distractor_trianglediamonds.svg	stimuli_target_squaretriangles.svg	11	yes	0	0	2000	6	5	antiphase_hc_osi.wav	2	6	5	noise_calib_stim_RIGHT.wav	2	24	blb_dichoticlistening_ka-ta.mp3	ka	ta	1	left
6.6.1	win	2023-06-26	21:39:48	21:57:35	1063060	5ec62902bb44c16b842128f9	1	1	main_slash	24	advance_on_keypress_SLASH	112	stimuli_distractor_trianglediamonds.svg	stimuli_target_squaretriangles.svg	11	yes	57	0	961	6	5	antiphase_hc_osi.wav	2	6	5	noise_calib_stim_RIGHT.wav	2	24	blb_dichoticlistening_ka-ta.mp3	ka	ta	1	left
6.6.1	win	2023-06-26	21:39:48	21:57:38	1066658	5ec62902bb44c16b842128f9	1	1	main_slash	24	main_slash	113	stimuli_distractor_trianglediamonds.svg	stimuli_target_rectanglediamonds.svg	10	yes	0	0	2000	6	5	antiphase_hc_osi.wav	2	6	5	noise_calib_stim_RIGHT.wav	2	24	blb_dichoticlistening_ka-ta.mp3	ka	ta	1	left
6.6.1	win	2023-06-26	21:39:48	21:57:38	1066658	5ec62902bb44c16b842128f9	1	1	main_slash	24	advance_on_keypress_SLASH	114	stimuli_distractor_trianglediamonds.svg	stimuli_target_rectanglediamonds.svg	10	yes	57	0	5299	6	5	antiphase_hc_osi.wav	2	6	5	noise_calib_stim_RIGHT.wav	2	24	blb_dichoticlistening_ka-ta.mp3	ka	ta	1	left
6.6.1	win	2023-06-26	21:39:48	21:57:46	1074606	5ec62902bb44c16b842128f9	1	1	main_slash	24	main_slash	115	stimuli_target_trianglerectangles.svg	stimuli_distractor_diamondtriangles.svg	21	yes	0	0	2000	6	5	antiphase_hc_osi.wav	2	6	5	noise_calib_stim_RIGHT.wav	2	24	blb_dichoticlistening_ka-ta.mp3	ka	ta	1	left
6.6.1	win	2023-06-26	21:39:48	21:57:46	1074606	5ec62902bb44c16b842128f9	1	1	main_slash	24	advance_on_keypress_SLASH	116	stimuli_target_trianglerectangles.svg	stimuli_distractor_diamondtriangles.svg	21	yes	57	0	654	6	5	antiphase_hc_osi.wav	2	6	5	noise_calib_stim_RIGHT.wav	2	24	blb_dichoticlistening_ka-ta.mp3	ka	ta	1	left
6.6.1	win	2023-06-26	21:39:48	21:57:50	1077904	5ec62902bb44c16b842128f9	1	1	main_slash	24	main_slash	117	stimuli_target_trianglerectangles.svg	stimuli_distractor_trianglediamonds.svg	17	yes	0	0	2000	6	5	antiphase_hc_osi.wav	2	6	5	noise_calib_stim_RIGHT.wav	2	24	blb_dichoticlistening_ka-ta.mp3	ka	ta	1	left
6.6.1	win	2023-06-26	21:39:48	21:57:50	1077904	5ec62902bb44c16b842128f9	1	1	main_slash	24	advance_on_keypress_SLASH	118	stimuli_target_trianglerectangles.svg	stimuli_distractor_trianglediamonds.svg	17	yes	57	0	561	6	5	antiphase_hc_osi.wav	2	6	5	noise_calib_stim_RIGHT.wav	2	24	blb_dichoticlistening_ka-ta.mp3	ka	ta	1	left
6.6.1	win	2023-06-26	21:39:48	21:57:53	1081102	5ec62902bb44c16b842128f9	1	1	main_slash	24	main_slash	119	stimuli_distractor_trianglediamonds.svg	stimuli_target_diamondsquares.svg	28	yes	0	0	2000	6	5	antiphase_hc_osi.wav	2	6	5	noise_calib_stim_RIGHT.wav	2	24	blb_dichoticlistening_ka-ta.mp3	ka	ta	1	left
6.6.1	win	2023-06-26	21:39:48	21:57:53	1081102	5ec62902bb44c16b842128f9	1	1	main_slash	24	advance_on_keypress_SLASH	120	stimuli_distractor_trianglediamonds.svg	stimuli_target_diamondsquares.svg	28	yes	57	0	540	6	5	antiphase_hc_osi.wav	2	6	5	noise_calib_stim_RIGHT.wav	2	24	blb_dichoticlistening_ka-ta.mp3	ka	ta	1	left
6.6.1	win	2023-06-26	21:39:48	21:57:56	1084285	5ec62902bb44c16b842128f9	1	1	main_slash	24	main_slash	121	stimuli_target_trianglesquares.svg	stimuli_distractor_diamondtriangles.svg	22	yes	0	0	2000	6	5	antiphase_hc_osi.wav	2	6	5	noise_calib_stim_RIGHT.wav	2	24	blb_dichoticlistening_ka-ta.mp3	ka	ta	1	left
6.6.1	win	2023-06-26	21:39:48	21:57:56	1084285	5ec62902bb44c16b842128f9	1	1	main_slash	24	advance_on_keypress_SLASH	122	stimuli_target_trianglesquares.svg	stimuli_distractor_diamondtriangles.svg	22	yes	57	0	585	6	5	antiphase_hc_osi.wav	2	6	5	noise_calib_stim_RIGHT.wav	2	24	blb_dichoticlistening_ka-ta.mp3	ka	ta	1	left
6.6.1	win	2023-06-26	21:39:48	21:57:59	1087517	5ec62902bb44c16b842128f9	1	1	main_slash	24	main_slash	123	stimuli_target_diamondrectangles.svg	stimuli_distractor_trianglediamonds.svg	19	yes	0	0	2000	6	5	antiphase_hc_osi.wav	2	6	5	noise_calib_stim_RIGHT.wav	2	24	blb_dichoticlistening_ka-ta.mp3	ka	ta	1	left
6.6.1	win	2023-06-26	21:39:48	21:57:59	1087517	5ec62902bb44c16b842128f9	1	1	main_slash	24	advance_on_keypress_SLASH	124	stimuli_target_diamondrectangles.svg	stimuli_distractor_trianglediamonds.svg	19	yes	57	0	453	6	5	antiphase_hc_osi.wav	2	6	5	noise_calib_stim_RIGHT.wav	2	24	blb_dichoticlistening_ka-ta.mp3	ka	ta	1	left
6.6.1	win	2023-06-26	21:39:48	21:58:02	1090616	5ec62902bb44c16b842128f9	1	1	main_slash	24	main_slash	125	stimuli_distractor_diamondtriangles.svg	stimuli_target_squarediamonds.svg	16	yes	0	0	2000	6	5	antiphase_hc_osi.wav	2	6	5	noise_calib_stim_RIGHT.wav	2	24	blb_dichoticlistening_ka-ta.mp3	ka	ta	1	left
6.6.1	win	2023-06-26	21:39:48	21:58:02	1090616	5ec62902bb44c16b842128f9	1	1	main_slash	24	advance_on_keypress_SLASH	126	stimuli_distractor_diamondtriangles.svg	stimuli_target_squarediamonds.svg	16	yes	57	0	2250	6	5	antiphase_hc_osi.wav	2	6	5	noise_calib_stim_RIGHT.wav	2	24	blb_dichoticlistening_ka-ta.mp3	ka	ta	1	left
6.6.1	win	2023-06-26	21:39:48	21:58:05	1093597	5ec62902bb44c16b842128f9	1	1	main_slash	24	main_slash	127	stimuli_distractor_trianglediamonds.svg	stimuli_target_squarediamonds.svg	12	yes	53	1	84	6	5	antiphase_hc_osi.wav	2	6	5	noise_calib_stim_RIGHT.wav	2	24	blb_dichoticlistening_ka-ta.mp3	ka	ta	1	left
6.6.1	win	2023-06-26	21:39:48	21:58:05	1093597	5ec62902bb44c16b842128f9	1	1	main_slash	24	advance_on_keypress_SLASH	128	stimuli_distractor_trianglediamonds.svg	stimuli_target_squarediamonds.svg	12	yes	57	0	540	6	5	antiphase_hc_osi.wav	2	6	5	noise_calib_stim_RIGHT.wav	2	24	blb_dichoticlistening_ka-ta.mp3	ka	ta	1	left
6.6.1	win	2023-06-26	21:39:48	21:58:07	1095075	5ec62902bb44c16b842128f9	1	1	main_slash	24	main_slash	129	stimuli_distractor_diamondtriangles.svg	stimuli_distractor_trianglediamonds.svg	38	no	53	0	296	6	5	antiphase_hc_osi.wav	2	6	5	noise_calib_stim_RIGHT.wav	2	24	blb_dichoticlistening_ka-ta.mp3	ka	ta	1	left
6.6.1	win	2023-06-26	21:39:48	21:58:07	1095075	5ec62902bb44c16b842128f9	1	1	main_slash	24	advance_on_keypress_SLASH	130	stimuli_distractor_diamondtriangles.svg	stimuli_distractor_trianglediamonds.svg	38	no	57	0	407	6	5	antiphase_hc_osi.wav	2	6	5	noise_calib_stim_RIGHT.wav	2	24	blb_dichoticlistening_ka-ta.mp3	ka	ta	1	left
6.6.1	win	2023-06-26	21:39:48	21:58:10	1098112	5ec62902bb44c16b842128f9	1	1	main_slash	24	main_slash	131	stimuli_distractor_trianglediamonds.svg	stimuli_distractor_diamondtriangles.svg	35	no	0	1	2000	6	5	antiphase_hc_osi.wav	2	6	5	noise_calib_stim_RIGHT.wav	2	24	blb_dichoticlistening_ka-ta.mp3	ka	ta	1	left
6.6.1	win	2023-06-26	21:39:48	21:58:10	1098112	5ec62902bb44c16b842128f9	1	1	main_slash	24	advance_on_keypress_SLASH	132	stimuli_distractor_trianglediamonds.svg	stimuli_distractor_diamondtriangles.svg	35	no	57	0	987	6	5	antiphase_hc_osi.wav	2	6	5	noise_calib_stim_RIGHT.wav	2	24	blb_dichoticlistening_ka-ta.mp3	ka	ta	1	left
6.6.1	win	2023-06-26	21:39:48	21:58:14	1101744	5ec62902bb44c16b842128f9	1	1	main_slash	24	main_slash	133	stimuli_target_rectanglediamonds.svg	stimuli_distractor_trianglediamonds.svg	2	yes	0	0	2000	6	5	antiphase_hc_osi.wav	2	6	5	noise_calib_stim_RIGHT.wav	2	24	blb_dichoticlistening_ka-ta.mp3	ka	ta	1	left
6.6.1	win	2023-06-26	21:39:48	21:58:14	1101744	5ec62902bb44c16b842128f9	1	1	main_slash	24	advance_on_keypress_SLASH	134	stimuli_target_rectanglediamonds.svg	stimuli_distractor_trianglediamonds.svg	2	yes	57	0	1868	6	5	antiphase_hc_osi.wav	2	6	5	noise_calib_stim_RIGHT.wav	2	24	blb_dichoticlistening_ka-ta.mp3	ka	ta	1	left
6.6.1	win	2023-06-26	21:39:48	21:58:18	1106259	5ec62902bb44c16b842128f9	1	1	main_slash	24	main_slash	135	stimuli_target_rectangletriangles.svg	stimuli_distractor_diamondtriangles.svg	5	yes	0	0	2000	6	5	antiphase_hc_osi.wav	2	6	5	noise_calib_stim_RIGHT.wav	2	24	blb_dichoticlistening_ka-ta.mp3	ka	ta	1	left
6.6.1	win	2023-06-26	21:39:48	21:58:18	1106259	5ec62902bb44c16b842128f9	1	1	main_slash	24	advance_on_keypress_SLASH	136	stimuli_target_rectangletriangles.svg	stimuli_distractor_diamondtriangles.svg	5	yes	57	0	690	6	5	antiphase_hc_osi.wav	2	6	5	noise_calib_stim_RIGHT.wav	2	24	blb_dichoticlistening_ka-ta.mp3	ka	ta	1	left
6.6.1	win	2023-06-26	21:39:48	21:58:21	1108949	5ec62902bb44c16b842128f9	1	1	main_slash	24	main_slash	137	stimuli_distractor_diamondtriangles.svg	stimuli_distractor_trianglediamonds.svg	37	no	53	0	1357	6	5	antiphase_hc_osi.wav	2	6	5	noise_calib_stim_RIGHT.wav	2	24	blb_dichoticlistening_ka-ta.mp3	ka	ta	1	left
6.6.1	win	2023-06-26	21:39:48	21:58:21	1108949	5ec62902bb44c16b842128f9	1	1	main_slash	24	advance_on_keypress_SLASH	138	stimuli_distractor_diamondtriangles.svg	stimuli_distractor_trianglediamonds.svg	37	no	57	0	628	6	5	antiphase_hc_osi.wav	2	6	5	noise_calib_stim_RIGHT.wav	2	24	blb_dichoticlistening_ka-ta.mp3	ka	ta	1	left
6.6.1	win	2023-06-26	21:39:48	21:58:24	1112207	5ec62902bb44c16b842128f9	1	1	main_slash	24	main_slash	139	stimuli_distractor_diamondtriangles.svg	stimuli_target_squaretriangles.svg	15	yes	0	0	2000	6	5	antiphase_hc_osi.wav	2	6	5	noise_calib_stim_RIGHT.wav	2	24	blb_dichoticlistening_ka-ta.mp3	ka	ta	1	left
6.6.1	win	2023-06-26	21:39:48	21:58:24	1112207	5ec62902bb44c16b842128f9	1	1	main_slash	24	advance_on_keypress_SLASH	140	stimuli_distractor_diamondtriangles.svg	stimuli_target_squaretriangles.svg	15	yes	57	0	824	6	5	antiphase_hc_osi.wav	2	6	5	noise_calib_stim_RIGHT.wav	2	24	blb_dichoticlistening_ka-ta.mp3	ka	ta	1	left
6.6.1	win	2023-06-26	21:39:48	21:58:27	1115672	5ec62902bb44c16b842128f9	1	1	main_slash	24	main_slash	141	stimuli_distractor_diamondtriangles.svg	stimuli_distractor_diamondtriangles.svg	39	no	0	1	2000	6	5	antiphase_hc_osi.wav	2	6	5	noise_calib_stim_RIGHT.wav	2	24	blb_dichoticlistening_ka-ta.mp3	ka	ta	1	left
6.6.1	win	2023-06-26	21:39:48	21:58:27	1115672	5ec62902bb44c16b842128f9	1	1	main_slash	24	advance_on_keypress_SLASH	142	stimuli_distractor_diamondtriangles.svg	stimuli_distractor_diamondtriangles.svg	39	no	57	0	486	6	5	antiphase_hc_osi.wav	2	6	5	noise_calib_stim_RIGHT.wav	2	24	blb_dichoticlistening_ka-ta.mp3	ka	ta	1	left
6.6.1	win	2023-06-26	21:39:48	21:58:31	1118804	5ec62902bb44c16b842128f9	1	1	main_slash	24	main_slash	143	stimuli_distractor_diamondtriangles.svg	stimuli_target_rectangletriangles.svg	13	yes	0	0	2000	6	5	antiphase_hc_osi.wav	2	6	5	noise_calib_stim_RIGHT.wav	2	24	blb_dichoticlistening_ka-ta.mp3	ka	ta	1	left
6.6.1	win	2023-06-26	21:39:48	21:58:31	1118804	5ec62902bb44c16b842128f9	1	1	main_slash	24	advance_on_keypress_SLASH	144	stimuli_distractor_diamondtriangles.svg	stimuli_target_rectangletriangles.svg	13	yes	57	0	385	6	5	antiphase_hc_osi.wav	2	6	5	noise_calib_stim_RIGHT.wav	2	24	blb_dichoticlistening_ka-ta.mp3	ka	ta	1	left
6.6.1	win	2023-06-26	21:39:48	21:58:34	1121836	5ec62902bb44c16b842128f9	1	1	main_slash	24	main_slash	145	stimuli_distractor_trianglediamonds.svg	stimuli_distractor_trianglediamonds.svg	34	no	0	1	2000	6	5	antiphase_hc_osi.wav	2	6	5	noise_calib_stim_RIGHT.wav	2	24	blb_dichoticlistening_ka-ta.mp3	ka	ta	1	left
6.6.1	win	2023-06-26	21:39:48	21:58:34	1121836	5ec62902bb44c16b842128f9	1	1	main_slash	24	advance_on_keypress_SLASH	146	stimuli_distractor_trianglediamonds.svg	stimuli_distractor_trianglediamonds.svg	34	no	57	0	820	6	5	antiphase_hc_osi.wav	2	6	5	noise_calib_stim_RIGHT.wav	2	24	blb_dichoticlistening_ka-ta.mp3	ka	ta	1	left
6.6.1	win	2023-06-26	21:39:48	21:58:37	1125302	5ec62902bb44c16b842128f9	1	1	main_slash	24	main_slash	147	stimuli_distractor_diamondtriangles.svg	stimuli_target_diamondrectangles.svg	31	yes	0	0	2000	6	5	antiphase_hc_osi.wav	2	6	5	noise_calib_stim_RIGHT.wav	2	24	blb_dichoticlistening_ka-ta.mp3	ka	ta	1	left
6.6.1	win	2023-06-26	21:39:48	21:58:37	1125302	5ec62902bb44c16b842128f9	1	1	main_slash	24	advance_on_keypress_SLASH	148	stimuli_distractor_diamondtriangles.svg	stimuli_target_diamondrectangles.svg	31	yes	57	0	90	6	5	antiphase_hc_osi.wav	2	6	5	noise_calib_stim_RIGHT.wav	2	24	blb_dichoticlistening_ka-ta.mp3	ka	ta	1	left
6.6.1	win	2023-06-26	21:39:48	21:58:40	1128034	5ec62902bb44c16b842128f9	1	1	main_slash	24	main_slash	149	stimuli_distractor_diamondtriangles.svg	stimuli_target_rectanglediamonds.svg	14	yes	0	0	2000	6	5	antiphase_hc_osi.wav	2	6	5	noise_calib_stim_RIGHT.wav	2	24	blb_dichoticlistening_ka-ta.mp3	ka	ta	1	left
6.6.1	win	2023-06-26	21:39:48	21:58:40	1128034	5ec62902bb44c16b842128f9	1	1	main_slash	24	advance_on_keypress_SLASH	150	stimuli_distractor_diamondtriangles.svg	stimuli_target_rectanglediamonds.svg	14	yes	57	0	514	6	5	antiphase_hc_osi.wav	2	6	5	noise_calib_stim_RIGHT.wav	2	24	blb_dichoticlistening_ka-ta.mp3	ka	ta	1	left
6.6.1	win	2023-06-26	21:39:48	21:58:43	1131199	5ec62902bb44c16b842128f9	1	1	main_slash	24	main_slash	151	stimuli_distractor_trianglediamonds.svg	stimuli_distractor_trianglediamonds.svg	33	no	0	1	2000	6	5	antiphase_hc_osi.wav	2	6	5	noise_calib_stim_RIGHT.wav	2	24	blb_dichoticlistening_ka-ta.mp3	ka	ta	1	left
6.6.1	win	2023-06-26	21:39:48	21:58:43	1131199	5ec62902bb44c16b842128f9	1	1	main_slash	24	advance_on_keypress_SLASH	152	stimuli_distractor_trianglediamonds.svg	stimuli_distractor_trianglediamonds.svg	33	no	57	0	1036	6	5	antiphase_hc_osi.wav	2	6	5	noise_calib_stim_RIGHT.wav	2	24	blb_dichoticlistening_ka-ta.mp3	ka	ta	1	left
6.6.1	win	2023-06-26	21:39:48	21:58:47	1134881	5ec62902bb44c16b842128f9	1	1	main_slash	24	main_slash	153	stimuli_target_squarediamonds.svg	stimuli_distractor_trianglediamonds.svg	4	yes	0	0	2000	6	5	antiphase_hc_osi.wav	2	6	5	noise_calib_stim_RIGHT.wav	2	24	blb_dichoticlistening_ka-ta.mp3	ka	ta	1	left
6.6.1	win	2023-06-26	21:39:48	21:58:47	1134881	5ec62902bb44c16b842128f9	1	1	main_slash	24	advance_on_keypress_SLASH	154	stimuli_target_squarediamonds.svg	stimuli_distractor_trianglediamonds.svg	4	yes	57	0	4444	6	5	antiphase_hc_osi.wav	2	6	5	noise_calib_stim_RIGHT.wav	2	24	blb_dichoticlistening_ka-ta.mp3	ka	ta	1	left
6.6.1	win	2023-06-26	21:39:48	21:58:54	1141961	5ec62902bb44c16b842128f9	1	1	main_slash	24	main_slash	155	stimuli_target_diamondsquares.svg	stimuli_distractor_diamondtriangles.svg	24	yes	0	0	2000	6	5	antiphase_hc_osi.wav	2	6	5	noise_calib_stim_RIGHT.wav	2	24	blb_dichoticlistening_ka-ta.mp3	ka	ta	1	left
6.6.1	win	2023-06-26	21:39:48	21:58:54	1141961	5ec62902bb44c16b842128f9	1	1	main_slash	24	advance_on_keypress_SLASH	156	stimuli_target_diamondsquares.svg	stimuli_distractor_diamondtriangles.svg	24	yes	57	0	4301	6	5	antiphase_hc_osi.wav	2	6	5	noise_calib_stim_RIGHT.wav	2	24	blb_dichoticlistening_ka-ta.mp3	ka	ta	1	left
6.6.1	win	2023-06-26	21:39:48	21:59:01	1148909	5ec62902bb44c16b842128f9	1	1	main_slash	24	main_slash	157	stimuli_target_trianglesquares.svg	stimuli_distractor_trianglediamonds.svg	18	yes	0	0	2000	6	5	antiphase_hc_osi.wav	2	6	5	noise_calib_stim_RIGHT.wav	2	24	blb_dichoticlistening_ka-ta.mp3	ka	ta	1	left
6.6.1	win	2023-06-26	21:39:48	21:59:01	1148909	5ec62902bb44c16b842128f9	1	1	main_slash	24	advance_on_keypress_SLASH	158	stimuli_target_trianglesquares.svg	stimuli_distractor_trianglediamonds.svg	18	yes	57	0	5466	6	5	antiphase_hc_osi.wav	2	6	5	noise_calib_stim_RIGHT.wav	2	24	blb_dichoticlistening_ka-ta.mp3	ka	ta	1	left
6.6.1	win	2023-06-26	21:39:48	21:59:09	1157022	5ec62902bb44c16b842128f9	1	1	main_slash	24	main_slash	159	stimuli_target_squaretriangles.svg	stimuli_distractor_trianglediamonds.svg	3	yes	0	0	2000	6	5	antiphase_hc_osi.wav	2	6	5	noise_calib_stim_RIGHT.wav	2	24	blb_dichoticlistening_ka-ta.mp3	ka	ta	1	left
6.6.1	win	2023-06-26	21:39:48	21:59:09	1157022	5ec62902bb44c16b842128f9	1	1	main_slash	24	advance_on_keypress_SLASH	160	stimuli_target_squaretriangles.svg	stimuli_distractor_trianglediamonds.svg	3	yes	57	0	3350	6	5	antiphase_hc_osi.wav	2	6	5	noise_calib_stim_RIGHT.wav	2	24	blb_dichoticlistening_ka-ta.mp3	ka	ta	1	left
6.6.1	win	2023-06-26	21:39:48	21:59:49	1197178	5ec62902bb44c16b842128f9	1	1	practice_z	26	practice_z	1	stimuli_target_diamondsquares.svg	stimuli_distractor_trianglediamonds.svg	6	yes	44	1	1587	6	5	antiphase_hc_osi.wav	2	6	5	noise_calib_stim_RIGHT.wav	2	24	blb_dichoticlistening_ka-ta.mp3	ka	ta	1	left
6.6.1	win	2023-06-26	21:39:48	21:59:49	1197178	5ec62902bb44c16b842128f9	1	1	practice_z	26	advance_on_keypress_ZEE	2	stimuli_target_diamondsquares.svg	stimuli_distractor_trianglediamonds.svg	6	yes	57	0	496	6	5	antiphase_hc_osi.wav	2	6	5	noise_calib_stim_RIGHT.wav	2	24	blb_dichoticlistening_ka-ta.mp3	ka	ta	1	left
6.6.1	win	2023-06-26	21:39:48	21:59:53	1201323	5ec62902bb44c16b842128f9	1	1	practice_z	26	practice_z	3	stimuli_distractor_diamondtriangles.svg	stimuli_distractor_diamondtriangles.svg	13	no	0	1	2000	6	5	antiphase_hc_osi.wav	2	6	5	noise_calib_stim_RIGHT.wav	2	24	blb_dichoticlistening_ka-ta.mp3	ka	ta	1	left
6.6.1	win	2023-06-26	21:39:48	21:59:53	1201323	5ec62902bb44c16b842128f9	1	1	practice_z	26	advance_on_keypress_ZEE	4	stimuli_distractor_diamondtriangles.svg	stimuli_distractor_diamondtriangles.svg	13	no	57	0	873	6	5	antiphase_hc_osi.wav	2	6	5	noise_calib_stim_RIGHT.wav	2	24	blb_dichoticlistening_ka-ta.mp3	ka	ta	1	left
6.6.1	win	2023-06-26	21:39:48	21:59:58	1205838	5ec62902bb44c16b842128f9	1	1	practice_z	26	practice_z	5	stimuli_distractor_trianglediamonds.svg	stimuli_distractor_diamondtriangles.svg	16	no	0	1	2000	6	5	antiphase_hc_osi.wav	2	6	5	noise_calib_stim_RIGHT.wav	2	24	blb_dichoticlistening_ka-ta.mp3	ka	ta	1	left
6.6.1	win	2023-06-26	21:39:48	21:59:58	1205838	5ec62902bb44c16b842128f9	1	1	practice_z	26	advance_on_keypress_ZEE	6	stimuli_distractor_trianglediamonds.svg	stimuli_distractor_diamondtriangles.svg	16	no	57	0	742	6	5	antiphase_hc_osi.wav	2	6	5	noise_calib_stim_RIGHT.wav	2	24	blb_dichoticlistening_ka-ta.mp3	ka	ta	1	left
6.6.1	win	2023-06-26	21:39:48	22:00:01	1209027	5ec62902bb44c16b842128f9	1	1	practice_z	26	practice_z	7	stimuli_target_squarediamonds.svg	stimuli_distractor_diamondtriangles.svg	2	yes	44	1	808	6	5	antiphase_hc_osi.wav	2	6	5	noise_calib_stim_RIGHT.wav	2	24	blb_dichoticlistening_ka-ta.mp3	ka	ta	1	left
6.6.1	win	2023-06-26	21:39:48	22:00:01	1209027	5ec62902bb44c16b842128f9	1	1	practice_z	26	advance_on_keypress_ZEE	8	stimuli_target_squarediamonds.svg	stimuli_distractor_diamondtriangles.svg	2	yes	57	0	916	6	5	antiphase_hc_osi.wav	2	6	5	noise_calib_stim_RIGHT.wav	2	24	blb_dichoticlistening_ka-ta.mp3	ka	ta	1	left
6.6.1	win	2023-06-26	21:39:48	22:00:05	1213000	5ec62902bb44c16b842128f9	1	1	practice_z	26	practice_z	9	stimuli_distractor_diamondtriangles.svg	stimuli_target_diamondrectangles.svg	8	yes	44	1	1416	6	5	antiphase_hc_osi.wav	2	6	5	noise_calib_stim_RIGHT.wav	2	24	blb_dichoticlistening_ka-ta.mp3	ka	ta	1	left
6.6.1	win	2023-06-26	21:39:48	22:00:05	1213000	5ec62902bb44c16b842128f9	1	1	practice_z	26	advance_on_keypress_ZEE	10	stimuli_distractor_diamondtriangles.svg	stimuli_target_diamondrectangles.svg	8	yes	57	0	1459	6	5	antiphase_hc_osi.wav	2	6	5	noise_calib_stim_RIGHT.wav	2	24	blb_dichoticlistening_ka-ta.mp3	ka	ta	1	left
6.6.1	win	2023-06-26	21:39:48	22:00:10	1218099	5ec62902bb44c16b842128f9	1	1	practice_z	26	practice_z	11	stimuli_distractor_trianglediamonds.svg	stimuli_target_rectanglediamonds.svg	10	yes	0	0	2000	6	5	antiphase_hc_osi.wav	2	6	5	noise_calib_stim_RIGHT.wav	2	24	blb_dichoticlistening_ka-ta.mp3	ka	ta	1	left
6.6.1	win	2023-06-26	21:39:48	22:00:10	1218099	5ec62902bb44c16b842128f9	1	1	practice_z	26	advance_on_keypress_ZEE	12	stimuli_distractor_trianglediamonds.svg	stimuli_target_rectanglediamonds.svg	10	yes	57	0	770	6	5	antiphase_hc_osi.wav	2	6	5	noise_calib_stim_RIGHT.wav	2	24	blb_dichoticlistening_ka-ta.mp3	ka	ta	1	left
6.6.1	win	2023-06-26	21:39:48	22:00:14	1221833	5ec62902bb44c16b842128f9	1	1	practice_z	26	practice_z	13	stimuli_target_rectanglediamonds.svg	stimuli_distractor_diamondtriangles.svg	1	yes	44	1	1319	6	5	antiphase_hc_osi.wav	2	6	5	noise_calib_stim_RIGHT.wav	2	24	blb_dichoticlistening_ka-ta.mp3	ka	ta	1	left
6.6.1	win	2023-06-26	21:39:48	22:00:14	1221833	5ec62902bb44c16b842128f9	1	1	practice_z	26	advance_on_keypress_ZEE	14	stimuli_target_rectanglediamonds.svg	stimuli_distractor_diamondtriangles.svg	1	yes	57	0	1066	6	5	antiphase_hc_osi.wav	2	6	5	noise_calib_stim_RIGHT.wav	2	24	blb_dichoticlistening_ka-ta.mp3	ka	ta	1	left
