build	computer.platform	date	time	timestamp	time_elapsed_ms	subject	group	session	blockcode	blocknum	trialcode	trialnum	stimulus_left	stimulus_right	stim_index	target_present	response	correct	latency	headphonecheck_countTestTrials	headphonecheck_index	headphonecheck_testSound	headphonecheck_correctResponse	stereocheck_countTestTrials	stereocheck_index	stereocheck_testSound	stereocheck_correctResponse	DL_index	DL_soundfile	DL_leftSound	DL_rightSound	DL_dualSound	DL_choice
6.6.1	mac	2023-07-07	10:37:59	0	0	62ec4c02ead47ce424644dd8	1	1	headphonecheck_calibration	4	headphonecheck_calibrationIntro	1			0		calibrationButton	0	11059	0	0			0	0			1				0	
6.6.1	mac	2023-07-07	10:37:59	0	0	62ec4c02ead47ce424644dd8	1	1	headphonecheck_testphase	5	test_collectResponse	3			0		third	1	13425	1	6	antiphase_hc_ois.wav	3	0	0			1				0	
6.6.1	mac	2023-07-07	10:37:59	0	0	62ec4c02ead47ce424644dd8	1	1	headphonecheck_testphase	5	test_collectResponse	6			0		first	1	724	2	4	antiphase_hc_sio.wav	1	0	0			1				0	
6.6.1	mac	2023-07-07	10:37:59	0	0	62ec4c02ead47ce424644dd8	1	1	headphonecheck_testphase	5	test_collectResponse	9			0		third	1	897	3	2	antiphase_hc_ios.wav	3	0	0			1				0	
6.6.1	mac	2023-07-07	10:37:59	0	0	62ec4c02ead47ce424644dd8	1	1	headphonecheck_testphase	5	test_collectResponse	12			0		second	1	701	4	5	antiphase_hc_osi.wav	2	0	0			1				0	
6.6.1	mac	2023-07-07	10:37:59	0	0	62ec4c02ead47ce424644dd8	1	1	headphonecheck_testphase	5	test_collectResponse	15			0		second	1	700	5	1	antiphase_hc_iso.wav	2	0	0			1				0	
6.6.1	mac	2023-07-07	10:37:59	0	0	62ec4c02ead47ce424644dd8	1	1	headphonecheck_testphase	5	test_collectResponse	18			0		first	1	409	6	3	antiphase_hc_soi.wav	1	0	0			1				0	
6.6.1	mac	2023-07-07	10:37:59	0	0	62ec4c02ead47ce424644dd8	1	1	stereocheck_calibration	7	stereocheck_calibrationIntro	1			0		stereocheck_calibrationButton	0	10046	6	3	antiphase_hc_soi.wav	1	0	0			1				0	
6.6.1	mac	2023-07-07	10:37:59	0	0	62ec4c02ead47ce424644dd8	1	1	stereocheck_testphase	8	stereocheck_test_collectResponse	3			0		stereocheck_left	1	625	6	3	antiphase_hc_soi.wav	1	1	3	noise_calib_stim_LEFT.wav	1	1				0	
6.6.1	mac	2023-07-07	10:37:59	0	0	62ec4c02ead47ce424644dd8	1	1	stereocheck_testphase	8	stereocheck_test_collectResponse	6			0		stereocheck_left	1	353	6	3	antiphase_hc_soi.wav	1	2	1	noise_calib_stim_LEFT.wav	1	1				0	
6.6.1	mac	2023-07-07	10:37:59	0	0	62ec4c02ead47ce424644dd8	1	1	stereocheck_testphase	8	stereocheck_test_collectResponse	9			0		stereocheck_right	1	452	6	3	antiphase_hc_soi.wav	1	3	5	noise_calib_stim_RIGHT.wav	2	1				0	
6.6.1	mac	2023-07-07	10:37:59	0	0	62ec4c02ead47ce424644dd8	1	1	stereocheck_testphase	8	stereocheck_test_collectResponse	12			0		stereocheck_right	1	332	6	3	antiphase_hc_soi.wav	1	4	4	noise_calib_stim_RIGHT.wav	2	1				0	
6.6.1	mac	2023-07-07	10:37:59	0	0	62ec4c02ead47ce424644dd8	1	1	stereocheck_testphase	8	stereocheck_test_collectResponse	15			0		stereocheck_right	1	422	6	3	antiphase_hc_soi.wav	1	5	6	noise_calib_stim_RIGHT.wav	2	1				0	
6.6.1	mac	2023-07-07	10:37:59	0	0	62ec4c02ead47ce424644dd8	1	1	stereocheck_testphase	8	stereocheck_test_collectResponse	18			0		stereocheck_left	1	1659	6	3	antiphase_hc_soi.wav	1	6	2	noise_calib_stim_LEFT.wav	1	1				0	
6.6.1	mac	2023-07-07	10:37:59	0	0	62ec4c02ead47ce424644dd8	1	1	DL_practice	11	DL_practice	2			0		pa	1	5862	6	3	antiphase_hc_soi.wav	1	6	2	noise_calib_stim_LEFT.wav	1	23	blb_dichoticlistening_ka-pa.mp3	ka	pa	1	right
6.6.1	mac	2023-07-07	10:37:59	0	0	62ec4c02ead47ce424644dd8	1	1	DL_practice	11	DL_practice	3			0		ta	1	2479	6	3	antiphase_hc_soi.wav	1	6	2	noise_calib_stim_LEFT.wav	1	36	blb_dichoticlistening_ta-ta.mp3	ta	ta	0	left
6.6.1	mac	2023-07-07	10:37:59	0	0	62ec4c02ead47ce424644dd8	1	1	DL_practice	11	DL_practice	4			0		ba	1	2533	6	3	antiphase_hc_soi.wav	1	6	2	noise_calib_stim_LEFT.wav	1	1	blb_dichoticlistening_ba-ba.mp3	ba	ba	0	left
6.6.1	mac	2023-07-07	10:37:59	0	0	62ec4c02ead47ce424644dd8	1	1	DL_practice	11	DL_practice	5			0		ga	1	1688	6	3	antiphase_hc_soi.wav	1	6	2	noise_calib_stim_LEFT.wav	1	15	blb_dichoticlistening_ga-ga.mp3	ga	ga	0	left
6.6.1	mac	2023-07-07	10:37:59	0	0	62ec4c02ead47ce424644dd8	1	1	DL_practice	11	DL_practice	6			0		ba	1	2906	6	3	antiphase_hc_soi.wav	1	6	2	noise_calib_stim_LEFT.wav	1	7	blb_dichoticlistening_da-ba.mp3	da	ba	1	right
6.6.1	mac	2023-07-07	10:37:59	0	0	62ec4c02ead47ce424644dd8	1	1	DL_practice	11	DL_practice	7			0		pa	1	1773	6	3	antiphase_hc_soi.wav	1	6	2	noise_calib_stim_LEFT.wav	1	29	blb_dichoticlistening_pa-pa.mp3	pa	pa	0	left
6.6.1	mac	2023-07-07	10:37:59	0	0	62ec4c02ead47ce424644dd8	1	1	DL_practice	11	DL_practice	8			0		ga	1	4363	6	3	antiphase_hc_soi.wav	1	6	2	noise_calib_stim_LEFT.wav	1	18	blb_dichoticlistening_ga-ta.mp3	ga	ta	1	left
6.6.1	mac	2023-07-07	10:37:59	0	0	62ec4c02ead47ce424644dd8	1	1	DL_practice	11	DL_practice	9			0		ka	1	1999	6	3	antiphase_hc_soi.wav	1	6	2	noise_calib_stim_LEFT.wav	1	22	blb_dichoticlistening_ka-ka.mp3	ka	ka	0	left
6.6.1	mac	2023-07-07	10:37:59	0	0	62ec4c02ead47ce424644dd8	1	1	DL_practice	11	DL_practice	10			0		da	1	1762	6	3	antiphase_hc_soi.wav	1	6	2	noise_calib_stim_LEFT.wav	1	8	blb_dichoticlistening_da-da.mp3	da	da	0	left
6.6.1	mac	2023-07-07	10:37:59	0	0	62ec4c02ead47ce424644dd8	1	1	DL_test	13	DL_test	1			0		da	1	2369	6	3	antiphase_hc_soi.wav	1	6	2	noise_calib_stim_LEFT.wav	1	9	blb_dichoticlistening_da-ga.mp3	da	ga	1	left
6.6.1	mac	2023-07-07	10:37:59	0	0	62ec4c02ead47ce424644dd8	1	1	DL_test	13	DL_test	2			0		ka	1	1549	6	3	antiphase_hc_soi.wav	1	6	2	noise_calib_stim_LEFT.wav	1	21	blb_dichoticlistening_ka-ga.mp3	ka	ga	1	left
6.6.1	mac	2023-07-07	10:37:59	0	0	62ec4c02ead47ce424644dd8	1	1	DL_test	13	DL_test	3			0		ta	1	2216	6	3	antiphase_hc_soi.wav	1	6	2	noise_calib_stim_LEFT.wav	1	34	blb_dichoticlistening_ta-ka.mp3	ta	ka	1	left
6.6.1	mac	2023-07-07	10:37:59	0	0	62ec4c02ead47ce424644dd8	1	1	DL_test	13	DL_test	4			0		pa	0	2428	6	3	antiphase_hc_soi.wav	1	6	2	noise_calib_stim_LEFT.wav	1	10	blb_dichoticlistening_da-ka.mp3	da	ka	1	other
6.6.1	mac	2023-07-07	10:37:59	0	0	62ec4c02ead47ce424644dd8	1	1	DL_test	13	DL_test	5			0		ta	1	2237	6	3	antiphase_hc_soi.wav	1	6	2	noise_calib_stim_LEFT.wav	1	36	blb_dichoticlistening_ta-ta.mp3	ta	ta	0	left
6.6.1	mac	2023-07-07	10:37:59	0	0	62ec4c02ead47ce424644dd8	1	1	DL_test	13	DL_test	6			0		pa	1	2333	6	3	antiphase_hc_soi.wav	1	6	2	noise_calib_stim_LEFT.wav	1	17	blb_dichoticlistening_ga-pa.mp3	ga	pa	1	right
6.6.1	mac	2023-07-07	10:37:59	0	0	62ec4c02ead47ce424644dd8	1	1	DL_test	13	DL_test	7			0		pa	1	1470	6	3	antiphase_hc_soi.wav	1	6	2	noise_calib_stim_LEFT.wav	1	23	blb_dichoticlistening_ka-pa.mp3	ka	pa	1	right
6.6.1	mac	2023-07-07	10:37:59	0	0	62ec4c02ead47ce424644dd8	1	1	DL_test	13	DL_test	8			0		ba	1	2055	6	3	antiphase_hc_soi.wav	1	6	2	noise_calib_stim_LEFT.wav	1	13	blb_dichoticlistening_ga-ba.mp3	ga	ba	1	right
6.6.1	mac	2023-07-07	10:37:59	0	0	62ec4c02ead47ce424644dd8	1	1	DL_test	13	DL_test	9			0		ta	1	2816	6	3	antiphase_hc_soi.wav	1	6	2	noise_calib_stim_LEFT.wav	1	12	blb_dichoticlistening_da-ta.mp3	da	ta	1	right
6.6.1	mac	2023-07-07	10:37:59	0	0	62ec4c02ead47ce424644dd8	1	1	DL_test	13	DL_test	10			0		pa	1	1486	6	3	antiphase_hc_soi.wav	1	6	2	noise_calib_stim_LEFT.wav	1	35	blb_dichoticlistening_ta-pa.mp3	ta	pa	1	right
6.6.1	mac	2023-07-07	10:37:59	0	0	62ec4c02ead47ce424644dd8	1	1	DL_test	13	DL_test	11			0		ka	1	2536	6	3	antiphase_hc_soi.wav	1	6	2	noise_calib_stim_LEFT.wav	1	4	blb_dichoticlistening_ba-ka.mp3	ba	ka	1	right
6.6.1	mac	2023-07-07	10:37:59	0	0	62ec4c02ead47ce424644dd8	1	1	DL_test	13	DL_test	12			0		ka	0	4870	6	3	antiphase_hc_soi.wav	1	6	2	noise_calib_stim_LEFT.wav	1	6	blb_dichoticlistening_ba-ta.mp3	ba	ta	1	other
6.6.1	mac	2023-07-07	10:37:59	0	0	62ec4c02ead47ce424644dd8	1	1	DL_test	13	DL_test	13			0		ka	1	1419	6	3	antiphase_hc_soi.wav	1	6	2	noise_calib_stim_LEFT.wav	1	24	blb_dichoticlistening_ka-ta.mp3	ka	ta	1	left
6.6.1	mac	2023-07-07	10:37:59	0	0	62ec4c02ead47ce424644dd8	1	1	DL_test	13	DL_test	14			0		ba	1	1826	6	3	antiphase_hc_soi.wav	1	6	2	noise_calib_stim_LEFT.wav	1	7	blb_dichoticlistening_da-ba.mp3	da	ba	1	right
6.6.1	mac	2023-07-07	10:37:59	0	0	62ec4c02ead47ce424644dd8	1	1	DL_test	13	DL_test	15			0		da	1	1364	6	3	antiphase_hc_soi.wav	1	6	2	noise_calib_stim_LEFT.wav	1	8	blb_dichoticlistening_da-da.mp3	da	da	0	left
6.6.1	mac	2023-07-07	10:37:59	0	0	62ec4c02ead47ce424644dd8	1	1	DL_test	13	DL_test	16			0		pa	0	1521	6	3	antiphase_hc_soi.wav	1	6	2	noise_calib_stim_LEFT.wav	1	31	blb_dichoticlistening_ta-ba.mp3	ta	ba	1	other
6.6.1	mac	2023-07-07	10:37:59	0	0	62ec4c02ead47ce424644dd8	1	1	DL_test	13	DL_test	17			0		ta	1	1576	6	3	antiphase_hc_soi.wav	1	6	2	noise_calib_stim_LEFT.wav	1	30	blb_dichoticlistening_pa-ta.mp3	pa	ta	1	right
6.6.1	mac	2023-07-07	10:37:59	0	0	62ec4c02ead47ce424644dd8	1	1	DL_test	13	DL_test	18			0		pa	1	1426	6	3	antiphase_hc_soi.wav	1	6	2	noise_calib_stim_LEFT.wav	1	27	blb_dichoticlistening_pa-ga.mp3	pa	ga	1	left
6.6.1	mac	2023-07-07	10:37:59	0	0	62ec4c02ead47ce424644dd8	1	1	DL_test	13	DL_test	19			0		ka	0	1426	6	3	antiphase_hc_soi.wav	1	6	2	noise_calib_stim_LEFT.wav	1	18	blb_dichoticlistening_ga-ta.mp3	ga	ta	1	other
6.6.1	mac	2023-07-07	10:37:59	0	0	62ec4c02ead47ce424644dd8	1	1	DL_test	13	DL_test	20			0		pa	1	1481	6	3	antiphase_hc_soi.wav	1	6	2	noise_calib_stim_LEFT.wav	1	25	blb_dichoticlistening_pa-ba.mp3	pa	ba	1	left
6.6.1	mac	2023-07-07	10:37:59	0	0	62ec4c02ead47ce424644dd8	1	1	DL_test	13	DL_test	21			0		pa	0	2526	6	3	antiphase_hc_soi.wav	1	6	2	noise_calib_stim_LEFT.wav	1	19	blb_dichoticlistening_ka-ba.mp3	ka	ba	1	other
6.6.1	mac	2023-07-07	10:37:59	0	0	62ec4c02ead47ce424644dd8	1	1	DL_test	13	DL_test	22			0		ka	1	1112	6	3	antiphase_hc_soi.wav	1	6	2	noise_calib_stim_LEFT.wav	1	16	blb_dichoticlistening_ga-ka.mp3	ga	ka	1	right
6.6.1	mac	2023-07-07	10:37:59	0	0	62ec4c02ead47ce424644dd8	1	1	DL_test	13	DL_test	23			0		pa	1	1282	6	3	antiphase_hc_soi.wav	1	6	2	noise_calib_stim_LEFT.wav	1	26	blb_dichoticlistening_pa-da.mp3	pa	da	1	left
6.6.1	mac	2023-07-07	10:37:59	0	0	62ec4c02ead47ce424644dd8	1	1	DL_test	13	DL_test	24			0		ta	1	1386	6	3	antiphase_hc_soi.wav	1	6	2	noise_calib_stim_LEFT.wav	1	32	blb_dichoticlistening_ta-da.mp3	ta	da	1	left
6.6.1	mac	2023-07-07	10:37:59	0	0	62ec4c02ead47ce424644dd8	1	1	DL_test	13	DL_test	25			0		ta	1	2585	6	3	antiphase_hc_soi.wav	1	6	2	noise_calib_stim_LEFT.wav	1	33	blb_dichoticlistening_ta-ga.mp3	ta	ga	1	left
6.6.1	mac	2023-07-07	10:37:59	0	0	62ec4c02ead47ce424644dd8	1	1	DL_test	13	DL_test	26			0		ka	1	1135	6	3	antiphase_hc_soi.wav	1	6	2	noise_calib_stim_LEFT.wav	1	22	blb_dichoticlistening_ka-ka.mp3	ka	ka	0	left
6.6.1	mac	2023-07-07	10:37:59	0	0	62ec4c02ead47ce424644dd8	1	1	DL_test	13	DL_test	27			0		da	1	1784	6	3	antiphase_hc_soi.wav	1	6	2	noise_calib_stim_LEFT.wav	1	2	blb_dichoticlistening_ba-da.mp3	ba	da	1	right
6.6.1	mac	2023-07-07	10:37:59	0	0	62ec4c02ead47ce424644dd8	1	1	DL_test	13	DL_test	28			0		ka	1	2720	6	3	antiphase_hc_soi.wav	1	6	2	noise_calib_stim_LEFT.wav	1	28	blb_dichoticlistening_pa-ka.mp3	pa	ka	1	right
6.6.1	mac	2023-07-07	10:37:59	0	0	62ec4c02ead47ce424644dd8	1	1	DL_test	13	DL_test	29			0		ba	1	2777	6	3	antiphase_hc_soi.wav	1	6	2	noise_calib_stim_LEFT.wav	1	3	blb_dichoticlistening_ba-ga.mp3	ba	ga	1	left
6.6.1	mac	2023-07-07	10:37:59	0	0	62ec4c02ead47ce424644dd8	1	1	DL_test	13	DL_test	30			0		ga	1	1363	6	3	antiphase_hc_soi.wav	1	6	2	noise_calib_stim_LEFT.wav	1	15	blb_dichoticlistening_ga-ga.mp3	ga	ga	0	left
6.6.1	mac	2023-07-07	10:37:59	0	0	62ec4c02ead47ce424644dd8	1	1	DL_test	13	DL_test	31			0		ba	1	2131	6	3	antiphase_hc_soi.wav	1	6	2	noise_calib_stim_LEFT.wav	1	1	blb_dichoticlistening_ba-ba.mp3	ba	ba	0	left
6.6.1	mac	2023-07-07	10:37:59	0	0	62ec4c02ead47ce424644dd8	1	1	DL_test	13	DL_test	32			0		pa	1	1926	6	3	antiphase_hc_soi.wav	1	6	2	noise_calib_stim_LEFT.wav	1	5	blb_dichoticlistening_ba-pa.mp3	ba	pa	1	right
6.6.1	mac	2023-07-07	10:37:59	0	0	62ec4c02ead47ce424644dd8	1	1	DL_test	13	DL_test	33			0		pa	1	1973	6	3	antiphase_hc_soi.wav	1	6	2	noise_calib_stim_LEFT.wav	1	11	blb_dichoticlistening_da-pa.mp3	da	pa	1	right
6.6.1	mac	2023-07-07	10:37:59	0	0	62ec4c02ead47ce424644dd8	1	1	DL_test	13	DL_test	34			0		ka	1	1555	6	3	antiphase_hc_soi.wav	1	6	2	noise_calib_stim_LEFT.wav	1	20	blb_dichoticlistening_ka-da.mp3	ka	da	1	left
6.6.1	mac	2023-07-07	10:37:59	0	0	62ec4c02ead47ce424644dd8	1	1	DL_test	13	DL_test	35			0		pa	1	1897	6	3	antiphase_hc_soi.wav	1	6	2	noise_calib_stim_LEFT.wav	1	29	blb_dichoticlistening_pa-pa.mp3	pa	pa	0	left
6.6.1	mac	2023-07-07	10:37:59	0	0	62ec4c02ead47ce424644dd8	1	1	DL_test	13	DL_test	36			0		da	1	1604	6	3	antiphase_hc_soi.wav	1	6	2	noise_calib_stim_LEFT.wav	1	14	blb_dichoticlistening_ga-da.mp3	ga	da	1	right
6.6.1	mac	2023-07-07	10:37:59	0	0	62ec4c02ead47ce424644dd8	1	1	DL_test	14	DL_test	1			0		ka	1	1324	6	3	antiphase_hc_soi.wav	1	6	2	noise_calib_stim_LEFT.wav	1	34	blb_dichoticlistening_ta-ka.mp3	ta	ka	1	right
6.6.1	mac	2023-07-07	10:37:59	0	0	62ec4c02ead47ce424644dd8	1	1	DL_test	14	DL_test	2			0		ba	1	1752	6	3	antiphase_hc_soi.wav	1	6	2	noise_calib_stim_LEFT.wav	1	13	blb_dichoticlistening_ga-ba.mp3	ga	ba	1	right
6.6.1	mac	2023-07-07	10:37:59	0	0	62ec4c02ead47ce424644dd8	1	1	DL_test	14	DL_test	3			0		ta	1	2810	6	3	antiphase_hc_soi.wav	1	6	2	noise_calib_stim_LEFT.wav	1	32	blb_dichoticlistening_ta-da.mp3	ta	da	1	left
6.6.1	mac	2023-07-07	10:37:59	0	0	62ec4c02ead47ce424644dd8	1	1	DL_test	14	DL_test	4			0		ba	1	1537	6	3	antiphase_hc_soi.wav	1	6	2	noise_calib_stim_LEFT.wav	1	7	blb_dichoticlistening_da-ba.mp3	da	ba	1	right
6.6.1	mac	2023-07-07	10:37:59	0	0	62ec4c02ead47ce424644dd8	1	1	DL_test	14	DL_test	5			0		da	1	1049	6	3	antiphase_hc_soi.wav	1	6	2	noise_calib_stim_LEFT.wav	1	8	blb_dichoticlistening_da-da.mp3	da	da	0	left
6.6.1	mac	2023-07-07	10:37:59	0	0	62ec4c02ead47ce424644dd8	1	1	DL_test	14	DL_test	6			0		ta	1	1829	6	3	antiphase_hc_soi.wav	1	6	2	noise_calib_stim_LEFT.wav	1	36	blb_dichoticlistening_ta-ta.mp3	ta	ta	0	left
6.6.1	mac	2023-07-07	10:37:59	0	0	62ec4c02ead47ce424644dd8	1	1	DL_test	14	DL_test	7			0		da	1	1243	6	3	antiphase_hc_soi.wav	1	6	2	noise_calib_stim_LEFT.wav	1	9	blb_dichoticlistening_da-ga.mp3	da	ga	1	left
6.6.1	mac	2023-07-07	10:37:59	0	0	62ec4c02ead47ce424644dd8	1	1	DL_test	14	DL_test	8			0		ka	1	1884	6	3	antiphase_hc_soi.wav	1	6	2	noise_calib_stim_LEFT.wav	1	24	blb_dichoticlistening_ka-ta.mp3	ka	ta	1	left
6.6.1	mac	2023-07-07	10:37:59	0	0	62ec4c02ead47ce424644dd8	1	1	DL_test	14	DL_test	9			0		ka	1	2102	6	3	antiphase_hc_soi.wav	1	6	2	noise_calib_stim_LEFT.wav	1	4	blb_dichoticlistening_ba-ka.mp3	ba	ka	1	right
6.6.1	mac	2023-07-07	10:37:59	0	0	62ec4c02ead47ce424644dd8	1	1	DL_test	14	DL_test	10			0		pa	1	2518	6	3	antiphase_hc_soi.wav	1	6	2	noise_calib_stim_LEFT.wav	1	25	blb_dichoticlistening_pa-ba.mp3	pa	ba	1	left
6.6.1	mac	2023-07-07	10:37:59	0	0	62ec4c02ead47ce424644dd8	1	1	DL_test	14	DL_test	11			0		pa	0	3248	6	3	antiphase_hc_soi.wav	1	6	2	noise_calib_stim_LEFT.wav	1	31	blb_dichoticlistening_ta-ba.mp3	ta	ba	1	other
6.6.1	mac	2023-07-07	10:37:59	0	0	62ec4c02ead47ce424644dd8	1	1	DL_test	14	DL_test	12			0		pa	1	1292	6	3	antiphase_hc_soi.wav	1	6	2	noise_calib_stim_LEFT.wav	1	29	blb_dichoticlistening_pa-pa.mp3	pa	pa	0	left
6.6.1	mac	2023-07-07	10:37:59	0	0	62ec4c02ead47ce424644dd8	1	1	DL_test	14	DL_test	13			0		ka	0	1693	6	3	antiphase_hc_soi.wav	1	6	2	noise_calib_stim_LEFT.wav	1	18	blb_dichoticlistening_ga-ta.mp3	ga	ta	1	other
6.6.1	mac	2023-07-07	10:37:59	0	0	62ec4c02ead47ce424644dd8	1	1	DL_test	14	DL_test	14			0		pa	1	2146	6	3	antiphase_hc_soi.wav	1	6	2	noise_calib_stim_LEFT.wav	1	5	blb_dichoticlistening_ba-pa.mp3	ba	pa	1	right
6.6.1	mac	2023-07-07	10:37:59	0	0	62ec4c02ead47ce424644dd8	1	1	DL_test	14	DL_test	15			0		ka	1	1192	6	3	antiphase_hc_soi.wav	1	6	2	noise_calib_stim_LEFT.wav	1	21	blb_dichoticlistening_ka-ga.mp3	ka	ga	1	left
6.6.1	mac	2023-07-07	10:37:59	0	0	62ec4c02ead47ce424644dd8	1	1	DL_test	14	DL_test	16			0		ta	1	1599	6	3	antiphase_hc_soi.wav	1	6	2	noise_calib_stim_LEFT.wav	1	30	blb_dichoticlistening_pa-ta.mp3	pa	ta	1	right
6.6.1	mac	2023-07-07	10:37:59	0	0	62ec4c02ead47ce424644dd8	1	1	DL_test	14	DL_test	17			0		pa	1	4007	6	3	antiphase_hc_soi.wav	1	6	2	noise_calib_stim_LEFT.wav	1	26	blb_dichoticlistening_pa-da.mp3	pa	da	1	left
6.6.1	mac	2023-07-07	10:37:59	0	0	62ec4c02ead47ce424644dd8	1	1	DL_test	14	DL_test	18			0		pa	1	1897	6	3	antiphase_hc_soi.wav	1	6	2	noise_calib_stim_LEFT.wav	1	11	blb_dichoticlistening_da-pa.mp3	da	pa	1	right
6.6.1	mac	2023-07-07	10:37:59	0	0	62ec4c02ead47ce424644dd8	1	1	DL_test	14	DL_test	19			0		ta	1	2296	6	3	antiphase_hc_soi.wav	1	6	2	noise_calib_stim_LEFT.wav	1	12	blb_dichoticlistening_da-ta.mp3	da	ta	1	right
6.6.1	mac	2023-07-07	10:37:59	0	0	62ec4c02ead47ce424644dd8	1	1	DL_test	14	DL_test	20			0		ta	1	2183	6	3	antiphase_hc_soi.wav	1	6	2	noise_calib_stim_LEFT.wav	1	35	blb_dichoticlistening_ta-pa.mp3	ta	pa	1	left
6.6.1	mac	2023-07-07	10:37:59	0	0	62ec4c02ead47ce424644dd8	1	1	DL_test	14	DL_test	21			0		ka	1	1320	6	3	antiphase_hc_soi.wav	1	6	2	noise_calib_stim_LEFT.wav	1	22	blb_dichoticlistening_ka-ka.mp3	ka	ka	0	left
6.6.1	mac	2023-07-07	10:37:59	0	0	62ec4c02ead47ce424644dd8	1	1	DL_test	14	DL_test	22			0		ka	1	2157	6	3	antiphase_hc_soi.wav	1	6	2	noise_calib_stim_LEFT.wav	1	16	blb_dichoticlistening_ga-ka.mp3	ga	ka	1	right
6.6.1	mac	2023-07-07	10:37:59	0	0	62ec4c02ead47ce424644dd8	1	1	DL_test	14	DL_test	23			0		ga	0	3158	6	3	antiphase_hc_soi.wav	1	6	2	noise_calib_stim_LEFT.wav	1	19	blb_dichoticlistening_ka-ba.mp3	ka	ba	1	other
6.6.1	mac	2023-07-07	10:37:59	0	0	62ec4c02ead47ce424644dd8	1	1	DL_test	14	DL_test	24			0		ba	1	2182	6	3	antiphase_hc_soi.wav	1	6	2	noise_calib_stim_LEFT.wav	1	3	blb_dichoticlistening_ba-ga.mp3	ba	ga	1	left
6.6.1	mac	2023-07-07	10:37:59	0	0	62ec4c02ead47ce424644dd8	1	1	DL_test	14	DL_test	25			0		pa	0	1790	6	3	antiphase_hc_soi.wav	1	6	2	noise_calib_stim_LEFT.wav	1	10	blb_dichoticlistening_da-ka.mp3	da	ka	1	other
6.6.1	mac	2023-07-07	10:37:59	0	0	62ec4c02ead47ce424644dd8	1	1	DL_test	14	DL_test	26			0		ka	1	1886	6	3	antiphase_hc_soi.wav	1	6	2	noise_calib_stim_LEFT.wav	1	20	blb_dichoticlistening_ka-da.mp3	ka	da	1	left
6.6.1	mac	2023-07-07	10:37:59	0	0	62ec4c02ead47ce424644dd8	1	1	DL_test	14	DL_test	27			0		ga	1	1367	6	3	antiphase_hc_soi.wav	1	6	2	noise_calib_stim_LEFT.wav	1	15	blb_dichoticlistening_ga-ga.mp3	ga	ga	0	left
6.6.1	mac	2023-07-07	10:37:59	0	0	62ec4c02ead47ce424644dd8	1	1	DL_test	14	DL_test	28			0		da	1	1348	6	3	antiphase_hc_soi.wav	1	6	2	noise_calib_stim_LEFT.wav	1	2	blb_dichoticlistening_ba-da.mp3	ba	da	1	right
6.6.1	mac	2023-07-07	10:37:59	0	0	62ec4c02ead47ce424644dd8	1	1	DL_test	14	DL_test	29			0		ka	1	1375	6	3	antiphase_hc_soi.wav	1	6	2	noise_calib_stim_LEFT.wav	1	28	blb_dichoticlistening_pa-ka.mp3	pa	ka	1	right
6.6.1	mac	2023-07-07	10:37:59	0	0	62ec4c02ead47ce424644dd8	1	1	DL_test	14	DL_test	30			0		pa	1	1298	6	3	antiphase_hc_soi.wav	1	6	2	noise_calib_stim_LEFT.wav	1	27	blb_dichoticlistening_pa-ga.mp3	pa	ga	1	left
6.6.1	mac	2023-07-07	10:37:59	0	0	62ec4c02ead47ce424644dd8	1	1	DL_test	14	DL_test	31			0		ka	0	1920	6	3	antiphase_hc_soi.wav	1	6	2	noise_calib_stim_LEFT.wav	1	33	blb_dichoticlistening_ta-ga.mp3	ta	ga	1	other
6.6.1	mac	2023-07-07	10:37:59	0	0	62ec4c02ead47ce424644dd8	1	1	DL_test	14	DL_test	32			0		ta	1	1702	6	3	antiphase_hc_soi.wav	1	6	2	noise_calib_stim_LEFT.wav	1	6	blb_dichoticlistening_ba-ta.mp3	ba	ta	1	right
6.6.1	mac	2023-07-07	10:37:59	0	0	62ec4c02ead47ce424644dd8	1	1	DL_test	14	DL_test	33			0		ka	1	1254	6	3	antiphase_hc_soi.wav	1	6	2	noise_calib_stim_LEFT.wav	1	23	blb_dichoticlistening_ka-pa.mp3	ka	pa	1	left
6.6.1	mac	2023-07-07	10:37:59	0	0	62ec4c02ead47ce424644dd8	1	1	DL_test	14	DL_test	34			0		pa	1	1261	6	3	antiphase_hc_soi.wav	1	6	2	noise_calib_stim_LEFT.wav	1	17	blb_dichoticlistening_ga-pa.mp3	ga	pa	1	right
6.6.1	mac	2023-07-07	10:37:59	0	0	62ec4c02ead47ce424644dd8	1	1	DL_test	14	DL_test	35			0		da	1	1499	6	3	antiphase_hc_soi.wav	1	6	2	noise_calib_stim_LEFT.wav	1	14	blb_dichoticlistening_ga-da.mp3	ga	da	1	right
6.6.1	mac	2023-07-07	10:37:59	0	0	62ec4c02ead47ce424644dd8	1	1	DL_test	14	DL_test	36			0		ba	1	1921	6	3	antiphase_hc_soi.wav	1	6	2	noise_calib_stim_LEFT.wav	1	1	blb_dichoticlistening_ba-ba.mp3	ba	ba	0	left
6.6.1	mac	2023-07-07	10:37:59	0	0	62ec4c02ead47ce424644dd8	1	1	DL_test	15	DL_test	1			0		ka	1	1528	6	3	antiphase_hc_soi.wav	1	6	2	noise_calib_stim_LEFT.wav	1	34	blb_dichoticlistening_ta-ka.mp3	ta	ka	1	right
6.6.1	mac	2023-07-07	10:37:59	0	0	62ec4c02ead47ce424644dd8	1	1	DL_test	15	DL_test	2			0		ta	1	1483	6	3	antiphase_hc_soi.wav	1	6	2	noise_calib_stim_LEFT.wav	1	12	blb_dichoticlistening_da-ta.mp3	da	ta	1	right
6.6.1	mac	2023-07-07	10:37:59	0	0	62ec4c02ead47ce424644dd8	1	1	DL_test	15	DL_test	3			0		ta	1	2432	6	3	antiphase_hc_soi.wav	1	6	2	noise_calib_stim_LEFT.wav	1	18	blb_dichoticlistening_ga-ta.mp3	ga	ta	1	right
6.6.1	mac	2023-07-07	10:37:59	0	0	62ec4c02ead47ce424644dd8	1	1	DL_test	15	DL_test	4			0		pa	1	1224	6	3	antiphase_hc_soi.wav	1	6	2	noise_calib_stim_LEFT.wav	1	25	blb_dichoticlistening_pa-ba.mp3	pa	ba	1	left
6.6.1	mac	2023-07-07	10:37:59	0	0	62ec4c02ead47ce424644dd8	1	1	DL_test	15	DL_test	5			0		ba	1	1301	6	3	antiphase_hc_soi.wav	1	6	2	noise_calib_stim_LEFT.wav	1	7	blb_dichoticlistening_da-ba.mp3	da	ba	1	right
6.6.1	mac	2023-07-07	10:37:59	0	0	62ec4c02ead47ce424644dd8	1	1	DL_test	15	DL_test	6			0		ga	0	3321	6	3	antiphase_hc_soi.wav	1	6	2	noise_calib_stim_LEFT.wav	1	6	blb_dichoticlistening_ba-ta.mp3	ba	ta	1	other
6.6.1	mac	2023-07-07	10:37:59	0	0	62ec4c02ead47ce424644dd8	1	1	DL_test	15	DL_test	7			0		da	1	1879	6	3	antiphase_hc_soi.wav	1	6	2	noise_calib_stim_LEFT.wav	1	2	blb_dichoticlistening_ba-da.mp3	ba	da	1	right
6.6.1	mac	2023-07-07	10:37:59	0	0	62ec4c02ead47ce424644dd8	1	1	DL_test	15	DL_test	8			0		ka	1	1441	6	3	antiphase_hc_soi.wav	1	6	2	noise_calib_stim_LEFT.wav	1	22	blb_dichoticlistening_ka-ka.mp3	ka	ka	0	left
6.6.1	mac	2023-07-07	10:37:59	0	0	62ec4c02ead47ce424644dd8	1	1	DL_test	15	DL_test	9			0		ga	1	1053	6	3	antiphase_hc_soi.wav	1	6	2	noise_calib_stim_LEFT.wav	1	15	blb_dichoticlistening_ga-ga.mp3	ga	ga	0	left
6.6.1	mac	2023-07-07	10:37:59	0	0	62ec4c02ead47ce424644dd8	1	1	DL_test	15	DL_test	10			0		da	1	1820	6	3	antiphase_hc_soi.wav	1	6	2	noise_calib_stim_LEFT.wav	1	14	blb_dichoticlistening_ga-da.mp3	ga	da	1	right
6.6.1	mac	2023-07-07	10:37:59	0	0	62ec4c02ead47ce424644dd8	1	1	DL_test	15	DL_test	11			0		ba	1	1549	6	3	antiphase_hc_soi.wav	1	6	2	noise_calib_stim_LEFT.wav	1	13	blb_dichoticlistening_ga-ba.mp3	ga	ba	1	right
6.6.1	mac	2023-07-07	10:37:59	0	0	62ec4c02ead47ce424644dd8	1	1	DL_test	15	DL_test	12			0		ka	1	1141	6	3	antiphase_hc_soi.wav	1	6	2	noise_calib_stim_LEFT.wav	1	28	blb_dichoticlistening_pa-ka.mp3	pa	ka	1	right
6.6.1	mac	2023-07-07	10:37:59	0	0	62ec4c02ead47ce424644dd8	1	1	DL_test	15	DL_test	13			0		pa	1	1457	6	3	antiphase_hc_soi.wav	1	6	2	noise_calib_stim_LEFT.wav	1	5	blb_dichoticlistening_ba-pa.mp3	ba	pa	1	right
6.6.1	mac	2023-07-07	10:37:59	0	0	62ec4c02ead47ce424644dd8	1	1	DL_test	15	DL_test	14			0		ka	1	1335	6	3	antiphase_hc_soi.wav	1	6	2	noise_calib_stim_LEFT.wav	1	4	blb_dichoticlistening_ba-ka.mp3	ba	ka	1	right
6.6.1	mac	2023-07-07	10:37:59	0	0	62ec4c02ead47ce424644dd8	1	1	DL_test	15	DL_test	15			0		ka	1	4487	6	3	antiphase_hc_soi.wav	1	6	2	noise_calib_stim_LEFT.wav	1	20	blb_dichoticlistening_ka-da.mp3	ka	da	1	left
6.6.1	mac	2023-07-07	10:37:59	0	0	62ec4c02ead47ce424644dd8	1	1	DL_test	15	DL_test	16			0		ta	1	1566	6	3	antiphase_hc_soi.wav	1	6	2	noise_calib_stim_LEFT.wav	1	35	blb_dichoticlistening_ta-pa.mp3	ta	pa	1	left
6.6.1	mac	2023-07-07	10:37:59	0	0	62ec4c02ead47ce424644dd8	1	1	DL_test	15	DL_test	17			0		da	0	1481	6	3	antiphase_hc_soi.wav	1	6	2	noise_calib_stim_LEFT.wav	1	3	blb_dichoticlistening_ba-ga.mp3	ba	ga	1	other
6.6.1	mac	2023-07-07	10:37:59	0	0	62ec4c02ead47ce424644dd8	1	1	DL_test	15	DL_test	18			0		ba	1	1309	6	3	antiphase_hc_soi.wav	1	6	2	noise_calib_stim_LEFT.wav	1	1	blb_dichoticlistening_ba-ba.mp3	ba	ba	0	left
6.6.1	mac	2023-07-07	10:37:59	0	0	62ec4c02ead47ce424644dd8	1	1	DL_test	15	DL_test	19			0		ka	0	1172	6	3	antiphase_hc_soi.wav	1	6	2	noise_calib_stim_LEFT.wav	1	33	blb_dichoticlistening_ta-ga.mp3	ta	ga	1	other
6.6.1	mac	2023-07-07	10:37:59	0	0	62ec4c02ead47ce424644dd8	1	1	DL_test	15	DL_test	20			0		pa	0	1070	6	3	antiphase_hc_soi.wav	1	6	2	noise_calib_stim_LEFT.wav	1	10	blb_dichoticlistening_da-ka.mp3	da	ka	1	other
6.6.1	mac	2023-07-07	10:37:59	0	0	62ec4c02ead47ce424644dd8	1	1	DL_test	15	DL_test	21			0		ka	1	1258	6	3	antiphase_hc_soi.wav	1	6	2	noise_calib_stim_LEFT.wav	1	21	blb_dichoticlistening_ka-ga.mp3	ka	ga	1	left
6.6.1	mac	2023-07-07	10:37:59	0	0	62ec4c02ead47ce424644dd8	1	1	DL_test	15	DL_test	22			0		pa	1	1473	6	3	antiphase_hc_soi.wav	1	6	2	noise_calib_stim_LEFT.wav	1	29	blb_dichoticlistening_pa-pa.mp3	pa	pa	0	left
6.6.1	mac	2023-07-07	10:37:59	0	0	62ec4c02ead47ce424644dd8	1	1	DL_test	15	DL_test	23			0		ta	1	1382	6	3	antiphase_hc_soi.wav	1	6	2	noise_calib_stim_LEFT.wav	1	30	blb_dichoticlistening_pa-ta.mp3	pa	ta	1	right
6.6.1	mac	2023-07-07	10:37:59	0	0	62ec4c02ead47ce424644dd8	1	1	DL_test	15	DL_test	24			0		ka	1	1574	6	3	antiphase_hc_soi.wav	1	6	2	noise_calib_stim_LEFT.wav	1	24	blb_dichoticlistening_ka-ta.mp3	ka	ta	1	left
6.6.1	mac	2023-07-07	10:37:59	0	0	62ec4c02ead47ce424644dd8	1	1	DL_test	15	DL_test	25			0		pa	0	1228	6	3	antiphase_hc_soi.wav	1	6	2	noise_calib_stim_LEFT.wav	1	19	blb_dichoticlistening_ka-ba.mp3	ka	ba	1	other
6.6.1	mac	2023-07-07	10:37:59	0	0	62ec4c02ead47ce424644dd8	1	1	DL_test	15	DL_test	26			0		da	0	3530	6	3	antiphase_hc_soi.wav	1	6	2	noise_calib_stim_LEFT.wav	1	31	blb_dichoticlistening_ta-ba.mp3	ta	ba	1	other
6.6.1	mac	2023-07-07	10:37:59	0	0	62ec4c02ead47ce424644dd8	1	1	DL_test	15	DL_test	27			0		pa	1	1499	6	3	antiphase_hc_soi.wav	1	6	2	noise_calib_stim_LEFT.wav	1	17	blb_dichoticlistening_ga-pa.mp3	ga	pa	1	right
6.6.1	mac	2023-07-07	10:37:59	0	0	62ec4c02ead47ce424644dd8	1	1	DL_test	15	DL_test	28			0		pa	1	2067	6	3	antiphase_hc_soi.wav	1	6	2	noise_calib_stim_LEFT.wav	1	27	blb_dichoticlistening_pa-ga.mp3	pa	ga	1	left
6.6.1	mac	2023-07-07	10:37:59	0	0	62ec4c02ead47ce424644dd8	1	1	DL_test	15	DL_test	29			0		ka	1	1999	6	3	antiphase_hc_soi.wav	1	6	2	noise_calib_stim_LEFT.wav	1	23	blb_dichoticlistening_ka-pa.mp3	ka	pa	1	left
6.6.1	mac	2023-07-07	10:37:59	0	0	62ec4c02ead47ce424644dd8	1	1	DL_test	15	DL_test	30			0		da	1	1600	6	3	antiphase_hc_soi.wav	1	6	2	noise_calib_stim_LEFT.wav	1	8	blb_dichoticlistening_da-da.mp3	da	da	0	left
6.6.1	mac	2023-07-07	10:37:59	0	0	62ec4c02ead47ce424644dd8	1	1	DL_test	15	DL_test	31			0		ta	1	1795	6	3	antiphase_hc_soi.wav	1	6	2	noise_calib_stim_LEFT.wav	1	32	blb_dichoticlistening_ta-da.mp3	ta	da	1	left
6.6.1	mac	2023-07-07	10:37:59	0	0	62ec4c02ead47ce424644dd8	1	1	DL_test	15	DL_test	32			0		ka	1	1147	6	3	antiphase_hc_soi.wav	1	6	2	noise_calib_stim_LEFT.wav	1	16	blb_dichoticlistening_ga-ka.mp3	ga	ka	1	right
6.6.1	mac	2023-07-07	10:37:59	0	0	62ec4c02ead47ce424644dd8	1	1	DL_test	15	DL_test	33			0		ta	1	1555	6	3	antiphase_hc_soi.wav	1	6	2	noise_calib_stim_LEFT.wav	1	36	blb_dichoticlistening_ta-ta.mp3	ta	ta	0	left
6.6.1	mac	2023-07-07	10:37:59	0	0	62ec4c02ead47ce424644dd8	1	1	DL_test	15	DL_test	34			0		da	1	2651	6	3	antiphase_hc_soi.wav	1	6	2	noise_calib_stim_LEFT.wav	1	26	blb_dichoticlistening_pa-da.mp3	pa	da	1	right
6.6.1	mac	2023-07-07	10:37:59	0	0	62ec4c02ead47ce424644dd8	1	1	DL_test	15	DL_test	35			0		da	1	1270	6	3	antiphase_hc_soi.wav	1	6	2	noise_calib_stim_LEFT.wav	1	9	blb_dichoticlistening_da-ga.mp3	da	ga	1	left
6.6.1	mac	2023-07-07	10:37:59	0	0	62ec4c02ead47ce424644dd8	1	1	DL_test	15	DL_test	36			0		pa	1	1861	6	3	antiphase_hc_soi.wav	1	6	2	noise_calib_stim_LEFT.wav	1	11	blb_dichoticlistening_da-pa.mp3	da	pa	1	right
6.6.1	mac	2023-07-07	10:37:59	0	0	62ec4c02ead47ce424644dd8	1	1	DL_test	16	DL_test	1			0		ka	1	1207	6	3	antiphase_hc_soi.wav	1	6	2	noise_calib_stim_LEFT.wav	1	16	blb_dichoticlistening_ga-ka.mp3	ga	ka	1	right
6.6.1	mac	2023-07-07	10:37:59	0	0	62ec4c02ead47ce424644dd8	1	1	DL_test	16	DL_test	2			0		ka	1	969	6	3	antiphase_hc_soi.wav	1	6	2	noise_calib_stim_LEFT.wav	1	34	blb_dichoticlistening_ta-ka.mp3	ta	ka	1	right
6.6.1	mac	2023-07-07	10:37:59	0	0	62ec4c02ead47ce424644dd8	1	1	DL_test	16	DL_test	3			0		pa	1	1138	6	3	antiphase_hc_soi.wav	1	6	2	noise_calib_stim_LEFT.wav	1	17	blb_dichoticlistening_ga-pa.mp3	ga	pa	1	right
6.6.1	mac	2023-07-07	10:37:59	0	0	62ec4c02ead47ce424644dd8	1	1	DL_test	16	DL_test	4			0		ta	1	1168	6	3	antiphase_hc_soi.wav	1	6	2	noise_calib_stim_LEFT.wav	1	36	blb_dichoticlistening_ta-ta.mp3	ta	ta	0	left
6.6.1	mac	2023-07-07	10:37:59	0	0	62ec4c02ead47ce424644dd8	1	1	DL_test	16	DL_test	5			0		pa	1	2058	6	3	antiphase_hc_soi.wav	1	6	2	noise_calib_stim_LEFT.wav	1	26	blb_dichoticlistening_pa-da.mp3	pa	da	1	left
6.6.1	mac	2023-07-07	10:37:59	0	0	62ec4c02ead47ce424644dd8	1	1	DL_test	16	DL_test	6			0		ba	1	1907	6	3	antiphase_hc_soi.wav	1	6	2	noise_calib_stim_LEFT.wav	1	1	blb_dichoticlistening_ba-ba.mp3	ba	ba	0	left
6.6.1	mac	2023-07-07	10:37:59	0	0	62ec4c02ead47ce424644dd8	1	1	DL_test	16	DL_test	7			0		ka	1	1310	6	3	antiphase_hc_soi.wav	1	6	2	noise_calib_stim_LEFT.wav	1	24	blb_dichoticlistening_ka-ta.mp3	ka	ta	1	left
6.6.1	mac	2023-07-07	10:37:59	0	0	62ec4c02ead47ce424644dd8	1	1	DL_test	16	DL_test	8			0		da	1	1854	6	3	antiphase_hc_soi.wav	1	6	2	noise_calib_stim_LEFT.wav	1	7	blb_dichoticlistening_da-ba.mp3	da	ba	1	left
6.6.1	mac	2023-07-07	10:37:59	0	0	62ec4c02ead47ce424644dd8	1	1	DL_test	16	DL_test	9			0		ka	1	1627	6	3	antiphase_hc_soi.wav	1	6	2	noise_calib_stim_LEFT.wav	1	21	blb_dichoticlistening_ka-ga.mp3	ka	ga	1	left
6.6.1	mac	2023-07-07	10:37:59	0	0	62ec4c02ead47ce424644dd8	1	1	DL_test	16	DL_test	10			0		ta	1	1359	6	3	antiphase_hc_soi.wav	1	6	2	noise_calib_stim_LEFT.wav	1	12	blb_dichoticlistening_da-ta.mp3	da	ta	1	right
6.6.1	mac	2023-07-07	10:37:59	0	0	62ec4c02ead47ce424644dd8	1	1	DL_test	16	DL_test	11			0		da	1	1504	6	3	antiphase_hc_soi.wav	1	6	2	noise_calib_stim_LEFT.wav	1	8	blb_dichoticlistening_da-da.mp3	da	da	0	left
6.6.1	mac	2023-07-07	10:37:59	0	0	62ec4c02ead47ce424644dd8	1	1	DL_test	16	DL_test	12			0		da	1	1339	6	3	antiphase_hc_soi.wav	1	6	2	noise_calib_stim_LEFT.wav	1	14	blb_dichoticlistening_ga-da.mp3	ga	da	1	right
6.6.1	mac	2023-07-07	10:37:59	0	0	62ec4c02ead47ce424644dd8	1	1	DL_test	16	DL_test	13			0		pa	1	2733	6	3	antiphase_hc_soi.wav	1	6	2	noise_calib_stim_LEFT.wav	1	23	blb_dichoticlistening_ka-pa.mp3	ka	pa	1	right
6.6.1	mac	2023-07-07	10:37:59	0	0	62ec4c02ead47ce424644dd8	1	1	DL_test	16	DL_test	14			0		ba	1	1728	6	3	antiphase_hc_soi.wav	1	6	2	noise_calib_stim_LEFT.wav	1	3	blb_dichoticlistening_ba-ga.mp3	ba	ga	1	left
6.6.1	mac	2023-07-07	10:37:59	0	0	62ec4c02ead47ce424644dd8	1	1	DL_test	16	DL_test	15			0		pa	1	1703	6	3	antiphase_hc_soi.wav	1	6	2	noise_calib_stim_LEFT.wav	1	25	blb_dichoticlistening_pa-ba.mp3	pa	ba	1	left
6.6.1	mac	2023-07-07	10:37:59	0	0	62ec4c02ead47ce424644dd8	1	1	DL_test	16	DL_test	16			0		pa	1	1171	6	3	antiphase_hc_soi.wav	1	6	2	noise_calib_stim_LEFT.wav	1	5	blb_dichoticlistening_ba-pa.mp3	ba	pa	1	right
6.6.1	mac	2023-07-07	10:37:59	0	0	62ec4c02ead47ce424644dd8	1	1	DL_test	16	DL_test	17			0		da	1	1621	6	3	antiphase_hc_soi.wav	1	6	2	noise_calib_stim_LEFT.wav	1	2	blb_dichoticlistening_ba-da.mp3	ba	da	1	right
6.6.1	mac	2023-07-07	10:37:59	0	0	62ec4c02ead47ce424644dd8	1	1	DL_test	16	DL_test	18			0		ka	1	1149	6	3	antiphase_hc_soi.wav	1	6	2	noise_calib_stim_LEFT.wav	1	22	blb_dichoticlistening_ka-ka.mp3	ka	ka	0	left
6.6.1	mac	2023-07-07	10:37:59	0	0	62ec4c02ead47ce424644dd8	1	1	DL_test	16	DL_test	19			0		ba	1	1431	6	3	antiphase_hc_soi.wav	1	6	2	noise_calib_stim_LEFT.wav	1	13	blb_dichoticlistening_ga-ba.mp3	ga	ba	1	right
6.6.1	mac	2023-07-07	10:37:59	0	0	62ec4c02ead47ce424644dd8	1	1	DL_test	16	DL_test	20			0		ka	1	1358	6	3	antiphase_hc_soi.wav	1	6	2	noise_calib_stim_LEFT.wav	1	20	blb_dichoticlistening_ka-da.mp3	ka	da	1	left
6.6.1	mac	2023-07-07	10:37:59	0	0	62ec4c02ead47ce424644dd8	1	1	DL_test	16	DL_test	21			0		ta	1	1203	6	3	antiphase_hc_soi.wav	1	6	2	noise_calib_stim_LEFT.wav	1	32	blb_dichoticlistening_ta-da.mp3	ta	da	1	left
6.6.1	mac	2023-07-07	10:37:59	0	0	62ec4c02ead47ce424644dd8	1	1	DL_test	16	DL_test	22			0		ka	1	1405	6	3	antiphase_hc_soi.wav	1	6	2	noise_calib_stim_LEFT.wav	1	4	blb_dichoticlistening_ba-ka.mp3	ba	ka	1	right
6.6.1	mac	2023-07-07	10:37:59	0	0	62ec4c02ead47ce424644dd8	1	1	DL_test	16	DL_test	23			0		pa	1	1244	6	3	antiphase_hc_soi.wav	1	6	2	noise_calib_stim_LEFT.wav	1	27	blb_dichoticlistening_pa-ga.mp3	pa	ga	1	left
6.6.1	mac	2023-07-07	10:37:59	0	0	62ec4c02ead47ce424644dd8	1	1	DL_test	16	DL_test	24			0		ta	1	2356	6	3	antiphase_hc_soi.wav	1	6	2	noise_calib_stim_LEFT.wav	1	33	blb_dichoticlistening_ta-ga.mp3	ta	ga	1	left
6.6.1	mac	2023-07-07	10:37:59	0	0	62ec4c02ead47ce424644dd8	1	1	DL_test	16	DL_test	25			0		pa	1	1571	6	3	antiphase_hc_soi.wav	1	6	2	noise_calib_stim_LEFT.wav	1	11	blb_dichoticlistening_da-pa.mp3	da	pa	1	right
6.6.1	mac	2023-07-07	10:37:59	0	0	62ec4c02ead47ce424644dd8	1	1	DL_test	16	DL_test	26			0		pa	1	3547	6	3	antiphase_hc_soi.wav	1	6	2	noise_calib_stim_LEFT.wav	1	35	blb_dichoticlistening_ta-pa.mp3	ta	pa	1	right
6.6.1	mac	2023-07-07	10:37:59	0	0	62ec4c02ead47ce424644dd8	1	1	DL_test	16	DL_test	27			0		ta	1	2732	6	3	antiphase_hc_soi.wav	1	6	2	noise_calib_stim_LEFT.wav	1	31	blb_dichoticlistening_ta-ba.mp3	ta	ba	1	left
6.6.1	mac	2023-07-07	10:37:59	0	0	62ec4c02ead47ce424644dd8	1	1	DL_test	16	DL_test	28			0		ka	1	1156	6	3	antiphase_hc_soi.wav	1	6	2	noise_calib_stim_LEFT.wav	1	28	blb_dichoticlistening_pa-ka.mp3	pa	ka	1	right
6.6.1	mac	2023-07-07	10:37:59	0	0	62ec4c02ead47ce424644dd8	1	1	DL_test	16	DL_test	29			0		da	0	1663	6	3	antiphase_hc_soi.wav	1	6	2	noise_calib_stim_LEFT.wav	1	15	blb_dichoticlistening_ga-ga.mp3	ga	ga	0	other
6.6.1	mac	2023-07-07	10:37:59	0	0	62ec4c02ead47ce424644dd8	1	1	DL_test	16	DL_test	30			0		ta	1	1782	6	3	antiphase_hc_soi.wav	1	6	2	noise_calib_stim_LEFT.wav	1	30	blb_dichoticlistening_pa-ta.mp3	pa	ta	1	right
6.6.1	mac	2023-07-07	10:37:59	0	0	62ec4c02ead47ce424644dd8	1	1	DL_test	16	DL_test	31			0		ka	0	1473	6	3	antiphase_hc_soi.wav	1	6	2	noise_calib_stim_LEFT.wav	1	6	blb_dichoticlistening_ba-ta.mp3	ba	ta	1	other
6.6.1	mac	2023-07-07	10:37:59	0	0	62ec4c02ead47ce424644dd8	1	1	DL_test	16	DL_test	32			0		da	1	1467	6	3	antiphase_hc_soi.wav	1	6	2	noise_calib_stim_LEFT.wav	1	9	blb_dichoticlistening_da-ga.mp3	da	ga	1	left
6.6.1	mac	2023-07-07	10:37:59	0	0	62ec4c02ead47ce424644dd8	1	1	DL_test	16	DL_test	33			0		pa	1	1008	6	3	antiphase_hc_soi.wav	1	6	2	noise_calib_stim_LEFT.wav	1	29	blb_dichoticlistening_pa-pa.mp3	pa	pa	0	left
6.6.1	mac	2023-07-07	10:37:59	0	0	62ec4c02ead47ce424644dd8	1	1	DL_test	16	DL_test	34			0		pa	0	4084	6	3	antiphase_hc_soi.wav	1	6	2	noise_calib_stim_LEFT.wav	1	19	blb_dichoticlistening_ka-ba.mp3	ka	ba	1	other
6.6.1	mac	2023-07-07	10:37:59	0	0	62ec4c02ead47ce424644dd8	1	1	DL_test	16	DL_test	35			0		ka	0	1478	6	3	antiphase_hc_soi.wav	1	6	2	noise_calib_stim_LEFT.wav	1	18	blb_dichoticlistening_ga-ta.mp3	ga	ta	1	other
6.6.1	mac	2023-07-07	10:37:59	0	0	62ec4c02ead47ce424644dd8	1	1	DL_test	16	DL_test	36			0		pa	0	1566	6	3	antiphase_hc_soi.wav	1	6	2	noise_calib_stim_LEFT.wav	1	10	blb_dichoticlistening_da-ka.mp3	da	ka	1	other
6.6.1	mac	2023-07-07	10:37:59	10:56:33	1110648	62ec4c02ead47ce424644dd8	1	1	practice_slash	22	practice_slash	1	stimuli_target_diamondsquares.svg	stimuli_distractor_trianglediamonds.svg	6	yes	0	0	2000	6	3	antiphase_hc_soi.wav	1	6	2	noise_calib_stim_LEFT.wav	1	10	blb_dichoticlistening_da-ka.mp3	da	ka	1	other
6.6.1	mac	2023-07-07	10:37:59	10:56:33	1110648	62ec4c02ead47ce424644dd8	1	1	practice_slash	22	advance_on_keypress_SLASH	2	stimuli_target_diamondsquares.svg	stimuli_distractor_trianglediamonds.svg	6	yes	57	0	15610	6	3	antiphase_hc_soi.wav	1	6	2	noise_calib_stim_LEFT.wav	1	10	blb_dichoticlistening_da-ka.mp3	da	ka	1	other
6.6.1	mac	2023-07-07	10:37:59	10:56:52	1129257	62ec4c02ead47ce424644dd8	1	1	practice_slash	22	practice_slash	3	stimuli_target_diamondsquares.svg	stimuli_distractor_diamondtriangles.svg	3	yes	53	1	1357	6	3	antiphase_hc_soi.wav	1	6	2	noise_calib_stim_LEFT.wav	1	10	blb_dichoticlistening_da-ka.mp3	da	ka	1	other
6.6.1	mac	2023-07-07	10:37:59	10:56:52	1129257	62ec4c02ead47ce424644dd8	1	1	practice_slash	22	advance_on_keypress_SLASH	4	stimuli_target_diamondsquares.svg	stimuli_distractor_diamondtriangles.svg	3	yes	57	0	919	6	3	antiphase_hc_soi.wav	1	6	2	noise_calib_stim_LEFT.wav	1	10	blb_dichoticlistening_da-ka.mp3	da	ka	1	other
6.6.1	mac	2023-07-07	10:37:59	10:56:55	1132928	62ec4c02ead47ce424644dd8	1	1	practice_slash	22	practice_slash	5	stimuli_distractor_trianglediamonds.svg	stimuli_target_diamondrectangles.svg	12	yes	53	1	1126	6	3	antiphase_hc_soi.wav	1	6	2	noise_calib_stim_LEFT.wav	1	10	blb_dichoticlistening_da-ka.mp3	da	ka	1	other
6.6.1	mac	2023-07-07	10:37:59	10:56:55	1132928	62ec4c02ead47ce424644dd8	1	1	practice_slash	22	advance_on_keypress_SLASH	6	stimuli_distractor_trianglediamonds.svg	stimuli_target_diamondrectangles.svg	12	yes	57	0	705	6	3	antiphase_hc_soi.wav	1	6	2	noise_calib_stim_LEFT.wav	1	10	blb_dichoticlistening_da-ka.mp3	da	ka	1	other
6.6.1	mac	2023-07-07	10:37:59	10:57:00	1137264	62ec4c02ead47ce424644dd8	1	1	practice_slash	22	practice_slash	7	stimuli_distractor_diamondtriangles.svg	stimuli_distractor_trianglediamonds.svg	14	no	0	1	2000	6	3	antiphase_hc_soi.wav	1	6	2	noise_calib_stim_LEFT.wav	1	10	blb_dichoticlistening_da-ka.mp3	da	ka	1	other
6.6.1	mac	2023-07-07	10:37:59	10:57:00	1137264	62ec4c02ead47ce424644dd8	1	1	practice_slash	22	advance_on_keypress_SLASH	8	stimuli_distractor_diamondtriangles.svg	stimuli_distractor_trianglediamonds.svg	14	no	57	0	947	6	3	antiphase_hc_soi.wav	1	6	2	noise_calib_stim_LEFT.wav	1	10	blb_dichoticlistening_da-ka.mp3	da	ka	1	other
6.6.1	mac	2023-07-07	10:37:59	10:57:04	1141212	62ec4c02ead47ce424644dd8	1	1	practice_slash	22	practice_slash	9	stimuli_target_rectanglediamonds.svg	stimuli_distractor_diamondtriangles.svg	1	yes	53	1	1359	6	3	antiphase_hc_soi.wav	1	6	2	noise_calib_stim_LEFT.wav	1	10	blb_dichoticlistening_da-ka.mp3	da	ka	1	other
6.6.1	mac	2023-07-07	10:37:59	10:57:04	1141212	62ec4c02ead47ce424644dd8	1	1	practice_slash	22	advance_on_keypress_SLASH	10	stimuli_target_rectanglediamonds.svg	stimuli_distractor_diamondtriangles.svg	1	yes	57	0	1026	6	3	antiphase_hc_soi.wav	1	6	2	noise_calib_stim_LEFT.wav	1	10	blb_dichoticlistening_da-ka.mp3	da	ka	1	other
6.6.1	mac	2023-07-07	10:37:59	10:57:07	1144698	62ec4c02ead47ce424644dd8	1	1	practice_slash	22	practice_slash	11	stimuli_distractor_trianglediamonds.svg	stimuli_target_squarediamonds.svg	11	yes	53	1	823	6	3	antiphase_hc_soi.wav	1	6	2	noise_calib_stim_LEFT.wav	1	10	blb_dichoticlistening_da-ka.mp3	da	ka	1	other
6.6.1	mac	2023-07-07	10:37:59	10:57:07	1144698	62ec4c02ead47ce424644dd8	1	1	practice_slash	22	advance_on_keypress_SLASH	12	stimuli_distractor_trianglediamonds.svg	stimuli_target_squarediamonds.svg	11	yes	57	0	1533	6	3	antiphase_hc_soi.wav	1	6	2	noise_calib_stim_LEFT.wav	1	10	blb_dichoticlistening_da-ka.mp3	da	ka	1	other
6.6.1	mac	2023-07-07	10:37:59	10:57:11	1148845	62ec4c02ead47ce424644dd8	1	1	practice_slash	22	practice_slash	13	stimuli_distractor_diamondtriangles.svg	stimuli_target_diamondrectangles.svg	8	yes	53	1	969	6	3	antiphase_hc_soi.wav	1	6	2	noise_calib_stim_LEFT.wav	1	10	blb_dichoticlistening_da-ka.mp3	da	ka	1	other
6.6.1	mac	2023-07-07	10:37:59	10:57:11	1148845	62ec4c02ead47ce424644dd8	1	1	practice_slash	22	advance_on_keypress_SLASH	14	stimuli_distractor_diamondtriangles.svg	stimuli_target_diamondrectangles.svg	8	yes	57	0	449	6	3	antiphase_hc_soi.wav	1	6	2	noise_calib_stim_LEFT.wav	1	10	blb_dichoticlistening_da-ka.mp3	da	ka	1	other
6.6.1	mac	2023-07-07	10:37:59	10:57:14	1151644	62ec4c02ead47ce424644dd8	1	1	practice_slash	22	practice_slash	15	stimuli_distractor_diamondtriangles.svg	stimuli_target_trianglerectangles.svg	9	yes	53	1	726	6	3	antiphase_hc_soi.wav	1	6	2	noise_calib_stim_LEFT.wav	1	10	blb_dichoticlistening_da-ka.mp3	da	ka	1	other
6.6.1	mac	2023-07-07	10:37:59	10:57:14	1151644	62ec4c02ead47ce424644dd8	1	1	practice_slash	22	advance_on_keypress_SLASH	16	stimuli_distractor_diamondtriangles.svg	stimuli_target_trianglerectangles.svg	9	yes	57	0	260	6	3	antiphase_hc_soi.wav	1	6	2	noise_calib_stim_LEFT.wav	1	10	blb_dichoticlistening_da-ka.mp3	da	ka	1	other
6.6.1	mac	2023-07-07	10:37:59	10:57:18	1155531	62ec4c02ead47ce424644dd8	1	1	practice_slash	22	practice_slash	17	stimuli_distractor_trianglediamonds.svg	stimuli_distractor_trianglediamonds.svg	15	no	0	1	2000	6	3	antiphase_hc_soi.wav	1	6	2	noise_calib_stim_LEFT.wav	1	10	blb_dichoticlistening_da-ka.mp3	da	ka	1	other
6.6.1	mac	2023-07-07	10:37:59	10:57:18	1155531	62ec4c02ead47ce424644dd8	1	1	practice_slash	22	advance_on_keypress_SLASH	18	stimuli_distractor_trianglediamonds.svg	stimuli_distractor_trianglediamonds.svg	15	no	57	0	393	6	3	antiphase_hc_soi.wav	1	6	2	noise_calib_stim_LEFT.wav	1	10	blb_dichoticlistening_da-ka.mp3	da	ka	1	other
6.6.1	mac	2023-07-07	10:37:59	10:57:22	1159550	62ec4c02ead47ce424644dd8	1	1	practice_slash	22	practice_slash	19	stimuli_distractor_trianglediamonds.svg	stimuli_distractor_diamondtriangles.svg	16	no	0	1	2000	6	3	antiphase_hc_soi.wav	1	6	2	noise_calib_stim_LEFT.wav	1	10	blb_dichoticlistening_da-ka.mp3	da	ka	1	other
6.6.1	mac	2023-07-07	10:37:59	10:57:22	1159550	62ec4c02ead47ce424644dd8	1	1	practice_slash	22	advance_on_keypress_SLASH	20	stimuli_distractor_trianglediamonds.svg	stimuli_distractor_diamondtriangles.svg	16	no	57	0	248	6	3	antiphase_hc_soi.wav	1	6	2	noise_calib_stim_LEFT.wav	1	10	blb_dichoticlistening_da-ka.mp3	da	ka	1	other
6.6.1	mac	2023-07-07	10:37:59	10:57:25	1162276	62ec4c02ead47ce424644dd8	1	1	practice_slash	22	practice_slash	21	stimuli_target_rectanglediamonds.svg	stimuli_distractor_trianglediamonds.svg	4	yes	53	1	839	6	3	antiphase_hc_soi.wav	1	6	2	noise_calib_stim_LEFT.wav	1	10	blb_dichoticlistening_da-ka.mp3	da	ka	1	other
6.6.1	mac	2023-07-07	10:37:59	10:57:25	1162276	62ec4c02ead47ce424644dd8	1	1	practice_slash	22	advance_on_keypress_SLASH	22	stimuli_target_rectanglediamonds.svg	stimuli_distractor_trianglediamonds.svg	4	yes	57	0	323	6	3	antiphase_hc_soi.wav	1	6	2	noise_calib_stim_LEFT.wav	1	10	blb_dichoticlistening_da-ka.mp3	da	ka	1	other
6.6.1	mac	2023-07-07	10:37:59	10:57:27	1164933	62ec4c02ead47ce424644dd8	1	1	practice_slash	22	practice_slash	23	stimuli_distractor_trianglediamonds.svg	stimuli_target_rectanglediamonds.svg	10	yes	53	1	703	6	3	antiphase_hc_soi.wav	1	6	2	noise_calib_stim_LEFT.wav	1	10	blb_dichoticlistening_da-ka.mp3	da	ka	1	other
6.6.1	mac	2023-07-07	10:37:59	10:57:27	1164933	62ec4c02ead47ce424644dd8	1	1	practice_slash	22	advance_on_keypress_SLASH	24	stimuli_distractor_trianglediamonds.svg	stimuli_target_rectanglediamonds.svg	10	yes	57	0	273	6	3	antiphase_hc_soi.wav	1	6	2	noise_calib_stim_LEFT.wav	1	10	blb_dichoticlistening_da-ka.mp3	da	ka	1	other
6.6.1	mac	2023-07-07	10:37:59	10:57:30	1167650	62ec4c02ead47ce424644dd8	1	1	practice_slash	22	practice_slash	25	stimuli_target_squarediamonds.svg	stimuli_distractor_diamondtriangles.svg	2	yes	53	1	819	6	3	antiphase_hc_soi.wav	1	6	2	noise_calib_stim_LEFT.wav	1	10	blb_dichoticlistening_da-ka.mp3	da	ka	1	other
6.6.1	mac	2023-07-07	10:37:59	10:57:30	1167650	62ec4c02ead47ce424644dd8	1	1	practice_slash	22	advance_on_keypress_SLASH	26	stimuli_target_squarediamonds.svg	stimuli_distractor_diamondtriangles.svg	2	yes	57	0	278	6	3	antiphase_hc_soi.wav	1	6	2	noise_calib_stim_LEFT.wav	1	10	blb_dichoticlistening_da-ka.mp3	da	ka	1	other
6.6.1	mac	2023-07-07	10:37:59	10:57:33	1170330	62ec4c02ead47ce424644dd8	1	1	practice_slash	22	practice_slash	27	stimuli_target_squarediamonds.svg	stimuli_distractor_trianglediamonds.svg	5	yes	53	1	774	6	3	antiphase_hc_soi.wav	1	6	2	noise_calib_stim_LEFT.wav	1	10	blb_dichoticlistening_da-ka.mp3	da	ka	1	other
6.6.1	mac	2023-07-07	10:37:59	10:57:33	1170330	62ec4c02ead47ce424644dd8	1	1	practice_slash	22	advance_on_keypress_SLASH	28	stimuli_target_squarediamonds.svg	stimuli_distractor_trianglediamonds.svg	5	yes	57	0	474	6	3	antiphase_hc_soi.wav	1	6	2	noise_calib_stim_LEFT.wav	1	10	blb_dichoticlistening_da-ka.mp3	da	ka	1	other
6.6.1	mac	2023-07-07	10:37:59	10:57:36	1173200	62ec4c02ead47ce424644dd8	1	1	practice_slash	22	practice_slash	29	stimuli_distractor_diamondtriangles.svg	stimuli_target_rectangletriangles.svg	7	yes	53	1	772	6	3	antiphase_hc_soi.wav	1	6	2	noise_calib_stim_LEFT.wav	1	10	blb_dichoticlistening_da-ka.mp3	da	ka	1	other
6.6.1	mac	2023-07-07	10:37:59	10:57:36	1173200	62ec4c02ead47ce424644dd8	1	1	practice_slash	22	advance_on_keypress_SLASH	30	stimuli_distractor_diamondtriangles.svg	stimuli_target_rectangletriangles.svg	7	yes	57	0	355	6	3	antiphase_hc_soi.wav	1	6	2	noise_calib_stim_LEFT.wav	1	10	blb_dichoticlistening_da-ka.mp3	da	ka	1	other
6.6.1	mac	2023-07-07	10:37:59	10:57:40	1177187	62ec4c02ead47ce424644dd8	1	1	practice_slash	22	practice_slash	31	stimuli_distractor_diamondtriangles.svg	stimuli_distractor_diamondtriangles.svg	13	no	0	1	2000	6	3	antiphase_hc_soi.wav	1	6	2	noise_calib_stim_LEFT.wav	1	10	blb_dichoticlistening_da-ka.mp3	da	ka	1	other
6.6.1	mac	2023-07-07	10:37:59	10:57:40	1177187	62ec4c02ead47ce424644dd8	1	1	practice_slash	22	advance_on_keypress_SLASH	32	stimuli_distractor_diamondtriangles.svg	stimuli_distractor_diamondtriangles.svg	13	no	57	0	374	6	3	antiphase_hc_soi.wav	1	6	2	noise_calib_stim_LEFT.wav	1	10	blb_dichoticlistening_da-ka.mp3	da	ka	1	other
6.6.1	mac	2023-07-07	10:37:59	10:57:58	1195328	62ec4c02ead47ce424644dd8	1	1	main_slash	24	main_slash	1	stimuli_target_diamondsquares.svg	stimuli_distractor_trianglediamonds.svg	20	yes	53	1	740	6	3	antiphase_hc_soi.wav	1	6	2	noise_calib_stim_LEFT.wav	1	10	blb_dichoticlistening_da-ka.mp3	da	ka	1	other
6.6.1	mac	2023-07-07	10:37:59	10:57:58	1195328	62ec4c02ead47ce424644dd8	1	1	main_slash	24	advance_on_keypress_SLASH	2	stimuli_target_diamondsquares.svg	stimuli_distractor_trianglediamonds.svg	20	yes	57	0	1568	6	3	antiphase_hc_soi.wav	1	6	2	noise_calib_stim_LEFT.wav	1	10	blb_dichoticlistening_da-ka.mp3	da	ka	1	other
6.6.1	mac	2023-07-07	10:37:59	10:58:01	1198503	62ec4c02ead47ce424644dd8	1	1	main_slash	24	main_slash	3	stimuli_distractor_diamondtriangles.svg	stimuli_target_rectangletriangles.svg	13	yes	53	1	975	6	3	antiphase_hc_soi.wav	1	6	2	noise_calib_stim_LEFT.wav	1	10	blb_dichoticlistening_da-ka.mp3	da	ka	1	other
6.6.1	mac	2023-07-07	10:37:59	10:58:01	1198503	62ec4c02ead47ce424644dd8	1	1	main_slash	24	advance_on_keypress_SLASH	4	stimuli_distractor_diamondtriangles.svg	stimuli_target_rectangletriangles.svg	13	yes	57	0	686	6	3	antiphase_hc_soi.wav	1	6	2	noise_calib_stim_LEFT.wav	1	10	blb_dichoticlistening_da-ka.mp3	da	ka	1	other
6.6.1	mac	2023-07-07	10:37:59	10:58:03	1200564	62ec4c02ead47ce424644dd8	1	1	main_slash	24	main_slash	5	stimuli_distractor_diamondtriangles.svg	stimuli_target_diamondrectangles.svg	31	yes	53	1	740	6	3	antiphase_hc_soi.wav	1	6	2	noise_calib_stim_LEFT.wav	1	10	blb_dichoticlistening_da-ka.mp3	da	ka	1	other
6.6.1	mac	2023-07-07	10:37:59	10:58:03	1200564	62ec4c02ead47ce424644dd8	1	1	main_slash	24	advance_on_keypress_SLASH	6	stimuli_distractor_diamondtriangles.svg	stimuli_target_diamondrectangles.svg	31	yes	57	0	564	6	3	antiphase_hc_soi.wav	1	6	2	noise_calib_stim_LEFT.wav	1	10	blb_dichoticlistening_da-ka.mp3	da	ka	1	other
6.6.1	mac	2023-07-07	10:37:59	10:58:06	1203767	62ec4c02ead47ce424644dd8	1	1	main_slash	24	main_slash	7	stimuli_distractor_diamondtriangles.svg	stimuli_distractor_diamondtriangles.svg	40	no	0	1	2000	6	3	antiphase_hc_soi.wav	1	6	2	noise_calib_stim_LEFT.wav	1	10	blb_dichoticlistening_da-ka.mp3	da	ka	1	other
6.6.1	mac	2023-07-07	10:37:59	10:58:06	1203767	62ec4c02ead47ce424644dd8	1	1	main_slash	24	advance_on_keypress_SLASH	8	stimuli_distractor_diamondtriangles.svg	stimuli_distractor_diamondtriangles.svg	40	no	57	0	838	6	3	antiphase_hc_soi.wav	1	6	2	noise_calib_stim_LEFT.wav	1	10	blb_dichoticlistening_da-ka.mp3	da	ka	1	other
6.6.1	mac	2023-07-07	10:37:59	10:58:09	1206177	62ec4c02ead47ce424644dd8	1	1	main_slash	24	main_slash	9	stimuli_target_squaretriangles.svg	stimuli_distractor_diamondtriangles.svg	7	yes	53	1	940	6	3	antiphase_hc_soi.wav	1	6	2	noise_calib_stim_LEFT.wav	1	10	blb_dichoticlistening_da-ka.mp3	da	ka	1	other
6.6.1	mac	2023-07-07	10:37:59	10:58:09	1206177	62ec4c02ead47ce424644dd8	1	1	main_slash	24	advance_on_keypress_SLASH	10	stimuli_target_squaretriangles.svg	stimuli_distractor_diamondtriangles.svg	7	yes	57	0	836	6	3	antiphase_hc_soi.wav	1	6	2	noise_calib_stim_LEFT.wav	1	10	blb_dichoticlistening_da-ka.mp3	da	ka	1	other
6.6.1	mac	2023-07-07	10:37:59	10:58:11	1208362	62ec4c02ead47ce424644dd8	1	1	main_slash	24	main_slash	11	stimuli_target_squarediamonds.svg	stimuli_distractor_diamondtriangles.svg	8	yes	53	1	728	6	3	antiphase_hc_soi.wav	1	6	2	noise_calib_stim_LEFT.wav	1	10	blb_dichoticlistening_da-ka.mp3	da	ka	1	other
6.6.1	mac	2023-07-07	10:37:59	10:58:11	1208362	62ec4c02ead47ce424644dd8	1	1	main_slash	24	advance_on_keypress_SLASH	12	stimuli_target_squarediamonds.svg	stimuli_distractor_diamondtriangles.svg	8	yes	57	0	634	6	3	antiphase_hc_soi.wav	1	6	2	noise_calib_stim_LEFT.wav	1	10	blb_dichoticlistening_da-ka.mp3	da	ka	1	other
6.6.1	mac	2023-07-07	10:37:59	10:58:13	1210388	62ec4c02ead47ce424644dd8	1	1	main_slash	24	main_slash	13	stimuli_distractor_trianglediamonds.svg	stimuli_target_trianglerectangles.svg	25	yes	53	1	769	6	3	antiphase_hc_soi.wav	1	6	2	noise_calib_stim_LEFT.wav	1	10	blb_dichoticlistening_da-ka.mp3	da	ka	1	other
6.6.1	mac	2023-07-07	10:37:59	10:58:13	1210388	62ec4c02ead47ce424644dd8	1	1	main_slash	24	advance_on_keypress_SLASH	14	stimuli_distractor_trianglediamonds.svg	stimuli_target_trianglerectangles.svg	25	yes	57	0	628	6	3	antiphase_hc_soi.wav	1	6	2	noise_calib_stim_LEFT.wav	1	10	blb_dichoticlistening_da-ka.mp3	da	ka	1	other
6.6.1	mac	2023-07-07	10:37:59	10:58:15	1212409	62ec4c02ead47ce424644dd8	1	1	main_slash	24	main_slash	15	stimuli_distractor_diamondtriangles.svg	stimuli_target_squarediamonds.svg	16	yes	53	1	768	6	3	antiphase_hc_soi.wav	1	6	2	noise_calib_stim_LEFT.wav	1	10	blb_dichoticlistening_da-ka.mp3	da	ka	1	other
6.6.1	mac	2023-07-07	10:37:59	10:58:15	1212409	62ec4c02ead47ce424644dd8	1	1	main_slash	24	advance_on_keypress_SLASH	16	stimuli_distractor_diamondtriangles.svg	stimuli_target_squarediamonds.svg	16	yes	57	0	522	6	3	antiphase_hc_soi.wav	1	6	2	noise_calib_stim_LEFT.wav	1	10	blb_dichoticlistening_da-ka.mp3	da	ka	1	other
6.6.1	mac	2023-07-07	10:37:59	10:58:17	1214358	62ec4c02ead47ce424644dd8	1	1	main_slash	24	main_slash	17	stimuli_distractor_trianglediamonds.svg	stimuli_target_squarediamonds.svg	12	yes	53	1	796	6	3	antiphase_hc_soi.wav	1	6	2	noise_calib_stim_LEFT.wav	1	10	blb_dichoticlistening_da-ka.mp3	da	ka	1	other
6.6.1	mac	2023-07-07	10:37:59	10:58:17	1214358	62ec4c02ead47ce424644dd8	1	1	main_slash	24	advance_on_keypress_SLASH	18	stimuli_distractor_trianglediamonds.svg	stimuli_target_squarediamonds.svg	12	yes	57	0	921	6	3	antiphase_hc_soi.wav	1	6	2	noise_calib_stim_LEFT.wav	1	10	blb_dichoticlistening_da-ka.mp3	da	ka	1	other
6.6.1	mac	2023-07-07	10:37:59	10:58:19	1216587	62ec4c02ead47ce424644dd8	1	1	main_slash	24	main_slash	19	stimuli_target_rectanglediamonds.svg	stimuli_distractor_trianglediamonds.svg	2	yes	53	1	690	6	3	antiphase_hc_soi.wav	1	6	2	noise_calib_stim_LEFT.wav	1	10	blb_dichoticlistening_da-ka.mp3	da	ka	1	other
6.6.1	mac	2023-07-07	10:37:59	10:58:19	1216587	62ec4c02ead47ce424644dd8	1	1	main_slash	24	advance_on_keypress_SLASH	20	stimuli_target_rectanglediamonds.svg	stimuli_distractor_trianglediamonds.svg	2	yes	57	0	563	6	3	antiphase_hc_soi.wav	1	6	2	noise_calib_stim_LEFT.wav	1	10	blb_dichoticlistening_da-ka.mp3	da	ka	1	other
6.6.1	mac	2023-07-07	10:37:59	10:58:21	1218563	62ec4c02ead47ce424644dd8	1	1	main_slash	24	main_slash	21	stimuli_distractor_trianglediamonds.svg	stimuli_target_diamondsquares.svg	28	yes	53	1	788	6	3	antiphase_hc_soi.wav	1	6	2	noise_calib_stim_LEFT.wav	1	10	blb_dichoticlistening_da-ka.mp3	da	ka	1	other
6.6.1	mac	2023-07-07	10:37:59	10:58:21	1218563	62ec4c02ead47ce424644dd8	1	1	main_slash	24	advance_on_keypress_SLASH	22	stimuli_distractor_trianglediamonds.svg	stimuli_target_diamondsquares.svg	28	yes	57	0	485	6	3	antiphase_hc_soi.wav	1	6	2	noise_calib_stim_LEFT.wav	1	10	blb_dichoticlistening_da-ka.mp3	da	ka	1	other
6.6.1	mac	2023-07-07	10:37:59	10:58:23	1220993	62ec4c02ead47ce424644dd8	1	1	main_slash	24	main_slash	23	stimuli_distractor_diamondtriangles.svg	stimuli_target_trianglerectangles.svg	29	yes	53	1	1312	6	3	antiphase_hc_soi.wav	1	6	2	noise_calib_stim_LEFT.wav	1	10	blb_dichoticlistening_da-ka.mp3	da	ka	1	other
6.6.1	mac	2023-07-07	10:37:59	10:58:23	1220993	62ec4c02ead47ce424644dd8	1	1	main_slash	24	advance_on_keypress_SLASH	24	stimuli_distractor_diamondtriangles.svg	stimuli_target_trianglerectangles.svg	29	yes	57	0	762	6	3	antiphase_hc_soi.wav	1	6	2	noise_calib_stim_LEFT.wav	1	10	blb_dichoticlistening_da-ka.mp3	da	ka	1	other
6.6.1	mac	2023-07-07	10:37:59	10:58:27	1224394	62ec4c02ead47ce424644dd8	1	1	main_slash	24	main_slash	25	stimuli_distractor_trianglediamonds.svg	stimuli_distractor_diamondtriangles.svg	35	no	0	1	2000	6	3	antiphase_hc_soi.wav	1	6	2	noise_calib_stim_LEFT.wav	1	10	blb_dichoticlistening_da-ka.mp3	da	ka	1	other
6.6.1	mac	2023-07-07	10:37:59	10:58:27	1224394	62ec4c02ead47ce424644dd8	1	1	main_slash	24	advance_on_keypress_SLASH	26	stimuli_distractor_trianglediamonds.svg	stimuli_distractor_diamondtriangles.svg	35	no	57	0	829	6	3	antiphase_hc_soi.wav	1	6	2	noise_calib_stim_LEFT.wav	1	10	blb_dichoticlistening_da-ka.mp3	da	ka	1	other
6.6.1	mac	2023-07-07	10:37:59	10:58:29	1226547	62ec4c02ead47ce424644dd8	1	1	main_slash	24	main_slash	27	stimuli_target_rectangletriangles.svg	stimuli_distractor_diamondtriangles.svg	5	yes	53	1	688	6	3	antiphase_hc_soi.wav	1	6	2	noise_calib_stim_LEFT.wav	1	10	blb_dichoticlistening_da-ka.mp3	da	ka	1	other
6.6.1	mac	2023-07-07	10:37:59	10:58:29	1226547	62ec4c02ead47ce424644dd8	1	1	main_slash	24	advance_on_keypress_SLASH	28	stimuli_target_rectangletriangles.svg	stimuli_distractor_diamondtriangles.svg	5	yes	57	0	473	6	3	antiphase_hc_soi.wav	1	6	2	noise_calib_stim_LEFT.wav	1	10	blb_dichoticlistening_da-ka.mp3	da	ka	1	other
6.6.1	mac	2023-07-07	10:37:59	10:58:31	1228481	62ec4c02ead47ce424644dd8	1	1	main_slash	24	main_slash	29	stimuli_target_trianglesquares.svg	stimuli_distractor_trianglediamonds.svg	18	yes	53	1	828	6	3	antiphase_hc_soi.wav	1	6	2	noise_calib_stim_LEFT.wav	1	10	blb_dichoticlistening_da-ka.mp3	da	ka	1	other
6.6.1	mac	2023-07-07	10:37:59	10:58:31	1228481	62ec4c02ead47ce424644dd8	1	1	main_slash	24	advance_on_keypress_SLASH	30	stimuli_target_trianglesquares.svg	stimuli_distractor_trianglediamonds.svg	18	yes	57	0	466	6	3	antiphase_hc_soi.wav	1	6	2	noise_calib_stim_LEFT.wav	1	10	blb_dichoticlistening_da-ka.mp3	da	ka	1	other
6.6.1	mac	2023-07-07	10:37:59	10:58:33	1230394	62ec4c02ead47ce424644dd8	1	1	main_slash	24	main_slash	31	stimuli_distractor_trianglediamonds.svg	stimuli_target_diamondrectangles.svg	27	yes	53	1	821	6	3	antiphase_hc_soi.wav	1	6	2	noise_calib_stim_LEFT.wav	1	10	blb_dichoticlistening_da-ka.mp3	da	ka	1	other
6.6.1	mac	2023-07-07	10:37:59	10:58:33	1230394	62ec4c02ead47ce424644dd8	1	1	main_slash	24	advance_on_keypress_SLASH	32	stimuli_distractor_trianglediamonds.svg	stimuli_target_diamondrectangles.svg	27	yes	57	0	456	6	3	antiphase_hc_soi.wav	1	6	2	noise_calib_stim_LEFT.wav	1	10	blb_dichoticlistening_da-ka.mp3	da	ka	1	other
6.6.1	mac	2023-07-07	10:37:59	10:58:35	1233055	62ec4c02ead47ce424644dd8	1	1	main_slash	24	main_slash	33	stimuli_target_trianglesquares.svg	stimuli_distractor_diamondtriangles.svg	22	yes	53	1	1571	6	3	antiphase_hc_soi.wav	1	6	2	noise_calib_stim_LEFT.wav	1	10	blb_dichoticlistening_da-ka.mp3	da	ka	1	other
6.6.1	mac	2023-07-07	10:37:59	10:58:35	1233055	62ec4c02ead47ce424644dd8	1	1	main_slash	24	advance_on_keypress_SLASH	34	stimuli_target_trianglesquares.svg	stimuli_distractor_diamondtriangles.svg	22	yes	57	0	1361	6	3	antiphase_hc_soi.wav	1	6	2	noise_calib_stim_LEFT.wav	1	10	blb_dichoticlistening_da-ka.mp3	da	ka	1	other
6.6.1	mac	2023-07-07	10:37:59	10:58:38	1235838	62ec4c02ead47ce424644dd8	1	1	main_slash	24	main_slash	35	stimuli_distractor_diamondtriangles.svg	stimuli_target_diamondsquares.svg	32	yes	53	1	777	6	3	antiphase_hc_soi.wav	1	6	2	noise_calib_stim_LEFT.wav	1	10	blb_dichoticlistening_da-ka.mp3	da	ka	1	other
6.6.1	mac	2023-07-07	10:37:59	10:58:38	1235838	62ec4c02ead47ce424644dd8	1	1	main_slash	24	advance_on_keypress_SLASH	36	stimuli_distractor_diamondtriangles.svg	stimuli_target_diamondsquares.svg	32	yes	57	0	510	6	3	antiphase_hc_soi.wav	1	6	2	noise_calib_stim_LEFT.wav	1	10	blb_dichoticlistening_da-ka.mp3	da	ka	1	other
6.6.1	mac	2023-07-07	10:37:59	10:58:40	1237809	62ec4c02ead47ce424644dd8	1	1	main_slash	24	main_slash	37	stimuli_target_trianglerectangles.svg	stimuli_distractor_trianglediamonds.svg	17	yes	53	1	834	6	3	antiphase_hc_soi.wav	1	6	2	noise_calib_stim_LEFT.wav	1	10	blb_dichoticlistening_da-ka.mp3	da	ka	1	other
6.6.1	mac	2023-07-07	10:37:59	10:58:40	1237809	62ec4c02ead47ce424644dd8	1	1	main_slash	24	advance_on_keypress_SLASH	38	stimuli_target_trianglerectangles.svg	stimuli_distractor_trianglediamonds.svg	17	yes	57	0	519	6	3	antiphase_hc_soi.wav	1	6	2	noise_calib_stim_LEFT.wav	1	10	blb_dichoticlistening_da-ka.mp3	da	ka	1	other
6.6.1	mac	2023-07-07	10:37:59	10:58:42	1239794	62ec4c02ead47ce424644dd8	1	1	main_slash	24	main_slash	39	stimuli_distractor_trianglediamonds.svg	stimuli_target_rectanglediamonds.svg	10	yes	53	1	830	6	3	antiphase_hc_soi.wav	1	6	2	noise_calib_stim_LEFT.wav	1	10	blb_dichoticlistening_da-ka.mp3	da	ka	1	other
6.6.1	mac	2023-07-07	10:37:59	10:58:42	1239794	62ec4c02ead47ce424644dd8	1	1	main_slash	24	advance_on_keypress_SLASH	40	stimuli_distractor_trianglediamonds.svg	stimuli_target_rectanglediamonds.svg	10	yes	57	0	434	6	3	antiphase_hc_soi.wav	1	6	2	noise_calib_stim_LEFT.wav	1	10	blb_dichoticlistening_da-ka.mp3	da	ka	1	other
6.6.1	mac	2023-07-07	10:37:59	10:58:44	1241702	62ec4c02ead47ce424644dd8	1	1	main_slash	24	main_slash	41	stimuli_target_diamondrectangles.svg	stimuli_distractor_diamondtriangles.svg	23	yes	53	1	851	6	3	antiphase_hc_soi.wav	1	6	2	noise_calib_stim_LEFT.wav	1	10	blb_dichoticlistening_da-ka.mp3	da	ka	1	other
6.6.1	mac	2023-07-07	10:37:59	10:58:44	1241702	62ec4c02ead47ce424644dd8	1	1	main_slash	24	advance_on_keypress_SLASH	42	stimuli_target_diamondrectangles.svg	stimuli_distractor_diamondtriangles.svg	23	yes	57	0	428	6	3	antiphase_hc_soi.wav	1	6	2	noise_calib_stim_LEFT.wav	1	10	blb_dichoticlistening_da-ka.mp3	da	ka	1	other
6.6.1	mac	2023-07-07	10:37:59	10:58:46	1243606	62ec4c02ead47ce424644dd8	1	1	main_slash	24	main_slash	43	stimuli_target_rectanglediamonds.svg	stimuli_distractor_diamondtriangles.svg	6	yes	53	1	847	6	3	antiphase_hc_soi.wav	1	6	2	noise_calib_stim_LEFT.wav	1	10	blb_dichoticlistening_da-ka.mp3	da	ka	1	other
6.6.1	mac	2023-07-07	10:37:59	10:58:46	1243606	62ec4c02ead47ce424644dd8	1	1	main_slash	24	advance_on_keypress_SLASH	44	stimuli_target_rectanglediamonds.svg	stimuli_distractor_diamondtriangles.svg	6	yes	57	0	476	6	3	antiphase_hc_soi.wav	1	6	2	noise_calib_stim_LEFT.wav	1	10	blb_dichoticlistening_da-ka.mp3	da	ka	1	other
6.6.1	mac	2023-07-07	10:37:59	10:58:48	1246082	62ec4c02ead47ce424644dd8	1	1	main_slash	24	main_slash	45	stimuli_target_squarediamonds.svg	stimuli_distractor_trianglediamonds.svg	4	yes	53	1	1370	6	3	antiphase_hc_soi.wav	1	6	2	noise_calib_stim_LEFT.wav	1	10	blb_dichoticlistening_da-ka.mp3	da	ka	1	other
6.6.1	mac	2023-07-07	10:37:59	10:58:48	1246082	62ec4c02ead47ce424644dd8	1	1	main_slash	24	advance_on_keypress_SLASH	46	stimuli_target_squarediamonds.svg	stimuli_distractor_trianglediamonds.svg	4	yes	57	0	778	6	3	antiphase_hc_soi.wav	1	6	2	noise_calib_stim_LEFT.wav	1	10	blb_dichoticlistening_da-ka.mp3	da	ka	1	other
6.6.1	mac	2023-07-07	10:37:59	10:58:52	1249487	62ec4c02ead47ce424644dd8	1	1	main_slash	24	main_slash	47	stimuli_distractor_diamondtriangles.svg	stimuli_distractor_trianglediamonds.svg	38	no	0	1	2000	6	3	antiphase_hc_soi.wav	1	6	2	noise_calib_stim_LEFT.wav	1	10	blb_dichoticlistening_da-ka.mp3	da	ka	1	other
6.6.1	mac	2023-07-07	10:37:59	10:58:52	1249487	62ec4c02ead47ce424644dd8	1	1	main_slash	24	advance_on_keypress_SLASH	48	stimuli_distractor_diamondtriangles.svg	stimuli_distractor_trianglediamonds.svg	38	no	57	0	751	6	3	antiphase_hc_soi.wav	1	6	2	noise_calib_stim_LEFT.wav	1	10	blb_dichoticlistening_da-ka.mp3	da	ka	1	other
6.6.1	mac	2023-07-07	10:37:59	10:58:55	1252299	62ec4c02ead47ce424644dd8	1	1	main_slash	24	main_slash	49	stimuli_distractor_trianglediamonds.svg	stimuli_distractor_diamondtriangles.svg	36	no	53	0	1436	6	3	antiphase_hc_soi.wav	1	6	2	noise_calib_stim_LEFT.wav	1	10	blb_dichoticlistening_da-ka.mp3	da	ka	1	other
6.6.1	mac	2023-07-07	10:37:59	10:58:55	1252299	62ec4c02ead47ce424644dd8	1	1	main_slash	24	advance_on_keypress_SLASH	50	stimuli_distractor_trianglediamonds.svg	stimuli_distractor_diamondtriangles.svg	36	no	57	0	509	6	3	antiphase_hc_soi.wav	1	6	2	noise_calib_stim_LEFT.wav	1	10	blb_dichoticlistening_da-ka.mp3	da	ka	1	other
6.6.1	mac	2023-07-07	10:37:59	10:58:58	1255436	62ec4c02ead47ce424644dd8	1	1	main_slash	24	main_slash	51	stimuli_distractor_diamondtriangles.svg	stimuli_distractor_trianglediamonds.svg	37	no	0	1	2000	6	3	antiphase_hc_soi.wav	1	6	2	noise_calib_stim_LEFT.wav	1	10	blb_dichoticlistening_da-ka.mp3	da	ka	1	other
6.6.1	mac	2023-07-07	10:37:59	10:58:58	1255436	62ec4c02ead47ce424644dd8	1	1	main_slash	24	advance_on_keypress_SLASH	52	stimuli_distractor_diamondtriangles.svg	stimuli_distractor_trianglediamonds.svg	37	no	57	0	834	6	3	antiphase_hc_soi.wav	1	6	2	noise_calib_stim_LEFT.wav	1	10	blb_dichoticlistening_da-ka.mp3	da	ka	1	other
6.6.1	mac	2023-07-07	10:37:59	10:59:01	1258895	62ec4c02ead47ce424644dd8	1	1	main_slash	24	main_slash	53	stimuli_distractor_diamondtriangles.svg	stimuli_distractor_diamondtriangles.svg	39	no	0	1	2000	6	3	antiphase_hc_soi.wav	1	6	2	noise_calib_stim_LEFT.wav	1	10	blb_dichoticlistening_da-ka.mp3	da	ka	1	other
6.6.1	mac	2023-07-07	10:37:59	10:59:01	1258895	62ec4c02ead47ce424644dd8	1	1	main_slash	24	advance_on_keypress_SLASH	54	stimuli_distractor_diamondtriangles.svg	stimuli_distractor_diamondtriangles.svg	39	no	57	0	322	6	3	antiphase_hc_soi.wav	1	6	2	noise_calib_stim_LEFT.wav	1	10	blb_dichoticlistening_da-ka.mp3	da	ka	1	other
6.6.1	mac	2023-07-07	10:37:59	10:59:03	1260902	62ec4c02ead47ce424644dd8	1	1	main_slash	24	main_slash	55	stimuli_target_trianglerectangles.svg	stimuli_distractor_diamondtriangles.svg	21	yes	53	1	1065	6	3	antiphase_hc_soi.wav	1	6	2	noise_calib_stim_LEFT.wav	1	10	blb_dichoticlistening_da-ka.mp3	da	ka	1	other
6.6.1	mac	2023-07-07	10:37:59	10:59:03	1260902	62ec4c02ead47ce424644dd8	1	1	main_slash	24	advance_on_keypress_SLASH	56	stimuli_target_trianglerectangles.svg	stimuli_distractor_diamondtriangles.svg	21	yes	57	0	508	6	3	antiphase_hc_soi.wav	1	6	2	noise_calib_stim_LEFT.wav	1	10	blb_dichoticlistening_da-ka.mp3	da	ka	1	other
6.6.1	mac	2023-07-07	10:37:59	10:59:06	1263137	62ec4c02ead47ce424644dd8	1	1	main_slash	24	main_slash	57	stimuli_target_diamondsquares.svg	stimuli_distractor_diamondtriangles.svg	24	yes	53	1	1095	6	3	antiphase_hc_soi.wav	1	6	2	noise_calib_stim_LEFT.wav	1	10	blb_dichoticlistening_da-ka.mp3	da	ka	1	other
6.6.1	mac	2023-07-07	10:37:59	10:59:06	1263137	62ec4c02ead47ce424644dd8	1	1	main_slash	24	advance_on_keypress_SLASH	58	stimuli_target_diamondsquares.svg	stimuli_distractor_diamondtriangles.svg	24	yes	57	0	490	6	3	antiphase_hc_soi.wav	1	6	2	noise_calib_stim_LEFT.wav	1	10	blb_dichoticlistening_da-ka.mp3	da	ka	1	other
6.6.1	mac	2023-07-07	10:37:59	10:59:08	1265644	62ec4c02ead47ce424644dd8	1	1	main_slash	24	main_slash	59	stimuli_distractor_trianglediamonds.svg	stimuli_target_trianglesquares.svg	26	yes	53	1	1397	6	3	antiphase_hc_soi.wav	1	6	2	noise_calib_stim_LEFT.wav	1	10	blb_dichoticlistening_da-ka.mp3	da	ka	1	other
6.6.1	mac	2023-07-07	10:37:59	10:59:08	1265644	62ec4c02ead47ce424644dd8	1	1	main_slash	24	advance_on_keypress_SLASH	60	stimuli_distractor_trianglediamonds.svg	stimuli_target_trianglesquares.svg	26	yes	57	0	507	6	3	antiphase_hc_soi.wav	1	6	2	noise_calib_stim_LEFT.wav	1	10	blb_dichoticlistening_da-ka.mp3	da	ka	1	other
6.6.1	mac	2023-07-07	10:37:59	10:59:10	1267674	62ec4c02ead47ce424644dd8	1	1	main_slash	24	main_slash	61	stimuli_distractor_diamondtriangles.svg	stimuli_target_squaretriangles.svg	15	yes	53	1	905	6	3	antiphase_hc_soi.wav	1	6	2	noise_calib_stim_LEFT.wav	1	10	blb_dichoticlistening_da-ka.mp3	da	ka	1	other
6.6.1	mac	2023-07-07	10:37:59	10:59:10	1267674	62ec4c02ead47ce424644dd8	1	1	main_slash	24	advance_on_keypress_SLASH	62	stimuli_distractor_diamondtriangles.svg	stimuli_target_squaretriangles.svg	15	yes	57	0	432	6	3	antiphase_hc_soi.wav	1	6	2	noise_calib_stim_LEFT.wav	1	10	blb_dichoticlistening_da-ka.mp3	da	ka	1	other
6.6.1	mac	2023-07-07	10:37:59	10:59:12	1269470	62ec4c02ead47ce424644dd8	1	1	main_slash	24	main_slash	63	stimuli_distractor_diamondtriangles.svg	stimuli_target_rectanglediamonds.svg	14	yes	53	1	734	6	3	antiphase_hc_soi.wav	1	6	2	noise_calib_stim_LEFT.wav	1	10	blb_dichoticlistening_da-ka.mp3	da	ka	1	other
6.6.1	mac	2023-07-07	10:37:59	10:59:12	1269470	62ec4c02ead47ce424644dd8	1	1	main_slash	24	advance_on_keypress_SLASH	64	stimuli_distractor_diamondtriangles.svg	stimuli_target_rectanglediamonds.svg	14	yes	57	0	463	6	3	antiphase_hc_soi.wav	1	6	2	noise_calib_stim_LEFT.wav	1	10	blb_dichoticlistening_da-ka.mp3	da	ka	1	other
6.6.1	mac	2023-07-07	10:37:59	10:59:14	1271607	62ec4c02ead47ce424644dd8	1	1	main_slash	24	main_slash	65	stimuli_distractor_trianglediamonds.svg	stimuli_target_rectangletriangles.svg	9	yes	53	1	1031	6	3	antiphase_hc_soi.wav	1	6	2	noise_calib_stim_LEFT.wav	1	10	blb_dichoticlistening_da-ka.mp3	da	ka	1	other
6.6.1	mac	2023-07-07	10:37:59	10:59:14	1271607	62ec4c02ead47ce424644dd8	1	1	main_slash	24	advance_on_keypress_SLASH	66	stimuli_distractor_trianglediamonds.svg	stimuli_target_rectangletriangles.svg	9	yes	57	0	459	6	3	antiphase_hc_soi.wav	1	6	2	noise_calib_stim_LEFT.wav	1	10	blb_dichoticlistening_da-ka.mp3	da	ka	1	other
6.6.1	mac	2023-07-07	10:37:59	10:59:16	1273375	62ec4c02ead47ce424644dd8	1	1	main_slash	24	main_slash	67	stimuli_distractor_trianglediamonds.svg	stimuli_target_squaretriangles.svg	11	yes	53	1	677	6	3	antiphase_hc_soi.wav	1	6	2	noise_calib_stim_LEFT.wav	1	10	blb_dichoticlistening_da-ka.mp3	da	ka	1	other
6.6.1	mac	2023-07-07	10:37:59	10:59:16	1273375	62ec4c02ead47ce424644dd8	1	1	main_slash	24	advance_on_keypress_SLASH	68	stimuli_distractor_trianglediamonds.svg	stimuli_target_squaretriangles.svg	11	yes	57	0	468	6	3	antiphase_hc_soi.wav	1	6	2	noise_calib_stim_LEFT.wav	1	10	blb_dichoticlistening_da-ka.mp3	da	ka	1	other
6.6.1	mac	2023-07-07	10:37:59	10:59:18	1275385	62ec4c02ead47ce424644dd8	1	1	main_slash	24	main_slash	69	stimuli_target_rectangletriangles.svg	stimuli_distractor_trianglediamonds.svg	1	yes	53	1	917	6	3	antiphase_hc_soi.wav	1	6	2	noise_calib_stim_LEFT.wav	1	10	blb_dichoticlistening_da-ka.mp3	da	ka	1	other
6.6.1	mac	2023-07-07	10:37:59	10:59:18	1275385	62ec4c02ead47ce424644dd8	1	1	main_slash	24	advance_on_keypress_SLASH	70	stimuli_target_rectangletriangles.svg	stimuli_distractor_trianglediamonds.svg	1	yes	57	0	393	6	3	antiphase_hc_soi.wav	1	6	2	noise_calib_stim_LEFT.wav	1	10	blb_dichoticlistening_da-ka.mp3	da	ka	1	other
6.6.1	mac	2023-07-07	10:37:59	10:59:20	1277289	62ec4c02ead47ce424644dd8	1	1	main_slash	24	main_slash	71	stimuli_target_diamondrectangles.svg	stimuli_distractor_trianglediamonds.svg	19	yes	53	1	880	6	3	antiphase_hc_soi.wav	1	6	2	noise_calib_stim_LEFT.wav	1	10	blb_dichoticlistening_da-ka.mp3	da	ka	1	other
6.6.1	mac	2023-07-07	10:37:59	10:59:20	1277289	62ec4c02ead47ce424644dd8	1	1	main_slash	24	advance_on_keypress_SLASH	72	stimuli_target_diamondrectangles.svg	stimuli_distractor_trianglediamonds.svg	19	yes	57	0	452	6	3	antiphase_hc_soi.wav	1	6	2	noise_calib_stim_LEFT.wav	1	10	blb_dichoticlistening_da-ka.mp3	da	ka	1	other
6.6.1	mac	2023-07-07	10:37:59	10:59:22	1279204	62ec4c02ead47ce424644dd8	1	1	main_slash	24	main_slash	73	stimuli_distractor_diamondtriangles.svg	stimuli_target_trianglesquares.svg	30	yes	53	1	840	6	3	antiphase_hc_soi.wav	1	6	2	noise_calib_stim_LEFT.wav	1	10	blb_dichoticlistening_da-ka.mp3	da	ka	1	other
6.6.1	mac	2023-07-07	10:37:59	10:59:22	1279204	62ec4c02ead47ce424644dd8	1	1	main_slash	24	advance_on_keypress_SLASH	74	stimuli_distractor_diamondtriangles.svg	stimuli_target_trianglesquares.svg	30	yes	57	0	463	6	3	antiphase_hc_soi.wav	1	6	2	noise_calib_stim_LEFT.wav	1	10	blb_dichoticlistening_da-ka.mp3	da	ka	1	other
6.6.1	mac	2023-07-07	10:37:59	10:59:25	1282298	62ec4c02ead47ce424644dd8	1	1	main_slash	24	main_slash	75	stimuli_distractor_trianglediamonds.svg	stimuli_distractor_trianglediamonds.svg	33	no	0	1	2000	6	3	antiphase_hc_soi.wav	1	6	2	noise_calib_stim_LEFT.wav	1	10	blb_dichoticlistening_da-ka.mp3	da	ka	1	other
6.6.1	mac	2023-07-07	10:37:59	10:59:25	1282298	62ec4c02ead47ce424644dd8	1	1	main_slash	24	advance_on_keypress_SLASH	76	stimuli_distractor_trianglediamonds.svg	stimuli_distractor_trianglediamonds.svg	33	no	57	0	724	6	3	antiphase_hc_soi.wav	1	6	2	noise_calib_stim_LEFT.wav	1	10	blb_dichoticlistening_da-ka.mp3	da	ka	1	other
6.6.1	mac	2023-07-07	10:37:59	10:59:28	1285220	62ec4c02ead47ce424644dd8	1	1	main_slash	24	main_slash	77	stimuli_distractor_trianglediamonds.svg	stimuli_distractor_trianglediamonds.svg	34	no	53	0	1579	6	3	antiphase_hc_soi.wav	1	6	2	noise_calib_stim_LEFT.wav	1	10	blb_dichoticlistening_da-ka.mp3	da	ka	1	other
6.6.1	mac	2023-07-07	10:37:59	10:59:28	1285220	62ec4c02ead47ce424644dd8	1	1	main_slash	24	advance_on_keypress_SLASH	78	stimuli_distractor_trianglediamonds.svg	stimuli_distractor_trianglediamonds.svg	34	no	57	0	419	6	3	antiphase_hc_soi.wav	1	6	2	noise_calib_stim_LEFT.wav	1	10	blb_dichoticlistening_da-ka.mp3	da	ka	1	other
6.6.1	mac	2023-07-07	10:37:59	10:59:31	1288263	62ec4c02ead47ce424644dd8	1	1	main_slash	24	main_slash	79	stimuli_target_squaretriangles.svg	stimuli_distractor_trianglediamonds.svg	3	yes	0	0	2000	6	3	antiphase_hc_soi.wav	1	6	2	noise_calib_stim_LEFT.wav	1	10	blb_dichoticlistening_da-ka.mp3	da	ka	1	other
6.6.1	mac	2023-07-07	10:37:59	10:59:31	1288263	62ec4c02ead47ce424644dd8	1	1	main_slash	24	advance_on_keypress_SLASH	80	stimuli_target_squaretriangles.svg	stimuli_distractor_trianglediamonds.svg	3	yes	57	0	629	6	3	antiphase_hc_soi.wav	1	6	2	noise_calib_stim_LEFT.wav	1	10	blb_dichoticlistening_da-ka.mp3	da	ka	1	other
6.6.1	mac	2023-07-07	10:37:59	10:59:33	1290286	62ec4c02ead47ce424644dd8	1	1	main_slash	24	main_slash	81	stimuli_target_trianglerectangles.svg	stimuli_distractor_diamondtriangles.svg	21	yes	53	1	760	6	3	antiphase_hc_soi.wav	1	6	2	noise_calib_stim_LEFT.wav	1	10	blb_dichoticlistening_da-ka.mp3	da	ka	1	other
6.6.1	mac	2023-07-07	10:37:59	10:59:33	1290286	62ec4c02ead47ce424644dd8	1	1	main_slash	24	advance_on_keypress_SLASH	82	stimuli_target_trianglerectangles.svg	stimuli_distractor_diamondtriangles.svg	21	yes	57	0	437	6	3	antiphase_hc_soi.wav	1	6	2	noise_calib_stim_LEFT.wav	1	10	blb_dichoticlistening_da-ka.mp3	da	ka	1	other
6.6.1	mac	2023-07-07	10:37:59	10:59:34	1292070	62ec4c02ead47ce424644dd8	1	1	main_slash	24	main_slash	83	stimuli_target_trianglesquares.svg	stimuli_distractor_trianglediamonds.svg	18	yes	53	1	708	6	3	antiphase_hc_soi.wav	1	6	2	noise_calib_stim_LEFT.wav	1	10	blb_dichoticlistening_da-ka.mp3	da	ka	1	other
6.6.1	mac	2023-07-07	10:37:59	10:59:34	1292070	62ec4c02ead47ce424644dd8	1	1	main_slash	24	advance_on_keypress_SLASH	84	stimuli_target_trianglesquares.svg	stimuli_distractor_trianglediamonds.svg	18	yes	57	0	410	6	3	antiphase_hc_soi.wav	1	6	2	noise_calib_stim_LEFT.wav	1	10	blb_dichoticlistening_da-ka.mp3	da	ka	1	other
6.6.1	mac	2023-07-07	10:37:59	10:59:36	1293906	62ec4c02ead47ce424644dd8	1	1	main_slash	24	main_slash	85	stimuli_distractor_trianglediamonds.svg	stimuli_target_squarediamonds.svg	12	yes	53	1	782	6	3	antiphase_hc_soi.wav	1	6	2	noise_calib_stim_LEFT.wav	1	10	blb_dichoticlistening_da-ka.mp3	da	ka	1	other
6.6.1	mac	2023-07-07	10:37:59	10:59:36	1293906	62ec4c02ead47ce424644dd8	1	1	main_slash	24	advance_on_keypress_SLASH	86	stimuli_distractor_trianglediamonds.svg	stimuli_target_squarediamonds.svg	12	yes	57	0	418	6	3	antiphase_hc_soi.wav	1	6	2	noise_calib_stim_LEFT.wav	1	10	blb_dichoticlistening_da-ka.mp3	da	ka	1	other
6.6.1	mac	2023-07-07	10:37:59	10:59:38	1295834	62ec4c02ead47ce424644dd8	1	1	main_slash	24	main_slash	87	stimuli_distractor_trianglediamonds.svg	stimuli_target_rectanglediamonds.svg	10	yes	53	1	880	6	3	antiphase_hc_soi.wav	1	6	2	noise_calib_stim_LEFT.wav	1	10	blb_dichoticlistening_da-ka.mp3	da	ka	1	other
6.6.1	mac	2023-07-07	10:37:59	10:59:38	1295834	62ec4c02ead47ce424644dd8	1	1	main_slash	24	advance_on_keypress_SLASH	88	stimuli_distractor_trianglediamonds.svg	stimuli_target_rectanglediamonds.svg	10	yes	57	0	400	6	3	antiphase_hc_soi.wav	1	6	2	noise_calib_stim_LEFT.wav	1	10	blb_dichoticlistening_da-ka.mp3	da	ka	1	other
6.6.1	mac	2023-07-07	10:37:59	10:59:40	1297652	62ec4c02ead47ce424644dd8	1	1	main_slash	24	main_slash	89	stimuli_target_rectangletriangles.svg	stimuli_distractor_diamondtriangles.svg	5	yes	53	1	780	6	3	antiphase_hc_soi.wav	1	6	2	noise_calib_stim_LEFT.wav	1	10	blb_dichoticlistening_da-ka.mp3	da	ka	1	other
6.6.1	mac	2023-07-07	10:37:59	10:59:40	1297652	62ec4c02ead47ce424644dd8	1	1	main_slash	24	advance_on_keypress_SLASH	90	stimuli_target_rectangletriangles.svg	stimuli_distractor_diamondtriangles.svg	5	yes	57	0	358	6	3	antiphase_hc_soi.wav	1	6	2	noise_calib_stim_LEFT.wav	1	10	blb_dichoticlistening_da-ka.mp3	da	ka	1	other
6.6.1	mac	2023-07-07	10:37:59	10:59:43	1300640	62ec4c02ead47ce424644dd8	1	1	main_slash	24	main_slash	91	stimuli_distractor_diamondtriangles.svg	stimuli_target_trianglerectangles.svg	29	yes	0	0	2000	6	3	antiphase_hc_soi.wav	1	6	2	noise_calib_stim_LEFT.wav	1	10	blb_dichoticlistening_da-ka.mp3	da	ka	1	other
6.6.1	mac	2023-07-07	10:37:59	10:59:43	1300640	62ec4c02ead47ce424644dd8	1	1	main_slash	24	advance_on_keypress_SLASH	92	stimuli_distractor_diamondtriangles.svg	stimuli_target_trianglerectangles.svg	29	yes	57	0	506	6	3	antiphase_hc_soi.wav	1	6	2	noise_calib_stim_LEFT.wav	1	10	blb_dichoticlistening_da-ka.mp3	da	ka	1	other
6.6.1	mac	2023-07-07	10:37:59	10:59:45	1302451	62ec4c02ead47ce424644dd8	1	1	main_slash	24	main_slash	93	stimuli_distractor_trianglediamonds.svg	stimuli_target_trianglerectangles.svg	25	yes	53	1	685	6	3	antiphase_hc_soi.wav	1	6	2	noise_calib_stim_LEFT.wav	1	10	blb_dichoticlistening_da-ka.mp3	da	ka	1	other
6.6.1	mac	2023-07-07	10:37:59	10:59:45	1302451	62ec4c02ead47ce424644dd8	1	1	main_slash	24	advance_on_keypress_SLASH	94	stimuli_distractor_trianglediamonds.svg	stimuli_target_trianglerectangles.svg	25	yes	57	0	394	6	3	antiphase_hc_soi.wav	1	6	2	noise_calib_stim_LEFT.wav	1	10	blb_dichoticlistening_da-ka.mp3	da	ka	1	other
6.6.1	mac	2023-07-07	10:37:59	10:59:47	1304280	62ec4c02ead47ce424644dd8	1	1	main_slash	24	main_slash	95	stimuli_target_trianglesquares.svg	stimuli_distractor_diamondtriangles.svg	22	yes	53	1	806	6	3	antiphase_hc_soi.wav	1	6	2	noise_calib_stim_LEFT.wav	1	10	blb_dichoticlistening_da-ka.mp3	da	ka	1	other
6.6.1	mac	2023-07-07	10:37:59	10:59:47	1304280	62ec4c02ead47ce424644dd8	1	1	main_slash	24	advance_on_keypress_SLASH	96	stimuli_target_trianglesquares.svg	stimuli_distractor_diamondtriangles.svg	22	yes	57	0	385	6	3	antiphase_hc_soi.wav	1	6	2	noise_calib_stim_LEFT.wav	1	10	blb_dichoticlistening_da-ka.mp3	da	ka	1	other
6.6.1	mac	2023-07-07	10:37:59	10:59:50	1307290	62ec4c02ead47ce424644dd8	1	1	main_slash	24	main_slash	97	stimuli_distractor_diamondtriangles.svg	stimuli_distractor_trianglediamonds.svg	37	no	0	1	2000	6	3	antiphase_hc_soi.wav	1	6	2	noise_calib_stim_LEFT.wav	1	10	blb_dichoticlistening_da-ka.mp3	da	ka	1	other
6.6.1	mac	2023-07-07	10:37:59	10:59:50	1307290	62ec4c02ead47ce424644dd8	1	1	main_slash	24	advance_on_keypress_SLASH	98	stimuli_distractor_diamondtriangles.svg	stimuli_distractor_trianglediamonds.svg	37	no	57	0	388	6	3	antiphase_hc_soi.wav	1	6	2	noise_calib_stim_LEFT.wav	1	10	blb_dichoticlistening_da-ka.mp3	da	ka	1	other
6.6.1	mac	2023-07-07	10:37:59	10:59:52	1309787	62ec4c02ead47ce424644dd8	1	1	main_slash	24	main_slash	99	stimuli_target_diamondrectangles.svg	stimuli_distractor_trianglediamonds.svg	19	yes	53	1	1476	6	3	antiphase_hc_soi.wav	1	6	2	noise_calib_stim_LEFT.wav	1	10	blb_dichoticlistening_da-ka.mp3	da	ka	1	other
6.6.1	mac	2023-07-07	10:37:59	10:59:52	1309787	62ec4c02ead47ce424644dd8	1	1	main_slash	24	advance_on_keypress_SLASH	100	stimuli_target_diamondrectangles.svg	stimuli_distractor_trianglediamonds.svg	19	yes	57	0	410	6	3	antiphase_hc_soi.wav	1	6	2	noise_calib_stim_LEFT.wav	1	10	blb_dichoticlistening_da-ka.mp3	da	ka	1	other
6.6.1	mac	2023-07-07	10:37:59	10:59:54	1311834	62ec4c02ead47ce424644dd8	1	1	main_slash	24	main_slash	101	stimuli_target_squaretriangles.svg	stimuli_distractor_trianglediamonds.svg	3	yes	53	1	1004	6	3	antiphase_hc_soi.wav	1	6	2	noise_calib_stim_LEFT.wav	1	10	blb_dichoticlistening_da-ka.mp3	da	ka	1	other
6.6.1	mac	2023-07-07	10:37:59	10:59:54	1311834	62ec4c02ead47ce424644dd8	1	1	main_slash	24	advance_on_keypress_SLASH	102	stimuli_target_squaretriangles.svg	stimuli_distractor_trianglediamonds.svg	3	yes	57	0	398	6	3	antiphase_hc_soi.wav	1	6	2	noise_calib_stim_LEFT.wav	1	10	blb_dichoticlistening_da-ka.mp3	da	ka	1	other
6.6.1	mac	2023-07-07	10:37:59	10:59:56	1313591	62ec4c02ead47ce424644dd8	1	1	main_slash	24	main_slash	103	stimuli_distractor_diamondtriangles.svg	stimuli_target_squaretriangles.svg	15	yes	53	1	720	6	3	antiphase_hc_soi.wav	1	6	2	noise_calib_stim_LEFT.wav	1	10	blb_dichoticlistening_da-ka.mp3	da	ka	1	other
6.6.1	mac	2023-07-07	10:37:59	10:59:56	1313591	62ec4c02ead47ce424644dd8	1	1	main_slash	24	advance_on_keypress_SLASH	104	stimuli_distractor_diamondtriangles.svg	stimuli_target_squaretriangles.svg	15	yes	57	0	412	6	3	antiphase_hc_soi.wav	1	6	2	noise_calib_stim_LEFT.wav	1	10	blb_dichoticlistening_da-ka.mp3	da	ka	1	other
6.6.1	mac	2023-07-07	10:37:59	10:59:58	1315362	62ec4c02ead47ce424644dd8	1	1	main_slash	24	main_slash	105	stimuli_distractor_trianglediamonds.svg	stimuli_target_diamondsquares.svg	28	yes	53	1	730	6	3	antiphase_hc_soi.wav	1	6	2	noise_calib_stim_LEFT.wav	1	10	blb_dichoticlistening_da-ka.mp3	da	ka	1	other
6.6.1	mac	2023-07-07	10:37:59	10:59:58	1315362	62ec4c02ead47ce424644dd8	1	1	main_slash	24	advance_on_keypress_SLASH	106	stimuli_distractor_trianglediamonds.svg	stimuli_target_diamondsquares.svg	28	yes	57	0	365	6	3	antiphase_hc_soi.wav	1	6	2	noise_calib_stim_LEFT.wav	1	10	blb_dichoticlistening_da-ka.mp3	da	ka	1	other
6.6.1	mac	2023-07-07	10:37:59	11:00:00	1317372	62ec4c02ead47ce424644dd8	1	1	main_slash	24	main_slash	107	stimuli_target_diamondrectangles.svg	stimuli_distractor_diamondtriangles.svg	23	yes	53	1	1014	6	3	antiphase_hc_soi.wav	1	6	2	noise_calib_stim_LEFT.wav	1	10	blb_dichoticlistening_da-ka.mp3	da	ka	1	other
6.6.1	mac	2023-07-07	10:37:59	11:00:00	1317372	62ec4c02ead47ce424644dd8	1	1	main_slash	24	advance_on_keypress_SLASH	108	stimuli_target_diamondrectangles.svg	stimuli_distractor_diamondtriangles.svg	23	yes	57	0	302	6	3	antiphase_hc_soi.wav	1	6	2	noise_calib_stim_LEFT.wav	1	10	blb_dichoticlistening_da-ka.mp3	da	ka	1	other
6.6.1	mac	2023-07-07	10:37:59	11:00:01	1318990	62ec4c02ead47ce424644dd8	1	1	main_slash	24	main_slash	109	stimuli_target_trianglerectangles.svg	stimuli_distractor_trianglediamonds.svg	17	yes	53	1	692	6	3	antiphase_hc_soi.wav	1	6	2	noise_calib_stim_LEFT.wav	1	10	blb_dichoticlistening_da-ka.mp3	da	ka	1	other
6.6.1	mac	2023-07-07	10:37:59	11:00:01	1318990	62ec4c02ead47ce424644dd8	1	1	main_slash	24	advance_on_keypress_SLASH	110	stimuli_target_trianglerectangles.svg	stimuli_distractor_trianglediamonds.svg	17	yes	57	0	361	6	3	antiphase_hc_soi.wav	1	6	2	noise_calib_stim_LEFT.wav	1	10	blb_dichoticlistening_da-ka.mp3	da	ka	1	other
6.6.1	mac	2023-07-07	10:37:59	11:00:03	1320790	62ec4c02ead47ce424644dd8	1	1	main_slash	24	main_slash	111	stimuli_target_rectangletriangles.svg	stimuli_distractor_trianglediamonds.svg	1	yes	53	1	811	6	3	antiphase_hc_soi.wav	1	6	2	noise_calib_stim_LEFT.wav	1	10	blb_dichoticlistening_da-ka.mp3	da	ka	1	other
6.6.1	mac	2023-07-07	10:37:59	11:00:03	1320790	62ec4c02ead47ce424644dd8	1	1	main_slash	24	advance_on_keypress_SLASH	112	stimuli_target_rectangletriangles.svg	stimuli_distractor_trianglediamonds.svg	1	yes	57	0	344	6	3	antiphase_hc_soi.wav	1	6	2	noise_calib_stim_LEFT.wav	1	10	blb_dichoticlistening_da-ka.mp3	da	ka	1	other
6.6.1	mac	2023-07-07	10:37:59	11:00:05	1322332	62ec4c02ead47ce424644dd8	1	1	main_slash	24	main_slash	113	stimuli_target_rectanglediamonds.svg	stimuli_distractor_diamondtriangles.svg	6	yes	53	1	554	6	3	antiphase_hc_soi.wav	1	6	2	noise_calib_stim_LEFT.wav	1	10	blb_dichoticlistening_da-ka.mp3	da	ka	1	other
6.6.1	mac	2023-07-07	10:37:59	11:00:05	1322332	62ec4c02ead47ce424644dd8	1	1	main_slash	24	advance_on_keypress_SLASH	114	stimuli_target_rectanglediamonds.svg	stimuli_distractor_diamondtriangles.svg	6	yes	57	0	302	6	3	antiphase_hc_soi.wav	1	6	2	noise_calib_stim_LEFT.wav	1	10	blb_dichoticlistening_da-ka.mp3	da	ka	1	other
6.6.1	mac	2023-07-07	10:37:59	11:00:06	1323962	62ec4c02ead47ce424644dd8	1	1	main_slash	24	main_slash	115	stimuli_distractor_trianglediamonds.svg	stimuli_target_rectangletriangles.svg	9	yes	53	1	683	6	3	antiphase_hc_soi.wav	1	6	2	noise_calib_stim_LEFT.wav	1	10	blb_dichoticlistening_da-ka.mp3	da	ka	1	other
6.6.1	mac	2023-07-07	10:37:59	11:00:06	1323962	62ec4c02ead47ce424644dd8	1	1	main_slash	24	advance_on_keypress_SLASH	116	stimuli_distractor_trianglediamonds.svg	stimuli_target_rectangletriangles.svg	9	yes	57	0	302	6	3	antiphase_hc_soi.wav	1	6	2	noise_calib_stim_LEFT.wav	1	10	blb_dichoticlistening_da-ka.mp3	da	ka	1	other
6.6.1	mac	2023-07-07	10:37:59	11:00:08	1325432	62ec4c02ead47ce424644dd8	1	1	main_slash	24	main_slash	117	stimuli_distractor_diamondtriangles.svg	stimuli_target_squarediamonds.svg	16	yes	53	1	549	6	3	antiphase_hc_soi.wav	1	6	2	noise_calib_stim_LEFT.wav	1	10	blb_dichoticlistening_da-ka.mp3	da	ka	1	other
6.6.1	mac	2023-07-07	10:37:59	11:00:08	1325432	62ec4c02ead47ce424644dd8	1	1	main_slash	24	advance_on_keypress_SLASH	118	stimuli_distractor_diamondtriangles.svg	stimuli_target_squarediamonds.svg	16	yes	57	0	299	6	3	antiphase_hc_soi.wav	1	6	2	noise_calib_stim_LEFT.wav	1	10	blb_dichoticlistening_da-ka.mp3	da	ka	1	other
6.6.1	mac	2023-07-07	10:37:59	11:00:09	1326894	62ec4c02ead47ce424644dd8	1	1	main_slash	24	main_slash	119	stimuli_distractor_trianglediamonds.svg	stimuli_target_diamondrectangles.svg	27	yes	53	1	524	6	3	antiphase_hc_soi.wav	1	6	2	noise_calib_stim_LEFT.wav	1	10	blb_dichoticlistening_da-ka.mp3	da	ka	1	other
6.6.1	mac	2023-07-07	10:37:59	11:00:09	1326894	62ec4c02ead47ce424644dd8	1	1	main_slash	24	advance_on_keypress_SLASH	120	stimuli_distractor_trianglediamonds.svg	stimuli_target_diamondrectangles.svg	27	yes	57	0	297	6	3	antiphase_hc_soi.wav	1	6	2	noise_calib_stim_LEFT.wav	1	10	blb_dichoticlistening_da-ka.mp3	da	ka	1	other
6.6.1	mac	2023-07-07	10:37:59	11:00:11	1328389	62ec4c02ead47ce424644dd8	1	1	main_slash	24	main_slash	121	stimuli_target_squarediamonds.svg	stimuli_distractor_trianglediamonds.svg	4	yes	53	1	584	6	3	antiphase_hc_soi.wav	1	6	2	noise_calib_stim_LEFT.wav	1	10	blb_dichoticlistening_da-ka.mp3	da	ka	1	other
6.6.1	mac	2023-07-07	10:37:59	11:00:11	1328389	62ec4c02ead47ce424644dd8	1	1	main_slash	24	advance_on_keypress_SLASH	122	stimuli_target_squarediamonds.svg	stimuli_distractor_trianglediamonds.svg	4	yes	57	0	318	6	3	antiphase_hc_soi.wav	1	6	2	noise_calib_stim_LEFT.wav	1	10	blb_dichoticlistening_da-ka.mp3	da	ka	1	other
6.6.1	mac	2023-07-07	10:37:59	11:00:14	1331343	62ec4c02ead47ce424644dd8	1	1	main_slash	24	main_slash	123	stimuli_distractor_diamondtriangles.svg	stimuli_target_diamondsquares.svg	32	yes	0	0	2000	6	3	antiphase_hc_soi.wav	1	6	2	noise_calib_stim_LEFT.wav	1	10	blb_dichoticlistening_da-ka.mp3	da	ka	1	other
6.6.1	mac	2023-07-07	10:37:59	11:00:14	1331343	62ec4c02ead47ce424644dd8	1	1	main_slash	24	advance_on_keypress_SLASH	124	stimuli_distractor_diamondtriangles.svg	stimuli_target_diamondsquares.svg	32	yes	57	0	540	6	3	antiphase_hc_soi.wav	1	6	2	noise_calib_stim_LEFT.wav	1	10	blb_dichoticlistening_da-ka.mp3	da	ka	1	other
6.6.1	mac	2023-07-07	10:37:59	11:00:15	1332990	62ec4c02ead47ce424644dd8	1	1	main_slash	24	main_slash	125	stimuli_distractor_diamondtriangles.svg	stimuli_target_rectanglediamonds.svg	14	yes	53	1	477	6	3	antiphase_hc_soi.wav	1	6	2	noise_calib_stim_LEFT.wav	1	10	blb_dichoticlistening_da-ka.mp3	da	ka	1	other
6.6.1	mac	2023-07-07	10:37:59	11:00:15	1332990	62ec4c02ead47ce424644dd8	1	1	main_slash	24	advance_on_keypress_SLASH	126	stimuli_distractor_diamondtriangles.svg	stimuli_target_rectanglediamonds.svg	14	yes	57	0	273	6	3	antiphase_hc_soi.wav	1	6	2	noise_calib_stim_LEFT.wav	1	10	blb_dichoticlistening_da-ka.mp3	da	ka	1	other
6.6.1	mac	2023-07-07	10:37:59	11:00:17	1334336	62ec4c02ead47ce424644dd8	1	1	main_slash	24	main_slash	127	stimuli_distractor_trianglediamonds.svg	stimuli_target_squaretriangles.svg	11	yes	53	1	444	6	3	antiphase_hc_soi.wav	1	6	2	noise_calib_stim_LEFT.wav	1	10	blb_dichoticlistening_da-ka.mp3	da	ka	1	other
6.6.1	mac	2023-07-07	10:37:59	11:00:17	1334336	62ec4c02ead47ce424644dd8	1	1	main_slash	24	advance_on_keypress_SLASH	128	stimuli_distractor_trianglediamonds.svg	stimuli_target_squaretriangles.svg	11	yes	57	0	314	6	3	antiphase_hc_soi.wav	1	6	2	noise_calib_stim_LEFT.wav	1	10	blb_dichoticlistening_da-ka.mp3	da	ka	1	other
6.6.1	mac	2023-07-07	10:37:59	11:00:18	1335885	62ec4c02ead47ce424644dd8	1	1	main_slash	24	main_slash	129	stimuli_target_diamondsquares.svg	stimuli_distractor_trianglediamonds.svg	20	yes	53	1	609	6	3	antiphase_hc_soi.wav	1	6	2	noise_calib_stim_LEFT.wav	1	10	blb_dichoticlistening_da-ka.mp3	da	ka	1	other
6.6.1	mac	2023-07-07	10:37:59	11:00:18	1335885	62ec4c02ead47ce424644dd8	1	1	main_slash	24	advance_on_keypress_SLASH	130	stimuli_target_diamondsquares.svg	stimuli_distractor_trianglediamonds.svg	20	yes	57	0	405	6	3	antiphase_hc_soi.wav	1	6	2	noise_calib_stim_LEFT.wav	1	10	blb_dichoticlistening_da-ka.mp3	da	ka	1	other
6.6.1	mac	2023-07-07	10:37:59	11:00:21	1338906	62ec4c02ead47ce424644dd8	1	1	main_slash	24	main_slash	131	stimuli_distractor_diamondtriangles.svg	stimuli_distractor_diamondtriangles.svg	39	no	0	1	2000	6	3	antiphase_hc_soi.wav	1	6	2	noise_calib_stim_LEFT.wav	1	10	blb_dichoticlistening_da-ka.mp3	da	ka	1	other
6.6.1	mac	2023-07-07	10:37:59	11:00:21	1338906	62ec4c02ead47ce424644dd8	1	1	main_slash	24	advance_on_keypress_SLASH	132	stimuli_distractor_diamondtriangles.svg	stimuli_distractor_diamondtriangles.svg	39	no	57	0	665	6	3	antiphase_hc_soi.wav	1	6	2	noise_calib_stim_LEFT.wav	1	10	blb_dichoticlistening_da-ka.mp3	da	ka	1	other
6.6.1	mac	2023-07-07	10:37:59	11:00:25	1342205	62ec4c02ead47ce424644dd8	1	1	main_slash	24	main_slash	133	stimuli_target_diamondsquares.svg	stimuli_distractor_diamondtriangles.svg	24	yes	0	0	2000	6	3	antiphase_hc_soi.wav	1	6	2	noise_calib_stim_LEFT.wav	1	10	blb_dichoticlistening_da-ka.mp3	da	ka	1	other
6.6.1	mac	2023-07-07	10:37:59	11:00:25	1342205	62ec4c02ead47ce424644dd8	1	1	main_slash	24	advance_on_keypress_SLASH	134	stimuli_target_diamondsquares.svg	stimuli_distractor_diamondtriangles.svg	24	yes	57	0	274	6	3	antiphase_hc_soi.wav	1	6	2	noise_calib_stim_LEFT.wav	1	10	blb_dichoticlistening_da-ka.mp3	da	ka	1	other
6.6.1	mac	2023-07-07	10:37:59	11:00:27	1345106	62ec4c02ead47ce424644dd8	1	1	main_slash	24	main_slash	135	stimuli_distractor_trianglediamonds.svg	stimuli_distractor_diamondtriangles.svg	35	no	0	1	2000	6	3	antiphase_hc_soi.wav	1	6	2	noise_calib_stim_LEFT.wav	1	10	blb_dichoticlistening_da-ka.mp3	da	ka	1	other
6.6.1	mac	2023-07-07	10:37:59	11:00:27	1345106	62ec4c02ead47ce424644dd8	1	1	main_slash	24	advance_on_keypress_SLASH	136	stimuli_distractor_trianglediamonds.svg	stimuli_distractor_diamondtriangles.svg	35	no	57	0	382	6	3	antiphase_hc_soi.wav	1	6	2	noise_calib_stim_LEFT.wav	1	10	blb_dichoticlistening_da-ka.mp3	da	ka	1	other
6.6.1	mac	2023-07-07	10:37:59	11:00:31	1348122	62ec4c02ead47ce424644dd8	1	1	main_slash	24	main_slash	137	stimuli_distractor_trianglediamonds.svg	stimuli_distractor_trianglediamonds.svg	33	no	0	1	2000	6	3	antiphase_hc_soi.wav	1	6	2	noise_calib_stim_LEFT.wav	1	10	blb_dichoticlistening_da-ka.mp3	da	ka	1	other
6.6.1	mac	2023-07-07	10:37:59	11:00:31	1348122	62ec4c02ead47ce424644dd8	1	1	main_slash	24	advance_on_keypress_SLASH	138	stimuli_distractor_trianglediamonds.svg	stimuli_distractor_trianglediamonds.svg	33	no	57	0	419	6	3	antiphase_hc_soi.wav	1	6	2	noise_calib_stim_LEFT.wav	1	10	blb_dichoticlistening_da-ka.mp3	da	ka	1	other
6.6.1	mac	2023-07-07	10:37:59	11:00:34	1351173	62ec4c02ead47ce424644dd8	1	1	main_slash	24	main_slash	139	stimuli_distractor_diamondtriangles.svg	stimuli_distractor_diamondtriangles.svg	40	no	0	1	2000	6	3	antiphase_hc_soi.wav	1	6	2	noise_calib_stim_LEFT.wav	1	10	blb_dichoticlistening_da-ka.mp3	da	ka	1	other
6.6.1	mac	2023-07-07	10:37:59	11:00:34	1351173	62ec4c02ead47ce424644dd8	1	1	main_slash	24	advance_on_keypress_SLASH	140	stimuli_distractor_diamondtriangles.svg	stimuli_distractor_diamondtriangles.svg	40	no	57	0	446	6	3	antiphase_hc_soi.wav	1	6	2	noise_calib_stim_LEFT.wav	1	10	blb_dichoticlistening_da-ka.mp3	da	ka	1	other
6.6.1	mac	2023-07-07	10:37:59	11:00:37	1354241	62ec4c02ead47ce424644dd8	1	1	main_slash	24	main_slash	141	stimuli_distractor_trianglediamonds.svg	stimuli_distractor_trianglediamonds.svg	34	no	0	1	2000	6	3	antiphase_hc_soi.wav	1	6	2	noise_calib_stim_LEFT.wav	1	10	blb_dichoticlistening_da-ka.mp3	da	ka	1	other
6.6.1	mac	2023-07-07	10:37:59	11:00:37	1354241	62ec4c02ead47ce424644dd8	1	1	main_slash	24	advance_on_keypress_SLASH	142	stimuli_distractor_trianglediamonds.svg	stimuli_distractor_trianglediamonds.svg	34	no	57	0	277	6	3	antiphase_hc_soi.wav	1	6	2	noise_calib_stim_LEFT.wav	1	10	blb_dichoticlistening_da-ka.mp3	da	ka	1	other
6.6.1	mac	2023-07-07	10:37:59	11:00:38	1356038	62ec4c02ead47ce424644dd8	1	1	main_slash	24	main_slash	143	stimuli_target_squarediamonds.svg	stimuli_distractor_diamondtriangles.svg	8	yes	53	1	895	6	3	antiphase_hc_soi.wav	1	6	2	noise_calib_stim_LEFT.wav	1	10	blb_dichoticlistening_da-ka.mp3	da	ka	1	other
6.6.1	mac	2023-07-07	10:37:59	11:00:38	1356038	62ec4c02ead47ce424644dd8	1	1	main_slash	24	advance_on_keypress_SLASH	144	stimuli_target_squarediamonds.svg	stimuli_distractor_diamondtriangles.svg	8	yes	57	0	420	6	3	antiphase_hc_soi.wav	1	6	2	noise_calib_stim_LEFT.wav	1	10	blb_dichoticlistening_da-ka.mp3	da	ka	1	other
6.6.1	mac	2023-07-07	10:37:59	11:00:41	1359090	62ec4c02ead47ce424644dd8	1	1	main_slash	24	main_slash	145	stimuli_distractor_diamondtriangles.svg	stimuli_distractor_trianglediamonds.svg	38	no	0	1	2000	6	3	antiphase_hc_soi.wav	1	6	2	noise_calib_stim_LEFT.wav	1	10	blb_dichoticlistening_da-ka.mp3	da	ka	1	other
6.6.1	mac	2023-07-07	10:37:59	11:00:41	1359090	62ec4c02ead47ce424644dd8	1	1	main_slash	24	advance_on_keypress_SLASH	146	stimuli_distractor_diamondtriangles.svg	stimuli_distractor_trianglediamonds.svg	38	no	57	0	260	6	3	antiphase_hc_soi.wav	1	6	2	noise_calib_stim_LEFT.wav	1	10	blb_dichoticlistening_da-ka.mp3	da	ka	1	other
6.6.1	mac	2023-07-07	10:37:59	11:00:43	1360727	62ec4c02ead47ce424644dd8	1	1	main_slash	24	main_slash	147	stimuli_distractor_diamondtriangles.svg	stimuli_target_diamondrectangles.svg	31	yes	53	1	751	6	3	antiphase_hc_soi.wav	1	6	2	noise_calib_stim_LEFT.wav	1	10	blb_dichoticlistening_da-ka.mp3	da	ka	1	other
6.6.1	mac	2023-07-07	10:37:59	11:00:43	1360727	62ec4c02ead47ce424644dd8	1	1	main_slash	24	advance_on_keypress_SLASH	148	stimuli_distractor_diamondtriangles.svg	stimuli_target_diamondrectangles.svg	31	yes	57	0	417	6	3	antiphase_hc_soi.wav	1	6	2	noise_calib_stim_LEFT.wav	1	10	blb_dichoticlistening_da-ka.mp3	da	ka	1	other
6.6.1	mac	2023-07-07	10:37:59	11:00:45	1362494	62ec4c02ead47ce424644dd8	1	1	main_slash	24	main_slash	149	stimuli_distractor_trianglediamonds.svg	stimuli_target_trianglesquares.svg	26	yes	53	1	715	6	3	antiphase_hc_soi.wav	1	6	2	noise_calib_stim_LEFT.wav	1	10	blb_dichoticlistening_da-ka.mp3	da	ka	1	other
6.6.1	mac	2023-07-07	10:37:59	11:00:45	1362494	62ec4c02ead47ce424644dd8	1	1	main_slash	24	advance_on_keypress_SLASH	150	stimuli_distractor_trianglediamonds.svg	stimuli_target_trianglesquares.svg	26	yes	57	0	337	6	3	antiphase_hc_soi.wav	1	6	2	noise_calib_stim_LEFT.wav	1	10	blb_dichoticlistening_da-ka.mp3	da	ka	1	other
6.6.1	mac	2023-07-07	10:37:59	11:00:48	1365463	62ec4c02ead47ce424644dd8	1	1	main_slash	24	main_slash	151	stimuli_distractor_trianglediamonds.svg	stimuli_distractor_diamondtriangles.svg	36	no	0	1	2000	6	3	antiphase_hc_soi.wav	1	6	2	noise_calib_stim_LEFT.wav	1	10	blb_dichoticlistening_da-ka.mp3	da	ka	1	other
6.6.1	mac	2023-07-07	10:37:59	11:00:48	1365463	62ec4c02ead47ce424644dd8	1	1	main_slash	24	advance_on_keypress_SLASH	152	stimuli_distractor_trianglediamonds.svg	stimuli_distractor_diamondtriangles.svg	36	no	57	0	903	6	3	antiphase_hc_soi.wav	1	6	2	noise_calib_stim_LEFT.wav	1	10	blb_dichoticlistening_da-ka.mp3	da	ka	1	other
6.6.1	mac	2023-07-07	10:37:59	11:00:50	1367731	62ec4c02ead47ce424644dd8	1	1	main_slash	24	main_slash	153	stimuli_distractor_diamondtriangles.svg	stimuli_target_rectangletriangles.svg	13	yes	53	1	730	6	3	antiphase_hc_soi.wav	1	6	2	noise_calib_stim_LEFT.wav	1	10	blb_dichoticlistening_da-ka.mp3	da	ka	1	other
6.6.1	mac	2023-07-07	10:37:59	11:00:50	1367731	62ec4c02ead47ce424644dd8	1	1	main_slash	24	advance_on_keypress_SLASH	154	stimuli_distractor_diamondtriangles.svg	stimuli_target_rectangletriangles.svg	13	yes	57	0	323	6	3	antiphase_hc_soi.wav	1	6	2	noise_calib_stim_LEFT.wav	1	10	blb_dichoticlistening_da-ka.mp3	da	ka	1	other
6.6.1	mac	2023-07-07	10:37:59	11:00:52	1369308	62ec4c02ead47ce424644dd8	1	1	main_slash	24	main_slash	155	stimuli_distractor_diamondtriangles.svg	stimuli_target_trianglesquares.svg	30	yes	53	1	621	6	3	antiphase_hc_soi.wav	1	6	2	noise_calib_stim_LEFT.wav	1	10	blb_dichoticlistening_da-ka.mp3	da	ka	1	other
6.6.1	mac	2023-07-07	10:37:59	11:00:52	1369308	62ec4c02ead47ce424644dd8	1	1	main_slash	24	advance_on_keypress_SLASH	156	stimuli_distractor_diamondtriangles.svg	stimuli_target_trianglesquares.svg	30	yes	57	0	303	6	3	antiphase_hc_soi.wav	1	6	2	noise_calib_stim_LEFT.wav	1	10	blb_dichoticlistening_da-ka.mp3	da	ka	1	other
6.6.1	mac	2023-07-07	10:37:59	11:00:55	1372241	62ec4c02ead47ce424644dd8	1	1	main_slash	24	main_slash	157	stimuli_target_squaretriangles.svg	stimuli_distractor_diamondtriangles.svg	7	yes	0	0	2000	6	3	antiphase_hc_soi.wav	1	6	2	noise_calib_stim_LEFT.wav	1	10	blb_dichoticlistening_da-ka.mp3	da	ka	1	other
6.6.1	mac	2023-07-07	10:37:59	11:00:55	1372241	62ec4c02ead47ce424644dd8	1	1	main_slash	24	advance_on_keypress_SLASH	158	stimuli_target_squaretriangles.svg	stimuli_distractor_diamondtriangles.svg	7	yes	57	0	462	6	3	antiphase_hc_soi.wav	1	6	2	noise_calib_stim_LEFT.wav	1	10	blb_dichoticlistening_da-ka.mp3	da	ka	1	other
6.6.1	mac	2023-07-07	10:37:59	11:00:56	1374065	62ec4c02ead47ce424644dd8	1	1	main_slash	24	main_slash	159	stimuli_target_rectanglediamonds.svg	stimuli_distractor_trianglediamonds.svg	2	yes	53	1	732	6	3	antiphase_hc_soi.wav	1	6	2	noise_calib_stim_LEFT.wav	1	10	blb_dichoticlistening_da-ka.mp3	da	ka	1	other
6.6.1	mac	2023-07-07	10:37:59	11:00:56	1374065	62ec4c02ead47ce424644dd8	1	1	main_slash	24	advance_on_keypress_SLASH	160	stimuli_target_rectanglediamonds.svg	stimuli_distractor_trianglediamonds.svg	2	yes	57	0	357	6	3	antiphase_hc_soi.wav	1	6	2	noise_calib_stim_LEFT.wav	1	10	blb_dichoticlistening_da-ka.mp3	da	ka	1	other
6.6.1	mac	2023-07-07	10:37:59	11:01:39	1416546	62ec4c02ead47ce424644dd8	1	1	practice_z	26	practice_z	1	stimuli_distractor_diamondtriangles.svg	stimuli_target_diamondrectangles.svg	8	yes	44	1	787	6	3	antiphase_hc_soi.wav	1	6	2	noise_calib_stim_LEFT.wav	1	10	blb_dichoticlistening_da-ka.mp3	da	ka	1	other
6.6.1	mac	2023-07-07	10:37:59	11:01:39	1416546	62ec4c02ead47ce424644dd8	1	1	practice_z	26	advance_on_keypress_ZEE	2	stimuli_distractor_diamondtriangles.svg	stimuli_target_diamondrectangles.svg	8	yes	57	0	426	6	3	antiphase_hc_soi.wav	1	6	2	noise_calib_stim_LEFT.wav	1	10	blb_dichoticlistening_da-ka.mp3	da	ka	1	other
6.6.1	mac	2023-07-07	10:37:59	11:01:43	1420603	62ec4c02ead47ce424644dd8	1	1	practice_z	26	practice_z	3	stimuli_distractor_diamondtriangles.svg	stimuli_distractor_diamondtriangles.svg	13	no	0	1	2000	6	3	antiphase_hc_soi.wav	1	6	2	noise_calib_stim_LEFT.wav	1	10	blb_dichoticlistening_da-ka.mp3	da	ka	1	other
6.6.1	mac	2023-07-07	10:37:59	11:01:43	1420603	62ec4c02ead47ce424644dd8	1	1	practice_z	26	advance_on_keypress_ZEE	4	stimuli_distractor_diamondtriangles.svg	stimuli_distractor_diamondtriangles.svg	13	no	57	0	267	6	3	antiphase_hc_soi.wav	1	6	2	noise_calib_stim_LEFT.wav	1	10	blb_dichoticlistening_da-ka.mp3	da	ka	1	other
6.6.1	mac	2023-07-07	10:37:59	11:01:45	1423105	62ec4c02ead47ce424644dd8	1	1	practice_z	26	practice_z	5	stimuli_target_rectanglediamonds.svg	stimuli_distractor_diamondtriangles.svg	1	yes	44	1	612	6	3	antiphase_hc_soi.wav	1	6	2	noise_calib_stim_LEFT.wav	1	10	blb_dichoticlistening_da-ka.mp3	da	ka	1	other
6.6.1	mac	2023-07-07	10:37:59	11:01:45	1423105	62ec4c02ead47ce424644dd8	1	1	practice_z	26	advance_on_keypress_ZEE	6	stimuli_target_rectanglediamonds.svg	stimuli_distractor_diamondtriangles.svg	1	yes	57	0	444	6	3	antiphase_hc_soi.wav	1	6	2	noise_calib_stim_LEFT.wav	1	10	blb_dichoticlistening_da-ka.mp3	da	ka	1	other
6.6.1	mac	2023-07-07	10:37:59	11:01:48	1425747	62ec4c02ead47ce424644dd8	1	1	practice_z	26	practice_z	7	stimuli_target_squarediamonds.svg	stimuli_distractor_diamondtriangles.svg	2	yes	44	1	566	6	3	antiphase_hc_soi.wav	1	6	2	noise_calib_stim_LEFT.wav	1	10	blb_dichoticlistening_da-ka.mp3	da	ka	1	other
6.6.1	mac	2023-07-07	10:37:59	11:01:48	1425747	62ec4c02ead47ce424644dd8	1	1	practice_z	26	advance_on_keypress_ZEE	8	stimuli_target_squarediamonds.svg	stimuli_distractor_diamondtriangles.svg	2	yes	57	0	333	6	3	antiphase_hc_soi.wav	1	6	2	noise_calib_stim_LEFT.wav	1	10	blb_dichoticlistening_da-ka.mp3	da	ka	1	other
6.6.1	mac	2023-07-07	10:37:59	11:01:51	1428404	62ec4c02ead47ce424644dd8	1	1	practice_z	26	practice_z	9	stimuli_distractor_trianglediamonds.svg	stimuli_target_squarediamonds.svg	11	yes	44	1	697	6	3	antiphase_hc_soi.wav	1	6	2	noise_calib_stim_LEFT.wav	1	10	blb_dichoticlistening_da-ka.mp3	da	ka	1	other
6.6.1	mac	2023-07-07	10:37:59	11:01:51	1428404	62ec4c02ead47ce424644dd8	1	1	practice_z	26	advance_on_keypress_ZEE	10	stimuli_distractor_trianglediamonds.svg	stimuli_target_squarediamonds.svg	11	yes	57	0	403	6	3	antiphase_hc_soi.wav	1	6	2	noise_calib_stim_LEFT.wav	1	10	blb_dichoticlistening_da-ka.mp3	da	ka	1	other
6.6.1	mac	2023-07-07	10:37:59	11:01:54	1431164	62ec4c02ead47ce424644dd8	1	1	practice_z	26	practice_z	11	stimuli_target_rectanglediamonds.svg	stimuli_distractor_trianglediamonds.svg	4	yes	44	1	734	6	3	antiphase_hc_soi.wav	1	6	2	noise_calib_stim_LEFT.wav	1	10	blb_dichoticlistening_da-ka.mp3	da	ka	1	other
6.6.1	mac	2023-07-07	10:37:59	11:01:54	1431164	62ec4c02ead47ce424644dd8	1	1	practice_z	26	advance_on_keypress_ZEE	12	stimuli_target_rectanglediamonds.svg	stimuli_distractor_trianglediamonds.svg	4	yes	57	0	808	6	3	antiphase_hc_soi.wav	1	6	2	noise_calib_stim_LEFT.wav	1	10	blb_dichoticlistening_da-ka.mp3	da	ka	1	other
6.6.1	mac	2023-07-07	10:37:59	11:01:58	1435590	62ec4c02ead47ce424644dd8	1	1	practice_z	26	practice_z	13	stimuli_distractor_trianglediamonds.svg	stimuli_distractor_trianglediamonds.svg	15	no	0	1	2000	6	3	antiphase_hc_soi.wav	1	6	2	noise_calib_stim_LEFT.wav	1	10	blb_dichoticlistening_da-ka.mp3	da	ka	1	other
6.6.1	mac	2023-07-07	10:37:59	11:01:58	1435590	62ec4c02ead47ce424644dd8	1	1	practice_z	26	advance_on_keypress_ZEE	14	stimuli_distractor_trianglediamonds.svg	stimuli_distractor_trianglediamonds.svg	15	no	57	0	558	6	3	antiphase_hc_soi.wav	1	6	2	noise_calib_stim_LEFT.wav	1	10	blb_dichoticlistening_da-ka.mp3	da	ka	1	other
