build	computer.platform	date	time	timestamp	time_elapsed_ms	subject	group	session	blockcode	blocknum	trialcode	trialnum	stimulus_left	stimulus_right	stim_index	target_present	response	correct	latency	headphonecheck_countTestTrials	headphonecheck_index	headphonecheck_testSound	headphonecheck_correctResponse	stereocheck_countTestTrials	stereocheck_index	stereocheck_testSound	stereocheck_correctResponse	DL_index	DL_soundfile	DL_leftSound	DL_rightSound	DL_dualSound	DL_choice
6.6.1	mac	2023-06-13	10:30:29	0	0	61592ea07347e286bca1955f	1	1	headphonecheck_calibration	4	headphonecheck_calibrationIntro	1			0		calibrationButton	0	2786	0	0			0	0			1				0	
6.6.1	mac	2023-06-13	10:30:29	0	0	61592ea07347e286bca1955f	1	1	headphonecheck_testphase	5	test_collectResponse	3			0		second	0	5932	1	2	antiphase_hc_ios.wav	3	0	0			1				0	
6.6.1	mac	2023-06-13	10:30:29	0	0	61592ea07347e286bca1955f	1	1	headphonecheck_testphase	5	test_collectResponse	6			0		third	0	1715	2	1	antiphase_hc_iso.wav	2	0	0			1				0	
6.6.1	mac	2023-06-13	10:30:29	0	0	61592ea07347e286bca1955f	1	1	headphonecheck_testphase	5	test_collectResponse	9			0		second	0	715	3	3	antiphase_hc_soi.wav	1	0	0			1				0	
6.6.1	mac	2023-06-13	10:30:29	0	0	61592ea07347e286bca1955f	1	1	headphonecheck_testphase	5	test_collectResponse	12			0		third	0	681	4	4	antiphase_hc_sio.wav	1	0	0			1				0	
6.6.1	mac	2023-06-13	10:30:29	0	0	61592ea07347e286bca1955f	1	1	headphonecheck_testphase	5	test_collectResponse	15			0		first	0	747	5	6	antiphase_hc_ois.wav	3	0	0			1				0	
6.6.1	mac	2023-06-13	10:30:29	0	0	61592ea07347e286bca1955f	1	1	headphonecheck_testphase	5	test_collectResponse	18			0		third	0	947	6	5	antiphase_hc_osi.wav	2	0	0			1				0	
6.6.1	mac	2023-06-13	10:30:29	0	0	61592ea07347e286bca1955f	1	1	stereocheck_calibration	7	stereocheck_calibrationIntro	1			0		stereocheck_calibrationButton	0	11444	6	5	antiphase_hc_osi.wav	2	0	0			1				0	
6.6.1	mac	2023-06-13	10:30:29	0	0	61592ea07347e286bca1955f	1	1	stereocheck_testphase	8	stereocheck_test_collectResponse	3			0		stereocheck_right	1	1028	6	5	antiphase_hc_osi.wav	2	1	4	noise_calib_stim_RIGHT.wav	2	1				0	
6.6.1	mac	2023-06-13	10:30:29	0	0	61592ea07347e286bca1955f	1	1	stereocheck_testphase	8	stereocheck_test_collectResponse	6			0		stereocheck_left	1	795	6	5	antiphase_hc_osi.wav	2	2	1	noise_calib_stim_LEFT.wav	1	1				0	
6.6.1	mac	2023-06-13	10:30:29	0	0	61592ea07347e286bca1955f	1	1	stereocheck_testphase	8	stereocheck_test_collectResponse	9			0		stereocheck_right	1	378	6	5	antiphase_hc_osi.wav	2	3	5	noise_calib_stim_RIGHT.wav	2	1				0	
6.6.1	mac	2023-06-13	10:30:29	0	0	61592ea07347e286bca1955f	1	1	stereocheck_testphase	8	stereocheck_test_collectResponse	12			0		stereocheck_right	1	310	6	5	antiphase_hc_osi.wav	2	4	6	noise_calib_stim_RIGHT.wav	2	1				0	
6.6.1	mac	2023-06-13	10:30:29	0	0	61592ea07347e286bca1955f	1	1	stereocheck_testphase	8	stereocheck_test_collectResponse	15			0		stereocheck_left	1	660	6	5	antiphase_hc_osi.wav	2	5	2	noise_calib_stim_LEFT.wav	1	1				0	
6.6.1	mac	2023-06-13	10:30:29	0	0	61592ea07347e286bca1955f	1	1	stereocheck_testphase	8	stereocheck_test_collectResponse	18			0		stereocheck_left	1	377	6	5	antiphase_hc_osi.wav	2	6	3	noise_calib_stim_LEFT.wav	1	1				0	
6.6.1	mac	2023-06-13	10:30:29	0	0	61592ea07347e286bca1955f	1	1	DL_practice	11	DL_practice	2			0		ta	1	2175	6	5	antiphase_hc_osi.wav	2	6	3	noise_calib_stim_LEFT.wav	1	36	blb_dichoticlistening_ta-ta.mp3	ta	ta	0	left
6.6.1	mac	2023-06-13	10:30:29	0	0	61592ea07347e286bca1955f	1	1	DL_practice	11	DL_practice	3			0		da	1	1342	6	5	antiphase_hc_osi.wav	2	6	3	noise_calib_stim_LEFT.wav	1	8	blb_dichoticlistening_da-da.mp3	da	da	0	left
6.6.1	mac	2023-06-13	10:30:29	0	0	61592ea07347e286bca1955f	1	1	DL_practice	11	DL_practice	4			0		da	1	2808	6	5	antiphase_hc_osi.wav	2	6	3	noise_calib_stim_LEFT.wav	1	7	blb_dichoticlistening_da-ba.mp3	da	ba	1	left
6.6.1	mac	2023-06-13	10:30:29	0	0	61592ea07347e286bca1955f	1	1	DL_practice	11	DL_practice	5			0		ka	1	1674	6	5	antiphase_hc_osi.wav	2	6	3	noise_calib_stim_LEFT.wav	1	22	blb_dichoticlistening_ka-ka.mp3	ka	ka	0	left
6.6.1	mac	2023-06-13	10:30:29	0	0	61592ea07347e286bca1955f	1	1	DL_practice	11	DL_practice	6			0		ga	1	2642	6	5	antiphase_hc_osi.wav	2	6	3	noise_calib_stim_LEFT.wav	1	18	blb_dichoticlistening_ga-ta.mp3	ga	ta	1	left
6.6.1	mac	2023-06-13	10:30:29	0	0	61592ea07347e286bca1955f	1	1	DL_practice	11	DL_practice	7			0		ga	1	1274	6	5	antiphase_hc_osi.wav	2	6	3	noise_calib_stim_LEFT.wav	1	15	blb_dichoticlistening_ga-ga.mp3	ga	ga	0	left
6.6.1	mac	2023-06-13	10:30:29	0	0	61592ea07347e286bca1955f	1	1	DL_practice	11	DL_practice	8			0		ba	1	1625	6	5	antiphase_hc_osi.wav	2	6	3	noise_calib_stim_LEFT.wav	1	1	blb_dichoticlistening_ba-ba.mp3	ba	ba	0	left
6.6.1	mac	2023-06-13	10:30:29	0	0	61592ea07347e286bca1955f	1	1	DL_practice	11	DL_practice	9			0		ka	1	2304	6	5	antiphase_hc_osi.wav	2	6	3	noise_calib_stim_LEFT.wav	1	23	blb_dichoticlistening_ka-pa.mp3	ka	pa	1	left
6.6.1	mac	2023-06-13	10:30:29	0	0	61592ea07347e286bca1955f	1	1	DL_practice	11	DL_practice	10			0		pa	1	2191	6	5	antiphase_hc_osi.wav	2	6	3	noise_calib_stim_LEFT.wav	1	29	blb_dichoticlistening_pa-pa.mp3	pa	pa	0	left
6.6.1	mac	2023-06-13	10:30:29	0	0	61592ea07347e286bca1955f	1	1	DL_test	13	DL_test	1			0		ka	1	2424	6	5	antiphase_hc_osi.wav	2	6	3	noise_calib_stim_LEFT.wav	1	16	blb_dichoticlistening_ga-ka.mp3	ga	ka	1	right
6.6.1	mac	2023-06-13	10:30:29	0	0	61592ea07347e286bca1955f	1	1	DL_test	13	DL_test	2			0		ba	1	3208	6	5	antiphase_hc_osi.wav	2	6	3	noise_calib_stim_LEFT.wav	1	4	blb_dichoticlistening_ba-ka.mp3	ba	ka	1	left
6.6.1	mac	2023-06-13	10:30:29	0	0	61592ea07347e286bca1955f	1	1	DL_test	13	DL_test	3			0		da	1	2240	6	5	antiphase_hc_osi.wav	2	6	3	noise_calib_stim_LEFT.wav	1	2	blb_dichoticlistening_ba-da.mp3	ba	da	1	right
6.6.1	mac	2023-06-13	10:30:29	0	0	61592ea07347e286bca1955f	1	1	DL_test	13	DL_test	4			0		ka	1	1374	6	5	antiphase_hc_osi.wav	2	6	3	noise_calib_stim_LEFT.wav	1	23	blb_dichoticlistening_ka-pa.mp3	ka	pa	1	left
6.6.1	mac	2023-06-13	10:30:29	0	0	61592ea07347e286bca1955f	1	1	DL_test	13	DL_test	5			0		ba	1	1374	6	5	antiphase_hc_osi.wav	2	6	3	noise_calib_stim_LEFT.wav	1	1	blb_dichoticlistening_ba-ba.mp3	ba	ba	0	left
6.6.1	mac	2023-06-13	10:30:29	0	0	61592ea07347e286bca1955f	1	1	DL_test	13	DL_test	6			0		da	1	3373	6	5	antiphase_hc_osi.wav	2	6	3	noise_calib_stim_LEFT.wav	1	26	blb_dichoticlistening_pa-da.mp3	pa	da	1	right
6.6.1	mac	2023-06-13	10:30:29	0	0	61592ea07347e286bca1955f	1	1	DL_test	13	DL_test	7			0		ta	1	1773	6	5	antiphase_hc_osi.wav	2	6	3	noise_calib_stim_LEFT.wav	1	35	blb_dichoticlistening_ta-pa.mp3	ta	pa	1	left
6.6.1	mac	2023-06-13	10:30:29	0	0	61592ea07347e286bca1955f	1	1	DL_test	13	DL_test	8			0		ka	1	1540	6	5	antiphase_hc_osi.wav	2	6	3	noise_calib_stim_LEFT.wav	1	28	blb_dichoticlistening_pa-ka.mp3	pa	ka	1	right
6.6.1	mac	2023-06-13	10:30:29	0	0	61592ea07347e286bca1955f	1	1	DL_test	13	DL_test	9			0		ta	1	1641	6	5	antiphase_hc_osi.wav	2	6	3	noise_calib_stim_LEFT.wav	1	36	blb_dichoticlistening_ta-ta.mp3	ta	ta	0	left
6.6.1	mac	2023-06-13	10:30:29	0	0	61592ea07347e286bca1955f	1	1	DL_test	13	DL_test	10			0		pa	1	2572	6	5	antiphase_hc_osi.wav	2	6	3	noise_calib_stim_LEFT.wav	1	25	blb_dichoticlistening_pa-ba.mp3	pa	ba	1	left
6.6.1	mac	2023-06-13	10:30:29	0	0	61592ea07347e286bca1955f	1	1	DL_test	13	DL_test	11			0		da	1	2622	6	5	antiphase_hc_osi.wav	2	6	3	noise_calib_stim_LEFT.wav	1	9	blb_dichoticlistening_da-ga.mp3	da	ga	1	left
6.6.1	mac	2023-06-13	10:30:29	0	0	61592ea07347e286bca1955f	1	1	DL_test	13	DL_test	12			0		ka	1	1123	6	5	antiphase_hc_osi.wav	2	6	3	noise_calib_stim_LEFT.wav	1	34	blb_dichoticlistening_ta-ka.mp3	ta	ka	1	right
6.6.1	mac	2023-06-13	10:30:29	0	0	61592ea07347e286bca1955f	1	1	DL_test	13	DL_test	13			0		pa	1	1522	6	5	antiphase_hc_osi.wav	2	6	3	noise_calib_stim_LEFT.wav	1	27	blb_dichoticlistening_pa-ga.mp3	pa	ga	1	left
6.6.1	mac	2023-06-13	10:30:29	0	0	61592ea07347e286bca1955f	1	1	DL_test	13	DL_test	14			0		da	1	1623	6	5	antiphase_hc_osi.wav	2	6	3	noise_calib_stim_LEFT.wav	1	7	blb_dichoticlistening_da-ba.mp3	da	ba	1	left
6.6.1	mac	2023-06-13	10:30:29	0	0	61592ea07347e286bca1955f	1	1	DL_test	13	DL_test	15			0		ga	1	1222	6	5	antiphase_hc_osi.wav	2	6	3	noise_calib_stim_LEFT.wav	1	15	blb_dichoticlistening_ga-ga.mp3	ga	ga	0	left
6.6.1	mac	2023-06-13	10:30:29	0	0	61592ea07347e286bca1955f	1	1	DL_test	13	DL_test	16			0		ba	1	1737	6	5	antiphase_hc_osi.wav	2	6	3	noise_calib_stim_LEFT.wav	1	3	blb_dichoticlistening_ba-ga.mp3	ba	ga	1	left
6.6.1	mac	2023-06-13	10:30:29	0	0	61592ea07347e286bca1955f	1	1	DL_test	13	DL_test	17			0		ka	1	1119	6	5	antiphase_hc_osi.wav	2	6	3	noise_calib_stim_LEFT.wav	1	19	blb_dichoticlistening_ka-ba.mp3	ka	ba	1	left
6.6.1	mac	2023-06-13	10:30:29	0	0	61592ea07347e286bca1955f	1	1	DL_test	13	DL_test	18			0		da	1	938	6	5	antiphase_hc_osi.wav	2	6	3	noise_calib_stim_LEFT.wav	1	8	blb_dichoticlistening_da-da.mp3	da	da	0	left
6.6.1	mac	2023-06-13	10:30:29	0	0	61592ea07347e286bca1955f	1	1	DL_test	13	DL_test	19			0		ta	1	1538	6	5	antiphase_hc_osi.wav	2	6	3	noise_calib_stim_LEFT.wav	1	31	blb_dichoticlistening_ta-ba.mp3	ta	ba	1	left
6.6.1	mac	2023-06-13	10:30:29	0	0	61592ea07347e286bca1955f	1	1	DL_test	13	DL_test	20			0		ka	1	922	6	5	antiphase_hc_osi.wav	2	6	3	noise_calib_stim_LEFT.wav	1	21	blb_dichoticlistening_ka-ga.mp3	ka	ga	1	left
6.6.1	mac	2023-06-13	10:30:29	0	0	61592ea07347e286bca1955f	1	1	DL_test	13	DL_test	21			0		pa	1	1438	6	5	antiphase_hc_osi.wav	2	6	3	noise_calib_stim_LEFT.wav	1	17	blb_dichoticlistening_ga-pa.mp3	ga	pa	1	right
6.6.1	mac	2023-06-13	10:30:29	0	0	61592ea07347e286bca1955f	1	1	DL_test	13	DL_test	22			0		pa	0	989	6	5	antiphase_hc_osi.wav	2	6	3	noise_calib_stim_LEFT.wav	1	10	blb_dichoticlistening_da-ka.mp3	da	ka	1	other
6.6.1	mac	2023-06-13	10:30:29	0	0	61592ea07347e286bca1955f	1	1	DL_test	13	DL_test	23			0		ta	1	1422	6	5	antiphase_hc_osi.wav	2	6	3	noise_calib_stim_LEFT.wav	1	12	blb_dichoticlistening_da-ta.mp3	da	ta	1	right
6.6.1	mac	2023-06-13	10:30:29	0	0	61592ea07347e286bca1955f	1	1	DL_test	13	DL_test	24			0		ta	1	1155	6	5	antiphase_hc_osi.wav	2	6	3	noise_calib_stim_LEFT.wav	1	30	blb_dichoticlistening_pa-ta.mp3	pa	ta	1	right
6.6.1	mac	2023-06-13	10:30:29	0	0	61592ea07347e286bca1955f	1	1	DL_test	13	DL_test	25			0		da	0	3188	6	5	antiphase_hc_osi.wav	2	6	3	noise_calib_stim_LEFT.wav	1	33	blb_dichoticlistening_ta-ga.mp3	ta	ga	1	other
6.6.1	mac	2023-06-13	10:30:29	0	0	61592ea07347e286bca1955f	1	1	DL_test	13	DL_test	26			0		ba	1	1522	6	5	antiphase_hc_osi.wav	2	6	3	noise_calib_stim_LEFT.wav	1	13	blb_dichoticlistening_ga-ba.mp3	ga	ba	1	right
6.6.1	mac	2023-06-13	10:30:29	0	0	61592ea07347e286bca1955f	1	1	DL_test	13	DL_test	27			0		pa	1	1672	6	5	antiphase_hc_osi.wav	2	6	3	noise_calib_stim_LEFT.wav	1	29	blb_dichoticlistening_pa-pa.mp3	pa	pa	0	left
6.6.1	mac	2023-06-13	10:30:29	0	0	61592ea07347e286bca1955f	1	1	DL_test	13	DL_test	28			0		pa	1	1005	6	5	antiphase_hc_osi.wav	2	6	3	noise_calib_stim_LEFT.wav	1	11	blb_dichoticlistening_da-pa.mp3	da	pa	1	right
6.6.1	mac	2023-06-13	10:30:29	0	0	61592ea07347e286bca1955f	1	1	DL_test	13	DL_test	29			0		da	1	1770	6	5	antiphase_hc_osi.wav	2	6	3	noise_calib_stim_LEFT.wav	1	32	blb_dichoticlistening_ta-da.mp3	ta	da	1	right
6.6.1	mac	2023-06-13	10:30:29	0	0	61592ea07347e286bca1955f	1	1	DL_test	13	DL_test	30			0		ka	1	1454	6	5	antiphase_hc_osi.wav	2	6	3	noise_calib_stim_LEFT.wav	1	22	blb_dichoticlistening_ka-ka.mp3	ka	ka	0	left
6.6.1	mac	2023-06-13	10:30:29	0	0	61592ea07347e286bca1955f	1	1	DL_test	13	DL_test	31			0		ka	1	887	6	5	antiphase_hc_osi.wav	2	6	3	noise_calib_stim_LEFT.wav	1	24	blb_dichoticlistening_ka-ta.mp3	ka	ta	1	left
6.6.1	mac	2023-06-13	10:30:29	0	0	61592ea07347e286bca1955f	1	1	DL_test	13	DL_test	32			0		ga	1	1020	6	5	antiphase_hc_osi.wav	2	6	3	noise_calib_stim_LEFT.wav	1	14	blb_dichoticlistening_ga-da.mp3	ga	da	1	left
6.6.1	mac	2023-06-13	10:30:29	0	0	61592ea07347e286bca1955f	1	1	DL_test	13	DL_test	33			0		ka	1	1038	6	5	antiphase_hc_osi.wav	2	6	3	noise_calib_stim_LEFT.wav	1	20	blb_dichoticlistening_ka-da.mp3	ka	da	1	left
6.6.1	mac	2023-06-13	10:30:29	0	0	61592ea07347e286bca1955f	1	1	DL_test	13	DL_test	34			0		ka	0	1121	6	5	antiphase_hc_osi.wav	2	6	3	noise_calib_stim_LEFT.wav	1	18	blb_dichoticlistening_ga-ta.mp3	ga	ta	1	other
6.6.1	mac	2023-06-13	10:30:29	0	0	61592ea07347e286bca1955f	1	1	DL_test	13	DL_test	35			0		ta	1	1621	6	5	antiphase_hc_osi.wav	2	6	3	noise_calib_stim_LEFT.wav	1	6	blb_dichoticlistening_ba-ta.mp3	ba	ta	1	right
6.6.1	mac	2023-06-13	10:30:29	0	0	61592ea07347e286bca1955f	1	1	DL_test	13	DL_test	36			0		pa	1	1188	6	5	antiphase_hc_osi.wav	2	6	3	noise_calib_stim_LEFT.wav	1	5	blb_dichoticlistening_ba-pa.mp3	ba	pa	1	right
6.6.1	mac	2023-06-13	10:30:29	0	0	61592ea07347e286bca1955f	1	1	DL_test	14	DL_test	1			0		ka	1	1171	6	5	antiphase_hc_osi.wav	2	6	3	noise_calib_stim_LEFT.wav	1	34	blb_dichoticlistening_ta-ka.mp3	ta	ka	1	right
6.6.1	mac	2023-06-13	10:30:29	0	0	61592ea07347e286bca1955f	1	1	DL_test	14	DL_test	2			0		da	1	1203	6	5	antiphase_hc_osi.wav	2	6	3	noise_calib_stim_LEFT.wav	1	26	blb_dichoticlistening_pa-da.mp3	pa	da	1	right
6.6.1	mac	2023-06-13	10:30:29	0	0	61592ea07347e286bca1955f	1	1	DL_test	14	DL_test	3			0		ta	1	1203	6	5	antiphase_hc_osi.wav	2	6	3	noise_calib_stim_LEFT.wav	1	18	blb_dichoticlistening_ga-ta.mp3	ga	ta	1	right
6.6.1	mac	2023-06-13	10:30:29	0	0	61592ea07347e286bca1955f	1	1	DL_test	14	DL_test	4			0		pa	0	903	6	5	antiphase_hc_osi.wav	2	6	3	noise_calib_stim_LEFT.wav	1	10	blb_dichoticlistening_da-ka.mp3	da	ka	1	other
6.6.1	mac	2023-06-13	10:30:29	0	0	61592ea07347e286bca1955f	1	1	DL_test	14	DL_test	5			0		pa	1	752	6	5	antiphase_hc_osi.wav	2	6	3	noise_calib_stim_LEFT.wav	1	11	blb_dichoticlistening_da-pa.mp3	da	pa	1	right
6.6.1	mac	2023-06-13	10:30:29	0	0	61592ea07347e286bca1955f	1	1	DL_test	14	DL_test	6			0		da	1	1419	6	5	antiphase_hc_osi.wav	2	6	3	noise_calib_stim_LEFT.wav	1	8	blb_dichoticlistening_da-da.mp3	da	da	0	left
6.6.1	mac	2023-06-13	10:30:29	0	0	61592ea07347e286bca1955f	1	1	DL_test	14	DL_test	7			0		ba	1	1419	6	5	antiphase_hc_osi.wav	2	6	3	noise_calib_stim_LEFT.wav	1	19	blb_dichoticlistening_ka-ba.mp3	ka	ba	1	right
6.6.1	mac	2023-06-13	10:30:29	0	0	61592ea07347e286bca1955f	1	1	DL_test	14	DL_test	8			0		pa	1	1420	6	5	antiphase_hc_osi.wav	2	6	3	noise_calib_stim_LEFT.wav	1	29	blb_dichoticlistening_pa-pa.mp3	pa	pa	0	left
6.6.1	mac	2023-06-13	10:30:29	0	0	61592ea07347e286bca1955f	1	1	DL_test	14	DL_test	9			0		pa	1	917	6	5	antiphase_hc_osi.wav	2	6	3	noise_calib_stim_LEFT.wav	1	17	blb_dichoticlistening_ga-pa.mp3	ga	pa	1	right
6.6.1	mac	2023-06-13	10:30:29	0	0	61592ea07347e286bca1955f	1	1	DL_test	14	DL_test	10			0		pa	1	936	6	5	antiphase_hc_osi.wav	2	6	3	noise_calib_stim_LEFT.wav	1	5	blb_dichoticlistening_ba-pa.mp3	ba	pa	1	right
6.6.1	mac	2023-06-13	10:30:29	0	0	61592ea07347e286bca1955f	1	1	DL_test	14	DL_test	11			0		ga	1	1137	6	5	antiphase_hc_osi.wav	2	6	3	noise_calib_stim_LEFT.wav	1	21	blb_dichoticlistening_ka-ga.mp3	ka	ga	1	right
6.6.1	mac	2023-06-13	10:30:29	0	0	61592ea07347e286bca1955f	1	1	DL_test	14	DL_test	12			0		ba	1	1153	6	5	antiphase_hc_osi.wav	2	6	3	noise_calib_stim_LEFT.wav	1	1	blb_dichoticlistening_ba-ba.mp3	ba	ba	0	left
6.6.1	mac	2023-06-13	10:30:29	0	0	61592ea07347e286bca1955f	1	1	DL_test	14	DL_test	13			0		da	1	802	6	5	antiphase_hc_osi.wav	2	6	3	noise_calib_stim_LEFT.wav	1	20	blb_dichoticlistening_ka-da.mp3	ka	da	1	right
6.6.1	mac	2023-06-13	10:30:29	0	0	61592ea07347e286bca1955f	1	1	DL_test	14	DL_test	14			0		ga	1	1169	6	5	antiphase_hc_osi.wav	2	6	3	noise_calib_stim_LEFT.wav	1	27	blb_dichoticlistening_pa-ga.mp3	pa	ga	1	right
6.6.1	mac	2023-06-13	10:30:29	0	0	61592ea07347e286bca1955f	1	1	DL_test	14	DL_test	15			0		ta	1	1386	6	5	antiphase_hc_osi.wav	2	6	3	noise_calib_stim_LEFT.wav	1	36	blb_dichoticlistening_ta-ta.mp3	ta	ta	0	left
6.6.1	mac	2023-06-13	10:30:29	0	0	61592ea07347e286bca1955f	1	1	DL_test	14	DL_test	16			0		ta	1	985	6	5	antiphase_hc_osi.wav	2	6	3	noise_calib_stim_LEFT.wav	1	12	blb_dichoticlistening_da-ta.mp3	da	ta	1	right
6.6.1	mac	2023-06-13	10:30:29	0	0	61592ea07347e286bca1955f	1	1	DL_test	14	DL_test	17			0		ga	1	1052	6	5	antiphase_hc_osi.wav	2	6	3	noise_calib_stim_LEFT.wav	1	33	blb_dichoticlistening_ta-ga.mp3	ta	ga	1	right
6.6.1	mac	2023-06-13	10:30:29	0	0	61592ea07347e286bca1955f	1	1	DL_test	14	DL_test	18			0		ba	1	1002	6	5	antiphase_hc_osi.wav	2	6	3	noise_calib_stim_LEFT.wav	1	7	blb_dichoticlistening_da-ba.mp3	da	ba	1	right
6.6.1	mac	2023-06-13	10:30:29	0	0	61592ea07347e286bca1955f	1	1	DL_test	14	DL_test	19			0		ga	1	1052	6	5	antiphase_hc_osi.wav	2	6	3	noise_calib_stim_LEFT.wav	1	15	blb_dichoticlistening_ga-ga.mp3	ga	ga	0	left
6.6.1	mac	2023-06-13	10:30:29	0	0	61592ea07347e286bca1955f	1	1	DL_test	14	DL_test	20			0		ka	1	985	6	5	antiphase_hc_osi.wav	2	6	3	noise_calib_stim_LEFT.wav	1	22	blb_dichoticlistening_ka-ka.mp3	ka	ka	0	left
6.6.1	mac	2023-06-13	10:30:29	0	0	61592ea07347e286bca1955f	1	1	DL_test	14	DL_test	21			0		da	0	1401	6	5	antiphase_hc_osi.wav	2	6	3	noise_calib_stim_LEFT.wav	1	13	blb_dichoticlistening_ga-ba.mp3	ga	ba	1	other
6.6.1	mac	2023-06-13	10:30:29	0	0	61592ea07347e286bca1955f	1	1	DL_test	14	DL_test	22			0		ba	1	1752	6	5	antiphase_hc_osi.wav	2	6	3	noise_calib_stim_LEFT.wav	1	31	blb_dichoticlistening_ta-ba.mp3	ta	ba	1	right
6.6.1	mac	2023-06-13	10:30:29	0	0	61592ea07347e286bca1955f	1	1	DL_test	14	DL_test	23			0		da	1	1869	6	5	antiphase_hc_osi.wav	2	6	3	noise_calib_stim_LEFT.wav	1	32	blb_dichoticlistening_ta-da.mp3	ta	da	1	right
6.6.1	mac	2023-06-13	10:30:29	0	0	61592ea07347e286bca1955f	1	1	DL_test	14	DL_test	24			0		ka	1	1702	6	5	antiphase_hc_osi.wav	2	6	3	noise_calib_stim_LEFT.wav	1	4	blb_dichoticlistening_ba-ka.mp3	ba	ka	1	right
6.6.1	mac	2023-06-13	10:30:29	0	0	61592ea07347e286bca1955f	1	1	DL_test	14	DL_test	25			0		ba	0	2519	6	5	antiphase_hc_osi.wav	2	6	3	noise_calib_stim_LEFT.wav	1	16	blb_dichoticlistening_ga-ka.mp3	ga	ka	1	other
6.6.1	mac	2023-06-13	10:30:29	0	0	61592ea07347e286bca1955f	1	1	DL_test	14	DL_test	26			0		ba	1	2685	6	5	antiphase_hc_osi.wav	2	6	3	noise_calib_stim_LEFT.wav	1	25	blb_dichoticlistening_pa-ba.mp3	pa	ba	1	right
6.6.1	mac	2023-06-13	10:30:29	0	0	61592ea07347e286bca1955f	1	1	DL_test	14	DL_test	27			0		ta	1	1251	6	5	antiphase_hc_osi.wav	2	6	3	noise_calib_stim_LEFT.wav	1	6	blb_dichoticlistening_ba-ta.mp3	ba	ta	1	right
6.6.1	mac	2023-06-13	10:30:29	0	0	61592ea07347e286bca1955f	1	1	DL_test	14	DL_test	28			0		ga	1	885	6	5	antiphase_hc_osi.wav	2	6	3	noise_calib_stim_LEFT.wav	1	9	blb_dichoticlistening_da-ga.mp3	da	ga	1	right
6.6.1	mac	2023-06-13	10:30:29	0	0	61592ea07347e286bca1955f	1	1	DL_test	14	DL_test	29			0		da	1	1318	6	5	antiphase_hc_osi.wav	2	6	3	noise_calib_stim_LEFT.wav	1	14	blb_dichoticlistening_ga-da.mp3	ga	da	1	right
6.6.1	mac	2023-06-13	10:30:29	0	0	61592ea07347e286bca1955f	1	1	DL_test	14	DL_test	30			0		pa	1	952	6	5	antiphase_hc_osi.wav	2	6	3	noise_calib_stim_LEFT.wav	1	23	blb_dichoticlistening_ka-pa.mp3	ka	pa	1	right
6.6.1	mac	2023-06-13	10:30:29	0	0	61592ea07347e286bca1955f	1	1	DL_test	14	DL_test	31			0		ta	1	1319	6	5	antiphase_hc_osi.wav	2	6	3	noise_calib_stim_LEFT.wav	1	30	blb_dichoticlistening_pa-ta.mp3	pa	ta	1	right
6.6.1	mac	2023-06-13	10:30:29	0	0	61592ea07347e286bca1955f	1	1	DL_test	14	DL_test	32			0		ka	1	868	6	5	antiphase_hc_osi.wav	2	6	3	noise_calib_stim_LEFT.wav	1	28	blb_dichoticlistening_pa-ka.mp3	pa	ka	1	right
6.6.1	mac	2023-06-13	10:30:29	0	0	61592ea07347e286bca1955f	1	1	DL_test	14	DL_test	33			0		ta	1	1251	6	5	antiphase_hc_osi.wav	2	6	3	noise_calib_stim_LEFT.wav	1	24	blb_dichoticlistening_ka-ta.mp3	ka	ta	1	right
6.6.1	mac	2023-06-13	10:30:29	0	0	61592ea07347e286bca1955f	1	1	DL_test	14	DL_test	34			0		pa	1	969	6	5	antiphase_hc_osi.wav	2	6	3	noise_calib_stim_LEFT.wav	1	35	blb_dichoticlistening_ta-pa.mp3	ta	pa	1	right
6.6.1	mac	2023-06-13	10:30:29	0	0	61592ea07347e286bca1955f	1	1	DL_test	14	DL_test	35			0		ga	1	885	6	5	antiphase_hc_osi.wav	2	6	3	noise_calib_stim_LEFT.wav	1	3	blb_dichoticlistening_ba-ga.mp3	ba	ga	1	right
6.6.1	mac	2023-06-13	10:30:29	0	0	61592ea07347e286bca1955f	1	1	DL_test	14	DL_test	36			0		da	1	1301	6	5	antiphase_hc_osi.wav	2	6	3	noise_calib_stim_LEFT.wav	1	2	blb_dichoticlistening_ba-da.mp3	ba	da	1	right
6.6.1	mac	2023-06-13	10:30:29	0	0	61592ea07347e286bca1955f	1	1	DL_test	15	DL_test	1			0		ka	0	1200	6	5	antiphase_hc_osi.wav	2	6	3	noise_calib_stim_LEFT.wav	1	33	blb_dichoticlistening_ta-ga.mp3	ta	ga	1	other
6.6.1	mac	2023-06-13	10:30:29	0	0	61592ea07347e286bca1955f	1	1	DL_test	15	DL_test	2			0		pa	1	1267	6	5	antiphase_hc_osi.wav	2	6	3	noise_calib_stim_LEFT.wav	1	11	blb_dichoticlistening_da-pa.mp3	da	pa	1	right
6.6.1	mac	2023-06-13	10:30:29	0	0	61592ea07347e286bca1955f	1	1	DL_test	15	DL_test	3			0		ka	1	1301	6	5	antiphase_hc_osi.wav	2	6	3	noise_calib_stim_LEFT.wav	1	23	blb_dichoticlistening_ka-pa.mp3	ka	pa	1	left
6.6.1	mac	2023-06-13	10:30:29	0	0	61592ea07347e286bca1955f	1	1	DL_test	15	DL_test	4			0		ga	1	1001	6	5	antiphase_hc_osi.wav	2	6	3	noise_calib_stim_LEFT.wav	1	15	blb_dichoticlistening_ga-ga.mp3	ga	ga	0	left
6.6.1	mac	2023-06-13	10:30:29	0	0	61592ea07347e286bca1955f	1	1	DL_test	15	DL_test	5			0		ga	1	1150	6	5	antiphase_hc_osi.wav	2	6	3	noise_calib_stim_LEFT.wav	1	14	blb_dichoticlistening_ga-da.mp3	ga	da	1	left
6.6.1	mac	2023-06-13	10:30:29	0	0	61592ea07347e286bca1955f	1	1	DL_test	15	DL_test	6			0		ka	1	1050	6	5	antiphase_hc_osi.wav	2	6	3	noise_calib_stim_LEFT.wav	1	21	blb_dichoticlistening_ka-ga.mp3	ka	ga	1	left
6.6.1	mac	2023-06-13	10:30:29	0	0	61592ea07347e286bca1955f	1	1	DL_test	15	DL_test	7			0		ka	1	767	6	5	antiphase_hc_osi.wav	2	6	3	noise_calib_stim_LEFT.wav	1	34	blb_dichoticlistening_ta-ka.mp3	ta	ka	1	right
6.6.1	mac	2023-06-13	10:30:29	0	0	61592ea07347e286bca1955f	1	1	DL_test	15	DL_test	8			0		ga	1	2199	6	5	antiphase_hc_osi.wav	2	6	3	noise_calib_stim_LEFT.wav	1	27	blb_dichoticlistening_pa-ga.mp3	pa	ga	1	right
6.6.1	mac	2023-06-13	10:30:29	0	0	61592ea07347e286bca1955f	1	1	DL_test	15	DL_test	9			0		ga	0	2583	6	5	antiphase_hc_osi.wav	2	6	3	noise_calib_stim_LEFT.wav	1	26	blb_dichoticlistening_pa-da.mp3	pa	da	1	other
6.6.1	mac	2023-06-13	10:30:29	0	0	61592ea07347e286bca1955f	1	1	DL_test	15	DL_test	10			0		ta	1	1100	6	5	antiphase_hc_osi.wav	2	6	3	noise_calib_stim_LEFT.wav	1	36	blb_dichoticlistening_ta-ta.mp3	ta	ta	0	left
6.6.1	mac	2023-06-13	10:30:29	0	0	61592ea07347e286bca1955f	1	1	DL_test	15	DL_test	11			0		pa	1	1516	6	5	antiphase_hc_osi.wav	2	6	3	noise_calib_stim_LEFT.wav	1	35	blb_dichoticlistening_ta-pa.mp3	ta	pa	1	right
6.6.1	mac	2023-06-13	10:30:29	0	0	61592ea07347e286bca1955f	1	1	DL_test	15	DL_test	12			0		ta	1	2699	6	5	antiphase_hc_osi.wav	2	6	3	noise_calib_stim_LEFT.wav	1	30	blb_dichoticlistening_pa-ta.mp3	pa	ta	1	right
6.6.1	mac	2023-06-13	10:30:29	0	0	61592ea07347e286bca1955f	1	1	DL_test	15	DL_test	13			0		pa	0	1816	6	5	antiphase_hc_osi.wav	2	6	3	noise_calib_stim_LEFT.wav	1	10	blb_dichoticlistening_da-ka.mp3	da	ka	1	other
6.6.1	mac	2023-06-13	10:30:29	0	0	61592ea07347e286bca1955f	1	1	DL_test	15	DL_test	14			0		ka	1	1300	6	5	antiphase_hc_osi.wav	2	6	3	noise_calib_stim_LEFT.wav	1	24	blb_dichoticlistening_ka-ta.mp3	ka	ta	1	left
6.6.1	mac	2023-06-13	10:30:29	0	0	61592ea07347e286bca1955f	1	1	DL_test	15	DL_test	15			0		pa	1	933	6	5	antiphase_hc_osi.wav	2	6	3	noise_calib_stim_LEFT.wav	1	29	blb_dichoticlistening_pa-pa.mp3	pa	pa	0	left
6.6.1	mac	2023-06-13	10:30:29	0	0	61592ea07347e286bca1955f	1	1	DL_test	15	DL_test	16			0		ba	1	1682	6	5	antiphase_hc_osi.wav	2	6	3	noise_calib_stim_LEFT.wav	1	25	blb_dichoticlistening_pa-ba.mp3	pa	ba	1	right
6.6.1	mac	2023-06-13	10:30:29	0	0	61592ea07347e286bca1955f	1	1	DL_test	15	DL_test	17			0		da	1	1131	6	5	antiphase_hc_osi.wav	2	6	3	noise_calib_stim_LEFT.wav	1	8	blb_dichoticlistening_da-da.mp3	da	da	0	left
6.6.1	mac	2023-06-13	10:30:29	0	0	61592ea07347e286bca1955f	1	1	DL_test	15	DL_test	18			0		ta	1	1516	6	5	antiphase_hc_osi.wav	2	6	3	noise_calib_stim_LEFT.wav	1	6	blb_dichoticlistening_ba-ta.mp3	ba	ta	1	right
6.6.1	mac	2023-06-13	10:30:29	0	0	61592ea07347e286bca1955f	1	1	DL_test	15	DL_test	19			0		ta	1	1282	6	5	antiphase_hc_osi.wav	2	6	3	noise_calib_stim_LEFT.wav	1	12	blb_dichoticlistening_da-ta.mp3	da	ta	1	right
6.6.1	mac	2023-06-13	10:30:29	0	0	61592ea07347e286bca1955f	1	1	DL_test	15	DL_test	20			0		ka	1	2382	6	5	antiphase_hc_osi.wav	2	6	3	noise_calib_stim_LEFT.wav	1	20	blb_dichoticlistening_ka-da.mp3	ka	da	1	left
6.6.1	mac	2023-06-13	10:30:29	0	0	61592ea07347e286bca1955f	1	1	DL_test	15	DL_test	21			0		pa	1	1165	6	5	antiphase_hc_osi.wav	2	6	3	noise_calib_stim_LEFT.wav	1	5	blb_dichoticlistening_ba-pa.mp3	ba	pa	1	right
6.6.1	mac	2023-06-13	10:30:29	0	0	61592ea07347e286bca1955f	1	1	DL_test	15	DL_test	22			0		ka	1	1115	6	5	antiphase_hc_osi.wav	2	6	3	noise_calib_stim_LEFT.wav	1	4	blb_dichoticlistening_ba-ka.mp3	ba	ka	1	right
6.6.1	mac	2023-06-13	10:30:29	0	0	61592ea07347e286bca1955f	1	1	DL_test	15	DL_test	23			0		ga	1	1099	6	5	antiphase_hc_osi.wav	2	6	3	noise_calib_stim_LEFT.wav	1	3	blb_dichoticlistening_ba-ga.mp3	ba	ga	1	right
6.6.1	mac	2023-06-13	10:30:29	0	0	61592ea07347e286bca1955f	1	1	DL_test	15	DL_test	24			0		ta	1	1298	6	5	antiphase_hc_osi.wav	2	6	3	noise_calib_stim_LEFT.wav	1	32	blb_dichoticlistening_ta-da.mp3	ta	da	1	left
6.6.1	mac	2023-06-13	10:30:29	0	0	61592ea07347e286bca1955f	1	1	DL_test	15	DL_test	25			0		da	1	1633	6	5	antiphase_hc_osi.wav	2	6	3	noise_calib_stim_LEFT.wav	1	2	blb_dichoticlistening_ba-da.mp3	ba	da	1	right
6.6.1	mac	2023-06-13	10:30:29	0	0	61592ea07347e286bca1955f	1	1	DL_test	15	DL_test	26			0		ba	1	1298	6	5	antiphase_hc_osi.wav	2	6	3	noise_calib_stim_LEFT.wav	1	13	blb_dichoticlistening_ga-ba.mp3	ga	ba	1	right
6.6.1	mac	2023-06-13	10:30:29	0	0	61592ea07347e286bca1955f	1	1	DL_test	15	DL_test	27			0		pa	1	1232	6	5	antiphase_hc_osi.wav	2	6	3	noise_calib_stim_LEFT.wav	1	17	blb_dichoticlistening_ga-pa.mp3	ga	pa	1	right
6.6.1	mac	2023-06-13	10:30:29	0	0	61592ea07347e286bca1955f	1	1	DL_test	15	DL_test	28			0		ka	1	1098	6	5	antiphase_hc_osi.wav	2	6	3	noise_calib_stim_LEFT.wav	1	22	blb_dichoticlistening_ka-ka.mp3	ka	ka	0	left
6.6.1	mac	2023-06-13	10:30:29	0	0	61592ea07347e286bca1955f	1	1	DL_test	15	DL_test	29			0		ka	1	1082	6	5	antiphase_hc_osi.wav	2	6	3	noise_calib_stim_LEFT.wav	1	28	blb_dichoticlistening_pa-ka.mp3	pa	ka	1	right
6.6.1	mac	2023-06-13	10:30:29	0	0	61592ea07347e286bca1955f	1	1	DL_test	15	DL_test	30			0		ka	1	899	6	5	antiphase_hc_osi.wav	2	6	3	noise_calib_stim_LEFT.wav	1	16	blb_dichoticlistening_ga-ka.mp3	ga	ka	1	right
6.6.1	mac	2023-06-13	10:30:29	0	0	61592ea07347e286bca1955f	1	1	DL_test	15	DL_test	31			0		da	1	1981	6	5	antiphase_hc_osi.wav	2	6	3	noise_calib_stim_LEFT.wav	1	7	blb_dichoticlistening_da-ba.mp3	da	ba	1	left
6.6.1	mac	2023-06-13	10:30:29	0	0	61592ea07347e286bca1955f	1	1	DL_test	15	DL_test	32			0		ba	1	1031	6	5	antiphase_hc_osi.wav	2	6	3	noise_calib_stim_LEFT.wav	1	1	blb_dichoticlistening_ba-ba.mp3	ba	ba	0	left
6.6.1	mac	2023-06-13	10:30:29	0	0	61592ea07347e286bca1955f	1	1	DL_test	15	DL_test	33			0		ta	1	1899	6	5	antiphase_hc_osi.wav	2	6	3	noise_calib_stim_LEFT.wav	1	31	blb_dichoticlistening_ta-ba.mp3	ta	ba	1	left
6.6.1	mac	2023-06-13	10:30:29	0	0	61592ea07347e286bca1955f	1	1	DL_test	15	DL_test	34			0		ka	0	1731	6	5	antiphase_hc_osi.wav	2	6	3	noise_calib_stim_LEFT.wav	1	18	blb_dichoticlistening_ga-ta.mp3	ga	ta	1	other
6.6.1	mac	2023-06-13	10:30:29	0	0	61592ea07347e286bca1955f	1	1	DL_test	15	DL_test	35			0		ka	1	1131	6	5	antiphase_hc_osi.wav	2	6	3	noise_calib_stim_LEFT.wav	1	19	blb_dichoticlistening_ka-ba.mp3	ka	ba	1	left
6.6.1	mac	2023-06-13	10:30:29	0	0	61592ea07347e286bca1955f	1	1	DL_test	15	DL_test	36			0		da	1	1498	6	5	antiphase_hc_osi.wav	2	6	3	noise_calib_stim_LEFT.wav	1	9	blb_dichoticlistening_da-ga.mp3	da	ga	1	left
6.6.1	mac	2023-06-13	10:30:29	0	0	61592ea07347e286bca1955f	1	1	DL_test	16	DL_test	1			0		ga	1	1066	6	5	antiphase_hc_osi.wav	2	6	3	noise_calib_stim_LEFT.wav	1	15	blb_dichoticlistening_ga-ga.mp3	ga	ga	0	left
6.6.1	mac	2023-06-13	10:30:29	0	0	61592ea07347e286bca1955f	1	1	DL_test	16	DL_test	2			0		pa	1	1130	6	5	antiphase_hc_osi.wav	2	6	3	noise_calib_stim_LEFT.wav	1	29	blb_dichoticlistening_pa-pa.mp3	pa	pa	0	left
6.6.1	mac	2023-06-13	10:30:29	0	0	61592ea07347e286bca1955f	1	1	DL_test	16	DL_test	3			0		ka	1	1097	6	5	antiphase_hc_osi.wav	2	6	3	noise_calib_stim_LEFT.wav	1	28	blb_dichoticlistening_pa-ka.mp3	pa	ka	1	right
6.6.1	mac	2023-06-13	10:30:29	0	0	61592ea07347e286bca1955f	1	1	DL_test	16	DL_test	4			0		ba	1	2347	6	5	antiphase_hc_osi.wav	2	6	3	noise_calib_stim_LEFT.wav	1	13	blb_dichoticlistening_ga-ba.mp3	ga	ba	1	right
6.6.1	mac	2023-06-13	10:30:29	0	0	61592ea07347e286bca1955f	1	1	DL_test	16	DL_test	5			0		ka	1	1314	6	5	antiphase_hc_osi.wav	2	6	3	noise_calib_stim_LEFT.wav	1	22	blb_dichoticlistening_ka-ka.mp3	ka	ka	0	left
6.6.1	mac	2023-06-13	10:30:29	0	0	61592ea07347e286bca1955f	1	1	DL_test	16	DL_test	6			0		ba	1	1230	6	5	antiphase_hc_osi.wav	2	6	3	noise_calib_stim_LEFT.wav	1	1	blb_dichoticlistening_ba-ba.mp3	ba	ba	0	left
6.6.1	mac	2023-06-13	10:30:29	0	0	61592ea07347e286bca1955f	1	1	DL_test	16	DL_test	7			0		ta	1	1396	6	5	antiphase_hc_osi.wav	2	6	3	noise_calib_stim_LEFT.wav	1	12	blb_dichoticlistening_da-ta.mp3	da	ta	1	right
6.6.1	mac	2023-06-13	10:30:29	0	0	61592ea07347e286bca1955f	1	1	DL_test	16	DL_test	8			0		ba	1	3213	6	5	antiphase_hc_osi.wav	2	6	3	noise_calib_stim_LEFT.wav	1	31	blb_dichoticlistening_ta-ba.mp3	ta	ba	1	right
6.6.1	mac	2023-06-13	10:30:29	0	0	61592ea07347e286bca1955f	1	1	DL_test	16	DL_test	9			0		ka	1	1380	6	5	antiphase_hc_osi.wav	2	6	3	noise_calib_stim_LEFT.wav	1	23	blb_dichoticlistening_ka-pa.mp3	ka	pa	1	left
6.6.1	mac	2023-06-13	10:30:29	0	0	61592ea07347e286bca1955f	1	1	DL_test	16	DL_test	10			0		pa	1	1447	6	5	antiphase_hc_osi.wav	2	6	3	noise_calib_stim_LEFT.wav	1	17	blb_dichoticlistening_ga-pa.mp3	ga	pa	1	right
6.6.1	mac	2023-06-13	10:30:29	0	0	61592ea07347e286bca1955f	1	1	DL_test	16	DL_test	11			0		ga	1	1596	6	5	antiphase_hc_osi.wav	2	6	3	noise_calib_stim_LEFT.wav	1	14	blb_dichoticlistening_ga-da.mp3	ga	da	1	left
6.6.1	mac	2023-06-13	10:30:29	0	0	61592ea07347e286bca1955f	1	1	DL_test	16	DL_test	12			0		ka	1	1080	6	5	antiphase_hc_osi.wav	2	6	3	noise_calib_stim_LEFT.wav	1	24	blb_dichoticlistening_ka-ta.mp3	ka	ta	1	left
6.6.1	mac	2023-06-13	10:30:29	0	0	61592ea07347e286bca1955f	1	1	DL_test	16	DL_test	13			0		ga	1	1163	6	5	antiphase_hc_osi.wav	2	6	3	noise_calib_stim_LEFT.wav	1	27	blb_dichoticlistening_pa-ga.mp3	pa	ga	1	right
6.6.1	mac	2023-06-13	10:30:29	0	0	61592ea07347e286bca1955f	1	1	DL_test	16	DL_test	14			0		da	1	1529	6	5	antiphase_hc_osi.wav	2	6	3	noise_calib_stim_LEFT.wav	1	8	blb_dichoticlistening_da-da.mp3	da	da	0	left
6.6.1	mac	2023-06-13	10:30:29	0	0	61592ea07347e286bca1955f	1	1	DL_test	16	DL_test	15			0		da	1	1246	6	5	antiphase_hc_osi.wav	2	6	3	noise_calib_stim_LEFT.wav	1	26	blb_dichoticlistening_pa-da.mp3	pa	da	1	right
6.6.1	mac	2023-06-13	10:30:29	0	0	61592ea07347e286bca1955f	1	1	DL_test	16	DL_test	16			0		ga	1	1197	6	5	antiphase_hc_osi.wav	2	6	3	noise_calib_stim_LEFT.wav	1	3	blb_dichoticlistening_ba-ga.mp3	ba	ga	1	right
6.6.1	mac	2023-06-13	10:30:29	0	0	61592ea07347e286bca1955f	1	1	DL_test	16	DL_test	17			0		ka	1	1380	6	5	antiphase_hc_osi.wav	2	6	3	noise_calib_stim_LEFT.wav	1	4	blb_dichoticlistening_ba-ka.mp3	ba	ka	1	right
6.6.1	mac	2023-06-13	10:30:29	0	0	61592ea07347e286bca1955f	1	1	DL_test	16	DL_test	18			0		ka	1	1129	6	5	antiphase_hc_osi.wav	2	6	3	noise_calib_stim_LEFT.wav	1	34	blb_dichoticlistening_ta-ka.mp3	ta	ka	1	right
6.6.1	mac	2023-06-13	10:30:29	0	0	61592ea07347e286bca1955f	1	1	DL_test	16	DL_test	19			0		pa	0	1262	6	5	antiphase_hc_osi.wav	2	6	3	noise_calib_stim_LEFT.wav	1	10	blb_dichoticlistening_da-ka.mp3	da	ka	1	other
6.6.1	mac	2023-06-13	10:30:29	0	0	61592ea07347e286bca1955f	1	1	DL_test	16	DL_test	20			0		ga	1	1329	6	5	antiphase_hc_osi.wav	2	6	3	noise_calib_stim_LEFT.wav	1	33	blb_dichoticlistening_ta-ga.mp3	ta	ga	1	right
6.6.1	mac	2023-06-13	10:30:29	0	0	61592ea07347e286bca1955f	1	1	DL_test	16	DL_test	21			0		da	1	1362	6	5	antiphase_hc_osi.wav	2	6	3	noise_calib_stim_LEFT.wav	1	9	blb_dichoticlistening_da-ga.mp3	da	ga	1	left
6.6.1	mac	2023-06-13	10:30:29	0	0	61592ea07347e286bca1955f	1	1	DL_test	16	DL_test	22			0		ta	1	1813	6	5	antiphase_hc_osi.wav	2	6	3	noise_calib_stim_LEFT.wav	1	18	blb_dichoticlistening_ga-ta.mp3	ga	ta	1	right
6.6.1	mac	2023-06-13	10:30:29	0	0	61592ea07347e286bca1955f	1	1	DL_test	16	DL_test	23			0		ta	1	1146	6	5	antiphase_hc_osi.wav	2	6	3	noise_calib_stim_LEFT.wav	1	30	blb_dichoticlistening_pa-ta.mp3	pa	ta	1	right
6.6.1	mac	2023-06-13	10:30:29	0	0	61592ea07347e286bca1955f	1	1	DL_test	16	DL_test	24			0		pa	1	1196	6	5	antiphase_hc_osi.wav	2	6	3	noise_calib_stim_LEFT.wav	1	11	blb_dichoticlistening_da-pa.mp3	da	pa	1	right
6.6.1	mac	2023-06-13	10:30:29	0	0	61592ea07347e286bca1955f	1	1	DL_test	16	DL_test	25			0		da	1	1279	6	5	antiphase_hc_osi.wav	2	6	3	noise_calib_stim_LEFT.wav	1	32	blb_dichoticlistening_ta-da.mp3	ta	da	1	right
6.6.1	mac	2023-06-13	10:30:29	0	0	61592ea07347e286bca1955f	1	1	DL_test	16	DL_test	26			0		da	1	1246	6	5	antiphase_hc_osi.wav	2	6	3	noise_calib_stim_LEFT.wav	1	2	blb_dichoticlistening_ba-da.mp3	ba	da	1	right
6.6.1	mac	2023-06-13	10:30:29	0	0	61592ea07347e286bca1955f	1	1	DL_test	16	DL_test	27			0		ka	1	1079	6	5	antiphase_hc_osi.wav	2	6	3	noise_calib_stim_LEFT.wav	1	20	blb_dichoticlistening_ka-da.mp3	ka	da	1	left
6.6.1	mac	2023-06-13	10:30:29	0	0	61592ea07347e286bca1955f	1	1	DL_test	16	DL_test	28			0		ta	1	1145	6	5	antiphase_hc_osi.wav	2	6	3	noise_calib_stim_LEFT.wav	1	36	blb_dichoticlistening_ta-ta.mp3	ta	ta	0	left
6.6.1	mac	2023-06-13	10:30:29	0	0	61592ea07347e286bca1955f	1	1	DL_test	16	DL_test	29			0		ba	1	1529	6	5	antiphase_hc_osi.wav	2	6	3	noise_calib_stim_LEFT.wav	1	7	blb_dichoticlistening_da-ba.mp3	da	ba	1	right
6.6.1	mac	2023-06-13	10:30:29	0	0	61592ea07347e286bca1955f	1	1	DL_test	16	DL_test	30			0		ka	1	1011	6	5	antiphase_hc_osi.wav	2	6	3	noise_calib_stim_LEFT.wav	1	16	blb_dichoticlistening_ga-ka.mp3	ga	ka	1	right
6.6.1	mac	2023-06-13	10:30:29	0	0	61592ea07347e286bca1955f	1	1	DL_test	16	DL_test	31			0		pa	1	995	6	5	antiphase_hc_osi.wav	2	6	3	noise_calib_stim_LEFT.wav	1	5	blb_dichoticlistening_ba-pa.mp3	ba	pa	1	right
6.6.1	mac	2023-06-13	10:30:29	0	0	61592ea07347e286bca1955f	1	1	DL_test	16	DL_test	32			0		pa	1	929	6	5	antiphase_hc_osi.wav	2	6	3	noise_calib_stim_LEFT.wav	1	25	blb_dichoticlistening_pa-ba.mp3	pa	ba	1	left
6.6.1	mac	2023-06-13	10:30:29	0	0	61592ea07347e286bca1955f	1	1	DL_test	16	DL_test	33			0		ba	1	1812	6	5	antiphase_hc_osi.wav	2	6	3	noise_calib_stim_LEFT.wav	1	19	blb_dichoticlistening_ka-ba.mp3	ka	ba	1	right
6.6.1	mac	2023-06-13	10:30:29	0	0	61592ea07347e286bca1955f	1	1	DL_test	16	DL_test	34			0		pa	1	1395	6	5	antiphase_hc_osi.wav	2	6	3	noise_calib_stim_LEFT.wav	1	35	blb_dichoticlistening_ta-pa.mp3	ta	pa	1	right
6.6.1	mac	2023-06-13	10:30:29	0	0	61592ea07347e286bca1955f	1	1	DL_test	16	DL_test	35			0		ga	1	1912	6	5	antiphase_hc_osi.wav	2	6	3	noise_calib_stim_LEFT.wav	1	21	blb_dichoticlistening_ka-ga.mp3	ka	ga	1	right
6.6.1	mac	2023-06-13	10:30:29	0	0	61592ea07347e286bca1955f	1	1	DL_test	16	DL_test	36			0		ta	1	1195	6	5	antiphase_hc_osi.wav	2	6	3	noise_calib_stim_LEFT.wav	1	6	blb_dichoticlistening_ba-ta.mp3	ba	ta	1	right
6.6.1	mac	2023-06-13	10:30:29	10:42:16	703793	61592ea07347e286bca1955f	1	1	practice_slash	22	practice_slash	1	stimuli_distractor_diamondtriangles.svg	stimuli_target_rectangletriangles.svg	7	yes	53	1	1816	6	5	antiphase_hc_osi.wav	2	6	3	noise_calib_stim_LEFT.wav	1	6	blb_dichoticlistening_ba-ta.mp3	ba	ta	1	right
6.6.1	mac	2023-06-13	10:30:29	10:42:16	703793	61592ea07347e286bca1955f	1	1	practice_slash	22	advance_on_keypress_SLASH	2	stimuli_distractor_diamondtriangles.svg	stimuli_target_rectangletriangles.svg	7	yes	57	0	2198	6	5	antiphase_hc_osi.wav	2	6	3	noise_calib_stim_LEFT.wav	1	6	blb_dichoticlistening_ba-ta.mp3	ba	ta	1	right
6.6.1	mac	2023-06-13	10:30:29	10:42:21	708718	61592ea07347e286bca1955f	1	1	practice_slash	22	practice_slash	3	stimuli_distractor_trianglediamonds.svg	stimuli_target_diamondrectangles.svg	12	yes	53	1	1093	6	5	antiphase_hc_osi.wav	2	6	3	noise_calib_stim_LEFT.wav	1	6	blb_dichoticlistening_ba-ta.mp3	ba	ta	1	right
6.6.1	mac	2023-06-13	10:30:29	10:42:21	708718	61592ea07347e286bca1955f	1	1	practice_slash	22	advance_on_keypress_SLASH	4	stimuli_distractor_trianglediamonds.svg	stimuli_target_diamondrectangles.svg	12	yes	57	0	393	6	5	antiphase_hc_osi.wav	2	6	3	noise_calib_stim_LEFT.wav	1	6	blb_dichoticlistening_ba-ta.mp3	ba	ta	1	right
6.6.1	mac	2023-06-13	10:30:29	10:42:25	712757	61592ea07347e286bca1955f	1	1	practice_slash	22	practice_slash	5	stimuli_distractor_diamondtriangles.svg	stimuli_distractor_trianglediamonds.svg	14	no	0	1	2000	6	5	antiphase_hc_osi.wav	2	6	3	noise_calib_stim_LEFT.wav	1	6	blb_dichoticlistening_ba-ta.mp3	ba	ta	1	right
6.6.1	mac	2023-06-13	10:30:29	10:42:25	712757	61592ea07347e286bca1955f	1	1	practice_slash	22	advance_on_keypress_SLASH	6	stimuli_distractor_diamondtriangles.svg	stimuli_distractor_trianglediamonds.svg	14	no	57	0	454	6	5	antiphase_hc_osi.wav	2	6	3	noise_calib_stim_LEFT.wav	1	6	blb_dichoticlistening_ba-ta.mp3	ba	ta	1	right
6.6.1	mac	2023-06-13	10:30:29	10:42:28	715983	61592ea07347e286bca1955f	1	1	practice_slash	22	practice_slash	7	stimuli_distractor_trianglediamonds.svg	stimuli_target_squarediamonds.svg	11	yes	53	1	1128	6	5	antiphase_hc_osi.wav	2	6	3	noise_calib_stim_LEFT.wav	1	6	blb_dichoticlistening_ba-ta.mp3	ba	ta	1	right
6.6.1	mac	2023-06-13	10:30:29	10:42:28	715983	61592ea07347e286bca1955f	1	1	practice_slash	22	advance_on_keypress_SLASH	8	stimuli_distractor_trianglediamonds.svg	stimuli_target_squarediamonds.svg	11	yes	57	0	416	6	5	antiphase_hc_osi.wav	2	6	3	noise_calib_stim_LEFT.wav	1	6	blb_dichoticlistening_ba-ta.mp3	ba	ta	1	right
6.6.1	mac	2023-06-13	10:30:29	10:42:31	719088	61592ea07347e286bca1955f	1	1	practice_slash	22	practice_slash	9	stimuli_target_squarediamonds.svg	stimuli_distractor_trianglediamonds.svg	5	yes	53	1	1046	6	5	antiphase_hc_osi.wav	2	6	3	noise_calib_stim_LEFT.wav	1	6	blb_dichoticlistening_ba-ta.mp3	ba	ta	1	right
6.6.1	mac	2023-06-13	10:30:29	10:42:31	719088	61592ea07347e286bca1955f	1	1	practice_slash	22	advance_on_keypress_SLASH	10	stimuli_target_squarediamonds.svg	stimuli_distractor_trianglediamonds.svg	5	yes	57	0	442	6	5	antiphase_hc_osi.wav	2	6	3	noise_calib_stim_LEFT.wav	1	6	blb_dichoticlistening_ba-ta.mp3	ba	ta	1	right
6.6.1	mac	2023-06-13	10:30:29	10:42:35	722666	61592ea07347e286bca1955f	1	1	practice_slash	22	practice_slash	11	stimuli_target_rectanglediamonds.svg	stimuli_distractor_trianglediamonds.svg	4	yes	53	1	1492	6	5	antiphase_hc_osi.wav	2	6	3	noise_calib_stim_LEFT.wav	1	6	blb_dichoticlistening_ba-ta.mp3	ba	ta	1	right
6.6.1	mac	2023-06-13	10:30:29	10:42:35	722666	61592ea07347e286bca1955f	1	1	practice_slash	22	advance_on_keypress_SLASH	12	stimuli_target_rectanglediamonds.svg	stimuli_distractor_trianglediamonds.svg	4	yes	57	0	435	6	5	antiphase_hc_osi.wav	2	6	3	noise_calib_stim_LEFT.wav	1	6	blb_dichoticlistening_ba-ta.mp3	ba	ta	1	right
6.6.1	mac	2023-06-13	10:30:29	10:42:38	725972	61592ea07347e286bca1955f	1	1	practice_slash	22	practice_slash	13	stimuli_target_diamondsquares.svg	stimuli_distractor_trianglediamonds.svg	6	yes	53	1	1234	6	5	antiphase_hc_osi.wav	2	6	3	noise_calib_stim_LEFT.wav	1	6	blb_dichoticlistening_ba-ta.mp3	ba	ta	1	right
6.6.1	mac	2023-06-13	10:30:29	10:42:38	725972	61592ea07347e286bca1955f	1	1	practice_slash	22	advance_on_keypress_SLASH	14	stimuli_target_diamondsquares.svg	stimuli_distractor_trianglediamonds.svg	6	yes	57	0	488	6	5	antiphase_hc_osi.wav	2	6	3	noise_calib_stim_LEFT.wav	1	6	blb_dichoticlistening_ba-ta.mp3	ba	ta	1	right
6.6.1	mac	2023-06-13	10:30:29	10:42:41	729032	61592ea07347e286bca1955f	1	1	practice_slash	22	practice_slash	15	stimuli_distractor_trianglediamonds.svg	stimuli_target_rectanglediamonds.svg	10	yes	53	1	939	6	5	antiphase_hc_osi.wav	2	6	3	noise_calib_stim_LEFT.wav	1	6	blb_dichoticlistening_ba-ta.mp3	ba	ta	1	right
6.6.1	mac	2023-06-13	10:30:29	10:42:41	729032	61592ea07347e286bca1955f	1	1	practice_slash	22	advance_on_keypress_SLASH	16	stimuli_distractor_trianglediamonds.svg	stimuli_target_rectanglediamonds.svg	10	yes	57	0	371	6	5	antiphase_hc_osi.wav	2	6	3	noise_calib_stim_LEFT.wav	1	6	blb_dichoticlistening_ba-ta.mp3	ba	ta	1	right
6.6.1	mac	2023-06-13	10:30:29	10:42:44	732071	61592ea07347e286bca1955f	1	1	practice_slash	22	practice_slash	17	stimuli_distractor_diamondtriangles.svg	stimuli_target_trianglerectangles.svg	9	yes	53	1	1031	6	5	antiphase_hc_osi.wav	2	6	3	noise_calib_stim_LEFT.wav	1	6	blb_dichoticlistening_ba-ta.mp3	ba	ta	1	right
6.6.1	mac	2023-06-13	10:30:29	10:42:44	732071	61592ea07347e286bca1955f	1	1	practice_slash	22	advance_on_keypress_SLASH	18	stimuli_distractor_diamondtriangles.svg	stimuli_target_trianglerectangles.svg	9	yes	57	0	425	6	5	antiphase_hc_osi.wav	2	6	3	noise_calib_stim_LEFT.wav	1	6	blb_dichoticlistening_ba-ta.mp3	ba	ta	1	right
6.6.1	mac	2023-06-13	10:30:29	10:42:47	735242	61592ea07347e286bca1955f	1	1	practice_slash	22	practice_slash	19	stimuli_target_diamondsquares.svg	stimuli_distractor_diamondtriangles.svg	3	yes	53	1	1104	6	5	antiphase_hc_osi.wav	2	6	3	noise_calib_stim_LEFT.wav	1	6	blb_dichoticlistening_ba-ta.mp3	ba	ta	1	right
6.6.1	mac	2023-06-13	10:30:29	10:42:47	735242	61592ea07347e286bca1955f	1	1	practice_slash	22	advance_on_keypress_SLASH	20	stimuli_target_diamondsquares.svg	stimuli_distractor_diamondtriangles.svg	3	yes	57	0	492	6	5	antiphase_hc_osi.wav	2	6	3	noise_calib_stim_LEFT.wav	1	6	blb_dichoticlistening_ba-ta.mp3	ba	ta	1	right
6.6.1	mac	2023-06-13	10:30:29	10:42:50	738259	61592ea07347e286bca1955f	1	1	practice_slash	22	practice_slash	21	stimuli_target_squarediamonds.svg	stimuli_distractor_diamondtriangles.svg	2	yes	53	1	903	6	5	antiphase_hc_osi.wav	2	6	3	noise_calib_stim_LEFT.wav	1	6	blb_dichoticlistening_ba-ta.mp3	ba	ta	1	right
6.6.1	mac	2023-06-13	10:30:29	10:42:50	738259	61592ea07347e286bca1955f	1	1	practice_slash	22	advance_on_keypress_SLASH	22	stimuli_target_squarediamonds.svg	stimuli_distractor_diamondtriangles.svg	2	yes	57	0	288	6	5	antiphase_hc_osi.wav	2	6	3	noise_calib_stim_LEFT.wav	1	6	blb_dichoticlistening_ba-ta.mp3	ba	ta	1	right
6.6.1	mac	2023-06-13	10:30:29	10:42:54	742174	61592ea07347e286bca1955f	1	1	practice_slash	22	practice_slash	23	stimuli_distractor_trianglediamonds.svg	stimuli_distractor_trianglediamonds.svg	15	no	0	1	2000	6	5	antiphase_hc_osi.wav	2	6	3	noise_calib_stim_LEFT.wav	1	6	blb_dichoticlistening_ba-ta.mp3	ba	ta	1	right
6.6.1	mac	2023-06-13	10:30:29	10:42:54	742174	61592ea07347e286bca1955f	1	1	practice_slash	22	advance_on_keypress_SLASH	24	stimuli_distractor_trianglediamonds.svg	stimuli_distractor_trianglediamonds.svg	15	no	57	0	491	6	5	antiphase_hc_osi.wav	2	6	3	noise_calib_stim_LEFT.wav	1	6	blb_dichoticlistening_ba-ta.mp3	ba	ta	1	right
6.6.1	mac	2023-06-13	10:30:29	10:42:58	746296	61592ea07347e286bca1955f	1	1	practice_slash	22	practice_slash	25	stimuli_distractor_diamondtriangles.svg	stimuli_distractor_diamondtriangles.svg	13	no	0	1	2000	6	5	antiphase_hc_osi.wav	2	6	3	noise_calib_stim_LEFT.wav	1	6	blb_dichoticlistening_ba-ta.mp3	ba	ta	1	right
6.6.1	mac	2023-06-13	10:30:29	10:42:58	746296	61592ea07347e286bca1955f	1	1	practice_slash	22	advance_on_keypress_SLASH	26	stimuli_distractor_diamondtriangles.svg	stimuli_distractor_diamondtriangles.svg	13	no	57	0	293	6	5	antiphase_hc_osi.wav	2	6	3	noise_calib_stim_LEFT.wav	1	6	blb_dichoticlistening_ba-ta.mp3	ba	ta	1	right
6.6.1	mac	2023-06-13	10:30:29	10:43:01	749215	61592ea07347e286bca1955f	1	1	practice_slash	22	practice_slash	27	stimuli_distractor_diamondtriangles.svg	stimuli_target_diamondrectangles.svg	8	yes	53	1	974	6	5	antiphase_hc_osi.wav	2	6	3	noise_calib_stim_LEFT.wav	1	6	blb_dichoticlistening_ba-ta.mp3	ba	ta	1	right
6.6.1	mac	2023-06-13	10:30:29	10:43:01	749215	61592ea07347e286bca1955f	1	1	practice_slash	22	advance_on_keypress_SLASH	28	stimuli_distractor_diamondtriangles.svg	stimuli_target_diamondrectangles.svg	8	yes	57	0	391	6	5	antiphase_hc_osi.wav	2	6	3	noise_calib_stim_LEFT.wav	1	6	blb_dichoticlistening_ba-ta.mp3	ba	ta	1	right
6.6.1	mac	2023-06-13	10:30:29	10:43:05	753239	61592ea07347e286bca1955f	1	1	practice_slash	22	practice_slash	29	stimuli_distractor_trianglediamonds.svg	stimuli_distractor_diamondtriangles.svg	16	no	0	1	2000	6	5	antiphase_hc_osi.wav	2	6	3	noise_calib_stim_LEFT.wav	1	6	blb_dichoticlistening_ba-ta.mp3	ba	ta	1	right
6.6.1	mac	2023-06-13	10:30:29	10:43:05	753239	61592ea07347e286bca1955f	1	1	practice_slash	22	advance_on_keypress_SLASH	30	stimuli_distractor_trianglediamonds.svg	stimuli_distractor_diamondtriangles.svg	16	no	57	0	291	6	5	antiphase_hc_osi.wav	2	6	3	noise_calib_stim_LEFT.wav	1	6	blb_dichoticlistening_ba-ta.mp3	ba	ta	1	right
6.6.1	mac	2023-06-13	10:30:29	10:43:08	756031	61592ea07347e286bca1955f	1	1	practice_slash	22	practice_slash	31	stimuli_target_rectanglediamonds.svg	stimuli_distractor_diamondtriangles.svg	1	yes	53	1	859	6	5	antiphase_hc_osi.wav	2	6	3	noise_calib_stim_LEFT.wav	1	6	blb_dichoticlistening_ba-ta.mp3	ba	ta	1	right
6.6.1	mac	2023-06-13	10:30:29	10:43:08	756031	61592ea07347e286bca1955f	1	1	practice_slash	22	advance_on_keypress_SLASH	32	stimuli_target_rectanglediamonds.svg	stimuli_distractor_diamondtriangles.svg	1	yes	57	0	256	6	5	antiphase_hc_osi.wav	2	6	3	noise_calib_stim_LEFT.wav	1	6	blb_dichoticlistening_ba-ta.mp3	ba	ta	1	right
6.6.1	mac	2023-06-13	10:30:29	10:43:17	765086	61592ea07347e286bca1955f	1	1	main_slash	24	main_slash	1	stimuli_target_diamondsquares.svg	stimuli_distractor_trianglediamonds.svg	20	yes	53	1	1097	6	5	antiphase_hc_osi.wav	2	6	3	noise_calib_stim_LEFT.wav	1	6	blb_dichoticlistening_ba-ta.mp3	ba	ta	1	right
6.6.1	mac	2023-06-13	10:30:29	10:43:17	765086	61592ea07347e286bca1955f	1	1	main_slash	24	advance_on_keypress_SLASH	2	stimuli_target_diamondsquares.svg	stimuli_distractor_trianglediamonds.svg	20	yes	57	0	722	6	5	antiphase_hc_osi.wav	2	6	3	noise_calib_stim_LEFT.wav	1	6	blb_dichoticlistening_ba-ta.mp3	ba	ta	1	right
6.6.1	mac	2023-06-13	10:30:29	10:43:20	767382	61592ea07347e286bca1955f	1	1	main_slash	24	main_slash	3	stimuli_target_rectangletriangles.svg	stimuli_distractor_trianglediamonds.svg	1	yes	53	1	944	6	5	antiphase_hc_osi.wav	2	6	3	noise_calib_stim_LEFT.wav	1	6	blb_dichoticlistening_ba-ta.mp3	ba	ta	1	right
6.6.1	mac	2023-06-13	10:30:29	10:43:20	767382	61592ea07347e286bca1955f	1	1	main_slash	24	advance_on_keypress_SLASH	4	stimuli_target_rectangletriangles.svg	stimuli_distractor_trianglediamonds.svg	1	yes	57	0	472	6	5	antiphase_hc_osi.wav	2	6	3	noise_calib_stim_LEFT.wav	1	6	blb_dichoticlistening_ba-ta.mp3	ba	ta	1	right
6.6.1	mac	2023-06-13	10:30:29	10:43:22	769428	61592ea07347e286bca1955f	1	1	main_slash	24	main_slash	5	stimuli_distractor_trianglediamonds.svg	stimuli_target_diamondsquares.svg	28	yes	53	1	939	6	5	antiphase_hc_osi.wav	2	6	3	noise_calib_stim_LEFT.wav	1	6	blb_dichoticlistening_ba-ta.mp3	ba	ta	1	right
6.6.1	mac	2023-06-13	10:30:29	10:43:22	769428	61592ea07347e286bca1955f	1	1	main_slash	24	advance_on_keypress_SLASH	6	stimuli_distractor_trianglediamonds.svg	stimuli_target_diamondsquares.svg	28	yes	57	0	485	6	5	antiphase_hc_osi.wav	2	6	3	noise_calib_stim_LEFT.wav	1	6	blb_dichoticlistening_ba-ta.mp3	ba	ta	1	right
6.6.1	mac	2023-06-13	10:30:29	10:43:24	772089	61592ea07347e286bca1955f	1	1	main_slash	24	main_slash	7	stimuli_distractor_trianglediamonds.svg	stimuli_target_trianglerectangles.svg	25	yes	53	1	1543	6	5	antiphase_hc_osi.wav	2	6	3	noise_calib_stim_LEFT.wav	1	6	blb_dichoticlistening_ba-ta.mp3	ba	ta	1	right
6.6.1	mac	2023-06-13	10:30:29	10:43:24	772089	61592ea07347e286bca1955f	1	1	main_slash	24	advance_on_keypress_SLASH	8	stimuli_distractor_trianglediamonds.svg	stimuli_target_trianglerectangles.svg	25	yes	57	0	697	6	5	antiphase_hc_osi.wav	2	6	3	noise_calib_stim_LEFT.wav	1	6	blb_dichoticlistening_ba-ta.mp3	ba	ta	1	right
6.6.1	mac	2023-06-13	10:30:29	10:43:26	774266	61592ea07347e286bca1955f	1	1	main_slash	24	main_slash	9	stimuli_target_rectangletriangles.svg	stimuli_distractor_diamondtriangles.svg	5	yes	53	1	844	6	5	antiphase_hc_osi.wav	2	6	3	noise_calib_stim_LEFT.wav	1	6	blb_dichoticlistening_ba-ta.mp3	ba	ta	1	right
6.6.1	mac	2023-06-13	10:30:29	10:43:26	774266	61592ea07347e286bca1955f	1	1	main_slash	24	advance_on_keypress_SLASH	10	stimuli_target_rectangletriangles.svg	stimuli_distractor_diamondtriangles.svg	5	yes	57	0	293	6	5	antiphase_hc_osi.wav	2	6	3	noise_calib_stim_LEFT.wav	1	6	blb_dichoticlistening_ba-ta.mp3	ba	ta	1	right
6.6.1	mac	2023-06-13	10:30:29	10:43:28	776045	61592ea07347e286bca1955f	1	1	main_slash	24	main_slash	11	stimuli_distractor_trianglediamonds.svg	stimuli_target_rectanglediamonds.svg	10	yes	53	1	840	6	5	antiphase_hc_osi.wav	2	6	3	noise_calib_stim_LEFT.wav	1	6	blb_dichoticlistening_ba-ta.mp3	ba	ta	1	right
6.6.1	mac	2023-06-13	10:30:29	10:43:28	776045	61592ea07347e286bca1955f	1	1	main_slash	24	advance_on_keypress_SLASH	12	stimuli_distractor_trianglediamonds.svg	stimuli_target_rectanglediamonds.svg	10	yes	57	0	259	6	5	antiphase_hc_osi.wav	2	6	3	noise_calib_stim_LEFT.wav	1	6	blb_dichoticlistening_ba-ta.mp3	ba	ta	1	right
6.6.1	mac	2023-06-13	10:30:29	10:43:30	778268	61592ea07347e286bca1955f	1	1	main_slash	24	main_slash	13	stimuli_target_trianglerectangles.svg	stimuli_distractor_trianglediamonds.svg	17	yes	53	1	1331	6	5	antiphase_hc_osi.wav	2	6	3	noise_calib_stim_LEFT.wav	1	6	blb_dichoticlistening_ba-ta.mp3	ba	ta	1	right
6.6.1	mac	2023-06-13	10:30:29	10:43:30	778268	61592ea07347e286bca1955f	1	1	main_slash	24	advance_on_keypress_SLASH	14	stimuli_target_trianglerectangles.svg	stimuli_distractor_trianglediamonds.svg	17	yes	57	0	204	6	5	antiphase_hc_osi.wav	2	6	3	noise_calib_stim_LEFT.wav	1	6	blb_dichoticlistening_ba-ta.mp3	ba	ta	1	right
6.6.1	mac	2023-06-13	10:30:29	10:43:32	780068	61592ea07347e286bca1955f	1	1	main_slash	24	main_slash	15	stimuli_target_squaretriangles.svg	stimuli_distractor_diamondtriangles.svg	7	yes	53	1	948	6	5	antiphase_hc_osi.wav	2	6	3	noise_calib_stim_LEFT.wav	1	6	blb_dichoticlistening_ba-ta.mp3	ba	ta	1	right
6.6.1	mac	2023-06-13	10:30:29	10:43:32	780068	61592ea07347e286bca1955f	1	1	main_slash	24	advance_on_keypress_SLASH	16	stimuli_target_squaretriangles.svg	stimuli_distractor_diamondtriangles.svg	7	yes	57	0	272	6	5	antiphase_hc_osi.wav	2	6	3	noise_calib_stim_LEFT.wav	1	6	blb_dichoticlistening_ba-ta.mp3	ba	ta	1	right
6.6.1	mac	2023-06-13	10:30:29	10:43:34	782094	61592ea07347e286bca1955f	1	1	main_slash	24	main_slash	17	stimuli_distractor_diamondtriangles.svg	stimuli_target_diamondsquares.svg	32	yes	53	1	1123	6	5	antiphase_hc_osi.wav	2	6	3	noise_calib_stim_LEFT.wav	1	6	blb_dichoticlistening_ba-ta.mp3	ba	ta	1	right
6.6.1	mac	2023-06-13	10:30:29	10:43:34	782094	61592ea07347e286bca1955f	1	1	main_slash	24	advance_on_keypress_SLASH	18	stimuli_distractor_diamondtriangles.svg	stimuli_target_diamondsquares.svg	32	yes	57	0	215	6	5	antiphase_hc_osi.wav	2	6	3	noise_calib_stim_LEFT.wav	1	6	blb_dichoticlistening_ba-ta.mp3	ba	ta	1	right
6.6.1	mac	2023-06-13	10:30:29	10:43:36	783804	61592ea07347e286bca1955f	1	1	main_slash	24	main_slash	19	stimuli_distractor_diamondtriangles.svg	stimuli_target_diamondrectangles.svg	31	yes	53	1	867	6	5	antiphase_hc_osi.wav	2	6	3	noise_calib_stim_LEFT.wav	1	6	blb_dichoticlistening_ba-ta.mp3	ba	ta	1	right
6.6.1	mac	2023-06-13	10:30:29	10:43:36	783804	61592ea07347e286bca1955f	1	1	main_slash	24	advance_on_keypress_SLASH	20	stimuli_distractor_diamondtriangles.svg	stimuli_target_diamondrectangles.svg	31	yes	57	0	186	6	5	antiphase_hc_osi.wav	2	6	3	noise_calib_stim_LEFT.wav	1	6	blb_dichoticlistening_ba-ta.mp3	ba	ta	1	right
6.6.1	mac	2023-06-13	10:30:29	10:43:39	786621	61592ea07347e286bca1955f	1	1	main_slash	24	main_slash	21	stimuli_distractor_diamondtriangles.svg	stimuli_distractor_diamondtriangles.svg	40	no	0	1	2000	6	5	antiphase_hc_osi.wav	2	6	3	noise_calib_stim_LEFT.wav	1	6	blb_dichoticlistening_ba-ta.mp3	ba	ta	1	right
6.6.1	mac	2023-06-13	10:30:29	10:43:39	786621	61592ea07347e286bca1955f	1	1	main_slash	24	advance_on_keypress_SLASH	22	stimuli_distractor_diamondtriangles.svg	stimuli_distractor_diamondtriangles.svg	40	no	57	0	1239	6	5	antiphase_hc_osi.wav	2	6	3	noise_calib_stim_LEFT.wav	1	6	blb_dichoticlistening_ba-ta.mp3	ba	ta	1	right
6.6.1	mac	2023-06-13	10:30:29	10:43:41	789295	61592ea07347e286bca1955f	1	1	main_slash	24	main_slash	23	stimuli_target_trianglesquares.svg	stimuli_distractor_trianglediamonds.svg	18	yes	53	1	789	6	5	antiphase_hc_osi.wav	2	6	3	noise_calib_stim_LEFT.wav	1	6	blb_dichoticlistening_ba-ta.mp3	ba	ta	1	right
6.6.1	mac	2023-06-13	10:30:29	10:43:41	789295	61592ea07347e286bca1955f	1	1	main_slash	24	advance_on_keypress_SLASH	24	stimuli_target_trianglesquares.svg	stimuli_distractor_trianglediamonds.svg	18	yes	57	0	283	6	5	antiphase_hc_osi.wav	2	6	3	noise_calib_stim_LEFT.wav	1	6	blb_dichoticlistening_ba-ta.mp3	ba	ta	1	right
6.6.1	mac	2023-06-13	10:30:29	10:43:43	791138	61592ea07347e286bca1955f	1	1	main_slash	24	main_slash	25	stimuli_distractor_trianglediamonds.svg	stimuli_target_rectangletriangles.svg	9	yes	53	1	932	6	5	antiphase_hc_osi.wav	2	6	3	noise_calib_stim_LEFT.wav	1	6	blb_dichoticlistening_ba-ta.mp3	ba	ta	1	right
6.6.1	mac	2023-06-13	10:30:29	10:43:43	791138	61592ea07347e286bca1955f	1	1	main_slash	24	advance_on_keypress_SLASH	26	stimuli_distractor_trianglediamonds.svg	stimuli_target_rectangletriangles.svg	9	yes	57	0	254	6	5	antiphase_hc_osi.wav	2	6	3	noise_calib_stim_LEFT.wav	1	6	blb_dichoticlistening_ba-ta.mp3	ba	ta	1	right
6.6.1	mac	2023-06-13	10:30:29	10:43:46	794022	61592ea07347e286bca1955f	1	1	main_slash	24	main_slash	27	stimuli_distractor_diamondtriangles.svg	stimuli_distractor_trianglediamonds.svg	38	no	0	1	2000	6	5	antiphase_hc_osi.wav	2	6	3	noise_calib_stim_LEFT.wav	1	6	blb_dichoticlistening_ba-ta.mp3	ba	ta	1	right
6.6.1	mac	2023-06-13	10:30:29	10:43:46	794022	61592ea07347e286bca1955f	1	1	main_slash	24	advance_on_keypress_SLASH	28	stimuli_distractor_diamondtriangles.svg	stimuli_distractor_trianglediamonds.svg	38	no	57	0	813	6	5	antiphase_hc_osi.wav	2	6	3	noise_calib_stim_LEFT.wav	1	6	blb_dichoticlistening_ba-ta.mp3	ba	ta	1	right
6.6.1	mac	2023-06-13	10:30:29	10:43:50	797472	61592ea07347e286bca1955f	1	1	main_slash	24	main_slash	29	stimuli_distractor_trianglediamonds.svg	stimuli_distractor_diamondtriangles.svg	35	no	0	1	2000	6	5	antiphase_hc_osi.wav	2	6	3	noise_calib_stim_LEFT.wav	1	6	blb_dichoticlistening_ba-ta.mp3	ba	ta	1	right
6.6.1	mac	2023-06-13	10:30:29	10:43:50	797472	61592ea07347e286bca1955f	1	1	main_slash	24	advance_on_keypress_SLASH	30	stimuli_distractor_trianglediamonds.svg	stimuli_distractor_diamondtriangles.svg	35	no	57	0	559	6	5	antiphase_hc_osi.wav	2	6	3	noise_calib_stim_LEFT.wav	1	6	blb_dichoticlistening_ba-ta.mp3	ba	ta	1	right
6.6.1	mac	2023-06-13	10:30:29	10:43:52	799464	61592ea07347e286bca1955f	1	1	main_slash	24	main_slash	31	stimuli_target_diamondsquares.svg	stimuli_distractor_diamondtriangles.svg	24	yes	53	1	809	6	5	antiphase_hc_osi.wav	2	6	3	noise_calib_stim_LEFT.wav	1	6	blb_dichoticlistening_ba-ta.mp3	ba	ta	1	right
6.6.1	mac	2023-06-13	10:30:29	10:43:52	799464	61592ea07347e286bca1955f	1	1	main_slash	24	advance_on_keypress_SLASH	32	stimuli_target_diamondsquares.svg	stimuli_distractor_diamondtriangles.svg	24	yes	57	0	264	6	5	antiphase_hc_osi.wav	2	6	3	noise_calib_stim_LEFT.wav	1	6	blb_dichoticlistening_ba-ta.mp3	ba	ta	1	right
6.6.1	mac	2023-06-13	10:30:29	10:43:54	801943	61592ea07347e286bca1955f	1	1	main_slash	24	main_slash	33	stimuli_distractor_trianglediamonds.svg	stimuli_distractor_diamondtriangles.svg	36	no	53	0	1585	6	5	antiphase_hc_osi.wav	2	6	3	noise_calib_stim_LEFT.wav	1	6	blb_dichoticlistening_ba-ta.mp3	ba	ta	1	right
6.6.1	mac	2023-06-13	10:30:29	10:43:54	801943	61592ea07347e286bca1955f	1	1	main_slash	24	advance_on_keypress_SLASH	34	stimuli_distractor_trianglediamonds.svg	stimuli_distractor_diamondtriangles.svg	36	no	57	0	320	6	5	antiphase_hc_osi.wav	2	6	3	noise_calib_stim_LEFT.wav	1	6	blb_dichoticlistening_ba-ta.mp3	ba	ta	1	right
6.6.1	mac	2023-06-13	10:30:29	10:43:57	804888	61592ea07347e286bca1955f	1	1	main_slash	24	main_slash	35	stimuli_distractor_diamondtriangles.svg	stimuli_distractor_diamondtriangles.svg	39	no	0	1	2000	6	5	antiphase_hc_osi.wav	2	6	3	noise_calib_stim_LEFT.wav	1	6	blb_dichoticlistening_ba-ta.mp3	ba	ta	1	right
6.6.1	mac	2023-06-13	10:30:29	10:43:57	804888	61592ea07347e286bca1955f	1	1	main_slash	24	advance_on_keypress_SLASH	36	stimuli_distractor_diamondtriangles.svg	stimuli_distractor_diamondtriangles.svg	39	no	57	0	746	6	5	antiphase_hc_osi.wav	2	6	3	noise_calib_stim_LEFT.wav	1	6	blb_dichoticlistening_ba-ta.mp3	ba	ta	1	right
6.6.1	mac	2023-06-13	10:30:29	10:43:59	807205	61592ea07347e286bca1955f	1	1	main_slash	24	main_slash	37	stimuli_target_squaretriangles.svg	stimuli_distractor_trianglediamonds.svg	3	yes	53	1	932	6	5	antiphase_hc_osi.wav	2	6	3	noise_calib_stim_LEFT.wav	1	6	blb_dichoticlistening_ba-ta.mp3	ba	ta	1	right
6.6.1	mac	2023-06-13	10:30:29	10:43:59	807205	61592ea07347e286bca1955f	1	1	main_slash	24	advance_on_keypress_SLASH	38	stimuli_target_squaretriangles.svg	stimuli_distractor_trianglediamonds.svg	3	yes	57	0	141	6	5	antiphase_hc_osi.wav	2	6	3	noise_calib_stim_LEFT.wav	1	6	blb_dichoticlistening_ba-ta.mp3	ba	ta	1	right
6.6.1	mac	2023-06-13	10:30:29	10:44:02	809972	61592ea07347e286bca1955f	1	1	main_slash	24	main_slash	39	stimuli_distractor_trianglediamonds.svg	stimuli_distractor_trianglediamonds.svg	33	no	0	1	2000	6	5	antiphase_hc_osi.wav	2	6	3	noise_calib_stim_LEFT.wav	1	6	blb_dichoticlistening_ba-ta.mp3	ba	ta	1	right
6.6.1	mac	2023-06-13	10:30:29	10:44:02	809972	61592ea07347e286bca1955f	1	1	main_slash	24	advance_on_keypress_SLASH	40	stimuli_distractor_trianglediamonds.svg	stimuli_distractor_trianglediamonds.svg	33	no	57	0	410	6	5	antiphase_hc_osi.wav	2	6	3	noise_calib_stim_LEFT.wav	1	6	blb_dichoticlistening_ba-ta.mp3	ba	ta	1	right
6.6.1	mac	2023-06-13	10:30:29	10:44:04	811954	61592ea07347e286bca1955f	1	1	main_slash	24	main_slash	41	stimuli_distractor_diamondtriangles.svg	stimuli_target_squarediamonds.svg	16	yes	53	1	932	6	5	antiphase_hc_osi.wav	2	6	3	noise_calib_stim_LEFT.wav	1	6	blb_dichoticlistening_ba-ta.mp3	ba	ta	1	right
6.6.1	mac	2023-06-13	10:30:29	10:44:04	811954	61592ea07347e286bca1955f	1	1	main_slash	24	advance_on_keypress_SLASH	42	stimuli_distractor_diamondtriangles.svg	stimuli_target_squarediamonds.svg	16	yes	57	0	185	6	5	antiphase_hc_osi.wav	2	6	3	noise_calib_stim_LEFT.wav	1	6	blb_dichoticlistening_ba-ta.mp3	ba	ta	1	right
6.6.1	mac	2023-06-13	10:30:29	10:44:06	813571	61592ea07347e286bca1955f	1	1	main_slash	24	main_slash	43	stimuli_target_diamondrectangles.svg	stimuli_distractor_trianglediamonds.svg	19	yes	53	1	800	6	5	antiphase_hc_osi.wav	2	6	3	noise_calib_stim_LEFT.wav	1	6	blb_dichoticlistening_ba-ta.mp3	ba	ta	1	right
6.6.1	mac	2023-06-13	10:30:29	10:44:06	813571	61592ea07347e286bca1955f	1	1	main_slash	24	advance_on_keypress_SLASH	44	stimuli_target_diamondrectangles.svg	stimuli_distractor_trianglediamonds.svg	19	yes	57	0	209	6	5	antiphase_hc_osi.wav	2	6	3	noise_calib_stim_LEFT.wav	1	6	blb_dichoticlistening_ba-ta.mp3	ba	ta	1	right
6.6.1	mac	2023-06-13	10:30:29	10:44:08	815395	61592ea07347e286bca1955f	1	1	main_slash	24	main_slash	45	stimuli_target_squarediamonds.svg	stimuli_distractor_diamondtriangles.svg	8	yes	53	1	990	6	5	antiphase_hc_osi.wav	2	6	3	noise_calib_stim_LEFT.wav	1	6	blb_dichoticlistening_ba-ta.mp3	ba	ta	1	right
6.6.1	mac	2023-06-13	10:30:29	10:44:08	815395	61592ea07347e286bca1955f	1	1	main_slash	24	advance_on_keypress_SLASH	46	stimuli_target_squarediamonds.svg	stimuli_distractor_diamondtriangles.svg	8	yes	57	0	212	6	5	antiphase_hc_osi.wav	2	6	3	noise_calib_stim_LEFT.wav	1	6	blb_dichoticlistening_ba-ta.mp3	ba	ta	1	right
6.6.1	mac	2023-06-13	10:30:29	10:44:10	818238	61592ea07347e286bca1955f	1	1	main_slash	24	main_slash	47	stimuli_distractor_diamondtriangles.svg	stimuli_distractor_trianglediamonds.svg	37	no	0	1	2000	6	5	antiphase_hc_osi.wav	2	6	3	noise_calib_stim_LEFT.wav	1	6	blb_dichoticlistening_ba-ta.mp3	ba	ta	1	right
6.6.1	mac	2023-06-13	10:30:29	10:44:10	818238	61592ea07347e286bca1955f	1	1	main_slash	24	advance_on_keypress_SLASH	48	stimuli_distractor_diamondtriangles.svg	stimuli_distractor_trianglediamonds.svg	37	no	57	0	559	6	5	antiphase_hc_osi.wav	2	6	3	noise_calib_stim_LEFT.wav	1	6	blb_dichoticlistening_ba-ta.mp3	ba	ta	1	right
6.6.1	mac	2023-06-13	10:30:29	10:44:13	820457	61592ea07347e286bca1955f	1	1	main_slash	24	main_slash	49	stimuli_distractor_trianglediamonds.svg	stimuli_target_diamondrectangles.svg	27	yes	53	1	1036	6	5	antiphase_hc_osi.wav	2	6	3	noise_calib_stim_LEFT.wav	1	6	blb_dichoticlistening_ba-ta.mp3	ba	ta	1	right
6.6.1	mac	2023-06-13	10:30:29	10:44:13	820457	61592ea07347e286bca1955f	1	1	main_slash	24	advance_on_keypress_SLASH	50	stimuli_distractor_trianglediamonds.svg	stimuli_target_diamondrectangles.svg	27	yes	57	0	164	6	5	antiphase_hc_osi.wav	2	6	3	noise_calib_stim_LEFT.wav	1	6	blb_dichoticlistening_ba-ta.mp3	ba	ta	1	right
6.6.1	mac	2023-06-13	10:30:29	10:44:15	822530	61592ea07347e286bca1955f	1	1	main_slash	24	main_slash	51	stimuli_target_rectanglediamonds.svg	stimuli_distractor_diamondtriangles.svg	6	yes	53	1	1274	6	5	antiphase_hc_osi.wav	2	6	3	noise_calib_stim_LEFT.wav	1	6	blb_dichoticlistening_ba-ta.mp3	ba	ta	1	right
6.6.1	mac	2023-06-13	10:30:29	10:44:15	822530	61592ea07347e286bca1955f	1	1	main_slash	24	advance_on_keypress_SLASH	52	stimuli_target_rectanglediamonds.svg	stimuli_distractor_diamondtriangles.svg	6	yes	57	0	379	6	5	antiphase_hc_osi.wav	2	6	3	noise_calib_stim_LEFT.wav	1	6	blb_dichoticlistening_ba-ta.mp3	ba	ta	1	right
6.6.1	mac	2023-06-13	10:30:29	10:44:17	824462	61592ea07347e286bca1955f	1	1	main_slash	24	main_slash	53	stimuli_distractor_diamondtriangles.svg	stimuli_target_squaretriangles.svg	15	yes	53	1	907	6	5	antiphase_hc_osi.wav	2	6	3	noise_calib_stim_LEFT.wav	1	6	blb_dichoticlistening_ba-ta.mp3	ba	ta	1	right
6.6.1	mac	2023-06-13	10:30:29	10:44:17	824462	61592ea07347e286bca1955f	1	1	main_slash	24	advance_on_keypress_SLASH	54	stimuli_distractor_diamondtriangles.svg	stimuli_target_squaretriangles.svg	15	yes	57	0	148	6	5	antiphase_hc_osi.wav	2	6	3	noise_calib_stim_LEFT.wav	1	6	blb_dichoticlistening_ba-ta.mp3	ba	ta	1	right
6.6.1	mac	2023-06-13	10:30:29	10:44:18	826084	61592ea07347e286bca1955f	1	1	main_slash	24	main_slash	55	stimuli_target_squarediamonds.svg	stimuli_distractor_trianglediamonds.svg	4	yes	53	1	841	6	5	antiphase_hc_osi.wav	2	6	3	noise_calib_stim_LEFT.wav	1	6	blb_dichoticlistening_ba-ta.mp3	ba	ta	1	right
6.6.1	mac	2023-06-13	10:30:29	10:44:18	826084	61592ea07347e286bca1955f	1	1	main_slash	24	advance_on_keypress_SLASH	56	stimuli_target_squarediamonds.svg	stimuli_distractor_trianglediamonds.svg	4	yes	57	0	133	6	5	antiphase_hc_osi.wav	2	6	3	noise_calib_stim_LEFT.wav	1	6	blb_dichoticlistening_ba-ta.mp3	ba	ta	1	right
6.6.1	mac	2023-06-13	10:30:29	10:44:20	827745	61592ea07347e286bca1955f	1	1	main_slash	24	main_slash	57	stimuli_distractor_diamondtriangles.svg	stimuli_target_rectangletriangles.svg	13	yes	53	1	890	6	5	antiphase_hc_osi.wav	2	6	3	noise_calib_stim_LEFT.wav	1	6	blb_dichoticlistening_ba-ta.mp3	ba	ta	1	right
6.6.1	mac	2023-06-13	10:30:29	10:44:20	827745	61592ea07347e286bca1955f	1	1	main_slash	24	advance_on_keypress_SLASH	58	stimuli_distractor_diamondtriangles.svg	stimuli_target_rectangletriangles.svg	13	yes	57	0	215	6	5	antiphase_hc_osi.wav	2	6	3	noise_calib_stim_LEFT.wav	1	6	blb_dichoticlistening_ba-ta.mp3	ba	ta	1	right
6.6.1	mac	2023-06-13	10:30:29	10:44:22	829343	61592ea07347e286bca1955f	1	1	main_slash	24	main_slash	59	stimuli_target_trianglesquares.svg	stimuli_distractor_diamondtriangles.svg	22	yes	53	1	755	6	5	antiphase_hc_osi.wav	2	6	3	noise_calib_stim_LEFT.wav	1	6	blb_dichoticlistening_ba-ta.mp3	ba	ta	1	right
6.6.1	mac	2023-06-13	10:30:29	10:44:22	829343	61592ea07347e286bca1955f	1	1	main_slash	24	advance_on_keypress_SLASH	60	stimuli_target_trianglesquares.svg	stimuli_distractor_diamondtriangles.svg	22	yes	57	0	191	6	5	antiphase_hc_osi.wav	2	6	3	noise_calib_stim_LEFT.wav	1	6	blb_dichoticlistening_ba-ta.mp3	ba	ta	1	right
6.6.1	mac	2023-06-13	10:30:29	10:44:23	830942	61592ea07347e286bca1955f	1	1	main_slash	24	main_slash	61	stimuli_target_diamondrectangles.svg	stimuli_distractor_diamondtriangles.svg	23	yes	53	1	787	6	5	antiphase_hc_osi.wav	2	6	3	noise_calib_stim_LEFT.wav	1	6	blb_dichoticlistening_ba-ta.mp3	ba	ta	1	right
6.6.1	mac	2023-06-13	10:30:29	10:44:23	830942	61592ea07347e286bca1955f	1	1	main_slash	24	advance_on_keypress_SLASH	62	stimuli_target_diamondrectangles.svg	stimuli_distractor_diamondtriangles.svg	23	yes	57	0	211	6	5	antiphase_hc_osi.wav	2	6	3	noise_calib_stim_LEFT.wav	1	6	blb_dichoticlistening_ba-ta.mp3	ba	ta	1	right
6.6.1	mac	2023-06-13	10:30:29	10:44:25	832582	61592ea07347e286bca1955f	1	1	main_slash	24	main_slash	63	stimuli_distractor_diamondtriangles.svg	stimuli_target_rectanglediamonds.svg	14	yes	53	1	792	6	5	antiphase_hc_osi.wav	2	6	3	noise_calib_stim_LEFT.wav	1	6	blb_dichoticlistening_ba-ta.mp3	ba	ta	1	right
6.6.1	mac	2023-06-13	10:30:29	10:44:25	832582	61592ea07347e286bca1955f	1	1	main_slash	24	advance_on_keypress_SLASH	64	stimuli_distractor_diamondtriangles.svg	stimuli_target_rectanglediamonds.svg	14	yes	57	0	202	6	5	antiphase_hc_osi.wav	2	6	3	noise_calib_stim_LEFT.wav	1	6	blb_dichoticlistening_ba-ta.mp3	ba	ta	1	right
6.6.1	mac	2023-06-13	10:30:29	10:44:26	834182	61592ea07347e286bca1955f	1	1	main_slash	24	main_slash	65	stimuli_distractor_trianglediamonds.svg	stimuli_target_squarediamonds.svg	12	yes	53	1	760	6	5	antiphase_hc_osi.wav	2	6	3	noise_calib_stim_LEFT.wav	1	6	blb_dichoticlistening_ba-ta.mp3	ba	ta	1	right
6.6.1	mac	2023-06-13	10:30:29	10:44:26	834182	61592ea07347e286bca1955f	1	1	main_slash	24	advance_on_keypress_SLASH	66	stimuli_distractor_trianglediamonds.svg	stimuli_target_squarediamonds.svg	12	yes	57	0	91	6	5	antiphase_hc_osi.wav	2	6	3	noise_calib_stim_LEFT.wav	1	6	blb_dichoticlistening_ba-ta.mp3	ba	ta	1	right
6.6.1	mac	2023-06-13	10:30:29	10:44:28	835620	61592ea07347e286bca1955f	1	1	main_slash	24	main_slash	67	stimuli_target_rectanglediamonds.svg	stimuli_distractor_trianglediamonds.svg	2	yes	53	1	715	6	5	antiphase_hc_osi.wav	2	6	3	noise_calib_stim_LEFT.wav	1	6	blb_dichoticlistening_ba-ta.mp3	ba	ta	1	right
6.6.1	mac	2023-06-13	10:30:29	10:44:28	835620	61592ea07347e286bca1955f	1	1	main_slash	24	advance_on_keypress_SLASH	68	stimuli_target_rectanglediamonds.svg	stimuli_distractor_trianglediamonds.svg	2	yes	57	0	208	6	5	antiphase_hc_osi.wav	2	6	3	noise_calib_stim_LEFT.wav	1	6	blb_dichoticlistening_ba-ta.mp3	ba	ta	1	right
6.6.1	mac	2023-06-13	10:30:29	10:44:30	837826	61592ea07347e286bca1955f	1	1	main_slash	24	main_slash	69	stimuli_distractor_trianglediamonds.svg	stimuli_target_trianglesquares.svg	26	yes	53	1	1371	6	5	antiphase_hc_osi.wav	2	6	3	noise_calib_stim_LEFT.wav	1	6	blb_dichoticlistening_ba-ta.mp3	ba	ta	1	right
6.6.1	mac	2023-06-13	10:30:29	10:44:30	837826	61592ea07347e286bca1955f	1	1	main_slash	24	advance_on_keypress_SLASH	70	stimuli_distractor_trianglediamonds.svg	stimuli_target_trianglesquares.svg	26	yes	57	0	1406	6	5	antiphase_hc_osi.wav	2	6	3	noise_calib_stim_LEFT.wav	1	6	blb_dichoticlistening_ba-ta.mp3	ba	ta	1	right
6.6.1	mac	2023-06-13	10:30:29	10:44:34	841854	61592ea07347e286bca1955f	1	1	main_slash	24	main_slash	71	stimuli_distractor_trianglediamonds.svg	stimuli_distractor_trianglediamonds.svg	34	no	0	1	2000	6	5	antiphase_hc_osi.wav	2	6	3	noise_calib_stim_LEFT.wav	1	6	blb_dichoticlistening_ba-ta.mp3	ba	ta	1	right
6.6.1	mac	2023-06-13	10:30:29	10:44:34	841854	61592ea07347e286bca1955f	1	1	main_slash	24	advance_on_keypress_SLASH	72	stimuli_distractor_trianglediamonds.svg	stimuli_distractor_trianglediamonds.svg	34	no	57	0	589	6	5	antiphase_hc_osi.wav	2	6	3	noise_calib_stim_LEFT.wav	1	6	blb_dichoticlistening_ba-ta.mp3	ba	ta	1	right
6.6.1	mac	2023-06-13	10:30:29	10:44:36	843878	61592ea07347e286bca1955f	1	1	main_slash	24	main_slash	73	stimuli_distractor_diamondtriangles.svg	stimuli_target_trianglerectangles.svg	29	yes	53	1	804	6	5	antiphase_hc_osi.wav	2	6	3	noise_calib_stim_LEFT.wav	1	6	blb_dichoticlistening_ba-ta.mp3	ba	ta	1	right
6.6.1	mac	2023-06-13	10:30:29	10:44:36	843878	61592ea07347e286bca1955f	1	1	main_slash	24	advance_on_keypress_SLASH	74	stimuli_distractor_diamondtriangles.svg	stimuli_target_trianglerectangles.svg	29	yes	57	0	194	6	5	antiphase_hc_osi.wav	2	6	3	noise_calib_stim_LEFT.wav	1	6	blb_dichoticlistening_ba-ta.mp3	ba	ta	1	right
6.6.1	mac	2023-06-13	10:30:29	10:44:38	845363	61592ea07347e286bca1955f	1	1	main_slash	24	main_slash	75	stimuli_distractor_diamondtriangles.svg	stimuli_target_trianglesquares.svg	30	yes	53	1	674	6	5	antiphase_hc_osi.wav	2	6	3	noise_calib_stim_LEFT.wav	1	6	blb_dichoticlistening_ba-ta.mp3	ba	ta	1	right
6.6.1	mac	2023-06-13	10:30:29	10:44:38	845363	61592ea07347e286bca1955f	1	1	main_slash	24	advance_on_keypress_SLASH	76	stimuli_distractor_diamondtriangles.svg	stimuli_target_trianglesquares.svg	30	yes	57	0	193	6	5	antiphase_hc_osi.wav	2	6	3	noise_calib_stim_LEFT.wav	1	6	blb_dichoticlistening_ba-ta.mp3	ba	ta	1	right
6.6.1	mac	2023-06-13	10:30:29	10:44:40	847794	61592ea07347e286bca1955f	1	1	main_slash	24	main_slash	77	stimuli_distractor_trianglediamonds.svg	stimuli_target_squaretriangles.svg	11	yes	53	1	1622	6	5	antiphase_hc_osi.wav	2	6	3	noise_calib_stim_LEFT.wav	1	6	blb_dichoticlistening_ba-ta.mp3	ba	ta	1	right
6.6.1	mac	2023-06-13	10:30:29	10:44:40	847794	61592ea07347e286bca1955f	1	1	main_slash	24	advance_on_keypress_SLASH	78	stimuli_distractor_trianglediamonds.svg	stimuli_target_squaretriangles.svg	11	yes	57	0	145	6	5	antiphase_hc_osi.wav	2	6	3	noise_calib_stim_LEFT.wav	1	6	blb_dichoticlistening_ba-ta.mp3	ba	ta	1	right
6.6.1	mac	2023-06-13	10:30:29	10:44:42	849388	61592ea07347e286bca1955f	1	1	main_slash	24	main_slash	79	stimuli_target_trianglerectangles.svg	stimuli_distractor_diamondtriangles.svg	21	yes	53	1	817	6	5	antiphase_hc_osi.wav	2	6	3	noise_calib_stim_LEFT.wav	1	6	blb_dichoticlistening_ba-ta.mp3	ba	ta	1	right
6.6.1	mac	2023-06-13	10:30:29	10:44:42	849388	61592ea07347e286bca1955f	1	1	main_slash	24	advance_on_keypress_SLASH	80	stimuli_target_trianglerectangles.svg	stimuli_distractor_diamondtriangles.svg	21	yes	57	0	140	6	5	antiphase_hc_osi.wav	2	6	3	noise_calib_stim_LEFT.wav	1	6	blb_dichoticlistening_ba-ta.mp3	ba	ta	1	right
6.6.1	mac	2023-06-13	10:30:29	10:44:43	850941	61592ea07347e286bca1955f	1	1	main_slash	24	main_slash	81	stimuli_target_rectanglediamonds.svg	stimuli_distractor_trianglediamonds.svg	2	yes	53	1	788	6	5	antiphase_hc_osi.wav	2	6	3	noise_calib_stim_LEFT.wav	1	6	blb_dichoticlistening_ba-ta.mp3	ba	ta	1	right
6.6.1	mac	2023-06-13	10:30:29	10:44:43	850941	61592ea07347e286bca1955f	1	1	main_slash	24	advance_on_keypress_SLASH	82	stimuli_target_rectanglediamonds.svg	stimuli_distractor_trianglediamonds.svg	2	yes	57	0	168	6	5	antiphase_hc_osi.wav	2	6	3	noise_calib_stim_LEFT.wav	1	6	blb_dichoticlistening_ba-ta.mp3	ba	ta	1	right
6.6.1	mac	2023-06-13	10:30:29	10:44:46	853738	61592ea07347e286bca1955f	1	1	main_slash	24	main_slash	83	stimuli_distractor_trianglediamonds.svg	stimuli_distractor_diamondtriangles.svg	36	no	0	1	2000	6	5	antiphase_hc_osi.wav	2	6	3	noise_calib_stim_LEFT.wav	1	6	blb_dichoticlistening_ba-ta.mp3	ba	ta	1	right
6.6.1	mac	2023-06-13	10:30:29	10:44:46	853738	61592ea07347e286bca1955f	1	1	main_slash	24	advance_on_keypress_SLASH	84	stimuli_distractor_trianglediamonds.svg	stimuli_distractor_diamondtriangles.svg	36	no	57	0	743	6	5	antiphase_hc_osi.wav	2	6	3	noise_calib_stim_LEFT.wav	1	6	blb_dichoticlistening_ba-ta.mp3	ba	ta	1	right
6.6.1	mac	2023-06-13	10:30:29	10:44:49	856907	61592ea07347e286bca1955f	1	1	main_slash	24	main_slash	85	stimuli_distractor_diamondtriangles.svg	stimuli_target_squaretriangles.svg	15	yes	53	1	1782	6	5	antiphase_hc_osi.wav	2	6	3	noise_calib_stim_LEFT.wav	1	6	blb_dichoticlistening_ba-ta.mp3	ba	ta	1	right
6.6.1	mac	2023-06-13	10:30:29	10:44:49	856907	61592ea07347e286bca1955f	1	1	main_slash	24	advance_on_keypress_SLASH	86	stimuli_distractor_diamondtriangles.svg	stimuli_target_squaretriangles.svg	15	yes	57	0	276	6	5	antiphase_hc_osi.wav	2	6	3	noise_calib_stim_LEFT.wav	1	6	blb_dichoticlistening_ba-ta.mp3	ba	ta	1	right
6.6.1	mac	2023-06-13	10:30:29	10:44:51	859042	61592ea07347e286bca1955f	1	1	main_slash	24	main_slash	87	stimuli_target_squaretriangles.svg	stimuli_distractor_diamondtriangles.svg	7	yes	53	1	1221	6	5	antiphase_hc_osi.wav	2	6	3	noise_calib_stim_LEFT.wav	1	6	blb_dichoticlistening_ba-ta.mp3	ba	ta	1	right
6.6.1	mac	2023-06-13	10:30:29	10:44:51	859042	61592ea07347e286bca1955f	1	1	main_slash	24	advance_on_keypress_SLASH	88	stimuli_target_squaretriangles.svg	stimuli_distractor_diamondtriangles.svg	7	yes	57	0	574	6	5	antiphase_hc_osi.wav	2	6	3	noise_calib_stim_LEFT.wav	1	6	blb_dichoticlistening_ba-ta.mp3	ba	ta	1	right
6.6.1	mac	2023-06-13	10:30:29	10:44:53	861067	61592ea07347e286bca1955f	1	1	main_slash	24	main_slash	89	stimuli_target_diamondrectangles.svg	stimuli_distractor_diamondtriangles.svg	23	yes	53	1	830	6	5	antiphase_hc_osi.wav	2	6	3	noise_calib_stim_LEFT.wav	1	6	blb_dichoticlistening_ba-ta.mp3	ba	ta	1	right
6.6.1	mac	2023-06-13	10:30:29	10:44:53	861067	61592ea07347e286bca1955f	1	1	main_slash	24	advance_on_keypress_SLASH	90	stimuli_target_diamondrectangles.svg	stimuli_distractor_diamondtriangles.svg	23	yes	57	0	91	6	5	antiphase_hc_osi.wav	2	6	3	noise_calib_stim_LEFT.wav	1	6	blb_dichoticlistening_ba-ta.mp3	ba	ta	1	right
6.6.1	mac	2023-06-13	10:30:29	10:44:55	862417	61592ea07347e286bca1955f	1	1	main_slash	24	main_slash	91	stimuli_distractor_trianglediamonds.svg	stimuli_target_rectanglediamonds.svg	10	yes	53	1	627	6	5	antiphase_hc_osi.wav	2	6	3	noise_calib_stim_LEFT.wav	1	6	blb_dichoticlistening_ba-ta.mp3	ba	ta	1	right
6.6.1	mac	2023-06-13	10:30:29	10:44:55	862417	61592ea07347e286bca1955f	1	1	main_slash	24	advance_on_keypress_SLASH	92	stimuli_distractor_trianglediamonds.svg	stimuli_target_rectanglediamonds.svg	10	yes	57	0	113	6	5	antiphase_hc_osi.wav	2	6	3	noise_calib_stim_LEFT.wav	1	6	blb_dichoticlistening_ba-ta.mp3	ba	ta	1	right
6.6.1	mac	2023-06-13	10:30:29	10:44:56	863857	61592ea07347e286bca1955f	1	1	main_slash	24	main_slash	93	stimuli_distractor_diamondtriangles.svg	stimuli_target_diamondsquares.svg	32	yes	53	1	685	6	5	antiphase_hc_osi.wav	2	6	3	noise_calib_stim_LEFT.wav	1	6	blb_dichoticlistening_ba-ta.mp3	ba	ta	1	right
6.6.1	mac	2023-06-13	10:30:29	10:44:56	863857	61592ea07347e286bca1955f	1	1	main_slash	24	advance_on_keypress_SLASH	94	stimuli_distractor_diamondtriangles.svg	stimuli_target_diamondsquares.svg	32	yes	57	0	143	6	5	antiphase_hc_osi.wav	2	6	3	noise_calib_stim_LEFT.wav	1	6	blb_dichoticlistening_ba-ta.mp3	ba	ta	1	right
6.6.1	mac	2023-06-13	10:30:29	10:44:58	865453	61592ea07347e286bca1955f	1	1	main_slash	24	main_slash	95	stimuli_target_squarediamonds.svg	stimuli_distractor_diamondtriangles.svg	8	yes	53	1	832	6	5	antiphase_hc_osi.wav	2	6	3	noise_calib_stim_LEFT.wav	1	6	blb_dichoticlistening_ba-ta.mp3	ba	ta	1	right
6.6.1	mac	2023-06-13	10:30:29	10:44:58	865453	61592ea07347e286bca1955f	1	1	main_slash	24	advance_on_keypress_SLASH	96	stimuli_target_squarediamonds.svg	stimuli_distractor_diamondtriangles.svg	8	yes	57	0	97	6	5	antiphase_hc_osi.wav	2	6	3	noise_calib_stim_LEFT.wav	1	6	blb_dichoticlistening_ba-ta.mp3	ba	ta	1	right
6.6.1	mac	2023-06-13	10:30:29	10:44:59	867007	61592ea07347e286bca1955f	1	1	main_slash	24	main_slash	97	stimuli_target_diamondrectangles.svg	stimuli_distractor_trianglediamonds.svg	19	yes	53	1	818	6	5	antiphase_hc_osi.wav	2	6	3	noise_calib_stim_LEFT.wav	1	6	blb_dichoticlistening_ba-ta.mp3	ba	ta	1	right
6.6.1	mac	2023-06-13	10:30:29	10:44:59	867007	61592ea07347e286bca1955f	1	1	main_slash	24	advance_on_keypress_SLASH	98	stimuli_target_diamondrectangles.svg	stimuli_distractor_trianglediamonds.svg	19	yes	57	0	188	6	5	antiphase_hc_osi.wav	2	6	3	noise_calib_stim_LEFT.wav	1	6	blb_dichoticlistening_ba-ta.mp3	ba	ta	1	right
6.6.1	mac	2023-06-13	10:30:29	10:45:01	868446	61592ea07347e286bca1955f	1	1	main_slash	24	main_slash	99	stimuli_target_trianglesquares.svg	stimuli_distractor_trianglediamonds.svg	18	yes	53	1	624	6	5	antiphase_hc_osi.wav	2	6	3	noise_calib_stim_LEFT.wav	1	6	blb_dichoticlistening_ba-ta.mp3	ba	ta	1	right
6.6.1	mac	2023-06-13	10:30:29	10:45:01	868446	61592ea07347e286bca1955f	1	1	main_slash	24	advance_on_keypress_SLASH	100	stimuli_target_trianglesquares.svg	stimuli_distractor_trianglediamonds.svg	18	yes	57	0	204	6	5	antiphase_hc_osi.wav	2	6	3	noise_calib_stim_LEFT.wav	1	6	blb_dichoticlistening_ba-ta.mp3	ba	ta	1	right
6.6.1	mac	2023-06-13	10:30:29	10:45:02	869956	61592ea07347e286bca1955f	1	1	main_slash	24	main_slash	101	stimuli_target_trianglesquares.svg	stimuli_distractor_diamondtriangles.svg	22	yes	53	1	666	6	5	antiphase_hc_osi.wav	2	6	3	noise_calib_stim_LEFT.wav	1	6	blb_dichoticlistening_ba-ta.mp3	ba	ta	1	right
6.6.1	mac	2023-06-13	10:30:29	10:45:02	869956	61592ea07347e286bca1955f	1	1	main_slash	24	advance_on_keypress_SLASH	102	stimuli_target_trianglesquares.svg	stimuli_distractor_diamondtriangles.svg	22	yes	57	0	161	6	5	antiphase_hc_osi.wav	2	6	3	noise_calib_stim_LEFT.wav	1	6	blb_dichoticlistening_ba-ta.mp3	ba	ta	1	right
6.6.1	mac	2023-06-13	10:30:29	10:45:04	871461	61592ea07347e286bca1955f	1	1	main_slash	24	main_slash	103	stimuli_distractor_trianglediamonds.svg	stimuli_target_diamondsquares.svg	28	yes	53	1	706	6	5	antiphase_hc_osi.wav	2	6	3	noise_calib_stim_LEFT.wav	1	6	blb_dichoticlistening_ba-ta.mp3	ba	ta	1	right
6.6.1	mac	2023-06-13	10:30:29	10:45:04	871461	61592ea07347e286bca1955f	1	1	main_slash	24	advance_on_keypress_SLASH	104	stimuli_distractor_trianglediamonds.svg	stimuli_target_diamondsquares.svg	28	yes	57	0	127	6	5	antiphase_hc_osi.wav	2	6	3	noise_calib_stim_LEFT.wav	1	6	blb_dichoticlistening_ba-ta.mp3	ba	ta	1	right
6.6.1	mac	2023-06-13	10:30:29	10:45:05	872968	61592ea07347e286bca1955f	1	1	main_slash	24	main_slash	105	stimuli_target_squarediamonds.svg	stimuli_distractor_trianglediamonds.svg	4	yes	53	1	762	6	5	antiphase_hc_osi.wav	2	6	3	noise_calib_stim_LEFT.wav	1	6	blb_dichoticlistening_ba-ta.mp3	ba	ta	1	right
6.6.1	mac	2023-06-13	10:30:29	10:45:05	872968	61592ea07347e286bca1955f	1	1	main_slash	24	advance_on_keypress_SLASH	106	stimuli_target_squarediamonds.svg	stimuli_distractor_trianglediamonds.svg	4	yes	57	0	140	6	5	antiphase_hc_osi.wav	2	6	3	noise_calib_stim_LEFT.wav	1	6	blb_dichoticlistening_ba-ta.mp3	ba	ta	1	right
6.6.1	mac	2023-06-13	10:30:29	10:45:07	874611	61592ea07347e286bca1955f	1	1	main_slash	24	main_slash	107	stimuli_target_diamondsquares.svg	stimuli_distractor_trianglediamonds.svg	20	yes	53	1	874	6	5	antiphase_hc_osi.wav	2	6	3	noise_calib_stim_LEFT.wav	1	6	blb_dichoticlistening_ba-ta.mp3	ba	ta	1	right
6.6.1	mac	2023-06-13	10:30:29	10:45:07	874611	61592ea07347e286bca1955f	1	1	main_slash	24	advance_on_keypress_SLASH	108	stimuli_target_diamondsquares.svg	stimuli_distractor_trianglediamonds.svg	20	yes	57	0	102	6	5	antiphase_hc_osi.wav	2	6	3	noise_calib_stim_LEFT.wav	1	6	blb_dichoticlistening_ba-ta.mp3	ba	ta	1	right
6.6.1	mac	2023-06-13	10:30:29	10:45:10	877339	61592ea07347e286bca1955f	1	1	main_slash	24	main_slash	109	stimuli_distractor_diamondtriangles.svg	stimuli_distractor_trianglediamonds.svg	37	no	0	1	2000	6	5	antiphase_hc_osi.wav	2	6	3	noise_calib_stim_LEFT.wav	1	6	blb_dichoticlistening_ba-ta.mp3	ba	ta	1	right
6.6.1	mac	2023-06-13	10:30:29	10:45:10	877339	61592ea07347e286bca1955f	1	1	main_slash	24	advance_on_keypress_SLASH	110	stimuli_distractor_diamondtriangles.svg	stimuli_distractor_trianglediamonds.svg	37	no	57	0	541	6	5	antiphase_hc_osi.wav	2	6	3	noise_calib_stim_LEFT.wav	1	6	blb_dichoticlistening_ba-ta.mp3	ba	ta	1	right
6.6.1	mac	2023-06-13	10:30:29	10:45:11	879270	61592ea07347e286bca1955f	1	1	main_slash	24	main_slash	111	stimuli_distractor_diamondtriangles.svg	stimuli_target_rectangletriangles.svg	13	yes	53	1	764	6	5	antiphase_hc_osi.wav	2	6	3	noise_calib_stim_LEFT.wav	1	6	blb_dichoticlistening_ba-ta.mp3	ba	ta	1	right
6.6.1	mac	2023-06-13	10:30:29	10:45:11	879270	61592ea07347e286bca1955f	1	1	main_slash	24	advance_on_keypress_SLASH	112	stimuli_distractor_diamondtriangles.svg	stimuli_target_rectangletriangles.svg	13	yes	57	0	139	6	5	antiphase_hc_osi.wav	2	6	3	noise_calib_stim_LEFT.wav	1	6	blb_dichoticlistening_ba-ta.mp3	ba	ta	1	right
6.6.1	mac	2023-06-13	10:30:29	10:45:14	882040	61592ea07347e286bca1955f	1	1	main_slash	24	main_slash	113	stimuli_distractor_diamondtriangles.svg	stimuli_distractor_trianglediamonds.svg	38	no	0	1	2000	6	5	antiphase_hc_osi.wav	2	6	3	noise_calib_stim_LEFT.wav	1	6	blb_dichoticlistening_ba-ta.mp3	ba	ta	1	right
6.6.1	mac	2023-06-13	10:30:29	10:45:14	882040	61592ea07347e286bca1955f	1	1	main_slash	24	advance_on_keypress_SLASH	114	stimuli_distractor_diamondtriangles.svg	stimuli_distractor_trianglediamonds.svg	38	no	57	0	363	6	5	antiphase_hc_osi.wav	2	6	3	noise_calib_stim_LEFT.wav	1	6	blb_dichoticlistening_ba-ta.mp3	ba	ta	1	right
6.6.1	mac	2023-06-13	10:30:29	10:45:17	885039	61592ea07347e286bca1955f	1	1	main_slash	24	main_slash	115	stimuli_distractor_diamondtriangles.svg	stimuli_target_squarediamonds.svg	16	yes	0	0	2000	6	5	antiphase_hc_osi.wav	2	6	3	noise_calib_stim_LEFT.wav	1	6	blb_dichoticlistening_ba-ta.mp3	ba	ta	1	right
6.6.1	mac	2023-06-13	10:30:29	10:45:17	885039	61592ea07347e286bca1955f	1	1	main_slash	24	advance_on_keypress_SLASH	116	stimuli_distractor_diamondtriangles.svg	stimuli_target_squarediamonds.svg	16	yes	57	0	1457	6	5	antiphase_hc_osi.wav	2	6	3	noise_calib_stim_LEFT.wav	1	6	blb_dichoticlistening_ba-ta.mp3	ba	ta	1	right
6.6.1	mac	2023-06-13	10:30:29	10:45:20	887885	61592ea07347e286bca1955f	1	1	main_slash	24	main_slash	117	stimuli_distractor_trianglediamonds.svg	stimuli_target_trianglerectangles.svg	25	yes	53	1	747	6	5	antiphase_hc_osi.wav	2	6	3	noise_calib_stim_LEFT.wav	1	6	blb_dichoticlistening_ba-ta.mp3	ba	ta	1	right
6.6.1	mac	2023-06-13	10:30:29	10:45:20	887885	61592ea07347e286bca1955f	1	1	main_slash	24	advance_on_keypress_SLASH	118	stimuli_distractor_trianglediamonds.svg	stimuli_target_trianglerectangles.svg	25	yes	57	0	139	6	5	antiphase_hc_osi.wav	2	6	3	noise_calib_stim_LEFT.wav	1	6	blb_dichoticlistening_ba-ta.mp3	ba	ta	1	right
6.6.1	mac	2023-06-13	10:30:29	10:45:21	889280	61592ea07347e286bca1955f	1	1	main_slash	24	main_slash	119	stimuli_distractor_diamondtriangles.svg	stimuli_target_rectanglediamonds.svg	14	yes	53	1	626	6	5	antiphase_hc_osi.wav	2	6	3	noise_calib_stim_LEFT.wav	1	6	blb_dichoticlistening_ba-ta.mp3	ba	ta	1	right
6.6.1	mac	2023-06-13	10:30:29	10:45:21	889280	61592ea07347e286bca1955f	1	1	main_slash	24	advance_on_keypress_SLASH	120	stimuli_distractor_diamondtriangles.svg	stimuli_target_rectanglediamonds.svg	14	yes	57	0	183	6	5	antiphase_hc_osi.wav	2	6	3	noise_calib_stim_LEFT.wav	1	6	blb_dichoticlistening_ba-ta.mp3	ba	ta	1	right
6.6.1	mac	2023-06-13	10:30:29	10:45:23	890833	61592ea07347e286bca1955f	1	1	main_slash	24	main_slash	121	stimuli_target_squaretriangles.svg	stimuli_distractor_trianglediamonds.svg	3	yes	53	1	745	6	5	antiphase_hc_osi.wav	2	6	3	noise_calib_stim_LEFT.wav	1	6	blb_dichoticlistening_ba-ta.mp3	ba	ta	1	right
6.6.1	mac	2023-06-13	10:30:29	10:45:23	890833	61592ea07347e286bca1955f	1	1	main_slash	24	advance_on_keypress_SLASH	122	stimuli_target_squaretriangles.svg	stimuli_distractor_trianglediamonds.svg	3	yes	57	0	111	6	5	antiphase_hc_osi.wav	2	6	3	noise_calib_stim_LEFT.wav	1	6	blb_dichoticlistening_ba-ta.mp3	ba	ta	1	right
6.6.1	mac	2023-06-13	10:30:29	10:45:24	892274	61592ea07347e286bca1955f	1	1	main_slash	24	main_slash	123	stimuli_target_diamondsquares.svg	stimuli_distractor_diamondtriangles.svg	24	yes	53	1	685	6	5	antiphase_hc_osi.wav	2	6	3	noise_calib_stim_LEFT.wav	1	6	blb_dichoticlistening_ba-ta.mp3	ba	ta	1	right
6.6.1	mac	2023-06-13	10:30:29	10:45:24	892274	61592ea07347e286bca1955f	1	1	main_slash	24	advance_on_keypress_SLASH	124	stimuli_target_diamondsquares.svg	stimuli_distractor_diamondtriangles.svg	24	yes	57	0	120	6	5	antiphase_hc_osi.wav	2	6	3	noise_calib_stim_LEFT.wav	1	6	blb_dichoticlistening_ba-ta.mp3	ba	ta	1	right
6.6.1	mac	2023-06-13	10:30:29	10:45:26	893781	61592ea07347e286bca1955f	1	1	main_slash	24	main_slash	125	stimuli_distractor_trianglediamonds.svg	stimuli_target_trianglesquares.svg	26	yes	53	1	759	6	5	antiphase_hc_osi.wav	2	6	3	noise_calib_stim_LEFT.wav	1	6	blb_dichoticlistening_ba-ta.mp3	ba	ta	1	right
6.6.1	mac	2023-06-13	10:30:29	10:45:26	893781	61592ea07347e286bca1955f	1	1	main_slash	24	advance_on_keypress_SLASH	126	stimuli_distractor_trianglediamonds.svg	stimuli_target_trianglesquares.svg	26	yes	57	0	109	6	5	antiphase_hc_osi.wav	2	6	3	noise_calib_stim_LEFT.wav	1	6	blb_dichoticlistening_ba-ta.mp3	ba	ta	1	right
6.6.1	mac	2023-06-13	10:30:29	10:45:27	895265	61592ea07347e286bca1955f	1	1	main_slash	24	main_slash	127	stimuli_target_trianglerectangles.svg	stimuli_distractor_diamondtriangles.svg	21	yes	53	1	727	6	5	antiphase_hc_osi.wav	2	6	3	noise_calib_stim_LEFT.wav	1	6	blb_dichoticlistening_ba-ta.mp3	ba	ta	1	right
6.6.1	mac	2023-06-13	10:30:29	10:45:27	895265	61592ea07347e286bca1955f	1	1	main_slash	24	advance_on_keypress_SLASH	128	stimuli_target_trianglerectangles.svg	stimuli_distractor_diamondtriangles.svg	21	yes	57	0	111	6	5	antiphase_hc_osi.wav	2	6	3	noise_calib_stim_LEFT.wav	1	6	blb_dichoticlistening_ba-ta.mp3	ba	ta	1	right
6.6.1	mac	2023-06-13	10:30:29	10:45:30	898021	61592ea07347e286bca1955f	1	1	main_slash	24	main_slash	129	stimuli_distractor_trianglediamonds.svg	stimuli_distractor_trianglediamonds.svg	34	no	0	1	2000	6	5	antiphase_hc_osi.wav	2	6	3	noise_calib_stim_LEFT.wav	1	6	blb_dichoticlistening_ba-ta.mp3	ba	ta	1	right
6.6.1	mac	2023-06-13	10:30:29	10:45:30	898021	61592ea07347e286bca1955f	1	1	main_slash	24	advance_on_keypress_SLASH	130	stimuli_distractor_trianglediamonds.svg	stimuli_distractor_trianglediamonds.svg	34	no	57	0	285	6	5	antiphase_hc_osi.wav	2	6	3	noise_calib_stim_LEFT.wav	1	6	blb_dichoticlistening_ba-ta.mp3	ba	ta	1	right
6.6.1	mac	2023-06-13	10:30:29	10:45:33	900373	61592ea07347e286bca1955f	1	1	main_slash	24	main_slash	131	stimuli_distractor_trianglediamonds.svg	stimuli_distractor_diamondtriangles.svg	35	no	53	0	1435	6	5	antiphase_hc_osi.wav	2	6	3	noise_calib_stim_LEFT.wav	1	6	blb_dichoticlistening_ba-ta.mp3	ba	ta	1	right
6.6.1	mac	2023-06-13	10:30:29	10:45:33	900373	61592ea07347e286bca1955f	1	1	main_slash	24	advance_on_keypress_SLASH	132	stimuli_distractor_trianglediamonds.svg	stimuli_distractor_diamondtriangles.svg	35	no	57	0	343	6	5	antiphase_hc_osi.wav	2	6	3	noise_calib_stim_LEFT.wav	1	6	blb_dichoticlistening_ba-ta.mp3	ba	ta	1	right
6.6.1	mac	2023-06-13	10:30:29	10:45:35	902398	61592ea07347e286bca1955f	1	1	main_slash	24	main_slash	133	stimuli_distractor_diamondtriangles.svg	stimuli_target_trianglesquares.svg	30	yes	53	1	1059	6	5	antiphase_hc_osi.wav	2	6	3	noise_calib_stim_LEFT.wav	1	6	blb_dichoticlistening_ba-ta.mp3	ba	ta	1	right
6.6.1	mac	2023-06-13	10:30:29	10:45:35	902398	61592ea07347e286bca1955f	1	1	main_slash	24	advance_on_keypress_SLASH	134	stimuli_distractor_diamondtriangles.svg	stimuli_target_trianglesquares.svg	30	yes	57	0	158	6	5	antiphase_hc_osi.wav	2	6	3	noise_calib_stim_LEFT.wav	1	6	blb_dichoticlistening_ba-ta.mp3	ba	ta	1	right
6.6.1	mac	2023-06-13	10:30:29	10:45:36	903971	61592ea07347e286bca1955f	1	1	main_slash	24	main_slash	135	stimuli_target_trianglerectangles.svg	stimuli_distractor_trianglediamonds.svg	17	yes	53	1	766	6	5	antiphase_hc_osi.wav	2	6	3	noise_calib_stim_LEFT.wav	1	6	blb_dichoticlistening_ba-ta.mp3	ba	ta	1	right
6.6.1	mac	2023-06-13	10:30:29	10:45:36	903971	61592ea07347e286bca1955f	1	1	main_slash	24	advance_on_keypress_SLASH	136	stimuli_target_trianglerectangles.svg	stimuli_distractor_trianglediamonds.svg	17	yes	57	0	164	6	5	antiphase_hc_osi.wav	2	6	3	noise_calib_stim_LEFT.wav	1	6	blb_dichoticlistening_ba-ta.mp3	ba	ta	1	right
6.6.1	mac	2023-06-13	10:30:29	10:45:38	906064	61592ea07347e286bca1955f	1	1	main_slash	24	main_slash	137	stimuli_distractor_diamondtriangles.svg	stimuli_distractor_diamondtriangles.svg	39	no	53	0	1292	6	5	antiphase_hc_osi.wav	2	6	3	noise_calib_stim_LEFT.wav	1	6	blb_dichoticlistening_ba-ta.mp3	ba	ta	1	right
6.6.1	mac	2023-06-13	10:30:29	10:45:38	906064	61592ea07347e286bca1955f	1	1	main_slash	24	advance_on_keypress_SLASH	138	stimuli_distractor_diamondtriangles.svg	stimuli_distractor_diamondtriangles.svg	39	no	57	0	567	6	5	antiphase_hc_osi.wav	2	6	3	noise_calib_stim_LEFT.wav	1	6	blb_dichoticlistening_ba-ta.mp3	ba	ta	1	right
6.6.1	mac	2023-06-13	10:30:29	10:45:41	908335	61592ea07347e286bca1955f	1	1	main_slash	24	main_slash	139	stimuli_distractor_diamondtriangles.svg	stimuli_target_trianglerectangles.svg	29	yes	53	1	1063	6	5	antiphase_hc_osi.wav	2	6	3	noise_calib_stim_LEFT.wav	1	6	blb_dichoticlistening_ba-ta.mp3	ba	ta	1	right
6.6.1	mac	2023-06-13	10:30:29	10:45:41	908335	61592ea07347e286bca1955f	1	1	main_slash	24	advance_on_keypress_SLASH	140	stimuli_distractor_diamondtriangles.svg	stimuli_target_trianglerectangles.svg	29	yes	57	0	162	6	5	antiphase_hc_osi.wav	2	6	3	noise_calib_stim_LEFT.wav	1	6	blb_dichoticlistening_ba-ta.mp3	ba	ta	1	right
6.6.1	mac	2023-06-13	10:30:29	10:45:42	909891	61592ea07347e286bca1955f	1	1	main_slash	24	main_slash	141	stimuli_distractor_trianglediamonds.svg	stimuli_target_diamondrectangles.svg	27	yes	53	1	752	6	5	antiphase_hc_osi.wav	2	6	3	noise_calib_stim_LEFT.wav	1	6	blb_dichoticlistening_ba-ta.mp3	ba	ta	1	right
6.6.1	mac	2023-06-13	10:30:29	10:45:42	909891	61592ea07347e286bca1955f	1	1	main_slash	24	advance_on_keypress_SLASH	142	stimuli_distractor_trianglediamonds.svg	stimuli_target_diamondrectangles.svg	27	yes	57	0	120	6	5	antiphase_hc_osi.wav	2	6	3	noise_calib_stim_LEFT.wav	1	6	blb_dichoticlistening_ba-ta.mp3	ba	ta	1	right
6.6.1	mac	2023-06-13	10:30:29	10:45:44	911893	61592ea07347e286bca1955f	1	1	main_slash	24	main_slash	143	stimuli_target_rectanglediamonds.svg	stimuli_distractor_diamondtriangles.svg	6	yes	53	1	1254	6	5	antiphase_hc_osi.wav	2	6	3	noise_calib_stim_LEFT.wav	1	6	blb_dichoticlistening_ba-ta.mp3	ba	ta	1	right
6.6.1	mac	2023-06-13	10:30:29	10:45:44	911893	61592ea07347e286bca1955f	1	1	main_slash	24	advance_on_keypress_SLASH	144	stimuli_target_rectanglediamonds.svg	stimuli_distractor_diamondtriangles.svg	6	yes	57	0	314	6	5	antiphase_hc_osi.wav	2	6	3	noise_calib_stim_LEFT.wav	1	6	blb_dichoticlistening_ba-ta.mp3	ba	ta	1	right
6.6.1	mac	2023-06-13	10:30:29	10:45:46	913579	61592ea07347e286bca1955f	1	1	main_slash	24	main_slash	145	stimuli_distractor_trianglediamonds.svg	stimuli_target_rectangletriangles.svg	9	yes	53	1	741	6	5	antiphase_hc_osi.wav	2	6	3	noise_calib_stim_LEFT.wav	1	6	blb_dichoticlistening_ba-ta.mp3	ba	ta	1	right
6.6.1	mac	2023-06-13	10:30:29	10:45:46	913579	61592ea07347e286bca1955f	1	1	main_slash	24	advance_on_keypress_SLASH	146	stimuli_distractor_trianglediamonds.svg	stimuli_target_rectangletriangles.svg	9	yes	57	0	116	6	5	antiphase_hc_osi.wav	2	6	3	noise_calib_stim_LEFT.wav	1	6	blb_dichoticlistening_ba-ta.mp3	ba	ta	1	right
6.6.1	mac	2023-06-13	10:30:29	10:45:49	916338	61592ea07347e286bca1955f	1	1	main_slash	24	main_slash	147	stimuli_distractor_trianglediamonds.svg	stimuli_distractor_trianglediamonds.svg	33	no	0	1	2000	6	5	antiphase_hc_osi.wav	2	6	3	noise_calib_stim_LEFT.wav	1	6	blb_dichoticlistening_ba-ta.mp3	ba	ta	1	right
6.6.1	mac	2023-06-13	10:30:29	10:45:49	916338	61592ea07347e286bca1955f	1	1	main_slash	24	advance_on_keypress_SLASH	148	stimuli_distractor_trianglediamonds.svg	stimuli_distractor_trianglediamonds.svg	33	no	57	0	329	6	5	antiphase_hc_osi.wav	2	6	3	noise_calib_stim_LEFT.wav	1	6	blb_dichoticlistening_ba-ta.mp3	ba	ta	1	right
6.6.1	mac	2023-06-13	10:30:29	10:45:51	918395	61592ea07347e286bca1955f	1	1	main_slash	24	main_slash	149	stimuli_distractor_trianglediamonds.svg	stimuli_target_squaretriangles.svg	11	yes	53	1	1089	6	5	antiphase_hc_osi.wav	2	6	3	noise_calib_stim_LEFT.wav	1	6	blb_dichoticlistening_ba-ta.mp3	ba	ta	1	right
6.6.1	mac	2023-06-13	10:30:29	10:45:51	918395	61592ea07347e286bca1955f	1	1	main_slash	24	advance_on_keypress_SLASH	150	stimuli_distractor_trianglediamonds.svg	stimuli_target_squaretriangles.svg	11	yes	57	0	113	6	5	antiphase_hc_osi.wav	2	6	3	noise_calib_stim_LEFT.wav	1	6	blb_dichoticlistening_ba-ta.mp3	ba	ta	1	right
6.6.1	mac	2023-06-13	10:30:29	10:45:52	919992	61592ea07347e286bca1955f	1	1	main_slash	24	main_slash	151	stimuli_distractor_diamondtriangles.svg	stimuli_target_diamondrectangles.svg	31	yes	53	1	854	6	5	antiphase_hc_osi.wav	2	6	3	noise_calib_stim_LEFT.wav	1	6	blb_dichoticlistening_ba-ta.mp3	ba	ta	1	right
6.6.1	mac	2023-06-13	10:30:29	10:45:52	919992	61592ea07347e286bca1955f	1	1	main_slash	24	advance_on_keypress_SLASH	152	stimuli_distractor_diamondtriangles.svg	stimuli_target_diamondrectangles.svg	31	yes	57	0	211	6	5	antiphase_hc_osi.wav	2	6	3	noise_calib_stim_LEFT.wav	1	6	blb_dichoticlistening_ba-ta.mp3	ba	ta	1	right
6.6.1	mac	2023-06-13	10:30:29	10:45:55	922838	61592ea07347e286bca1955f	1	1	main_slash	24	main_slash	153	stimuli_target_rectangletriangles.svg	stimuli_distractor_diamondtriangles.svg	5	yes	0	0	2000	6	5	antiphase_hc_osi.wav	2	6	3	noise_calib_stim_LEFT.wav	1	6	blb_dichoticlistening_ba-ta.mp3	ba	ta	1	right
6.6.1	mac	2023-06-13	10:30:29	10:45:55	922838	61592ea07347e286bca1955f	1	1	main_slash	24	advance_on_keypress_SLASH	154	stimuli_target_rectangletriangles.svg	stimuli_distractor_diamondtriangles.svg	5	yes	57	0	310	6	5	antiphase_hc_osi.wav	2	6	3	noise_calib_stim_LEFT.wav	1	6	blb_dichoticlistening_ba-ta.mp3	ba	ta	1	right
6.6.1	mac	2023-06-13	10:30:29	10:45:58	925789	61592ea07347e286bca1955f	1	1	main_slash	24	main_slash	155	stimuli_distractor_diamondtriangles.svg	stimuli_distractor_diamondtriangles.svg	40	no	0	1	2000	6	5	antiphase_hc_osi.wav	2	6	3	noise_calib_stim_LEFT.wav	1	6	blb_dichoticlistening_ba-ta.mp3	ba	ta	1	right
6.6.1	mac	2023-06-13	10:30:29	10:45:58	925789	61592ea07347e286bca1955f	1	1	main_slash	24	advance_on_keypress_SLASH	156	stimuli_distractor_diamondtriangles.svg	stimuli_distractor_diamondtriangles.svg	40	no	57	0	170	6	5	antiphase_hc_osi.wav	2	6	3	noise_calib_stim_LEFT.wav	1	6	blb_dichoticlistening_ba-ta.mp3	ba	ta	1	right
6.6.1	mac	2023-06-13	10:30:29	10:46:00	927460	61592ea07347e286bca1955f	1	1	main_slash	24	main_slash	157	stimuli_distractor_trianglediamonds.svg	stimuli_target_squarediamonds.svg	12	yes	53	1	873	6	5	antiphase_hc_osi.wav	2	6	3	noise_calib_stim_LEFT.wav	1	6	blb_dichoticlistening_ba-ta.mp3	ba	ta	1	right
6.6.1	mac	2023-06-13	10:30:29	10:46:00	927460	61592ea07347e286bca1955f	1	1	main_slash	24	advance_on_keypress_SLASH	158	stimuli_distractor_trianglediamonds.svg	stimuli_target_squarediamonds.svg	12	yes	57	0	125	6	5	antiphase_hc_osi.wav	2	6	3	noise_calib_stim_LEFT.wav	1	6	blb_dichoticlistening_ba-ta.mp3	ba	ta	1	right
6.6.1	mac	2023-06-13	10:30:29	10:46:02	929869	61592ea07347e286bca1955f	1	1	main_slash	24	main_slash	159	stimuli_target_rectangletriangles.svg	stimuli_distractor_trianglediamonds.svg	1	yes	53	1	1663	6	5	antiphase_hc_osi.wav	2	6	3	noise_calib_stim_LEFT.wav	1	6	blb_dichoticlistening_ba-ta.mp3	ba	ta	1	right
6.6.1	mac	2023-06-13	10:30:29	10:46:02	929869	61592ea07347e286bca1955f	1	1	main_slash	24	advance_on_keypress_SLASH	160	stimuli_target_rectangletriangles.svg	stimuli_distractor_trianglediamonds.svg	1	yes	57	0	113	6	5	antiphase_hc_osi.wav	2	6	3	noise_calib_stim_LEFT.wav	1	6	blb_dichoticlistening_ba-ta.mp3	ba	ta	1	right
6.6.1	mac	2023-06-13	10:30:29	10:46:38	965390	61592ea07347e286bca1955f	1	1	practice_z	26	practice_z	1	stimuli_distractor_trianglediamonds.svg	stimuli_distractor_diamondtriangles.svg	16	no	0	1	2000	6	5	antiphase_hc_osi.wav	2	6	3	noise_calib_stim_LEFT.wav	1	6	blb_dichoticlistening_ba-ta.mp3	ba	ta	1	right
6.6.1	mac	2023-06-13	10:30:29	10:46:38	965390	61592ea07347e286bca1955f	1	1	practice_z	26	advance_on_keypress_ZEE	2	stimuli_distractor_trianglediamonds.svg	stimuli_distractor_diamondtriangles.svg	16	no	57	0	568	6	5	antiphase_hc_osi.wav	2	6	3	noise_calib_stim_LEFT.wav	1	6	blb_dichoticlistening_ba-ta.mp3	ba	ta	1	right
6.6.1	mac	2023-06-13	10:30:29	10:46:41	968443	61592ea07347e286bca1955f	1	1	practice_z	26	practice_z	3	stimuli_distractor_diamondtriangles.svg	stimuli_target_diamondrectangles.svg	8	yes	44	1	836	6	5	antiphase_hc_osi.wav	2	6	3	noise_calib_stim_LEFT.wav	1	6	blb_dichoticlistening_ba-ta.mp3	ba	ta	1	right
6.6.1	mac	2023-06-13	10:30:29	10:46:41	968443	61592ea07347e286bca1955f	1	1	practice_z	26	advance_on_keypress_ZEE	4	stimuli_distractor_diamondtriangles.svg	stimuli_target_diamondrectangles.svg	8	yes	57	0	539	6	5	antiphase_hc_osi.wav	2	6	3	noise_calib_stim_LEFT.wav	1	6	blb_dichoticlistening_ba-ta.mp3	ba	ta	1	right
6.6.1	mac	2023-06-13	10:30:29	10:46:44	971796	61592ea07347e286bca1955f	1	1	practice_z	26	practice_z	5	stimuli_target_rectanglediamonds.svg	stimuli_distractor_trianglediamonds.svg	4	yes	44	1	1189	6	5	antiphase_hc_osi.wav	2	6	3	noise_calib_stim_LEFT.wav	1	6	blb_dichoticlistening_ba-ta.mp3	ba	ta	1	right
6.6.1	mac	2023-06-13	10:30:29	10:46:44	971796	61592ea07347e286bca1955f	1	1	practice_z	26	advance_on_keypress_ZEE	6	stimuli_target_rectanglediamonds.svg	stimuli_distractor_trianglediamonds.svg	4	yes	57	0	855	6	5	antiphase_hc_osi.wav	2	6	3	noise_calib_stim_LEFT.wav	1	6	blb_dichoticlistening_ba-ta.mp3	ba	ta	1	right
6.6.1	mac	2023-06-13	10:30:29	10:46:48	976273	61592ea07347e286bca1955f	1	1	practice_z	26	practice_z	7	stimuli_distractor_trianglediamonds.svg	stimuli_distractor_trianglediamonds.svg	15	no	0	1	2000	6	5	antiphase_hc_osi.wav	2	6	3	noise_calib_stim_LEFT.wav	1	6	blb_dichoticlistening_ba-ta.mp3	ba	ta	1	right
6.6.1	mac	2023-06-13	10:30:29	10:46:48	976273	61592ea07347e286bca1955f	1	1	practice_z	26	advance_on_keypress_ZEE	8	stimuli_distractor_trianglediamonds.svg	stimuli_distractor_trianglediamonds.svg	15	no	57	0	581	6	5	antiphase_hc_osi.wav	2	6	3	noise_calib_stim_LEFT.wav	1	6	blb_dichoticlistening_ba-ta.mp3	ba	ta	1	right
6.6.1	mac	2023-06-13	10:30:29	10:46:52	979468	61592ea07347e286bca1955f	1	1	practice_z	26	practice_z	9	stimuli_target_rectanglediamonds.svg	stimuli_distractor_diamondtriangles.svg	1	yes	44	1	978	6	5	antiphase_hc_osi.wav	2	6	3	noise_calib_stim_LEFT.wav	1	6	blb_dichoticlistening_ba-ta.mp3	ba	ta	1	right
6.6.1	mac	2023-06-13	10:30:29	10:46:52	979468	61592ea07347e286bca1955f	1	1	practice_z	26	advance_on_keypress_ZEE	10	stimuli_target_rectanglediamonds.svg	stimuli_distractor_diamondtriangles.svg	1	yes	57	0	348	6	5	antiphase_hc_osi.wav	2	6	3	noise_calib_stim_LEFT.wav	1	6	blb_dichoticlistening_ba-ta.mp3	ba	ta	1	right
6.6.1	mac	2023-06-13	10:30:29	10:46:56	983458	61592ea07347e286bca1955f	1	1	practice_z	26	practice_z	11	stimuli_distractor_diamondtriangles.svg	stimuli_distractor_diamondtriangles.svg	13	no	0	1	2000	6	5	antiphase_hc_osi.wav	2	6	3	noise_calib_stim_LEFT.wav	1	6	blb_dichoticlistening_ba-ta.mp3	ba	ta	1	right
6.6.1	mac	2023-06-13	10:30:29	10:46:56	983458	61592ea07347e286bca1955f	1	1	practice_z	26	advance_on_keypress_ZEE	12	stimuli_distractor_diamondtriangles.svg	stimuli_distractor_diamondtriangles.svg	13	no	57	0	304	6	5	antiphase_hc_osi.wav	2	6	3	noise_calib_stim_LEFT.wav	1	6	blb_dichoticlistening_ba-ta.mp3	ba	ta	1	right
6.6.1	mac	2023-06-13	10:30:29	10:46:59	986868	61592ea07347e286bca1955f	1	1	practice_z	26	practice_z	13	stimuli_distractor_trianglediamonds.svg	stimuli_target_diamondrectangles.svg	12	yes	44	1	1480	6	5	antiphase_hc_osi.wav	2	6	3	noise_calib_stim_LEFT.wav	1	6	blb_dichoticlistening_ba-ta.mp3	ba	ta	1	right
6.6.1	mac	2023-06-13	10:30:29	10:46:59	986868	61592ea07347e286bca1955f	1	1	practice_z	26	advance_on_keypress_ZEE	14	stimuli_distractor_trianglediamonds.svg	stimuli_target_diamondrectangles.svg	12	yes	57	0	398	6	5	antiphase_hc_osi.wav	2	6	3	noise_calib_stim_LEFT.wav	1	6	blb_dichoticlistening_ba-ta.mp3	ba	ta	1	right
6.6.1	mac	2023-06-13	10:30:29	10:47:02	990086	61592ea07347e286bca1955f	1	1	practice_z	26	practice_z	15	stimuli_distractor_diamondtriangles.svg	stimuli_target_rectangletriangles.svg	7	yes	44	1	1180	6	5	antiphase_hc_osi.wav	2	6	3	noise_calib_stim_LEFT.wav	1	6	blb_dichoticlistening_ba-ta.mp3	ba	ta	1	right
