build	computer.platform	date	time	timestamp	time_elapsed_ms	subject	group	session	blockcode	blocknum	trialcode	trialnum	stimulus_left	stimulus_right	stim_index	target_present	response	correct	latency	headphonecheck_countTestTrials	headphonecheck_index	headphonecheck_testSound	headphonecheck_correctResponse	stereocheck_countTestTrials	stereocheck_index	stereocheck_testSound	stereocheck_correctResponse	DL_index	DL_soundfile	DL_leftSound	DL_rightSound	DL_dualSound	DL_choice
6.6.1	win	2023-06-27	07:19:44	07:22:38	170883	5f2ef53d7729c52ae63230a2	3	1	practice_slash	5	practice_slash	1	stimuli_target_squarediamonds.svg	stimuli_distractor_trianglediamonds.svg	5	yes	0	0	2000	0	0			0	0			1				0	
6.6.1	win	2023-06-27	07:19:44	07:22:38	170883	5f2ef53d7729c52ae63230a2	3	1	practice_slash	5	advance_on_keypress_SLASH	2	stimuli_target_squarediamonds.svg	stimuli_distractor_trianglediamonds.svg	5	yes	57	0	9385	0	0			0	0			1				0	
6.6.1	win	2023-06-27	07:19:44	07:22:51	183105	5f2ef53d7729c52ae63230a2	3	1	practice_slash	5	practice_slash	3	stimuli_distractor_trianglediamonds.svg	stimuli_distractor_diamondtriangles.svg	16	no	53	0	1170	0	0			0	0			1				0	
6.6.1	win	2023-06-27	07:19:44	07:22:51	183105	5f2ef53d7729c52ae63230a2	3	1	practice_slash	5	advance_on_keypress_SLASH	4	stimuli_distractor_trianglediamonds.svg	stimuli_distractor_diamondtriangles.svg	16	no	57	0	2711	0	0			0	0			1				0	
6.6.1	win	2023-06-27	07:19:44	07:22:57	189457	5f2ef53d7729c52ae63230a2	3	1	practice_slash	5	practice_slash	5	stimuli_distractor_diamondtriangles.svg	stimuli_target_diamondrectangles.svg	8	yes	0	0	2000	0	0			0	0			1				0	
6.6.1	win	2023-06-27	07:19:44	07:22:57	189457	5f2ef53d7729c52ae63230a2	3	1	practice_slash	5	advance_on_keypress_SLASH	6	stimuli_distractor_diamondtriangles.svg	stimuli_target_diamondrectangles.svg	8	yes	57	0	2282	0	0			0	0			1				0	
6.6.1	win	2023-06-27	07:19:44	07:23:02	193945	5f2ef53d7729c52ae63230a2	3	1	practice_slash	5	practice_slash	7	stimuli_distractor_diamondtriangles.svg	stimuli_distractor_diamondtriangles.svg	13	no	53	0	566	0	0			0	0			1				0	
6.6.1	win	2023-06-27	07:19:44	07:23:02	193945	5f2ef53d7729c52ae63230a2	3	1	practice_slash	5	advance_on_keypress_SLASH	8	stimuli_distractor_diamondtriangles.svg	stimuli_distractor_diamondtriangles.svg	13	no	57	0	816	0	0			0	0			1				0	
6.6.1	win	2023-06-27	07:19:44	07:23:06	198394	5f2ef53d7729c52ae63230a2	3	1	practice_slash	5	practice_slash	9	stimuli_target_diamondsquares.svg	stimuli_distractor_diamondtriangles.svg	3	yes	0	0	2000	0	0			0	0			1				0	
6.6.1	win	2023-06-27	07:19:44	07:23:06	198394	5f2ef53d7729c52ae63230a2	3	1	practice_slash	5	advance_on_keypress_SLASH	10	stimuli_target_diamondsquares.svg	stimuli_distractor_diamondtriangles.svg	3	yes	57	0	881	0	0			0	0			1				0	
6.6.1	win	2023-06-27	07:19:44	07:23:09	201256	5f2ef53d7729c52ae63230a2	3	1	practice_slash	5	practice_slash	11	stimuli_distractor_trianglediamonds.svg	stimuli_target_squarediamonds.svg	11	yes	53	1	342	0	0			0	0			1				0	
6.6.1	win	2023-06-27	07:19:44	07:23:09	201256	5f2ef53d7729c52ae63230a2	3	1	practice_slash	5	advance_on_keypress_SLASH	12	stimuli_distractor_trianglediamonds.svg	stimuli_target_squarediamonds.svg	11	yes	57	0	1002	0	0			0	0			1				0	
6.6.1	win	2023-06-27	07:19:44	07:23:12	204353	5f2ef53d7729c52ae63230a2	3	1	practice_slash	5	practice_slash	13	stimuli_target_rectanglediamonds.svg	stimuli_distractor_diamondtriangles.svg	1	yes	53	1	463	0	0			0	0			1				0	
6.6.1	win	2023-06-27	07:19:44	07:23:12	204353	5f2ef53d7729c52ae63230a2	3	1	practice_slash	5	advance_on_keypress_SLASH	14	stimuli_target_rectanglediamonds.svg	stimuli_distractor_diamondtriangles.svg	1	yes	57	0	734	0	0			0	0			1				0	
6.6.1	win	2023-06-27	07:19:44	07:23:16	208731	5f2ef53d7729c52ae63230a2	3	1	practice_slash	5	practice_slash	15	stimuli_distractor_diamondtriangles.svg	stimuli_target_trianglerectangles.svg	9	yes	0	0	2000	0	0			0	0			1				0	
6.6.1	win	2023-06-27	07:19:44	07:23:16	208731	5f2ef53d7729c52ae63230a2	3	1	practice_slash	5	advance_on_keypress_SLASH	16	stimuli_distractor_diamondtriangles.svg	stimuli_target_trianglerectangles.svg	9	yes	57	0	663	0	0			0	0			1				0	
6.6.1	win	2023-06-27	07:19:44	07:23:21	213039	5f2ef53d7729c52ae63230a2	3	1	practice_slash	5	practice_slash	17	stimuli_distractor_trianglediamonds.svg	stimuli_distractor_trianglediamonds.svg	15	no	0	1	2000	0	0			0	0			1				0	
6.6.1	win	2023-06-27	07:19:44	07:23:21	213039	5f2ef53d7729c52ae63230a2	3	1	practice_slash	5	advance_on_keypress_SLASH	18	stimuli_distractor_trianglediamonds.svg	stimuli_distractor_trianglediamonds.svg	15	no	57	0	931	0	0			0	0			1				0	
6.6.1	win	2023-06-27	07:19:44	07:23:24	215948	5f2ef53d7729c52ae63230a2	3	1	practice_slash	5	practice_slash	19	stimuli_distractor_diamondtriangles.svg	stimuli_distractor_trianglediamonds.svg	14	no	53	0	323	0	0			0	0			1				0	
6.6.1	win	2023-06-27	07:19:44	07:23:24	215948	5f2ef53d7729c52ae63230a2	3	1	practice_slash	5	advance_on_keypress_SLASH	20	stimuli_distractor_diamondtriangles.svg	stimuli_distractor_trianglediamonds.svg	14	no	57	0	551	0	0			0	0			1				0	
6.6.1	win	2023-06-27	07:19:44	07:23:26	218480	5f2ef53d7729c52ae63230a2	3	1	practice_slash	5	practice_slash	21	stimuli_target_squarediamonds.svg	stimuli_distractor_diamondtriangles.svg	2	yes	53	1	346	0	0			0	0			1				0	
6.6.1	win	2023-06-27	07:19:44	07:23:26	218480	5f2ef53d7729c52ae63230a2	3	1	practice_slash	5	advance_on_keypress_SLASH	22	stimuli_target_squarediamonds.svg	stimuli_distractor_diamondtriangles.svg	2	yes	57	0	586	0	0			0	0			1				0	
6.6.1	win	2023-06-27	07:19:44	07:23:29	221229	5f2ef53d7729c52ae63230a2	3	1	practice_slash	5	practice_slash	23	stimuli_distractor_diamondtriangles.svg	stimuli_target_rectangletriangles.svg	7	yes	53	1	507	0	0			0	0			1				0	
6.6.1	win	2023-06-27	07:19:44	07:23:29	221229	5f2ef53d7729c52ae63230a2	3	1	practice_slash	5	advance_on_keypress_SLASH	24	stimuli_distractor_diamondtriangles.svg	stimuli_target_rectangletriangles.svg	7	yes	57	0	645	0	0			0	0			1				0	
6.6.1	win	2023-06-27	07:19:44	07:23:32	224145	5f2ef53d7729c52ae63230a2	3	1	practice_slash	5	practice_slash	25	stimuli_target_rectanglediamonds.svg	stimuli_distractor_trianglediamonds.svg	4	yes	53	1	634	0	0			0	0			1				0	
6.6.1	win	2023-06-27	07:19:44	07:23:32	224145	5f2ef53d7729c52ae63230a2	3	1	practice_slash	5	advance_on_keypress_SLASH	26	stimuli_target_rectanglediamonds.svg	stimuli_distractor_trianglediamonds.svg	4	yes	57	0	785	0	0			0	0			1				0	
6.6.1	win	2023-06-27	07:19:44	07:23:36	228565	5f2ef53d7729c52ae63230a2	3	1	practice_slash	5	practice_slash	27	stimuli_distractor_trianglediamonds.svg	stimuli_target_diamondrectangles.svg	12	yes	0	0	2000	0	0			0	0			1				0	
6.6.1	win	2023-06-27	07:19:44	07:23:36	228565	5f2ef53d7729c52ae63230a2	3	1	practice_slash	5	advance_on_keypress_SLASH	28	stimuli_distractor_trianglediamonds.svg	stimuli_target_diamondrectangles.svg	12	yes	57	0	461	0	0			0	0			1				0	
6.6.1	win	2023-06-27	07:19:44	07:23:39	231046	5f2ef53d7729c52ae63230a2	3	1	practice_slash	5	practice_slash	29	stimuli_distractor_trianglediamonds.svg	stimuli_target_rectanglediamonds.svg	10	yes	53	1	381	0	0			0	0			1				0	
6.6.1	win	2023-06-27	07:19:44	07:23:39	231046	5f2ef53d7729c52ae63230a2	3	1	practice_slash	5	advance_on_keypress_SLASH	30	stimuli_distractor_trianglediamonds.svg	stimuli_target_rectanglediamonds.svg	10	yes	57	0	684	0	0			0	0			1				0	
6.6.1	win	2023-06-27	07:19:44	07:23:43	235368	5f2ef53d7729c52ae63230a2	3	1	practice_slash	5	practice_slash	31	stimuli_target_diamondsquares.svg	stimuli_distractor_trianglediamonds.svg	6	yes	0	0	2000	0	0			0	0			1				0	
6.6.1	win	2023-06-27	07:19:44	07:23:43	235368	5f2ef53d7729c52ae63230a2	3	1	practice_slash	5	advance_on_keypress_SLASH	32	stimuli_target_diamondsquares.svg	stimuli_distractor_trianglediamonds.svg	6	yes	57	0	514	0	0			0	0			1				0	
6.6.1	win	2023-06-27	07:19:44	07:23:55	247580	5f2ef53d7729c52ae63230a2	3	1	main_slash	7	main_slash	1	stimuli_distractor_diamondtriangles.svg	stimuli_distractor_diamondtriangles.svg	40	no	53	0	563	0	0			0	0			1				0	
6.6.1	win	2023-06-27	07:19:44	07:23:55	247580	5f2ef53d7729c52ae63230a2	3	1	main_slash	7	advance_on_keypress_SLASH	2	stimuli_distractor_diamondtriangles.svg	stimuli_distractor_diamondtriangles.svg	40	no	57	0	1414	0	0			0	0			1				0	
6.6.1	win	2023-06-27	07:19:44	07:23:58	249983	5f2ef53d7729c52ae63230a2	3	1	main_slash	7	main_slash	3	stimuli_target_squaretriangles.svg	stimuli_distractor_diamondtriangles.svg	7	yes	53	1	357	0	0			0	0			1				0	
6.6.1	win	2023-06-27	07:19:44	07:23:58	249983	5f2ef53d7729c52ae63230a2	3	1	main_slash	7	advance_on_keypress_SLASH	4	stimuli_target_squaretriangles.svg	stimuli_distractor_diamondtriangles.svg	7	yes	57	0	2053	0	0			0	0			1				0	
6.6.1	win	2023-06-27	07:19:44	07:24:02	254668	5f2ef53d7729c52ae63230a2	3	1	main_slash	7	main_slash	5	stimuli_distractor_diamondtriangles.svg	stimuli_target_trianglerectangles.svg	29	yes	0	0	2000	0	0			0	0			1				0	
6.6.1	win	2023-06-27	07:19:44	07:24:02	254668	5f2ef53d7729c52ae63230a2	3	1	main_slash	7	advance_on_keypress_SLASH	6	stimuli_distractor_diamondtriangles.svg	stimuli_target_trianglerectangles.svg	29	yes	57	0	622	0	0			0	0			1				0	
6.6.1	win	2023-06-27	07:19:44	07:24:05	257922	5f2ef53d7729c52ae63230a2	3	1	main_slash	7	main_slash	7	stimuli_distractor_trianglediamonds.svg	stimuli_distractor_diamondtriangles.svg	36	no	0	1	2000	0	0			0	0			1				0	
6.6.1	win	2023-06-27	07:19:44	07:24:05	257922	5f2ef53d7729c52ae63230a2	3	1	main_slash	7	advance_on_keypress_SLASH	8	stimuli_distractor_trianglediamonds.svg	stimuli_distractor_diamondtriangles.svg	36	no	57	0	463	0	0			0	0			1				0	
6.6.1	win	2023-06-27	07:19:44	07:24:07	259367	5f2ef53d7729c52ae63230a2	3	1	main_slash	7	main_slash	9	stimuli_target_rectanglediamonds.svg	stimuli_distractor_trianglediamonds.svg	2	yes	53	1	351	0	0			0	0			1				0	
6.6.1	win	2023-06-27	07:19:44	07:24:07	259367	5f2ef53d7729c52ae63230a2	3	1	main_slash	7	advance_on_keypress_SLASH	10	stimuli_target_rectanglediamonds.svg	stimuli_distractor_trianglediamonds.svg	2	yes	57	0	1022	0	0			0	0			1				0	
6.6.1	win	2023-06-27	07:19:44	07:24:11	263018	5f2ef53d7729c52ae63230a2	3	1	main_slash	7	main_slash	11	stimuli_distractor_trianglediamonds.svg	stimuli_distractor_diamondtriangles.svg	35	no	0	1	2000	0	0			0	0			1				0	
6.6.1	win	2023-06-27	07:19:44	07:24:11	263018	5f2ef53d7729c52ae63230a2	3	1	main_slash	7	advance_on_keypress_SLASH	12	stimuli_distractor_trianglediamonds.svg	stimuli_distractor_diamondtriangles.svg	35	no	57	0	704	0	0			0	0			1				0	
6.6.1	win	2023-06-27	07:19:44	07:24:14	266366	5f2ef53d7729c52ae63230a2	3	1	main_slash	7	main_slash	13	stimuli_target_diamondsquares.svg	stimuli_distractor_diamondtriangles.svg	24	yes	0	0	2000	0	0			0	0			1				0	
6.6.1	win	2023-06-27	07:19:44	07:24:14	266366	5f2ef53d7729c52ae63230a2	3	1	main_slash	7	advance_on_keypress_SLASH	14	stimuli_target_diamondsquares.svg	stimuli_distractor_diamondtriangles.svg	24	yes	57	0	468	0	0			0	0			1				0	
6.6.1	win	2023-06-27	07:19:44	07:24:17	269473	5f2ef53d7729c52ae63230a2	3	1	main_slash	7	main_slash	15	stimuli_distractor_diamondtriangles.svg	stimuli_distractor_diamondtriangles.svg	39	no	0	1	2000	0	0			0	0			1				0	
6.6.1	win	2023-06-27	07:19:44	07:24:17	269473	5f2ef53d7729c52ae63230a2	3	1	main_slash	7	advance_on_keypress_SLASH	16	stimuli_distractor_diamondtriangles.svg	stimuli_distractor_diamondtriangles.svg	39	no	57	0	480	0	0			0	0			1				0	
6.6.1	win	2023-06-27	07:19:44	07:24:20	272595	5f2ef53d7729c52ae63230a2	3	1	main_slash	7	main_slash	17	stimuli_distractor_trianglediamonds.svg	stimuli_target_rectangletriangles.svg	9	yes	0	0	2000	0	0			0	0			1				0	
6.6.1	win	2023-06-27	07:19:44	07:24:20	272595	5f2ef53d7729c52ae63230a2	3	1	main_slash	7	advance_on_keypress_SLASH	18	stimuli_distractor_trianglediamonds.svg	stimuli_target_rectangletriangles.svg	9	yes	57	0	575	0	0			0	0			1				0	
6.6.1	win	2023-06-27	07:19:44	07:24:23	275811	5f2ef53d7729c52ae63230a2	3	1	main_slash	7	main_slash	19	stimuli_distractor_diamondtriangles.svg	stimuli_target_trianglesquares.svg	30	yes	0	0	2000	0	0			0	0			1				0	
6.6.1	win	2023-06-27	07:19:44	07:24:23	275811	5f2ef53d7729c52ae63230a2	3	1	main_slash	7	advance_on_keypress_SLASH	20	stimuli_distractor_diamondtriangles.svg	stimuli_target_trianglesquares.svg	30	yes	57	0	504	0	0			0	0			1				0	
6.6.1	win	2023-06-27	07:19:44	07:24:25	277712	5f2ef53d7729c52ae63230a2	3	1	main_slash	7	main_slash	21	stimuli_target_diamondsquares.svg	stimuli_distractor_trianglediamonds.svg	20	yes	53	1	755	0	0			0	0			1				0	
6.6.1	win	2023-06-27	07:19:44	07:24:25	277712	5f2ef53d7729c52ae63230a2	3	1	main_slash	7	advance_on_keypress_SLASH	22	stimuli_target_diamondsquares.svg	stimuli_distractor_trianglediamonds.svg	20	yes	57	0	1434	0	0			0	0			1				0	
6.6.1	win	2023-06-27	07:19:44	07:24:29	281771	5f2ef53d7729c52ae63230a2	3	1	main_slash	7	main_slash	23	stimuli_distractor_diamondtriangles.svg	stimuli_distractor_trianglediamonds.svg	38	no	0	1	2000	0	0			0	0			1				0	
6.6.1	win	2023-06-27	07:19:44	07:24:29	281771	5f2ef53d7729c52ae63230a2	3	1	main_slash	7	advance_on_keypress_SLASH	24	stimuli_distractor_diamondtriangles.svg	stimuli_distractor_trianglediamonds.svg	38	no	57	0	486	0	0			0	0			1				0	
6.6.1	win	2023-06-27	07:19:44	07:24:31	283351	5f2ef53d7729c52ae63230a2	3	1	main_slash	7	main_slash	25	stimuli_distractor_diamondtriangles.svg	stimuli_target_squaretriangles.svg	15	yes	53	1	459	0	0			0	0			1				0	
6.6.1	win	2023-06-27	07:19:44	07:24:31	283351	5f2ef53d7729c52ae63230a2	3	1	main_slash	7	advance_on_keypress_SLASH	26	stimuli_distractor_diamondtriangles.svg	stimuli_target_squaretriangles.svg	15	yes	57	0	984	0	0			0	0			1				0	
6.6.1	win	2023-06-27	07:19:44	07:24:33	285375	5f2ef53d7729c52ae63230a2	3	1	main_slash	7	main_slash	27	stimuli_target_squaretriangles.svg	stimuli_distractor_trianglediamonds.svg	3	yes	53	1	415	0	0			0	0			1				0	
6.6.1	win	2023-06-27	07:19:44	07:24:33	285375	5f2ef53d7729c52ae63230a2	3	1	main_slash	7	advance_on_keypress_SLASH	28	stimuli_target_squaretriangles.svg	stimuli_distractor_trianglediamonds.svg	3	yes	57	0	940	0	0			0	0			1				0	
6.6.1	win	2023-06-27	07:19:44	07:24:37	288948	5f2ef53d7729c52ae63230a2	3	1	main_slash	7	main_slash	29	stimuli_distractor_trianglediamonds.svg	stimuli_target_trianglerectangles.svg	25	yes	0	0	2000	0	0			0	0			1				0	
6.6.1	win	2023-06-27	07:19:44	07:24:37	288948	5f2ef53d7729c52ae63230a2	3	1	main_slash	7	advance_on_keypress_SLASH	30	stimuli_distractor_trianglediamonds.svg	stimuli_target_trianglerectangles.svg	25	yes	57	0	438	0	0			0	0			1				0	
6.6.1	win	2023-06-27	07:19:44	07:24:40	292029	5f2ef53d7729c52ae63230a2	3	1	main_slash	7	main_slash	31	stimuli_target_diamondrectangles.svg	stimuli_distractor_diamondtriangles.svg	23	yes	0	0	2000	0	0			0	0			1				0	
6.6.1	win	2023-06-27	07:19:44	07:24:40	292029	5f2ef53d7729c52ae63230a2	3	1	main_slash	7	advance_on_keypress_SLASH	32	stimuli_target_diamondrectangles.svg	stimuli_distractor_diamondtriangles.svg	23	yes	57	0	500	0	0			0	0			1				0	
6.6.1	win	2023-06-27	07:19:44	07:24:41	293575	5f2ef53d7729c52ae63230a2	3	1	main_slash	7	main_slash	33	stimuli_distractor_diamondtriangles.svg	stimuli_target_rectangletriangles.svg	13	yes	53	1	412	0	0			0	0			1				0	
6.6.1	win	2023-06-27	07:19:44	07:24:41	293575	5f2ef53d7729c52ae63230a2	3	1	main_slash	7	advance_on_keypress_SLASH	34	stimuli_distractor_diamondtriangles.svg	stimuli_target_rectangletriangles.svg	13	yes	57	0	881	0	0			0	0			1				0	
6.6.1	win	2023-06-27	07:19:44	07:24:45	297097	5f2ef53d7729c52ae63230a2	3	1	main_slash	7	main_slash	35	stimuli_distractor_trianglediamonds.svg	stimuli_target_diamondsquares.svg	28	yes	0	0	2000	0	0			0	0			1				0	
6.6.1	win	2023-06-27	07:19:44	07:24:45	297097	5f2ef53d7729c52ae63230a2	3	1	main_slash	7	advance_on_keypress_SLASH	36	stimuli_distractor_trianglediamonds.svg	stimuli_target_diamondsquares.svg	28	yes	57	0	432	0	0			0	0			1				0	
6.6.1	win	2023-06-27	07:19:44	07:24:46	298519	5f2ef53d7729c52ae63230a2	3	1	main_slash	7	main_slash	37	stimuli_distractor_trianglediamonds.svg	stimuli_target_diamondrectangles.svg	27	yes	53	1	354	0	0			0	0			1				0	
6.6.1	win	2023-06-27	07:19:44	07:24:46	298519	5f2ef53d7729c52ae63230a2	3	1	main_slash	7	advance_on_keypress_SLASH	38	stimuli_distractor_trianglediamonds.svg	stimuli_target_diamondrectangles.svg	27	yes	57	0	1146	0	0			0	0			1				0	
6.6.1	win	2023-06-27	07:19:44	07:24:50	302299	5f2ef53d7729c52ae63230a2	3	1	main_slash	7	main_slash	39	stimuli_distractor_trianglediamonds.svg	stimuli_distractor_trianglediamonds.svg	34	no	0	1	2000	0	0			0	0			1				0	
6.6.1	win	2023-06-27	07:19:44	07:24:50	302299	5f2ef53d7729c52ae63230a2	3	1	main_slash	7	advance_on_keypress_SLASH	40	stimuli_distractor_trianglediamonds.svg	stimuli_distractor_trianglediamonds.svg	34	no	57	0	479	0	0			0	0			1				0	
6.6.1	win	2023-06-27	07:19:44	07:24:51	303855	5f2ef53d7729c52ae63230a2	3	1	main_slash	7	main_slash	41	stimuli_distractor_diamondtriangles.svg	stimuli_target_diamondrectangles.svg	31	yes	53	1	435	0	0			0	0			1				0	
6.6.1	win	2023-06-27	07:19:44	07:24:51	303855	5f2ef53d7729c52ae63230a2	3	1	main_slash	7	advance_on_keypress_SLASH	42	stimuli_distractor_diamondtriangles.svg	stimuli_target_diamondrectangles.svg	31	yes	57	0	1115	0	0			0	0			1				0	
6.6.1	win	2023-06-27	07:19:44	07:24:53	305919	5f2ef53d7729c52ae63230a2	3	1	main_slash	7	main_slash	43	stimuli_distractor_trianglediamonds.svg	stimuli_target_squarediamonds.svg	12	yes	53	1	325	0	0			0	0			1				0	
6.6.1	win	2023-06-27	07:19:44	07:24:53	305919	5f2ef53d7729c52ae63230a2	3	1	main_slash	7	advance_on_keypress_SLASH	44	stimuli_distractor_trianglediamonds.svg	stimuli_target_squarediamonds.svg	12	yes	57	0	879	0	0			0	0			1				0	
6.6.1	win	2023-06-27	07:19:44	07:24:55	307896	5f2ef53d7729c52ae63230a2	3	1	main_slash	7	main_slash	45	stimuli_target_rectanglediamonds.svg	stimuli_distractor_diamondtriangles.svg	6	yes	53	1	460	0	0			0	0			1				0	
6.6.1	win	2023-06-27	07:19:44	07:24:55	307896	5f2ef53d7729c52ae63230a2	3	1	main_slash	7	advance_on_keypress_SLASH	46	stimuli_target_rectanglediamonds.svg	stimuli_distractor_diamondtriangles.svg	6	yes	57	0	889	0	0			0	0			1				0	
6.6.1	win	2023-06-27	07:19:44	07:24:59	311410	5f2ef53d7729c52ae63230a2	3	1	main_slash	7	main_slash	47	stimuli_distractor_diamondtriangles.svg	stimuli_distractor_trianglediamonds.svg	37	no	0	1	2000	0	0			0	0			1				0	
6.6.1	win	2023-06-27	07:19:44	07:24:59	311410	5f2ef53d7729c52ae63230a2	3	1	main_slash	7	advance_on_keypress_SLASH	48	stimuli_distractor_diamondtriangles.svg	stimuli_distractor_trianglediamonds.svg	37	no	57	0	464	0	0			0	0			1				0	
6.6.1	win	2023-06-27	07:19:44	07:25:02	314504	5f2ef53d7729c52ae63230a2	3	1	main_slash	7	main_slash	49	stimuli_distractor_trianglediamonds.svg	stimuli_distractor_trianglediamonds.svg	33	no	0	1	2000	0	0			0	0			1				0	
6.6.1	win	2023-06-27	07:19:44	07:25:02	314504	5f2ef53d7729c52ae63230a2	3	1	main_slash	7	advance_on_keypress_SLASH	50	stimuli_distractor_trianglediamonds.svg	stimuli_distractor_trianglediamonds.svg	33	no	57	0	385	0	0			0	0			1				0	
6.6.1	win	2023-06-27	07:19:44	07:25:04	315983	5f2ef53d7729c52ae63230a2	3	1	main_slash	7	main_slash	51	stimuli_distractor_trianglediamonds.svg	stimuli_target_squaretriangles.svg	11	yes	53	1	452	0	0			0	0			1				0	
6.6.1	win	2023-06-27	07:19:44	07:25:04	315983	5f2ef53d7729c52ae63230a2	3	1	main_slash	7	advance_on_keypress_SLASH	52	stimuli_distractor_trianglediamonds.svg	stimuli_target_squaretriangles.svg	11	yes	57	0	689	0	0			0	0			1				0	
6.6.1	win	2023-06-27	07:19:44	07:25:05	317735	5f2ef53d7729c52ae63230a2	3	1	main_slash	7	main_slash	53	stimuli_target_squarediamonds.svg	stimuli_distractor_diamondtriangles.svg	8	yes	53	1	430	0	0			0	0			1				0	
6.6.1	win	2023-06-27	07:19:44	07:25:05	317735	5f2ef53d7729c52ae63230a2	3	1	main_slash	7	advance_on_keypress_SLASH	54	stimuli_target_squarediamonds.svg	stimuli_distractor_diamondtriangles.svg	8	yes	57	0	645	0	0			0	0			1				0	
6.6.1	win	2023-06-27	07:19:44	07:25:09	321013	5f2ef53d7729c52ae63230a2	3	1	main_slash	7	main_slash	55	stimuli_target_trianglerectangles.svg	stimuli_distractor_diamondtriangles.svg	21	yes	0	0	2000	0	0			0	0			1				0	
6.6.1	win	2023-06-27	07:19:44	07:25:09	321013	5f2ef53d7729c52ae63230a2	3	1	main_slash	7	advance_on_keypress_SLASH	56	stimuli_target_trianglerectangles.svg	stimuli_distractor_diamondtriangles.svg	21	yes	57	0	389	0	0			0	0			1				0	
6.6.1	win	2023-06-27	07:19:44	07:25:10	322480	5f2ef53d7729c52ae63230a2	3	1	main_slash	7	main_slash	57	stimuli_target_rectangletriangles.svg	stimuli_distractor_trianglediamonds.svg	1	yes	53	1	438	0	0			0	0			1				0	
6.6.1	win	2023-06-27	07:19:44	07:25:10	322480	5f2ef53d7729c52ae63230a2	3	1	main_slash	7	advance_on_keypress_SLASH	58	stimuli_target_rectangletriangles.svg	stimuli_distractor_trianglediamonds.svg	1	yes	57	0	705	0	0			0	0			1				0	
6.6.1	win	2023-06-27	07:19:44	07:25:13	325830	5f2ef53d7729c52ae63230a2	3	1	main_slash	7	main_slash	59	stimuli_distractor_diamondtriangles.svg	stimuli_target_diamondsquares.svg	32	yes	0	0	2000	0	0			0	0			1				0	
6.6.1	win	2023-06-27	07:19:44	07:25:13	325830	5f2ef53d7729c52ae63230a2	3	1	main_slash	7	advance_on_keypress_SLASH	60	stimuli_distractor_diamondtriangles.svg	stimuli_target_diamondsquares.svg	32	yes	57	0	565	0	0			0	0			1				0	
6.6.1	win	2023-06-27	07:19:44	07:25:15	327367	5f2ef53d7729c52ae63230a2	3	1	main_slash	7	main_slash	61	stimuli_target_squarediamonds.svg	stimuli_distractor_trianglediamonds.svg	4	yes	53	1	338	0	0			0	0			1				0	
6.6.1	win	2023-06-27	07:19:44	07:25:15	327367	5f2ef53d7729c52ae63230a2	3	1	main_slash	7	advance_on_keypress_SLASH	62	stimuli_target_squarediamonds.svg	stimuli_distractor_trianglediamonds.svg	4	yes	57	0	1031	0	0			0	0			1				0	
6.6.1	win	2023-06-27	07:19:44	07:25:19	331031	5f2ef53d7729c52ae63230a2	3	1	main_slash	7	main_slash	63	stimuli_target_trianglesquares.svg	stimuli_distractor_diamondtriangles.svg	22	yes	0	0	2000	0	0			0	0			1				0	
6.6.1	win	2023-06-27	07:19:44	07:25:19	331031	5f2ef53d7729c52ae63230a2	3	1	main_slash	7	advance_on_keypress_SLASH	64	stimuli_target_trianglesquares.svg	stimuli_distractor_diamondtriangles.svg	22	yes	57	0	483	0	0			0	0			1				0	
6.6.1	win	2023-06-27	07:19:44	07:25:20	332744	5f2ef53d7729c52ae63230a2	3	1	main_slash	7	main_slash	65	stimuli_distractor_trianglediamonds.svg	stimuli_target_trianglesquares.svg	26	yes	53	1	592	0	0			0	0			1				0	
6.6.1	win	2023-06-27	07:19:44	07:25:20	332744	5f2ef53d7729c52ae63230a2	3	1	main_slash	7	advance_on_keypress_SLASH	66	stimuli_distractor_trianglediamonds.svg	stimuli_target_trianglesquares.svg	26	yes	57	0	639	0	0			0	0			1				0	
6.6.1	win	2023-06-27	07:19:44	07:25:24	336019	5f2ef53d7729c52ae63230a2	3	1	main_slash	7	main_slash	67	stimuli_target_diamondrectangles.svg	stimuli_distractor_trianglediamonds.svg	19	yes	0	0	2000	0	0			0	0			1				0	
6.6.1	win	2023-06-27	07:19:44	07:25:24	336019	5f2ef53d7729c52ae63230a2	3	1	main_slash	7	advance_on_keypress_SLASH	68	stimuli_target_diamondrectangles.svg	stimuli_distractor_trianglediamonds.svg	19	yes	57	0	439	0	0			0	0			1				0	
6.6.1	win	2023-06-27	07:19:44	07:25:27	339100	5f2ef53d7729c52ae63230a2	3	1	main_slash	7	main_slash	69	stimuli_target_trianglerectangles.svg	stimuli_distractor_trianglediamonds.svg	17	yes	0	0	2000	0	0			0	0			1				0	
6.6.1	win	2023-06-27	07:19:44	07:25:27	339100	5f2ef53d7729c52ae63230a2	3	1	main_slash	7	advance_on_keypress_SLASH	70	stimuli_target_trianglerectangles.svg	stimuli_distractor_trianglediamonds.svg	17	yes	57	0	437	0	0			0	0			1				0	
6.6.1	win	2023-06-27	07:19:44	07:25:28	340600	5f2ef53d7729c52ae63230a2	3	1	main_slash	7	main_slash	71	stimuli_distractor_trianglediamonds.svg	stimuli_target_rectanglediamonds.svg	10	yes	53	1	431	0	0			0	0			1				0	
6.6.1	win	2023-06-27	07:19:44	07:25:28	340600	5f2ef53d7729c52ae63230a2	3	1	main_slash	7	advance_on_keypress_SLASH	72	stimuli_distractor_trianglediamonds.svg	stimuli_target_rectanglediamonds.svg	10	yes	57	0	655	0	0			0	0			1				0	
6.6.1	win	2023-06-27	07:19:44	07:25:31	343889	5f2ef53d7729c52ae63230a2	3	1	main_slash	7	main_slash	73	stimuli_target_trianglesquares.svg	stimuli_distractor_trianglediamonds.svg	18	yes	0	0	2000	0	0			0	0			1				0	
6.6.1	win	2023-06-27	07:19:44	07:25:31	343889	5f2ef53d7729c52ae63230a2	3	1	main_slash	7	advance_on_keypress_SLASH	74	stimuli_target_trianglesquares.svg	stimuli_distractor_trianglediamonds.svg	18	yes	57	0	400	0	0			0	0			1				0	
6.6.1	win	2023-06-27	07:19:44	07:25:33	345272	5f2ef53d7729c52ae63230a2	3	1	main_slash	7	main_slash	75	stimuli_distractor_diamondtriangles.svg	stimuli_target_rectanglediamonds.svg	14	yes	53	1	342	0	0			0	0			1				0	
6.6.1	win	2023-06-27	07:19:44	07:25:33	345272	5f2ef53d7729c52ae63230a2	3	1	main_slash	7	advance_on_keypress_SLASH	76	stimuli_distractor_diamondtriangles.svg	stimuli_target_rectanglediamonds.svg	14	yes	57	0	875	0	0			0	0			1				0	
6.6.1	win	2023-06-27	07:19:44	07:25:35	347207	5f2ef53d7729c52ae63230a2	3	1	main_slash	7	main_slash	77	stimuli_target_rectangletriangles.svg	stimuli_distractor_diamondtriangles.svg	5	yes	53	1	437	0	0			0	0			1				0	
6.6.1	win	2023-06-27	07:19:44	07:25:35	347207	5f2ef53d7729c52ae63230a2	3	1	main_slash	7	advance_on_keypress_SLASH	78	stimuli_target_rectangletriangles.svg	stimuli_distractor_diamondtriangles.svg	5	yes	57	0	580	0	0			0	0			1				0	
6.6.1	win	2023-06-27	07:19:44	07:25:36	348847	5f2ef53d7729c52ae63230a2	3	1	main_slash	7	main_slash	79	stimuli_distractor_diamondtriangles.svg	stimuli_target_squarediamonds.svg	16	yes	53	1	436	0	0			0	0			1				0	
6.6.1	win	2023-06-27	07:19:44	07:25:36	348847	5f2ef53d7729c52ae63230a2	3	1	main_slash	7	advance_on_keypress_SLASH	80	stimuli_distractor_diamondtriangles.svg	stimuli_target_squarediamonds.svg	16	yes	57	0	556	0	0			0	0			1				0	
6.6.1	win	2023-06-27	07:19:44	07:25:40	352025	5f2ef53d7729c52ae63230a2	3	1	main_slash	7	main_slash	81	stimuli_target_trianglesquares.svg	stimuli_distractor_trianglediamonds.svg	18	yes	0	0	2000	0	0			0	0			1				0	
6.6.1	win	2023-06-27	07:19:44	07:25:40	352025	5f2ef53d7729c52ae63230a2	3	1	main_slash	7	advance_on_keypress_SLASH	82	stimuli_target_trianglesquares.svg	stimuli_distractor_trianglediamonds.svg	18	yes	57	0	408	0	0			0	0			1				0	
6.6.1	win	2023-06-27	07:19:44	07:25:41	353455	5f2ef53d7729c52ae63230a2	3	1	main_slash	7	main_slash	83	stimuli_target_rectanglediamonds.svg	stimuli_distractor_trianglediamonds.svg	2	yes	53	1	389	0	0			0	0			1				0	
6.6.1	win	2023-06-27	07:19:44	07:25:41	353455	5f2ef53d7729c52ae63230a2	3	1	main_slash	7	advance_on_keypress_SLASH	84	stimuli_target_rectanglediamonds.svg	stimuli_distractor_trianglediamonds.svg	2	yes	57	0	485	0	0			0	0			1				0	
6.6.1	win	2023-06-27	07:19:44	07:25:44	356574	5f2ef53d7729c52ae63230a2	3	1	main_slash	7	main_slash	85	stimuli_target_trianglerectangles.svg	stimuli_distractor_diamondtriangles.svg	21	yes	0	0	2000	0	0			0	0			1				0	
6.6.1	win	2023-06-27	07:19:44	07:25:44	356574	5f2ef53d7729c52ae63230a2	3	1	main_slash	7	advance_on_keypress_SLASH	86	stimuli_target_trianglerectangles.svg	stimuli_distractor_diamondtriangles.svg	21	yes	57	0	435	0	0			0	0			1				0	
6.6.1	win	2023-06-27	07:19:44	07:25:46	358048	5f2ef53d7729c52ae63230a2	3	1	main_slash	7	main_slash	87	stimuli_target_squaretriangles.svg	stimuli_distractor_trianglediamonds.svg	3	yes	53	1	406	0	0			0	0			1				0	
6.6.1	win	2023-06-27	07:19:44	07:25:46	358048	5f2ef53d7729c52ae63230a2	3	1	main_slash	7	advance_on_keypress_SLASH	88	stimuli_target_squaretriangles.svg	stimuli_distractor_trianglediamonds.svg	3	yes	57	0	544	0	0			0	0			1				0	
6.6.1	win	2023-06-27	07:19:44	07:25:49	361229	5f2ef53d7729c52ae63230a2	3	1	main_slash	7	main_slash	89	stimuli_distractor_diamondtriangles.svg	stimuli_target_diamondsquares.svg	32	yes	0	0	2000	0	0			0	0			1				0	
6.6.1	win	2023-06-27	07:19:44	07:25:49	361229	5f2ef53d7729c52ae63230a2	3	1	main_slash	7	advance_on_keypress_SLASH	90	stimuli_distractor_diamondtriangles.svg	stimuli_target_diamondsquares.svg	32	yes	57	0	484	0	0			0	0			1				0	
6.6.1	win	2023-06-27	07:19:44	07:25:50	362768	5f2ef53d7729c52ae63230a2	3	1	main_slash	7	main_slash	91	stimuli_target_diamondsquares.svg	stimuli_distractor_trianglediamonds.svg	20	yes	53	1	417	0	0			0	0			1				0	
6.6.1	win	2023-06-27	07:19:44	07:25:50	362768	5f2ef53d7729c52ae63230a2	3	1	main_slash	7	advance_on_keypress_SLASH	92	stimuli_target_diamondsquares.svg	stimuli_distractor_trianglediamonds.svg	20	yes	57	0	598	0	0			0	0			1				0	
6.6.1	win	2023-06-27	07:19:44	07:25:54	366004	5f2ef53d7729c52ae63230a2	3	1	main_slash	7	main_slash	93	stimuli_distractor_trianglediamonds.svg	stimuli_target_trianglesquares.svg	26	yes	0	0	2000	0	0			0	0			1				0	
6.6.1	win	2023-06-27	07:19:44	07:25:54	366004	5f2ef53d7729c52ae63230a2	3	1	main_slash	7	advance_on_keypress_SLASH	94	stimuli_distractor_trianglediamonds.svg	stimuli_target_trianglesquares.svg	26	yes	57	0	405	0	0			0	0			1				0	
6.6.1	win	2023-06-27	07:19:44	07:25:55	367482	5f2ef53d7729c52ae63230a2	3	1	main_slash	7	main_slash	95	stimuli_target_rectanglediamonds.svg	stimuli_distractor_diamondtriangles.svg	6	yes	53	1	424	0	0			0	0			1				0	
6.6.1	win	2023-06-27	07:19:44	07:25:55	367482	5f2ef53d7729c52ae63230a2	3	1	main_slash	7	advance_on_keypress_SLASH	96	stimuli_target_rectanglediamonds.svg	stimuli_distractor_diamondtriangles.svg	6	yes	57	0	509	0	0			0	0			1				0	
6.6.1	win	2023-06-27	07:19:44	07:25:56	368927	5f2ef53d7729c52ae63230a2	3	1	main_slash	7	main_slash	97	stimuli_target_rectangletriangles.svg	stimuli_distractor_diamondtriangles.svg	5	yes	53	1	295	0	0			0	0			1				0	
6.6.1	win	2023-06-27	07:19:44	07:25:56	368927	5f2ef53d7729c52ae63230a2	3	1	main_slash	7	advance_on_keypress_SLASH	98	stimuli_target_rectangletriangles.svg	stimuli_distractor_diamondtriangles.svg	5	yes	57	0	452	0	0			0	0			1				0	
6.6.1	win	2023-06-27	07:19:44	07:25:58	370455	5f2ef53d7729c52ae63230a2	3	1	main_slash	7	main_slash	99	stimuli_distractor_diamondtriangles.svg	stimuli_target_squarediamonds.svg	16	yes	53	1	436	0	0			0	0			1				0	
6.6.1	win	2023-06-27	07:19:44	07:25:58	370455	5f2ef53d7729c52ae63230a2	3	1	main_slash	7	advance_on_keypress_SLASH	100	stimuli_distractor_diamondtriangles.svg	stimuli_target_squarediamonds.svg	16	yes	57	0	667	0	0			0	0			1				0	
6.6.1	win	2023-06-27	07:19:44	07:26:01	373754	5f2ef53d7729c52ae63230a2	3	1	main_slash	7	main_slash	101	stimuli_target_diamondsquares.svg	stimuli_distractor_diamondtriangles.svg	24	yes	0	0	2000	0	0			0	0			1				0	
6.6.1	win	2023-06-27	07:19:44	07:26:01	373754	5f2ef53d7729c52ae63230a2	3	1	main_slash	7	advance_on_keypress_SLASH	102	stimuli_target_diamondsquares.svg	stimuli_distractor_diamondtriangles.svg	24	yes	57	0	447	0	0			0	0			1				0	
6.6.1	win	2023-06-27	07:19:44	07:26:03	375271	5f2ef53d7729c52ae63230a2	3	1	main_slash	7	main_slash	103	stimuli_distractor_diamondtriangles.svg	stimuli_target_trianglerectangles.svg	29	yes	53	1	437	0	0			0	0			1				0	
6.6.1	win	2023-06-27	07:19:44	07:26:03	375271	5f2ef53d7729c52ae63230a2	3	1	main_slash	7	advance_on_keypress_SLASH	104	stimuli_distractor_diamondtriangles.svg	stimuli_target_trianglerectangles.svg	29	yes	57	0	612	0	0			0	0			1				0	
6.6.1	win	2023-06-27	07:19:44	07:26:05	377048	5f2ef53d7729c52ae63230a2	3	1	main_slash	7	main_slash	105	stimuli_target_squarediamonds.svg	stimuli_distractor_trianglediamonds.svg	4	yes	53	1	532	0	0			0	0			1				0	
6.6.1	win	2023-06-27	07:19:44	07:26:05	377048	5f2ef53d7729c52ae63230a2	3	1	main_slash	7	advance_on_keypress_SLASH	106	stimuli_target_squarediamonds.svg	stimuli_distractor_trianglediamonds.svg	4	yes	57	0	473	0	0			0	0			1				0	
6.6.1	win	2023-06-27	07:19:44	07:26:06	378512	5f2ef53d7729c52ae63230a2	3	1	main_slash	7	main_slash	107	stimuli_distractor_diamondtriangles.svg	stimuli_target_squaretriangles.svg	15	yes	53	1	342	0	0			0	0			1				0	
6.6.1	win	2023-06-27	07:19:44	07:26:06	378512	5f2ef53d7729c52ae63230a2	3	1	main_slash	7	advance_on_keypress_SLASH	108	stimuli_distractor_diamondtriangles.svg	stimuli_target_squaretriangles.svg	15	yes	57	0	435	0	0			0	0			1				0	
6.6.1	win	2023-06-27	07:19:44	07:26:09	381570	5f2ef53d7729c52ae63230a2	3	1	main_slash	7	main_slash	109	stimuli_distractor_trianglediamonds.svg	stimuli_distractor_diamondtriangles.svg	35	no	0	1	2000	0	0			0	0			1				0	
6.6.1	win	2023-06-27	07:19:44	07:26:09	381570	5f2ef53d7729c52ae63230a2	3	1	main_slash	7	advance_on_keypress_SLASH	110	stimuli_distractor_trianglediamonds.svg	stimuli_distractor_diamondtriangles.svg	35	no	57	0	391	0	0			0	0			1				0	
6.6.1	win	2023-06-27	07:19:44	07:26:12	384599	5f2ef53d7729c52ae63230a2	3	1	main_slash	7	main_slash	111	stimuli_target_diamondrectangles.svg	stimuli_distractor_trianglediamonds.svg	19	yes	0	0	2000	0	0			0	0			1				0	
6.6.1	win	2023-06-27	07:19:44	07:26:12	384599	5f2ef53d7729c52ae63230a2	3	1	main_slash	7	advance_on_keypress_SLASH	112	stimuli_target_diamondrectangles.svg	stimuli_distractor_trianglediamonds.svg	19	yes	57	0	403	0	0			0	0			1				0	
6.6.1	win	2023-06-27	07:19:44	07:26:15	387640	5f2ef53d7729c52ae63230a2	3	1	main_slash	7	main_slash	113	stimuli_distractor_diamondtriangles.svg	stimuli_target_diamondrectangles.svg	31	yes	0	0	2000	0	0			0	0			1				0	
6.6.1	win	2023-06-27	07:19:44	07:26:15	387640	5f2ef53d7729c52ae63230a2	3	1	main_slash	7	advance_on_keypress_SLASH	114	stimuli_distractor_diamondtriangles.svg	stimuli_target_diamondrectangles.svg	31	yes	57	0	474	0	0			0	0			1				0	
6.6.1	win	2023-06-27	07:19:44	07:26:17	389160	5f2ef53d7729c52ae63230a2	3	1	main_slash	7	main_slash	115	stimuli_target_squaretriangles.svg	stimuli_distractor_diamondtriangles.svg	7	yes	53	1	414	0	0			0	0			1				0	
6.6.1	win	2023-06-27	07:19:44	07:26:17	389160	5f2ef53d7729c52ae63230a2	3	1	main_slash	7	advance_on_keypress_SLASH	116	stimuli_target_squaretriangles.svg	stimuli_distractor_diamondtriangles.svg	7	yes	57	0	769	0	0			0	0			1				0	
6.6.1	win	2023-06-27	07:19:44	07:26:19	390999	5f2ef53d7729c52ae63230a2	3	1	main_slash	7	main_slash	117	stimuli_distractor_trianglediamonds.svg	stimuli_target_squaretriangles.svg	11	yes	53	1	439	0	0			0	0			1				0	
6.6.1	win	2023-06-27	07:19:44	07:26:19	390999	5f2ef53d7729c52ae63230a2	3	1	main_slash	7	advance_on_keypress_SLASH	118	stimuli_distractor_trianglediamonds.svg	stimuli_target_squaretriangles.svg	11	yes	57	0	513	0	0			0	0			1				0	
6.6.1	win	2023-06-27	07:19:44	07:26:22	394148	5f2ef53d7729c52ae63230a2	3	1	main_slash	7	main_slash	119	stimuli_distractor_diamondtriangles.svg	stimuli_distractor_trianglediamonds.svg	37	no	0	1	2000	0	0			0	0			1				0	
6.6.1	win	2023-06-27	07:19:44	07:26:22	394148	5f2ef53d7729c52ae63230a2	3	1	main_slash	7	advance_on_keypress_SLASH	120	stimuli_distractor_diamondtriangles.svg	stimuli_distractor_trianglediamonds.svg	37	no	57	0	333	0	0			0	0			1				0	
6.6.1	win	2023-06-27	07:19:44	07:26:25	397124	5f2ef53d7729c52ae63230a2	3	1	main_slash	7	main_slash	121	stimuli_distractor_trianglediamonds.svg	stimuli_target_diamondrectangles.svg	27	yes	0	0	2000	0	0			0	0			1				0	
6.6.1	win	2023-06-27	07:19:44	07:26:25	397124	5f2ef53d7729c52ae63230a2	3	1	main_slash	7	advance_on_keypress_SLASH	122	stimuli_distractor_trianglediamonds.svg	stimuli_target_diamondrectangles.svg	27	yes	57	0	374	0	0			0	0			1				0	
6.6.1	win	2023-06-27	07:19:44	07:26:28	400137	5f2ef53d7729c52ae63230a2	3	1	main_slash	7	main_slash	123	stimuli_target_trianglerectangles.svg	stimuli_distractor_trianglediamonds.svg	17	yes	0	0	2000	0	0			0	0			1				0	
6.6.1	win	2023-06-27	07:19:44	07:26:28	400137	5f2ef53d7729c52ae63230a2	3	1	main_slash	7	advance_on_keypress_SLASH	124	stimuli_target_trianglerectangles.svg	stimuli_distractor_trianglediamonds.svg	17	yes	57	0	416	0	0			0	0			1				0	
6.6.1	win	2023-06-27	07:19:44	07:26:31	403192	5f2ef53d7729c52ae63230a2	3	1	main_slash	7	main_slash	125	stimuli_distractor_diamondtriangles.svg	stimuli_target_trianglesquares.svg	30	yes	0	0	2000	0	0			0	0			1				0	
6.6.1	win	2023-06-27	07:19:44	07:26:31	403192	5f2ef53d7729c52ae63230a2	3	1	main_slash	7	advance_on_keypress_SLASH	126	stimuli_distractor_diamondtriangles.svg	stimuli_target_trianglesquares.svg	30	yes	57	0	417	0	0			0	0			1				0	
6.6.1	win	2023-06-27	07:19:44	07:26:34	406246	5f2ef53d7729c52ae63230a2	3	1	main_slash	7	main_slash	127	stimuli_distractor_diamondtriangles.svg	stimuli_distractor_diamondtriangles.svg	39	no	0	1	2000	0	0			0	0			1				0	
6.6.1	win	2023-06-27	07:19:44	07:26:34	406246	5f2ef53d7729c52ae63230a2	3	1	main_slash	7	advance_on_keypress_SLASH	128	stimuli_distractor_diamondtriangles.svg	stimuli_distractor_diamondtriangles.svg	39	no	57	0	332	0	0			0	0			1				0	
6.6.1	win	2023-06-27	07:19:44	07:26:37	409222	5f2ef53d7729c52ae63230a2	3	1	main_slash	7	main_slash	129	stimuli_target_trianglesquares.svg	stimuli_distractor_diamondtriangles.svg	22	yes	0	0	2000	0	0			0	0			1				0	
6.6.1	win	2023-06-27	07:19:44	07:26:37	409222	5f2ef53d7729c52ae63230a2	3	1	main_slash	7	advance_on_keypress_SLASH	130	stimuli_target_trianglesquares.svg	stimuli_distractor_diamondtriangles.svg	22	yes	57	0	452	0	0			0	0			1				0	
6.6.1	win	2023-06-27	07:19:44	07:26:40	412315	5f2ef53d7729c52ae63230a2	3	1	main_slash	7	main_slash	131	stimuli_distractor_diamondtriangles.svg	stimuli_distractor_diamondtriangles.svg	40	no	0	1	2000	0	0			0	0			1				0	
6.6.1	win	2023-06-27	07:19:44	07:26:40	412315	5f2ef53d7729c52ae63230a2	3	1	main_slash	7	advance_on_keypress_SLASH	132	stimuli_distractor_diamondtriangles.svg	stimuli_distractor_diamondtriangles.svg	40	no	57	0	487	0	0			0	0			1				0	
6.6.1	win	2023-06-27	07:19:44	07:26:42	413956	5f2ef53d7729c52ae63230a2	3	1	main_slash	7	main_slash	133	stimuli_distractor_trianglediamonds.svg	stimuli_target_rectanglediamonds.svg	10	yes	53	1	515	0	0			0	0			1				0	
6.6.1	win	2023-06-27	07:19:44	07:26:42	413956	5f2ef53d7729c52ae63230a2	3	1	main_slash	7	advance_on_keypress_SLASH	134	stimuli_distractor_trianglediamonds.svg	stimuli_target_rectanglediamonds.svg	10	yes	57	0	493	0	0			0	0			1				0	
6.6.1	win	2023-06-27	07:19:44	07:26:43	415439	5f2ef53d7729c52ae63230a2	3	1	main_slash	7	main_slash	135	stimuli_target_rectangletriangles.svg	stimuli_distractor_trianglediamonds.svg	1	yes	53	1	349	0	0			0	0			1				0	
6.6.1	win	2023-06-27	07:19:44	07:26:43	415439	5f2ef53d7729c52ae63230a2	3	1	main_slash	7	advance_on_keypress_SLASH	136	stimuli_target_rectangletriangles.svg	stimuli_distractor_trianglediamonds.svg	1	yes	57	0	389	0	0			0	0			1				0	
6.6.1	win	2023-06-27	07:19:44	07:26:46	418464	5f2ef53d7729c52ae63230a2	3	1	main_slash	7	main_slash	137	stimuli_distractor_trianglediamonds.svg	stimuli_distractor_trianglediamonds.svg	33	no	0	1	2000	0	0			0	0			1				0	
6.6.1	win	2023-06-27	07:19:44	07:26:46	418464	5f2ef53d7729c52ae63230a2	3	1	main_slash	7	advance_on_keypress_SLASH	138	stimuli_distractor_trianglediamonds.svg	stimuli_distractor_trianglediamonds.svg	33	no	57	0	337	0	0			0	0			1				0	
6.6.1	win	2023-06-27	07:19:44	07:26:47	419871	5f2ef53d7729c52ae63230a2	3	1	main_slash	7	main_slash	139	stimuli_distractor_trianglediamonds.svg	stimuli_target_rectangletriangles.svg	9	yes	53	1	433	0	0			0	0			1				0	
6.6.1	win	2023-06-27	07:19:44	07:26:47	419871	5f2ef53d7729c52ae63230a2	3	1	main_slash	7	advance_on_keypress_SLASH	140	stimuli_distractor_trianglediamonds.svg	stimuli_target_rectangletriangles.svg	9	yes	57	0	464	0	0			0	0			1				0	
6.6.1	win	2023-06-27	07:19:44	07:26:51	422973	5f2ef53d7729c52ae63230a2	3	1	main_slash	7	main_slash	141	stimuli_distractor_trianglediamonds.svg	stimuli_distractor_trianglediamonds.svg	34	no	0	1	2000	0	0			0	0			1				0	
6.6.1	win	2023-06-27	07:19:44	07:26:51	422973	5f2ef53d7729c52ae63230a2	3	1	main_slash	7	advance_on_keypress_SLASH	142	stimuli_distractor_trianglediamonds.svg	stimuli_distractor_trianglediamonds.svg	34	no	57	0	388	0	0			0	0			1				0	
6.6.1	win	2023-06-27	07:19:44	07:26:54	426002	5f2ef53d7729c52ae63230a2	3	1	main_slash	7	main_slash	143	stimuli_distractor_trianglediamonds.svg	stimuli_distractor_diamondtriangles.svg	36	no	0	1	2000	0	0			0	0			1				0	
6.6.1	win	2023-06-27	07:19:44	07:26:54	426002	5f2ef53d7729c52ae63230a2	3	1	main_slash	7	advance_on_keypress_SLASH	144	stimuli_distractor_trianglediamonds.svg	stimuli_distractor_diamondtriangles.svg	36	no	57	0	409	0	0			0	0			1				0	
6.6.1	win	2023-06-27	07:19:44	07:26:55	427488	5f2ef53d7729c52ae63230a2	3	1	main_slash	7	main_slash	145	stimuli_distractor_diamondtriangles.svg	stimuli_target_rectanglediamonds.svg	14	yes	53	1	446	0	0			0	0			1				0	
6.6.1	win	2023-06-27	07:19:44	07:26:55	427488	5f2ef53d7729c52ae63230a2	3	1	main_slash	7	advance_on_keypress_SLASH	146	stimuli_distractor_diamondtriangles.svg	stimuli_target_rectanglediamonds.svg	14	yes	57	0	424	0	0			0	0			1				0	
6.6.1	win	2023-06-27	07:19:44	07:26:58	430536	5f2ef53d7729c52ae63230a2	3	1	main_slash	7	main_slash	147	stimuli_distractor_trianglediamonds.svg	stimuli_target_diamondsquares.svg	28	yes	0	0	2000	0	0			0	0			1				0	
6.6.1	win	2023-06-27	07:19:44	07:26:58	430536	5f2ef53d7729c52ae63230a2	3	1	main_slash	7	advance_on_keypress_SLASH	148	stimuli_distractor_trianglediamonds.svg	stimuli_target_diamondsquares.svg	28	yes	57	0	345	0	0			0	0			1				0	
6.6.1	win	2023-06-27	07:19:44	07:27:00	431936	5f2ef53d7729c52ae63230a2	3	1	main_slash	7	main_slash	149	stimuli_target_squarediamonds.svg	stimuli_distractor_diamondtriangles.svg	8	yes	53	1	412	0	0			0	0			1				0	
6.6.1	win	2023-06-27	07:19:44	07:27:00	431936	5f2ef53d7729c52ae63230a2	3	1	main_slash	7	advance_on_keypress_SLASH	150	stimuli_target_squarediamonds.svg	stimuli_distractor_diamondtriangles.svg	8	yes	57	0	481	0	0			0	0			1				0	
6.6.1	win	2023-06-27	07:19:44	07:27:01	433488	5f2ef53d7729c52ae63230a2	3	1	main_slash	7	main_slash	151	stimuli_distractor_diamondtriangles.svg	stimuli_target_rectangletriangles.svg	13	yes	53	1	430	0	0			0	0			1				0	
6.6.1	win	2023-06-27	07:19:44	07:27:01	433488	5f2ef53d7729c52ae63230a2	3	1	main_slash	7	advance_on_keypress_SLASH	152	stimuli_distractor_diamondtriangles.svg	stimuli_target_rectangletriangles.svg	13	yes	57	0	462	0	0			0	0			1				0	
6.6.1	win	2023-06-27	07:19:44	07:27:02	434871	5f2ef53d7729c52ae63230a2	3	1	main_slash	7	main_slash	153	stimuli_distractor_trianglediamonds.svg	stimuli_target_squarediamonds.svg	12	yes	53	1	293	0	0			0	0			1				0	
6.6.1	win	2023-06-27	07:19:44	07:27:02	434871	5f2ef53d7729c52ae63230a2	3	1	main_slash	7	advance_on_keypress_SLASH	154	stimuli_distractor_trianglediamonds.svg	stimuli_target_squarediamonds.svg	12	yes	57	0	394	0	0			0	0			1				0	
6.6.1	win	2023-06-27	07:19:44	07:27:05	437899	5f2ef53d7729c52ae63230a2	3	1	main_slash	7	main_slash	155	stimuli_distractor_trianglediamonds.svg	stimuli_target_trianglerectangles.svg	25	yes	0	0	2000	0	0			0	0			1				0	
6.6.1	win	2023-06-27	07:19:44	07:27:05	437899	5f2ef53d7729c52ae63230a2	3	1	main_slash	7	advance_on_keypress_SLASH	156	stimuli_distractor_trianglediamonds.svg	stimuli_target_trianglerectangles.svg	25	yes	57	0	320	0	0			0	0			1				0	
6.6.1	win	2023-06-27	07:19:44	07:27:08	440860	5f2ef53d7729c52ae63230a2	3	1	main_slash	7	main_slash	157	stimuli_distractor_diamondtriangles.svg	stimuli_distractor_trianglediamonds.svg	38	no	0	1	2000	0	0			0	0			1				0	
6.6.1	win	2023-06-27	07:19:44	07:27:08	440860	5f2ef53d7729c52ae63230a2	3	1	main_slash	7	advance_on_keypress_SLASH	158	stimuli_distractor_diamondtriangles.svg	stimuli_distractor_trianglediamonds.svg	38	no	57	0	165	0	0			0	0			1				0	
6.6.1	win	2023-06-27	07:19:44	07:27:11	443661	5f2ef53d7729c52ae63230a2	3	1	main_slash	7	main_slash	159	stimuli_target_diamondrectangles.svg	stimuli_distractor_diamondtriangles.svg	23	yes	0	0	2000	0	0			0	0			1				0	
6.6.1	win	2023-06-27	07:19:44	07:27:11	443661	5f2ef53d7729c52ae63230a2	3	1	main_slash	7	advance_on_keypress_SLASH	160	stimuli_target_diamondrectangles.svg	stimuli_distractor_diamondtriangles.svg	23	yes	57	0	388	0	0			0	0			1				0	
6.6.1	win	2023-06-27	07:19:44	07:28:43	535778	5f2ef53d7729c52ae63230a2	3	1	practice_z	9	practice_z	1	stimuli_distractor_trianglediamonds.svg	stimuli_distractor_diamondtriangles.svg	16	no	0	1	2000	0	0			0	0			1				0	
6.6.1	win	2023-06-27	07:19:44	07:28:43	535778	5f2ef53d7729c52ae63230a2	3	1	practice_z	9	advance_on_keypress_ZEE	2	stimuli_distractor_trianglediamonds.svg	stimuli_distractor_diamondtriangles.svg	16	no	57	0	1993	0	0			0	0			1				0	
6.6.1	win	2023-06-27	07:19:44	07:28:47	539746	5f2ef53d7729c52ae63230a2	3	1	practice_z	9	practice_z	3	stimuli_target_rectanglediamonds.svg	stimuli_distractor_diamondtriangles.svg	1	yes	44	1	339	0	0			0	0			1				0	
6.6.1	win	2023-06-27	07:19:44	07:28:47	539746	5f2ef53d7729c52ae63230a2	3	1	practice_z	9	advance_on_keypress_ZEE	4	stimuli_target_rectanglediamonds.svg	stimuli_distractor_diamondtriangles.svg	1	yes	57	0	335	0	0			0	0			1				0	
6.6.1	win	2023-06-27	07:19:44	07:28:51	543714	5f2ef53d7729c52ae63230a2	3	1	practice_z	9	practice_z	5	stimuli_distractor_trianglediamonds.svg	stimuli_distractor_trianglediamonds.svg	15	no	0	1	2000	0	0			0	0			1				0	
6.6.1	win	2023-06-27	07:19:44	07:28:51	543714	5f2ef53d7729c52ae63230a2	3	1	practice_z	9	advance_on_keypress_ZEE	6	stimuli_distractor_trianglediamonds.svg	stimuli_distractor_trianglediamonds.svg	15	no	57	0	416	0	0			0	0			1				0	
6.6.1	win	2023-06-27	07:19:44	07:28:55	547769	5f2ef53d7729c52ae63230a2	3	1	practice_z	9	practice_z	7	stimuli_distractor_trianglediamonds.svg	stimuli_target_diamondrectangles.svg	12	yes	0	0	2000	0	0			0	0			1				0	
6.6.1	win	2023-06-27	07:19:44	07:28:55	547769	5f2ef53d7729c52ae63230a2	3	1	practice_z	9	advance_on_keypress_ZEE	8	stimuli_distractor_trianglediamonds.svg	stimuli_target_diamondrectangles.svg	12	yes	57	0	465	0	0			0	0			1				0	
6.6.1	win	2023-06-27	07:19:44	07:28:58	550457	5f2ef53d7729c52ae63230a2	3	1	practice_z	9	practice_z	9	stimuli_distractor_trianglediamonds.svg	stimuli_target_squarediamonds.svg	11	yes	44	1	580	0	0			0	0			1				0	
6.6.1	win	2023-06-27	07:19:44	07:28:58	550457	5f2ef53d7729c52ae63230a2	3	1	practice_z	9	advance_on_keypress_ZEE	10	stimuli_distractor_trianglediamonds.svg	stimuli_target_squarediamonds.svg	11	yes	57	0	456	0	0			0	0			1				0	
6.6.1	win	2023-06-27	07:19:44	07:29:02	554547	5f2ef53d7729c52ae63230a2	3	1	practice_z	9	practice_z	11	stimuli_distractor_diamondtriangles.svg	stimuli_target_trianglerectangles.svg	9	yes	0	0	2000	0	0			0	0			1				0	
6.6.1	win	2023-06-27	07:19:44	07:29:02	554547	5f2ef53d7729c52ae63230a2	3	1	practice_z	9	advance_on_keypress_ZEE	12	stimuli_distractor_diamondtriangles.svg	stimuli_target_trianglerectangles.svg	9	yes	57	0	322	0	0			0	0			1				0	
6.6.1	win	2023-06-27	07:19:44	07:29:05	557025	5f2ef53d7729c52ae63230a2	3	1	practice_z	9	practice_z	13	stimuli_distractor_diamondtriangles.svg	stimuli_target_rectangletriangles.svg	7	yes	44	1	511	0	0			0	0			1				0	
6.6.1	win	2023-06-27	07:19:44	07:29:05	557025	5f2ef53d7729c52ae63230a2	3	1	practice_z	9	advance_on_keypress_ZEE	14	stimuli_distractor_diamondtriangles.svg	stimuli_target_rectangletriangles.svg	7	yes	57	0	440	0	0			0	0			1				0	
6.6.1	win	2023-06-27	07:19:44	07:29:09	561107	5f2ef53d7729c52ae63230a2	3	1	practice_z	9	practice_z	15	stimuli_target_diamondsquares.svg	stimuli_distractor_diamondtriangles.svg	3	yes	0	0	2000	0	0			0	0			1				0	
6.6.1	win	2023-06-27	07:19:44	07:29:09	561107	5f2ef53d7729c52ae63230a2	3	1	practice_z	9	advance_on_keypress_ZEE	16	stimuli_target_diamondsquares.svg	stimuli_distractor_diamondtriangles.svg	3	yes	57	0	432	0	0			0	0			1				0	
6.6.1	win	2023-06-27	07:19:44	07:29:13	565176	5f2ef53d7729c52ae63230a2	3	1	practice_z	9	practice_z	17	stimuli_distractor_diamondtriangles.svg	stimuli_distractor_diamondtriangles.svg	13	no	0	1	2000	0	0			0	0			1				0	
6.6.1	win	2023-06-27	07:19:44	07:29:13	565176	5f2ef53d7729c52ae63230a2	3	1	practice_z	9	advance_on_keypress_ZEE	18	stimuli_distractor_diamondtriangles.svg	stimuli_distractor_diamondtriangles.svg	13	no	57	0	395	0	0			0	0			1				0	
6.6.1	win	2023-06-27	07:19:44	07:29:17	569204	5f2ef53d7729c52ae63230a2	3	1	practice_z	9	practice_z	19	stimuli_distractor_diamondtriangles.svg	stimuli_distractor_trianglediamonds.svg	14	no	0	1	2000	0	0			0	0			1				0	
6.6.1	win	2023-06-27	07:19:44	07:29:17	569204	5f2ef53d7729c52ae63230a2	3	1	practice_z	9	advance_on_keypress_ZEE	20	stimuli_distractor_diamondtriangles.svg	stimuli_distractor_trianglediamonds.svg	14	no	57	0	430	0	0			0	0			1				0	
6.6.1	win	2023-06-27	07:19:44	07:29:19	571658	5f2ef53d7729c52ae63230a2	3	1	practice_z	9	practice_z	21	stimuli_target_squarediamonds.svg	stimuli_distractor_trianglediamonds.svg	5	yes	44	1	377	0	0			0	0			1				0	
6.6.1	win	2023-06-27	07:19:44	07:29:19	571658	5f2ef53d7729c52ae63230a2	3	1	practice_z	9	advance_on_keypress_ZEE	22	stimuli_target_squarediamonds.svg	stimuli_distractor_trianglediamonds.svg	5	yes	57	0	488	0	0			0	0			1				0	
6.6.1	win	2023-06-27	07:19:44	07:29:22	574241	5f2ef53d7729c52ae63230a2	3	1	practice_z	9	practice_z	23	stimuli_distractor_trianglediamonds.svg	stimuli_target_rectanglediamonds.svg	10	yes	44	1	461	0	0			0	0			1				0	
6.6.1	win	2023-06-27	07:19:44	07:29:22	574241	5f2ef53d7729c52ae63230a2	3	1	practice_z	9	advance_on_keypress_ZEE	24	stimuli_distractor_trianglediamonds.svg	stimuli_target_rectanglediamonds.svg	10	yes	57	0	418	0	0			0	0			1				0	
6.6.1	win	2023-06-27	07:19:44	07:29:24	576675	5f2ef53d7729c52ae63230a2	3	1	practice_z	9	practice_z	25	stimuli_target_rectanglediamonds.svg	stimuli_distractor_trianglediamonds.svg	4	yes	44	1	387	0	0			0	0			1				0	
6.6.1	win	2023-06-27	07:19:44	07:29:24	576675	5f2ef53d7729c52ae63230a2	3	1	practice_z	9	advance_on_keypress_ZEE	26	stimuli_target_rectanglediamonds.svg	stimuli_distractor_trianglediamonds.svg	4	yes	57	0	441	0	0			0	0			1				0	
6.6.1	win	2023-06-27	07:19:44	07:29:27	579225	5f2ef53d7729c52ae63230a2	3	1	practice_z	9	practice_z	27	stimuli_target_diamondsquares.svg	stimuli_distractor_trianglediamonds.svg	6	yes	44	1	470	0	0			0	0			1				0	
6.6.1	win	2023-06-27	07:19:44	07:29:27	579225	5f2ef53d7729c52ae63230a2	3	1	practice_z	9	advance_on_keypress_ZEE	28	stimuli_target_diamondsquares.svg	stimuli_distractor_trianglediamonds.svg	6	yes	57	0	421	0	0			0	0			1				0	
6.6.1	win	2023-06-27	07:19:44	07:29:31	583276	5f2ef53d7729c52ae63230a2	3	1	practice_z	9	practice_z	29	stimuli_distractor_diamondtriangles.svg	stimuli_target_diamondrectangles.svg	8	yes	0	0	2000	0	0			0	0			1				0	
6.6.1	win	2023-06-27	07:19:44	07:29:31	583276	5f2ef53d7729c52ae63230a2	3	1	practice_z	9	advance_on_keypress_ZEE	30	stimuli_distractor_diamondtriangles.svg	stimuli_target_diamondrectangles.svg	8	yes	57	0	423	0	0			0	0			1				0	
6.6.1	win	2023-06-27	07:19:44	07:29:33	585761	5f2ef53d7729c52ae63230a2	3	1	practice_z	9	practice_z	31	stimuli_target_squarediamonds.svg	stimuli_distractor_diamondtriangles.svg	2	yes	44	1	430	0	0			0	0			1				0	
6.6.1	win	2023-06-27	07:19:44	07:29:33	585761	5f2ef53d7729c52ae63230a2	3	1	practice_z	9	advance_on_keypress_ZEE	32	stimuli_target_squarediamonds.svg	stimuli_distractor_diamondtriangles.svg	2	yes	57	0	493	0	0			0	0			1				0	
6.6.1	win	2023-06-27	07:19:44	07:29:38	590211	5f2ef53d7729c52ae63230a2	3	1	main_z	11	main_z	1	stimuli_distractor_diamondtriangles.svg	stimuli_target_squaretriangles.svg	15	yes	44	1	596	0	0			0	0			1				0	
6.6.1	win	2023-06-27	07:19:44	07:29:38	590211	5f2ef53d7729c52ae63230a2	3	1	main_z	11	advance_on_keypress_ZEE	2	stimuli_distractor_diamondtriangles.svg	stimuli_target_squaretriangles.svg	15	yes	57	0	1046	0	0			0	0			1				0	
6.6.1	win	2023-06-27	07:19:44	07:29:41	593894	5f2ef53d7729c52ae63230a2	3	1	main_z	11	main_z	3	stimuli_distractor_trianglediamonds.svg	stimuli_target_diamondrectangles.svg	27	yes	0	0	2000	0	0			0	0			1				0	
6.6.1	win	2023-06-27	07:19:44	07:29:41	593894	5f2ef53d7729c52ae63230a2	3	1	main_z	11	advance_on_keypress_ZEE	4	stimuli_distractor_trianglediamonds.svg	stimuli_target_diamondrectangles.svg	27	yes	57	0	493	0	0			0	0			1				0	
6.6.1	win	2023-06-27	07:19:44	07:29:43	595376	5f2ef53d7729c52ae63230a2	3	1	main_z	11	main_z	5	stimuli_target_rectangletriangles.svg	stimuli_distractor_diamondtriangles.svg	5	yes	44	1	349	0	0			0	0			1				0	
6.6.1	win	2023-06-27	07:19:44	07:29:43	595376	5f2ef53d7729c52ae63230a2	3	1	main_z	11	advance_on_keypress_ZEE	6	stimuli_target_rectangletriangles.svg	stimuli_distractor_diamondtriangles.svg	5	yes	57	0	452	0	0			0	0			1				0	
6.6.1	win	2023-06-27	07:19:44	07:29:44	596888	5f2ef53d7729c52ae63230a2	3	1	main_z	11	main_z	7	stimuli_target_squarediamonds.svg	stimuli_distractor_diamondtriangles.svg	8	yes	44	1	420	0	0			0	0			1				0	
6.6.1	win	2023-06-27	07:19:44	07:29:44	596888	5f2ef53d7729c52ae63230a2	3	1	main_z	11	advance_on_keypress_ZEE	8	stimuli_target_squarediamonds.svg	stimuli_distractor_diamondtriangles.svg	8	yes	57	0	377	0	0			0	0			1				0	
6.6.1	win	2023-06-27	07:19:44	07:29:47	599895	5f2ef53d7729c52ae63230a2	3	1	main_z	11	main_z	9	stimuli_target_diamondrectangles.svg	stimuli_distractor_trianglediamonds.svg	19	yes	0	0	2000	0	0			0	0			1				0	
6.6.1	win	2023-06-27	07:19:44	07:29:47	599895	5f2ef53d7729c52ae63230a2	3	1	main_z	11	advance_on_keypress_ZEE	10	stimuli_target_diamondrectangles.svg	stimuli_distractor_trianglediamonds.svg	19	yes	57	0	979	0	0			0	0			1				0	
6.6.1	win	2023-06-27	07:19:44	07:29:51	603523	5f2ef53d7729c52ae63230a2	3	1	main_z	11	main_z	11	stimuli_distractor_diamondtriangles.svg	stimuli_distractor_trianglediamonds.svg	38	no	0	1	2000	0	0			0	0			1				0	
6.6.1	win	2023-06-27	07:19:44	07:29:51	603523	5f2ef53d7729c52ae63230a2	3	1	main_z	11	advance_on_keypress_ZEE	12	stimuli_distractor_diamondtriangles.svg	stimuli_distractor_trianglediamonds.svg	38	no	57	0	414	0	0			0	0			1				0	
6.6.1	win	2023-06-27	07:19:44	07:29:54	606577	5f2ef53d7729c52ae63230a2	3	1	main_z	11	main_z	13	stimuli_distractor_diamondtriangles.svg	stimuli_target_trianglesquares.svg	30	yes	0	0	2000	0	0			0	0			1				0	
6.6.1	win	2023-06-27	07:19:44	07:29:54	606577	5f2ef53d7729c52ae63230a2	3	1	main_z	11	advance_on_keypress_ZEE	14	stimuli_distractor_diamondtriangles.svg	stimuli_target_trianglesquares.svg	30	yes	57	0	393	0	0			0	0			1				0	
6.6.1	win	2023-06-27	07:19:44	07:29:57	609605	5f2ef53d7729c52ae63230a2	3	1	main_z	11	main_z	15	stimuli_distractor_trianglediamonds.svg	stimuli_distractor_diamondtriangles.svg	36	no	0	1	2000	0	0			0	0			1				0	
6.6.1	win	2023-06-27	07:19:44	07:29:57	609605	5f2ef53d7729c52ae63230a2	3	1	main_z	11	advance_on_keypress_ZEE	16	stimuli_distractor_trianglediamonds.svg	stimuli_distractor_diamondtriangles.svg	36	no	57	0	420	0	0			0	0			1				0	
6.6.1	win	2023-06-27	07:19:44	07:29:59	611184	5f2ef53d7729c52ae63230a2	3	1	main_z	11	main_z	17	stimuli_distractor_trianglediamonds.svg	stimuli_target_squaretriangles.svg	11	yes	44	1	525	0	0			0	0			1				0	
6.6.1	win	2023-06-27	07:19:44	07:29:59	611184	5f2ef53d7729c52ae63230a2	3	1	main_z	11	advance_on_keypress_ZEE	18	stimuli_distractor_trianglediamonds.svg	stimuli_target_squaretriangles.svg	11	yes	57	0	422	0	0			0	0			1				0	
6.6.1	win	2023-06-27	07:19:44	07:30:02	614152	5f2ef53d7729c52ae63230a2	3	1	main_z	11	main_z	19	stimuli_distractor_diamondtriangles.svg	stimuli_target_diamondrectangles.svg	31	yes	44	1	1918	0	0			0	0			1				0	
6.6.1	win	2023-06-27	07:19:44	07:30:02	614152	5f2ef53d7729c52ae63230a2	3	1	main_z	11	advance_on_keypress_ZEE	20	stimuli_distractor_diamondtriangles.svg	stimuli_target_diamondrectangles.svg	31	yes	57	0	528	0	0			0	0			1				0	
6.6.1	win	2023-06-27	07:19:44	07:30:04	616224	5f2ef53d7729c52ae63230a2	3	1	main_z	11	main_z	21	stimuli_distractor_trianglediamonds.svg	stimuli_target_rectangletriangles.svg	9	yes	44	1	910	0	0			0	0			1				0	
6.6.1	win	2023-06-27	07:19:44	07:30:04	616224	5f2ef53d7729c52ae63230a2	3	1	main_z	11	advance_on_keypress_ZEE	22	stimuli_distractor_trianglediamonds.svg	stimuli_target_rectangletriangles.svg	9	yes	57	0	540	0	0			0	0			1				0	
6.6.1	win	2023-06-27	07:19:44	07:30:06	618080	5f2ef53d7729c52ae63230a2	3	1	main_z	11	main_z	23	stimuli_target_trianglesquares.svg	stimuli_distractor_diamondtriangles.svg	22	yes	44	1	684	0	0			0	0			1				0	
6.6.1	win	2023-06-27	07:19:44	07:30:06	618080	5f2ef53d7729c52ae63230a2	3	1	main_z	11	advance_on_keypress_ZEE	24	stimuli_target_trianglesquares.svg	stimuli_distractor_diamondtriangles.svg	22	yes	57	0	454	0	0			0	0			1				0	
6.6.1	win	2023-06-27	07:19:44	07:30:07	619568	5f2ef53d7729c52ae63230a2	3	1	main_z	11	main_z	25	stimuli_target_rectanglediamonds.svg	stimuli_distractor_trianglediamonds.svg	2	yes	44	1	398	0	0			0	0			1				0	
6.6.1	win	2023-06-27	07:19:44	07:30:07	619568	5f2ef53d7729c52ae63230a2	3	1	main_z	11	advance_on_keypress_ZEE	26	stimuli_target_rectanglediamonds.svg	stimuli_distractor_trianglediamonds.svg	2	yes	57	0	488	0	0			0	0			1				0	
6.6.1	win	2023-06-27	07:19:44	07:30:09	621223	5f2ef53d7729c52ae63230a2	3	1	main_z	11	main_z	27	stimuli_distractor_trianglediamonds.svg	stimuli_target_squarediamonds.svg	12	yes	44	1	519	0	0			0	0			1				0	
6.6.1	win	2023-06-27	07:19:44	07:30:09	621223	5f2ef53d7729c52ae63230a2	3	1	main_z	11	advance_on_keypress_ZEE	28	stimuli_distractor_trianglediamonds.svg	stimuli_target_squarediamonds.svg	12	yes	57	0	426	0	0			0	0			1				0	
6.6.1	win	2023-06-27	07:19:44	07:30:12	624291	5f2ef53d7729c52ae63230a2	3	1	main_z	11	main_z	29	stimuli_target_trianglerectangles.svg	stimuli_distractor_diamondtriangles.svg	21	yes	0	0	2000	0	0			0	0			1				0	
6.6.1	win	2023-06-27	07:19:44	07:30:12	624291	5f2ef53d7729c52ae63230a2	3	1	main_z	11	advance_on_keypress_ZEE	30	stimuli_target_trianglerectangles.svg	stimuli_distractor_diamondtriangles.svg	21	yes	57	0	438	0	0			0	0			1				0	
6.6.1	win	2023-06-27	07:19:44	07:30:13	625856	5f2ef53d7729c52ae63230a2	3	1	main_z	11	main_z	31	stimuli_target_trianglesquares.svg	stimuli_distractor_trianglediamonds.svg	18	yes	44	1	485	0	0			0	0			1				0	
6.6.1	win	2023-06-27	07:19:44	07:30:13	625856	5f2ef53d7729c52ae63230a2	3	1	main_z	11	advance_on_keypress_ZEE	32	stimuli_target_trianglesquares.svg	stimuli_distractor_trianglediamonds.svg	18	yes	57	0	646	0	0			0	0			1				0	
6.6.1	win	2023-06-27	07:19:44	07:30:17	629133	5f2ef53d7729c52ae63230a2	3	1	main_z	11	main_z	33	stimuli_distractor_trianglediamonds.svg	stimuli_distractor_diamondtriangles.svg	35	no	0	1	2000	0	0			0	0			1				0	
6.6.1	win	2023-06-27	07:19:44	07:30:17	629133	5f2ef53d7729c52ae63230a2	3	1	main_z	11	advance_on_keypress_ZEE	34	stimuli_distractor_trianglediamonds.svg	stimuli_distractor_diamondtriangles.svg	35	no	57	0	413	0	0			0	0			1				0	
6.6.1	win	2023-06-27	07:19:44	07:30:18	630552	5f2ef53d7729c52ae63230a2	3	1	main_z	11	main_z	35	stimuli_target_rectanglediamonds.svg	stimuli_distractor_diamondtriangles.svg	6	yes	44	1	365	0	0			0	0			1				0	
6.6.1	win	2023-06-27	07:19:44	07:30:18	630552	5f2ef53d7729c52ae63230a2	3	1	main_z	11	advance_on_keypress_ZEE	36	stimuli_target_rectanglediamonds.svg	stimuli_distractor_diamondtriangles.svg	6	yes	57	0	367	0	0			0	0			1				0	
6.6.1	win	2023-06-27	07:19:44	07:30:20	632016	5f2ef53d7729c52ae63230a2	3	1	main_z	11	main_z	37	stimuli_target_squaretriangles.svg	stimuli_distractor_diamondtriangles.svg	7	yes	44	1	468	0	0			0	0			1				0	
6.6.1	win	2023-06-27	07:19:44	07:30:20	632016	5f2ef53d7729c52ae63230a2	3	1	main_z	11	advance_on_keypress_ZEE	38	stimuli_target_squaretriangles.svg	stimuli_distractor_diamondtriangles.svg	7	yes	57	0	283	0	0			0	0			1				0	
6.6.1	win	2023-06-27	07:19:44	07:30:21	633568	5f2ef53d7729c52ae63230a2	3	1	main_z	11	main_z	39	stimuli_target_diamondrectangles.svg	stimuli_distractor_diamondtriangles.svg	23	yes	44	1	634	0	0			0	0			1				0	
6.6.1	win	2023-06-27	07:19:44	07:30:21	633568	5f2ef53d7729c52ae63230a2	3	1	main_z	11	advance_on_keypress_ZEE	40	stimuli_target_diamondrectangles.svg	stimuli_distractor_diamondtriangles.svg	23	yes	57	0	384	0	0			0	0			1				0	
6.6.1	win	2023-06-27	07:19:44	07:30:23	635368	5f2ef53d7729c52ae63230a2	3	1	main_z	11	main_z	41	stimuli_distractor_diamondtriangles.svg	stimuli_target_rectanglediamonds.svg	14	yes	44	1	780	0	0			0	0			1				0	
6.6.1	win	2023-06-27	07:19:44	07:30:23	635368	5f2ef53d7729c52ae63230a2	3	1	main_z	11	advance_on_keypress_ZEE	42	stimuli_distractor_diamondtriangles.svg	stimuli_target_rectanglediamonds.svg	14	yes	57	0	383	0	0			0	0			1				0	
6.6.1	win	2023-06-27	07:19:44	07:30:24	636848	5f2ef53d7729c52ae63230a2	3	1	main_z	11	main_z	43	stimuli_target_squaretriangles.svg	stimuli_distractor_trianglediamonds.svg	3	yes	44	1	471	0	0			0	0			1				0	
6.6.1	win	2023-06-27	07:19:44	07:30:24	636848	5f2ef53d7729c52ae63230a2	3	1	main_z	11	advance_on_keypress_ZEE	44	stimuli_target_squaretriangles.svg	stimuli_distractor_trianglediamonds.svg	3	yes	57	0	303	0	0			0	0			1				0	
6.6.1	win	2023-06-27	07:19:44	07:30:26	638640	5f2ef53d7729c52ae63230a2	3	1	main_z	11	main_z	45	stimuli_distractor_trianglediamonds.svg	stimuli_target_trianglesquares.svg	26	yes	44	1	863	0	0			0	0			1				0	
6.6.1	win	2023-06-27	07:19:44	07:30:26	638640	5f2ef53d7729c52ae63230a2	3	1	main_z	11	advance_on_keypress_ZEE	46	stimuli_distractor_trianglediamonds.svg	stimuli_target_trianglesquares.svg	26	yes	57	0	459	0	0			0	0			1				0	
6.6.1	win	2023-06-27	07:19:44	07:30:29	641724	5f2ef53d7729c52ae63230a2	3	1	main_z	11	main_z	47	stimuli_distractor_diamondtriangles.svg	stimuli_distractor_diamondtriangles.svg	39	no	0	1	2000	0	0			0	0			1				0	
6.6.1	win	2023-06-27	07:19:44	07:30:29	641724	5f2ef53d7729c52ae63230a2	3	1	main_z	11	advance_on_keypress_ZEE	48	stimuli_distractor_diamondtriangles.svg	stimuli_distractor_diamondtriangles.svg	39	no	57	0	342	0	0			0	0			1				0	
6.6.1	win	2023-06-27	07:19:44	07:30:31	643528	5f2ef53d7729c52ae63230a2	3	1	main_z	11	main_z	49	stimuli_distractor_trianglediamonds.svg	stimuli_target_diamondsquares.svg	28	yes	44	1	829	0	0			0	0			1				0	
6.6.1	win	2023-06-27	07:19:44	07:30:31	643528	5f2ef53d7729c52ae63230a2	3	1	main_z	11	advance_on_keypress_ZEE	50	stimuli_distractor_trianglediamonds.svg	stimuli_target_diamondsquares.svg	28	yes	57	0	404	0	0			0	0			1				0	
6.6.1	win	2023-06-27	07:19:44	07:30:33	645184	5f2ef53d7729c52ae63230a2	3	1	main_z	11	main_z	51	stimuli_target_diamondsquares.svg	stimuli_distractor_diamondtriangles.svg	24	yes	44	1	617	0	0			0	0			1				0	
6.6.1	win	2023-06-27	07:19:44	07:30:33	645184	5f2ef53d7729c52ae63230a2	3	1	main_z	11	advance_on_keypress_ZEE	52	stimuli_target_diamondsquares.svg	stimuli_distractor_diamondtriangles.svg	24	yes	57	0	414	0	0			0	0			1				0	
6.6.1	win	2023-06-27	07:19:44	07:30:36	648233	5f2ef53d7729c52ae63230a2	3	1	main_z	11	main_z	53	stimuli_distractor_diamondtriangles.svg	stimuli_distractor_trianglediamonds.svg	37	no	0	1	2000	0	0			0	0			1				0	
6.6.1	win	2023-06-27	07:19:44	07:30:36	648233	5f2ef53d7729c52ae63230a2	3	1	main_z	11	advance_on_keypress_ZEE	54	stimuli_distractor_diamondtriangles.svg	stimuli_distractor_trianglediamonds.svg	37	no	57	0	385	0	0			0	0			1				0	
6.6.1	win	2023-06-27	07:19:44	07:30:37	649736	5f2ef53d7729c52ae63230a2	3	1	main_z	11	main_z	55	stimuli_distractor_trianglediamonds.svg	stimuli_target_rectanglediamonds.svg	10	yes	44	1	475	0	0			0	0			1				0	
6.6.1	win	2023-06-27	07:19:44	07:30:37	649736	5f2ef53d7729c52ae63230a2	3	1	main_z	11	advance_on_keypress_ZEE	56	stimuli_distractor_trianglediamonds.svg	stimuli_target_rectanglediamonds.svg	10	yes	57	0	466	0	0			0	0			1				0	
6.6.1	win	2023-06-27	07:19:44	07:30:40	652835	5f2ef53d7729c52ae63230a2	3	1	main_z	11	main_z	57	stimuli_distractor_diamondtriangles.svg	stimuli_distractor_diamondtriangles.svg	40	no	0	1	2000	0	0			0	0			1				0	
6.6.1	win	2023-06-27	07:19:44	07:30:40	652835	5f2ef53d7729c52ae63230a2	3	1	main_z	11	advance_on_keypress_ZEE	58	stimuli_distractor_diamondtriangles.svg	stimuli_distractor_diamondtriangles.svg	40	no	57	0	431	0	0			0	0			1				0	
6.6.1	win	2023-06-27	07:19:44	07:30:42	654663	5f2ef53d7729c52ae63230a2	3	1	main_z	11	main_z	59	stimuli_distractor_diamondtriangles.svg	stimuli_target_diamondsquares.svg	32	yes	44	1	760	0	0			0	0			1				0	
6.6.1	win	2023-06-27	07:19:44	07:30:42	654663	5f2ef53d7729c52ae63230a2	3	1	main_z	11	advance_on_keypress_ZEE	60	stimuli_distractor_diamondtriangles.svg	stimuli_target_diamondsquares.svg	32	yes	57	0	459	0	0			0	0			1				0	
6.6.1	win	2023-06-27	07:19:44	07:30:44	656304	5f2ef53d7729c52ae63230a2	3	1	main_z	11	main_z	61	stimuli_target_squarediamonds.svg	stimuli_distractor_trianglediamonds.svg	4	yes	44	1	546	0	0			0	0			1				0	
6.6.1	win	2023-06-27	07:19:44	07:30:44	656304	5f2ef53d7729c52ae63230a2	3	1	main_z	11	advance_on_keypress_ZEE	62	stimuli_target_squarediamonds.svg	stimuli_distractor_trianglediamonds.svg	4	yes	57	0	394	0	0			0	0			1				0	
6.6.1	win	2023-06-27	07:19:44	07:30:47	659333	5f2ef53d7729c52ae63230a2	3	1	main_z	11	main_z	63	stimuli_target_trianglerectangles.svg	stimuli_distractor_trianglediamonds.svg	17	yes	0	0	2000	0	0			0	0			1				0	
6.6.1	win	2023-06-27	07:19:44	07:30:47	659333	5f2ef53d7729c52ae63230a2	3	1	main_z	11	advance_on_keypress_ZEE	64	stimuli_target_trianglerectangles.svg	stimuli_distractor_trianglediamonds.svg	17	yes	57	0	567	0	0			0	0			1				0	
6.6.1	win	2023-06-27	07:19:44	07:30:49	661032	5f2ef53d7729c52ae63230a2	3	1	main_z	11	main_z	65	stimuli_distractor_diamondtriangles.svg	stimuli_target_rectangletriangles.svg	13	yes	44	1	499	0	0			0	0			1				0	
6.6.1	win	2023-06-27	07:19:44	07:30:49	661032	5f2ef53d7729c52ae63230a2	3	1	main_z	11	advance_on_keypress_ZEE	66	stimuli_distractor_diamondtriangles.svg	stimuli_target_rectangletriangles.svg	13	yes	57	0	456	0	0			0	0			1				0	
6.6.1	win	2023-06-27	07:19:44	07:30:50	662928	5f2ef53d7729c52ae63230a2	3	1	main_z	11	main_z	67	stimuli_distractor_diamondtriangles.svg	stimuli_target_trianglerectangles.svg	29	yes	44	1	808	0	0			0	0			1				0	
6.6.1	win	2023-06-27	07:19:44	07:30:50	662928	5f2ef53d7729c52ae63230a2	3	1	main_z	11	advance_on_keypress_ZEE	68	stimuli_distractor_diamondtriangles.svg	stimuli_target_trianglerectangles.svg	29	yes	57	0	378	0	0			0	0			1				0	
6.6.1	win	2023-06-27	07:19:44	07:30:53	665934	5f2ef53d7729c52ae63230a2	3	1	main_z	11	main_z	69	stimuli_distractor_trianglediamonds.svg	stimuli_distractor_trianglediamonds.svg	34	no	0	1	2000	0	0			0	0			1				0	
6.6.1	win	2023-06-27	07:19:44	07:30:53	665934	5f2ef53d7729c52ae63230a2	3	1	main_z	11	advance_on_keypress_ZEE	70	stimuli_distractor_trianglediamonds.svg	stimuli_distractor_trianglediamonds.svg	34	no	57	0	397	0	0			0	0			1				0	
6.6.1	win	2023-06-27	07:19:44	07:30:55	667328	5f2ef53d7729c52ae63230a2	3	1	main_z	11	main_z	71	stimuli_target_rectangletriangles.svg	stimuli_distractor_trianglediamonds.svg	1	yes	44	1	366	0	0			0	0			1				0	
6.6.1	win	2023-06-27	07:19:44	07:30:55	667328	5f2ef53d7729c52ae63230a2	3	1	main_z	11	advance_on_keypress_ZEE	72	stimuli_target_rectangletriangles.svg	stimuli_distractor_trianglediamonds.svg	1	yes	57	0	376	0	0			0	0			1				0	
6.6.1	win	2023-06-27	07:19:44	07:30:57	669056	5f2ef53d7729c52ae63230a2	3	1	main_z	11	main_z	73	stimuli_distractor_trianglediamonds.svg	stimuli_target_trianglerectangles.svg	25	yes	44	1	720	0	0			0	0			1				0	
6.6.1	win	2023-06-27	07:19:44	07:30:57	669056	5f2ef53d7729c52ae63230a2	3	1	main_z	11	advance_on_keypress_ZEE	74	stimuli_distractor_trianglediamonds.svg	stimuli_target_trianglerectangles.svg	25	yes	57	0	386	0	0			0	0			1				0	
6.6.1	win	2023-06-27	07:19:44	07:30:58	670602	5f2ef53d7729c52ae63230a2	3	1	main_z	11	main_z	75	stimuli_target_diamondsquares.svg	stimuli_distractor_trianglediamonds.svg	20	yes	44	1	518	0	0			0	0			1				0	
6.6.1	win	2023-06-27	07:19:44	07:30:58	670602	5f2ef53d7729c52ae63230a2	3	1	main_z	11	advance_on_keypress_ZEE	76	stimuli_target_diamondsquares.svg	stimuli_distractor_trianglediamonds.svg	20	yes	57	0	359	0	0			0	0			1				0	
6.6.1	win	2023-06-27	07:19:44	07:31:00	672160	5f2ef53d7729c52ae63230a2	3	1	main_z	11	main_z	77	stimuli_distractor_diamondtriangles.svg	stimuli_target_squarediamonds.svg	16	yes	44	1	556	0	0			0	0			1				0	
6.6.1	win	2023-06-27	07:19:44	07:31:00	672160	5f2ef53d7729c52ae63230a2	3	1	main_z	11	advance_on_keypress_ZEE	78	stimuli_distractor_diamondtriangles.svg	stimuli_target_squarediamonds.svg	16	yes	57	0	292	0	0			0	0			1				0	
6.6.1	win	2023-06-27	07:19:44	07:31:03	675084	5f2ef53d7729c52ae63230a2	3	1	main_z	11	main_z	79	stimuli_distractor_trianglediamonds.svg	stimuli_distractor_trianglediamonds.svg	33	no	0	1	2000	0	0			0	0			1				0	
6.6.1	win	2023-06-27	07:19:44	07:31:03	675084	5f2ef53d7729c52ae63230a2	3	1	main_z	11	advance_on_keypress_ZEE	80	stimuli_distractor_trianglediamonds.svg	stimuli_distractor_trianglediamonds.svg	33	no	57	0	485	0	0			0	0			1				0	
6.6.1	win	2023-06-27	07:19:44	07:31:04	676688	5f2ef53d7729c52ae63230a2	3	1	main_z	11	main_z	81	stimuli_distractor_diamondtriangles.svg	stimuli_target_trianglesquares.svg	30	yes	44	1	483	0	0			0	0			1				0	
6.6.1	win	2023-06-27	07:19:44	07:31:04	676688	5f2ef53d7729c52ae63230a2	3	1	main_z	11	advance_on_keypress_ZEE	82	stimuli_distractor_diamondtriangles.svg	stimuli_target_trianglesquares.svg	30	yes	57	0	725	0	0			0	0			1				0	
6.6.1	win	2023-06-27	07:19:44	07:31:06	678565	5f2ef53d7729c52ae63230a2	3	1	main_z	11	main_z	83	stimuli_target_trianglerectangles.svg	stimuli_distractor_diamondtriangles.svg	21	yes	44	1	514	0	0			0	0			1				0	
6.6.1	win	2023-06-27	07:19:44	07:31:06	678565	5f2ef53d7729c52ae63230a2	3	1	main_z	11	advance_on_keypress_ZEE	84	stimuli_target_trianglerectangles.svg	stimuli_distractor_diamondtriangles.svg	21	yes	57	0	308	0	0			0	0			1				0	
6.6.1	win	2023-06-27	07:19:44	07:31:08	680488	5f2ef53d7729c52ae63230a2	3	1	main_z	11	main_z	85	stimuli_distractor_trianglediamonds.svg	stimuli_target_rectanglediamonds.svg	10	yes	44	1	975	0	0			0	0			1				0	
6.6.1	win	2023-06-27	07:19:44	07:31:08	680488	5f2ef53d7729c52ae63230a2	3	1	main_z	11	advance_on_keypress_ZEE	86	stimuli_distractor_trianglediamonds.svg	stimuli_target_rectanglediamonds.svg	10	yes	57	0	283	0	0			0	0			1				0	
6.6.1	win	2023-06-27	07:19:44	07:31:10	681936	5f2ef53d7729c52ae63230a2	3	1	main_z	11	main_z	87	stimuli_distractor_diamondtriangles.svg	stimuli_target_squarediamonds.svg	16	yes	44	1	528	0	0			0	0			1				0	
6.6.1	win	2023-06-27	07:19:44	07:31:10	681936	5f2ef53d7729c52ae63230a2	3	1	main_z	11	advance_on_keypress_ZEE	88	stimuli_distractor_diamondtriangles.svg	stimuli_target_squarediamonds.svg	16	yes	57	0	363	0	0			0	0			1				0	
6.6.1	win	2023-06-27	07:19:44	07:31:12	684928	5f2ef53d7729c52ae63230a2	3	1	main_z	11	main_z	89	stimuli_distractor_trianglediamonds.svg	stimuli_distractor_diamondtriangles.svg	35	no	0	1	2000	0	0			0	0			1				0	
6.6.1	win	2023-06-27	07:19:44	07:31:12	684928	5f2ef53d7729c52ae63230a2	3	1	main_z	11	advance_on_keypress_ZEE	90	stimuli_distractor_trianglediamonds.svg	stimuli_distractor_diamondtriangles.svg	35	no	57	0	395	0	0			0	0			1				0	
6.6.1	win	2023-06-27	07:19:44	07:31:14	686744	5f2ef53d7729c52ae63230a2	3	1	main_z	11	main_z	91	stimuli_distractor_trianglediamonds.svg	stimuli_target_squarediamonds.svg	12	yes	44	1	788	0	0			0	0			1				0	
6.6.1	win	2023-06-27	07:19:44	07:31:14	686744	5f2ef53d7729c52ae63230a2	3	1	main_z	11	advance_on_keypress_ZEE	92	stimuli_distractor_trianglediamonds.svg	stimuli_target_squarediamonds.svg	12	yes	57	0	412	0	0			0	0			1				0	
6.6.1	win	2023-06-27	07:19:44	07:31:16	688848	5f2ef53d7729c52ae63230a2	3	1	main_z	11	main_z	93	stimuli_target_squaretriangles.svg	stimuli_distractor_trianglediamonds.svg	3	yes	44	1	1051	0	0			0	0			1				0	
6.6.1	win	2023-06-27	07:19:44	07:31:16	688848	5f2ef53d7729c52ae63230a2	3	1	main_z	11	advance_on_keypress_ZEE	94	stimuli_target_squaretriangles.svg	stimuli_distractor_trianglediamonds.svg	3	yes	57	0	360	0	0			0	0			1				0	
6.6.1	win	2023-06-27	07:19:44	07:31:18	690904	5f2ef53d7729c52ae63230a2	3	1	main_z	11	main_z	95	stimuli_target_trianglesquares.svg	stimuli_distractor_diamondtriangles.svg	22	yes	44	1	1054	0	0			0	0			1				0	
6.6.1	win	2023-06-27	07:19:44	07:31:18	690904	5f2ef53d7729c52ae63230a2	3	1	main_z	11	advance_on_keypress_ZEE	96	stimuli_target_trianglesquares.svg	stimuli_distractor_diamondtriangles.svg	22	yes	57	0	250	0	0			0	0			1				0	
6.6.1	win	2023-06-27	07:19:44	07:31:20	692904	5f2ef53d7729c52ae63230a2	3	1	main_z	11	main_z	97	stimuli_distractor_trianglediamonds.svg	stimuli_target_diamondsquares.svg	28	yes	44	1	1119	0	0			0	0			1				0	
6.6.1	win	2023-06-27	07:19:44	07:31:20	692904	5f2ef53d7729c52ae63230a2	3	1	main_z	11	advance_on_keypress_ZEE	98	stimuli_distractor_trianglediamonds.svg	stimuli_target_diamondsquares.svg	28	yes	57	0	362	0	0			0	0			1				0	
6.6.1	win	2023-06-27	07:19:44	07:31:23	695905	5f2ef53d7729c52ae63230a2	3	1	main_z	11	main_z	99	stimuli_distractor_trianglediamonds.svg	stimuli_distractor_trianglediamonds.svg	33	no	0	1	2000	0	0			0	0			1				0	
6.6.1	win	2023-06-27	07:19:44	07:31:23	695905	5f2ef53d7729c52ae63230a2	3	1	main_z	11	advance_on_keypress_ZEE	100	stimuli_distractor_trianglediamonds.svg	stimuli_distractor_trianglediamonds.svg	33	no	57	0	729	0	0			0	0			1				0	
6.6.1	win	2023-06-27	07:19:44	07:31:25	697856	5f2ef53d7729c52ae63230a2	3	1	main_z	11	main_z	101	stimuli_distractor_trianglediamonds.svg	stimuli_target_diamondrectangles.svg	27	yes	44	1	589	0	0			0	0			1				0	
6.6.1	win	2023-06-27	07:19:44	07:31:25	697856	5f2ef53d7729c52ae63230a2	3	1	main_z	11	advance_on_keypress_ZEE	102	stimuli_distractor_trianglediamonds.svg	stimuli_target_diamondrectangles.svg	27	yes	57	0	366	0	0			0	0			1				0	
6.6.1	win	2023-06-27	07:19:44	07:31:28	700854	5f2ef53d7729c52ae63230a2	3	1	main_z	11	main_z	103	stimuli_distractor_trianglediamonds.svg	stimuli_distractor_trianglediamonds.svg	34	no	0	1	2000	0	0			0	0			1				0	
6.6.1	win	2023-06-27	07:19:44	07:31:28	700854	5f2ef53d7729c52ae63230a2	3	1	main_z	11	advance_on_keypress_ZEE	104	stimuli_distractor_trianglediamonds.svg	stimuli_distractor_trianglediamonds.svg	34	no	57	0	628	0	0			0	0			1				0	
6.6.1	win	2023-06-27	07:19:44	07:31:30	702712	5f2ef53d7729c52ae63230a2	3	1	main_z	11	main_z	105	stimuli_distractor_diamondtriangles.svg	stimuli_target_squaretriangles.svg	15	yes	44	1	591	0	0			0	0			1				0	
6.6.1	win	2023-06-27	07:19:44	07:31:30	702712	5f2ef53d7729c52ae63230a2	3	1	main_z	11	advance_on_keypress_ZEE	106	stimuli_distractor_diamondtriangles.svg	stimuli_target_squaretriangles.svg	15	yes	57	0	349	0	0			0	0			1				0	
6.6.1	win	2023-06-27	07:19:44	07:31:32	704424	5f2ef53d7729c52ae63230a2	3	1	main_z	11	main_z	107	stimuli_target_diamondrectangles.svg	stimuli_distractor_diamondtriangles.svg	23	yes	44	1	728	0	0			0	0			1				0	
6.6.1	win	2023-06-27	07:19:44	07:31:32	704424	5f2ef53d7729c52ae63230a2	3	1	main_z	11	advance_on_keypress_ZEE	108	stimuli_target_diamondrectangles.svg	stimuli_distractor_diamondtriangles.svg	23	yes	57	0	370	0	0			0	0			1				0	
6.6.1	win	2023-06-27	07:19:44	07:31:34	706280	5f2ef53d7729c52ae63230a2	3	1	main_z	11	main_z	109	stimuli_target_rectanglediamonds.svg	stimuli_distractor_diamondtriangles.svg	6	yes	44	1	863	0	0			0	0			1				0	
6.6.1	win	2023-06-27	07:19:44	07:31:34	706280	5f2ef53d7729c52ae63230a2	3	1	main_z	11	advance_on_keypress_ZEE	110	stimuli_target_rectanglediamonds.svg	stimuli_distractor_diamondtriangles.svg	6	yes	57	0	340	0	0			0	0			1				0	
6.6.1	win	2023-06-27	07:19:44	07:31:35	707871	5f2ef53d7729c52ae63230a2	3	1	main_z	11	main_z	111	stimuli_target_rectangletriangles.svg	stimuli_distractor_diamondtriangles.svg	5	yes	44	1	628	0	0			0	0			1				0	
6.6.1	win	2023-06-27	07:19:44	07:31:35	707871	5f2ef53d7729c52ae63230a2	3	1	main_z	11	advance_on_keypress_ZEE	112	stimuli_target_rectangletriangles.svg	stimuli_distractor_diamondtriangles.svg	5	yes	57	0	323	0	0			0	0			1				0	
6.6.1	win	2023-06-27	07:19:44	07:31:38	710831	5f2ef53d7729c52ae63230a2	3	1	main_z	11	main_z	113	stimuli_distractor_trianglediamonds.svg	stimuli_distractor_diamondtriangles.svg	36	no	0	1	2000	0	0			0	0			1				0	
6.6.1	win	2023-06-27	07:19:44	07:31:38	710831	5f2ef53d7729c52ae63230a2	3	1	main_z	11	advance_on_keypress_ZEE	114	stimuli_distractor_trianglediamonds.svg	stimuli_distractor_diamondtriangles.svg	36	no	57	0	419	0	0			0	0			1				0	
6.6.1	win	2023-06-27	07:19:44	07:31:40	712496	5f2ef53d7729c52ae63230a2	3	1	main_z	11	main_z	115	stimuli_distractor_diamondtriangles.svg	stimuli_target_rectanglediamonds.svg	14	yes	44	1	611	0	0			0	0			1				0	
6.6.1	win	2023-06-27	07:19:44	07:31:40	712496	5f2ef53d7729c52ae63230a2	3	1	main_z	11	advance_on_keypress_ZEE	116	stimuli_distractor_diamondtriangles.svg	stimuli_target_rectanglediamonds.svg	14	yes	57	0	383	0	0			0	0			1				0	
6.6.1	win	2023-06-27	07:19:44	07:31:42	713952	5f2ef53d7729c52ae63230a2	3	1	main_z	11	main_z	117	stimuli_target_squaretriangles.svg	stimuli_distractor_diamondtriangles.svg	7	yes	44	1	439	0	0			0	0			1				0	
6.6.1	win	2023-06-27	07:19:44	07:31:42	713952	5f2ef53d7729c52ae63230a2	3	1	main_z	11	advance_on_keypress_ZEE	118	stimuli_target_squaretriangles.svg	stimuli_distractor_diamondtriangles.svg	7	yes	57	0	273	0	0			0	0			1				0	
6.6.1	win	2023-06-27	07:19:44	07:31:43	715552	5f2ef53d7729c52ae63230a2	3	1	main_z	11	main_z	119	stimuli_distractor_diamondtriangles.svg	stimuli_target_diamondsquares.svg	32	yes	44	1	693	0	0			0	0			1				0	
6.6.1	win	2023-06-27	07:19:44	07:31:43	715552	5f2ef53d7729c52ae63230a2	3	1	main_z	11	advance_on_keypress_ZEE	120	stimuli_distractor_diamondtriangles.svg	stimuli_target_diamondsquares.svg	32	yes	57	0	344	0	0			0	0			1				0	
6.6.1	win	2023-06-27	07:19:44	07:31:45	717336	5f2ef53d7729c52ae63230a2	3	1	main_z	11	main_z	121	stimuli_target_diamondrectangles.svg	stimuli_distractor_trianglediamonds.svg	19	yes	44	1	795	0	0			0	0			1				0	
6.6.1	win	2023-06-27	07:19:44	07:31:45	717336	5f2ef53d7729c52ae63230a2	3	1	main_z	11	advance_on_keypress_ZEE	122	stimuli_target_diamondrectangles.svg	stimuli_distractor_trianglediamonds.svg	19	yes	57	0	434	0	0			0	0			1				0	
6.6.1	win	2023-06-27	07:19:44	07:31:48	720396	5f2ef53d7729c52ae63230a2	3	1	main_z	11	main_z	123	stimuli_distractor_diamondtriangles.svg	stimuli_distractor_diamondtriangles.svg	40	no	0	1	2000	0	0			0	0			1				0	
6.6.1	win	2023-06-27	07:19:44	07:31:48	720396	5f2ef53d7729c52ae63230a2	3	1	main_z	11	advance_on_keypress_ZEE	124	stimuli_distractor_diamondtriangles.svg	stimuli_distractor_diamondtriangles.svg	40	no	57	0	415	0	0			0	0			1				0	
6.6.1	win	2023-06-27	07:19:44	07:31:50	722128	5f2ef53d7729c52ae63230a2	3	1	main_z	11	main_z	125	stimuli_target_diamondsquares.svg	stimuli_distractor_diamondtriangles.svg	24	yes	44	1	678	0	0			0	0			1				0	
6.6.1	win	2023-06-27	07:19:44	07:31:50	722128	5f2ef53d7729c52ae63230a2	3	1	main_z	11	advance_on_keypress_ZEE	126	stimuli_target_diamondsquares.svg	stimuli_distractor_diamondtriangles.svg	24	yes	57	0	344	0	0			0	0			1				0	
6.6.1	win	2023-06-27	07:19:44	07:31:51	723688	5f2ef53d7729c52ae63230a2	3	1	main_z	11	main_z	127	stimuli_distractor_trianglediamonds.svg	stimuli_target_rectangletriangles.svg	9	yes	44	1	571	0	0			0	0			1				0	
6.6.1	win	2023-06-27	07:19:44	07:31:51	723688	5f2ef53d7729c52ae63230a2	3	1	main_z	11	advance_on_keypress_ZEE	128	stimuli_distractor_trianglediamonds.svg	stimuli_target_rectangletriangles.svg	9	yes	57	0	376	0	0			0	0			1				0	
6.6.1	win	2023-06-27	07:19:44	07:31:53	725480	5f2ef53d7729c52ae63230a2	3	1	main_z	11	main_z	129	stimuli_distractor_trianglediamonds.svg	stimuli_target_trianglesquares.svg	26	yes	44	1	777	0	0			0	0			1				0	
6.6.1	win	2023-06-27	07:19:44	07:31:53	725480	5f2ef53d7729c52ae63230a2	3	1	main_z	11	advance_on_keypress_ZEE	130	stimuli_distractor_trianglediamonds.svg	stimuli_target_trianglesquares.svg	26	yes	57	0	317	0	0			0	0			1				0	
6.6.1	win	2023-06-27	07:19:44	07:31:55	727096	5f2ef53d7729c52ae63230a2	3	1	main_z	11	main_z	131	stimuli_distractor_diamondtriangles.svg	stimuli_target_trianglerectangles.svg	29	yes	44	1	671	0	0			0	0			1				0	
6.6.1	win	2023-06-27	07:19:44	07:31:55	727096	5f2ef53d7729c52ae63230a2	3	1	main_z	11	advance_on_keypress_ZEE	132	stimuli_distractor_diamondtriangles.svg	stimuli_target_trianglerectangles.svg	29	yes	57	0	415	0	0			0	0			1				0	
6.6.1	win	2023-06-27	07:19:44	07:31:56	728864	5f2ef53d7729c52ae63230a2	3	1	main_z	11	main_z	133	stimuli_target_squarediamonds.svg	stimuli_distractor_diamondtriangles.svg	8	yes	44	1	718	0	0			0	0			1				0	
6.6.1	win	2023-06-27	07:19:44	07:31:56	728864	5f2ef53d7729c52ae63230a2	3	1	main_z	11	advance_on_keypress_ZEE	134	stimuli_target_squarediamonds.svg	stimuli_distractor_diamondtriangles.svg	8	yes	57	0	305	0	0			0	0			1				0	
6.6.1	win	2023-06-27	07:19:44	07:31:58	730904	5f2ef53d7729c52ae63230a2	3	1	main_z	11	main_z	135	stimuli_distractor_diamondtriangles.svg	stimuli_distractor_trianglediamonds.svg	37	no	44	0	1092	0	0			0	0			1				0	
6.6.1	win	2023-06-27	07:19:44	07:31:58	730904	5f2ef53d7729c52ae63230a2	3	1	main_z	11	advance_on_keypress_ZEE	136	stimuli_distractor_diamondtriangles.svg	stimuli_distractor_trianglediamonds.svg	37	no	57	0	281	0	0			0	0			1				0	
6.6.1	win	2023-06-27	07:19:44	07:32:00	732464	5f2ef53d7729c52ae63230a2	3	1	main_z	11	main_z	137	stimuli_target_rectanglediamonds.svg	stimuli_distractor_trianglediamonds.svg	2	yes	44	1	637	0	0			0	0			1				0	
6.6.1	win	2023-06-27	07:19:44	07:32:00	732464	5f2ef53d7729c52ae63230a2	3	1	main_z	11	advance_on_keypress_ZEE	138	stimuli_target_rectanglediamonds.svg	stimuli_distractor_trianglediamonds.svg	2	yes	57	0	332	0	0			0	0			1				0	
6.6.1	win	2023-06-27	07:19:44	07:32:02	734272	5f2ef53d7729c52ae63230a2	3	1	main_z	11	main_z	139	stimuli_target_trianglesquares.svg	stimuli_distractor_trianglediamonds.svg	18	yes	44	1	844	0	0			0	0			1				0	
6.6.1	win	2023-06-27	07:19:44	07:32:02	734272	5f2ef53d7729c52ae63230a2	3	1	main_z	11	advance_on_keypress_ZEE	140	stimuli_target_trianglesquares.svg	stimuli_distractor_trianglediamonds.svg	18	yes	57	0	318	0	0			0	0			1				0	
6.6.1	win	2023-06-27	07:19:44	07:32:03	735816	5f2ef53d7729c52ae63230a2	3	1	main_z	11	main_z	141	stimuli_distractor_trianglediamonds.svg	stimuli_target_trianglerectangles.svg	25	yes	44	1	589	0	0			0	0			1				0	
6.6.1	win	2023-06-27	07:19:44	07:32:03	735816	5f2ef53d7729c52ae63230a2	3	1	main_z	11	advance_on_keypress_ZEE	142	stimuli_distractor_trianglediamonds.svg	stimuli_target_trianglerectangles.svg	25	yes	57	0	347	0	0			0	0			1				0	
6.6.1	win	2023-06-27	07:19:44	07:32:06	738803	5f2ef53d7729c52ae63230a2	3	1	main_z	11	main_z	143	stimuli_distractor_diamondtriangles.svg	stimuli_distractor_trianglediamonds.svg	38	no	0	1	2000	0	0			0	0			1				0	
6.6.1	win	2023-06-27	07:19:44	07:32:06	738803	5f2ef53d7729c52ae63230a2	3	1	main_z	11	advance_on_keypress_ZEE	144	stimuli_distractor_diamondtriangles.svg	stimuli_distractor_trianglediamonds.svg	38	no	57	0	455	0	0			0	0			1				0	
6.6.1	win	2023-06-27	07:19:44	07:32:08	740464	5f2ef53d7729c52ae63230a2	3	1	main_z	11	main_z	145	stimuli_distractor_diamondtriangles.svg	stimuli_target_rectangletriangles.svg	13	yes	44	1	568	0	0			0	0			1				0	
6.6.1	win	2023-06-27	07:19:44	07:32:08	740464	5f2ef53d7729c52ae63230a2	3	1	main_z	11	advance_on_keypress_ZEE	146	stimuli_distractor_diamondtriangles.svg	stimuli_target_rectangletriangles.svg	13	yes	57	0	337	0	0			0	0			1				0	
6.6.1	win	2023-06-27	07:19:44	07:32:10	741936	5f2ef53d7729c52ae63230a2	3	1	main_z	11	main_z	147	stimuli_target_rectangletriangles.svg	stimuli_distractor_trianglediamonds.svg	1	yes	44	1	506	0	0			0	0			1				0	
6.6.1	win	2023-06-27	07:19:44	07:32:10	741936	5f2ef53d7729c52ae63230a2	3	1	main_z	11	advance_on_keypress_ZEE	148	stimuli_target_rectangletriangles.svg	stimuli_distractor_trianglediamonds.svg	1	yes	57	0	257	0	0			0	0			1				0	
6.6.1	win	2023-06-27	07:19:44	07:32:11	743864	5f2ef53d7729c52ae63230a2	3	1	main_z	11	main_z	149	stimuli_target_diamondsquares.svg	stimuli_distractor_trianglediamonds.svg	20	yes	44	1	1033	0	0			0	0			1				0	
6.6.1	win	2023-06-27	07:19:44	07:32:11	743864	5f2ef53d7729c52ae63230a2	3	1	main_z	11	advance_on_keypress_ZEE	150	stimuli_target_diamondsquares.svg	stimuli_distractor_trianglediamonds.svg	20	yes	57	0	312	0	0			0	0			1				0	
6.6.1	win	2023-06-27	07:19:44	07:32:13	745681	5f2ef53d7729c52ae63230a2	3	1	main_z	11	main_z	151	stimuli_distractor_trianglediamonds.svg	stimuli_target_squaretriangles.svg	11	yes	44	1	876	0	0			0	0			1				0	
6.6.1	win	2023-06-27	07:19:44	07:32:13	745681	5f2ef53d7729c52ae63230a2	3	1	main_z	11	advance_on_keypress_ZEE	152	stimuli_distractor_trianglediamonds.svg	stimuli_target_squaretriangles.svg	11	yes	57	0	306	0	0			0	0			1				0	
6.6.1	win	2023-06-27	07:19:44	07:32:15	747648	5f2ef53d7729c52ae63230a2	3	1	main_z	11	main_z	153	stimuli_target_trianglerectangles.svg	stimuli_distractor_trianglediamonds.svg	17	yes	44	1	1028	0	0			0	0			1				0	
6.6.1	win	2023-06-27	07:19:44	07:32:15	747648	5f2ef53d7729c52ae63230a2	3	1	main_z	11	advance_on_keypress_ZEE	154	stimuli_target_trianglerectangles.svg	stimuli_distractor_trianglediamonds.svg	17	yes	57	0	356	0	0			0	0			1				0	
6.6.1	win	2023-06-27	07:19:44	07:32:18	750633	5f2ef53d7729c52ae63230a2	3	1	main_z	11	main_z	155	stimuli_distractor_diamondtriangles.svg	stimuli_distractor_diamondtriangles.svg	39	no	0	1	2000	0	0			0	0			1				0	
6.6.1	win	2023-06-27	07:19:44	07:32:18	750633	5f2ef53d7729c52ae63230a2	3	1	main_z	11	advance_on_keypress_ZEE	156	stimuli_distractor_diamondtriangles.svg	stimuli_distractor_diamondtriangles.svg	39	no	57	0	441	0	0			0	0			1				0	
6.6.1	win	2023-06-27	07:19:44	07:32:20	752200	5f2ef53d7729c52ae63230a2	3	1	main_z	11	main_z	157	stimuli_target_squarediamonds.svg	stimuli_distractor_trianglediamonds.svg	4	yes	44	1	485	0	0			0	0			1				0	
6.6.1	win	2023-06-27	07:19:44	07:32:20	752200	5f2ef53d7729c52ae63230a2	3	1	main_z	11	advance_on_keypress_ZEE	158	stimuli_target_squarediamonds.svg	stimuli_distractor_trianglediamonds.svg	4	yes	57	0	248	0	0			0	0			1				0	
6.6.1	win	2023-06-27	07:19:44	07:32:22	754080	5f2ef53d7729c52ae63230a2	3	1	main_z	11	main_z	159	stimuli_distractor_diamondtriangles.svg	stimuli_target_diamondrectangles.svg	31	yes	44	1	1005	0	0			0	0			1				0	
6.6.1	win	2023-06-27	07:19:44	07:32:22	754080	5f2ef53d7729c52ae63230a2	3	1	main_z	11	advance_on_keypress_ZEE	160	stimuli_distractor_diamondtriangles.svg	stimuli_target_diamondrectangles.svg	31	yes	57	0	247	0	0			0	0			1				0	
6.6.1	win	2023-06-27	07:19:44	07:32:22	754080	5f2ef53d7729c52ae63230a2	3	1	headphonecheck_calibration	14	headphonecheck_calibrationIntro	1	stimuli_distractor_diamondtriangles.svg	stimuli_target_diamondrectangles.svg	31	yes	calibrationButton	0	1390	0	0			0	0			1				0	
6.6.1	win	2023-06-27	07:19:44	07:32:22	754080	5f2ef53d7729c52ae63230a2	3	1	headphonecheck_testphase	15	test_collectResponse	3	stimuli_distractor_diamondtriangles.svg	stimuli_target_diamondrectangles.svg	31	yes	third	1	3040	1	6	antiphase_hc_ois.wav	3	0	0			1				0	
6.6.1	win	2023-06-27	07:19:44	07:32:22	754080	5f2ef53d7729c52ae63230a2	3	1	headphonecheck_testphase	15	test_collectResponse	6	stimuli_distractor_diamondtriangles.svg	stimuli_target_diamondrectangles.svg	31	yes	second	1	812	2	1	antiphase_hc_iso.wav	2	0	0			1				0	
6.6.1	win	2023-06-27	07:19:44	07:32:22	754080	5f2ef53d7729c52ae63230a2	3	1	headphonecheck_testphase	15	test_collectResponse	9	stimuli_distractor_diamondtriangles.svg	stimuli_target_diamondrectangles.svg	31	yes	second	1	1025	3	5	antiphase_hc_osi.wav	2	0	0			1				0	
6.6.1	win	2023-06-27	07:19:44	07:32:22	754080	5f2ef53d7729c52ae63230a2	3	1	headphonecheck_testphase	15	test_collectResponse	12	stimuli_distractor_diamondtriangles.svg	stimuli_target_diamondrectangles.svg	31	yes	third	1	413	4	2	antiphase_hc_ios.wav	3	0	0			1				0	
6.6.1	win	2023-06-27	07:19:44	07:32:22	754080	5f2ef53d7729c52ae63230a2	3	1	headphonecheck_testphase	15	test_collectResponse	15	stimuli_distractor_diamondtriangles.svg	stimuli_target_diamondrectangles.svg	31	yes	first	1	407	5	4	antiphase_hc_sio.wav	1	0	0			1				0	
6.6.1	win	2023-06-27	07:19:44	07:32:22	754080	5f2ef53d7729c52ae63230a2	3	1	headphonecheck_testphase	15	test_collectResponse	18	stimuli_distractor_diamondtriangles.svg	stimuli_target_diamondrectangles.svg	31	yes	first	1	458	6	3	antiphase_hc_soi.wav	1	0	0			1				0	
6.6.1	win	2023-06-27	07:19:44	07:32:22	754080	5f2ef53d7729c52ae63230a2	3	1	stereocheck_calibration	17	stereocheck_calibrationIntro	1	stimuli_distractor_diamondtriangles.svg	stimuli_target_diamondrectangles.svg	31	yes	stereocheck_calibrationButton	0	3985	6	3	antiphase_hc_soi.wav	1	0	0			1				0	
6.6.1	win	2023-06-27	07:19:44	07:32:22	754080	5f2ef53d7729c52ae63230a2	3	1	stereocheck_testphase	18	stereocheck_test_collectResponse	3	stimuli_distractor_diamondtriangles.svg	stimuli_target_diamondrectangles.svg	31	yes	stereocheck_left	1	357	6	3	antiphase_hc_soi.wav	1	1	1	noise_calib_stim_LEFT.wav	1	1				0	
6.6.1	win	2023-06-27	07:19:44	07:32:22	754080	5f2ef53d7729c52ae63230a2	3	1	stereocheck_testphase	18	stereocheck_test_collectResponse	6	stimuli_distractor_diamondtriangles.svg	stimuli_target_diamondrectangles.svg	31	yes	stereocheck_left	1	293	6	3	antiphase_hc_soi.wav	1	2	2	noise_calib_stim_LEFT.wav	1	1				0	
6.6.1	win	2023-06-27	07:19:44	07:32:22	754080	5f2ef53d7729c52ae63230a2	3	1	stereocheck_testphase	18	stereocheck_test_collectResponse	9	stimuli_distractor_diamondtriangles.svg	stimuli_target_diamondrectangles.svg	31	yes	stereocheck_right	1	123	6	3	antiphase_hc_soi.wav	1	3	4	noise_calib_stim_RIGHT.wav	2	1				0	
6.6.1	win	2023-06-27	07:19:44	07:32:22	754080	5f2ef53d7729c52ae63230a2	3	1	stereocheck_testphase	18	stereocheck_test_collectResponse	12	stimuli_distractor_diamondtriangles.svg	stimuli_target_diamondrectangles.svg	31	yes	stereocheck_left	1	160	6	3	antiphase_hc_soi.wav	1	4	3	noise_calib_stim_LEFT.wav	1	1				0	
6.6.1	win	2023-06-27	07:19:44	07:32:22	754080	5f2ef53d7729c52ae63230a2	3	1	stereocheck_testphase	18	stereocheck_test_collectResponse	15	stimuli_distractor_diamondtriangles.svg	stimuli_target_diamondrectangles.svg	31	yes	stereocheck_right	1	234	6	3	antiphase_hc_soi.wav	1	5	6	noise_calib_stim_RIGHT.wav	2	1				0	
6.6.1	win	2023-06-27	07:19:44	07:32:22	754080	5f2ef53d7729c52ae63230a2	3	1	stereocheck_testphase	18	stereocheck_test_collectResponse	18	stimuli_distractor_diamondtriangles.svg	stimuli_target_diamondrectangles.svg	31	yes	stereocheck_right	1	395	6	3	antiphase_hc_soi.wav	1	6	5	noise_calib_stim_RIGHT.wav	2	1				0	
6.6.1	win	2023-06-27	07:19:44	07:32:22	754080	5f2ef53d7729c52ae63230a2	3	1	DL_practice	21	DL_practice	2	stimuli_distractor_diamondtriangles.svg	stimuli_target_diamondrectangles.svg	31	yes	ka	1	1258	6	3	antiphase_hc_soi.wav	1	6	5	noise_calib_stim_RIGHT.wav	2	22	blb_dichoticlistening_ka-ka.mp3	ka	ka	0	left
6.6.1	win	2023-06-27	07:19:44	07:32:22	754080	5f2ef53d7729c52ae63230a2	3	1	DL_practice	21	DL_practice	3	stimuli_distractor_diamondtriangles.svg	stimuli_target_diamondrectangles.svg	31	yes	ga	1	1985	6	3	antiphase_hc_soi.wav	1	6	5	noise_calib_stim_RIGHT.wav	2	15	blb_dichoticlistening_ga-ga.mp3	ga	ga	0	left
6.6.1	win	2023-06-27	07:19:44	07:32:22	754080	5f2ef53d7729c52ae63230a2	3	1	DL_practice	21	DL_practice	4	stimuli_distractor_diamondtriangles.svg	stimuli_target_diamondrectangles.svg	31	yes	ta	1	1586	6	3	antiphase_hc_soi.wav	1	6	5	noise_calib_stim_RIGHT.wav	2	36	blb_dichoticlistening_ta-ta.mp3	ta	ta	0	left
6.6.1	win	2023-06-27	07:19:44	07:32:22	754080	5f2ef53d7729c52ae63230a2	3	1	DL_practice	21	DL_practice	5	stimuli_distractor_diamondtriangles.svg	stimuli_target_diamondrectangles.svg	31	yes	pa	1	1063	6	3	antiphase_hc_soi.wav	1	6	5	noise_calib_stim_RIGHT.wav	2	29	blb_dichoticlistening_pa-pa.mp3	pa	pa	0	left
6.6.1	win	2023-06-27	07:19:44	07:32:22	754080	5f2ef53d7729c52ae63230a2	3	1	DL_practice	21	DL_practice	6	stimuli_distractor_diamondtriangles.svg	stimuli_target_diamondrectangles.svg	31	yes	ka	1	1159	6	3	antiphase_hc_soi.wav	1	6	5	noise_calib_stim_RIGHT.wav	2	23	blb_dichoticlistening_ka-pa.mp3	ka	pa	1	left
6.6.1	win	2023-06-27	07:19:44	07:32:22	754080	5f2ef53d7729c52ae63230a2	3	1	DL_practice	21	DL_practice	7	stimuli_distractor_diamondtriangles.svg	stimuli_target_diamondrectangles.svg	31	yes	ka	0	1051	6	3	antiphase_hc_soi.wav	1	6	5	noise_calib_stim_RIGHT.wav	2	18	blb_dichoticlistening_ga-ta.mp3	ga	ta	1	other
6.6.1	win	2023-06-27	07:19:44	07:32:22	754080	5f2ef53d7729c52ae63230a2	3	1	DL_practice	21	DL_practice	8	stimuli_distractor_diamondtriangles.svg	stimuli_target_diamondrectangles.svg	31	yes	ba	1	1192	6	3	antiphase_hc_soi.wav	1	6	5	noise_calib_stim_RIGHT.wav	2	1	blb_dichoticlistening_ba-ba.mp3	ba	ba	0	left
6.6.1	win	2023-06-27	07:19:44	07:32:22	754080	5f2ef53d7729c52ae63230a2	3	1	DL_practice	21	DL_practice	9	stimuli_distractor_diamondtriangles.svg	stimuli_target_diamondrectangles.svg	31	yes	da	1	957	6	3	antiphase_hc_soi.wav	1	6	5	noise_calib_stim_RIGHT.wav	2	8	blb_dichoticlistening_da-da.mp3	da	da	0	left
6.6.1	win	2023-06-27	07:19:44	07:32:22	754080	5f2ef53d7729c52ae63230a2	3	1	DL_practice	21	DL_practice	10	stimuli_distractor_diamondtriangles.svg	stimuli_target_diamondrectangles.svg	31	yes	ba	1	1407	6	3	antiphase_hc_soi.wav	1	6	5	noise_calib_stim_RIGHT.wav	2	7	blb_dichoticlistening_da-ba.mp3	da	ba	1	right
6.6.1	win	2023-06-27	07:19:44	07:32:22	754080	5f2ef53d7729c52ae63230a2	3	1	DL_test	23	DL_test	1	stimuli_distractor_diamondtriangles.svg	stimuli_target_diamondrectangles.svg	31	yes	da	1	979	6	3	antiphase_hc_soi.wav	1	6	5	noise_calib_stim_RIGHT.wav	2	8	blb_dichoticlistening_da-da.mp3	da	da	0	left
6.6.1	win	2023-06-27	07:19:44	07:32:22	754080	5f2ef53d7729c52ae63230a2	3	1	DL_test	23	DL_test	2	stimuli_distractor_diamondtriangles.svg	stimuli_target_diamondrectangles.svg	31	yes	ka	1	1159	6	3	antiphase_hc_soi.wav	1	6	5	noise_calib_stim_RIGHT.wav	2	28	blb_dichoticlistening_pa-ka.mp3	pa	ka	1	right
6.6.1	win	2023-06-27	07:19:44	07:32:22	754080	5f2ef53d7729c52ae63230a2	3	1	DL_test	23	DL_test	3	stimuli_distractor_diamondtriangles.svg	stimuli_target_diamondrectangles.svg	31	yes	ga	1	1292	6	3	antiphase_hc_soi.wav	1	6	5	noise_calib_stim_RIGHT.wav	2	33	blb_dichoticlistening_ta-ga.mp3	ta	ga	1	right
6.6.1	win	2023-06-27	07:19:44	07:32:22	754080	5f2ef53d7729c52ae63230a2	3	1	DL_test	23	DL_test	4	stimuli_distractor_diamondtriangles.svg	stimuli_target_diamondrectangles.svg	31	yes	ka	1	1113	6	3	antiphase_hc_soi.wav	1	6	5	noise_calib_stim_RIGHT.wav	2	24	blb_dichoticlistening_ka-ta.mp3	ka	ta	1	left
6.6.1	win	2023-06-27	07:19:44	07:32:22	754080	5f2ef53d7729c52ae63230a2	3	1	DL_test	23	DL_test	5	stimuli_distractor_diamondtriangles.svg	stimuli_target_diamondrectangles.svg	31	yes	ka	0	912	6	3	antiphase_hc_soi.wav	1	6	5	noise_calib_stim_RIGHT.wav	2	18	blb_dichoticlistening_ga-ta.mp3	ga	ta	1	other
6.6.1	win	2023-06-27	07:19:44	07:32:22	754080	5f2ef53d7729c52ae63230a2	3	1	DL_test	23	DL_test	6	stimuli_distractor_diamondtriangles.svg	stimuli_target_diamondrectangles.svg	31	yes	ta	1	1369	6	3	antiphase_hc_soi.wav	1	6	5	noise_calib_stim_RIGHT.wav	2	30	blb_dichoticlistening_pa-ta.mp3	pa	ta	1	right
6.6.1	win	2023-06-27	07:19:44	07:32:22	754080	5f2ef53d7729c52ae63230a2	3	1	DL_test	23	DL_test	7	stimuli_distractor_diamondtriangles.svg	stimuli_target_diamondrectangles.svg	31	yes	pa	1	982	6	3	antiphase_hc_soi.wav	1	6	5	noise_calib_stim_RIGHT.wav	2	26	blb_dichoticlistening_pa-da.mp3	pa	da	1	left
6.6.1	win	2023-06-27	07:19:44	07:32:22	754080	5f2ef53d7729c52ae63230a2	3	1	DL_test	23	DL_test	8	stimuli_distractor_diamondtriangles.svg	stimuli_target_diamondrectangles.svg	31	yes	ka	1	821	6	3	antiphase_hc_soi.wav	1	6	5	noise_calib_stim_RIGHT.wav	2	21	blb_dichoticlistening_ka-ga.mp3	ka	ga	1	left
6.6.1	win	2023-06-27	07:19:44	07:32:22	754080	5f2ef53d7729c52ae63230a2	3	1	DL_test	23	DL_test	9	stimuli_distractor_diamondtriangles.svg	stimuli_target_diamondrectangles.svg	31	yes	pa	1	1670	6	3	antiphase_hc_soi.wav	1	6	5	noise_calib_stim_RIGHT.wav	2	17	blb_dichoticlistening_ga-pa.mp3	ga	pa	1	right
6.6.1	win	2023-06-27	07:19:44	07:32:22	754080	5f2ef53d7729c52ae63230a2	3	1	DL_test	23	DL_test	10	stimuli_distractor_diamondtriangles.svg	stimuli_target_diamondrectangles.svg	31	yes	pa	1	1189	6	3	antiphase_hc_soi.wav	1	6	5	noise_calib_stim_RIGHT.wav	2	23	blb_dichoticlistening_ka-pa.mp3	ka	pa	1	right
6.6.1	win	2023-06-27	07:19:44	07:32:22	754080	5f2ef53d7729c52ae63230a2	3	1	DL_test	23	DL_test	11	stimuli_distractor_diamondtriangles.svg	stimuli_target_diamondrectangles.svg	31	yes	ka	0	1399	6	3	antiphase_hc_soi.wav	1	6	5	noise_calib_stim_RIGHT.wav	2	6	blb_dichoticlistening_ba-ta.mp3	ba	ta	1	other
6.6.1	win	2023-06-27	07:19:44	07:32:22	754080	5f2ef53d7729c52ae63230a2	3	1	DL_test	23	DL_test	12	stimuli_distractor_diamondtriangles.svg	stimuli_target_diamondrectangles.svg	31	yes	ga	1	1056	6	3	antiphase_hc_soi.wav	1	6	5	noise_calib_stim_RIGHT.wav	2	3	blb_dichoticlistening_ba-ga.mp3	ba	ga	1	right
6.6.1	win	2023-06-27	07:19:44	07:32:22	754080	5f2ef53d7729c52ae63230a2	3	1	DL_test	23	DL_test	13	stimuli_distractor_diamondtriangles.svg	stimuli_target_diamondrectangles.svg	31	yes	ga	1	884	6	3	antiphase_hc_soi.wav	1	6	5	noise_calib_stim_RIGHT.wav	2	14	blb_dichoticlistening_ga-da.mp3	ga	da	1	left
6.6.1	win	2023-06-27	07:19:44	07:32:22	754080	5f2ef53d7729c52ae63230a2	3	1	DL_test	23	DL_test	14	stimuli_distractor_diamondtriangles.svg	stimuli_target_diamondrectangles.svg	31	yes	pa	1	1346	6	3	antiphase_hc_soi.wav	1	6	5	noise_calib_stim_RIGHT.wav	2	35	blb_dichoticlistening_ta-pa.mp3	ta	pa	1	right
6.6.1	win	2023-06-27	07:19:44	07:32:22	754080	5f2ef53d7729c52ae63230a2	3	1	DL_test	23	DL_test	15	stimuli_distractor_diamondtriangles.svg	stimuli_target_diamondrectangles.svg	31	yes	ta	1	1739	6	3	antiphase_hc_soi.wav	1	6	5	noise_calib_stim_RIGHT.wav	2	32	blb_dichoticlistening_ta-da.mp3	ta	da	1	left
6.6.1	win	2023-06-27	07:19:44	07:32:22	754080	5f2ef53d7729c52ae63230a2	3	1	DL_test	23	DL_test	16	stimuli_distractor_diamondtriangles.svg	stimuli_target_diamondrectangles.svg	31	yes	pa	1	1106	6	3	antiphase_hc_soi.wav	1	6	5	noise_calib_stim_RIGHT.wav	2	5	blb_dichoticlistening_ba-pa.mp3	ba	pa	1	right
6.6.1	win	2023-06-27	07:19:44	07:32:22	754080	5f2ef53d7729c52ae63230a2	3	1	DL_test	23	DL_test	17	stimuli_distractor_diamondtriangles.svg	stimuli_target_diamondrectangles.svg	31	yes	ka	1	714	6	3	antiphase_hc_soi.wav	1	6	5	noise_calib_stim_RIGHT.wav	2	16	blb_dichoticlistening_ga-ka.mp3	ga	ka	1	right
6.6.1	win	2023-06-27	07:19:44	07:32:22	754080	5f2ef53d7729c52ae63230a2	3	1	DL_test	23	DL_test	18	stimuli_distractor_diamondtriangles.svg	stimuli_target_diamondrectangles.svg	31	yes	ka	1	793	6	3	antiphase_hc_soi.wav	1	6	5	noise_calib_stim_RIGHT.wav	2	20	blb_dichoticlistening_ka-da.mp3	ka	da	1	left
6.6.1	win	2023-06-27	07:19:44	07:32:22	754080	5f2ef53d7729c52ae63230a2	3	1	DL_test	23	DL_test	19	stimuli_distractor_diamondtriangles.svg	stimuli_target_diamondrectangles.svg	31	yes	ka	1	756	6	3	antiphase_hc_soi.wav	1	6	5	noise_calib_stim_RIGHT.wav	2	34	blb_dichoticlistening_ta-ka.mp3	ta	ka	1	right
6.6.1	win	2023-06-27	07:19:44	07:32:22	754080	5f2ef53d7729c52ae63230a2	3	1	DL_test	23	DL_test	20	stimuli_distractor_diamondtriangles.svg	stimuli_target_diamondrectangles.svg	31	yes	ga	1	934	6	3	antiphase_hc_soi.wav	1	6	5	noise_calib_stim_RIGHT.wav	2	9	blb_dichoticlistening_da-ga.mp3	da	ga	1	right
6.6.1	win	2023-06-27	07:19:44	07:32:22	754080	5f2ef53d7729c52ae63230a2	3	1	DL_test	23	DL_test	21	stimuli_distractor_diamondtriangles.svg	stimuli_target_diamondrectangles.svg	31	yes	ta	1	1396	6	3	antiphase_hc_soi.wav	1	6	5	noise_calib_stim_RIGHT.wav	2	12	blb_dichoticlistening_da-ta.mp3	da	ta	1	right
6.6.1	win	2023-06-27	07:19:44	07:32:22	754080	5f2ef53d7729c52ae63230a2	3	1	DL_test	23	DL_test	22	stimuli_distractor_diamondtriangles.svg	stimuli_target_diamondrectangles.svg	31	yes	pa	0	831	6	3	antiphase_hc_soi.wav	1	6	5	noise_calib_stim_RIGHT.wav	2	19	blb_dichoticlistening_ka-ba.mp3	ka	ba	1	other
6.6.1	win	2023-06-27	07:19:44	07:32:22	754080	5f2ef53d7729c52ae63230a2	3	1	DL_test	23	DL_test	23	stimuli_distractor_diamondtriangles.svg	stimuli_target_diamondrectangles.svg	31	yes	pa	1	953	6	3	antiphase_hc_soi.wav	1	6	5	noise_calib_stim_RIGHT.wav	2	11	blb_dichoticlistening_da-pa.mp3	da	pa	1	right
6.6.1	win	2023-06-27	07:19:44	07:32:22	754080	5f2ef53d7729c52ae63230a2	3	1	DL_test	23	DL_test	24	stimuli_distractor_diamondtriangles.svg	stimuli_target_diamondrectangles.svg	31	yes	ta	1	2024	6	3	antiphase_hc_soi.wav	1	6	5	noise_calib_stim_RIGHT.wav	2	36	blb_dichoticlistening_ta-ta.mp3	ta	ta	0	left
6.6.1	win	2023-06-27	07:19:44	07:32:22	754080	5f2ef53d7729c52ae63230a2	3	1	DL_test	23	DL_test	25	stimuli_distractor_diamondtriangles.svg	stimuli_target_diamondrectangles.svg	31	yes	pa	1	1032	6	3	antiphase_hc_soi.wav	1	6	5	noise_calib_stim_RIGHT.wav	2	27	blb_dichoticlistening_pa-ga.mp3	pa	ga	1	left
6.6.1	win	2023-06-27	07:19:44	07:32:22	754080	5f2ef53d7729c52ae63230a2	3	1	DL_test	23	DL_test	26	stimuli_distractor_diamondtriangles.svg	stimuli_target_diamondrectangles.svg	31	yes	ta	1	1166	6	3	antiphase_hc_soi.wav	1	6	5	noise_calib_stim_RIGHT.wav	2	31	blb_dichoticlistening_ta-ba.mp3	ta	ba	1	left
