build	computer.platform	date	time	timestamp	time_elapsed_ms	subject	group	session	blockcode	blocknum	trialcode	trialnum	stimulus_left	stimulus_right	stim_index	target_present	response	correct	latency	headphonecheck_countTestTrials	headphonecheck_index	headphonecheck_testSound	headphonecheck_correctResponse	stereocheck_countTestTrials	stereocheck_index	stereocheck_testSound	stereocheck_correctResponse	DL_index	DL_soundfile	DL_leftSound	DL_rightSound	DL_dualSound	DL_choice
6.6.1	and	2023-07-09	10:19:31	10:23:50	243182	60f47fc03ca663a2425b8085	4	1	practice_z	5	practice_z	1	stimuli_distractor_diamondtriangles.svg	stimuli_target_rectangletriangles.svg	7	yes	0	0	2000	0	0			0	0			1				0	
6.6.1	and	2023-07-09	10:19:31	10:23:50	243182	60f47fc03ca663a2425b8085	4	1	practice_z	5	advance_on_keypress_ZEE	2	stimuli_distractor_diamondtriangles.svg	stimuli_target_rectangletriangles.svg	7	yes	57	0	3680	0	0			0	0			1				0	
6.6.1	and	2023-07-09	10:19:31	10:23:56	248863	60f47fc03ca663a2425b8085	4	1	practice_z	5	practice_z	3	stimuli_distractor_trianglediamonds.svg	stimuli_target_diamondrectangles.svg	12	yes	44	1	346	0	0			0	0			1				0	
6.6.1	and	2023-07-09	10:19:31	10:23:56	248863	60f47fc03ca663a2425b8085	4	1	practice_z	5	advance_on_keypress_ZEE	4	stimuli_distractor_trianglediamonds.svg	stimuli_target_diamondrectangles.svg	12	yes	57	0	403	0	0			0	0			1				0	
6.6.1	and	2023-07-09	10:19:31	10:23:58	251305	60f47fc03ca663a2425b8085	4	1	practice_z	5	practice_z	5	stimuli_distractor_diamondtriangles.svg	stimuli_distractor_trianglediamonds.svg	14	no	44	0	394	0	0			0	0			1				0	
6.6.1	and	2023-07-09	10:19:31	10:23:58	251305	60f47fc03ca663a2425b8085	4	1	practice_z	5	advance_on_keypress_ZEE	6	stimuli_distractor_diamondtriangles.svg	stimuli_distractor_trianglediamonds.svg	14	no	57	0	429	0	0			0	0			1				0	
6.6.1	and	2023-07-09	10:19:31	10:24:01	253650	60f47fc03ca663a2425b8085	4	1	practice_z	5	practice_z	7	stimuli_distractor_diamondtriangles.svg	stimuli_target_diamondrectangles.svg	8	yes	44	1	271	0	0			0	0			1				0	
6.6.1	and	2023-07-09	10:19:31	10:24:01	253650	60f47fc03ca663a2425b8085	4	1	practice_z	5	advance_on_keypress_ZEE	8	stimuli_distractor_diamondtriangles.svg	stimuli_target_diamondrectangles.svg	8	yes	57	0	804	0	0			0	0			1				0	
6.6.1	and	2023-07-09	10:19:31	10:24:03	256497	60f47fc03ca663a2425b8085	4	1	practice_z	5	practice_z	9	stimuli_target_rectanglediamonds.svg	stimuli_distractor_trianglediamonds.svg	4	yes	44	1	397	0	0			0	0			1				0	
6.6.1	and	2023-07-09	10:19:31	10:24:03	256497	60f47fc03ca663a2425b8085	4	1	practice_z	5	advance_on_keypress_ZEE	10	stimuli_target_rectanglediamonds.svg	stimuli_distractor_trianglediamonds.svg	4	yes	57	0	752	0	0			0	0			1				0	
6.6.1	and	2023-07-09	10:19:31	10:24:06	259195	60f47fc03ca663a2425b8085	4	1	practice_z	5	practice_z	11	stimuli_target_rectanglediamonds.svg	stimuli_distractor_diamondtriangles.svg	1	yes	44	1	299	0	0			0	0			1				0	
6.6.1	and	2023-07-09	10:19:31	10:24:06	259195	60f47fc03ca663a2425b8085	4	1	practice_z	5	advance_on_keypress_ZEE	12	stimuli_target_rectanglediamonds.svg	stimuli_distractor_diamondtriangles.svg	1	yes	57	0	717	0	0			0	0			1				0	
6.6.1	and	2023-07-09	10:19:31	10:24:09	261837	60f47fc03ca663a2425b8085	4	1	practice_z	5	practice_z	13	stimuli_distractor_trianglediamonds.svg	stimuli_target_rectanglediamonds.svg	10	yes	44	1	270	0	0			0	0			1				0	
6.6.1	and	2023-07-09	10:19:31	10:24:09	261837	60f47fc03ca663a2425b8085	4	1	practice_z	5	advance_on_keypress_ZEE	14	stimuli_distractor_trianglediamonds.svg	stimuli_target_rectanglediamonds.svg	10	yes	57	0	404	0	0			0	0			1				0	
6.6.1	and	2023-07-09	10:19:31	10:24:11	264291	60f47fc03ca663a2425b8085	4	1	practice_z	5	practice_z	15	stimuli_distractor_diamondtriangles.svg	stimuli_target_trianglerectangles.svg	9	yes	44	1	404	0	0			0	0			1				0	
6.6.1	and	2023-07-09	10:19:31	10:24:11	264291	60f47fc03ca663a2425b8085	4	1	practice_z	5	advance_on_keypress_ZEE	16	stimuli_distractor_diamondtriangles.svg	stimuli_target_trianglerectangles.svg	9	yes	57	0	386	0	0			0	0			1				0	
6.6.1	and	2023-07-09	10:19:31	10:24:14	266823	60f47fc03ca663a2425b8085	4	1	practice_z	5	practice_z	17	stimuli_target_diamondsquares.svg	stimuli_distractor_diamondtriangles.svg	3	yes	44	1	490	0	0			0	0			1				0	
6.6.1	and	2023-07-09	10:19:31	10:24:14	266823	60f47fc03ca663a2425b8085	4	1	practice_z	5	advance_on_keypress_ZEE	18	stimuli_target_diamondsquares.svg	stimuli_distractor_diamondtriangles.svg	3	yes	57	0	383	0	0			0	0			1				0	
6.6.1	and	2023-07-09	10:19:31	10:24:16	269284	60f47fc03ca663a2425b8085	4	1	practice_z	5	practice_z	19	stimuli_target_squarediamonds.svg	stimuli_distractor_diamondtriangles.svg	2	yes	44	1	433	0	0			0	0			1				0	
6.6.1	and	2023-07-09	10:19:31	10:24:16	269284	60f47fc03ca663a2425b8085	4	1	practice_z	5	advance_on_keypress_ZEE	20	stimuli_target_squarediamonds.svg	stimuli_distractor_diamondtriangles.svg	2	yes	57	0	369	0	0			0	0			1				0	
6.6.1	and	2023-07-09	10:19:31	10:24:19	271768	60f47fc03ca663a2425b8085	4	1	practice_z	5	practice_z	21	stimuli_distractor_trianglediamonds.svg	stimuli_distractor_diamondtriangles.svg	16	no	44	0	457	0	0			0	0			1				0	
6.6.1	and	2023-07-09	10:19:31	10:24:19	271768	60f47fc03ca663a2425b8085	4	1	practice_z	5	advance_on_keypress_ZEE	22	stimuli_distractor_trianglediamonds.svg	stimuli_distractor_diamondtriangles.svg	16	no	57	0	427	0	0			0	0			1				0	
6.6.1	and	2023-07-09	10:19:31	10:24:21	274452	60f47fc03ca663a2425b8085	4	1	practice_z	5	practice_z	23	stimuli_target_diamondsquares.svg	stimuli_distractor_trianglediamonds.svg	6	yes	44	1	608	0	0			0	0			1				0	
6.6.1	and	2023-07-09	10:19:31	10:24:21	274452	60f47fc03ca663a2425b8085	4	1	practice_z	5	advance_on_keypress_ZEE	24	stimuli_target_diamondsquares.svg	stimuli_distractor_trianglediamonds.svg	6	yes	57	0	346	0	0			0	0			1				0	
6.6.1	and	2023-07-09	10:19:31	10:24:24	277145	60f47fc03ca663a2425b8085	4	1	practice_z	5	practice_z	25	stimuli_distractor_diamondtriangles.svg	stimuli_distractor_diamondtriangles.svg	13	no	44	0	693	0	0			0	0			1				0	
6.6.1	and	2023-07-09	10:19:31	10:24:24	277145	60f47fc03ca663a2425b8085	4	1	practice_z	5	advance_on_keypress_ZEE	26	stimuli_distractor_diamondtriangles.svg	stimuli_distractor_diamondtriangles.svg	13	no	57	0	230	0	0			0	0			1				0	
6.6.1	and	2023-07-09	10:19:31	10:24:26	279215	60f47fc03ca663a2425b8085	4	1	practice_z	5	practice_z	27	stimuli_target_squarediamonds.svg	stimuli_distractor_trianglediamonds.svg	5	yes	44	1	186	0	0			0	0			1				0	
6.6.1	and	2023-07-09	10:19:31	10:24:26	279215	60f47fc03ca663a2425b8085	4	1	practice_z	5	advance_on_keypress_ZEE	28	stimuli_target_squarediamonds.svg	stimuli_distractor_trianglediamonds.svg	5	yes	57	0	159	0	0			0	0			1				0	
6.6.1	and	2023-07-09	10:19:31	10:24:28	281301	60f47fc03ca663a2425b8085	4	1	practice_z	5	practice_z	29	stimuli_distractor_trianglediamonds.svg	stimuli_target_squarediamonds.svg	11	yes	44	1	256	0	0			0	0			1				0	
6.6.1	and	2023-07-09	10:19:31	10:24:28	281301	60f47fc03ca663a2425b8085	4	1	practice_z	5	advance_on_keypress_ZEE	30	stimuli_distractor_trianglediamonds.svg	stimuli_target_squarediamonds.svg	11	yes	57	0	597	0	0			0	0			1				0	
6.6.1	and	2023-07-09	10:19:31	10:24:31	284223	60f47fc03ca663a2425b8085	4	1	practice_z	5	practice_z	31	stimuli_distractor_trianglediamonds.svg	stimuli_distractor_trianglediamonds.svg	15	no	44	0	678	0	0			0	0			1				0	
6.6.1	and	2023-07-09	10:19:31	10:24:31	284223	60f47fc03ca663a2425b8085	4	1	practice_z	5	advance_on_keypress_ZEE	32	stimuli_distractor_trianglediamonds.svg	stimuli_distractor_trianglediamonds.svg	15	no	57	0	144	0	0			0	0			1				0	
6.6.1	and	2023-07-09	10:19:31	10:24:36	288826	60f47fc03ca663a2425b8085	4	1	main_z	7	main_z	1	stimuli_distractor_trianglediamonds.svg	stimuli_target_trianglesquares.svg	26	yes	44	1	725	0	0			0	0			1				0	
6.6.1	and	2023-07-09	10:19:31	10:24:36	288826	60f47fc03ca663a2425b8085	4	1	main_z	7	advance_on_keypress_ZEE	2	stimuli_distractor_trianglediamonds.svg	stimuli_target_trianglesquares.svg	26	yes	57	0	1692	0	0			0	0			1				0	
6.6.1	and	2023-07-09	10:19:31	10:24:38	291431	60f47fc03ca663a2425b8085	4	1	main_z	7	main_z	3	stimuli_target_diamondsquares.svg	stimuli_distractor_trianglediamonds.svg	20	yes	44	1	264	0	0			0	0			1				0	
6.6.1	and	2023-07-09	10:19:31	10:24:38	291431	60f47fc03ca663a2425b8085	4	1	main_z	7	advance_on_keypress_ZEE	4	stimuli_target_diamondsquares.svg	stimuli_distractor_trianglediamonds.svg	20	yes	57	0	948	0	0			0	0			1				0	
6.6.1	and	2023-07-09	10:19:31	10:24:40	293170	60f47fc03ca663a2425b8085	4	1	main_z	7	main_z	5	stimuli_distractor_trianglediamonds.svg	stimuli_distractor_trianglediamonds.svg	34	no	44	0	138	0	0			0	0			1				0	
6.6.1	and	2023-07-09	10:19:31	10:24:40	293170	60f47fc03ca663a2425b8085	4	1	main_z	7	advance_on_keypress_ZEE	6	stimuli_distractor_trianglediamonds.svg	stimuli_distractor_trianglediamonds.svg	34	no	57	0	1176	0	0			0	0			1				0	
6.6.1	and	2023-07-09	10:19:31	10:24:42	295442	60f47fc03ca663a2425b8085	4	1	main_z	7	main_z	7	stimuli_distractor_diamondtriangles.svg	stimuli_target_trianglerectangles.svg	29	yes	44	1	450	0	0			0	0			1				0	
6.6.1	and	2023-07-09	10:19:31	10:24:42	295442	60f47fc03ca663a2425b8085	4	1	main_z	7	advance_on_keypress_ZEE	8	stimuli_distractor_diamondtriangles.svg	stimuli_target_trianglerectangles.svg	29	yes	57	0	730	0	0			0	0			1				0	
6.6.1	and	2023-07-09	10:19:31	10:24:45	297650	60f47fc03ca663a2425b8085	4	1	main_z	7	main_z	9	stimuli_target_trianglerectangles.svg	stimuli_distractor_diamondtriangles.svg	21	yes	44	1	833	0	0			0	0			1				0	
6.6.1	and	2023-07-09	10:19:31	10:24:45	297650	60f47fc03ca663a2425b8085	4	1	main_z	7	advance_on_keypress_ZEE	10	stimuli_target_trianglerectangles.svg	stimuli_distractor_diamondtriangles.svg	21	yes	57	0	1106	0	0			0	0			1				0	
6.6.1	and	2023-07-09	10:19:31	10:24:47	299748	60f47fc03ca663a2425b8085	4	1	main_z	7	main_z	11	stimuli_distractor_trianglediamonds.svg	stimuli_target_squaretriangles.svg	11	yes	44	1	346	0	0			0	0			1				0	
6.6.1	and	2023-07-09	10:19:31	10:24:47	299748	60f47fc03ca663a2425b8085	4	1	main_z	7	advance_on_keypress_ZEE	12	stimuli_distractor_trianglediamonds.svg	stimuli_target_squaretriangles.svg	11	yes	57	0	434	0	0			0	0			1				0	
6.6.1	and	2023-07-09	10:19:31	10:24:48	300909	60f47fc03ca663a2425b8085	4	1	main_z	7	main_z	13	stimuli_target_diamondsquares.svg	stimuli_distractor_diamondtriangles.svg	24	yes	44	1	82	0	0			0	0			1				0	
6.6.1	and	2023-07-09	10:19:31	10:24:48	300909	60f47fc03ca663a2425b8085	4	1	main_z	7	advance_on_keypress_ZEE	14	stimuli_target_diamondsquares.svg	stimuli_distractor_diamondtriangles.svg	24	yes	57	0	297	0	0			0	0			1				0	
6.6.1	and	2023-07-09	10:19:31	10:24:49	301961	60f47fc03ca663a2425b8085	4	1	main_z	7	main_z	15	stimuli_distractor_trianglediamonds.svg	stimuli_target_diamondrectangles.svg	27	yes	44	1	111	0	0			0	0			1				0	
6.6.1	and	2023-07-09	10:19:31	10:24:49	301961	60f47fc03ca663a2425b8085	4	1	main_z	7	advance_on_keypress_ZEE	16	stimuli_distractor_trianglediamonds.svg	stimuli_target_diamondrectangles.svg	27	yes	57	0	270	0	0			0	0			1				0	
6.6.1	and	2023-07-09	10:19:31	10:24:50	302918	60f47fc03ca663a2425b8085	4	1	main_z	7	main_z	17	stimuli_distractor_trianglediamonds.svg	stimuli_target_trianglerectangles.svg	25	yes	44	1	43	0	0			0	0			1				0	
6.6.1	and	2023-07-09	10:19:31	10:24:50	302918	60f47fc03ca663a2425b8085	4	1	main_z	7	advance_on_keypress_ZEE	18	stimuli_distractor_trianglediamonds.svg	stimuli_target_trianglerectangles.svg	25	yes	57	0	718	0	0			0	0			1				0	
6.6.1	and	2023-07-09	10:19:31	10:24:52	304719	60f47fc03ca663a2425b8085	4	1	main_z	7	main_z	19	stimuli_target_rectangletriangles.svg	stimuli_distractor_diamondtriangles.svg	5	yes	44	1	438	0	0			0	0			1				0	
6.6.1	and	2023-07-09	10:19:31	10:24:52	304719	60f47fc03ca663a2425b8085	4	1	main_z	7	advance_on_keypress_ZEE	20	stimuli_target_rectangletriangles.svg	stimuli_distractor_diamondtriangles.svg	5	yes	57	0	855	0	0			0	0			1				0	
6.6.1	and	2023-07-09	10:19:31	10:24:54	306546	60f47fc03ca663a2425b8085	4	1	main_z	7	main_z	21	stimuli_target_rectanglediamonds.svg	stimuli_distractor_diamondtriangles.svg	6	yes	44	1	313	0	0			0	0			1				0	
6.6.1	and	2023-07-09	10:19:31	10:24:54	306546	60f47fc03ca663a2425b8085	4	1	main_z	7	advance_on_keypress_ZEE	22	stimuli_target_rectanglediamonds.svg	stimuli_distractor_diamondtriangles.svg	6	yes	57	0	1481	0	0			0	0			1				0	
6.6.1	and	2023-07-09	10:19:31	10:24:56	308946	60f47fc03ca663a2425b8085	4	1	main_z	7	main_z	23	stimuli_distractor_trianglediamonds.svg	stimuli_distractor_trianglediamonds.svg	33	no	44	0	254	0	0			0	0			1				0	
6.6.1	and	2023-07-09	10:19:31	10:24:56	308946	60f47fc03ca663a2425b8085	4	1	main_z	7	advance_on_keypress_ZEE	24	stimuli_distractor_trianglediamonds.svg	stimuli_distractor_trianglediamonds.svg	33	no	57	0	1120	0	0			0	0			1				0	
6.6.1	and	2023-07-09	10:19:31	10:24:58	311097	60f47fc03ca663a2425b8085	4	1	main_z	7	main_z	25	stimuli_distractor_diamondtriangles.svg	stimuli_target_diamondsquares.svg	32	yes	44	1	376	0	0			0	0			1				0	
6.6.1	and	2023-07-09	10:19:31	10:24:58	311097	60f47fc03ca663a2425b8085	4	1	main_z	7	advance_on_keypress_ZEE	26	stimuli_distractor_diamondtriangles.svg	stimuli_target_diamondsquares.svg	32	yes	57	0	1134	0	0			0	0			1				0	
6.6.1	and	2023-07-09	10:19:31	10:25:00	313122	60f47fc03ca663a2425b8085	4	1	main_z	7	main_z	27	stimuli_target_diamondrectangles.svg	stimuli_distractor_trianglediamonds.svg	19	yes	44	1	216	0	0			0	0			1				0	
6.6.1	and	2023-07-09	10:19:31	10:25:00	313122	60f47fc03ca663a2425b8085	4	1	main_z	7	advance_on_keypress_ZEE	28	stimuli_target_diamondrectangles.svg	stimuli_distractor_trianglediamonds.svg	19	yes	57	0	676	0	0			0	0			1				0	
6.6.1	and	2023-07-09	10:19:31	10:25:02	314979	60f47fc03ca663a2425b8085	4	1	main_z	7	main_z	29	stimuli_distractor_trianglediamonds.svg	stimuli_distractor_diamondtriangles.svg	36	no	44	0	515	0	0			0	0			1				0	
6.6.1	and	2023-07-09	10:19:31	10:25:02	314979	60f47fc03ca663a2425b8085	4	1	main_z	7	advance_on_keypress_ZEE	30	stimuli_distractor_trianglediamonds.svg	stimuli_distractor_diamondtriangles.svg	36	no	57	0	830	0	0			0	0			1				0	
6.6.1	and	2023-07-09	10:19:31	10:25:04	316728	60f47fc03ca663a2425b8085	4	1	main_z	7	main_z	31	stimuli_distractor_diamondtriangles.svg	stimuli_distractor_trianglediamonds.svg	37	no	44	0	256	0	0			0	0			1				0	
6.6.1	and	2023-07-09	10:19:31	10:25:04	316728	60f47fc03ca663a2425b8085	4	1	main_z	7	advance_on_keypress_ZEE	32	stimuli_distractor_diamondtriangles.svg	stimuli_distractor_trianglediamonds.svg	37	no	57	0	927	0	0			0	0			1				0	
6.6.1	and	2023-07-09	10:19:31	10:25:06	318690	60f47fc03ca663a2425b8085	4	1	main_z	7	main_z	33	stimuli_distractor_diamondtriangles.svg	stimuli_target_trianglesquares.svg	30	yes	44	1	379	0	0			0	0			1				0	
6.6.1	and	2023-07-09	10:19:31	10:25:06	318690	60f47fc03ca663a2425b8085	4	1	main_z	7	advance_on_keypress_ZEE	34	stimuli_distractor_diamondtriangles.svg	stimuli_target_trianglesquares.svg	30	yes	57	0	499	0	0			0	0			1				0	
6.6.1	and	2023-07-09	10:19:31	10:25:07	320493	60f47fc03ca663a2425b8085	4	1	main_z	7	main_z	35	stimuli_distractor_diamondtriangles.svg	stimuli_distractor_diamondtriangles.svg	40	no	44	0	637	0	0			0	0			1				0	
6.6.1	and	2023-07-09	10:19:31	10:25:07	320493	60f47fc03ca663a2425b8085	4	1	main_z	7	advance_on_keypress_ZEE	36	stimuli_distractor_diamondtriangles.svg	stimuli_distractor_diamondtriangles.svg	40	no	57	0	735	0	0			0	0			1				0	
6.6.1	and	2023-07-09	10:19:31	10:25:09	322237	60f47fc03ca663a2425b8085	4	1	main_z	7	main_z	37	stimuli_target_trianglerectangles.svg	stimuli_distractor_trianglediamonds.svg	17	yes	44	1	341	0	0			0	0			1				0	
6.6.1	and	2023-07-09	10:19:31	10:25:09	322237	60f47fc03ca663a2425b8085	4	1	main_z	7	advance_on_keypress_ZEE	38	stimuli_target_trianglerectangles.svg	stimuli_distractor_trianglediamonds.svg	17	yes	57	0	398	0	0			0	0			1				0	
6.6.1	and	2023-07-09	10:19:31	10:25:11	323914	60f47fc03ca663a2425b8085	4	1	main_z	7	main_z	39	stimuli_target_diamondrectangles.svg	stimuli_distractor_diamondtriangles.svg	23	yes	44	1	617	0	0			0	0			1				0	
6.6.1	and	2023-07-09	10:19:31	10:25:11	323914	60f47fc03ca663a2425b8085	4	1	main_z	7	advance_on_keypress_ZEE	40	stimuli_target_diamondrectangles.svg	stimuli_distractor_diamondtriangles.svg	23	yes	57	0	656	0	0			0	0			1				0	
6.6.1	and	2023-07-09	10:19:31	10:25:13	325574	60f47fc03ca663a2425b8085	4	1	main_z	7	main_z	41	stimuli_distractor_diamondtriangles.svg	stimuli_target_squaretriangles.svg	15	yes	44	1	345	0	0			0	0			1				0	
6.6.1	and	2023-07-09	10:19:31	10:25:13	325574	60f47fc03ca663a2425b8085	4	1	main_z	7	advance_on_keypress_ZEE	42	stimuli_distractor_diamondtriangles.svg	stimuli_target_squaretriangles.svg	15	yes	57	0	908	0	0			0	0			1				0	
6.6.1	and	2023-07-09	10:19:31	10:25:14	327443	60f47fc03ca663a2425b8085	4	1	main_z	7	main_z	43	stimuli_target_squarediamonds.svg	stimuli_distractor_diamondtriangles.svg	8	yes	44	1	294	0	0			0	0			1				0	
6.6.1	and	2023-07-09	10:19:31	10:25:14	327443	60f47fc03ca663a2425b8085	4	1	main_z	7	advance_on_keypress_ZEE	44	stimuli_target_squarediamonds.svg	stimuli_distractor_diamondtriangles.svg	8	yes	57	0	740	0	0			0	0			1				0	
6.6.1	and	2023-07-09	10:19:31	10:25:16	329241	60f47fc03ca663a2425b8085	4	1	main_z	7	main_z	45	stimuli_target_rectanglediamonds.svg	stimuli_distractor_trianglediamonds.svg	2	yes	44	1	406	0	0			0	0			1				0	
6.6.1	and	2023-07-09	10:19:31	10:25:16	329241	60f47fc03ca663a2425b8085	4	1	main_z	7	advance_on_keypress_ZEE	46	stimuli_target_rectanglediamonds.svg	stimuli_distractor_trianglediamonds.svg	2	yes	57	0	772	0	0			0	0			1				0	
6.6.1	and	2023-07-09	10:19:31	10:25:18	330960	60f47fc03ca663a2425b8085	4	1	main_z	7	main_z	47	stimuli_target_trianglesquares.svg	stimuli_distractor_trianglediamonds.svg	18	yes	44	1	287	0	0			0	0			1				0	
6.6.1	and	2023-07-09	10:19:31	10:25:18	330960	60f47fc03ca663a2425b8085	4	1	main_z	7	advance_on_keypress_ZEE	48	stimuli_target_trianglesquares.svg	stimuli_distractor_trianglediamonds.svg	18	yes	57	0	1218	0	0			0	0			1				0	
6.6.1	and	2023-07-09	10:19:31	10:25:20	333200	60f47fc03ca663a2425b8085	4	1	main_z	7	main_z	49	stimuli_distractor_diamondtriangles.svg	stimuli_distractor_diamondtriangles.svg	39	no	44	0	360	0	0			0	0			1				0	
6.6.1	and	2023-07-09	10:19:31	10:25:20	333200	60f47fc03ca663a2425b8085	4	1	main_z	7	advance_on_keypress_ZEE	50	stimuli_distractor_diamondtriangles.svg	stimuli_distractor_diamondtriangles.svg	39	no	57	0	846	0	0			0	0			1				0	
6.6.1	and	2023-07-09	10:19:31	10:25:22	335236	60f47fc03ca663a2425b8085	4	1	main_z	7	main_z	51	stimuli_distractor_trianglediamonds.svg	stimuli_target_diamondsquares.svg	28	yes	44	1	533	0	0			0	0			1				0	
6.6.1	and	2023-07-09	10:19:31	10:25:22	335236	60f47fc03ca663a2425b8085	4	1	main_z	7	advance_on_keypress_ZEE	52	stimuli_distractor_trianglediamonds.svg	stimuli_target_diamondsquares.svg	28	yes	57	0	1201	0	0			0	0			1				0	
6.6.1	and	2023-07-09	10:19:31	10:25:24	337471	60f47fc03ca663a2425b8085	4	1	main_z	7	main_z	53	stimuli_distractor_diamondtriangles.svg	stimuli_target_squarediamonds.svg	16	yes	44	1	379	0	0			0	0			1				0	
6.6.1	and	2023-07-09	10:19:31	10:25:24	337471	60f47fc03ca663a2425b8085	4	1	main_z	7	advance_on_keypress_ZEE	54	stimuli_distractor_diamondtriangles.svg	stimuli_target_squarediamonds.svg	16	yes	57	0	582	0	0			0	0			1				0	
6.6.1	and	2023-07-09	10:19:31	10:25:26	339354	60f47fc03ca663a2425b8085	4	1	main_z	7	main_z	55	stimuli_target_squaretriangles.svg	stimuli_distractor_trianglediamonds.svg	3	yes	44	1	627	0	0			0	0			1				0	
6.6.1	and	2023-07-09	10:19:31	10:25:26	339354	60f47fc03ca663a2425b8085	4	1	main_z	7	advance_on_keypress_ZEE	56	stimuli_target_squaretriangles.svg	stimuli_distractor_trianglediamonds.svg	3	yes	57	0	637	0	0			0	0			1				0	
6.6.1	and	2023-07-09	10:19:31	10:25:28	341026	60f47fc03ca663a2425b8085	4	1	main_z	7	main_z	57	stimuli_distractor_diamondtriangles.svg	stimuli_target_rectangletriangles.svg	13	yes	44	1	368	0	0			0	0			1				0	
6.6.1	and	2023-07-09	10:19:31	10:25:28	341026	60f47fc03ca663a2425b8085	4	1	main_z	7	advance_on_keypress_ZEE	58	stimuli_distractor_diamondtriangles.svg	stimuli_target_rectangletriangles.svg	13	yes	57	0	504	0	0			0	0			1				0	
6.6.1	and	2023-07-09	10:19:31	10:25:30	342883	60f47fc03ca663a2425b8085	4	1	main_z	7	main_z	59	stimuli_distractor_trianglediamonds.svg	stimuli_distractor_diamondtriangles.svg	35	no	44	0	690	0	0			0	0			1				0	
6.6.1	and	2023-07-09	10:19:31	10:25:30	342883	60f47fc03ca663a2425b8085	4	1	main_z	7	advance_on_keypress_ZEE	60	stimuli_distractor_trianglediamonds.svg	stimuli_distractor_diamondtriangles.svg	35	no	57	0	709	0	0			0	0			1				0	
6.6.1	and	2023-07-09	10:19:31	10:25:32	344793	60f47fc03ca663a2425b8085	4	1	main_z	7	main_z	61	stimuli_distractor_diamondtriangles.svg	stimuli_distractor_trianglediamonds.svg	38	no	44	0	541	0	0			0	0			1				0	
6.6.1	and	2023-07-09	10:19:31	10:25:32	344793	60f47fc03ca663a2425b8085	4	1	main_z	7	advance_on_keypress_ZEE	62	stimuli_distractor_diamondtriangles.svg	stimuli_distractor_trianglediamonds.svg	38	no	57	0	356	0	0			0	0			1				0	
6.6.1	and	2023-07-09	10:19:31	10:25:33	345867	60f47fc03ca663a2425b8085	4	1	main_z	7	main_z	63	stimuli_target_squarediamonds.svg	stimuli_distractor_trianglediamonds.svg	4	yes	44	1	73	0	0			0	0			1				0	
6.6.1	and	2023-07-09	10:19:31	10:25:33	345867	60f47fc03ca663a2425b8085	4	1	main_z	7	advance_on_keypress_ZEE	64	stimuli_target_squarediamonds.svg	stimuli_distractor_trianglediamonds.svg	4	yes	57	0	598	0	0			0	0			1				0	
6.6.1	and	2023-07-09	10:19:31	10:25:34	347437	60f47fc03ca663a2425b8085	4	1	main_z	7	main_z	65	stimuli_distractor_trianglediamonds.svg	stimuli_target_squarediamonds.svg	12	yes	44	1	325	0	0			0	0			1				0	
6.6.1	and	2023-07-09	10:19:31	10:25:34	347437	60f47fc03ca663a2425b8085	4	1	main_z	7	advance_on_keypress_ZEE	66	stimuli_distractor_trianglediamonds.svg	stimuli_target_squarediamonds.svg	12	yes	57	0	295	0	0			0	0			1				0	
6.6.1	and	2023-07-09	10:19:31	10:25:35	348471	60f47fc03ca663a2425b8085	4	1	main_z	7	main_z	67	stimuli_distractor_trianglediamonds.svg	stimuli_target_rectanglediamonds.svg	10	yes	44	1	94	0	0			0	0			1				0	
6.6.1	and	2023-07-09	10:19:31	10:25:35	348471	60f47fc03ca663a2425b8085	4	1	main_z	7	advance_on_keypress_ZEE	68	stimuli_distractor_trianglediamonds.svg	stimuli_target_rectanglediamonds.svg	10	yes	57	0	530	0	0			0	0			1				0	
6.6.1	and	2023-07-09	10:19:31	10:25:37	350264	60f47fc03ca663a2425b8085	4	1	main_z	7	main_z	69	stimuli_distractor_trianglediamonds.svg	stimuli_target_rectangletriangles.svg	9	yes	44	1	606	0	0			0	0			1				0	
6.6.1	and	2023-07-09	10:19:31	10:25:37	350264	60f47fc03ca663a2425b8085	4	1	main_z	7	advance_on_keypress_ZEE	70	stimuli_distractor_trianglediamonds.svg	stimuli_target_rectangletriangles.svg	9	yes	57	0	534	0	0			0	0			1				0	
6.6.1	and	2023-07-09	10:19:31	10:25:39	351793	60f47fc03ca663a2425b8085	4	1	main_z	7	main_z	71	stimuli_distractor_diamondtriangles.svg	stimuli_target_rectanglediamonds.svg	14	yes	44	1	344	0	0			0	0			1				0	
6.6.1	and	2023-07-09	10:19:31	10:25:39	351793	60f47fc03ca663a2425b8085	4	1	main_z	7	advance_on_keypress_ZEE	72	stimuli_distractor_diamondtriangles.svg	stimuli_target_rectanglediamonds.svg	14	yes	57	0	429	0	0			0	0			1				0	
6.6.1	and	2023-07-09	10:19:31	10:25:41	353546	60f47fc03ca663a2425b8085	4	1	main_z	7	main_z	73	stimuli_target_trianglesquares.svg	stimuli_distractor_diamondtriangles.svg	22	yes	44	1	653	0	0			0	0			1				0	
6.6.1	and	2023-07-09	10:19:31	10:25:41	353546	60f47fc03ca663a2425b8085	4	1	main_z	7	advance_on_keypress_ZEE	74	stimuli_target_trianglesquares.svg	stimuli_distractor_diamondtriangles.svg	22	yes	57	0	579	0	0			0	0			1				0	
6.6.1	and	2023-07-09	10:19:31	10:25:42	355193	60f47fc03ca663a2425b8085	4	1	main_z	7	main_z	75	stimuli_target_rectangletriangles.svg	stimuli_distractor_trianglediamonds.svg	1	yes	44	1	404	0	0			0	0			1				0	
6.6.1	and	2023-07-09	10:19:31	10:25:42	355193	60f47fc03ca663a2425b8085	4	1	main_z	7	advance_on_keypress_ZEE	76	stimuli_target_rectangletriangles.svg	stimuli_distractor_trianglediamonds.svg	1	yes	57	0	59	0	0			0	0			1				0	
6.6.1	and	2023-07-09	10:19:31	10:25:43	356144	60f47fc03ca663a2425b8085	4	1	main_z	7	main_z	77	stimuli_distractor_diamondtriangles.svg	stimuli_target_diamondrectangles.svg	31	yes	44	1	237	0	0			0	0			1				0	
6.6.1	and	2023-07-09	10:19:31	10:25:43	356144	60f47fc03ca663a2425b8085	4	1	main_z	7	advance_on_keypress_ZEE	78	stimuli_distractor_diamondtriangles.svg	stimuli_target_diamondrectangles.svg	31	yes	57	0	967	0	0			0	0			1				0	
6.6.1	and	2023-07-09	10:19:31	10:25:45	358412	60f47fc03ca663a2425b8085	4	1	main_z	7	main_z	79	stimuli_target_squaretriangles.svg	stimuli_distractor_diamondtriangles.svg	7	yes	44	1	653	0	0			0	0			1				0	
6.6.1	and	2023-07-09	10:19:31	10:25:45	358412	60f47fc03ca663a2425b8085	4	1	main_z	7	advance_on_keypress_ZEE	80	stimuli_target_squaretriangles.svg	stimuli_distractor_diamondtriangles.svg	7	yes	57	0	857	0	0			0	0			1				0	
6.6.1	and	2023-07-09	10:19:31	10:25:47	360193	60f47fc03ca663a2425b8085	4	1	main_z	7	main_z	81	stimuli_distractor_diamondtriangles.svg	stimuli_distractor_diamondtriangles.svg	40	no	44	0	269	0	0			0	0			1				0	
6.6.1	and	2023-07-09	10:19:31	10:25:47	360193	60f47fc03ca663a2425b8085	4	1	main_z	7	advance_on_keypress_ZEE	82	stimuli_distractor_diamondtriangles.svg	stimuli_distractor_diamondtriangles.svg	40	no	57	0	632	0	0			0	0			1				0	
6.6.1	and	2023-07-09	10:19:31	10:25:49	361717	60f47fc03ca663a2425b8085	4	1	main_z	7	main_z	83	stimuli_target_trianglerectangles.svg	stimuli_distractor_trianglediamonds.svg	17	yes	44	1	227	0	0			0	0			1				0	
6.6.1	and	2023-07-09	10:19:31	10:25:49	361717	60f47fc03ca663a2425b8085	4	1	main_z	7	advance_on_keypress_ZEE	84	stimuli_target_trianglerectangles.svg	stimuli_distractor_trianglediamonds.svg	17	yes	57	0	1401	0	0			0	0			1				0	
6.6.1	and	2023-07-09	10:19:31	10:25:51	364125	60f47fc03ca663a2425b8085	4	1	main_z	7	main_z	85	stimuli_distractor_trianglediamonds.svg	stimuli_target_squaretriangles.svg	11	yes	44	1	340	0	0			0	0			1				0	
6.6.1	and	2023-07-09	10:19:31	10:25:51	364125	60f47fc03ca663a2425b8085	4	1	main_z	7	advance_on_keypress_ZEE	86	stimuli_distractor_trianglediamonds.svg	stimuli_target_squaretriangles.svg	11	yes	57	0	545	0	0			0	0			1				0	
6.6.1	and	2023-07-09	10:19:31	10:25:53	366057	60f47fc03ca663a2425b8085	4	1	main_z	7	main_z	87	stimuli_distractor_diamondtriangles.svg	stimuli_distractor_diamondtriangles.svg	39	no	44	0	724	0	0			0	0			1				0	
6.6.1	and	2023-07-09	10:19:31	10:25:53	366057	60f47fc03ca663a2425b8085	4	1	main_z	7	advance_on_keypress_ZEE	88	stimuli_distractor_diamondtriangles.svg	stimuli_distractor_diamondtriangles.svg	39	no	57	0	696	0	0			0	0			1				0	
6.6.1	and	2023-07-09	10:19:31	10:25:55	367990	60f47fc03ca663a2425b8085	4	1	main_z	7	main_z	89	stimuli_distractor_trianglediamonds.svg	stimuli_target_diamondrectangles.svg	27	yes	44	1	584	0	0			0	0			1				0	
6.6.1	and	2023-07-09	10:19:31	10:25:55	367990	60f47fc03ca663a2425b8085	4	1	main_z	7	advance_on_keypress_ZEE	90	stimuli_distractor_trianglediamonds.svg	stimuli_target_diamondrectangles.svg	27	yes	57	0	558	0	0			0	0			1				0	
6.6.1	and	2023-07-09	10:19:31	10:25:56	369498	60f47fc03ca663a2425b8085	4	1	main_z	7	main_z	91	stimuli_distractor_diamondtriangles.svg	stimuli_distractor_trianglediamonds.svg	38	no	44	0	291	0	0			0	0			1				0	
6.6.1	and	2023-07-09	10:19:31	10:25:56	369498	60f47fc03ca663a2425b8085	4	1	main_z	7	advance_on_keypress_ZEE	92	stimuli_distractor_diamondtriangles.svg	stimuli_distractor_trianglediamonds.svg	38	no	57	0	569	0	0			0	0			1				0	
6.6.1	and	2023-07-09	10:19:31	10:25:58	371414	60f47fc03ca663a2425b8085	4	1	main_z	7	main_z	93	stimuli_target_trianglesquares.svg	stimuli_distractor_trianglediamonds.svg	18	yes	44	1	674	0	0			0	0			1				0	
6.6.1	and	2023-07-09	10:19:31	10:25:58	371414	60f47fc03ca663a2425b8085	4	1	main_z	7	advance_on_keypress_ZEE	94	stimuli_target_trianglesquares.svg	stimuli_distractor_trianglediamonds.svg	18	yes	57	0	596	0	0			0	0			1				0	
6.6.1	and	2023-07-09	10:19:31	10:26:00	373082	60f47fc03ca663a2425b8085	4	1	main_z	7	main_z	95	stimuli_target_trianglerectangles.svg	stimuli_distractor_diamondtriangles.svg	21	yes	44	1	421	0	0			0	0			1				0	
6.6.1	and	2023-07-09	10:19:31	10:26:00	373082	60f47fc03ca663a2425b8085	4	1	main_z	7	advance_on_keypress_ZEE	96	stimuli_target_trianglerectangles.svg	stimuli_distractor_diamondtriangles.svg	21	yes	57	0	509	0	0			0	0			1				0	
6.6.1	and	2023-07-09	10:19:31	10:26:02	374916	60f47fc03ca663a2425b8085	4	1	main_z	7	main_z	97	stimuli_target_squarediamonds.svg	stimuli_distractor_diamondtriangles.svg	8	yes	44	1	658	0	0			0	0			1				0	
6.6.1	and	2023-07-09	10:19:31	10:26:02	374916	60f47fc03ca663a2425b8085	4	1	main_z	7	advance_on_keypress_ZEE	98	stimuli_target_squarediamonds.svg	stimuli_distractor_diamondtriangles.svg	8	yes	57	0	465	0	0			0	0			1				0	
6.6.1	and	2023-07-09	10:19:31	10:26:03	376063	60f47fc03ca663a2425b8085	4	1	main_z	7	main_z	99	stimuli_distractor_trianglediamonds.svg	stimuli_target_rectangletriangles.svg	9	yes	44	1	29	0	0			0	0			1				0	
6.6.1	and	2023-07-09	10:19:31	10:26:03	376063	60f47fc03ca663a2425b8085	4	1	main_z	7	advance_on_keypress_ZEE	100	stimuli_distractor_trianglediamonds.svg	stimuli_target_rectangletriangles.svg	9	yes	57	0	1908	0	0			0	0			1				0	
6.6.1	and	2023-07-09	10:19:31	10:26:06	379257	60f47fc03ca663a2425b8085	4	1	main_z	7	main_z	101	stimuli_distractor_diamondtriangles.svg	stimuli_target_diamondsquares.svg	32	yes	44	1	644	0	0			0	0			1				0	
6.6.1	and	2023-07-09	10:19:31	10:26:06	379257	60f47fc03ca663a2425b8085	4	1	main_z	7	advance_on_keypress_ZEE	102	stimuli_distractor_diamondtriangles.svg	stimuli_target_diamondsquares.svg	32	yes	57	0	1043	0	0			0	0			1				0	
6.6.1	and	2023-07-09	10:19:31	10:26:09	381506	60f47fc03ca663a2425b8085	4	1	main_z	7	main_z	103	stimuli_distractor_diamondtriangles.svg	stimuli_target_squarediamonds.svg	16	yes	44	1	551	0	0			0	0			1				0	
6.6.1	and	2023-07-09	10:19:31	10:26:09	381506	60f47fc03ca663a2425b8085	4	1	main_z	7	advance_on_keypress_ZEE	104	stimuli_distractor_diamondtriangles.svg	stimuli_target_squarediamonds.svg	16	yes	57	0	1519	0	0			0	0			1				0	
6.6.1	and	2023-07-09	10:19:31	10:26:11	384268	60f47fc03ca663a2425b8085	4	1	main_z	7	main_z	105	stimuli_distractor_trianglediamonds.svg	stimuli_target_squarediamonds.svg	12	yes	44	1	576	0	0			0	0			1				0	
6.6.1	and	2023-07-09	10:19:31	10:26:11	384268	60f47fc03ca663a2425b8085	4	1	main_z	7	advance_on_keypress_ZEE	106	stimuli_distractor_trianglediamonds.svg	stimuli_target_squarediamonds.svg	12	yes	57	0	946	0	0			0	0			1				0	
6.6.1	and	2023-07-09	10:19:31	10:26:13	386253	60f47fc03ca663a2425b8085	4	1	main_z	7	main_z	107	stimuli_target_trianglesquares.svg	stimuli_distractor_diamondtriangles.svg	22	yes	44	1	367	0	0			0	0			1				0	
6.6.1	and	2023-07-09	10:19:31	10:26:13	386253	60f47fc03ca663a2425b8085	4	1	main_z	7	advance_on_keypress_ZEE	108	stimuli_target_trianglesquares.svg	stimuli_distractor_diamondtriangles.svg	22	yes	57	0	544	0	0			0	0			1				0	
6.6.1	and	2023-07-09	10:19:31	10:26:15	388037	60f47fc03ca663a2425b8085	4	1	main_z	7	main_z	109	stimuli_distractor_trianglediamonds.svg	stimuli_target_trianglesquares.svg	26	yes	44	1	583	0	0			0	0			1				0	
6.6.1	and	2023-07-09	10:19:31	10:26:15	388037	60f47fc03ca663a2425b8085	4	1	main_z	7	advance_on_keypress_ZEE	110	stimuli_distractor_trianglediamonds.svg	stimuli_target_trianglesquares.svg	26	yes	57	0	1073	0	0			0	0			1				0	
6.6.1	and	2023-07-09	10:19:31	10:26:17	390283	60f47fc03ca663a2425b8085	4	1	main_z	7	main_z	111	stimuli_distractor_diamondtriangles.svg	stimuli_distractor_trianglediamonds.svg	37	no	44	0	508	0	0			0	0			1				0	
6.6.1	and	2023-07-09	10:19:31	10:26:17	390283	60f47fc03ca663a2425b8085	4	1	main_z	7	advance_on_keypress_ZEE	112	stimuli_distractor_diamondtriangles.svg	stimuli_distractor_trianglediamonds.svg	37	no	57	0	883	0	0			0	0			1				0	
6.6.1	and	2023-07-09	10:19:31	10:26:19	392273	60f47fc03ca663a2425b8085	4	1	main_z	7	main_z	113	stimuli_distractor_trianglediamonds.svg	stimuli_target_rectanglediamonds.svg	10	yes	44	1	439	0	0			0	0			1				0	
6.6.1	and	2023-07-09	10:19:31	10:26:19	392273	60f47fc03ca663a2425b8085	4	1	main_z	7	advance_on_keypress_ZEE	114	stimuli_distractor_trianglediamonds.svg	stimuli_target_rectanglediamonds.svg	10	yes	57	0	812	0	0			0	0			1				0	
6.6.1	and	2023-07-09	10:19:31	10:26:21	394202	60f47fc03ca663a2425b8085	4	1	main_z	7	main_z	115	stimuli_distractor_diamondtriangles.svg	stimuli_target_diamondrectangles.svg	31	yes	44	1	458	0	0			0	0			1				0	
6.6.1	and	2023-07-09	10:19:31	10:26:21	394202	60f47fc03ca663a2425b8085	4	1	main_z	7	advance_on_keypress_ZEE	116	stimuli_distractor_diamondtriangles.svg	stimuli_target_diamondrectangles.svg	31	yes	57	0	1000	0	0			0	0			1				0	
6.6.1	and	2023-07-09	10:19:31	10:26:23	396380	60f47fc03ca663a2425b8085	4	1	main_z	7	main_z	117	stimuli_distractor_diamondtriangles.svg	stimuli_target_squaretriangles.svg	15	yes	44	1	516	0	0			0	0			1				0	
6.6.1	and	2023-07-09	10:19:31	10:26:23	396380	60f47fc03ca663a2425b8085	4	1	main_z	7	advance_on_keypress_ZEE	118	stimuli_distractor_diamondtriangles.svg	stimuli_target_squaretriangles.svg	15	yes	57	0	879	0	0			0	0			1				0	
6.6.1	and	2023-07-09	10:19:31	10:26:25	398373	60f47fc03ca663a2425b8085	4	1	main_z	7	main_z	119	stimuli_target_squaretriangles.svg	stimuli_distractor_diamondtriangles.svg	7	yes	44	1	450	0	0			0	0			1				0	
6.6.1	and	2023-07-09	10:19:31	10:26:25	398373	60f47fc03ca663a2425b8085	4	1	main_z	7	advance_on_keypress_ZEE	120	stimuli_target_squaretriangles.svg	stimuli_distractor_diamondtriangles.svg	7	yes	57	0	785	0	0			0	0			1				0	
6.6.1	and	2023-07-09	10:19:31	10:26:27	400462	60f47fc03ca663a2425b8085	4	1	main_z	7	main_z	121	stimuli_distractor_trianglediamonds.svg	stimuli_target_trianglerectangles.svg	25	yes	44	1	633	0	0			0	0			1				0	
6.6.1	and	2023-07-09	10:19:31	10:26:27	400462	60f47fc03ca663a2425b8085	4	1	main_z	7	advance_on_keypress_ZEE	122	stimuli_distractor_trianglediamonds.svg	stimuli_target_trianglerectangles.svg	25	yes	57	0	881	0	0			0	0			1				0	
6.6.1	and	2023-07-09	10:19:31	10:26:30	402504	60f47fc03ca663a2425b8085	4	1	main_z	7	main_z	123	stimuli_distractor_diamondtriangles.svg	stimuli_target_trianglerectangles.svg	29	yes	44	1	504	0	0			0	0			1				0	
6.6.1	and	2023-07-09	10:19:31	10:26:30	402504	60f47fc03ca663a2425b8085	4	1	main_z	7	advance_on_keypress_ZEE	124	stimuli_distractor_diamondtriangles.svg	stimuli_target_trianglerectangles.svg	29	yes	57	0	792	0	0			0	0			1				0	
6.6.1	and	2023-07-09	10:19:31	10:26:31	404309	60f47fc03ca663a2425b8085	4	1	main_z	7	main_z	125	stimuli_target_squarediamonds.svg	stimuli_distractor_trianglediamonds.svg	4	yes	44	1	359	0	0			0	0			1				0	
6.6.1	and	2023-07-09	10:19:31	10:26:31	404309	60f47fc03ca663a2425b8085	4	1	main_z	7	advance_on_keypress_ZEE	126	stimuli_target_squarediamonds.svg	stimuli_distractor_trianglediamonds.svg	4	yes	57	0	642	0	0			0	0			1				0	
6.6.1	and	2023-07-09	10:19:31	10:26:33	406100	60f47fc03ca663a2425b8085	4	1	main_z	7	main_z	127	stimuli_target_rectanglediamonds.svg	stimuli_distractor_trianglediamonds.svg	2	yes	44	1	477	0	0			0	0			1				0	
6.6.1	and	2023-07-09	10:19:31	10:26:33	406100	60f47fc03ca663a2425b8085	4	1	main_z	7	advance_on_keypress_ZEE	128	stimuli_target_rectanglediamonds.svg	stimuli_distractor_trianglediamonds.svg	2	yes	57	0	1057	0	0			0	0			1				0	
6.6.1	and	2023-07-09	10:19:31	10:26:35	408326	60f47fc03ca663a2425b8085	4	1	main_z	7	main_z	129	stimuli_target_rectangletriangles.svg	stimuli_distractor_trianglediamonds.svg	1	yes	44	1	519	0	0			0	0			1				0	
6.6.1	and	2023-07-09	10:19:31	10:26:35	408326	60f47fc03ca663a2425b8085	4	1	main_z	7	advance_on_keypress_ZEE	130	stimuli_target_rectangletriangles.svg	stimuli_distractor_trianglediamonds.svg	1	yes	57	0	1609	0	0			0	0			1				0	
6.6.1	and	2023-07-09	10:19:31	10:26:38	411115	60f47fc03ca663a2425b8085	4	1	main_z	7	main_z	131	stimuli_target_diamondrectangles.svg	stimuli_distractor_diamondtriangles.svg	23	yes	44	1	514	0	0			0	0			1				0	
6.6.1	and	2023-07-09	10:19:31	10:26:38	411115	60f47fc03ca663a2425b8085	4	1	main_z	7	advance_on_keypress_ZEE	132	stimuli_target_diamondrectangles.svg	stimuli_distractor_diamondtriangles.svg	23	yes	57	0	8159	0	0			0	0			1				0	
6.6.1	and	2023-07-09	10:19:31	10:26:47	420204	60f47fc03ca663a2425b8085	4	1	main_z	7	main_z	133	stimuli_target_diamondsquares.svg	stimuli_distractor_trianglediamonds.svg	20	yes	44	1	273	0	0			0	0			1				0	
6.6.1	and	2023-07-09	10:19:31	10:26:47	420204	60f47fc03ca663a2425b8085	4	1	main_z	7	advance_on_keypress_ZEE	134	stimuli_target_diamondsquares.svg	stimuli_distractor_trianglediamonds.svg	20	yes	57	0	892	0	0			0	0			1				0	
6.6.1	and	2023-07-09	10:19:31	10:26:51	423753	60f47fc03ca663a2425b8085	4	1	main_z	7	main_z	135	stimuli_distractor_diamondtriangles.svg	stimuli_target_trianglesquares.svg	30	yes	0	0	2000	0	0			0	0			1				0	
6.6.1	and	2023-07-09	10:19:31	10:26:51	423753	60f47fc03ca663a2425b8085	4	1	main_z	7	advance_on_keypress_ZEE	136	stimuli_distractor_diamondtriangles.svg	stimuli_target_trianglesquares.svg	30	yes	57	0	1257	0	0			0	0			1				0	
6.6.1	and	2023-07-09	10:19:31	10:26:53	426059	60f47fc03ca663a2425b8085	4	1	main_z	7	main_z	137	stimuli_target_diamondrectangles.svg	stimuli_distractor_trianglediamonds.svg	19	yes	44	1	414	0	0			0	0			1				0	
6.6.1	and	2023-07-09	10:19:31	10:26:53	426059	60f47fc03ca663a2425b8085	4	1	main_z	7	advance_on_keypress_ZEE	138	stimuli_target_diamondrectangles.svg	stimuli_distractor_trianglediamonds.svg	19	yes	57	0	721	0	0			0	0			1				0	
6.6.1	and	2023-07-09	10:19:31	10:26:55	428069	60f47fc03ca663a2425b8085	4	1	main_z	7	main_z	139	stimuli_distractor_trianglediamonds.svg	stimuli_target_diamondsquares.svg	28	yes	44	1	619	0	0			0	0			1				0	
6.6.1	and	2023-07-09	10:19:31	10:26:55	428069	60f47fc03ca663a2425b8085	4	1	main_z	7	advance_on_keypress_ZEE	140	stimuli_distractor_trianglediamonds.svg	stimuli_target_diamondsquares.svg	28	yes	57	0	1588	0	0			0	0			1				0	
6.6.1	and	2023-07-09	10:19:31	10:26:59	431606	60f47fc03ca663a2425b8085	4	1	main_z	7	main_z	141	stimuli_target_squaretriangles.svg	stimuli_distractor_trianglediamonds.svg	3	yes	44	1	1282	0	0			0	0			1				0	
6.6.1	and	2023-07-09	10:19:31	10:26:59	431606	60f47fc03ca663a2425b8085	4	1	main_z	7	advance_on_keypress_ZEE	142	stimuli_target_squaretriangles.svg	stimuli_distractor_trianglediamonds.svg	3	yes	57	0	719	0	0			0	0			1				0	
6.6.1	and	2023-07-09	10:19:31	10:27:01	433511	60f47fc03ca663a2425b8085	4	1	main_z	7	main_z	143	stimuli_target_rectanglediamonds.svg	stimuli_distractor_diamondtriangles.svg	6	yes	44	1	543	0	0			0	0			1				0	
6.6.1	and	2023-07-09	10:19:31	10:27:01	433511	60f47fc03ca663a2425b8085	4	1	main_z	7	advance_on_keypress_ZEE	144	stimuli_target_rectanglediamonds.svg	stimuli_distractor_diamondtriangles.svg	6	yes	57	0	693	0	0			0	0			1				0	
6.6.1	and	2023-07-09	10:19:31	10:27:02	435210	60f47fc03ca663a2425b8085	4	1	main_z	7	main_z	145	stimuli_distractor_trianglediamonds.svg	stimuli_distractor_trianglediamonds.svg	34	no	44	0	337	0	0			0	0			1				0	
6.6.1	and	2023-07-09	10:19:31	10:27:02	435210	60f47fc03ca663a2425b8085	4	1	main_z	7	advance_on_keypress_ZEE	146	stimuli_distractor_trianglediamonds.svg	stimuli_distractor_trianglediamonds.svg	34	no	57	0	530	0	0			0	0			1				0	
6.6.1	and	2023-07-09	10:19:31	10:27:04	436967	60f47fc03ca663a2425b8085	4	1	main_z	7	main_z	147	stimuli_target_rectangletriangles.svg	stimuli_distractor_diamondtriangles.svg	5	yes	44	1	574	0	0			0	0			1				0	
6.6.1	and	2023-07-09	10:19:31	10:27:04	436967	60f47fc03ca663a2425b8085	4	1	main_z	7	advance_on_keypress_ZEE	148	stimuli_target_rectangletriangles.svg	stimuli_distractor_diamondtriangles.svg	5	yes	57	0	1610	0	0			0	0			1				0	
6.6.1	and	2023-07-09	10:19:31	10:27:07	439860	60f47fc03ca663a2425b8085	4	1	main_z	7	main_z	149	stimuli_target_diamondsquares.svg	stimuli_distractor_diamondtriangles.svg	24	yes	44	1	595	0	0			0	0			1				0	
6.6.1	and	2023-07-09	10:19:31	10:27:07	439860	60f47fc03ca663a2425b8085	4	1	main_z	7	advance_on_keypress_ZEE	150	stimuli_target_diamondsquares.svg	stimuli_distractor_diamondtriangles.svg	24	yes	57	0	876	0	0			0	0			1				0	
6.6.1	and	2023-07-09	10:19:31	10:27:09	441895	60f47fc03ca663a2425b8085	4	1	main_z	7	main_z	151	stimuli_distractor_trianglediamonds.svg	stimuli_distractor_diamondtriangles.svg	36	no	44	0	498	0	0			0	0			1				0	
6.6.1	and	2023-07-09	10:19:31	10:27:09	441895	60f47fc03ca663a2425b8085	4	1	main_z	7	advance_on_keypress_ZEE	152	stimuli_distractor_trianglediamonds.svg	stimuli_distractor_diamondtriangles.svg	36	no	57	0	1402	0	0			0	0			1				0	
6.6.1	and	2023-07-09	10:19:31	10:27:11	444425	60f47fc03ca663a2425b8085	4	1	main_z	7	main_z	153	stimuli_distractor_diamondtriangles.svg	stimuli_target_rectanglediamonds.svg	14	yes	44	1	463	0	0			0	0			1				0	
6.6.1	and	2023-07-09	10:19:31	10:27:11	444425	60f47fc03ca663a2425b8085	4	1	main_z	7	advance_on_keypress_ZEE	154	stimuli_distractor_diamondtriangles.svg	stimuli_target_rectanglediamonds.svg	14	yes	57	0	1096	0	0			0	0			1				0	
6.6.1	and	2023-07-09	10:19:31	10:27:14	446821	60f47fc03ca663a2425b8085	4	1	main_z	7	main_z	155	stimuli_distractor_trianglediamonds.svg	stimuli_distractor_trianglediamonds.svg	33	no	44	0	634	0	0			0	0			1				0	
6.6.1	and	2023-07-09	10:19:31	10:27:14	446821	60f47fc03ca663a2425b8085	4	1	main_z	7	advance_on_keypress_ZEE	156	stimuli_distractor_trianglediamonds.svg	stimuli_distractor_trianglediamonds.svg	33	no	57	0	1416	0	0			0	0			1				0	
6.6.1	and	2023-07-09	10:19:31	10:27:17	449598	60f47fc03ca663a2425b8085	4	1	main_z	7	main_z	157	stimuli_distractor_trianglediamonds.svg	stimuli_distractor_diamondtriangles.svg	35	no	44	0	684	0	0			0	0			1				0	
6.6.1	and	2023-07-09	10:19:31	10:27:17	449598	60f47fc03ca663a2425b8085	4	1	main_z	7	advance_on_keypress_ZEE	158	stimuli_distractor_trianglediamonds.svg	stimuli_distractor_diamondtriangles.svg	35	no	57	0	1016	0	0			0	0			1				0	
6.6.1	and	2023-07-09	10:19:31	10:27:19	451979	60f47fc03ca663a2425b8085	4	1	main_z	7	main_z	159	stimuli_distractor_diamondtriangles.svg	stimuli_target_rectangletriangles.svg	13	yes	44	1	710	0	0			0	0			1				0	
6.6.1	and	2023-07-09	10:19:31	10:27:19	451979	60f47fc03ca663a2425b8085	4	1	main_z	7	advance_on_keypress_ZEE	160	stimuli_distractor_diamondtriangles.svg	stimuli_target_rectangletriangles.svg	13	yes	57	0	615	0	0			0	0			1				0	
6.6.1	and	2023-07-09	10:19:31	10:27:36	469285	60f47fc03ca663a2425b8085	4	1	practice_slash	9	practice_slash	1	stimuli_distractor_diamondtriangles.svg	stimuli_target_rectangletriangles.svg	7	yes	0	0	2000	0	0			0	0			1				0	
6.6.1	and	2023-07-09	10:19:31	10:27:36	469285	60f47fc03ca663a2425b8085	4	1	practice_slash	9	advance_on_keypress_SLASH	2	stimuli_distractor_diamondtriangles.svg	stimuli_target_rectangletriangles.svg	7	yes	57	0	888	0	0			0	0			1				0	
6.6.1	and	2023-07-09	10:19:31	10:27:39	472214	60f47fc03ca663a2425b8085	4	1	practice_slash	9	practice_slash	3	stimuli_distractor_trianglediamonds.svg	stimuli_target_diamondrectangles.svg	12	yes	53	1	395	0	0			0	0			1				0	
6.6.1	and	2023-07-09	10:19:31	10:27:39	472214	60f47fc03ca663a2425b8085	4	1	practice_slash	9	advance_on_keypress_SLASH	4	stimuli_distractor_trianglediamonds.svg	stimuli_target_diamondrectangles.svg	12	yes	57	0	1160	0	0			0	0			1				0	
6.6.1	and	2023-07-09	10:19:31	10:27:43	475578	60f47fc03ca663a2425b8085	4	1	practice_slash	9	practice_slash	5	stimuli_distractor_trianglediamonds.svg	stimuli_target_rectanglediamonds.svg	10	yes	53	1	551	0	0			0	0			1				0	
6.6.1	and	2023-07-09	10:19:31	10:27:43	475578	60f47fc03ca663a2425b8085	4	1	practice_slash	9	advance_on_keypress_SLASH	6	stimuli_distractor_trianglediamonds.svg	stimuli_target_rectanglediamonds.svg	10	yes	57	0	745	0	0			0	0			1				0	
6.6.1	and	2023-07-09	10:19:31	10:27:45	478352	60f47fc03ca663a2425b8085	4	1	practice_slash	9	practice_slash	7	stimuli_target_rectanglediamonds.svg	stimuli_distractor_diamondtriangles.svg	1	yes	53	1	390	0	0			0	0			1				0	
6.6.1	and	2023-07-09	10:19:31	10:27:45	478352	60f47fc03ca663a2425b8085	4	1	practice_slash	9	advance_on_keypress_SLASH	8	stimuli_target_rectanglediamonds.svg	stimuli_distractor_diamondtriangles.svg	1	yes	57	0	792	0	0			0	0			1				0	
6.6.1	and	2023-07-09	10:19:31	10:27:48	481302	60f47fc03ca663a2425b8085	4	1	practice_slash	9	practice_slash	9	stimuli_target_squarediamonds.svg	stimuli_distractor_diamondtriangles.svg	2	yes	53	1	510	0	0			0	0			1				0	
6.6.1	and	2023-07-09	10:19:31	10:27:48	481302	60f47fc03ca663a2425b8085	4	1	practice_slash	9	advance_on_keypress_SLASH	10	stimuli_target_squarediamonds.svg	stimuli_distractor_diamondtriangles.svg	2	yes	57	0	420	0	0			0	0			1				0	
6.6.1	and	2023-07-09	10:19:31	10:27:51	483929	60f47fc03ca663a2425b8085	4	1	practice_slash	9	practice_slash	11	stimuli_target_squarediamonds.svg	stimuli_distractor_trianglediamonds.svg	5	yes	53	1	561	0	0			0	0			1				0	
6.6.1	and	2023-07-09	10:19:31	10:27:51	483929	60f47fc03ca663a2425b8085	4	1	practice_slash	9	advance_on_keypress_SLASH	12	stimuli_target_squarediamonds.svg	stimuli_distractor_trianglediamonds.svg	5	yes	57	0	423	0	0			0	0			1				0	
6.6.1	and	2023-07-09	10:19:31	10:27:54	486588	60f47fc03ca663a2425b8085	4	1	practice_slash	9	practice_slash	13	stimuli_target_diamondsquares.svg	stimuli_distractor_diamondtriangles.svg	3	yes	53	1	577	0	0			0	0			1				0	
6.6.1	and	2023-07-09	10:19:31	10:27:54	486588	60f47fc03ca663a2425b8085	4	1	practice_slash	9	advance_on_keypress_SLASH	14	stimuli_target_diamondsquares.svg	stimuli_distractor_diamondtriangles.svg	3	yes	57	0	489	0	0			0	0			1				0	
6.6.1	and	2023-07-09	10:19:31	10:27:56	489274	60f47fc03ca663a2425b8085	4	1	practice_slash	9	practice_slash	15	stimuli_distractor_trianglediamonds.svg	stimuli_distractor_diamondtriangles.svg	16	no	53	0	558	0	0			0	0			1				0	
6.6.1	and	2023-07-09	10:19:31	10:27:56	489274	60f47fc03ca663a2425b8085	4	1	practice_slash	9	advance_on_keypress_SLASH	16	stimuli_distractor_trianglediamonds.svg	stimuli_distractor_diamondtriangles.svg	16	no	57	0	367	0	0			0	0			1				0	
6.6.1	and	2023-07-09	10:19:31	10:27:59	491736	60f47fc03ca663a2425b8085	4	1	practice_slash	9	practice_slash	17	stimuli_distractor_trianglediamonds.svg	stimuli_distractor_trianglediamonds.svg	15	no	53	0	453	0	0			0	0			1				0	
6.6.1	and	2023-07-09	10:19:31	10:27:59	491736	60f47fc03ca663a2425b8085	4	1	practice_slash	9	advance_on_keypress_SLASH	18	stimuli_distractor_trianglediamonds.svg	stimuli_distractor_trianglediamonds.svg	15	no	57	0	461	0	0			0	0			1				0	
6.6.1	and	2023-07-09	10:19:31	10:28:01	494112	60f47fc03ca663a2425b8085	4	1	practice_slash	9	practice_slash	19	stimuli_distractor_diamondtriangles.svg	stimuli_distractor_trianglediamonds.svg	14	no	53	0	267	0	0			0	0			1				0	
6.6.1	and	2023-07-09	10:19:31	10:28:01	494112	60f47fc03ca663a2425b8085	4	1	practice_slash	9	advance_on_keypress_SLASH	20	stimuli_distractor_diamondtriangles.svg	stimuli_distractor_trianglediamonds.svg	14	no	57	0	512	0	0			0	0			1				0	
6.6.1	and	2023-07-09	10:19:31	10:28:04	496776	60f47fc03ca663a2425b8085	4	1	practice_slash	9	practice_slash	21	stimuli_distractor_diamondtriangles.svg	stimuli_distractor_diamondtriangles.svg	13	no	53	0	510	0	0			0	0			1				0	
6.6.1	and	2023-07-09	10:19:31	10:28:04	496776	60f47fc03ca663a2425b8085	4	1	practice_slash	9	advance_on_keypress_SLASH	22	stimuli_distractor_diamondtriangles.svg	stimuli_distractor_diamondtriangles.svg	13	no	57	0	84	0	0			0	0			1				0	
6.6.1	and	2023-07-09	10:19:31	10:28:08	500532	60f47fc03ca663a2425b8085	4	1	practice_slash	9	practice_slash	23	stimuli_target_diamondsquares.svg	stimuli_distractor_trianglediamonds.svg	6	yes	0	0	2000	0	0			0	0			1				0	
6.6.1	and	2023-07-09	10:19:31	10:28:08	500532	60f47fc03ca663a2425b8085	4	1	practice_slash	9	advance_on_keypress_SLASH	24	stimuli_target_diamondsquares.svg	stimuli_distractor_trianglediamonds.svg	6	yes	57	0	1114	0	0			0	0			1				0	
6.6.1	and	2023-07-09	10:19:31	10:28:11	503592	60f47fc03ca663a2425b8085	4	1	practice_slash	9	practice_slash	25	stimuli_target_rectanglediamonds.svg	stimuli_distractor_trianglediamonds.svg	4	yes	53	1	290	0	0			0	0			1				0	
6.6.1	and	2023-07-09	10:19:31	10:28:11	503592	60f47fc03ca663a2425b8085	4	1	practice_slash	9	advance_on_keypress_SLASH	26	stimuli_target_rectanglediamonds.svg	stimuli_distractor_trianglediamonds.svg	4	yes	57	0	570	0	0			0	0			1				0	
6.6.1	and	2023-07-09	10:19:31	10:28:13	506072	60f47fc03ca663a2425b8085	4	1	practice_slash	9	practice_slash	27	stimuli_distractor_diamondtriangles.svg	stimuli_target_diamondrectangles.svg	8	yes	53	1	270	0	0			0	0			1				0	
6.6.1	and	2023-07-09	10:19:31	10:28:13	506072	60f47fc03ca663a2425b8085	4	1	practice_slash	9	advance_on_keypress_SLASH	28	stimuli_distractor_diamondtriangles.svg	stimuli_target_diamondrectangles.svg	8	yes	57	0	223	0	0			0	0			1				0	
6.6.1	and	2023-07-09	10:19:31	10:28:15	508312	60f47fc03ca663a2425b8085	4	1	practice_slash	9	practice_slash	29	stimuli_distractor_diamondtriangles.svg	stimuli_target_trianglerectangles.svg	9	yes	53	1	353	0	0			0	0			1				0	
6.6.1	and	2023-07-09	10:19:31	10:28:15	508312	60f47fc03ca663a2425b8085	4	1	practice_slash	9	advance_on_keypress_SLASH	30	stimuli_distractor_diamondtriangles.svg	stimuli_target_trianglerectangles.svg	9	yes	57	0	42	0	0			0	0			1				0	
6.6.1	and	2023-07-09	10:19:31	10:28:17	510285	60f47fc03ca663a2425b8085	4	1	practice_slash	9	practice_slash	31	stimuli_distractor_trianglediamonds.svg	stimuli_target_squarediamonds.svg	11	yes	53	1	261	0	0			0	0			1				0	
6.6.1	and	2023-07-09	10:19:31	10:28:17	510285	60f47fc03ca663a2425b8085	4	1	practice_slash	9	advance_on_keypress_SLASH	32	stimuli_distractor_trianglediamonds.svg	stimuli_target_squarediamonds.svg	11	yes	57	0	38	0	0			0	0			1				0	
6.6.1	and	2023-07-09	10:19:31	10:28:24	516663	60f47fc03ca663a2425b8085	4	1	main_slash	11	main_slash	1	stimuli_target_diamondsquares.svg	stimuli_distractor_diamondtriangles.svg	24	yes	53	1	703	0	0			0	0			1				0	
6.6.1	and	2023-07-09	10:19:31	10:28:24	516663	60f47fc03ca663a2425b8085	4	1	main_slash	11	advance_on_keypress_SLASH	2	stimuli_target_diamondsquares.svg	stimuli_distractor_diamondtriangles.svg	24	yes	57	0	814	0	0			0	0			1				0	
6.6.1	and	2023-07-09	10:19:31	10:28:26	518673	60f47fc03ca663a2425b8085	4	1	main_slash	11	main_slash	3	stimuli_distractor_trianglediamonds.svg	stimuli_target_diamondrectangles.svg	27	yes	53	1	533	0	0			0	0			1				0	
6.6.1	and	2023-07-09	10:19:31	10:28:26	518673	60f47fc03ca663a2425b8085	4	1	main_slash	11	advance_on_keypress_SLASH	4	stimuli_distractor_trianglediamonds.svg	stimuli_target_diamondrectangles.svg	27	yes	57	0	659	0	0			0	0			1				0	
6.6.1	and	2023-07-09	10:19:31	10:28:27	520268	60f47fc03ca663a2425b8085	4	1	main_slash	11	main_slash	5	stimuli_distractor_diamondtriangles.svg	stimuli_target_diamondrectangles.svg	31	yes	53	1	299	0	0			0	0			1				0	
6.6.1	and	2023-07-09	10:19:31	10:28:27	520268	60f47fc03ca663a2425b8085	4	1	main_slash	11	advance_on_keypress_SLASH	6	stimuli_distractor_diamondtriangles.svg	stimuli_target_diamondrectangles.svg	31	yes	57	0	663	0	0			0	0			1				0	
6.6.1	and	2023-07-09	10:19:31	10:28:29	521967	60f47fc03ca663a2425b8085	4	1	main_slash	11	main_slash	7	stimuli_target_squarediamonds.svg	stimuli_distractor_trianglediamonds.svg	4	yes	53	1	377	0	0			0	0			1				0	
6.6.1	and	2023-07-09	10:19:31	10:28:29	521967	60f47fc03ca663a2425b8085	4	1	main_slash	11	advance_on_keypress_SLASH	8	stimuli_target_squarediamonds.svg	stimuli_distractor_trianglediamonds.svg	4	yes	57	0	516	0	0			0	0			1				0	
6.6.1	and	2023-07-09	10:19:31	10:28:31	523785	60f47fc03ca663a2425b8085	4	1	main_slash	11	main_slash	9	stimuli_target_diamondrectangles.svg	stimuli_distractor_diamondtriangles.svg	23	yes	53	1	650	0	0			0	0			1				0	
6.6.1	and	2023-07-09	10:19:31	10:28:31	523785	60f47fc03ca663a2425b8085	4	1	main_slash	11	advance_on_keypress_SLASH	10	stimuli_target_diamondrectangles.svg	stimuli_distractor_diamondtriangles.svg	23	yes	57	0	1003	0	0			0	0			1				0	
6.6.1	and	2023-07-09	10:19:31	10:28:33	525844	60f47fc03ca663a2425b8085	4	1	main_slash	11	main_slash	11	stimuli_distractor_trianglediamonds.svg	stimuli_target_trianglesquares.svg	26	yes	53	1	397	0	0			0	0			1				0	
6.6.1	and	2023-07-09	10:19:31	10:28:33	525844	60f47fc03ca663a2425b8085	4	1	main_slash	11	advance_on_keypress_SLASH	12	stimuli_distractor_trianglediamonds.svg	stimuli_target_trianglesquares.svg	26	yes	57	0	660	0	0			0	0			1				0	
6.6.1	and	2023-07-09	10:19:31	10:28:35	527633	60f47fc03ca663a2425b8085	4	1	main_slash	11	main_slash	13	stimuli_target_diamondrectangles.svg	stimuli_distractor_trianglediamonds.svg	19	yes	53	1	457	0	0			0	0			1				0	
6.6.1	and	2023-07-09	10:19:31	10:28:35	527633	60f47fc03ca663a2425b8085	4	1	main_slash	11	advance_on_keypress_SLASH	14	stimuli_target_diamondrectangles.svg	stimuli_distractor_trianglediamonds.svg	19	yes	57	0	675	0	0			0	0			1				0	
6.6.1	and	2023-07-09	10:19:31	10:28:36	529344	60f47fc03ca663a2425b8085	4	1	main_slash	11	main_slash	15	stimuli_distractor_diamondtriangles.svg	stimuli_target_squaretriangles.svg	15	yes	53	1	366	0	0			0	0			1				0	
6.6.1	and	2023-07-09	10:19:31	10:28:36	529344	60f47fc03ca663a2425b8085	4	1	main_slash	11	advance_on_keypress_SLASH	16	stimuli_distractor_diamondtriangles.svg	stimuli_target_squaretriangles.svg	15	yes	57	0	409	0	0			0	0			1				0	
6.6.1	and	2023-07-09	10:19:31	10:28:38	531052	60f47fc03ca663a2425b8085	4	1	main_slash	11	main_slash	17	stimuli_distractor_diamondtriangles.svg	stimuli_distractor_trianglediamonds.svg	37	no	53	0	632	0	0			0	0			1				0	
6.6.1	and	2023-07-09	10:19:31	10:28:38	531052	60f47fc03ca663a2425b8085	4	1	main_slash	11	advance_on_keypress_SLASH	18	stimuli_distractor_diamondtriangles.svg	stimuli_distractor_trianglediamonds.svg	37	no	57	0	1057	0	0			0	0			1				0	
6.6.1	and	2023-07-09	10:19:31	10:28:40	533034	60f47fc03ca663a2425b8085	4	1	main_slash	11	main_slash	19	stimuli_distractor_diamondtriangles.svg	stimuli_target_rectangletriangles.svg	13	yes	53	1	260	0	0			0	0			1				0	
6.6.1	and	2023-07-09	10:19:31	10:28:40	533034	60f47fc03ca663a2425b8085	4	1	main_slash	11	advance_on_keypress_SLASH	20	stimuli_distractor_diamondtriangles.svg	stimuli_target_rectangletriangles.svg	13	yes	57	0	1232	0	0			0	0			1				0	
6.6.1	and	2023-07-09	10:19:31	10:28:42	535496	60f47fc03ca663a2425b8085	4	1	main_slash	11	main_slash	21	stimuli_target_rectangletriangles.svg	stimuli_distractor_diamondtriangles.svg	5	yes	53	1	559	0	0			0	0			1				0	
6.6.1	and	2023-07-09	10:19:31	10:28:42	535496	60f47fc03ca663a2425b8085	4	1	main_slash	11	advance_on_keypress_SLASH	22	stimuli_target_rectangletriangles.svg	stimuli_distractor_diamondtriangles.svg	5	yes	57	0	1396	0	0			0	0			1				0	
6.6.1	and	2023-07-09	10:19:31	10:28:45	537907	60f47fc03ca663a2425b8085	4	1	main_slash	11	main_slash	23	stimuli_distractor_diamondtriangles.svg	stimuli_distractor_diamondtriangles.svg	40	no	53	0	342	0	0			0	0			1				0	
6.6.1	and	2023-07-09	10:19:31	10:28:45	537907	60f47fc03ca663a2425b8085	4	1	main_slash	11	advance_on_keypress_SLASH	24	stimuli_distractor_diamondtriangles.svg	stimuli_distractor_diamondtriangles.svg	40	no	57	0	574	0	0			0	0			1				0	
6.6.1	and	2023-07-09	10:19:31	10:28:47	539678	60f47fc03ca663a2425b8085	4	1	main_slash	11	main_slash	25	stimuli_target_squaretriangles.svg	stimuli_distractor_trianglediamonds.svg	3	yes	53	1	535	0	0			0	0			1				0	
6.6.1	and	2023-07-09	10:19:31	10:28:47	539678	60f47fc03ca663a2425b8085	4	1	main_slash	11	advance_on_keypress_SLASH	26	stimuli_target_squaretriangles.svg	stimuli_distractor_trianglediamonds.svg	3	yes	57	0	1833	0	0			0	0			1				0	
6.6.1	and	2023-07-09	10:19:31	10:28:50	542677	60f47fc03ca663a2425b8085	4	1	main_slash	11	main_slash	27	stimuli_target_rectanglediamonds.svg	stimuli_distractor_diamondtriangles.svg	6	yes	53	1	507	0	0			0	0			1				0	
6.6.1	and	2023-07-09	10:19:31	10:28:50	542677	60f47fc03ca663a2425b8085	4	1	main_slash	11	advance_on_keypress_SLASH	28	stimuli_target_rectanglediamonds.svg	stimuli_distractor_diamondtriangles.svg	6	yes	57	0	1671	0	0			0	0			1				0	
6.6.1	and	2023-07-09	10:19:31	10:28:52	545282	60f47fc03ca663a2425b8085	4	1	main_slash	11	main_slash	29	stimuli_distractor_trianglediamonds.svg	stimuli_distractor_diamondtriangles.svg	35	no	53	0	276	0	0			0	0			1				0	
6.6.1	and	2023-07-09	10:19:31	10:28:52	545282	60f47fc03ca663a2425b8085	4	1	main_slash	11	advance_on_keypress_SLASH	30	stimuli_distractor_trianglediamonds.svg	stimuli_distractor_diamondtriangles.svg	35	no	57	0	644	0	0			0	0			1				0	
6.6.1	and	2023-07-09	10:19:31	10:28:54	546918	60f47fc03ca663a2425b8085	4	1	main_slash	11	main_slash	31	stimuli_distractor_trianglediamonds.svg	stimuli_target_squarediamonds.svg	12	yes	53	1	326	0	0			0	0			1				0	
6.6.1	and	2023-07-09	10:19:31	10:28:54	546918	60f47fc03ca663a2425b8085	4	1	main_slash	11	advance_on_keypress_SLASH	32	stimuli_distractor_trianglediamonds.svg	stimuli_target_squarediamonds.svg	12	yes	57	0	586	0	0			0	0			1				0	
6.6.1	and	2023-07-09	10:19:31	10:28:55	548494	60f47fc03ca663a2425b8085	4	1	main_slash	11	main_slash	33	stimuli_distractor_trianglediamonds.svg	stimuli_target_rectanglediamonds.svg	10	yes	53	1	321	0	0			0	0			1				0	
6.6.1	and	2023-07-09	10:19:31	10:28:55	548494	60f47fc03ca663a2425b8085	4	1	main_slash	11	advance_on_keypress_SLASH	34	stimuli_distractor_trianglediamonds.svg	stimuli_target_rectanglediamonds.svg	10	yes	57	0	984	0	0			0	0			1				0	
6.6.1	and	2023-07-09	10:19:31	10:28:57	550396	60f47fc03ca663a2425b8085	4	1	main_slash	11	main_slash	35	stimuli_target_squarediamonds.svg	stimuli_distractor_diamondtriangles.svg	8	yes	53	1	264	0	0			0	0			1				0	
6.6.1	and	2023-07-09	10:19:31	10:28:57	550396	60f47fc03ca663a2425b8085	4	1	main_slash	11	advance_on_keypress_SLASH	36	stimuli_target_squarediamonds.svg	stimuli_distractor_diamondtriangles.svg	8	yes	57	0	1574	0	0			0	0			1				0	
6.6.1	and	2023-07-09	10:19:31	10:29:02	554639	60f47fc03ca663a2425b8085	4	1	main_slash	11	main_slash	37	stimuli_distractor_diamondtriangles.svg	stimuli_target_diamondsquares.svg	32	yes	0	0	2000	0	0			0	0			1				0	
6.6.1	and	2023-07-09	10:19:31	10:29:02	554639	60f47fc03ca663a2425b8085	4	1	main_slash	11	advance_on_keypress_SLASH	38	stimuli_distractor_diamondtriangles.svg	stimuli_target_diamondsquares.svg	32	yes	57	0	5724	0	0			0	0			1				0	
6.6.1	and	2023-07-09	10:19:31	10:29:08	561378	60f47fc03ca663a2425b8085	4	1	main_slash	11	main_slash	39	stimuli_target_rectangletriangles.svg	stimuli_distractor_trianglediamonds.svg	1	yes	53	1	378	0	0			0	0			1				0	
6.6.1	and	2023-07-09	10:19:31	10:29:08	561378	60f47fc03ca663a2425b8085	4	1	main_slash	11	advance_on_keypress_SLASH	40	stimuli_target_rectangletriangles.svg	stimuli_distractor_trianglediamonds.svg	1	yes	57	0	885	0	0			0	0			1				0	
6.6.1	and	2023-07-09	10:19:31	10:29:10	563441	60f47fc03ca663a2425b8085	4	1	main_slash	11	main_slash	41	stimuli_distractor_diamondtriangles.svg	stimuli_distractor_diamondtriangles.svg	39	no	53	0	514	0	0			0	0			1				0	
6.6.1	and	2023-07-09	10:19:31	10:29:10	563441	60f47fc03ca663a2425b8085	4	1	main_slash	11	advance_on_keypress_SLASH	42	stimuli_distractor_diamondtriangles.svg	stimuli_distractor_diamondtriangles.svg	39	no	57	0	1188	0	0			0	0			1				0	
6.6.1	and	2023-07-09	10:19:31	10:29:13	566334	60f47fc03ca663a2425b8085	4	1	main_slash	11	main_slash	43	stimuli_target_trianglerectangles.svg	stimuli_distractor_diamondtriangles.svg	21	yes	53	1	1037	0	0			0	0			1				0	
6.6.1	and	2023-07-09	10:19:31	10:29:13	566334	60f47fc03ca663a2425b8085	4	1	main_slash	11	advance_on_keypress_SLASH	44	stimuli_target_trianglerectangles.svg	stimuli_distractor_diamondtriangles.svg	21	yes	57	0	558	0	0			0	0			1				0	
6.6.1	and	2023-07-09	10:19:31	10:29:15	567730	60f47fc03ca663a2425b8085	4	1	main_slash	11	main_slash	45	stimuli_distractor_trianglediamonds.svg	stimuli_target_rectangletriangles.svg	9	yes	53	1	173	0	0			0	0			1				0	
6.6.1	and	2023-07-09	10:19:31	10:29:15	567730	60f47fc03ca663a2425b8085	4	1	main_slash	11	advance_on_keypress_SLASH	46	stimuli_distractor_trianglediamonds.svg	stimuli_target_rectangletriangles.svg	9	yes	57	0	482	0	0			0	0			1				0	
6.6.1	and	2023-07-09	10:19:31	10:29:16	569023	60f47fc03ca663a2425b8085	4	1	main_slash	11	main_slash	47	stimuli_distractor_diamondtriangles.svg	stimuli_target_trianglerectangles.svg	29	yes	53	1	158	0	0			0	0			1				0	
6.6.1	and	2023-07-09	10:19:31	10:29:16	569023	60f47fc03ca663a2425b8085	4	1	main_slash	11	advance_on_keypress_SLASH	48	stimuli_distractor_diamondtriangles.svg	stimuli_target_trianglerectangles.svg	29	yes	57	0	511	0	0			0	0			1				0	
6.6.1	and	2023-07-09	10:19:31	10:29:17	570413	60f47fc03ca663a2425b8085	4	1	main_slash	11	main_slash	49	stimuli_target_trianglerectangles.svg	stimuli_distractor_trianglediamonds.svg	17	yes	53	1	218	0	0			0	0			1				0	
6.6.1	and	2023-07-09	10:19:31	10:29:17	570413	60f47fc03ca663a2425b8085	4	1	main_slash	11	advance_on_keypress_SLASH	50	stimuli_target_trianglerectangles.svg	stimuli_distractor_trianglediamonds.svg	17	yes	57	0	603	0	0			0	0			1				0	
6.6.1	and	2023-07-09	10:19:31	10:29:20	572840	60f47fc03ca663a2425b8085	4	1	main_slash	11	main_slash	51	stimuli_target_trianglesquares.svg	stimuli_distractor_trianglediamonds.svg	18	yes	53	1	1160	0	0			0	0			1				0	
6.6.1	and	2023-07-09	10:19:31	10:29:20	572840	60f47fc03ca663a2425b8085	4	1	main_slash	11	advance_on_keypress_SLASH	52	stimuli_target_trianglesquares.svg	stimuli_distractor_trianglediamonds.svg	18	yes	57	0	5816	0	0			0	0			1				0	
6.6.1	and	2023-07-09	10:19:31	10:29:26	579358	60f47fc03ca663a2425b8085	4	1	main_slash	11	main_slash	53	stimuli_target_diamondsquares.svg	stimuli_distractor_trianglediamonds.svg	20	yes	53	1	47	0	0			0	0			1				0	
6.6.1	and	2023-07-09	10:19:31	10:29:26	579358	60f47fc03ca663a2425b8085	4	1	main_slash	11	advance_on_keypress_SLASH	54	stimuli_target_diamondsquares.svg	stimuli_distractor_trianglediamonds.svg	20	yes	57	0	638	0	0			0	0			1				0	
6.6.1	and	2023-07-09	10:19:31	10:29:28	580708	60f47fc03ca663a2425b8085	4	1	main_slash	11	main_slash	55	stimuli_distractor_diamondtriangles.svg	stimuli_target_squarediamonds.svg	16	yes	53	1	61	0	0			0	0			1				0	
6.6.1	and	2023-07-09	10:19:31	10:29:28	580708	60f47fc03ca663a2425b8085	4	1	main_slash	11	advance_on_keypress_SLASH	56	stimuli_distractor_diamondtriangles.svg	stimuli_target_squarediamonds.svg	16	yes	57	0	604	0	0			0	0			1				0	
6.6.1	and	2023-07-09	10:19:31	10:29:29	582340	60f47fc03ca663a2425b8085	4	1	main_slash	11	main_slash	57	stimuli_distractor_trianglediamonds.svg	stimuli_target_diamondsquares.svg	28	yes	53	1	373	0	0			0	0			1				0	
6.6.1	and	2023-07-09	10:19:31	10:29:29	582340	60f47fc03ca663a2425b8085	4	1	main_slash	11	advance_on_keypress_SLASH	58	stimuli_distractor_trianglediamonds.svg	stimuli_target_diamondsquares.svg	28	yes	57	0	609	0	0			0	0			1				0	
6.6.1	and	2023-07-09	10:19:31	10:29:31	583740	60f47fc03ca663a2425b8085	4	1	main_slash	11	main_slash	59	stimuli_distractor_diamondtriangles.svg	stimuli_target_trianglesquares.svg	30	yes	53	1	142	0	0			0	0			1				0	
6.6.1	and	2023-07-09	10:19:31	10:29:31	583740	60f47fc03ca663a2425b8085	4	1	main_slash	11	advance_on_keypress_SLASH	60	stimuli_distractor_diamondtriangles.svg	stimuli_target_trianglesquares.svg	30	yes	57	0	577	0	0			0	0			1				0	
6.6.1	and	2023-07-09	10:19:31	10:29:32	585145	60f47fc03ca663a2425b8085	4	1	main_slash	11	main_slash	61	stimuli_distractor_diamondtriangles.svg	stimuli_target_rectanglediamonds.svg	14	yes	53	1	174	0	0			0	0			1				0	
6.6.1	and	2023-07-09	10:19:31	10:29:32	585145	60f47fc03ca663a2425b8085	4	1	main_slash	11	advance_on_keypress_SLASH	62	stimuli_distractor_diamondtriangles.svg	stimuli_target_rectanglediamonds.svg	14	yes	57	0	647	0	0			0	0			1				0	
6.6.1	and	2023-07-09	10:19:31	10:29:34	586624	60f47fc03ca663a2425b8085	4	1	main_slash	11	main_slash	63	stimuli_distractor_trianglediamonds.svg	stimuli_distractor_trianglediamonds.svg	34	no	53	0	178	0	0			0	0			1				0	
6.6.1	and	2023-07-09	10:19:31	10:29:34	586624	60f47fc03ca663a2425b8085	4	1	main_slash	11	advance_on_keypress_SLASH	64	stimuli_distractor_trianglediamonds.svg	stimuli_distractor_trianglediamonds.svg	34	no	57	0	655	0	0			0	0			1				0	
6.6.1	and	2023-07-09	10:19:31	10:29:35	587971	60f47fc03ca663a2425b8085	4	1	main_slash	11	main_slash	65	stimuli_distractor_trianglediamonds.svg	stimuli_distractor_diamondtriangles.svg	36	no	53	0	26	0	0			0	0			1				0	
6.6.1	and	2023-07-09	10:19:31	10:29:35	587971	60f47fc03ca663a2425b8085	4	1	main_slash	11	advance_on_keypress_SLASH	66	stimuli_distractor_trianglediamonds.svg	stimuli_distractor_diamondtriangles.svg	36	no	57	0	631	0	0			0	0			1				0	
6.6.1	and	2023-07-09	10:19:31	10:29:37	589892	60f47fc03ca663a2425b8085	4	1	main_slash	11	main_slash	67	stimuli_target_trianglesquares.svg	stimuli_distractor_diamondtriangles.svg	22	yes	53	1	633	0	0			0	0			1				0	
6.6.1	and	2023-07-09	10:19:31	10:29:37	589892	60f47fc03ca663a2425b8085	4	1	main_slash	11	advance_on_keypress_SLASH	68	stimuli_target_trianglesquares.svg	stimuli_distractor_diamondtriangles.svg	22	yes	57	0	631	0	0			0	0			1				0	
6.6.1	and	2023-07-09	10:19:31	10:29:38	591434	60f47fc03ca663a2425b8085	4	1	main_slash	11	main_slash	69	stimuli_distractor_diamondtriangles.svg	stimuli_distractor_trianglediamonds.svg	38	no	53	0	268	0	0			0	0			1				0	
6.6.1	and	2023-07-09	10:19:31	10:29:38	591434	60f47fc03ca663a2425b8085	4	1	main_slash	11	advance_on_keypress_SLASH	70	stimuli_distractor_diamondtriangles.svg	stimuli_distractor_trianglediamonds.svg	38	no	57	0	640	0	0			0	0			1				0	
6.6.1	and	2023-07-09	10:19:31	10:29:40	592859	60f47fc03ca663a2425b8085	4	1	main_slash	11	main_slash	71	stimuli_target_rectanglediamonds.svg	stimuli_distractor_trianglediamonds.svg	2	yes	53	1	129	0	0			0	0			1				0	
6.6.1	and	2023-07-09	10:19:31	10:29:40	592859	60f47fc03ca663a2425b8085	4	1	main_slash	11	advance_on_keypress_SLASH	72	stimuli_target_rectanglediamonds.svg	stimuli_distractor_trianglediamonds.svg	2	yes	57	0	510	0	0			0	0			1				0	
6.6.1	and	2023-07-09	10:19:31	10:29:41	594460	60f47fc03ca663a2425b8085	4	1	main_slash	11	main_slash	73	stimuli_distractor_trianglediamonds.svg	stimuli_target_squaretriangles.svg	11	yes	53	1	440	0	0			0	0			1				0	
6.6.1	and	2023-07-09	10:19:31	10:29:41	594460	60f47fc03ca663a2425b8085	4	1	main_slash	11	advance_on_keypress_SLASH	74	stimuli_distractor_trianglediamonds.svg	stimuli_target_squaretriangles.svg	11	yes	57	0	448	0	0			0	0			1				0	
6.6.1	and	2023-07-09	10:19:31	10:29:43	595885	60f47fc03ca663a2425b8085	4	1	main_slash	11	main_slash	75	stimuli_distractor_trianglediamonds.svg	stimuli_target_trianglerectangles.svg	25	yes	53	1	327	0	0			0	0			1				0	
6.6.1	and	2023-07-09	10:19:31	10:29:43	595885	60f47fc03ca663a2425b8085	4	1	main_slash	11	advance_on_keypress_SLASH	76	stimuli_distractor_trianglediamonds.svg	stimuli_target_trianglerectangles.svg	25	yes	57	0	508	0	0			0	0			1				0	
6.6.1	and	2023-07-09	10:19:31	10:29:44	597417	60f47fc03ca663a2425b8085	4	1	main_slash	11	main_slash	77	stimuli_target_squaretriangles.svg	stimuli_distractor_diamondtriangles.svg	7	yes	53	1	357	0	0			0	0			1				0	
6.6.1	and	2023-07-09	10:19:31	10:29:44	597417	60f47fc03ca663a2425b8085	4	1	main_slash	11	advance_on_keypress_SLASH	78	stimuli_target_squaretriangles.svg	stimuli_distractor_diamondtriangles.svg	7	yes	57	0	557	0	0			0	0			1				0	
6.6.1	and	2023-07-09	10:19:31	10:29:46	599058	60f47fc03ca663a2425b8085	4	1	main_slash	11	main_slash	79	stimuli_distractor_trianglediamonds.svg	stimuli_distractor_trianglediamonds.svg	33	no	53	0	428	0	0			0	0			1				0	
6.6.1	and	2023-07-09	10:19:31	10:29:46	599058	60f47fc03ca663a2425b8085	4	1	main_slash	11	advance_on_keypress_SLASH	80	stimuli_distractor_trianglediamonds.svg	stimuli_distractor_trianglediamonds.svg	33	no	57	0	603	0	0			0	0			1				0	
6.6.1	and	2023-07-09	10:19:31	10:29:48	600593	60f47fc03ca663a2425b8085	4	1	main_slash	11	main_slash	81	stimuli_distractor_trianglediamonds.svg	stimuli_target_diamondrectangles.svg	27	yes	53	1	262	0	0			0	0			1				0	
6.6.1	and	2023-07-09	10:19:31	10:29:48	600593	60f47fc03ca663a2425b8085	4	1	main_slash	11	advance_on_keypress_SLASH	82	stimuli_distractor_trianglediamonds.svg	stimuli_target_diamondrectangles.svg	27	yes	57	0	466	0	0			0	0			1				0	
6.6.1	and	2023-07-09	10:19:31	10:29:49	602027	60f47fc03ca663a2425b8085	4	1	main_slash	11	main_slash	83	stimuli_target_rectangletriangles.svg	stimuli_distractor_diamondtriangles.svg	5	yes	53	1	296	0	0			0	0			1				0	
6.6.1	and	2023-07-09	10:19:31	10:29:49	602027	60f47fc03ca663a2425b8085	4	1	main_slash	11	advance_on_keypress_SLASH	84	stimuli_target_rectangletriangles.svg	stimuli_distractor_diamondtriangles.svg	5	yes	57	0	414	0	0			0	0			1				0	
6.6.1	and	2023-07-09	10:19:31	10:29:50	603429	60f47fc03ca663a2425b8085	4	1	main_slash	11	main_slash	85	stimuli_distractor_trianglediamonds.svg	stimuli_target_squarediamonds.svg	12	yes	53	1	345	0	0			0	0			1				0	
6.6.1	and	2023-07-09	10:19:31	10:29:50	603429	60f47fc03ca663a2425b8085	4	1	main_slash	11	advance_on_keypress_SLASH	86	stimuli_distractor_trianglediamonds.svg	stimuli_target_squarediamonds.svg	12	yes	57	0	473	0	0			0	0			1				0	
6.6.1	and	2023-07-09	10:19:31	10:29:52	604919	60f47fc03ca663a2425b8085	4	1	main_slash	11	main_slash	87	stimuli_distractor_trianglediamonds.svg	stimuli_distractor_diamondtriangles.svg	36	no	53	0	375	0	0			0	0			1				0	
6.6.1	and	2023-07-09	10:19:31	10:29:52	604919	60f47fc03ca663a2425b8085	4	1	main_slash	11	advance_on_keypress_SLASH	88	stimuli_distractor_trianglediamonds.svg	stimuli_distractor_diamondtriangles.svg	36	no	57	0	1052	0	0			0	0			1				0	
6.6.1	and	2023-07-09	10:19:31	10:29:54	606824	60f47fc03ca663a2425b8085	4	1	main_slash	11	main_slash	89	stimuli_distractor_diamondtriangles.svg	stimuli_target_trianglesquares.svg	30	yes	53	1	185	0	0			0	0			1				0	
6.6.1	and	2023-07-09	10:19:31	10:29:54	606824	60f47fc03ca663a2425b8085	4	1	main_slash	11	advance_on_keypress_SLASH	90	stimuli_distractor_diamondtriangles.svg	stimuli_target_trianglesquares.svg	30	yes	57	0	518	0	0			0	0			1				0	
6.6.1	and	2023-07-09	10:19:31	10:29:55	608015	60f47fc03ca663a2425b8085	4	1	main_slash	11	main_slash	91	stimuli_target_squaretriangles.svg	stimuli_distractor_trianglediamonds.svg	3	yes	53	1	10	0	0			0	0			1				0	
6.6.1	and	2023-07-09	10:19:31	10:29:55	608015	60f47fc03ca663a2425b8085	4	1	main_slash	11	advance_on_keypress_SLASH	92	stimuli_target_squaretriangles.svg	stimuli_distractor_trianglediamonds.svg	3	yes	57	0	529	0	0			0	0			1				0	
6.6.1	and	2023-07-09	10:19:31	10:29:56	609394	60f47fc03ca663a2425b8085	4	1	main_slash	11	main_slash	93	stimuli_target_trianglerectangles.svg	stimuli_distractor_diamondtriangles.svg	21	yes	53	1	201	0	0			0	0			1				0	
6.6.1	and	2023-07-09	10:19:31	10:29:56	609394	60f47fc03ca663a2425b8085	4	1	main_slash	11	advance_on_keypress_SLASH	94	stimuli_target_trianglerectangles.svg	stimuli_distractor_diamondtriangles.svg	21	yes	57	0	841	0	0			0	0			1				0	
6.6.1	and	2023-07-09	10:19:31	10:29:58	611183	60f47fc03ca663a2425b8085	4	1	main_slash	11	main_slash	95	stimuli_distractor_diamondtriangles.svg	stimuli_target_diamondsquares.svg	32	yes	53	1	287	0	0			0	0			1				0	
6.6.1	and	2023-07-09	10:19:31	10:29:58	611183	60f47fc03ca663a2425b8085	4	1	main_slash	11	advance_on_keypress_SLASH	96	stimuli_distractor_diamondtriangles.svg	stimuli_target_diamondsquares.svg	32	yes	57	0	738	0	0			0	0			1				0	
6.6.1	and	2023-07-09	10:19:31	10:30:00	612719	60f47fc03ca663a2425b8085	4	1	main_slash	11	main_slash	97	stimuli_target_rectanglediamonds.svg	stimuli_distractor_trianglediamonds.svg	2	yes	53	1	140	0	0			0	0			1				0	
6.6.1	and	2023-07-09	10:19:31	10:30:00	612719	60f47fc03ca663a2425b8085	4	1	main_slash	11	advance_on_keypress_SLASH	98	stimuli_target_rectanglediamonds.svg	stimuli_distractor_trianglediamonds.svg	2	yes	57	0	596	0	0			0	0			1				0	
6.6.1	and	2023-07-09	10:19:31	10:30:01	614178	60f47fc03ca663a2425b8085	4	1	main_slash	11	main_slash	99	stimuli_distractor_trianglediamonds.svg	stimuli_target_trianglerectangles.svg	25	yes	53	1	197	0	0			0	0			1				0	
6.6.1	and	2023-07-09	10:19:31	10:30:01	614178	60f47fc03ca663a2425b8085	4	1	main_slash	11	advance_on_keypress_SLASH	100	stimuli_distractor_trianglediamonds.svg	stimuli_target_trianglerectangles.svg	25	yes	57	0	492	0	0			0	0			1				0	
6.6.1	and	2023-07-09	10:19:31	10:30:02	615464	60f47fc03ca663a2425b8085	4	1	main_slash	11	main_slash	101	stimuli_distractor_trianglediamonds.svg	stimuli_target_rectangletriangles.svg	9	yes	53	1	133	0	0			0	0			1				0	
6.6.1	and	2023-07-09	10:19:31	10:30:02	615464	60f47fc03ca663a2425b8085	4	1	main_slash	11	advance_on_keypress_SLASH	102	stimuli_distractor_trianglediamonds.svg	stimuli_target_rectangletriangles.svg	9	yes	57	0	619	0	0			0	0			1				0	
6.6.1	and	2023-07-09	10:19:31	10:30:04	617405	60f47fc03ca663a2425b8085	4	1	main_slash	11	main_slash	103	stimuli_target_trianglerectangles.svg	stimuli_distractor_trianglediamonds.svg	17	yes	53	1	667	0	0			0	0			1				0	
6.6.1	and	2023-07-09	10:19:31	10:30:04	617405	60f47fc03ca663a2425b8085	4	1	main_slash	11	advance_on_keypress_SLASH	104	stimuli_target_trianglerectangles.svg	stimuli_distractor_trianglediamonds.svg	17	yes	57	0	809	0	0			0	0			1				0	
6.6.1	and	2023-07-09	10:19:31	10:30:06	619024	60f47fc03ca663a2425b8085	4	1	main_slash	11	main_slash	105	stimuli_target_diamondsquares.svg	stimuli_distractor_trianglediamonds.svg	20	yes	53	1	151	0	0			0	0			1				0	
6.6.1	and	2023-07-09	10:19:31	10:30:06	619024	60f47fc03ca663a2425b8085	4	1	main_slash	11	advance_on_keypress_SLASH	106	stimuli_target_diamondsquares.svg	stimuli_distractor_trianglediamonds.svg	20	yes	57	0	629	0	0			0	0			1				0	
6.6.1	and	2023-07-09	10:19:31	10:30:08	621136	60f47fc03ca663a2425b8085	4	1	main_slash	11	main_slash	107	stimuli_target_squarediamonds.svg	stimuli_distractor_trianglediamonds.svg	4	yes	53	1	815	0	0			0	0			1				0	
6.6.1	and	2023-07-09	10:19:31	10:30:08	621136	60f47fc03ca663a2425b8085	4	1	main_slash	11	advance_on_keypress_SLASH	108	stimuli_target_squarediamonds.svg	stimuli_distractor_trianglediamonds.svg	4	yes	57	0	727	0	0			0	0			1				0	
6.6.1	and	2023-07-09	10:19:31	10:30:10	622694	60f47fc03ca663a2425b8085	4	1	main_slash	11	main_slash	109	stimuli_distractor_diamondtriangles.svg	stimuli_target_trianglerectangles.svg	29	yes	53	1	191	0	0			0	0			1				0	
6.6.1	and	2023-07-09	10:19:31	10:30:10	622694	60f47fc03ca663a2425b8085	4	1	main_slash	11	advance_on_keypress_SLASH	110	stimuli_distractor_diamondtriangles.svg	stimuli_target_trianglerectangles.svg	29	yes	57	0	637	0	0			0	0			1				0	
6.6.1	and	2023-07-09	10:19:31	10:30:11	624029	60f47fc03ca663a2425b8085	4	1	main_slash	11	main_slash	111	stimuli_distractor_trianglediamonds.svg	stimuli_distractor_diamondtriangles.svg	35	no	53	0	31	0	0			0	0			1				0	
6.6.1	and	2023-07-09	10:19:31	10:30:11	624029	60f47fc03ca663a2425b8085	4	1	main_slash	11	advance_on_keypress_SLASH	112	stimuli_distractor_trianglediamonds.svg	stimuli_distractor_diamondtriangles.svg	35	no	57	0	541	0	0			0	0			1				0	
6.6.1	and	2023-07-09	10:19:31	10:30:12	625410	60f47fc03ca663a2425b8085	4	1	main_slash	11	main_slash	113	stimuli_target_trianglesquares.svg	stimuli_distractor_trianglediamonds.svg	18	yes	53	1	186	0	0			0	0			1				0	
6.6.1	and	2023-07-09	10:19:31	10:30:12	625410	60f47fc03ca663a2425b8085	4	1	main_slash	11	advance_on_keypress_SLASH	114	stimuli_target_trianglesquares.svg	stimuli_distractor_trianglediamonds.svg	18	yes	57	0	718	0	0			0	0			1				0	
6.6.1	and	2023-07-09	10:19:31	10:30:14	627137	60f47fc03ca663a2425b8085	4	1	main_slash	11	main_slash	115	stimuli_target_diamondrectangles.svg	stimuli_distractor_diamondtriangles.svg	23	yes	53	1	342	0	0			0	0			1				0	
6.6.1	and	2023-07-09	10:19:31	10:30:14	627137	60f47fc03ca663a2425b8085	4	1	main_slash	11	advance_on_keypress_SLASH	116	stimuli_target_diamondrectangles.svg	stimuli_distractor_diamondtriangles.svg	23	yes	57	0	705	0	0			0	0			1				0	
6.6.1	and	2023-07-09	10:19:31	10:30:16	628518	60f47fc03ca663a2425b8085	4	1	main_slash	11	main_slash	117	stimuli_target_rectangletriangles.svg	stimuli_distractor_trianglediamonds.svg	1	yes	53	1	11	0	0			0	0			1				0	
6.6.1	and	2023-07-09	10:19:31	10:30:16	628518	60f47fc03ca663a2425b8085	4	1	main_slash	11	advance_on_keypress_SLASH	118	stimuli_target_rectangletriangles.svg	stimuli_distractor_trianglediamonds.svg	1	yes	57	0	1759	0	0			0	0			1				0	
6.6.1	and	2023-07-09	10:19:31	10:30:18	631224	60f47fc03ca663a2425b8085	4	1	main_slash	11	main_slash	119	stimuli_distractor_trianglediamonds.svg	stimuli_target_squaretriangles.svg	11	yes	53	1	294	0	0			0	0			1				0	
6.6.1	and	2023-07-09	10:19:31	10:30:18	631224	60f47fc03ca663a2425b8085	4	1	main_slash	11	advance_on_keypress_SLASH	120	stimuli_distractor_trianglediamonds.svg	stimuli_target_squaretriangles.svg	11	yes	57	0	581	0	0			0	0			1				0	
6.6.1	and	2023-07-09	10:19:31	10:30:20	633151	60f47fc03ca663a2425b8085	4	1	main_slash	11	main_slash	121	stimuli_distractor_diamondtriangles.svg	stimuli_target_rectanglediamonds.svg	14	yes	53	1	690	0	0			0	0			1				0	
6.6.1	and	2023-07-09	10:19:31	10:30:20	633151	60f47fc03ca663a2425b8085	4	1	main_slash	11	advance_on_keypress_SLASH	122	stimuli_distractor_diamondtriangles.svg	stimuli_target_rectanglediamonds.svg	14	yes	57	0	602	0	0			0	0			1				0	
6.6.1	and	2023-07-09	10:19:31	10:30:22	634937	60f47fc03ca663a2425b8085	4	1	main_slash	11	main_slash	123	stimuli_target_diamondsquares.svg	stimuli_distractor_diamondtriangles.svg	24	yes	53	1	544	0	0			0	0			1				0	
6.6.1	and	2023-07-09	10:19:31	10:30:22	634937	60f47fc03ca663a2425b8085	4	1	main_slash	11	advance_on_keypress_SLASH	124	stimuli_target_diamondsquares.svg	stimuli_distractor_diamondtriangles.svg	24	yes	57	0	746	0	0			0	0			1				0	
6.6.1	and	2023-07-09	10:19:31	10:30:24	636812	60f47fc03ca663a2425b8085	4	1	main_slash	11	main_slash	125	stimuli_distractor_trianglediamonds.svg	stimuli_distractor_trianglediamonds.svg	33	no	53	0	479	0	0			0	0			1				0	
6.6.1	and	2023-07-09	10:19:31	10:30:24	636812	60f47fc03ca663a2425b8085	4	1	main_slash	11	advance_on_keypress_SLASH	126	stimuli_distractor_trianglediamonds.svg	stimuli_distractor_trianglediamonds.svg	33	no	57	0	580	0	0			0	0			1				0	
6.6.1	and	2023-07-09	10:19:31	10:30:25	638386	60f47fc03ca663a2425b8085	4	1	main_slash	11	main_slash	127	stimuli_distractor_trianglediamonds.svg	stimuli_distractor_trianglediamonds.svg	34	no	53	0	341	0	0			0	0			1				0	
6.6.1	and	2023-07-09	10:19:31	10:30:25	638386	60f47fc03ca663a2425b8085	4	1	main_slash	11	advance_on_keypress_SLASH	128	stimuli_distractor_trianglediamonds.svg	stimuli_distractor_trianglediamonds.svg	34	no	57	0	377	0	0			0	0			1				0	
6.6.1	and	2023-07-09	10:19:31	10:30:27	639766	60f47fc03ca663a2425b8085	4	1	main_slash	11	main_slash	129	stimuli_distractor_diamondtriangles.svg	stimuli_distractor_diamondtriangles.svg	39	no	53	0	344	0	0			0	0			1				0	
6.6.1	and	2023-07-09	10:19:31	10:30:27	639766	60f47fc03ca663a2425b8085	4	1	main_slash	11	advance_on_keypress_SLASH	130	stimuli_distractor_diamondtriangles.svg	stimuli_distractor_diamondtriangles.svg	39	no	57	0	476	0	0			0	0			1				0	
6.6.1	and	2023-07-09	10:19:31	10:30:28	641356	60f47fc03ca663a2425b8085	4	1	main_slash	11	main_slash	131	stimuli_target_squaretriangles.svg	stimuli_distractor_diamondtriangles.svg	7	yes	53	1	463	0	0			0	0			1				0	
6.6.1	and	2023-07-09	10:19:31	10:30:28	641356	60f47fc03ca663a2425b8085	4	1	main_slash	11	advance_on_keypress_SLASH	132	stimuli_target_squaretriangles.svg	stimuli_distractor_diamondtriangles.svg	7	yes	57	0	481	0	0			0	0			1				0	
6.6.1	and	2023-07-09	10:19:31	10:30:30	643006	60f47fc03ca663a2425b8085	4	1	main_slash	11	main_slash	133	stimuli_target_diamondrectangles.svg	stimuli_distractor_trianglediamonds.svg	19	yes	53	1	517	0	0			0	0			1				0	
6.6.1	and	2023-07-09	10:19:31	10:30:30	643006	60f47fc03ca663a2425b8085	4	1	main_slash	11	advance_on_keypress_SLASH	134	stimuli_target_diamondrectangles.svg	stimuli_distractor_trianglediamonds.svg	19	yes	57	0	483	0	0			0	0			1				0	
6.6.1	and	2023-07-09	10:19:31	10:30:31	644196	60f47fc03ca663a2425b8085	4	1	main_slash	11	main_slash	135	stimuli_distractor_diamondtriangles.svg	stimuli_target_squarediamonds.svg	16	yes	53	1	58	0	0			0	0			1				0	
6.6.1	and	2023-07-09	10:19:31	10:30:31	644196	60f47fc03ca663a2425b8085	4	1	main_slash	11	advance_on_keypress_SLASH	136	stimuli_distractor_diamondtriangles.svg	stimuli_target_squarediamonds.svg	16	yes	57	0	492	0	0			0	0			1				0	
6.6.1	and	2023-07-09	10:19:31	10:30:33	645548	60f47fc03ca663a2425b8085	4	1	main_slash	11	main_slash	137	stimuli_target_trianglesquares.svg	stimuli_distractor_diamondtriangles.svg	22	yes	53	1	200	0	0			0	0			1				0	
6.6.1	and	2023-07-09	10:19:31	10:30:33	645548	60f47fc03ca663a2425b8085	4	1	main_slash	11	advance_on_keypress_SLASH	138	stimuli_target_trianglesquares.svg	stimuli_distractor_diamondtriangles.svg	22	yes	57	0	933	0	0			0	0			1				0	
6.6.1	and	2023-07-09	10:19:31	10:30:35	647847	60f47fc03ca663a2425b8085	4	1	main_slash	11	main_slash	139	stimuli_distractor_trianglediamonds.svg	stimuli_target_rectanglediamonds.svg	10	yes	53	1	721	0	0			0	0			1				0	
6.6.1	and	2023-07-09	10:19:31	10:30:35	647847	60f47fc03ca663a2425b8085	4	1	main_slash	11	advance_on_keypress_SLASH	140	stimuli_distractor_trianglediamonds.svg	stimuli_target_rectanglediamonds.svg	10	yes	57	0	646	0	0			0	0			1				0	
6.6.1	and	2023-07-09	10:19:31	10:30:37	649770	60f47fc03ca663a2425b8085	4	1	main_slash	11	main_slash	141	stimuli_distractor_diamondtriangles.svg	stimuli_distractor_trianglediamonds.svg	38	no	53	0	614	0	0			0	0			1				0	
6.6.1	and	2023-07-09	10:19:31	10:30:37	649770	60f47fc03ca663a2425b8085	4	1	main_slash	11	advance_on_keypress_SLASH	142	stimuli_distractor_diamondtriangles.svg	stimuli_distractor_trianglediamonds.svg	38	no	57	0	493	0	0			0	0			1				0	
6.6.1	and	2023-07-09	10:19:31	10:30:38	650925	60f47fc03ca663a2425b8085	4	1	main_slash	11	main_slash	143	stimuli_distractor_trianglediamonds.svg	stimuli_target_diamondsquares.svg	28	yes	53	1	21	0	0			0	0			1				0	
6.6.1	and	2023-07-09	10:19:31	10:30:38	650925	60f47fc03ca663a2425b8085	4	1	main_slash	11	advance_on_keypress_SLASH	144	stimuli_distractor_trianglediamonds.svg	stimuli_target_diamondsquares.svg	28	yes	57	0	696	0	0			0	0			1				0	
6.6.1	and	2023-07-09	10:19:31	10:30:39	652439	60f47fc03ca663a2425b8085	4	1	main_slash	11	main_slash	145	stimuli_distractor_trianglediamonds.svg	stimuli_target_trianglesquares.svg	26	yes	53	1	158	0	0			0	0			1				0	
6.6.1	and	2023-07-09	10:19:31	10:30:39	652439	60f47fc03ca663a2425b8085	4	1	main_slash	11	advance_on_keypress_SLASH	146	stimuli_distractor_trianglediamonds.svg	stimuli_target_trianglesquares.svg	26	yes	57	0	558	0	0			0	0			1				0	
6.6.1	and	2023-07-09	10:19:31	10:30:41	653789	60f47fc03ca663a2425b8085	4	1	main_slash	11	main_slash	147	stimuli_target_rectanglediamonds.svg	stimuli_distractor_diamondtriangles.svg	6	yes	53	1	131	0	0			0	0			1				0	
6.6.1	and	2023-07-09	10:19:31	10:30:41	653789	60f47fc03ca663a2425b8085	4	1	main_slash	11	advance_on_keypress_SLASH	148	stimuli_target_rectanglediamonds.svg	stimuli_distractor_diamondtriangles.svg	6	yes	57	0	601	0	0			0	0			1				0	
6.6.1	and	2023-07-09	10:19:31	10:30:42	655461	60f47fc03ca663a2425b8085	4	1	main_slash	11	main_slash	149	stimuli_distractor_diamondtriangles.svg	stimuli_target_squaretriangles.svg	15	yes	53	1	423	0	0			0	0			1				0	
6.6.1	and	2023-07-09	10:19:31	10:30:42	655461	60f47fc03ca663a2425b8085	4	1	main_slash	11	advance_on_keypress_SLASH	150	stimuli_distractor_diamondtriangles.svg	stimuli_target_squaretriangles.svg	15	yes	57	0	853	0	0			0	0			1				0	
6.6.1	and	2023-07-09	10:19:31	10:30:44	657237	60f47fc03ca663a2425b8085	4	1	main_slash	11	main_slash	151	stimuli_target_squarediamonds.svg	stimuli_distractor_diamondtriangles.svg	8	yes	53	1	277	0	0			0	0			1				0	
6.6.1	and	2023-07-09	10:19:31	10:30:44	657237	60f47fc03ca663a2425b8085	4	1	main_slash	11	advance_on_keypress_SLASH	152	stimuli_target_squarediamonds.svg	stimuli_distractor_diamondtriangles.svg	8	yes	57	0	124	0	0			0	0			1				0	
6.6.1	and	2023-07-09	10:19:31	10:30:45	658318	60f47fc03ca663a2425b8085	4	1	main_slash	11	main_slash	153	stimuli_distractor_diamondtriangles.svg	stimuli_target_rectangletriangles.svg	13	yes	53	1	311	0	0			0	0			1				0	
6.6.1	and	2023-07-09	10:19:31	10:30:45	658318	60f47fc03ca663a2425b8085	4	1	main_slash	11	advance_on_keypress_SLASH	154	stimuli_distractor_diamondtriangles.svg	stimuli_target_rectangletriangles.svg	13	yes	57	0	135	0	0			0	0			1				0	
6.6.1	and	2023-07-09	10:19:31	10:30:46	659437	60f47fc03ca663a2425b8085	4	1	main_slash	11	main_slash	155	stimuli_distractor_diamondtriangles.svg	stimuli_distractor_trianglediamonds.svg	37	no	53	0	334	0	0			0	0			1				0	
6.6.1	and	2023-07-09	10:19:31	10:30:46	659437	60f47fc03ca663a2425b8085	4	1	main_slash	11	advance_on_keypress_SLASH	156	stimuli_distractor_diamondtriangles.svg	stimuli_distractor_trianglediamonds.svg	37	no	57	0	325	0	0			0	0			1				0	
6.6.1	and	2023-07-09	10:19:31	10:30:47	660460	60f47fc03ca663a2425b8085	4	1	main_slash	11	main_slash	157	stimuli_distractor_diamondtriangles.svg	stimuli_distractor_diamondtriangles.svg	40	no	53	0	57	0	0			0	0			1				0	
6.6.1	and	2023-07-09	10:19:31	10:30:47	660460	60f47fc03ca663a2425b8085	4	1	main_slash	11	advance_on_keypress_SLASH	158	stimuli_distractor_diamondtriangles.svg	stimuli_distractor_diamondtriangles.svg	40	no	57	0	350	0	0			0	0			1				0	
6.6.1	and	2023-07-09	10:19:31	10:30:49	661510	60f47fc03ca663a2425b8085	4	1	main_slash	11	main_slash	159	stimuli_distractor_diamondtriangles.svg	stimuli_target_diamondrectangles.svg	31	yes	53	1	57	0	0			0	0			1				0	
6.6.1	and	2023-07-09	10:19:31	10:30:49	661510	60f47fc03ca663a2425b8085	4	1	main_slash	11	advance_on_keypress_SLASH	160	stimuli_distractor_diamondtriangles.svg	stimuli_target_diamondrectangles.svg	31	yes	57	0	310	0	0			0	0			1				0	
6.6.1	and	2023-07-09	10:19:31	10:30:49	661510	60f47fc03ca663a2425b8085	4	1	headphonecheck_calibration	14	headphonecheck_calibrationIntro	1	stimuli_distractor_diamondtriangles.svg	stimuli_target_diamondrectangles.svg	31	yes	calibrationButton	0	2374	0	0			0	0			1				0	
6.6.1	and	2023-07-09	10:19:31	10:30:49	661510	60f47fc03ca663a2425b8085	4	1	headphonecheck_testphase	15	test_collectResponse	3	stimuli_distractor_diamondtriangles.svg	stimuli_target_diamondrectangles.svg	31	yes	second	0	578	1	3	antiphase_hc_soi.wav	1	0	0			1				0	
6.6.1	and	2023-07-09	10:19:31	10:30:49	661510	60f47fc03ca663a2425b8085	4	1	headphonecheck_testphase	15	test_collectResponse	6	stimuli_distractor_diamondtriangles.svg	stimuli_target_diamondrectangles.svg	31	yes	second	1	955	2	5	antiphase_hc_osi.wav	2	0	0			1				0	
6.6.1	and	2023-07-09	10:19:31	10:30:49	661510	60f47fc03ca663a2425b8085	4	1	headphonecheck_testphase	15	test_collectResponse	9	stimuli_distractor_diamondtriangles.svg	stimuli_target_diamondrectangles.svg	31	yes	third	0	596	3	4	antiphase_hc_sio.wav	1	0	0			1				0	
6.6.1	and	2023-07-09	10:19:31	10:30:49	661510	60f47fc03ca663a2425b8085	4	1	headphonecheck_testphase	15	test_collectResponse	12	stimuli_distractor_diamondtriangles.svg	stimuli_target_diamondrectangles.svg	31	yes	third	1	383	4	6	antiphase_hc_ois.wav	3	0	0			1				0	
6.6.1	and	2023-07-09	10:19:31	10:30:49	661510	60f47fc03ca663a2425b8085	4	1	headphonecheck_testphase	15	test_collectResponse	15	stimuli_distractor_diamondtriangles.svg	stimuli_target_diamondrectangles.svg	31	yes	second	1	351	5	1	antiphase_hc_iso.wav	2	0	0			1				0	
6.6.1	and	2023-07-09	10:19:31	10:30:49	661510	60f47fc03ca663a2425b8085	4	1	headphonecheck_testphase	15	test_collectResponse	18	stimuli_distractor_diamondtriangles.svg	stimuli_target_diamondrectangles.svg	31	yes	third	1	277	6	2	antiphase_hc_ios.wav	3	0	0			1				0	
6.6.1	and	2023-07-09	10:19:31	10:30:49	661510	60f47fc03ca663a2425b8085	4	1	stereocheck_calibration	17	stereocheck_calibrationIntro	1	stimuli_distractor_diamondtriangles.svg	stimuli_target_diamondrectangles.svg	31	yes	stereocheck_calibrationButton	0	1089	6	2	antiphase_hc_ios.wav	3	0	0			1				0	
6.6.1	and	2023-07-09	10:19:31	10:30:49	661510	60f47fc03ca663a2425b8085	4	1	stereocheck_testphase	18	stereocheck_test_collectResponse	3	stimuli_distractor_diamondtriangles.svg	stimuli_target_diamondrectangles.svg	31	yes	stereocheck_right	1	979	6	2	antiphase_hc_ios.wav	3	1	4	noise_calib_stim_RIGHT.wav	2	1				0	
6.6.1	and	2023-07-09	10:19:31	10:30:49	661510	60f47fc03ca663a2425b8085	4	1	stereocheck_testphase	18	stereocheck_test_collectResponse	6	stimuli_distractor_diamondtriangles.svg	stimuli_target_diamondrectangles.svg	31	yes	stereocheck_left	1	1046	6	2	antiphase_hc_ios.wav	3	2	2	noise_calib_stim_LEFT.wav	1	1				0	
6.6.1	and	2023-07-09	10:19:31	10:30:49	661510	60f47fc03ca663a2425b8085	4	1	stereocheck_testphase	18	stereocheck_test_collectResponse	9	stimuli_distractor_diamondtriangles.svg	stimuli_target_diamondrectangles.svg	31	yes	stereocheck_right	1	293	6	2	antiphase_hc_ios.wav	3	3	5	noise_calib_stim_RIGHT.wav	2	1				0	
6.6.1	and	2023-07-09	10:19:31	10:30:49	661510	60f47fc03ca663a2425b8085	4	1	stereocheck_testphase	18	stereocheck_test_collectResponse	12	stimuli_distractor_diamondtriangles.svg	stimuli_target_diamondrectangles.svg	31	yes	stereocheck_right	1	572	6	2	antiphase_hc_ios.wav	3	4	6	noise_calib_stim_RIGHT.wav	2	1				0	
6.6.1	and	2023-07-09	10:19:31	10:30:49	661510	60f47fc03ca663a2425b8085	4	1	stereocheck_testphase	18	stereocheck_test_collectResponse	15	stimuli_distractor_diamondtriangles.svg	stimuli_target_diamondrectangles.svg	31	yes	stereocheck_left	1	884	6	2	antiphase_hc_ios.wav	3	5	3	noise_calib_stim_LEFT.wav	1	1				0	
6.6.1	and	2023-07-09	10:19:31	10:30:49	661510	60f47fc03ca663a2425b8085	4	1	stereocheck_testphase	18	stereocheck_test_collectResponse	18	stimuli_distractor_diamondtriangles.svg	stimuli_target_diamondrectangles.svg	31	yes	stereocheck_left	1	946	6	2	antiphase_hc_ios.wav	3	6	1	noise_calib_stim_LEFT.wav	1	1				0	
6.6.1	and	2023-07-09	10:19:31	10:30:49	661510	60f47fc03ca663a2425b8085	4	1	DL_practice	21	DL_practice	2	stimuli_distractor_diamondtriangles.svg	stimuli_target_diamondrectangles.svg	31	yes	ka	1	1551	6	2	antiphase_hc_ios.wav	3	6	1	noise_calib_stim_LEFT.wav	1	22	blb_dichoticlistening_ka-ka.mp3	ka	ka	0	left
6.6.1	and	2023-07-09	10:19:31	10:30:49	661510	60f47fc03ca663a2425b8085	4	1	DL_practice	21	DL_practice	3	stimuli_distractor_diamondtriangles.svg	stimuli_target_diamondrectangles.svg	31	yes	ba	1	1425	6	2	antiphase_hc_ios.wav	3	6	1	noise_calib_stim_LEFT.wav	1	1	blb_dichoticlistening_ba-ba.mp3	ba	ba	0	left
6.6.1	and	2023-07-09	10:19:31	10:30:49	661510	60f47fc03ca663a2425b8085	4	1	DL_practice	21	DL_practice	4	stimuli_distractor_diamondtriangles.svg	stimuli_target_diamondrectangles.svg	31	yes	pa	1	772	6	2	antiphase_hc_ios.wav	3	6	1	noise_calib_stim_LEFT.wav	1	29	blb_dichoticlistening_pa-pa.mp3	pa	pa	0	left
6.6.1	and	2023-07-09	10:19:31	10:30:49	661510	60f47fc03ca663a2425b8085	4	1	DL_practice	21	DL_practice	5	stimuli_distractor_diamondtriangles.svg	stimuli_target_diamondrectangles.svg	31	yes	ka	1	834	6	2	antiphase_hc_ios.wav	3	6	1	noise_calib_stim_LEFT.wav	1	23	blb_dichoticlistening_ka-pa.mp3	ka	pa	1	left
6.6.1	and	2023-07-09	10:19:31	10:30:49	661510	60f47fc03ca663a2425b8085	4	1	DL_practice	21	DL_practice	6	stimuli_distractor_diamondtriangles.svg	stimuli_target_diamondrectangles.svg	31	yes	ta	1	1244	6	2	antiphase_hc_ios.wav	3	6	1	noise_calib_stim_LEFT.wav	1	36	blb_dichoticlistening_ta-ta.mp3	ta	ta	0	left
6.6.1	and	2023-07-09	10:19:31	10:30:49	661510	60f47fc03ca663a2425b8085	4	1	DL_practice	21	DL_practice	7	stimuli_distractor_diamondtriangles.svg	stimuli_target_diamondrectangles.svg	31	yes	ga	1	840	6	2	antiphase_hc_ios.wav	3	6	1	noise_calib_stim_LEFT.wav	1	15	blb_dichoticlistening_ga-ga.mp3	ga	ga	0	left
6.6.1	and	2023-07-09	10:19:31	10:30:49	661510	60f47fc03ca663a2425b8085	4	1	DL_practice	21	DL_practice	8	stimuli_distractor_diamondtriangles.svg	stimuli_target_diamondrectangles.svg	31	yes	ba	1	917	6	2	antiphase_hc_ios.wav	3	6	1	noise_calib_stim_LEFT.wav	1	7	blb_dichoticlistening_da-ba.mp3	da	ba	1	right
6.6.1	and	2023-07-09	10:19:31	10:30:49	661510	60f47fc03ca663a2425b8085	4	1	DL_practice	21	DL_practice	9	stimuli_distractor_diamondtriangles.svg	stimuli_target_diamondrectangles.svg	31	yes	da	1	837	6	2	antiphase_hc_ios.wav	3	6	1	noise_calib_stim_LEFT.wav	1	8	blb_dichoticlistening_da-da.mp3	da	da	0	left
6.6.1	and	2023-07-09	10:19:31	10:30:49	661510	60f47fc03ca663a2425b8085	4	1	DL_practice	21	DL_practice	10	stimuli_distractor_diamondtriangles.svg	stimuli_target_diamondrectangles.svg	31	yes	ga	1	1148	6	2	antiphase_hc_ios.wav	3	6	1	noise_calib_stim_LEFT.wav	1	18	blb_dichoticlistening_ga-ta.mp3	ga	ta	1	left
6.6.1	and	2023-07-09	10:19:31	10:30:49	661510	60f47fc03ca663a2425b8085	4	1	DL_test	23	DL_test	1	stimuli_distractor_diamondtriangles.svg	stimuli_target_diamondrectangles.svg	31	yes	da	1	1174	6	2	antiphase_hc_ios.wav	3	6	1	noise_calib_stim_LEFT.wav	1	32	blb_dichoticlistening_ta-da.mp3	ta	da	1	right
6.6.1	and	2023-07-09	10:19:31	10:30:49	661510	60f47fc03ca663a2425b8085	4	1	DL_test	23	DL_test	2	stimuli_distractor_diamondtriangles.svg	stimuli_target_diamondrectangles.svg	31	yes	da	1	1312	6	2	antiphase_hc_ios.wav	3	6	1	noise_calib_stim_LEFT.wav	1	11	blb_dichoticlistening_da-pa.mp3	da	pa	1	left
6.6.1	and	2023-07-09	10:19:31	10:30:49	661510	60f47fc03ca663a2425b8085	4	1	DL_test	23	DL_test	3	stimuli_distractor_diamondtriangles.svg	stimuli_target_diamondrectangles.svg	31	yes	ba	1	920	6	2	antiphase_hc_ios.wav	3	6	1	noise_calib_stim_LEFT.wav	1	6	blb_dichoticlistening_ba-ta.mp3	ba	ta	1	left
6.6.1	and	2023-07-09	10:19:31	10:30:49	661510	60f47fc03ca663a2425b8085	4	1	DL_test	23	DL_test	4	stimuli_distractor_diamondtriangles.svg	stimuli_target_diamondrectangles.svg	31	yes	ga	1	849	6	2	antiphase_hc_ios.wav	3	6	1	noise_calib_stim_LEFT.wav	1	18	blb_dichoticlistening_ga-ta.mp3	ga	ta	1	left
6.6.1	and	2023-07-09	10:19:31	10:30:49	661510	60f47fc03ca663a2425b8085	4	1	DL_test	23	DL_test	5	stimuli_distractor_diamondtriangles.svg	stimuli_target_diamondrectangles.svg	31	yes	ga	1	866	6	2	antiphase_hc_ios.wav	3	6	1	noise_calib_stim_LEFT.wav	1	14	blb_dichoticlistening_ga-da.mp3	ga	da	1	left
6.6.1	and	2023-07-09	10:19:31	10:30:49	661510	60f47fc03ca663a2425b8085	4	1	DL_test	23	DL_test	6	stimuli_distractor_diamondtriangles.svg	stimuli_target_diamondrectangles.svg	31	yes	ba	1	877	6	2	antiphase_hc_ios.wav	3	6	1	noise_calib_stim_LEFT.wav	1	5	blb_dichoticlistening_ba-pa.mp3	ba	pa	1	left
6.6.1	and	2023-07-09	10:19:31	10:30:49	661510	60f47fc03ca663a2425b8085	4	1	DL_test	23	DL_test	7	stimuli_distractor_diamondtriangles.svg	stimuli_target_diamondrectangles.svg	31	yes	pa	1	1114	6	2	antiphase_hc_ios.wav	3	6	1	noise_calib_stim_LEFT.wav	1	28	blb_dichoticlistening_pa-ka.mp3	pa	ka	1	left
6.6.1	and	2023-07-09	10:19:31	10:30:49	661510	60f47fc03ca663a2425b8085	4	1	DL_test	23	DL_test	8	stimuli_distractor_diamondtriangles.svg	stimuli_target_diamondrectangles.svg	31	yes	ba	1	993	6	2	antiphase_hc_ios.wav	3	6	1	noise_calib_stim_LEFT.wav	1	2	blb_dichoticlistening_ba-da.mp3	ba	da	1	left
6.6.1	and	2023-07-09	10:19:31	10:30:49	661510	60f47fc03ca663a2425b8085	4	1	DL_test	23	DL_test	9	stimuli_distractor_diamondtriangles.svg	stimuli_target_diamondrectangles.svg	31	yes	pa	1	1015	6	2	antiphase_hc_ios.wav	3	6	1	noise_calib_stim_LEFT.wav	1	26	blb_dichoticlistening_pa-da.mp3	pa	da	1	left
6.6.1	and	2023-07-09	10:19:31	10:30:49	661510	60f47fc03ca663a2425b8085	4	1	DL_test	23	DL_test	10	stimuli_distractor_diamondtriangles.svg	stimuli_target_diamondrectangles.svg	31	yes	da	1	896	6	2	antiphase_hc_ios.wav	3	6	1	noise_calib_stim_LEFT.wav	1	8	blb_dichoticlistening_da-da.mp3	da	da	0	left
6.6.1	and	2023-07-09	10:19:31	10:30:49	661510	60f47fc03ca663a2425b8085	4	1	DL_test	23	DL_test	11	stimuli_distractor_diamondtriangles.svg	stimuli_target_diamondrectangles.svg	31	yes	ga	1	908	6	2	antiphase_hc_ios.wav	3	6	1	noise_calib_stim_LEFT.wav	1	17	blb_dichoticlistening_ga-pa.mp3	ga	pa	1	left
6.6.1	and	2023-07-09	10:19:31	10:30:49	661510	60f47fc03ca663a2425b8085	4	1	DL_test	23	DL_test	12	stimuli_distractor_diamondtriangles.svg	stimuli_target_diamondrectangles.svg	31	yes	ka	1	964	6	2	antiphase_hc_ios.wav	3	6	1	noise_calib_stim_LEFT.wav	1	23	blb_dichoticlistening_ka-pa.mp3	ka	pa	1	left
6.6.1	and	2023-07-09	10:19:31	10:30:49	661510	60f47fc03ca663a2425b8085	4	1	DL_test	23	DL_test	13	stimuli_distractor_diamondtriangles.svg	stimuli_target_diamondrectangles.svg	31	yes	ba	1	920	6	2	antiphase_hc_ios.wav	3	6	1	noise_calib_stim_LEFT.wav	1	3	blb_dichoticlistening_ba-ga.mp3	ba	ga	1	left
6.6.1	and	2023-07-09	10:19:31	10:30:49	661510	60f47fc03ca663a2425b8085	4	1	DL_test	23	DL_test	14	stimuli_distractor_diamondtriangles.svg	stimuli_target_diamondrectangles.svg	31	yes	pa	1	1102	6	2	antiphase_hc_ios.wav	3	6	1	noise_calib_stim_LEFT.wav	1	29	blb_dichoticlistening_pa-pa.mp3	pa	pa	0	left
6.6.1	and	2023-07-09	10:19:31	10:30:49	661510	60f47fc03ca663a2425b8085	4	1	DL_test	23	DL_test	15	stimuli_distractor_diamondtriangles.svg	stimuli_target_diamondrectangles.svg	31	yes	ka	1	854	6	2	antiphase_hc_ios.wav	3	6	1	noise_calib_stim_LEFT.wav	1	24	blb_dichoticlistening_ka-ta.mp3	ka	ta	1	left
6.6.1	and	2023-07-09	10:19:31	10:30:49	661510	60f47fc03ca663a2425b8085	4	1	DL_test	23	DL_test	16	stimuli_distractor_diamondtriangles.svg	stimuli_target_diamondrectangles.svg	31	yes	ta	1	2219	6	2	antiphase_hc_ios.wav	3	6	1	noise_calib_stim_LEFT.wav	1	36	blb_dichoticlistening_ta-ta.mp3	ta	ta	0	left
6.6.1	and	2023-07-09	10:19:31	10:30:49	661510	60f47fc03ca663a2425b8085	4	1	DL_test	23	DL_test	17	stimuli_distractor_diamondtriangles.svg	stimuli_target_diamondrectangles.svg	31	yes	ga	1	1037	6	2	antiphase_hc_ios.wav	3	6	1	noise_calib_stim_LEFT.wav	1	16	blb_dichoticlistening_ga-ka.mp3	ga	ka	1	left
6.6.1	and	2023-07-09	10:19:31	10:30:49	661510	60f47fc03ca663a2425b8085	4	1	DL_test	23	DL_test	18	stimuli_distractor_diamondtriangles.svg	stimuli_target_diamondrectangles.svg	31	yes	pa	1	1348	6	2	antiphase_hc_ios.wav	3	6	1	noise_calib_stim_LEFT.wav	1	27	blb_dichoticlistening_pa-ga.mp3	pa	ga	1	left
6.6.1	and	2023-07-09	10:19:31	10:30:49	661510	60f47fc03ca663a2425b8085	4	1	DL_test	23	DL_test	19	stimuli_distractor_diamondtriangles.svg	stimuli_target_diamondrectangles.svg	31	yes	ka	1	939	6	2	antiphase_hc_ios.wav	3	6	1	noise_calib_stim_LEFT.wav	1	19	blb_dichoticlistening_ka-ba.mp3	ka	ba	1	left
6.6.1	and	2023-07-09	10:19:31	10:30:49	661510	60f47fc03ca663a2425b8085	4	1	DL_test	23	DL_test	20	stimuli_distractor_diamondtriangles.svg	stimuli_target_diamondrectangles.svg	31	yes	ga	1	989	6	2	antiphase_hc_ios.wav	3	6	1	noise_calib_stim_LEFT.wav	1	13	blb_dichoticlistening_ga-ba.mp3	ga	ba	1	left
6.6.1	and	2023-07-09	10:19:31	10:30:49	661510	60f47fc03ca663a2425b8085	4	1	DL_test	23	DL_test	21	stimuli_distractor_diamondtriangles.svg	stimuli_target_diamondrectangles.svg	31	yes	pa	1	929	6	2	antiphase_hc_ios.wav	3	6	1	noise_calib_stim_LEFT.wav	1	30	blb_dichoticlistening_pa-ta.mp3	pa	ta	1	left
6.6.1	and	2023-07-09	10:19:31	10:30:49	661510	60f47fc03ca663a2425b8085	4	1	DL_test	23	DL_test	22	stimuli_distractor_diamondtriangles.svg	stimuli_target_diamondrectangles.svg	31	yes	ta	1	830	6	2	antiphase_hc_ios.wav	3	6	1	noise_calib_stim_LEFT.wav	1	31	blb_dichoticlistening_ta-ba.mp3	ta	ba	1	left
6.6.1	and	2023-07-09	10:19:31	10:30:49	661510	60f47fc03ca663a2425b8085	4	1	DL_test	23	DL_test	23	stimuli_distractor_diamondtriangles.svg	stimuli_target_diamondrectangles.svg	31	yes	ta	1	650	6	2	antiphase_hc_ios.wav	3	6	1	noise_calib_stim_LEFT.wav	1	35	blb_dichoticlistening_ta-pa.mp3	ta	pa	1	left
6.6.1	and	2023-07-09	10:19:31	10:30:49	661510	60f47fc03ca663a2425b8085	4	1	DL_test	23	DL_test	24	stimuli_distractor_diamondtriangles.svg	stimuli_target_diamondrectangles.svg	31	yes	ta	1	677	6	2	antiphase_hc_ios.wav	3	6	1	noise_calib_stim_LEFT.wav	1	34	blb_dichoticlistening_ta-ka.mp3	ta	ka	1	left
6.6.1	and	2023-07-09	10:19:31	10:30:49	661510	60f47fc03ca663a2425b8085	4	1	DL_test	23	DL_test	25	stimuli_distractor_diamondtriangles.svg	stimuli_target_diamondrectangles.svg	31	yes	ka	1	1142	6	2	antiphase_hc_ios.wav	3	6	1	noise_calib_stim_LEFT.wav	1	21	blb_dichoticlistening_ka-ga.mp3	ka	ga	1	left
6.6.1	and	2023-07-09	10:19:31	10:30:49	661510	60f47fc03ca663a2425b8085	4	1	DL_test	23	DL_test	26	stimuli_distractor_diamondtriangles.svg	stimuli_target_diamondrectangles.svg	31	yes	ba	1	1051	6	2	antiphase_hc_ios.wav	3	6	1	noise_calib_stim_LEFT.wav	1	1	blb_dichoticlistening_ba-ba.mp3	ba	ba	0	left
