build	computer.platform	date	time	timestamp	time_elapsed_ms	subject	group	session	blockcode	blocknum	trialcode	trialnum	stimulus_left	stimulus_right	stim_index	target_present	response	correct	latency	headphonecheck_countTestTrials	headphonecheck_index	headphonecheck_testSound	headphonecheck_correctResponse	stereocheck_countTestTrials	stereocheck_index	stereocheck_testSound	stereocheck_correctResponse	DL_index	DL_soundfile	DL_leftSound	DL_rightSound	DL_dualSound	DL_choice
6.6.1	win	2023-06-02	06:14:26	0	0	647652cb5644044df439e1fb	1	1	headphonecheck_calibration	4	headphonecheck_calibrationIntro	1			0		calibrationButton	0	6386	0	0			0	0			1				0	
6.6.1	win	2023-06-02	06:14:26	0	0	647652cb5644044df439e1fb	1	1	headphonecheck_testphase	5	test_collectResponse	3			0		second	1	598	1	5	antiphase_hc_osi.wav	2	0	0			1				0	
6.6.1	win	2023-06-02	06:14:26	0	0	647652cb5644044df439e1fb	1	1	headphonecheck_testphase	5	test_collectResponse	6			0		first	1	775	2	4	antiphase_hc_sio.wav	1	0	0			1				0	
6.6.1	win	2023-06-02	06:14:26	0	0	647652cb5644044df439e1fb	1	1	headphonecheck_testphase	5	test_collectResponse	9			0		third	1	503	3	2	antiphase_hc_ios.wav	3	0	0			1				0	
6.6.1	win	2023-06-02	06:14:26	0	0	647652cb5644044df439e1fb	1	1	headphonecheck_testphase	5	test_collectResponse	12			0		third	1	612	4	6	antiphase_hc_ois.wav	3	0	0			1				0	
6.6.1	win	2023-06-02	06:14:26	0	0	647652cb5644044df439e1fb	1	1	headphonecheck_testphase	5	test_collectResponse	15			0		first	1	392	5	3	antiphase_hc_soi.wav	1	0	0			1				0	
6.6.1	win	2023-06-02	06:14:26	0	0	647652cb5644044df439e1fb	1	1	headphonecheck_testphase	5	test_collectResponse	18			0		second	1	365	6	1	antiphase_hc_iso.wav	2	0	0			1				0	
6.6.1	win	2023-06-02	06:14:26	0	0	647652cb5644044df439e1fb	1	1	stereocheck_calibration	7	stereocheck_calibrationIntro	1			0		stereocheck_calibrationButton	0	7313	6	1	antiphase_hc_iso.wav	2	0	0			1				0	
6.6.1	win	2023-06-02	06:14:26	0	0	647652cb5644044df439e1fb	1	1	stereocheck_testphase	8	stereocheck_test_collectResponse	3			0		stereocheck_right	1	2752	6	1	antiphase_hc_iso.wav	2	1	5	noise_calib_stim_RIGHT.wav	2	1				0	
6.6.1	win	2023-06-02	06:14:26	0	0	647652cb5644044df439e1fb	1	1	stereocheck_testphase	8	stereocheck_test_collectResponse	6			0		stereocheck_right	1	665	6	1	antiphase_hc_iso.wav	2	2	6	noise_calib_stim_RIGHT.wav	2	1				0	
6.6.1	win	2023-06-02	06:14:26	0	0	647652cb5644044df439e1fb	1	1	stereocheck_testphase	8	stereocheck_test_collectResponse	9			0		stereocheck_left	1	543	6	1	antiphase_hc_iso.wav	2	3	2	noise_calib_stim_LEFT.wav	1	1				0	
6.6.1	win	2023-06-02	06:14:26	0	0	647652cb5644044df439e1fb	1	1	stereocheck_testphase	8	stereocheck_test_collectResponse	12			0		stereocheck_left	1	601	6	1	antiphase_hc_iso.wav	2	4	3	noise_calib_stim_LEFT.wav	1	1				0	
6.6.1	win	2023-06-02	06:14:26	0	0	647652cb5644044df439e1fb	1	1	stereocheck_testphase	8	stereocheck_test_collectResponse	15			0		stereocheck_right	1	560	6	1	antiphase_hc_iso.wav	2	5	4	noise_calib_stim_RIGHT.wav	2	1				0	
6.6.1	win	2023-06-02	06:14:26	0	0	647652cb5644044df439e1fb	1	1	stereocheck_testphase	8	stereocheck_test_collectResponse	18			0		stereocheck_left	1	612	6	1	antiphase_hc_iso.wav	2	6	1	noise_calib_stim_LEFT.wav	1	1				0	
6.6.1	win	2023-06-02	06:14:26	0	0	647652cb5644044df439e1fb	1	1	DL_practice	11	DL_practice	2			0		ta	1	1691	6	1	antiphase_hc_iso.wav	2	6	1	noise_calib_stim_LEFT.wav	1	36	blb_dichoticlistening_ta-ta.mp3	ta	ta	0	left
6.6.1	win	2023-06-02	06:14:26	0	0	647652cb5644044df439e1fb	1	1	DL_practice	11	DL_practice	3			0		pa	1	1567	6	1	antiphase_hc_iso.wav	2	6	1	noise_calib_stim_LEFT.wav	1	29	blb_dichoticlistening_pa-pa.mp3	pa	pa	0	left
6.6.1	win	2023-06-02	06:14:26	0	0	647652cb5644044df439e1fb	1	1	DL_practice	11	DL_practice	4			0		ba	1	1610	6	1	antiphase_hc_iso.wav	2	6	1	noise_calib_stim_LEFT.wav	1	1	blb_dichoticlistening_ba-ba.mp3	ba	ba	0	left
6.6.1	win	2023-06-02	06:14:26	0	0	647652cb5644044df439e1fb	1	1	DL_practice	11	DL_practice	5			0		da	1	1895	6	1	antiphase_hc_iso.wav	2	6	1	noise_calib_stim_LEFT.wav	1	8	blb_dichoticlistening_da-da.mp3	da	da	0	left
6.6.1	win	2023-06-02	06:14:26	0	0	647652cb5644044df439e1fb	1	1	DL_practice	11	DL_practice	6			0		ga	1	1034	6	1	antiphase_hc_iso.wav	2	6	1	noise_calib_stim_LEFT.wav	1	15	blb_dichoticlistening_ga-ga.mp3	ga	ga	0	left
6.6.1	win	2023-06-02	06:14:26	0	0	647652cb5644044df439e1fb	1	1	DL_practice	11	DL_practice	7			0		ka	1	1005	6	1	antiphase_hc_iso.wav	2	6	1	noise_calib_stim_LEFT.wav	1	22	blb_dichoticlistening_ka-ka.mp3	ka	ka	0	left
6.6.1	win	2023-06-02	06:14:26	0	0	647652cb5644044df439e1fb	1	1	DL_practice	11	DL_practice	8			0		ba	1	1572	6	1	antiphase_hc_iso.wav	2	6	1	noise_calib_stim_LEFT.wav	1	7	blb_dichoticlistening_da-ba.mp3	da	ba	1	right
6.6.1	win	2023-06-02	06:14:26	0	0	647652cb5644044df439e1fb	1	1	DL_practice	11	DL_practice	9			0		ka	0	1370	6	1	antiphase_hc_iso.wav	2	6	1	noise_calib_stim_LEFT.wav	1	18	blb_dichoticlistening_ga-ta.mp3	ga	ta	1	other
6.6.1	win	2023-06-02	06:14:26	0	0	647652cb5644044df439e1fb	1	1	DL_practice	11	DL_practice	10			0		pa	1	1619	6	1	antiphase_hc_iso.wav	2	6	1	noise_calib_stim_LEFT.wav	1	23	blb_dichoticlistening_ka-pa.mp3	ka	pa	1	right
6.6.1	win	2023-06-02	06:14:26	0	0	647652cb5644044df439e1fb	1	1	DL_test	13	DL_test	1			0		ga	1	1399	6	1	antiphase_hc_iso.wav	2	6	1	noise_calib_stim_LEFT.wav	1	18	blb_dichoticlistening_ga-ta.mp3	ga	ta	1	left
6.6.1	win	2023-06-02	06:14:26	0	0	647652cb5644044df439e1fb	1	1	DL_test	13	DL_test	2			0		ka	0	1570	6	1	antiphase_hc_iso.wav	2	6	1	noise_calib_stim_LEFT.wav	1	12	blb_dichoticlistening_da-ta.mp3	da	ta	1	other
6.6.1	win	2023-06-02	06:14:26	0	0	647652cb5644044df439e1fb	1	1	DL_test	13	DL_test	3			0		pa	1	1589	6	1	antiphase_hc_iso.wav	2	6	1	noise_calib_stim_LEFT.wav	1	30	blb_dichoticlistening_pa-ta.mp3	pa	ta	1	left
6.6.1	win	2023-06-02	06:14:26	0	0	647652cb5644044df439e1fb	1	1	DL_test	13	DL_test	4			0		pa	1	1245	6	1	antiphase_hc_iso.wav	2	6	1	noise_calib_stim_LEFT.wav	1	5	blb_dichoticlistening_ba-pa.mp3	ba	pa	1	right
6.6.1	win	2023-06-02	06:14:26	0	0	647652cb5644044df439e1fb	1	1	DL_test	13	DL_test	5			0		ga	1	1084	6	1	antiphase_hc_iso.wav	2	6	1	noise_calib_stim_LEFT.wav	1	15	blb_dichoticlistening_ga-ga.mp3	ga	ga	0	left
6.6.1	win	2023-06-02	06:14:26	0	0	647652cb5644044df439e1fb	1	1	DL_test	13	DL_test	6			0		da	1	1658	6	1	antiphase_hc_iso.wav	2	6	1	noise_calib_stim_LEFT.wav	1	7	blb_dichoticlistening_da-ba.mp3	da	ba	1	left
6.6.1	win	2023-06-02	06:14:26	0	0	647652cb5644044df439e1fb	1	1	DL_test	13	DL_test	7			0		ka	1	1196	6	1	antiphase_hc_iso.wav	2	6	1	noise_calib_stim_LEFT.wav	1	24	blb_dichoticlistening_ka-ta.mp3	ka	ta	1	left
6.6.1	win	2023-06-02	06:14:26	0	0	647652cb5644044df439e1fb	1	1	DL_test	13	DL_test	8			0		pa	1	1450	6	1	antiphase_hc_iso.wav	2	6	1	noise_calib_stim_LEFT.wav	1	17	blb_dichoticlistening_ga-pa.mp3	ga	pa	1	right
6.6.1	win	2023-06-02	06:14:26	0	0	647652cb5644044df439e1fb	1	1	DL_test	13	DL_test	9			0		ka	1	1612	6	1	antiphase_hc_iso.wav	2	6	1	noise_calib_stim_LEFT.wav	1	22	blb_dichoticlistening_ka-ka.mp3	ka	ka	0	left
6.6.1	win	2023-06-02	06:14:26	0	0	647652cb5644044df439e1fb	1	1	DL_test	13	DL_test	10			0		ta	1	1978	6	1	antiphase_hc_iso.wav	2	6	1	noise_calib_stim_LEFT.wav	1	32	blb_dichoticlistening_ta-da.mp3	ta	da	1	left
6.6.1	win	2023-06-02	06:14:26	0	0	647652cb5644044df439e1fb	1	1	DL_test	13	DL_test	11			0		ka	1	1569	6	1	antiphase_hc_iso.wav	2	6	1	noise_calib_stim_LEFT.wav	1	4	blb_dichoticlistening_ba-ka.mp3	ba	ka	1	right
6.6.1	win	2023-06-02	06:14:26	0	0	647652cb5644044df439e1fb	1	1	DL_test	13	DL_test	12			0		pa	1	1718	6	1	antiphase_hc_iso.wav	2	6	1	noise_calib_stim_LEFT.wav	1	26	blb_dichoticlistening_pa-da.mp3	pa	da	1	left
6.6.1	win	2023-06-02	06:14:26	0	0	647652cb5644044df439e1fb	1	1	DL_test	13	DL_test	13			0		pa	1	1315	6	1	antiphase_hc_iso.wav	2	6	1	noise_calib_stim_LEFT.wav	1	27	blb_dichoticlistening_pa-ga.mp3	pa	ga	1	left
6.6.1	win	2023-06-02	06:14:26	0	0	647652cb5644044df439e1fb	1	1	DL_test	13	DL_test	14			0		pa	1	1123	6	1	antiphase_hc_iso.wav	2	6	1	noise_calib_stim_LEFT.wav	1	35	blb_dichoticlistening_ta-pa.mp3	ta	pa	1	right
6.6.1	win	2023-06-02	06:14:26	0	0	647652cb5644044df439e1fb	1	1	DL_test	13	DL_test	15			0		da	1	1301	6	1	antiphase_hc_iso.wav	2	6	1	noise_calib_stim_LEFT.wav	1	8	blb_dichoticlistening_da-da.mp3	da	da	0	left
6.6.1	win	2023-06-02	06:14:26	0	0	647652cb5644044df439e1fb	1	1	DL_test	13	DL_test	16			0		ka	1	1351	6	1	antiphase_hc_iso.wav	2	6	1	noise_calib_stim_LEFT.wav	1	21	blb_dichoticlistening_ka-ga.mp3	ka	ga	1	left
6.6.1	win	2023-06-02	06:14:26	0	0	647652cb5644044df439e1fb	1	1	DL_test	13	DL_test	17			0		pa	0	1271	6	1	antiphase_hc_iso.wav	2	6	1	noise_calib_stim_LEFT.wav	1	31	blb_dichoticlistening_ta-ba.mp3	ta	ba	1	other
6.6.1	win	2023-06-02	06:14:26	0	0	647652cb5644044df439e1fb	1	1	DL_test	13	DL_test	18			0		pa	1	1292	6	1	antiphase_hc_iso.wav	2	6	1	noise_calib_stim_LEFT.wav	1	25	blb_dichoticlistening_pa-ba.mp3	pa	ba	1	left
6.6.1	win	2023-06-02	06:14:26	0	0	647652cb5644044df439e1fb	1	1	DL_test	13	DL_test	19			0		pa	1	1272	6	1	antiphase_hc_iso.wav	2	6	1	noise_calib_stim_LEFT.wav	1	23	blb_dichoticlistening_ka-pa.mp3	ka	pa	1	right
6.6.1	win	2023-06-02	06:14:26	0	0	647652cb5644044df439e1fb	1	1	DL_test	13	DL_test	20			0		pa	0	1163	6	1	antiphase_hc_iso.wav	2	6	1	noise_calib_stim_LEFT.wav	1	19	blb_dichoticlistening_ka-ba.mp3	ka	ba	1	other
6.6.1	win	2023-06-02	06:14:26	0	0	647652cb5644044df439e1fb	1	1	DL_test	13	DL_test	21			0		ka	0	1351	6	1	antiphase_hc_iso.wav	2	6	1	noise_calib_stim_LEFT.wav	1	33	blb_dichoticlistening_ta-ga.mp3	ta	ga	1	other
6.6.1	win	2023-06-02	06:14:26	0	0	647652cb5644044df439e1fb	1	1	DL_test	13	DL_test	22			0		pa	0	2186	6	1	antiphase_hc_iso.wav	2	6	1	noise_calib_stim_LEFT.wav	1	10	blb_dichoticlistening_da-ka.mp3	da	ka	1	other
6.6.1	win	2023-06-02	06:14:26	0	0	647652cb5644044df439e1fb	1	1	DL_test	13	DL_test	23			0		ka	1	1130	6	1	antiphase_hc_iso.wav	2	6	1	noise_calib_stim_LEFT.wav	1	34	blb_dichoticlistening_ta-ka.mp3	ta	ka	1	right
6.6.1	win	2023-06-02	06:14:26	0	0	647652cb5644044df439e1fb	1	1	DL_test	13	DL_test	24			0		ga	1	1758	6	1	antiphase_hc_iso.wav	2	6	1	noise_calib_stim_LEFT.wav	1	9	blb_dichoticlistening_da-ga.mp3	da	ga	1	right
6.6.1	win	2023-06-02	06:14:26	0	0	647652cb5644044df439e1fb	1	1	DL_test	13	DL_test	25			0		pa	1	1212	6	1	antiphase_hc_iso.wav	2	6	1	noise_calib_stim_LEFT.wav	1	29	blb_dichoticlistening_pa-pa.mp3	pa	pa	0	left
6.6.1	win	2023-06-02	06:14:26	0	0	647652cb5644044df439e1fb	1	1	DL_test	13	DL_test	26			0		pa	1	1816	6	1	antiphase_hc_iso.wav	2	6	1	noise_calib_stim_LEFT.wav	1	28	blb_dichoticlistening_pa-ka.mp3	pa	ka	1	left
6.6.1	win	2023-06-02	06:14:26	0	0	647652cb5644044df439e1fb	1	1	DL_test	13	DL_test	27			0		ta	0	1825	6	1	antiphase_hc_iso.wav	2	6	1	noise_calib_stim_LEFT.wav	1	2	blb_dichoticlistening_ba-da.mp3	ba	da	1	other
6.6.1	win	2023-06-02	06:14:26	0	0	647652cb5644044df439e1fb	1	1	DL_test	13	DL_test	28			0		ga	1	1401	6	1	antiphase_hc_iso.wav	2	6	1	noise_calib_stim_LEFT.wav	1	14	blb_dichoticlistening_ga-da.mp3	ga	da	1	left
6.6.1	win	2023-06-02	06:14:26	0	0	647652cb5644044df439e1fb	1	1	DL_test	13	DL_test	29			0		ka	1	1495	6	1	antiphase_hc_iso.wav	2	6	1	noise_calib_stim_LEFT.wav	1	16	blb_dichoticlistening_ga-ka.mp3	ga	ka	1	right
6.6.1	win	2023-06-02	06:14:26	0	0	647652cb5644044df439e1fb	1	1	DL_test	13	DL_test	30			0		da	0	2136	6	1	antiphase_hc_iso.wav	2	6	1	noise_calib_stim_LEFT.wav	1	13	blb_dichoticlistening_ga-ba.mp3	ga	ba	1	other
6.6.1	win	2023-06-02	06:14:26	0	0	647652cb5644044df439e1fb	1	1	DL_test	13	DL_test	31			0		ga	1	1243	6	1	antiphase_hc_iso.wav	2	6	1	noise_calib_stim_LEFT.wav	1	3	blb_dichoticlistening_ba-ga.mp3	ba	ga	1	right
6.6.1	win	2023-06-02	06:14:26	0	0	647652cb5644044df439e1fb	1	1	DL_test	13	DL_test	32			0		ka	1	1295	6	1	antiphase_hc_iso.wav	2	6	1	noise_calib_stim_LEFT.wav	1	20	blb_dichoticlistening_ka-da.mp3	ka	da	1	left
6.6.1	win	2023-06-02	06:14:26	0	0	647652cb5644044df439e1fb	1	1	DL_test	13	DL_test	33			0		ba	1	1539	6	1	antiphase_hc_iso.wav	2	6	1	noise_calib_stim_LEFT.wav	1	1	blb_dichoticlistening_ba-ba.mp3	ba	ba	0	left
6.6.1	win	2023-06-02	06:14:26	0	0	647652cb5644044df439e1fb	1	1	DL_test	13	DL_test	34			0		ka	0	1376	6	1	antiphase_hc_iso.wav	2	6	1	noise_calib_stim_LEFT.wav	1	6	blb_dichoticlistening_ba-ta.mp3	ba	ta	1	other
6.6.1	win	2023-06-02	06:14:26	0	0	647652cb5644044df439e1fb	1	1	DL_test	13	DL_test	35			0		pa	1	1344	6	1	antiphase_hc_iso.wav	2	6	1	noise_calib_stim_LEFT.wav	1	11	blb_dichoticlistening_da-pa.mp3	da	pa	1	right
6.6.1	win	2023-06-02	06:14:26	0	0	647652cb5644044df439e1fb	1	1	DL_test	13	DL_test	36			0		ta	1	1243	6	1	antiphase_hc_iso.wav	2	6	1	noise_calib_stim_LEFT.wav	1	36	blb_dichoticlistening_ta-ta.mp3	ta	ta	0	left
6.6.1	win	2023-06-02	06:14:26	0	0	647652cb5644044df439e1fb	1	1	DL_test	14	DL_test	1			0		pa	1	1999	6	1	antiphase_hc_iso.wav	2	6	1	noise_calib_stim_LEFT.wav	1	11	blb_dichoticlistening_da-pa.mp3	da	pa	1	right
6.6.1	win	2023-06-02	06:14:26	0	0	647652cb5644044df439e1fb	1	1	DL_test	14	DL_test	2			0		ta	1	2331	6	1	antiphase_hc_iso.wav	2	6	1	noise_calib_stim_LEFT.wav	1	35	blb_dichoticlistening_ta-pa.mp3	ta	pa	1	left
6.6.1	win	2023-06-02	06:14:26	0	0	647652cb5644044df439e1fb	1	1	DL_test	14	DL_test	3			0		ga	1	1193	6	1	antiphase_hc_iso.wav	2	6	1	noise_calib_stim_LEFT.wav	1	33	blb_dichoticlistening_ta-ga.mp3	ta	ga	1	right
6.6.1	win	2023-06-02	06:14:26	0	0	647652cb5644044df439e1fb	1	1	DL_test	14	DL_test	4			0		ka	1	1569	6	1	antiphase_hc_iso.wav	2	6	1	noise_calib_stim_LEFT.wav	1	34	blb_dichoticlistening_ta-ka.mp3	ta	ka	1	right
6.6.1	win	2023-06-02	06:14:26	0	0	647652cb5644044df439e1fb	1	1	DL_test	14	DL_test	5			0		pa	0	1252	6	1	antiphase_hc_iso.wav	2	6	1	noise_calib_stim_LEFT.wav	1	31	blb_dichoticlistening_ta-ba.mp3	ta	ba	1	other
6.6.1	win	2023-06-02	06:14:26	0	0	647652cb5644044df439e1fb	1	1	DL_test	14	DL_test	6			0		ka	1	1341	6	1	antiphase_hc_iso.wav	2	6	1	noise_calib_stim_LEFT.wav	1	4	blb_dichoticlistening_ba-ka.mp3	ba	ka	1	right
6.6.1	win	2023-06-02	06:14:26	0	0	647652cb5644044df439e1fb	1	1	DL_test	14	DL_test	7			0		ba	1	1727	6	1	antiphase_hc_iso.wav	2	6	1	noise_calib_stim_LEFT.wav	1	13	blb_dichoticlistening_ga-ba.mp3	ga	ba	1	right
6.6.1	win	2023-06-02	06:14:26	0	0	647652cb5644044df439e1fb	1	1	DL_test	14	DL_test	8			0		pa	1	1311	6	1	antiphase_hc_iso.wav	2	6	1	noise_calib_stim_LEFT.wav	1	25	blb_dichoticlistening_pa-ba.mp3	pa	ba	1	left
6.6.1	win	2023-06-02	06:14:26	0	0	647652cb5644044df439e1fb	1	1	DL_test	14	DL_test	9			0		da	1	1193	6	1	antiphase_hc_iso.wav	2	6	1	noise_calib_stim_LEFT.wav	1	14	blb_dichoticlistening_ga-da.mp3	ga	da	1	right
6.6.1	win	2023-06-02	06:14:26	0	0	647652cb5644044df439e1fb	1	1	DL_test	14	DL_test	10			0		da	1	1242	6	1	antiphase_hc_iso.wav	2	6	1	noise_calib_stim_LEFT.wav	1	8	blb_dichoticlistening_da-da.mp3	da	da	0	left
6.6.1	win	2023-06-02	06:14:26	0	0	647652cb5644044df439e1fb	1	1	DL_test	14	DL_test	11			0		ba	1	1737	6	1	antiphase_hc_iso.wav	2	6	1	noise_calib_stim_LEFT.wav	1	1	blb_dichoticlistening_ba-ba.mp3	ba	ba	0	left
6.6.1	win	2023-06-02	06:14:26	0	0	647652cb5644044df439e1fb	1	1	DL_test	14	DL_test	12			0		ka	1	1410	6	1	antiphase_hc_iso.wav	2	6	1	noise_calib_stim_LEFT.wav	1	28	blb_dichoticlistening_pa-ka.mp3	pa	ka	1	right
6.6.1	win	2023-06-02	06:14:26	0	0	647652cb5644044df439e1fb	1	1	DL_test	14	DL_test	13			0		ga	1	1192	6	1	antiphase_hc_iso.wav	2	6	1	noise_calib_stim_LEFT.wav	1	16	blb_dichoticlistening_ga-ka.mp3	ga	ka	1	left
6.6.1	win	2023-06-02	06:14:26	0	0	647652cb5644044df439e1fb	1	1	DL_test	14	DL_test	14			0		ta	1	1410	6	1	antiphase_hc_iso.wav	2	6	1	noise_calib_stim_LEFT.wav	1	6	blb_dichoticlistening_ba-ta.mp3	ba	ta	1	right
6.6.1	win	2023-06-02	06:14:26	0	0	647652cb5644044df439e1fb	1	1	DL_test	14	DL_test	15			0		da	1	1275	6	1	antiphase_hc_iso.wav	2	6	1	noise_calib_stim_LEFT.wav	1	2	blb_dichoticlistening_ba-da.mp3	ba	da	1	right
6.6.1	win	2023-06-02	06:14:26	0	0	647652cb5644044df439e1fb	1	1	DL_test	14	DL_test	16			0		pa	1	1202	6	1	antiphase_hc_iso.wav	2	6	1	noise_calib_stim_LEFT.wav	1	23	blb_dichoticlistening_ka-pa.mp3	ka	pa	1	right
6.6.1	win	2023-06-02	06:14:26	0	0	647652cb5644044df439e1fb	1	1	DL_test	14	DL_test	17			0		ga	1	1162	6	1	antiphase_hc_iso.wav	2	6	1	noise_calib_stim_LEFT.wav	1	21	blb_dichoticlistening_ka-ga.mp3	ka	ga	1	right
6.6.1	win	2023-06-02	06:14:26	0	0	647652cb5644044df439e1fb	1	1	DL_test	14	DL_test	18			0		ta	1	1282	6	1	antiphase_hc_iso.wav	2	6	1	noise_calib_stim_LEFT.wav	1	12	blb_dichoticlistening_da-ta.mp3	da	ta	1	right
6.6.1	win	2023-06-02	06:14:26	0	0	647652cb5644044df439e1fb	1	1	DL_test	14	DL_test	19			0		pa	1	1291	6	1	antiphase_hc_iso.wav	2	6	1	noise_calib_stim_LEFT.wav	1	26	blb_dichoticlistening_pa-da.mp3	pa	da	1	left
6.6.1	win	2023-06-02	06:14:26	0	0	647652cb5644044df439e1fb	1	1	DL_test	14	DL_test	20			0		ta	1	1183	6	1	antiphase_hc_iso.wav	2	6	1	noise_calib_stim_LEFT.wav	1	36	blb_dichoticlistening_ta-ta.mp3	ta	ta	0	left
6.6.1	win	2023-06-02	06:14:26	0	0	647652cb5644044df439e1fb	1	1	DL_test	14	DL_test	21			0		ka	1	1678	6	1	antiphase_hc_iso.wav	2	6	1	noise_calib_stim_LEFT.wav	1	24	blb_dichoticlistening_ka-ta.mp3	ka	ta	1	left
6.6.1	win	2023-06-02	06:14:26	0	0	647652cb5644044df439e1fb	1	1	DL_test	14	DL_test	22			0		da	1	1866	6	1	antiphase_hc_iso.wav	2	6	1	noise_calib_stim_LEFT.wav	1	10	blb_dichoticlistening_da-ka.mp3	da	ka	1	left
6.6.1	win	2023-06-02	06:14:26	0	0	647652cb5644044df439e1fb	1	1	DL_test	14	DL_test	23			0		da	0	2536	6	1	antiphase_hc_iso.wav	2	6	1	noise_calib_stim_LEFT.wav	1	27	blb_dichoticlistening_pa-ga.mp3	pa	ga	1	other
6.6.1	win	2023-06-02	06:14:26	0	0	647652cb5644044df439e1fb	1	1	DL_test	14	DL_test	24			0		ka	1	1183	6	1	antiphase_hc_iso.wav	2	6	1	noise_calib_stim_LEFT.wav	1	22	blb_dichoticlistening_ka-ka.mp3	ka	ka	0	left
6.6.1	win	2023-06-02	06:14:26	0	0	647652cb5644044df439e1fb	1	1	DL_test	14	DL_test	25			0		pa	0	1074	6	1	antiphase_hc_iso.wav	2	6	1	noise_calib_stim_LEFT.wav	1	19	blb_dichoticlistening_ka-ba.mp3	ka	ba	1	other
6.6.1	win	2023-06-02	06:14:26	0	0	647652cb5644044df439e1fb	1	1	DL_test	14	DL_test	26			0		ta	1	1194	6	1	antiphase_hc_iso.wav	2	6	1	noise_calib_stim_LEFT.wav	1	30	blb_dichoticlistening_pa-ta.mp3	pa	ta	1	right
6.6.1	win	2023-06-02	06:14:26	0	0	647652cb5644044df439e1fb	1	1	DL_test	14	DL_test	27			0		pa	1	1331	6	1	antiphase_hc_iso.wav	2	6	1	noise_calib_stim_LEFT.wav	1	17	blb_dichoticlistening_ga-pa.mp3	ga	pa	1	right
6.6.1	win	2023-06-02	06:14:26	0	0	647652cb5644044df439e1fb	1	1	DL_test	14	DL_test	28			0		da	0	1708	6	1	antiphase_hc_iso.wav	2	6	1	noise_calib_stim_LEFT.wav	1	15	blb_dichoticlistening_ga-ga.mp3	ga	ga	0	other
6.6.1	win	2023-06-02	06:14:26	0	0	647652cb5644044df439e1fb	1	1	DL_test	14	DL_test	29			0		ka	1	1766	6	1	antiphase_hc_iso.wav	2	6	1	noise_calib_stim_LEFT.wav	1	20	blb_dichoticlistening_ka-da.mp3	ka	da	1	left
6.6.1	win	2023-06-02	06:14:26	0	0	647652cb5644044df439e1fb	1	1	DL_test	14	DL_test	30			0		ta	1	2182	6	1	antiphase_hc_iso.wav	2	6	1	noise_calib_stim_LEFT.wav	1	32	blb_dichoticlistening_ta-da.mp3	ta	da	1	left
6.6.1	win	2023-06-02	06:14:26	0	0	647652cb5644044df439e1fb	1	1	DL_test	14	DL_test	31			0		da	1	2450	6	1	antiphase_hc_iso.wav	2	6	1	noise_calib_stim_LEFT.wav	1	7	blb_dichoticlistening_da-ba.mp3	da	ba	1	left
6.6.1	win	2023-06-02	06:14:26	0	0	647652cb5644044df439e1fb	1	1	DL_test	14	DL_test	32			0		ba	1	1925	6	1	antiphase_hc_iso.wav	2	6	1	noise_calib_stim_LEFT.wav	1	3	blb_dichoticlistening_ba-ga.mp3	ba	ga	1	left
6.6.1	win	2023-06-02	06:14:26	0	0	647652cb5644044df439e1fb	1	1	DL_test	14	DL_test	33			0		da	1	1549	6	1	antiphase_hc_iso.wav	2	6	1	noise_calib_stim_LEFT.wav	1	9	blb_dichoticlistening_da-ga.mp3	da	ga	1	left
6.6.1	win	2023-06-02	06:14:26	0	0	647652cb5644044df439e1fb	1	1	DL_test	14	DL_test	34			0		pa	1	1145	6	1	antiphase_hc_iso.wav	2	6	1	noise_calib_stim_LEFT.wav	1	5	blb_dichoticlistening_ba-pa.mp3	ba	pa	1	right
6.6.1	win	2023-06-02	06:14:26	0	0	647652cb5644044df439e1fb	1	1	DL_test	14	DL_test	35			0		ta	1	1342	6	1	antiphase_hc_iso.wav	2	6	1	noise_calib_stim_LEFT.wav	1	18	blb_dichoticlistening_ga-ta.mp3	ga	ta	1	right
6.6.1	win	2023-06-02	06:14:26	0	0	647652cb5644044df439e1fb	1	1	DL_test	14	DL_test	36			0		pa	1	1213	6	1	antiphase_hc_iso.wav	2	6	1	noise_calib_stim_LEFT.wav	1	29	blb_dichoticlistening_pa-pa.mp3	pa	pa	0	left
6.6.1	win	2023-06-02	06:14:26	0	0	647652cb5644044df439e1fb	1	1	DL_test	15	DL_test	1			0		ba	1	3780	6	1	antiphase_hc_iso.wav	2	6	1	noise_calib_stim_LEFT.wav	1	13	blb_dichoticlistening_ga-ba.mp3	ga	ba	1	right
6.6.1	win	2023-06-02	06:14:26	0	0	647652cb5644044df439e1fb	1	1	DL_test	15	DL_test	2			0		da	1	1302	6	1	antiphase_hc_iso.wav	2	6	1	noise_calib_stim_LEFT.wav	1	7	blb_dichoticlistening_da-ba.mp3	da	ba	1	left
6.6.1	win	2023-06-02	06:14:26	0	0	647652cb5644044df439e1fb	1	1	DL_test	15	DL_test	3			0		pa	1	1133	6	1	antiphase_hc_iso.wav	2	6	1	noise_calib_stim_LEFT.wav	1	30	blb_dichoticlistening_pa-ta.mp3	pa	ta	1	left
6.6.1	win	2023-06-02	06:14:26	0	0	647652cb5644044df439e1fb	1	1	DL_test	15	DL_test	4			0		da	1	1292	6	1	antiphase_hc_iso.wav	2	6	1	noise_calib_stim_LEFT.wav	1	9	blb_dichoticlistening_da-ga.mp3	da	ga	1	left
6.6.1	win	2023-06-02	06:14:26	0	0	647652cb5644044df439e1fb	1	1	DL_test	15	DL_test	5			0		pa	1	1203	6	1	antiphase_hc_iso.wav	2	6	1	noise_calib_stim_LEFT.wav	1	27	blb_dichoticlistening_pa-ga.mp3	pa	ga	1	left
6.6.1	win	2023-06-02	06:14:26	0	0	647652cb5644044df439e1fb	1	1	DL_test	15	DL_test	6			0		ka	1	1489	6	1	antiphase_hc_iso.wav	2	6	1	noise_calib_stim_LEFT.wav	1	21	blb_dichoticlistening_ka-ga.mp3	ka	ga	1	left
6.6.1	win	2023-06-02	06:14:26	0	0	647652cb5644044df439e1fb	1	1	DL_test	15	DL_test	7			0		da	0	1418	6	1	antiphase_hc_iso.wav	2	6	1	noise_calib_stim_LEFT.wav	1	3	blb_dichoticlistening_ba-ga.mp3	ba	ga	1	other
6.6.1	win	2023-06-02	06:14:26	0	0	647652cb5644044df439e1fb	1	1	DL_test	15	DL_test	8			0		pa	1	1394	6	1	antiphase_hc_iso.wav	2	6	1	noise_calib_stim_LEFT.wav	1	17	blb_dichoticlistening_ga-pa.mp3	ga	pa	1	right
6.6.1	win	2023-06-02	06:14:26	0	0	647652cb5644044df439e1fb	1	1	DL_test	15	DL_test	9			0		pa	1	1208	6	1	antiphase_hc_iso.wav	2	6	1	noise_calib_stim_LEFT.wav	1	28	blb_dichoticlistening_pa-ka.mp3	pa	ka	1	left
6.6.1	win	2023-06-02	06:14:26	0	0	647652cb5644044df439e1fb	1	1	DL_test	15	DL_test	10			0		pa	0	1212	6	1	antiphase_hc_iso.wav	2	6	1	noise_calib_stim_LEFT.wav	1	4	blb_dichoticlistening_ba-ka.mp3	ba	ka	1	other
6.6.1	win	2023-06-02	06:14:26	0	0	647652cb5644044df439e1fb	1	1	DL_test	15	DL_test	11			0		ta	1	1034	6	1	antiphase_hc_iso.wav	2	6	1	noise_calib_stim_LEFT.wav	1	24	blb_dichoticlistening_ka-ta.mp3	ka	ta	1	right
6.6.1	win	2023-06-02	06:14:26	0	0	647652cb5644044df439e1fb	1	1	DL_test	15	DL_test	12			0		pa	1	2271	6	1	antiphase_hc_iso.wav	2	6	1	noise_calib_stim_LEFT.wav	1	26	blb_dichoticlistening_pa-da.mp3	pa	da	1	left
6.6.1	win	2023-06-02	06:14:26	0	0	647652cb5644044df439e1fb	1	1	DL_test	15	DL_test	13			0		ka	0	1431	6	1	antiphase_hc_iso.wav	2	6	1	noise_calib_stim_LEFT.wav	1	33	blb_dichoticlistening_ta-ga.mp3	ta	ga	1	other
6.6.1	win	2023-06-02	06:14:26	0	0	647652cb5644044df439e1fb	1	1	DL_test	15	DL_test	14			0		pa	1	1210	6	1	antiphase_hc_iso.wav	2	6	1	noise_calib_stim_LEFT.wav	1	35	blb_dichoticlistening_ta-pa.mp3	ta	pa	1	right
6.6.1	win	2023-06-02	06:14:26	0	0	647652cb5644044df439e1fb	1	1	DL_test	15	DL_test	15			0		pa	1	1212	6	1	antiphase_hc_iso.wav	2	6	1	noise_calib_stim_LEFT.wav	1	23	blb_dichoticlistening_ka-pa.mp3	ka	pa	1	right
6.6.1	win	2023-06-02	06:14:26	0	0	647652cb5644044df439e1fb	1	1	DL_test	15	DL_test	16			0		ga	1	1024	6	1	antiphase_hc_iso.wav	2	6	1	noise_calib_stim_LEFT.wav	1	15	blb_dichoticlistening_ga-ga.mp3	ga	ga	0	left
6.6.1	win	2023-06-02	06:14:26	0	0	647652cb5644044df439e1fb	1	1	DL_test	15	DL_test	17			0		da	1	1034	6	1	antiphase_hc_iso.wav	2	6	1	noise_calib_stim_LEFT.wav	1	14	blb_dichoticlistening_ga-da.mp3	ga	da	1	right
6.6.1	win	2023-06-02	06:14:26	0	0	647652cb5644044df439e1fb	1	1	DL_test	15	DL_test	18			0		ta	1	1411	6	1	antiphase_hc_iso.wav	2	6	1	noise_calib_stim_LEFT.wav	1	32	blb_dichoticlistening_ta-da.mp3	ta	da	1	left
6.6.1	win	2023-06-02	06:14:26	0	0	647652cb5644044df439e1fb	1	1	DL_test	15	DL_test	19			0		ka	1	1170	6	1	antiphase_hc_iso.wav	2	6	1	noise_calib_stim_LEFT.wav	1	16	blb_dichoticlistening_ga-ka.mp3	ga	ka	1	right
6.6.1	win	2023-06-02	06:14:26	0	0	647652cb5644044df439e1fb	1	1	DL_test	15	DL_test	20			0		ta	1	1906	6	1	antiphase_hc_iso.wav	2	6	1	noise_calib_stim_LEFT.wav	1	36	blb_dichoticlistening_ta-ta.mp3	ta	ta	0	left
6.6.1	win	2023-06-02	06:14:26	0	0	647652cb5644044df439e1fb	1	1	DL_test	15	DL_test	21			0		pa	0	2014	6	1	antiphase_hc_iso.wav	2	6	1	noise_calib_stim_LEFT.wav	1	10	blb_dichoticlistening_da-ka.mp3	da	ka	1	other
6.6.1	win	2023-06-02	06:14:26	0	0	647652cb5644044df439e1fb	1	1	DL_test	15	DL_test	22			0		pa	1	1054	6	1	antiphase_hc_iso.wav	2	6	1	noise_calib_stim_LEFT.wav	1	5	blb_dichoticlistening_ba-pa.mp3	ba	pa	1	right
6.6.1	win	2023-06-02	06:14:26	0	0	647652cb5644044df439e1fb	1	1	DL_test	15	DL_test	23			0		ta	1	1064	6	1	antiphase_hc_iso.wav	2	6	1	noise_calib_stim_LEFT.wav	1	12	blb_dichoticlistening_da-ta.mp3	da	ta	1	right
6.6.1	win	2023-06-02	06:14:26	0	0	647652cb5644044df439e1fb	1	1	DL_test	15	DL_test	24			0		da	1	1094	6	1	antiphase_hc_iso.wav	2	6	1	noise_calib_stim_LEFT.wav	1	8	blb_dichoticlistening_da-da.mp3	da	da	0	left
6.6.1	win	2023-06-02	06:14:26	0	0	647652cb5644044df439e1fb	1	1	DL_test	15	DL_test	25			0		pa	0	1341	6	1	antiphase_hc_iso.wav	2	6	1	noise_calib_stim_LEFT.wav	1	6	blb_dichoticlistening_ba-ta.mp3	ba	ta	1	other
6.6.1	win	2023-06-02	06:14:26	0	0	647652cb5644044df439e1fb	1	1	DL_test	15	DL_test	26			0		ka	1	1550	6	1	antiphase_hc_iso.wav	2	6	1	noise_calib_stim_LEFT.wav	1	34	blb_dichoticlistening_ta-ka.mp3	ta	ka	1	right
6.6.1	win	2023-06-02	06:14:26	0	0	647652cb5644044df439e1fb	1	1	DL_test	15	DL_test	27			0		ga	0	1687	6	1	antiphase_hc_iso.wav	2	6	1	noise_calib_stim_LEFT.wav	1	25	blb_dichoticlistening_pa-ba.mp3	pa	ba	1	other
6.6.1	win	2023-06-02	06:14:26	0	0	647652cb5644044df439e1fb	1	1	DL_test	15	DL_test	28			0		pa	1	1134	6	1	antiphase_hc_iso.wav	2	6	1	noise_calib_stim_LEFT.wav	1	29	blb_dichoticlistening_pa-pa.mp3	pa	pa	0	left
6.6.1	win	2023-06-02	06:14:26	0	0	647652cb5644044df439e1fb	1	1	DL_test	15	DL_test	29			0		pa	0	1163	6	1	antiphase_hc_iso.wav	2	6	1	noise_calib_stim_LEFT.wav	1	31	blb_dichoticlistening_ta-ba.mp3	ta	ba	1	other
6.6.1	win	2023-06-02	06:14:26	0	0	647652cb5644044df439e1fb	1	1	DL_test	15	DL_test	30			0		pa	0	1094	6	1	antiphase_hc_iso.wav	2	6	1	noise_calib_stim_LEFT.wav	1	19	blb_dichoticlistening_ka-ba.mp3	ka	ba	1	other
6.6.1	win	2023-06-02	06:14:26	0	0	647652cb5644044df439e1fb	1	1	DL_test	15	DL_test	31			0		ga	0	1817	6	1	antiphase_hc_iso.wav	2	6	1	noise_calib_stim_LEFT.wav	1	11	blb_dichoticlistening_da-pa.mp3	da	pa	1	other
6.6.1	win	2023-06-02	06:14:26	0	0	647652cb5644044df439e1fb	1	1	DL_test	15	DL_test	32			0		ka	0	1203	6	1	antiphase_hc_iso.wav	2	6	1	noise_calib_stim_LEFT.wav	1	18	blb_dichoticlistening_ga-ta.mp3	ga	ta	1	other
6.6.1	win	2023-06-02	06:14:26	0	0	647652cb5644044df439e1fb	1	1	DL_test	15	DL_test	33			0		ka	1	1063	6	1	antiphase_hc_iso.wav	2	6	1	noise_calib_stim_LEFT.wav	1	22	blb_dichoticlistening_ka-ka.mp3	ka	ka	0	left
6.6.1	win	2023-06-02	06:14:26	0	0	647652cb5644044df439e1fb	1	1	DL_test	15	DL_test	34			0		ba	1	1470	6	1	antiphase_hc_iso.wav	2	6	1	noise_calib_stim_LEFT.wav	1	1	blb_dichoticlistening_ba-ba.mp3	ba	ba	0	left
6.6.1	win	2023-06-02	06:14:26	0	0	647652cb5644044df439e1fb	1	1	DL_test	15	DL_test	35			0		ka	1	1213	6	1	antiphase_hc_iso.wav	2	6	1	noise_calib_stim_LEFT.wav	1	20	blb_dichoticlistening_ka-da.mp3	ka	da	1	left
6.6.1	win	2023-06-02	06:14:26	0	0	647652cb5644044df439e1fb	1	1	DL_test	15	DL_test	36			0		da	1	1469	6	1	antiphase_hc_iso.wav	2	6	1	noise_calib_stim_LEFT.wav	1	2	blb_dichoticlistening_ba-da.mp3	ba	da	1	right
6.6.1	win	2023-06-02	06:14:26	0	0	647652cb5644044df439e1fb	1	1	DL_test	16	DL_test	1			0		pa	1	1300	6	1	antiphase_hc_iso.wav	2	6	1	noise_calib_stim_LEFT.wav	1	23	blb_dichoticlistening_ka-pa.mp3	ka	pa	1	right
6.6.1	win	2023-06-02	06:14:26	0	0	647652cb5644044df439e1fb	1	1	DL_test	16	DL_test	2			0		pa	1	1164	6	1	antiphase_hc_iso.wav	2	6	1	noise_calib_stim_LEFT.wav	1	29	blb_dichoticlistening_pa-pa.mp3	pa	pa	0	left
6.6.1	win	2023-06-02	06:14:26	0	0	647652cb5644044df439e1fb	1	1	DL_test	16	DL_test	3			0		ka	1	1114	6	1	antiphase_hc_iso.wav	2	6	1	noise_calib_stim_LEFT.wav	1	22	blb_dichoticlistening_ka-ka.mp3	ka	ka	0	left
6.6.1	win	2023-06-02	06:14:26	0	0	647652cb5644044df439e1fb	1	1	DL_test	16	DL_test	4			0		ga	1	1143	6	1	antiphase_hc_iso.wav	2	6	1	noise_calib_stim_LEFT.wav	1	18	blb_dichoticlistening_ga-ta.mp3	ga	ta	1	left
6.6.1	win	2023-06-02	06:14:26	0	0	647652cb5644044df439e1fb	1	1	DL_test	16	DL_test	5			0		ba	1	1598	6	1	antiphase_hc_iso.wav	2	6	1	noise_calib_stim_LEFT.wav	1	1	blb_dichoticlistening_ba-ba.mp3	ba	ba	0	left
6.6.1	win	2023-06-02	06:14:26	0	0	647652cb5644044df439e1fb	1	1	DL_test	16	DL_test	6			0		pa	1	1955	6	1	antiphase_hc_iso.wav	2	6	1	noise_calib_stim_LEFT.wav	1	28	blb_dichoticlistening_pa-ka.mp3	pa	ka	1	left
6.6.1	win	2023-06-02	06:14:26	0	0	647652cb5644044df439e1fb	1	1	DL_test	16	DL_test	7			0		ta	1	1183	6	1	antiphase_hc_iso.wav	2	6	1	noise_calib_stim_LEFT.wav	1	12	blb_dichoticlistening_da-ta.mp3	da	ta	1	right
6.6.1	win	2023-06-02	06:14:26	0	0	647652cb5644044df439e1fb	1	1	DL_test	16	DL_test	8			0		ga	1	985	6	1	antiphase_hc_iso.wav	2	6	1	noise_calib_stim_LEFT.wav	1	15	blb_dichoticlistening_ga-ga.mp3	ga	ga	0	left
6.6.1	win	2023-06-02	06:14:26	0	0	647652cb5644044df439e1fb	1	1	DL_test	16	DL_test	9			0		da	1	909	6	1	antiphase_hc_iso.wav	2	6	1	noise_calib_stim_LEFT.wav	1	2	blb_dichoticlistening_ba-da.mp3	ba	da	1	right
6.6.1	win	2023-06-02	06:14:26	0	0	647652cb5644044df439e1fb	1	1	DL_test	16	DL_test	10			0		ta	1	1233	6	1	antiphase_hc_iso.wav	2	6	1	noise_calib_stim_LEFT.wav	1	32	blb_dichoticlistening_ta-da.mp3	ta	da	1	left
6.6.1	win	2023-06-02	06:14:26	0	0	647652cb5644044df439e1fb	1	1	DL_test	16	DL_test	11			0		pa	1	906	6	1	antiphase_hc_iso.wav	2	6	1	noise_calib_stim_LEFT.wav	1	25	blb_dichoticlistening_pa-ba.mp3	pa	ba	1	left
6.6.1	win	2023-06-02	06:14:26	0	0	647652cb5644044df439e1fb	1	1	DL_test	16	DL_test	12			0		ga	1	1034	6	1	antiphase_hc_iso.wav	2	6	1	noise_calib_stim_LEFT.wav	1	33	blb_dichoticlistening_ta-ga.mp3	ta	ga	1	right
6.6.1	win	2023-06-02	06:14:26	0	0	647652cb5644044df439e1fb	1	1	DL_test	16	DL_test	13			0		pa	1	1460	6	1	antiphase_hc_iso.wav	2	6	1	noise_calib_stim_LEFT.wav	1	27	blb_dichoticlistening_pa-ga.mp3	pa	ga	1	left
6.6.1	win	2023-06-02	06:14:26	0	0	647652cb5644044df439e1fb	1	1	DL_test	16	DL_test	14			0		pa	1	1220	6	1	antiphase_hc_iso.wav	2	6	1	noise_calib_stim_LEFT.wav	1	11	blb_dichoticlistening_da-pa.mp3	da	pa	1	right
6.6.1	win	2023-06-02	06:14:26	0	0	647652cb5644044df439e1fb	1	1	DL_test	16	DL_test	15			0		ga	1	1688	6	1	antiphase_hc_iso.wav	2	6	1	noise_calib_stim_LEFT.wav	1	17	blb_dichoticlistening_ga-pa.mp3	ga	pa	1	left
6.6.1	win	2023-06-02	06:14:26	0	0	647652cb5644044df439e1fb	1	1	DL_test	16	DL_test	16			0		ka	1	1391	6	1	antiphase_hc_iso.wav	2	6	1	noise_calib_stim_LEFT.wav	1	20	blb_dichoticlistening_ka-da.mp3	ka	da	1	left
6.6.1	win	2023-06-02	06:14:26	0	0	647652cb5644044df439e1fb	1	1	DL_test	16	DL_test	17			0		pa	1	1139	6	1	antiphase_hc_iso.wav	2	6	1	noise_calib_stim_LEFT.wav	1	5	blb_dichoticlistening_ba-pa.mp3	ba	pa	1	right
6.6.1	win	2023-06-02	06:14:26	0	0	647652cb5644044df439e1fb	1	1	DL_test	16	DL_test	18			0		ta	1	1173	6	1	antiphase_hc_iso.wav	2	6	1	noise_calib_stim_LEFT.wav	1	36	blb_dichoticlistening_ta-ta.mp3	ta	ta	0	left
6.6.1	win	2023-06-02	06:14:26	0	0	647652cb5644044df439e1fb	1	1	DL_test	16	DL_test	19			0		pa	0	1282	6	1	antiphase_hc_iso.wav	2	6	1	noise_calib_stim_LEFT.wav	1	6	blb_dichoticlistening_ba-ta.mp3	ba	ta	1	other
6.6.1	win	2023-06-02	06:14:26	0	0	647652cb5644044df439e1fb	1	1	DL_test	16	DL_test	20			0		ba	1	1559	6	1	antiphase_hc_iso.wav	2	6	1	noise_calib_stim_LEFT.wav	1	3	blb_dichoticlistening_ba-ga.mp3	ba	ga	1	left
6.6.1	win	2023-06-02	06:14:26	0	0	647652cb5644044df439e1fb	1	1	DL_test	16	DL_test	21			0		ka	1	1143	6	1	antiphase_hc_iso.wav	2	6	1	noise_calib_stim_LEFT.wav	1	4	blb_dichoticlistening_ba-ka.mp3	ba	ka	1	right
6.6.1	win	2023-06-02	06:14:26	0	0	647652cb5644044df439e1fb	1	1	DL_test	16	DL_test	22			0		pa	1	1331	6	1	antiphase_hc_iso.wav	2	6	1	noise_calib_stim_LEFT.wav	1	30	blb_dichoticlistening_pa-ta.mp3	pa	ta	1	left
6.6.1	win	2023-06-02	06:14:26	0	0	647652cb5644044df439e1fb	1	1	DL_test	16	DL_test	23			0		da	1	1221	6	1	antiphase_hc_iso.wav	2	6	1	noise_calib_stim_LEFT.wav	1	14	blb_dichoticlistening_ga-da.mp3	ga	da	1	right
6.6.1	win	2023-06-02	06:14:26	0	0	647652cb5644044df439e1fb	1	1	DL_test	16	DL_test	24			0		ka	1	1093	6	1	antiphase_hc_iso.wav	2	6	1	noise_calib_stim_LEFT.wav	1	16	blb_dichoticlistening_ga-ka.mp3	ga	ka	1	right
6.6.1	win	2023-06-02	06:14:26	0	0	647652cb5644044df439e1fb	1	1	DL_test	16	DL_test	25			0		ka	1	1074	6	1	antiphase_hc_iso.wav	2	6	1	noise_calib_stim_LEFT.wav	1	24	blb_dichoticlistening_ka-ta.mp3	ka	ta	1	left
6.6.1	win	2023-06-02	06:14:26	0	0	647652cb5644044df439e1fb	1	1	DL_test	16	DL_test	26			0		pa	1	2242	6	1	antiphase_hc_iso.wav	2	6	1	noise_calib_stim_LEFT.wav	1	26	blb_dichoticlistening_pa-da.mp3	pa	da	1	left
6.6.1	win	2023-06-02	06:14:26	0	0	647652cb5644044df439e1fb	1	1	DL_test	16	DL_test	27			0		pa	0	1193	6	1	antiphase_hc_iso.wav	2	6	1	noise_calib_stim_LEFT.wav	1	31	blb_dichoticlistening_ta-ba.mp3	ta	ba	1	other
6.6.1	win	2023-06-02	06:14:26	0	0	647652cb5644044df439e1fb	1	1	DL_test	16	DL_test	28			0		ba	1	1470	6	1	antiphase_hc_iso.wav	2	6	1	noise_calib_stim_LEFT.wav	1	13	blb_dichoticlistening_ga-ba.mp3	ga	ba	1	right
6.6.1	win	2023-06-02	06:14:26	0	0	647652cb5644044df439e1fb	1	1	DL_test	16	DL_test	29			0		ba	1	1599	6	1	antiphase_hc_iso.wav	2	6	1	noise_calib_stim_LEFT.wav	1	7	blb_dichoticlistening_da-ba.mp3	da	ba	1	right
6.6.1	win	2023-06-02	06:14:26	0	0	647652cb5644044df439e1fb	1	1	DL_test	16	DL_test	30			0		pa	0	1232	6	1	antiphase_hc_iso.wav	2	6	1	noise_calib_stim_LEFT.wav	1	19	blb_dichoticlistening_ka-ba.mp3	ka	ba	1	other
6.6.1	win	2023-06-02	06:14:26	0	0	647652cb5644044df439e1fb	1	1	DL_test	16	DL_test	31			0		da	1	1193	6	1	antiphase_hc_iso.wav	2	6	1	noise_calib_stim_LEFT.wav	1	8	blb_dichoticlistening_da-da.mp3	da	da	0	left
6.6.1	win	2023-06-02	06:14:26	0	0	647652cb5644044df439e1fb	1	1	DL_test	16	DL_test	32			0		ka	1	1252	6	1	antiphase_hc_iso.wav	2	6	1	noise_calib_stim_LEFT.wav	1	21	blb_dichoticlistening_ka-ga.mp3	ka	ga	1	left
6.6.1	win	2023-06-02	06:14:26	0	0	647652cb5644044df439e1fb	1	1	DL_test	16	DL_test	33			0		pa	0	1401	6	1	antiphase_hc_iso.wav	2	6	1	noise_calib_stim_LEFT.wav	1	10	blb_dichoticlistening_da-ka.mp3	da	ka	1	other
6.6.1	win	2023-06-02	06:14:26	0	0	647652cb5644044df439e1fb	1	1	DL_test	16	DL_test	34			0		da	1	1350	6	1	antiphase_hc_iso.wav	2	6	1	noise_calib_stim_LEFT.wav	1	9	blb_dichoticlistening_da-ga.mp3	da	ga	1	left
6.6.1	win	2023-06-02	06:14:26	0	0	647652cb5644044df439e1fb	1	1	DL_test	16	DL_test	35			0		pa	1	1282	6	1	antiphase_hc_iso.wav	2	6	1	noise_calib_stim_LEFT.wav	1	35	blb_dichoticlistening_ta-pa.mp3	ta	pa	1	right
6.6.1	win	2023-06-02	06:14:26	0	0	647652cb5644044df439e1fb	1	1	DL_test	16	DL_test	36			0		ka	1	1094	6	1	antiphase_hc_iso.wav	2	6	1	noise_calib_stim_LEFT.wav	1	34	blb_dichoticlistening_ta-ka.mp3	ta	ka	1	right
6.6.1	win	2023-06-02	06:14:26	06:34:33	1203532	647652cb5644044df439e1fb	1	1	practice_slash	22	practice_slash	1	stimuli_target_diamondsquares.svg	stimuli_distractor_diamondtriangles.svg	3	yes	53	1	569	6	1	antiphase_hc_iso.wav	2	6	1	noise_calib_stim_LEFT.wav	1	34	blb_dichoticlistening_ta-ka.mp3	ta	ka	1	right
6.6.1	win	2023-06-02	06:14:26	06:34:33	1203532	647652cb5644044df439e1fb	1	1	practice_slash	22	advance_on_keypress_SLASH	2	stimuli_target_diamondsquares.svg	stimuli_distractor_diamondtriangles.svg	3	yes	57	0	1788	6	1	antiphase_hc_iso.wav	2	6	1	noise_calib_stim_LEFT.wav	1	34	blb_dichoticlistening_ta-ka.mp3	ta	ka	1	right
6.6.1	win	2023-06-02	06:14:26	06:34:39	1208973	647652cb5644044df439e1fb	1	1	practice_slash	22	practice_slash	3	stimuli_distractor_diamondtriangles.svg	stimuli_distractor_trianglediamonds.svg	14	no	0	1	2000	6	1	antiphase_hc_iso.wav	2	6	1	noise_calib_stim_LEFT.wav	1	34	blb_dichoticlistening_ta-ka.mp3	ta	ka	1	right
6.6.1	win	2023-06-02	06:14:26	06:34:39	1208973	647652cb5644044df439e1fb	1	1	practice_slash	22	advance_on_keypress_SLASH	4	stimuli_distractor_diamondtriangles.svg	stimuli_distractor_trianglediamonds.svg	14	no	57	0	2096	6	1	antiphase_hc_iso.wav	2	6	1	noise_calib_stim_LEFT.wav	1	34	blb_dichoticlistening_ta-ka.mp3	ta	ka	1	right
6.6.1	win	2023-06-02	06:14:26	06:34:43	1213466	647652cb5644044df439e1fb	1	1	practice_slash	22	practice_slash	5	stimuli_distractor_diamondtriangles.svg	stimuli_target_trianglerectangles.svg	9	yes	53	1	742	6	1	antiphase_hc_iso.wav	2	6	1	noise_calib_stim_LEFT.wav	1	34	blb_dichoticlistening_ta-ka.mp3	ta	ka	1	right
6.6.1	win	2023-06-02	06:14:26	06:34:43	1213466	647652cb5644044df439e1fb	1	1	practice_slash	22	advance_on_keypress_SLASH	6	stimuli_distractor_diamondtriangles.svg	stimuli_target_trianglerectangles.svg	9	yes	57	0	1049	6	1	antiphase_hc_iso.wav	2	6	1	noise_calib_stim_LEFT.wav	1	34	blb_dichoticlistening_ta-ka.mp3	ta	ka	1	right
6.6.1	win	2023-06-02	06:14:26	06:34:47	1217094	647652cb5644044df439e1fb	1	1	practice_slash	22	practice_slash	7	stimuli_distractor_diamondtriangles.svg	stimuli_target_diamondrectangles.svg	8	yes	53	1	923	6	1	antiphase_hc_iso.wav	2	6	1	noise_calib_stim_LEFT.wav	1	34	blb_dichoticlistening_ta-ka.mp3	ta	ka	1	right
6.6.1	win	2023-06-02	06:14:26	06:34:47	1217094	647652cb5644044df439e1fb	1	1	practice_slash	22	advance_on_keypress_SLASH	8	stimuli_distractor_diamondtriangles.svg	stimuli_target_diamondrectangles.svg	8	yes	57	0	1139	6	1	antiphase_hc_iso.wav	2	6	1	noise_calib_stim_LEFT.wav	1	34	blb_dichoticlistening_ta-ka.mp3	ta	ka	1	right
6.6.1	win	2023-06-02	06:14:26	06:34:50	1220627	647652cb5644044df439e1fb	1	1	practice_slash	22	practice_slash	9	stimuli_target_squarediamonds.svg	stimuli_distractor_trianglediamonds.svg	5	yes	53	1	741	6	1	antiphase_hc_iso.wav	2	6	1	noise_calib_stim_LEFT.wav	1	34	blb_dichoticlistening_ta-ka.mp3	ta	ka	1	right
6.6.1	win	2023-06-02	06:14:26	06:34:50	1220627	647652cb5644044df439e1fb	1	1	practice_slash	22	advance_on_keypress_SLASH	10	stimuli_target_squarediamonds.svg	stimuli_distractor_trianglediamonds.svg	5	yes	57	0	1408	6	1	antiphase_hc_iso.wav	2	6	1	noise_calib_stim_LEFT.wav	1	34	blb_dichoticlistening_ta-ka.mp3	ta	ka	1	right
6.6.1	win	2023-06-02	06:14:26	06:34:54	1224323	647652cb5644044df439e1fb	1	1	practice_slash	22	practice_slash	11	stimuli_target_squarediamonds.svg	stimuli_distractor_diamondtriangles.svg	2	yes	53	1	634	6	1	antiphase_hc_iso.wav	2	6	1	noise_calib_stim_LEFT.wav	1	34	blb_dichoticlistening_ta-ka.mp3	ta	ka	1	right
6.6.1	win	2023-06-02	06:14:26	06:34:54	1224323	647652cb5644044df439e1fb	1	1	practice_slash	22	advance_on_keypress_SLASH	12	stimuli_target_squarediamonds.svg	stimuli_distractor_diamondtriangles.svg	2	yes	57	0	898	6	1	antiphase_hc_iso.wav	2	6	1	noise_calib_stim_LEFT.wav	1	34	blb_dichoticlistening_ta-ka.mp3	ta	ka	1	right
6.6.1	win	2023-06-02	06:14:26	06:34:58	1227737	647652cb5644044df439e1fb	1	1	practice_slash	22	practice_slash	13	stimuli_distractor_trianglediamonds.svg	stimuli_target_rectanglediamonds.svg	10	yes	53	1	863	6	1	antiphase_hc_iso.wav	2	6	1	noise_calib_stim_LEFT.wav	1	34	blb_dichoticlistening_ta-ka.mp3	ta	ka	1	right
6.6.1	win	2023-06-02	06:14:26	06:34:58	1227737	647652cb5644044df439e1fb	1	1	practice_slash	22	advance_on_keypress_SLASH	14	stimuli_distractor_trianglediamonds.svg	stimuli_target_rectanglediamonds.svg	10	yes	57	0	908	6	1	antiphase_hc_iso.wav	2	6	1	noise_calib_stim_LEFT.wav	1	34	blb_dichoticlistening_ta-ka.mp3	ta	ka	1	right
6.6.1	win	2023-06-02	06:14:26	06:35:02	1232300	647652cb5644044df439e1fb	1	1	practice_slash	22	practice_slash	15	stimuli_distractor_trianglediamonds.svg	stimuli_distractor_trianglediamonds.svg	15	no	0	1	2000	6	1	antiphase_hc_iso.wav	2	6	1	noise_calib_stim_LEFT.wav	1	34	blb_dichoticlistening_ta-ka.mp3	ta	ka	1	right
6.6.1	win	2023-06-02	06:14:26	06:35:02	1232300	647652cb5644044df439e1fb	1	1	practice_slash	22	advance_on_keypress_SLASH	16	stimuli_distractor_trianglediamonds.svg	stimuli_distractor_trianglediamonds.svg	15	no	57	0	665	6	1	antiphase_hc_iso.wav	2	6	1	noise_calib_stim_LEFT.wav	1	34	blb_dichoticlistening_ta-ka.mp3	ta	ka	1	right
6.6.1	win	2023-06-02	06:14:26	06:35:06	1236619	647652cb5644044df439e1fb	1	1	practice_slash	22	practice_slash	17	stimuli_distractor_trianglediamonds.svg	stimuli_distractor_diamondtriangles.svg	16	no	0	1	2000	6	1	antiphase_hc_iso.wav	2	6	1	noise_calib_stim_LEFT.wav	1	34	blb_dichoticlistening_ta-ka.mp3	ta	ka	1	right
6.6.1	win	2023-06-02	06:14:26	06:35:06	1236619	647652cb5644044df439e1fb	1	1	practice_slash	22	advance_on_keypress_SLASH	18	stimuli_distractor_trianglediamonds.svg	stimuli_distractor_diamondtriangles.svg	16	no	57	0	2861	6	1	antiphase_hc_iso.wav	2	6	1	noise_calib_stim_LEFT.wav	1	34	blb_dichoticlistening_ta-ka.mp3	ta	ka	1	right
6.6.1	win	2023-06-02	06:14:26	06:35:12	1241779	647652cb5644044df439e1fb	1	1	practice_slash	22	practice_slash	19	stimuli_target_rectanglediamonds.svg	stimuli_distractor_trianglediamonds.svg	4	yes	53	1	646	6	1	antiphase_hc_iso.wav	2	6	1	noise_calib_stim_LEFT.wav	1	34	blb_dichoticlistening_ta-ka.mp3	ta	ka	1	right
6.6.1	win	2023-06-02	06:14:26	06:35:12	1241779	647652cb5644044df439e1fb	1	1	practice_slash	22	advance_on_keypress_SLASH	20	stimuli_target_rectanglediamonds.svg	stimuli_distractor_trianglediamonds.svg	4	yes	57	0	728	6	1	antiphase_hc_iso.wav	2	6	1	noise_calib_stim_LEFT.wav	1	34	blb_dichoticlistening_ta-ka.mp3	ta	ka	1	right
6.6.1	win	2023-06-02	06:14:26	06:35:15	1245317	647652cb5644044df439e1fb	1	1	practice_slash	22	practice_slash	21	stimuli_distractor_trianglediamonds.svg	stimuli_target_diamondrectangles.svg	12	yes	53	1	1157	6	1	antiphase_hc_iso.wav	2	6	1	noise_calib_stim_LEFT.wav	1	34	blb_dichoticlistening_ta-ka.mp3	ta	ka	1	right
6.6.1	win	2023-06-02	06:14:26	06:35:15	1245317	647652cb5644044df439e1fb	1	1	practice_slash	22	advance_on_keypress_SLASH	22	stimuli_distractor_trianglediamonds.svg	stimuli_target_diamondrectangles.svg	12	yes	57	0	695	6	1	antiphase_hc_iso.wav	2	6	1	noise_calib_stim_LEFT.wav	1	34	blb_dichoticlistening_ta-ka.mp3	ta	ka	1	right
6.6.1	win	2023-06-02	06:14:26	06:35:19	1248826	647652cb5644044df439e1fb	1	1	practice_slash	22	practice_slash	23	stimuli_distractor_trianglediamonds.svg	stimuli_target_squarediamonds.svg	11	yes	53	1	1160	6	1	antiphase_hc_iso.wav	2	6	1	noise_calib_stim_LEFT.wav	1	34	blb_dichoticlistening_ta-ka.mp3	ta	ka	1	right
6.6.1	win	2023-06-02	06:14:26	06:35:19	1248826	647652cb5644044df439e1fb	1	1	practice_slash	22	advance_on_keypress_SLASH	24	stimuli_distractor_trianglediamonds.svg	stimuli_target_squarediamonds.svg	11	yes	57	0	568	6	1	antiphase_hc_iso.wav	2	6	1	noise_calib_stim_LEFT.wav	1	34	blb_dichoticlistening_ta-ka.mp3	ta	ka	1	right
6.6.1	win	2023-06-02	06:14:26	06:35:21	1251706	647652cb5644044df439e1fb	1	1	practice_slash	22	practice_slash	25	stimuli_distractor_diamondtriangles.svg	stimuli_target_rectangletriangles.svg	7	yes	53	1	659	6	1	antiphase_hc_iso.wav	2	6	1	noise_calib_stim_LEFT.wav	1	34	blb_dichoticlistening_ta-ka.mp3	ta	ka	1	right
6.6.1	win	2023-06-02	06:14:26	06:35:21	1251706	647652cb5644044df439e1fb	1	1	practice_slash	22	advance_on_keypress_SLASH	26	stimuli_distractor_diamondtriangles.svg	stimuli_target_rectangletriangles.svg	7	yes	57	0	482	6	1	antiphase_hc_iso.wav	2	6	1	noise_calib_stim_LEFT.wav	1	34	blb_dichoticlistening_ta-ka.mp3	ta	ka	1	right
6.6.1	win	2023-06-02	06:14:26	06:35:26	1255843	647652cb5644044df439e1fb	1	1	practice_slash	22	practice_slash	27	stimuli_distractor_diamondtriangles.svg	stimuli_distractor_diamondtriangles.svg	13	no	0	1	2000	6	1	antiphase_hc_iso.wav	2	6	1	noise_calib_stim_LEFT.wav	1	34	blb_dichoticlistening_ta-ka.mp3	ta	ka	1	right
6.6.1	win	2023-06-02	06:14:26	06:35:26	1255843	647652cb5644044df439e1fb	1	1	practice_slash	22	advance_on_keypress_SLASH	28	stimuli_distractor_diamondtriangles.svg	stimuli_distractor_diamondtriangles.svg	13	no	57	0	483	6	1	antiphase_hc_iso.wav	2	6	1	noise_calib_stim_LEFT.wav	1	34	blb_dichoticlistening_ta-ka.mp3	ta	ka	1	right
6.6.1	win	2023-06-02	06:14:26	06:35:29	1259041	647652cb5644044df439e1fb	1	1	practice_slash	22	practice_slash	29	stimuli_target_diamondsquares.svg	stimuli_distractor_trianglediamonds.svg	6	yes	53	1	1061	6	1	antiphase_hc_iso.wav	2	6	1	noise_calib_stim_LEFT.wav	1	34	blb_dichoticlistening_ta-ka.mp3	ta	ka	1	right
6.6.1	win	2023-06-02	06:14:26	06:35:29	1259041	647652cb5644044df439e1fb	1	1	practice_slash	22	advance_on_keypress_SLASH	30	stimuli_target_diamondsquares.svg	stimuli_distractor_trianglediamonds.svg	6	yes	57	0	1247	6	1	antiphase_hc_iso.wav	2	6	1	noise_calib_stim_LEFT.wav	1	34	blb_dichoticlistening_ta-ka.mp3	ta	ka	1	right
6.6.1	win	2023-06-02	06:14:26	06:35:32	1262593	647652cb5644044df439e1fb	1	1	practice_slash	22	practice_slash	31	stimuli_target_rectanglediamonds.svg	stimuli_distractor_diamondtriangles.svg	1	yes	53	1	650	6	1	antiphase_hc_iso.wav	2	6	1	noise_calib_stim_LEFT.wav	1	34	blb_dichoticlistening_ta-ka.mp3	ta	ka	1	right
6.6.1	win	2023-06-02	06:14:26	06:35:32	1262593	647652cb5644044df439e1fb	1	1	practice_slash	22	advance_on_keypress_SLASH	32	stimuli_target_rectanglediamonds.svg	stimuli_distractor_diamondtriangles.svg	1	yes	57	0	460	6	1	antiphase_hc_iso.wav	2	6	1	noise_calib_stim_LEFT.wav	1	34	blb_dichoticlistening_ta-ka.mp3	ta	ka	1	right
6.6.1	win	2023-06-02	06:14:26	06:35:46	1276627	647652cb5644044df439e1fb	1	1	main_slash	24	main_slash	1	stimuli_distractor_diamondtriangles.svg	stimuli_distractor_trianglediamonds.svg	37	no	0	1	2000	6	1	antiphase_hc_iso.wav	2	6	1	noise_calib_stim_LEFT.wav	1	34	blb_dichoticlistening_ta-ka.mp3	ta	ka	1	right
6.6.1	win	2023-06-02	06:14:26	06:35:46	1276627	647652cb5644044df439e1fb	1	1	main_slash	24	advance_on_keypress_SLASH	2	stimuli_distractor_diamondtriangles.svg	stimuli_distractor_trianglediamonds.svg	37	no	57	0	720	6	1	antiphase_hc_iso.wav	2	6	1	noise_calib_stim_LEFT.wav	1	34	blb_dichoticlistening_ta-ka.mp3	ta	ka	1	right
6.6.1	win	2023-06-02	06:14:26	06:35:48	1278671	647652cb5644044df439e1fb	1	1	main_slash	24	main_slash	3	stimuli_target_squaretriangles.svg	stimuli_distractor_trianglediamonds.svg	3	yes	53	1	680	6	1	antiphase_hc_iso.wav	2	6	1	noise_calib_stim_LEFT.wav	1	34	blb_dichoticlistening_ta-ka.mp3	ta	ka	1	right
6.6.1	win	2023-06-02	06:14:26	06:35:48	1278671	647652cb5644044df439e1fb	1	1	main_slash	24	advance_on_keypress_SLASH	4	stimuli_target_squaretriangles.svg	stimuli_distractor_trianglediamonds.svg	3	yes	57	0	980	6	1	antiphase_hc_iso.wav	2	6	1	noise_calib_stim_LEFT.wav	1	34	blb_dichoticlistening_ta-ka.mp3	ta	ka	1	right
6.6.1	win	2023-06-02	06:14:26	06:35:52	1282306	647652cb5644044df439e1fb	1	1	main_slash	24	main_slash	5	stimuli_target_diamondsquares.svg	stimuli_distractor_diamondtriangles.svg	24	yes	0	0	2000	6	1	antiphase_hc_iso.wav	2	6	1	noise_calib_stim_LEFT.wav	1	34	blb_dichoticlistening_ta-ka.mp3	ta	ka	1	right
6.6.1	win	2023-06-02	06:14:26	06:35:52	1282306	647652cb5644044df439e1fb	1	1	main_slash	24	advance_on_keypress_SLASH	6	stimuli_target_diamondsquares.svg	stimuli_distractor_diamondtriangles.svg	24	yes	57	0	796	6	1	antiphase_hc_iso.wav	2	6	1	noise_calib_stim_LEFT.wav	1	34	blb_dichoticlistening_ta-ka.mp3	ta	ka	1	right
6.6.1	win	2023-06-02	06:14:26	06:35:56	1285750	647652cb5644044df439e1fb	1	1	main_slash	24	main_slash	7	stimuli_target_trianglerectangles.svg	stimuli_distractor_diamondtriangles.svg	21	yes	0	0	2000	6	1	antiphase_hc_iso.wav	2	6	1	noise_calib_stim_LEFT.wav	1	34	blb_dichoticlistening_ta-ka.mp3	ta	ka	1	right
6.6.1	win	2023-06-02	06:14:26	06:35:56	1285750	647652cb5644044df439e1fb	1	1	main_slash	24	advance_on_keypress_SLASH	8	stimuli_target_trianglerectangles.svg	stimuli_distractor_diamondtriangles.svg	21	yes	57	0	623	6	1	antiphase_hc_iso.wav	2	6	1	noise_calib_stim_LEFT.wav	1	34	blb_dichoticlistening_ta-ka.mp3	ta	ka	1	right
6.6.1	win	2023-06-02	06:14:26	06:35:58	1288010	647652cb5644044df439e1fb	1	1	main_slash	24	main_slash	9	stimuli_target_trianglerectangles.svg	stimuli_distractor_trianglediamonds.svg	17	yes	53	1	985	6	1	antiphase_hc_iso.wav	2	6	1	noise_calib_stim_LEFT.wav	1	34	blb_dichoticlistening_ta-ka.mp3	ta	ka	1	right
6.6.1	win	2023-06-02	06:14:26	06:35:58	1288010	647652cb5644044df439e1fb	1	1	main_slash	24	advance_on_keypress_SLASH	10	stimuli_target_trianglerectangles.svg	stimuli_distractor_trianglediamonds.svg	17	yes	57	0	916	6	1	antiphase_hc_iso.wav	2	6	1	noise_calib_stim_LEFT.wav	1	34	blb_dichoticlistening_ta-ka.mp3	ta	ka	1	right
6.6.1	win	2023-06-02	06:14:26	06:36:00	1290260	647652cb5644044df439e1fb	1	1	main_slash	24	main_slash	11	stimuli_distractor_diamondtriangles.svg	stimuli_target_trianglesquares.svg	30	yes	53	1	681	6	1	antiphase_hc_iso.wav	2	6	1	noise_calib_stim_LEFT.wav	1	34	blb_dichoticlistening_ta-ka.mp3	ta	ka	1	right
6.6.1	win	2023-06-02	06:14:26	06:36:00	1290260	647652cb5644044df439e1fb	1	1	main_slash	24	advance_on_keypress_SLASH	12	stimuli_distractor_diamondtriangles.svg	stimuli_target_trianglesquares.svg	30	yes	57	0	790	6	1	antiphase_hc_iso.wav	2	6	1	noise_calib_stim_LEFT.wav	1	34	blb_dichoticlistening_ta-ka.mp3	ta	ka	1	right
6.6.1	win	2023-06-02	06:14:26	06:36:02	1292475	647652cb5644044df439e1fb	1	1	main_slash	24	main_slash	13	stimuli_distractor_diamondtriangles.svg	stimuli_target_diamondsquares.svg	32	yes	53	1	772	6	1	antiphase_hc_iso.wav	2	6	1	noise_calib_stim_LEFT.wav	1	34	blb_dichoticlistening_ta-ka.mp3	ta	ka	1	right
6.6.1	win	2023-06-02	06:14:26	06:36:02	1292475	647652cb5644044df439e1fb	1	1	main_slash	24	advance_on_keypress_SLASH	14	stimuli_distractor_diamondtriangles.svg	stimuli_target_diamondsquares.svg	32	yes	57	0	656	6	1	antiphase_hc_iso.wav	2	6	1	noise_calib_stim_LEFT.wav	1	34	blb_dichoticlistening_ta-ka.mp3	ta	ka	1	right
6.6.1	win	2023-06-02	06:14:26	06:36:04	1294448	647652cb5644044df439e1fb	1	1	main_slash	24	main_slash	15	stimuli_distractor_diamondtriangles.svg	stimuli_target_rectanglediamonds.svg	14	yes	53	1	665	6	1	antiphase_hc_iso.wav	2	6	1	noise_calib_stim_LEFT.wav	1	34	blb_dichoticlistening_ta-ka.mp3	ta	ka	1	right
6.6.1	win	2023-06-02	06:14:26	06:36:04	1294448	647652cb5644044df439e1fb	1	1	main_slash	24	advance_on_keypress_SLASH	16	stimuli_distractor_diamondtriangles.svg	stimuli_target_rectanglediamonds.svg	14	yes	57	0	559	6	1	antiphase_hc_iso.wav	2	6	1	noise_calib_stim_LEFT.wav	1	34	blb_dichoticlistening_ta-ka.mp3	ta	ka	1	right
6.6.1	win	2023-06-02	06:14:26	06:36:06	1296254	647652cb5644044df439e1fb	1	1	main_slash	24	main_slash	17	stimuli_distractor_diamondtriangles.svg	stimuli_target_squarediamonds.svg	16	yes	53	1	593	6	1	antiphase_hc_iso.wav	2	6	1	noise_calib_stim_LEFT.wav	1	34	blb_dichoticlistening_ta-ka.mp3	ta	ka	1	right
6.6.1	win	2023-06-02	06:14:26	06:36:06	1296254	647652cb5644044df439e1fb	1	1	main_slash	24	advance_on_keypress_SLASH	18	stimuli_distractor_diamondtriangles.svg	stimuli_target_squarediamonds.svg	16	yes	57	0	547	6	1	antiphase_hc_iso.wav	2	6	1	noise_calib_stim_LEFT.wav	1	34	blb_dichoticlistening_ta-ka.mp3	ta	ka	1	right
6.6.1	win	2023-06-02	06:14:26	06:36:08	1298102	647652cb5644044df439e1fb	1	1	main_slash	24	main_slash	19	stimuli_target_rectanglediamonds.svg	stimuli_distractor_diamondtriangles.svg	6	yes	53	1	661	6	1	antiphase_hc_iso.wav	2	6	1	noise_calib_stim_LEFT.wav	1	34	blb_dichoticlistening_ta-ka.mp3	ta	ka	1	right
6.6.1	win	2023-06-02	06:14:26	06:36:08	1298102	647652cb5644044df439e1fb	1	1	main_slash	24	advance_on_keypress_SLASH	20	stimuli_target_rectanglediamonds.svg	stimuli_distractor_diamondtriangles.svg	6	yes	57	0	523	6	1	antiphase_hc_iso.wav	2	6	1	noise_calib_stim_LEFT.wav	1	34	blb_dichoticlistening_ta-ka.mp3	ta	ka	1	right
6.6.1	win	2023-06-02	06:14:26	06:36:10	1299883	647652cb5644044df439e1fb	1	1	main_slash	24	main_slash	21	stimuli_target_squarediamonds.svg	stimuli_distractor_trianglediamonds.svg	4	yes	53	1	617	6	1	antiphase_hc_iso.wav	2	6	1	noise_calib_stim_LEFT.wav	1	34	blb_dichoticlistening_ta-ka.mp3	ta	ka	1	right
6.6.1	win	2023-06-02	06:14:26	06:36:10	1299883	647652cb5644044df439e1fb	1	1	main_slash	24	advance_on_keypress_SLASH	22	stimuli_target_squarediamonds.svg	stimuli_distractor_trianglediamonds.svg	4	yes	57	0	464	6	1	antiphase_hc_iso.wav	2	6	1	noise_calib_stim_LEFT.wav	1	34	blb_dichoticlistening_ta-ka.mp3	ta	ka	1	right
6.6.1	win	2023-06-02	06:14:26	06:36:12	1301960	647652cb5644044df439e1fb	1	1	main_slash	24	main_slash	23	stimuli_distractor_diamondtriangles.svg	stimuli_target_diamondrectangles.svg	31	yes	53	1	943	6	1	antiphase_hc_iso.wav	2	6	1	noise_calib_stim_LEFT.wav	1	34	blb_dichoticlistening_ta-ka.mp3	ta	ka	1	right
6.6.1	win	2023-06-02	06:14:26	06:36:12	1301960	647652cb5644044df439e1fb	1	1	main_slash	24	advance_on_keypress_SLASH	24	stimuli_distractor_diamondtriangles.svg	stimuli_target_diamondrectangles.svg	31	yes	57	0	365	6	1	antiphase_hc_iso.wav	2	6	1	noise_calib_stim_LEFT.wav	1	34	blb_dichoticlistening_ta-ka.mp3	ta	ka	1	right
6.6.1	win	2023-06-02	06:14:26	06:36:15	1304976	647652cb5644044df439e1fb	1	1	main_slash	24	main_slash	25	stimuli_distractor_trianglediamonds.svg	stimuli_target_rectanglediamonds.svg	10	yes	0	0	2000	6	1	antiphase_hc_iso.wav	2	6	1	noise_calib_stim_LEFT.wav	1	34	blb_dichoticlistening_ta-ka.mp3	ta	ka	1	right
6.6.1	win	2023-06-02	06:14:26	06:36:15	1304976	647652cb5644044df439e1fb	1	1	main_slash	24	advance_on_keypress_SLASH	26	stimuli_distractor_trianglediamonds.svg	stimuli_target_rectanglediamonds.svg	10	yes	57	0	683	6	1	antiphase_hc_iso.wav	2	6	1	noise_calib_stim_LEFT.wav	1	34	blb_dichoticlistening_ta-ka.mp3	ta	ka	1	right
6.6.1	win	2023-06-02	06:14:26	06:36:17	1306908	647652cb5644044df439e1fb	1	1	main_slash	24	main_slash	27	stimuli_distractor_trianglediamonds.svg	stimuli_target_squarediamonds.svg	12	yes	53	1	597	6	1	antiphase_hc_iso.wav	2	6	1	noise_calib_stim_LEFT.wav	1	34	blb_dichoticlistening_ta-ka.mp3	ta	ka	1	right
6.6.1	win	2023-06-02	06:14:26	06:36:17	1306908	647652cb5644044df439e1fb	1	1	main_slash	24	advance_on_keypress_SLASH	28	stimuli_distractor_trianglediamonds.svg	stimuli_target_squarediamonds.svg	12	yes	57	0	514	6	1	antiphase_hc_iso.wav	2	6	1	noise_calib_stim_LEFT.wav	1	34	blb_dichoticlistening_ta-ka.mp3	ta	ka	1	right
6.6.1	win	2023-06-02	06:14:26	06:36:19	1309353	647652cb5644044df439e1fb	1	1	main_slash	24	main_slash	29	stimuli_target_diamondrectangles.svg	stimuli_distractor_diamondtriangles.svg	23	yes	53	1	1277	6	1	antiphase_hc_iso.wav	2	6	1	noise_calib_stim_LEFT.wav	1	34	blb_dichoticlistening_ta-ka.mp3	ta	ka	1	right
6.6.1	win	2023-06-02	06:14:26	06:36:19	1309353	647652cb5644044df439e1fb	1	1	main_slash	24	advance_on_keypress_SLASH	30	stimuli_target_diamondrectangles.svg	stimuli_distractor_diamondtriangles.svg	23	yes	57	0	476	6	1	antiphase_hc_iso.wav	2	6	1	noise_calib_stim_LEFT.wav	1	34	blb_dichoticlistening_ta-ka.mp3	ta	ka	1	right
6.6.1	win	2023-06-02	06:14:26	06:36:22	1311908	647652cb5644044df439e1fb	1	1	main_slash	24	main_slash	31	stimuli_distractor_diamondtriangles.svg	stimuli_target_squaretriangles.svg	15	yes	53	1	1426	6	1	antiphase_hc_iso.wav	2	6	1	noise_calib_stim_LEFT.wav	1	34	blb_dichoticlistening_ta-ka.mp3	ta	ka	1	right
6.6.1	win	2023-06-02	06:14:26	06:36:22	1311908	647652cb5644044df439e1fb	1	1	main_slash	24	advance_on_keypress_SLASH	32	stimuli_distractor_diamondtriangles.svg	stimuli_target_squaretriangles.svg	15	yes	57	0	1685	6	1	antiphase_hc_iso.wav	2	6	1	noise_calib_stim_LEFT.wav	1	34	blb_dichoticlistening_ta-ka.mp3	ta	ka	1	right
6.6.1	win	2023-06-02	06:14:26	06:36:25	1314955	647652cb5644044df439e1fb	1	1	main_slash	24	main_slash	33	stimuli_target_squaretriangles.svg	stimuli_distractor_diamondtriangles.svg	7	yes	53	1	708	6	1	antiphase_hc_iso.wav	2	6	1	noise_calib_stim_LEFT.wav	1	34	blb_dichoticlistening_ta-ka.mp3	ta	ka	1	right
6.6.1	win	2023-06-02	06:14:26	06:36:25	1314955	647652cb5644044df439e1fb	1	1	main_slash	24	advance_on_keypress_SLASH	34	stimuli_target_squaretriangles.svg	stimuli_distractor_diamondtriangles.svg	7	yes	57	0	457	6	1	antiphase_hc_iso.wav	2	6	1	noise_calib_stim_LEFT.wav	1	34	blb_dichoticlistening_ta-ka.mp3	ta	ka	1	right
6.6.1	win	2023-06-02	06:14:26	06:36:27	1317138	647652cb5644044df439e1fb	1	1	main_slash	24	main_slash	35	stimuli_distractor_trianglediamonds.svg	stimuli_target_trianglerectangles.svg	25	yes	53	1	1073	6	1	antiphase_hc_iso.wav	2	6	1	noise_calib_stim_LEFT.wav	1	34	blb_dichoticlistening_ta-ka.mp3	ta	ka	1	right
6.6.1	win	2023-06-02	06:14:26	06:36:27	1317138	647652cb5644044df439e1fb	1	1	main_slash	24	advance_on_keypress_SLASH	36	stimuli_distractor_trianglediamonds.svg	stimuli_target_trianglerectangles.svg	25	yes	57	0	1612	6	1	antiphase_hc_iso.wav	2	6	1	noise_calib_stim_LEFT.wav	1	34	blb_dichoticlistening_ta-ka.mp3	ta	ka	1	right
6.6.1	win	2023-06-02	06:14:26	06:36:30	1320456	647652cb5644044df439e1fb	1	1	main_slash	24	main_slash	37	stimuli_distractor_trianglediamonds.svg	stimuli_target_diamondsquares.svg	28	yes	53	1	1054	6	1	antiphase_hc_iso.wav	2	6	1	noise_calib_stim_LEFT.wav	1	34	blb_dichoticlistening_ta-ka.mp3	ta	ka	1	right
6.6.1	win	2023-06-02	06:14:26	06:36:30	1320456	647652cb5644044df439e1fb	1	1	main_slash	24	advance_on_keypress_SLASH	38	stimuli_distractor_trianglediamonds.svg	stimuli_target_diamondsquares.svg	28	yes	57	0	844	6	1	antiphase_hc_iso.wav	2	6	1	noise_calib_stim_LEFT.wav	1	34	blb_dichoticlistening_ta-ka.mp3	ta	ka	1	right
6.6.1	win	2023-06-02	06:14:26	06:36:34	1323952	647652cb5644044df439e1fb	1	1	main_slash	24	main_slash	39	stimuli_distractor_diamondtriangles.svg	stimuli_distractor_diamondtriangles.svg	40	no	0	1	2000	6	1	antiphase_hc_iso.wav	2	6	1	noise_calib_stim_LEFT.wav	1	34	blb_dichoticlistening_ta-ka.mp3	ta	ka	1	right
6.6.1	win	2023-06-02	06:14:26	06:36:34	1323952	647652cb5644044df439e1fb	1	1	main_slash	24	advance_on_keypress_SLASH	40	stimuli_distractor_diamondtriangles.svg	stimuli_distractor_diamondtriangles.svg	40	no	57	0	874	6	1	antiphase_hc_iso.wav	2	6	1	noise_calib_stim_LEFT.wav	1	34	blb_dichoticlistening_ta-ka.mp3	ta	ka	1	right
6.6.1	win	2023-06-02	06:14:26	06:36:36	1326522	647652cb5644044df439e1fb	1	1	main_slash	24	main_slash	41	stimuli_distractor_trianglediamonds.svg	stimuli_target_diamondrectangles.svg	27	yes	53	1	1034	6	1	antiphase_hc_iso.wav	2	6	1	noise_calib_stim_LEFT.wav	1	34	blb_dichoticlistening_ta-ka.mp3	ta	ka	1	right
6.6.1	win	2023-06-02	06:14:26	06:36:36	1326522	647652cb5644044df439e1fb	1	1	main_slash	24	advance_on_keypress_SLASH	42	stimuli_distractor_trianglediamonds.svg	stimuli_target_diamondrectangles.svg	27	yes	57	0	956	6	1	antiphase_hc_iso.wav	2	6	1	noise_calib_stim_LEFT.wav	1	34	blb_dichoticlistening_ta-ka.mp3	ta	ka	1	right
6.6.1	win	2023-06-02	06:14:26	06:36:39	1329161	647652cb5644044df439e1fb	1	1	main_slash	24	main_slash	43	stimuli_target_diamondrectangles.svg	stimuli_distractor_trianglediamonds.svg	19	yes	53	1	1030	6	1	antiphase_hc_iso.wav	2	6	1	noise_calib_stim_LEFT.wav	1	34	blb_dichoticlistening_ta-ka.mp3	ta	ka	1	right
6.6.1	win	2023-06-02	06:14:26	06:36:39	1329161	647652cb5644044df439e1fb	1	1	main_slash	24	advance_on_keypress_SLASH	44	stimuli_target_diamondrectangles.svg	stimuli_distractor_trianglediamonds.svg	19	yes	57	0	753	6	1	antiphase_hc_iso.wav	2	6	1	noise_calib_stim_LEFT.wav	1	34	blb_dichoticlistening_ta-ka.mp3	ta	ka	1	right
6.6.1	win	2023-06-02	06:14:26	06:36:41	1331586	647652cb5644044df439e1fb	1	1	main_slash	24	main_slash	45	stimuli_target_trianglesquares.svg	stimuli_distractor_diamondtriangles.svg	22	yes	53	1	1018	6	1	antiphase_hc_iso.wav	2	6	1	noise_calib_stim_LEFT.wav	1	34	blb_dichoticlistening_ta-ka.mp3	ta	ka	1	right
6.6.1	win	2023-06-02	06:14:26	06:36:41	1331586	647652cb5644044df439e1fb	1	1	main_slash	24	advance_on_keypress_SLASH	46	stimuli_target_trianglesquares.svg	stimuli_distractor_diamondtriangles.svg	22	yes	57	0	546	6	1	antiphase_hc_iso.wav	2	6	1	noise_calib_stim_LEFT.wav	1	34	blb_dichoticlistening_ta-ka.mp3	ta	ka	1	right
6.6.1	win	2023-06-02	06:14:26	06:36:45	1334783	647652cb5644044df439e1fb	1	1	main_slash	24	main_slash	47	stimuli_distractor_diamondtriangles.svg	stimuli_target_rectangletriangles.svg	13	yes	0	0	2000	6	1	antiphase_hc_iso.wav	2	6	1	noise_calib_stim_LEFT.wav	1	34	blb_dichoticlistening_ta-ka.mp3	ta	ka	1	right
6.6.1	win	2023-06-02	06:14:26	06:36:45	1334783	647652cb5644044df439e1fb	1	1	main_slash	24	advance_on_keypress_SLASH	48	stimuli_distractor_diamondtriangles.svg	stimuli_target_rectangletriangles.svg	13	yes	57	0	1847	6	1	antiphase_hc_iso.wav	2	6	1	noise_calib_stim_LEFT.wav	1	34	blb_dichoticlistening_ta-ka.mp3	ta	ka	1	right
6.6.1	win	2023-06-02	06:14:26	06:36:48	1338491	647652cb5644044df439e1fb	1	1	main_slash	24	main_slash	49	stimuli_distractor_trianglediamonds.svg	stimuli_target_trianglesquares.svg	26	yes	53	1	1210	6	1	antiphase_hc_iso.wav	2	6	1	noise_calib_stim_LEFT.wav	1	34	blb_dichoticlistening_ta-ka.mp3	ta	ka	1	right
6.6.1	win	2023-06-02	06:14:26	06:36:48	1338491	647652cb5644044df439e1fb	1	1	main_slash	24	advance_on_keypress_SLASH	50	stimuli_distractor_trianglediamonds.svg	stimuli_target_trianglesquares.svg	26	yes	57	0	747	6	1	antiphase_hc_iso.wav	2	6	1	noise_calib_stim_LEFT.wav	1	34	blb_dichoticlistening_ta-ka.mp3	ta	ka	1	right
6.6.1	win	2023-06-02	06:14:26	06:36:52	1341890	647652cb5644044df439e1fb	1	1	main_slash	24	main_slash	51	stimuli_distractor_trianglediamonds.svg	stimuli_distractor_diamondtriangles.svg	35	no	0	1	2000	6	1	antiphase_hc_iso.wav	2	6	1	noise_calib_stim_LEFT.wav	1	34	blb_dichoticlistening_ta-ka.mp3	ta	ka	1	right
6.6.1	win	2023-06-02	06:14:26	06:36:52	1341890	647652cb5644044df439e1fb	1	1	main_slash	24	advance_on_keypress_SLASH	52	stimuli_distractor_trianglediamonds.svg	stimuli_distractor_diamondtriangles.svg	35	no	57	0	609	6	1	antiphase_hc_iso.wav	2	6	1	noise_calib_stim_LEFT.wav	1	34	blb_dichoticlistening_ta-ka.mp3	ta	ka	1	right
6.6.1	win	2023-06-02	06:14:26	06:36:54	1343826	647652cb5644044df439e1fb	1	1	main_slash	24	main_slash	53	stimuli_target_rectangletriangles.svg	stimuli_distractor_diamondtriangles.svg	5	yes	53	1	669	6	1	antiphase_hc_iso.wav	2	6	1	noise_calib_stim_LEFT.wav	1	34	blb_dichoticlistening_ta-ka.mp3	ta	ka	1	right
6.6.1	win	2023-06-02	06:14:26	06:36:54	1343826	647652cb5644044df439e1fb	1	1	main_slash	24	advance_on_keypress_SLASH	54	stimuli_target_rectangletriangles.svg	stimuli_distractor_diamondtriangles.svg	5	yes	57	0	564	6	1	antiphase_hc_iso.wav	2	6	1	noise_calib_stim_LEFT.wav	1	34	blb_dichoticlistening_ta-ka.mp3	ta	ka	1	right
6.6.1	win	2023-06-02	06:14:26	06:36:56	1346149	647652cb5644044df439e1fb	1	1	main_slash	24	main_slash	55	stimuli_target_diamondsquares.svg	stimuli_distractor_trianglediamonds.svg	20	yes	53	1	1094	6	1	antiphase_hc_iso.wav	2	6	1	noise_calib_stim_LEFT.wav	1	34	blb_dichoticlistening_ta-ka.mp3	ta	ka	1	right
6.6.1	win	2023-06-02	06:14:26	06:36:56	1346149	647652cb5644044df439e1fb	1	1	main_slash	24	advance_on_keypress_SLASH	56	stimuli_target_diamondsquares.svg	stimuli_distractor_trianglediamonds.svg	20	yes	57	0	568	6	1	antiphase_hc_iso.wav	2	6	1	noise_calib_stim_LEFT.wav	1	34	blb_dichoticlistening_ta-ka.mp3	ta	ka	1	right
6.6.1	win	2023-06-02	06:14:26	06:36:59	1349369	647652cb5644044df439e1fb	1	1	main_slash	24	main_slash	57	stimuli_distractor_diamondtriangles.svg	stimuli_distractor_diamondtriangles.svg	39	no	0	1	2000	6	1	antiphase_hc_iso.wav	2	6	1	noise_calib_stim_LEFT.wav	1	34	blb_dichoticlistening_ta-ka.mp3	ta	ka	1	right
6.6.1	win	2023-06-02	06:14:26	06:36:59	1349369	647652cb5644044df439e1fb	1	1	main_slash	24	advance_on_keypress_SLASH	58	stimuli_distractor_diamondtriangles.svg	stimuli_distractor_diamondtriangles.svg	39	no	57	0	590	6	1	antiphase_hc_iso.wav	2	6	1	noise_calib_stim_LEFT.wav	1	34	blb_dichoticlistening_ta-ka.mp3	ta	ka	1	right
6.6.1	win	2023-06-02	06:14:26	06:37:01	1351593	647652cb5644044df439e1fb	1	1	main_slash	24	main_slash	59	stimuli_distractor_trianglediamonds.svg	stimuli_target_squaretriangles.svg	11	yes	53	1	966	6	1	antiphase_hc_iso.wav	2	6	1	noise_calib_stim_LEFT.wav	1	34	blb_dichoticlistening_ta-ka.mp3	ta	ka	1	right
6.6.1	win	2023-06-02	06:14:26	06:37:01	1351593	647652cb5644044df439e1fb	1	1	main_slash	24	advance_on_keypress_SLASH	60	stimuli_distractor_trianglediamonds.svg	stimuli_target_squaretriangles.svg	11	yes	57	0	554	6	1	antiphase_hc_iso.wav	2	6	1	noise_calib_stim_LEFT.wav	1	34	blb_dichoticlistening_ta-ka.mp3	ta	ka	1	right
6.6.1	win	2023-06-02	06:14:26	06:37:03	1353612	647652cb5644044df439e1fb	1	1	main_slash	24	main_slash	61	stimuli_distractor_trianglediamonds.svg	stimuli_target_rectangletriangles.svg	9	yes	53	1	813	6	1	antiphase_hc_iso.wav	2	6	1	noise_calib_stim_LEFT.wav	1	34	blb_dichoticlistening_ta-ka.mp3	ta	ka	1	right
6.6.1	win	2023-06-02	06:14:26	06:37:03	1353612	647652cb5644044df439e1fb	1	1	main_slash	24	advance_on_keypress_SLASH	62	stimuli_distractor_trianglediamonds.svg	stimuli_target_rectangletriangles.svg	9	yes	57	0	495	6	1	antiphase_hc_iso.wav	2	6	1	noise_calib_stim_LEFT.wav	1	34	blb_dichoticlistening_ta-ka.mp3	ta	ka	1	right
6.6.1	win	2023-06-02	06:14:26	06:37:07	1356759	647652cb5644044df439e1fb	1	1	main_slash	24	main_slash	63	stimuli_distractor_trianglediamonds.svg	stimuli_distractor_trianglediamonds.svg	34	no	0	1	2000	6	1	antiphase_hc_iso.wav	2	6	1	noise_calib_stim_LEFT.wav	1	34	blb_dichoticlistening_ta-ka.mp3	ta	ka	1	right
6.6.1	win	2023-06-02	06:14:26	06:37:07	1356759	647652cb5644044df439e1fb	1	1	main_slash	24	advance_on_keypress_SLASH	64	stimuli_distractor_trianglediamonds.svg	stimuli_distractor_trianglediamonds.svg	34	no	57	0	397	6	1	antiphase_hc_iso.wav	2	6	1	noise_calib_stim_LEFT.wav	1	34	blb_dichoticlistening_ta-ka.mp3	ta	ka	1	right
6.6.1	win	2023-06-02	06:14:26	06:37:10	1359800	647652cb5644044df439e1fb	1	1	main_slash	24	main_slash	65	stimuli_distractor_trianglediamonds.svg	stimuli_distractor_trianglediamonds.svg	33	no	0	1	2000	6	1	antiphase_hc_iso.wav	2	6	1	noise_calib_stim_LEFT.wav	1	34	blb_dichoticlistening_ta-ka.mp3	ta	ka	1	right
6.6.1	win	2023-06-02	06:14:26	06:37:10	1359800	647652cb5644044df439e1fb	1	1	main_slash	24	advance_on_keypress_SLASH	66	stimuli_distractor_trianglediamonds.svg	stimuli_distractor_trianglediamonds.svg	33	no	57	0	597	6	1	antiphase_hc_iso.wav	2	6	1	noise_calib_stim_LEFT.wav	1	34	blb_dichoticlistening_ta-ka.mp3	ta	ka	1	right
6.6.1	win	2023-06-02	06:14:26	06:37:12	1362534	647652cb5644044df439e1fb	1	1	main_slash	24	main_slash	67	stimuli_distractor_diamondtriangles.svg	stimuli_target_trianglerectangles.svg	29	yes	53	1	1482	6	1	antiphase_hc_iso.wav	2	6	1	noise_calib_stim_LEFT.wav	1	34	blb_dichoticlistening_ta-ka.mp3	ta	ka	1	right
6.6.1	win	2023-06-02	06:14:26	06:37:12	1362534	647652cb5644044df439e1fb	1	1	main_slash	24	advance_on_keypress_SLASH	68	stimuli_distractor_diamondtriangles.svg	stimuli_target_trianglerectangles.svg	29	yes	57	0	482	6	1	antiphase_hc_iso.wav	2	6	1	noise_calib_stim_LEFT.wav	1	34	blb_dichoticlistening_ta-ka.mp3	ta	ka	1	right
6.6.1	win	2023-06-02	06:14:26	06:37:15	1365669	647652cb5644044df439e1fb	1	1	main_slash	24	main_slash	69	stimuli_distractor_trianglediamonds.svg	stimuli_distractor_diamondtriangles.svg	36	no	0	1	2000	6	1	antiphase_hc_iso.wav	2	6	1	noise_calib_stim_LEFT.wav	1	34	blb_dichoticlistening_ta-ka.mp3	ta	ka	1	right
6.6.1	win	2023-06-02	06:14:26	06:37:15	1365669	647652cb5644044df439e1fb	1	1	main_slash	24	advance_on_keypress_SLASH	70	stimuli_distractor_trianglediamonds.svg	stimuli_distractor_diamondtriangles.svg	36	no	57	0	459	6	1	antiphase_hc_iso.wav	2	6	1	noise_calib_stim_LEFT.wav	1	34	blb_dichoticlistening_ta-ka.mp3	ta	ka	1	right
6.6.1	win	2023-06-02	06:14:26	06:37:18	1368344	647652cb5644044df439e1fb	1	1	main_slash	24	main_slash	71	stimuli_target_trianglesquares.svg	stimuli_distractor_trianglediamonds.svg	18	yes	53	1	1565	6	1	antiphase_hc_iso.wav	2	6	1	noise_calib_stim_LEFT.wav	1	34	blb_dichoticlistening_ta-ka.mp3	ta	ka	1	right
6.6.1	win	2023-06-02	06:14:26	06:37:18	1368344	647652cb5644044df439e1fb	1	1	main_slash	24	advance_on_keypress_SLASH	72	stimuli_target_trianglesquares.svg	stimuli_distractor_trianglediamonds.svg	18	yes	57	0	610	6	1	antiphase_hc_iso.wav	2	6	1	noise_calib_stim_LEFT.wav	1	34	blb_dichoticlistening_ta-ka.mp3	ta	ka	1	right
6.6.1	win	2023-06-02	06:14:26	06:37:20	1370603	647652cb5644044df439e1fb	1	1	main_slash	24	main_slash	73	stimuli_target_rectanglediamonds.svg	stimuli_distractor_trianglediamonds.svg	2	yes	53	1	996	6	1	antiphase_hc_iso.wav	2	6	1	noise_calib_stim_LEFT.wav	1	34	blb_dichoticlistening_ta-ka.mp3	ta	ka	1	right
6.6.1	win	2023-06-02	06:14:26	06:37:20	1370603	647652cb5644044df439e1fb	1	1	main_slash	24	advance_on_keypress_SLASH	74	stimuli_target_rectanglediamonds.svg	stimuli_distractor_trianglediamonds.svg	2	yes	57	0	784	6	1	antiphase_hc_iso.wav	2	6	1	noise_calib_stim_LEFT.wav	1	34	blb_dichoticlistening_ta-ka.mp3	ta	ka	1	right
6.6.1	win	2023-06-02	06:14:26	06:37:23	1372916	647652cb5644044df439e1fb	1	1	main_slash	24	main_slash	75	stimuli_target_rectangletriangles.svg	stimuli_distractor_trianglediamonds.svg	1	yes	53	1	878	6	1	antiphase_hc_iso.wav	2	6	1	noise_calib_stim_LEFT.wav	1	34	blb_dichoticlistening_ta-ka.mp3	ta	ka	1	right
6.6.1	win	2023-06-02	06:14:26	06:37:23	1372916	647652cb5644044df439e1fb	1	1	main_slash	24	advance_on_keypress_SLASH	76	stimuli_target_rectangletriangles.svg	stimuli_distractor_trianglediamonds.svg	1	yes	57	0	379	6	1	antiphase_hc_iso.wav	2	6	1	noise_calib_stim_LEFT.wav	1	34	blb_dichoticlistening_ta-ka.mp3	ta	ka	1	right
6.6.1	win	2023-06-02	06:14:26	06:37:26	1375901	647652cb5644044df439e1fb	1	1	main_slash	24	main_slash	77	stimuli_distractor_diamondtriangles.svg	stimuli_distractor_trianglediamonds.svg	38	no	53	0	1951	6	1	antiphase_hc_iso.wav	2	6	1	noise_calib_stim_LEFT.wav	1	34	blb_dichoticlistening_ta-ka.mp3	ta	ka	1	right
6.6.1	win	2023-06-02	06:14:26	06:37:26	1375901	647652cb5644044df439e1fb	1	1	main_slash	24	advance_on_keypress_SLASH	78	stimuli_distractor_diamondtriangles.svg	stimuli_distractor_trianglediamonds.svg	38	no	57	0	1258	6	1	antiphase_hc_iso.wav	2	6	1	noise_calib_stim_LEFT.wav	1	34	blb_dichoticlistening_ta-ka.mp3	ta	ka	1	right
6.6.1	win	2023-06-02	06:14:26	06:37:28	1378669	647652cb5644044df439e1fb	1	1	main_slash	24	main_slash	79	stimuli_target_squarediamonds.svg	stimuli_distractor_diamondtriangles.svg	8	yes	53	1	868	6	1	antiphase_hc_iso.wav	2	6	1	noise_calib_stim_LEFT.wav	1	34	blb_dichoticlistening_ta-ka.mp3	ta	ka	1	right
6.6.1	win	2023-06-02	06:14:26	06:37:28	1378669	647652cb5644044df439e1fb	1	1	main_slash	24	advance_on_keypress_SLASH	80	stimuli_target_squarediamonds.svg	stimuli_distractor_diamondtriangles.svg	8	yes	57	0	325	6	1	antiphase_hc_iso.wav	2	6	1	noise_calib_stim_LEFT.wav	1	34	blb_dichoticlistening_ta-ka.mp3	ta	ka	1	right
6.6.1	win	2023-06-02	06:14:26	06:37:30	1380606	647652cb5644044df439e1fb	1	1	main_slash	24	main_slash	81	stimuli_distractor_trianglediamonds.svg	stimuli_target_squaretriangles.svg	11	yes	53	1	959	6	1	antiphase_hc_iso.wav	2	6	1	noise_calib_stim_LEFT.wav	1	34	blb_dichoticlistening_ta-ka.mp3	ta	ka	1	right
6.6.1	win	2023-06-02	06:14:26	06:37:30	1380606	647652cb5644044df439e1fb	1	1	main_slash	24	advance_on_keypress_SLASH	82	stimuli_distractor_trianglediamonds.svg	stimuli_target_squaretriangles.svg	11	yes	57	0	1020	6	1	antiphase_hc_iso.wav	2	6	1	noise_calib_stim_LEFT.wav	1	34	blb_dichoticlistening_ta-ka.mp3	ta	ka	1	right
6.6.1	win	2023-06-02	06:14:26	06:37:34	1384278	647652cb5644044df439e1fb	1	1	main_slash	24	main_slash	83	stimuli_distractor_diamondtriangles.svg	stimuli_distractor_trianglediamonds.svg	37	no	0	1	2000	6	1	antiphase_hc_iso.wav	2	6	1	noise_calib_stim_LEFT.wav	1	34	blb_dichoticlistening_ta-ka.mp3	ta	ka	1	right
6.6.1	win	2023-06-02	06:14:26	06:37:34	1384278	647652cb5644044df439e1fb	1	1	main_slash	24	advance_on_keypress_SLASH	84	stimuli_distractor_diamondtriangles.svg	stimuli_distractor_trianglediamonds.svg	37	no	57	0	527	6	1	antiphase_hc_iso.wav	2	6	1	noise_calib_stim_LEFT.wav	1	34	blb_dichoticlistening_ta-ka.mp3	ta	ka	1	right
6.6.1	win	2023-06-02	06:14:26	06:37:37	1387468	647652cb5644044df439e1fb	1	1	main_slash	24	main_slash	85	stimuli_distractor_trianglediamonds.svg	stimuli_distractor_diamondtriangles.svg	35	no	0	1	2000	6	1	antiphase_hc_iso.wav	2	6	1	noise_calib_stim_LEFT.wav	1	34	blb_dichoticlistening_ta-ka.mp3	ta	ka	1	right
6.6.1	win	2023-06-02	06:14:26	06:37:37	1387468	647652cb5644044df439e1fb	1	1	main_slash	24	advance_on_keypress_SLASH	86	stimuli_distractor_trianglediamonds.svg	stimuli_distractor_diamondtriangles.svg	35	no	57	0	983	6	1	antiphase_hc_iso.wav	2	6	1	noise_calib_stim_LEFT.wav	1	34	blb_dichoticlistening_ta-ka.mp3	ta	ka	1	right
6.6.1	win	2023-06-02	06:14:26	06:37:40	1389779	647652cb5644044df439e1fb	1	1	main_slash	24	main_slash	87	stimuli_target_trianglesquares.svg	stimuli_distractor_diamondtriangles.svg	22	yes	53	1	677	6	1	antiphase_hc_iso.wav	2	6	1	noise_calib_stim_LEFT.wav	1	34	blb_dichoticlistening_ta-ka.mp3	ta	ka	1	right
6.6.1	win	2023-06-02	06:14:26	06:37:40	1389779	647652cb5644044df439e1fb	1	1	main_slash	24	advance_on_keypress_SLASH	88	stimuli_target_trianglesquares.svg	stimuli_distractor_diamondtriangles.svg	22	yes	57	0	880	6	1	antiphase_hc_iso.wav	2	6	1	noise_calib_stim_LEFT.wav	1	34	blb_dichoticlistening_ta-ka.mp3	ta	ka	1	right
6.6.1	win	2023-06-02	06:14:26	06:37:42	1392208	647652cb5644044df439e1fb	1	1	main_slash	24	main_slash	89	stimuli_distractor_trianglediamonds.svg	stimuli_target_trianglesquares.svg	26	yes	53	1	892	6	1	antiphase_hc_iso.wav	2	6	1	noise_calib_stim_LEFT.wav	1	34	blb_dichoticlistening_ta-ka.mp3	ta	ka	1	right
6.6.1	win	2023-06-02	06:14:26	06:37:42	1392208	647652cb5644044df439e1fb	1	1	main_slash	24	advance_on_keypress_SLASH	90	stimuli_distractor_trianglediamonds.svg	stimuli_target_trianglesquares.svg	26	yes	57	0	7930	6	1	antiphase_hc_iso.wav	2	6	1	noise_calib_stim_LEFT.wav	1	34	blb_dichoticlistening_ta-ka.mp3	ta	ka	1	right
6.6.1	win	2023-06-02	06:14:26	06:37:53	1402790	647652cb5644044df439e1fb	1	1	main_slash	24	main_slash	91	stimuli_distractor_diamondtriangles.svg	stimuli_target_diamondrectangles.svg	31	yes	0	0	2000	6	1	antiphase_hc_iso.wav	2	6	1	noise_calib_stim_LEFT.wav	1	34	blb_dichoticlistening_ta-ka.mp3	ta	ka	1	right
6.6.1	win	2023-06-02	06:14:26	06:37:53	1402790	647652cb5644044df439e1fb	1	1	main_slash	24	advance_on_keypress_SLASH	92	stimuli_distractor_diamondtriangles.svg	stimuli_target_diamondrectangles.svg	31	yes	57	0	487	6	1	antiphase_hc_iso.wav	2	6	1	noise_calib_stim_LEFT.wav	1	34	blb_dichoticlistening_ta-ka.mp3	ta	ka	1	right
6.6.1	win	2023-06-02	06:14:26	06:37:54	1404671	647652cb5644044df439e1fb	1	1	main_slash	24	main_slash	93	stimuli_target_rectanglediamonds.svg	stimuli_distractor_trianglediamonds.svg	2	yes	53	1	739	6	1	antiphase_hc_iso.wav	2	6	1	noise_calib_stim_LEFT.wav	1	34	blb_dichoticlistening_ta-ka.mp3	ta	ka	1	right
6.6.1	win	2023-06-02	06:14:26	06:37:54	1404671	647652cb5644044df439e1fb	1	1	main_slash	24	advance_on_keypress_SLASH	94	stimuli_target_rectanglediamonds.svg	stimuli_distractor_trianglediamonds.svg	2	yes	57	0	591	6	1	antiphase_hc_iso.wav	2	6	1	noise_calib_stim_LEFT.wav	1	34	blb_dichoticlistening_ta-ka.mp3	ta	ka	1	right
6.6.1	win	2023-06-02	06:14:26	06:37:56	1406673	647652cb5644044df439e1fb	1	1	main_slash	24	main_slash	95	stimuli_target_squaretriangles.svg	stimuli_distractor_trianglediamonds.svg	3	yes	53	1	759	6	1	antiphase_hc_iso.wav	2	6	1	noise_calib_stim_LEFT.wav	1	34	blb_dichoticlistening_ta-ka.mp3	ta	ka	1	right
6.6.1	win	2023-06-02	06:14:26	06:37:56	1406673	647652cb5644044df439e1fb	1	1	main_slash	24	advance_on_keypress_SLASH	96	stimuli_target_squaretriangles.svg	stimuli_distractor_trianglediamonds.svg	3	yes	57	0	425	6	1	antiphase_hc_iso.wav	2	6	1	noise_calib_stim_LEFT.wav	1	34	blb_dichoticlistening_ta-ka.mp3	ta	ka	1	right
6.6.1	win	2023-06-02	06:14:26	06:37:58	1408626	647652cb5644044df439e1fb	1	1	main_slash	24	main_slash	97	stimuli_distractor_trianglediamonds.svg	stimuli_target_squarediamonds.svg	12	yes	53	1	874	6	1	antiphase_hc_iso.wav	2	6	1	noise_calib_stim_LEFT.wav	1	34	blb_dichoticlistening_ta-ka.mp3	ta	ka	1	right
6.6.1	win	2023-06-02	06:14:26	06:37:58	1408626	647652cb5644044df439e1fb	1	1	main_slash	24	advance_on_keypress_SLASH	98	stimuli_distractor_trianglediamonds.svg	stimuli_target_squarediamonds.svg	12	yes	57	0	412	6	1	antiphase_hc_iso.wav	2	6	1	noise_calib_stim_LEFT.wav	1	34	blb_dichoticlistening_ta-ka.mp3	ta	ka	1	right
6.6.1	win	2023-06-02	06:14:26	06:38:00	1410523	647652cb5644044df439e1fb	1	1	main_slash	24	main_slash	99	stimuli_target_squarediamonds.svg	stimuli_distractor_trianglediamonds.svg	4	yes	53	1	833	6	1	antiphase_hc_iso.wav	2	6	1	noise_calib_stim_LEFT.wav	1	34	blb_dichoticlistening_ta-ka.mp3	ta	ka	1	right
6.6.1	win	2023-06-02	06:14:26	06:38:00	1410523	647652cb5644044df439e1fb	1	1	main_slash	24	advance_on_keypress_SLASH	100	stimuli_target_squarediamonds.svg	stimuli_distractor_trianglediamonds.svg	4	yes	57	0	327	6	1	antiphase_hc_iso.wav	2	6	1	noise_calib_stim_LEFT.wav	1	34	blb_dichoticlistening_ta-ka.mp3	ta	ka	1	right
6.6.1	win	2023-06-02	06:14:26	06:38:02	1412347	647652cb5644044df439e1fb	1	1	main_slash	24	main_slash	101	stimuli_distractor_trianglediamonds.svg	stimuli_target_rectangletriangles.svg	9	yes	53	1	845	6	1	antiphase_hc_iso.wav	2	6	1	noise_calib_stim_LEFT.wav	1	34	blb_dichoticlistening_ta-ka.mp3	ta	ka	1	right
6.6.1	win	2023-06-02	06:14:26	06:38:02	1412347	647652cb5644044df439e1fb	1	1	main_slash	24	advance_on_keypress_SLASH	102	stimuli_distractor_trianglediamonds.svg	stimuli_target_rectangletriangles.svg	9	yes	57	0	372	6	1	antiphase_hc_iso.wav	2	6	1	noise_calib_stim_LEFT.wav	1	34	blb_dichoticlistening_ta-ka.mp3	ta	ka	1	right
6.6.1	win	2023-06-02	06:14:26	06:38:04	1414179	647652cb5644044df439e1fb	1	1	main_slash	24	main_slash	103	stimuli_target_rectanglediamonds.svg	stimuli_distractor_diamondtriangles.svg	6	yes	53	1	807	6	1	antiphase_hc_iso.wav	2	6	1	noise_calib_stim_LEFT.wav	1	34	blb_dichoticlistening_ta-ka.mp3	ta	ka	1	right
6.6.1	win	2023-06-02	06:14:26	06:38:04	1414179	647652cb5644044df439e1fb	1	1	main_slash	24	advance_on_keypress_SLASH	104	stimuli_target_rectanglediamonds.svg	stimuli_distractor_diamondtriangles.svg	6	yes	57	0	382	6	1	antiphase_hc_iso.wav	2	6	1	noise_calib_stim_LEFT.wav	1	34	blb_dichoticlistening_ta-ka.mp3	ta	ka	1	right
6.6.1	win	2023-06-02	06:14:26	06:38:07	1417213	647652cb5644044df439e1fb	1	1	main_slash	24	main_slash	105	stimuli_distractor_diamondtriangles.svg	stimuli_distractor_diamondtriangles.svg	40	no	0	1	2000	6	1	antiphase_hc_iso.wav	2	6	1	noise_calib_stim_LEFT.wav	1	34	blb_dichoticlistening_ta-ka.mp3	ta	ka	1	right
6.6.1	win	2023-06-02	06:14:26	06:38:07	1417213	647652cb5644044df439e1fb	1	1	main_slash	24	advance_on_keypress_SLASH	106	stimuli_distractor_diamondtriangles.svg	stimuli_distractor_diamondtriangles.svg	40	no	57	0	534	6	1	antiphase_hc_iso.wav	2	6	1	noise_calib_stim_LEFT.wav	1	34	blb_dichoticlistening_ta-ka.mp3	ta	ka	1	right
6.6.1	win	2023-06-02	06:14:26	06:38:09	1419356	647652cb5644044df439e1fb	1	1	main_slash	24	main_slash	107	stimuli_target_rectangletriangles.svg	stimuli_distractor_diamondtriangles.svg	5	yes	53	1	962	6	1	antiphase_hc_iso.wav	2	6	1	noise_calib_stim_LEFT.wav	1	34	blb_dichoticlistening_ta-ka.mp3	ta	ka	1	right
6.6.1	win	2023-06-02	06:14:26	06:38:09	1419356	647652cb5644044df439e1fb	1	1	main_slash	24	advance_on_keypress_SLASH	108	stimuli_target_rectangletriangles.svg	stimuli_distractor_diamondtriangles.svg	5	yes	57	0	582	6	1	antiphase_hc_iso.wav	2	6	1	noise_calib_stim_LEFT.wav	1	34	blb_dichoticlistening_ta-ka.mp3	ta	ka	1	right
6.6.1	win	2023-06-02	06:14:26	06:38:11	1421476	647652cb5644044df439e1fb	1	1	main_slash	24	main_slash	109	stimuli_distractor_diamondtriangles.svg	stimuli_target_rectangletriangles.svg	13	yes	53	1	886	6	1	antiphase_hc_iso.wav	2	6	1	noise_calib_stim_LEFT.wav	1	34	blb_dichoticlistening_ta-ka.mp3	ta	ka	1	right
6.6.1	win	2023-06-02	06:14:26	06:38:11	1421476	647652cb5644044df439e1fb	1	1	main_slash	24	advance_on_keypress_SLASH	110	stimuli_distractor_diamondtriangles.svg	stimuli_target_rectangletriangles.svg	13	yes	57	0	537	6	1	antiphase_hc_iso.wav	2	6	1	noise_calib_stim_LEFT.wav	1	34	blb_dichoticlistening_ta-ka.mp3	ta	ka	1	right
6.6.1	win	2023-06-02	06:14:26	06:38:14	1424665	647652cb5644044df439e1fb	1	1	main_slash	24	main_slash	111	stimuli_distractor_trianglediamonds.svg	stimuli_distractor_diamondtriangles.svg	36	no	0	1	2000	6	1	antiphase_hc_iso.wav	2	6	1	noise_calib_stim_LEFT.wav	1	34	blb_dichoticlistening_ta-ka.mp3	ta	ka	1	right
6.6.1	win	2023-06-02	06:14:26	06:38:14	1424665	647652cb5644044df439e1fb	1	1	main_slash	24	advance_on_keypress_SLASH	112	stimuli_distractor_trianglediamonds.svg	stimuli_distractor_diamondtriangles.svg	36	no	57	0	664	6	1	antiphase_hc_iso.wav	2	6	1	noise_calib_stim_LEFT.wav	1	34	blb_dichoticlistening_ta-ka.mp3	ta	ka	1	right
6.6.1	win	2023-06-02	06:14:26	06:38:18	1427981	647652cb5644044df439e1fb	1	1	main_slash	24	main_slash	113	stimuli_distractor_trianglediamonds.svg	stimuli_distractor_trianglediamonds.svg	33	no	0	1	2000	6	1	antiphase_hc_iso.wav	2	6	1	noise_calib_stim_LEFT.wav	1	34	blb_dichoticlistening_ta-ka.mp3	ta	ka	1	right
6.6.1	win	2023-06-02	06:14:26	06:38:18	1427981	647652cb5644044df439e1fb	1	1	main_slash	24	advance_on_keypress_SLASH	114	stimuli_distractor_trianglediamonds.svg	stimuli_distractor_trianglediamonds.svg	33	no	57	0	531	6	1	antiphase_hc_iso.wav	2	6	1	noise_calib_stim_LEFT.wav	1	34	blb_dichoticlistening_ta-ka.mp3	ta	ka	1	right
6.6.1	win	2023-06-02	06:14:26	06:38:20	1430198	647652cb5644044df439e1fb	1	1	main_slash	24	main_slash	115	stimuli_distractor_diamondtriangles.svg	stimuli_distractor_trianglediamonds.svg	38	no	53	0	1029	6	1	antiphase_hc_iso.wav	2	6	1	noise_calib_stim_LEFT.wav	1	34	blb_dichoticlistening_ta-ka.mp3	ta	ka	1	right
6.6.1	win	2023-06-02	06:14:26	06:38:20	1430198	647652cb5644044df439e1fb	1	1	main_slash	24	advance_on_keypress_SLASH	116	stimuli_distractor_diamondtriangles.svg	stimuli_distractor_trianglediamonds.svg	38	no	57	0	528	6	1	antiphase_hc_iso.wav	2	6	1	noise_calib_stim_LEFT.wav	1	34	blb_dichoticlistening_ta-ka.mp3	ta	ka	1	right
6.6.1	win	2023-06-02	06:14:26	06:38:22	1432412	647652cb5644044df439e1fb	1	1	main_slash	24	main_slash	117	stimuli_distractor_diamondtriangles.svg	stimuli_target_diamondsquares.svg	32	yes	53	1	1033	6	1	antiphase_hc_iso.wav	2	6	1	noise_calib_stim_LEFT.wav	1	34	blb_dichoticlistening_ta-ka.mp3	ta	ka	1	right
6.6.1	win	2023-06-02	06:14:26	06:38:22	1432412	647652cb5644044df439e1fb	1	1	main_slash	24	advance_on_keypress_SLASH	118	stimuli_distractor_diamondtriangles.svg	stimuli_target_diamondsquares.svg	32	yes	57	0	657	6	1	antiphase_hc_iso.wav	2	6	1	noise_calib_stim_LEFT.wav	1	34	blb_dichoticlistening_ta-ka.mp3	ta	ka	1	right
6.6.1	win	2023-06-02	06:14:26	06:38:24	1434683	647652cb5644044df439e1fb	1	1	main_slash	24	main_slash	119	stimuli_target_rectangletriangles.svg	stimuli_distractor_trianglediamonds.svg	1	yes	53	1	961	6	1	antiphase_hc_iso.wav	2	6	1	noise_calib_stim_LEFT.wav	1	34	blb_dichoticlistening_ta-ka.mp3	ta	ka	1	right
6.6.1	win	2023-06-02	06:14:26	06:38:24	1434683	647652cb5644044df439e1fb	1	1	main_slash	24	advance_on_keypress_SLASH	120	stimuli_target_rectangletriangles.svg	stimuli_distractor_trianglediamonds.svg	1	yes	57	0	1653	6	1	antiphase_hc_iso.wav	2	6	1	noise_calib_stim_LEFT.wav	1	34	blb_dichoticlistening_ta-ka.mp3	ta	ka	1	right
6.6.1	win	2023-06-02	06:14:26	06:38:28	1437978	647652cb5644044df439e1fb	1	1	main_slash	24	main_slash	121	stimuli_distractor_diamondtriangles.svg	stimuli_target_trianglerectangles.svg	29	yes	53	1	990	6	1	antiphase_hc_iso.wav	2	6	1	noise_calib_stim_LEFT.wav	1	34	blb_dichoticlistening_ta-ka.mp3	ta	ka	1	right
6.6.1	win	2023-06-02	06:14:26	06:38:28	1437978	647652cb5644044df439e1fb	1	1	main_slash	24	advance_on_keypress_SLASH	122	stimuli_distractor_diamondtriangles.svg	stimuli_target_trianglerectangles.svg	29	yes	57	0	1264	6	1	antiphase_hc_iso.wav	2	6	1	noise_calib_stim_LEFT.wav	1	34	blb_dichoticlistening_ta-ka.mp3	ta	ka	1	right
6.6.1	win	2023-06-02	06:14:26	06:38:31	1441093	647652cb5644044df439e1fb	1	1	main_slash	24	main_slash	123	stimuli_target_trianglesquares.svg	stimuli_distractor_trianglediamonds.svg	18	yes	53	1	1198	6	1	antiphase_hc_iso.wav	2	6	1	noise_calib_stim_LEFT.wav	1	34	blb_dichoticlistening_ta-ka.mp3	ta	ka	1	right
6.6.1	win	2023-06-02	06:14:26	06:38:31	1441093	647652cb5644044df439e1fb	1	1	main_slash	24	advance_on_keypress_SLASH	124	stimuli_target_trianglesquares.svg	stimuli_distractor_trianglediamonds.svg	18	yes	57	0	688	6	1	antiphase_hc_iso.wav	2	6	1	noise_calib_stim_LEFT.wav	1	34	blb_dichoticlistening_ta-ka.mp3	ta	ka	1	right
6.6.1	win	2023-06-02	06:14:26	06:38:34	1444433	647652cb5644044df439e1fb	1	1	main_slash	24	main_slash	125	stimuli_distractor_trianglediamonds.svg	stimuli_target_diamondrectangles.svg	27	yes	0	0	2000	6	1	antiphase_hc_iso.wav	2	6	1	noise_calib_stim_LEFT.wav	1	34	blb_dichoticlistening_ta-ka.mp3	ta	ka	1	right
6.6.1	win	2023-06-02	06:14:26	06:38:34	1444433	647652cb5644044df439e1fb	1	1	main_slash	24	advance_on_keypress_SLASH	126	stimuli_distractor_trianglediamonds.svg	stimuli_target_diamondrectangles.svg	27	yes	57	0	580	6	1	antiphase_hc_iso.wav	2	6	1	noise_calib_stim_LEFT.wav	1	34	blb_dichoticlistening_ta-ka.mp3	ta	ka	1	right
6.6.1	win	2023-06-02	06:14:26	06:38:37	1446865	647652cb5644044df439e1fb	1	1	main_slash	24	main_slash	127	stimuli_distractor_trianglediamonds.svg	stimuli_target_trianglerectangles.svg	25	yes	53	1	1204	6	1	antiphase_hc_iso.wav	2	6	1	noise_calib_stim_LEFT.wav	1	34	blb_dichoticlistening_ta-ka.mp3	ta	ka	1	right
6.6.1	win	2023-06-02	06:14:26	06:38:37	1446865	647652cb5644044df439e1fb	1	1	main_slash	24	advance_on_keypress_SLASH	128	stimuli_distractor_trianglediamonds.svg	stimuli_target_trianglerectangles.svg	25	yes	57	0	543	6	1	antiphase_hc_iso.wav	2	6	1	noise_calib_stim_LEFT.wav	1	34	blb_dichoticlistening_ta-ka.mp3	ta	ka	1	right
6.6.1	win	2023-06-02	06:14:26	06:38:40	1450059	647652cb5644044df439e1fb	1	1	main_slash	24	main_slash	129	stimuli_distractor_trianglediamonds.svg	stimuli_distractor_trianglediamonds.svg	34	no	0	1	2000	6	1	antiphase_hc_iso.wav	2	6	1	noise_calib_stim_LEFT.wav	1	34	blb_dichoticlistening_ta-ka.mp3	ta	ka	1	right
6.6.1	win	2023-06-02	06:14:26	06:38:40	1450059	647652cb5644044df439e1fb	1	1	main_slash	24	advance_on_keypress_SLASH	130	stimuli_distractor_trianglediamonds.svg	stimuli_distractor_trianglediamonds.svg	34	no	57	0	779	6	1	antiphase_hc_iso.wav	2	6	1	noise_calib_stim_LEFT.wav	1	34	blb_dichoticlistening_ta-ka.mp3	ta	ka	1	right
6.6.1	win	2023-06-02	06:14:26	06:38:42	1452366	647652cb5644044df439e1fb	1	1	main_slash	24	main_slash	131	stimuli_distractor_diamondtriangles.svg	stimuli_target_squarediamonds.svg	16	yes	53	1	876	6	1	antiphase_hc_iso.wav	2	6	1	noise_calib_stim_LEFT.wav	1	34	blb_dichoticlistening_ta-ka.mp3	ta	ka	1	right
6.6.1	win	2023-06-02	06:14:26	06:38:42	1452366	647652cb5644044df439e1fb	1	1	main_slash	24	advance_on_keypress_SLASH	132	stimuli_distractor_diamondtriangles.svg	stimuli_target_squarediamonds.svg	16	yes	57	0	1382	6	1	antiphase_hc_iso.wav	2	6	1	noise_calib_stim_LEFT.wav	1	34	blb_dichoticlistening_ta-ka.mp3	ta	ka	1	right
6.6.1	win	2023-06-02	06:14:26	06:38:45	1455019	647652cb5644044df439e1fb	1	1	main_slash	24	main_slash	133	stimuli_distractor_diamondtriangles.svg	stimuli_target_squaretriangles.svg	15	yes	53	1	623	6	1	antiphase_hc_iso.wav	2	6	1	noise_calib_stim_LEFT.wav	1	34	blb_dichoticlistening_ta-ka.mp3	ta	ka	1	right
6.6.1	win	2023-06-02	06:14:26	06:38:45	1455019	647652cb5644044df439e1fb	1	1	main_slash	24	advance_on_keypress_SLASH	134	stimuli_distractor_diamondtriangles.svg	stimuli_target_squaretriangles.svg	15	yes	57	0	471	6	1	antiphase_hc_iso.wav	2	6	1	noise_calib_stim_LEFT.wav	1	34	blb_dichoticlistening_ta-ka.mp3	ta	ka	1	right
6.6.1	win	2023-06-02	06:14:26	06:38:48	1458153	647652cb5644044df439e1fb	1	1	main_slash	24	main_slash	135	stimuli_target_diamondrectangles.svg	stimuli_distractor_trianglediamonds.svg	19	yes	0	0	2000	6	1	antiphase_hc_iso.wav	2	6	1	noise_calib_stim_LEFT.wav	1	34	blb_dichoticlistening_ta-ka.mp3	ta	ka	1	right
6.6.1	win	2023-06-02	06:14:26	06:38:48	1458153	647652cb5644044df439e1fb	1	1	main_slash	24	advance_on_keypress_SLASH	136	stimuli_target_diamondrectangles.svg	stimuli_distractor_trianglediamonds.svg	19	yes	57	0	1745	6	1	antiphase_hc_iso.wav	2	6	1	noise_calib_stim_LEFT.wav	1	34	blb_dichoticlistening_ta-ka.mp3	ta	ka	1	right
6.6.1	win	2023-06-02	06:14:26	06:38:51	1461428	647652cb5644044df439e1fb	1	1	main_slash	24	main_slash	137	stimuli_target_squaretriangles.svg	stimuli_distractor_diamondtriangles.svg	7	yes	53	1	886	6	1	antiphase_hc_iso.wav	2	6	1	noise_calib_stim_LEFT.wav	1	34	blb_dichoticlistening_ta-ka.mp3	ta	ka	1	right
6.6.1	win	2023-06-02	06:14:26	06:38:51	1461428	647652cb5644044df439e1fb	1	1	main_slash	24	advance_on_keypress_SLASH	138	stimuli_target_squaretriangles.svg	stimuli_distractor_diamondtriangles.svg	7	yes	57	0	737	6	1	antiphase_hc_iso.wav	2	6	1	noise_calib_stim_LEFT.wav	1	34	blb_dichoticlistening_ta-ka.mp3	ta	ka	1	right
6.6.1	win	2023-06-02	06:14:26	06:38:55	1464817	647652cb5644044df439e1fb	1	1	main_slash	24	main_slash	139	stimuli_target_trianglerectangles.svg	stimuli_distractor_trianglediamonds.svg	17	yes	0	0	2000	6	1	antiphase_hc_iso.wav	2	6	1	noise_calib_stim_LEFT.wav	1	34	blb_dichoticlistening_ta-ka.mp3	ta	ka	1	right
6.6.1	win	2023-06-02	06:14:26	06:38:55	1464817	647652cb5644044df439e1fb	1	1	main_slash	24	advance_on_keypress_SLASH	140	stimuli_target_trianglerectangles.svg	stimuli_distractor_trianglediamonds.svg	17	yes	57	0	680	6	1	antiphase_hc_iso.wav	2	6	1	noise_calib_stim_LEFT.wav	1	34	blb_dichoticlistening_ta-ka.mp3	ta	ka	1	right
6.6.1	win	2023-06-02	06:14:26	06:38:57	1467005	647652cb5644044df439e1fb	1	1	main_slash	24	main_slash	141	stimuli_target_squarediamonds.svg	stimuli_distractor_diamondtriangles.svg	8	yes	53	1	857	6	1	antiphase_hc_iso.wav	2	6	1	noise_calib_stim_LEFT.wav	1	34	blb_dichoticlistening_ta-ka.mp3	ta	ka	1	right
6.6.1	win	2023-06-02	06:14:26	06:38:57	1467005	647652cb5644044df439e1fb	1	1	main_slash	24	advance_on_keypress_SLASH	142	stimuli_target_squarediamonds.svg	stimuli_distractor_diamondtriangles.svg	8	yes	57	0	579	6	1	antiphase_hc_iso.wav	2	6	1	noise_calib_stim_LEFT.wav	1	34	blb_dichoticlistening_ta-ka.mp3	ta	ka	1	right
6.6.1	win	2023-06-02	06:14:26	06:38:59	1469340	647652cb5644044df439e1fb	1	1	main_slash	24	main_slash	143	stimuli_target_trianglerectangles.svg	stimuli_distractor_diamondtriangles.svg	21	yes	53	1	1104	6	1	antiphase_hc_iso.wav	2	6	1	noise_calib_stim_LEFT.wav	1	34	blb_dichoticlistening_ta-ka.mp3	ta	ka	1	right
6.6.1	win	2023-06-02	06:14:26	06:38:59	1469340	647652cb5644044df439e1fb	1	1	main_slash	24	advance_on_keypress_SLASH	144	stimuli_target_trianglerectangles.svg	stimuli_distractor_diamondtriangles.svg	21	yes	57	0	458	6	1	antiphase_hc_iso.wav	2	6	1	noise_calib_stim_LEFT.wav	1	34	blb_dichoticlistening_ta-ka.mp3	ta	ka	1	right
6.6.1	win	2023-06-02	06:14:26	06:39:01	1471252	647652cb5644044df439e1fb	1	1	main_slash	24	main_slash	145	stimuli_distractor_diamondtriangles.svg	stimuli_target_rectanglediamonds.svg	14	yes	53	1	815	6	1	antiphase_hc_iso.wav	2	6	1	noise_calib_stim_LEFT.wav	1	34	blb_dichoticlistening_ta-ka.mp3	ta	ka	1	right
6.6.1	win	2023-06-02	06:14:26	06:39:01	1471252	647652cb5644044df439e1fb	1	1	main_slash	24	advance_on_keypress_SLASH	146	stimuli_distractor_diamondtriangles.svg	stimuli_target_rectanglediamonds.svg	14	yes	57	0	347	6	1	antiphase_hc_iso.wav	2	6	1	noise_calib_stim_LEFT.wav	1	34	blb_dichoticlistening_ta-ka.mp3	ta	ka	1	right
6.6.1	win	2023-06-02	06:14:26	06:39:03	1473393	647652cb5644044df439e1fb	1	1	main_slash	24	main_slash	147	stimuli_target_diamondsquares.svg	stimuli_distractor_diamondtriangles.svg	24	yes	53	1	1141	6	1	antiphase_hc_iso.wav	2	6	1	noise_calib_stim_LEFT.wav	1	34	blb_dichoticlistening_ta-ka.mp3	ta	ka	1	right
6.6.1	win	2023-06-02	06:14:26	06:39:03	1473393	647652cb5644044df439e1fb	1	1	main_slash	24	advance_on_keypress_SLASH	148	stimuli_target_diamondsquares.svg	stimuli_distractor_diamondtriangles.svg	24	yes	57	0	479	6	1	antiphase_hc_iso.wav	2	6	1	noise_calib_stim_LEFT.wav	1	34	blb_dichoticlistening_ta-ka.mp3	ta	ka	1	right
6.6.1	win	2023-06-02	06:14:26	06:39:06	1476524	647652cb5644044df439e1fb	1	1	main_slash	24	main_slash	149	stimuli_target_diamondsquares.svg	stimuli_distractor_trianglediamonds.svg	20	yes	0	0	2000	6	1	antiphase_hc_iso.wav	2	6	1	noise_calib_stim_LEFT.wav	1	34	blb_dichoticlistening_ta-ka.mp3	ta	ka	1	right
6.6.1	win	2023-06-02	06:14:26	06:39:06	1476524	647652cb5644044df439e1fb	1	1	main_slash	24	advance_on_keypress_SLASH	150	stimuli_target_diamondsquares.svg	stimuli_distractor_trianglediamonds.svg	20	yes	57	0	633	6	1	antiphase_hc_iso.wav	2	6	1	noise_calib_stim_LEFT.wav	1	34	blb_dichoticlistening_ta-ka.mp3	ta	ka	1	right
6.6.1	win	2023-06-02	06:14:26	06:39:09	1479032	647652cb5644044df439e1fb	1	1	main_slash	24	main_slash	151	stimuli_target_diamondrectangles.svg	stimuli_distractor_diamondtriangles.svg	23	yes	53	1	1222	6	1	antiphase_hc_iso.wav	2	6	1	noise_calib_stim_LEFT.wav	1	34	blb_dichoticlistening_ta-ka.mp3	ta	ka	1	right
6.6.1	win	2023-06-02	06:14:26	06:39:09	1479032	647652cb5644044df439e1fb	1	1	main_slash	24	advance_on_keypress_SLASH	152	stimuli_target_diamondrectangles.svg	stimuli_distractor_diamondtriangles.svg	23	yes	57	0	1590	6	1	antiphase_hc_iso.wav	2	6	1	noise_calib_stim_LEFT.wav	1	34	blb_dichoticlistening_ta-ka.mp3	ta	ka	1	right
6.6.1	win	2023-06-02	06:14:26	06:39:13	1483274	647652cb5644044df439e1fb	1	1	main_slash	24	main_slash	153	stimuli_distractor_diamondtriangles.svg	stimuli_distractor_diamondtriangles.svg	39	no	0	1	2000	6	1	antiphase_hc_iso.wav	2	6	1	noise_calib_stim_LEFT.wav	1	34	blb_dichoticlistening_ta-ka.mp3	ta	ka	1	right
6.6.1	win	2023-06-02	06:14:26	06:39:13	1483274	647652cb5644044df439e1fb	1	1	main_slash	24	advance_on_keypress_SLASH	154	stimuli_distractor_diamondtriangles.svg	stimuli_distractor_diamondtriangles.svg	39	no	57	0	538	6	1	antiphase_hc_iso.wav	2	6	1	noise_calib_stim_LEFT.wav	1	34	blb_dichoticlistening_ta-ka.mp3	ta	ka	1	right
6.6.1	win	2023-06-02	06:14:26	06:39:15	1485339	647652cb5644044df439e1fb	1	1	main_slash	24	main_slash	155	stimuli_distractor_trianglediamonds.svg	stimuli_target_rectanglediamonds.svg	10	yes	53	1	884	6	1	antiphase_hc_iso.wav	2	6	1	noise_calib_stim_LEFT.wav	1	34	blb_dichoticlistening_ta-ka.mp3	ta	ka	1	right
6.6.1	win	2023-06-02	06:14:26	06:39:15	1485339	647652cb5644044df439e1fb	1	1	main_slash	24	advance_on_keypress_SLASH	156	stimuli_distractor_trianglediamonds.svg	stimuli_target_rectanglediamonds.svg	10	yes	57	0	648	6	1	antiphase_hc_iso.wav	2	6	1	noise_calib_stim_LEFT.wav	1	34	blb_dichoticlistening_ta-ka.mp3	ta	ka	1	right
6.6.1	win	2023-06-02	06:14:26	06:39:17	1487702	647652cb5644044df439e1fb	1	1	main_slash	24	main_slash	157	stimuli_distractor_diamondtriangles.svg	stimuli_target_trianglesquares.svg	30	yes	53	1	1062	6	1	antiphase_hc_iso.wav	2	6	1	noise_calib_stim_LEFT.wav	1	34	blb_dichoticlistening_ta-ka.mp3	ta	ka	1	right
6.6.1	win	2023-06-02	06:14:26	06:39:17	1487702	647652cb5644044df439e1fb	1	1	main_slash	24	advance_on_keypress_SLASH	158	stimuli_distractor_diamondtriangles.svg	stimuli_target_trianglesquares.svg	30	yes	57	0	484	6	1	antiphase_hc_iso.wav	2	6	1	noise_calib_stim_LEFT.wav	1	34	blb_dichoticlistening_ta-ka.mp3	ta	ka	1	right
6.6.1	win	2023-06-02	06:14:26	06:39:19	1489665	647652cb5644044df439e1fb	1	1	main_slash	24	main_slash	159	stimuli_distractor_trianglediamonds.svg	stimuli_target_diamondsquares.svg	28	yes	53	1	826	6	1	antiphase_hc_iso.wav	2	6	1	noise_calib_stim_LEFT.wav	1	34	blb_dichoticlistening_ta-ka.mp3	ta	ka	1	right
6.6.1	win	2023-06-02	06:14:26	06:39:19	1489665	647652cb5644044df439e1fb	1	1	main_slash	24	advance_on_keypress_SLASH	160	stimuli_distractor_trianglediamonds.svg	stimuli_target_diamondsquares.svg	28	yes	57	0	399	6	1	antiphase_hc_iso.wav	2	6	1	noise_calib_stim_LEFT.wav	1	34	blb_dichoticlistening_ta-ka.mp3	ta	ka	1	right
6.6.1	win	2023-06-02	06:14:26	06:39:48	1517912	647652cb5644044df439e1fb	1	1	practice_z	26	practice_z	1	stimuli_distractor_diamondtriangles.svg	stimuli_target_trianglerectangles.svg	9	yes	44	1	706	6	1	antiphase_hc_iso.wav	2	6	1	noise_calib_stim_LEFT.wav	1	34	blb_dichoticlistening_ta-ka.mp3	ta	ka	1	right
6.6.1	win	2023-06-02	06:14:26	06:39:48	1517912	647652cb5644044df439e1fb	1	1	practice_z	26	advance_on_keypress_ZEE	2	stimuli_distractor_diamondtriangles.svg	stimuli_target_trianglerectangles.svg	9	yes	57	0	740	6	1	antiphase_hc_iso.wav	2	6	1	noise_calib_stim_LEFT.wav	1	34	blb_dichoticlistening_ta-ka.mp3	ta	ka	1	right
6.6.1	win	2023-06-02	06:14:26	06:39:51	1521042	647652cb5644044df439e1fb	1	1	practice_z	26	practice_z	3	stimuli_target_diamondsquares.svg	stimuli_distractor_trianglediamonds.svg	6	yes	44	1	736	6	1	antiphase_hc_iso.wav	2	6	1	noise_calib_stim_LEFT.wav	1	34	blb_dichoticlistening_ta-ka.mp3	ta	ka	1	right
6.6.1	win	2023-06-02	06:14:26	06:39:51	1521042	647652cb5644044df439e1fb	1	1	practice_z	26	advance_on_keypress_ZEE	4	stimuli_target_diamondsquares.svg	stimuli_distractor_trianglediamonds.svg	6	yes	57	0	451	6	1	antiphase_hc_iso.wav	2	6	1	noise_calib_stim_LEFT.wav	1	34	blb_dichoticlistening_ta-ka.mp3	ta	ka	1	right
6.6.1	win	2023-06-02	06:14:26	06:39:54	1523895	647652cb5644044df439e1fb	1	1	practice_z	26	practice_z	5	stimuli_target_rectanglediamonds.svg	stimuli_distractor_diamondtriangles.svg	1	yes	44	1	748	6	1	antiphase_hc_iso.wav	2	6	1	noise_calib_stim_LEFT.wav	1	34	blb_dichoticlistening_ta-ka.mp3	ta	ka	1	right
6.6.1	win	2023-06-02	06:14:26	06:39:54	1523895	647652cb5644044df439e1fb	1	1	practice_z	26	advance_on_keypress_ZEE	6	stimuli_target_rectanglediamonds.svg	stimuli_distractor_diamondtriangles.svg	1	yes	57	0	772	6	1	antiphase_hc_iso.wav	2	6	1	noise_calib_stim_LEFT.wav	1	34	blb_dichoticlistening_ta-ka.mp3	ta	ka	1	right
6.6.1	win	2023-06-02	06:14:26	06:39:57	1527129	647652cb5644044df439e1fb	1	1	practice_z	26	practice_z	7	stimuli_distractor_diamondtriangles.svg	stimuli_target_diamondrectangles.svg	8	yes	44	1	808	6	1	antiphase_hc_iso.wav	2	6	1	noise_calib_stim_LEFT.wav	1	34	blb_dichoticlistening_ta-ka.mp3	ta	ka	1	right
6.6.1	win	2023-06-02	06:14:26	06:39:57	1527129	647652cb5644044df439e1fb	1	1	practice_z	26	advance_on_keypress_ZEE	8	stimuli_distractor_diamondtriangles.svg	stimuli_target_diamondrectangles.svg	8	yes	57	0	735	6	1	antiphase_hc_iso.wav	2	6	1	noise_calib_stim_LEFT.wav	1	34	blb_dichoticlistening_ta-ka.mp3	ta	ka	1	right
6.6.1	win	2023-06-02	06:14:26	06:40:00	1530241	647652cb5644044df439e1fb	1	1	practice_z	26	practice_z	9	stimuli_target_rectanglediamonds.svg	stimuli_distractor_trianglediamonds.svg	4	yes	44	1	723	6	1	antiphase_hc_iso.wav	2	6	1	noise_calib_stim_LEFT.wav	1	34	blb_dichoticlistening_ta-ka.mp3	ta	ka	1	right
6.6.1	win	2023-06-02	06:14:26	06:40:00	1530241	647652cb5644044df439e1fb	1	1	practice_z	26	advance_on_keypress_ZEE	10	stimuli_target_rectanglediamonds.svg	stimuli_distractor_trianglediamonds.svg	4	yes	57	0	353	6	1	antiphase_hc_iso.wav	2	6	1	noise_calib_stim_LEFT.wav	1	34	blb_dichoticlistening_ta-ka.mp3	ta	ka	1	right
6.6.1	win	2023-06-02	06:14:26	06:40:03	1532870	647652cb5644044df439e1fb	1	1	practice_z	26	practice_z	11	stimuli_target_squarediamonds.svg	stimuli_distractor_trianglediamonds.svg	5	yes	44	1	619	6	1	antiphase_hc_iso.wav	2	6	1	noise_calib_stim_LEFT.wav	1	34	blb_dichoticlistening_ta-ka.mp3	ta	ka	1	right
6.6.1	win	2023-06-02	06:14:26	06:40:03	1532870	647652cb5644044df439e1fb	1	1	practice_z	26	advance_on_keypress_ZEE	12	stimuli_target_squarediamonds.svg	stimuli_distractor_trianglediamonds.svg	5	yes	57	0	651	6	1	antiphase_hc_iso.wav	2	6	1	noise_calib_stim_LEFT.wav	1	34	blb_dichoticlistening_ta-ka.mp3	ta	ka	1	right
6.6.1	win	2023-06-02	06:14:26	06:40:07	1537175	647652cb5644044df439e1fb	1	1	practice_z	26	practice_z	13	stimuli_distractor_diamondtriangles.svg	stimuli_distractor_diamondtriangles.svg	13	no	0	1	2000	6	1	antiphase_hc_iso.wav	2	6	1	noise_calib_stim_LEFT.wav	1	34	blb_dichoticlistening_ta-ka.mp3	ta	ka	1	right
6.6.1	win	2023-06-02	06:14:26	06:40:07	1537175	647652cb5644044df439e1fb	1	1	practice_z	26	advance_on_keypress_ZEE	14	stimuli_distractor_diamondtriangles.svg	stimuli_distractor_diamondtriangles.svg	13	no	57	0	415	6	1	antiphase_hc_iso.wav	2	6	1	noise_calib_stim_LEFT.wav	1	34	blb_dichoticlistening_ta-ka.mp3	ta	ka	1	right
