build	computer.platform	date	time	timestamp	time_elapsed_ms	subject	group	session	blockcode	blocknum	trialcode	trialnum	stimulus_left	stimulus_right	stim_index	target_present	response	correct	latency	headphonecheck_countTestTrials	headphonecheck_index	headphonecheck_testSound	headphonecheck_correctResponse	stereocheck_countTestTrials	stereocheck_index	stereocheck_testSound	stereocheck_correctResponse	DL_index	DL_soundfile	DL_leftSound	DL_rightSound	DL_dualSound	DL_choice
6.6.1	win	2023-06-02	07:19:30	07:23:18	225690	6168713d805efede55796d7f	3	1	practice_slash	5	practice_slash	1	stimuli_distractor_diamondtriangles.svg	stimuli_target_rectangletriangles.svg	7	yes	53	1	369	0	0			0	0			1				0	
6.6.1	win	2023-06-02	07:19:30	07:23:18	225690	6168713d805efede55796d7f	3	1	practice_slash	5	advance_on_keypress_SLASH	2	stimuli_distractor_diamondtriangles.svg	stimuli_target_rectangletriangles.svg	7	yes	57	0	2566	0	0			0	0			1				0	
6.6.1	win	2023-06-02	07:19:30	07:23:22	230341	6168713d805efede55796d7f	3	1	practice_slash	5	practice_slash	3	stimuli_distractor_trianglediamonds.svg	stimuli_distractor_diamondtriangles.svg	16	no	53	0	456	0	0			0	0			1				0	
6.6.1	win	2023-06-02	07:19:30	07:23:22	230341	6168713d805efede55796d7f	3	1	practice_slash	5	advance_on_keypress_SLASH	4	stimuli_distractor_trianglediamonds.svg	stimuli_distractor_diamondtriangles.svg	16	no	57	0	509	0	0			0	0			1				0	
6.6.1	win	2023-06-02	07:19:30	07:23:27	234467	6168713d805efede55796d7f	3	1	practice_slash	5	practice_slash	5	stimuli_distractor_diamondtriangles.svg	stimuli_target_diamondrectangles.svg	8	yes	0	0	2000	0	0			0	0			1				0	
6.6.1	win	2023-06-02	07:19:30	07:23:27	234467	6168713d805efede55796d7f	3	1	practice_slash	5	advance_on_keypress_SLASH	6	stimuli_distractor_diamondtriangles.svg	stimuli_target_diamondrectangles.svg	8	yes	57	0	576	0	0			0	0			1				0	
6.6.1	win	2023-06-02	07:19:30	07:23:30	237391	6168713d805efede55796d7f	3	1	practice_slash	5	practice_slash	7	stimuli_target_squarediamonds.svg	stimuli_distractor_diamondtriangles.svg	2	yes	53	1	731	0	0			0	0			1				0	
6.6.1	win	2023-06-02	07:19:30	07:23:30	237391	6168713d805efede55796d7f	3	1	practice_slash	5	advance_on_keypress_SLASH	8	stimuli_target_squarediamonds.svg	stimuli_distractor_diamondtriangles.svg	2	yes	57	0	532	0	0			0	0			1				0	
6.6.1	win	2023-06-02	07:19:30	07:23:34	241533	6168713d805efede55796d7f	3	1	practice_slash	5	practice_slash	9	stimuli_distractor_diamondtriangles.svg	stimuli_distractor_trianglediamonds.svg	14	no	0	1	2000	0	0			0	0			1				0	
6.6.1	win	2023-06-02	07:19:30	07:23:34	241533	6168713d805efede55796d7f	3	1	practice_slash	5	advance_on_keypress_SLASH	10	stimuli_distractor_diamondtriangles.svg	stimuli_distractor_trianglediamonds.svg	14	no	57	0	437	0	0			0	0			1				0	
6.6.1	win	2023-06-02	07:19:30	07:23:38	245588	6168713d805efede55796d7f	3	1	practice_slash	5	practice_slash	11	stimuli_distractor_diamondtriangles.svg	stimuli_distractor_diamondtriangles.svg	13	no	0	1	2000	0	0			0	0			1				0	
6.6.1	win	2023-06-02	07:19:30	07:23:38	245588	6168713d805efede55796d7f	3	1	practice_slash	5	advance_on_keypress_SLASH	12	stimuli_distractor_diamondtriangles.svg	stimuli_distractor_diamondtriangles.svg	13	no	57	0	1278	0	0			0	0			1				0	
6.6.1	win	2023-06-02	07:19:30	07:23:43	250484	6168713d805efede55796d7f	3	1	practice_slash	5	practice_slash	13	stimuli_distractor_trianglediamonds.svg	stimuli_distractor_trianglediamonds.svg	15	no	0	1	2000	0	0			0	0			1				0	
6.6.1	win	2023-06-02	07:19:30	07:23:43	250484	6168713d805efede55796d7f	3	1	practice_slash	5	advance_on_keypress_SLASH	14	stimuli_distractor_trianglediamonds.svg	stimuli_distractor_trianglediamonds.svg	15	no	57	0	280	0	0			0	0			1				0	
6.6.1	win	2023-06-02	07:19:30	07:23:47	254381	6168713d805efede55796d7f	3	1	practice_slash	5	practice_slash	15	stimuli_target_diamondsquares.svg	stimuli_distractor_trianglediamonds.svg	6	yes	0	0	2000	0	0			0	0			1				0	
6.6.1	win	2023-06-02	07:19:30	07:23:47	254381	6168713d805efede55796d7f	3	1	practice_slash	5	advance_on_keypress_SLASH	16	stimuli_target_diamondsquares.svg	stimuli_distractor_trianglediamonds.svg	6	yes	57	0	245	0	0			0	0			1				0	
6.6.1	win	2023-06-02	07:19:30	07:23:49	256863	6168713d805efede55796d7f	3	1	practice_slash	5	practice_slash	17	stimuli_target_rectanglediamonds.svg	stimuli_distractor_trianglediamonds.svg	4	yes	53	1	621	0	0			0	0			1				0	
6.6.1	win	2023-06-02	07:19:30	07:23:49	256863	6168713d805efede55796d7f	3	1	practice_slash	5	advance_on_keypress_SLASH	18	stimuli_target_rectanglediamonds.svg	stimuli_distractor_trianglediamonds.svg	4	yes	57	0	506	0	0			0	0			1				0	
6.6.1	win	2023-06-02	07:19:30	07:23:52	259892	6168713d805efede55796d7f	3	1	practice_slash	5	practice_slash	19	stimuli_distractor_trianglediamonds.svg	stimuli_target_rectanglediamonds.svg	10	yes	53	1	911	0	0			0	0			1				0	
6.6.1	win	2023-06-02	07:19:30	07:23:52	259892	6168713d805efede55796d7f	3	1	practice_slash	5	advance_on_keypress_SLASH	20	stimuli_distractor_trianglediamonds.svg	stimuli_target_rectanglediamonds.svg	10	yes	57	0	551	0	0			0	0			1				0	
6.6.1	win	2023-06-02	07:19:30	07:23:56	264060	6168713d805efede55796d7f	3	1	practice_slash	5	practice_slash	21	stimuli_distractor_diamondtriangles.svg	stimuli_target_trianglerectangles.svg	9	yes	0	0	2000	0	0			0	0			1				0	
6.6.1	win	2023-06-02	07:19:30	07:23:56	264060	6168713d805efede55796d7f	3	1	practice_slash	5	advance_on_keypress_SLASH	22	stimuli_distractor_diamondtriangles.svg	stimuli_target_trianglerectangles.svg	9	yes	57	0	342	0	0			0	0			1				0	
6.6.1	win	2023-06-02	07:19:30	07:23:59	266736	6168713d805efede55796d7f	3	1	practice_slash	5	practice_slash	23	stimuli_target_rectanglediamonds.svg	stimuli_distractor_diamondtriangles.svg	1	yes	53	1	718	0	0			0	0			1				0	
6.6.1	win	2023-06-02	07:19:30	07:23:59	266736	6168713d805efede55796d7f	3	1	practice_slash	5	advance_on_keypress_SLASH	24	stimuli_target_rectanglediamonds.svg	stimuli_distractor_diamondtriangles.svg	1	yes	57	0	415	0	0			0	0			1				0	
6.6.1	win	2023-06-02	07:19:30	07:24:02	269582	6168713d805efede55796d7f	3	1	practice_slash	5	practice_slash	25	stimuli_distractor_trianglediamonds.svg	stimuli_target_squarediamonds.svg	11	yes	53	1	820	0	0			0	0			1				0	
6.6.1	win	2023-06-02	07:19:30	07:24:02	269582	6168713d805efede55796d7f	3	1	practice_slash	5	advance_on_keypress_SLASH	26	stimuli_distractor_trianglediamonds.svg	stimuli_target_squarediamonds.svg	11	yes	57	0	228	0	0			0	0			1				0	
6.6.1	win	2023-06-02	07:19:30	07:24:06	273423	6168713d805efede55796d7f	3	1	practice_slash	5	practice_slash	27	stimuli_distractor_trianglediamonds.svg	stimuli_target_diamondrectangles.svg	12	yes	0	0	2000	0	0			0	0			1				0	
6.6.1	win	2023-06-02	07:19:30	07:24:06	273423	6168713d805efede55796d7f	3	1	practice_slash	5	advance_on_keypress_SLASH	28	stimuli_distractor_trianglediamonds.svg	stimuli_target_diamondrectangles.svg	12	yes	57	0	289	0	0			0	0			1				0	
6.6.1	win	2023-06-02	07:19:30	07:24:09	277326	6168713d805efede55796d7f	3	1	practice_slash	5	practice_slash	29	stimuli_target_diamondsquares.svg	stimuli_distractor_diamondtriangles.svg	3	yes	0	0	2000	0	0			0	0			1				0	
6.6.1	win	2023-06-02	07:19:30	07:24:09	277326	6168713d805efede55796d7f	3	1	practice_slash	5	advance_on_keypress_SLASH	30	stimuli_target_diamondsquares.svg	stimuli_distractor_diamondtriangles.svg	3	yes	57	0	683	0	0			0	0			1				0	
6.6.1	win	2023-06-02	07:19:30	07:24:12	280287	6168713d805efede55796d7f	3	1	practice_slash	5	practice_slash	31	stimuli_target_squarediamonds.svg	stimuli_distractor_trianglediamonds.svg	5	yes	53	1	657	0	0			0	0			1				0	
6.6.1	win	2023-06-02	07:19:30	07:24:12	280287	6168713d805efede55796d7f	3	1	practice_slash	5	advance_on_keypress_SLASH	32	stimuli_target_squarediamonds.svg	stimuli_distractor_trianglediamonds.svg	5	yes	57	0	385	0	0			0	0			1				0	
6.6.1	win	2023-06-02	07:19:30	07:24:23	290628	6168713d805efede55796d7f	3	1	main_slash	7	main_slash	1	stimuli_distractor_diamondtriangles.svg	stimuli_distractor_diamondtriangles.svg	40	no	53	0	1151	0	0			0	0			1				0	
6.6.1	win	2023-06-02	07:19:30	07:24:23	290628	6168713d805efede55796d7f	3	1	main_slash	7	advance_on_keypress_SLASH	2	stimuli_distractor_diamondtriangles.svg	stimuli_distractor_diamondtriangles.svg	40	no	57	0	1009	0	0			0	0			1				0	
6.6.1	win	2023-06-02	07:19:30	07:24:26	294253	6168713d805efede55796d7f	3	1	main_slash	7	main_slash	3	stimuli_distractor_trianglediamonds.svg	stimuli_distractor_diamondtriangles.svg	36	no	0	1	2000	0	0			0	0			1				0	
6.6.1	win	2023-06-02	07:19:30	07:24:26	294253	6168713d805efede55796d7f	3	1	main_slash	7	advance_on_keypress_SLASH	4	stimuli_distractor_trianglediamonds.svg	stimuli_distractor_diamondtriangles.svg	36	no	57	0	428	0	0			0	0			1				0	
6.6.1	win	2023-06-02	07:19:30	07:24:28	296181	6168713d805efede55796d7f	3	1	main_slash	7	main_slash	5	stimuli_target_squaretriangles.svg	stimuli_distractor_trianglediamonds.svg	3	yes	53	1	886	0	0			0	0			1				0	
6.6.1	win	2023-06-02	07:19:30	07:24:28	296181	6168713d805efede55796d7f	3	1	main_slash	7	advance_on_keypress_SLASH	6	stimuli_target_squaretriangles.svg	stimuli_distractor_trianglediamonds.svg	3	yes	57	0	695	0	0			0	0			1				0	
6.6.1	win	2023-06-02	07:19:30	07:24:30	298105	6168713d805efede55796d7f	3	1	main_slash	7	main_slash	7	stimuli_distractor_diamondtriangles.svg	stimuli_target_squaretriangles.svg	15	yes	53	1	616	0	0			0	0			1				0	
6.6.1	win	2023-06-02	07:19:30	07:24:30	298105	6168713d805efede55796d7f	3	1	main_slash	7	advance_on_keypress_SLASH	8	stimuli_distractor_diamondtriangles.svg	stimuli_target_squaretriangles.svg	15	yes	57	0	460	0	0			0	0			1				0	
6.6.1	win	2023-06-02	07:19:30	07:24:33	301180	6168713d805efede55796d7f	3	1	main_slash	7	main_slash	9	stimuli_distractor_diamondtriangles.svg	stimuli_distractor_trianglediamonds.svg	38	no	0	1	2000	0	0			0	0			1				0	
6.6.1	win	2023-06-02	07:19:30	07:24:33	301180	6168713d805efede55796d7f	3	1	main_slash	7	advance_on_keypress_SLASH	10	stimuli_distractor_diamondtriangles.svg	stimuli_distractor_trianglediamonds.svg	38	no	57	0	418	0	0			0	0			1				0	
6.6.1	win	2023-06-02	07:19:30	07:24:35	302756	6168713d805efede55796d7f	3	1	main_slash	7	main_slash	11	stimuli_target_squarediamonds.svg	stimuli_distractor_trianglediamonds.svg	4	yes	53	1	540	0	0			0	0			1				0	
6.6.1	win	2023-06-02	07:19:30	07:24:35	302756	6168713d805efede55796d7f	3	1	main_slash	7	advance_on_keypress_SLASH	12	stimuli_target_squarediamonds.svg	stimuli_distractor_trianglediamonds.svg	4	yes	57	0	526	0	0			0	0			1				0	
6.6.1	win	2023-06-02	07:19:30	07:24:37	304407	6168713d805efede55796d7f	3	1	main_slash	7	main_slash	13	stimuli_distractor_trianglediamonds.svg	stimuli_target_squarediamonds.svg	12	yes	53	1	513	0	0			0	0			1				0	
6.6.1	win	2023-06-02	07:19:30	07:24:37	304407	6168713d805efede55796d7f	3	1	main_slash	7	advance_on_keypress_SLASH	14	stimuli_distractor_trianglediamonds.svg	stimuli_target_squarediamonds.svg	12	yes	57	0	409	0	0			0	0			1				0	
6.6.1	win	2023-06-02	07:19:30	07:24:38	306059	6168713d805efede55796d7f	3	1	main_slash	7	main_slash	15	stimuli_distractor_diamondtriangles.svg	stimuli_target_rectangletriangles.svg	13	yes	53	1	631	0	0			0	0			1				0	
6.6.1	win	2023-06-02	07:19:30	07:24:38	306059	6168713d805efede55796d7f	3	1	main_slash	7	advance_on_keypress_SLASH	16	stimuli_distractor_diamondtriangles.svg	stimuli_target_rectangletriangles.svg	13	yes	57	0	401	0	0			0	0			1				0	
6.6.1	win	2023-06-02	07:19:30	07:24:41	309076	6168713d805efede55796d7f	3	1	main_slash	7	main_slash	17	stimuli_target_trianglerectangles.svg	stimuli_distractor_trianglediamonds.svg	17	yes	0	0	2000	0	0			0	0			1				0	
6.6.1	win	2023-06-02	07:19:30	07:24:41	309076	6168713d805efede55796d7f	3	1	main_slash	7	advance_on_keypress_SLASH	18	stimuli_target_trianglerectangles.svg	stimuli_distractor_trianglediamonds.svg	17	yes	57	0	480	0	0			0	0			1				0	
6.6.1	win	2023-06-02	07:19:30	07:24:44	312173	6168713d805efede55796d7f	3	1	main_slash	7	main_slash	19	stimuli_distractor_trianglediamonds.svg	stimuli_distractor_trianglediamonds.svg	33	no	0	1	2000	0	0			0	0			1				0	
6.6.1	win	2023-06-02	07:19:30	07:24:44	312173	6168713d805efede55796d7f	3	1	main_slash	7	advance_on_keypress_SLASH	20	stimuli_distractor_trianglediamonds.svg	stimuli_distractor_trianglediamonds.svg	33	no	57	0	319	0	0			0	0			1				0	
6.6.1	win	2023-06-02	07:19:30	07:24:46	313735	6168713d805efede55796d7f	3	1	main_slash	7	main_slash	21	stimuli_target_squaretriangles.svg	stimuli_distractor_diamondtriangles.svg	7	yes	53	1	629	0	0			0	0			1				0	
6.6.1	win	2023-06-02	07:19:30	07:24:46	313735	6168713d805efede55796d7f	3	1	main_slash	7	advance_on_keypress_SLASH	22	stimuli_target_squaretriangles.svg	stimuli_distractor_diamondtriangles.svg	7	yes	57	0	411	0	0			0	0			1				0	
6.6.1	win	2023-06-02	07:19:30	07:24:47	315348	6168713d805efede55796d7f	3	1	main_slash	7	main_slash	23	stimuli_distractor_diamondtriangles.svg	stimuli_target_rectanglediamonds.svg	14	yes	53	1	581	0	0			0	0			1				0	
6.6.1	win	2023-06-02	07:19:30	07:24:47	315348	6168713d805efede55796d7f	3	1	main_slash	7	advance_on_keypress_SLASH	24	stimuli_distractor_diamondtriangles.svg	stimuli_target_rectanglediamonds.svg	14	yes	57	0	379	0	0			0	0			1				0	
6.6.1	win	2023-06-02	07:19:30	07:24:50	318343	6168713d805efede55796d7f	3	1	main_slash	7	main_slash	25	stimuli_distractor_trianglediamonds.svg	stimuli_target_diamondsquares.svg	28	yes	0	0	2000	0	0			0	0			1				0	
6.6.1	win	2023-06-02	07:19:30	07:24:50	318343	6168713d805efede55796d7f	3	1	main_slash	7	advance_on_keypress_SLASH	26	stimuli_distractor_trianglediamonds.svg	stimuli_target_diamondsquares.svg	28	yes	57	0	477	0	0			0	0			1				0	
6.6.1	win	2023-06-02	07:19:30	07:24:52	319975	6168713d805efede55796d7f	3	1	main_slash	7	main_slash	27	stimuli_target_rectanglediamonds.svg	stimuli_distractor_diamondtriangles.svg	6	yes	53	1	542	0	0			0	0			1				0	
6.6.1	win	2023-06-02	07:19:30	07:24:52	319975	6168713d805efede55796d7f	3	1	main_slash	7	advance_on_keypress_SLASH	28	stimuli_target_rectanglediamonds.svg	stimuli_distractor_diamondtriangles.svg	6	yes	57	0	403	0	0			0	0			1				0	
6.6.1	win	2023-06-02	07:19:30	07:24:55	322991	6168713d805efede55796d7f	3	1	main_slash	7	main_slash	29	stimuli_target_diamondrectangles.svg	stimuli_distractor_diamondtriangles.svg	23	yes	0	0	2000	0	0			0	0			1				0	
6.6.1	win	2023-06-02	07:19:30	07:24:55	322991	6168713d805efede55796d7f	3	1	main_slash	7	advance_on_keypress_SLASH	30	stimuli_target_diamondrectangles.svg	stimuli_distractor_diamondtriangles.svg	23	yes	57	0	577	0	0			0	0			1				0	
6.6.1	win	2023-06-02	07:19:30	07:24:57	324965	6168713d805efede55796d7f	3	1	main_slash	7	main_slash	31	stimuli_distractor_trianglediamonds.svg	stimuli_target_trianglesquares.svg	26	yes	53	1	780	0	0			0	0			1				0	
6.6.1	win	2023-06-02	07:19:30	07:24:57	324965	6168713d805efede55796d7f	3	1	main_slash	7	advance_on_keypress_SLASH	32	stimuli_distractor_trianglediamonds.svg	stimuli_target_trianglesquares.svg	26	yes	57	0	613	0	0			0	0			1				0	
6.6.1	win	2023-06-02	07:19:30	07:24:59	327021	6168713d805efede55796d7f	3	1	main_slash	7	main_slash	33	stimuli_distractor_trianglediamonds.svg	stimuli_target_rectanglediamonds.svg	10	yes	53	1	830	0	0			0	0			1				0	
6.6.1	win	2023-06-02	07:19:30	07:24:59	327021	6168713d805efede55796d7f	3	1	main_slash	7	advance_on_keypress_SLASH	34	stimuli_distractor_trianglediamonds.svg	stimuli_target_rectanglediamonds.svg	10	yes	57	0	449	0	0			0	0			1				0	
6.6.1	win	2023-06-02	07:19:30	07:25:02	330088	6168713d805efede55796d7f	3	1	main_slash	7	main_slash	35	stimuli_distractor_diamondtriangles.svg	stimuli_target_diamondsquares.svg	32	yes	0	0	2000	0	0			0	0			1				0	
6.6.1	win	2023-06-02	07:19:30	07:25:02	330088	6168713d805efede55796d7f	3	1	main_slash	7	advance_on_keypress_SLASH	36	stimuli_distractor_diamondtriangles.svg	stimuli_target_diamondsquares.svg	32	yes	57	0	507	0	0			0	0			1				0	
6.6.1	win	2023-06-02	07:19:30	07:25:05	333215	6168713d805efede55796d7f	3	1	main_slash	7	main_slash	37	stimuli_distractor_trianglediamonds.svg	stimuli_distractor_diamondtriangles.svg	35	no	0	1	2000	0	0			0	0			1				0	
6.6.1	win	2023-06-02	07:19:30	07:25:05	333215	6168713d805efede55796d7f	3	1	main_slash	7	advance_on_keypress_SLASH	38	stimuli_distractor_trianglediamonds.svg	stimuli_distractor_diamondtriangles.svg	35	no	57	0	441	0	0			0	0			1				0	
6.6.1	win	2023-06-02	07:19:30	07:25:08	336270	6168713d805efede55796d7f	3	1	main_slash	7	main_slash	39	stimuli_target_diamondsquares.svg	stimuli_distractor_diamondtriangles.svg	24	yes	0	0	2000	0	0			0	0			1				0	
6.6.1	win	2023-06-02	07:19:30	07:25:08	336270	6168713d805efede55796d7f	3	1	main_slash	7	advance_on_keypress_SLASH	40	stimuli_target_diamondsquares.svg	stimuli_distractor_diamondtriangles.svg	24	yes	57	0	958	0	0			0	0			1				0	
6.6.1	win	2023-06-02	07:19:30	07:25:11	338406	6168713d805efede55796d7f	3	1	main_slash	7	main_slash	41	stimuli_target_rectanglediamonds.svg	stimuli_distractor_trianglediamonds.svg	2	yes	53	1	561	0	0			0	0			1				0	
6.6.1	win	2023-06-02	07:19:30	07:25:11	338406	6168713d805efede55796d7f	3	1	main_slash	7	advance_on_keypress_SLASH	42	stimuli_target_rectanglediamonds.svg	stimuli_distractor_trianglediamonds.svg	2	yes	57	0	699	0	0			0	0			1				0	
6.6.1	win	2023-06-02	07:19:30	07:25:13	340375	6168713d805efede55796d7f	3	1	main_slash	7	main_slash	43	stimuli_target_squarediamonds.svg	stimuli_distractor_diamondtriangles.svg	8	yes	53	1	657	0	0			0	0			1				0	
6.6.1	win	2023-06-02	07:19:30	07:25:13	340375	6168713d805efede55796d7f	3	1	main_slash	7	advance_on_keypress_SLASH	44	stimuli_target_squarediamonds.svg	stimuli_distractor_diamondtriangles.svg	8	yes	57	0	525	0	0			0	0			1				0	
6.6.1	win	2023-06-02	07:19:30	07:25:16	343512	6168713d805efede55796d7f	3	1	main_slash	7	main_slash	45	stimuli_distractor_diamondtriangles.svg	stimuli_target_squarediamonds.svg	16	yes	0	0	2000	0	0			0	0			1				0	
6.6.1	win	2023-06-02	07:19:30	07:25:16	343512	6168713d805efede55796d7f	3	1	main_slash	7	advance_on_keypress_SLASH	46	stimuli_distractor_diamondtriangles.svg	stimuli_target_squarediamonds.svg	16	yes	57	0	367	0	0			0	0			1				0	
6.6.1	win	2023-06-02	07:19:30	07:25:19	346493	6168713d805efede55796d7f	3	1	main_slash	7	main_slash	47	stimuli_distractor_trianglediamonds.svg	stimuli_target_diamondrectangles.svg	27	yes	0	0	2000	0	0			0	0			1				0	
6.6.1	win	2023-06-02	07:19:30	07:25:19	346493	6168713d805efede55796d7f	3	1	main_slash	7	advance_on_keypress_SLASH	48	stimuli_distractor_trianglediamonds.svg	stimuli_target_diamondrectangles.svg	27	yes	57	0	541	0	0			0	0			1				0	
6.6.1	win	2023-06-02	07:19:30	07:25:21	348447	6168713d805efede55796d7f	3	1	main_slash	7	main_slash	49	stimuli_target_diamondsquares.svg	stimuli_distractor_trianglediamonds.svg	20	yes	53	1	796	0	0			0	0			1				0	
6.6.1	win	2023-06-02	07:19:30	07:25:21	348447	6168713d805efede55796d7f	3	1	main_slash	7	advance_on_keypress_SLASH	50	stimuli_target_diamondsquares.svg	stimuli_distractor_trianglediamonds.svg	20	yes	57	0	552	0	0			0	0			1				0	
6.6.1	win	2023-06-02	07:19:30	07:25:24	351614	6168713d805efede55796d7f	3	1	main_slash	7	main_slash	51	stimuli_distractor_trianglediamonds.svg	stimuli_target_rectangletriangles.svg	9	yes	0	0	2000	0	0			0	0			1				0	
6.6.1	win	2023-06-02	07:19:30	07:25:24	351614	6168713d805efede55796d7f	3	1	main_slash	7	advance_on_keypress_SLASH	52	stimuli_distractor_trianglediamonds.svg	stimuli_target_rectangletriangles.svg	9	yes	57	0	292	0	0			0	0			1				0	
6.6.1	win	2023-06-02	07:19:30	07:25:27	354524	6168713d805efede55796d7f	3	1	main_slash	7	main_slash	53	stimuli_target_diamondrectangles.svg	stimuli_distractor_trianglediamonds.svg	19	yes	0	0	2000	0	0			0	0			1				0	
6.6.1	win	2023-06-02	07:19:30	07:25:27	354524	6168713d805efede55796d7f	3	1	main_slash	7	advance_on_keypress_SLASH	54	stimuli_target_diamondrectangles.svg	stimuli_distractor_trianglediamonds.svg	19	yes	57	0	372	0	0			0	0			1				0	
6.6.1	win	2023-06-02	07:19:30	07:25:28	356273	6168713d805efede55796d7f	3	1	main_slash	7	main_slash	55	stimuli_distractor_trianglediamonds.svg	stimuli_target_trianglerectangles.svg	25	yes	53	1	762	0	0			0	0			1				0	
6.6.1	win	2023-06-02	07:19:30	07:25:28	356273	6168713d805efede55796d7f	3	1	main_slash	7	advance_on_keypress_SLASH	56	stimuli_distractor_trianglediamonds.svg	stimuli_target_trianglerectangles.svg	25	yes	57	0	691	0	0			0	0			1				0	
6.6.1	win	2023-06-02	07:19:30	07:25:30	358331	6168713d805efede55796d7f	3	1	main_slash	7	main_slash	57	stimuli_target_trianglesquares.svg	stimuli_distractor_trianglediamonds.svg	18	yes	53	1	753	0	0			0	0			1				0	
6.6.1	win	2023-06-02	07:19:30	07:25:30	358331	6168713d805efede55796d7f	3	1	main_slash	7	advance_on_keypress_SLASH	58	stimuli_target_trianglesquares.svg	stimuli_distractor_trianglediamonds.svg	18	yes	57	0	478	0	0			0	0			1				0	
6.6.1	win	2023-06-02	07:19:30	07:25:34	361426	6168713d805efede55796d7f	3	1	main_slash	7	main_slash	59	stimuli_distractor_diamondtriangles.svg	stimuli_target_diamondrectangles.svg	31	yes	0	0	2000	0	0			0	0			1				0	
6.6.1	win	2023-06-02	07:19:30	07:25:34	361426	6168713d805efede55796d7f	3	1	main_slash	7	advance_on_keypress_SLASH	60	stimuli_distractor_diamondtriangles.svg	stimuli_target_diamondrectangles.svg	31	yes	57	0	647	0	0			0	0			1				0	
6.6.1	win	2023-06-02	07:19:30	07:25:37	364687	6168713d805efede55796d7f	3	1	main_slash	7	main_slash	61	stimuli_distractor_diamondtriangles.svg	stimuli_distractor_trianglediamonds.svg	37	no	0	1	2000	0	0			0	0			1				0	
6.6.1	win	2023-06-02	07:19:30	07:25:37	364687	6168713d805efede55796d7f	3	1	main_slash	7	advance_on_keypress_SLASH	62	stimuli_distractor_diamondtriangles.svg	stimuli_distractor_trianglediamonds.svg	37	no	57	0	822	0	0			0	0			1				0	
6.6.1	win	2023-06-02	07:19:30	07:25:40	368123	6168713d805efede55796d7f	3	1	main_slash	7	main_slash	63	stimuli_target_rectangletriangles.svg	stimuli_distractor_trianglediamonds.svg	1	yes	0	0	2000	0	0			0	0			1				0	
6.6.1	win	2023-06-02	07:19:30	07:25:40	368123	6168713d805efede55796d7f	3	1	main_slash	7	advance_on_keypress_SLASH	64	stimuli_target_rectangletriangles.svg	stimuli_distractor_trianglediamonds.svg	1	yes	57	0	697	0	0			0	0			1				0	
6.6.1	win	2023-06-02	07:19:30	07:25:42	370309	6168713d805efede55796d7f	3	1	main_slash	7	main_slash	65	stimuli_target_trianglerectangles.svg	stimuli_distractor_diamondtriangles.svg	21	yes	53	1	871	0	0			0	0			1				0	
6.6.1	win	2023-06-02	07:19:30	07:25:42	370309	6168713d805efede55796d7f	3	1	main_slash	7	advance_on_keypress_SLASH	66	stimuli_target_trianglerectangles.svg	stimuli_distractor_diamondtriangles.svg	21	yes	57	0	602	0	0			0	0			1				0	
6.6.1	win	2023-06-02	07:19:30	07:25:46	373523	6168713d805efede55796d7f	3	1	main_slash	7	main_slash	67	stimuli_target_rectangletriangles.svg	stimuli_distractor_diamondtriangles.svg	5	yes	0	0	2000	0	0			0	0			1				0	
6.6.1	win	2023-06-02	07:19:30	07:25:46	373523	6168713d805efede55796d7f	3	1	main_slash	7	advance_on_keypress_SLASH	68	stimuli_target_rectangletriangles.svg	stimuli_distractor_diamondtriangles.svg	5	yes	57	0	966	0	0			0	0			1				0	
6.6.1	win	2023-06-02	07:19:30	07:25:49	377105	6168713d805efede55796d7f	3	1	main_slash	7	main_slash	69	stimuli_distractor_diamondtriangles.svg	stimuli_distractor_diamondtriangles.svg	39	no	0	1	2000	0	0			0	0			1				0	
6.6.1	win	2023-06-02	07:19:30	07:25:49	377105	6168713d805efede55796d7f	3	1	main_slash	7	advance_on_keypress_SLASH	70	stimuli_distractor_diamondtriangles.svg	stimuli_distractor_diamondtriangles.svg	39	no	57	0	897	0	0			0	0			1				0	
6.6.1	win	2023-06-02	07:19:30	07:25:52	379386	6168713d805efede55796d7f	3	1	main_slash	7	main_slash	71	stimuli_distractor_diamondtriangles.svg	stimuli_target_trianglerectangles.svg	29	yes	53	1	767	0	0			0	0			1				0	
6.6.1	win	2023-06-02	07:19:30	07:25:52	379386	6168713d805efede55796d7f	3	1	main_slash	7	advance_on_keypress_SLASH	72	stimuli_distractor_diamondtriangles.svg	stimuli_target_trianglerectangles.svg	29	yes	57	0	563	0	0			0	0			1				0	
6.6.1	win	2023-06-02	07:19:30	07:25:53	381342	6168713d805efede55796d7f	3	1	main_slash	7	main_slash	73	stimuli_target_trianglesquares.svg	stimuli_distractor_diamondtriangles.svg	22	yes	53	1	777	0	0			0	0			1				0	
6.6.1	win	2023-06-02	07:19:30	07:25:53	381342	6168713d805efede55796d7f	3	1	main_slash	7	advance_on_keypress_SLASH	74	stimuli_target_trianglesquares.svg	stimuli_distractor_diamondtriangles.svg	22	yes	57	0	488	0	0			0	0			1				0	
6.6.1	win	2023-06-02	07:19:30	07:25:55	383096	6168713d805efede55796d7f	3	1	main_slash	7	main_slash	75	stimuli_distractor_diamondtriangles.svg	stimuli_target_trianglesquares.svg	30	yes	53	1	653	0	0			0	0			1				0	
6.6.1	win	2023-06-02	07:19:30	07:25:55	383096	6168713d805efede55796d7f	3	1	main_slash	7	advance_on_keypress_SLASH	76	stimuli_distractor_diamondtriangles.svg	stimuli_target_trianglesquares.svg	30	yes	57	0	439	0	0			0	0			1				0	
6.6.1	win	2023-06-02	07:19:30	07:25:58	386147	6168713d805efede55796d7f	3	1	main_slash	7	main_slash	77	stimuli_distractor_trianglediamonds.svg	stimuli_target_squaretriangles.svg	11	yes	0	0	2000	0	0			0	0			1				0	
6.6.1	win	2023-06-02	07:19:30	07:25:58	386147	6168713d805efede55796d7f	3	1	main_slash	7	advance_on_keypress_SLASH	78	stimuli_distractor_trianglediamonds.svg	stimuli_target_squaretriangles.svg	11	yes	57	0	478	0	0			0	0			1				0	
6.6.1	win	2023-06-02	07:19:30	07:26:01	389244	6168713d805efede55796d7f	3	1	main_slash	7	main_slash	79	stimuli_distractor_trianglediamonds.svg	stimuli_distractor_trianglediamonds.svg	34	no	0	1	2000	0	0			0	0			1				0	
6.6.1	win	2023-06-02	07:19:30	07:26:01	389244	6168713d805efede55796d7f	3	1	main_slash	7	advance_on_keypress_SLASH	80	stimuli_distractor_trianglediamonds.svg	stimuli_distractor_trianglediamonds.svg	34	no	57	0	370	0	0			0	0			1				0	
6.6.1	win	2023-06-02	07:19:30	07:26:04	392231	6168713d805efede55796d7f	3	1	main_slash	7	main_slash	81	stimuli_distractor_trianglediamonds.svg	stimuli_target_rectanglediamonds.svg	10	yes	0	0	2000	0	0			0	0			1				0	
6.6.1	win	2023-06-02	07:19:30	07:26:04	392231	6168713d805efede55796d7f	3	1	main_slash	7	advance_on_keypress_SLASH	82	stimuli_distractor_trianglediamonds.svg	stimuli_target_rectanglediamonds.svg	10	yes	57	0	434	0	0			0	0			1				0	
6.6.1	win	2023-06-02	07:19:30	07:26:07	395280	6168713d805efede55796d7f	3	1	main_slash	7	main_slash	83	stimuli_target_rectangletriangles.svg	stimuli_distractor_trianglediamonds.svg	1	yes	0	0	2000	0	0			0	0			1				0	
6.6.1	win	2023-06-02	07:19:30	07:26:07	395280	6168713d805efede55796d7f	3	1	main_slash	7	advance_on_keypress_SLASH	84	stimuli_target_rectangletriangles.svg	stimuli_distractor_trianglediamonds.svg	1	yes	57	0	355	0	0			0	0			1				0	
6.6.1	win	2023-06-02	07:19:30	07:26:10	397648	6168713d805efede55796d7f	3	1	main_slash	7	main_slash	85	stimuli_distractor_trianglediamonds.svg	stimuli_target_diamondrectangles.svg	27	yes	53	1	1399	0	0			0	0			1				0	
6.6.1	win	2023-06-02	07:19:30	07:26:10	397648	6168713d805efede55796d7f	3	1	main_slash	7	advance_on_keypress_SLASH	86	stimuli_distractor_trianglediamonds.svg	stimuli_target_diamondrectangles.svg	27	yes	57	0	517	0	0			0	0			1				0	
6.6.1	win	2023-06-02	07:19:30	07:26:13	400783	6168713d805efede55796d7f	3	1	main_slash	7	main_slash	87	stimuli_distractor_trianglediamonds.svg	stimuli_distractor_trianglediamonds.svg	34	no	0	1	2000	0	0			0	0			1				0	
6.6.1	win	2023-06-02	07:19:30	07:26:13	400783	6168713d805efede55796d7f	3	1	main_slash	7	advance_on_keypress_SLASH	88	stimuli_distractor_trianglediamonds.svg	stimuli_distractor_trianglediamonds.svg	34	no	57	0	271	0	0			0	0			1				0	
6.6.1	win	2023-06-02	07:19:30	07:26:16	403668	6168713d805efede55796d7f	3	1	main_slash	7	main_slash	89	stimuli_distractor_trianglediamonds.svg	stimuli_target_squaretriangles.svg	11	yes	0	0	2000	0	0			0	0			1				0	
6.6.1	win	2023-06-02	07:19:30	07:26:16	403668	6168713d805efede55796d7f	3	1	main_slash	7	advance_on_keypress_SLASH	90	stimuli_distractor_trianglediamonds.svg	stimuli_target_squaretriangles.svg	11	yes	57	0	272	0	0			0	0			1				0	
6.6.1	win	2023-06-02	07:19:30	07:26:17	405194	6168713d805efede55796d7f	3	1	main_slash	7	main_slash	91	stimuli_target_rectangletriangles.svg	stimuli_distractor_diamondtriangles.svg	5	yes	53	1	636	0	0			0	0			1				0	
6.6.1	win	2023-06-02	07:19:30	07:26:17	405194	6168713d805efede55796d7f	3	1	main_slash	7	advance_on_keypress_SLASH	92	stimuli_target_rectangletriangles.svg	stimuli_distractor_diamondtriangles.svg	5	yes	57	0	527	0	0			0	0			1				0	
6.6.1	win	2023-06-02	07:19:30	07:26:19	406989	6168713d805efede55796d7f	3	1	main_slash	7	main_slash	93	stimuli_distractor_diamondtriangles.svg	stimuli_target_squaretriangles.svg	15	yes	53	1	649	0	0			0	0			1				0	
6.6.1	win	2023-06-02	07:19:30	07:26:19	406989	6168713d805efede55796d7f	3	1	main_slash	7	advance_on_keypress_SLASH	94	stimuli_distractor_diamondtriangles.svg	stimuli_target_squaretriangles.svg	15	yes	57	0	465	0	0			0	0			1				0	
6.6.1	win	2023-06-02	07:19:30	07:26:21	408627	6168713d805efede55796d7f	3	1	main_slash	7	main_slash	95	stimuli_distractor_diamondtriangles.svg	stimuli_target_rectanglediamonds.svg	14	yes	53	1	560	0	0			0	0			1				0	
6.6.1	win	2023-06-02	07:19:30	07:26:21	408627	6168713d805efede55796d7f	3	1	main_slash	7	advance_on_keypress_SLASH	96	stimuli_distractor_diamondtriangles.svg	stimuli_target_rectanglediamonds.svg	14	yes	57	0	456	0	0			0	0			1				0	
6.6.1	win	2023-06-02	07:19:30	07:26:22	410142	6168713d805efede55796d7f	3	1	main_slash	7	main_slash	97	stimuli_target_rectanglediamonds.svg	stimuli_distractor_diamondtriangles.svg	6	yes	53	1	445	0	0			0	0			1				0	
6.6.1	win	2023-06-02	07:19:30	07:26:22	410142	6168713d805efede55796d7f	3	1	main_slash	7	advance_on_keypress_SLASH	98	stimuli_target_rectanglediamonds.svg	stimuli_distractor_diamondtriangles.svg	6	yes	57	0	423	0	0			0	0			1				0	
6.6.1	win	2023-06-02	07:19:30	07:26:25	413182	6168713d805efede55796d7f	3	1	main_slash	7	main_slash	99	stimuli_target_trianglesquares.svg	stimuli_distractor_diamondtriangles.svg	22	yes	0	0	2000	0	0			0	0			1				0	
6.6.1	win	2023-06-02	07:19:30	07:26:25	413182	6168713d805efede55796d7f	3	1	main_slash	7	advance_on_keypress_SLASH	100	stimuli_target_trianglesquares.svg	stimuli_distractor_diamondtriangles.svg	22	yes	57	0	386	0	0			0	0			1				0	
6.6.1	win	2023-06-02	07:19:30	07:26:27	414793	6168713d805efede55796d7f	3	1	main_slash	7	main_slash	101	stimuli_distractor_diamondtriangles.svg	stimuli_target_trianglesquares.svg	30	yes	53	1	611	0	0			0	0			1				0	
6.6.1	win	2023-06-02	07:19:30	07:26:27	414793	6168713d805efede55796d7f	3	1	main_slash	7	advance_on_keypress_SLASH	102	stimuli_distractor_diamondtriangles.svg	stimuli_target_trianglesquares.svg	30	yes	57	0	533	0	0			0	0			1				0	
6.6.1	win	2023-06-02	07:19:30	07:26:30	417946	6168713d805efede55796d7f	3	1	main_slash	7	main_slash	103	stimuli_distractor_trianglediamonds.svg	stimuli_target_rectangletriangles.svg	9	yes	0	0	2000	0	0			0	0			1				0	
6.6.1	win	2023-06-02	07:19:30	07:26:30	417946	6168713d805efede55796d7f	3	1	main_slash	7	advance_on_keypress_SLASH	104	stimuli_distractor_trianglediamonds.svg	stimuli_target_rectangletriangles.svg	9	yes	57	0	309	0	0			0	0			1				0	
6.6.1	win	2023-06-02	07:19:30	07:26:32	419409	6168713d805efede55796d7f	3	1	main_slash	7	main_slash	105	stimuli_distractor_trianglediamonds.svg	stimuli_target_trianglesquares.svg	26	yes	53	1	536	0	0			0	0			1				0	
6.6.1	win	2023-06-02	07:19:30	07:26:32	419409	6168713d805efede55796d7f	3	1	main_slash	7	advance_on_keypress_SLASH	106	stimuli_distractor_trianglediamonds.svg	stimuli_target_trianglesquares.svg	26	yes	57	0	476	0	0			0	0			1				0	
6.6.1	win	2023-06-02	07:19:30	07:26:33	421131	6168713d805efede55796d7f	3	1	main_slash	7	main_slash	107	stimuli_distractor_diamondtriangles.svg	stimuli_target_diamondrectangles.svg	31	yes	53	1	634	0	0			0	0			1				0	
6.6.1	win	2023-06-02	07:19:30	07:26:33	421131	6168713d805efede55796d7f	3	1	main_slash	7	advance_on_keypress_SLASH	108	stimuli_distractor_diamondtriangles.svg	stimuli_target_diamondrectangles.svg	31	yes	57	0	350	0	0			0	0			1				0	
6.6.1	win	2023-06-02	07:19:30	07:26:36	424091	6168713d805efede55796d7f	3	1	main_slash	7	main_slash	109	stimuli_distractor_diamondtriangles.svg	stimuli_distractor_diamondtriangles.svg	40	no	0	1	2000	0	0			0	0			1				0	
6.6.1	win	2023-06-02	07:19:30	07:26:36	424091	6168713d805efede55796d7f	3	1	main_slash	7	advance_on_keypress_SLASH	110	stimuli_distractor_diamondtriangles.svg	stimuli_distractor_diamondtriangles.svg	40	no	57	0	427	0	0			0	0			1				0	
6.6.1	win	2023-06-02	07:19:30	07:26:38	425719	6168713d805efede55796d7f	3	1	main_slash	7	main_slash	111	stimuli_distractor_diamondtriangles.svg	stimuli_target_diamondsquares.svg	32	yes	53	1	586	0	0			0	0			1				0	
6.6.1	win	2023-06-02	07:19:30	07:26:38	425719	6168713d805efede55796d7f	3	1	main_slash	7	advance_on_keypress_SLASH	112	stimuli_distractor_diamondtriangles.svg	stimuli_target_diamondsquares.svg	32	yes	57	0	446	0	0			0	0			1				0	
6.6.1	win	2023-06-02	07:19:30	07:26:39	427350	6168713d805efede55796d7f	3	1	main_slash	7	main_slash	113	stimuli_target_trianglerectangles.svg	stimuli_distractor_trianglediamonds.svg	17	yes	53	1	575	0	0			0	0			1				0	
6.6.1	win	2023-06-02	07:19:30	07:26:39	427350	6168713d805efede55796d7f	3	1	main_slash	7	advance_on_keypress_SLASH	114	stimuli_target_trianglerectangles.svg	stimuli_distractor_trianglediamonds.svg	17	yes	57	0	487	0	0			0	0			1				0	
6.6.1	win	2023-06-02	07:19:30	07:26:43	430454	6168713d805efede55796d7f	3	1	main_slash	7	main_slash	115	stimuli_distractor_trianglediamonds.svg	stimuli_distractor_trianglediamonds.svg	33	no	0	1	2000	0	0			0	0			1				0	
6.6.1	win	2023-06-02	07:19:30	07:26:43	430454	6168713d805efede55796d7f	3	1	main_slash	7	advance_on_keypress_SLASH	116	stimuli_distractor_trianglediamonds.svg	stimuli_distractor_trianglediamonds.svg	33	no	57	0	344	0	0			0	0			1				0	
6.6.1	win	2023-06-02	07:19:30	07:26:44	431946	6168713d805efede55796d7f	3	1	main_slash	7	main_slash	117	stimuli_distractor_diamondtriangles.svg	stimuli_target_trianglerectangles.svg	29	yes	53	1	533	0	0			0	0			1				0	
6.6.1	win	2023-06-02	07:19:30	07:26:44	431946	6168713d805efede55796d7f	3	1	main_slash	7	advance_on_keypress_SLASH	118	stimuli_distractor_diamondtriangles.svg	stimuli_target_trianglerectangles.svg	29	yes	57	0	461	0	0			0	0			1				0	
6.6.1	win	2023-06-02	07:19:30	07:26:47	435024	6168713d805efede55796d7f	3	1	main_slash	7	main_slash	119	stimuli_distractor_diamondtriangles.svg	stimuli_target_rectangletriangles.svg	13	yes	0	0	2000	0	0			0	0			1				0	
6.6.1	win	2023-06-02	07:19:30	07:26:47	435024	6168713d805efede55796d7f	3	1	main_slash	7	advance_on_keypress_SLASH	120	stimuli_distractor_diamondtriangles.svg	stimuli_target_rectangletriangles.svg	13	yes	57	0	660	0	0			0	0			1				0	
6.6.1	win	2023-06-02	07:19:30	07:26:50	437386	6168713d805efede55796d7f	3	1	main_slash	7	main_slash	121	stimuli_distractor_trianglediamonds.svg	stimuli_target_diamondsquares.svg	28	yes	53	1	1083	0	0			0	0			1				0	
6.6.1	win	2023-06-02	07:19:30	07:26:50	437386	6168713d805efede55796d7f	3	1	main_slash	7	advance_on_keypress_SLASH	122	stimuli_distractor_trianglediamonds.svg	stimuli_target_diamondsquares.svg	28	yes	57	0	416	0	0			0	0			1				0	
6.6.1	win	2023-06-02	07:19:30	07:26:53	440412	6168713d805efede55796d7f	3	1	main_slash	7	main_slash	123	stimuli_target_squarediamonds.svg	stimuli_distractor_diamondtriangles.svg	8	yes	0	0	2000	0	0			0	0			1				0	
6.6.1	win	2023-06-02	07:19:30	07:26:53	440412	6168713d805efede55796d7f	3	1	main_slash	7	advance_on_keypress_SLASH	124	stimuli_target_squarediamonds.svg	stimuli_distractor_diamondtriangles.svg	8	yes	57	0	661	0	0			0	0			1				0	
6.6.1	win	2023-06-02	07:19:30	07:26:55	442384	6168713d805efede55796d7f	3	1	main_slash	7	main_slash	125	stimuli_target_diamondrectangles.svg	stimuli_distractor_diamondtriangles.svg	23	yes	53	1	694	0	0			0	0			1				0	
6.6.1	win	2023-06-02	07:19:30	07:26:55	442384	6168713d805efede55796d7f	3	1	main_slash	7	advance_on_keypress_SLASH	126	stimuli_target_diamondrectangles.svg	stimuli_distractor_diamondtriangles.svg	23	yes	57	0	410	0	0			0	0			1				0	
6.6.1	win	2023-06-02	07:19:30	07:26:58	445367	6168713d805efede55796d7f	3	1	main_slash	7	main_slash	127	stimuli_target_squarediamonds.svg	stimuli_distractor_trianglediamonds.svg	4	yes	53	1	1962	0	0			0	0			1				0	
6.6.1	win	2023-06-02	07:19:30	07:26:58	445367	6168713d805efede55796d7f	3	1	main_slash	7	advance_on_keypress_SLASH	128	stimuli_target_squarediamonds.svg	stimuli_distractor_trianglediamonds.svg	4	yes	57	0	442	0	0			0	0			1				0	
6.6.1	win	2023-06-02	07:19:30	07:26:59	447126	6168713d805efede55796d7f	3	1	main_slash	7	main_slash	129	stimuli_distractor_diamondtriangles.svg	stimuli_target_squarediamonds.svg	16	yes	53	1	703	0	0			0	0			1				0	
6.6.1	win	2023-06-02	07:19:30	07:26:59	447126	6168713d805efede55796d7f	3	1	main_slash	7	advance_on_keypress_SLASH	130	stimuli_distractor_diamondtriangles.svg	stimuli_target_squarediamonds.svg	16	yes	57	0	343	0	0			0	0			1				0	
6.6.1	win	2023-06-02	07:19:30	07:27:01	448669	6168713d805efede55796d7f	3	1	main_slash	7	main_slash	131	stimuli_distractor_trianglediamonds.svg	stimuli_target_squarediamonds.svg	12	yes	53	1	585	0	0			0	0			1				0	
6.6.1	win	2023-06-02	07:19:30	07:27:01	448669	6168713d805efede55796d7f	3	1	main_slash	7	advance_on_keypress_SLASH	132	stimuli_distractor_trianglediamonds.svg	stimuli_target_squarediamonds.svg	12	yes	57	0	363	0	0			0	0			1				0	
6.6.1	win	2023-06-02	07:19:30	07:27:04	451648	6168713d805efede55796d7f	3	1	main_slash	7	main_slash	133	stimuli_distractor_trianglediamonds.svg	stimuli_distractor_diamondtriangles.svg	36	no	0	1	2000	0	0			0	0			1				0	
6.6.1	win	2023-06-02	07:19:30	07:27:04	451648	6168713d805efede55796d7f	3	1	main_slash	7	advance_on_keypress_SLASH	134	stimuli_distractor_trianglediamonds.svg	stimuli_distractor_diamondtriangles.svg	36	no	57	0	325	0	0			0	0			1				0	
6.6.1	win	2023-06-02	07:19:30	07:27:05	453131	6168713d805efede55796d7f	3	1	main_slash	7	main_slash	135	stimuli_target_squaretriangles.svg	stimuli_distractor_trianglediamonds.svg	3	yes	53	1	544	0	0			0	0			1				0	
6.6.1	win	2023-06-02	07:19:30	07:27:05	453131	6168713d805efede55796d7f	3	1	main_slash	7	advance_on_keypress_SLASH	136	stimuli_target_squaretriangles.svg	stimuli_distractor_trianglediamonds.svg	3	yes	57	0	408	0	0			0	0			1				0	
6.6.1	win	2023-06-02	07:19:30	07:27:08	456157	6168713d805efede55796d7f	3	1	main_slash	7	main_slash	137	stimuli_distractor_diamondtriangles.svg	stimuli_distractor_diamondtriangles.svg	39	no	0	1	2000	0	0			0	0			1				0	
6.6.1	win	2023-06-02	07:19:30	07:27:08	456157	6168713d805efede55796d7f	3	1	main_slash	7	advance_on_keypress_SLASH	138	stimuli_distractor_diamondtriangles.svg	stimuli_distractor_diamondtriangles.svg	39	no	57	0	496	0	0			0	0			1				0	
6.6.1	win	2023-06-02	07:19:30	07:27:10	457765	6168713d805efede55796d7f	3	1	main_slash	7	main_slash	139	stimuli_target_squaretriangles.svg	stimuli_distractor_diamondtriangles.svg	7	yes	53	1	494	0	0			0	0			1				0	
6.6.1	win	2023-06-02	07:19:30	07:27:10	457765	6168713d805efede55796d7f	3	1	main_slash	7	advance_on_keypress_SLASH	140	stimuli_target_squaretriangles.svg	stimuli_distractor_diamondtriangles.svg	7	yes	57	0	335	0	0			0	0			1				0	
6.6.1	win	2023-06-02	07:19:30	07:27:13	460714	6168713d805efede55796d7f	3	1	main_slash	7	main_slash	141	stimuli_target_diamondsquares.svg	stimuli_distractor_trianglediamonds.svg	20	yes	0	0	2000	0	0			0	0			1				0	
6.6.1	win	2023-06-02	07:19:30	07:27:13	460714	6168713d805efede55796d7f	3	1	main_slash	7	advance_on_keypress_SLASH	142	stimuli_target_diamondsquares.svg	stimuli_distractor_trianglediamonds.svg	20	yes	57	0	409	0	0			0	0			1				0	
6.6.1	win	2023-06-02	07:19:30	07:27:16	463738	6168713d805efede55796d7f	3	1	main_slash	7	main_slash	143	stimuli_distractor_diamondtriangles.svg	stimuli_distractor_trianglediamonds.svg	37	no	0	1	2000	0	0			0	0			1				0	
6.6.1	win	2023-06-02	07:19:30	07:27:16	463738	6168713d805efede55796d7f	3	1	main_slash	7	advance_on_keypress_SLASH	144	stimuli_distractor_diamondtriangles.svg	stimuli_distractor_trianglediamonds.svg	37	no	57	0	243	0	0			0	0			1				0	
6.6.1	win	2023-06-02	07:19:30	07:27:17	465205	6168713d805efede55796d7f	3	1	main_slash	7	main_slash	145	stimuli_target_diamondsquares.svg	stimuli_distractor_diamondtriangles.svg	24	yes	53	1	607	0	0			0	0			1				0	
6.6.1	win	2023-06-02	07:19:30	07:27:17	465205	6168713d805efede55796d7f	3	1	main_slash	7	advance_on_keypress_SLASH	146	stimuli_target_diamondsquares.svg	stimuli_distractor_diamondtriangles.svg	24	yes	57	0	462	0	0			0	0			1				0	
6.6.1	win	2023-06-02	07:19:30	07:27:19	466805	6168713d805efede55796d7f	3	1	main_slash	7	main_slash	147	stimuli_target_trianglesquares.svg	stimuli_distractor_trianglediamonds.svg	18	yes	53	1	522	0	0			0	0			1				0	
6.6.1	win	2023-06-02	07:19:30	07:27:19	466805	6168713d805efede55796d7f	3	1	main_slash	7	advance_on_keypress_SLASH	148	stimuli_target_trianglesquares.svg	stimuli_distractor_trianglediamonds.svg	18	yes	57	0	416	0	0			0	0			1				0	
6.6.1	win	2023-06-02	07:19:30	07:27:21	468357	6168713d805efede55796d7f	3	1	main_slash	7	main_slash	149	stimuli_target_trianglerectangles.svg	stimuli_distractor_diamondtriangles.svg	21	yes	53	1	522	0	0			0	0			1				0	
6.6.1	win	2023-06-02	07:19:30	07:27:21	468357	6168713d805efede55796d7f	3	1	main_slash	7	advance_on_keypress_SLASH	150	stimuli_target_trianglerectangles.svg	stimuli_distractor_diamondtriangles.svg	21	yes	57	0	330	0	0			0	0			1				0	
6.6.1	win	2023-06-02	07:19:30	07:27:23	471302	6168713d805efede55796d7f	3	1	main_slash	7	main_slash	151	stimuli_distractor_trianglediamonds.svg	stimuli_distractor_diamondtriangles.svg	35	no	0	1	2000	0	0			0	0			1				0	
6.6.1	win	2023-06-02	07:19:30	07:27:23	471302	6168713d805efede55796d7f	3	1	main_slash	7	advance_on_keypress_SLASH	152	stimuli_distractor_trianglediamonds.svg	stimuli_distractor_diamondtriangles.svg	35	no	57	0	349	0	0			0	0			1				0	
6.6.1	win	2023-06-02	07:19:30	07:27:26	474265	6168713d805efede55796d7f	3	1	main_slash	7	main_slash	153	stimuli_target_rectanglediamonds.svg	stimuli_distractor_trianglediamonds.svg	2	yes	0	0	2000	0	0			0	0			1				0	
6.6.1	win	2023-06-02	07:19:30	07:27:26	474265	6168713d805efede55796d7f	3	1	main_slash	7	advance_on_keypress_SLASH	154	stimuli_target_rectanglediamonds.svg	stimuli_distractor_trianglediamonds.svg	2	yes	57	0	268	0	0			0	0			1				0	
6.6.1	win	2023-06-02	07:19:30	07:27:29	477150	6168713d805efede55796d7f	3	1	main_slash	7	main_slash	155	stimuli_distractor_diamondtriangles.svg	stimuli_distractor_trianglediamonds.svg	38	no	0	1	2000	0	0			0	0			1				0	
6.6.1	win	2023-06-02	07:19:30	07:27:29	477150	6168713d805efede55796d7f	3	1	main_slash	7	advance_on_keypress_SLASH	156	stimuli_distractor_diamondtriangles.svg	stimuli_distractor_trianglediamonds.svg	38	no	57	0	344	0	0			0	0			1				0	
6.6.1	win	2023-06-02	07:19:30	07:27:31	478897	6168713d805efede55796d7f	3	1	main_slash	7	main_slash	157	stimuli_distractor_trianglediamonds.svg	stimuli_target_trianglerectangles.svg	25	yes	53	1	784	0	0			0	0			1				0	
6.6.1	win	2023-06-02	07:19:30	07:27:31	478897	6168713d805efede55796d7f	3	1	main_slash	7	advance_on_keypress_SLASH	158	stimuli_distractor_trianglediamonds.svg	stimuli_target_trianglerectangles.svg	25	yes	57	0	548	0	0			0	0			1				0	
6.6.1	win	2023-06-02	07:19:30	07:27:33	480643	6168713d805efede55796d7f	3	1	main_slash	7	main_slash	159	stimuli_target_diamondrectangles.svg	stimuli_distractor_trianglediamonds.svg	19	yes	53	1	585	0	0			0	0			1				0	
6.6.1	win	2023-06-02	07:19:30	07:27:33	480643	6168713d805efede55796d7f	3	1	main_slash	7	advance_on_keypress_SLASH	160	stimuli_target_diamondrectangles.svg	stimuli_distractor_trianglediamonds.svg	19	yes	57	0	345	0	0			0	0			1				0	
6.6.1	win	2023-06-02	07:19:30	07:28:06	513706	6168713d805efede55796d7f	3	1	practice_z	9	practice_z	1	stimuli_distractor_diamondtriangles.svg	stimuli_distractor_diamondtriangles.svg	13	no	0	1	2000	0	0			0	0			1				0	
6.6.1	win	2023-06-02	07:19:30	07:28:06	513706	6168713d805efede55796d7f	3	1	practice_z	9	advance_on_keypress_ZEE	2	stimuli_distractor_diamondtriangles.svg	stimuli_distractor_diamondtriangles.svg	13	no	57	0	525	0	0			0	0			1				0	
6.6.1	win	2023-06-02	07:19:30	07:28:09	516518	6168713d805efede55796d7f	3	1	practice_z	9	practice_z	3	stimuli_target_diamondsquares.svg	stimuli_distractor_diamondtriangles.svg	3	yes	44	1	673	0	0			0	0			1				0	
6.6.1	win	2023-06-02	07:19:30	07:28:09	516518	6168713d805efede55796d7f	3	1	practice_z	9	advance_on_keypress_ZEE	4	stimuli_target_diamondsquares.svg	stimuli_distractor_diamondtriangles.svg	3	yes	57	0	539	0	0			0	0			1				0	
6.6.1	win	2023-06-02	07:19:30	07:28:13	520676	6168713d805efede55796d7f	3	1	practice_z	9	practice_z	5	stimuli_distractor_trianglediamonds.svg	stimuli_distractor_trianglediamonds.svg	15	no	0	1	2000	0	0			0	0			1				0	
6.6.1	win	2023-06-02	07:19:30	07:28:13	520676	6168713d805efede55796d7f	3	1	practice_z	9	advance_on_keypress_ZEE	6	stimuli_distractor_trianglediamonds.svg	stimuli_distractor_trianglediamonds.svg	15	no	57	0	574	0	0			0	0			1				0	
6.6.1	win	2023-06-02	07:19:30	07:28:16	523586	6168713d805efede55796d7f	3	1	practice_z	9	practice_z	7	stimuli_target_diamondsquares.svg	stimuli_distractor_trianglediamonds.svg	6	yes	44	1	723	0	0			0	0			1				0	
6.6.1	win	2023-06-02	07:19:30	07:28:16	523586	6168713d805efede55796d7f	3	1	practice_z	9	advance_on_keypress_ZEE	8	stimuli_target_diamondsquares.svg	stimuli_distractor_trianglediamonds.svg	6	yes	57	0	399	0	0			0	0			1				0	
6.6.1	win	2023-06-02	07:19:30	07:28:19	526453	6168713d805efede55796d7f	3	1	practice_z	9	practice_z	9	stimuli_target_squarediamonds.svg	stimuli_distractor_trianglediamonds.svg	5	yes	44	1	849	0	0			0	0			1				0	
6.6.1	win	2023-06-02	07:19:30	07:28:19	526453	6168713d805efede55796d7f	3	1	practice_z	9	advance_on_keypress_ZEE	10	stimuli_target_squarediamonds.svg	stimuli_distractor_trianglediamonds.svg	5	yes	57	0	384	0	0			0	0			1				0	
6.6.1	win	2023-06-02	07:19:30	07:28:22	530285	6168713d805efede55796d7f	3	1	practice_z	9	practice_z	11	stimuli_target_rectanglediamonds.svg	stimuli_distractor_diamondtriangles.svg	1	yes	44	1	1834	0	0			0	0			1				0	
6.6.1	win	2023-06-02	07:19:30	07:28:22	530285	6168713d805efede55796d7f	3	1	practice_z	9	advance_on_keypress_ZEE	12	stimuli_target_rectanglediamonds.svg	stimuli_distractor_diamondtriangles.svg	1	yes	57	0	398	0	0			0	0			1				0	
6.6.1	win	2023-06-02	07:19:30	07:28:25	532979	6168713d805efede55796d7f	3	1	practice_z	9	practice_z	13	stimuli_distractor_diamondtriangles.svg	stimuli_target_trianglerectangles.svg	9	yes	44	1	685	0	0			0	0			1				0	
6.6.1	win	2023-06-02	07:19:30	07:28:25	532979	6168713d805efede55796d7f	3	1	practice_z	9	advance_on_keypress_ZEE	14	stimuli_distractor_diamondtriangles.svg	stimuli_target_trianglerectangles.svg	9	yes	57	0	270	0	0			0	0			1				0	
6.6.1	win	2023-06-02	07:19:30	07:28:28	535409	6168713d805efede55796d7f	3	1	practice_z	9	practice_z	15	stimuli_distractor_diamondtriangles.svg	stimuli_target_diamondrectangles.svg	8	yes	44	1	545	0	0			0	0			1				0	
6.6.1	win	2023-06-02	07:19:30	07:28:28	535409	6168713d805efede55796d7f	3	1	practice_z	9	advance_on_keypress_ZEE	16	stimuli_distractor_diamondtriangles.svg	stimuli_target_diamondrectangles.svg	8	yes	57	0	388	0	0			0	0			1				0	
6.6.1	win	2023-06-02	07:19:30	07:28:31	538416	6168713d805efede55796d7f	3	1	practice_z	9	practice_z	17	stimuli_distractor_diamondtriangles.svg	stimuli_target_rectangletriangles.svg	7	yes	44	1	1002	0	0			0	0			1				0	
6.6.1	win	2023-06-02	07:19:30	07:28:31	538416	6168713d805efede55796d7f	3	1	practice_z	9	advance_on_keypress_ZEE	18	stimuli_distractor_diamondtriangles.svg	stimuli_target_rectangletriangles.svg	7	yes	57	0	361	0	0			0	0			1				0	
6.6.1	win	2023-06-02	07:19:30	07:28:33	541085	6168713d805efede55796d7f	3	1	practice_z	9	practice_z	19	stimuli_distractor_trianglediamonds.svg	stimuli_target_diamondrectangles.svg	12	yes	44	1	695	0	0			0	0			1				0	
6.6.1	win	2023-06-02	07:19:30	07:28:33	541085	6168713d805efede55796d7f	3	1	practice_z	9	advance_on_keypress_ZEE	20	stimuli_distractor_trianglediamonds.svg	stimuli_target_diamondrectangles.svg	12	yes	57	0	310	0	0			0	0			1				0	
6.6.1	win	2023-06-02	07:19:30	07:28:36	543956	6168713d805efede55796d7f	3	1	practice_z	9	practice_z	21	stimuli_target_rectanglediamonds.svg	stimuli_distractor_trianglediamonds.svg	4	yes	44	1	948	0	0			0	0			1				0	
6.6.1	win	2023-06-02	07:19:30	07:28:36	543956	6168713d805efede55796d7f	3	1	practice_z	9	advance_on_keypress_ZEE	22	stimuli_target_rectanglediamonds.svg	stimuli_distractor_trianglediamonds.svg	4	yes	57	0	282	0	0			0	0			1				0	
6.6.1	win	2023-06-02	07:19:30	07:28:40	547850	6168713d805efede55796d7f	3	1	practice_z	9	practice_z	23	stimuli_distractor_trianglediamonds.svg	stimuli_distractor_diamondtriangles.svg	16	no	0	1	2000	0	0			0	0			1				0	
6.6.1	win	2023-06-02	07:19:30	07:28:40	547850	6168713d805efede55796d7f	3	1	practice_z	9	advance_on_keypress_ZEE	24	stimuli_distractor_trianglediamonds.svg	stimuli_distractor_diamondtriangles.svg	16	no	57	0	405	0	0			0	0			1				0	
6.6.1	win	2023-06-02	07:19:30	07:28:43	550542	6168713d805efede55796d7f	3	1	practice_z	9	practice_z	25	stimuli_distractor_trianglediamonds.svg	stimuli_target_rectanglediamonds.svg	10	yes	44	1	667	0	0			0	0			1				0	
6.6.1	win	2023-06-02	07:19:30	07:28:43	550542	6168713d805efede55796d7f	3	1	practice_z	9	advance_on_keypress_ZEE	26	stimuli_distractor_trianglediamonds.svg	stimuli_target_rectanglediamonds.svg	10	yes	57	0	503	0	0			0	0			1				0	
6.6.1	win	2023-06-02	07:19:30	07:28:47	554662	6168713d805efede55796d7f	3	1	practice_z	9	practice_z	27	stimuli_distractor_diamondtriangles.svg	stimuli_distractor_trianglediamonds.svg	14	no	0	1	2000	0	0			0	0			1				0	
6.6.1	win	2023-06-02	07:19:30	07:28:47	554662	6168713d805efede55796d7f	3	1	practice_z	9	advance_on_keypress_ZEE	28	stimuli_distractor_diamondtriangles.svg	stimuli_distractor_trianglediamonds.svg	14	no	57	0	467	0	0			0	0			1				0	
6.6.1	win	2023-06-02	07:19:30	07:28:49	557334	6168713d805efede55796d7f	3	1	practice_z	9	practice_z	29	stimuli_distractor_trianglediamonds.svg	stimuli_target_squarediamonds.svg	11	yes	44	1	587	0	0			0	0			1				0	
6.6.1	win	2023-06-02	07:19:30	07:28:49	557334	6168713d805efede55796d7f	3	1	practice_z	9	advance_on_keypress_ZEE	30	stimuli_distractor_trianglediamonds.svg	stimuli_target_squarediamonds.svg	11	yes	57	0	529	0	0			0	0			1				0	
6.6.1	win	2023-06-02	07:19:30	07:28:52	560004	6168713d805efede55796d7f	3	1	practice_z	9	practice_z	31	stimuli_target_squarediamonds.svg	stimuli_distractor_diamondtriangles.svg	2	yes	44	1	524	0	0			0	0			1				0	
6.6.1	win	2023-06-02	07:19:30	07:28:52	560004	6168713d805efede55796d7f	3	1	practice_z	9	advance_on_keypress_ZEE	32	stimuli_target_squarediamonds.svg	stimuli_distractor_diamondtriangles.svg	2	yes	57	0	488	0	0			0	0			1				0	
6.6.1	win	2023-06-02	07:19:30	07:28:57	565182	6168713d805efede55796d7f	3	1	main_z	11	main_z	1	stimuli_target_squarediamonds.svg	stimuli_distractor_diamondtriangles.svg	8	yes	44	1	563	0	0			0	0			1				0	
6.6.1	win	2023-06-02	07:19:30	07:28:57	565182	6168713d805efede55796d7f	3	1	main_z	11	advance_on_keypress_ZEE	2	stimuli_target_squarediamonds.svg	stimuli_distractor_diamondtriangles.svg	8	yes	57	0	685	0	0			0	0			1				0	
6.6.1	win	2023-06-02	07:19:30	07:29:01	568486	6168713d805efede55796d7f	3	1	main_z	11	main_z	3	stimuli_distractor_trianglediamonds.svg	stimuli_distractor_trianglediamonds.svg	33	no	0	1	2000	0	0			0	0			1				0	
6.6.1	win	2023-06-02	07:19:30	07:29:01	568486	6168713d805efede55796d7f	3	1	main_z	11	advance_on_keypress_ZEE	4	stimuli_distractor_trianglediamonds.svg	stimuli_distractor_trianglediamonds.svg	33	no	57	0	355	0	0			0	0			1				0	
6.6.1	win	2023-06-02	07:19:30	07:29:02	569962	6168713d805efede55796d7f	3	1	main_z	11	main_z	5	stimuli_distractor_diamondtriangles.svg	stimuli_target_rectangletriangles.svg	13	yes	44	1	506	0	0			0	0			1				0	
6.6.1	win	2023-06-02	07:19:30	07:29:02	569962	6168713d805efede55796d7f	3	1	main_z	11	advance_on_keypress_ZEE	6	stimuli_distractor_diamondtriangles.svg	stimuli_target_rectangletriangles.svg	13	yes	57	0	631	0	0			0	0			1				0	
6.6.1	win	2023-06-02	07:19:30	07:29:04	572104	6168713d805efede55796d7f	3	1	main_z	11	main_z	7	stimuli_distractor_trianglediamonds.svg	stimuli_distractor_trianglediamonds.svg	34	no	44	0	897	0	0			0	0			1				0	
6.6.1	win	2023-06-02	07:19:30	07:29:04	572104	6168713d805efede55796d7f	3	1	main_z	11	advance_on_keypress_ZEE	8	stimuli_distractor_trianglediamonds.svg	stimuli_distractor_trianglediamonds.svg	34	no	57	0	565	0	0			0	0			1				0	
6.6.1	win	2023-06-02	07:19:30	07:29:07	575286	6168713d805efede55796d7f	3	1	main_z	11	main_z	9	stimuli_distractor_trianglediamonds.svg	stimuli_distractor_diamondtriangles.svg	36	no	0	1	2000	0	0			0	0			1				0	
6.6.1	win	2023-06-02	07:19:30	07:29:07	575286	6168713d805efede55796d7f	3	1	main_z	11	advance_on_keypress_ZEE	10	stimuli_distractor_trianglediamonds.svg	stimuli_distractor_diamondtriangles.svg	36	no	57	0	483	0	0			0	0			1				0	
6.6.1	win	2023-06-02	07:19:30	07:29:09	576929	6168713d805efede55796d7f	3	1	main_z	11	main_z	11	stimuli_target_squaretriangles.svg	stimuli_distractor_diamondtriangles.svg	7	yes	44	1	546	0	0			0	0			1				0	
6.6.1	win	2023-06-02	07:19:30	07:29:09	576929	6168713d805efede55796d7f	3	1	main_z	11	advance_on_keypress_ZEE	12	stimuli_target_squaretriangles.svg	stimuli_distractor_diamondtriangles.svg	7	yes	57	0	475	0	0			0	0			1				0	
6.6.1	win	2023-06-02	07:19:30	07:29:11	578409	6168713d805efede55796d7f	3	1	main_z	11	main_z	13	stimuli_target_squarediamonds.svg	stimuli_distractor_trianglediamonds.svg	4	yes	44	1	390	0	0			0	0			1				0	
6.6.1	win	2023-06-02	07:19:30	07:29:11	578409	6168713d805efede55796d7f	3	1	main_z	11	advance_on_keypress_ZEE	14	stimuli_target_squarediamonds.svg	stimuli_distractor_trianglediamonds.svg	4	yes	57	0	398	0	0			0	0			1				0	
6.6.1	win	2023-06-02	07:19:30	07:29:12	579917	6168713d805efede55796d7f	3	1	main_z	11	main_z	15	stimuli_distractor_diamondtriangles.svg	stimuli_target_rectanglediamonds.svg	14	yes	44	1	497	0	0			0	0			1				0	
6.6.1	win	2023-06-02	07:19:30	07:29:12	579917	6168713d805efede55796d7f	3	1	main_z	11	advance_on_keypress_ZEE	16	stimuli_distractor_diamondtriangles.svg	stimuli_target_rectanglediamonds.svg	14	yes	57	0	334	0	0			0	0			1				0	
6.6.1	win	2023-06-02	07:19:30	07:29:15	582868	6168713d805efede55796d7f	3	1	main_z	11	main_z	17	stimuli_distractor_trianglediamonds.svg	stimuli_target_diamondsquares.svg	28	yes	0	0	2000	0	0			0	0			1				0	
6.6.1	win	2023-06-02	07:19:30	07:29:15	582868	6168713d805efede55796d7f	3	1	main_z	11	advance_on_keypress_ZEE	18	stimuli_distractor_trianglediamonds.svg	stimuli_target_diamondsquares.svg	28	yes	57	0	421	0	0			0	0			1				0	
6.6.1	win	2023-06-02	07:19:30	07:29:18	585904	6168713d805efede55796d7f	3	1	main_z	11	main_z	19	stimuli_distractor_diamondtriangles.svg	stimuli_target_diamondsquares.svg	32	yes	0	0	2000	0	0			0	0			1				0	
6.6.1	win	2023-06-02	07:19:30	07:29:18	585904	6168713d805efede55796d7f	3	1	main_z	11	advance_on_keypress_ZEE	20	stimuli_distractor_diamondtriangles.svg	stimuli_target_diamondsquares.svg	32	yes	57	0	284	0	0			0	0			1				0	
6.6.1	win	2023-06-02	07:19:30	07:29:20	587766	6168713d805efede55796d7f	3	1	main_z	11	main_z	21	stimuli_distractor_diamondtriangles.svg	stimuli_target_diamondrectangles.svg	31	yes	44	1	959	0	0			0	0			1				0	
6.6.1	win	2023-06-02	07:19:30	07:29:20	587766	6168713d805efede55796d7f	3	1	main_z	11	advance_on_keypress_ZEE	22	stimuli_distractor_diamondtriangles.svg	stimuli_target_diamondrectangles.svg	31	yes	57	0	503	0	0			0	0			1				0	
6.6.1	win	2023-06-02	07:19:30	07:29:23	590886	6168713d805efede55796d7f	3	1	main_z	11	main_z	23	stimuli_distractor_diamondtriangles.svg	stimuli_distractor_diamondtriangles.svg	39	no	0	1	2000	0	0			0	0			1				0	
6.6.1	win	2023-06-02	07:19:30	07:29:23	590886	6168713d805efede55796d7f	3	1	main_z	11	advance_on_keypress_ZEE	24	stimuli_distractor_diamondtriangles.svg	stimuli_distractor_diamondtriangles.svg	39	no	57	0	346	0	0			0	0			1				0	
6.6.1	win	2023-06-02	07:19:30	07:29:25	592505	6168713d805efede55796d7f	3	1	main_z	11	main_z	25	stimuli_distractor_diamondtriangles.svg	stimuli_target_trianglesquares.svg	30	yes	44	1	656	0	0			0	0			1				0	
6.6.1	win	2023-06-02	07:19:30	07:29:25	592505	6168713d805efede55796d7f	3	1	main_z	11	advance_on_keypress_ZEE	26	stimuli_distractor_diamondtriangles.svg	stimuli_target_trianglesquares.svg	30	yes	57	0	522	0	0			0	0			1				0	
6.6.1	win	2023-06-02	07:19:30	07:29:27	594522	6168713d805efede55796d7f	3	1	main_z	11	main_z	27	stimuli_distractor_trianglediamonds.svg	stimuli_target_rectanglediamonds.svg	10	yes	44	1	878	0	0			0	0			1				0	
6.6.1	win	2023-06-02	07:19:30	07:29:27	594522	6168713d805efede55796d7f	3	1	main_z	11	advance_on_keypress_ZEE	28	stimuli_distractor_trianglediamonds.svg	stimuli_target_rectanglediamonds.svg	10	yes	57	0	378	0	0			0	0			1				0	
6.6.1	win	2023-06-02	07:19:30	07:29:28	596202	6168713d805efede55796d7f	3	1	main_z	11	main_z	29	stimuli_distractor_diamondtriangles.svg	stimuli_target_squaretriangles.svg	15	yes	44	1	687	0	0			0	0			1				0	
6.6.1	win	2023-06-02	07:19:30	07:29:28	596202	6168713d805efede55796d7f	3	1	main_z	11	advance_on_keypress_ZEE	30	stimuli_distractor_diamondtriangles.svg	stimuli_target_squaretriangles.svg	15	yes	57	0	487	0	0			0	0			1				0	
6.6.1	win	2023-06-02	07:19:30	07:29:30	597810	6168713d805efede55796d7f	3	1	main_z	11	main_z	31	stimuli_distractor_trianglediamonds.svg	stimuli_target_squaretriangles.svg	11	yes	44	1	507	0	0			0	0			1				0	
6.6.1	win	2023-06-02	07:19:30	07:29:30	597810	6168713d805efede55796d7f	3	1	main_z	11	advance_on_keypress_ZEE	32	stimuli_distractor_trianglediamonds.svg	stimuli_target_squaretriangles.svg	11	yes	57	0	320	0	0			0	0			1				0	
6.6.1	win	2023-06-02	07:19:30	07:29:31	599280	6168713d805efede55796d7f	3	1	main_z	11	main_z	33	stimuli_target_rectangletriangles.svg	stimuli_distractor_trianglediamonds.svg	1	yes	44	1	533	0	0			0	0			1				0	
6.6.1	win	2023-06-02	07:19:30	07:29:31	599280	6168713d805efede55796d7f	3	1	main_z	11	advance_on_keypress_ZEE	34	stimuli_target_rectangletriangles.svg	stimuli_distractor_trianglediamonds.svg	1	yes	57	0	298	0	0			0	0			1				0	
6.6.1	win	2023-06-02	07:19:30	07:29:33	600643	6168713d805efede55796d7f	3	1	main_z	11	main_z	35	stimuli_target_rectangletriangles.svg	stimuli_distractor_diamondtriangles.svg	5	yes	44	1	449	0	0			0	0			1				0	
6.6.1	win	2023-06-02	07:19:30	07:29:33	600643	6168713d805efede55796d7f	3	1	main_z	11	advance_on_keypress_ZEE	36	stimuli_target_rectangletriangles.svg	stimuli_distractor_diamondtriangles.svg	5	yes	57	0	278	0	0			0	0			1				0	
6.6.1	win	2023-06-02	07:19:30	07:29:36	603540	6168713d805efede55796d7f	3	1	main_z	11	main_z	37	stimuli_target_diamondsquares.svg	stimuli_distractor_trianglediamonds.svg	20	yes	0	0	2000	0	0			0	0			1				0	
6.6.1	win	2023-06-02	07:19:30	07:29:36	603540	6168713d805efede55796d7f	3	1	main_z	11	advance_on_keypress_ZEE	38	stimuli_target_diamondsquares.svg	stimuli_distractor_trianglediamonds.svg	20	yes	57	0	329	0	0			0	0			1				0	
6.6.1	win	2023-06-02	07:19:30	07:29:37	604966	6168713d805efede55796d7f	3	1	main_z	11	main_z	39	stimuli_target_rectanglediamonds.svg	stimuli_distractor_diamondtriangles.svg	6	yes	44	1	481	0	0			0	0			1				0	
6.6.1	win	2023-06-02	07:19:30	07:29:37	604966	6168713d805efede55796d7f	3	1	main_z	11	advance_on_keypress_ZEE	40	stimuli_target_rectanglediamonds.svg	stimuli_distractor_diamondtriangles.svg	6	yes	57	0	598	0	0			0	0			1				0	
6.6.1	win	2023-06-02	07:19:30	07:29:39	606869	6168713d805efede55796d7f	3	1	main_z	11	main_z	41	stimuli_distractor_diamondtriangles.svg	stimuli_target_squarediamonds.svg	16	yes	44	1	693	0	0			0	0			1				0	
6.6.1	win	2023-06-02	07:19:30	07:29:39	606869	6168713d805efede55796d7f	3	1	main_z	11	advance_on_keypress_ZEE	42	stimuli_distractor_diamondtriangles.svg	stimuli_target_squarediamonds.svg	16	yes	57	0	405	0	0			0	0			1				0	
6.6.1	win	2023-06-02	07:19:30	07:29:41	608447	6168713d805efede55796d7f	3	1	main_z	11	main_z	43	stimuli_target_squaretriangles.svg	stimuli_distractor_trianglediamonds.svg	3	yes	44	1	556	0	0			0	0			1				0	
6.6.1	win	2023-06-02	07:19:30	07:29:41	608447	6168713d805efede55796d7f	3	1	main_z	11	advance_on_keypress_ZEE	44	stimuli_target_squaretriangles.svg	stimuli_distractor_trianglediamonds.svg	3	yes	57	0	291	0	0			0	0			1				0	
6.6.1	win	2023-06-02	07:19:30	07:29:44	611358	6168713d805efede55796d7f	3	1	main_z	11	main_z	45	stimuli_distractor_trianglediamonds.svg	stimuli_target_trianglerectangles.svg	25	yes	0	0	2000	0	0			0	0			1				0	
6.6.1	win	2023-06-02	07:19:30	07:29:44	611358	6168713d805efede55796d7f	3	1	main_z	11	advance_on_keypress_ZEE	46	stimuli_distractor_trianglediamonds.svg	stimuli_target_trianglerectangles.svg	25	yes	57	0	430	0	0			0	0			1				0	
6.6.1	win	2023-06-02	07:19:30	07:29:45	613257	6168713d805efede55796d7f	3	1	main_z	11	main_z	47	stimuli_target_trianglesquares.svg	stimuli_distractor_trianglediamonds.svg	18	yes	44	1	851	0	0			0	0			1				0	
6.6.1	win	2023-06-02	07:19:30	07:29:45	613257	6168713d805efede55796d7f	3	1	main_z	11	advance_on_keypress_ZEE	48	stimuli_target_trianglesquares.svg	stimuli_distractor_trianglediamonds.svg	18	yes	57	0	408	0	0			0	0			1				0	
6.6.1	win	2023-06-02	07:19:30	07:29:47	615168	6168713d805efede55796d7f	3	1	main_z	11	main_z	49	stimuli_target_diamondrectangles.svg	stimuli_distractor_diamondtriangles.svg	23	yes	44	1	890	0	0			0	0			1				0	
6.6.1	win	2023-06-02	07:19:30	07:29:47	615168	6168713d805efede55796d7f	3	1	main_z	11	advance_on_keypress_ZEE	50	stimuli_target_diamondrectangles.svg	stimuli_distractor_diamondtriangles.svg	23	yes	57	0	439	0	0			0	0			1				0	
6.6.1	win	2023-06-02	07:19:30	07:29:49	616856	6168713d805efede55796d7f	3	1	main_z	11	main_z	51	stimuli_distractor_trianglediamonds.svg	stimuli_target_trianglesquares.svg	26	yes	44	1	632	0	0			0	0			1				0	
6.6.1	win	2023-06-02	07:19:30	07:29:49	616856	6168713d805efede55796d7f	3	1	main_z	11	advance_on_keypress_ZEE	52	stimuli_distractor_trianglediamonds.svg	stimuli_target_trianglesquares.svg	26	yes	57	0	377	0	0			0	0			1				0	
6.6.1	win	2023-06-02	07:19:30	07:29:51	618520	6168713d805efede55796d7f	3	1	main_z	11	main_z	53	stimuli_target_diamondrectangles.svg	stimuli_distractor_trianglediamonds.svg	19	yes	44	1	672	0	0			0	0			1				0	
6.6.1	win	2023-06-02	07:19:30	07:29:51	618520	6168713d805efede55796d7f	3	1	main_z	11	advance_on_keypress_ZEE	54	stimuli_target_diamondrectangles.svg	stimuli_distractor_trianglediamonds.svg	19	yes	57	0	394	0	0			0	0			1				0	
6.6.1	win	2023-06-02	07:19:30	07:29:52	620237	6168713d805efede55796d7f	3	1	main_z	11	main_z	55	stimuli_distractor_diamondtriangles.svg	stimuli_target_trianglerectangles.svg	29	yes	44	1	704	0	0			0	0			1				0	
6.6.1	win	2023-06-02	07:19:30	07:29:52	620237	6168713d805efede55796d7f	3	1	main_z	11	advance_on_keypress_ZEE	56	stimuli_distractor_diamondtriangles.svg	stimuli_target_trianglerectangles.svg	29	yes	57	0	335	0	0			0	0			1				0	
6.6.1	win	2023-06-02	07:19:30	07:29:55	623188	6168713d805efede55796d7f	3	1	main_z	11	main_z	57	stimuli_distractor_diamondtriangles.svg	stimuli_distractor_diamondtriangles.svg	40	no	0	1	2000	0	0			0	0			1				0	
6.6.1	win	2023-06-02	07:19:30	07:29:55	623188	6168713d805efede55796d7f	3	1	main_z	11	advance_on_keypress_ZEE	58	stimuli_distractor_diamondtriangles.svg	stimuli_distractor_diamondtriangles.svg	40	no	57	0	466	0	0			0	0			1				0	
6.6.1	win	2023-06-02	07:19:30	07:29:57	624859	6168713d805efede55796d7f	3	1	main_z	11	main_z	59	stimuli_distractor_trianglediamonds.svg	stimuli_target_rectangletriangles.svg	9	yes	44	1	587	0	0			0	0			1				0	
6.6.1	win	2023-06-02	07:19:30	07:29:57	624859	6168713d805efede55796d7f	3	1	main_z	11	advance_on_keypress_ZEE	60	stimuli_distractor_trianglediamonds.svg	stimuli_target_rectangletriangles.svg	9	yes	57	0	410	0	0			0	0			1				0	
6.6.1	win	2023-06-02	07:19:30	07:29:59	626688	6168713d805efede55796d7f	3	1	main_z	11	main_z	61	stimuli_target_trianglerectangles.svg	stimuli_distractor_diamondtriangles.svg	21	yes	44	1	804	0	0			0	0			1				0	
6.6.1	win	2023-06-02	07:19:30	07:29:59	626688	6168713d805efede55796d7f	3	1	main_z	11	advance_on_keypress_ZEE	62	stimuli_target_trianglerectangles.svg	stimuli_distractor_diamondtriangles.svg	21	yes	57	0	459	0	0			0	0			1				0	
6.6.1	win	2023-06-02	07:19:30	07:30:01	628504	6168713d805efede55796d7f	3	1	main_z	11	main_z	63	stimuli_distractor_diamondtriangles.svg	stimuli_distractor_trianglediamonds.svg	38	no	44	0	747	0	0			0	0			1				0	
6.6.1	win	2023-06-02	07:19:30	07:30:01	628504	6168713d805efede55796d7f	3	1	main_z	11	advance_on_keypress_ZEE	64	stimuli_distractor_diamondtriangles.svg	stimuli_distractor_trianglediamonds.svg	38	no	57	0	291	0	0			0	0			1				0	
6.6.1	win	2023-06-02	07:19:30	07:30:02	630009	6168713d805efede55796d7f	3	1	main_z	11	main_z	65	stimuli_target_rectanglediamonds.svg	stimuli_distractor_trianglediamonds.svg	2	yes	44	1	598	0	0			0	0			1				0	
6.6.1	win	2023-06-02	07:19:30	07:30:02	630009	6168713d805efede55796d7f	3	1	main_z	11	advance_on_keypress_ZEE	66	stimuli_target_rectanglediamonds.svg	stimuli_distractor_trianglediamonds.svg	2	yes	57	0	331	0	0			0	0			1				0	
6.6.1	win	2023-06-02	07:19:30	07:30:05	632951	6168713d805efede55796d7f	3	1	main_z	11	main_z	67	stimuli_distractor_trianglediamonds.svg	stimuli_target_diamondrectangles.svg	27	yes	0	0	2000	0	0			0	0			1				0	
6.6.1	win	2023-06-02	07:19:30	07:30:05	632951	6168713d805efede55796d7f	3	1	main_z	11	advance_on_keypress_ZEE	68	stimuli_distractor_trianglediamonds.svg	stimuli_target_diamondrectangles.svg	27	yes	57	0	307	0	0			0	0			1				0	
6.6.1	win	2023-06-02	07:19:30	07:30:08	635872	6168713d805efede55796d7f	3	1	main_z	11	main_z	69	stimuli_distractor_trianglediamonds.svg	stimuli_distractor_diamondtriangles.svg	35	no	0	1	2000	0	0			0	0			1				0	
6.6.1	win	2023-06-02	07:19:30	07:30:08	635872	6168713d805efede55796d7f	3	1	main_z	11	advance_on_keypress_ZEE	70	stimuli_distractor_trianglediamonds.svg	stimuli_distractor_diamondtriangles.svg	35	no	57	0	206	0	0			0	0			1				0	
6.6.1	win	2023-06-02	07:19:30	07:30:11	638696	6168713d805efede55796d7f	3	1	main_z	11	main_z	71	stimuli_distractor_diamondtriangles.svg	stimuli_distractor_trianglediamonds.svg	37	no	0	1	2000	0	0			0	0			1				0	
6.6.1	win	2023-06-02	07:19:30	07:30:11	638696	6168713d805efede55796d7f	3	1	main_z	11	advance_on_keypress_ZEE	72	stimuli_distractor_diamondtriangles.svg	stimuli_distractor_trianglediamonds.svg	37	no	57	0	296	0	0			0	0			1				0	
6.6.1	win	2023-06-02	07:19:30	07:30:13	640827	6168713d805efede55796d7f	3	1	main_z	11	main_z	73	stimuli_target_trianglesquares.svg	stimuli_distractor_diamondtriangles.svg	22	yes	44	1	1215	0	0			0	0			1				0	
6.6.1	win	2023-06-02	07:19:30	07:30:13	640827	6168713d805efede55796d7f	3	1	main_z	11	advance_on_keypress_ZEE	74	stimuli_target_trianglesquares.svg	stimuli_distractor_diamondtriangles.svg	22	yes	57	0	259	0	0			0	0			1				0	
6.6.1	win	2023-06-02	07:19:30	07:30:14	642254	6168713d805efede55796d7f	3	1	main_z	11	main_z	75	stimuli_target_diamondsquares.svg	stimuli_distractor_diamondtriangles.svg	24	yes	44	1	557	0	0			0	0			1				0	
6.6.1	win	2023-06-02	07:19:30	07:30:14	642254	6168713d805efede55796d7f	3	1	main_z	11	advance_on_keypress_ZEE	76	stimuli_target_diamondsquares.svg	stimuli_distractor_diamondtriangles.svg	24	yes	57	0	329	0	0			0	0			1				0	
6.6.1	win	2023-06-02	07:19:30	07:30:16	644025	6168713d805efede55796d7f	3	1	main_z	11	main_z	77	stimuli_distractor_trianglediamonds.svg	stimuli_target_squarediamonds.svg	12	yes	44	1	826	0	0			0	0			1				0	
6.6.1	win	2023-06-02	07:19:30	07:30:16	644025	6168713d805efede55796d7f	3	1	main_z	11	advance_on_keypress_ZEE	78	stimuli_distractor_trianglediamonds.svg	stimuli_target_squarediamonds.svg	12	yes	57	0	326	0	0			0	0			1				0	
6.6.1	win	2023-06-02	07:19:30	07:30:19	646969	6168713d805efede55796d7f	3	1	main_z	11	main_z	79	stimuli_target_trianglerectangles.svg	stimuli_distractor_trianglediamonds.svg	17	yes	0	0	2000	0	0			0	0			1				0	
6.6.1	win	2023-06-02	07:19:30	07:30:19	646969	6168713d805efede55796d7f	3	1	main_z	11	advance_on_keypress_ZEE	80	stimuli_target_trianglerectangles.svg	stimuli_distractor_trianglediamonds.svg	17	yes	57	0	340	0	0			0	0			1				0	
6.6.1	win	2023-06-02	07:19:30	07:30:21	648376	6168713d805efede55796d7f	3	1	main_z	11	main_z	81	stimuli_distractor_trianglediamonds.svg	stimuli_target_rectanglediamonds.svg	10	yes	44	1	450	0	0			0	0			1				0	
6.6.1	win	2023-06-02	07:19:30	07:30:21	648376	6168713d805efede55796d7f	3	1	main_z	11	advance_on_keypress_ZEE	82	stimuli_distractor_trianglediamonds.svg	stimuli_target_rectanglediamonds.svg	10	yes	57	0	358	0	0			0	0			1				0	
6.6.1	win	2023-06-02	07:19:30	07:30:22	649759	6168713d805efede55796d7f	3	1	main_z	11	main_z	83	stimuli_target_rectanglediamonds.svg	stimuli_distractor_trianglediamonds.svg	2	yes	44	1	409	0	0			0	0			1				0	
6.6.1	win	2023-06-02	07:19:30	07:30:22	649759	6168713d805efede55796d7f	3	1	main_z	11	advance_on_keypress_ZEE	84	stimuli_target_rectanglediamonds.svg	stimuli_distractor_trianglediamonds.svg	2	yes	57	0	307	0	0			0	0			1				0	
6.6.1	win	2023-06-02	07:19:30	07:30:24	651576	6168713d805efede55796d7f	3	1	main_z	11	main_z	85	stimuli_target_diamondrectangles.svg	stimuli_distractor_diamondtriangles.svg	23	yes	44	1	899	0	0			0	0			1				0	
6.6.1	win	2023-06-02	07:19:30	07:30:24	651576	6168713d805efede55796d7f	3	1	main_z	11	advance_on_keypress_ZEE	86	stimuli_target_diamondrectangles.svg	stimuli_distractor_diamondtriangles.svg	23	yes	57	0	288	0	0			0	0			1				0	
6.6.1	win	2023-06-02	07:19:30	07:30:25	653113	6168713d805efede55796d7f	3	1	main_z	11	main_z	87	stimuli_distractor_trianglediamonds.svg	stimuli_target_rectangletriangles.svg	9	yes	44	1	635	0	0			0	0			1				0	
6.6.1	win	2023-06-02	07:19:30	07:30:25	653113	6168713d805efede55796d7f	3	1	main_z	11	advance_on_keypress_ZEE	88	stimuli_distractor_trianglediamonds.svg	stimuli_target_rectangletriangles.svg	9	yes	57	0	267	0	0			0	0			1				0	
6.6.1	win	2023-06-02	07:19:30	07:30:27	654666	6168713d805efede55796d7f	3	1	main_z	11	main_z	89	stimuli_target_squarediamonds.svg	stimuli_distractor_diamondtriangles.svg	8	yes	44	1	667	0	0			0	0			1				0	
6.6.1	win	2023-06-02	07:19:30	07:30:27	654666	6168713d805efede55796d7f	3	1	main_z	11	advance_on_keypress_ZEE	90	stimuli_target_squarediamonds.svg	stimuli_distractor_diamondtriangles.svg	8	yes	57	0	301	0	0			0	0			1				0	
6.6.1	win	2023-06-02	07:19:30	07:30:29	656397	6168713d805efede55796d7f	3	1	main_z	11	main_z	91	stimuli_distractor_trianglediamonds.svg	stimuli_target_trianglerectangles.svg	25	yes	44	1	817	0	0			0	0			1				0	
6.6.1	win	2023-06-02	07:19:30	07:30:29	656397	6168713d805efede55796d7f	3	1	main_z	11	advance_on_keypress_ZEE	92	stimuli_distractor_trianglediamonds.svg	stimuli_target_trianglerectangles.svg	25	yes	57	0	316	0	0			0	0			1				0	
6.6.1	win	2023-06-02	07:19:30	07:30:31	659332	6168713d805efede55796d7f	3	1	main_z	11	main_z	93	stimuli_distractor_diamondtriangles.svg	stimuli_distractor_trianglediamonds.svg	38	no	0	1	2000	0	0			0	0			1				0	
6.6.1	win	2023-06-02	07:19:30	07:30:31	659332	6168713d805efede55796d7f	3	1	main_z	11	advance_on_keypress_ZEE	94	stimuli_distractor_diamondtriangles.svg	stimuli_distractor_trianglediamonds.svg	38	no	57	0	406	0	0			0	0			1				0	
6.6.1	win	2023-06-02	07:19:30	07:30:33	660929	6168713d805efede55796d7f	3	1	main_z	11	main_z	95	stimuli_distractor_trianglediamonds.svg	stimuli_target_diamondsquares.svg	28	yes	44	1	573	0	0			0	0			1				0	
6.6.1	win	2023-06-02	07:19:30	07:30:33	660929	6168713d805efede55796d7f	3	1	main_z	11	advance_on_keypress_ZEE	96	stimuli_distractor_trianglediamonds.svg	stimuli_target_diamondsquares.svg	28	yes	57	0	517	0	0			0	0			1				0	
6.6.1	win	2023-06-02	07:19:30	07:30:35	662512	6168713d805efede55796d7f	3	1	main_z	11	main_z	97	stimuli_distractor_diamondtriangles.svg	stimuli_target_squaretriangles.svg	15	yes	44	1	453	0	0			0	0			1				0	
6.6.1	win	2023-06-02	07:19:30	07:30:35	662512	6168713d805efede55796d7f	3	1	main_z	11	advance_on_keypress_ZEE	98	stimuli_distractor_diamondtriangles.svg	stimuli_target_squaretriangles.svg	15	yes	57	0	288	0	0			0	0			1				0	
6.6.1	win	2023-06-02	07:19:30	07:30:36	664307	6168713d805efede55796d7f	3	1	main_z	11	main_z	99	stimuli_target_diamondsquares.svg	stimuli_distractor_diamondtriangles.svg	24	yes	44	1	897	0	0			0	0			1				0	
6.6.1	win	2023-06-02	07:19:30	07:30:36	664307	6168713d805efede55796d7f	3	1	main_z	11	advance_on_keypress_ZEE	100	stimuli_target_diamondsquares.svg	stimuli_distractor_diamondtriangles.svg	24	yes	57	0	416	0	0			0	0			1				0	
6.6.1	win	2023-06-02	07:19:30	07:30:38	665976	6168713d805efede55796d7f	3	1	main_z	11	main_z	101	stimuli_distractor_trianglediamonds.svg	stimuli_target_trianglesquares.svg	26	yes	44	1	639	0	0			0	0			1				0	
6.6.1	win	2023-06-02	07:19:30	07:30:38	665976	6168713d805efede55796d7f	3	1	main_z	11	advance_on_keypress_ZEE	102	stimuli_distractor_trianglediamonds.svg	stimuli_target_trianglesquares.svg	26	yes	57	0	215	0	0			0	0			1				0	
6.6.1	win	2023-06-02	07:19:30	07:30:41	668804	6168713d805efede55796d7f	3	1	main_z	11	main_z	103	stimuli_distractor_diamondtriangles.svg	stimuli_distractor_diamondtriangles.svg	39	no	0	1	2000	0	0			0	0			1				0	
6.6.1	win	2023-06-02	07:19:30	07:30:41	668804	6168713d805efede55796d7f	3	1	main_z	11	advance_on_keypress_ZEE	104	stimuli_distractor_diamondtriangles.svg	stimuli_distractor_diamondtriangles.svg	39	no	57	0	291	0	0			0	0			1				0	
6.6.1	win	2023-06-02	07:19:30	07:30:42	670142	6168713d805efede55796d7f	3	1	main_z	11	main_z	105	stimuli_distractor_diamondtriangles.svg	stimuli_target_rectanglediamonds.svg	14	yes	44	1	429	0	0			0	0			1				0	
6.6.1	win	2023-06-02	07:19:30	07:30:42	670142	6168713d805efede55796d7f	3	1	main_z	11	advance_on_keypress_ZEE	106	stimuli_distractor_diamondtriangles.svg	stimuli_target_rectanglediamonds.svg	14	yes	57	0	289	0	0			0	0			1				0	
6.6.1	win	2023-06-02	07:19:30	07:30:44	671921	6168713d805efede55796d7f	3	1	main_z	11	main_z	107	stimuli_distractor_diamondtriangles.svg	stimuli_target_trianglerectangles.svg	29	yes	44	1	881	0	0			0	0			1				0	
6.6.1	win	2023-06-02	07:19:30	07:30:44	671921	6168713d805efede55796d7f	3	1	main_z	11	advance_on_keypress_ZEE	108	stimuli_distractor_diamondtriangles.svg	stimuli_target_trianglerectangles.svg	29	yes	57	0	276	0	0			0	0			1				0	
6.6.1	win	2023-06-02	07:19:30	07:30:47	674810	6168713d805efede55796d7f	3	1	main_z	11	main_z	109	stimuli_distractor_trianglediamonds.svg	stimuli_distractor_diamondtriangles.svg	36	no	0	1	2000	0	0			0	0			1				0	
6.6.1	win	2023-06-02	07:19:30	07:30:47	674810	6168713d805efede55796d7f	3	1	main_z	11	advance_on_keypress_ZEE	110	stimuli_distractor_trianglediamonds.svg	stimuli_distractor_diamondtriangles.svg	36	no	57	0	438	0	0			0	0			1				0	
6.6.1	win	2023-06-02	07:19:30	07:30:50	677865	6168713d805efede55796d7f	3	1	main_z	11	main_z	111	stimuli_target_trianglerectangles.svg	stimuli_distractor_diamondtriangles.svg	21	yes	0	0	2000	0	0			0	0			1				0	
6.6.1	win	2023-06-02	07:19:30	07:30:50	677865	6168713d805efede55796d7f	3	1	main_z	11	advance_on_keypress_ZEE	112	stimuli_target_trianglerectangles.svg	stimuli_distractor_diamondtriangles.svg	21	yes	57	0	231	0	0			0	0			1				0	
6.6.1	win	2023-06-02	07:19:30	07:30:52	679491	6168713d805efede55796d7f	3	1	main_z	11	main_z	113	stimuli_target_rectangletriangles.svg	stimuli_distractor_diamondtriangles.svg	5	yes	44	1	778	0	0			0	0			1				0	
6.6.1	win	2023-06-02	07:19:30	07:30:52	679491	6168713d805efede55796d7f	3	1	main_z	11	advance_on_keypress_ZEE	114	stimuli_target_rectangletriangles.svg	stimuli_distractor_diamondtriangles.svg	5	yes	57	0	387	0	0			0	0			1				0	
6.6.1	win	2023-06-02	07:19:30	07:30:53	681093	6168713d805efede55796d7f	3	1	main_z	11	main_z	115	stimuli_target_trianglesquares.svg	stimuli_distractor_diamondtriangles.svg	22	yes	44	1	598	0	0			0	0			1				0	
6.6.1	win	2023-06-02	07:19:30	07:30:53	681093	6168713d805efede55796d7f	3	1	main_z	11	advance_on_keypress_ZEE	116	stimuli_target_trianglesquares.svg	stimuli_distractor_diamondtriangles.svg	22	yes	57	0	259	0	0			0	0			1				0	
6.6.1	win	2023-06-02	07:19:30	07:30:55	682720	6168713d805efede55796d7f	3	1	main_z	11	main_z	117	stimuli_target_squaretriangles.svg	stimuli_distractor_trianglediamonds.svg	3	yes	44	1	759	0	0			0	0			1				0	
6.6.1	win	2023-06-02	07:19:30	07:30:55	682720	6168713d805efede55796d7f	3	1	main_z	11	advance_on_keypress_ZEE	118	stimuli_target_squaretriangles.svg	stimuli_distractor_trianglediamonds.svg	3	yes	57	0	364	0	0			0	0			1				0	
6.6.1	win	2023-06-02	07:19:30	07:30:58	685701	6168713d805efede55796d7f	3	1	main_z	11	main_z	119	stimuli_distractor_diamondtriangles.svg	stimuli_distractor_diamondtriangles.svg	40	no	0	1	2000	0	0			0	0			1				0	
6.6.1	win	2023-06-02	07:19:30	07:30:58	685701	6168713d805efede55796d7f	3	1	main_z	11	advance_on_keypress_ZEE	120	stimuli_distractor_diamondtriangles.svg	stimuli_distractor_diamondtriangles.svg	40	no	57	0	406	0	0			0	0			1				0	
6.6.1	win	2023-06-02	07:19:30	07:30:59	687286	6168713d805efede55796d7f	3	1	main_z	11	main_z	121	stimuli_distractor_diamondtriangles.svg	stimuli_target_trianglesquares.svg	30	yes	44	1	561	0	0			0	0			1				0	
6.6.1	win	2023-06-02	07:19:30	07:30:59	687286	6168713d805efede55796d7f	3	1	main_z	11	advance_on_keypress_ZEE	122	stimuli_distractor_diamondtriangles.svg	stimuli_target_trianglesquares.svg	30	yes	57	0	308	0	0			0	0			1				0	
6.6.1	win	2023-06-02	07:19:30	07:31:01	688945	6168713d805efede55796d7f	3	1	main_z	11	main_z	123	stimuli_target_trianglesquares.svg	stimuli_distractor_trianglediamonds.svg	18	yes	44	1	735	0	0			0	0			1				0	
6.6.1	win	2023-06-02	07:19:30	07:31:01	688945	6168713d805efede55796d7f	3	1	main_z	11	advance_on_keypress_ZEE	124	stimuli_target_trianglesquares.svg	stimuli_distractor_trianglediamonds.svg	18	yes	57	0	406	0	0			0	0			1				0	
6.6.1	win	2023-06-02	07:19:30	07:31:03	690625	6168713d805efede55796d7f	3	1	main_z	11	main_z	125	stimuli_distractor_trianglediamonds.svg	stimuli_target_squarediamonds.svg	12	yes	44	1	657	0	0			0	0			1				0	
6.6.1	win	2023-06-02	07:19:30	07:31:03	690625	6168713d805efede55796d7f	3	1	main_z	11	advance_on_keypress_ZEE	126	stimuli_distractor_trianglediamonds.svg	stimuli_target_squarediamonds.svg	12	yes	57	0	289	0	0			0	0			1				0	
6.6.1	win	2023-06-02	07:19:30	07:31:04	692151	6168713d805efede55796d7f	3	1	main_z	11	main_z	127	stimuli_target_rectanglediamonds.svg	stimuli_distractor_diamondtriangles.svg	6	yes	44	1	620	0	0			0	0			1				0	
6.6.1	win	2023-06-02	07:19:30	07:31:04	692151	6168713d805efede55796d7f	3	1	main_z	11	advance_on_keypress_ZEE	128	stimuli_target_rectanglediamonds.svg	stimuli_distractor_diamondtriangles.svg	6	yes	57	0	298	0	0			0	0			1				0	
6.6.1	win	2023-06-02	07:19:30	07:31:06	693665	6168713d805efede55796d7f	3	1	main_z	11	main_z	129	stimuli_target_trianglerectangles.svg	stimuli_distractor_trianglediamonds.svg	17	yes	44	1	600	0	0			0	0			1				0	
6.6.1	win	2023-06-02	07:19:30	07:31:06	693665	6168713d805efede55796d7f	3	1	main_z	11	advance_on_keypress_ZEE	130	stimuli_target_trianglerectangles.svg	stimuli_distractor_trianglediamonds.svg	17	yes	57	0	302	0	0			0	0			1				0	
6.6.1	win	2023-06-02	07:19:30	07:31:08	695424	6168713d805efede55796d7f	3	1	main_z	11	main_z	131	stimuli_target_squaretriangles.svg	stimuli_distractor_diamondtriangles.svg	7	yes	44	1	839	0	0			0	0			1				0	
6.6.1	win	2023-06-02	07:19:30	07:31:08	695424	6168713d805efede55796d7f	3	1	main_z	11	advance_on_keypress_ZEE	132	stimuli_target_squaretriangles.svg	stimuli_distractor_diamondtriangles.svg	7	yes	57	0	323	0	0			0	0			1				0	
6.6.1	win	2023-06-02	07:19:30	07:31:09	697060	6168713d805efede55796d7f	3	1	main_z	11	main_z	133	stimuli_target_diamondrectangles.svg	stimuli_distractor_trianglediamonds.svg	19	yes	44	1	698	0	0			0	0			1				0	
6.6.1	win	2023-06-02	07:19:30	07:31:09	697060	6168713d805efede55796d7f	3	1	main_z	11	advance_on_keypress_ZEE	134	stimuli_target_diamondrectangles.svg	stimuli_distractor_trianglediamonds.svg	19	yes	57	0	301	0	0			0	0			1				0	
6.6.1	win	2023-06-02	07:19:30	07:31:11	698697	6168713d805efede55796d7f	3	1	main_z	11	main_z	135	stimuli_distractor_trianglediamonds.svg	stimuli_target_squaretriangles.svg	11	yes	44	1	723	0	0			0	0			1				0	
6.6.1	win	2023-06-02	07:19:30	07:31:11	698697	6168713d805efede55796d7f	3	1	main_z	11	advance_on_keypress_ZEE	136	stimuli_distractor_trianglediamonds.svg	stimuli_target_squaretriangles.svg	11	yes	57	0	288	0	0			0	0			1				0	
6.6.1	win	2023-06-02	07:19:30	07:31:14	701597	6168713d805efede55796d7f	3	1	main_z	11	main_z	137	stimuli_distractor_diamondtriangles.svg	stimuli_target_diamondrectangles.svg	31	yes	0	0	2000	0	0			0	0			1				0	
6.6.1	win	2023-06-02	07:19:30	07:31:14	701597	6168713d805efede55796d7f	3	1	main_z	11	advance_on_keypress_ZEE	138	stimuli_distractor_diamondtriangles.svg	stimuli_target_diamondrectangles.svg	31	yes	57	0	478	0	0			0	0			1				0	
6.6.1	win	2023-06-02	07:19:30	07:31:17	704694	6168713d805efede55796d7f	3	1	main_z	11	main_z	139	stimuli_distractor_trianglediamonds.svg	stimuli_distractor_trianglediamonds.svg	34	no	0	1	2000	0	0			0	0			1				0	
6.6.1	win	2023-06-02	07:19:30	07:31:17	704694	6168713d805efede55796d7f	3	1	main_z	11	advance_on_keypress_ZEE	140	stimuli_distractor_trianglediamonds.svg	stimuli_distractor_trianglediamonds.svg	34	no	57	0	276	0	0			0	0			1				0	
6.6.1	win	2023-06-02	07:19:30	07:31:20	707585	6168713d805efede55796d7f	3	1	main_z	11	main_z	141	stimuli_distractor_trianglediamonds.svg	stimuli_distractor_diamondtriangles.svg	35	no	0	1	2000	0	0			0	0			1				0	
6.6.1	win	2023-06-02	07:19:30	07:31:20	707585	6168713d805efede55796d7f	3	1	main_z	11	advance_on_keypress_ZEE	142	stimuli_distractor_trianglediamonds.svg	stimuli_distractor_diamondtriangles.svg	35	no	57	0	262	0	0			0	0			1				0	
6.6.1	win	2023-06-02	07:19:30	07:31:21	709191	6168713d805efede55796d7f	3	1	main_z	11	main_z	143	stimuli_distractor_diamondtriangles.svg	stimuli_target_rectangletriangles.svg	13	yes	44	1	728	0	0			0	0			1				0	
6.6.1	win	2023-06-02	07:19:30	07:31:21	709191	6168713d805efede55796d7f	3	1	main_z	11	advance_on_keypress_ZEE	144	stimuli_distractor_diamondtriangles.svg	stimuli_target_rectangletriangles.svg	13	yes	57	0	336	0	0			0	0			1				0	
6.6.1	win	2023-06-02	07:19:30	07:31:24	712142	6168713d805efede55796d7f	3	1	main_z	11	main_z	145	stimuli_target_diamondsquares.svg	stimuli_distractor_trianglediamonds.svg	20	yes	0	0	2000	0	0			0	0			1				0	
6.6.1	win	2023-06-02	07:19:30	07:31:24	712142	6168713d805efede55796d7f	3	1	main_z	11	advance_on_keypress_ZEE	146	stimuli_target_diamondsquares.svg	stimuli_distractor_trianglediamonds.svg	20	yes	57	0	345	0	0			0	0			1				0	
6.6.1	win	2023-06-02	07:19:30	07:31:26	713661	6168713d805efede55796d7f	3	1	main_z	11	main_z	147	stimuli_target_rectangletriangles.svg	stimuli_distractor_trianglediamonds.svg	1	yes	44	1	554	0	0			0	0			1				0	
6.6.1	win	2023-06-02	07:19:30	07:31:26	713661	6168713d805efede55796d7f	3	1	main_z	11	advance_on_keypress_ZEE	148	stimuli_target_rectangletriangles.svg	stimuli_distractor_trianglediamonds.svg	1	yes	57	0	453	0	0			0	0			1				0	
6.6.1	win	2023-06-02	07:19:30	07:31:28	715444	6168713d805efede55796d7f	3	1	main_z	11	main_z	149	stimuli_target_squarediamonds.svg	stimuli_distractor_trianglediamonds.svg	4	yes	44	1	719	0	0			0	0			1				0	
6.6.1	win	2023-06-02	07:19:30	07:31:28	715444	6168713d805efede55796d7f	3	1	main_z	11	advance_on_keypress_ZEE	150	stimuli_target_squarediamonds.svg	stimuli_distractor_trianglediamonds.svg	4	yes	57	0	572	0	0			0	0			1				0	
6.6.1	win	2023-06-02	07:19:30	07:31:29	717168	6168713d805efede55796d7f	3	1	main_z	11	main_z	151	stimuli_distractor_diamondtriangles.svg	stimuli_target_squarediamonds.svg	16	yes	44	1	541	0	0			0	0			1				0	
6.6.1	win	2023-06-02	07:19:30	07:31:29	717168	6168713d805efede55796d7f	3	1	main_z	11	advance_on_keypress_ZEE	152	stimuli_distractor_diamondtriangles.svg	stimuli_target_squarediamonds.svg	16	yes	57	0	354	0	0			0	0			1				0	
6.6.1	win	2023-06-02	07:19:30	07:31:32	720136	6168713d805efede55796d7f	3	1	main_z	11	main_z	153	stimuli_distractor_diamondtriangles.svg	stimuli_distractor_trianglediamonds.svg	37	no	0	1	2000	0	0			0	0			1				0	
6.6.1	win	2023-06-02	07:19:30	07:31:32	720136	6168713d805efede55796d7f	3	1	main_z	11	advance_on_keypress_ZEE	154	stimuli_distractor_diamondtriangles.svg	stimuli_distractor_trianglediamonds.svg	37	no	57	0	301	0	0			0	0			1				0	
6.6.1	win	2023-06-02	07:19:30	07:31:35	723051	6168713d805efede55796d7f	3	1	main_z	11	main_z	155	stimuli_distractor_diamondtriangles.svg	stimuli_target_diamondsquares.svg	32	yes	0	0	2000	0	0			0	0			1				0	
6.6.1	win	2023-06-02	07:19:30	07:31:35	723051	6168713d805efede55796d7f	3	1	main_z	11	advance_on_keypress_ZEE	156	stimuli_distractor_diamondtriangles.svg	stimuli_target_diamondsquares.svg	32	yes	57	0	370	0	0			0	0			1				0	
6.6.1	win	2023-06-02	07:19:30	07:31:38	726039	6168713d805efede55796d7f	3	1	main_z	11	main_z	157	stimuli_distractor_trianglediamonds.svg	stimuli_target_diamondrectangles.svg	27	yes	0	0	2000	0	0			0	0			1				0	
6.6.1	win	2023-06-02	07:19:30	07:31:38	726039	6168713d805efede55796d7f	3	1	main_z	11	advance_on_keypress_ZEE	158	stimuli_distractor_trianglediamonds.svg	stimuli_target_diamondrectangles.svg	27	yes	57	0	256	0	0			0	0			1				0	
6.6.1	win	2023-06-02	07:19:30	07:31:41	728912	6168713d805efede55796d7f	3	1	main_z	11	main_z	159	stimuli_distractor_trianglediamonds.svg	stimuli_distractor_trianglediamonds.svg	33	no	0	1	2000	0	0			0	0			1				0	
6.6.1	win	2023-06-02	07:19:30	07:31:41	728912	6168713d805efede55796d7f	3	1	main_z	11	advance_on_keypress_ZEE	160	stimuli_distractor_trianglediamonds.svg	stimuli_distractor_trianglediamonds.svg	33	no	57	0	263	0	0			0	0			1				0	
6.6.1	win	2023-06-02	07:19:30	07:31:41	728912	6168713d805efede55796d7f	3	1	headphonecheck_calibration	14	headphonecheck_calibrationIntro	1	stimuli_distractor_trianglediamonds.svg	stimuli_distractor_trianglediamonds.svg	33	no	calibrationButton	0	3989	0	0			0	0			1				0	
6.6.1	win	2023-06-02	07:19:30	07:31:41	728912	6168713d805efede55796d7f	3	1	headphonecheck_testphase	15	test_collectResponse	3	stimuli_distractor_trianglediamonds.svg	stimuli_distractor_trianglediamonds.svg	33	no	first	1	14704	1	3	antiphase_hc_soi.wav	1	0	0			1				0	
6.6.1	win	2023-06-02	07:19:30	07:31:41	728912	6168713d805efede55796d7f	3	1	headphonecheck_testphase	15	test_collectResponse	6	stimuli_distractor_trianglediamonds.svg	stimuli_distractor_trianglediamonds.svg	33	no	first	0	12575	2	5	antiphase_hc_osi.wav	2	0	0			1				0	
6.6.1	win	2023-06-02	07:19:30	07:31:41	728912	6168713d805efede55796d7f	3	1	headphonecheck_testphase	15	test_collectResponse	9	stimuli_distractor_trianglediamonds.svg	stimuli_distractor_trianglediamonds.svg	33	no	second	1	1218	3	1	antiphase_hc_iso.wav	2	0	0			1				0	
6.6.1	win	2023-06-02	07:19:30	07:31:41	728912	6168713d805efede55796d7f	3	1	headphonecheck_testphase	15	test_collectResponse	12	stimuli_distractor_trianglediamonds.svg	stimuli_distractor_trianglediamonds.svg	33	no	third	0	4119	4	4	antiphase_hc_sio.wav	1	0	0			1				0	
6.6.1	win	2023-06-02	07:19:30	07:31:41	728912	6168713d805efede55796d7f	3	1	headphonecheck_testphase	15	test_collectResponse	15	stimuli_distractor_trianglediamonds.svg	stimuli_distractor_trianglediamonds.svg	33	no	third	1	1142	5	6	antiphase_hc_ois.wav	3	0	0			1				0	
6.6.1	win	2023-06-02	07:19:30	07:31:41	728912	6168713d805efede55796d7f	3	1	headphonecheck_testphase	15	test_collectResponse	18	stimuli_distractor_trianglediamonds.svg	stimuli_distractor_trianglediamonds.svg	33	no	second	0	576	6	2	antiphase_hc_ios.wav	3	0	0			1				0	
6.6.1	win	2023-06-02	07:19:30	07:31:41	728912	6168713d805efede55796d7f	3	1	stereocheck_calibration	17	stereocheck_calibrationIntro	1	stimuli_distractor_trianglediamonds.svg	stimuli_distractor_trianglediamonds.svg	33	no	stereocheck_calibrationButton	0	5008	6	2	antiphase_hc_ios.wav	3	0	0			1				0	
6.6.1	win	2023-06-02	07:19:30	07:31:41	728912	6168713d805efede55796d7f	3	1	stereocheck_testphase	18	stereocheck_test_collectResponse	3	stimuli_distractor_trianglediamonds.svg	stimuli_distractor_trianglediamonds.svg	33	no	stereocheck_left	0	1262	6	2	antiphase_hc_ios.wav	3	1	5	noise_calib_stim_RIGHT.wav	2	1				0	
6.6.1	win	2023-06-02	07:19:30	07:31:41	728912	6168713d805efede55796d7f	3	1	stereocheck_testphase	18	stereocheck_test_collectResponse	6	stimuli_distractor_trianglediamonds.svg	stimuli_distractor_trianglediamonds.svg	33	no	stereocheck_right	0	244	6	2	antiphase_hc_ios.wav	3	2	2	noise_calib_stim_LEFT.wav	1	1				0	
6.6.1	win	2023-06-02	07:19:30	07:31:41	728912	6168713d805efede55796d7f	3	1	stereocheck_testphase	18	stereocheck_test_collectResponse	9	stimuli_distractor_trianglediamonds.svg	stimuli_distractor_trianglediamonds.svg	33	no	stereocheck_left	1	1059	6	2	antiphase_hc_ios.wav	3	3	1	noise_calib_stim_LEFT.wav	1	1				0	
6.6.1	win	2023-06-02	07:19:30	07:31:41	728912	6168713d805efede55796d7f	3	1	stereocheck_testphase	18	stereocheck_test_collectResponse	12	stimuli_distractor_trianglediamonds.svg	stimuli_distractor_trianglediamonds.svg	33	no	stereocheck_left	0	555	6	2	antiphase_hc_ios.wav	3	4	6	noise_calib_stim_RIGHT.wav	2	1				0	
6.6.1	win	2023-06-02	07:19:30	07:31:41	728912	6168713d805efede55796d7f	3	1	stereocheck_testphase	18	stereocheck_test_collectResponse	15	stimuli_distractor_trianglediamonds.svg	stimuli_distractor_trianglediamonds.svg	33	no	stereocheck_left	1	419	6	2	antiphase_hc_ios.wav	3	5	3	noise_calib_stim_LEFT.wav	1	1				0	
6.6.1	win	2023-06-02	07:19:30	07:31:41	728912	6168713d805efede55796d7f	3	1	stereocheck_testphase	18	stereocheck_test_collectResponse	18	stimuli_distractor_trianglediamonds.svg	stimuli_distractor_trianglediamonds.svg	33	no	stereocheck_left	0	8552	6	2	antiphase_hc_ios.wav	3	6	4	noise_calib_stim_RIGHT.wav	2	1				0	
6.6.1	win	2023-06-02	07:19:30	07:31:41	728912	6168713d805efede55796d7f	3	1	DL_practice	21	DL_practice	2	stimuli_distractor_trianglediamonds.svg	stimuli_distractor_trianglediamonds.svg	33	no	ka	1	1873	6	2	antiphase_hc_ios.wav	3	6	4	noise_calib_stim_RIGHT.wav	2	23	blb_dichoticlistening_ka-pa.mp3	ka	pa	1	left
6.6.1	win	2023-06-02	07:19:30	07:31:41	728912	6168713d805efede55796d7f	3	1	DL_practice	21	DL_practice	3	stimuli_distractor_trianglediamonds.svg	stimuli_distractor_trianglediamonds.svg	33	no	ba	1	1516	6	2	antiphase_hc_ios.wav	3	6	4	noise_calib_stim_RIGHT.wav	2	1	blb_dichoticlistening_ba-ba.mp3	ba	ba	0	left
6.6.1	win	2023-06-02	07:19:30	07:31:41	728912	6168713d805efede55796d7f	3	1	DL_practice	21	DL_practice	4	stimuli_distractor_trianglediamonds.svg	stimuli_distractor_trianglediamonds.svg	33	no	ta	1	1455	6	2	antiphase_hc_ios.wav	3	6	4	noise_calib_stim_RIGHT.wav	2	36	blb_dichoticlistening_ta-ta.mp3	ta	ta	0	left
6.6.1	win	2023-06-02	07:19:30	07:31:41	728912	6168713d805efede55796d7f	3	1	DL_practice	21	DL_practice	5	stimuli_distractor_trianglediamonds.svg	stimuli_distractor_trianglediamonds.svg	33	no	da	1	1335	6	2	antiphase_hc_ios.wav	3	6	4	noise_calib_stim_RIGHT.wav	2	8	blb_dichoticlistening_da-da.mp3	da	da	0	left
6.6.1	win	2023-06-02	07:19:30	07:31:41	728912	6168713d805efede55796d7f	3	1	DL_practice	21	DL_practice	6	stimuli_distractor_trianglediamonds.svg	stimuli_distractor_trianglediamonds.svg	33	no	da	1	1930	6	2	antiphase_hc_ios.wav	3	6	4	noise_calib_stim_RIGHT.wav	2	7	blb_dichoticlistening_da-ba.mp3	da	ba	1	left
6.6.1	win	2023-06-02	07:19:30	07:31:41	728912	6168713d805efede55796d7f	3	1	DL_practice	21	DL_practice	7	stimuli_distractor_trianglediamonds.svg	stimuli_distractor_trianglediamonds.svg	33	no	ga	1	1153	6	2	antiphase_hc_ios.wav	3	6	4	noise_calib_stim_RIGHT.wav	2	15	blb_dichoticlistening_ga-ga.mp3	ga	ga	0	left
6.6.1	win	2023-06-02	07:19:30	07:31:41	728912	6168713d805efede55796d7f	3	1	DL_practice	21	DL_practice	8	stimuli_distractor_trianglediamonds.svg	stimuli_distractor_trianglediamonds.svg	33	no	pa	1	1606	6	2	antiphase_hc_ios.wav	3	6	4	noise_calib_stim_RIGHT.wav	2	29	blb_dichoticlistening_pa-pa.mp3	pa	pa	0	left
6.6.1	win	2023-06-02	07:19:30	07:31:41	728912	6168713d805efede55796d7f	3	1	DL_practice	21	DL_practice	9	stimuli_distractor_trianglediamonds.svg	stimuli_distractor_trianglediamonds.svg	33	no	ka	1	1100	6	2	antiphase_hc_ios.wav	3	6	4	noise_calib_stim_RIGHT.wav	2	22	blb_dichoticlistening_ka-ka.mp3	ka	ka	0	left
6.6.1	win	2023-06-02	07:19:30	07:31:41	728912	6168713d805efede55796d7f	3	1	DL_practice	21	DL_practice	10	stimuli_distractor_trianglediamonds.svg	stimuli_distractor_trianglediamonds.svg	33	no	ga	1	1178	6	2	antiphase_hc_ios.wav	3	6	4	noise_calib_stim_RIGHT.wav	2	18	blb_dichoticlistening_ga-ta.mp3	ga	ta	1	left
6.6.1	win	2023-06-02	07:19:30	07:31:41	728912	6168713d805efede55796d7f	3	1	DL_test	23	DL_test	1	stimuli_distractor_trianglediamonds.svg	stimuli_distractor_trianglediamonds.svg	33	no	ka	1	1582	6	2	antiphase_hc_ios.wav	3	6	4	noise_calib_stim_RIGHT.wav	2	34	blb_dichoticlistening_ta-ka.mp3	ta	ka	1	right
6.6.1	win	2023-06-02	07:19:30	07:31:41	728912	6168713d805efede55796d7f	3	1	DL_test	23	DL_test	2	stimuli_distractor_trianglediamonds.svg	stimuli_distractor_trianglediamonds.svg	33	no	da	1	1251	6	2	antiphase_hc_ios.wav	3	6	4	noise_calib_stim_RIGHT.wav	2	26	blb_dichoticlistening_pa-da.mp3	pa	da	1	right
6.6.1	win	2023-06-02	07:19:30	07:31:41	728912	6168713d805efede55796d7f	3	1	DL_test	23	DL_test	3	stimuli_distractor_trianglediamonds.svg	stimuli_distractor_trianglediamonds.svg	33	no	ga	1	1422	6	2	antiphase_hc_ios.wav	3	6	4	noise_calib_stim_RIGHT.wav	2	16	blb_dichoticlistening_ga-ka.mp3	ga	ka	1	left
6.6.1	win	2023-06-02	07:19:30	07:31:41	728912	6168713d805efede55796d7f	3	1	DL_test	23	DL_test	4	stimuli_distractor_trianglediamonds.svg	stimuli_distractor_trianglediamonds.svg	33	no	ga	1	1269	6	2	antiphase_hc_ios.wav	3	6	4	noise_calib_stim_RIGHT.wav	2	15	blb_dichoticlistening_ga-ga.mp3	ga	ga	0	left
6.6.1	win	2023-06-02	07:19:30	07:31:41	728912	6168713d805efede55796d7f	3	1	DL_test	23	DL_test	5	stimuli_distractor_trianglediamonds.svg	stimuli_distractor_trianglediamonds.svg	33	no	ga	1	1086	6	2	antiphase_hc_ios.wav	3	6	4	noise_calib_stim_RIGHT.wav	2	18	blb_dichoticlistening_ga-ta.mp3	ga	ta	1	left
6.6.1	win	2023-06-02	07:19:30	07:31:41	728912	6168713d805efede55796d7f	3	1	DL_test	23	DL_test	6	stimuli_distractor_trianglediamonds.svg	stimuli_distractor_trianglediamonds.svg	33	no	pa	0	1483	6	2	antiphase_hc_ios.wav	3	6	4	noise_calib_stim_RIGHT.wav	2	31	blb_dichoticlistening_ta-ba.mp3	ta	ba	1	other
6.6.1	win	2023-06-02	07:19:30	07:31:41	728912	6168713d805efede55796d7f	3	1	DL_test	23	DL_test	7	stimuli_distractor_trianglediamonds.svg	stimuli_distractor_trianglediamonds.svg	33	no	ta	1	1604	6	2	antiphase_hc_ios.wav	3	6	4	noise_calib_stim_RIGHT.wav	2	30	blb_dichoticlistening_pa-ta.mp3	pa	ta	1	right
6.6.1	win	2023-06-02	07:19:30	07:31:41	728912	6168713d805efede55796d7f	3	1	DL_test	23	DL_test	8	stimuli_distractor_trianglediamonds.svg	stimuli_distractor_trianglediamonds.svg	33	no	ka	1	975	6	2	antiphase_hc_ios.wav	3	6	4	noise_calib_stim_RIGHT.wav	2	23	blb_dichoticlistening_ka-pa.mp3	ka	pa	1	left
6.6.1	win	2023-06-02	07:19:30	07:31:41	728912	6168713d805efede55796d7f	3	1	DL_test	23	DL_test	9	stimuli_distractor_trianglediamonds.svg	stimuli_distractor_trianglediamonds.svg	33	no	ka	1	1891	6	2	antiphase_hc_ios.wav	3	6	4	noise_calib_stim_RIGHT.wav	2	19	blb_dichoticlistening_ka-ba.mp3	ka	ba	1	left
6.6.1	win	2023-06-02	07:19:30	07:31:41	728912	6168713d805efede55796d7f	3	1	DL_test	23	DL_test	10	stimuli_distractor_trianglediamonds.svg	stimuli_distractor_trianglediamonds.svg	33	no	da	1	1617	6	2	antiphase_hc_ios.wav	3	6	4	noise_calib_stim_RIGHT.wav	2	12	blb_dichoticlistening_da-ta.mp3	da	ta	1	left
6.6.1	win	2023-06-02	07:19:30	07:31:41	728912	6168713d805efede55796d7f	3	1	DL_test	23	DL_test	11	stimuli_distractor_trianglediamonds.svg	stimuli_distractor_trianglediamonds.svg	33	no	pa	1	1277	6	2	antiphase_hc_ios.wav	3	6	4	noise_calib_stim_RIGHT.wav	2	29	blb_dichoticlistening_pa-pa.mp3	pa	pa	0	left
6.6.1	win	2023-06-02	07:19:30	07:31:41	728912	6168713d805efede55796d7f	3	1	DL_test	23	DL_test	12	stimuli_distractor_trianglediamonds.svg	stimuli_distractor_trianglediamonds.svg	33	no	ta	1	1420	6	2	antiphase_hc_ios.wav	3	6	4	noise_calib_stim_RIGHT.wav	2	35	blb_dichoticlistening_ta-pa.mp3	ta	pa	1	left
6.6.1	win	2023-06-02	07:19:30	07:31:41	728912	6168713d805efede55796d7f	3	1	DL_test	23	DL_test	13	stimuli_distractor_trianglediamonds.svg	stimuli_distractor_trianglediamonds.svg	33	no	pa	0	1568	6	2	antiphase_hc_ios.wav	3	6	4	noise_calib_stim_RIGHT.wav	2	6	blb_dichoticlistening_ba-ta.mp3	ba	ta	1	other
6.6.1	win	2023-06-02	07:19:30	07:31:41	728912	6168713d805efede55796d7f	3	1	DL_test	23	DL_test	14	stimuli_distractor_trianglediamonds.svg	stimuli_distractor_trianglediamonds.svg	33	no	ga	1	1220	6	2	antiphase_hc_ios.wav	3	6	4	noise_calib_stim_RIGHT.wav	2	27	blb_dichoticlistening_pa-ga.mp3	pa	ga	1	right
6.6.1	win	2023-06-02	07:19:30	07:31:41	728912	6168713d805efede55796d7f	3	1	DL_test	23	DL_test	15	stimuli_distractor_trianglediamonds.svg	stimuli_distractor_trianglediamonds.svg	33	no	pa	1	1951	6	2	antiphase_hc_ios.wav	3	6	4	noise_calib_stim_RIGHT.wav	2	5	blb_dichoticlistening_ba-pa.mp3	ba	pa	1	right
6.6.1	win	2023-06-02	07:19:30	07:31:41	728912	6168713d805efede55796d7f	3	1	DL_test	23	DL_test	16	stimuli_distractor_trianglediamonds.svg	stimuli_distractor_trianglediamonds.svg	33	no	ba	1	1720	6	2	antiphase_hc_ios.wav	3	6	4	noise_calib_stim_RIGHT.wav	2	1	blb_dichoticlistening_ba-ba.mp3	ba	ba	0	left
6.6.1	win	2023-06-02	07:19:30	07:31:41	728912	6168713d805efede55796d7f	3	1	DL_test	23	DL_test	17	stimuli_distractor_trianglediamonds.svg	stimuli_distractor_trianglediamonds.svg	33	no	ba	1	2371	6	2	antiphase_hc_ios.wav	3	6	4	noise_calib_stim_RIGHT.wav	2	3	blb_dichoticlistening_ba-ga.mp3	ba	ga	1	left
6.6.1	win	2023-06-02	07:19:30	07:31:41	728912	6168713d805efede55796d7f	3	1	DL_test	23	DL_test	18	stimuli_distractor_trianglediamonds.svg	stimuli_distractor_trianglediamonds.svg	33	no	da	1	1705	6	2	antiphase_hc_ios.wav	3	6	4	noise_calib_stim_RIGHT.wav	2	9	blb_dichoticlistening_da-ga.mp3	da	ga	1	left
6.6.1	win	2023-06-02	07:19:30	07:31:41	728912	6168713d805efede55796d7f	3	1	DL_test	23	DL_test	19	stimuli_distractor_trianglediamonds.svg	stimuli_distractor_trianglediamonds.svg	33	no	da	1	1390	6	2	antiphase_hc_ios.wav	3	6	4	noise_calib_stim_RIGHT.wav	2	10	blb_dichoticlistening_da-ka.mp3	da	ka	1	left
6.6.1	win	2023-06-02	07:19:30	07:31:41	728912	6168713d805efede55796d7f	3	1	DL_test	23	DL_test	20	stimuli_distractor_trianglediamonds.svg	stimuli_distractor_trianglediamonds.svg	33	no	ga	1	1288	6	2	antiphase_hc_ios.wav	3	6	4	noise_calib_stim_RIGHT.wav	2	17	blb_dichoticlistening_ga-pa.mp3	ga	pa	1	left
6.6.1	win	2023-06-02	07:19:30	07:31:41	728912	6168713d805efede55796d7f	3	1	DL_test	23	DL_test	21	stimuli_distractor_trianglediamonds.svg	stimuli_distractor_trianglediamonds.svg	33	no	ga	1	989	6	2	antiphase_hc_ios.wav	3	6	4	noise_calib_stim_RIGHT.wav	2	21	blb_dichoticlistening_ka-ga.mp3	ka	ga	1	right
6.6.1	win	2023-06-02	07:19:30	07:31:41	728912	6168713d805efede55796d7f	3	1	DL_test	23	DL_test	22	stimuli_distractor_trianglediamonds.svg	stimuli_distractor_trianglediamonds.svg	33	no	ta	1	1379	6	2	antiphase_hc_ios.wav	3	6	4	noise_calib_stim_RIGHT.wav	2	36	blb_dichoticlistening_ta-ta.mp3	ta	ta	0	left
6.6.1	win	2023-06-02	07:19:30	07:31:41	728912	6168713d805efede55796d7f	3	1	DL_test	23	DL_test	23	stimuli_distractor_trianglediamonds.svg	stimuli_distractor_trianglediamonds.svg	33	no	da	1	1267	6	2	antiphase_hc_ios.wav	3	6	4	noise_calib_stim_RIGHT.wav	2	11	blb_dichoticlistening_da-pa.mp3	da	pa	1	left
6.6.1	win	2023-06-02	07:19:30	07:31:41	728912	6168713d805efede55796d7f	3	1	DL_test	23	DL_test	24	stimuli_distractor_trianglediamonds.svg	stimuli_distractor_trianglediamonds.svg	33	no	ga	1	1040	6	2	antiphase_hc_ios.wav	3	6	4	noise_calib_stim_RIGHT.wav	2	14	blb_dichoticlistening_ga-da.mp3	ga	da	1	left
6.6.1	win	2023-06-02	07:19:30	07:31:41	728912	6168713d805efede55796d7f	3	1	DL_test	23	DL_test	25	stimuli_distractor_trianglediamonds.svg	stimuli_distractor_trianglediamonds.svg	33	no	pa	0	1387	6	2	antiphase_hc_ios.wav	3	6	4	noise_calib_stim_RIGHT.wav	2	13	blb_dichoticlistening_ga-ba.mp3	ga	ba	1	other
