build	computer.platform	date	time	timestamp	time_elapsed_ms	subject	group	session	blockcode	blocknum	trialcode	trialnum	stimulus_left	stimulus_right	stim_index	target_present	response	correct	latency	headphonecheck_countTestTrials	headphonecheck_index	headphonecheck_testSound	headphonecheck_correctResponse	stereocheck_countTestTrials	stereocheck_index	stereocheck_testSound	stereocheck_correctResponse	DL_index	DL_soundfile	DL_leftSound	DL_rightSound	DL_dualSound	DL_choice
6.6.1	win	2023-07-06	19:56:32	19:58:19	103751	5d5e39bd7427d30001d610ba	3	1	practice_slash	5	practice_slash	1	stimuli_distractor_diamondtriangles.svg	stimuli_target_diamondrectangles.svg	8	yes	53	1	1620	0	0			0	0			1				0	
6.6.1	win	2023-07-06	19:56:32	19:58:19	103751	5d5e39bd7427d30001d610ba	3	1	practice_slash	5	advance_on_keypress_SLASH	2	stimuli_distractor_diamondtriangles.svg	stimuli_target_diamondrectangles.svg	8	yes	57	0	554	0	0			0	0			1				0	
6.6.1	win	2023-07-06	19:56:32	19:58:22	106903	5d5e39bd7427d30001d610ba	3	1	practice_slash	5	practice_slash	3	stimuli_distractor_trianglediamonds.svg	stimuli_distractor_trianglediamonds.svg	15	no	53	0	973	0	0			0	0			1				0	
6.6.1	win	2023-07-06	19:56:32	19:58:22	106903	5d5e39bd7427d30001d610ba	3	1	practice_slash	5	advance_on_keypress_SLASH	4	stimuli_distractor_trianglediamonds.svg	stimuli_distractor_trianglediamonds.svg	15	no	57	0	657	0	0			0	0			1				0	
6.6.1	win	2023-07-06	19:56:32	19:58:26	111184	5d5e39bd7427d30001d610ba	3	1	practice_slash	5	practice_slash	5	stimuli_distractor_diamondtriangles.svg	stimuli_distractor_diamondtriangles.svg	13	no	0	1	2003	0	0			0	0			1				0	
6.6.1	win	2023-07-06	19:56:32	19:58:26	111184	5d5e39bd7427d30001d610ba	3	1	practice_slash	5	advance_on_keypress_SLASH	6	stimuli_distractor_diamondtriangles.svg	stimuli_distractor_diamondtriangles.svg	13	no	57	0	483	0	0			0	0			1				0	
6.6.1	win	2023-07-06	19:56:32	19:58:29	114299	5d5e39bd7427d30001d610ba	3	1	practice_slash	5	practice_slash	7	stimuli_distractor_diamondtriangles.svg	stimuli_target_rectangletriangles.svg	7	yes	53	1	1013	0	0			0	0			1				0	
6.6.1	win	2023-07-06	19:56:32	19:58:29	114299	5d5e39bd7427d30001d610ba	3	1	practice_slash	5	advance_on_keypress_SLASH	8	stimuli_distractor_diamondtriangles.svg	stimuli_target_rectangletriangles.svg	7	yes	57	0	447	0	0			0	0			1				0	
6.6.1	win	2023-07-06	19:56:32	19:58:32	117363	5d5e39bd7427d30001d610ba	3	1	practice_slash	5	practice_slash	9	stimuli_distractor_trianglediamonds.svg	stimuli_target_diamondrectangles.svg	12	yes	53	1	1000	0	0			0	0			1				0	
6.6.1	win	2023-07-06	19:56:32	19:58:32	117363	5d5e39bd7427d30001d610ba	3	1	practice_slash	5	advance_on_keypress_SLASH	10	stimuli_distractor_trianglediamonds.svg	stimuli_target_diamondrectangles.svg	12	yes	57	0	347	0	0			0	0			1				0	
6.6.1	win	2023-07-06	19:56:32	19:58:35	120184	5d5e39bd7427d30001d610ba	3	1	practice_slash	5	practice_slash	11	stimuli_target_squarediamonds.svg	stimuli_distractor_diamondtriangles.svg	2	yes	53	1	856	0	0			0	0			1				0	
6.6.1	win	2023-07-06	19:56:32	19:58:35	120184	5d5e39bd7427d30001d610ba	3	1	practice_slash	5	advance_on_keypress_SLASH	12	stimuli_target_squarediamonds.svg	stimuli_distractor_diamondtriangles.svg	2	yes	57	0	255	0	0			0	0			1				0	
6.6.1	win	2023-07-06	19:56:32	19:58:38	123086	5d5e39bd7427d30001d610ba	3	1	practice_slash	5	practice_slash	13	stimuli_target_rectanglediamonds.svg	stimuli_distractor_diamondtriangles.svg	1	yes	53	1	1029	0	0			0	0			1				0	
6.6.1	win	2023-07-06	19:56:32	19:58:38	123086	5d5e39bd7427d30001d610ba	3	1	practice_slash	5	advance_on_keypress_SLASH	14	stimuli_target_rectanglediamonds.svg	stimuli_distractor_diamondtriangles.svg	1	yes	57	0	243	0	0			0	0			1				0	
6.6.1	win	2023-07-06	19:56:32	19:58:41	126201	5d5e39bd7427d30001d610ba	3	1	practice_slash	5	practice_slash	15	stimuli_target_rectanglediamonds.svg	stimuli_distractor_trianglediamonds.svg	4	yes	53	1	1253	0	0			0	0			1				0	
6.6.1	win	2023-07-06	19:56:32	19:58:41	126201	5d5e39bd7427d30001d610ba	3	1	practice_slash	5	advance_on_keypress_SLASH	16	stimuli_target_rectanglediamonds.svg	stimuli_distractor_trianglediamonds.svg	4	yes	57	0	539	0	0			0	0			1				0	
6.6.1	win	2023-07-06	19:56:32	19:58:44	128848	5d5e39bd7427d30001d610ba	3	1	practice_slash	5	practice_slash	17	stimuli_target_squarediamonds.svg	stimuli_distractor_trianglediamonds.svg	5	yes	53	1	498	0	0			0	0			1				0	
6.6.1	win	2023-07-06	19:56:32	19:58:44	128848	5d5e39bd7427d30001d610ba	3	1	practice_slash	5	advance_on_keypress_SLASH	18	stimuli_target_squarediamonds.svg	stimuli_distractor_trianglediamonds.svg	5	yes	57	0	452	0	0			0	0			1				0	
6.6.1	win	2023-07-06	19:56:32	19:58:47	131913	5d5e39bd7427d30001d610ba	3	1	practice_slash	5	practice_slash	19	stimuli_distractor_trianglediamonds.svg	stimuli_target_rectanglediamonds.svg	10	yes	53	1	999	0	0			0	0			1				0	
6.6.1	win	2023-07-06	19:56:32	19:58:47	131913	5d5e39bd7427d30001d610ba	3	1	practice_slash	5	advance_on_keypress_SLASH	20	stimuli_distractor_trianglediamonds.svg	stimuli_target_rectanglediamonds.svg	10	yes	57	0	196	0	0			0	0			1				0	
6.6.1	win	2023-07-06	19:56:32	19:58:50	134553	5d5e39bd7427d30001d610ba	3	1	practice_slash	5	practice_slash	21	stimuli_distractor_diamondtriangles.svg	stimuli_target_trianglerectangles.svg	9	yes	53	1	826	0	0			0	0			1				0	
6.6.1	win	2023-07-06	19:56:32	19:58:50	134553	5d5e39bd7427d30001d610ba	3	1	practice_slash	5	advance_on_keypress_SLASH	22	stimuli_distractor_diamondtriangles.svg	stimuli_target_trianglerectangles.svg	9	yes	57	0	216	0	0			0	0			1				0	
6.6.1	win	2023-07-06	19:56:32	19:58:53	138390	5d5e39bd7427d30001d610ba	3	1	practice_slash	5	practice_slash	23	stimuli_distractor_trianglediamonds.svg	stimuli_distractor_diamondtriangles.svg	16	no	0	1	2003	0	0			0	0			1				0	
6.6.1	win	2023-07-06	19:56:32	19:58:53	138390	5d5e39bd7427d30001d610ba	3	1	practice_slash	5	advance_on_keypress_SLASH	24	stimuli_distractor_trianglediamonds.svg	stimuli_distractor_diamondtriangles.svg	16	no	57	0	30	0	0			0	0			1				0	
6.6.1	win	2023-07-06	19:56:32	19:58:57	142037	5d5e39bd7427d30001d610ba	3	1	practice_slash	5	practice_slash	25	stimuli_distractor_diamondtriangles.svg	stimuli_distractor_trianglediamonds.svg	14	no	0	1	2003	0	0			0	0			1				0	
6.6.1	win	2023-07-06	19:56:32	19:58:57	142037	5d5e39bd7427d30001d610ba	3	1	practice_slash	5	advance_on_keypress_SLASH	26	stimuli_distractor_diamondtriangles.svg	stimuli_distractor_trianglediamonds.svg	14	no	57	0	194	0	0			0	0			1				0	
6.6.1	win	2023-07-06	19:56:32	19:58:59	144322	5d5e39bd7427d30001d610ba	3	1	practice_slash	5	practice_slash	27	stimuli_target_diamondsquares.svg	stimuli_distractor_diamondtriangles.svg	3	yes	53	1	475	0	0			0	0			1				0	
6.6.1	win	2023-07-06	19:56:32	19:58:59	144322	5d5e39bd7427d30001d610ba	3	1	practice_slash	5	advance_on_keypress_SLASH	28	stimuli_target_diamondsquares.svg	stimuli_distractor_diamondtriangles.svg	3	yes	57	0	33	0	0			0	0			1				0	
6.6.1	win	2023-07-06	19:56:32	19:59:01	146397	5d5e39bd7427d30001d610ba	3	1	practice_slash	5	practice_slash	29	stimuli_target_diamondsquares.svg	stimuli_distractor_trianglediamonds.svg	6	yes	53	1	425	0	0			0	0			1				0	
6.6.1	win	2023-07-06	19:56:32	19:59:01	146397	5d5e39bd7427d30001d610ba	3	1	practice_slash	5	advance_on_keypress_SLASH	30	stimuli_target_diamondsquares.svg	stimuli_distractor_trianglediamonds.svg	6	yes	57	0	63	0	0			0	0			1				0	
6.6.1	win	2023-07-06	19:56:32	19:59:04	148621	5d5e39bd7427d30001d610ba	3	1	practice_slash	5	practice_slash	31	stimuli_distractor_trianglediamonds.svg	stimuli_target_squarediamonds.svg	11	yes	53	1	544	0	0			0	0			1				0	
6.6.1	win	2023-07-06	19:56:32	19:59:04	148621	5d5e39bd7427d30001d610ba	3	1	practice_slash	5	advance_on_keypress_SLASH	32	stimuli_distractor_trianglediamonds.svg	stimuli_target_squarediamonds.svg	11	yes	57	0	137	0	0			0	0			1				0	
6.6.1	win	2023-07-06	19:56:32	19:59:10	154759	5d5e39bd7427d30001d610ba	3	1	main_slash	7	main_slash	1	stimuli_target_rectanglediamonds.svg	stimuli_distractor_trianglediamonds.svg	2	yes	53	1	799	0	0			0	0			1				0	
6.6.1	win	2023-07-06	19:56:32	19:59:10	154759	5d5e39bd7427d30001d610ba	3	1	main_slash	7	advance_on_keypress_SLASH	2	stimuli_target_rectanglediamonds.svg	stimuli_distractor_trianglediamonds.svg	2	yes	57	0	1434	0	0			0	0			1				0	
6.6.1	win	2023-07-06	19:56:32	19:59:12	157224	5d5e39bd7427d30001d610ba	3	1	main_slash	7	main_slash	3	stimuli_distractor_trianglediamonds.svg	stimuli_target_trianglesquares.svg	26	yes	53	1	417	0	0			0	0			1				0	
6.6.1	win	2023-07-06	19:56:32	19:59:12	157224	5d5e39bd7427d30001d610ba	3	1	main_slash	7	advance_on_keypress_SLASH	4	stimuli_distractor_trianglediamonds.svg	stimuli_target_trianglesquares.svg	26	yes	57	0	1230	0	0			0	0			1				0	
6.6.1	win	2023-07-06	19:56:32	19:59:16	161075	5d5e39bd7427d30001d610ba	3	1	main_slash	7	main_slash	5	stimuli_distractor_diamondtriangles.svg	stimuli_distractor_trianglediamonds.svg	38	no	0	1	2003	0	0			0	0			1				0	
6.6.1	win	2023-07-06	19:56:32	19:59:16	161075	5d5e39bd7427d30001d610ba	3	1	main_slash	7	advance_on_keypress_SLASH	6	stimuli_distractor_diamondtriangles.svg	stimuli_distractor_trianglediamonds.svg	38	no	57	0	439	0	0			0	0			1				0	
6.6.1	win	2023-07-06	19:56:32	19:59:18	162764	5d5e39bd7427d30001d610ba	3	1	main_slash	7	main_slash	7	stimuli_target_diamondrectangles.svg	stimuli_distractor_diamondtriangles.svg	23	yes	53	1	633	0	0			0	0			1				0	
6.6.1	win	2023-07-06	19:56:32	19:59:18	162764	5d5e39bd7427d30001d610ba	3	1	main_slash	7	advance_on_keypress_SLASH	8	stimuli_target_diamondrectangles.svg	stimuli_distractor_diamondtriangles.svg	23	yes	57	0	629	0	0			0	0			1				0	
6.6.1	win	2023-07-06	19:56:32	19:59:20	164675	5d5e39bd7427d30001d610ba	3	1	main_slash	7	main_slash	9	stimuli_distractor_diamondtriangles.svg	stimuli_target_trianglerectangles.svg	29	yes	53	1	672	0	0			0	0			1				0	
6.6.1	win	2023-07-06	19:56:32	19:59:20	164675	5d5e39bd7427d30001d610ba	3	1	main_slash	7	advance_on_keypress_SLASH	10	stimuli_distractor_diamondtriangles.svg	stimuli_target_trianglerectangles.svg	29	yes	57	0	421	0	0			0	0			1				0	
6.6.1	win	2023-07-06	19:56:32	19:59:21	166107	5d5e39bd7427d30001d610ba	3	1	main_slash	7	main_slash	11	stimuli_target_rectangletriangles.svg	stimuli_distractor_diamondtriangles.svg	5	yes	53	1	392	0	0			0	0			1				0	
6.6.1	win	2023-07-06	19:56:32	19:59:21	166107	5d5e39bd7427d30001d610ba	3	1	main_slash	7	advance_on_keypress_SLASH	12	stimuli_target_rectangletriangles.svg	stimuli_distractor_diamondtriangles.svg	5	yes	57	0	580	0	0			0	0			1				0	
6.6.1	win	2023-07-06	19:56:32	19:59:23	167657	5d5e39bd7427d30001d610ba	3	1	main_slash	7	main_slash	13	stimuli_target_squarediamonds.svg	stimuli_distractor_diamondtriangles.svg	8	yes	53	1	355	0	0			0	0			1				0	
6.6.1	win	2023-07-06	19:56:32	19:59:23	167657	5d5e39bd7427d30001d610ba	3	1	main_slash	7	advance_on_keypress_SLASH	14	stimuli_target_squarediamonds.svg	stimuli_distractor_diamondtriangles.svg	8	yes	57	0	267	0	0			0	0			1				0	
6.6.1	win	2023-07-06	19:56:32	19:59:24	168986	5d5e39bd7427d30001d610ba	3	1	main_slash	7	main_slash	15	stimuli_distractor_trianglediamonds.svg	stimuli_target_trianglerectangles.svg	25	yes	53	1	448	0	0			0	0			1				0	
6.6.1	win	2023-07-06	19:56:32	19:59:24	168986	5d5e39bd7427d30001d610ba	3	1	main_slash	7	advance_on_keypress_SLASH	16	stimuli_distractor_trianglediamonds.svg	stimuli_target_trianglerectangles.svg	25	yes	57	0	312	0	0			0	0			1				0	
6.6.1	win	2023-07-06	19:56:32	19:59:25	170297	5d5e39bd7427d30001d610ba	3	1	main_slash	7	main_slash	17	stimuli_distractor_trianglediamonds.svg	stimuli_target_diamondsquares.svg	28	yes	53	1	384	0	0			0	0			1				0	
6.6.1	win	2023-07-06	19:56:32	19:59:25	170297	5d5e39bd7427d30001d610ba	3	1	main_slash	7	advance_on_keypress_SLASH	18	stimuli_distractor_trianglediamonds.svg	stimuli_target_diamondsquares.svg	28	yes	57	0	212	0	0			0	0			1				0	
6.6.1	win	2023-07-06	19:56:32	19:59:27	171479	5d5e39bd7427d30001d610ba	3	1	main_slash	7	main_slash	19	stimuli_target_rectanglediamonds.svg	stimuli_distractor_diamondtriangles.svg	6	yes	53	1	356	0	0			0	0			1				0	
6.6.1	win	2023-07-06	19:56:32	19:59:27	171479	5d5e39bd7427d30001d610ba	3	1	main_slash	7	advance_on_keypress_SLASH	20	stimuli_target_rectanglediamonds.svg	stimuli_distractor_diamondtriangles.svg	6	yes	57	0	255	0	0			0	0			1				0	
6.6.1	win	2023-07-06	19:56:32	19:59:28	172751	5d5e39bd7427d30001d610ba	3	1	main_slash	7	main_slash	21	stimuli_distractor_diamondtriangles.svg	stimuli_target_diamondrectangles.svg	31	yes	53	1	407	0	0			0	0			1				0	
6.6.1	win	2023-07-06	19:56:32	19:59:28	172751	5d5e39bd7427d30001d610ba	3	1	main_slash	7	advance_on_keypress_SLASH	22	stimuli_distractor_diamondtriangles.svg	stimuli_target_diamondrectangles.svg	31	yes	57	0	208	0	0			0	0			1				0	
6.6.1	win	2023-07-06	19:56:32	19:59:29	174136	5d5e39bd7427d30001d610ba	3	1	main_slash	7	main_slash	23	stimuli_distractor_trianglediamonds.svg	stimuli_target_squarediamonds.svg	12	yes	53	1	562	0	0			0	0			1				0	
6.6.1	win	2023-07-06	19:56:32	19:59:29	174136	5d5e39bd7427d30001d610ba	3	1	main_slash	7	advance_on_keypress_SLASH	24	stimuli_distractor_trianglediamonds.svg	stimuli_target_squarediamonds.svg	12	yes	57	0	186	0	0			0	0			1				0	
6.6.1	win	2023-07-06	19:56:32	19:59:30	175381	5d5e39bd7427d30001d610ba	3	1	main_slash	7	main_slash	25	stimuli_distractor_trianglediamonds.svg	stimuli_target_rectanglediamonds.svg	10	yes	53	1	438	0	0			0	0			1				0	
6.6.1	win	2023-07-06	19:56:32	19:59:30	175381	5d5e39bd7427d30001d610ba	3	1	main_slash	7	advance_on_keypress_SLASH	26	stimuli_distractor_trianglediamonds.svg	stimuli_target_rectanglediamonds.svg	10	yes	57	0	192	0	0			0	0			1				0	
6.6.1	win	2023-07-06	19:56:32	19:59:33	178196	5d5e39bd7427d30001d610ba	3	1	main_slash	7	main_slash	27	stimuli_distractor_diamondtriangles.svg	stimuli_target_rectanglediamonds.svg	14	yes	0	0	2003	0	0			0	0			1				0	
6.6.1	win	2023-07-06	19:56:32	19:59:33	178196	5d5e39bd7427d30001d610ba	3	1	main_slash	7	advance_on_keypress_SLASH	28	stimuli_distractor_diamondtriangles.svg	stimuli_target_rectanglediamonds.svg	14	yes	57	0	318	0	0			0	0			1				0	
6.6.1	win	2023-07-06	19:56:32	19:59:35	179701	5d5e39bd7427d30001d610ba	3	1	main_slash	7	main_slash	29	stimuli_target_squaretriangles.svg	stimuli_distractor_trianglediamonds.svg	3	yes	53	1	570	0	0			0	0			1				0	
6.6.1	win	2023-07-06	19:56:32	19:59:35	179701	5d5e39bd7427d30001d610ba	3	1	main_slash	7	advance_on_keypress_SLASH	30	stimuli_target_squaretriangles.svg	stimuli_distractor_trianglediamonds.svg	3	yes	57	0	272	0	0			0	0			1				0	
6.6.1	win	2023-07-06	19:56:32	19:59:36	180906	5d5e39bd7427d30001d610ba	3	1	main_slash	7	main_slash	31	stimuli_target_squaretriangles.svg	stimuli_distractor_diamondtriangles.svg	7	yes	53	1	317	0	0			0	0			1				0	
6.6.1	win	2023-07-06	19:56:32	19:59:36	180906	5d5e39bd7427d30001d610ba	3	1	main_slash	7	advance_on_keypress_SLASH	32	stimuli_target_squaretriangles.svg	stimuli_distractor_diamondtriangles.svg	7	yes	57	0	271	0	0			0	0			1				0	
6.6.1	win	2023-07-06	19:56:32	19:59:37	182292	5d5e39bd7427d30001d610ba	3	1	main_slash	7	main_slash	33	stimuli_distractor_trianglediamonds.svg	stimuli_target_rectangletriangles.svg	9	yes	53	1	502	0	0			0	0			1				0	
6.6.1	win	2023-07-06	19:56:32	19:59:37	182292	5d5e39bd7427d30001d610ba	3	1	main_slash	7	advance_on_keypress_SLASH	34	stimuli_distractor_trianglediamonds.svg	stimuli_target_rectangletriangles.svg	9	yes	57	0	267	0	0			0	0			1				0	
6.6.1	win	2023-07-06	19:56:32	19:59:39	183721	5d5e39bd7427d30001d610ba	3	1	main_slash	7	main_slash	35	stimuli_distractor_trianglediamonds.svg	stimuli_target_diamondrectangles.svg	27	yes	53	1	548	0	0			0	0			1				0	
6.6.1	win	2023-07-06	19:56:32	19:59:39	183721	5d5e39bd7427d30001d610ba	3	1	main_slash	7	advance_on_keypress_SLASH	36	stimuli_distractor_trianglediamonds.svg	stimuli_target_diamondrectangles.svg	27	yes	57	0	266	0	0			0	0			1				0	
6.6.1	win	2023-07-06	19:56:32	19:59:42	186607	5d5e39bd7427d30001d610ba	3	1	main_slash	7	main_slash	37	stimuli_distractor_diamondtriangles.svg	stimuli_distractor_diamondtriangles.svg	39	no	0	1	2003	0	0			0	0			1				0	
6.6.1	win	2023-07-06	19:56:32	19:59:42	186607	5d5e39bd7427d30001d610ba	3	1	main_slash	7	advance_on_keypress_SLASH	38	stimuli_distractor_diamondtriangles.svg	stimuli_distractor_diamondtriangles.svg	39	no	57	0	307	0	0			0	0			1				0	
6.6.1	win	2023-07-06	19:56:32	19:59:43	187862	5d5e39bd7427d30001d610ba	3	1	main_slash	7	main_slash	39	stimuli_distractor_diamondtriangles.svg	stimuli_target_squaretriangles.svg	15	yes	53	1	333	0	0			0	0			1				0	
6.6.1	win	2023-07-06	19:56:32	19:59:43	187862	5d5e39bd7427d30001d610ba	3	1	main_slash	7	advance_on_keypress_SLASH	40	stimuli_distractor_diamondtriangles.svg	stimuli_target_squaretriangles.svg	15	yes	57	0	267	0	0			0	0			1				0	
6.6.1	win	2023-07-06	19:56:32	19:59:44	189173	5d5e39bd7427d30001d610ba	3	1	main_slash	7	main_slash	41	stimuli_distractor_diamondtriangles.svg	stimuli_distractor_trianglediamonds.svg	37	no	53	0	430	0	0			0	0			1				0	
6.6.1	win	2023-07-06	19:56:32	19:59:44	189173	5d5e39bd7427d30001d610ba	3	1	main_slash	7	advance_on_keypress_SLASH	42	stimuli_distractor_diamondtriangles.svg	stimuli_distractor_trianglediamonds.svg	37	no	57	0	656	0	0			0	0			1				0	
6.6.1	win	2023-07-06	19:56:32	19:59:46	191038	5d5e39bd7427d30001d610ba	3	1	main_slash	7	main_slash	43	stimuli_distractor_trianglediamonds.svg	stimuli_target_squaretriangles.svg	11	yes	53	1	593	0	0			0	0			1				0	
6.6.1	win	2023-07-06	19:56:32	19:59:46	191038	5d5e39bd7427d30001d610ba	3	1	main_slash	7	advance_on_keypress_SLASH	44	stimuli_distractor_trianglediamonds.svg	stimuli_target_squaretriangles.svg	11	yes	57	0	188	0	0			0	0			1				0	
6.6.1	win	2023-07-06	19:56:32	19:59:48	192484	5d5e39bd7427d30001d610ba	3	1	main_slash	7	main_slash	45	stimuli_target_trianglesquares.svg	stimuli_distractor_diamondtriangles.svg	22	yes	53	1	643	0	0			0	0			1				0	
6.6.1	win	2023-07-06	19:56:32	19:59:48	192484	5d5e39bd7427d30001d610ba	3	1	main_slash	7	advance_on_keypress_SLASH	46	stimuli_target_trianglesquares.svg	stimuli_distractor_diamondtriangles.svg	22	yes	57	0	202	0	0			0	0			1				0	
6.6.1	win	2023-07-06	19:56:32	19:59:49	193858	5d5e39bd7427d30001d610ba	3	1	main_slash	7	main_slash	47	stimuli_target_trianglerectangles.svg	stimuli_distractor_diamondtriangles.svg	21	yes	53	1	558	0	0			0	0			1				0	
6.6.1	win	2023-07-06	19:56:32	19:59:49	193858	5d5e39bd7427d30001d610ba	3	1	main_slash	7	advance_on_keypress_SLASH	48	stimuli_target_trianglerectangles.svg	stimuli_distractor_diamondtriangles.svg	21	yes	57	0	182	0	0			0	0			1				0	
6.6.1	win	2023-07-06	19:56:32	19:59:50	195369	5d5e39bd7427d30001d610ba	3	1	main_slash	7	main_slash	49	stimuli_distractor_trianglediamonds.svg	stimuli_distractor_diamondtriangles.svg	35	no	53	0	714	0	0			0	0			1				0	
6.6.1	win	2023-07-06	19:56:32	19:59:50	195369	5d5e39bd7427d30001d610ba	3	1	main_slash	7	advance_on_keypress_SLASH	50	stimuli_distractor_trianglediamonds.svg	stimuli_distractor_diamondtriangles.svg	35	no	57	0	595	0	0			0	0			1				0	
6.6.1	win	2023-07-06	19:56:32	19:59:54	198581	5d5e39bd7427d30001d610ba	3	1	main_slash	7	main_slash	51	stimuli_distractor_trianglediamonds.svg	stimuli_distractor_diamondtriangles.svg	36	no	0	1	2003	0	0			0	0			1				0	
6.6.1	win	2023-07-06	19:56:32	19:59:54	198581	5d5e39bd7427d30001d610ba	3	1	main_slash	7	advance_on_keypress_SLASH	52	stimuli_distractor_trianglediamonds.svg	stimuli_distractor_diamondtriangles.svg	36	no	57	0	72	0	0			0	0			1				0	
6.6.1	win	2023-07-06	19:56:32	19:59:55	199750	5d5e39bd7427d30001d610ba	3	1	main_slash	7	main_slash	53	stimuli_target_diamondsquares.svg	stimuli_distractor_trianglediamonds.svg	20	yes	53	1	484	0	0			0	0			1				0	
6.6.1	win	2023-07-06	19:56:32	19:59:55	199750	5d5e39bd7427d30001d610ba	3	1	main_slash	7	advance_on_keypress_SLASH	54	stimuli_target_diamondsquares.svg	stimuli_distractor_trianglediamonds.svg	20	yes	57	0	190	0	0			0	0			1				0	
6.6.1	win	2023-07-06	19:56:32	19:59:56	201228	5d5e39bd7427d30001d610ba	3	1	main_slash	7	main_slash	55	stimuli_target_trianglerectangles.svg	stimuli_distractor_trianglediamonds.svg	17	yes	53	1	677	0	0			0	0			1				0	
6.6.1	win	2023-07-06	19:56:32	19:59:56	201228	5d5e39bd7427d30001d610ba	3	1	main_slash	7	advance_on_keypress_SLASH	56	stimuli_target_trianglerectangles.svg	stimuli_distractor_trianglediamonds.svg	17	yes	57	0	176	0	0			0	0			1				0	
6.6.1	win	2023-07-06	19:56:32	19:59:58	202588	5d5e39bd7427d30001d610ba	3	1	main_slash	7	main_slash	57	stimuli_distractor_diamondtriangles.svg	stimuli_target_trianglesquares.svg	30	yes	53	1	572	0	0			0	0			1				0	
6.6.1	win	2023-07-06	19:56:32	19:59:58	202588	5d5e39bd7427d30001d610ba	3	1	main_slash	7	advance_on_keypress_SLASH	58	stimuli_distractor_diamondtriangles.svg	stimuli_target_trianglesquares.svg	30	yes	57	0	145	0	0			0	0			1				0	
6.6.1	win	2023-07-06	19:56:32	19:59:59	204018	5d5e39bd7427d30001d610ba	3	1	main_slash	7	main_slash	59	stimuli_target_trianglesquares.svg	stimuli_distractor_trianglediamonds.svg	18	yes	53	1	668	0	0			0	0			1				0	
6.6.1	win	2023-07-06	19:56:32	19:59:59	204018	5d5e39bd7427d30001d610ba	3	1	main_slash	7	advance_on_keypress_SLASH	60	stimuli_target_trianglesquares.svg	stimuli_distractor_trianglediamonds.svg	18	yes	57	0	155	0	0			0	0			1				0	
6.6.1	win	2023-07-06	19:56:32	20:00:01	205844	5d5e39bd7427d30001d610ba	3	1	main_slash	7	main_slash	61	stimuli_distractor_diamondtriangles.svg	stimuli_target_squarediamonds.svg	16	yes	53	1	1056	0	0			0	0			1				0	
6.6.1	win	2023-07-06	19:56:32	20:00:01	205844	5d5e39bd7427d30001d610ba	3	1	main_slash	7	advance_on_keypress_SLASH	62	stimuli_distractor_diamondtriangles.svg	stimuli_target_squarediamonds.svg	16	yes	57	0	167	0	0			0	0			1				0	
6.6.1	win	2023-07-06	19:56:32	20:00:03	207529	5d5e39bd7427d30001d610ba	3	1	main_slash	7	main_slash	63	stimuli_distractor_trianglediamonds.svg	stimuli_distractor_trianglediamonds.svg	34	no	53	0	901	0	0			0	0			1				0	
6.6.1	win	2023-07-06	19:56:32	20:00:03	207529	5d5e39bd7427d30001d610ba	3	1	main_slash	7	advance_on_keypress_SLASH	64	stimuli_distractor_trianglediamonds.svg	stimuli_distractor_trianglediamonds.svg	34	no	57	0	296	0	0			0	0			1				0	
6.6.1	win	2023-07-06	19:56:32	20:00:04	209115	5d5e39bd7427d30001d610ba	3	1	main_slash	7	main_slash	65	stimuli_target_diamondsquares.svg	stimuli_distractor_diamondtriangles.svg	24	yes	53	1	680	0	0			0	0			1				0	
6.6.1	win	2023-07-06	19:56:32	20:00:04	209115	5d5e39bd7427d30001d610ba	3	1	main_slash	7	advance_on_keypress_SLASH	66	stimuli_target_diamondsquares.svg	stimuli_distractor_diamondtriangles.svg	24	yes	57	0	148	0	0			0	0			1				0	
6.6.1	win	2023-07-06	19:56:32	20:00:05	210302	5d5e39bd7427d30001d610ba	3	1	main_slash	7	main_slash	67	stimuli_distractor_diamondtriangles.svg	stimuli_target_rectangletriangles.svg	13	yes	53	1	423	0	0			0	0			1				0	
6.6.1	win	2023-07-06	19:56:32	20:00:05	210302	5d5e39bd7427d30001d610ba	3	1	main_slash	7	advance_on_keypress_SLASH	68	stimuli_distractor_diamondtriangles.svg	stimuli_target_rectangletriangles.svg	13	yes	57	0	189	0	0			0	0			1				0	
6.6.1	win	2023-07-06	19:56:32	20:00:07	211515	5d5e39bd7427d30001d610ba	3	1	main_slash	7	main_slash	69	stimuli_target_rectangletriangles.svg	stimuli_distractor_trianglediamonds.svg	1	yes	53	1	406	0	0			0	0			1				0	
6.6.1	win	2023-07-06	19:56:32	20:00:07	211515	5d5e39bd7427d30001d610ba	3	1	main_slash	7	advance_on_keypress_SLASH	70	stimuli_target_rectangletriangles.svg	stimuli_distractor_trianglediamonds.svg	1	yes	57	0	169	0	0			0	0			1				0	
6.6.1	win	2023-07-06	19:56:32	20:00:08	212669	5d5e39bd7427d30001d610ba	3	1	main_slash	7	main_slash	71	stimuli_target_squarediamonds.svg	stimuli_distractor_trianglediamonds.svg	4	yes	53	1	373	0	0			0	0			1				0	
6.6.1	win	2023-07-06	19:56:32	20:00:08	212669	5d5e39bd7427d30001d610ba	3	1	main_slash	7	advance_on_keypress_SLASH	72	stimuli_target_squarediamonds.svg	stimuli_distractor_trianglediamonds.svg	4	yes	57	0	135	0	0			0	0			1				0	
6.6.1	win	2023-07-06	19:56:32	20:00:10	215418	5d5e39bd7427d30001d610ba	3	1	main_slash	7	main_slash	73	stimuli_distractor_trianglediamonds.svg	stimuli_distractor_trianglediamonds.svg	33	no	0	1	2003	0	0			0	0			1				0	
6.6.1	win	2023-07-06	19:56:32	20:00:10	215418	5d5e39bd7427d30001d610ba	3	1	main_slash	7	advance_on_keypress_SLASH	74	stimuli_distractor_trianglediamonds.svg	stimuli_distractor_trianglediamonds.svg	33	no	57	0	405	0	0			0	0			1				0	
6.6.1	win	2023-07-06	19:56:32	20:00:12	216928	5d5e39bd7427d30001d610ba	3	1	main_slash	7	main_slash	75	stimuli_target_diamondrectangles.svg	stimuli_distractor_trianglediamonds.svg	19	yes	53	1	492	0	0			0	0			1				0	
6.6.1	win	2023-07-06	19:56:32	20:00:12	216928	5d5e39bd7427d30001d610ba	3	1	main_slash	7	advance_on_keypress_SLASH	76	stimuli_target_diamondrectangles.svg	stimuli_distractor_trianglediamonds.svg	19	yes	57	0	191	0	0			0	0			1				0	
6.6.1	win	2023-07-06	19:56:32	20:00:13	218103	5d5e39bd7427d30001d610ba	3	1	main_slash	7	main_slash	77	stimuli_distractor_diamondtriangles.svg	stimuli_target_diamondsquares.svg	32	yes	53	1	368	0	0			0	0			1				0	
6.6.1	win	2023-07-06	19:56:32	20:00:13	218103	5d5e39bd7427d30001d610ba	3	1	main_slash	7	advance_on_keypress_SLASH	78	stimuli_distractor_diamondtriangles.svg	stimuli_target_diamondsquares.svg	32	yes	57	0	161	0	0			0	0			1				0	
6.6.1	win	2023-07-06	19:56:32	20:00:16	220884	5d5e39bd7427d30001d610ba	3	1	main_slash	7	main_slash	79	stimuli_distractor_diamondtriangles.svg	stimuli_distractor_diamondtriangles.svg	40	no	0	1	2003	0	0			0	0			1				0	
6.6.1	win	2023-07-06	19:56:32	20:00:16	220884	5d5e39bd7427d30001d610ba	3	1	main_slash	7	advance_on_keypress_SLASH	80	stimuli_distractor_diamondtriangles.svg	stimuli_distractor_diamondtriangles.svg	40	no	57	0	303	0	0			0	0			1				0	
6.6.1	win	2023-07-06	19:56:32	20:00:19	223801	5d5e39bd7427d30001d610ba	3	1	main_slash	7	main_slash	81	stimuli_distractor_trianglediamonds.svg	stimuli_distractor_trianglediamonds.svg	33	no	0	1	2003	0	0			0	0			1				0	
6.6.1	win	2023-07-06	19:56:32	20:00:19	223801	5d5e39bd7427d30001d610ba	3	1	main_slash	7	advance_on_keypress_SLASH	82	stimuli_distractor_trianglediamonds.svg	stimuli_distractor_trianglediamonds.svg	33	no	57	0	277	0	0			0	0			1				0	
6.6.1	win	2023-07-06	19:56:32	20:00:20	225226	5d5e39bd7427d30001d610ba	3	1	main_slash	7	main_slash	83	stimuli_target_diamondrectangles.svg	stimuli_distractor_diamondtriangles.svg	23	yes	53	1	531	0	0			0	0			1				0	
6.6.1	win	2023-07-06	19:56:32	20:00:20	225226	5d5e39bd7427d30001d610ba	3	1	main_slash	7	advance_on_keypress_SLASH	84	stimuli_target_diamondrectangles.svg	stimuli_distractor_diamondtriangles.svg	23	yes	57	0	120	0	0			0	0			1				0	
6.6.1	win	2023-07-06	19:56:32	20:00:23	227962	5d5e39bd7427d30001d610ba	3	1	main_slash	7	main_slash	85	stimuli_distractor_diamondtriangles.svg	stimuli_distractor_trianglediamonds.svg	38	no	0	1	2003	0	0			0	0			1				0	
6.6.1	win	2023-07-06	19:56:32	20:00:23	227962	5d5e39bd7427d30001d610ba	3	1	main_slash	7	advance_on_keypress_SLASH	86	stimuli_distractor_diamondtriangles.svg	stimuli_distractor_trianglediamonds.svg	38	no	57	0	317	0	0			0	0			1				0	
6.6.1	win	2023-07-06	19:56:32	20:00:24	229221	5d5e39bd7427d30001d610ba	3	1	main_slash	7	main_slash	87	stimuli_target_rectangletriangles.svg	stimuli_distractor_trianglediamonds.svg	1	yes	53	1	325	0	0			0	0			1				0	
6.6.1	win	2023-07-06	19:56:32	20:00:24	229221	5d5e39bd7427d30001d610ba	3	1	main_slash	7	advance_on_keypress_SLASH	88	stimuli_target_rectangletriangles.svg	stimuli_distractor_trianglediamonds.svg	1	yes	57	0	141	0	0			0	0			1				0	
6.6.1	win	2023-07-06	19:56:32	20:00:25	230329	5d5e39bd7427d30001d610ba	3	1	main_slash	7	main_slash	89	stimuli_target_squarediamonds.svg	stimuli_distractor_trianglediamonds.svg	4	yes	53	1	354	0	0			0	0			1				0	
6.6.1	win	2023-07-06	19:56:32	20:00:25	230329	5d5e39bd7427d30001d610ba	3	1	main_slash	7	advance_on_keypress_SLASH	90	stimuli_target_squarediamonds.svg	stimuli_distractor_trianglediamonds.svg	4	yes	57	0	117	0	0			0	0			1				0	
6.6.1	win	2023-07-06	19:56:32	20:00:27	231860	5d5e39bd7427d30001d610ba	3	1	main_slash	7	main_slash	91	stimuli_distractor_trianglediamonds.svg	stimuli_target_diamondsquares.svg	28	yes	53	1	797	0	0			0	0			1				0	
6.6.1	win	2023-07-06	19:56:32	20:00:27	231860	5d5e39bd7427d30001d610ba	3	1	main_slash	7	advance_on_keypress_SLASH	92	stimuli_distractor_trianglediamonds.svg	stimuli_target_diamondsquares.svg	28	yes	57	0	234	0	0			0	0			1				0	
6.6.1	win	2023-07-06	19:56:32	20:00:28	233123	5d5e39bd7427d30001d610ba	3	1	main_slash	7	main_slash	93	stimuli_target_trianglesquares.svg	stimuli_distractor_trianglediamonds.svg	18	yes	53	1	419	0	0			0	0			1				0	
6.6.1	win	2023-07-06	19:56:32	20:00:28	233123	5d5e39bd7427d30001d610ba	3	1	main_slash	7	advance_on_keypress_SLASH	94	stimuli_target_trianglesquares.svg	stimuli_distractor_trianglediamonds.svg	18	yes	57	0	175	0	0			0	0			1				0	
6.6.1	win	2023-07-06	19:56:32	20:00:29	234371	5d5e39bd7427d30001d610ba	3	1	main_slash	7	main_slash	95	stimuli_target_diamondsquares.svg	stimuli_distractor_trianglediamonds.svg	20	yes	53	1	460	0	0			0	0			1				0	
6.6.1	win	2023-07-06	19:56:32	20:00:29	234371	5d5e39bd7427d30001d610ba	3	1	main_slash	7	advance_on_keypress_SLASH	96	stimuli_target_diamondsquares.svg	stimuli_distractor_trianglediamonds.svg	20	yes	57	0	118	0	0			0	0			1				0	
6.6.1	win	2023-07-06	19:56:32	20:00:31	235583	5d5e39bd7427d30001d610ba	3	1	main_slash	7	main_slash	97	stimuli_distractor_trianglediamonds.svg	stimuli_target_trianglerectangles.svg	25	yes	53	1	476	0	0			0	0			1				0	
6.6.1	win	2023-07-06	19:56:32	20:00:31	235583	5d5e39bd7427d30001d610ba	3	1	main_slash	7	advance_on_keypress_SLASH	98	stimuli_distractor_trianglediamonds.svg	stimuli_target_trianglerectangles.svg	25	yes	57	0	109	0	0			0	0			1				0	
6.6.1	win	2023-07-06	19:56:32	20:00:33	237459	5d5e39bd7427d30001d610ba	3	1	main_slash	7	main_slash	99	stimuli_distractor_diamondtriangles.svg	stimuli_target_squarediamonds.svg	16	yes	53	1	1159	0	0			0	0			1				0	
6.6.1	win	2023-07-06	19:56:32	20:00:33	237459	5d5e39bd7427d30001d610ba	3	1	main_slash	7	advance_on_keypress_SLASH	100	stimuli_distractor_diamondtriangles.svg	stimuli_target_squarediamonds.svg	16	yes	57	0	141	0	0			0	0			1				0	
6.6.1	win	2023-07-06	19:56:32	20:00:34	238710	5d5e39bd7427d30001d610ba	3	1	main_slash	7	main_slash	101	stimuli_distractor_trianglediamonds.svg	stimuli_target_rectangletriangles.svg	9	yes	53	1	492	0	0			0	0			1				0	
6.6.1	win	2023-07-06	19:56:32	20:00:34	238710	5d5e39bd7427d30001d610ba	3	1	main_slash	7	advance_on_keypress_SLASH	102	stimuli_distractor_trianglediamonds.svg	stimuli_target_rectangletriangles.svg	9	yes	57	0	358	0	0			0	0			1				0	
6.6.1	win	2023-07-06	19:56:32	20:00:36	240444	5d5e39bd7427d30001d610ba	3	1	main_slash	7	main_slash	103	stimuli_distractor_diamondtriangles.svg	stimuli_target_trianglerectangles.svg	29	yes	53	1	761	0	0			0	0			1				0	
6.6.1	win	2023-07-06	19:56:32	20:00:36	240444	5d5e39bd7427d30001d610ba	3	1	main_slash	7	advance_on_keypress_SLASH	104	stimuli_distractor_diamondtriangles.svg	stimuli_target_trianglerectangles.svg	29	yes	57	0	122	0	0			0	0			1				0	
6.6.1	win	2023-07-06	19:56:32	20:00:37	241724	5d5e39bd7427d30001d610ba	3	1	main_slash	7	main_slash	105	stimuli_distractor_trianglediamonds.svg	stimuli_distractor_diamondtriangles.svg	35	no	53	0	548	0	0			0	0			1				0	
6.6.1	win	2023-07-06	19:56:32	20:00:37	241724	5d5e39bd7427d30001d610ba	3	1	main_slash	7	advance_on_keypress_SLASH	106	stimuli_distractor_trianglediamonds.svg	stimuli_distractor_diamondtriangles.svg	35	no	57	0	340	0	0			0	0			1				0	
6.6.1	win	2023-07-06	19:56:32	20:00:38	243042	5d5e39bd7427d30001d610ba	3	1	main_slash	7	main_slash	107	stimuli_distractor_trianglediamonds.svg	stimuli_target_rectanglediamonds.svg	10	yes	53	1	358	0	0			0	0			1				0	
6.6.1	win	2023-07-06	19:56:32	20:00:38	243042	5d5e39bd7427d30001d610ba	3	1	main_slash	7	advance_on_keypress_SLASH	108	stimuli_distractor_trianglediamonds.svg	stimuli_target_rectanglediamonds.svg	10	yes	57	0	252	0	0			0	0			1				0	
6.6.1	win	2023-07-06	19:56:32	20:00:39	244326	5d5e39bd7427d30001d610ba	3	1	main_slash	7	main_slash	109	stimuli_target_trianglesquares.svg	stimuli_distractor_diamondtriangles.svg	22	yes	53	1	420	0	0			0	0			1				0	
6.6.1	win	2023-07-06	19:56:32	20:00:39	244326	5d5e39bd7427d30001d610ba	3	1	main_slash	7	advance_on_keypress_SLASH	110	stimuli_target_trianglesquares.svg	stimuli_distractor_diamondtriangles.svg	22	yes	57	0	313	0	0			0	0			1				0	
6.6.1	win	2023-07-06	19:56:32	20:00:41	245861	5d5e39bd7427d30001d610ba	3	1	main_slash	7	main_slash	111	stimuli_distractor_diamondtriangles.svg	stimuli_target_squaretriangles.svg	15	yes	53	1	607	0	0			0	0			1				0	
6.6.1	win	2023-07-06	19:56:32	20:00:41	245861	5d5e39bd7427d30001d610ba	3	1	main_slash	7	advance_on_keypress_SLASH	112	stimuli_distractor_diamondtriangles.svg	stimuli_target_squaretriangles.svg	15	yes	57	0	126	0	0			0	0			1				0	
6.6.1	win	2023-07-06	19:56:32	20:00:42	247153	5d5e39bd7427d30001d610ba	3	1	main_slash	7	main_slash	113	stimuli_distractor_diamondtriangles.svg	stimuli_target_diamondrectangles.svg	31	yes	53	1	552	0	0			0	0			1				0	
6.6.1	win	2023-07-06	19:56:32	20:00:42	247153	5d5e39bd7427d30001d610ba	3	1	main_slash	7	advance_on_keypress_SLASH	114	stimuli_distractor_diamondtriangles.svg	stimuli_target_diamondrectangles.svg	31	yes	57	0	139	0	0			0	0			1				0	
6.6.1	win	2023-07-06	19:56:32	20:00:44	248620	5d5e39bd7427d30001d610ba	3	1	main_slash	7	main_slash	115	stimuli_target_diamondrectangles.svg	stimuli_distractor_trianglediamonds.svg	19	yes	53	1	713	0	0			0	0			1				0	
6.6.1	win	2023-07-06	19:56:32	20:00:44	248620	5d5e39bd7427d30001d610ba	3	1	main_slash	7	advance_on_keypress_SLASH	116	stimuli_target_diamondrectangles.svg	stimuli_distractor_trianglediamonds.svg	19	yes	57	0	141	0	0			0	0			1				0	
6.6.1	win	2023-07-06	19:56:32	20:00:45	249956	5d5e39bd7427d30001d610ba	3	1	main_slash	7	main_slash	117	stimuli_target_squaretriangles.svg	stimuli_distractor_trianglediamonds.svg	3	yes	53	1	584	0	0			0	0			1				0	
6.6.1	win	2023-07-06	19:56:32	20:00:45	249956	5d5e39bd7427d30001d610ba	3	1	main_slash	7	advance_on_keypress_SLASH	118	stimuli_target_squaretriangles.svg	stimuli_distractor_trianglediamonds.svg	3	yes	57	0	147	0	0			0	0			1				0	
6.6.1	win	2023-07-06	19:56:32	20:00:46	251281	5d5e39bd7427d30001d610ba	3	1	main_slash	7	main_slash	119	stimuli_distractor_trianglediamonds.svg	stimuli_target_trianglesquares.svg	26	yes	53	1	560	0	0			0	0			1				0	
6.6.1	win	2023-07-06	19:56:32	20:00:46	251281	5d5e39bd7427d30001d610ba	3	1	main_slash	7	advance_on_keypress_SLASH	120	stimuli_distractor_trianglediamonds.svg	stimuli_target_trianglesquares.svg	26	yes	57	0	109	0	0			0	0			1				0	
6.6.1	win	2023-07-06	19:56:32	20:00:48	252698	5d5e39bd7427d30001d610ba	3	1	main_slash	7	main_slash	121	stimuli_distractor_diamondtriangles.svg	stimuli_target_rectangletriangles.svg	13	yes	53	1	700	0	0			0	0			1				0	
6.6.1	win	2023-07-06	19:56:32	20:00:48	252698	5d5e39bd7427d30001d610ba	3	1	main_slash	7	advance_on_keypress_SLASH	122	stimuli_distractor_diamondtriangles.svg	stimuli_target_rectangletriangles.svg	13	yes	57	0	153	0	0			0	0			1				0	
6.6.1	win	2023-07-06	19:56:32	20:00:49	254202	5d5e39bd7427d30001d610ba	3	1	main_slash	7	main_slash	123	stimuli_distractor_trianglediamonds.svg	stimuli_target_diamondrectangles.svg	27	yes	53	1	732	0	0			0	0			1				0	
6.6.1	win	2023-07-06	19:56:32	20:00:49	254202	5d5e39bd7427d30001d610ba	3	1	main_slash	7	advance_on_keypress_SLASH	124	stimuli_distractor_trianglediamonds.svg	stimuli_target_diamondrectangles.svg	27	yes	57	0	225	0	0			0	0			1				0	
6.6.1	win	2023-07-06	19:56:32	20:00:52	257044	5d5e39bd7427d30001d610ba	3	1	main_slash	7	main_slash	125	stimuli_distractor_trianglediamonds.svg	stimuli_distractor_trianglediamonds.svg	34	no	0	1	2003	0	0			0	0			1				0	
6.6.1	win	2023-07-06	19:56:32	20:00:52	257044	5d5e39bd7427d30001d610ba	3	1	main_slash	7	advance_on_keypress_SLASH	126	stimuli_distractor_trianglediamonds.svg	stimuli_distractor_trianglediamonds.svg	34	no	57	0	231	0	0			0	0			1				0	
6.6.1	win	2023-07-06	19:56:32	20:00:53	258422	5d5e39bd7427d30001d610ba	3	1	main_slash	7	main_slash	127	stimuli_target_rectanglediamonds.svg	stimuli_distractor_trianglediamonds.svg	2	yes	53	1	534	0	0			0	0			1				0	
6.6.1	win	2023-07-06	19:56:32	20:00:53	258422	5d5e39bd7427d30001d610ba	3	1	main_slash	7	advance_on_keypress_SLASH	128	stimuli_target_rectanglediamonds.svg	stimuli_distractor_trianglediamonds.svg	2	yes	57	0	104	0	0			0	0			1				0	
6.6.1	win	2023-07-06	19:56:32	20:00:55	259517	5d5e39bd7427d30001d610ba	3	1	main_slash	7	main_slash	129	stimuli_target_squaretriangles.svg	stimuli_distractor_diamondtriangles.svg	7	yes	53	1	372	0	0			0	0			1				0	
6.6.1	win	2023-07-06	19:56:32	20:00:55	259517	5d5e39bd7427d30001d610ba	3	1	main_slash	7	advance_on_keypress_SLASH	130	stimuli_target_squaretriangles.svg	stimuli_distractor_diamondtriangles.svg	7	yes	57	0	72	0	0			0	0			1				0	
6.6.1	win	2023-07-06	19:56:32	20:00:56	260780	5d5e39bd7427d30001d610ba	3	1	main_slash	7	main_slash	131	stimuli_target_diamondsquares.svg	stimuli_distractor_diamondtriangles.svg	24	yes	53	1	578	0	0			0	0			1				0	
6.6.1	win	2023-07-06	19:56:32	20:00:56	260780	5d5e39bd7427d30001d610ba	3	1	main_slash	7	advance_on_keypress_SLASH	132	stimuli_target_diamondsquares.svg	stimuli_distractor_diamondtriangles.svg	24	yes	57	0	75	0	0			0	0			1				0	
6.6.1	win	2023-07-06	19:56:32	20:00:57	261966	5d5e39bd7427d30001d610ba	3	1	main_slash	7	main_slash	133	stimuli_distractor_diamondtriangles.svg	stimuli_target_trianglesquares.svg	30	yes	53	1	494	0	0			0	0			1				0	
6.6.1	win	2023-07-06	19:56:32	20:00:57	261966	5d5e39bd7427d30001d610ba	3	1	main_slash	7	advance_on_keypress_SLASH	134	stimuli_distractor_diamondtriangles.svg	stimuli_target_trianglesquares.svg	30	yes	57	0	68	0	0			0	0			1				0	
6.6.1	win	2023-07-06	19:56:32	20:01:00	264656	5d5e39bd7427d30001d610ba	3	1	main_slash	7	main_slash	135	stimuli_distractor_diamondtriangles.svg	stimuli_distractor_trianglediamonds.svg	37	no	0	1	2003	0	0			0	0			1				0	
6.6.1	win	2023-07-06	19:56:32	20:01:00	264656	5d5e39bd7427d30001d610ba	3	1	main_slash	7	advance_on_keypress_SLASH	136	stimuli_distractor_diamondtriangles.svg	stimuli_distractor_trianglediamonds.svg	37	no	57	0	175	0	0			0	0			1				0	
6.6.1	win	2023-07-06	19:56:32	20:01:01	265862	5d5e39bd7427d30001d610ba	3	1	main_slash	7	main_slash	137	stimuli_target_squarediamonds.svg	stimuli_distractor_diamondtriangles.svg	8	yes	53	1	417	0	0			0	0			1				0	
6.6.1	win	2023-07-06	19:56:32	20:01:01	265862	5d5e39bd7427d30001d610ba	3	1	main_slash	7	advance_on_keypress_SLASH	138	stimuli_target_squarediamonds.svg	stimuli_distractor_diamondtriangles.svg	8	yes	57	0	74	0	0			0	0			1				0	
6.6.1	win	2023-07-06	19:56:32	20:01:02	267085	5d5e39bd7427d30001d610ba	3	1	main_slash	7	main_slash	139	stimuli_distractor_diamondtriangles.svg	stimuli_target_diamondsquares.svg	32	yes	53	1	536	0	0			0	0			1				0	
6.6.1	win	2023-07-06	19:56:32	20:01:02	267085	5d5e39bd7427d30001d610ba	3	1	main_slash	7	advance_on_keypress_SLASH	140	stimuli_distractor_diamondtriangles.svg	stimuli_target_diamondsquares.svg	32	yes	57	0	82	0	0			0	0			1				0	
6.6.1	win	2023-07-06	19:56:32	20:01:03	268161	5d5e39bd7427d30001d610ba	3	1	main_slash	7	main_slash	141	stimuli_target_trianglerectangles.svg	stimuli_distractor_diamondtriangles.svg	21	yes	53	1	375	0	0			0	0			1				0	
6.6.1	win	2023-07-06	19:56:32	20:01:03	268161	5d5e39bd7427d30001d610ba	3	1	main_slash	7	advance_on_keypress_SLASH	142	stimuli_target_trianglerectangles.svg	stimuli_distractor_diamondtriangles.svg	21	yes	57	0	142	0	0			0	0			1				0	
6.6.1	win	2023-07-06	19:56:32	20:01:06	270921	5d5e39bd7427d30001d610ba	3	1	main_slash	7	main_slash	143	stimuli_distractor_diamondtriangles.svg	stimuli_distractor_diamondtriangles.svg	39	no	0	1	2003	0	0			0	0			1				0	
6.6.1	win	2023-07-06	19:56:32	20:01:06	270921	5d5e39bd7427d30001d610ba	3	1	main_slash	7	advance_on_keypress_SLASH	144	stimuli_distractor_diamondtriangles.svg	stimuli_distractor_diamondtriangles.svg	39	no	57	0	173	0	0			0	0			1				0	
6.6.1	win	2023-07-06	19:56:32	20:01:07	272106	5d5e39bd7427d30001d610ba	3	1	main_slash	7	main_slash	145	stimuli_distractor_trianglediamonds.svg	stimuli_target_squaretriangles.svg	11	yes	53	1	395	0	0			0	0			1				0	
6.6.1	win	2023-07-06	19:56:32	20:01:07	272106	5d5e39bd7427d30001d610ba	3	1	main_slash	7	advance_on_keypress_SLASH	146	stimuli_distractor_trianglediamonds.svg	stimuli_target_squaretriangles.svg	11	yes	57	0	61	0	0			0	0			1				0	
6.6.1	win	2023-07-06	19:56:32	20:01:10	274790	5d5e39bd7427d30001d610ba	3	1	main_slash	7	main_slash	147	stimuli_distractor_diamondtriangles.svg	stimuli_distractor_diamondtriangles.svg	40	no	0	1	2003	0	0			0	0			1				0	
6.6.1	win	2023-07-06	19:56:32	20:01:10	274790	5d5e39bd7427d30001d610ba	3	1	main_slash	7	advance_on_keypress_SLASH	148	stimuli_distractor_diamondtriangles.svg	stimuli_distractor_diamondtriangles.svg	40	no	57	0	33	0	0			0	0			1				0	
6.6.1	win	2023-07-06	19:56:32	20:01:11	275846	5d5e39bd7427d30001d610ba	3	1	main_slash	7	main_slash	149	stimuli_target_rectangletriangles.svg	stimuli_distractor_diamondtriangles.svg	5	yes	53	1	405	0	0			0	0			1				0	
6.6.1	win	2023-07-06	19:56:32	20:01:11	275846	5d5e39bd7427d30001d610ba	3	1	main_slash	7	advance_on_keypress_SLASH	150	stimuli_target_rectangletriangles.svg	stimuli_distractor_diamondtriangles.svg	5	yes	57	0	77	0	0			0	0			1				0	
6.6.1	win	2023-07-06	19:56:32	20:01:12	276916	5d5e39bd7427d30001d610ba	3	1	main_slash	7	main_slash	151	stimuli_target_rectanglediamonds.svg	stimuli_distractor_diamondtriangles.svg	6	yes	53	1	378	0	0			0	0			1				0	
6.6.1	win	2023-07-06	19:56:32	20:01:12	276916	5d5e39bd7427d30001d610ba	3	1	main_slash	7	advance_on_keypress_SLASH	152	stimuli_target_rectanglediamonds.svg	stimuli_distractor_diamondtriangles.svg	6	yes	57	0	64	0	0			0	0			1				0	
6.6.1	win	2023-07-06	19:56:32	20:01:13	277990	5d5e39bd7427d30001d610ba	3	1	main_slash	7	main_slash	153	stimuli_distractor_diamondtriangles.svg	stimuli_target_rectanglediamonds.svg	14	yes	53	1	397	0	0			0	0			1				0	
6.6.1	win	2023-07-06	19:56:32	20:01:13	277990	5d5e39bd7427d30001d610ba	3	1	main_slash	7	advance_on_keypress_SLASH	154	stimuli_distractor_diamondtriangles.svg	stimuli_target_rectanglediamonds.svg	14	yes	57	0	69	0	0			0	0			1				0	
6.6.1	win	2023-07-06	19:56:32	20:01:16	280680	5d5e39bd7427d30001d610ba	3	1	main_slash	7	main_slash	155	stimuli_distractor_trianglediamonds.svg	stimuli_distractor_diamondtriangles.svg	36	no	0	1	2003	0	0			0	0			1				0	
6.6.1	win	2023-07-06	19:56:32	20:01:16	280680	5d5e39bd7427d30001d610ba	3	1	main_slash	7	advance_on_keypress_SLASH	156	stimuli_distractor_trianglediamonds.svg	stimuli_distractor_diamondtriangles.svg	36	no	57	0	345	0	0			0	0			1				0	
6.6.1	win	2023-07-06	19:56:32	20:01:17	282036	5d5e39bd7427d30001d610ba	3	1	main_slash	7	main_slash	157	stimuli_target_trianglerectangles.svg	stimuli_distractor_trianglediamonds.svg	17	yes	53	1	401	0	0			0	0			1				0	
6.6.1	win	2023-07-06	19:56:32	20:01:17	282036	5d5e39bd7427d30001d610ba	3	1	main_slash	7	advance_on_keypress_SLASH	158	stimuli_target_trianglerectangles.svg	stimuli_distractor_trianglediamonds.svg	17	yes	57	0	92	0	0			0	0			1				0	
6.6.1	win	2023-07-06	19:56:32	20:01:18	283098	5d5e39bd7427d30001d610ba	3	1	main_slash	7	main_slash	159	stimuli_distractor_trianglediamonds.svg	stimuli_target_squarediamonds.svg	12	yes	53	1	358	0	0			0	0			1				0	
6.6.1	win	2023-07-06	19:56:32	20:01:18	283098	5d5e39bd7427d30001d610ba	3	1	main_slash	7	advance_on_keypress_SLASH	160	stimuli_distractor_trianglediamonds.svg	stimuli_target_squarediamonds.svg	12	yes	57	0	91	0	0			0	0			1				0	
6.6.1	win	2023-07-06	19:56:32	20:01:33	298277	5d5e39bd7427d30001d610ba	3	1	practice_z	9	practice_z	1	stimuli_target_squarediamonds.svg	stimuli_distractor_diamondtriangles.svg	2	yes	44	1	506	0	0			0	0			1				0	
6.6.1	win	2023-07-06	19:56:32	20:01:33	298277	5d5e39bd7427d30001d610ba	3	1	practice_z	9	advance_on_keypress_ZEE	2	stimuli_target_squarediamonds.svg	stimuli_distractor_diamondtriangles.svg	2	yes	57	0	301	0	0			0	0			1				0	
6.6.1	win	2023-07-06	19:56:32	20:01:37	302198	5d5e39bd7427d30001d610ba	3	1	practice_z	9	practice_z	3	stimuli_distractor_trianglediamonds.svg	stimuli_distractor_trianglediamonds.svg	15	no	0	1	2003	0	0			0	0			1				0	
6.6.1	win	2023-07-06	19:56:32	20:01:37	302198	5d5e39bd7427d30001d610ba	3	1	practice_z	9	advance_on_keypress_ZEE	4	stimuli_distractor_trianglediamonds.svg	stimuli_distractor_trianglediamonds.svg	15	no	57	0	6	0	0			0	0			1				0	
6.6.1	win	2023-07-06	19:56:32	20:01:40	304476	5d5e39bd7427d30001d610ba	3	1	practice_z	9	practice_z	5	stimuli_distractor_diamondtriangles.svg	stimuli_target_trianglerectangles.svg	9	yes	44	1	655	0	0			0	0			1				0	
6.6.1	win	2023-07-06	19:56:32	20:01:40	304476	5d5e39bd7427d30001d610ba	3	1	practice_z	9	advance_on_keypress_ZEE	6	stimuli_distractor_diamondtriangles.svg	stimuli_target_trianglerectangles.svg	9	yes	57	0	20	0	0			0	0			1				0	
6.6.1	win	2023-07-06	19:56:32	20:01:42	306456	5d5e39bd7427d30001d610ba	3	1	practice_z	9	practice_z	7	stimuli_target_rectanglediamonds.svg	stimuli_distractor_diamondtriangles.svg	1	yes	44	1	343	0	0			0	0			1				0	
6.6.1	win	2023-07-06	19:56:32	20:01:42	306456	5d5e39bd7427d30001d610ba	3	1	practice_z	9	advance_on_keypress_ZEE	8	stimuli_target_rectanglediamonds.svg	stimuli_distractor_diamondtriangles.svg	1	yes	57	0	164	0	0			0	0			1				0	
6.6.1	win	2023-07-06	19:56:32	20:01:44	308892	5d5e39bd7427d30001d610ba	3	1	practice_z	9	practice_z	9	stimuli_distractor_trianglediamonds.svg	stimuli_target_rectanglediamonds.svg	10	yes	44	1	661	0	0			0	0			1				0	
6.6.1	win	2023-07-06	19:56:32	20:01:44	308892	5d5e39bd7427d30001d610ba	3	1	practice_z	9	advance_on_keypress_ZEE	10	stimuli_distractor_trianglediamonds.svg	stimuli_target_rectanglediamonds.svg	10	yes	57	0	29	0	0			0	0			1				0	
6.6.1	win	2023-07-06	19:56:32	20:01:46	311019	5d5e39bd7427d30001d610ba	3	1	practice_z	9	practice_z	11	stimuli_distractor_diamondtriangles.svg	stimuli_target_diamondrectangles.svg	8	yes	44	1	483	0	0			0	0			1				0	
6.6.1	win	2023-07-06	19:56:32	20:01:46	311019	5d5e39bd7427d30001d610ba	3	1	practice_z	9	advance_on_keypress_ZEE	12	stimuli_distractor_diamondtriangles.svg	stimuli_target_diamondrectangles.svg	8	yes	57	0	1	0	0			0	0			1				0	
6.6.1	win	2023-07-06	19:56:32	20:01:48	312978	5d5e39bd7427d30001d610ba	3	1	practice_z	9	practice_z	13	stimuli_target_squarediamonds.svg	stimuli_distractor_trianglediamonds.svg	5	yes	44	1	334	0	0			0	0			1				0	
6.6.1	win	2023-07-06	19:56:32	20:01:48	312978	5d5e39bd7427d30001d610ba	3	1	practice_z	9	advance_on_keypress_ZEE	14	stimuli_target_squarediamonds.svg	stimuli_distractor_trianglediamonds.svg	5	yes	57	0	49	0	0			0	0			1				0	
6.6.1	win	2023-07-06	19:56:32	20:01:50	315156	5d5e39bd7427d30001d610ba	3	1	practice_z	9	practice_z	15	stimuli_target_diamondsquares.svg	stimuli_distractor_trianglediamonds.svg	6	yes	44	1	514	0	0			0	0			1				0	
6.6.1	win	2023-07-06	19:56:32	20:01:50	315156	5d5e39bd7427d30001d610ba	3	1	practice_z	9	advance_on_keypress_ZEE	16	stimuli_target_diamondsquares.svg	stimuli_distractor_trianglediamonds.svg	6	yes	57	0	159	0	0			0	0			1				0	
6.6.1	win	2023-07-06	19:56:32	20:01:54	318936	5d5e39bd7427d30001d610ba	3	1	practice_z	9	practice_z	17	stimuli_distractor_trianglediamonds.svg	stimuli_distractor_diamondtriangles.svg	16	no	0	1	2003	0	0			0	0			1				0	
6.6.1	win	2023-07-06	19:56:32	20:01:54	318936	5d5e39bd7427d30001d610ba	3	1	practice_z	9	advance_on_keypress_ZEE	18	stimuli_distractor_trianglediamonds.svg	stimuli_distractor_diamondtriangles.svg	16	no	57	0	39	0	0			0	0			1				0	
6.6.1	win	2023-07-06	19:56:32	20:01:56	321075	5d5e39bd7427d30001d610ba	3	1	practice_z	9	practice_z	19	stimuli_distractor_diamondtriangles.svg	stimuli_target_rectangletriangles.svg	7	yes	44	1	479	0	0			0	0			1				0	
6.6.1	win	2023-07-06	19:56:32	20:01:56	321075	5d5e39bd7427d30001d610ba	3	1	practice_z	9	advance_on_keypress_ZEE	20	stimuli_distractor_diamondtriangles.svg	stimuli_target_rectangletriangles.svg	7	yes	57	0	6	0	0			0	0			1				0	
6.6.1	win	2023-07-06	19:56:32	20:01:58	323032	5d5e39bd7427d30001d610ba	3	1	practice_z	9	practice_z	21	stimuli_target_rectanglediamonds.svg	stimuli_distractor_trianglediamonds.svg	4	yes	44	1	333	0	0			0	0			1				0	
6.6.1	win	2023-07-06	19:56:32	20:01:58	323032	5d5e39bd7427d30001d610ba	3	1	practice_z	9	advance_on_keypress_ZEE	22	stimuli_target_rectanglediamonds.svg	stimuli_distractor_trianglediamonds.svg	4	yes	57	0	189	0	0			0	0			1				0	
6.6.1	win	2023-07-06	19:56:32	20:02:00	325221	5d5e39bd7427d30001d610ba	3	1	practice_z	9	practice_z	23	stimuli_distractor_trianglediamonds.svg	stimuli_target_diamondrectangles.svg	12	yes	44	1	384	0	0			0	0			1				0	
6.6.1	win	2023-07-06	19:56:32	20:02:00	325221	5d5e39bd7427d30001d610ba	3	1	practice_z	9	advance_on_keypress_ZEE	24	stimuli_distractor_trianglediamonds.svg	stimuli_target_diamondrectangles.svg	12	yes	57	0	149	0	0			0	0			1				0	
6.6.1	win	2023-07-06	19:56:32	20:02:02	327369	5d5e39bd7427d30001d610ba	3	1	practice_z	9	practice_z	25	stimuli_target_diamondsquares.svg	stimuli_distractor_diamondtriangles.svg	3	yes	44	1	384	0	0			0	0			1				0	
6.6.1	win	2023-07-06	19:56:32	20:02:02	327369	5d5e39bd7427d30001d610ba	3	1	practice_z	9	advance_on_keypress_ZEE	26	stimuli_target_diamondsquares.svg	stimuli_distractor_diamondtriangles.svg	3	yes	57	0	386	0	0			0	0			1				0	
6.6.1	win	2023-07-06	19:56:32	20:02:05	329840	5d5e39bd7427d30001d610ba	3	1	practice_z	9	practice_z	27	stimuli_distractor_trianglediamonds.svg	stimuli_target_squarediamonds.svg	11	yes	44	1	466	0	0			0	0			1				0	
6.6.1	win	2023-07-06	19:56:32	20:02:05	329840	5d5e39bd7427d30001d610ba	3	1	practice_z	9	advance_on_keypress_ZEE	28	stimuli_distractor_trianglediamonds.svg	stimuli_target_squarediamonds.svg	11	yes	57	0	172	0	0			0	0			1				0	
6.6.1	win	2023-07-06	19:56:32	20:02:09	333634	5d5e39bd7427d30001d610ba	3	1	practice_z	9	practice_z	29	stimuli_distractor_diamondtriangles.svg	stimuli_distractor_trianglediamonds.svg	14	no	0	1	2003	0	0			0	0			1				0	
6.6.1	win	2023-07-06	19:56:32	20:02:09	333634	5d5e39bd7427d30001d610ba	3	1	practice_z	9	advance_on_keypress_ZEE	30	stimuli_distractor_diamondtriangles.svg	stimuli_distractor_trianglediamonds.svg	14	no	57	0	179	0	0			0	0			1				0	
6.6.1	win	2023-07-06	19:56:32	20:02:13	337434	5d5e39bd7427d30001d610ba	3	1	practice_z	9	practice_z	31	stimuli_distractor_diamondtriangles.svg	stimuli_distractor_diamondtriangles.svg	13	no	0	1	2003	0	0			0	0			1				0	
6.6.1	win	2023-07-06	19:56:32	20:02:13	337434	5d5e39bd7427d30001d610ba	3	1	practice_z	9	advance_on_keypress_ZEE	32	stimuli_distractor_diamondtriangles.svg	stimuli_distractor_diamondtriangles.svg	13	no	57	0	71	0	0			0	0			1				0	
6.6.1	win	2023-07-06	19:56:32	20:02:17	342108	5d5e39bd7427d30001d610ba	3	1	main_z	11	main_z	1	stimuli_distractor_diamondtriangles.svg	stimuli_distractor_diamondtriangles.svg	39	no	0	1	2003	0	0			0	0			1				0	
6.6.1	win	2023-07-06	19:56:32	20:02:17	342108	5d5e39bd7427d30001d610ba	3	1	main_z	11	advance_on_keypress_ZEE	2	stimuli_distractor_diamondtriangles.svg	stimuli_distractor_diamondtriangles.svg	39	no	57	0	41	0	0			0	0			1				0	
6.6.1	win	2023-07-06	19:56:32	20:02:18	343297	5d5e39bd7427d30001d610ba	3	1	main_z	11	main_z	3	stimuli_target_trianglerectangles.svg	stimuli_distractor_trianglediamonds.svg	17	yes	44	1	532	0	0			0	0			1				0	
6.6.1	win	2023-07-06	19:56:32	20:02:18	343297	5d5e39bd7427d30001d610ba	3	1	main_z	11	advance_on_keypress_ZEE	4	stimuli_target_trianglerectangles.svg	stimuli_distractor_trianglediamonds.svg	17	yes	57	0	165	0	0			0	0			1				0	
6.6.1	win	2023-07-06	19:56:32	20:02:20	344442	5d5e39bd7427d30001d610ba	3	1	main_z	11	main_z	5	stimuli_target_trianglerectangles.svg	stimuli_distractor_diamondtriangles.svg	21	yes	44	1	370	0	0			0	0			1				0	
6.6.1	win	2023-07-06	19:56:32	20:02:20	344442	5d5e39bd7427d30001d610ba	3	1	main_z	11	advance_on_keypress_ZEE	6	stimuli_target_trianglerectangles.svg	stimuli_distractor_diamondtriangles.svg	21	yes	57	0	186	0	0			0	0			1				0	
6.6.1	win	2023-07-06	19:56:32	20:02:22	347241	5d5e39bd7427d30001d610ba	3	1	main_z	11	main_z	7	stimuli_distractor_trianglediamonds.svg	stimuli_distractor_diamondtriangles.svg	36	no	0	1	2003	0	0			0	0			1				0	
6.6.1	win	2023-07-06	19:56:32	20:02:22	347241	5d5e39bd7427d30001d610ba	3	1	main_z	11	advance_on_keypress_ZEE	8	stimuli_distractor_trianglediamonds.svg	stimuli_distractor_diamondtriangles.svg	36	no	57	0	183	0	0			0	0			1				0	
6.6.1	win	2023-07-06	19:56:32	20:02:25	350040	5d5e39bd7427d30001d610ba	3	1	main_z	11	main_z	9	stimuli_distractor_diamondtriangles.svg	stimuli_distractor_diamondtriangles.svg	40	no	0	1	2003	0	0			0	0			1				0	
6.6.1	win	2023-07-06	19:56:32	20:02:25	350040	5d5e39bd7427d30001d610ba	3	1	main_z	11	advance_on_keypress_ZEE	10	stimuli_distractor_diamondtriangles.svg	stimuli_distractor_diamondtriangles.svg	40	no	57	0	71	0	0			0	0			1				0	
6.6.1	win	2023-07-06	19:56:32	20:02:27	351518	5d5e39bd7427d30001d610ba	3	1	main_z	11	main_z	11	stimuli_distractor_diamondtriangles.svg	stimuli_target_trianglerectangles.svg	29	yes	44	1	794	0	0			0	0			1				0	
6.6.1	win	2023-07-06	19:56:32	20:02:27	351518	5d5e39bd7427d30001d610ba	3	1	main_z	11	advance_on_keypress_ZEE	12	stimuli_distractor_diamondtriangles.svg	stimuli_target_trianglerectangles.svg	29	yes	57	0	119	0	0			0	0			1				0	
6.6.1	win	2023-07-06	19:56:32	20:02:29	354256	5d5e39bd7427d30001d610ba	3	1	main_z	11	main_z	13	stimuli_distractor_diamondtriangles.svg	stimuli_distractor_trianglediamonds.svg	37	no	0	1	2003	0	0			0	0			1				0	
6.6.1	win	2023-07-06	19:56:32	20:02:29	354256	5d5e39bd7427d30001d610ba	3	1	main_z	11	advance_on_keypress_ZEE	14	stimuli_distractor_diamondtriangles.svg	stimuli_distractor_trianglediamonds.svg	37	no	57	0	199	0	0			0	0			1				0	
6.6.1	win	2023-07-06	19:56:32	20:02:32	357069	5d5e39bd7427d30001d610ba	3	1	main_z	11	main_z	15	stimuli_distractor_diamondtriangles.svg	stimuli_distractor_trianglediamonds.svg	38	no	0	1	2003	0	0			0	0			1				0	
6.6.1	win	2023-07-06	19:56:32	20:02:32	357069	5d5e39bd7427d30001d610ba	3	1	main_z	11	advance_on_keypress_ZEE	16	stimuli_distractor_diamondtriangles.svg	stimuli_distractor_trianglediamonds.svg	38	no	57	0	132	0	0			0	0			1				0	
6.6.1	win	2023-07-06	19:56:32	20:02:33	358241	5d5e39bd7427d30001d610ba	3	1	main_z	11	main_z	17	stimuli_distractor_diamondtriangles.svg	stimuli_target_diamondrectangles.svg	31	yes	44	1	425	0	0			0	0			1				0	
6.6.1	win	2023-07-06	19:56:32	20:02:33	358241	5d5e39bd7427d30001d610ba	3	1	main_z	11	advance_on_keypress_ZEE	18	stimuli_distractor_diamondtriangles.svg	stimuli_target_diamondrectangles.svg	31	yes	57	0	81	0	0			0	0			1				0	
6.6.1	win	2023-07-06	19:56:32	20:02:35	359496	5d5e39bd7427d30001d610ba	3	1	main_z	11	main_z	19	stimuli_distractor_trianglediamonds.svg	stimuli_target_trianglesquares.svg	26	yes	44	1	561	0	0			0	0			1				0	
6.6.1	win	2023-07-06	19:56:32	20:02:35	359496	5d5e39bd7427d30001d610ba	3	1	main_z	11	advance_on_keypress_ZEE	20	stimuli_distractor_trianglediamonds.svg	stimuli_target_trianglesquares.svg	26	yes	57	0	109	0	0			0	0			1				0	
6.6.1	win	2023-07-06	19:56:32	20:02:36	360681	5d5e39bd7427d30001d610ba	3	1	main_z	11	main_z	21	stimuli_distractor_trianglediamonds.svg	stimuli_target_diamondrectangles.svg	27	yes	44	1	455	0	0			0	0			1				0	
6.6.1	win	2023-07-06	19:56:32	20:02:36	360681	5d5e39bd7427d30001d610ba	3	1	main_z	11	advance_on_keypress_ZEE	22	stimuli_distractor_trianglediamonds.svg	stimuli_target_diamondrectangles.svg	27	yes	57	0	65	0	0			0	0			1				0	
6.6.1	win	2023-07-06	19:56:32	20:02:37	361824	5d5e39bd7427d30001d610ba	3	1	main_z	11	main_z	23	stimuli_target_diamondrectangles.svg	stimuli_distractor_trianglediamonds.svg	19	yes	44	1	465	0	0			0	0			1				0	
6.6.1	win	2023-07-06	19:56:32	20:02:37	361824	5d5e39bd7427d30001d610ba	3	1	main_z	11	advance_on_keypress_ZEE	24	stimuli_target_diamondrectangles.svg	stimuli_distractor_trianglediamonds.svg	19	yes	57	0	104	0	0			0	0			1				0	
6.6.1	win	2023-07-06	19:56:32	20:02:38	362922	5d5e39bd7427d30001d610ba	3	1	main_z	11	main_z	25	stimuli_target_squarediamonds.svg	stimuli_distractor_diamondtriangles.svg	8	yes	44	1	375	0	0			0	0			1				0	
6.6.1	win	2023-07-06	19:56:32	20:02:38	362922	5d5e39bd7427d30001d610ba	3	1	main_z	11	advance_on_keypress_ZEE	26	stimuli_target_squarediamonds.svg	stimuli_distractor_diamondtriangles.svg	8	yes	57	0	136	0	0			0	0			1				0	
6.6.1	win	2023-07-06	19:56:32	20:02:39	364068	5d5e39bd7427d30001d610ba	3	1	main_z	11	main_z	27	stimuli_distractor_diamondtriangles.svg	stimuli_target_trianglesquares.svg	30	yes	44	1	393	0	0			0	0			1				0	
6.6.1	win	2023-07-06	19:56:32	20:02:39	364068	5d5e39bd7427d30001d610ba	3	1	main_z	11	advance_on_keypress_ZEE	28	stimuli_distractor_diamondtriangles.svg	stimuli_target_trianglesquares.svg	30	yes	57	0	0	0	0			0	0			1				0	
6.6.1	win	2023-07-06	19:56:32	20:02:40	365312	5d5e39bd7427d30001d610ba	3	1	main_z	11	main_z	29	stimuli_distractor_trianglediamonds.svg	stimuli_target_squaretriangles.svg	11	yes	44	1	620	0	0			0	0			1				0	
6.6.1	win	2023-07-06	19:56:32	20:02:40	365312	5d5e39bd7427d30001d610ba	3	1	main_z	11	advance_on_keypress_ZEE	30	stimuli_distractor_trianglediamonds.svg	stimuli_target_squaretriangles.svg	11	yes	57	0	112	0	0			0	0			1				0	
6.6.1	win	2023-07-06	19:56:32	20:02:41	366374	5d5e39bd7427d30001d610ba	3	1	main_z	11	main_z	31	stimuli_target_rectanglediamonds.svg	stimuli_distractor_diamondtriangles.svg	6	yes	44	1	333	0	0			0	0			1				0	
6.6.1	win	2023-07-06	19:56:32	20:02:41	366374	5d5e39bd7427d30001d610ba	3	1	main_z	11	advance_on_keypress_ZEE	32	stimuli_target_rectanglediamonds.svg	stimuli_distractor_diamondtriangles.svg	6	yes	57	0	173	0	0			0	0			1				0	
6.6.1	win	2023-07-06	19:56:32	20:02:43	367604	5d5e39bd7427d30001d610ba	3	1	main_z	11	main_z	33	stimuli_target_diamondrectangles.svg	stimuli_distractor_diamondtriangles.svg	23	yes	44	1	438	0	0			0	0			1				0	
6.6.1	win	2023-07-06	19:56:32	20:02:43	367604	5d5e39bd7427d30001d610ba	3	1	main_z	11	advance_on_keypress_ZEE	34	stimuli_target_diamondrectangles.svg	stimuli_distractor_diamondtriangles.svg	23	yes	57	0	136	0	0			0	0			1				0	
6.6.1	win	2023-07-06	19:56:32	20:02:44	368713	5d5e39bd7427d30001d610ba	3	1	main_z	11	main_z	35	stimuli_target_diamondsquares.svg	stimuli_distractor_diamondtriangles.svg	24	yes	44	1	361	0	0			0	0			1				0	
6.6.1	win	2023-07-06	19:56:32	20:02:44	368713	5d5e39bd7427d30001d610ba	3	1	main_z	11	advance_on_keypress_ZEE	36	stimuli_target_diamondsquares.svg	stimuli_distractor_diamondtriangles.svg	24	yes	57	0	320	0	0			0	0			1				0	
6.6.1	win	2023-07-06	19:56:32	20:02:46	370569	5d5e39bd7427d30001d610ba	3	1	main_z	11	main_z	37	stimuli_distractor_trianglediamonds.svg	stimuli_target_squarediamonds.svg	12	yes	44	1	918	0	0			0	0			1				0	
6.6.1	win	2023-07-06	19:56:32	20:02:46	370569	5d5e39bd7427d30001d610ba	3	1	main_z	11	advance_on_keypress_ZEE	38	stimuli_distractor_trianglediamonds.svg	stimuli_target_squarediamonds.svg	12	yes	57	0	204	0	0			0	0			1				0	
6.6.1	win	2023-07-06	19:56:32	20:02:47	371799	5d5e39bd7427d30001d610ba	3	1	main_z	11	main_z	39	stimuli_target_trianglesquares.svg	stimuli_distractor_trianglediamonds.svg	18	yes	44	1	410	0	0			0	0			1				0	
6.6.1	win	2023-07-06	19:56:32	20:02:47	371799	5d5e39bd7427d30001d610ba	3	1	main_z	11	advance_on_keypress_ZEE	40	stimuli_target_trianglesquares.svg	stimuli_distractor_trianglediamonds.svg	18	yes	57	0	29	0	0			0	0			1				0	
6.6.1	win	2023-07-06	19:56:32	20:02:48	372983	5d5e39bd7427d30001d610ba	3	1	main_z	11	main_z	41	stimuli_distractor_diamondtriangles.svg	stimuli_target_squarediamonds.svg	16	yes	44	1	538	0	0			0	0			1				0	
6.6.1	win	2023-07-06	19:56:32	20:02:48	372983	5d5e39bd7427d30001d610ba	3	1	main_z	11	advance_on_keypress_ZEE	42	stimuli_distractor_diamondtriangles.svg	stimuli_target_squarediamonds.svg	16	yes	57	0	153	0	0			0	0			1				0	
6.6.1	win	2023-07-06	19:56:32	20:02:49	374146	5d5e39bd7427d30001d610ba	3	1	main_z	11	main_z	43	stimuli_target_squarediamonds.svg	stimuli_distractor_trianglediamonds.svg	4	yes	44	1	392	0	0			0	0			1				0	
6.6.1	win	2023-07-06	19:56:32	20:02:49	374146	5d5e39bd7427d30001d610ba	3	1	main_z	11	advance_on_keypress_ZEE	44	stimuli_target_squarediamonds.svg	stimuli_distractor_trianglediamonds.svg	4	yes	57	0	96	0	0			0	0			1				0	
6.6.1	win	2023-07-06	19:56:32	20:02:50	375334	5d5e39bd7427d30001d610ba	3	1	main_z	11	main_z	45	stimuli_distractor_diamondtriangles.svg	stimuli_target_diamondsquares.svg	32	yes	44	1	472	0	0			0	0			1				0	
6.6.1	win	2023-07-06	19:56:32	20:02:50	375334	5d5e39bd7427d30001d610ba	3	1	main_z	11	advance_on_keypress_ZEE	46	stimuli_distractor_diamondtriangles.svg	stimuli_target_diamondsquares.svg	32	yes	57	0	149	0	0			0	0			1				0	
6.6.1	win	2023-07-06	19:56:32	20:02:52	376532	5d5e39bd7427d30001d610ba	3	1	main_z	11	main_z	47	stimuli_distractor_trianglediamonds.svg	stimuli_target_diamondsquares.svg	28	yes	44	1	435	0	0			0	0			1				0	
6.6.1	win	2023-07-06	19:56:32	20:02:52	376532	5d5e39bd7427d30001d610ba	3	1	main_z	11	advance_on_keypress_ZEE	48	stimuli_distractor_trianglediamonds.svg	stimuli_target_diamondsquares.svg	28	yes	57	0	164	0	0			0	0			1				0	
6.6.1	win	2023-07-06	19:56:32	20:02:53	377624	5d5e39bd7427d30001d610ba	3	1	main_z	11	main_z	49	stimuli_target_diamondsquares.svg	stimuli_distractor_trianglediamonds.svg	20	yes	44	1	318	0	0			0	0			1				0	
6.6.1	win	2023-07-06	19:56:32	20:02:53	377624	5d5e39bd7427d30001d610ba	3	1	main_z	11	advance_on_keypress_ZEE	50	stimuli_target_diamondsquares.svg	stimuli_distractor_trianglediamonds.svg	20	yes	57	0	296	0	0			0	0			1				0	
6.6.1	win	2023-07-06	19:56:32	20:02:56	380538	5d5e39bd7427d30001d610ba	3	1	main_z	11	main_z	51	stimuli_distractor_trianglediamonds.svg	stimuli_distractor_trianglediamonds.svg	33	no	0	1	2003	0	0			0	0			1				0	
6.6.1	win	2023-07-06	19:56:32	20:02:56	380538	5d5e39bd7427d30001d610ba	3	1	main_z	11	advance_on_keypress_ZEE	52	stimuli_distractor_trianglediamonds.svg	stimuli_distractor_trianglediamonds.svg	33	no	57	0	111	0	0			0	0			1				0	
6.6.1	win	2023-07-06	19:56:32	20:02:57	381793	5d5e39bd7427d30001d610ba	3	1	main_z	11	main_z	53	stimuli_distractor_diamondtriangles.svg	stimuli_target_squaretriangles.svg	15	yes	44	1	526	0	0			0	0			1				0	
6.6.1	win	2023-07-06	19:56:32	20:02:57	381793	5d5e39bd7427d30001d610ba	3	1	main_z	11	advance_on_keypress_ZEE	54	stimuli_distractor_diamondtriangles.svg	stimuli_target_squaretriangles.svg	15	yes	57	0	173	0	0			0	0			1				0	
6.6.1	win	2023-07-06	19:56:32	20:02:58	382921	5d5e39bd7427d30001d610ba	3	1	main_z	11	main_z	55	stimuli_distractor_trianglediamonds.svg	stimuli_target_rectangletriangles.svg	9	yes	44	1	337	0	0			0	0			1				0	
6.6.1	win	2023-07-06	19:56:32	20:02:58	382921	5d5e39bd7427d30001d610ba	3	1	main_z	11	advance_on_keypress_ZEE	56	stimuli_distractor_trianglediamonds.svg	stimuli_target_rectangletriangles.svg	9	yes	57	0	125	0	0			0	0			1				0	
6.6.1	win	2023-07-06	19:56:32	20:02:59	384014	5d5e39bd7427d30001d610ba	3	1	main_z	11	main_z	57	stimuli_target_trianglesquares.svg	stimuli_distractor_diamondtriangles.svg	22	yes	44	1	352	0	0			0	0			1				0	
6.6.1	win	2023-07-06	19:56:32	20:02:59	384014	5d5e39bd7427d30001d610ba	3	1	main_z	11	advance_on_keypress_ZEE	58	stimuli_target_trianglesquares.svg	stimuli_distractor_diamondtriangles.svg	22	yes	57	0	79	0	0			0	0			1				0	
6.6.1	win	2023-07-06	19:56:32	20:03:02	386713	5d5e39bd7427d30001d610ba	3	1	main_z	11	main_z	59	stimuli_distractor_trianglediamonds.svg	stimuli_distractor_diamondtriangles.svg	35	no	0	1	2003	0	0			0	0			1				0	
6.6.1	win	2023-07-06	19:56:32	20:03:02	386713	5d5e39bd7427d30001d610ba	3	1	main_z	11	advance_on_keypress_ZEE	60	stimuli_distractor_trianglediamonds.svg	stimuli_distractor_diamondtriangles.svg	35	no	57	0	97	0	0			0	0			1				0	
6.6.1	win	2023-07-06	19:56:32	20:03:03	387756	5d5e39bd7427d30001d610ba	3	1	main_z	11	main_z	61	stimuli_target_rectangletriangles.svg	stimuli_distractor_diamondtriangles.svg	5	yes	44	1	331	0	0			0	0			1				0	
6.6.1	win	2023-07-06	19:56:32	20:03:03	387756	5d5e39bd7427d30001d610ba	3	1	main_z	11	advance_on_keypress_ZEE	62	stimuli_target_rectangletriangles.svg	stimuli_distractor_diamondtriangles.svg	5	yes	57	0	103	0	0			0	0			1				0	
6.6.1	win	2023-07-06	19:56:32	20:03:04	388782	5d5e39bd7427d30001d610ba	3	1	main_z	11	main_z	63	stimuli_target_squaretriangles.svg	stimuli_distractor_trianglediamonds.svg	3	yes	44	1	307	0	0			0	0			1				0	
6.6.1	win	2023-07-06	19:56:32	20:03:04	388782	5d5e39bd7427d30001d610ba	3	1	main_z	11	advance_on_keypress_ZEE	64	stimuli_target_squaretriangles.svg	stimuli_distractor_trianglediamonds.svg	3	yes	57	0	130	0	0			0	0			1				0	
6.6.1	win	2023-07-06	19:56:32	20:03:05	389848	5d5e39bd7427d30001d610ba	3	1	main_z	11	main_z	65	stimuli_target_squaretriangles.svg	stimuli_distractor_diamondtriangles.svg	7	yes	44	1	325	0	0			0	0			1				0	
6.6.1	win	2023-07-06	19:56:32	20:03:05	389848	5d5e39bd7427d30001d610ba	3	1	main_z	11	advance_on_keypress_ZEE	66	stimuli_target_squaretriangles.svg	stimuli_distractor_diamondtriangles.svg	7	yes	57	0	165	0	0			0	0			1				0	
6.6.1	win	2023-07-06	19:56:32	20:03:06	390985	5d5e39bd7427d30001d610ba	3	1	main_z	11	main_z	67	stimuli_distractor_diamondtriangles.svg	stimuli_target_rectanglediamonds.svg	14	yes	44	1	350	0	0			0	0			1				0	
6.6.1	win	2023-07-06	19:56:32	20:03:06	390985	5d5e39bd7427d30001d610ba	3	1	main_z	11	advance_on_keypress_ZEE	68	stimuli_distractor_diamondtriangles.svg	stimuli_target_rectanglediamonds.svg	14	yes	57	0	113	0	0			0	0			1				0	
6.6.1	win	2023-07-06	19:56:32	20:03:09	393714	5d5e39bd7427d30001d610ba	3	1	main_z	11	main_z	69	stimuli_distractor_trianglediamonds.svg	stimuli_distractor_trianglediamonds.svg	34	no	0	1	2003	0	0			0	0			1				0	
6.6.1	win	2023-07-06	19:56:32	20:03:09	393714	5d5e39bd7427d30001d610ba	3	1	main_z	11	advance_on_keypress_ZEE	70	stimuli_distractor_trianglediamonds.svg	stimuli_distractor_trianglediamonds.svg	34	no	57	0	110	0	0			0	0			1				0	
6.6.1	win	2023-07-06	19:56:32	20:03:10	394791	5d5e39bd7427d30001d610ba	3	1	main_z	11	main_z	71	stimuli_distractor_trianglediamonds.svg	stimuli_target_rectanglediamonds.svg	10	yes	44	1	349	0	0			0	0			1				0	
6.6.1	win	2023-07-06	19:56:32	20:03:10	394791	5d5e39bd7427d30001d610ba	3	1	main_z	11	advance_on_keypress_ZEE	72	stimuli_distractor_trianglediamonds.svg	stimuli_target_rectanglediamonds.svg	10	yes	57	0	131	0	0			0	0			1				0	
6.6.1	win	2023-07-06	19:56:32	20:03:11	395881	5d5e39bd7427d30001d610ba	3	1	main_z	11	main_z	73	stimuli_distractor_trianglediamonds.svg	stimuli_target_trianglerectangles.svg	25	yes	44	1	343	0	0			0	0			1				0	
6.6.1	win	2023-07-06	19:56:32	20:03:11	395881	5d5e39bd7427d30001d610ba	3	1	main_z	11	advance_on_keypress_ZEE	74	stimuli_distractor_trianglediamonds.svg	stimuli_target_trianglerectangles.svg	25	yes	57	0	115	0	0			0	0			1				0	
6.6.1	win	2023-07-06	19:56:32	20:03:12	396975	5d5e39bd7427d30001d610ba	3	1	main_z	11	main_z	75	stimuli_target_rectanglediamonds.svg	stimuli_distractor_trianglediamonds.svg	2	yes	44	1	367	0	0			0	0			1				0	
6.6.1	win	2023-07-06	19:56:32	20:03:12	396975	5d5e39bd7427d30001d610ba	3	1	main_z	11	advance_on_keypress_ZEE	76	stimuli_target_rectanglediamonds.svg	stimuli_distractor_trianglediamonds.svg	2	yes	57	0	141	0	0			0	0			1				0	
6.6.1	win	2023-07-06	19:56:32	20:03:13	398078	5d5e39bd7427d30001d610ba	3	1	main_z	11	main_z	77	stimuli_target_rectangletriangles.svg	stimuli_distractor_trianglediamonds.svg	1	yes	44	1	341	0	0			0	0			1				0	
6.6.1	win	2023-07-06	19:56:32	20:03:13	398078	5d5e39bd7427d30001d610ba	3	1	main_z	11	advance_on_keypress_ZEE	78	stimuli_target_rectangletriangles.svg	stimuli_distractor_trianglediamonds.svg	1	yes	57	0	19	0	0			0	0			1				0	
6.6.1	win	2023-07-06	19:56:32	20:03:14	399126	5d5e39bd7427d30001d610ba	3	1	main_z	11	main_z	79	stimuli_distractor_diamondtriangles.svg	stimuli_target_rectangletriangles.svg	13	yes	44	1	418	0	0			0	0			1				0	
6.6.1	win	2023-07-06	19:56:32	20:03:14	399126	5d5e39bd7427d30001d610ba	3	1	main_z	11	advance_on_keypress_ZEE	80	stimuli_distractor_diamondtriangles.svg	stimuli_target_rectangletriangles.svg	13	yes	57	0	87	0	0			0	0			1				0	
6.6.1	win	2023-07-06	19:56:32	20:03:15	400203	5d5e39bd7427d30001d610ba	3	1	main_z	11	main_z	81	stimuli_target_squaretriangles.svg	stimuli_distractor_diamondtriangles.svg	7	yes	44	1	378	0	0			0	0			1				0	
6.6.1	win	2023-07-06	19:56:32	20:03:15	400203	5d5e39bd7427d30001d610ba	3	1	main_z	11	advance_on_keypress_ZEE	82	stimuli_target_squaretriangles.svg	stimuli_distractor_diamondtriangles.svg	7	yes	57	0	64	0	0			0	0			1				0	
6.6.1	win	2023-07-06	19:56:32	20:03:16	401301	5d5e39bd7427d30001d610ba	3	1	main_z	11	main_z	83	stimuli_target_trianglerectangles.svg	stimuli_distractor_trianglediamonds.svg	17	yes	44	1	422	0	0			0	0			1				0	
6.6.1	win	2023-07-06	19:56:32	20:03:16	401301	5d5e39bd7427d30001d610ba	3	1	main_z	11	advance_on_keypress_ZEE	84	stimuli_target_trianglerectangles.svg	stimuli_distractor_trianglediamonds.svg	17	yes	57	0	90	0	0			0	0			1				0	
6.6.1	win	2023-07-06	19:56:32	20:03:17	402429	5d5e39bd7427d30001d610ba	3	1	main_z	11	main_z	85	stimuli_distractor_trianglediamonds.svg	stimuli_target_squarediamonds.svg	12	yes	44	1	425	0	0			0	0			1				0	
6.6.1	win	2023-07-06	19:56:32	20:03:17	402429	5d5e39bd7427d30001d610ba	3	1	main_z	11	advance_on_keypress_ZEE	86	stimuli_distractor_trianglediamonds.svg	stimuli_target_squarediamonds.svg	12	yes	57	0	81	0	0			0	0			1				0	
6.6.1	win	2023-07-06	19:56:32	20:03:20	405126	5d5e39bd7427d30001d610ba	3	1	main_z	11	main_z	87	stimuli_distractor_diamondtriangles.svg	stimuli_distractor_trianglediamonds.svg	38	no	0	1	2003	0	0			0	0			1				0	
6.6.1	win	2023-07-06	19:56:32	20:03:20	405126	5d5e39bd7427d30001d610ba	3	1	main_z	11	advance_on_keypress_ZEE	88	stimuli_distractor_diamondtriangles.svg	stimuli_distractor_trianglediamonds.svg	38	no	57	0	590	0	0			0	0			1				0	
6.6.1	win	2023-07-06	19:56:32	20:03:22	406634	5d5e39bd7427d30001d610ba	3	1	main_z	11	main_z	89	stimuli_distractor_trianglediamonds.svg	stimuli_target_rectanglediamonds.svg	10	yes	44	1	301	0	0			0	0			1				0	
6.6.1	win	2023-07-06	19:56:32	20:03:22	406634	5d5e39bd7427d30001d610ba	3	1	main_z	11	advance_on_keypress_ZEE	90	stimuli_distractor_trianglediamonds.svg	stimuli_target_rectanglediamonds.svg	10	yes	57	0	151	0	0			0	0			1				0	
6.6.1	win	2023-07-06	19:56:32	20:03:24	409398	5d5e39bd7427d30001d610ba	3	1	main_z	11	main_z	91	stimuli_distractor_trianglediamonds.svg	stimuli_distractor_trianglediamonds.svg	33	no	0	1	2003	0	0			0	0			1				0	
6.6.1	win	2023-07-06	19:56:32	20:03:24	409398	5d5e39bd7427d30001d610ba	3	1	main_z	11	advance_on_keypress_ZEE	92	stimuli_distractor_trianglediamonds.svg	stimuli_distractor_trianglediamonds.svg	33	no	57	0	160	0	0			0	0			1				0	
6.6.1	win	2023-07-06	19:56:32	20:03:27	412176	5d5e39bd7427d30001d610ba	3	1	main_z	11	main_z	93	stimuli_distractor_diamondtriangles.svg	stimuli_distractor_trianglediamonds.svg	37	no	0	1	2003	0	0			0	0			1				0	
6.6.1	win	2023-07-06	19:56:32	20:03:27	412176	5d5e39bd7427d30001d610ba	3	1	main_z	11	advance_on_keypress_ZEE	94	stimuli_distractor_diamondtriangles.svg	stimuli_distractor_trianglediamonds.svg	37	no	57	0	158	0	0			0	0			1				0	
6.6.1	win	2023-07-06	19:56:32	20:03:28	413325	5d5e39bd7427d30001d610ba	3	1	main_z	11	main_z	95	stimuli_distractor_diamondtriangles.svg	stimuli_target_squaretriangles.svg	15	yes	44	1	373	0	0			0	0			1				0	
6.6.1	win	2023-07-06	19:56:32	20:03:28	413325	5d5e39bd7427d30001d610ba	3	1	main_z	11	advance_on_keypress_ZEE	96	stimuli_distractor_diamondtriangles.svg	stimuli_target_squaretriangles.svg	15	yes	57	0	115	0	0			0	0			1				0	
6.6.1	win	2023-07-06	19:56:32	20:03:29	414412	5d5e39bd7427d30001d610ba	3	1	main_z	11	main_z	97	stimuli_target_diamondrectangles.svg	stimuli_distractor_trianglediamonds.svg	19	yes	44	1	357	0	0			0	0			1				0	
6.6.1	win	2023-07-06	19:56:32	20:03:29	414412	5d5e39bd7427d30001d610ba	3	1	main_z	11	advance_on_keypress_ZEE	98	stimuli_target_diamondrectangles.svg	stimuli_distractor_trianglediamonds.svg	19	yes	57	0	137	0	0			0	0			1				0	
6.6.1	win	2023-07-06	19:56:32	20:03:31	415710	5d5e39bd7427d30001d610ba	3	1	main_z	11	main_z	99	stimuli_distractor_trianglediamonds.svg	stimuli_target_rectangletriangles.svg	9	yes	44	1	542	0	0			0	0			1				0	
6.6.1	win	2023-07-06	19:56:32	20:03:31	415710	5d5e39bd7427d30001d610ba	3	1	main_z	11	advance_on_keypress_ZEE	100	stimuli_distractor_trianglediamonds.svg	stimuli_target_rectangletriangles.svg	9	yes	57	0	56	0	0			0	0			1				0	
6.6.1	win	2023-07-06	19:56:32	20:03:32	416729	5d5e39bd7427d30001d610ba	3	1	main_z	11	main_z	101	stimuli_target_rectangletriangles.svg	stimuli_distractor_trianglediamonds.svg	1	yes	44	1	346	0	0			0	0			1				0	
6.6.1	win	2023-07-06	19:56:32	20:03:32	416729	5d5e39bd7427d30001d610ba	3	1	main_z	11	advance_on_keypress_ZEE	102	stimuli_target_rectangletriangles.svg	stimuli_distractor_trianglediamonds.svg	1	yes	57	0	378	0	0			0	0			1				0	
6.6.1	win	2023-07-06	19:56:32	20:03:33	418078	5d5e39bd7427d30001d610ba	3	1	main_z	11	main_z	103	stimuli_target_trianglerectangles.svg	stimuli_distractor_diamondtriangles.svg	21	yes	44	1	353	0	0			0	0			1				0	
6.6.1	win	2023-07-06	19:56:32	20:03:33	418078	5d5e39bd7427d30001d610ba	3	1	main_z	11	advance_on_keypress_ZEE	104	stimuli_target_trianglerectangles.svg	stimuli_distractor_diamondtriangles.svg	21	yes	57	0	203	0	0			0	0			1				0	
6.6.1	win	2023-07-06	19:56:32	20:03:34	419206	5d5e39bd7427d30001d610ba	3	1	main_z	11	main_z	105	stimuli_target_trianglesquares.svg	stimuli_distractor_trianglediamonds.svg	18	yes	44	1	310	0	0			0	0			1				0	
6.6.1	win	2023-07-06	19:56:32	20:03:34	419206	5d5e39bd7427d30001d610ba	3	1	main_z	11	advance_on_keypress_ZEE	106	stimuli_target_trianglesquares.svg	stimuli_distractor_trianglediamonds.svg	18	yes	57	0	15	0	0			0	0			1				0	
6.6.1	win	2023-07-06	19:56:32	20:03:35	420249	5d5e39bd7427d30001d610ba	3	1	main_z	11	main_z	107	stimuli_distractor_diamondtriangles.svg	stimuli_target_trianglerectangles.svg	29	yes	44	1	414	0	0			0	0			1				0	
6.6.1	win	2023-07-06	19:56:32	20:03:35	420249	5d5e39bd7427d30001d610ba	3	1	main_z	11	advance_on_keypress_ZEE	108	stimuli_distractor_diamondtriangles.svg	stimuli_target_trianglerectangles.svg	29	yes	57	0	113	0	0			0	0			1				0	
6.6.1	win	2023-07-06	19:56:32	20:03:36	421295	5d5e39bd7427d30001d610ba	3	1	main_z	11	main_z	109	stimuli_target_rectangletriangles.svg	stimuli_distractor_diamondtriangles.svg	5	yes	44	1	321	0	0			0	0			1				0	
6.6.1	win	2023-07-06	19:56:32	20:03:36	421295	5d5e39bd7427d30001d610ba	3	1	main_z	11	advance_on_keypress_ZEE	110	stimuli_target_rectangletriangles.svg	stimuli_distractor_diamondtriangles.svg	5	yes	57	0	2	0	0			0	0			1				0	
6.6.1	win	2023-07-06	19:56:32	20:03:37	422249	5d5e39bd7427d30001d610ba	3	1	main_z	11	main_z	111	stimuli_target_squaretriangles.svg	stimuli_distractor_trianglediamonds.svg	3	yes	44	1	331	0	0			0	0			1				0	
6.6.1	win	2023-07-06	19:56:32	20:03:37	422249	5d5e39bd7427d30001d610ba	3	1	main_z	11	advance_on_keypress_ZEE	112	stimuli_target_squaretriangles.svg	stimuli_distractor_trianglediamonds.svg	3	yes	57	0	172	0	0			0	0			1				0	
6.6.1	win	2023-07-06	19:56:32	20:03:40	425032	5d5e39bd7427d30001d610ba	3	1	main_z	11	main_z	113	stimuli_distractor_trianglediamonds.svg	stimuli_distractor_diamondtriangles.svg	36	no	0	1	2003	0	0			0	0			1				0	
6.6.1	win	2023-07-06	19:56:32	20:03:40	425032	5d5e39bd7427d30001d610ba	3	1	main_z	11	advance_on_keypress_ZEE	114	stimuli_distractor_trianglediamonds.svg	stimuli_distractor_diamondtriangles.svg	36	no	57	0	181	0	0			0	0			1				0	
6.6.1	win	2023-07-06	19:56:32	20:03:41	426167	5d5e39bd7427d30001d610ba	3	1	main_z	11	main_z	115	stimuli_distractor_diamondtriangles.svg	stimuli_target_squarediamonds.svg	16	yes	44	1	339	0	0			0	0			1				0	
6.6.1	win	2023-07-06	19:56:32	20:03:41	426167	5d5e39bd7427d30001d610ba	3	1	main_z	11	advance_on_keypress_ZEE	116	stimuli_distractor_diamondtriangles.svg	stimuli_target_squarediamonds.svg	16	yes	57	0	28	0	0			0	0			1				0	
6.6.1	win	2023-07-06	19:56:32	20:03:42	427153	5d5e39bd7427d30001d610ba	3	1	main_z	11	main_z	117	stimuli_target_diamondsquares.svg	stimuli_distractor_diamondtriangles.svg	24	yes	44	1	338	0	0			0	0			1				0	
6.6.1	win	2023-07-06	19:56:32	20:03:42	427153	5d5e39bd7427d30001d610ba	3	1	main_z	11	advance_on_keypress_ZEE	118	stimuli_target_diamondsquares.svg	stimuli_distractor_diamondtriangles.svg	24	yes	57	0	153	0	0			0	0			1				0	
6.6.1	win	2023-07-06	19:56:32	20:03:45	429923	5d5e39bd7427d30001d610ba	3	1	main_z	11	main_z	119	stimuli_distractor_trianglediamonds.svg	stimuli_distractor_trianglediamonds.svg	34	no	0	1	2003	0	0			0	0			1				0	
6.6.1	win	2023-07-06	19:56:32	20:03:45	429923	5d5e39bd7427d30001d610ba	3	1	main_z	11	advance_on_keypress_ZEE	120	stimuli_distractor_trianglediamonds.svg	stimuli_distractor_trianglediamonds.svg	34	no	57	0	656	0	0			0	0			1				0	
6.6.1	win	2023-07-06	19:56:32	20:03:47	431620	5d5e39bd7427d30001d610ba	3	1	main_z	11	main_z	121	stimuli_distractor_diamondtriangles.svg	stimuli_target_rectangletriangles.svg	13	yes	44	1	429	0	0			0	0			1				0	
6.6.1	win	2023-07-06	19:56:32	20:03:47	431620	5d5e39bd7427d30001d610ba	3	1	main_z	11	advance_on_keypress_ZEE	122	stimuli_distractor_diamondtriangles.svg	stimuli_target_rectangletriangles.svg	13	yes	57	0	67	0	0			0	0			1				0	
6.6.1	win	2023-07-06	19:56:32	20:03:48	432576	5d5e39bd7427d30001d610ba	3	1	main_z	11	main_z	123	stimuli_target_squarediamonds.svg	stimuli_distractor_diamondtriangles.svg	8	yes	44	1	280	0	0			0	0			1				0	
6.6.1	win	2023-07-06	19:56:32	20:03:48	432576	5d5e39bd7427d30001d610ba	3	1	main_z	11	advance_on_keypress_ZEE	124	stimuli_target_squarediamonds.svg	stimuli_distractor_diamondtriangles.svg	8	yes	57	0	76	0	0			0	0			1				0	
6.6.1	win	2023-07-06	19:56:32	20:03:49	433724	5d5e39bd7427d30001d610ba	3	1	main_z	11	main_z	125	stimuli_distractor_diamondtriangles.svg	stimuli_target_trianglesquares.svg	30	yes	44	1	457	0	0			0	0			1				0	
6.6.1	win	2023-07-06	19:56:32	20:03:49	433724	5d5e39bd7427d30001d610ba	3	1	main_z	11	advance_on_keypress_ZEE	126	stimuli_distractor_diamondtriangles.svg	stimuli_target_trianglesquares.svg	30	yes	57	0	35	0	0			0	0			1				0	
6.6.1	win	2023-07-06	19:56:32	20:03:50	434750	5d5e39bd7427d30001d610ba	3	1	main_z	11	main_z	127	stimuli_distractor_trianglediamonds.svg	stimuli_target_squaretriangles.svg	11	yes	44	1	371	0	0			0	0			1				0	
6.6.1	win	2023-07-06	19:56:32	20:03:50	434750	5d5e39bd7427d30001d610ba	3	1	main_z	11	advance_on_keypress_ZEE	128	stimuli_distractor_trianglediamonds.svg	stimuli_target_squaretriangles.svg	11	yes	57	0	156	0	0			0	0			1				0	
6.6.1	win	2023-07-06	19:56:32	20:03:51	435886	5d5e39bd7427d30001d610ba	3	1	main_z	11	main_z	129	stimuli_distractor_diamondtriangles.svg	stimuli_distractor_diamondtriangles.svg	40	no	44	0	367	0	0			0	0			1				0	
6.6.1	win	2023-07-06	19:56:32	20:03:51	435886	5d5e39bd7427d30001d610ba	3	1	main_z	11	advance_on_keypress_ZEE	130	stimuli_distractor_diamondtriangles.svg	stimuli_distractor_diamondtriangles.svg	40	no	57	0	389	0	0			0	0			1				0	
6.6.1	win	2023-07-06	19:56:32	20:03:52	437277	5d5e39bd7427d30001d610ba	3	1	main_z	11	main_z	131	stimuli_target_rectanglediamonds.svg	stimuli_distractor_diamondtriangles.svg	6	yes	44	1	384	0	0			0	0			1				0	
6.6.1	win	2023-07-06	19:56:32	20:03:52	437277	5d5e39bd7427d30001d610ba	3	1	main_z	11	advance_on_keypress_ZEE	132	stimuli_target_rectanglediamonds.svg	stimuli_distractor_diamondtriangles.svg	6	yes	57	0	7	0	0			0	0			1				0	
6.6.1	win	2023-07-06	19:56:32	20:03:53	438301	5d5e39bd7427d30001d610ba	3	1	main_z	11	main_z	133	stimuli_target_squarediamonds.svg	stimuli_distractor_trianglediamonds.svg	4	yes	44	1	401	0	0			0	0			1				0	
6.6.1	win	2023-07-06	19:56:32	20:03:53	438301	5d5e39bd7427d30001d610ba	3	1	main_z	11	advance_on_keypress_ZEE	134	stimuli_target_squarediamonds.svg	stimuli_distractor_trianglediamonds.svg	4	yes	57	0	91	0	0			0	0			1				0	
6.6.1	win	2023-07-06	19:56:32	20:03:54	439411	5d5e39bd7427d30001d610ba	3	1	main_z	11	main_z	135	stimuli_target_diamondrectangles.svg	stimuli_distractor_diamondtriangles.svg	23	yes	44	1	407	0	0			0	0			1				0	
6.6.1	win	2023-07-06	19:56:32	20:03:54	439411	5d5e39bd7427d30001d610ba	3	1	main_z	11	advance_on_keypress_ZEE	136	stimuli_target_diamondrectangles.svg	stimuli_distractor_diamondtriangles.svg	23	yes	57	0	109	0	0			0	0			1				0	
6.6.1	win	2023-07-06	19:56:32	20:03:56	440526	5d5e39bd7427d30001d610ba	3	1	main_z	11	main_z	137	stimuli_target_rectanglediamonds.svg	stimuli_distractor_trianglediamonds.svg	2	yes	44	1	390	0	0			0	0			1				0	
6.6.1	win	2023-07-06	19:56:32	20:03:56	440526	5d5e39bd7427d30001d610ba	3	1	main_z	11	advance_on_keypress_ZEE	138	stimuli_target_rectanglediamonds.svg	stimuli_distractor_trianglediamonds.svg	2	yes	57	0	137	0	0			0	0			1				0	
6.6.1	win	2023-07-06	19:56:32	20:03:58	443279	5d5e39bd7427d30001d610ba	3	1	main_z	11	main_z	139	stimuli_distractor_diamondtriangles.svg	stimuli_distractor_diamondtriangles.svg	39	no	0	1	2003	0	0			0	0			1				0	
6.6.1	win	2023-07-06	19:56:32	20:03:58	443279	5d5e39bd7427d30001d610ba	3	1	main_z	11	advance_on_keypress_ZEE	140	stimuli_distractor_diamondtriangles.svg	stimuli_distractor_diamondtriangles.svg	39	no	57	0	130	0	0			0	0			1				0	
6.6.1	win	2023-07-06	19:56:32	20:03:59	444382	5d5e39bd7427d30001d610ba	3	1	main_z	11	main_z	141	stimuli_target_trianglesquares.svg	stimuli_distractor_diamondtriangles.svg	22	yes	44	1	363	0	0			0	0			1				0	
6.6.1	win	2023-07-06	19:56:32	20:03:59	444382	5d5e39bd7427d30001d610ba	3	1	main_z	11	advance_on_keypress_ZEE	142	stimuli_target_trianglesquares.svg	stimuli_distractor_diamondtriangles.svg	22	yes	57	0	118	0	0			0	0			1				0	
6.6.1	win	2023-07-06	19:56:32	20:04:01	445573	5d5e39bd7427d30001d610ba	3	1	main_z	11	main_z	143	stimuli_distractor_trianglediamonds.svg	stimuli_target_trianglerectangles.svg	25	yes	44	1	455	0	0			0	0			1				0	
6.6.1	win	2023-07-06	19:56:32	20:04:01	445573	5d5e39bd7427d30001d610ba	3	1	main_z	11	advance_on_keypress_ZEE	144	stimuli_distractor_trianglediamonds.svg	stimuli_target_trianglerectangles.svg	25	yes	57	0	16	0	0			0	0			1				0	
6.6.1	win	2023-07-06	19:56:32	20:04:02	446641	5d5e39bd7427d30001d610ba	3	1	main_z	11	main_z	145	stimuli_distractor_diamondtriangles.svg	stimuli_target_diamondrectangles.svg	31	yes	44	1	440	0	0			0	0			1				0	
6.6.1	win	2023-07-06	19:56:32	20:04:02	446641	5d5e39bd7427d30001d610ba	3	1	main_z	11	advance_on_keypress_ZEE	146	stimuli_distractor_diamondtriangles.svg	stimuli_target_diamondrectangles.svg	31	yes	57	0	7	0	0			0	0			1				0	
6.6.1	win	2023-07-06	19:56:32	20:04:03	447683	5d5e39bd7427d30001d610ba	3	1	main_z	11	main_z	147	stimuli_target_diamondsquares.svg	stimuli_distractor_trianglediamonds.svg	20	yes	44	1	420	0	0			0	0			1				0	
6.6.1	win	2023-07-06	19:56:32	20:04:03	447683	5d5e39bd7427d30001d610ba	3	1	main_z	11	advance_on_keypress_ZEE	148	stimuli_target_diamondsquares.svg	stimuli_distractor_trianglediamonds.svg	20	yes	57	0	126	0	0			0	0			1				0	
6.6.1	win	2023-07-06	19:56:32	20:04:04	448875	5d5e39bd7427d30001d610ba	3	1	main_z	11	main_z	149	stimuli_distractor_diamondtriangles.svg	stimuli_target_rectanglediamonds.svg	14	yes	44	1	451	0	0			0	0			1				0	
6.6.1	win	2023-07-06	19:56:32	20:04:04	448875	5d5e39bd7427d30001d610ba	3	1	main_z	11	advance_on_keypress_ZEE	150	stimuli_distractor_diamondtriangles.svg	stimuli_target_rectanglediamonds.svg	14	yes	57	0	116	0	0			0	0			1				0	
6.6.1	win	2023-07-06	19:56:32	20:04:07	451607	5d5e39bd7427d30001d610ba	3	1	main_z	11	main_z	151	stimuli_distractor_trianglediamonds.svg	stimuli_distractor_diamondtriangles.svg	35	no	0	1	2003	0	0			0	0			1				0	
6.6.1	win	2023-07-06	19:56:32	20:04:07	451607	5d5e39bd7427d30001d610ba	3	1	main_z	11	advance_on_keypress_ZEE	152	stimuli_distractor_trianglediamonds.svg	stimuli_distractor_diamondtriangles.svg	35	no	57	0	173	0	0			0	0			1				0	
6.6.1	win	2023-07-06	19:56:32	20:04:08	452834	5d5e39bd7427d30001d610ba	3	1	main_z	11	main_z	153	stimuli_distractor_diamondtriangles.svg	stimuli_target_diamondsquares.svg	32	yes	44	1	437	0	0			0	0			1				0	
6.6.1	win	2023-07-06	19:56:32	20:04:08	452834	5d5e39bd7427d30001d610ba	3	1	main_z	11	advance_on_keypress_ZEE	154	stimuli_distractor_diamondtriangles.svg	stimuli_target_diamondsquares.svg	32	yes	57	0	79	0	0			0	0			1				0	
6.6.1	win	2023-07-06	19:56:32	20:04:09	453894	5d5e39bd7427d30001d610ba	3	1	main_z	11	main_z	155	stimuli_distractor_trianglediamonds.svg	stimuli_target_trianglesquares.svg	26	yes	44	1	366	0	0			0	0			1				0	
6.6.1	win	2023-07-06	19:56:32	20:04:09	453894	5d5e39bd7427d30001d610ba	3	1	main_z	11	advance_on_keypress_ZEE	156	stimuli_distractor_trianglediamonds.svg	stimuli_target_trianglesquares.svg	26	yes	57	0	134	0	0			0	0			1				0	
6.6.1	win	2023-07-06	19:56:32	20:04:10	454947	5d5e39bd7427d30001d610ba	3	1	main_z	11	main_z	157	stimuli_distractor_trianglediamonds.svg	stimuli_target_diamondrectangles.svg	27	yes	44	1	308	0	0			0	0			1				0	
6.6.1	win	2023-07-06	19:56:32	20:04:10	454947	5d5e39bd7427d30001d610ba	3	1	main_z	11	advance_on_keypress_ZEE	158	stimuli_distractor_trianglediamonds.svg	stimuli_target_diamondrectangles.svg	27	yes	57	0	52	0	0			0	0			1				0	
6.6.1	win	2023-07-06	19:56:32	20:04:11	456022	5d5e39bd7427d30001d610ba	3	1	main_z	11	main_z	159	stimuli_distractor_trianglediamonds.svg	stimuli_target_diamondsquares.svg	28	yes	44	1	409	0	0			0	0			1				0	
6.6.1	win	2023-07-06	19:56:32	20:04:11	456022	5d5e39bd7427d30001d610ba	3	1	main_z	11	advance_on_keypress_ZEE	160	stimuli_distractor_trianglediamonds.svg	stimuli_target_diamondsquares.svg	28	yes	57	0	123	0	0			0	0			1				0	
6.6.1	win	2023-07-06	19:56:32	20:04:11	456022	5d5e39bd7427d30001d610ba	3	1	headphonecheck_calibration	14	headphonecheck_calibrationIntro	1	stimuli_distractor_trianglediamonds.svg	stimuli_target_diamondsquares.svg	28	yes	calibrationButton	0	2819	0	0			0	0			1				0	
6.6.1	win	2023-07-06	19:56:32	20:04:11	456022	5d5e39bd7427d30001d610ba	3	1	headphonecheck_testphase	15	test_collectResponse	3	stimuli_distractor_trianglediamonds.svg	stimuli_target_diamondsquares.svg	28	yes	third	1	3874	1	6	antiphase_hc_ois.wav	3	0	0			1				0	
6.6.1	win	2023-07-06	19:56:32	20:04:11	456022	5d5e39bd7427d30001d610ba	3	1	headphonecheck_testphase	15	test_collectResponse	6	stimuli_distractor_trianglediamonds.svg	stimuli_target_diamondsquares.svg	28	yes	first	1	76	2	3	antiphase_hc_soi.wav	1	0	0			1				0	
6.6.1	win	2023-07-06	19:56:32	20:04:11	456022	5d5e39bd7427d30001d610ba	3	1	headphonecheck_testphase	15	test_collectResponse	9	stimuli_distractor_trianglediamonds.svg	stimuli_target_diamondsquares.svg	28	yes	third	1	0	3	2	antiphase_hc_ios.wav	3	0	0			1				0	
6.6.1	win	2023-07-06	19:56:32	20:04:11	456022	5d5e39bd7427d30001d610ba	3	1	headphonecheck_testphase	15	test_collectResponse	12	stimuli_distractor_trianglediamonds.svg	stimuli_target_diamondsquares.svg	28	yes	second	1	98	4	1	antiphase_hc_iso.wav	2	0	0			1				0	
6.6.1	win	2023-07-06	19:56:32	20:04:11	456022	5d5e39bd7427d30001d610ba	3	1	headphonecheck_testphase	15	test_collectResponse	15	stimuli_distractor_trianglediamonds.svg	stimuli_target_diamondsquares.svg	28	yes	second	1	80	5	5	antiphase_hc_osi.wav	2	0	0			1				0	
6.6.1	win	2023-07-06	19:56:32	20:04:11	456022	5d5e39bd7427d30001d610ba	3	1	headphonecheck_testphase	15	test_collectResponse	18	stimuli_distractor_trianglediamonds.svg	stimuli_target_diamondsquares.svg	28	yes	first	1	77	6	4	antiphase_hc_sio.wav	1	0	0			1				0	
6.6.1	win	2023-07-06	19:56:32	20:04:11	456022	5d5e39bd7427d30001d610ba	3	1	stereocheck_calibration	17	stereocheck_calibrationIntro	1	stimuli_distractor_trianglediamonds.svg	stimuli_target_diamondsquares.svg	28	yes	stereocheck_calibrationButton	0	3315	6	4	antiphase_hc_sio.wav	1	0	0			1				0	
6.6.1	win	2023-07-06	19:56:32	20:04:11	456022	5d5e39bd7427d30001d610ba	3	1	stereocheck_testphase	18	stereocheck_test_collectResponse	3	stimuli_distractor_trianglediamonds.svg	stimuli_target_diamondsquares.svg	28	yes	stereocheck_left	1	422	6	4	antiphase_hc_sio.wav	1	1	3	noise_calib_stim_LEFT.wav	1	1				0	
6.6.1	win	2023-07-06	19:56:32	20:04:11	456022	5d5e39bd7427d30001d610ba	3	1	stereocheck_testphase	18	stereocheck_test_collectResponse	6	stimuli_distractor_trianglediamonds.svg	stimuli_target_diamondsquares.svg	28	yes	stereocheck_right	1	228	6	4	antiphase_hc_sio.wav	1	2	4	noise_calib_stim_RIGHT.wav	2	1				0	
6.6.1	win	2023-07-06	19:56:32	20:04:11	456022	5d5e39bd7427d30001d610ba	3	1	stereocheck_testphase	18	stereocheck_test_collectResponse	9	stimuli_distractor_trianglediamonds.svg	stimuli_target_diamondsquares.svg	28	yes	stereocheck_right	1	78	6	4	antiphase_hc_sio.wav	1	3	5	noise_calib_stim_RIGHT.wav	2	1				0	
6.6.1	win	2023-07-06	19:56:32	20:04:11	456022	5d5e39bd7427d30001d610ba	3	1	stereocheck_testphase	18	stereocheck_test_collectResponse	12	stimuli_distractor_trianglediamonds.svg	stimuli_target_diamondsquares.svg	28	yes	stereocheck_left	1	76	6	4	antiphase_hc_sio.wav	1	4	1	noise_calib_stim_LEFT.wav	1	1				0	
6.6.1	win	2023-07-06	19:56:32	20:04:11	456022	5d5e39bd7427d30001d610ba	3	1	stereocheck_testphase	18	stereocheck_test_collectResponse	15	stimuli_distractor_trianglediamonds.svg	stimuli_target_diamondsquares.svg	28	yes	stereocheck_left	1	200	6	4	antiphase_hc_sio.wav	1	5	2	noise_calib_stim_LEFT.wav	1	1				0	
6.6.1	win	2023-07-06	19:56:32	20:04:11	456022	5d5e39bd7427d30001d610ba	3	1	stereocheck_testphase	18	stereocheck_test_collectResponse	18	stimuli_distractor_trianglediamonds.svg	stimuli_target_diamondsquares.svg	28	yes	stereocheck_right	1	186	6	4	antiphase_hc_sio.wav	1	6	6	noise_calib_stim_RIGHT.wav	2	1				0	
6.6.1	win	2023-07-06	19:56:32	20:04:11	456022	5d5e39bd7427d30001d610ba	3	1	DL_practice	21	DL_practice	2	stimuli_distractor_trianglediamonds.svg	stimuli_target_diamondsquares.svg	28	yes	ka	0	1030	6	4	antiphase_hc_sio.wav	1	6	6	noise_calib_stim_RIGHT.wav	2	18	blb_dichoticlistening_ga-ta.mp3	ga	ta	1	other
6.6.1	win	2023-07-06	19:56:32	20:04:11	456022	5d5e39bd7427d30001d610ba	3	1	DL_practice	21	DL_practice	3	stimuli_distractor_trianglediamonds.svg	stimuli_target_diamondsquares.svg	28	yes	ga	1	851	6	4	antiphase_hc_sio.wav	1	6	6	noise_calib_stim_RIGHT.wav	2	15	blb_dichoticlistening_ga-ga.mp3	ga	ga	0	left
6.6.1	win	2023-07-06	19:56:32	20:04:11	456022	5d5e39bd7427d30001d610ba	3	1	DL_practice	21	DL_practice	4	stimuli_distractor_trianglediamonds.svg	stimuli_target_diamondsquares.svg	28	yes	da	1	810	6	4	antiphase_hc_sio.wav	1	6	6	noise_calib_stim_RIGHT.wav	2	8	blb_dichoticlistening_da-da.mp3	da	da	0	left
6.6.1	win	2023-07-06	19:56:32	20:04:11	456022	5d5e39bd7427d30001d610ba	3	1	DL_practice	21	DL_practice	5	stimuli_distractor_trianglediamonds.svg	stimuli_target_diamondsquares.svg	28	yes	ka	1	938	6	4	antiphase_hc_sio.wav	1	6	6	noise_calib_stim_RIGHT.wav	2	23	blb_dichoticlistening_ka-pa.mp3	ka	pa	1	left
6.6.1	win	2023-07-06	19:56:32	20:04:11	456022	5d5e39bd7427d30001d610ba	3	1	DL_practice	21	DL_practice	6	stimuli_distractor_trianglediamonds.svg	stimuli_target_diamondsquares.svg	28	yes	ta	1	1015	6	4	antiphase_hc_sio.wav	1	6	6	noise_calib_stim_RIGHT.wav	2	36	blb_dichoticlistening_ta-ta.mp3	ta	ta	0	left
6.6.1	win	2023-07-06	19:56:32	20:04:11	456022	5d5e39bd7427d30001d610ba	3	1	DL_practice	21	DL_practice	7	stimuli_distractor_trianglediamonds.svg	stimuli_target_diamondsquares.svg	28	yes	ba	1	1476	6	4	antiphase_hc_sio.wav	1	6	6	noise_calib_stim_RIGHT.wav	2	1	blb_dichoticlistening_ba-ba.mp3	ba	ba	0	left
6.6.1	win	2023-07-06	19:56:32	20:04:11	456022	5d5e39bd7427d30001d610ba	3	1	DL_practice	21	DL_practice	8	stimuli_distractor_trianglediamonds.svg	stimuli_target_diamondsquares.svg	28	yes	ka	1	730	6	4	antiphase_hc_sio.wav	1	6	6	noise_calib_stim_RIGHT.wav	2	22	blb_dichoticlistening_ka-ka.mp3	ka	ka	0	left
6.6.1	win	2023-07-06	19:56:32	20:04:11	456022	5d5e39bd7427d30001d610ba	3	1	DL_practice	21	DL_practice	9	stimuli_distractor_trianglediamonds.svg	stimuli_target_diamondsquares.svg	28	yes	pa	1	746	6	4	antiphase_hc_sio.wav	1	6	6	noise_calib_stim_RIGHT.wav	2	29	blb_dichoticlistening_pa-pa.mp3	pa	pa	0	left
6.6.1	win	2023-07-06	19:56:32	20:04:11	456022	5d5e39bd7427d30001d610ba	3	1	DL_practice	21	DL_practice	10	stimuli_distractor_trianglediamonds.svg	stimuli_target_diamondsquares.svg	28	yes	da	1	1760	6	4	antiphase_hc_sio.wav	1	6	6	noise_calib_stim_RIGHT.wav	2	7	blb_dichoticlistening_da-ba.mp3	da	ba	1	left
6.6.1	win	2023-07-06	19:56:32	20:04:11	456022	5d5e39bd7427d30001d610ba	3	1	DL_test	23	DL_test	1	stimuli_distractor_trianglediamonds.svg	stimuli_target_diamondsquares.svg	28	yes	ta	1	886	6	4	antiphase_hc_sio.wav	1	6	6	noise_calib_stim_RIGHT.wav	2	36	blb_dichoticlistening_ta-ta.mp3	ta	ta	0	left
6.6.1	win	2023-07-06	19:56:32	20:04:11	456022	5d5e39bd7427d30001d610ba	3	1	DL_test	23	DL_test	2	stimuli_distractor_trianglediamonds.svg	stimuli_target_diamondsquares.svg	28	yes	ta	1	3170	6	4	antiphase_hc_sio.wav	1	6	6	noise_calib_stim_RIGHT.wav	2	31	blb_dichoticlistening_ta-ba.mp3	ta	ba	1	left
6.6.1	win	2023-07-06	19:56:32	20:04:11	456022	5d5e39bd7427d30001d610ba	3	1	DL_test	23	DL_test	3	stimuli_distractor_trianglediamonds.svg	stimuli_target_diamondsquares.svg	28	yes	ta	1	966	6	4	antiphase_hc_sio.wav	1	6	6	noise_calib_stim_RIGHT.wav	2	6	blb_dichoticlistening_ba-ta.mp3	ba	ta	1	right
6.6.1	win	2023-07-06	19:56:32	20:04:11	456022	5d5e39bd7427d30001d610ba	3	1	DL_test	23	DL_test	4	stimuli_distractor_trianglediamonds.svg	stimuli_target_diamondsquares.svg	28	yes	da	1	1189	6	4	antiphase_hc_sio.wav	1	6	6	noise_calib_stim_RIGHT.wav	2	8	blb_dichoticlistening_da-da.mp3	da	da	0	left
6.6.1	win	2023-07-06	19:56:32	20:04:11	456022	5d5e39bd7427d30001d610ba	3	1	DL_test	23	DL_test	5	stimuli_distractor_trianglediamonds.svg	stimuli_target_diamondsquares.svg	28	yes	da	1	911	6	4	antiphase_hc_sio.wav	1	6	6	noise_calib_stim_RIGHT.wav	2	26	blb_dichoticlistening_pa-da.mp3	pa	da	1	right
6.6.1	win	2023-07-06	19:56:32	20:04:11	456022	5d5e39bd7427d30001d610ba	3	1	DL_test	23	DL_test	6	stimuli_distractor_trianglediamonds.svg	stimuli_target_diamondsquares.svg	28	yes	ka	1	1050	6	4	antiphase_hc_sio.wav	1	6	6	noise_calib_stim_RIGHT.wav	2	24	blb_dichoticlistening_ka-ta.mp3	ka	ta	1	left
6.6.1	win	2023-07-06	19:56:32	20:04:11	456022	5d5e39bd7427d30001d610ba	3	1	DL_test	23	DL_test	7	stimuli_distractor_trianglediamonds.svg	stimuli_target_diamondsquares.svg	28	yes	ka	1	823	6	4	antiphase_hc_sio.wav	1	6	6	noise_calib_stim_RIGHT.wav	2	16	blb_dichoticlistening_ga-ka.mp3	ga	ka	1	right
6.6.1	win	2023-07-06	19:56:32	20:04:11	456022	5d5e39bd7427d30001d610ba	3	1	DL_test	23	DL_test	8	stimuli_distractor_trianglediamonds.svg	stimuli_target_diamondsquares.svg	28	yes	pa	1	1030	6	4	antiphase_hc_sio.wav	1	6	6	noise_calib_stim_RIGHT.wav	2	5	blb_dichoticlistening_ba-pa.mp3	ba	pa	1	right
6.6.1	win	2023-07-06	19:56:32	20:04:11	456022	5d5e39bd7427d30001d610ba	3	1	DL_test	23	DL_test	9	stimuli_distractor_trianglediamonds.svg	stimuli_target_diamondsquares.svg	28	yes	ka	1	2005	6	4	antiphase_hc_sio.wav	1	6	6	noise_calib_stim_RIGHT.wav	2	19	blb_dichoticlistening_ka-ba.mp3	ka	ba	1	left
6.6.1	win	2023-07-06	19:56:32	20:04:11	456022	5d5e39bd7427d30001d610ba	3	1	DL_test	23	DL_test	10	stimuli_distractor_trianglediamonds.svg	stimuli_target_diamondsquares.svg	28	yes	da	1	1115	6	4	antiphase_hc_sio.wav	1	6	6	noise_calib_stim_RIGHT.wav	2	9	blb_dichoticlistening_da-ga.mp3	da	ga	1	left
6.6.1	win	2023-07-06	19:56:32	20:04:11	456022	5d5e39bd7427d30001d610ba	3	1	DL_test	23	DL_test	11	stimuli_distractor_trianglediamonds.svg	stimuli_target_diamondsquares.svg	28	yes	ba	1	1620	6	4	antiphase_hc_sio.wav	1	6	6	noise_calib_stim_RIGHT.wav	2	13	blb_dichoticlistening_ga-ba.mp3	ga	ba	1	right
6.6.1	win	2023-07-06	19:56:32	20:04:11	456022	5d5e39bd7427d30001d610ba	3	1	DL_test	23	DL_test	12	stimuli_distractor_trianglediamonds.svg	stimuli_target_diamondsquares.svg	28	yes	pa	1	1886	6	4	antiphase_hc_sio.wav	1	6	6	noise_calib_stim_RIGHT.wav	2	25	blb_dichoticlistening_pa-ba.mp3	pa	ba	1	left
6.6.1	win	2023-07-06	19:56:32	20:04:11	456022	5d5e39bd7427d30001d610ba	3	1	DL_test	23	DL_test	13	stimuli_distractor_trianglediamonds.svg	stimuli_target_diamondsquares.svg	28	yes	ta	1	778	6	4	antiphase_hc_sio.wav	1	6	6	noise_calib_stim_RIGHT.wav	2	30	blb_dichoticlistening_pa-ta.mp3	pa	ta	1	right
6.6.1	win	2023-07-06	19:56:32	20:04:11	456022	5d5e39bd7427d30001d610ba	3	1	DL_test	23	DL_test	14	stimuli_distractor_trianglediamonds.svg	stimuli_target_diamondsquares.svg	28	yes	da	1	1021	6	4	antiphase_hc_sio.wav	1	6	6	noise_calib_stim_RIGHT.wav	2	20	blb_dichoticlistening_ka-da.mp3	ka	da	1	right
6.6.1	win	2023-07-06	19:56:32	20:04:11	456022	5d5e39bd7427d30001d610ba	3	1	DL_test	23	DL_test	15	stimuli_distractor_trianglediamonds.svg	stimuli_target_diamondsquares.svg	28	yes	ga	1	770	6	4	antiphase_hc_sio.wav	1	6	6	noise_calib_stim_RIGHT.wav	2	14	blb_dichoticlistening_ga-da.mp3	ga	da	1	left
6.6.1	win	2023-07-06	19:56:32	20:04:11	456022	5d5e39bd7427d30001d610ba	3	1	DL_test	23	DL_test	16	stimuli_distractor_trianglediamonds.svg	stimuli_target_diamondsquares.svg	28	yes	ga	1	609	6	4	antiphase_hc_sio.wav	1	6	6	noise_calib_stim_RIGHT.wav	2	15	blb_dichoticlistening_ga-ga.mp3	ga	ga	0	left
6.6.1	win	2023-07-06	19:56:32	20:04:11	456022	5d5e39bd7427d30001d610ba	3	1	DL_test	23	DL_test	17	stimuli_distractor_trianglediamonds.svg	stimuli_target_diamondsquares.svg	28	yes	pa	1	1209	6	4	antiphase_hc_sio.wav	1	6	6	noise_calib_stim_RIGHT.wav	2	29	blb_dichoticlistening_pa-pa.mp3	pa	pa	0	left
6.6.1	win	2023-07-06	19:56:32	20:04:11	456022	5d5e39bd7427d30001d610ba	3	1	DL_test	23	DL_test	18	stimuli_distractor_trianglediamonds.svg	stimuli_target_diamondsquares.svg	28	yes	ta	0	2128	6	4	antiphase_hc_sio.wav	1	6	6	noise_calib_stim_RIGHT.wav	2	10	blb_dichoticlistening_da-ka.mp3	da	ka	1	other
6.6.1	win	2023-07-06	19:56:32	20:04:11	456022	5d5e39bd7427d30001d610ba	3	1	DL_test	23	DL_test	19	stimuli_distractor_trianglediamonds.svg	stimuli_target_diamondsquares.svg	28	yes	ta	1	1176	6	4	antiphase_hc_sio.wav	1	6	6	noise_calib_stim_RIGHT.wav	2	32	blb_dichoticlistening_ta-da.mp3	ta	da	1	left
6.6.1	win	2023-07-06	19:56:32	20:04:11	456022	5d5e39bd7427d30001d610ba	3	1	DL_test	23	DL_test	20	stimuli_distractor_trianglediamonds.svg	stimuli_target_diamondsquares.svg	28	yes	ta	1	2187	6	4	antiphase_hc_sio.wav	1	6	6	noise_calib_stim_RIGHT.wav	2	33	blb_dichoticlistening_ta-ga.mp3	ta	ga	1	left
6.6.1	win	2023-07-06	19:56:32	20:04:11	456022	5d5e39bd7427d30001d610ba	3	1	DL_test	23	DL_test	21	stimuli_distractor_trianglediamonds.svg	stimuli_target_diamondsquares.svg	28	yes	da	1	1332	6	4	antiphase_hc_sio.wav	1	6	6	noise_calib_stim_RIGHT.wav	2	2	blb_dichoticlistening_ba-da.mp3	ba	da	1	right
6.6.1	win	2023-07-06	19:56:32	20:04:11	456022	5d5e39bd7427d30001d610ba	3	1	DL_test	23	DL_test	22	stimuli_distractor_trianglediamonds.svg	stimuli_target_diamondsquares.svg	28	yes	ka	1	1013	6	4	antiphase_hc_sio.wav	1	6	6	noise_calib_stim_RIGHT.wav	2	22	blb_dichoticlistening_ka-ka.mp3	ka	ka	0	left
6.6.1	win	2023-07-06	19:56:32	20:04:11	456022	5d5e39bd7427d30001d610ba	3	1	DL_test	23	DL_test	23	stimuli_distractor_trianglediamonds.svg	stimuli_target_diamondsquares.svg	28	yes	ka	1	788	6	4	antiphase_hc_sio.wav	1	6	6	noise_calib_stim_RIGHT.wav	2	4	blb_dichoticlistening_ba-ka.mp3	ba	ka	1	right
6.6.1	win	2023-07-06	19:56:32	20:04:11	456022	5d5e39bd7427d30001d610ba	3	1	DL_test	23	DL_test	24	stimuli_distractor_trianglediamonds.svg	stimuli_target_diamondsquares.svg	28	yes	pa	1	965	6	4	antiphase_hc_sio.wav	1	6	6	noise_calib_stim_RIGHT.wav	2	35	blb_dichoticlistening_ta-pa.mp3	ta	pa	1	right
6.6.1	win	2023-07-06	19:56:32	20:04:11	456022	5d5e39bd7427d30001d610ba	3	1	DL_test	23	DL_test	25	stimuli_distractor_trianglediamonds.svg	stimuli_target_diamondsquares.svg	28	yes	ga	1	1041	6	4	antiphase_hc_sio.wav	1	6	6	noise_calib_stim_RIGHT.wav	2	3	blb_dichoticlistening_ba-ga.mp3	ba	ga	1	right
6.6.1	win	2023-07-06	19:56:32	20:04:11	456022	5d5e39bd7427d30001d610ba	3	1	DL_test	23	DL_test	26	stimuli_distractor_trianglediamonds.svg	stimuli_target_diamondsquares.svg	28	yes	ga	1	668	6	4	antiphase_hc_sio.wav	1	6	6	noise_calib_stim_RIGHT.wav	2	21	blb_dichoticlistening_ka-ga.mp3	ka	ga	1	right
6.6.1	win	2023-07-06	19:56:32	20:04:11	456022	5d5e39bd7427d30001d610ba	3	1	DL_test	23	DL_test	27	stimuli_distractor_trianglediamonds.svg	stimuli_target_diamondsquares.svg	28	yes	ka	0	1003	6	4	antiphase_hc_sio.wav	1	6	6	noise_calib_stim_RIGHT.wav	2	18	blb_dichoticlistening_ga-ta.mp3	ga	ta	1	other
