build	computer.platform	date	time	timestamp	time_elapsed_ms	subject	group	session	blockcode	blocknum	trialcode	trialnum	stimulus_left	stimulus_right	stim_index	target_present	response	correct	latency	headphonecheck_countTestTrials	headphonecheck_index	headphonecheck_testSound	headphonecheck_correctResponse	stereocheck_countTestTrials	stereocheck_index	stereocheck_testSound	stereocheck_correctResponse	DL_index	DL_soundfile	DL_leftSound	DL_rightSound	DL_dualSound	DL_choice
6.6.1	win	2023-06-28	07:20:52	07:28:12	434761	5f3bd56999a44d9324b76ddb	3	1	practice_slash	5	practice_slash	1	stimuli_target_rectanglediamonds.svg	stimuli_distractor_trianglediamonds.svg	4	yes	53	1	1921	0	0			0	0			1				0	
6.6.1	win	2023-06-28	07:20:52	07:28:12	434761	5f3bd56999a44d9324b76ddb	3	1	practice_slash	5	advance_on_keypress_SLASH	2	stimuli_target_rectanglediamonds.svg	stimuli_distractor_trianglediamonds.svg	4	yes	57	0	895	0	0			0	0			1				0	
6.6.1	win	2023-06-28	07:20:52	07:28:16	438551	5f3bd56999a44d9324b76ddb	3	1	practice_slash	5	practice_slash	3	stimuli_distractor_trianglediamonds.svg	stimuli_target_rectanglediamonds.svg	10	yes	53	1	1231	0	0			0	0			1				0	
6.6.1	win	2023-06-28	07:20:52	07:28:16	438551	5f3bd56999a44d9324b76ddb	3	1	practice_slash	5	advance_on_keypress_SLASH	4	stimuli_distractor_trianglediamonds.svg	stimuli_target_rectanglediamonds.svg	10	yes	57	0	1164	0	0			0	0			1				0	
6.6.1	win	2023-06-28	07:20:52	07:28:21	443179	5f3bd56999a44d9324b76ddb	3	1	practice_slash	5	practice_slash	5	stimuli_distractor_diamondtriangles.svg	stimuli_target_rectangletriangles.svg	7	yes	53	1	1807	0	0			0	0			1				0	
6.6.1	win	2023-06-28	07:20:52	07:28:21	443179	5f3bd56999a44d9324b76ddb	3	1	practice_slash	5	advance_on_keypress_SLASH	6	stimuli_distractor_diamondtriangles.svg	stimuli_target_rectangletriangles.svg	7	yes	57	0	1408	0	0			0	0			1				0	
6.6.1	win	2023-06-28	07:20:52	07:28:26	448236	5f3bd56999a44d9324b76ddb	3	1	practice_slash	5	practice_slash	7	stimuli_distractor_diamondtriangles.svg	stimuli_target_diamondrectangles.svg	8	yes	0	0	2000	0	0			0	0			1				0	
6.6.1	win	2023-06-28	07:20:52	07:28:26	448236	5f3bd56999a44d9324b76ddb	3	1	practice_slash	5	advance_on_keypress_SLASH	8	stimuli_distractor_diamondtriangles.svg	stimuli_target_diamondrectangles.svg	8	yes	57	0	557	0	0			0	0			1				0	
6.6.1	win	2023-06-28	07:20:52	07:28:30	452454	5f3bd56999a44d9324b76ddb	3	1	practice_slash	5	practice_slash	9	stimuli_distractor_diamondtriangles.svg	stimuli_target_trianglerectangles.svg	9	yes	0	0	2000	0	0			0	0			1				0	
6.6.1	win	2023-06-28	07:20:52	07:28:30	452454	5f3bd56999a44d9324b76ddb	3	1	practice_slash	5	advance_on_keypress_SLASH	10	stimuli_distractor_diamondtriangles.svg	stimuli_target_trianglerectangles.svg	9	yes	57	0	513	0	0			0	0			1				0	
6.6.1	win	2023-06-28	07:20:52	07:28:32	455138	5f3bd56999a44d9324b76ddb	3	1	practice_slash	5	practice_slash	11	stimuli_target_rectanglediamonds.svg	stimuli_distractor_diamondtriangles.svg	1	yes	53	1	517	0	0			0	0			1				0	
6.6.1	win	2023-06-28	07:20:52	07:28:32	455138	5f3bd56999a44d9324b76ddb	3	1	practice_slash	5	advance_on_keypress_SLASH	12	stimuli_target_rectanglediamonds.svg	stimuli_distractor_diamondtriangles.svg	1	yes	57	0	552	0	0			0	0			1				0	
6.6.1	win	2023-06-28	07:20:52	07:28:37	459288	5f3bd56999a44d9324b76ddb	3	1	practice_slash	5	practice_slash	13	stimuli_distractor_trianglediamonds.svg	stimuli_distractor_trianglediamonds.svg	15	no	53	0	1951	0	0			0	0			1				0	
6.6.1	win	2023-06-28	07:20:52	07:28:37	459288	5f3bd56999a44d9324b76ddb	3	1	practice_slash	5	advance_on_keypress_SLASH	14	stimuli_distractor_trianglediamonds.svg	stimuli_distractor_trianglediamonds.svg	15	no	57	0	475	0	0			0	0			1				0	
6.6.1	win	2023-06-28	07:20:52	07:28:41	463405	5f3bd56999a44d9324b76ddb	3	1	practice_slash	5	practice_slash	15	stimuli_distractor_trianglediamonds.svg	stimuli_distractor_diamondtriangles.svg	16	no	0	1	2000	0	0			0	0			1				0	
6.6.1	win	2023-06-28	07:20:52	07:28:41	463405	5f3bd56999a44d9324b76ddb	3	1	practice_slash	5	advance_on_keypress_SLASH	16	stimuli_distractor_trianglediamonds.svg	stimuli_distractor_diamondtriangles.svg	16	no	57	0	683	0	0			0	0			1				0	
6.6.1	win	2023-06-28	07:20:52	07:28:45	467737	5f3bd56999a44d9324b76ddb	3	1	practice_slash	5	practice_slash	17	stimuli_target_diamondsquares.svg	stimuli_distractor_trianglediamonds.svg	6	yes	0	0	2000	0	0			0	0			1				0	
6.6.1	win	2023-06-28	07:20:52	07:28:45	467737	5f3bd56999a44d9324b76ddb	3	1	practice_slash	5	advance_on_keypress_SLASH	18	stimuli_target_diamondsquares.svg	stimuli_distractor_trianglediamonds.svg	6	yes	57	0	583	0	0			0	0			1				0	
6.6.1	win	2023-06-28	07:20:52	07:28:49	471284	5f3bd56999a44d9324b76ddb	3	1	practice_slash	5	practice_slash	19	stimuli_distractor_trianglediamonds.svg	stimuli_target_squarediamonds.svg	11	yes	53	1	1314	0	0			0	0			1				0	
6.6.1	win	2023-06-28	07:20:52	07:28:49	471284	5f3bd56999a44d9324b76ddb	3	1	practice_slash	5	advance_on_keypress_SLASH	20	stimuli_distractor_trianglediamonds.svg	stimuli_target_squarediamonds.svg	11	yes	57	0	563	0	0			0	0			1				0	
6.6.1	win	2023-06-28	07:20:52	07:28:52	474302	5f3bd56999a44d9324b76ddb	3	1	practice_slash	5	practice_slash	21	stimuli_distractor_trianglediamonds.svg	stimuli_target_diamondrectangles.svg	12	yes	53	1	799	0	0			0	0			1				0	
6.6.1	win	2023-06-28	07:20:52	07:28:52	474302	5f3bd56999a44d9324b76ddb	3	1	practice_slash	5	advance_on_keypress_SLASH	22	stimuli_distractor_trianglediamonds.svg	stimuli_target_diamondrectangles.svg	12	yes	57	0	485	0	0			0	0			1				0	
6.6.1	win	2023-06-28	07:20:52	07:28:56	478436	5f3bd56999a44d9324b76ddb	3	1	practice_slash	5	practice_slash	23	stimuli_distractor_diamondtriangles.svg	stimuli_distractor_diamondtriangles.svg	13	no	0	1	2000	0	0			0	0			1				0	
6.6.1	win	2023-06-28	07:20:52	07:28:56	478436	5f3bd56999a44d9324b76ddb	3	1	practice_slash	5	advance_on_keypress_SLASH	24	stimuli_distractor_diamondtriangles.svg	stimuli_distractor_diamondtriangles.svg	13	no	57	0	517	0	0			0	0			1				0	
6.6.1	win	2023-06-28	07:20:52	07:29:00	482604	5f3bd56999a44d9324b76ddb	3	1	practice_slash	5	practice_slash	25	stimuli_target_squarediamonds.svg	stimuli_distractor_diamondtriangles.svg	2	yes	0	0	2000	0	0			0	0			1				0	
6.6.1	win	2023-06-28	07:20:52	07:29:00	482604	5f3bd56999a44d9324b76ddb	3	1	practice_slash	5	advance_on_keypress_SLASH	26	stimuli_target_squarediamonds.svg	stimuli_distractor_diamondtriangles.svg	2	yes	57	0	412	0	0			0	0			1				0	
6.6.1	win	2023-06-28	07:20:52	07:29:03	485421	5f3bd56999a44d9324b76ddb	3	1	practice_slash	5	practice_slash	27	stimuli_distractor_diamondtriangles.svg	stimuli_distractor_trianglediamonds.svg	14	no	53	0	768	0	0			0	0			1				0	
6.6.1	win	2023-06-28	07:20:52	07:29:03	485421	5f3bd56999a44d9324b76ddb	3	1	practice_slash	5	advance_on_keypress_SLASH	28	stimuli_distractor_diamondtriangles.svg	stimuli_distractor_trianglediamonds.svg	14	no	57	0	1203	0	0			0	0			1				0	
6.6.1	win	2023-06-28	07:20:52	07:29:07	489543	5f3bd56999a44d9324b76ddb	3	1	practice_slash	5	practice_slash	29	stimuli_target_diamondsquares.svg	stimuli_distractor_diamondtriangles.svg	3	yes	53	1	1274	0	0			0	0			1				0	
6.6.1	win	2023-06-28	07:20:52	07:29:07	489543	5f3bd56999a44d9324b76ddb	3	1	practice_slash	5	advance_on_keypress_SLASH	30	stimuli_target_diamondsquares.svg	stimuli_distractor_diamondtriangles.svg	3	yes	57	0	684	0	0			0	0			1				0	
6.6.1	win	2023-06-28	07:20:52	07:29:11	493871	5f3bd56999a44d9324b76ddb	3	1	practice_slash	5	practice_slash	31	stimuli_target_squarediamonds.svg	stimuli_distractor_trianglediamonds.svg	5	yes	0	0	2000	0	0			0	0			1				0	
6.6.1	win	2023-06-28	07:20:52	07:29:11	493871	5f3bd56999a44d9324b76ddb	3	1	practice_slash	5	advance_on_keypress_SLASH	32	stimuli_target_squarediamonds.svg	stimuli_distractor_trianglediamonds.svg	5	yes	57	0	578	0	0			0	0			1				0	
6.6.1	win	2023-06-28	07:20:52	07:29:18	500767	5f3bd56999a44d9324b76ddb	3	1	main_slash	7	main_slash	1	stimuli_distractor_trianglediamonds.svg	stimuli_target_trianglesquares.svg	26	yes	53	1	799	0	0			0	0			1				0	
6.6.1	win	2023-06-28	07:20:52	07:29:18	500767	5f3bd56999a44d9324b76ddb	3	1	main_slash	7	advance_on_keypress_SLASH	2	stimuli_distractor_trianglediamonds.svg	stimuli_target_trianglesquares.svg	26	yes	57	0	1893	0	0			0	0			1				0	
6.6.1	win	2023-06-28	07:20:52	07:29:22	504147	5f3bd56999a44d9324b76ddb	3	1	main_slash	7	main_slash	3	stimuli_target_diamondsquares.svg	stimuli_distractor_trianglediamonds.svg	20	yes	53	1	846	0	0			0	0			1				0	
6.6.1	win	2023-06-28	07:20:52	07:29:22	504147	5f3bd56999a44d9324b76ddb	3	1	main_slash	7	advance_on_keypress_SLASH	4	stimuli_target_diamondsquares.svg	stimuli_distractor_trianglediamonds.svg	20	yes	57	0	620	0	0			0	0			1				0	
6.6.1	win	2023-06-28	07:20:52	07:29:25	507417	5f3bd56999a44d9324b76ddb	3	1	main_slash	7	main_slash	5	stimuli_target_rectanglediamonds.svg	stimuli_distractor_trianglediamonds.svg	2	yes	0	0	2000	0	0			0	0			1				0	
6.6.1	win	2023-06-28	07:20:52	07:29:25	507417	5f3bd56999a44d9324b76ddb	3	1	main_slash	7	advance_on_keypress_SLASH	6	stimuli_target_rectanglediamonds.svg	stimuli_distractor_trianglediamonds.svg	2	yes	57	0	559	0	0			0	0			1				0	
6.6.1	win	2023-06-28	07:20:52	07:29:28	510348	5f3bd56999a44d9324b76ddb	3	1	main_slash	7	main_slash	7	stimuli_target_trianglerectangles.svg	stimuli_distractor_diamondtriangles.svg	21	yes	53	1	1731	0	0			0	0			1				0	
6.6.1	win	2023-06-28	07:20:52	07:29:28	510348	5f3bd56999a44d9324b76ddb	3	1	main_slash	7	advance_on_keypress_SLASH	8	stimuli_target_trianglerectangles.svg	stimuli_distractor_diamondtriangles.svg	21	yes	57	0	1011	0	0			0	0			1				0	
6.6.1	win	2023-06-28	07:20:52	07:29:31	513580	5f3bd56999a44d9324b76ddb	3	1	main_slash	7	main_slash	9	stimuli_target_diamondrectangles.svg	stimuli_distractor_trianglediamonds.svg	19	yes	53	1	1579	0	0			0	0			1				0	
6.6.1	win	2023-06-28	07:20:52	07:29:31	513580	5f3bd56999a44d9324b76ddb	3	1	main_slash	7	advance_on_keypress_SLASH	10	stimuli_target_diamondrectangles.svg	stimuli_distractor_trianglediamonds.svg	19	yes	57	0	699	0	0			0	0			1				0	
6.6.1	win	2023-06-28	07:20:52	07:29:33	515841	5f3bd56999a44d9324b76ddb	3	1	main_slash	7	main_slash	11	stimuli_distractor_trianglediamonds.svg	stimuli_target_diamondrectangles.svg	27	yes	53	1	908	0	0			0	0			1				0	
6.6.1	win	2023-06-28	07:20:52	07:29:33	515841	5f3bd56999a44d9324b76ddb	3	1	main_slash	7	advance_on_keypress_SLASH	12	stimuli_distractor_trianglediamonds.svg	stimuli_target_diamondrectangles.svg	27	yes	57	0	753	0	0			0	0			1				0	
6.6.1	win	2023-06-28	07:20:52	07:29:37	519234	5f3bd56999a44d9324b76ddb	3	1	main_slash	7	main_slash	13	stimuli_distractor_diamondtriangles.svg	stimuli_distractor_diamondtriangles.svg	39	no	0	1	2000	0	0			0	0			1				0	
6.6.1	win	2023-06-28	07:20:52	07:29:37	519234	5f3bd56999a44d9324b76ddb	3	1	main_slash	7	advance_on_keypress_SLASH	14	stimuli_distractor_diamondtriangles.svg	stimuli_distractor_diamondtriangles.svg	39	no	57	0	498	0	0			0	0			1				0	
6.6.1	win	2023-06-28	07:20:52	07:29:39	521231	5f3bd56999a44d9324b76ddb	3	1	main_slash	7	main_slash	15	stimuli_distractor_diamondtriangles.svg	stimuli_target_trianglerectangles.svg	29	yes	53	1	849	0	0			0	0			1				0	
6.6.1	win	2023-06-28	07:20:52	07:29:39	521231	5f3bd56999a44d9324b76ddb	3	1	main_slash	7	advance_on_keypress_SLASH	16	stimuli_distractor_diamondtriangles.svg	stimuli_target_trianglerectangles.svg	29	yes	57	0	663	0	0			0	0			1				0	
6.6.1	win	2023-06-28	07:20:52	07:29:41	523348	5f3bd56999a44d9324b76ddb	3	1	main_slash	7	main_slash	17	stimuli_distractor_trianglediamonds.svg	stimuli_target_trianglerectangles.svg	25	yes	53	1	798	0	0			0	0			1				0	
6.6.1	win	2023-06-28	07:20:52	07:29:41	523348	5f3bd56999a44d9324b76ddb	3	1	main_slash	7	advance_on_keypress_SLASH	18	stimuli_distractor_trianglediamonds.svg	stimuli_target_trianglerectangles.svg	25	yes	57	0	687	0	0			0	0			1				0	
6.6.1	win	2023-06-28	07:20:52	07:29:43	525777	5f3bd56999a44d9324b76ddb	3	1	main_slash	7	main_slash	19	stimuli_target_trianglesquares.svg	stimuli_distractor_diamondtriangles.svg	22	yes	53	1	1094	0	0			0	0			1				0	
6.6.1	win	2023-06-28	07:20:52	07:29:43	525777	5f3bd56999a44d9324b76ddb	3	1	main_slash	7	advance_on_keypress_SLASH	20	stimuli_target_trianglesquares.svg	stimuli_distractor_diamondtriangles.svg	22	yes	57	0	740	0	0			0	0			1				0	
6.6.1	win	2023-06-28	07:20:52	07:29:47	529149	5f3bd56999a44d9324b76ddb	3	1	main_slash	7	main_slash	21	stimuli_target_squarediamonds.svg	stimuli_distractor_trianglediamonds.svg	4	yes	0	0	2000	0	0			0	0			1				0	
6.6.1	win	2023-06-28	07:20:52	07:29:47	529149	5f3bd56999a44d9324b76ddb	3	1	main_slash	7	advance_on_keypress_SLASH	22	stimuli_target_squarediamonds.svg	stimuli_distractor_trianglediamonds.svg	4	yes	57	0	455	0	0			0	0			1				0	
6.6.1	win	2023-06-28	07:20:52	07:29:50	532249	5f3bd56999a44d9324b76ddb	3	1	main_slash	7	main_slash	23	stimuli_distractor_trianglediamonds.svg	stimuli_target_squaretriangles.svg	11	yes	0	0	2000	0	0			0	0			1				0	
6.6.1	win	2023-06-28	07:20:52	07:29:50	532249	5f3bd56999a44d9324b76ddb	3	1	main_slash	7	advance_on_keypress_SLASH	24	stimuli_distractor_trianglediamonds.svg	stimuli_target_squaretriangles.svg	11	yes	57	0	445	0	0			0	0			1				0	
6.6.1	win	2023-06-28	07:20:52	07:29:53	535350	5f3bd56999a44d9324b76ddb	3	1	main_slash	7	main_slash	25	stimuli_target_squaretriangles.svg	stimuli_distractor_trianglediamonds.svg	3	yes	0	0	2000	0	0			0	0			1				0	
6.6.1	win	2023-06-28	07:20:52	07:29:53	535350	5f3bd56999a44d9324b76ddb	3	1	main_slash	7	advance_on_keypress_SLASH	26	stimuli_target_squaretriangles.svg	stimuli_distractor_trianglediamonds.svg	3	yes	57	0	434	0	0			0	0			1				0	
6.6.1	win	2023-06-28	07:20:52	07:29:56	538433	5f3bd56999a44d9324b76ddb	3	1	main_slash	7	main_slash	27	stimuli_target_rectangletriangles.svg	stimuli_distractor_diamondtriangles.svg	5	yes	0	0	2000	0	0			0	0			1				0	
6.6.1	win	2023-06-28	07:20:52	07:29:56	538433	5f3bd56999a44d9324b76ddb	3	1	main_slash	7	advance_on_keypress_SLASH	28	stimuli_target_rectangletriangles.svg	stimuli_distractor_diamondtriangles.svg	5	yes	57	0	454	0	0			0	0			1				0	
6.6.1	win	2023-06-28	07:20:52	07:29:59	541533	5f3bd56999a44d9324b76ddb	3	1	main_slash	7	main_slash	29	stimuli_distractor_trianglediamonds.svg	stimuli_distractor_diamondtriangles.svg	36	no	0	1	2000	0	0			0	0			1				0	
6.6.1	win	2023-06-28	07:20:52	07:29:59	541533	5f3bd56999a44d9324b76ddb	3	1	main_slash	7	advance_on_keypress_SLASH	30	stimuli_distractor_trianglediamonds.svg	stimuli_distractor_diamondtriangles.svg	36	no	57	0	473	0	0			0	0			1				0	
6.6.1	win	2023-06-28	07:20:52	07:30:01	543448	5f3bd56999a44d9324b76ddb	3	1	main_slash	7	main_slash	31	stimuli_distractor_trianglediamonds.svg	stimuli_target_diamondsquares.svg	28	yes	53	1	799	0	0			0	0			1				0	
6.6.1	win	2023-06-28	07:20:52	07:30:01	543448	5f3bd56999a44d9324b76ddb	3	1	main_slash	7	advance_on_keypress_SLASH	32	stimuli_distractor_trianglediamonds.svg	stimuli_target_diamondsquares.svg	28	yes	57	0	749	0	0			0	0			1				0	
6.6.1	win	2023-06-28	07:20:52	07:30:04	546241	5f3bd56999a44d9324b76ddb	3	1	main_slash	7	main_slash	33	stimuli_target_rectangletriangles.svg	stimuli_distractor_trianglediamonds.svg	1	yes	53	1	1392	0	0			0	0			1				0	
6.6.1	win	2023-06-28	07:20:52	07:30:04	546241	5f3bd56999a44d9324b76ddb	3	1	main_slash	7	advance_on_keypress_SLASH	34	stimuli_target_rectangletriangles.svg	stimuli_distractor_trianglediamonds.svg	1	yes	57	0	641	0	0			0	0			1				0	
6.6.1	win	2023-06-28	07:20:52	07:30:06	548729	5f3bd56999a44d9324b76ddb	3	1	main_slash	7	main_slash	35	stimuli_distractor_trianglediamonds.svg	stimuli_distractor_trianglediamonds.svg	34	no	53	0	1212	0	0			0	0			1				0	
6.6.1	win	2023-06-28	07:20:52	07:30:06	548729	5f3bd56999a44d9324b76ddb	3	1	main_slash	7	advance_on_keypress_SLASH	36	stimuli_distractor_trianglediamonds.svg	stimuli_distractor_trianglediamonds.svg	34	no	57	0	549	0	0			0	0			1				0	
6.6.1	win	2023-06-28	07:20:52	07:30:09	551350	5f3bd56999a44d9324b76ddb	3	1	main_slash	7	main_slash	37	stimuli_distractor_diamondtriangles.svg	stimuli_distractor_trianglediamonds.svg	38	no	53	0	1418	0	0			0	0			1				0	
6.6.1	win	2023-06-28	07:20:52	07:30:09	551350	5f3bd56999a44d9324b76ddb	3	1	main_slash	7	advance_on_keypress_SLASH	38	stimuli_distractor_diamondtriangles.svg	stimuli_distractor_trianglediamonds.svg	38	no	57	0	2217	0	0			0	0			1				0	
6.6.1	win	2023-06-28	07:20:52	07:30:14	556215	5f3bd56999a44d9324b76ddb	3	1	main_slash	7	main_slash	39	stimuli_distractor_trianglediamonds.svg	stimuli_distractor_trianglediamonds.svg	33	no	0	1	2000	0	0			0	0			1				0	
6.6.1	win	2023-06-28	07:20:52	07:30:14	556215	5f3bd56999a44d9324b76ddb	3	1	main_slash	7	advance_on_keypress_SLASH	40	stimuli_distractor_trianglediamonds.svg	stimuli_distractor_trianglediamonds.svg	33	no	57	0	1418	0	0			0	0			1				0	
6.6.1	win	2023-06-28	07:20:52	07:30:18	560282	5f3bd56999a44d9324b76ddb	3	1	main_slash	7	main_slash	41	stimuli_distractor_trianglediamonds.svg	stimuli_target_rectangletriangles.svg	9	yes	0	0	2000	0	0			0	0			1				0	
6.6.1	win	2023-06-28	07:20:52	07:30:18	560282	5f3bd56999a44d9324b76ddb	3	1	main_slash	7	advance_on_keypress_SLASH	42	stimuli_distractor_trianglediamonds.svg	stimuli_target_rectangletriangles.svg	9	yes	57	0	866	0	0			0	0			1				0	
6.6.1	win	2023-06-28	07:20:52	07:30:20	563086	5f3bd56999a44d9324b76ddb	3	1	main_slash	7	main_slash	43	stimuli_target_rectanglediamonds.svg	stimuli_distractor_diamondtriangles.svg	6	yes	53	1	1287	0	0			0	0			1				0	
6.6.1	win	2023-06-28	07:20:52	07:30:20	563086	5f3bd56999a44d9324b76ddb	3	1	main_slash	7	advance_on_keypress_SLASH	44	stimuli_target_rectanglediamonds.svg	stimuli_distractor_diamondtriangles.svg	6	yes	57	0	1765	0	0			0	0			1				0	
6.6.1	win	2023-06-28	07:20:52	07:30:24	566461	5f3bd56999a44d9324b76ddb	3	1	main_slash	7	main_slash	45	stimuli_distractor_diamondtriangles.svg	stimuli_distractor_trianglediamonds.svg	37	no	53	0	963	0	0			0	0			1				0	
6.6.1	win	2023-06-28	07:20:52	07:30:24	566461	5f3bd56999a44d9324b76ddb	3	1	main_slash	7	advance_on_keypress_SLASH	46	stimuli_distractor_diamondtriangles.svg	stimuli_distractor_trianglediamonds.svg	37	no	57	0	651	0	0			0	0			1				0	
6.6.1	win	2023-06-28	07:20:52	07:30:27	569749	5f3bd56999a44d9324b76ddb	3	1	main_slash	7	main_slash	47	stimuli_distractor_diamondtriangles.svg	stimuli_target_squarediamonds.svg	16	yes	0	0	2000	0	0			0	0			1				0	
6.6.1	win	2023-06-28	07:20:52	07:30:27	569749	5f3bd56999a44d9324b76ddb	3	1	main_slash	7	advance_on_keypress_SLASH	48	stimuli_distractor_diamondtriangles.svg	stimuli_target_squarediamonds.svg	16	yes	57	0	395	0	0			0	0			1				0	
6.6.1	win	2023-06-28	07:20:52	07:30:29	571810	5f3bd56999a44d9324b76ddb	3	1	main_slash	7	main_slash	49	stimuli_target_squarediamonds.svg	stimuli_distractor_diamondtriangles.svg	8	yes	53	1	1027	0	0			0	0			1				0	
6.6.1	win	2023-06-28	07:20:52	07:30:29	571810	5f3bd56999a44d9324b76ddb	3	1	main_slash	7	advance_on_keypress_SLASH	50	stimuli_target_squarediamonds.svg	stimuli_distractor_diamondtriangles.svg	8	yes	57	0	643	0	0			0	0			1				0	
6.6.1	win	2023-06-28	07:20:52	07:30:32	575083	5f3bd56999a44d9324b76ddb	3	1	main_slash	7	main_slash	51	stimuli_distractor_trianglediamonds.svg	stimuli_distractor_diamondtriangles.svg	35	no	0	1	2000	0	0			0	0			1				0	
6.6.1	win	2023-06-28	07:20:52	07:30:32	575083	5f3bd56999a44d9324b76ddb	3	1	main_slash	7	advance_on_keypress_SLASH	52	stimuli_distractor_trianglediamonds.svg	stimuli_distractor_diamondtriangles.svg	35	no	57	0	511	0	0			0	0			1				0	
6.6.1	win	2023-06-28	07:20:52	07:30:36	578233	5f3bd56999a44d9324b76ddb	3	1	main_slash	7	main_slash	53	stimuli_distractor_diamondtriangles.svg	stimuli_target_squaretriangles.svg	15	yes	0	0	2000	0	0			0	0			1				0	
6.6.1	win	2023-06-28	07:20:52	07:30:36	578233	5f3bd56999a44d9324b76ddb	3	1	main_slash	7	advance_on_keypress_SLASH	54	stimuli_distractor_diamondtriangles.svg	stimuli_target_squaretriangles.svg	15	yes	57	0	252	0	0			0	0			1				0	
6.6.1	win	2023-06-28	07:20:52	07:30:37	579840	5f3bd56999a44d9324b76ddb	3	1	main_slash	7	main_slash	55	stimuli_distractor_diamondtriangles.svg	stimuli_target_diamondsquares.svg	32	yes	53	1	707	0	0			0	0			1				0	
6.6.1	win	2023-06-28	07:20:52	07:30:37	579840	5f3bd56999a44d9324b76ddb	3	1	main_slash	7	advance_on_keypress_SLASH	56	stimuli_distractor_diamondtriangles.svg	stimuli_target_diamondsquares.svg	32	yes	57	0	698	0	0			0	0			1				0	
6.6.1	win	2023-06-28	07:20:52	07:30:41	583182	5f3bd56999a44d9324b76ddb	3	1	main_slash	7	main_slash	57	stimuli_distractor_trianglediamonds.svg	stimuli_target_squarediamonds.svg	12	yes	0	0	2000	0	0			0	0			1				0	
6.6.1	win	2023-06-28	07:20:52	07:30:41	583182	5f3bd56999a44d9324b76ddb	3	1	main_slash	7	advance_on_keypress_SLASH	58	stimuli_distractor_trianglediamonds.svg	stimuli_target_squarediamonds.svg	12	yes	57	0	264	0	0			0	0			1				0	
6.6.1	win	2023-06-28	07:20:52	07:30:43	586098	5f3bd56999a44d9324b76ddb	3	1	main_slash	7	main_slash	59	stimuli_distractor_diamondtriangles.svg	stimuli_target_rectangletriangles.svg	13	yes	0	0	2000	0	0			0	0			1				0	
6.6.1	win	2023-06-28	07:20:52	07:30:43	586098	5f3bd56999a44d9324b76ddb	3	1	main_slash	7	advance_on_keypress_SLASH	60	stimuli_distractor_diamondtriangles.svg	stimuli_target_rectangletriangles.svg	13	yes	57	0	281	0	0			0	0			1				0	
6.6.1	win	2023-06-28	07:20:52	07:30:45	587758	5f3bd56999a44d9324b76ddb	3	1	main_slash	7	main_slash	61	stimuli_distractor_diamondtriangles.svg	stimuli_target_diamondrectangles.svg	31	yes	53	1	726	0	0			0	0			1				0	
6.6.1	win	2023-06-28	07:20:52	07:30:45	587758	5f3bd56999a44d9324b76ddb	3	1	main_slash	7	advance_on_keypress_SLASH	62	stimuli_distractor_diamondtriangles.svg	stimuli_target_diamondrectangles.svg	31	yes	57	0	706	0	0			0	0			1				0	
6.6.1	win	2023-06-28	07:20:52	07:30:47	590019	5f3bd56999a44d9324b76ddb	3	1	main_slash	7	main_slash	63	stimuli_target_diamondsquares.svg	stimuli_distractor_diamondtriangles.svg	24	yes	53	1	921	0	0			0	0			1				0	
6.6.1	win	2023-06-28	07:20:52	07:30:47	590019	5f3bd56999a44d9324b76ddb	3	1	main_slash	7	advance_on_keypress_SLASH	64	stimuli_target_diamondsquares.svg	stimuli_distractor_diamondtriangles.svg	24	yes	57	0	550	0	0			0	0			1				0	
6.6.1	win	2023-06-28	07:20:52	07:30:50	592438	5f3bd56999a44d9324b76ddb	3	1	main_slash	7	main_slash	65	stimuli_distractor_trianglediamonds.svg	stimuli_target_rectanglediamonds.svg	10	yes	53	1	1223	0	0			0	0			1				0	
6.6.1	win	2023-06-28	07:20:52	07:30:50	592438	5f3bd56999a44d9324b76ddb	3	1	main_slash	7	advance_on_keypress_SLASH	66	stimuli_distractor_trianglediamonds.svg	stimuli_target_rectanglediamonds.svg	10	yes	57	0	488	0	0			0	0			1				0	
6.6.1	win	2023-06-28	07:20:52	07:30:52	594242	5f3bd56999a44d9324b76ddb	3	1	main_slash	7	main_slash	67	stimuli_target_trianglesquares.svg	stimuli_distractor_trianglediamonds.svg	18	yes	53	1	677	0	0			0	0			1				0	
6.6.1	win	2023-06-28	07:20:52	07:30:52	594242	5f3bd56999a44d9324b76ddb	3	1	main_slash	7	advance_on_keypress_SLASH	68	stimuli_target_trianglesquares.svg	stimuli_distractor_trianglediamonds.svg	18	yes	57	0	421	0	0			0	0			1				0	
6.6.1	win	2023-06-28	07:20:52	07:30:53	595950	5f3bd56999a44d9324b76ddb	3	1	main_slash	7	main_slash	69	stimuli_distractor_diamondtriangles.svg	stimuli_target_trianglesquares.svg	30	yes	53	1	651	0	0			0	0			1				0	
6.6.1	win	2023-06-28	07:20:52	07:30:53	595950	5f3bd56999a44d9324b76ddb	3	1	main_slash	7	advance_on_keypress_SLASH	70	stimuli_distractor_diamondtriangles.svg	stimuli_target_trianglesquares.svg	30	yes	57	0	469	0	0			0	0			1				0	
6.6.1	win	2023-06-28	07:20:52	07:30:55	597709	5f3bd56999a44d9324b76ddb	3	1	main_slash	7	main_slash	71	stimuli_target_trianglerectangles.svg	stimuli_distractor_trianglediamonds.svg	17	yes	53	1	645	0	0			0	0			1				0	
6.6.1	win	2023-06-28	07:20:52	07:30:55	597709	5f3bd56999a44d9324b76ddb	3	1	main_slash	7	advance_on_keypress_SLASH	72	stimuli_target_trianglerectangles.svg	stimuli_distractor_trianglediamonds.svg	17	yes	57	0	543	0	0			0	0			1				0	
6.6.1	win	2023-06-28	07:20:52	07:30:58	600881	5f3bd56999a44d9324b76ddb	3	1	main_slash	7	main_slash	73	stimuli_target_squaretriangles.svg	stimuli_distractor_diamondtriangles.svg	7	yes	0	0	2000	0	0			0	0			1				0	
6.6.1	win	2023-06-28	07:20:52	07:30:58	600881	5f3bd56999a44d9324b76ddb	3	1	main_slash	7	advance_on_keypress_SLASH	74	stimuli_target_squaretriangles.svg	stimuli_distractor_diamondtriangles.svg	7	yes	57	0	294	0	0			0	0			1				0	
6.6.1	win	2023-06-28	07:20:52	07:31:01	603815	5f3bd56999a44d9324b76ddb	3	1	main_slash	7	main_slash	75	stimuli_distractor_diamondtriangles.svg	stimuli_distractor_diamondtriangles.svg	40	no	0	1	2000	0	0			0	0			1				0	
6.6.1	win	2023-06-28	07:20:52	07:31:01	603815	5f3bd56999a44d9324b76ddb	3	1	main_slash	7	advance_on_keypress_SLASH	76	stimuli_distractor_diamondtriangles.svg	stimuli_distractor_diamondtriangles.svg	40	no	57	0	146	0	0			0	0			1				0	
6.6.1	win	2023-06-28	07:20:52	07:31:03	605352	5f3bd56999a44d9324b76ddb	3	1	main_slash	7	main_slash	77	stimuli_target_diamondrectangles.svg	stimuli_distractor_diamondtriangles.svg	23	yes	53	1	754	0	0			0	0			1				0	
6.6.1	win	2023-06-28	07:20:52	07:31:03	605352	5f3bd56999a44d9324b76ddb	3	1	main_slash	7	advance_on_keypress_SLASH	78	stimuli_target_diamondrectangles.svg	stimuli_distractor_diamondtriangles.svg	23	yes	57	0	523	0	0			0	0			1				0	
6.6.1	win	2023-06-28	07:20:52	07:31:05	607395	5f3bd56999a44d9324b76ddb	3	1	main_slash	7	main_slash	79	stimuli_distractor_diamondtriangles.svg	stimuli_target_rectanglediamonds.svg	14	yes	53	1	881	0	0			0	0			1				0	
6.6.1	win	2023-06-28	07:20:52	07:31:05	607395	5f3bd56999a44d9324b76ddb	3	1	main_slash	7	advance_on_keypress_SLASH	80	stimuli_distractor_diamondtriangles.svg	stimuli_target_rectanglediamonds.svg	14	yes	57	0	522	0	0			0	0			1				0	
6.6.1	win	2023-06-28	07:20:52	07:31:08	610564	5f3bd56999a44d9324b76ddb	3	1	main_slash	7	main_slash	81	stimuli_distractor_diamondtriangles.svg	stimuli_target_squaretriangles.svg	15	yes	0	0	2000	0	0			0	0			1				0	
6.6.1	win	2023-06-28	07:20:52	07:31:08	610564	5f3bd56999a44d9324b76ddb	3	1	main_slash	7	advance_on_keypress_SLASH	82	stimuli_distractor_diamondtriangles.svg	stimuli_target_squaretriangles.svg	15	yes	57	0	250	0	0			0	0			1				0	
6.6.1	win	2023-06-28	07:20:52	07:31:09	612136	5f3bd56999a44d9324b76ddb	3	1	main_slash	7	main_slash	83	stimuli_distractor_trianglediamonds.svg	stimuli_target_diamondsquares.svg	28	yes	53	1	672	0	0			0	0			1				0	
6.6.1	win	2023-06-28	07:20:52	07:31:09	612136	5f3bd56999a44d9324b76ddb	3	1	main_slash	7	advance_on_keypress_SLASH	84	stimuli_distractor_trianglediamonds.svg	stimuli_target_diamondsquares.svg	28	yes	57	0	696	0	0			0	0			1				0	
6.6.1	win	2023-06-28	07:20:52	07:31:12	614268	5f3bd56999a44d9324b76ddb	3	1	main_slash	7	main_slash	85	stimuli_target_rectanglediamonds.svg	stimuli_distractor_diamondtriangles.svg	6	yes	53	1	804	0	0			0	0			1				0	
6.6.1	win	2023-06-28	07:20:52	07:31:12	614268	5f3bd56999a44d9324b76ddb	3	1	main_slash	7	advance_on_keypress_SLASH	86	stimuli_target_rectanglediamonds.svg	stimuli_distractor_diamondtriangles.svg	6	yes	57	0	570	0	0			0	0			1				0	
6.6.1	win	2023-06-28	07:20:52	07:31:13	616102	5f3bd56999a44d9324b76ddb	3	1	main_slash	7	main_slash	87	stimuli_target_trianglerectangles.svg	stimuli_distractor_diamondtriangles.svg	21	yes	53	1	621	0	0			0	0			1				0	
6.6.1	win	2023-06-28	07:20:52	07:31:13	616102	5f3bd56999a44d9324b76ddb	3	1	main_slash	7	advance_on_keypress_SLASH	88	stimuli_target_trianglerectangles.svg	stimuli_distractor_diamondtriangles.svg	21	yes	57	0	486	0	0			0	0			1				0	
6.6.1	win	2023-06-28	07:20:52	07:31:17	619230	5f3bd56999a44d9324b76ddb	3	1	main_slash	7	main_slash	89	stimuli_target_squarediamonds.svg	stimuli_distractor_diamondtriangles.svg	8	yes	0	0	2000	0	0			0	0			1				0	
6.6.1	win	2023-06-28	07:20:52	07:31:17	619230	5f3bd56999a44d9324b76ddb	3	1	main_slash	7	advance_on_keypress_SLASH	90	stimuli_target_squarediamonds.svg	stimuli_distractor_diamondtriangles.svg	8	yes	57	0	200	0	0			0	0			1				0	
6.6.1	win	2023-06-28	07:20:52	07:31:19	622081	5f3bd56999a44d9324b76ddb	3	1	main_slash	7	main_slash	91	stimuli_distractor_trianglediamonds.svg	stimuli_distractor_diamondtriangles.svg	36	no	0	1	2000	0	0			0	0			1				0	
6.6.1	win	2023-06-28	07:20:52	07:31:19	622081	5f3bd56999a44d9324b76ddb	3	1	main_slash	7	advance_on_keypress_SLASH	92	stimuli_distractor_trianglediamonds.svg	stimuli_distractor_diamondtriangles.svg	36	no	57	0	258	0	0			0	0			1				0	
6.6.1	win	2023-06-28	07:20:52	07:31:22	624529	5f3bd56999a44d9324b76ddb	3	1	main_slash	7	main_slash	93	stimuli_distractor_trianglediamonds.svg	stimuli_distractor_trianglediamonds.svg	34	no	53	0	1549	0	0			0	0			1				0	
6.6.1	win	2023-06-28	07:20:52	07:31:22	624529	5f3bd56999a44d9324b76ddb	3	1	main_slash	7	advance_on_keypress_SLASH	94	stimuli_distractor_trianglediamonds.svg	stimuli_distractor_trianglediamonds.svg	34	no	57	0	579	0	0			0	0			1				0	
6.6.1	win	2023-06-28	07:20:52	07:31:24	626863	5f3bd56999a44d9324b76ddb	3	1	main_slash	7	main_slash	95	stimuli_target_squaretriangles.svg	stimuli_distractor_trianglediamonds.svg	3	yes	53	1	1114	0	0			0	0			1				0	
6.6.1	win	2023-06-28	07:20:52	07:31:24	626863	5f3bd56999a44d9324b76ddb	3	1	main_slash	7	advance_on_keypress_SLASH	96	stimuli_target_squaretriangles.svg	stimuli_distractor_trianglediamonds.svg	3	yes	57	0	564	0	0			0	0			1				0	
6.6.1	win	2023-06-28	07:20:52	07:31:26	628725	5f3bd56999a44d9324b76ddb	3	1	main_slash	7	main_slash	97	stimuli_target_diamondrectangles.svg	stimuli_distractor_trianglediamonds.svg	19	yes	53	1	646	0	0			0	0			1				0	
6.6.1	win	2023-06-28	07:20:52	07:31:26	628725	5f3bd56999a44d9324b76ddb	3	1	main_slash	7	advance_on_keypress_SLASH	98	stimuli_target_diamondrectangles.svg	stimuli_distractor_trianglediamonds.svg	19	yes	57	0	417	0	0			0	0			1				0	
6.6.1	win	2023-06-28	07:20:52	07:31:28	630412	5f3bd56999a44d9324b76ddb	3	1	main_slash	7	main_slash	99	stimuli_distractor_trianglediamonds.svg	stimuli_target_diamondrectangles.svg	27	yes	53	1	632	0	0			0	0			1				0	
6.6.1	win	2023-06-28	07:20:52	07:31:28	630412	5f3bd56999a44d9324b76ddb	3	1	main_slash	7	advance_on_keypress_SLASH	100	stimuli_distractor_trianglediamonds.svg	stimuli_target_diamondrectangles.svg	27	yes	57	0	400	0	0			0	0			1				0	
6.6.1	win	2023-06-28	07:20:52	07:31:31	633464	5f3bd56999a44d9324b76ddb	3	1	main_slash	7	main_slash	101	stimuli_target_squaretriangles.svg	stimuli_distractor_diamondtriangles.svg	7	yes	0	0	2000	0	0			0	0			1				0	
6.6.1	win	2023-06-28	07:20:52	07:31:31	633464	5f3bd56999a44d9324b76ddb	3	1	main_slash	7	advance_on_keypress_SLASH	102	stimuli_target_squaretriangles.svg	stimuli_distractor_diamondtriangles.svg	7	yes	57	0	696	0	0			0	0			1				0	
6.6.1	win	2023-06-28	07:20:52	07:31:33	635523	5f3bd56999a44d9324b76ddb	3	1	main_slash	7	main_slash	103	stimuli_target_squarediamonds.svg	stimuli_distractor_trianglediamonds.svg	4	yes	53	1	726	0	0			0	0			1				0	
6.6.1	win	2023-06-28	07:20:52	07:31:33	635523	5f3bd56999a44d9324b76ddb	3	1	main_slash	7	advance_on_keypress_SLASH	104	stimuli_target_squarediamonds.svg	stimuli_distractor_trianglediamonds.svg	4	yes	57	0	971	0	0			0	0			1				0	
6.6.1	win	2023-06-28	07:20:52	07:31:35	637764	5f3bd56999a44d9324b76ddb	3	1	main_slash	7	main_slash	105	stimuli_target_diamondsquares.svg	stimuli_distractor_diamondtriangles.svg	24	yes	53	1	634	0	0			0	0			1				0	
6.6.1	win	2023-06-28	07:20:52	07:31:35	637764	5f3bd56999a44d9324b76ddb	3	1	main_slash	7	advance_on_keypress_SLASH	106	stimuli_target_diamondsquares.svg	stimuli_distractor_diamondtriangles.svg	24	yes	57	0	519	0	0			0	0			1				0	
6.6.1	win	2023-06-28	07:20:52	07:31:37	639579	5f3bd56999a44d9324b76ddb	3	1	main_slash	7	main_slash	107	stimuli_distractor_diamondtriangles.svg	stimuli_target_trianglerectangles.svg	29	yes	53	1	649	0	0			0	0			1				0	
6.6.1	win	2023-06-28	07:20:52	07:31:37	639579	5f3bd56999a44d9324b76ddb	3	1	main_slash	7	advance_on_keypress_SLASH	108	stimuli_distractor_diamondtriangles.svg	stimuli_target_trianglerectangles.svg	29	yes	57	0	506	0	0			0	0			1				0	
6.6.1	win	2023-06-28	07:20:52	07:31:39	641272	5f3bd56999a44d9324b76ddb	3	1	main_slash	7	main_slash	109	stimuli_target_trianglesquares.svg	stimuli_distractor_trianglediamonds.svg	18	yes	53	1	542	0	0			0	0			1				0	
6.6.1	win	2023-06-28	07:20:52	07:31:39	641272	5f3bd56999a44d9324b76ddb	3	1	main_slash	7	advance_on_keypress_SLASH	110	stimuli_target_trianglesquares.svg	stimuli_distractor_trianglediamonds.svg	18	yes	57	0	387	0	0			0	0			1				0	
6.6.1	win	2023-06-28	07:20:52	07:31:40	642982	5f3bd56999a44d9324b76ddb	3	1	main_slash	7	main_slash	111	stimuli_target_diamondrectangles.svg	stimuli_distractor_diamondtriangles.svg	23	yes	53	1	683	0	0			0	0			1				0	
6.6.1	win	2023-06-28	07:20:52	07:31:40	642982	5f3bd56999a44d9324b76ddb	3	1	main_slash	7	advance_on_keypress_SLASH	112	stimuli_target_diamondrectangles.svg	stimuli_distractor_diamondtriangles.svg	23	yes	57	0	467	0	0			0	0			1				0	
6.6.1	win	2023-06-28	07:20:52	07:31:42	644673	5f3bd56999a44d9324b76ddb	3	1	main_slash	7	main_slash	113	stimuli_distractor_diamondtriangles.svg	stimuli_target_diamondrectangles.svg	31	yes	53	1	576	0	0			0	0			1				0	
6.6.1	win	2023-06-28	07:20:52	07:31:42	644673	5f3bd56999a44d9324b76ddb	3	1	main_slash	7	advance_on_keypress_SLASH	114	stimuli_distractor_diamondtriangles.svg	stimuli_target_diamondrectangles.svg	31	yes	57	0	417	0	0			0	0			1				0	
6.6.1	win	2023-06-28	07:20:52	07:31:44	646527	5f3bd56999a44d9324b76ddb	3	1	main_slash	7	main_slash	115	stimuli_distractor_trianglediamonds.svg	stimuli_target_rectanglediamonds.svg	10	yes	53	1	797	0	0			0	0			1				0	
6.6.1	win	2023-06-28	07:20:52	07:31:44	646527	5f3bd56999a44d9324b76ddb	3	1	main_slash	7	advance_on_keypress_SLASH	116	stimuli_distractor_trianglediamonds.svg	stimuli_target_rectanglediamonds.svg	10	yes	57	0	1246	0	0			0	0			1				0	
6.6.1	win	2023-06-28	07:20:52	07:31:48	650430	5f3bd56999a44d9324b76ddb	3	1	main_slash	7	main_slash	117	stimuli_distractor_diamondtriangles.svg	stimuli_distractor_diamondtriangles.svg	39	no	0	1	2000	0	0			0	0			1				0	
6.6.1	win	2023-06-28	07:20:52	07:31:48	650430	5f3bd56999a44d9324b76ddb	3	1	main_slash	7	advance_on_keypress_SLASH	118	stimuli_distractor_diamondtriangles.svg	stimuli_distractor_diamondtriangles.svg	39	no	57	0	612	0	0			0	0			1				0	
6.6.1	win	2023-06-28	07:20:52	07:31:50	652346	5f3bd56999a44d9324b76ddb	3	1	main_slash	7	main_slash	119	stimuli_distractor_trianglediamonds.svg	stimuli_target_trianglerectangles.svg	25	yes	53	1	668	0	0			0	0			1				0	
6.6.1	win	2023-06-28	07:20:52	07:31:50	652346	5f3bd56999a44d9324b76ddb	3	1	main_slash	7	advance_on_keypress_SLASH	120	stimuli_distractor_trianglediamonds.svg	stimuli_target_trianglerectangles.svg	25	yes	57	0	785	0	0			0	0			1				0	
6.6.1	win	2023-06-28	07:20:52	07:31:52	654606	5f3bd56999a44d9324b76ddb	3	1	main_slash	7	main_slash	121	stimuli_target_rectanglediamonds.svg	stimuli_distractor_trianglediamonds.svg	2	yes	53	1	826	0	0			0	0			1				0	
6.6.1	win	2023-06-28	07:20:52	07:31:52	654606	5f3bd56999a44d9324b76ddb	3	1	main_slash	7	advance_on_keypress_SLASH	122	stimuli_target_rectanglediamonds.svg	stimuli_distractor_trianglediamonds.svg	2	yes	57	0	437	0	0			0	0			1				0	
6.6.1	win	2023-06-28	07:20:52	07:31:55	657681	5f3bd56999a44d9324b76ddb	3	1	main_slash	7	main_slash	123	stimuli_distractor_trianglediamonds.svg	stimuli_target_squarediamonds.svg	12	yes	0	0	2000	0	0			0	0			1				0	
6.6.1	win	2023-06-28	07:20:52	07:31:55	657681	5f3bd56999a44d9324b76ddb	3	1	main_slash	7	advance_on_keypress_SLASH	124	stimuli_distractor_trianglediamonds.svg	stimuli_target_squarediamonds.svg	12	yes	57	0	352	0	0			0	0			1				0	
6.6.1	win	2023-06-28	07:20:52	07:31:58	660680	5f3bd56999a44d9324b76ddb	3	1	main_slash	7	main_slash	125	stimuli_target_rectangletriangles.svg	stimuli_distractor_trianglediamonds.svg	1	yes	0	0	2000	0	0			0	0			1				0	
6.6.1	win	2023-06-28	07:20:52	07:31:58	660680	5f3bd56999a44d9324b76ddb	3	1	main_slash	7	advance_on_keypress_SLASH	126	stimuli_target_rectangletriangles.svg	stimuli_distractor_trianglediamonds.svg	1	yes	57	0	172	0	0			0	0			1				0	
6.6.1	win	2023-06-28	07:20:52	07:32:00	662185	5f3bd56999a44d9324b76ddb	3	1	main_slash	7	main_slash	127	stimuli_distractor_diamondtriangles.svg	stimuli_target_trianglesquares.svg	30	yes	53	1	689	0	0			0	0			1				0	
6.6.1	win	2023-06-28	07:20:52	07:32:00	662185	5f3bd56999a44d9324b76ddb	3	1	main_slash	7	advance_on_keypress_SLASH	128	stimuli_distractor_diamondtriangles.svg	stimuli_target_trianglesquares.svg	30	yes	57	0	572	0	0			0	0			1				0	
6.6.1	win	2023-06-28	07:20:52	07:32:02	664511	5f3bd56999a44d9324b76ddb	3	1	main_slash	7	main_slash	129	stimuli_distractor_trianglediamonds.svg	stimuli_target_rectangletriangles.svg	9	yes	53	1	1115	0	0			0	0			1				0	
6.6.1	win	2023-06-28	07:20:52	07:32:02	664511	5f3bd56999a44d9324b76ddb	3	1	main_slash	7	advance_on_keypress_SLASH	130	stimuli_distractor_trianglediamonds.svg	stimuli_target_rectangletriangles.svg	9	yes	57	0	688	0	0			0	0			1				0	
6.6.1	win	2023-06-28	07:20:52	07:32:04	666433	5f3bd56999a44d9324b76ddb	3	1	main_slash	7	main_slash	131	stimuli_target_trianglesquares.svg	stimuli_distractor_diamondtriangles.svg	22	yes	53	1	587	0	0			0	0			1				0	
6.6.1	win	2023-06-28	07:20:52	07:32:04	666433	5f3bd56999a44d9324b76ddb	3	1	main_slash	7	advance_on_keypress_SLASH	132	stimuli_target_trianglesquares.svg	stimuli_distractor_diamondtriangles.svg	22	yes	57	0	1770	0	0			0	0			1				0	
6.6.1	win	2023-06-28	07:20:52	07:32:07	669896	5f3bd56999a44d9324b76ddb	3	1	main_slash	7	main_slash	133	stimuli_distractor_trianglediamonds.svg	stimuli_target_squaretriangles.svg	11	yes	53	1	1048	0	0			0	0			1				0	
6.6.1	win	2023-06-28	07:20:52	07:32:07	669896	5f3bd56999a44d9324b76ddb	3	1	main_slash	7	advance_on_keypress_SLASH	134	stimuli_distractor_trianglediamonds.svg	stimuli_target_squaretriangles.svg	11	yes	57	0	2162	0	0			0	0			1				0	
6.6.1	win	2023-06-28	07:20:52	07:32:11	673769	5f3bd56999a44d9324b76ddb	3	1	main_slash	7	main_slash	135	stimuli_distractor_diamondtriangles.svg	stimuli_distractor_trianglediamonds.svg	38	no	53	0	1056	0	0			0	0			1				0	
6.6.1	win	2023-06-28	07:20:52	07:32:11	673769	5f3bd56999a44d9324b76ddb	3	1	main_slash	7	advance_on_keypress_SLASH	136	stimuli_distractor_diamondtriangles.svg	stimuli_distractor_trianglediamonds.svg	38	no	57	0	2499	0	0			0	0			1				0	
6.6.1	win	2023-06-28	07:20:52	07:32:15	677559	5f3bd56999a44d9324b76ddb	3	1	main_slash	7	main_slash	137	stimuli_target_trianglerectangles.svg	stimuli_distractor_trianglediamonds.svg	17	yes	53	1	647	0	0			0	0			1				0	
6.6.1	win	2023-06-28	07:20:52	07:32:15	677559	5f3bd56999a44d9324b76ddb	3	1	main_slash	7	advance_on_keypress_SLASH	138	stimuli_target_trianglerectangles.svg	stimuli_distractor_trianglediamonds.svg	17	yes	57	0	2564	0	0			0	0			1				0	
6.6.1	win	2023-06-28	07:20:52	07:32:19	681483	5f3bd56999a44d9324b76ddb	3	1	main_slash	7	main_slash	139	stimuli_target_diamondsquares.svg	stimuli_distractor_trianglediamonds.svg	20	yes	53	1	704	0	0			0	0			1				0	
6.6.1	win	2023-06-28	07:20:52	07:32:19	681483	5f3bd56999a44d9324b76ddb	3	1	main_slash	7	advance_on_keypress_SLASH	140	stimuli_target_diamondsquares.svg	stimuli_distractor_trianglediamonds.svg	20	yes	57	0	502	0	0			0	0			1				0	
6.6.1	win	2023-06-28	07:20:52	07:32:21	683974	5f3bd56999a44d9324b76ddb	3	1	main_slash	7	main_slash	141	stimuli_distractor_diamondtriangles.svg	stimuli_target_squarediamonds.svg	16	yes	53	1	1344	0	0			0	0			1				0	
6.6.1	win	2023-06-28	07:20:52	07:32:21	683974	5f3bd56999a44d9324b76ddb	3	1	main_slash	7	advance_on_keypress_SLASH	142	stimuli_distractor_diamondtriangles.svg	stimuli_target_squarediamonds.svg	16	yes	57	0	554	0	0			0	0			1				0	
6.6.1	win	2023-06-28	07:20:52	07:32:25	687162	5f3bd56999a44d9324b76ddb	3	1	main_slash	7	main_slash	143	stimuli_target_rectangletriangles.svg	stimuli_distractor_diamondtriangles.svg	5	yes	0	0	2000	0	0			0	0			1				0	
6.6.1	win	2023-06-28	07:20:52	07:32:25	687162	5f3bd56999a44d9324b76ddb	3	1	main_slash	7	advance_on_keypress_SLASH	144	stimuli_target_rectangletriangles.svg	stimuli_distractor_diamondtriangles.svg	5	yes	57	0	414	0	0			0	0			1				0	
6.6.1	win	2023-06-28	07:20:52	07:32:26	688924	5f3bd56999a44d9324b76ddb	3	1	main_slash	7	main_slash	145	stimuli_distractor_diamondtriangles.svg	stimuli_target_diamondsquares.svg	32	yes	53	1	694	0	0			0	0			1				0	
6.6.1	win	2023-06-28	07:20:52	07:32:26	688924	5f3bd56999a44d9324b76ddb	3	1	main_slash	7	advance_on_keypress_SLASH	146	stimuli_distractor_diamondtriangles.svg	stimuli_target_diamondsquares.svg	32	yes	57	0	562	0	0			0	0			1				0	
6.6.1	win	2023-06-28	07:20:52	07:32:29	692113	5f3bd56999a44d9324b76ddb	3	1	main_slash	7	main_slash	147	stimuli_distractor_diamondtriangles.svg	stimuli_distractor_trianglediamonds.svg	37	no	0	1	2000	0	0			0	0			1				0	
6.6.1	win	2023-06-28	07:20:52	07:32:29	692113	5f3bd56999a44d9324b76ddb	3	1	main_slash	7	advance_on_keypress_SLASH	148	stimuli_distractor_diamondtriangles.svg	stimuli_distractor_trianglediamonds.svg	37	no	57	0	396	0	0			0	0			1				0	
6.6.1	win	2023-06-28	07:20:52	07:32:33	695145	5f3bd56999a44d9324b76ddb	3	1	main_slash	7	main_slash	149	stimuli_distractor_trianglediamonds.svg	stimuli_distractor_trianglediamonds.svg	33	no	0	1	2000	0	0			0	0			1				0	
6.6.1	win	2023-06-28	07:20:52	07:32:33	695145	5f3bd56999a44d9324b76ddb	3	1	main_slash	7	advance_on_keypress_SLASH	150	stimuli_distractor_trianglediamonds.svg	stimuli_distractor_trianglediamonds.svg	33	no	57	0	414	0	0			0	0			1				0	
6.6.1	win	2023-06-28	07:20:52	07:32:36	698212	5f3bd56999a44d9324b76ddb	3	1	main_slash	7	main_slash	151	stimuli_distractor_trianglediamonds.svg	stimuli_distractor_diamondtriangles.svg	35	no	0	1	2000	0	0			0	0			1				0	
6.6.1	win	2023-06-28	07:20:52	07:32:36	698212	5f3bd56999a44d9324b76ddb	3	1	main_slash	7	advance_on_keypress_SLASH	152	stimuli_distractor_trianglediamonds.svg	stimuli_distractor_diamondtriangles.svg	35	no	57	0	556	0	0			0	0			1				0	
6.6.1	win	2023-06-28	07:20:52	07:32:37	700010	5f3bd56999a44d9324b76ddb	3	1	main_slash	7	main_slash	153	stimuli_distractor_trianglediamonds.svg	stimuli_target_trianglesquares.svg	26	yes	53	1	597	0	0			0	0			1				0	
6.6.1	win	2023-06-28	07:20:52	07:32:37	700010	5f3bd56999a44d9324b76ddb	3	1	main_slash	7	advance_on_keypress_SLASH	154	stimuli_distractor_trianglediamonds.svg	stimuli_target_trianglesquares.svg	26	yes	57	0	954	0	0			0	0			1				0	
6.6.1	win	2023-06-28	07:20:52	07:32:41	703613	5f3bd56999a44d9324b76ddb	3	1	main_slash	7	main_slash	155	stimuli_distractor_diamondtriangles.svg	stimuli_target_rectanglediamonds.svg	14	yes	0	0	2000	0	0			0	0			1				0	
6.6.1	win	2023-06-28	07:20:52	07:32:41	703613	5f3bd56999a44d9324b76ddb	3	1	main_slash	7	advance_on_keypress_SLASH	156	stimuli_distractor_diamondtriangles.svg	stimuli_target_rectanglediamonds.svg	14	yes	57	0	295	0	0			0	0			1				0	
6.6.1	win	2023-06-28	07:20:52	07:32:44	706545	5f3bd56999a44d9324b76ddb	3	1	main_slash	7	main_slash	157	stimuli_distractor_diamondtriangles.svg	stimuli_target_rectangletriangles.svg	13	yes	0	0	2000	0	0			0	0			1				0	
6.6.1	win	2023-06-28	07:20:52	07:32:44	706545	5f3bd56999a44d9324b76ddb	3	1	main_slash	7	advance_on_keypress_SLASH	158	stimuli_distractor_diamondtriangles.svg	stimuli_target_rectangletriangles.svg	13	yes	57	0	268	0	0			0	0			1				0	
6.6.1	win	2023-06-28	07:20:52	07:32:47	709462	5f3bd56999a44d9324b76ddb	3	1	main_slash	7	main_slash	159	stimuli_distractor_diamondtriangles.svg	stimuli_distractor_diamondtriangles.svg	40	no	0	1	2000	0	0			0	0			1				0	
6.6.1	win	2023-06-28	07:20:52	07:32:47	709462	5f3bd56999a44d9324b76ddb	3	1	main_slash	7	advance_on_keypress_SLASH	160	stimuli_distractor_diamondtriangles.svg	stimuli_distractor_diamondtriangles.svg	40	no	57	0	255	0	0			0	0			1				0	
6.6.1	win	2023-06-28	07:20:52	07:33:13	735145	5f3bd56999a44d9324b76ddb	3	1	practice_z	9	practice_z	1	stimuli_distractor_diamondtriangles.svg	stimuli_target_diamondrectangles.svg	8	yes	44	1	864	0	0			0	0			1				0	
6.6.1	win	2023-06-28	07:20:52	07:33:13	735145	5f3bd56999a44d9324b76ddb	3	1	practice_z	9	advance_on_keypress_ZEE	2	stimuli_distractor_diamondtriangles.svg	stimuli_target_diamondrectangles.svg	8	yes	57	0	570	0	0			0	0			1				0	
6.6.1	win	2023-06-28	07:20:52	07:33:17	739363	5f3bd56999a44d9324b76ddb	3	1	practice_z	9	practice_z	3	stimuli_distractor_trianglediamonds.svg	stimuli_distractor_trianglediamonds.svg	15	no	0	1	2000	0	0			0	0			1				0	
6.6.1	win	2023-06-28	07:20:52	07:33:17	739363	5f3bd56999a44d9324b76ddb	3	1	practice_z	9	advance_on_keypress_ZEE	4	stimuli_distractor_trianglediamonds.svg	stimuli_distractor_trianglediamonds.svg	15	no	57	0	525	0	0			0	0			1				0	
6.6.1	win	2023-06-28	07:20:52	07:33:21	743530	5f3bd56999a44d9324b76ddb	3	1	practice_z	9	practice_z	5	stimuli_target_squarediamonds.svg	stimuli_distractor_diamondtriangles.svg	2	yes	0	0	2000	0	0			0	0			1				0	
6.6.1	win	2023-06-28	07:20:52	07:33:21	743530	5f3bd56999a44d9324b76ddb	3	1	practice_z	9	advance_on_keypress_ZEE	6	stimuli_target_squarediamonds.svg	stimuli_distractor_diamondtriangles.svg	2	yes	57	0	461	0	0			0	0			1				0	
6.6.1	win	2023-06-28	07:20:52	07:33:24	746181	5f3bd56999a44d9324b76ddb	3	1	practice_z	9	practice_z	7	stimuli_target_diamondsquares.svg	stimuli_distractor_diamondtriangles.svg	3	yes	44	1	552	0	0			0	0			1				0	
6.6.1	win	2023-06-28	07:20:52	07:33:24	746181	5f3bd56999a44d9324b76ddb	3	1	practice_z	9	advance_on_keypress_ZEE	8	stimuli_target_diamondsquares.svg	stimuli_distractor_diamondtriangles.svg	3	yes	57	0	617	0	0			0	0			1				0	
6.6.1	win	2023-06-28	07:20:52	07:33:27	749676	5f3bd56999a44d9324b76ddb	3	1	practice_z	9	practice_z	9	stimuli_target_squarediamonds.svg	stimuli_distractor_trianglediamonds.svg	5	yes	44	1	1227	0	0			0	0			1				0	
6.6.1	win	2023-06-28	07:20:52	07:33:27	749676	5f3bd56999a44d9324b76ddb	3	1	practice_z	9	advance_on_keypress_ZEE	10	stimuli_target_squarediamonds.svg	stimuli_distractor_trianglediamonds.svg	5	yes	57	0	518	0	0			0	0			1				0	
6.6.1	win	2023-06-28	07:20:52	07:33:31	753847	5f3bd56999a44d9324b76ddb	3	1	practice_z	9	practice_z	11	stimuli_distractor_diamondtriangles.svg	stimuli_target_rectangletriangles.svg	7	yes	0	0	2000	0	0			0	0			1				0	
6.6.1	win	2023-06-28	07:20:52	07:33:31	753847	5f3bd56999a44d9324b76ddb	3	1	practice_z	9	advance_on_keypress_ZEE	12	stimuli_distractor_diamondtriangles.svg	stimuli_target_rectangletriangles.svg	7	yes	57	0	950	0	0			0	0			1				0	
6.6.1	win	2023-06-28	07:20:52	07:33:35	757276	5f3bd56999a44d9324b76ddb	3	1	practice_z	9	practice_z	13	stimuli_target_rectanglediamonds.svg	stimuli_distractor_trianglediamonds.svg	4	yes	44	1	831	0	0			0	0			1				0	
6.6.1	win	2023-06-28	07:20:52	07:33:35	757276	5f3bd56999a44d9324b76ddb	3	1	practice_z	9	advance_on_keypress_ZEE	14	stimuli_target_rectanglediamonds.svg	stimuli_distractor_trianglediamonds.svg	4	yes	57	0	469	0	0			0	0			1				0	
6.6.1	win	2023-06-28	07:20:52	07:33:37	760124	5f3bd56999a44d9324b76ddb	3	1	practice_z	9	practice_z	15	stimuli_distractor_diamondtriangles.svg	stimuli_target_trianglerectangles.svg	9	yes	44	1	728	0	0			0	0			1				0	
6.6.1	win	2023-06-28	07:20:52	07:33:37	760124	5f3bd56999a44d9324b76ddb	3	1	practice_z	9	advance_on_keypress_ZEE	16	stimuli_distractor_diamondtriangles.svg	stimuli_target_trianglerectangles.svg	9	yes	57	0	471	0	0			0	0			1				0	
6.6.1	win	2023-06-28	07:20:52	07:33:42	764245	5f3bd56999a44d9324b76ddb	3	1	practice_z	9	practice_z	17	stimuli_distractor_diamondtriangles.svg	stimuli_distractor_diamondtriangles.svg	13	no	0	1	2000	0	0			0	0			1				0	
6.6.1	win	2023-06-28	07:20:52	07:33:42	764245	5f3bd56999a44d9324b76ddb	3	1	practice_z	9	advance_on_keypress_ZEE	18	stimuli_distractor_diamondtriangles.svg	stimuli_distractor_diamondtriangles.svg	13	no	57	0	486	0	0			0	0			1				0	
6.6.1	win	2023-06-28	07:20:52	07:33:44	767038	5f3bd56999a44d9324b76ddb	3	1	practice_z	9	practice_z	19	stimuli_distractor_trianglediamonds.svg	stimuli_target_diamondrectangles.svg	12	yes	44	1	659	0	0			0	0			1				0	
6.6.1	win	2023-06-28	07:20:52	07:33:44	767038	5f3bd56999a44d9324b76ddb	3	1	practice_z	9	advance_on_keypress_ZEE	20	stimuli_distractor_trianglediamonds.svg	stimuli_target_diamondrectangles.svg	12	yes	57	0	777	0	0			0	0			1				0	
6.6.1	win	2023-06-28	07:20:52	07:33:48	770561	5f3bd56999a44d9324b76ddb	3	1	practice_z	9	practice_z	21	stimuli_distractor_trianglediamonds.svg	stimuli_distractor_diamondtriangles.svg	16	no	44	0	1115	0	0			0	0			1				0	
6.6.1	win	2023-06-28	07:20:52	07:33:48	770561	5f3bd56999a44d9324b76ddb	3	1	practice_z	9	advance_on_keypress_ZEE	22	stimuli_distractor_trianglediamonds.svg	stimuli_distractor_diamondtriangles.svg	16	no	57	0	2075	0	0			0	0			1				0	
6.6.1	win	2023-06-28	07:20:52	07:33:54	776279	5f3bd56999a44d9324b76ddb	3	1	practice_z	9	practice_z	23	stimuli_distractor_trianglediamonds.svg	stimuli_target_squarediamonds.svg	11	yes	0	0	2000	0	0			0	0			1				0	
6.6.1	win	2023-06-28	07:20:52	07:33:54	776279	5f3bd56999a44d9324b76ddb	3	1	practice_z	9	advance_on_keypress_ZEE	24	stimuli_distractor_trianglediamonds.svg	stimuli_target_squarediamonds.svg	11	yes	57	0	568	0	0			0	0			1				0	
6.6.1	win	2023-06-28	07:20:52	07:33:57	779181	5f3bd56999a44d9324b76ddb	3	1	practice_z	9	practice_z	25	stimuli_target_rectanglediamonds.svg	stimuli_distractor_diamondtriangles.svg	1	yes	44	1	687	0	0			0	0			1				0	
6.6.1	win	2023-06-28	07:20:52	07:33:57	779181	5f3bd56999a44d9324b76ddb	3	1	practice_z	9	advance_on_keypress_ZEE	26	stimuli_target_rectanglediamonds.svg	stimuli_distractor_diamondtriangles.svg	1	yes	57	0	897	0	0			0	0			1				0	
6.6.1	win	2023-06-28	07:20:52	07:34:00	782774	5f3bd56999a44d9324b76ddb	3	1	practice_z	9	practice_z	27	stimuli_distractor_trianglediamonds.svg	stimuli_target_rectanglediamonds.svg	10	yes	44	1	1044	0	0			0	0			1				0	
6.6.1	win	2023-06-28	07:20:52	07:34:00	782774	5f3bd56999a44d9324b76ddb	3	1	practice_z	9	advance_on_keypress_ZEE	28	stimuli_distractor_trianglediamonds.svg	stimuli_target_rectanglediamonds.svg	10	yes	57	0	579	0	0			0	0			1				0	
6.6.1	win	2023-06-28	07:20:52	07:34:03	785814	5f3bd56999a44d9324b76ddb	3	1	practice_z	9	practice_z	29	stimuli_target_diamondsquares.svg	stimuli_distractor_trianglediamonds.svg	6	yes	44	1	803	0	0			0	0			1				0	
6.6.1	win	2023-06-28	07:20:52	07:34:03	785814	5f3bd56999a44d9324b76ddb	3	1	practice_z	9	advance_on_keypress_ZEE	30	stimuli_target_diamondsquares.svg	stimuli_distractor_trianglediamonds.svg	6	yes	57	0	543	0	0			0	0			1				0	
6.6.1	win	2023-06-28	07:20:52	07:34:07	789996	5f3bd56999a44d9324b76ddb	3	1	practice_z	9	practice_z	31	stimuli_distractor_diamondtriangles.svg	stimuli_distractor_trianglediamonds.svg	14	no	0	1	2000	0	0			0	0			1				0	
6.6.1	win	2023-06-28	07:20:52	07:34:07	789996	5f3bd56999a44d9324b76ddb	3	1	practice_z	9	advance_on_keypress_ZEE	32	stimuli_distractor_diamondtriangles.svg	stimuli_distractor_trianglediamonds.svg	14	no	57	0	441	0	0			0	0			1				0	
6.6.1	win	2023-06-28	07:20:52	07:34:13	795143	5f3bd56999a44d9324b76ddb	3	1	main_z	11	main_z	1	stimuli_distractor_trianglediamonds.svg	stimuli_target_trianglesquares.svg	26	yes	44	1	599	0	0			0	0			1				0	
6.6.1	win	2023-06-28	07:20:52	07:34:13	795143	5f3bd56999a44d9324b76ddb	3	1	main_z	11	advance_on_keypress_ZEE	2	stimuli_distractor_trianglediamonds.svg	stimuli_target_trianglesquares.svg	26	yes	57	0	927	0	0			0	0			1				0	
6.6.1	win	2023-06-28	07:20:52	07:34:15	797287	5f3bd56999a44d9324b76ddb	3	1	main_z	11	main_z	3	stimuli_target_trianglerectangles.svg	stimuli_distractor_trianglediamonds.svg	17	yes	44	1	578	0	0			0	0			1				0	
6.6.1	win	2023-06-28	07:20:52	07:34:15	797287	5f3bd56999a44d9324b76ddb	3	1	main_z	11	advance_on_keypress_ZEE	4	stimuli_target_trianglerectangles.svg	stimuli_distractor_trianglediamonds.svg	17	yes	57	0	642	0	0			0	0			1				0	
6.6.1	win	2023-06-28	07:20:52	07:34:18	800560	5f3bd56999a44d9324b76ddb	3	1	main_z	11	main_z	5	stimuli_distractor_diamondtriangles.svg	stimuli_distractor_diamondtriangles.svg	40	no	0	1	2000	0	0			0	0			1				0	
6.6.1	win	2023-06-28	07:20:52	07:34:18	800560	5f3bd56999a44d9324b76ddb	3	1	main_z	11	advance_on_keypress_ZEE	6	stimuli_distractor_diamondtriangles.svg	stimuli_distractor_diamondtriangles.svg	40	no	57	0	373	0	0			0	0			1				0	
6.6.1	win	2023-06-28	07:20:52	07:34:21	803576	5f3bd56999a44d9324b76ddb	3	1	main_z	11	main_z	7	stimuli_distractor_trianglediamonds.svg	stimuli_distractor_diamondtriangles.svg	35	no	0	1	2000	0	0			0	0			1				0	
6.6.1	win	2023-06-28	07:20:52	07:34:21	803576	5f3bd56999a44d9324b76ddb	3	1	main_z	11	advance_on_keypress_ZEE	8	stimuli_distractor_trianglediamonds.svg	stimuli_distractor_diamondtriangles.svg	35	no	57	0	252	0	0			0	0			1				0	
6.6.1	win	2023-06-28	07:20:52	07:34:22	805045	5f3bd56999a44d9324b76ddb	3	1	main_z	11	main_z	9	stimuli_distractor_diamondtriangles.svg	stimuli_target_trianglerectangles.svg	29	yes	44	1	569	0	0			0	0			1				0	
6.6.1	win	2023-06-28	07:20:52	07:34:22	805045	5f3bd56999a44d9324b76ddb	3	1	main_z	11	advance_on_keypress_ZEE	10	stimuli_distractor_diamondtriangles.svg	stimuli_target_trianglerectangles.svg	29	yes	57	0	486	0	0			0	0			1				0	
6.6.1	win	2023-06-28	07:20:52	07:34:25	807173	5f3bd56999a44d9324b76ddb	3	1	main_z	11	main_z	11	stimuli_distractor_diamondtriangles.svg	stimuli_target_rectanglediamonds.svg	14	yes	44	1	995	0	0			0	0			1				0	
6.6.1	win	2023-06-28	07:20:52	07:34:25	807173	5f3bd56999a44d9324b76ddb	3	1	main_z	11	advance_on_keypress_ZEE	12	stimuli_distractor_diamondtriangles.svg	stimuli_target_rectanglediamonds.svg	14	yes	57	0	413	0	0			0	0			1				0	
6.6.1	win	2023-06-28	07:20:52	07:34:26	809016	5f3bd56999a44d9324b76ddb	3	1	main_z	11	main_z	13	stimuli_distractor_trianglediamonds.svg	stimuli_target_squarediamonds.svg	12	yes	44	1	774	0	0			0	0			1				0	
6.6.1	win	2023-06-28	07:20:52	07:34:26	809016	5f3bd56999a44d9324b76ddb	3	1	main_z	11	advance_on_keypress_ZEE	14	stimuli_distractor_trianglediamonds.svg	stimuli_target_squarediamonds.svg	12	yes	57	0	434	0	0			0	0			1				0	
6.6.1	win	2023-06-28	07:20:52	07:34:28	810705	5f3bd56999a44d9324b76ddb	3	1	main_z	11	main_z	15	stimuli_distractor_diamondtriangles.svg	stimuli_target_diamondrectangles.svg	31	yes	44	1	613	0	0			0	0			1				0	
6.6.1	win	2023-06-28	07:20:52	07:34:28	810705	5f3bd56999a44d9324b76ddb	3	1	main_z	11	advance_on_keypress_ZEE	16	stimuli_distractor_diamondtriangles.svg	stimuli_target_diamondrectangles.svg	31	yes	57	0	435	0	0			0	0			1				0	
6.6.1	win	2023-06-28	07:20:52	07:34:31	813793	5f3bd56999a44d9324b76ddb	3	1	main_z	11	main_z	17	stimuli_distractor_diamondtriangles.svg	stimuli_distractor_trianglediamonds.svg	38	no	0	1	2000	0	0			0	0			1				0	
6.6.1	win	2023-06-28	07:20:52	07:34:31	813793	5f3bd56999a44d9324b76ddb	3	1	main_z	11	advance_on_keypress_ZEE	18	stimuli_distractor_diamondtriangles.svg	stimuli_distractor_trianglediamonds.svg	38	no	57	0	418	0	0			0	0			1				0	
6.6.1	win	2023-06-28	07:20:52	07:34:34	816859	5f3bd56999a44d9324b76ddb	3	1	main_z	11	main_z	19	stimuli_distractor_trianglediamonds.svg	stimuli_target_squaretriangles.svg	11	yes	0	0	2000	0	0			0	0			1				0	
6.6.1	win	2023-06-28	07:20:52	07:34:34	816859	5f3bd56999a44d9324b76ddb	3	1	main_z	11	advance_on_keypress_ZEE	20	stimuli_distractor_trianglediamonds.svg	stimuli_target_squaretriangles.svg	11	yes	57	0	280	0	0			0	0			1				0	
6.6.1	win	2023-06-28	07:20:52	07:34:36	818260	5f3bd56999a44d9324b76ddb	3	1	main_z	11	main_z	21	stimuli_distractor_trianglediamonds.svg	stimuli_target_diamondsquares.svg	28	yes	44	1	484	0	0			0	0			1				0	
6.6.1	win	2023-06-28	07:20:52	07:34:36	818260	5f3bd56999a44d9324b76ddb	3	1	main_z	11	advance_on_keypress_ZEE	22	stimuli_distractor_trianglediamonds.svg	stimuli_target_diamondsquares.svg	28	yes	57	0	563	0	0			0	0			1				0	
6.6.1	win	2023-06-28	07:20:52	07:34:37	820013	5f3bd56999a44d9324b76ddb	3	1	main_z	11	main_z	23	stimuli_target_trianglesquares.svg	stimuli_distractor_diamondtriangles.svg	22	yes	44	1	537	0	0			0	0			1				0	
6.6.1	win	2023-06-28	07:20:52	07:34:37	820013	5f3bd56999a44d9324b76ddb	3	1	main_z	11	advance_on_keypress_ZEE	24	stimuli_target_trianglesquares.svg	stimuli_distractor_diamondtriangles.svg	22	yes	57	0	482	0	0			0	0			1				0	
6.6.1	win	2023-06-28	07:20:52	07:34:39	821691	5f3bd56999a44d9324b76ddb	3	1	main_z	11	main_z	25	stimuli_distractor_trianglediamonds.svg	stimuli_target_trianglerectangles.svg	25	yes	44	1	548	0	0			0	0			1				0	
6.6.1	win	2023-06-28	07:20:52	07:34:39	821691	5f3bd56999a44d9324b76ddb	3	1	main_z	11	advance_on_keypress_ZEE	26	stimuli_distractor_trianglediamonds.svg	stimuli_target_trianglerectangles.svg	25	yes	57	0	451	0	0			0	0			1				0	
6.6.1	win	2023-06-28	07:20:52	07:34:42	824793	5f3bd56999a44d9324b76ddb	3	1	main_z	11	main_z	27	stimuli_distractor_trianglediamonds.svg	stimuli_distractor_trianglediamonds.svg	34	no	0	1	2000	0	0			0	0			1				0	
6.6.1	win	2023-06-28	07:20:52	07:34:42	824793	5f3bd56999a44d9324b76ddb	3	1	main_z	11	advance_on_keypress_ZEE	28	stimuli_distractor_trianglediamonds.svg	stimuli_distractor_trianglediamonds.svg	34	no	57	0	250	0	0			0	0			1				0	
6.6.1	win	2023-06-28	07:20:52	07:34:44	826505	5f3bd56999a44d9324b76ddb	3	1	main_z	11	main_z	29	stimuli_distractor_trianglediamonds.svg	stimuli_target_rectanglediamonds.svg	10	yes	44	1	813	0	0			0	0			1				0	
6.6.1	win	2023-06-28	07:20:52	07:34:44	826505	5f3bd56999a44d9324b76ddb	3	1	main_z	11	advance_on_keypress_ZEE	30	stimuli_distractor_trianglediamonds.svg	stimuli_target_rectanglediamonds.svg	10	yes	57	0	488	0	0			0	0			1				0	
6.6.1	win	2023-06-28	07:20:52	07:34:46	828229	5f3bd56999a44d9324b76ddb	3	1	main_z	11	main_z	31	stimuli_target_diamondrectangles.svg	stimuli_distractor_trianglediamonds.svg	19	yes	44	1	605	0	0			0	0			1				0	
6.6.1	win	2023-06-28	07:20:52	07:34:46	828229	5f3bd56999a44d9324b76ddb	3	1	main_z	11	advance_on_keypress_ZEE	32	stimuli_target_diamondrectangles.svg	stimuli_distractor_trianglediamonds.svg	19	yes	57	0	428	0	0			0	0			1				0	
6.6.1	win	2023-06-28	07:20:52	07:34:49	831292	5f3bd56999a44d9324b76ddb	3	1	main_z	11	main_z	33	stimuli_target_rectangletriangles.svg	stimuli_distractor_diamondtriangles.svg	5	yes	0	0	2000	0	0			0	0			1				0	
6.6.1	win	2023-06-28	07:20:52	07:34:49	831292	5f3bd56999a44d9324b76ddb	3	1	main_z	11	advance_on_keypress_ZEE	34	stimuli_target_rectangletriangles.svg	stimuli_distractor_diamondtriangles.svg	5	yes	57	0	381	0	0			0	0			1				0	
6.6.1	win	2023-06-28	07:20:52	07:34:50	832911	5f3bd56999a44d9324b76ddb	3	1	main_z	11	main_z	35	stimuli_target_diamondsquares.svg	stimuli_distractor_diamondtriangles.svg	24	yes	44	1	585	0	0			0	0			1				0	
6.6.1	win	2023-06-28	07:20:52	07:34:50	832911	5f3bd56999a44d9324b76ddb	3	1	main_z	11	advance_on_keypress_ZEE	36	stimuli_target_diamondsquares.svg	stimuli_distractor_diamondtriangles.svg	24	yes	57	0	468	0	0			0	0			1				0	
6.6.1	win	2023-06-28	07:20:52	07:34:52	834566	5f3bd56999a44d9324b76ddb	3	1	main_z	11	main_z	37	stimuli_target_diamondrectangles.svg	stimuli_distractor_diamondtriangles.svg	23	yes	44	1	541	0	0			0	0			1				0	
6.6.1	win	2023-06-28	07:20:52	07:34:52	834566	5f3bd56999a44d9324b76ddb	3	1	main_z	11	advance_on_keypress_ZEE	38	stimuli_target_diamondrectangles.svg	stimuli_distractor_diamondtriangles.svg	23	yes	57	0	486	0	0			0	0			1				0	
6.6.1	win	2023-06-28	07:20:52	07:34:55	837693	5f3bd56999a44d9324b76ddb	3	1	main_z	11	main_z	39	stimuli_distractor_trianglediamonds.svg	stimuli_distractor_diamondtriangles.svg	36	no	0	1	2000	0	0			0	0			1				0	
6.6.1	win	2023-06-28	07:20:52	07:34:55	837693	5f3bd56999a44d9324b76ddb	3	1	main_z	11	advance_on_keypress_ZEE	40	stimuli_distractor_trianglediamonds.svg	stimuli_distractor_diamondtriangles.svg	36	no	57	0	265	0	0			0	0			1				0	
6.6.1	win	2023-06-28	07:20:52	07:34:57	839168	5f3bd56999a44d9324b76ddb	3	1	main_z	11	main_z	41	stimuli_distractor_diamondtriangles.svg	stimuli_target_diamondsquares.svg	32	yes	44	1	560	0	0			0	0			1				0	
6.6.1	win	2023-06-28	07:20:52	07:34:57	839168	5f3bd56999a44d9324b76ddb	3	1	main_z	11	advance_on_keypress_ZEE	42	stimuli_distractor_diamondtriangles.svg	stimuli_target_diamondsquares.svg	32	yes	57	0	483	0	0			0	0			1				0	
6.6.1	win	2023-06-28	07:20:52	07:35:00	842292	5f3bd56999a44d9324b76ddb	3	1	main_z	11	main_z	43	stimuli_distractor_trianglediamonds.svg	stimuli_distractor_trianglediamonds.svg	33	no	0	1	2000	0	0			0	0			1				0	
6.6.1	win	2023-06-28	07:20:52	07:35:00	842292	5f3bd56999a44d9324b76ddb	3	1	main_z	11	advance_on_keypress_ZEE	44	stimuli_distractor_trianglediamonds.svg	stimuli_distractor_trianglediamonds.svg	33	no	57	0	418	0	0			0	0			1				0	
6.6.1	win	2023-06-28	07:20:52	07:35:01	843955	5f3bd56999a44d9324b76ddb	3	1	main_z	11	main_z	45	stimuli_distractor_trianglediamonds.svg	stimuli_target_diamondrectangles.svg	27	yes	44	1	597	0	0			0	0			1				0	
6.6.1	win	2023-06-28	07:20:52	07:35:01	843955	5f3bd56999a44d9324b76ddb	3	1	main_z	11	advance_on_keypress_ZEE	46	stimuli_distractor_trianglediamonds.svg	stimuli_target_diamondrectangles.svg	27	yes	57	0	474	0	0			0	0			1				0	
6.6.1	win	2023-06-28	07:20:52	07:35:03	846133	5f3bd56999a44d9324b76ddb	3	1	main_z	11	main_z	47	stimuli_target_rectangletriangles.svg	stimuli_distractor_trianglediamonds.svg	1	yes	44	1	1057	0	0			0	0			1				0	
6.6.1	win	2023-06-28	07:20:52	07:35:03	846133	5f3bd56999a44d9324b76ddb	3	1	main_z	11	advance_on_keypress_ZEE	48	stimuli_target_rectangletriangles.svg	stimuli_distractor_trianglediamonds.svg	1	yes	57	0	385	0	0			0	0			1				0	
6.6.1	win	2023-06-28	07:20:52	07:35:07	849158	5f3bd56999a44d9324b76ddb	3	1	main_z	11	main_z	49	stimuli_distractor_diamondtriangles.svg	stimuli_target_rectangletriangles.svg	13	yes	0	0	2000	0	0			0	0			1				0	
6.6.1	win	2023-06-28	07:20:52	07:35:07	849158	5f3bd56999a44d9324b76ddb	3	1	main_z	11	advance_on_keypress_ZEE	50	stimuli_distractor_diamondtriangles.svg	stimuli_target_rectangletriangles.svg	13	yes	57	0	354	0	0			0	0			1				0	
6.6.1	win	2023-06-28	07:20:52	07:35:10	852159	5f3bd56999a44d9324b76ddb	3	1	main_z	11	main_z	51	stimuli_distractor_diamondtriangles.svg	stimuli_distractor_diamondtriangles.svg	39	no	0	1	2000	0	0			0	0			1				0	
6.6.1	win	2023-06-28	07:20:52	07:35:10	852159	5f3bd56999a44d9324b76ddb	3	1	main_z	11	advance_on_keypress_ZEE	52	stimuli_distractor_diamondtriangles.svg	stimuli_distractor_diamondtriangles.svg	39	no	57	0	262	0	0			0	0			1				0	
6.6.1	win	2023-06-28	07:20:52	07:35:11	853861	5f3bd56999a44d9324b76ddb	3	1	main_z	11	main_z	53	stimuli_target_squarediamonds.svg	stimuli_distractor_diamondtriangles.svg	8	yes	44	1	786	0	0			0	0			1				0	
6.6.1	win	2023-06-28	07:20:52	07:35:11	853861	5f3bd56999a44d9324b76ddb	3	1	main_z	11	advance_on_keypress_ZEE	54	stimuli_target_squarediamonds.svg	stimuli_distractor_diamondtriangles.svg	8	yes	57	0	522	0	0			0	0			1				0	
6.6.1	win	2023-06-28	07:20:52	07:35:14	856160	5f3bd56999a44d9324b76ddb	3	1	main_z	11	main_z	55	stimuli_distractor_diamondtriangles.svg	stimuli_distractor_trianglediamonds.svg	37	no	44	0	1136	0	0			0	0			1				0	
6.6.1	win	2023-06-28	07:20:52	07:35:14	856160	5f3bd56999a44d9324b76ddb	3	1	main_z	11	advance_on_keypress_ZEE	56	stimuli_distractor_diamondtriangles.svg	stimuli_distractor_trianglediamonds.svg	37	no	57	0	757	0	0			0	0			1				0	
6.6.1	win	2023-06-28	07:20:52	07:35:17	859558	5f3bd56999a44d9324b76ddb	3	1	main_z	11	main_z	57	stimuli_distractor_diamondtriangles.svg	stimuli_target_squarediamonds.svg	16	yes	0	0	2000	0	0			0	0			1				0	
6.6.1	win	2023-06-28	07:20:52	07:35:17	859558	5f3bd56999a44d9324b76ddb	3	1	main_z	11	advance_on_keypress_ZEE	58	stimuli_distractor_diamondtriangles.svg	stimuli_target_squarediamonds.svg	16	yes	57	0	371	0	0			0	0			1				0	
6.6.1	win	2023-06-28	07:20:52	07:35:19	861579	5f3bd56999a44d9324b76ddb	3	1	main_z	11	main_z	59	stimuli_distractor_trianglediamonds.svg	stimuli_target_rectangletriangles.svg	9	yes	44	1	1004	0	0			0	0			1				0	
6.6.1	win	2023-06-28	07:20:52	07:35:19	861579	5f3bd56999a44d9324b76ddb	3	1	main_z	11	advance_on_keypress_ZEE	60	stimuli_distractor_trianglediamonds.svg	stimuli_target_rectangletriangles.svg	9	yes	57	0	486	0	0			0	0			1				0	
6.6.1	win	2023-06-28	07:20:52	07:35:21	863465	5f3bd56999a44d9324b76ddb	3	1	main_z	11	main_z	61	stimuli_target_trianglerectangles.svg	stimuli_distractor_diamondtriangles.svg	21	yes	44	1	757	0	0			0	0			1				0	
6.6.1	win	2023-06-28	07:20:52	07:35:21	863465	5f3bd56999a44d9324b76ddb	3	1	main_z	11	advance_on_keypress_ZEE	62	stimuli_target_trianglerectangles.svg	stimuli_distractor_diamondtriangles.svg	21	yes	57	0	642	0	0			0	0			1				0	
6.6.1	win	2023-06-28	07:20:52	07:35:23	865771	5f3bd56999a44d9324b76ddb	3	1	main_z	11	main_z	63	stimuli_target_rectanglediamonds.svg	stimuli_distractor_trianglediamonds.svg	2	yes	44	1	1030	0	0			0	0			1				0	
6.6.1	win	2023-06-28	07:20:52	07:35:23	865771	5f3bd56999a44d9324b76ddb	3	1	main_z	11	advance_on_keypress_ZEE	64	stimuli_target_rectanglediamonds.svg	stimuli_distractor_trianglediamonds.svg	2	yes	57	0	1301	0	0			0	0			1				0	
6.6.1	win	2023-06-28	07:20:52	07:35:26	868497	5f3bd56999a44d9324b76ddb	3	1	main_z	11	main_z	65	stimuli_distractor_diamondtriangles.svg	stimuli_target_trianglesquares.svg	30	yes	44	1	773	0	0			0	0			1				0	
6.6.1	win	2023-06-28	07:20:52	07:35:26	868497	5f3bd56999a44d9324b76ddb	3	1	main_z	11	advance_on_keypress_ZEE	66	stimuli_distractor_diamondtriangles.svg	stimuli_target_trianglesquares.svg	30	yes	57	0	490	0	0			0	0			1				0	
6.6.1	win	2023-06-28	07:20:52	07:35:29	871626	5f3bd56999a44d9324b76ddb	3	1	main_z	11	main_z	67	stimuli_distractor_diamondtriangles.svg	stimuli_target_squaretriangles.svg	15	yes	0	0	2000	0	0			0	0			1				0	
6.6.1	win	2023-06-28	07:20:52	07:35:29	871626	5f3bd56999a44d9324b76ddb	3	1	main_z	11	advance_on_keypress_ZEE	68	stimuli_distractor_diamondtriangles.svg	stimuli_target_squaretriangles.svg	15	yes	57	0	344	0	0			0	0			1				0	
6.6.1	win	2023-06-28	07:20:52	07:35:31	873190	5f3bd56999a44d9324b76ddb	3	1	main_z	11	main_z	69	stimuli_target_diamondsquares.svg	stimuli_distractor_trianglediamonds.svg	20	yes	44	1	565	0	0			0	0			1				0	
6.6.1	win	2023-06-28	07:20:52	07:35:31	873190	5f3bd56999a44d9324b76ddb	3	1	main_z	11	advance_on_keypress_ZEE	70	stimuli_target_diamondsquares.svg	stimuli_distractor_trianglediamonds.svg	20	yes	57	0	1353	0	0			0	0			1				0	
6.6.1	win	2023-06-28	07:20:52	07:35:35	877190	5f3bd56999a44d9324b76ddb	3	1	main_z	11	main_z	71	stimuli_target_rectanglediamonds.svg	stimuli_distractor_diamondtriangles.svg	6	yes	0	0	2000	0	0			0	0			1				0	
6.6.1	win	2023-06-28	07:20:52	07:35:35	877190	5f3bd56999a44d9324b76ddb	3	1	main_z	11	advance_on_keypress_ZEE	72	stimuli_target_rectanglediamonds.svg	stimuli_distractor_diamondtriangles.svg	6	yes	57	0	442	0	0			0	0			1				0	
6.6.1	win	2023-06-28	07:20:52	07:35:38	880274	5f3bd56999a44d9324b76ddb	3	1	main_z	11	main_z	73	stimuli_target_squarediamonds.svg	stimuli_distractor_trianglediamonds.svg	4	yes	0	0	2000	0	0			0	0			1				0	
6.6.1	win	2023-06-28	07:20:52	07:35:38	880274	5f3bd56999a44d9324b76ddb	3	1	main_z	11	advance_on_keypress_ZEE	74	stimuli_target_squarediamonds.svg	stimuli_distractor_trianglediamonds.svg	4	yes	57	0	554	0	0			0	0			1				0	
6.6.1	win	2023-06-28	07:20:52	07:35:41	883474	5f3bd56999a44d9324b76ddb	3	1	main_z	11	main_z	75	stimuli_target_squaretriangles.svg	stimuli_distractor_diamondtriangles.svg	7	yes	0	0	2000	0	0			0	0			1				0	
6.6.1	win	2023-06-28	07:20:52	07:35:41	883474	5f3bd56999a44d9324b76ddb	3	1	main_z	11	advance_on_keypress_ZEE	76	stimuli_target_squaretriangles.svg	stimuli_distractor_diamondtriangles.svg	7	yes	57	0	337	0	0			0	0			1				0	
6.6.1	win	2023-06-28	07:20:52	07:35:44	886457	5f3bd56999a44d9324b76ddb	3	1	main_z	11	main_z	77	stimuli_target_squaretriangles.svg	stimuli_distractor_trianglediamonds.svg	3	yes	0	0	2000	0	0			0	0			1				0	
6.6.1	win	2023-06-28	07:20:52	07:35:44	886457	5f3bd56999a44d9324b76ddb	3	1	main_z	11	advance_on_keypress_ZEE	78	stimuli_target_squaretriangles.svg	stimuli_distractor_trianglediamonds.svg	3	yes	57	0	277	0	0			0	0			1				0	
6.6.1	win	2023-06-28	07:20:52	07:35:45	887830	5f3bd56999a44d9324b76ddb	3	1	main_z	11	main_z	79	stimuli_target_trianglesquares.svg	stimuli_distractor_trianglediamonds.svg	18	yes	44	1	455	0	0			0	0			1				0	
6.6.1	win	2023-06-28	07:20:52	07:35:45	887830	5f3bd56999a44d9324b76ddb	3	1	main_z	11	advance_on_keypress_ZEE	80	stimuli_target_trianglesquares.svg	stimuli_distractor_trianglediamonds.svg	18	yes	57	0	836	0	0			0	0			1				0	
6.6.1	win	2023-06-28	07:20:52	07:35:48	890409	5f3bd56999a44d9324b76ddb	3	1	main_z	11	main_z	81	stimuli_distractor_diamondtriangles.svg	stimuli_target_squarediamonds.svg	16	yes	44	1	1103	0	0			0	0			1				0	
6.6.1	win	2023-06-28	07:20:52	07:35:48	890409	5f3bd56999a44d9324b76ddb	3	1	main_z	11	advance_on_keypress_ZEE	82	stimuli_distractor_diamondtriangles.svg	stimuli_target_squarediamonds.svg	16	yes	57	0	404	0	0			0	0			1				0	
6.6.1	win	2023-06-28	07:20:52	07:35:50	892207	5f3bd56999a44d9324b76ddb	3	1	main_z	11	main_z	83	stimuli_distractor_trianglediamonds.svg	stimuli_distractor_trianglediamonds.svg	34	no	44	0	751	0	0			0	0			1				0	
6.6.1	win	2023-06-28	07:20:52	07:35:50	892207	5f3bd56999a44d9324b76ddb	3	1	main_z	11	advance_on_keypress_ZEE	84	stimuli_distractor_trianglediamonds.svg	stimuli_distractor_trianglediamonds.svg	34	no	57	0	374	0	0			0	0			1				0	
6.6.1	win	2023-06-28	07:20:52	07:35:53	895223	5f3bd56999a44d9324b76ddb	3	1	main_z	11	main_z	85	stimuli_target_squaretriangles.svg	stimuli_distractor_trianglediamonds.svg	3	yes	0	0	2000	0	0			0	0			1				0	
6.6.1	win	2023-06-28	07:20:52	07:35:53	895223	5f3bd56999a44d9324b76ddb	3	1	main_z	11	advance_on_keypress_ZEE	86	stimuli_target_squaretriangles.svg	stimuli_distractor_trianglediamonds.svg	3	yes	57	0	417	0	0			0	0			1				0	
6.6.1	win	2023-06-28	07:20:52	07:35:56	898290	5f3bd56999a44d9324b76ddb	3	1	main_z	11	main_z	87	stimuli_distractor_diamondtriangles.svg	stimuli_distractor_diamondtriangles.svg	40	no	0	1	2000	0	0			0	0			1				0	
6.6.1	win	2023-06-28	07:20:52	07:35:56	898290	5f3bd56999a44d9324b76ddb	3	1	main_z	11	advance_on_keypress_ZEE	88	stimuli_distractor_diamondtriangles.svg	stimuli_distractor_diamondtriangles.svg	40	no	57	0	258	0	0			0	0			1				0	
6.6.1	win	2023-06-28	07:20:52	07:35:59	901190	5f3bd56999a44d9324b76ddb	3	1	main_z	11	main_z	89	stimuli_distractor_diamondtriangles.svg	stimuli_target_rectangletriangles.svg	13	yes	0	0	2000	0	0			0	0			1				0	
6.6.1	win	2023-06-28	07:20:52	07:35:59	901190	5f3bd56999a44d9324b76ddb	3	1	main_z	11	advance_on_keypress_ZEE	90	stimuli_distractor_diamondtriangles.svg	stimuli_target_rectangletriangles.svg	13	yes	57	0	246	0	0			0	0			1				0	
6.6.1	win	2023-06-28	07:20:52	07:36:00	902666	5f3bd56999a44d9324b76ddb	3	1	main_z	11	main_z	91	stimuli_distractor_diamondtriangles.svg	stimuli_target_diamondsquares.svg	32	yes	44	1	592	0	0			0	0			1				0	
6.6.1	win	2023-06-28	07:20:52	07:36:00	902666	5f3bd56999a44d9324b76ddb	3	1	main_z	11	advance_on_keypress_ZEE	92	stimuli_distractor_diamondtriangles.svg	stimuli_target_diamondsquares.svg	32	yes	57	0	985	0	0			0	0			1				0	
6.6.1	win	2023-06-28	07:20:52	07:36:02	904809	5f3bd56999a44d9324b76ddb	3	1	main_z	11	main_z	93	stimuli_target_trianglesquares.svg	stimuli_distractor_trianglediamonds.svg	18	yes	44	1	519	0	0			0	0			1				0	
6.6.1	win	2023-06-28	07:20:52	07:36:02	904809	5f3bd56999a44d9324b76ddb	3	1	main_z	11	advance_on_keypress_ZEE	94	stimuli_target_trianglesquares.svg	stimuli_distractor_trianglediamonds.svg	18	yes	57	0	560	0	0			0	0			1				0	
6.6.1	win	2023-06-28	07:20:52	07:36:04	906623	5f3bd56999a44d9324b76ddb	3	1	main_z	11	main_z	95	stimuli_distractor_trianglediamonds.svg	stimuli_target_diamondrectangles.svg	27	yes	44	1	615	0	0			0	0			1				0	
6.6.1	win	2023-06-28	07:20:52	07:36:04	906623	5f3bd56999a44d9324b76ddb	3	1	main_z	11	advance_on_keypress_ZEE	96	stimuli_distractor_trianglediamonds.svg	stimuli_target_diamondrectangles.svg	27	yes	57	0	1232	0	0			0	0			1				0	
6.6.1	win	2023-06-28	07:20:52	07:36:07	909217	5f3bd56999a44d9324b76ddb	3	1	main_z	11	main_z	97	stimuli_target_diamondrectangles.svg	stimuli_distractor_diamondtriangles.svg	23	yes	44	1	711	0	0			0	0			1				0	
6.6.1	win	2023-06-28	07:20:52	07:36:07	909217	5f3bd56999a44d9324b76ddb	3	1	main_z	11	advance_on_keypress_ZEE	98	stimuli_target_diamondrectangles.svg	stimuli_distractor_diamondtriangles.svg	23	yes	57	0	674	0	0			0	0			1				0	
6.6.1	win	2023-06-28	07:20:52	07:36:09	911248	5f3bd56999a44d9324b76ddb	3	1	main_z	11	main_z	99	stimuli_distractor_trianglediamonds.svg	stimuli_target_diamondsquares.svg	28	yes	44	1	725	0	0			0	0			1				0	
6.6.1	win	2023-06-28	07:20:52	07:36:09	911248	5f3bd56999a44d9324b76ddb	3	1	main_z	11	advance_on_keypress_ZEE	100	stimuli_distractor_trianglediamonds.svg	stimuli_target_diamondsquares.svg	28	yes	57	0	1423	0	0			0	0			1				0	
6.6.1	win	2023-06-28	07:20:52	07:36:11	914126	5f3bd56999a44d9324b76ddb	3	1	main_z	11	main_z	101	stimuli_target_squarediamonds.svg	stimuli_distractor_trianglediamonds.svg	4	yes	44	1	820	0	0			0	0			1				0	
6.6.1	win	2023-06-28	07:20:52	07:36:11	914126	5f3bd56999a44d9324b76ddb	3	1	main_z	11	advance_on_keypress_ZEE	102	stimuli_target_squarediamonds.svg	stimuli_distractor_trianglediamonds.svg	4	yes	57	0	758	0	0			0	0			1				0	
6.6.1	win	2023-06-28	07:20:52	07:36:13	916066	5f3bd56999a44d9324b76ddb	3	1	main_z	11	main_z	103	stimuli_distractor_diamondtriangles.svg	stimuli_target_diamondrectangles.svg	31	yes	44	1	543	0	0			0	0			1				0	
6.6.1	win	2023-06-28	07:20:52	07:36:13	916066	5f3bd56999a44d9324b76ddb	3	1	main_z	11	advance_on_keypress_ZEE	104	stimuli_distractor_diamondtriangles.svg	stimuli_target_diamondrectangles.svg	31	yes	57	0	769	0	0			0	0			1				0	
6.6.1	win	2023-06-28	07:20:52	07:36:16	918208	5f3bd56999a44d9324b76ddb	3	1	main_z	11	main_z	105	stimuli_target_rectanglediamonds.svg	stimuli_distractor_diamondtriangles.svg	6	yes	44	1	735	0	0			0	0			1				0	
6.6.1	win	2023-06-28	07:20:52	07:36:16	918208	5f3bd56999a44d9324b76ddb	3	1	main_z	11	advance_on_keypress_ZEE	106	stimuli_target_rectanglediamonds.svg	stimuli_distractor_diamondtriangles.svg	6	yes	57	0	555	0	0			0	0			1				0	
6.6.1	win	2023-06-28	07:20:52	07:36:17	919968	5f3bd56999a44d9324b76ddb	3	1	main_z	11	main_z	107	stimuli_distractor_diamondtriangles.svg	stimuli_target_trianglesquares.svg	30	yes	44	1	562	0	0			0	0			1				0	
6.6.1	win	2023-06-28	07:20:52	07:36:17	919968	5f3bd56999a44d9324b76ddb	3	1	main_z	11	advance_on_keypress_ZEE	108	stimuli_distractor_diamondtriangles.svg	stimuli_target_trianglesquares.svg	30	yes	57	0	388	0	0			0	0			1				0	
6.6.1	win	2023-06-28	07:20:52	07:36:19	921556	5f3bd56999a44d9324b76ddb	3	1	main_z	11	main_z	109	stimuli_target_trianglesquares.svg	stimuli_distractor_diamondtriangles.svg	22	yes	44	1	566	0	0			0	0			1				0	
6.6.1	win	2023-06-28	07:20:52	07:36:19	921556	5f3bd56999a44d9324b76ddb	3	1	main_z	11	advance_on_keypress_ZEE	110	stimuli_target_trianglesquares.svg	stimuli_distractor_diamondtriangles.svg	22	yes	57	0	475	0	0			0	0			1				0	
6.6.1	win	2023-06-28	07:20:52	07:36:21	923914	5f3bd56999a44d9324b76ddb	3	1	main_z	11	main_z	111	stimuli_target_squarediamonds.svg	stimuli_distractor_diamondtriangles.svg	8	yes	44	1	1242	0	0			0	0			1				0	
6.6.1	win	2023-06-28	07:20:52	07:36:21	923914	5f3bd56999a44d9324b76ddb	3	1	main_z	11	advance_on_keypress_ZEE	112	stimuli_target_squarediamonds.svg	stimuli_distractor_diamondtriangles.svg	8	yes	57	0	476	0	0			0	0			1				0	
6.6.1	win	2023-06-28	07:20:52	07:36:23	926135	5f3bd56999a44d9324b76ddb	3	1	main_z	11	main_z	113	stimuli_distractor_diamondtriangles.svg	stimuli_target_trianglerectangles.svg	29	yes	44	1	1113	0	0			0	0			1				0	
6.6.1	win	2023-06-28	07:20:52	07:36:23	926135	5f3bd56999a44d9324b76ddb	3	1	main_z	11	advance_on_keypress_ZEE	114	stimuli_distractor_diamondtriangles.svg	stimuli_target_trianglerectangles.svg	29	yes	57	0	508	0	0			0	0			1				0	
6.6.1	win	2023-06-28	07:20:52	07:36:26	928524	5f3bd56999a44d9324b76ddb	3	1	main_z	11	main_z	115	stimuli_target_rectangletriangles.svg	stimuli_distractor_trianglediamonds.svg	1	yes	44	1	1235	0	0			0	0			1				0	
6.6.1	win	2023-06-28	07:20:52	07:36:26	928524	5f3bd56999a44d9324b76ddb	3	1	main_z	11	advance_on_keypress_ZEE	116	stimuli_target_rectangletriangles.svg	stimuli_distractor_trianglediamonds.svg	1	yes	57	0	358	0	0			0	0			1				0	
6.6.1	win	2023-06-28	07:20:52	07:36:29	931523	5f3bd56999a44d9324b76ddb	3	1	main_z	11	main_z	117	stimuli_distractor_trianglediamonds.svg	stimuli_target_squaretriangles.svg	11	yes	0	0	2000	0	0			0	0			1				0	
6.6.1	win	2023-06-28	07:20:52	07:36:29	931523	5f3bd56999a44d9324b76ddb	3	1	main_z	11	advance_on_keypress_ZEE	118	stimuli_distractor_trianglediamonds.svg	stimuli_target_squaretriangles.svg	11	yes	57	0	311	0	0			0	0			1				0	
6.6.1	win	2023-06-28	07:20:52	07:36:32	934473	5f3bd56999a44d9324b76ddb	3	1	main_z	11	main_z	119	stimuli_distractor_diamondtriangles.svg	stimuli_target_squaretriangles.svg	15	yes	0	0	2000	0	0			0	0			1				0	
6.6.1	win	2023-06-28	07:20:52	07:36:32	934473	5f3bd56999a44d9324b76ddb	3	1	main_z	11	advance_on_keypress_ZEE	120	stimuli_distractor_diamondtriangles.svg	stimuli_target_squaretriangles.svg	15	yes	57	0	330	0	0			0	0			1				0	
6.6.1	win	2023-06-28	07:20:52	07:36:34	936598	5f3bd56999a44d9324b76ddb	3	1	main_z	11	main_z	121	stimuli_distractor_trianglediamonds.svg	stimuli_distractor_diamondtriangles.svg	35	no	44	0	1141	0	0			0	0			1				0	
6.6.1	win	2023-06-28	07:20:52	07:36:34	936598	5f3bd56999a44d9324b76ddb	3	1	main_z	11	advance_on_keypress_ZEE	122	stimuli_distractor_trianglediamonds.svg	stimuli_distractor_diamondtriangles.svg	35	no	57	0	461	0	0			0	0			1				0	
6.6.1	win	2023-06-28	07:20:52	07:36:36	938553	5f3bd56999a44d9324b76ddb	3	1	main_z	11	main_z	123	stimuli_distractor_trianglediamonds.svg	stimuli_target_rectanglediamonds.svg	10	yes	44	1	864	0	0			0	0			1				0	
6.6.1	win	2023-06-28	07:20:52	07:36:36	938553	5f3bd56999a44d9324b76ddb	3	1	main_z	11	advance_on_keypress_ZEE	124	stimuli_distractor_trianglediamonds.svg	stimuli_target_rectanglediamonds.svg	10	yes	57	0	368	0	0			0	0			1				0	
6.6.1	win	2023-06-28	07:20:52	07:36:39	941573	5f3bd56999a44d9324b76ddb	3	1	main_z	11	main_z	125	stimuli_distractor_diamondtriangles.svg	stimuli_distractor_trianglediamonds.svg	37	no	0	1	2000	0	0			0	0			1				0	
6.6.1	win	2023-06-28	07:20:52	07:36:39	941573	5f3bd56999a44d9324b76ddb	3	1	main_z	11	advance_on_keypress_ZEE	126	stimuli_distractor_diamondtriangles.svg	stimuli_distractor_trianglediamonds.svg	37	no	57	0	250	0	0			0	0			1				0	
6.6.1	win	2023-06-28	07:20:52	07:36:41	943790	5f3bd56999a44d9324b76ddb	3	1	main_z	11	main_z	127	stimuli_distractor_trianglediamonds.svg	stimuli_distractor_trianglediamonds.svg	33	no	44	0	1317	0	0			0	0			1				0	
6.6.1	win	2023-06-28	07:20:52	07:36:41	943790	5f3bd56999a44d9324b76ddb	3	1	main_z	11	advance_on_keypress_ZEE	128	stimuli_distractor_trianglediamonds.svg	stimuli_distractor_trianglediamonds.svg	33	no	57	0	408	0	0			0	0			1				0	
6.6.1	win	2023-06-28	07:20:52	07:36:43	945625	5f3bd56999a44d9324b76ddb	3	1	main_z	11	main_z	129	stimuli_distractor_diamondtriangles.svg	stimuli_distractor_trianglediamonds.svg	38	no	44	0	785	0	0			0	0			1				0	
6.6.1	win	2023-06-28	07:20:52	07:36:43	945625	5f3bd56999a44d9324b76ddb	3	1	main_z	11	advance_on_keypress_ZEE	130	stimuli_distractor_diamondtriangles.svg	stimuli_distractor_trianglediamonds.svg	38	no	57	0	468	0	0			0	0			1				0	
6.6.1	win	2023-06-28	07:20:52	07:36:45	947625	5f3bd56999a44d9324b76ddb	3	1	main_z	11	main_z	131	stimuli_distractor_trianglediamonds.svg	stimuli_target_squarediamonds.svg	12	yes	44	1	885	0	0			0	0			1				0	
6.6.1	win	2023-06-28	07:20:52	07:36:45	947625	5f3bd56999a44d9324b76ddb	3	1	main_z	11	advance_on_keypress_ZEE	132	stimuli_distractor_trianglediamonds.svg	stimuli_target_squarediamonds.svg	12	yes	57	0	355	0	0			0	0			1				0	
6.6.1	win	2023-06-28	07:20:52	07:36:47	949410	5f3bd56999a44d9324b76ddb	3	1	main_z	11	main_z	133	stimuli_target_trianglerectangles.svg	stimuli_distractor_trianglediamonds.svg	17	yes	44	1	788	0	0			0	0			1				0	
6.6.1	win	2023-06-28	07:20:52	07:36:47	949410	5f3bd56999a44d9324b76ddb	3	1	main_z	11	advance_on_keypress_ZEE	134	stimuli_target_trianglerectangles.svg	stimuli_distractor_trianglediamonds.svg	17	yes	57	0	436	0	0			0	0			1				0	
6.6.1	win	2023-06-28	07:20:52	07:36:50	952489	5f3bd56999a44d9324b76ddb	3	1	main_z	11	main_z	135	stimuli_distractor_diamondtriangles.svg	stimuli_distractor_diamondtriangles.svg	39	no	0	1	2000	0	0			0	0			1				0	
6.6.1	win	2023-06-28	07:20:52	07:36:50	952489	5f3bd56999a44d9324b76ddb	3	1	main_z	11	advance_on_keypress_ZEE	136	stimuli_distractor_diamondtriangles.svg	stimuli_distractor_diamondtriangles.svg	39	no	57	0	373	0	0			0	0			1				0	
6.6.1	win	2023-06-28	07:20:52	07:36:53	955506	5f3bd56999a44d9324b76ddb	3	1	main_z	11	main_z	137	stimuli_target_squaretriangles.svg	stimuli_distractor_diamondtriangles.svg	7	yes	0	0	2000	0	0			0	0			1				0	
6.6.1	win	2023-06-28	07:20:52	07:36:53	955506	5f3bd56999a44d9324b76ddb	3	1	main_z	11	advance_on_keypress_ZEE	138	stimuli_target_squaretriangles.svg	stimuli_distractor_diamondtriangles.svg	7	yes	57	0	254	0	0			0	0			1				0	
6.6.1	win	2023-06-28	07:20:52	07:36:56	958405	5f3bd56999a44d9324b76ddb	3	1	main_z	11	main_z	139	stimuli_target_rectanglediamonds.svg	stimuli_distractor_trianglediamonds.svg	2	yes	0	0	2000	0	0			0	0			1				0	
6.6.1	win	2023-06-28	07:20:52	07:36:56	958405	5f3bd56999a44d9324b76ddb	3	1	main_z	11	advance_on_keypress_ZEE	140	stimuli_target_rectanglediamonds.svg	stimuli_distractor_trianglediamonds.svg	2	yes	57	0	307	0	0			0	0			1				0	
6.6.1	win	2023-06-28	07:20:52	07:36:57	959853	5f3bd56999a44d9324b76ddb	3	1	main_z	11	main_z	141	stimuli_target_diamondrectangles.svg	stimuli_distractor_trianglediamonds.svg	19	yes	44	1	497	0	0			0	0			1				0	
6.6.1	win	2023-06-28	07:20:52	07:36:57	959853	5f3bd56999a44d9324b76ddb	3	1	main_z	11	advance_on_keypress_ZEE	142	stimuli_target_diamondrectangles.svg	stimuli_distractor_trianglediamonds.svg	19	yes	57	0	483	0	0			0	0			1				0	
6.6.1	win	2023-06-28	07:20:52	07:36:59	961610	5f3bd56999a44d9324b76ddb	3	1	main_z	11	main_z	143	stimuli_target_diamondsquares.svg	stimuli_distractor_diamondtriangles.svg	24	yes	44	1	622	0	0			0	0			1				0	
6.6.1	win	2023-06-28	07:20:52	07:36:59	961610	5f3bd56999a44d9324b76ddb	3	1	main_z	11	advance_on_keypress_ZEE	144	stimuli_target_diamondsquares.svg	stimuli_distractor_diamondtriangles.svg	24	yes	57	0	381	0	0			0	0			1				0	
6.6.1	win	2023-06-28	07:20:52	07:37:01	963219	5f3bd56999a44d9324b76ddb	3	1	main_z	11	main_z	145	stimuli_distractor_trianglediamonds.svg	stimuli_target_trianglesquares.svg	26	yes	44	1	581	0	0			0	0			1				0	
6.6.1	win	2023-06-28	07:20:52	07:37:01	963219	5f3bd56999a44d9324b76ddb	3	1	main_z	11	advance_on_keypress_ZEE	146	stimuli_distractor_trianglediamonds.svg	stimuli_target_trianglesquares.svg	26	yes	57	0	415	0	0			0	0			1				0	
6.6.1	win	2023-06-28	07:20:52	07:37:03	965371	5f3bd56999a44d9324b76ddb	3	1	main_z	11	main_z	147	stimuli_distractor_trianglediamonds.svg	stimuli_distractor_diamondtriangles.svg	36	no	44	0	1083	0	0			0	0			1				0	
6.6.1	win	2023-06-28	07:20:52	07:37:03	965371	5f3bd56999a44d9324b76ddb	3	1	main_z	11	advance_on_keypress_ZEE	148	stimuli_distractor_trianglediamonds.svg	stimuli_distractor_diamondtriangles.svg	36	no	57	0	279	0	0			0	0			1				0	
6.6.1	win	2023-06-28	07:20:52	07:37:06	968305	5f3bd56999a44d9324b76ddb	3	1	main_z	11	main_z	149	stimuli_distractor_trianglediamonds.svg	stimuli_target_rectangletriangles.svg	9	yes	0	0	2000	0	0			0	0			1				0	
6.6.1	win	2023-06-28	07:20:52	07:37:06	968305	5f3bd56999a44d9324b76ddb	3	1	main_z	11	advance_on_keypress_ZEE	150	stimuli_distractor_trianglediamonds.svg	stimuli_target_rectangletriangles.svg	9	yes	57	0	269	0	0			0	0			1				0	
6.6.1	win	2023-06-28	07:20:52	07:37:09	971222	5f3bd56999a44d9324b76ddb	3	1	main_z	11	main_z	151	stimuli_distractor_diamondtriangles.svg	stimuli_target_rectanglediamonds.svg	14	yes	0	0	2000	0	0			0	0			1				0	
6.6.1	win	2023-06-28	07:20:52	07:37:09	971222	5f3bd56999a44d9324b76ddb	3	1	main_z	11	advance_on_keypress_ZEE	152	stimuli_distractor_diamondtriangles.svg	stimuli_target_rectanglediamonds.svg	14	yes	57	0	267	0	0			0	0			1				0	
6.6.1	win	2023-06-28	07:20:52	07:37:10	972622	5f3bd56999a44d9324b76ddb	3	1	main_z	11	main_z	153	stimuli_target_diamondsquares.svg	stimuli_distractor_trianglediamonds.svg	20	yes	44	1	483	0	0			0	0			1				0	
6.6.1	win	2023-06-28	07:20:52	07:37:10	972622	5f3bd56999a44d9324b76ddb	3	1	main_z	11	advance_on_keypress_ZEE	154	stimuli_target_diamondsquares.svg	stimuli_distractor_trianglediamonds.svg	20	yes	57	0	440	0	0			0	0			1				0	
6.6.1	win	2023-06-28	07:20:52	07:37:12	974341	5f3bd56999a44d9324b76ddb	3	1	main_z	11	main_z	155	stimuli_target_trianglerectangles.svg	stimuli_distractor_diamondtriangles.svg	21	yes	44	1	636	0	0			0	0			1				0	
6.6.1	win	2023-06-28	07:20:52	07:37:12	974341	5f3bd56999a44d9324b76ddb	3	1	main_z	11	advance_on_keypress_ZEE	156	stimuli_target_trianglerectangles.svg	stimuli_distractor_diamondtriangles.svg	21	yes	57	0	363	0	0			0	0			1				0	
6.6.1	win	2023-06-28	07:20:52	07:37:15	977357	5f3bd56999a44d9324b76ddb	3	1	main_z	11	main_z	157	stimuli_target_rectangletriangles.svg	stimuli_distractor_diamondtriangles.svg	5	yes	0	0	2000	0	0			0	0			1				0	
6.6.1	win	2023-06-28	07:20:52	07:37:15	977357	5f3bd56999a44d9324b76ddb	3	1	main_z	11	advance_on_keypress_ZEE	158	stimuli_target_rectangletriangles.svg	stimuli_distractor_diamondtriangles.svg	5	yes	57	0	462	0	0			0	0			1				0	
6.6.1	win	2023-06-28	07:20:52	07:37:16	979083	5f3bd56999a44d9324b76ddb	3	1	main_z	11	main_z	159	stimuli_distractor_trianglediamonds.svg	stimuli_target_trianglerectangles.svg	25	yes	44	1	612	0	0			0	0			1				0	
6.6.1	win	2023-06-28	07:20:52	07:37:16	979083	5f3bd56999a44d9324b76ddb	3	1	main_z	11	advance_on_keypress_ZEE	160	stimuli_distractor_trianglediamonds.svg	stimuli_target_trianglerectangles.svg	25	yes	57	0	423	0	0			0	0			1				0	
6.6.1	win	2023-06-28	07:20:52	07:37:16	979083	5f3bd56999a44d9324b76ddb	3	1	headphonecheck_calibration	14	headphonecheck_calibrationIntro	1	stimuli_distractor_trianglediamonds.svg	stimuli_target_trianglerectangles.svg	25	yes	calibrationButton	0	3635	0	0			0	0			1				0	
6.6.1	win	2023-06-28	07:20:52	07:37:16	979083	5f3bd56999a44d9324b76ddb	3	1	headphonecheck_testphase	15	test_collectResponse	3	stimuli_distractor_trianglediamonds.svg	stimuli_target_trianglerectangles.svg	25	yes	first	0	2262	1	6	antiphase_hc_ois.wav	3	0	0			1				0	
6.6.1	win	2023-06-28	07:20:52	07:37:16	979083	5f3bd56999a44d9324b76ddb	3	1	headphonecheck_testphase	15	test_collectResponse	6	stimuli_distractor_trianglediamonds.svg	stimuli_target_trianglerectangles.svg	25	yes	second	0	2481	2	3	antiphase_hc_soi.wav	1	0	0			1				0	
6.6.1	win	2023-06-28	07:20:52	07:37:16	979083	5f3bd56999a44d9324b76ddb	3	1	headphonecheck_testphase	15	test_collectResponse	9	stimuli_distractor_trianglediamonds.svg	stimuli_target_trianglerectangles.svg	25	yes	second	0	248	3	2	antiphase_hc_ios.wav	3	0	0			1				0	
6.6.1	win	2023-06-28	07:20:52	07:37:16	979083	5f3bd56999a44d9324b76ddb	3	1	headphonecheck_testphase	15	test_collectResponse	12	stimuli_distractor_trianglediamonds.svg	stimuli_target_trianglerectangles.svg	25	yes	first	0	4941	4	5	antiphase_hc_osi.wav	2	0	0			1				0	
6.6.1	win	2023-06-28	07:20:52	07:37:16	979083	5f3bd56999a44d9324b76ddb	3	1	headphonecheck_testphase	15	test_collectResponse	15	stimuli_distractor_trianglediamonds.svg	stimuli_target_trianglerectangles.svg	25	yes	third	0	935	5	1	antiphase_hc_iso.wav	2	0	0			1				0	
6.6.1	win	2023-06-28	07:20:52	07:37:16	979083	5f3bd56999a44d9324b76ddb	3	1	headphonecheck_testphase	15	test_collectResponse	18	stimuli_distractor_trianglediamonds.svg	stimuli_target_trianglerectangles.svg	25	yes	third	0	500	6	4	antiphase_hc_sio.wav	1	0	0			1				0	
6.6.1	win	2023-06-28	07:20:52	07:37:16	979083	5f3bd56999a44d9324b76ddb	3	1	stereocheck_calibration	17	stereocheck_calibrationIntro	1	stimuli_distractor_trianglediamonds.svg	stimuli_target_trianglerectangles.svg	25	yes	stereocheck_calibrationButton	0	9948	6	4	antiphase_hc_sio.wav	1	0	0			1				0	
6.6.1	win	2023-06-28	07:20:52	07:37:16	979083	5f3bd56999a44d9324b76ddb	3	1	stereocheck_testphase	18	stereocheck_test_collectResponse	3	stimuli_distractor_trianglediamonds.svg	stimuli_target_trianglerectangles.svg	25	yes	stereocheck_left	1	806	6	4	antiphase_hc_sio.wav	1	1	1	noise_calib_stim_LEFT.wav	1	1				0	
6.6.1	win	2023-06-28	07:20:52	07:37:16	979083	5f3bd56999a44d9324b76ddb	3	1	stereocheck_testphase	18	stereocheck_test_collectResponse	6	stimuli_distractor_trianglediamonds.svg	stimuli_target_trianglerectangles.svg	25	yes	stereocheck_left	1	1738	6	4	antiphase_hc_sio.wav	1	2	2	noise_calib_stim_LEFT.wav	1	1				0	
6.6.1	win	2023-06-28	07:20:52	07:37:16	979083	5f3bd56999a44d9324b76ddb	3	1	stereocheck_testphase	18	stereocheck_test_collectResponse	9	stimuli_distractor_trianglediamonds.svg	stimuli_target_trianglerectangles.svg	25	yes	stereocheck_left	0	17067	6	4	antiphase_hc_sio.wav	1	3	5	noise_calib_stim_RIGHT.wav	2	1				0	
6.6.1	win	2023-06-28	07:20:52	07:37:16	979083	5f3bd56999a44d9324b76ddb	3	1	stereocheck_testphase	18	stereocheck_test_collectResponse	12	stimuli_distractor_trianglediamonds.svg	stimuli_target_trianglerectangles.svg	25	yes	stereocheck_left	0	7056	6	4	antiphase_hc_sio.wav	1	4	4	noise_calib_stim_RIGHT.wav	2	1				0	
6.6.1	win	2023-06-28	07:20:52	07:37:16	979083	5f3bd56999a44d9324b76ddb	3	1	stereocheck_testphase	18	stereocheck_test_collectResponse	15	stimuli_distractor_trianglediamonds.svg	stimuli_target_trianglerectangles.svg	25	yes	stereocheck_right	1	1014	6	4	antiphase_hc_sio.wav	1	5	6	noise_calib_stim_RIGHT.wav	2	1				0	
6.6.1	win	2023-06-28	07:20:52	07:37:16	979083	5f3bd56999a44d9324b76ddb	3	1	stereocheck_testphase	18	stereocheck_test_collectResponse	18	stimuli_distractor_trianglediamonds.svg	stimuli_target_trianglerectangles.svg	25	yes	stereocheck_left	1	382	6	4	antiphase_hc_sio.wav	1	6	3	noise_calib_stim_LEFT.wav	1	1				0	
6.6.1	win	2023-06-28	07:20:52	07:37:16	979083	5f3bd56999a44d9324b76ddb	3	1	DL_practice	21	DL_practice	2	stimuli_distractor_trianglediamonds.svg	stimuli_target_trianglerectangles.svg	25	yes	ba	1	2781	6	4	antiphase_hc_sio.wav	1	6	3	noise_calib_stim_LEFT.wav	1	1	blb_dichoticlistening_ba-ba.mp3	ba	ba	0	left
6.6.1	win	2023-06-28	07:20:52	07:37:16	979083	5f3bd56999a44d9324b76ddb	3	1	DL_practice	21	DL_practice	3	stimuli_distractor_trianglediamonds.svg	stimuli_target_trianglerectangles.svg	25	yes	ka	1	1282	6	4	antiphase_hc_sio.wav	1	6	3	noise_calib_stim_LEFT.wav	1	23	blb_dichoticlistening_ka-pa.mp3	ka	pa	1	left
6.6.1	win	2023-06-28	07:20:52	07:37:16	979083	5f3bd56999a44d9324b76ddb	3	1	DL_practice	21	DL_practice	4	stimuli_distractor_trianglediamonds.svg	stimuli_target_trianglerectangles.svg	25	yes	ka	1	1736	6	4	antiphase_hc_sio.wav	1	6	3	noise_calib_stim_LEFT.wav	1	22	blb_dichoticlistening_ka-ka.mp3	ka	ka	0	left
6.6.1	win	2023-06-28	07:20:52	07:37:16	979083	5f3bd56999a44d9324b76ddb	3	1	DL_practice	21	DL_practice	5	stimuli_distractor_trianglediamonds.svg	stimuli_target_trianglerectangles.svg	25	yes	ba	1	1868	6	4	antiphase_hc_sio.wav	1	6	3	noise_calib_stim_LEFT.wav	1	7	blb_dichoticlistening_da-ba.mp3	da	ba	1	right
6.6.1	win	2023-06-28	07:20:52	07:37:16	979083	5f3bd56999a44d9324b76ddb	3	1	DL_practice	21	DL_practice	6	stimuli_distractor_trianglediamonds.svg	stimuli_target_trianglerectangles.svg	25	yes	da	1	1345	6	4	antiphase_hc_sio.wav	1	6	3	noise_calib_stim_LEFT.wav	1	8	blb_dichoticlistening_da-da.mp3	da	da	0	left
6.6.1	win	2023-06-28	07:20:52	07:37:16	979083	5f3bd56999a44d9324b76ddb	3	1	DL_practice	21	DL_practice	7	stimuli_distractor_trianglediamonds.svg	stimuli_target_trianglerectangles.svg	25	yes	ga	1	2096	6	4	antiphase_hc_sio.wav	1	6	3	noise_calib_stim_LEFT.wav	1	15	blb_dichoticlistening_ga-ga.mp3	ga	ga	0	left
6.6.1	win	2023-06-28	07:20:52	07:37:16	979083	5f3bd56999a44d9324b76ddb	3	1	DL_practice	21	DL_practice	8	stimuli_distractor_trianglediamonds.svg	stimuli_target_trianglerectangles.svg	25	yes	ta	1	1442	6	4	antiphase_hc_sio.wav	1	6	3	noise_calib_stim_LEFT.wav	1	36	blb_dichoticlistening_ta-ta.mp3	ta	ta	0	left
6.6.1	win	2023-06-28	07:20:52	07:37:16	979083	5f3bd56999a44d9324b76ddb	3	1	DL_practice	21	DL_practice	9	stimuli_distractor_trianglediamonds.svg	stimuli_target_trianglerectangles.svg	25	yes	ga	1	2082	6	4	antiphase_hc_sio.wav	1	6	3	noise_calib_stim_LEFT.wav	1	18	blb_dichoticlistening_ga-ta.mp3	ga	ta	1	left
6.6.1	win	2023-06-28	07:20:52	07:37:16	979083	5f3bd56999a44d9324b76ddb	3	1	DL_practice	21	DL_practice	10	stimuli_distractor_trianglediamonds.svg	stimuli_target_trianglerectangles.svg	25	yes	pa	1	1228	6	4	antiphase_hc_sio.wav	1	6	3	noise_calib_stim_LEFT.wav	1	29	blb_dichoticlistening_pa-pa.mp3	pa	pa	0	left
6.6.1	win	2023-06-28	07:20:52	07:37:16	979083	5f3bd56999a44d9324b76ddb	3	1	DL_test	23	DL_test	1	stimuli_distractor_trianglediamonds.svg	stimuli_target_trianglerectangles.svg	25	yes	da	1	1551	6	4	antiphase_hc_sio.wav	1	6	3	noise_calib_stim_LEFT.wav	1	8	blb_dichoticlistening_da-da.mp3	da	da	0	left
6.6.1	win	2023-06-28	07:20:52	07:37:16	979083	5f3bd56999a44d9324b76ddb	3	1	DL_test	23	DL_test	2	stimuli_distractor_trianglediamonds.svg	stimuli_target_trianglerectangles.svg	25	yes	ka	1	1605	6	4	antiphase_hc_sio.wav	1	6	3	noise_calib_stim_LEFT.wav	1	4	blb_dichoticlistening_ba-ka.mp3	ba	ka	1	right
6.6.1	win	2023-06-28	07:20:52	07:37:16	979083	5f3bd56999a44d9324b76ddb	3	1	DL_test	23	DL_test	3	stimuli_distractor_trianglediamonds.svg	stimuli_target_trianglerectangles.svg	25	yes	ka	0	1242	6	4	antiphase_hc_sio.wav	1	6	3	noise_calib_stim_LEFT.wav	1	12	blb_dichoticlistening_da-ta.mp3	da	ta	1	other
6.6.1	win	2023-06-28	07:20:52	07:37:16	979083	5f3bd56999a44d9324b76ddb	3	1	DL_test	23	DL_test	4	stimuli_distractor_trianglediamonds.svg	stimuli_target_trianglerectangles.svg	25	yes	ba	1	1980	6	4	antiphase_hc_sio.wav	1	6	3	noise_calib_stim_LEFT.wav	1	3	blb_dichoticlistening_ba-ga.mp3	ba	ga	1	left
6.6.1	win	2023-06-28	07:20:52	07:37:16	979083	5f3bd56999a44d9324b76ddb	3	1	DL_test	23	DL_test	5	stimuli_distractor_trianglediamonds.svg	stimuli_target_trianglerectangles.svg	25	yes	ka	1	1092	6	4	antiphase_hc_sio.wav	1	6	3	noise_calib_stim_LEFT.wav	1	23	blb_dichoticlistening_ka-pa.mp3	ka	pa	1	left
6.6.1	win	2023-06-28	07:20:52	07:37:16	979083	5f3bd56999a44d9324b76ddb	3	1	DL_test	23	DL_test	6	stimuli_distractor_trianglediamonds.svg	stimuli_target_trianglerectangles.svg	25	yes	ga	0	1221	6	4	antiphase_hc_sio.wav	1	6	3	noise_calib_stim_LEFT.wav	1	20	blb_dichoticlistening_ka-da.mp3	ka	da	1	other
6.6.1	win	2023-06-28	07:20:52	07:37:16	979083	5f3bd56999a44d9324b76ddb	3	1	DL_test	23	DL_test	7	stimuli_distractor_trianglediamonds.svg	stimuli_target_trianglerectangles.svg	25	yes	ga	1	1369	6	4	antiphase_hc_sio.wav	1	6	3	noise_calib_stim_LEFT.wav	1	18	blb_dichoticlistening_ga-ta.mp3	ga	ta	1	left
6.6.1	win	2023-06-28	07:20:52	07:37:16	979083	5f3bd56999a44d9324b76ddb	3	1	DL_test	23	DL_test	8	stimuli_distractor_trianglediamonds.svg	stimuli_target_trianglerectangles.svg	25	yes	da	1	1506	6	4	antiphase_hc_sio.wav	1	6	3	noise_calib_stim_LEFT.wav	1	32	blb_dichoticlistening_ta-da.mp3	ta	da	1	right
6.6.1	win	2023-06-28	07:20:52	07:37:16	979083	5f3bd56999a44d9324b76ddb	3	1	DL_test	23	DL_test	9	stimuli_distractor_trianglediamonds.svg	stimuli_target_trianglerectangles.svg	25	yes	ba	1	1326	6	4	antiphase_hc_sio.wav	1	6	3	noise_calib_stim_LEFT.wav	1	31	blb_dichoticlistening_ta-ba.mp3	ta	ba	1	right
6.6.1	win	2023-06-28	07:20:52	07:37:16	979083	5f3bd56999a44d9324b76ddb	3	1	DL_test	23	DL_test	10	stimuli_distractor_trianglediamonds.svg	stimuli_target_trianglerectangles.svg	25	yes	pa	0	2018	6	4	antiphase_hc_sio.wav	1	6	3	noise_calib_stim_LEFT.wav	1	6	blb_dichoticlistening_ba-ta.mp3	ba	ta	1	other
6.6.1	win	2023-06-28	07:20:52	07:37:16	979083	5f3bd56999a44d9324b76ddb	3	1	DL_test	23	DL_test	11	stimuli_distractor_trianglediamonds.svg	stimuli_target_trianglerectangles.svg	25	yes	ka	1	1470	6	4	antiphase_hc_sio.wav	1	6	3	noise_calib_stim_LEFT.wav	1	22	blb_dichoticlistening_ka-ka.mp3	ka	ka	0	left
6.6.1	win	2023-06-28	07:20:52	07:37:16	979083	5f3bd56999a44d9324b76ddb	3	1	DL_test	23	DL_test	12	stimuli_distractor_trianglediamonds.svg	stimuli_target_trianglerectangles.svg	25	yes	pa	1	1374	6	4	antiphase_hc_sio.wav	1	6	3	noise_calib_stim_LEFT.wav	1	29	blb_dichoticlistening_pa-pa.mp3	pa	pa	0	left
6.6.1	win	2023-06-28	07:20:52	07:37:16	979083	5f3bd56999a44d9324b76ddb	3	1	DL_test	23	DL_test	13	stimuli_distractor_trianglediamonds.svg	stimuli_target_trianglerectangles.svg	25	yes	pa	1	1652	6	4	antiphase_hc_sio.wav	1	6	3	noise_calib_stim_LEFT.wav	1	35	blb_dichoticlistening_ta-pa.mp3	ta	pa	1	right
6.6.1	win	2023-06-28	07:20:52	07:37:16	979083	5f3bd56999a44d9324b76ddb	3	1	DL_test	23	DL_test	14	stimuli_distractor_trianglediamonds.svg	stimuli_target_trianglerectangles.svg	25	yes	ga	1	1434	6	4	antiphase_hc_sio.wav	1	6	3	noise_calib_stim_LEFT.wav	1	27	blb_dichoticlistening_pa-ga.mp3	pa	ga	1	right
6.6.1	win	2023-06-28	07:20:52	07:37:16	979083	5f3bd56999a44d9324b76ddb	3	1	DL_test	23	DL_test	15	stimuli_distractor_trianglediamonds.svg	stimuli_target_trianglerectangles.svg	25	yes	ga	1	1372	6	4	antiphase_hc_sio.wav	1	6	3	noise_calib_stim_LEFT.wav	1	33	blb_dichoticlistening_ta-ga.mp3	ta	ga	1	right
6.6.1	win	2023-06-28	07:20:52	07:37:16	979083	5f3bd56999a44d9324b76ddb	3	1	DL_test	23	DL_test	16	stimuli_distractor_trianglediamonds.svg	stimuli_target_trianglerectangles.svg	25	yes	ba	1	1392	6	4	antiphase_hc_sio.wav	1	6	3	noise_calib_stim_LEFT.wav	1	7	blb_dichoticlistening_da-ba.mp3	da	ba	1	right
6.6.1	win	2023-06-28	07:20:52	07:37:16	979083	5f3bd56999a44d9324b76ddb	3	1	DL_test	23	DL_test	17	stimuli_distractor_trianglediamonds.svg	stimuli_target_trianglerectangles.svg	25	yes	ta	1	1053	6	4	antiphase_hc_sio.wav	1	6	3	noise_calib_stim_LEFT.wav	1	30	blb_dichoticlistening_pa-ta.mp3	pa	ta	1	right
6.6.1	win	2023-06-28	07:20:52	07:37:16	979083	5f3bd56999a44d9324b76ddb	3	1	DL_test	23	DL_test	18	stimuli_distractor_trianglediamonds.svg	stimuli_target_trianglerectangles.svg	25	yes	ga	1	1134	6	4	antiphase_hc_sio.wav	1	6	3	noise_calib_stim_LEFT.wav	1	16	blb_dichoticlistening_ga-ka.mp3	ga	ka	1	left
6.6.1	win	2023-06-28	07:20:52	07:37:16	979083	5f3bd56999a44d9324b76ddb	3	1	DL_test	23	DL_test	19	stimuli_distractor_trianglediamonds.svg	stimuli_target_trianglerectangles.svg	25	yes	pa	1	2068	6	4	antiphase_hc_sio.wav	1	6	3	noise_calib_stim_LEFT.wav	1	17	blb_dichoticlistening_ga-pa.mp3	ga	pa	1	right
6.6.1	win	2023-06-28	07:20:52	07:37:16	979083	5f3bd56999a44d9324b76ddb	3	1	DL_test	23	DL_test	20	stimuli_distractor_trianglediamonds.svg	stimuli_target_trianglerectangles.svg	25	yes	pa	0	1650	6	4	antiphase_hc_sio.wav	1	6	3	noise_calib_stim_LEFT.wav	1	19	blb_dichoticlistening_ka-ba.mp3	ka	ba	1	other
6.6.1	win	2023-06-28	07:20:52	07:37:16	979083	5f3bd56999a44d9324b76ddb	3	1	DL_test	23	DL_test	21	stimuli_distractor_trianglediamonds.svg	stimuli_target_trianglerectangles.svg	25	yes	ta	1	1125	6	4	antiphase_hc_sio.wav	1	6	3	noise_calib_stim_LEFT.wav	1	36	blb_dichoticlistening_ta-ta.mp3	ta	ta	0	left
6.6.1	win	2023-06-28	07:20:52	07:37:16	979083	5f3bd56999a44d9324b76ddb	3	1	DL_test	23	DL_test	22	stimuli_distractor_trianglediamonds.svg	stimuli_target_trianglerectangles.svg	25	yes	ba	1	1682	6	4	antiphase_hc_sio.wav	1	6	3	noise_calib_stim_LEFT.wav	1	13	blb_dichoticlistening_ga-ba.mp3	ga	ba	1	right
6.6.1	win	2023-06-28	07:20:52	07:37:16	979083	5f3bd56999a44d9324b76ddb	3	1	DL_test	23	DL_test	23	stimuli_distractor_trianglediamonds.svg	stimuli_target_trianglerectangles.svg	25	yes	ba	1	840	6	4	antiphase_hc_sio.wav	1	6	3	noise_calib_stim_LEFT.wav	1	1	blb_dichoticlistening_ba-ba.mp3	ba	ba	0	left
6.6.1	win	2023-06-28	07:20:52	07:37:16	979083	5f3bd56999a44d9324b76ddb	3	1	DL_test	23	DL_test	24	stimuli_distractor_trianglediamonds.svg	stimuli_target_trianglerectangles.svg	25	yes	ba	0	1053	6	4	antiphase_hc_sio.wav	1	6	3	noise_calib_stim_LEFT.wav	1	10	blb_dichoticlistening_da-ka.mp3	da	ka	1	other
6.6.1	win	2023-06-28	07:20:52	07:37:16	979083	5f3bd56999a44d9324b76ddb	3	1	DL_test	23	DL_test	25	stimuli_distractor_trianglediamonds.svg	stimuli_target_trianglerectangles.svg	25	yes	ga	1	3794	6	4	antiphase_hc_sio.wav	1	6	3	noise_calib_stim_LEFT.wav	1	14	blb_dichoticlistening_ga-da.mp3	ga	da	1	left
6.6.1	win	2023-06-28	07:20:52	07:37:16	979083	5f3bd56999a44d9324b76ddb	3	1	DL_test	23	DL_test	26	stimuli_distractor_trianglediamonds.svg	stimuli_target_trianglerectangles.svg	25	yes	ba	1	1352	6	4	antiphase_hc_sio.wav	1	6	3	noise_calib_stim_LEFT.wav	1	25	blb_dichoticlistening_pa-ba.mp3	pa	ba	1	right
