build	computer.platform	date	time	timestamp	time_elapsed_ms	subject	group	session	blockcode	blocknum	trialcode	trialnum	stimulus_left	stimulus_right	stim_index	target_present	response	correct	latency	headphonecheck_countTestTrials	headphonecheck_index	headphonecheck_testSound	headphonecheck_correctResponse	stereocheck_countTestTrials	stereocheck_index	stereocheck_testSound	stereocheck_correctResponse	DL_index	DL_soundfile	DL_leftSound	DL_rightSound	DL_dualSound	DL_choice
6.6.1	win	2023-06-13	10:04:57	10:07:50	170927	64010f32f8dee9772983c7cd	4	1	practice_z	5	practice_z	1	stimuli_distractor_diamondtriangles.svg	stimuli_distractor_trianglediamonds.svg	14	no	0	1	2000	0	0			0	0			1				0	
6.6.1	win	2023-06-13	10:04:57	10:07:50	170927	64010f32f8dee9772983c7cd	4	1	practice_z	5	advance_on_keypress_ZEE	2	stimuli_distractor_diamondtriangles.svg	stimuli_distractor_trianglediamonds.svg	14	no	57	0	2514	0	0			0	0			1				0	
6.6.1	win	2023-06-13	10:04:57	10:07:55	175818	64010f32f8dee9772983c7cd	4	1	practice_z	5	practice_z	3	stimuli_target_diamondsquares.svg	stimuli_distractor_trianglediamonds.svg	6	yes	44	1	724	0	0			0	0			1				0	
6.6.1	win	2023-06-13	10:04:57	10:07:55	175818	64010f32f8dee9772983c7cd	4	1	practice_z	5	advance_on_keypress_ZEE	4	stimuli_target_diamondsquares.svg	stimuli_distractor_trianglediamonds.svg	6	yes	57	0	1231	0	0			0	0			1				0	
6.6.1	win	2023-06-13	10:04:57	10:08:00	180693	64010f32f8dee9772983c7cd	4	1	practice_z	5	practice_z	5	stimuli_distractor_diamondtriangles.svg	stimuli_target_rectangletriangles.svg	7	yes	0	0	2000	0	0			0	0			1				0	
6.6.1	win	2023-06-13	10:04:57	10:08:00	180693	64010f32f8dee9772983c7cd	4	1	practice_z	5	advance_on_keypress_ZEE	6	stimuli_distractor_diamondtriangles.svg	stimuli_target_rectangletriangles.svg	7	yes	57	0	1092	0	0			0	0			1				0	
6.6.1	win	2023-06-13	10:04:57	10:08:03	184249	64010f32f8dee9772983c7cd	4	1	practice_z	5	practice_z	7	stimuli_distractor_diamondtriangles.svg	stimuli_target_trianglerectangles.svg	9	yes	44	1	823	0	0			0	0			1				0	
6.6.1	win	2023-06-13	10:04:57	10:08:03	184249	64010f32f8dee9772983c7cd	4	1	practice_z	5	advance_on_keypress_ZEE	8	stimuli_distractor_diamondtriangles.svg	stimuli_target_trianglerectangles.svg	9	yes	57	0	742	0	0			0	0			1				0	
6.6.1	win	2023-06-13	10:04:57	10:08:06	187305	64010f32f8dee9772983c7cd	4	1	practice_z	5	practice_z	9	stimuli_target_rectanglediamonds.svg	stimuli_distractor_trianglediamonds.svg	4	yes	44	1	679	0	0			0	0			1				0	
6.6.1	win	2023-06-13	10:04:57	10:08:06	187305	64010f32f8dee9772983c7cd	4	1	practice_z	5	advance_on_keypress_ZEE	10	stimuli_target_rectanglediamonds.svg	stimuli_distractor_trianglediamonds.svg	4	yes	57	0	596	0	0			0	0			1				0	
6.6.1	win	2023-06-13	10:04:57	10:08:09	190337	64010f32f8dee9772983c7cd	4	1	practice_z	5	practice_z	11	stimuli_distractor_trianglediamonds.svg	stimuli_target_diamondrectangles.svg	12	yes	44	1	778	0	0			0	0			1				0	
6.6.1	win	2023-06-13	10:04:57	10:08:09	190337	64010f32f8dee9772983c7cd	4	1	practice_z	5	advance_on_keypress_ZEE	12	stimuli_distractor_trianglediamonds.svg	stimuli_target_diamondrectangles.svg	12	yes	57	0	563	0	0			0	0			1				0	
6.6.1	win	2023-06-13	10:04:57	10:08:12	193194	64010f32f8dee9772983c7cd	4	1	practice_z	5	practice_z	13	stimuli_distractor_diamondtriangles.svg	stimuli_target_diamondrectangles.svg	8	yes	44	1	651	0	0			0	0			1				0	
6.6.1	win	2023-06-13	10:04:57	10:08:12	193194	64010f32f8dee9772983c7cd	4	1	practice_z	5	advance_on_keypress_ZEE	14	stimuli_distractor_diamondtriangles.svg	stimuli_target_diamondrectangles.svg	8	yes	57	0	576	0	0			0	0			1				0	
6.6.1	win	2023-06-13	10:04:57	10:08:16	196634	64010f32f8dee9772983c7cd	4	1	practice_z	5	practice_z	15	stimuli_target_diamondsquares.svg	stimuli_distractor_diamondtriangles.svg	3	yes	44	1	574	0	0			0	0			1				0	
6.6.1	win	2023-06-13	10:04:57	10:08:16	196634	64010f32f8dee9772983c7cd	4	1	practice_z	5	advance_on_keypress_ZEE	16	stimuli_target_diamondsquares.svg	stimuli_distractor_diamondtriangles.svg	3	yes	57	0	727	0	0			0	0			1				0	
6.6.1	win	2023-06-13	10:04:57	10:08:20	200993	64010f32f8dee9772983c7cd	4	1	practice_z	5	practice_z	17	stimuli_distractor_trianglediamonds.svg	stimuli_target_rectanglediamonds.svg	10	yes	0	0	2000	0	0			0	0			1				0	
6.6.1	win	2023-06-13	10:04:57	10:08:20	200993	64010f32f8dee9772983c7cd	4	1	practice_z	5	advance_on_keypress_ZEE	18	stimuli_distractor_trianglediamonds.svg	stimuli_target_rectanglediamonds.svg	10	yes	57	0	601	0	0			0	0			1				0	
6.6.1	win	2023-06-13	10:04:57	10:08:24	205243	64010f32f8dee9772983c7cd	4	1	practice_z	5	practice_z	19	stimuli_distractor_trianglediamonds.svg	stimuli_distractor_diamondtriangles.svg	16	no	0	1	2000	0	0			0	0			1				0	
6.6.1	win	2023-06-13	10:04:57	10:08:24	205243	64010f32f8dee9772983c7cd	4	1	practice_z	5	advance_on_keypress_ZEE	20	stimuli_distractor_trianglediamonds.svg	stimuli_distractor_diamondtriangles.svg	16	no	57	0	807	0	0			0	0			1				0	
6.6.1	win	2023-06-13	10:04:57	10:08:27	208401	64010f32f8dee9772983c7cd	4	1	practice_z	5	practice_z	21	stimuli_target_rectanglediamonds.svg	stimuli_distractor_diamondtriangles.svg	1	yes	44	1	709	0	0			0	0			1				0	
6.6.1	win	2023-06-13	10:04:57	10:08:27	208401	64010f32f8dee9772983c7cd	4	1	practice_z	5	advance_on_keypress_ZEE	22	stimuli_target_rectanglediamonds.svg	stimuli_distractor_diamondtriangles.svg	1	yes	57	0	745	0	0			0	0			1				0	
6.6.1	win	2023-06-13	10:04:57	10:08:30	211377	64010f32f8dee9772983c7cd	4	1	practice_z	5	practice_z	23	stimuli_target_squarediamonds.svg	stimuli_distractor_diamondtriangles.svg	2	yes	44	1	585	0	0			0	0			1				0	
6.6.1	win	2023-06-13	10:04:57	10:08:30	211377	64010f32f8dee9772983c7cd	4	1	practice_z	5	advance_on_keypress_ZEE	24	stimuli_target_squarediamonds.svg	stimuli_distractor_diamondtriangles.svg	2	yes	57	0	1337	0	0			0	0			1				0	
6.6.1	win	2023-06-13	10:04:57	10:08:35	216358	64010f32f8dee9772983c7cd	4	1	practice_z	5	practice_z	25	stimuli_distractor_trianglediamonds.svg	stimuli_distractor_trianglediamonds.svg	15	no	0	1	2000	0	0			0	0			1				0	
6.6.1	win	2023-06-13	10:04:57	10:08:35	216358	64010f32f8dee9772983c7cd	4	1	practice_z	5	advance_on_keypress_ZEE	26	stimuli_distractor_trianglediamonds.svg	stimuli_distractor_trianglediamonds.svg	15	no	57	0	1322	0	0			0	0			1				0	
6.6.1	win	2023-06-13	10:04:57	10:08:39	220042	64010f32f8dee9772983c7cd	4	1	practice_z	5	practice_z	27	stimuli_target_squarediamonds.svg	stimuli_distractor_trianglediamonds.svg	5	yes	44	1	716	0	0			0	0			1				0	
6.6.1	win	2023-06-13	10:04:57	10:08:39	220042	64010f32f8dee9772983c7cd	4	1	practice_z	5	advance_on_keypress_ZEE	28	stimuli_target_squarediamonds.svg	stimuli_distractor_trianglediamonds.svg	5	yes	57	0	647	0	0			0	0			1				0	
6.6.1	win	2023-06-13	10:04:57	10:08:42	222865	64010f32f8dee9772983c7cd	4	1	practice_z	5	practice_z	29	stimuli_distractor_trianglediamonds.svg	stimuli_target_squarediamonds.svg	11	yes	44	1	524	0	0			0	0			1				0	
6.6.1	win	2023-06-13	10:04:57	10:08:42	222865	64010f32f8dee9772983c7cd	4	1	practice_z	5	advance_on_keypress_ZEE	30	stimuli_distractor_trianglediamonds.svg	stimuli_target_squarediamonds.svg	11	yes	57	0	518	0	0			0	0			1				0	
6.6.1	win	2023-06-13	10:04:57	10:08:45	225929	64010f32f8dee9772983c7cd	4	1	practice_z	5	practice_z	31	stimuli_distractor_diamondtriangles.svg	stimuli_distractor_diamondtriangles.svg	13	no	44	0	904	0	0			0	0			1				0	
6.6.1	win	2023-06-13	10:04:57	10:08:45	225929	64010f32f8dee9772983c7cd	4	1	practice_z	5	advance_on_keypress_ZEE	32	stimuli_distractor_diamondtriangles.svg	stimuli_distractor_diamondtriangles.svg	13	no	57	0	404	0	0			0	0			1				0	
6.6.1	win	2023-06-13	10:04:57	10:08:56	236640	64010f32f8dee9772983c7cd	4	1	main_z	7	main_z	1	stimuli_distractor_trianglediamonds.svg	stimuli_distractor_diamondtriangles.svg	35	no	0	1	2000	0	0			0	0			1				0	
6.6.1	win	2023-06-13	10:04:57	10:08:56	236640	64010f32f8dee9772983c7cd	4	1	main_z	7	advance_on_keypress_ZEE	2	stimuli_distractor_trianglediamonds.svg	stimuli_distractor_diamondtriangles.svg	35	no	57	0	1072	0	0			0	0			1				0	
6.6.1	win	2023-06-13	10:04:57	10:08:58	239408	64010f32f8dee9772983c7cd	4	1	main_z	7	main_z	3	stimuli_distractor_diamondtriangles.svg	stimuli_target_squarediamonds.svg	16	yes	44	1	752	0	0			0	0			1				0	
6.6.1	win	2023-06-13	10:04:57	10:08:58	239408	64010f32f8dee9772983c7cd	4	1	main_z	7	advance_on_keypress_ZEE	4	stimuli_distractor_diamondtriangles.svg	stimuli_target_squarediamonds.svg	16	yes	57	0	1017	0	0			0	0			1				0	
6.6.1	win	2023-06-13	10:04:57	10:09:01	241864	64010f32f8dee9772983c7cd	4	1	main_z	7	main_z	5	stimuli_distractor_trianglediamonds.svg	stimuli_distractor_diamondtriangles.svg	36	no	44	0	790	0	0			0	0			1				0	
6.6.1	win	2023-06-13	10:04:57	10:09:01	241864	64010f32f8dee9772983c7cd	4	1	main_z	7	advance_on_keypress_ZEE	6	stimuli_distractor_trianglediamonds.svg	stimuli_distractor_diamondtriangles.svg	36	no	57	0	603	0	0			0	0			1				0	
6.6.1	win	2023-06-13	10:04:57	10:09:03	244320	64010f32f8dee9772983c7cd	4	1	main_z	7	main_z	7	stimuli_distractor_diamondtriangles.svg	stimuli_target_rectanglediamonds.svg	14	yes	44	1	714	0	0			0	0			1				0	
6.6.1	win	2023-06-13	10:04:57	10:09:03	244320	64010f32f8dee9772983c7cd	4	1	main_z	7	advance_on_keypress_ZEE	8	stimuli_distractor_diamondtriangles.svg	stimuli_target_rectanglediamonds.svg	14	yes	57	0	773	0	0			0	0			1				0	
6.6.1	win	2023-06-13	10:04:57	10:09:07	247740	64010f32f8dee9772983c7cd	4	1	main_z	7	main_z	9	stimuli_distractor_trianglediamonds.svg	stimuli_distractor_trianglediamonds.svg	33	no	0	1	2000	0	0			0	0			1				0	
6.6.1	win	2023-06-13	10:04:57	10:09:07	247740	64010f32f8dee9772983c7cd	4	1	main_z	7	advance_on_keypress_ZEE	10	stimuli_distractor_trianglediamonds.svg	stimuli_distractor_trianglediamonds.svg	33	no	57	0	740	0	0			0	0			1				0	
6.6.1	win	2023-06-13	10:04:57	10:09:09	249672	64010f32f8dee9772983c7cd	4	1	main_z	7	main_z	11	stimuli_distractor_diamondtriangles.svg	stimuli_target_diamondsquares.svg	32	yes	44	1	549	0	0			0	0			1				0	
6.6.1	win	2023-06-13	10:04:57	10:09:09	249672	64010f32f8dee9772983c7cd	4	1	main_z	7	advance_on_keypress_ZEE	12	stimuli_distractor_diamondtriangles.svg	stimuli_target_diamondsquares.svg	32	yes	57	0	647	0	0			0	0			1				0	
6.6.1	win	2023-06-13	10:04:57	10:09:11	252048	64010f32f8dee9772983c7cd	4	1	main_z	7	main_z	13	stimuli_target_squarediamonds.svg	stimuli_distractor_diamondtriangles.svg	8	yes	44	1	492	0	0			0	0			1				0	
6.6.1	win	2023-06-13	10:04:57	10:09:11	252048	64010f32f8dee9772983c7cd	4	1	main_z	7	advance_on_keypress_ZEE	14	stimuli_target_squarediamonds.svg	stimuli_distractor_diamondtriangles.svg	8	yes	57	0	1272	0	0			0	0			1				0	
6.6.1	win	2023-06-13	10:04:57	10:09:14	254584	64010f32f8dee9772983c7cd	4	1	main_z	7	main_z	15	stimuli_target_diamondsquares.svg	stimuli_distractor_diamondtriangles.svg	24	yes	44	1	628	0	0			0	0			1				0	
6.6.1	win	2023-06-13	10:04:57	10:09:14	254584	64010f32f8dee9772983c7cd	4	1	main_z	7	advance_on_keypress_ZEE	16	stimuli_target_diamondsquares.svg	stimuli_distractor_diamondtriangles.svg	24	yes	57	0	1251	0	0			0	0			1				0	
6.6.1	win	2023-06-13	10:04:57	10:09:16	257000	64010f32f8dee9772983c7cd	4	1	main_z	7	main_z	17	stimuli_target_trianglerectangles.svg	stimuli_distractor_trianglediamonds.svg	17	yes	44	1	527	0	0			0	0			1				0	
6.6.1	win	2023-06-13	10:04:57	10:09:16	257000	64010f32f8dee9772983c7cd	4	1	main_z	7	advance_on_keypress_ZEE	18	stimuli_target_trianglerectangles.svg	stimuli_distractor_trianglediamonds.svg	17	yes	57	0	1058	0	0			0	0			1				0	
6.6.1	win	2023-06-13	10:04:57	10:09:20	261123	64010f32f8dee9772983c7cd	4	1	main_z	7	main_z	19	stimuli_distractor_trianglediamonds.svg	stimuli_distractor_trianglediamonds.svg	34	no	0	1	2000	0	0			0	0			1				0	
6.6.1	win	2023-06-13	10:04:57	10:09:20	261123	64010f32f8dee9772983c7cd	4	1	main_z	7	advance_on_keypress_ZEE	20	stimuli_distractor_trianglediamonds.svg	stimuli_distractor_trianglediamonds.svg	34	no	57	0	741	0	0			0	0			1				0	
6.6.1	win	2023-06-13	10:04:57	10:09:22	262944	64010f32f8dee9772983c7cd	4	1	main_z	7	main_z	21	stimuli_distractor_diamondtriangles.svg	stimuli_target_diamondrectangles.svg	31	yes	44	1	438	0	0			0	0			1				0	
6.6.1	win	2023-06-13	10:04:57	10:09:22	262944	64010f32f8dee9772983c7cd	4	1	main_z	7	advance_on_keypress_ZEE	22	stimuli_distractor_diamondtriangles.svg	stimuli_target_diamondrectangles.svg	31	yes	57	0	908	0	0			0	0			1				0	
6.6.1	win	2023-06-13	10:04:57	10:09:24	264864	64010f32f8dee9772983c7cd	4	1	main_z	7	main_z	23	stimuli_distractor_diamondtriangles.svg	stimuli_target_rectangletriangles.svg	13	yes	44	1	292	0	0			0	0			1				0	
6.6.1	win	2023-06-13	10:04:57	10:09:24	264864	64010f32f8dee9772983c7cd	4	1	main_z	7	advance_on_keypress_ZEE	24	stimuli_distractor_diamondtriangles.svg	stimuli_target_rectangletriangles.svg	13	yes	57	0	1016	0	0			0	0			1				0	
6.6.1	win	2023-06-13	10:04:57	10:09:28	268523	64010f32f8dee9772983c7cd	4	1	main_z	7	main_z	25	stimuli_distractor_diamondtriangles.svg	stimuli_distractor_diamondtriangles.svg	40	no	0	1	2000	0	0			0	0			1				0	
6.6.1	win	2023-06-13	10:04:57	10:09:28	268523	64010f32f8dee9772983c7cd	4	1	main_z	7	advance_on_keypress_ZEE	26	stimuli_distractor_diamondtriangles.svg	stimuli_distractor_diamondtriangles.svg	40	no	57	0	709	0	0			0	0			1				0	
6.6.1	win	2023-06-13	10:04:57	10:09:29	270320	64010f32f8dee9772983c7cd	4	1	main_z	7	main_z	27	stimuli_target_rectanglediamonds.svg	stimuli_distractor_trianglediamonds.svg	2	yes	44	1	448	0	0			0	0			1				0	
6.6.1	win	2023-06-13	10:04:57	10:09:29	270320	64010f32f8dee9772983c7cd	4	1	main_z	7	advance_on_keypress_ZEE	28	stimuli_target_rectanglediamonds.svg	stimuli_distractor_trianglediamonds.svg	2	yes	57	0	877	0	0			0	0			1				0	
6.6.1	win	2023-06-13	10:04:57	10:09:31	272225	64010f32f8dee9772983c7cd	4	1	main_z	7	main_z	29	stimuli_distractor_trianglediamonds.svg	stimuli_target_trianglesquares.svg	26	yes	44	1	385	0	0			0	0			1				0	
6.6.1	win	2023-06-13	10:04:57	10:09:31	272225	64010f32f8dee9772983c7cd	4	1	main_z	7	advance_on_keypress_ZEE	30	stimuli_distractor_trianglediamonds.svg	stimuli_target_trianglesquares.svg	26	yes	57	0	1217	0	0			0	0			1				0	
6.6.1	win	2023-06-13	10:04:57	10:09:34	274528	64010f32f8dee9772983c7cd	4	1	main_z	7	main_z	31	stimuli_target_diamondsquares.svg	stimuli_distractor_trianglediamonds.svg	20	yes	44	1	431	0	0			0	0			1				0	
6.6.1	win	2023-06-13	10:04:57	10:09:34	274528	64010f32f8dee9772983c7cd	4	1	main_z	7	advance_on_keypress_ZEE	32	stimuli_target_diamondsquares.svg	stimuli_distractor_trianglediamonds.svg	20	yes	57	0	1109	0	0			0	0			1				0	
6.6.1	win	2023-06-13	10:04:57	10:09:36	276856	64010f32f8dee9772983c7cd	4	1	main_z	7	main_z	33	stimuli_distractor_diamondtriangles.svg	stimuli_target_trianglesquares.svg	30	yes	44	1	584	0	0			0	0			1				0	
6.6.1	win	2023-06-13	10:04:57	10:09:36	276856	64010f32f8dee9772983c7cd	4	1	main_z	7	advance_on_keypress_ZEE	34	stimuli_distractor_diamondtriangles.svg	stimuli_target_trianglesquares.svg	30	yes	57	0	1032	0	0			0	0			1				0	
6.6.1	win	2023-06-13	10:04:57	10:09:38	279000	64010f32f8dee9772983c7cd	4	1	main_z	7	main_z	35	stimuli_target_diamondrectangles.svg	stimuli_distractor_trianglediamonds.svg	19	yes	44	1	461	0	0			0	0			1				0	
6.6.1	win	2023-06-13	10:04:57	10:09:38	279000	64010f32f8dee9772983c7cd	4	1	main_z	7	advance_on_keypress_ZEE	36	stimuli_target_diamondrectangles.svg	stimuli_distractor_trianglediamonds.svg	19	yes	57	0	1091	0	0			0	0			1				0	
6.6.1	win	2023-06-13	10:04:57	10:09:40	281273	64010f32f8dee9772983c7cd	4	1	main_z	7	main_z	37	stimuli_target_trianglesquares.svg	stimuli_distractor_diamondtriangles.svg	22	yes	44	1	550	0	0			0	0			1				0	
6.6.1	win	2023-06-13	10:04:57	10:09:40	281273	64010f32f8dee9772983c7cd	4	1	main_z	7	advance_on_keypress_ZEE	38	stimuli_target_trianglesquares.svg	stimuli_distractor_diamondtriangles.svg	22	yes	57	0	1447	0	0			0	0			1				0	
6.6.1	win	2023-06-13	10:04:57	10:09:43	284088	64010f32f8dee9772983c7cd	4	1	main_z	7	main_z	39	stimuli_target_squarediamonds.svg	stimuli_distractor_trianglediamonds.svg	4	yes	44	1	399	0	0			0	0			1				0	
6.6.1	win	2023-06-13	10:04:57	10:09:43	284088	64010f32f8dee9772983c7cd	4	1	main_z	7	advance_on_keypress_ZEE	40	stimuli_target_squarediamonds.svg	stimuli_distractor_trianglediamonds.svg	4	yes	57	0	911	0	0			0	0			1				0	
6.6.1	win	2023-06-13	10:04:57	10:09:45	286025	64010f32f8dee9772983c7cd	4	1	main_z	7	main_z	41	stimuli_distractor_trianglediamonds.svg	stimuli_target_squarediamonds.svg	12	yes	44	1	385	0	0			0	0			1				0	
6.6.1	win	2023-06-13	10:04:57	10:09:45	286025	64010f32f8dee9772983c7cd	4	1	main_z	7	advance_on_keypress_ZEE	42	stimuli_distractor_trianglediamonds.svg	stimuli_target_squarediamonds.svg	12	yes	57	0	1081	0	0			0	0			1				0	
6.6.1	win	2023-06-13	10:04:57	10:09:47	288279	64010f32f8dee9772983c7cd	4	1	main_z	7	main_z	43	stimuli_distractor_trianglediamonds.svg	stimuli_target_diamondsquares.svg	28	yes	44	1	525	0	0			0	0			1				0	
6.6.1	win	2023-06-13	10:04:57	10:09:47	288279	64010f32f8dee9772983c7cd	4	1	main_z	7	advance_on_keypress_ZEE	44	stimuli_distractor_trianglediamonds.svg	stimuli_target_diamondsquares.svg	28	yes	57	0	935	0	0			0	0			1				0	
6.6.1	win	2023-06-13	10:04:57	10:09:51	292076	64010f32f8dee9772983c7cd	4	1	main_z	7	main_z	45	stimuli_distractor_diamondtriangles.svg	stimuli_distractor_trianglediamonds.svg	37	no	0	1	2000	0	0			0	0			1				0	
6.6.1	win	2023-06-13	10:04:57	10:09:51	292076	64010f32f8dee9772983c7cd	4	1	main_z	7	advance_on_keypress_ZEE	46	stimuli_distractor_diamondtriangles.svg	stimuli_distractor_trianglediamonds.svg	37	no	57	0	984	0	0			0	0			1				0	
6.6.1	win	2023-06-13	10:04:57	10:09:53	294067	64010f32f8dee9772983c7cd	4	1	main_z	7	main_z	47	stimuli_distractor_trianglediamonds.svg	stimuli_target_squaretriangles.svg	11	yes	44	1	348	0	0			0	0			1				0	
6.6.1	win	2023-06-13	10:04:57	10:09:53	294067	64010f32f8dee9772983c7cd	4	1	main_z	7	advance_on_keypress_ZEE	48	stimuli_distractor_trianglediamonds.svg	stimuli_target_squaretriangles.svg	11	yes	57	0	1440	0	0			0	0			1				0	
6.6.1	win	2023-06-13	10:04:57	10:09:56	296636	64010f32f8dee9772983c7cd	4	1	main_z	7	main_z	49	stimuli_distractor_diamondtriangles.svg	stimuli_distractor_diamondtriangles.svg	39	no	44	0	477	0	0			0	0			1				0	
6.6.1	win	2023-06-13	10:04:57	10:09:56	296636	64010f32f8dee9772983c7cd	4	1	main_z	7	advance_on_keypress_ZEE	50	stimuli_distractor_diamondtriangles.svg	stimuli_distractor_diamondtriangles.svg	39	no	57	0	9649	0	0			0	0			1				0	
6.6.1	win	2023-06-13	10:04:57	10:10:06	307424	64010f32f8dee9772983c7cd	4	1	main_z	7	main_z	51	stimuli_target_squaretriangles.svg	stimuli_distractor_diamondtriangles.svg	7	yes	44	1	486	0	0			0	0			1				0	
6.6.1	win	2023-06-13	10:04:57	10:10:06	307424	64010f32f8dee9772983c7cd	4	1	main_z	7	advance_on_keypress_ZEE	52	stimuli_target_squaretriangles.svg	stimuli_distractor_diamondtriangles.svg	7	yes	57	0	826	0	0			0	0			1				0	
6.6.1	win	2023-06-13	10:04:57	10:10:09	310040	64010f32f8dee9772983c7cd	4	1	main_z	7	main_z	53	stimuli_target_trianglesquares.svg	stimuli_distractor_trianglediamonds.svg	18	yes	44	1	335	0	0			0	0			1				0	
6.6.1	win	2023-06-13	10:04:57	10:10:09	310040	64010f32f8dee9772983c7cd	4	1	main_z	7	advance_on_keypress_ZEE	54	stimuli_target_trianglesquares.svg	stimuli_distractor_trianglediamonds.svg	18	yes	57	0	825	0	0			0	0			1				0	
6.6.1	win	2023-06-13	10:04:57	10:10:11	311926	64010f32f8dee9772983c7cd	4	1	main_z	7	main_z	55	stimuli_distractor_diamondtriangles.svg	stimuli_target_squaretriangles.svg	15	yes	44	1	415	0	0			0	0			1				0	
6.6.1	win	2023-06-13	10:04:57	10:10:11	311926	64010f32f8dee9772983c7cd	4	1	main_z	7	advance_on_keypress_ZEE	56	stimuli_distractor_diamondtriangles.svg	stimuli_target_squaretriangles.svg	15	yes	57	0	742	0	0			0	0			1				0	
6.6.1	win	2023-06-13	10:04:57	10:10:13	313631	64010f32f8dee9772983c7cd	4	1	main_z	7	main_z	57	stimuli_distractor_diamondtriangles.svg	stimuli_target_trianglerectangles.svg	29	yes	44	1	311	0	0			0	0			1				0	
6.6.1	win	2023-06-13	10:04:57	10:10:13	313631	64010f32f8dee9772983c7cd	4	1	main_z	7	advance_on_keypress_ZEE	58	stimuli_distractor_diamondtriangles.svg	stimuli_target_trianglerectangles.svg	29	yes	57	0	906	0	0			0	0			1				0	
6.6.1	win	2023-06-13	10:04:57	10:10:16	317171	64010f32f8dee9772983c7cd	4	1	main_z	7	main_z	59	stimuli_distractor_diamondtriangles.svg	stimuli_distractor_trianglediamonds.svg	38	no	0	1	2000	0	0			0	0			1				0	
6.6.1	win	2023-06-13	10:04:57	10:10:16	317171	64010f32f8dee9772983c7cd	4	1	main_z	7	advance_on_keypress_ZEE	60	stimuli_distractor_diamondtriangles.svg	stimuli_distractor_trianglediamonds.svg	38	no	57	0	460	0	0			0	0			1				0	
6.6.1	win	2023-06-13	10:04:57	10:10:18	318698	64010f32f8dee9772983c7cd	4	1	main_z	7	main_z	61	stimuli_distractor_trianglediamonds.svg	stimuli_target_trianglerectangles.svg	25	yes	44	1	425	0	0			0	0			1				0	
6.6.1	win	2023-06-13	10:04:57	10:10:18	318698	64010f32f8dee9772983c7cd	4	1	main_z	7	advance_on_keypress_ZEE	62	stimuli_distractor_trianglediamonds.svg	stimuli_target_trianglerectangles.svg	25	yes	57	0	2368	0	0			0	0			1				0	
6.6.1	win	2023-06-13	10:04:57	10:10:21	322141	64010f32f8dee9772983c7cd	4	1	main_z	7	main_z	63	stimuli_target_rectangletriangles.svg	stimuli_distractor_diamondtriangles.svg	5	yes	44	1	432	0	0			0	0			1				0	
6.6.1	win	2023-06-13	10:04:57	10:10:21	322141	64010f32f8dee9772983c7cd	4	1	main_z	7	advance_on_keypress_ZEE	64	stimuli_target_rectangletriangles.svg	stimuli_distractor_diamondtriangles.svg	5	yes	57	0	878	0	0			0	0			1				0	
6.6.1	win	2023-06-13	10:04:57	10:10:23	324237	64010f32f8dee9772983c7cd	4	1	main_z	7	main_z	65	stimuli_target_diamondrectangles.svg	stimuli_distractor_diamondtriangles.svg	23	yes	44	1	553	0	0			0	0			1				0	
6.6.1	win	2023-06-13	10:04:57	10:10:23	324237	64010f32f8dee9772983c7cd	4	1	main_z	7	advance_on_keypress_ZEE	66	stimuli_target_diamondrectangles.svg	stimuli_distractor_diamondtriangles.svg	23	yes	57	0	762	0	0			0	0			1				0	
6.6.1	win	2023-06-13	10:04:57	10:10:25	326291	64010f32f8dee9772983c7cd	4	1	main_z	7	main_z	67	stimuli_target_rectanglediamonds.svg	stimuli_distractor_diamondtriangles.svg	6	yes	44	1	374	0	0			0	0			1				0	
6.6.1	win	2023-06-13	10:04:57	10:10:25	326291	64010f32f8dee9772983c7cd	4	1	main_z	7	advance_on_keypress_ZEE	68	stimuli_target_rectanglediamonds.svg	stimuli_distractor_diamondtriangles.svg	6	yes	57	0	736	0	0			0	0			1				0	
6.6.1	win	2023-06-13	10:04:57	10:10:27	328100	64010f32f8dee9772983c7cd	4	1	main_z	7	main_z	69	stimuli_distractor_trianglediamonds.svg	stimuli_target_diamondrectangles.svg	27	yes	44	1	417	0	0			0	0			1				0	
6.6.1	win	2023-06-13	10:04:57	10:10:27	328100	64010f32f8dee9772983c7cd	4	1	main_z	7	advance_on_keypress_ZEE	70	stimuli_distractor_trianglediamonds.svg	stimuli_target_diamondrectangles.svg	27	yes	57	0	696	0	0			0	0			1				0	
6.6.1	win	2023-06-13	10:04:57	10:10:30	330852	64010f32f8dee9772983c7cd	4	1	main_z	7	main_z	71	stimuli_target_squaretriangles.svg	stimuli_distractor_trianglediamonds.svg	3	yes	44	1	869	0	0			0	0			1				0	
6.6.1	win	2023-06-13	10:04:57	10:10:30	330852	64010f32f8dee9772983c7cd	4	1	main_z	7	advance_on_keypress_ZEE	72	stimuli_target_squaretriangles.svg	stimuli_distractor_trianglediamonds.svg	3	yes	57	0	761	0	0			0	0			1				0	
6.6.1	win	2023-06-13	10:04:57	10:10:32	332804	64010f32f8dee9772983c7cd	4	1	main_z	7	main_z	73	stimuli_distractor_trianglediamonds.svg	stimuli_target_rectangletriangles.svg	9	yes	44	1	521	0	0			0	0			1				0	
6.6.1	win	2023-06-13	10:04:57	10:10:32	332804	64010f32f8dee9772983c7cd	4	1	main_z	7	advance_on_keypress_ZEE	74	stimuli_distractor_trianglediamonds.svg	stimuli_target_rectangletriangles.svg	9	yes	57	0	521	0	0			0	0			1				0	
6.6.1	win	2023-06-13	10:04:57	10:10:34	334991	64010f32f8dee9772983c7cd	4	1	main_z	7	main_z	75	stimuli_target_rectangletriangles.svg	stimuli_distractor_trianglediamonds.svg	1	yes	44	1	355	0	0			0	0			1				0	
6.6.1	win	2023-06-13	10:04:57	10:10:34	334991	64010f32f8dee9772983c7cd	4	1	main_z	7	advance_on_keypress_ZEE	76	stimuli_target_rectangletriangles.svg	stimuli_distractor_trianglediamonds.svg	1	yes	57	0	692	0	0			0	0			1				0	
6.6.1	win	2023-06-13	10:04:57	10:10:36	336875	64010f32f8dee9772983c7cd	4	1	main_z	7	main_z	77	stimuli_target_trianglerectangles.svg	stimuli_distractor_diamondtriangles.svg	21	yes	44	1	552	0	0			0	0			1				0	
6.6.1	win	2023-06-13	10:04:57	10:10:36	336875	64010f32f8dee9772983c7cd	4	1	main_z	7	advance_on_keypress_ZEE	78	stimuli_target_trianglerectangles.svg	stimuli_distractor_diamondtriangles.svg	21	yes	57	0	801	0	0			0	0			1				0	
6.6.1	win	2023-06-13	10:04:57	10:10:38	338672	64010f32f8dee9772983c7cd	4	1	main_z	7	main_z	79	stimuli_distractor_trianglediamonds.svg	stimuli_target_rectanglediamonds.svg	10	yes	44	1	352	0	0			0	0			1				0	
6.6.1	win	2023-06-13	10:04:57	10:10:38	338672	64010f32f8dee9772983c7cd	4	1	main_z	7	advance_on_keypress_ZEE	80	stimuli_distractor_trianglediamonds.svg	stimuli_target_rectanglediamonds.svg	10	yes	57	0	801	0	0			0	0			1				0	
6.6.1	win	2023-06-13	10:04:57	10:10:40	340711	64010f32f8dee9772983c7cd	4	1	main_z	7	main_z	81	stimuli_target_diamondrectangles.svg	stimuli_distractor_diamondtriangles.svg	23	yes	44	1	592	0	0			0	0			1				0	
6.6.1	win	2023-06-13	10:04:57	10:10:40	340711	64010f32f8dee9772983c7cd	4	1	main_z	7	advance_on_keypress_ZEE	82	stimuli_target_diamondrectangles.svg	stimuli_distractor_diamondtriangles.svg	23	yes	57	0	648	0	0			0	0			1				0	
6.6.1	win	2023-06-13	10:04:57	10:10:41	342424	64010f32f8dee9772983c7cd	4	1	main_z	7	main_z	83	stimuli_distractor_diamondtriangles.svg	stimuli_target_diamondrectangles.svg	31	yes	44	1	420	0	0			0	0			1				0	
6.6.1	win	2023-06-13	10:04:57	10:10:41	342424	64010f32f8dee9772983c7cd	4	1	main_z	7	advance_on_keypress_ZEE	84	stimuli_distractor_diamondtriangles.svg	stimuli_target_diamondrectangles.svg	31	yes	57	0	259	0	0			0	0			1				0	
6.6.1	win	2023-06-13	10:04:57	10:10:43	344381	64010f32f8dee9772983c7cd	4	1	main_z	7	main_z	85	stimuli_target_diamondsquares.svg	stimuli_distractor_diamondtriangles.svg	24	yes	44	1	448	0	0			0	0			1				0	
6.6.1	win	2023-06-13	10:04:57	10:10:43	344381	64010f32f8dee9772983c7cd	4	1	main_z	7	advance_on_keypress_ZEE	86	stimuli_target_diamondsquares.svg	stimuli_distractor_diamondtriangles.svg	24	yes	57	0	709	0	0			0	0			1				0	
6.6.1	win	2023-06-13	10:04:57	10:10:46	346771	64010f32f8dee9772983c7cd	4	1	main_z	7	main_z	87	stimuli_target_rectanglediamonds.svg	stimuli_distractor_trianglediamonds.svg	2	yes	44	1	390	0	0			0	0			1				0	
6.6.1	win	2023-06-13	10:04:57	10:10:46	346771	64010f32f8dee9772983c7cd	4	1	main_z	7	advance_on_keypress_ZEE	88	stimuli_target_rectanglediamonds.svg	stimuli_distractor_trianglediamonds.svg	2	yes	57	0	509	0	0			0	0			1				0	
6.6.1	win	2023-06-13	10:04:57	10:10:47	348440	64010f32f8dee9772983c7cd	4	1	main_z	7	main_z	89	stimuli_distractor_diamondtriangles.svg	stimuli_distractor_trianglediamonds.svg	37	no	44	0	520	0	0			0	0			1				0	
6.6.1	win	2023-06-13	10:04:57	10:10:47	348440	64010f32f8dee9772983c7cd	4	1	main_z	7	advance_on_keypress_ZEE	90	stimuli_distractor_diamondtriangles.svg	stimuli_distractor_trianglediamonds.svg	37	no	57	0	474	0	0			0	0			1				0	
6.6.1	win	2023-06-13	10:04:57	10:10:49	350089	64010f32f8dee9772983c7cd	4	1	main_z	7	main_z	91	stimuli_distractor_trianglediamonds.svg	stimuli_target_trianglerectangles.svg	25	yes	44	1	518	0	0			0	0			1				0	
6.6.1	win	2023-06-13	10:04:57	10:10:49	350089	64010f32f8dee9772983c7cd	4	1	main_z	7	advance_on_keypress_ZEE	92	stimuli_distractor_trianglediamonds.svg	stimuli_target_trianglerectangles.svg	25	yes	57	0	600	0	0			0	0			1				0	
6.6.1	win	2023-06-13	10:04:57	10:10:51	352320	64010f32f8dee9772983c7cd	4	1	main_z	7	main_z	93	stimuli_target_diamondrectangles.svg	stimuli_distractor_trianglediamonds.svg	19	yes	44	1	500	0	0			0	0			1				0	
6.6.1	win	2023-06-13	10:04:57	10:10:51	352320	64010f32f8dee9772983c7cd	4	1	main_z	7	advance_on_keypress_ZEE	94	stimuli_target_diamondrectangles.svg	stimuli_distractor_trianglediamonds.svg	19	yes	57	0	559	0	0			0	0			1				0	
6.6.1	win	2023-06-13	10:04:57	10:10:53	354037	64010f32f8dee9772983c7cd	4	1	main_z	7	main_z	95	stimuli_target_rectangletriangles.svg	stimuli_distractor_diamondtriangles.svg	5	yes	44	1	512	0	0			0	0			1				0	
6.6.1	win	2023-06-13	10:04:57	10:10:53	354037	64010f32f8dee9772983c7cd	4	1	main_z	7	advance_on_keypress_ZEE	96	stimuli_target_rectangletriangles.svg	stimuli_distractor_diamondtriangles.svg	5	yes	57	0	579	0	0			0	0			1				0	
6.6.1	win	2023-06-13	10:04:57	10:10:55	356360	64010f32f8dee9772983c7cd	4	1	main_z	7	main_z	97	stimuli_target_trianglerectangles.svg	stimuli_distractor_diamondtriangles.svg	21	yes	44	1	490	0	0			0	0			1				0	
6.6.1	win	2023-06-13	10:04:57	10:10:55	356360	64010f32f8dee9772983c7cd	4	1	main_z	7	advance_on_keypress_ZEE	98	stimuli_target_trianglerectangles.svg	stimuli_distractor_diamondtriangles.svg	21	yes	57	0	726	0	0			0	0			1				0	
6.6.1	win	2023-06-13	10:04:57	10:10:57	358135	64010f32f8dee9772983c7cd	4	1	main_z	7	main_z	99	stimuli_target_trianglesquares.svg	stimuli_distractor_trianglediamonds.svg	18	yes	44	1	416	0	0			0	0			1				0	
6.6.1	win	2023-06-13	10:04:57	10:10:57	358135	64010f32f8dee9772983c7cd	4	1	main_z	7	advance_on_keypress_ZEE	100	stimuli_target_trianglesquares.svg	stimuli_distractor_trianglediamonds.svg	18	yes	57	0	879	0	0			0	0			1				0	
6.6.1	win	2023-06-13	10:04:57	10:10:59	360424	64010f32f8dee9772983c7cd	4	1	main_z	7	main_z	101	stimuli_distractor_diamondtriangles.svg	stimuli_target_squarediamonds.svg	16	yes	44	1	471	0	0			0	0			1				0	
6.6.1	win	2023-06-13	10:04:57	10:10:59	360424	64010f32f8dee9772983c7cd	4	1	main_z	7	advance_on_keypress_ZEE	102	stimuli_distractor_diamondtriangles.svg	stimuli_target_squarediamonds.svg	16	yes	57	0	732	0	0			0	0			1				0	
6.6.1	win	2023-06-13	10:04:57	10:11:03	363803	64010f32f8dee9772983c7cd	4	1	main_z	7	main_z	103	stimuli_distractor_trianglediamonds.svg	stimuli_distractor_trianglediamonds.svg	33	no	0	1	2000	0	0			0	0			1				0	
6.6.1	win	2023-06-13	10:04:57	10:11:03	363803	64010f32f8dee9772983c7cd	4	1	main_z	7	advance_on_keypress_ZEE	104	stimuli_distractor_trianglediamonds.svg	stimuli_distractor_trianglediamonds.svg	33	no	57	0	756	0	0			0	0			1				0	
6.6.1	win	2023-06-13	10:04:57	10:11:05	365943	64010f32f8dee9772983c7cd	4	1	main_z	7	main_z	105	stimuli_distractor_diamondtriangles.svg	stimuli_target_squaretriangles.svg	15	yes	44	1	524	0	0			0	0			1				0	
6.6.1	win	2023-06-13	10:04:57	10:11:05	365943	64010f32f8dee9772983c7cd	4	1	main_z	7	advance_on_keypress_ZEE	106	stimuli_distractor_diamondtriangles.svg	stimuli_target_squaretriangles.svg	15	yes	57	0	663	0	0			0	0			1				0	
6.6.1	win	2023-06-13	10:04:57	10:11:07	367856	64010f32f8dee9772983c7cd	4	1	main_z	7	main_z	107	stimuli_target_diamondsquares.svg	stimuli_distractor_trianglediamonds.svg	20	yes	44	1	620	0	0			0	0			1				0	
6.6.1	win	2023-06-13	10:04:57	10:11:07	367856	64010f32f8dee9772983c7cd	4	1	main_z	7	advance_on_keypress_ZEE	108	stimuli_target_diamondsquares.svg	stimuli_distractor_trianglediamonds.svg	20	yes	57	0	546	0	0			0	0			1				0	
6.6.1	win	2023-06-13	10:04:57	10:11:09	369520	64010f32f8dee9772983c7cd	4	1	main_z	7	main_z	109	stimuli_distractor_trianglediamonds.svg	stimuli_target_rectangletriangles.svg	9	yes	44	1	484	0	0			0	0			1				0	
6.6.1	win	2023-06-13	10:04:57	10:11:09	369520	64010f32f8dee9772983c7cd	4	1	main_z	7	advance_on_keypress_ZEE	110	stimuli_distractor_trianglediamonds.svg	stimuli_target_rectangletriangles.svg	9	yes	57	0	544	0	0			0	0			1				0	
6.6.1	win	2023-06-13	10:04:57	10:11:10	371424	64010f32f8dee9772983c7cd	4	1	main_z	7	main_z	111	stimuli_distractor_diamondtriangles.svg	stimuli_target_trianglerectangles.svg	29	yes	44	1	554	0	0			0	0			1				0	
6.6.1	win	2023-06-13	10:04:57	10:11:10	371424	64010f32f8dee9772983c7cd	4	1	main_z	7	advance_on_keypress_ZEE	112	stimuli_distractor_diamondtriangles.svg	stimuli_target_trianglerectangles.svg	29	yes	57	0	388	0	0			0	0			1				0	
6.6.1	win	2023-06-13	10:04:57	10:11:12	373109	64010f32f8dee9772983c7cd	4	1	main_z	7	main_z	113	stimuli_distractor_diamondtriangles.svg	stimuli_target_diamondsquares.svg	32	yes	44	1	643	0	0			0	0			1				0	
6.6.1	win	2023-06-13	10:04:57	10:11:12	373109	64010f32f8dee9772983c7cd	4	1	main_z	7	advance_on_keypress_ZEE	114	stimuli_distractor_diamondtriangles.svg	stimuli_target_diamondsquares.svg	32	yes	57	0	497	0	0			0	0			1				0	
6.6.1	win	2023-06-13	10:04:57	10:11:14	374712	64010f32f8dee9772983c7cd	4	1	main_z	7	main_z	115	stimuli_target_squaretriangles.svg	stimuli_distractor_diamondtriangles.svg	7	yes	44	1	459	0	0			0	0			1				0	
6.6.1	win	2023-06-13	10:04:57	10:11:14	374712	64010f32f8dee9772983c7cd	4	1	main_z	7	advance_on_keypress_ZEE	116	stimuli_target_squaretriangles.svg	stimuli_distractor_diamondtriangles.svg	7	yes	57	0	481	0	0			0	0			1				0	
6.6.1	win	2023-06-13	10:04:57	10:11:15	376301	64010f32f8dee9772983c7cd	4	1	main_z	7	main_z	117	stimuli_distractor_trianglediamonds.svg	stimuli_target_squaretriangles.svg	11	yes	44	1	477	0	0			0	0			1				0	
6.6.1	win	2023-06-13	10:04:57	10:11:15	376301	64010f32f8dee9772983c7cd	4	1	main_z	7	advance_on_keypress_ZEE	118	stimuli_distractor_trianglediamonds.svg	stimuli_target_squaretriangles.svg	11	yes	57	0	385	0	0			0	0			1				0	
6.6.1	win	2023-06-13	10:04:57	10:11:17	377763	64010f32f8dee9772983c7cd	4	1	main_z	7	main_z	119	stimuli_distractor_trianglediamonds.svg	stimuli_target_rectanglediamonds.svg	10	yes	44	1	416	0	0			0	0			1				0	
6.6.1	win	2023-06-13	10:04:57	10:11:17	377763	64010f32f8dee9772983c7cd	4	1	main_z	7	advance_on_keypress_ZEE	120	stimuli_distractor_trianglediamonds.svg	stimuli_target_rectanglediamonds.svg	10	yes	57	0	327	0	0			0	0			1				0	
6.6.1	win	2023-06-13	10:04:57	10:11:18	379385	64010f32f8dee9772983c7cd	4	1	main_z	7	main_z	121	stimuli_distractor_diamondtriangles.svg	stimuli_target_trianglesquares.svg	30	yes	44	1	648	0	0			0	0			1				0	
6.6.1	win	2023-06-13	10:04:57	10:11:18	379385	64010f32f8dee9772983c7cd	4	1	main_z	7	advance_on_keypress_ZEE	122	stimuli_distractor_diamondtriangles.svg	stimuli_target_trianglesquares.svg	30	yes	57	0	277	0	0			0	0			1				0	
6.6.1	win	2023-06-13	10:04:57	10:11:21	382303	64010f32f8dee9772983c7cd	4	1	main_z	7	main_z	123	stimuli_distractor_diamondtriangles.svg	stimuli_distractor_trianglediamonds.svg	38	no	0	1	2000	0	0			0	0			1				0	
6.6.1	win	2023-06-13	10:04:57	10:11:21	382303	64010f32f8dee9772983c7cd	4	1	main_z	7	advance_on_keypress_ZEE	124	stimuli_distractor_diamondtriangles.svg	stimuli_distractor_trianglediamonds.svg	38	no	57	0	1121	0	0			0	0			1				0	
6.6.1	win	2023-06-13	10:04:57	10:11:24	384498	64010f32f8dee9772983c7cd	4	1	main_z	7	main_z	125	stimuli_distractor_trianglediamonds.svg	stimuli_target_diamondrectangles.svg	27	yes	44	1	419	0	0			0	0			1				0	
6.6.1	win	2023-06-13	10:04:57	10:11:24	384498	64010f32f8dee9772983c7cd	4	1	main_z	7	advance_on_keypress_ZEE	126	stimuli_distractor_trianglediamonds.svg	stimuli_target_diamondrectangles.svg	27	yes	57	0	426	0	0			0	0			1				0	
6.6.1	win	2023-06-13	10:04:57	10:11:25	386089	64010f32f8dee9772983c7cd	4	1	main_z	7	main_z	127	stimuli_distractor_trianglediamonds.svg	stimuli_target_trianglesquares.svg	26	yes	44	1	519	0	0			0	0			1				0	
6.6.1	win	2023-06-13	10:04:57	10:11:25	386089	64010f32f8dee9772983c7cd	4	1	main_z	7	advance_on_keypress_ZEE	128	stimuli_distractor_trianglediamonds.svg	stimuli_target_trianglesquares.svg	26	yes	57	0	27	0	0			0	0			1				0	
6.6.1	win	2023-06-13	10:04:57	10:11:27	387616	64010f32f8dee9772983c7cd	4	1	main_z	7	main_z	129	stimuli_target_trianglerectangles.svg	stimuli_distractor_trianglediamonds.svg	17	yes	44	1	313	0	0			0	0			1				0	
6.6.1	win	2023-06-13	10:04:57	10:11:27	387616	64010f32f8dee9772983c7cd	4	1	main_z	7	advance_on_keypress_ZEE	130	stimuli_target_trianglerectangles.svg	stimuli_distractor_trianglediamonds.svg	17	yes	57	0	564	0	0			0	0			1				0	
6.6.1	win	2023-06-13	10:04:57	10:11:28	389202	64010f32f8dee9772983c7cd	4	1	main_z	7	main_z	131	stimuli_distractor_trianglediamonds.svg	stimuli_distractor_diamondtriangles.svg	35	no	44	0	373	0	0			0	0			1				0	
6.6.1	win	2023-06-13	10:04:57	10:11:28	389202	64010f32f8dee9772983c7cd	4	1	main_z	7	advance_on_keypress_ZEE	132	stimuli_distractor_trianglediamonds.svg	stimuli_distractor_diamondtriangles.svg	35	no	57	0	606	0	0			0	0			1				0	
6.6.1	win	2023-06-13	10:04:57	10:11:30	391166	64010f32f8dee9772983c7cd	4	1	main_z	7	main_z	133	stimuli_distractor_trianglediamonds.svg	stimuli_target_diamondsquares.svg	28	yes	44	1	550	0	0			0	0			1				0	
6.6.1	win	2023-06-13	10:04:57	10:11:30	391166	64010f32f8dee9772983c7cd	4	1	main_z	7	advance_on_keypress_ZEE	134	stimuli_distractor_trianglediamonds.svg	stimuli_target_diamondsquares.svg	28	yes	57	0	551	0	0			0	0			1				0	
6.6.1	win	2023-06-13	10:04:57	10:11:32	392895	64010f32f8dee9772983c7cd	4	1	main_z	7	main_z	135	stimuli_target_rectangletriangles.svg	stimuli_distractor_trianglediamonds.svg	1	yes	44	1	528	0	0			0	0			1				0	
6.6.1	win	2023-06-13	10:04:57	10:11:32	392895	64010f32f8dee9772983c7cd	4	1	main_z	7	advance_on_keypress_ZEE	136	stimuli_target_rectangletriangles.svg	stimuli_distractor_trianglediamonds.svg	1	yes	57	0	418	0	0			0	0			1				0	
6.6.1	win	2023-06-13	10:04:57	10:11:33	394343	64010f32f8dee9772983c7cd	4	1	main_z	7	main_z	137	stimuli_target_squaretriangles.svg	stimuli_distractor_trianglediamonds.svg	3	yes	44	1	391	0	0			0	0			1				0	
6.6.1	win	2023-06-13	10:04:57	10:11:33	394343	64010f32f8dee9772983c7cd	4	1	main_z	7	advance_on_keypress_ZEE	138	stimuli_target_squaretriangles.svg	stimuli_distractor_trianglediamonds.svg	3	yes	57	0	358	0	0			0	0			1				0	
6.6.1	win	2023-06-13	10:04:57	10:11:35	396213	64010f32f8dee9772983c7cd	4	1	main_z	7	main_z	139	stimuli_target_squarediamonds.svg	stimuli_distractor_trianglediamonds.svg	4	yes	44	1	422	0	0			0	0			1				0	
6.6.1	win	2023-06-13	10:04:57	10:11:35	396213	64010f32f8dee9772983c7cd	4	1	main_z	7	advance_on_keypress_ZEE	140	stimuli_target_squarediamonds.svg	stimuli_distractor_trianglediamonds.svg	4	yes	57	0	492	0	0			0	0			1				0	
6.6.1	win	2023-06-13	10:04:57	10:11:37	397835	64010f32f8dee9772983c7cd	4	1	main_z	7	main_z	141	stimuli_distractor_diamondtriangles.svg	stimuli_target_rectanglediamonds.svg	14	yes	44	1	472	0	0			0	0			1				0	
6.6.1	win	2023-06-13	10:04:57	10:11:37	397835	64010f32f8dee9772983c7cd	4	1	main_z	7	advance_on_keypress_ZEE	142	stimuli_distractor_diamondtriangles.svg	stimuli_target_rectanglediamonds.svg	14	yes	57	0	460	0	0			0	0			1				0	
6.6.1	win	2023-06-13	10:04:57	10:11:38	399376	64010f32f8dee9772983c7cd	4	1	main_z	7	main_z	143	stimuli_target_trianglesquares.svg	stimuli_distractor_diamondtriangles.svg	22	yes	44	1	423	0	0			0	0			1				0	
6.6.1	win	2023-06-13	10:04:57	10:11:38	399376	64010f32f8dee9772983c7cd	4	1	main_z	7	advance_on_keypress_ZEE	144	stimuli_target_trianglesquares.svg	stimuli_distractor_diamondtriangles.svg	22	yes	57	0	438	0	0			0	0			1				0	
6.6.1	win	2023-06-13	10:04:57	10:11:42	402469	64010f32f8dee9772983c7cd	4	1	main_z	7	main_z	145	stimuli_distractor_diamondtriangles.svg	stimuli_distractor_diamondtriangles.svg	39	no	0	1	2000	0	0			0	0			1				0	
6.6.1	win	2023-06-13	10:04:57	10:11:42	402469	64010f32f8dee9772983c7cd	4	1	main_z	7	advance_on_keypress_ZEE	146	stimuli_distractor_diamondtriangles.svg	stimuli_distractor_diamondtriangles.svg	39	no	57	0	611	0	0			0	0			1				0	
6.6.1	win	2023-06-13	10:04:57	10:11:43	404215	64010f32f8dee9772983c7cd	4	1	main_z	7	main_z	147	stimuli_distractor_trianglediamonds.svg	stimuli_distractor_diamondtriangles.svg	36	no	44	0	497	0	0			0	0			1				0	
6.6.1	win	2023-06-13	10:04:57	10:11:43	404215	64010f32f8dee9772983c7cd	4	1	main_z	7	advance_on_keypress_ZEE	148	stimuli_distractor_trianglediamonds.svg	stimuli_distractor_diamondtriangles.svg	36	no	57	0	485	0	0			0	0			1				0	
6.6.1	win	2023-06-13	10:04:57	10:11:46	407335	64010f32f8dee9772983c7cd	4	1	main_z	7	main_z	149	stimuli_distractor_trianglediamonds.svg	stimuli_distractor_trianglediamonds.svg	34	no	0	1	2000	0	0			0	0			1				0	
6.6.1	win	2023-06-13	10:04:57	10:11:46	407335	64010f32f8dee9772983c7cd	4	1	main_z	7	advance_on_keypress_ZEE	150	stimuli_distractor_trianglediamonds.svg	stimuli_distractor_trianglediamonds.svg	34	no	57	0	511	0	0			0	0			1				0	
6.6.1	win	2023-06-13	10:04:57	10:11:50	411052	64010f32f8dee9772983c7cd	4	1	main_z	7	main_z	151	stimuli_distractor_diamondtriangles.svg	stimuli_distractor_diamondtriangles.svg	40	no	0	1	2000	0	0			0	0			1				0	
6.6.1	win	2023-06-13	10:04:57	10:11:50	411052	64010f32f8dee9772983c7cd	4	1	main_z	7	advance_on_keypress_ZEE	152	stimuli_distractor_diamondtriangles.svg	stimuli_distractor_diamondtriangles.svg	40	no	57	0	572	0	0			0	0			1				0	
6.6.1	win	2023-06-13	10:04:57	10:11:52	412671	64010f32f8dee9772983c7cd	4	1	main_z	7	main_z	153	stimuli_distractor_diamondtriangles.svg	stimuli_target_rectangletriangles.svg	13	yes	44	1	404	0	0			0	0			1				0	
6.6.1	win	2023-06-13	10:04:57	10:11:52	412671	64010f32f8dee9772983c7cd	4	1	main_z	7	advance_on_keypress_ZEE	154	stimuli_distractor_diamondtriangles.svg	stimuli_target_rectangletriangles.svg	13	yes	57	0	690	0	0			0	0			1				0	
6.6.1	win	2023-06-13	10:04:57	10:11:54	414904	64010f32f8dee9772983c7cd	4	1	main_z	7	main_z	155	stimuli_distractor_trianglediamonds.svg	stimuli_target_squarediamonds.svg	12	yes	44	1	402	0	0			0	0			1				0	
6.6.1	win	2023-06-13	10:04:57	10:11:54	414904	64010f32f8dee9772983c7cd	4	1	main_z	7	advance_on_keypress_ZEE	156	stimuli_distractor_trianglediamonds.svg	stimuli_target_squarediamonds.svg	12	yes	57	0	409	0	0			0	0			1				0	
6.6.1	win	2023-06-13	10:04:57	10:11:55	416415	64010f32f8dee9772983c7cd	4	1	main_z	7	main_z	157	stimuli_target_rectanglediamonds.svg	stimuli_distractor_diamondtriangles.svg	6	yes	44	1	463	0	0			0	0			1				0	
6.6.1	win	2023-06-13	10:04:57	10:11:55	416415	64010f32f8dee9772983c7cd	4	1	main_z	7	advance_on_keypress_ZEE	158	stimuli_target_rectanglediamonds.svg	stimuli_distractor_diamondtriangles.svg	6	yes	57	0	206	0	0			0	0			1				0	
6.6.1	win	2023-06-13	10:04:57	10:11:57	417815	64010f32f8dee9772983c7cd	4	1	main_z	7	main_z	159	stimuli_target_squarediamonds.svg	stimuli_distractor_diamondtriangles.svg	8	yes	44	1	363	0	0			0	0			1				0	
6.6.1	win	2023-06-13	10:04:57	10:11:57	417815	64010f32f8dee9772983c7cd	4	1	main_z	7	advance_on_keypress_ZEE	160	stimuli_target_squarediamonds.svg	stimuli_distractor_diamondtriangles.svg	8	yes	57	0	420	0	0			0	0			1				0	
6.6.1	win	2023-06-13	10:04:57	10:12:23	443787	64010f32f8dee9772983c7cd	4	1	practice_slash	9	practice_slash	1	stimuli_target_squarediamonds.svg	stimuli_distractor_diamondtriangles.svg	2	yes	53	1	483	0	0			0	0			1				0	
6.6.1	win	2023-06-13	10:04:57	10:12:23	443787	64010f32f8dee9772983c7cd	4	1	practice_slash	9	advance_on_keypress_SLASH	2	stimuli_target_squarediamonds.svg	stimuli_distractor_diamondtriangles.svg	2	yes	57	0	566	0	0			0	0			1				0	
6.6.1	win	2023-06-13	10:04:57	10:12:25	446409	64010f32f8dee9772983c7cd	4	1	practice_slash	9	practice_slash	3	stimuli_target_rectanglediamonds.svg	stimuli_distractor_diamondtriangles.svg	1	yes	53	1	406	0	0			0	0			1				0	
6.6.1	win	2023-06-13	10:04:57	10:12:25	446409	64010f32f8dee9772983c7cd	4	1	practice_slash	9	advance_on_keypress_SLASH	4	stimuli_target_rectanglediamonds.svg	stimuli_distractor_diamondtriangles.svg	1	yes	57	0	437	0	0			0	0			1				0	
6.6.1	win	2023-06-13	10:04:57	10:12:28	448928	64010f32f8dee9772983c7cd	4	1	practice_slash	9	practice_slash	5	stimuli_target_rectanglediamonds.svg	stimuli_distractor_trianglediamonds.svg	4	yes	53	1	443	0	0			0	0			1				0	
6.6.1	win	2023-06-13	10:04:57	10:12:28	448928	64010f32f8dee9772983c7cd	4	1	practice_slash	9	advance_on_keypress_SLASH	6	stimuli_target_rectanglediamonds.svg	stimuli_distractor_trianglediamonds.svg	4	yes	57	0	538	0	0			0	0			1				0	
6.6.1	win	2023-06-13	10:04:57	10:12:32	453102	64010f32f8dee9772983c7cd	4	1	practice_slash	9	practice_slash	7	stimuli_distractor_trianglediamonds.svg	stimuli_distractor_diamondtriangles.svg	16	no	0	1	2000	0	0			0	0			1				0	
6.6.1	win	2023-06-13	10:04:57	10:12:32	453102	64010f32f8dee9772983c7cd	4	1	practice_slash	9	advance_on_keypress_SLASH	8	stimuli_distractor_trianglediamonds.svg	stimuli_distractor_diamondtriangles.svg	16	no	57	0	458	0	0			0	0			1				0	
6.6.1	win	2023-06-13	10:04:57	10:12:35	455585	64010f32f8dee9772983c7cd	4	1	practice_slash	9	practice_slash	9	stimuli_distractor_trianglediamonds.svg	stimuli_target_rectanglediamonds.svg	10	yes	53	1	374	0	0			0	0			1				0	
6.6.1	win	2023-06-13	10:04:57	10:12:35	455585	64010f32f8dee9772983c7cd	4	1	practice_slash	9	advance_on_keypress_SLASH	10	stimuli_distractor_trianglediamonds.svg	stimuli_target_rectanglediamonds.svg	10	yes	57	0	502	0	0			0	0			1				0	
6.6.1	win	2023-06-13	10:04:57	10:12:37	458073	64010f32f8dee9772983c7cd	4	1	practice_slash	9	practice_slash	11	stimuli_target_squarediamonds.svg	stimuli_distractor_trianglediamonds.svg	5	yes	53	1	337	0	0			0	0			1				0	
6.6.1	win	2023-06-13	10:04:57	10:12:37	458073	64010f32f8dee9772983c7cd	4	1	practice_slash	9	advance_on_keypress_SLASH	12	stimuli_target_squarediamonds.svg	stimuli_distractor_trianglediamonds.svg	5	yes	57	0	795	0	0			0	0			1				0	
6.6.1	win	2023-06-13	10:04:57	10:12:40	461145	64010f32f8dee9772983c7cd	4	1	practice_slash	9	practice_slash	13	stimuli_target_diamondsquares.svg	stimuli_distractor_trianglediamonds.svg	6	yes	53	1	642	0	0			0	0			1				0	
6.6.1	win	2023-06-13	10:04:57	10:12:40	461145	64010f32f8dee9772983c7cd	4	1	practice_slash	9	advance_on_keypress_SLASH	14	stimuli_target_diamondsquares.svg	stimuli_distractor_trianglediamonds.svg	6	yes	57	0	473	0	0			0	0			1				0	
6.6.1	win	2023-06-13	10:04:57	10:12:44	465252	64010f32f8dee9772983c7cd	4	1	practice_slash	9	practice_slash	15	stimuli_distractor_trianglediamonds.svg	stimuli_distractor_trianglediamonds.svg	15	no	0	1	2000	0	0			0	0			1				0	
6.6.1	win	2023-06-13	10:04:57	10:12:44	465252	64010f32f8dee9772983c7cd	4	1	practice_slash	9	advance_on_keypress_SLASH	16	stimuli_distractor_trianglediamonds.svg	stimuli_distractor_trianglediamonds.svg	15	no	57	0	556	0	0			0	0			1				0	
6.6.1	win	2023-06-13	10:04:57	10:12:47	467937	64010f32f8dee9772983c7cd	4	1	practice_slash	9	practice_slash	17	stimuli_distractor_trianglediamonds.svg	stimuli_target_diamondrectangles.svg	12	yes	53	1	485	0	0			0	0			1				0	
6.6.1	win	2023-06-13	10:04:57	10:12:47	467937	64010f32f8dee9772983c7cd	4	1	practice_slash	9	advance_on_keypress_SLASH	18	stimuli_distractor_trianglediamonds.svg	stimuli_target_diamondrectangles.svg	12	yes	57	0	521	0	0			0	0			1				0	
6.6.1	win	2023-06-13	10:04:57	10:12:51	472102	64010f32f8dee9772983c7cd	4	1	practice_slash	9	practice_slash	19	stimuli_distractor_diamondtriangles.svg	stimuli_distractor_trianglediamonds.svg	14	no	0	1	2000	0	0			0	0			1				0	
6.6.1	win	2023-06-13	10:04:57	10:12:51	472102	64010f32f8dee9772983c7cd	4	1	practice_slash	9	advance_on_keypress_SLASH	20	stimuli_distractor_diamondtriangles.svg	stimuli_distractor_trianglediamonds.svg	14	no	57	0	450	0	0			0	0			1				0	
6.6.1	win	2023-06-13	10:04:57	10:12:54	474521	64010f32f8dee9772983c7cd	4	1	practice_slash	9	practice_slash	21	stimuli_distractor_trianglediamonds.svg	stimuli_target_squarediamonds.svg	11	yes	53	1	319	0	0			0	0			1				0	
6.6.1	win	2023-06-13	10:04:57	10:12:54	474521	64010f32f8dee9772983c7cd	4	1	practice_slash	9	advance_on_keypress_SLASH	22	stimuli_distractor_trianglediamonds.svg	stimuli_target_squarediamonds.svg	11	yes	57	0	554	0	0			0	0			1				0	
6.6.1	win	2023-06-13	10:04:57	10:12:56	477217	64010f32f8dee9772983c7cd	4	1	practice_slash	9	practice_slash	23	stimuli_distractor_diamondtriangles.svg	stimuli_target_diamondrectangles.svg	8	yes	53	1	498	0	0			0	0			1				0	
6.6.1	win	2023-06-13	10:04:57	10:12:56	477217	64010f32f8dee9772983c7cd	4	1	practice_slash	9	advance_on_keypress_SLASH	24	stimuli_distractor_diamondtriangles.svg	stimuli_target_diamondrectangles.svg	8	yes	57	0	510	0	0			0	0			1				0	
6.6.1	win	2023-06-13	10:04:57	10:13:00	481369	64010f32f8dee9772983c7cd	4	1	practice_slash	9	practice_slash	25	stimuli_distractor_diamondtriangles.svg	stimuli_distractor_diamondtriangles.svg	13	no	0	1	2000	0	0			0	0			1				0	
6.6.1	win	2023-06-13	10:04:57	10:13:00	481369	64010f32f8dee9772983c7cd	4	1	practice_slash	9	advance_on_keypress_SLASH	26	stimuli_distractor_diamondtriangles.svg	stimuli_distractor_diamondtriangles.svg	13	no	57	0	704	0	0			0	0			1				0	
6.6.1	win	2023-06-13	10:04:57	10:13:03	484145	64010f32f8dee9772983c7cd	4	1	practice_slash	9	practice_slash	27	stimuli_distractor_diamondtriangles.svg	stimuli_target_rectangletriangles.svg	7	yes	53	1	426	0	0			0	0			1				0	
6.6.1	win	2023-06-13	10:04:57	10:13:03	484145	64010f32f8dee9772983c7cd	4	1	practice_slash	9	advance_on_keypress_SLASH	28	stimuli_distractor_diamondtriangles.svg	stimuli_target_rectangletriangles.svg	7	yes	57	0	465	0	0			0	0			1				0	
6.6.1	win	2023-06-13	10:04:57	10:13:06	486977	64010f32f8dee9772983c7cd	4	1	practice_slash	9	practice_slash	29	stimuli_distractor_diamondtriangles.svg	stimuli_target_trianglerectangles.svg	9	yes	53	1	725	0	0			0	0			1				0	
6.6.1	win	2023-06-13	10:04:57	10:13:06	486977	64010f32f8dee9772983c7cd	4	1	practice_slash	9	advance_on_keypress_SLASH	30	stimuli_distractor_diamondtriangles.svg	stimuli_target_trianglerectangles.svg	9	yes	57	0	416	0	0			0	0			1				0	
6.6.1	win	2023-06-13	10:04:57	10:13:09	489554	64010f32f8dee9772983c7cd	4	1	practice_slash	9	practice_slash	31	stimuli_target_diamondsquares.svg	stimuli_distractor_diamondtriangles.svg	3	yes	53	1	518	0	0			0	0			1				0	
6.6.1	win	2023-06-13	10:04:57	10:13:09	489554	64010f32f8dee9772983c7cd	4	1	practice_slash	9	advance_on_keypress_SLASH	32	stimuli_target_diamondsquares.svg	stimuli_distractor_diamondtriangles.svg	3	yes	57	0	521	0	0			0	0			1				0	
6.6.1	win	2023-06-13	10:04:57	10:13:15	496303	64010f32f8dee9772983c7cd	4	1	main_slash	11	main_slash	1	stimuli_distractor_diamondtriangles.svg	stimuli_target_squarediamonds.svg	16	yes	53	1	403	0	0			0	0			1				0	
6.6.1	win	2023-06-13	10:04:57	10:13:15	496303	64010f32f8dee9772983c7cd	4	1	main_slash	11	advance_on_keypress_SLASH	2	stimuli_distractor_diamondtriangles.svg	stimuli_target_squarediamonds.svg	16	yes	57	0	883	0	0			0	0			1				0	
6.6.1	win	2023-06-13	10:04:57	10:13:17	498319	64010f32f8dee9772983c7cd	4	1	main_slash	11	main_slash	3	stimuli_target_diamondsquares.svg	stimuli_distractor_diamondtriangles.svg	24	yes	53	1	486	0	0			0	0			1				0	
6.6.1	win	2023-06-13	10:04:57	10:13:17	498319	64010f32f8dee9772983c7cd	4	1	main_slash	11	advance_on_keypress_SLASH	4	stimuli_target_diamondsquares.svg	stimuli_distractor_diamondtriangles.svg	24	yes	57	0	610	0	0			0	0			1				0	
6.6.1	win	2023-06-13	10:04:57	10:13:19	500068	64010f32f8dee9772983c7cd	4	1	main_slash	11	main_slash	5	stimuli_target_diamondsquares.svg	stimuli_distractor_trianglediamonds.svg	20	yes	53	1	489	0	0			0	0			1				0	
6.6.1	win	2023-06-13	10:04:57	10:13:19	500068	64010f32f8dee9772983c7cd	4	1	main_slash	11	advance_on_keypress_SLASH	6	stimuli_target_diamondsquares.svg	stimuli_distractor_trianglediamonds.svg	20	yes	57	0	548	0	0			0	0			1				0	
6.6.1	win	2023-06-13	10:04:57	10:13:22	503266	64010f32f8dee9772983c7cd	4	1	main_slash	11	main_slash	7	stimuli_distractor_diamondtriangles.svg	stimuli_distractor_trianglediamonds.svg	37	no	0	1	2000	0	0			0	0			1				0	
6.6.1	win	2023-06-13	10:04:57	10:13:22	503266	64010f32f8dee9772983c7cd	4	1	main_slash	11	advance_on_keypress_SLASH	8	stimuli_distractor_diamondtriangles.svg	stimuli_distractor_trianglediamonds.svg	37	no	57	0	372	0	0			0	0			1				0	
6.6.1	win	2023-06-13	10:04:57	10:13:25	506283	64010f32f8dee9772983c7cd	4	1	main_slash	11	main_slash	9	stimuli_distractor_trianglediamonds.svg	stimuli_distractor_trianglediamonds.svg	33	no	0	1	2000	0	0			0	0			1				0	
6.6.1	win	2023-06-13	10:04:57	10:13:25	506283	64010f32f8dee9772983c7cd	4	1	main_slash	11	advance_on_keypress_SLASH	10	stimuli_distractor_trianglediamonds.svg	stimuli_distractor_trianglediamonds.svg	33	no	57	0	300	0	0			0	0			1				0	
6.6.1	win	2023-06-13	10:04:57	10:13:27	507718	64010f32f8dee9772983c7cd	4	1	main_slash	11	main_slash	11	stimuli_distractor_diamondtriangles.svg	stimuli_target_diamondrectangles.svg	31	yes	53	1	470	0	0			0	0			1				0	
6.6.1	win	2023-06-13	10:04:57	10:13:27	507718	64010f32f8dee9772983c7cd	4	1	main_slash	11	advance_on_keypress_SLASH	12	stimuli_distractor_diamondtriangles.svg	stimuli_target_diamondrectangles.svg	31	yes	57	0	723	0	0			0	0			1				0	
6.6.1	win	2023-06-13	10:04:57	10:13:28	509403	64010f32f8dee9772983c7cd	4	1	main_slash	11	main_slash	13	stimuli_distractor_trianglediamonds.svg	stimuli_target_rectanglediamonds.svg	10	yes	53	1	317	0	0			0	0			1				0	
6.6.1	win	2023-06-13	10:04:57	10:13:28	509403	64010f32f8dee9772983c7cd	4	1	main_slash	11	advance_on_keypress_SLASH	14	stimuli_distractor_trianglediamonds.svg	stimuli_target_rectanglediamonds.svg	10	yes	57	0	671	0	0			0	0			1				0	
6.6.1	win	2023-06-13	10:04:57	10:13:30	511086	64010f32f8dee9772983c7cd	4	1	main_slash	11	main_slash	15	stimuli_target_squaretriangles.svg	stimuli_distractor_diamondtriangles.svg	7	yes	53	1	355	0	0			0	0			1				0	
6.6.1	win	2023-06-13	10:04:57	10:13:30	511086	64010f32f8dee9772983c7cd	4	1	main_slash	11	advance_on_keypress_SLASH	16	stimuli_target_squaretriangles.svg	stimuli_distractor_diamondtriangles.svg	7	yes	57	0	644	0	0			0	0			1				0	
6.6.1	win	2023-06-13	10:04:57	10:13:32	512964	64010f32f8dee9772983c7cd	4	1	main_slash	11	main_slash	17	stimuli_distractor_trianglediamonds.svg	stimuli_target_trianglerectangles.svg	25	yes	53	1	585	0	0			0	0			1				0	
6.6.1	win	2023-06-13	10:04:57	10:13:32	512964	64010f32f8dee9772983c7cd	4	1	main_slash	11	advance_on_keypress_SLASH	18	stimuli_distractor_trianglediamonds.svg	stimuli_target_trianglerectangles.svg	25	yes	57	0	553	0	0			0	0			1				0	
6.6.1	win	2023-06-13	10:04:57	10:13:34	515368	64010f32f8dee9772983c7cd	4	1	main_slash	11	main_slash	19	stimuli_distractor_trianglediamonds.svg	stimuli_target_rectangletriangles.svg	9	yes	53	1	1201	0	0			0	0			1				0	
6.6.1	win	2023-06-13	10:04:57	10:13:34	515368	64010f32f8dee9772983c7cd	4	1	main_slash	11	advance_on_keypress_SLASH	20	stimuli_distractor_trianglediamonds.svg	stimuli_target_rectangletriangles.svg	9	yes	57	0	529	0	0			0	0			1				0	
6.6.1	win	2023-06-13	10:04:57	10:13:36	516964	64010f32f8dee9772983c7cd	4	1	main_slash	11	main_slash	21	stimuli_target_rectanglediamonds.svg	stimuli_distractor_diamondtriangles.svg	6	yes	53	1	419	0	0			0	0			1				0	
6.6.1	win	2023-06-13	10:04:57	10:13:36	516964	64010f32f8dee9772983c7cd	4	1	main_slash	11	advance_on_keypress_SLASH	22	stimuli_target_rectanglediamonds.svg	stimuli_distractor_diamondtriangles.svg	6	yes	57	0	513	0	0			0	0			1				0	
6.6.1	win	2023-06-13	10:04:57	10:13:38	518521	64010f32f8dee9772983c7cd	4	1	main_slash	11	main_slash	23	stimuli_distractor_trianglediamonds.svg	stimuli_target_squaretriangles.svg	11	yes	53	1	376	0	0			0	0			1				0	
6.6.1	win	2023-06-13	10:04:57	10:13:38	518521	64010f32f8dee9772983c7cd	4	1	main_slash	11	advance_on_keypress_SLASH	24	stimuli_distractor_trianglediamonds.svg	stimuli_target_squaretriangles.svg	11	yes	57	0	483	0	0			0	0			1				0	
6.6.1	win	2023-06-13	10:04:57	10:13:39	520127	64010f32f8dee9772983c7cd	4	1	main_slash	11	main_slash	25	stimuli_target_rectangletriangles.svg	stimuli_distractor_trianglediamonds.svg	1	yes	53	1	478	0	0			0	0			1				0	
6.6.1	win	2023-06-13	10:04:57	10:13:39	520127	64010f32f8dee9772983c7cd	4	1	main_slash	11	advance_on_keypress_SLASH	26	stimuli_target_rectangletriangles.svg	stimuli_distractor_trianglediamonds.svg	1	yes	57	0	563	0	0			0	0			1				0	
6.6.1	win	2023-06-13	10:04:57	10:13:41	521655	64010f32f8dee9772983c7cd	4	1	main_slash	11	main_slash	27	stimuli_distractor_trianglediamonds.svg	stimuli_target_squarediamonds.svg	12	yes	53	1	340	0	0			0	0			1				0	
6.6.1	win	2023-06-13	10:04:57	10:13:41	521655	64010f32f8dee9772983c7cd	4	1	main_slash	11	advance_on_keypress_SLASH	28	stimuli_distractor_trianglediamonds.svg	stimuli_target_squarediamonds.svg	12	yes	57	0	518	0	0			0	0			1				0	
6.6.1	win	2023-06-13	10:04:57	10:13:42	523455	64010f32f8dee9772983c7cd	4	1	main_slash	11	main_slash	29	stimuli_distractor_trianglediamonds.svg	stimuli_target_diamondrectangles.svg	27	yes	53	1	639	0	0			0	0			1				0	
6.6.1	win	2023-06-13	10:04:57	10:13:42	523455	64010f32f8dee9772983c7cd	4	1	main_slash	11	advance_on_keypress_SLASH	30	stimuli_distractor_trianglediamonds.svg	stimuli_target_diamondrectangles.svg	27	yes	57	0	462	0	0			0	0			1				0	
6.6.1	win	2023-06-13	10:04:57	10:13:44	524999	64010f32f8dee9772983c7cd	4	1	main_slash	11	main_slash	31	stimuli_target_rectangletriangles.svg	stimuli_distractor_diamondtriangles.svg	5	yes	53	1	442	0	0			0	0			1				0	
6.6.1	win	2023-06-13	10:04:57	10:13:44	524999	64010f32f8dee9772983c7cd	4	1	main_slash	11	advance_on_keypress_SLASH	32	stimuli_target_rectangletriangles.svg	stimuli_distractor_diamondtriangles.svg	5	yes	57	0	456	0	0			0	0			1				0	
6.6.1	win	2023-06-13	10:04:57	10:13:47	528099	64010f32f8dee9772983c7cd	4	1	main_slash	11	main_slash	33	stimuli_distractor_trianglediamonds.svg	stimuli_distractor_diamondtriangles.svg	35	no	0	1	2000	0	0			0	0			1				0	
6.6.1	win	2023-06-13	10:04:57	10:13:47	528099	64010f32f8dee9772983c7cd	4	1	main_slash	11	advance_on_keypress_SLASH	34	stimuli_distractor_trianglediamonds.svg	stimuli_distractor_diamondtriangles.svg	35	no	57	0	436	0	0			0	0			1				0	
6.6.1	win	2023-06-13	10:04:57	10:13:49	529681	64010f32f8dee9772983c7cd	4	1	main_slash	11	main_slash	35	stimuli_distractor_diamondtriangles.svg	stimuli_target_trianglerectangles.svg	29	yes	53	1	497	0	0			0	0			1				0	
6.6.1	win	2023-06-13	10:04:57	10:13:49	529681	64010f32f8dee9772983c7cd	4	1	main_slash	11	advance_on_keypress_SLASH	36	stimuli_distractor_diamondtriangles.svg	stimuli_target_trianglerectangles.svg	29	yes	57	0	644	0	0			0	0			1				0	
6.6.1	win	2023-06-13	10:04:57	10:13:51	531463	64010f32f8dee9772983c7cd	4	1	main_slash	11	main_slash	37	stimuli_distractor_trianglediamonds.svg	stimuli_distractor_diamondtriangles.svg	36	no	53	0	498	0	0			0	0			1				0	
6.6.1	win	2023-06-13	10:04:57	10:13:51	531463	64010f32f8dee9772983c7cd	4	1	main_slash	11	advance_on_keypress_SLASH	38	stimuli_distractor_trianglediamonds.svg	stimuli_distractor_diamondtriangles.svg	36	no	57	0	477	0	0			0	0			1				0	
6.6.1	win	2023-06-13	10:04:57	10:13:52	533056	64010f32f8dee9772983c7cd	4	1	main_slash	11	main_slash	39	stimuli_distractor_diamondtriangles.svg	stimuli_target_squaretriangles.svg	15	yes	53	1	465	0	0			0	0			1				0	
6.6.1	win	2023-06-13	10:04:57	10:13:52	533056	64010f32f8dee9772983c7cd	4	1	main_slash	11	advance_on_keypress_SLASH	40	stimuli_distractor_diamondtriangles.svg	stimuli_target_squaretriangles.svg	15	yes	57	0	487	0	0			0	0			1				0	
6.6.1	win	2023-06-13	10:04:57	10:13:55	536182	64010f32f8dee9772983c7cd	4	1	main_slash	11	main_slash	41	stimuli_distractor_diamondtriangles.svg	stimuli_distractor_trianglediamonds.svg	38	no	0	1	2000	0	0			0	0			1				0	
6.6.1	win	2023-06-13	10:04:57	10:13:55	536182	64010f32f8dee9772983c7cd	4	1	main_slash	11	advance_on_keypress_SLASH	42	stimuli_distractor_diamondtriangles.svg	stimuli_distractor_trianglediamonds.svg	38	no	57	0	441	0	0			0	0			1				0	
6.6.1	win	2023-06-13	10:04:57	10:13:57	537711	64010f32f8dee9772983c7cd	4	1	main_slash	11	main_slash	43	stimuli_target_diamondrectangles.svg	stimuli_distractor_trianglediamonds.svg	19	yes	53	1	446	0	0			0	0			1				0	
6.6.1	win	2023-06-13	10:04:57	10:13:57	537711	64010f32f8dee9772983c7cd	4	1	main_slash	11	advance_on_keypress_SLASH	44	stimuli_target_diamondrectangles.svg	stimuli_distractor_trianglediamonds.svg	19	yes	57	0	924	0	0			0	0			1				0	
6.6.1	win	2023-06-13	10:04:57	10:14:00	541272	64010f32f8dee9772983c7cd	4	1	main_slash	11	main_slash	45	stimuli_distractor_diamondtriangles.svg	stimuli_distractor_diamondtriangles.svg	39	no	0	1	2000	0	0			0	0			1				0	
6.6.1	win	2023-06-13	10:04:57	10:14:00	541272	64010f32f8dee9772983c7cd	4	1	main_slash	11	advance_on_keypress_SLASH	46	stimuli_distractor_diamondtriangles.svg	stimuli_distractor_diamondtriangles.svg	39	no	57	0	461	0	0			0	0			1				0	
6.6.1	win	2023-06-13	10:04:57	10:14:02	542770	64010f32f8dee9772983c7cd	4	1	main_slash	11	main_slash	47	stimuli_distractor_diamondtriangles.svg	stimuli_target_diamondsquares.svg	32	yes	53	1	385	0	0			0	0			1				0	
6.6.1	win	2023-06-13	10:04:57	10:14:02	542770	64010f32f8dee9772983c7cd	4	1	main_slash	11	advance_on_keypress_SLASH	48	stimuli_distractor_diamondtriangles.svg	stimuli_target_diamondsquares.svg	32	yes	57	0	625	0	0			0	0			1				0	
6.6.1	win	2023-06-13	10:04:57	10:14:03	544453	64010f32f8dee9772983c7cd	4	1	main_slash	11	main_slash	49	stimuli_target_trianglesquares.svg	stimuli_distractor_diamondtriangles.svg	22	yes	53	1	399	0	0			0	0			1				0	
6.6.1	win	2023-06-13	10:04:57	10:14:03	544453	64010f32f8dee9772983c7cd	4	1	main_slash	11	advance_on_keypress_SLASH	50	stimuli_target_trianglesquares.svg	stimuli_distractor_diamondtriangles.svg	22	yes	57	0	590	0	0			0	0			1				0	
6.6.1	win	2023-06-13	10:04:57	10:14:05	546247	64010f32f8dee9772983c7cd	4	1	main_slash	11	main_slash	51	stimuli_target_diamondrectangles.svg	stimuli_distractor_diamondtriangles.svg	23	yes	53	1	549	0	0			0	0			1				0	
6.6.1	win	2023-06-13	10:04:57	10:14:05	546247	64010f32f8dee9772983c7cd	4	1	main_slash	11	advance_on_keypress_SLASH	52	stimuli_target_diamondrectangles.svg	stimuli_distractor_diamondtriangles.svg	23	yes	57	0	502	0	0			0	0			1				0	
6.6.1	win	2023-06-13	10:04:57	10:14:07	548013	64010f32f8dee9772983c7cd	4	1	main_slash	11	main_slash	53	stimuli_distractor_diamondtriangles.svg	stimuli_target_trianglesquares.svg	30	yes	53	1	609	0	0			0	0			1				0	
6.6.1	win	2023-06-13	10:04:57	10:14:07	548013	64010f32f8dee9772983c7cd	4	1	main_slash	11	advance_on_keypress_SLASH	54	stimuli_distractor_diamondtriangles.svg	stimuli_target_trianglesquares.svg	30	yes	57	0	489	0	0			0	0			1				0	
6.6.1	win	2023-06-13	10:04:57	10:14:09	549719	64010f32f8dee9772983c7cd	4	1	main_slash	11	main_slash	55	stimuli_target_rectanglediamonds.svg	stimuli_distractor_trianglediamonds.svg	2	yes	53	1	554	0	0			0	0			1				0	
6.6.1	win	2023-06-13	10:04:57	10:14:09	549719	64010f32f8dee9772983c7cd	4	1	main_slash	11	advance_on_keypress_SLASH	56	stimuli_target_rectanglediamonds.svg	stimuli_distractor_trianglediamonds.svg	2	yes	57	0	3748	0	0			0	0			1				0	
6.6.1	win	2023-06-13	10:04:57	10:14:15	556114	64010f32f8dee9772983c7cd	4	1	main_slash	11	main_slash	57	stimuli_distractor_diamondtriangles.svg	stimuli_distractor_diamondtriangles.svg	40	no	0	1	2000	0	0			0	0			1				0	
6.6.1	win	2023-06-13	10:04:57	10:14:15	556114	64010f32f8dee9772983c7cd	4	1	main_slash	11	advance_on_keypress_SLASH	58	stimuli_distractor_diamondtriangles.svg	stimuli_distractor_diamondtriangles.svg	40	no	57	0	11957	0	0			0	0			1				0	
6.6.1	win	2023-06-13	10:04:57	10:14:28	569159	64010f32f8dee9772983c7cd	4	1	main_slash	11	main_slash	59	stimuli_distractor_trianglediamonds.svg	stimuli_target_diamondsquares.svg	28	yes	53	1	445	0	0			0	0			1				0	
6.6.1	win	2023-06-13	10:04:57	10:14:28	569159	64010f32f8dee9772983c7cd	4	1	main_slash	11	advance_on_keypress_SLASH	60	stimuli_distractor_trianglediamonds.svg	stimuli_target_diamondsquares.svg	28	yes	57	0	475	0	0			0	0			1				0	
6.6.1	win	2023-06-13	10:04:57	10:14:30	570695	64010f32f8dee9772983c7cd	4	1	main_slash	11	main_slash	61	stimuli_target_squarediamonds.svg	stimuli_distractor_trianglediamonds.svg	4	yes	53	1	431	0	0			0	0			1				0	
6.6.1	win	2023-06-13	10:04:57	10:14:30	570695	64010f32f8dee9772983c7cd	4	1	main_slash	11	advance_on_keypress_SLASH	62	stimuli_target_squarediamonds.svg	stimuli_distractor_trianglediamonds.svg	4	yes	57	0	381	0	0			0	0			1				0	
6.6.1	win	2023-06-13	10:04:57	10:14:31	572159	64010f32f8dee9772983c7cd	4	1	main_slash	11	main_slash	63	stimuli_distractor_diamondtriangles.svg	stimuli_target_rectanglediamonds.svg	14	yes	53	1	420	0	0			0	0			1				0	
6.6.1	win	2023-06-13	10:04:57	10:14:31	572159	64010f32f8dee9772983c7cd	4	1	main_slash	11	advance_on_keypress_SLASH	64	stimuli_distractor_diamondtriangles.svg	stimuli_target_rectanglediamonds.svg	14	yes	57	0	499	0	0			0	0			1				0	
6.6.1	win	2023-06-13	10:04:57	10:14:33	573690	64010f32f8dee9772983c7cd	4	1	main_slash	11	main_slash	65	stimuli_target_squaretriangles.svg	stimuli_distractor_trianglediamonds.svg	3	yes	53	1	382	0	0			0	0			1				0	
6.6.1	win	2023-06-13	10:04:57	10:14:33	573690	64010f32f8dee9772983c7cd	4	1	main_slash	11	advance_on_keypress_SLASH	66	stimuli_target_squaretriangles.svg	stimuli_distractor_trianglediamonds.svg	3	yes	57	0	454	0	0			0	0			1				0	
6.6.1	win	2023-06-13	10:04:57	10:14:34	575379	64010f32f8dee9772983c7cd	4	1	main_slash	11	main_slash	67	stimuli_target_trianglesquares.svg	stimuli_distractor_trianglediamonds.svg	18	yes	53	1	569	0	0			0	0			1				0	
6.6.1	win	2023-06-13	10:04:57	10:14:34	575379	64010f32f8dee9772983c7cd	4	1	main_slash	11	advance_on_keypress_SLASH	68	stimuli_target_trianglesquares.svg	stimuli_distractor_trianglediamonds.svg	18	yes	57	0	410	0	0			0	0			1				0	
6.6.1	win	2023-06-13	10:04:57	10:14:36	576855	64010f32f8dee9772983c7cd	4	1	main_slash	11	main_slash	69	stimuli_target_trianglerectangles.svg	stimuli_distractor_diamondtriangles.svg	21	yes	53	1	408	0	0			0	0			1				0	
6.6.1	win	2023-06-13	10:04:57	10:14:36	576855	64010f32f8dee9772983c7cd	4	1	main_slash	11	advance_on_keypress_SLASH	70	stimuli_target_trianglerectangles.svg	stimuli_distractor_diamondtriangles.svg	21	yes	57	0	567	0	0			0	0			1				0	
6.6.1	win	2023-06-13	10:04:57	10:14:38	578479	64010f32f8dee9772983c7cd	4	1	main_slash	11	main_slash	71	stimuli_distractor_diamondtriangles.svg	stimuli_target_rectangletriangles.svg	13	yes	53	1	415	0	0			0	0			1				0	
6.6.1	win	2023-06-13	10:04:57	10:14:38	578479	64010f32f8dee9772983c7cd	4	1	main_slash	11	advance_on_keypress_SLASH	72	stimuli_distractor_diamondtriangles.svg	stimuli_target_rectangletriangles.svg	13	yes	57	0	582	0	0			0	0			1				0	
6.6.1	win	2023-06-13	10:04:57	10:14:39	580107	64010f32f8dee9772983c7cd	4	1	main_slash	11	main_slash	73	stimuli_target_trianglerectangles.svg	stimuli_distractor_trianglediamonds.svg	17	yes	53	1	389	0	0			0	0			1				0	
6.6.1	win	2023-06-13	10:04:57	10:14:39	580107	64010f32f8dee9772983c7cd	4	1	main_slash	11	advance_on_keypress_SLASH	74	stimuli_target_trianglerectangles.svg	stimuli_distractor_trianglediamonds.svg	17	yes	57	0	581	0	0			0	0			1				0	
6.6.1	win	2023-06-13	10:04:57	10:14:41	581730	64010f32f8dee9772983c7cd	4	1	main_slash	11	main_slash	75	stimuli_target_squarediamonds.svg	stimuli_distractor_diamondtriangles.svg	8	yes	53	1	382	0	0			0	0			1				0	
6.6.1	win	2023-06-13	10:04:57	10:14:41	581730	64010f32f8dee9772983c7cd	4	1	main_slash	11	advance_on_keypress_SLASH	76	stimuli_target_squarediamonds.svg	stimuli_distractor_diamondtriangles.svg	8	yes	57	0	500	0	0			0	0			1				0	
6.6.1	win	2023-06-13	10:04:57	10:14:44	584940	64010f32f8dee9772983c7cd	4	1	main_slash	11	main_slash	77	stimuli_distractor_trianglediamonds.svg	stimuli_distractor_trianglediamonds.svg	34	no	0	1	2000	0	0			0	0			1				0	
6.6.1	win	2023-06-13	10:04:57	10:14:44	584940	64010f32f8dee9772983c7cd	4	1	main_slash	11	advance_on_keypress_SLASH	78	stimuli_distractor_trianglediamonds.svg	stimuli_distractor_trianglediamonds.svg	34	no	57	0	484	0	0			0	0			1				0	
6.6.1	win	2023-06-13	10:04:57	10:14:45	586387	64010f32f8dee9772983c7cd	4	1	main_slash	11	main_slash	79	stimuli_distractor_trianglediamonds.svg	stimuli_target_trianglesquares.svg	26	yes	53	1	319	0	0			0	0			1				0	
6.6.1	win	2023-06-13	10:04:57	10:14:45	586387	64010f32f8dee9772983c7cd	4	1	main_slash	11	advance_on_keypress_SLASH	80	stimuli_distractor_trianglediamonds.svg	stimuli_target_trianglesquares.svg	26	yes	57	0	538	0	0			0	0			1				0	
6.6.1	win	2023-06-13	10:04:57	10:14:47	587902	64010f32f8dee9772983c7cd	4	1	main_slash	11	main_slash	81	stimuli_target_rectangletriangles.svg	stimuli_distractor_trianglediamonds.svg	1	yes	53	1	331	0	0			0	0			1				0	
6.6.1	win	2023-06-13	10:04:57	10:14:47	587902	64010f32f8dee9772983c7cd	4	1	main_slash	11	advance_on_keypress_SLASH	82	stimuli_target_rectangletriangles.svg	stimuli_distractor_trianglediamonds.svg	1	yes	57	0	517	0	0			0	0			1				0	
6.6.1	win	2023-06-13	10:04:57	10:14:48	589288	64010f32f8dee9772983c7cd	4	1	main_slash	11	main_slash	83	stimuli_distractor_diamondtriangles.svg	stimuli_target_rectangletriangles.svg	13	yes	53	1	223	0	0			0	0			1				0	
6.6.1	win	2023-06-13	10:04:57	10:14:48	589288	64010f32f8dee9772983c7cd	4	1	main_slash	11	advance_on_keypress_SLASH	84	stimuli_distractor_diamondtriangles.svg	stimuli_target_rectangletriangles.svg	13	yes	57	0	725	0	0			0	0			1				0	
6.6.1	win	2023-06-13	10:04:57	10:14:50	590990	64010f32f8dee9772983c7cd	4	1	main_slash	11	main_slash	85	stimuli_distractor_trianglediamonds.svg	stimuli_target_trianglerectangles.svg	25	yes	53	1	311	0	0			0	0			1				0	
6.6.1	win	2023-06-13	10:04:57	10:14:50	590990	64010f32f8dee9772983c7cd	4	1	main_slash	11	advance_on_keypress_SLASH	86	stimuli_distractor_trianglediamonds.svg	stimuli_target_trianglerectangles.svg	25	yes	57	0	562	0	0			0	0			1				0	
6.6.1	win	2023-06-13	10:04:57	10:14:52	592549	64010f32f8dee9772983c7cd	4	1	main_slash	11	main_slash	87	stimuli_distractor_diamondtriangles.svg	stimuli_target_squaretriangles.svg	15	yes	53	1	346	0	0			0	0			1				0	
6.6.1	win	2023-06-13	10:04:57	10:14:52	592549	64010f32f8dee9772983c7cd	4	1	main_slash	11	advance_on_keypress_SLASH	88	stimuli_distractor_diamondtriangles.svg	stimuli_target_squaretriangles.svg	15	yes	57	0	1235	0	0			0	0			1				0	
6.6.1	win	2023-06-13	10:04:57	10:14:54	594849	64010f32f8dee9772983c7cd	4	1	main_slash	11	main_slash	89	stimuli_distractor_trianglediamonds.svg	stimuli_target_trianglesquares.svg	26	yes	53	1	417	0	0			0	0			1				0	
6.6.1	win	2023-06-13	10:04:57	10:14:54	594849	64010f32f8dee9772983c7cd	4	1	main_slash	11	advance_on_keypress_SLASH	90	stimuli_distractor_trianglediamonds.svg	stimuli_target_trianglesquares.svg	26	yes	57	0	480	0	0			0	0			1				0	
6.6.1	win	2023-06-13	10:04:57	10:14:55	596295	64010f32f8dee9772983c7cd	4	1	main_slash	11	main_slash	91	stimuli_target_rectangletriangles.svg	stimuli_distractor_diamondtriangles.svg	5	yes	53	1	332	0	0			0	0			1				0	
6.6.1	win	2023-06-13	10:04:57	10:14:55	596295	64010f32f8dee9772983c7cd	4	1	main_slash	11	advance_on_keypress_SLASH	92	stimuli_target_rectangletriangles.svg	stimuli_distractor_diamondtriangles.svg	5	yes	57	0	494	0	0			0	0			1				0	
6.6.1	win	2023-06-13	10:04:57	10:14:58	599430	64010f32f8dee9772983c7cd	4	1	main_slash	11	main_slash	93	stimuli_distractor_trianglediamonds.svg	stimuli_distractor_diamondtriangles.svg	36	no	0	1	2000	0	0			0	0			1				0	
6.6.1	win	2023-06-13	10:04:57	10:14:58	599430	64010f32f8dee9772983c7cd	4	1	main_slash	11	advance_on_keypress_SLASH	94	stimuli_distractor_trianglediamonds.svg	stimuli_distractor_diamondtriangles.svg	36	no	57	0	424	0	0			0	0			1				0	
6.6.1	win	2023-06-13	10:04:57	10:15:00	600881	64010f32f8dee9772983c7cd	4	1	main_slash	11	main_slash	95	stimuli_target_trianglesquares.svg	stimuli_distractor_diamondtriangles.svg	22	yes	53	1	374	0	0			0	0			1				0	
6.6.1	win	2023-06-13	10:04:57	10:15:00	600881	64010f32f8dee9772983c7cd	4	1	main_slash	11	advance_on_keypress_SLASH	96	stimuli_target_trianglesquares.svg	stimuli_distractor_diamondtriangles.svg	22	yes	57	0	486	0	0			0	0			1				0	
6.6.1	win	2023-06-13	10:04:57	10:15:01	602360	64010f32f8dee9772983c7cd	4	1	main_slash	11	main_slash	97	stimuli_distractor_diamondtriangles.svg	stimuli_distractor_trianglediamonds.svg	38	no	53	0	346	0	0			0	0			1				0	
6.6.1	win	2023-06-13	10:04:57	10:15:01	602360	64010f32f8dee9772983c7cd	4	1	main_slash	11	advance_on_keypress_SLASH	98	stimuli_distractor_diamondtriangles.svg	stimuli_distractor_trianglediamonds.svg	38	no	57	0	756	0	0			0	0			1				0	
6.6.1	win	2023-06-13	10:04:57	10:15:03	604231	64010f32f8dee9772983c7cd	4	1	main_slash	11	main_slash	99	stimuli_target_diamondsquares.svg	stimuli_distractor_trianglediamonds.svg	20	yes	53	1	468	0	0			0	0			1				0	
6.6.1	win	2023-06-13	10:04:57	10:15:03	604231	64010f32f8dee9772983c7cd	4	1	main_slash	11	advance_on_keypress_SLASH	100	stimuli_target_diamondsquares.svg	stimuli_distractor_trianglediamonds.svg	20	yes	57	0	549	0	0			0	0			1				0	
6.6.1	win	2023-06-13	10:04:57	10:15:05	605986	64010f32f8dee9772983c7cd	4	1	main_slash	11	main_slash	101	stimuli_target_rectanglediamonds.svg	stimuli_distractor_diamondtriangles.svg	6	yes	53	1	470	0	0			0	0			1				0	
6.6.1	win	2023-06-13	10:04:57	10:15:05	605986	64010f32f8dee9772983c7cd	4	1	main_slash	11	advance_on_keypress_SLASH	102	stimuli_target_rectanglediamonds.svg	stimuli_distractor_diamondtriangles.svg	6	yes	57	0	554	0	0			0	0			1				0	
6.6.1	win	2023-06-13	10:04:57	10:15:07	607623	64010f32f8dee9772983c7cd	4	1	main_slash	11	main_slash	103	stimuli_distractor_diamondtriangles.svg	stimuli_target_squarediamonds.svg	16	yes	53	1	427	0	0			0	0			1				0	
6.6.1	win	2023-06-13	10:04:57	10:15:07	607623	64010f32f8dee9772983c7cd	4	1	main_slash	11	advance_on_keypress_SLASH	104	stimuli_distractor_diamondtriangles.svg	stimuli_target_squarediamonds.svg	16	yes	57	0	521	0	0			0	0			1				0	
6.6.1	win	2023-06-13	10:04:57	10:15:08	609087	64010f32f8dee9772983c7cd	4	1	main_slash	11	main_slash	105	stimuli_target_squarediamonds.svg	stimuli_distractor_trianglediamonds.svg	4	yes	53	1	275	0	0			0	0			1				0	
6.6.1	win	2023-06-13	10:04:57	10:15:08	609087	64010f32f8dee9772983c7cd	4	1	main_slash	11	advance_on_keypress_SLASH	106	stimuli_target_squarediamonds.svg	stimuli_distractor_trianglediamonds.svg	4	yes	57	0	591	0	0			0	0			1				0	
6.6.1	win	2023-06-13	10:04:57	10:15:10	610679	64010f32f8dee9772983c7cd	4	1	main_slash	11	main_slash	107	stimuli_distractor_trianglediamonds.svg	stimuli_target_rectangletriangles.svg	9	yes	53	1	349	0	0			0	0			1				0	
6.6.1	win	2023-06-13	10:04:57	10:15:10	610679	64010f32f8dee9772983c7cd	4	1	main_slash	11	advance_on_keypress_SLASH	108	stimuli_distractor_trianglediamonds.svg	stimuli_target_rectangletriangles.svg	9	yes	57	0	535	0	0			0	0			1				0	
6.6.1	win	2023-06-13	10:04:57	10:15:11	612109	64010f32f8dee9772983c7cd	4	1	main_slash	11	main_slash	109	stimuli_distractor_diamondtriangles.svg	stimuli_target_diamondsquares.svg	32	yes	53	1	232	0	0			0	0			1				0	
6.6.1	win	2023-06-13	10:04:57	10:15:11	612109	64010f32f8dee9772983c7cd	4	1	main_slash	11	advance_on_keypress_SLASH	110	stimuli_distractor_diamondtriangles.svg	stimuli_target_diamondsquares.svg	32	yes	57	0	710	0	0			0	0			1				0	
6.6.1	win	2023-06-13	10:04:57	10:15:13	613782	64010f32f8dee9772983c7cd	4	1	main_slash	11	main_slash	111	stimuli_target_trianglesquares.svg	stimuli_distractor_trianglediamonds.svg	18	yes	53	1	312	0	0			0	0			1				0	
6.6.1	win	2023-06-13	10:04:57	10:15:13	613782	64010f32f8dee9772983c7cd	4	1	main_slash	11	advance_on_keypress_SLASH	112	stimuli_target_trianglesquares.svg	stimuli_distractor_trianglediamonds.svg	18	yes	57	0	555	0	0			0	0			1				0	
6.6.1	win	2023-06-13	10:04:57	10:15:14	615214	64010f32f8dee9772983c7cd	4	1	main_slash	11	main_slash	113	stimuli_target_squarediamonds.svg	stimuli_distractor_diamondtriangles.svg	8	yes	53	1	227	0	0			0	0			1				0	
6.6.1	win	2023-06-13	10:04:57	10:15:14	615214	64010f32f8dee9772983c7cd	4	1	main_slash	11	advance_on_keypress_SLASH	114	stimuli_target_squarediamonds.svg	stimuli_distractor_diamondtriangles.svg	8	yes	57	0	1641	0	0			0	0			1				0	
6.6.1	win	2023-06-13	10:04:57	10:15:17	617703	64010f32f8dee9772983c7cd	4	1	main_slash	11	main_slash	115	stimuli_distractor_diamondtriangles.svg	stimuli_target_trianglerectangles.svg	29	yes	53	1	207	0	0			0	0			1				0	
6.6.1	win	2023-06-13	10:04:57	10:15:17	617703	64010f32f8dee9772983c7cd	4	1	main_slash	11	advance_on_keypress_SLASH	116	stimuli_distractor_diamondtriangles.svg	stimuli_target_trianglerectangles.svg	29	yes	57	0	661	0	0			0	0			1				0	
6.6.1	win	2023-06-13	10:04:57	10:15:18	619449	64010f32f8dee9772983c7cd	4	1	main_slash	11	main_slash	117	stimuli_distractor_trianglediamonds.svg	stimuli_target_rectanglediamonds.svg	10	yes	53	1	226	0	0			0	0			1				0	
6.6.1	win	2023-06-13	10:04:57	10:15:18	619449	64010f32f8dee9772983c7cd	4	1	main_slash	11	advance_on_keypress_SLASH	118	stimuli_distractor_trianglediamonds.svg	stimuli_target_rectanglediamonds.svg	10	yes	57	0	912	0	0			0	0			1				0	
6.6.1	win	2023-06-13	10:04:57	10:15:21	621810	64010f32f8dee9772983c7cd	4	1	main_slash	11	main_slash	119	stimuli_distractor_diamondtriangles.svg	stimuli_distractor_diamondtriangles.svg	39	no	53	0	794	0	0			0	0			1				0	
6.6.1	win	2023-06-13	10:04:57	10:15:21	621810	64010f32f8dee9772983c7cd	4	1	main_slash	11	advance_on_keypress_SLASH	120	stimuli_distractor_diamondtriangles.svg	stimuli_distractor_diamondtriangles.svg	39	no	57	0	586	0	0			0	0			1				0	
6.6.1	win	2023-06-13	10:04:57	10:15:22	623446	64010f32f8dee9772983c7cd	4	1	main_slash	11	main_slash	121	stimuli_distractor_trianglediamonds.svg	stimuli_target_squarediamonds.svg	12	yes	53	1	385	0	0			0	0			1				0	
6.6.1	win	2023-06-13	10:04:57	10:15:22	623446	64010f32f8dee9772983c7cd	4	1	main_slash	11	advance_on_keypress_SLASH	122	stimuli_distractor_trianglediamonds.svg	stimuli_target_squarediamonds.svg	12	yes	57	0	480	0	0			0	0			1				0	
6.6.1	win	2023-06-13	10:04:57	10:15:24	624907	64010f32f8dee9772983c7cd	4	1	main_slash	11	main_slash	123	stimuli_distractor_diamondtriangles.svg	stimuli_target_rectanglediamonds.svg	14	yes	53	1	315	0	0			0	0			1				0	
6.6.1	win	2023-06-13	10:04:57	10:15:24	624907	64010f32f8dee9772983c7cd	4	1	main_slash	11	advance_on_keypress_SLASH	124	stimuli_distractor_diamondtriangles.svg	stimuli_target_rectanglediamonds.svg	14	yes	57	0	550	0	0			0	0			1				0	
6.6.1	win	2023-06-13	10:04:57	10:15:26	626511	64010f32f8dee9772983c7cd	4	1	main_slash	11	main_slash	125	stimuli_distractor_diamondtriangles.svg	stimuli_target_diamondrectangles.svg	31	yes	53	1	415	0	0			0	0			1				0	
6.6.1	win	2023-06-13	10:04:57	10:15:26	626511	64010f32f8dee9772983c7cd	4	1	main_slash	11	advance_on_keypress_SLASH	126	stimuli_distractor_diamondtriangles.svg	stimuli_target_diamondrectangles.svg	31	yes	57	0	486	0	0			0	0			1				0	
6.6.1	win	2023-06-13	10:04:57	10:15:27	627938	64010f32f8dee9772983c7cd	4	1	main_slash	11	main_slash	127	stimuli_target_rectanglediamonds.svg	stimuli_distractor_trianglediamonds.svg	2	yes	53	1	290	0	0			0	0			1				0	
6.6.1	win	2023-06-13	10:04:57	10:15:27	627938	64010f32f8dee9772983c7cd	4	1	main_slash	11	advance_on_keypress_SLASH	128	stimuli_target_rectanglediamonds.svg	stimuli_distractor_trianglediamonds.svg	2	yes	57	0	565	0	0			0	0			1				0	
6.6.1	win	2023-06-13	10:04:57	10:15:29	629551	64010f32f8dee9772983c7cd	4	1	main_slash	11	main_slash	129	stimuli_distractor_trianglediamonds.svg	stimuli_distractor_diamondtriangles.svg	35	no	53	0	405	0	0			0	0			1				0	
6.6.1	win	2023-06-13	10:04:57	10:15:29	629551	64010f32f8dee9772983c7cd	4	1	main_slash	11	advance_on_keypress_SLASH	130	stimuli_distractor_trianglediamonds.svg	stimuli_distractor_diamondtriangles.svg	35	no	57	0	588	0	0			0	0			1				0	
6.6.1	win	2023-06-13	10:04:57	10:15:32	632779	64010f32f8dee9772983c7cd	4	1	main_slash	11	main_slash	131	stimuli_distractor_diamondtriangles.svg	stimuli_distractor_trianglediamonds.svg	37	no	0	1	2000	0	0			0	0			1				0	
6.6.1	win	2023-06-13	10:04:57	10:15:32	632779	64010f32f8dee9772983c7cd	4	1	main_slash	11	advance_on_keypress_SLASH	132	stimuli_distractor_diamondtriangles.svg	stimuli_distractor_trianglediamonds.svg	37	no	57	0	2411	0	0			0	0			1				0	
6.6.1	win	2023-06-13	10:04:57	10:15:35	636326	64010f32f8dee9772983c7cd	4	1	main_slash	11	main_slash	133	stimuli_target_diamondsquares.svg	stimuli_distractor_diamondtriangles.svg	24	yes	53	1	490	0	0			0	0			1				0	
6.6.1	win	2023-06-13	10:04:57	10:15:35	636326	64010f32f8dee9772983c7cd	4	1	main_slash	11	advance_on_keypress_SLASH	134	stimuli_target_diamondsquares.svg	stimuli_distractor_diamondtriangles.svg	24	yes	57	0	518	0	0			0	0			1				0	
6.6.1	win	2023-06-13	10:04:57	10:15:39	639509	64010f32f8dee9772983c7cd	4	1	main_slash	11	main_slash	135	stimuli_distractor_diamondtriangles.svg	stimuli_distractor_diamondtriangles.svg	40	no	0	1	2000	0	0			0	0			1				0	
6.6.1	win	2023-06-13	10:04:57	10:15:39	639509	64010f32f8dee9772983c7cd	4	1	main_slash	11	advance_on_keypress_SLASH	136	stimuli_distractor_diamondtriangles.svg	stimuli_distractor_diamondtriangles.svg	40	no	57	0	542	0	0			0	0			1				0	
6.6.1	win	2023-06-13	10:04:57	10:15:42	642713	64010f32f8dee9772983c7cd	4	1	main_slash	11	main_slash	137	stimuli_distractor_trianglediamonds.svg	stimuli_distractor_trianglediamonds.svg	34	no	0	1	2000	0	0			0	0			1				0	
6.6.1	win	2023-06-13	10:04:57	10:15:42	642713	64010f32f8dee9772983c7cd	4	1	main_slash	11	advance_on_keypress_SLASH	138	stimuli_distractor_trianglediamonds.svg	stimuli_distractor_trianglediamonds.svg	34	no	57	0	470	0	0			0	0			1				0	
6.6.1	win	2023-06-13	10:04:57	10:15:43	644333	64010f32f8dee9772983c7cd	4	1	main_slash	11	main_slash	139	stimuli_target_diamondrectangles.svg	stimuli_distractor_trianglediamonds.svg	19	yes	53	1	498	0	0			0	0			1				0	
6.6.1	win	2023-06-13	10:04:57	10:15:43	644333	64010f32f8dee9772983c7cd	4	1	main_slash	11	advance_on_keypress_SLASH	140	stimuli_target_diamondrectangles.svg	stimuli_distractor_trianglediamonds.svg	19	yes	57	0	518	0	0			0	0			1				0	
6.6.1	win	2023-06-13	10:04:57	10:15:45	645879	64010f32f8dee9772983c7cd	4	1	main_slash	11	main_slash	141	stimuli_distractor_trianglediamonds.svg	stimuli_target_diamondsquares.svg	28	yes	53	1	384	0	0			0	0			1				0	
6.6.1	win	2023-06-13	10:04:57	10:15:45	645879	64010f32f8dee9772983c7cd	4	1	main_slash	11	advance_on_keypress_SLASH	142	stimuli_distractor_trianglediamonds.svg	stimuli_target_diamondsquares.svg	28	yes	57	0	600	0	0			0	0			1				0	
6.6.1	win	2023-06-13	10:04:57	10:15:47	647509	64010f32f8dee9772983c7cd	4	1	main_slash	11	main_slash	143	stimuli_target_squaretriangles.svg	stimuli_distractor_trianglediamonds.svg	3	yes	53	1	366	0	0			0	0			1				0	
6.6.1	win	2023-06-13	10:04:57	10:15:47	647509	64010f32f8dee9772983c7cd	4	1	main_slash	11	advance_on_keypress_SLASH	144	stimuli_target_squaretriangles.svg	stimuli_distractor_trianglediamonds.svg	3	yes	57	0	542	0	0			0	0			1				0	
6.6.1	win	2023-06-13	10:04:57	10:15:48	649134	64010f32f8dee9772983c7cd	4	1	main_slash	11	main_slash	145	stimuli_target_squaretriangles.svg	stimuli_distractor_diamondtriangles.svg	7	yes	53	1	424	0	0			0	0			1				0	
6.6.1	win	2023-06-13	10:04:57	10:15:48	649134	64010f32f8dee9772983c7cd	4	1	main_slash	11	advance_on_keypress_SLASH	146	stimuli_target_squaretriangles.svg	stimuli_distractor_diamondtriangles.svg	7	yes	57	0	534	0	0			0	0			1				0	
6.6.1	win	2023-06-13	10:04:57	10:15:50	650951	64010f32f8dee9772983c7cd	4	1	main_slash	11	main_slash	147	stimuli_distractor_trianglediamonds.svg	stimuli_target_diamondrectangles.svg	27	yes	53	1	639	0	0			0	0			1				0	
6.6.1	win	2023-06-13	10:04:57	10:15:50	650951	64010f32f8dee9772983c7cd	4	1	main_slash	11	advance_on_keypress_SLASH	148	stimuli_distractor_trianglediamonds.svg	stimuli_target_diamondrectangles.svg	27	yes	57	0	485	0	0			0	0			1				0	
6.6.1	win	2023-06-13	10:04:57	10:15:52	652613	64010f32f8dee9772983c7cd	4	1	main_slash	11	main_slash	149	stimuli_target_trianglerectangles.svg	stimuli_distractor_trianglediamonds.svg	17	yes	53	1	528	0	0			0	0			1				0	
6.6.1	win	2023-06-13	10:04:57	10:15:52	652613	64010f32f8dee9772983c7cd	4	1	main_slash	11	advance_on_keypress_SLASH	150	stimuli_target_trianglerectangles.svg	stimuli_distractor_trianglediamonds.svg	17	yes	57	0	554	0	0			0	0			1				0	
6.6.1	win	2023-06-13	10:04:57	10:15:53	654234	64010f32f8dee9772983c7cd	4	1	main_slash	11	main_slash	151	stimuli_target_trianglerectangles.svg	stimuli_distractor_diamondtriangles.svg	21	yes	53	1	402	0	0			0	0			1				0	
6.6.1	win	2023-06-13	10:04:57	10:15:53	654234	64010f32f8dee9772983c7cd	4	1	main_slash	11	advance_on_keypress_SLASH	152	stimuli_target_trianglerectangles.svg	stimuli_distractor_diamondtriangles.svg	21	yes	57	0	554	0	0			0	0			1				0	
6.6.1	win	2023-06-13	10:04:57	10:15:55	655983	64010f32f8dee9772983c7cd	4	1	main_slash	11	main_slash	153	stimuli_distractor_trianglediamonds.svg	stimuli_target_squaretriangles.svg	11	yes	53	1	538	0	0			0	0			1				0	
6.6.1	win	2023-06-13	10:04:57	10:15:55	655983	64010f32f8dee9772983c7cd	4	1	main_slash	11	advance_on_keypress_SLASH	154	stimuli_distractor_trianglediamonds.svg	stimuli_target_squaretriangles.svg	11	yes	57	0	473	0	0			0	0			1				0	
6.6.1	win	2023-06-13	10:04:57	10:15:58	659166	64010f32f8dee9772983c7cd	4	1	main_slash	11	main_slash	155	stimuli_distractor_trianglediamonds.svg	stimuli_distractor_trianglediamonds.svg	33	no	0	1	2000	0	0			0	0			1				0	
6.6.1	win	2023-06-13	10:04:57	10:15:58	659166	64010f32f8dee9772983c7cd	4	1	main_slash	11	advance_on_keypress_SLASH	156	stimuli_distractor_trianglediamonds.svg	stimuli_distractor_trianglediamonds.svg	33	no	57	0	1941	0	0			0	0			1				0	
6.6.1	win	2023-06-13	10:04:57	10:16:01	662174	64010f32f8dee9772983c7cd	4	1	main_slash	11	main_slash	157	stimuli_distractor_diamondtriangles.svg	stimuli_target_trianglesquares.svg	30	yes	53	1	405	0	0			0	0			1				0	
6.6.1	win	2023-06-13	10:04:57	10:16:01	662174	64010f32f8dee9772983c7cd	4	1	main_slash	11	advance_on_keypress_SLASH	158	stimuli_distractor_diamondtriangles.svg	stimuli_target_trianglesquares.svg	30	yes	57	0	565	0	0			0	0			1				0	
6.6.1	win	2023-06-13	10:04:57	10:16:03	663795	64010f32f8dee9772983c7cd	4	1	main_slash	11	main_slash	159	stimuli_target_diamondrectangles.svg	stimuli_distractor_diamondtriangles.svg	23	yes	53	1	405	0	0			0	0			1				0	
6.6.1	win	2023-06-13	10:04:57	10:16:03	663795	64010f32f8dee9772983c7cd	4	1	main_slash	11	advance_on_keypress_SLASH	160	stimuli_target_diamondrectangles.svg	stimuli_distractor_diamondtriangles.svg	23	yes	57	0	531	0	0			0	0			1				0	
6.6.1	win	2023-06-13	10:04:57	10:16:03	663795	64010f32f8dee9772983c7cd	4	1	headphonecheck_calibration	14	headphonecheck_calibrationIntro	1	stimuli_target_diamondrectangles.svg	stimuli_distractor_diamondtriangles.svg	23	yes	calibrationButton	0	3962	0	0			0	0			1				0	
6.6.1	win	2023-06-13	10:04:57	10:16:03	663795	64010f32f8dee9772983c7cd	4	1	headphonecheck_testphase	15	test_collectResponse	3	stimuli_target_diamondrectangles.svg	stimuli_distractor_diamondtriangles.svg	23	yes	third	1	277834	1	2	antiphase_hc_ios.wav	3	0	0			1				0	
6.6.1	win	2023-06-13	10:04:57	10:16:03	663795	64010f32f8dee9772983c7cd	4	1	headphonecheck_testphase	15	test_collectResponse	6	stimuli_target_diamondrectangles.svg	stimuli_distractor_diamondtriangles.svg	23	yes	first	1	405	2	3	antiphase_hc_soi.wav	1	0	0			1				0	
6.6.1	win	2023-06-13	10:04:57	10:16:03	663795	64010f32f8dee9772983c7cd	4	1	headphonecheck_testphase	15	test_collectResponse	9	stimuli_target_diamondrectangles.svg	stimuli_distractor_diamondtriangles.svg	23	yes	second	1	97	3	5	antiphase_hc_osi.wav	2	0	0			1				0	
6.6.1	win	2023-06-13	10:04:57	10:16:03	663795	64010f32f8dee9772983c7cd	4	1	headphonecheck_testphase	15	test_collectResponse	12	stimuli_target_diamondrectangles.svg	stimuli_distractor_diamondtriangles.svg	23	yes	second	1	425	4	1	antiphase_hc_iso.wav	2	0	0			1				0	
6.6.1	win	2023-06-13	10:04:57	10:16:03	663795	64010f32f8dee9772983c7cd	4	1	headphonecheck_testphase	15	test_collectResponse	15	stimuli_target_diamondrectangles.svg	stimuli_distractor_diamondtriangles.svg	23	yes	third	1	347	5	6	antiphase_hc_ois.wav	3	0	0			1				0	
6.6.1	win	2023-06-13	10:04:57	10:16:03	663795	64010f32f8dee9772983c7cd	4	1	headphonecheck_testphase	15	test_collectResponse	18	stimuli_target_diamondrectangles.svg	stimuli_distractor_diamondtriangles.svg	23	yes	third	0	459	6	4	antiphase_hc_sio.wav	1	0	0			1				0	
6.6.1	win	2023-06-13	10:04:57	10:16:03	663795	64010f32f8dee9772983c7cd	4	1	stereocheck_calibration	17	stereocheck_calibrationIntro	1	stimuli_target_diamondrectangles.svg	stimuli_distractor_diamondtriangles.svg	23	yes	stereocheck_calibrationButton	0	12153	6	4	antiphase_hc_sio.wav	1	0	0			1				0	
6.6.1	win	2023-06-13	10:04:57	10:16:03	663795	64010f32f8dee9772983c7cd	4	1	stereocheck_testphase	18	stereocheck_test_collectResponse	3	stimuli_target_diamondrectangles.svg	stimuli_distractor_diamondtriangles.svg	23	yes	stereocheck_right	1	516	6	4	antiphase_hc_sio.wav	1	1	5	noise_calib_stim_RIGHT.wav	2	1				0	
6.6.1	win	2023-06-13	10:04:57	10:16:03	663795	64010f32f8dee9772983c7cd	4	1	stereocheck_testphase	18	stereocheck_test_collectResponse	6	stimuli_target_diamondrectangles.svg	stimuli_distractor_diamondtriangles.svg	23	yes	stereocheck_left	1	352	6	4	antiphase_hc_sio.wav	1	2	2	noise_calib_stim_LEFT.wav	1	1				0	
6.6.1	win	2023-06-13	10:04:57	10:16:03	663795	64010f32f8dee9772983c7cd	4	1	stereocheck_testphase	18	stereocheck_test_collectResponse	9	stimuli_target_diamondrectangles.svg	stimuli_distractor_diamondtriangles.svg	23	yes	stereocheck_left	1	336	6	4	antiphase_hc_sio.wav	1	3	3	noise_calib_stim_LEFT.wav	1	1				0	
6.6.1	win	2023-06-13	10:04:57	10:16:03	663795	64010f32f8dee9772983c7cd	4	1	stereocheck_testphase	18	stereocheck_test_collectResponse	12	stimuli_target_diamondrectangles.svg	stimuli_distractor_diamondtriangles.svg	23	yes	stereocheck_left	1	312	6	4	antiphase_hc_sio.wav	1	4	1	noise_calib_stim_LEFT.wav	1	1				0	
6.6.1	win	2023-06-13	10:04:57	10:16:03	663795	64010f32f8dee9772983c7cd	4	1	stereocheck_testphase	18	stereocheck_test_collectResponse	15	stimuli_target_diamondrectangles.svg	stimuli_distractor_diamondtriangles.svg	23	yes	stereocheck_right	1	450	6	4	antiphase_hc_sio.wav	1	5	6	noise_calib_stim_RIGHT.wav	2	1				0	
6.6.1	win	2023-06-13	10:04:57	10:16:03	663795	64010f32f8dee9772983c7cd	4	1	stereocheck_testphase	18	stereocheck_test_collectResponse	18	stimuli_target_diamondrectangles.svg	stimuli_distractor_diamondtriangles.svg	23	yes	stereocheck_right	1	515	6	4	antiphase_hc_sio.wav	1	6	4	noise_calib_stim_RIGHT.wav	2	1				0	
6.6.1	win	2023-06-13	10:04:57	10:16:03	663795	64010f32f8dee9772983c7cd	4	1	DL_practice	21	DL_practice	2	stimuli_target_diamondrectangles.svg	stimuli_distractor_diamondtriangles.svg	23	yes	ga	1	954	6	4	antiphase_hc_sio.wav	1	6	4	noise_calib_stim_RIGHT.wav	2	18	blb_dichoticlistening_ga-ta.mp3	ga	ta	1	left
6.6.1	win	2023-06-13	10:04:57	10:16:03	663795	64010f32f8dee9772983c7cd	4	1	DL_practice	21	DL_practice	3	stimuli_target_diamondrectangles.svg	stimuli_distractor_diamondtriangles.svg	23	yes	ga	0	921	6	4	antiphase_hc_sio.wav	1	6	4	noise_calib_stim_RIGHT.wav	2	7	blb_dichoticlistening_da-ba.mp3	da	ba	1	other
6.6.1	win	2023-06-13	10:04:57	10:16:03	663795	64010f32f8dee9772983c7cd	4	1	DL_practice	21	DL_practice	4	stimuli_target_diamondrectangles.svg	stimuli_distractor_diamondtriangles.svg	23	yes	pa	1	1354	6	4	antiphase_hc_sio.wav	1	6	4	noise_calib_stim_RIGHT.wav	2	23	blb_dichoticlistening_ka-pa.mp3	ka	pa	1	right
6.6.1	win	2023-06-13	10:04:57	10:16:03	663795	64010f32f8dee9772983c7cd	4	1	DL_practice	21	DL_practice	5	stimuli_target_diamondrectangles.svg	stimuli_distractor_diamondtriangles.svg	23	yes	pa	1	802	6	4	antiphase_hc_sio.wav	1	6	4	noise_calib_stim_RIGHT.wav	2	29	blb_dichoticlistening_pa-pa.mp3	pa	pa	0	left
6.6.1	win	2023-06-13	10:04:57	10:16:03	663795	64010f32f8dee9772983c7cd	4	1	DL_practice	21	DL_practice	6	stimuli_target_diamondrectangles.svg	stimuli_distractor_diamondtriangles.svg	23	yes	ga	1	1125	6	4	antiphase_hc_sio.wav	1	6	4	noise_calib_stim_RIGHT.wav	2	15	blb_dichoticlistening_ga-ga.mp3	ga	ga	0	left
6.6.1	win	2023-06-13	10:04:57	10:16:03	663795	64010f32f8dee9772983c7cd	4	1	DL_practice	21	DL_practice	7	stimuli_target_diamondrectangles.svg	stimuli_distractor_diamondtriangles.svg	23	yes	ba	1	1613	6	4	antiphase_hc_sio.wav	1	6	4	noise_calib_stim_RIGHT.wav	2	1	blb_dichoticlistening_ba-ba.mp3	ba	ba	0	left
6.6.1	win	2023-06-13	10:04:57	10:16:03	663795	64010f32f8dee9772983c7cd	4	1	DL_practice	21	DL_practice	8	stimuli_target_diamondrectangles.svg	stimuli_distractor_diamondtriangles.svg	23	yes	ta	1	842	6	4	antiphase_hc_sio.wav	1	6	4	noise_calib_stim_RIGHT.wav	2	36	blb_dichoticlistening_ta-ta.mp3	ta	ta	0	left
6.6.1	win	2023-06-13	10:04:57	10:16:03	663795	64010f32f8dee9772983c7cd	4	1	DL_practice	21	DL_practice	9	stimuli_target_diamondrectangles.svg	stimuli_distractor_diamondtriangles.svg	23	yes	ka	1	806	6	4	antiphase_hc_sio.wav	1	6	4	noise_calib_stim_RIGHT.wav	2	22	blb_dichoticlistening_ka-ka.mp3	ka	ka	0	left
6.6.1	win	2023-06-13	10:04:57	10:16:03	663795	64010f32f8dee9772983c7cd	4	1	DL_practice	21	DL_practice	10	stimuli_target_diamondrectangles.svg	stimuli_distractor_diamondtriangles.svg	23	yes	da	1	965	6	4	antiphase_hc_sio.wav	1	6	4	noise_calib_stim_RIGHT.wav	2	8	blb_dichoticlistening_da-da.mp3	da	da	0	left
6.6.1	win	2023-06-13	10:04:57	10:16:03	663795	64010f32f8dee9772983c7cd	4	1	DL_test	23	DL_test	1	stimuli_target_diamondrectangles.svg	stimuli_distractor_diamondtriangles.svg	23	yes	ka	1	1031	6	4	antiphase_hc_sio.wav	1	6	4	noise_calib_stim_RIGHT.wav	2	23	blb_dichoticlistening_ka-pa.mp3	ka	pa	1	left
6.6.1	win	2023-06-13	10:04:57	10:16:03	663795	64010f32f8dee9772983c7cd	4	1	DL_test	23	DL_test	2	stimuli_target_diamondrectangles.svg	stimuli_distractor_diamondtriangles.svg	23	yes	ta	1	980	6	4	antiphase_hc_sio.wav	1	6	4	noise_calib_stim_RIGHT.wav	2	36	blb_dichoticlistening_ta-ta.mp3	ta	ta	0	left
6.6.1	win	2023-06-13	10:04:57	10:16:03	663795	64010f32f8dee9772983c7cd	4	1	DL_test	23	DL_test	3	stimuli_target_diamondrectangles.svg	stimuli_distractor_diamondtriangles.svg	23	yes	ta	1	1378	6	4	antiphase_hc_sio.wav	1	6	4	noise_calib_stim_RIGHT.wav	2	6	blb_dichoticlistening_ba-ta.mp3	ba	ta	1	right
6.6.1	win	2023-06-13	10:04:57	10:16:03	663795	64010f32f8dee9772983c7cd	4	1	DL_test	23	DL_test	4	stimuli_target_diamondrectangles.svg	stimuli_distractor_diamondtriangles.svg	23	yes	ga	1	1038	6	4	antiphase_hc_sio.wav	1	6	4	noise_calib_stim_RIGHT.wav	2	15	blb_dichoticlistening_ga-ga.mp3	ga	ga	0	left
6.6.1	win	2023-06-13	10:04:57	10:16:03	663795	64010f32f8dee9772983c7cd	4	1	DL_test	23	DL_test	5	stimuli_target_diamondrectangles.svg	stimuli_distractor_diamondtriangles.svg	23	yes	ka	1	946	6	4	antiphase_hc_sio.wav	1	6	4	noise_calib_stim_RIGHT.wav	2	20	blb_dichoticlistening_ka-da.mp3	ka	da	1	left
6.6.1	win	2023-06-13	10:04:57	10:16:03	663795	64010f32f8dee9772983c7cd	4	1	DL_test	23	DL_test	6	stimuli_target_diamondrectangles.svg	stimuli_distractor_diamondtriangles.svg	23	yes	ga	1	1042	6	4	antiphase_hc_sio.wav	1	6	4	noise_calib_stim_RIGHT.wav	2	9	blb_dichoticlistening_da-ga.mp3	da	ga	1	right
6.6.1	win	2023-06-13	10:04:57	10:16:03	663795	64010f32f8dee9772983c7cd	4	1	DL_test	23	DL_test	7	stimuli_target_diamondrectangles.svg	stimuli_distractor_diamondtriangles.svg	23	yes	da	1	1780	6	4	antiphase_hc_sio.wav	1	6	4	noise_calib_stim_RIGHT.wav	2	2	blb_dichoticlistening_ba-da.mp3	ba	da	1	right
6.6.1	win	2023-06-13	10:04:57	10:16:03	663795	64010f32f8dee9772983c7cd	4	1	DL_test	23	DL_test	8	stimuli_target_diamondrectangles.svg	stimuli_distractor_diamondtriangles.svg	23	yes	pa	0	2395	6	4	antiphase_hc_sio.wav	1	6	4	noise_calib_stim_RIGHT.wav	2	10	blb_dichoticlistening_da-ka.mp3	da	ka	1	other
6.6.1	win	2023-06-13	10:04:57	10:16:03	663795	64010f32f8dee9772983c7cd	4	1	DL_test	23	DL_test	9	stimuli_target_diamondrectangles.svg	stimuli_distractor_diamondtriangles.svg	23	yes	ka	1	993	6	4	antiphase_hc_sio.wav	1	6	4	noise_calib_stim_RIGHT.wav	2	4	blb_dichoticlistening_ba-ka.mp3	ba	ka	1	right
6.6.1	win	2023-06-13	10:04:57	10:16:03	663795	64010f32f8dee9772983c7cd	4	1	DL_test	23	DL_test	10	stimuli_target_diamondrectangles.svg	stimuli_distractor_diamondtriangles.svg	23	yes	ta	1	1199	6	4	antiphase_hc_sio.wav	1	6	4	noise_calib_stim_RIGHT.wav	2	32	blb_dichoticlistening_ta-da.mp3	ta	da	1	left
6.6.1	win	2023-06-13	10:04:57	10:16:03	663795	64010f32f8dee9772983c7cd	4	1	DL_test	23	DL_test	11	stimuli_target_diamondrectangles.svg	stimuli_distractor_diamondtriangles.svg	23	yes	ka	1	1013	6	4	antiphase_hc_sio.wav	1	6	4	noise_calib_stim_RIGHT.wav	2	34	blb_dichoticlistening_ta-ka.mp3	ta	ka	1	right
6.6.1	win	2023-06-13	10:04:57	10:16:03	663795	64010f32f8dee9772983c7cd	4	1	DL_test	23	DL_test	12	stimuli_target_diamondrectangles.svg	stimuli_distractor_diamondtriangles.svg	23	yes	ga	1	875	6	4	antiphase_hc_sio.wav	1	6	4	noise_calib_stim_RIGHT.wav	2	14	blb_dichoticlistening_ga-da.mp3	ga	da	1	left
6.6.1	win	2023-06-13	10:04:57	10:16:03	663795	64010f32f8dee9772983c7cd	4	1	DL_test	23	DL_test	13	stimuli_target_diamondrectangles.svg	stimuli_distractor_diamondtriangles.svg	23	yes	pa	1	2172	6	4	antiphase_hc_sio.wav	1	6	4	noise_calib_stim_RIGHT.wav	2	11	blb_dichoticlistening_da-pa.mp3	da	pa	1	right
6.6.1	win	2023-06-13	10:04:57	10:16:03	663795	64010f32f8dee9772983c7cd	4	1	DL_test	23	DL_test	14	stimuli_target_diamondrectangles.svg	stimuli_distractor_diamondtriangles.svg	23	yes	ga	1	956	6	4	antiphase_hc_sio.wav	1	6	4	noise_calib_stim_RIGHT.wav	2	13	blb_dichoticlistening_ga-ba.mp3	ga	ba	1	left
6.6.1	win	2023-06-13	10:04:57	10:16:03	663795	64010f32f8dee9772983c7cd	4	1	DL_test	23	DL_test	15	stimuli_target_diamondrectangles.svg	stimuli_distractor_diamondtriangles.svg	23	yes	ta	1	1291	6	4	antiphase_hc_sio.wav	1	6	4	noise_calib_stim_RIGHT.wav	2	31	blb_dichoticlistening_ta-ba.mp3	ta	ba	1	left
6.6.1	win	2023-06-13	10:04:57	10:16:03	663795	64010f32f8dee9772983c7cd	4	1	DL_test	23	DL_test	16	stimuli_target_diamondrectangles.svg	stimuli_distractor_diamondtriangles.svg	23	yes	ka	1	1419	6	4	antiphase_hc_sio.wav	1	6	4	noise_calib_stim_RIGHT.wav	2	16	blb_dichoticlistening_ga-ka.mp3	ga	ka	1	right
6.6.1	win	2023-06-13	10:04:57	10:16:03	663795	64010f32f8dee9772983c7cd	4	1	DL_test	23	DL_test	17	stimuli_target_diamondrectangles.svg	stimuli_distractor_diamondtriangles.svg	23	yes	ta	1	1170	6	4	antiphase_hc_sio.wav	1	6	4	noise_calib_stim_RIGHT.wav	2	30	blb_dichoticlistening_pa-ta.mp3	pa	ta	1	right
6.6.1	win	2023-06-13	10:04:57	10:16:03	663795	64010f32f8dee9772983c7cd	4	1	DL_test	23	DL_test	18	stimuli_target_diamondrectangles.svg	stimuli_distractor_diamondtriangles.svg	23	yes	ta	1	751	6	4	antiphase_hc_sio.wav	1	6	4	noise_calib_stim_RIGHT.wav	2	12	blb_dichoticlistening_da-ta.mp3	da	ta	1	right
6.6.1	win	2023-06-13	10:04:57	10:16:03	663795	64010f32f8dee9772983c7cd	4	1	DL_test	23	DL_test	19	stimuli_target_diamondrectangles.svg	stimuli_distractor_diamondtriangles.svg	23	yes	ta	1	895	6	4	antiphase_hc_sio.wav	1	6	4	noise_calib_stim_RIGHT.wav	2	33	blb_dichoticlistening_ta-ga.mp3	ta	ga	1	left
6.6.1	win	2023-06-13	10:04:57	10:16:03	663795	64010f32f8dee9772983c7cd	4	1	DL_test	23	DL_test	20	stimuli_target_diamondrectangles.svg	stimuli_distractor_diamondtriangles.svg	23	yes	ka	0	1065	6	4	antiphase_hc_sio.wav	1	6	4	noise_calib_stim_RIGHT.wav	2	18	blb_dichoticlistening_ga-ta.mp3	ga	ta	1	other
6.6.1	win	2023-06-13	10:04:57	10:16:03	663795	64010f32f8dee9772983c7cd	4	1	DL_test	23	DL_test	21	stimuli_target_diamondrectangles.svg	stimuli_distractor_diamondtriangles.svg	23	yes	ka	1	776	6	4	antiphase_hc_sio.wav	1	6	4	noise_calib_stim_RIGHT.wav	2	21	blb_dichoticlistening_ka-ga.mp3	ka	ga	1	left
6.6.1	win	2023-06-13	10:04:57	10:16:03	663795	64010f32f8dee9772983c7cd	4	1	DL_test	23	DL_test	22	stimuli_target_diamondrectangles.svg	stimuli_distractor_diamondtriangles.svg	23	yes	ta	1	895	6	4	antiphase_hc_sio.wav	1	6	4	noise_calib_stim_RIGHT.wav	2	35	blb_dichoticlistening_ta-pa.mp3	ta	pa	1	left
6.6.1	win	2023-06-13	10:04:57	10:16:03	663795	64010f32f8dee9772983c7cd	4	1	DL_test	23	DL_test	23	stimuli_target_diamondrectangles.svg	stimuli_distractor_diamondtriangles.svg	23	yes	ka	1	1232	6	4	antiphase_hc_sio.wav	1	6	4	noise_calib_stim_RIGHT.wav	2	22	blb_dichoticlistening_ka-ka.mp3	ka	ka	0	left
6.6.1	win	2023-06-13	10:04:57	10:16:03	663795	64010f32f8dee9772983c7cd	4	1	DL_test	23	DL_test	24	stimuli_target_diamondrectangles.svg	stimuli_distractor_diamondtriangles.svg	23	yes	da	1	1252	6	4	antiphase_hc_sio.wav	1	6	4	noise_calib_stim_RIGHT.wav	2	8	blb_dichoticlistening_da-da.mp3	da	da	0	left
6.6.1	win	2023-06-13	10:04:57	10:16:03	663795	64010f32f8dee9772983c7cd	4	1	DL_test	23	DL_test	25	stimuli_target_diamondrectangles.svg	stimuli_distractor_diamondtriangles.svg	23	yes	pa	1	1256	6	4	antiphase_hc_sio.wav	1	6	4	noise_calib_stim_RIGHT.wav	2	28	blb_dichoticlistening_pa-ka.mp3	pa	ka	1	left
6.6.1	win	2023-06-13	10:04:57	10:16:03	663795	64010f32f8dee9772983c7cd	4	1	DL_test	23	DL_test	26	stimuli_target_diamondrectangles.svg	stimuli_distractor_diamondtriangles.svg	23	yes	da	1	1388	6	4	antiphase_hc_sio.wav	1	6	4	noise_calib_stim_RIGHT.wav	2	7	blb_dichoticlistening_da-ba.mp3	da	ba	1	left
