build	computer.platform	date	time	timestamp	time_elapsed_ms	subject	group	session	blockcode	blocknum	trialcode	trialnum	stimulus_left	stimulus_right	stim_index	target_present	response	correct	latency	headphonecheck_countTestTrials	headphonecheck_index	headphonecheck_testSound	headphonecheck_correctResponse	stereocheck_countTestTrials	stereocheck_index	stereocheck_testSound	stereocheck_correctResponse	DL_index	DL_soundfile	DL_leftSound	DL_rightSound	DL_dualSound	DL_choice
6.6.1	win	2023-06-27	07:24:03	0	0	629f2dccc6e91be06559e2f1	1	1	headphonecheck_calibration	4	headphonecheck_calibrationIntro	1			0		calibrationButton	0	5720	0	0			0	0			1				0	
6.6.1	win	2023-06-27	07:24:03	0	0	629f2dccc6e91be06559e2f1	1	1	headphonecheck_testphase	5	test_collectResponse	3			0		first	0	12525	1	2	antiphase_hc_ios.wav	3	0	0			1				0	
6.6.1	win	2023-06-27	07:24:03	0	0	629f2dccc6e91be06559e2f1	1	1	headphonecheck_testphase	5	test_collectResponse	6			0		first	1	435	2	4	antiphase_hc_sio.wav	1	0	0			1				0	
6.6.1	win	2023-06-27	07:24:03	0	0	629f2dccc6e91be06559e2f1	1	1	headphonecheck_testphase	5	test_collectResponse	9			0		third	1	257	3	6	antiphase_hc_ois.wav	3	0	0			1				0	
6.6.1	win	2023-06-27	07:24:03	0	0	629f2dccc6e91be06559e2f1	1	1	headphonecheck_testphase	5	test_collectResponse	12			0		first	1	177	4	3	antiphase_hc_soi.wav	1	0	0			1				0	
6.6.1	win	2023-06-27	07:24:03	0	0	629f2dccc6e91be06559e2f1	1	1	headphonecheck_testphase	5	test_collectResponse	15			0		second	1	157	5	5	antiphase_hc_osi.wav	2	0	0			1				0	
6.6.1	win	2023-06-27	07:24:03	0	0	629f2dccc6e91be06559e2f1	1	1	headphonecheck_testphase	5	test_collectResponse	18			0		second	1	248	6	1	antiphase_hc_iso.wav	2	0	0			1				0	
6.6.1	win	2023-06-27	07:24:03	0	0	629f2dccc6e91be06559e2f1	1	1	stereocheck_calibration	7	stereocheck_calibrationIntro	1			0		stereocheck_calibrationButton	0	3935	6	1	antiphase_hc_iso.wav	2	0	0			1				0	
6.6.1	win	2023-06-27	07:24:03	0	0	629f2dccc6e91be06559e2f1	1	1	stereocheck_testphase	8	stereocheck_test_collectResponse	3			0		stereocheck_left	0	332	6	1	antiphase_hc_iso.wav	2	1	4	noise_calib_stim_RIGHT.wav	2	1				0	
6.6.1	win	2023-06-27	07:24:03	0	0	629f2dccc6e91be06559e2f1	1	1	stereocheck_testphase	8	stereocheck_test_collectResponse	6			0		stereocheck_left	0	430	6	1	antiphase_hc_iso.wav	2	2	5	noise_calib_stim_RIGHT.wav	2	1				0	
6.6.1	win	2023-06-27	07:24:03	0	0	629f2dccc6e91be06559e2f1	1	1	stereocheck_testphase	8	stereocheck_test_collectResponse	9			0		stereocheck_right	0	246	6	1	antiphase_hc_iso.wav	2	3	1	noise_calib_stim_LEFT.wav	1	1				0	
6.6.1	win	2023-06-27	07:24:03	0	0	629f2dccc6e91be06559e2f1	1	1	stereocheck_testphase	8	stereocheck_test_collectResponse	12			0		stereocheck_right	0	269	6	1	antiphase_hc_iso.wav	2	4	2	noise_calib_stim_LEFT.wav	1	1				0	
6.6.1	win	2023-06-27	07:24:03	0	0	629f2dccc6e91be06559e2f1	1	1	stereocheck_testphase	8	stereocheck_test_collectResponse	15			0		stereocheck_left	0	210	6	1	antiphase_hc_iso.wav	2	5	6	noise_calib_stim_RIGHT.wav	2	1				0	
6.6.1	win	2023-06-27	07:24:03	0	0	629f2dccc6e91be06559e2f1	1	1	stereocheck_testphase	8	stereocheck_test_collectResponse	18			0		stereocheck_right	0	194	6	1	antiphase_hc_iso.wav	2	6	3	noise_calib_stim_LEFT.wav	1	1				0	
6.6.1	win	2023-06-27	07:24:03	0	0	629f2dccc6e91be06559e2f1	1	1	DL_practice	11	DL_practice	2			0		ka	1	994	6	1	antiphase_hc_iso.wav	2	6	3	noise_calib_stim_LEFT.wav	1	23	blb_dichoticlistening_ka-pa.mp3	ka	pa	1	left
6.6.1	win	2023-06-27	07:24:03	0	0	629f2dccc6e91be06559e2f1	1	1	DL_practice	11	DL_practice	3			0		da	1	975	6	1	antiphase_hc_iso.wav	2	6	3	noise_calib_stim_LEFT.wav	1	7	blb_dichoticlistening_da-ba.mp3	da	ba	1	left
6.6.1	win	2023-06-27	07:24:03	0	0	629f2dccc6e91be06559e2f1	1	1	DL_practice	11	DL_practice	4			0		ba	1	752	6	1	antiphase_hc_iso.wav	2	6	3	noise_calib_stim_LEFT.wav	1	1	blb_dichoticlistening_ba-ba.mp3	ba	ba	0	left
6.6.1	win	2023-06-27	07:24:03	0	0	629f2dccc6e91be06559e2f1	1	1	DL_practice	11	DL_practice	5			0		ta	1	1248	6	1	antiphase_hc_iso.wav	2	6	3	noise_calib_stim_LEFT.wav	1	36	blb_dichoticlistening_ta-ta.mp3	ta	ta	0	left
6.6.1	win	2023-06-27	07:24:03	0	0	629f2dccc6e91be06559e2f1	1	1	DL_practice	11	DL_practice	6			0		ka	1	1600	6	1	antiphase_hc_iso.wav	2	6	3	noise_calib_stim_LEFT.wav	1	22	blb_dichoticlistening_ka-ka.mp3	ka	ka	0	left
6.6.1	win	2023-06-27	07:24:03	0	0	629f2dccc6e91be06559e2f1	1	1	DL_practice	11	DL_practice	7			0		ga	1	780	6	1	antiphase_hc_iso.wav	2	6	3	noise_calib_stim_LEFT.wav	1	18	blb_dichoticlistening_ga-ta.mp3	ga	ta	1	left
6.6.1	win	2023-06-27	07:24:03	0	0	629f2dccc6e91be06559e2f1	1	1	DL_practice	11	DL_practice	8			0		pa	1	692	6	1	antiphase_hc_iso.wav	2	6	3	noise_calib_stim_LEFT.wav	1	29	blb_dichoticlistening_pa-pa.mp3	pa	pa	0	left
6.6.1	win	2023-06-27	07:24:03	0	0	629f2dccc6e91be06559e2f1	1	1	DL_practice	11	DL_practice	9			0		da	1	941	6	1	antiphase_hc_iso.wav	2	6	3	noise_calib_stim_LEFT.wav	1	8	blb_dichoticlistening_da-da.mp3	da	da	0	left
6.6.1	win	2023-06-27	07:24:03	0	0	629f2dccc6e91be06559e2f1	1	1	DL_practice	11	DL_practice	10			0		ga	1	709	6	1	antiphase_hc_iso.wav	2	6	3	noise_calib_stim_LEFT.wav	1	15	blb_dichoticlistening_ga-ga.mp3	ga	ga	0	left
6.6.1	win	2023-06-27	07:24:03	0	0	629f2dccc6e91be06559e2f1	1	1	DL_test	13	DL_test	1			0		ga	1	503	6	1	antiphase_hc_iso.wav	2	6	3	noise_calib_stim_LEFT.wav	1	21	blb_dichoticlistening_ka-ga.mp3	ka	ga	1	right
6.6.1	win	2023-06-27	07:24:03	0	0	629f2dccc6e91be06559e2f1	1	1	DL_test	13	DL_test	2			0		da	1	1103	6	1	antiphase_hc_iso.wav	2	6	3	noise_calib_stim_LEFT.wav	1	11	blb_dichoticlistening_da-pa.mp3	da	pa	1	left
6.6.1	win	2023-06-27	07:24:03	0	0	629f2dccc6e91be06559e2f1	1	1	DL_test	13	DL_test	3			0		da	1	1055	6	1	antiphase_hc_iso.wav	2	6	3	noise_calib_stim_LEFT.wav	1	12	blb_dichoticlistening_da-ta.mp3	da	ta	1	left
6.6.1	win	2023-06-27	07:24:03	0	0	629f2dccc6e91be06559e2f1	1	1	DL_test	13	DL_test	4			0		da	1	1129	6	1	antiphase_hc_iso.wav	2	6	3	noise_calib_stim_LEFT.wav	1	8	blb_dichoticlistening_da-da.mp3	da	da	0	left
6.6.1	win	2023-06-27	07:24:03	0	0	629f2dccc6e91be06559e2f1	1	1	DL_test	13	DL_test	5			0		ga	0	1677	6	1	antiphase_hc_iso.wav	2	6	3	noise_calib_stim_LEFT.wav	1	20	blb_dichoticlistening_ka-da.mp3	ka	da	1	other
6.6.1	win	2023-06-27	07:24:03	0	0	629f2dccc6e91be06559e2f1	1	1	DL_test	13	DL_test	6			0		ga	1	989	6	1	antiphase_hc_iso.wav	2	6	3	noise_calib_stim_LEFT.wav	1	17	blb_dichoticlistening_ga-pa.mp3	ga	pa	1	left
6.6.1	win	2023-06-27	07:24:03	0	0	629f2dccc6e91be06559e2f1	1	1	DL_test	13	DL_test	7			0		ta	1	1370	6	1	antiphase_hc_iso.wav	2	6	3	noise_calib_stim_LEFT.wav	1	36	blb_dichoticlistening_ta-ta.mp3	ta	ta	0	left
6.6.1	win	2023-06-27	07:24:03	0	0	629f2dccc6e91be06559e2f1	1	1	DL_test	13	DL_test	8			0		ka	1	1116	6	1	antiphase_hc_iso.wav	2	6	3	noise_calib_stim_LEFT.wav	1	23	blb_dichoticlistening_ka-pa.mp3	ka	pa	1	left
6.6.1	win	2023-06-27	07:24:03	0	0	629f2dccc6e91be06559e2f1	1	1	DL_test	13	DL_test	9			0		ka	1	951	6	1	antiphase_hc_iso.wav	2	6	3	noise_calib_stim_LEFT.wav	1	28	blb_dichoticlistening_pa-ka.mp3	pa	ka	1	right
6.6.1	win	2023-06-27	07:24:03	0	0	629f2dccc6e91be06559e2f1	1	1	DL_test	13	DL_test	10			0		ga	1	1027	6	1	antiphase_hc_iso.wav	2	6	3	noise_calib_stim_LEFT.wav	1	15	blb_dichoticlistening_ga-ga.mp3	ga	ga	0	left
6.6.1	win	2023-06-27	07:24:03	0	0	629f2dccc6e91be06559e2f1	1	1	DL_test	13	DL_test	11			0		ka	1	1485	6	1	antiphase_hc_iso.wav	2	6	3	noise_calib_stim_LEFT.wav	1	24	blb_dichoticlistening_ka-ta.mp3	ka	ta	1	left
6.6.1	win	2023-06-27	07:24:03	0	0	629f2dccc6e91be06559e2f1	1	1	DL_test	13	DL_test	12			0		pa	1	651	6	1	antiphase_hc_iso.wav	2	6	3	noise_calib_stim_LEFT.wav	1	29	blb_dichoticlistening_pa-pa.mp3	pa	pa	0	left
6.6.1	win	2023-06-27	07:24:03	0	0	629f2dccc6e91be06559e2f1	1	1	DL_test	13	DL_test	13			0		da	1	1275	6	1	antiphase_hc_iso.wav	2	6	3	noise_calib_stim_LEFT.wav	1	9	blb_dichoticlistening_da-ga.mp3	da	ga	1	left
6.6.1	win	2023-06-27	07:24:03	0	0	629f2dccc6e91be06559e2f1	1	1	DL_test	13	DL_test	14			0		da	0	1324	6	1	antiphase_hc_iso.wav	2	6	3	noise_calib_stim_LEFT.wav	1	13	blb_dichoticlistening_ga-ba.mp3	ga	ba	1	other
6.6.1	win	2023-06-27	07:24:03	0	0	629f2dccc6e91be06559e2f1	1	1	DL_test	13	DL_test	15			0		ta	1	1413	6	1	antiphase_hc_iso.wav	2	6	3	noise_calib_stim_LEFT.wav	1	33	blb_dichoticlistening_ta-ga.mp3	ta	ga	1	left
6.6.1	win	2023-06-27	07:24:03	0	0	629f2dccc6e91be06559e2f1	1	1	DL_test	13	DL_test	16			0		ba	1	1777	6	1	antiphase_hc_iso.wav	2	6	3	noise_calib_stim_LEFT.wav	1	4	blb_dichoticlistening_ba-ka.mp3	ba	ka	1	left
6.6.1	win	2023-06-27	07:24:03	0	0	629f2dccc6e91be06559e2f1	1	1	DL_test	13	DL_test	17			0		ba	1	819	6	1	antiphase_hc_iso.wav	2	6	3	noise_calib_stim_LEFT.wav	1	1	blb_dichoticlistening_ba-ba.mp3	ba	ba	0	left
6.6.1	win	2023-06-27	07:24:03	0	0	629f2dccc6e91be06559e2f1	1	1	DL_test	13	DL_test	18			0		da	0	1492	6	1	antiphase_hc_iso.wav	2	6	3	noise_calib_stim_LEFT.wav	1	31	blb_dichoticlistening_ta-ba.mp3	ta	ba	1	other
6.6.1	win	2023-06-27	07:24:03	0	0	629f2dccc6e91be06559e2f1	1	1	DL_test	13	DL_test	19			0		da	1	1294	6	1	antiphase_hc_iso.wav	2	6	3	noise_calib_stim_LEFT.wav	1	14	blb_dichoticlistening_ga-da.mp3	ga	da	1	right
6.6.1	win	2023-06-27	07:24:03	0	0	629f2dccc6e91be06559e2f1	1	1	DL_test	13	DL_test	20			0		ba	1	2236	6	1	antiphase_hc_iso.wav	2	6	3	noise_calib_stim_LEFT.wav	1	6	blb_dichoticlistening_ba-ta.mp3	ba	ta	1	left
6.6.1	win	2023-06-27	07:24:03	0	0	629f2dccc6e91be06559e2f1	1	1	DL_test	13	DL_test	21			0		ta	1	1289	6	1	antiphase_hc_iso.wav	2	6	3	noise_calib_stim_LEFT.wav	1	30	blb_dichoticlistening_pa-ta.mp3	pa	ta	1	right
6.6.1	win	2023-06-27	07:24:03	0	0	629f2dccc6e91be06559e2f1	1	1	DL_test	13	DL_test	22			0		pa	1	1440	6	1	antiphase_hc_iso.wav	2	6	3	noise_calib_stim_LEFT.wav	1	5	blb_dichoticlistening_ba-pa.mp3	ba	pa	1	right
6.6.1	win	2023-06-27	07:24:03	0	0	629f2dccc6e91be06559e2f1	1	1	DL_test	13	DL_test	23			0		ka	1	874	6	1	antiphase_hc_iso.wav	2	6	3	noise_calib_stim_LEFT.wav	1	22	blb_dichoticlistening_ka-ka.mp3	ka	ka	0	left
6.6.1	win	2023-06-27	07:24:03	0	0	629f2dccc6e91be06559e2f1	1	1	DL_test	13	DL_test	24			0		da	1	1625	6	1	antiphase_hc_iso.wav	2	6	3	noise_calib_stim_LEFT.wav	1	32	blb_dichoticlistening_ta-da.mp3	ta	da	1	right
6.6.1	win	2023-06-27	07:24:03	0	0	629f2dccc6e91be06559e2f1	1	1	DL_test	13	DL_test	25			0		da	1	1582	6	1	antiphase_hc_iso.wav	2	6	3	noise_calib_stim_LEFT.wav	1	10	blb_dichoticlistening_da-ka.mp3	da	ka	1	left
6.6.1	win	2023-06-27	07:24:03	0	0	629f2dccc6e91be06559e2f1	1	1	DL_test	13	DL_test	26			0		ka	0	1530	6	1	antiphase_hc_iso.wav	2	6	3	noise_calib_stim_LEFT.wav	1	27	blb_dichoticlistening_pa-ga.mp3	pa	ga	1	other
6.6.1	win	2023-06-27	07:24:03	0	0	629f2dccc6e91be06559e2f1	1	1	DL_test	13	DL_test	27			0		ta	0	1344	6	1	antiphase_hc_iso.wav	2	6	3	noise_calib_stim_LEFT.wav	1	26	blb_dichoticlistening_pa-da.mp3	pa	da	1	other
6.6.1	win	2023-06-27	07:24:03	0	0	629f2dccc6e91be06559e2f1	1	1	DL_test	13	DL_test	28			0		ba	1	1112	6	1	antiphase_hc_iso.wav	2	6	3	noise_calib_stim_LEFT.wav	1	2	blb_dichoticlistening_ba-da.mp3	ba	da	1	left
6.6.1	win	2023-06-27	07:24:03	0	0	629f2dccc6e91be06559e2f1	1	1	DL_test	13	DL_test	29			0		da	1	821	6	1	antiphase_hc_iso.wav	2	6	3	noise_calib_stim_LEFT.wav	1	7	blb_dichoticlistening_da-ba.mp3	da	ba	1	left
6.6.1	win	2023-06-27	07:24:03	0	0	629f2dccc6e91be06559e2f1	1	1	DL_test	13	DL_test	30			0		ga	1	936	6	1	antiphase_hc_iso.wav	2	6	3	noise_calib_stim_LEFT.wav	1	18	blb_dichoticlistening_ga-ta.mp3	ga	ta	1	left
6.6.1	win	2023-06-27	07:24:03	0	0	629f2dccc6e91be06559e2f1	1	1	DL_test	13	DL_test	31			0		ka	1	1186	6	1	antiphase_hc_iso.wav	2	6	3	noise_calib_stim_LEFT.wav	1	19	blb_dichoticlistening_ka-ba.mp3	ka	ba	1	left
6.6.1	win	2023-06-27	07:24:03	0	0	629f2dccc6e91be06559e2f1	1	1	DL_test	13	DL_test	32			0		ta	1	1542	6	1	antiphase_hc_iso.wav	2	6	3	noise_calib_stim_LEFT.wav	1	35	blb_dichoticlistening_ta-pa.mp3	ta	pa	1	left
6.6.1	win	2023-06-27	07:24:03	0	0	629f2dccc6e91be06559e2f1	1	1	DL_test	13	DL_test	33			0		pa	1	1011	6	1	antiphase_hc_iso.wav	2	6	3	noise_calib_stim_LEFT.wav	1	25	blb_dichoticlistening_pa-ba.mp3	pa	ba	1	left
6.6.1	win	2023-06-27	07:24:03	0	0	629f2dccc6e91be06559e2f1	1	1	DL_test	13	DL_test	34			0		ga	1	1409	6	1	antiphase_hc_iso.wav	2	6	3	noise_calib_stim_LEFT.wav	1	16	blb_dichoticlistening_ga-ka.mp3	ga	ka	1	left
6.6.1	win	2023-06-27	07:24:03	0	0	629f2dccc6e91be06559e2f1	1	1	DL_test	13	DL_test	35			0		ka	1	1025	6	1	antiphase_hc_iso.wav	2	6	3	noise_calib_stim_LEFT.wav	1	34	blb_dichoticlistening_ta-ka.mp3	ta	ka	1	right
6.6.1	win	2023-06-27	07:24:03	0	0	629f2dccc6e91be06559e2f1	1	1	DL_test	13	DL_test	36			0		ba	1	1236	6	1	antiphase_hc_iso.wav	2	6	3	noise_calib_stim_LEFT.wav	1	3	blb_dichoticlistening_ba-ga.mp3	ba	ga	1	left
6.6.1	win	2023-06-27	07:24:03	0	0	629f2dccc6e91be06559e2f1	1	1	DL_test	14	DL_test	1			0		pa	1	1685	6	1	antiphase_hc_iso.wav	2	6	3	noise_calib_stim_LEFT.wav	1	25	blb_dichoticlistening_pa-ba.mp3	pa	ba	1	left
6.6.1	win	2023-06-27	07:24:03	0	0	629f2dccc6e91be06559e2f1	1	1	DL_test	14	DL_test	2			0		da	1	993	6	1	antiphase_hc_iso.wav	2	6	3	noise_calib_stim_LEFT.wav	1	9	blb_dichoticlistening_da-ga.mp3	da	ga	1	left
6.6.1	win	2023-06-27	07:24:03	0	0	629f2dccc6e91be06559e2f1	1	1	DL_test	14	DL_test	3			0		ka	1	1034	6	1	antiphase_hc_iso.wav	2	6	3	noise_calib_stim_LEFT.wav	1	23	blb_dichoticlistening_ka-pa.mp3	ka	pa	1	left
6.6.1	win	2023-06-27	07:24:03	0	0	629f2dccc6e91be06559e2f1	1	1	DL_test	14	DL_test	4			0		ba	1	1323	6	1	antiphase_hc_iso.wav	2	6	3	noise_calib_stim_LEFT.wav	1	2	blb_dichoticlistening_ba-da.mp3	ba	da	1	left
6.6.1	win	2023-06-27	07:24:03	0	0	629f2dccc6e91be06559e2f1	1	1	DL_test	14	DL_test	5			0		ga	0	1159	6	1	antiphase_hc_iso.wav	2	6	3	noise_calib_stim_LEFT.wav	1	20	blb_dichoticlistening_ka-da.mp3	ka	da	1	other
6.6.1	win	2023-06-27	07:24:03	0	0	629f2dccc6e91be06559e2f1	1	1	DL_test	14	DL_test	6			0		da	1	961	6	1	antiphase_hc_iso.wav	2	6	3	noise_calib_stim_LEFT.wav	1	7	blb_dichoticlistening_da-ba.mp3	da	ba	1	left
6.6.1	win	2023-06-27	07:24:03	0	0	629f2dccc6e91be06559e2f1	1	1	DL_test	14	DL_test	7			0		ba	1	1461	6	1	antiphase_hc_iso.wav	2	6	3	noise_calib_stim_LEFT.wav	1	4	blb_dichoticlistening_ba-ka.mp3	ba	ka	1	left
6.6.1	win	2023-06-27	07:24:03	0	0	629f2dccc6e91be06559e2f1	1	1	DL_test	14	DL_test	8			0		ba	1	1073	6	1	antiphase_hc_iso.wav	2	6	3	noise_calib_stim_LEFT.wav	1	1	blb_dichoticlistening_ba-ba.mp3	ba	ba	0	left
6.6.1	win	2023-06-27	07:24:03	0	0	629f2dccc6e91be06559e2f1	1	1	DL_test	14	DL_test	9			0		ta	1	1290	6	1	antiphase_hc_iso.wav	2	6	3	noise_calib_stim_LEFT.wav	1	36	blb_dichoticlistening_ta-ta.mp3	ta	ta	0	left
6.6.1	win	2023-06-27	07:24:03	0	0	629f2dccc6e91be06559e2f1	1	1	DL_test	14	DL_test	10			0		pa	1	1596	6	1	antiphase_hc_iso.wav	2	6	3	noise_calib_stim_LEFT.wav	1	5	blb_dichoticlistening_ba-pa.mp3	ba	pa	1	right
6.6.1	win	2023-06-27	07:24:03	0	0	629f2dccc6e91be06559e2f1	1	1	DL_test	14	DL_test	11			0		da	1	1141	6	1	antiphase_hc_iso.wav	2	6	3	noise_calib_stim_LEFT.wav	1	8	blb_dichoticlistening_da-da.mp3	da	da	0	left
6.6.1	win	2023-06-27	07:24:03	0	0	629f2dccc6e91be06559e2f1	1	1	DL_test	14	DL_test	12			0		ka	1	1429	6	1	antiphase_hc_iso.wav	2	6	3	noise_calib_stim_LEFT.wav	1	19	blb_dichoticlistening_ka-ba.mp3	ka	ba	1	left
6.6.1	win	2023-06-27	07:24:03	0	0	629f2dccc6e91be06559e2f1	1	1	DL_test	14	DL_test	13			0		ka	1	858	6	1	antiphase_hc_iso.wav	2	6	3	noise_calib_stim_LEFT.wav	1	34	blb_dichoticlistening_ta-ka.mp3	ta	ka	1	right
6.6.1	win	2023-06-27	07:24:03	0	0	629f2dccc6e91be06559e2f1	1	1	DL_test	14	DL_test	14			0		da	1	1389	6	1	antiphase_hc_iso.wav	2	6	3	noise_calib_stim_LEFT.wav	1	32	blb_dichoticlistening_ta-da.mp3	ta	da	1	right
6.6.1	win	2023-06-27	07:24:03	0	0	629f2dccc6e91be06559e2f1	1	1	DL_test	14	DL_test	15			0		ga	1	1239	6	1	antiphase_hc_iso.wav	2	6	3	noise_calib_stim_LEFT.wav	1	27	blb_dichoticlistening_pa-ga.mp3	pa	ga	1	right
6.6.1	win	2023-06-27	07:24:03	0	0	629f2dccc6e91be06559e2f1	1	1	DL_test	14	DL_test	16			0		ta	1	1210	6	1	antiphase_hc_iso.wav	2	6	3	noise_calib_stim_LEFT.wav	1	30	blb_dichoticlistening_pa-ta.mp3	pa	ta	1	right
6.6.1	win	2023-06-27	07:24:03	0	0	629f2dccc6e91be06559e2f1	1	1	DL_test	14	DL_test	17			0		da	1	1288	6	1	antiphase_hc_iso.wav	2	6	3	noise_calib_stim_LEFT.wav	1	10	blb_dichoticlistening_da-ka.mp3	da	ka	1	left
6.6.1	win	2023-06-27	07:24:03	0	0	629f2dccc6e91be06559e2f1	1	1	DL_test	14	DL_test	18			0		pa	1	1236	6	1	antiphase_hc_iso.wav	2	6	3	noise_calib_stim_LEFT.wav	1	29	blb_dichoticlistening_pa-pa.mp3	pa	pa	0	left
6.6.1	win	2023-06-27	07:24:03	0	0	629f2dccc6e91be06559e2f1	1	1	DL_test	14	DL_test	19			0		ka	1	1300	6	1	antiphase_hc_iso.wav	2	6	3	noise_calib_stim_LEFT.wav	1	16	blb_dichoticlistening_ga-ka.mp3	ga	ka	1	right
6.6.1	win	2023-06-27	07:24:03	0	0	629f2dccc6e91be06559e2f1	1	1	DL_test	14	DL_test	20			0		ga	1	672	6	1	antiphase_hc_iso.wav	2	6	3	noise_calib_stim_LEFT.wav	1	17	blb_dichoticlistening_ga-pa.mp3	ga	pa	1	left
6.6.1	win	2023-06-27	07:24:03	0	0	629f2dccc6e91be06559e2f1	1	1	DL_test	14	DL_test	21			0		ta	1	962	6	1	antiphase_hc_iso.wav	2	6	3	noise_calib_stim_LEFT.wav	1	12	blb_dichoticlistening_da-ta.mp3	da	ta	1	right
6.6.1	win	2023-06-27	07:24:03	0	0	629f2dccc6e91be06559e2f1	1	1	DL_test	14	DL_test	22			0		ta	0	1164	6	1	antiphase_hc_iso.wav	2	6	3	noise_calib_stim_LEFT.wav	1	11	blb_dichoticlistening_da-pa.mp3	da	pa	1	other
6.6.1	win	2023-06-27	07:24:03	0	0	629f2dccc6e91be06559e2f1	1	1	DL_test	14	DL_test	23			0		ka	1	809	6	1	antiphase_hc_iso.wav	2	6	3	noise_calib_stim_LEFT.wav	1	24	blb_dichoticlistening_ka-ta.mp3	ka	ta	1	left
6.6.1	win	2023-06-27	07:24:03	0	0	629f2dccc6e91be06559e2f1	1	1	DL_test	14	DL_test	24			0		ta	1	1178	6	1	antiphase_hc_iso.wav	2	6	3	noise_calib_stim_LEFT.wav	1	35	blb_dichoticlistening_ta-pa.mp3	ta	pa	1	left
6.6.1	win	2023-06-27	07:24:03	0	0	629f2dccc6e91be06559e2f1	1	1	DL_test	14	DL_test	25			0		ka	1	1043	6	1	antiphase_hc_iso.wav	2	6	3	noise_calib_stim_LEFT.wav	1	22	blb_dichoticlistening_ka-ka.mp3	ka	ka	0	left
6.6.1	win	2023-06-27	07:24:03	0	0	629f2dccc6e91be06559e2f1	1	1	DL_test	14	DL_test	26			0		ga	1	813	6	1	antiphase_hc_iso.wav	2	6	3	noise_calib_stim_LEFT.wav	1	18	blb_dichoticlistening_ga-ta.mp3	ga	ta	1	left
6.6.1	win	2023-06-27	07:24:03	0	0	629f2dccc6e91be06559e2f1	1	1	DL_test	14	DL_test	27			0		ta	1	2214	6	1	antiphase_hc_iso.wav	2	6	3	noise_calib_stim_LEFT.wav	1	31	blb_dichoticlistening_ta-ba.mp3	ta	ba	1	left
6.6.1	win	2023-06-27	07:24:03	0	0	629f2dccc6e91be06559e2f1	1	1	DL_test	14	DL_test	28			0		ka	1	999	6	1	antiphase_hc_iso.wav	2	6	3	noise_calib_stim_LEFT.wav	1	28	blb_dichoticlistening_pa-ka.mp3	pa	ka	1	right
6.6.1	win	2023-06-27	07:24:03	0	0	629f2dccc6e91be06559e2f1	1	1	DL_test	14	DL_test	29			0		ga	1	829	6	1	antiphase_hc_iso.wav	2	6	3	noise_calib_stim_LEFT.wav	1	14	blb_dichoticlistening_ga-da.mp3	ga	da	1	left
6.6.1	win	2023-06-27	07:24:03	0	0	629f2dccc6e91be06559e2f1	1	1	DL_test	14	DL_test	30			0		ga	1	890	6	1	antiphase_hc_iso.wav	2	6	3	noise_calib_stim_LEFT.wav	1	15	blb_dichoticlistening_ga-ga.mp3	ga	ga	0	left
6.6.1	win	2023-06-27	07:24:03	0	0	629f2dccc6e91be06559e2f1	1	1	DL_test	14	DL_test	31			0		ga	1	828	6	1	antiphase_hc_iso.wav	2	6	3	noise_calib_stim_LEFT.wav	1	21	blb_dichoticlistening_ka-ga.mp3	ka	ga	1	right
6.6.1	win	2023-06-27	07:24:03	0	0	629f2dccc6e91be06559e2f1	1	1	DL_test	14	DL_test	32			0		da	1	1858	6	1	antiphase_hc_iso.wav	2	6	3	noise_calib_stim_LEFT.wav	1	26	blb_dichoticlistening_pa-da.mp3	pa	da	1	right
6.6.1	win	2023-06-27	07:24:03	0	0	629f2dccc6e91be06559e2f1	1	1	DL_test	14	DL_test	33			0		ta	1	1562	6	1	antiphase_hc_iso.wav	2	6	3	noise_calib_stim_LEFT.wav	1	6	blb_dichoticlistening_ba-ta.mp3	ba	ta	1	right
6.6.1	win	2023-06-27	07:24:03	0	0	629f2dccc6e91be06559e2f1	1	1	DL_test	14	DL_test	34			0		ba	1	2100	6	1	antiphase_hc_iso.wav	2	6	3	noise_calib_stim_LEFT.wav	1	3	blb_dichoticlistening_ba-ga.mp3	ba	ga	1	left
6.6.1	win	2023-06-27	07:24:03	0	0	629f2dccc6e91be06559e2f1	1	1	DL_test	14	DL_test	35			0		ga	1	822	6	1	antiphase_hc_iso.wav	2	6	3	noise_calib_stim_LEFT.wav	1	33	blb_dichoticlistening_ta-ga.mp3	ta	ga	1	right
6.6.1	win	2023-06-27	07:24:03	0	0	629f2dccc6e91be06559e2f1	1	1	DL_test	14	DL_test	36			0		ba	1	1179	6	1	antiphase_hc_iso.wav	2	6	3	noise_calib_stim_LEFT.wav	1	13	blb_dichoticlistening_ga-ba.mp3	ga	ba	1	right
6.6.1	win	2023-06-27	07:24:03	0	0	629f2dccc6e91be06559e2f1	1	1	DL_test	15	DL_test	1			0		ta	0	1950	6	1	antiphase_hc_iso.wav	2	6	3	noise_calib_stim_LEFT.wav	1	19	blb_dichoticlistening_ka-ba.mp3	ka	ba	1	other
6.6.1	win	2023-06-27	07:24:03	0	0	629f2dccc6e91be06559e2f1	1	1	DL_test	15	DL_test	2			0		ga	1	1129	6	1	antiphase_hc_iso.wav	2	6	3	noise_calib_stim_LEFT.wav	1	18	blb_dichoticlistening_ga-ta.mp3	ga	ta	1	left
6.6.1	win	2023-06-27	07:24:03	0	0	629f2dccc6e91be06559e2f1	1	1	DL_test	15	DL_test	3			0		ka	1	995	6	1	antiphase_hc_iso.wav	2	6	3	noise_calib_stim_LEFT.wav	1	34	blb_dichoticlistening_ta-ka.mp3	ta	ka	1	right
6.6.1	win	2023-06-27	07:24:03	0	0	629f2dccc6e91be06559e2f1	1	1	DL_test	15	DL_test	4			0		da	0	1591	6	1	antiphase_hc_iso.wav	2	6	3	noise_calib_stim_LEFT.wav	1	31	blb_dichoticlistening_ta-ba.mp3	ta	ba	1	other
6.6.1	win	2023-06-27	07:24:03	0	0	629f2dccc6e91be06559e2f1	1	1	DL_test	15	DL_test	5			0		ta	1	1395	6	1	antiphase_hc_iso.wav	2	6	3	noise_calib_stim_LEFT.wav	1	35	blb_dichoticlistening_ta-pa.mp3	ta	pa	1	left
6.6.1	win	2023-06-27	07:24:03	0	0	629f2dccc6e91be06559e2f1	1	1	DL_test	15	DL_test	6			0		ka	1	1213	6	1	antiphase_hc_iso.wav	2	6	3	noise_calib_stim_LEFT.wav	1	23	blb_dichoticlistening_ka-pa.mp3	ka	pa	1	left
6.6.1	win	2023-06-27	07:24:03	0	0	629f2dccc6e91be06559e2f1	1	1	DL_test	15	DL_test	7			0		ka	0	943	6	1	antiphase_hc_iso.wav	2	6	3	noise_calib_stim_LEFT.wav	1	6	blb_dichoticlistening_ba-ta.mp3	ba	ta	1	other
6.6.1	win	2023-06-27	07:24:03	0	0	629f2dccc6e91be06559e2f1	1	1	DL_test	15	DL_test	8			0		ta	1	1225	6	1	antiphase_hc_iso.wav	2	6	3	noise_calib_stim_LEFT.wav	1	30	blb_dichoticlistening_pa-ta.mp3	pa	ta	1	right
6.6.1	win	2023-06-27	07:24:03	0	0	629f2dccc6e91be06559e2f1	1	1	DL_test	15	DL_test	9			0		ga	1	772	6	1	antiphase_hc_iso.wav	2	6	3	noise_calib_stim_LEFT.wav	1	14	blb_dichoticlistening_ga-da.mp3	ga	da	1	left
6.6.1	win	2023-06-27	07:24:03	0	0	629f2dccc6e91be06559e2f1	1	1	DL_test	15	DL_test	10			0		ka	1	1320	6	1	antiphase_hc_iso.wav	2	6	3	noise_calib_stim_LEFT.wav	1	21	blb_dichoticlistening_ka-ga.mp3	ka	ga	1	left
6.6.1	win	2023-06-27	07:24:03	0	0	629f2dccc6e91be06559e2f1	1	1	DL_test	15	DL_test	11			0		da	1	796	6	1	antiphase_hc_iso.wav	2	6	3	noise_calib_stim_LEFT.wav	1	2	blb_dichoticlistening_ba-da.mp3	ba	da	1	right
6.6.1	win	2023-06-27	07:24:03	0	0	629f2dccc6e91be06559e2f1	1	1	DL_test	15	DL_test	12			0		ga	1	834	6	1	antiphase_hc_iso.wav	2	6	3	noise_calib_stim_LEFT.wav	1	33	blb_dichoticlistening_ta-ga.mp3	ta	ga	1	right
6.6.1	win	2023-06-27	07:24:03	0	0	629f2dccc6e91be06559e2f1	1	1	DL_test	15	DL_test	13			0		ka	1	1025	6	1	antiphase_hc_iso.wav	2	6	3	noise_calib_stim_LEFT.wav	1	24	blb_dichoticlistening_ka-ta.mp3	ka	ta	1	left
6.6.1	win	2023-06-27	07:24:03	0	0	629f2dccc6e91be06559e2f1	1	1	DL_test	15	DL_test	14			0		da	1	1163	6	1	antiphase_hc_iso.wav	2	6	3	noise_calib_stim_LEFT.wav	1	7	blb_dichoticlistening_da-ba.mp3	da	ba	1	left
6.6.1	win	2023-06-27	07:24:03	0	0	629f2dccc6e91be06559e2f1	1	1	DL_test	15	DL_test	15			0		ta	0	1609	6	1	antiphase_hc_iso.wav	2	6	3	noise_calib_stim_LEFT.wav	1	26	blb_dichoticlistening_pa-da.mp3	pa	da	1	other
6.6.1	win	2023-06-27	07:24:03	0	0	629f2dccc6e91be06559e2f1	1	1	DL_test	15	DL_test	16			0		da	1	1247	6	1	antiphase_hc_iso.wav	2	6	3	noise_calib_stim_LEFT.wav	1	20	blb_dichoticlistening_ka-da.mp3	ka	da	1	right
6.6.1	win	2023-06-27	07:24:03	0	0	629f2dccc6e91be06559e2f1	1	1	DL_test	15	DL_test	17			0		pa	1	1048	6	1	antiphase_hc_iso.wav	2	6	3	noise_calib_stim_LEFT.wav	1	29	blb_dichoticlistening_pa-pa.mp3	pa	pa	0	left
6.6.1	win	2023-06-27	07:24:03	0	0	629f2dccc6e91be06559e2f1	1	1	DL_test	15	DL_test	18			0		ga	1	788	6	1	antiphase_hc_iso.wav	2	6	3	noise_calib_stim_LEFT.wav	1	16	blb_dichoticlistening_ga-ka.mp3	ga	ka	1	left
6.6.1	win	2023-06-27	07:24:03	0	0	629f2dccc6e91be06559e2f1	1	1	DL_test	15	DL_test	19			0		ba	1	3210	6	1	antiphase_hc_iso.wav	2	6	3	noise_calib_stim_LEFT.wav	1	4	blb_dichoticlistening_ba-ka.mp3	ba	ka	1	left
6.6.1	win	2023-06-27	07:24:03	0	0	629f2dccc6e91be06559e2f1	1	1	DL_test	15	DL_test	20			0		da	1	1292	6	1	antiphase_hc_iso.wav	2	6	3	noise_calib_stim_LEFT.wav	1	10	blb_dichoticlistening_da-ka.mp3	da	ka	1	left
6.6.1	win	2023-06-27	07:24:03	0	0	629f2dccc6e91be06559e2f1	1	1	DL_test	15	DL_test	21			0		ka	1	941	6	1	antiphase_hc_iso.wav	2	6	3	noise_calib_stim_LEFT.wav	1	22	blb_dichoticlistening_ka-ka.mp3	ka	ka	0	left
6.6.1	win	2023-06-27	07:24:03	0	0	629f2dccc6e91be06559e2f1	1	1	DL_test	15	DL_test	22			0		ba	1	1243	6	1	antiphase_hc_iso.wav	2	6	3	noise_calib_stim_LEFT.wav	1	13	blb_dichoticlistening_ga-ba.mp3	ga	ba	1	right
6.6.1	win	2023-06-27	07:24:03	0	0	629f2dccc6e91be06559e2f1	1	1	DL_test	15	DL_test	23			0		da	0	969	6	1	antiphase_hc_iso.wav	2	6	3	noise_calib_stim_LEFT.wav	1	27	blb_dichoticlistening_pa-ga.mp3	pa	ga	1	other
6.6.1	win	2023-06-27	07:24:03	0	0	629f2dccc6e91be06559e2f1	1	1	DL_test	15	DL_test	24			0		ba	1	886	6	1	antiphase_hc_iso.wav	2	6	3	noise_calib_stim_LEFT.wav	1	3	blb_dichoticlistening_ba-ga.mp3	ba	ga	1	left
6.6.1	win	2023-06-27	07:24:03	0	0	629f2dccc6e91be06559e2f1	1	1	DL_test	15	DL_test	25			0		ta	1	995	6	1	antiphase_hc_iso.wav	2	6	3	noise_calib_stim_LEFT.wav	1	36	blb_dichoticlistening_ta-ta.mp3	ta	ta	0	left
6.6.1	win	2023-06-27	07:24:03	0	0	629f2dccc6e91be06559e2f1	1	1	DL_test	15	DL_test	26			0		ga	1	1055	6	1	antiphase_hc_iso.wav	2	6	3	noise_calib_stim_LEFT.wav	1	17	blb_dichoticlistening_ga-pa.mp3	ga	pa	1	left
6.6.1	win	2023-06-27	07:24:03	0	0	629f2dccc6e91be06559e2f1	1	1	DL_test	15	DL_test	27			0		pa	1	1204	6	1	antiphase_hc_iso.wav	2	6	3	noise_calib_stim_LEFT.wav	1	5	blb_dichoticlistening_ba-pa.mp3	ba	pa	1	right
6.6.1	win	2023-06-27	07:24:03	0	0	629f2dccc6e91be06559e2f1	1	1	DL_test	15	DL_test	28			0		da	1	1325	6	1	antiphase_hc_iso.wav	2	6	3	noise_calib_stim_LEFT.wav	1	11	blb_dichoticlistening_da-pa.mp3	da	pa	1	left
6.6.1	win	2023-06-27	07:24:03	0	0	629f2dccc6e91be06559e2f1	1	1	DL_test	15	DL_test	29			0		ba	1	1064	6	1	antiphase_hc_iso.wav	2	6	3	noise_calib_stim_LEFT.wav	1	1	blb_dichoticlistening_ba-ba.mp3	ba	ba	0	left
6.6.1	win	2023-06-27	07:24:03	0	0	629f2dccc6e91be06559e2f1	1	1	DL_test	15	DL_test	30			0		da	1	1655	6	1	antiphase_hc_iso.wav	2	6	3	noise_calib_stim_LEFT.wav	1	12	blb_dichoticlistening_da-ta.mp3	da	ta	1	left
6.6.1	win	2023-06-27	07:24:03	0	0	629f2dccc6e91be06559e2f1	1	1	DL_test	15	DL_test	31			0		pa	1	1527	6	1	antiphase_hc_iso.wav	2	6	3	noise_calib_stim_LEFT.wav	1	28	blb_dichoticlistening_pa-ka.mp3	pa	ka	1	left
6.6.1	win	2023-06-27	07:24:03	0	0	629f2dccc6e91be06559e2f1	1	1	DL_test	15	DL_test	32			0		pa	1	695	6	1	antiphase_hc_iso.wav	2	6	3	noise_calib_stim_LEFT.wav	1	25	blb_dichoticlistening_pa-ba.mp3	pa	ba	1	left
6.6.1	win	2023-06-27	07:24:03	0	0	629f2dccc6e91be06559e2f1	1	1	DL_test	15	DL_test	33			0		ba	0	927	6	1	antiphase_hc_iso.wav	2	6	3	noise_calib_stim_LEFT.wav	1	8	blb_dichoticlistening_da-da.mp3	da	da	0	other
6.6.1	win	2023-06-27	07:24:03	0	0	629f2dccc6e91be06559e2f1	1	1	DL_test	15	DL_test	34			0		ga	1	779	6	1	antiphase_hc_iso.wav	2	6	3	noise_calib_stim_LEFT.wav	1	15	blb_dichoticlistening_ga-ga.mp3	ga	ga	0	left
6.6.1	win	2023-06-27	07:24:03	0	0	629f2dccc6e91be06559e2f1	1	1	DL_test	15	DL_test	35			0		ta	1	1460	6	1	antiphase_hc_iso.wav	2	6	3	noise_calib_stim_LEFT.wav	1	32	blb_dichoticlistening_ta-da.mp3	ta	da	1	left
6.6.1	win	2023-06-27	07:24:03	0	0	629f2dccc6e91be06559e2f1	1	1	DL_test	15	DL_test	36			0		da	1	1050	6	1	antiphase_hc_iso.wav	2	6	3	noise_calib_stim_LEFT.wav	1	9	blb_dichoticlistening_da-ga.mp3	da	ga	1	left
6.6.1	win	2023-06-27	07:24:03	0	0	629f2dccc6e91be06559e2f1	1	1	DL_test	16	DL_test	1			0		ba	1	1018	6	1	antiphase_hc_iso.wav	2	6	3	noise_calib_stim_LEFT.wav	1	3	blb_dichoticlistening_ba-ga.mp3	ba	ga	1	left
6.6.1	win	2023-06-27	07:24:03	0	0	629f2dccc6e91be06559e2f1	1	1	DL_test	16	DL_test	2			0		ga	1	682	6	1	antiphase_hc_iso.wav	2	6	3	noise_calib_stim_LEFT.wav	1	21	blb_dichoticlistening_ka-ga.mp3	ka	ga	1	right
6.6.1	win	2023-06-27	07:24:03	0	0	629f2dccc6e91be06559e2f1	1	1	DL_test	16	DL_test	3			0		ta	1	1289	6	1	antiphase_hc_iso.wav	2	6	3	noise_calib_stim_LEFT.wav	1	30	blb_dichoticlistening_pa-ta.mp3	pa	ta	1	right
6.6.1	win	2023-06-27	07:24:03	0	0	629f2dccc6e91be06559e2f1	1	1	DL_test	16	DL_test	4			0		ta	1	2140	6	1	antiphase_hc_iso.wav	2	6	3	noise_calib_stim_LEFT.wav	1	36	blb_dichoticlistening_ta-ta.mp3	ta	ta	0	left
6.6.1	win	2023-06-27	07:24:03	0	0	629f2dccc6e91be06559e2f1	1	1	DL_test	16	DL_test	5			0		ta	0	2357	6	1	antiphase_hc_iso.wav	2	6	3	noise_calib_stim_LEFT.wav	1	10	blb_dichoticlistening_da-ka.mp3	da	ka	1	other
6.6.1	win	2023-06-27	07:24:03	0	0	629f2dccc6e91be06559e2f1	1	1	DL_test	16	DL_test	6			0		ka	1	1119	6	1	antiphase_hc_iso.wav	2	6	3	noise_calib_stim_LEFT.wav	1	23	blb_dichoticlistening_ka-pa.mp3	ka	pa	1	left
6.6.1	win	2023-06-27	07:24:03	0	0	629f2dccc6e91be06559e2f1	1	1	DL_test	16	DL_test	7			0		da	1	949	6	1	antiphase_hc_iso.wav	2	6	3	noise_calib_stim_LEFT.wav	1	7	blb_dichoticlistening_da-ba.mp3	da	ba	1	left
6.6.1	win	2023-06-27	07:24:03	0	0	629f2dccc6e91be06559e2f1	1	1	DL_test	16	DL_test	8			0		ba	1	1712	6	1	antiphase_hc_iso.wav	2	6	3	noise_calib_stim_LEFT.wav	1	5	blb_dichoticlistening_ba-pa.mp3	ba	pa	1	left
6.6.1	win	2023-06-27	07:24:03	0	0	629f2dccc6e91be06559e2f1	1	1	DL_test	16	DL_test	9			0		ga	1	907	6	1	antiphase_hc_iso.wav	2	6	3	noise_calib_stim_LEFT.wav	1	27	blb_dichoticlistening_pa-ga.mp3	pa	ga	1	right
6.6.1	win	2023-06-27	07:24:03	0	0	629f2dccc6e91be06559e2f1	1	1	DL_test	16	DL_test	10			0		ba	1	1530	6	1	antiphase_hc_iso.wav	2	6	3	noise_calib_stim_LEFT.wav	1	2	blb_dichoticlistening_ba-da.mp3	ba	da	1	left
6.6.1	win	2023-06-27	07:24:03	0	0	629f2dccc6e91be06559e2f1	1	1	DL_test	16	DL_test	11			0		pa	1	1730	6	1	antiphase_hc_iso.wav	2	6	3	noise_calib_stim_LEFT.wav	1	29	blb_dichoticlistening_pa-pa.mp3	pa	pa	0	left
6.6.1	win	2023-06-27	07:24:03	0	0	629f2dccc6e91be06559e2f1	1	1	DL_test	16	DL_test	12			0		da	1	1217	6	1	antiphase_hc_iso.wav	2	6	3	noise_calib_stim_LEFT.wav	1	14	blb_dichoticlistening_ga-da.mp3	ga	da	1	right
6.6.1	win	2023-06-27	07:24:03	0	0	629f2dccc6e91be06559e2f1	1	1	DL_test	16	DL_test	13			0		ta	1	1490	6	1	antiphase_hc_iso.wav	2	6	3	noise_calib_stim_LEFT.wav	1	34	blb_dichoticlistening_ta-ka.mp3	ta	ka	1	left
6.6.1	win	2023-06-27	07:24:03	0	0	629f2dccc6e91be06559e2f1	1	1	DL_test	16	DL_test	14			0		ga	1	1331	6	1	antiphase_hc_iso.wav	2	6	3	noise_calib_stim_LEFT.wav	1	9	blb_dichoticlistening_da-ga.mp3	da	ga	1	right
6.6.1	win	2023-06-27	07:24:03	0	0	629f2dccc6e91be06559e2f1	1	1	DL_test	16	DL_test	15			0		ka	1	980	6	1	antiphase_hc_iso.wav	2	6	3	noise_calib_stim_LEFT.wav	1	19	blb_dichoticlistening_ka-ba.mp3	ka	ba	1	left
6.6.1	win	2023-06-27	07:24:03	0	0	629f2dccc6e91be06559e2f1	1	1	DL_test	16	DL_test	16			0		da	1	819	6	1	antiphase_hc_iso.wav	2	6	3	noise_calib_stim_LEFT.wav	1	8	blb_dichoticlistening_da-da.mp3	da	da	0	left
6.6.1	win	2023-06-27	07:24:03	0	0	629f2dccc6e91be06559e2f1	1	1	DL_test	16	DL_test	17			0		ka	0	1129	6	1	antiphase_hc_iso.wav	2	6	3	noise_calib_stim_LEFT.wav	1	33	blb_dichoticlistening_ta-ga.mp3	ta	ga	1	other
6.6.1	win	2023-06-27	07:24:03	0	0	629f2dccc6e91be06559e2f1	1	1	DL_test	16	DL_test	18			0		ta	1	1701	6	1	antiphase_hc_iso.wav	2	6	3	noise_calib_stim_LEFT.wav	1	31	blb_dichoticlistening_ta-ba.mp3	ta	ba	1	left
6.6.1	win	2023-06-27	07:24:03	0	0	629f2dccc6e91be06559e2f1	1	1	DL_test	16	DL_test	19			0		ka	1	926	6	1	antiphase_hc_iso.wav	2	6	3	noise_calib_stim_LEFT.wav	1	16	blb_dichoticlistening_ga-ka.mp3	ga	ka	1	right
6.6.1	win	2023-06-27	07:24:03	0	0	629f2dccc6e91be06559e2f1	1	1	DL_test	16	DL_test	20			0		ka	1	1092	6	1	antiphase_hc_iso.wav	2	6	3	noise_calib_stim_LEFT.wav	1	24	blb_dichoticlistening_ka-ta.mp3	ka	ta	1	left
6.6.1	win	2023-06-27	07:24:03	0	0	629f2dccc6e91be06559e2f1	1	1	DL_test	16	DL_test	21			0		da	0	1015	6	1	antiphase_hc_iso.wav	2	6	3	noise_calib_stim_LEFT.wav	1	13	blb_dichoticlistening_ga-ba.mp3	ga	ba	1	other
6.6.1	win	2023-06-27	07:24:03	0	0	629f2dccc6e91be06559e2f1	1	1	DL_test	16	DL_test	22			0		ga	0	1087	6	1	antiphase_hc_iso.wav	2	6	3	noise_calib_stim_LEFT.wav	1	20	blb_dichoticlistening_ka-da.mp3	ka	da	1	other
6.6.1	win	2023-06-27	07:24:03	0	0	629f2dccc6e91be06559e2f1	1	1	DL_test	16	DL_test	23			0		pa	1	997	6	1	antiphase_hc_iso.wav	2	6	3	noise_calib_stim_LEFT.wav	1	25	blb_dichoticlistening_pa-ba.mp3	pa	ba	1	left
6.6.1	win	2023-06-27	07:24:03	0	0	629f2dccc6e91be06559e2f1	1	1	DL_test	16	DL_test	24			0		ba	1	961	6	1	antiphase_hc_iso.wav	2	6	3	noise_calib_stim_LEFT.wav	1	1	blb_dichoticlistening_ba-ba.mp3	ba	ba	0	left
6.6.1	win	2023-06-27	07:24:03	0	0	629f2dccc6e91be06559e2f1	1	1	DL_test	16	DL_test	25			0		ga	1	1089	6	1	antiphase_hc_iso.wav	2	6	3	noise_calib_stim_LEFT.wav	1	18	blb_dichoticlistening_ga-ta.mp3	ga	ta	1	left
6.6.1	win	2023-06-27	07:24:03	0	0	629f2dccc6e91be06559e2f1	1	1	DL_test	16	DL_test	26			0		ta	1	1062	6	1	antiphase_hc_iso.wav	2	6	3	noise_calib_stim_LEFT.wav	1	12	blb_dichoticlistening_da-ta.mp3	da	ta	1	right
6.6.1	win	2023-06-27	07:24:03	0	0	629f2dccc6e91be06559e2f1	1	1	DL_test	16	DL_test	27			0		ta	0	984	6	1	antiphase_hc_iso.wav	2	6	3	noise_calib_stim_LEFT.wav	1	11	blb_dichoticlistening_da-pa.mp3	da	pa	1	other
6.6.1	win	2023-06-27	07:24:03	0	0	629f2dccc6e91be06559e2f1	1	1	DL_test	16	DL_test	28			0		ka	1	1155	6	1	antiphase_hc_iso.wav	2	6	3	noise_calib_stim_LEFT.wav	1	28	blb_dichoticlistening_pa-ka.mp3	pa	ka	1	right
6.6.1	win	2023-06-27	07:24:03	0	0	629f2dccc6e91be06559e2f1	1	1	DL_test	16	DL_test	29			0		ka	1	1352	6	1	antiphase_hc_iso.wav	2	6	3	noise_calib_stim_LEFT.wav	1	22	blb_dichoticlistening_ka-ka.mp3	ka	ka	0	left
6.6.1	win	2023-06-27	07:24:03	0	0	629f2dccc6e91be06559e2f1	1	1	DL_test	16	DL_test	30			0		ta	1	1476	6	1	antiphase_hc_iso.wav	2	6	3	noise_calib_stim_LEFT.wav	1	35	blb_dichoticlistening_ta-pa.mp3	ta	pa	1	left
6.6.1	win	2023-06-27	07:24:03	0	0	629f2dccc6e91be06559e2f1	1	1	DL_test	16	DL_test	31			0		da	0	1901	6	1	antiphase_hc_iso.wav	2	6	3	noise_calib_stim_LEFT.wav	1	17	blb_dichoticlistening_ga-pa.mp3	ga	pa	1	other
6.6.1	win	2023-06-27	07:24:03	0	0	629f2dccc6e91be06559e2f1	1	1	DL_test	16	DL_test	32			0		ta	1	1380	6	1	antiphase_hc_iso.wav	2	6	3	noise_calib_stim_LEFT.wav	1	32	blb_dichoticlistening_ta-da.mp3	ta	da	1	left
6.6.1	win	2023-06-27	07:24:03	0	0	629f2dccc6e91be06559e2f1	1	1	DL_test	16	DL_test	33			0		ga	1	647	6	1	antiphase_hc_iso.wav	2	6	3	noise_calib_stim_LEFT.wav	1	15	blb_dichoticlistening_ga-ga.mp3	ga	ga	0	left
6.6.1	win	2023-06-27	07:24:03	0	0	629f2dccc6e91be06559e2f1	1	1	DL_test	16	DL_test	34			0		ta	0	1013	6	1	antiphase_hc_iso.wav	2	6	3	noise_calib_stim_LEFT.wav	1	26	blb_dichoticlistening_pa-da.mp3	pa	da	1	other
6.6.1	win	2023-06-27	07:24:03	0	0	629f2dccc6e91be06559e2f1	1	1	DL_test	16	DL_test	35			0		pa	0	1571	6	1	antiphase_hc_iso.wav	2	6	3	noise_calib_stim_LEFT.wav	1	6	blb_dichoticlistening_ba-ta.mp3	ba	ta	1	other
6.6.1	win	2023-06-27	07:24:03	0	0	629f2dccc6e91be06559e2f1	1	1	DL_test	16	DL_test	36			0		ba	1	1153	6	1	antiphase_hc_iso.wav	2	6	3	noise_calib_stim_LEFT.wav	1	4	blb_dichoticlistening_ba-ka.mp3	ba	ka	1	left
6.6.1	win	2023-06-27	07:24:03	07:35:14	666311	629f2dccc6e91be06559e2f1	1	1	practice_slash	22	practice_slash	1	stimuli_distractor_trianglediamonds.svg	stimuli_target_diamondrectangles.svg	12	yes	0	0	2000	6	1	antiphase_hc_iso.wav	2	6	3	noise_calib_stim_LEFT.wav	1	4	blb_dichoticlistening_ba-ka.mp3	ba	ka	1	left
6.6.1	win	2023-06-27	07:24:03	07:35:14	666311	629f2dccc6e91be06559e2f1	1	1	practice_slash	22	advance_on_keypress_SLASH	2	stimuli_distractor_trianglediamonds.svg	stimuli_target_diamondrectangles.svg	12	yes	57	0	1411	6	1	antiphase_hc_iso.wav	2	6	3	noise_calib_stim_LEFT.wav	1	4	blb_dichoticlistening_ba-ka.mp3	ba	ka	1	left
6.6.1	win	2023-06-27	07:24:03	07:35:18	670021	629f2dccc6e91be06559e2f1	1	1	practice_slash	22	practice_slash	3	stimuli_distractor_diamondtriangles.svg	stimuli_distractor_diamondtriangles.svg	13	no	53	0	636	6	1	antiphase_hc_iso.wav	2	6	3	noise_calib_stim_LEFT.wav	1	4	blb_dichoticlistening_ba-ka.mp3	ba	ka	1	left
6.6.1	win	2023-06-27	07:24:03	07:35:18	670021	629f2dccc6e91be06559e2f1	1	1	practice_slash	22	advance_on_keypress_SLASH	4	stimuli_distractor_diamondtriangles.svg	stimuli_distractor_diamondtriangles.svg	13	no	57	0	645	6	1	antiphase_hc_iso.wav	2	6	3	noise_calib_stim_LEFT.wav	1	4	blb_dichoticlistening_ba-ka.mp3	ba	ka	1	left
6.6.1	win	2023-06-27	07:24:03	07:35:21	672891	629f2dccc6e91be06559e2f1	1	1	practice_slash	22	practice_slash	5	stimuli_target_diamondsquares.svg	stimuli_distractor_trianglediamonds.svg	6	yes	53	1	563	6	1	antiphase_hc_iso.wav	2	6	3	noise_calib_stim_LEFT.wav	1	4	blb_dichoticlistening_ba-ka.mp3	ba	ka	1	left
6.6.1	win	2023-06-27	07:24:03	07:35:21	672891	629f2dccc6e91be06559e2f1	1	1	practice_slash	22	advance_on_keypress_SLASH	6	stimuli_target_diamondsquares.svg	stimuli_distractor_trianglediamonds.svg	6	yes	57	0	1152	6	1	antiphase_hc_iso.wav	2	6	3	noise_calib_stim_LEFT.wav	1	4	blb_dichoticlistening_ba-ka.mp3	ba	ka	1	left
6.6.1	win	2023-06-27	07:24:03	07:35:24	676235	629f2dccc6e91be06559e2f1	1	1	practice_slash	22	practice_slash	7	stimuli_target_rectanglediamonds.svg	stimuli_distractor_diamondtriangles.svg	1	yes	53	1	538	6	1	antiphase_hc_iso.wav	2	6	3	noise_calib_stim_LEFT.wav	1	4	blb_dichoticlistening_ba-ka.mp3	ba	ka	1	left
6.6.1	win	2023-06-27	07:24:03	07:35:24	676235	629f2dccc6e91be06559e2f1	1	1	practice_slash	22	advance_on_keypress_SLASH	8	stimuli_target_rectanglediamonds.svg	stimuli_distractor_diamondtriangles.svg	1	yes	57	0	315	6	1	antiphase_hc_iso.wav	2	6	3	noise_calib_stim_LEFT.wav	1	4	blb_dichoticlistening_ba-ka.mp3	ba	ka	1	left
6.6.1	win	2023-06-27	07:24:03	07:35:26	678774	629f2dccc6e91be06559e2f1	1	1	practice_slash	22	practice_slash	9	stimuli_distractor_diamondtriangles.svg	stimuli_target_diamondrectangles.svg	8	yes	53	1	566	6	1	antiphase_hc_iso.wav	2	6	3	noise_calib_stim_LEFT.wav	1	4	blb_dichoticlistening_ba-ka.mp3	ba	ka	1	left
6.6.1	win	2023-06-27	07:24:03	07:35:26	678774	629f2dccc6e91be06559e2f1	1	1	practice_slash	22	advance_on_keypress_SLASH	10	stimuli_distractor_diamondtriangles.svg	stimuli_target_diamondrectangles.svg	8	yes	57	0	453	6	1	antiphase_hc_iso.wav	2	6	3	noise_calib_stim_LEFT.wav	1	4	blb_dichoticlistening_ba-ka.mp3	ba	ka	1	left
6.6.1	win	2023-06-27	07:24:03	07:35:29	681514	629f2dccc6e91be06559e2f1	1	1	practice_slash	22	practice_slash	11	stimuli_distractor_diamondtriangles.svg	stimuli_target_trianglerectangles.svg	9	yes	53	1	625	6	1	antiphase_hc_iso.wav	2	6	3	noise_calib_stim_LEFT.wav	1	4	blb_dichoticlistening_ba-ka.mp3	ba	ka	1	left
6.6.1	win	2023-06-27	07:24:03	07:35:29	681514	629f2dccc6e91be06559e2f1	1	1	practice_slash	22	advance_on_keypress_SLASH	12	stimuli_distractor_diamondtriangles.svg	stimuli_target_trianglerectangles.svg	9	yes	57	0	428	6	1	antiphase_hc_iso.wav	2	6	3	noise_calib_stim_LEFT.wav	1	4	blb_dichoticlistening_ba-ka.mp3	ba	ka	1	left
6.6.1	win	2023-06-27	07:24:03	07:35:32	684243	629f2dccc6e91be06559e2f1	1	1	practice_slash	22	practice_slash	13	stimuli_target_squarediamonds.svg	stimuli_distractor_diamondtriangles.svg	2	yes	53	1	650	6	1	antiphase_hc_iso.wav	2	6	3	noise_calib_stim_LEFT.wav	1	4	blb_dichoticlistening_ba-ka.mp3	ba	ka	1	left
6.6.1	win	2023-06-27	07:24:03	07:35:32	684243	629f2dccc6e91be06559e2f1	1	1	practice_slash	22	advance_on_keypress_SLASH	14	stimuli_target_squarediamonds.svg	stimuli_distractor_diamondtriangles.svg	2	yes	57	0	377	6	1	antiphase_hc_iso.wav	2	6	3	noise_calib_stim_LEFT.wav	1	4	blb_dichoticlistening_ba-ka.mp3	ba	ka	1	left
6.6.1	win	2023-06-27	07:24:03	07:35:36	688284	629f2dccc6e91be06559e2f1	1	1	practice_slash	22	practice_slash	15	stimuli_distractor_trianglediamonds.svg	stimuli_distractor_trianglediamonds.svg	15	no	0	1	2000	6	1	antiphase_hc_iso.wav	2	6	3	noise_calib_stim_LEFT.wav	1	4	blb_dichoticlistening_ba-ka.mp3	ba	ka	1	left
6.6.1	win	2023-06-27	07:24:03	07:35:36	688284	629f2dccc6e91be06559e2f1	1	1	practice_slash	22	advance_on_keypress_SLASH	16	stimuli_distractor_trianglediamonds.svg	stimuli_distractor_trianglediamonds.svg	15	no	57	0	1017	6	1	antiphase_hc_iso.wav	2	6	3	noise_calib_stim_LEFT.wav	1	4	blb_dichoticlistening_ba-ka.mp3	ba	ka	1	left
6.6.1	win	2023-06-27	07:24:03	07:35:39	691604	629f2dccc6e91be06559e2f1	1	1	practice_slash	22	practice_slash	17	stimuli_distractor_trianglediamonds.svg	stimuli_target_rectanglediamonds.svg	10	yes	53	1	640	6	1	antiphase_hc_iso.wav	2	6	3	noise_calib_stim_LEFT.wav	1	4	blb_dichoticlistening_ba-ka.mp3	ba	ka	1	left
6.6.1	win	2023-06-27	07:24:03	07:35:39	691604	629f2dccc6e91be06559e2f1	1	1	practice_slash	22	advance_on_keypress_SLASH	18	stimuli_distractor_trianglediamonds.svg	stimuli_target_rectanglediamonds.svg	10	yes	57	0	369	6	1	antiphase_hc_iso.wav	2	6	3	noise_calib_stim_LEFT.wav	1	4	blb_dichoticlistening_ba-ka.mp3	ba	ka	1	left
6.6.1	win	2023-06-27	07:24:03	07:35:42	694122	629f2dccc6e91be06559e2f1	1	1	practice_slash	22	practice_slash	19	stimuli_distractor_diamondtriangles.svg	stimuli_target_rectangletriangles.svg	7	yes	53	1	493	6	1	antiphase_hc_iso.wav	2	6	3	noise_calib_stim_LEFT.wav	1	4	blb_dichoticlistening_ba-ka.mp3	ba	ka	1	left
6.6.1	win	2023-06-27	07:24:03	07:35:42	694122	629f2dccc6e91be06559e2f1	1	1	practice_slash	22	advance_on_keypress_SLASH	20	stimuli_distractor_diamondtriangles.svg	stimuli_target_rectangletriangles.svg	7	yes	57	0	325	6	1	antiphase_hc_iso.wav	2	6	3	noise_calib_stim_LEFT.wav	1	4	blb_dichoticlistening_ba-ka.mp3	ba	ka	1	left
6.6.1	win	2023-06-27	07:24:03	07:35:44	696561	629f2dccc6e91be06559e2f1	1	1	practice_slash	22	practice_slash	21	stimuli_distractor_trianglediamonds.svg	stimuli_target_squarediamonds.svg	11	yes	53	1	451	6	1	antiphase_hc_iso.wav	2	6	3	noise_calib_stim_LEFT.wav	1	4	blb_dichoticlistening_ba-ka.mp3	ba	ka	1	left
6.6.1	win	2023-06-27	07:24:03	07:35:44	696561	629f2dccc6e91be06559e2f1	1	1	practice_slash	22	advance_on_keypress_SLASH	22	stimuli_distractor_trianglediamonds.svg	stimuli_target_squarediamonds.svg	11	yes	57	0	366	6	1	antiphase_hc_iso.wav	2	6	3	noise_calib_stim_LEFT.wav	1	4	blb_dichoticlistening_ba-ka.mp3	ba	ka	1	left
6.6.1	win	2023-06-27	07:24:03	07:35:47	699376	629f2dccc6e91be06559e2f1	1	1	practice_slash	22	practice_slash	23	stimuli_distractor_trianglediamonds.svg	stimuli_distractor_diamondtriangles.svg	16	no	53	0	786	6	1	antiphase_hc_iso.wav	2	6	3	noise_calib_stim_LEFT.wav	1	4	blb_dichoticlistening_ba-ka.mp3	ba	ka	1	left
6.6.1	win	2023-06-27	07:24:03	07:35:47	699376	629f2dccc6e91be06559e2f1	1	1	practice_slash	22	advance_on_keypress_SLASH	24	stimuli_distractor_trianglediamonds.svg	stimuli_distractor_diamondtriangles.svg	16	no	57	0	528	6	1	antiphase_hc_iso.wav	2	6	3	noise_calib_stim_LEFT.wav	1	4	blb_dichoticlistening_ba-ka.mp3	ba	ka	1	left
6.6.1	win	2023-06-27	07:24:03	07:35:50	702323	629f2dccc6e91be06559e2f1	1	1	practice_slash	22	practice_slash	25	stimuli_distractor_diamondtriangles.svg	stimuli_distractor_trianglediamonds.svg	14	no	53	0	756	6	1	antiphase_hc_iso.wav	2	6	3	noise_calib_stim_LEFT.wav	1	4	blb_dichoticlistening_ba-ka.mp3	ba	ka	1	left
6.6.1	win	2023-06-27	07:24:03	07:35:50	702323	629f2dccc6e91be06559e2f1	1	1	practice_slash	22	advance_on_keypress_SLASH	26	stimuli_distractor_diamondtriangles.svg	stimuli_distractor_trianglediamonds.svg	14	no	57	0	323	6	1	antiphase_hc_iso.wav	2	6	3	noise_calib_stim_LEFT.wav	1	4	blb_dichoticlistening_ba-ka.mp3	ba	ka	1	left
6.6.1	win	2023-06-27	07:24:03	07:35:54	706310	629f2dccc6e91be06559e2f1	1	1	practice_slash	22	practice_slash	27	stimuli_target_diamondsquares.svg	stimuli_distractor_diamondtriangles.svg	3	yes	0	0	2000	6	1	antiphase_hc_iso.wav	2	6	3	noise_calib_stim_LEFT.wav	1	4	blb_dichoticlistening_ba-ka.mp3	ba	ka	1	left
6.6.1	win	2023-06-27	07:24:03	07:35:54	706310	629f2dccc6e91be06559e2f1	1	1	practice_slash	22	advance_on_keypress_SLASH	28	stimuli_target_diamondsquares.svg	stimuli_distractor_diamondtriangles.svg	3	yes	57	0	348	6	1	antiphase_hc_iso.wav	2	6	3	noise_calib_stim_LEFT.wav	1	4	blb_dichoticlistening_ba-ka.mp3	ba	ka	1	left
6.6.1	win	2023-06-27	07:24:03	07:35:57	708994	629f2dccc6e91be06559e2f1	1	1	practice_slash	22	practice_slash	29	stimuli_target_rectanglediamonds.svg	stimuli_distractor_trianglediamonds.svg	4	yes	53	1	673	6	1	antiphase_hc_iso.wav	2	6	3	noise_calib_stim_LEFT.wav	1	4	blb_dichoticlistening_ba-ka.mp3	ba	ka	1	left
6.6.1	win	2023-06-27	07:24:03	07:35:57	708994	629f2dccc6e91be06559e2f1	1	1	practice_slash	22	advance_on_keypress_SLASH	30	stimuli_target_rectanglediamonds.svg	stimuli_distractor_trianglediamonds.svg	4	yes	57	0	380	6	1	antiphase_hc_iso.wav	2	6	3	noise_calib_stim_LEFT.wav	1	4	blb_dichoticlistening_ba-ka.mp3	ba	ka	1	left
6.6.1	win	2023-06-27	07:24:03	07:35:59	711705	629f2dccc6e91be06559e2f1	1	1	practice_slash	22	practice_slash	31	stimuli_target_squarediamonds.svg	stimuli_distractor_trianglediamonds.svg	5	yes	53	1	668	6	1	antiphase_hc_iso.wav	2	6	3	noise_calib_stim_LEFT.wav	1	4	blb_dichoticlistening_ba-ka.mp3	ba	ka	1	left
6.6.1	win	2023-06-27	07:24:03	07:35:59	711705	629f2dccc6e91be06559e2f1	1	1	practice_slash	22	advance_on_keypress_SLASH	32	stimuli_target_squarediamonds.svg	stimuli_distractor_trianglediamonds.svg	5	yes	57	0	290	6	1	antiphase_hc_iso.wav	2	6	3	noise_calib_stim_LEFT.wav	1	4	blb_dichoticlistening_ba-ka.mp3	ba	ka	1	left
6.6.1	win	2023-06-27	07:24:03	07:36:10	721975	629f2dccc6e91be06559e2f1	1	1	main_slash	24	main_slash	1	stimuli_target_squaretriangles.svg	stimuli_distractor_trianglediamonds.svg	3	yes	53	1	607	6	1	antiphase_hc_iso.wav	2	6	3	noise_calib_stim_LEFT.wav	1	4	blb_dichoticlistening_ba-ka.mp3	ba	ka	1	left
6.6.1	win	2023-06-27	07:24:03	07:36:10	721975	629f2dccc6e91be06559e2f1	1	1	main_slash	24	advance_on_keypress_SLASH	2	stimuli_target_squaretriangles.svg	stimuli_distractor_trianglediamonds.svg	3	yes	57	0	870	6	1	antiphase_hc_iso.wav	2	6	3	noise_calib_stim_LEFT.wav	1	4	blb_dichoticlistening_ba-ka.mp3	ba	ka	1	left
6.6.1	win	2023-06-27	07:24:03	07:36:12	723972	629f2dccc6e91be06559e2f1	1	1	main_slash	24	main_slash	3	stimuli_target_rectanglediamonds.svg	stimuli_distractor_trianglediamonds.svg	2	yes	53	1	478	6	1	antiphase_hc_iso.wav	2	6	3	noise_calib_stim_LEFT.wav	1	4	blb_dichoticlistening_ba-ka.mp3	ba	ka	1	left
6.6.1	win	2023-06-27	07:24:03	07:36:12	723972	629f2dccc6e91be06559e2f1	1	1	main_slash	24	advance_on_keypress_SLASH	4	stimuli_target_rectanglediamonds.svg	stimuli_distractor_trianglediamonds.svg	2	yes	57	0	963	6	1	antiphase_hc_iso.wav	2	6	3	noise_calib_stim_LEFT.wav	1	4	blb_dichoticlistening_ba-ka.mp3	ba	ka	1	left
6.6.1	win	2023-06-27	07:24:03	07:36:14	726279	629f2dccc6e91be06559e2f1	1	1	main_slash	24	main_slash	5	stimuli_distractor_trianglediamonds.svg	stimuli_target_squarediamonds.svg	12	yes	53	1	693	6	1	antiphase_hc_iso.wav	2	6	3	noise_calib_stim_LEFT.wav	1	4	blb_dichoticlistening_ba-ka.mp3	ba	ka	1	left
6.6.1	win	2023-06-27	07:24:03	07:36:14	726279	629f2dccc6e91be06559e2f1	1	1	main_slash	24	advance_on_keypress_SLASH	6	stimuli_distractor_trianglediamonds.svg	stimuli_target_squarediamonds.svg	12	yes	57	0	739	6	1	antiphase_hc_iso.wav	2	6	3	noise_calib_stim_LEFT.wav	1	4	blb_dichoticlistening_ba-ka.mp3	ba	ka	1	left
6.6.1	win	2023-06-27	07:24:03	07:36:17	729677	629f2dccc6e91be06559e2f1	1	1	main_slash	24	main_slash	7	stimuli_distractor_trianglediamonds.svg	stimuli_distractor_trianglediamonds.svg	33	no	0	1	2000	6	1	antiphase_hc_iso.wav	2	6	3	noise_calib_stim_LEFT.wav	1	4	blb_dichoticlistening_ba-ka.mp3	ba	ka	1	left
6.6.1	win	2023-06-27	07:24:03	07:36:17	729677	629f2dccc6e91be06559e2f1	1	1	main_slash	24	advance_on_keypress_SLASH	8	stimuli_distractor_trianglediamonds.svg	stimuli_distractor_trianglediamonds.svg	33	no	57	0	605	6	1	antiphase_hc_iso.wav	2	6	3	noise_calib_stim_LEFT.wav	1	4	blb_dichoticlistening_ba-ka.mp3	ba	ka	1	left
6.6.1	win	2023-06-27	07:24:03	07:36:19	731674	629f2dccc6e91be06559e2f1	1	1	main_slash	24	main_slash	9	stimuli_distractor_trianglediamonds.svg	stimuli_target_diamondrectangles.svg	27	yes	53	1	736	6	1	antiphase_hc_iso.wav	2	6	3	noise_calib_stim_LEFT.wav	1	4	blb_dichoticlistening_ba-ka.mp3	ba	ka	1	left
6.6.1	win	2023-06-27	07:24:03	07:36:19	731674	629f2dccc6e91be06559e2f1	1	1	main_slash	24	advance_on_keypress_SLASH	10	stimuli_distractor_trianglediamonds.svg	stimuli_target_diamondrectangles.svg	27	yes	57	0	696	6	1	antiphase_hc_iso.wav	2	6	3	noise_calib_stim_LEFT.wav	1	4	blb_dichoticlistening_ba-ka.mp3	ba	ka	1	left
6.6.1	win	2023-06-27	07:24:03	07:36:21	733622	629f2dccc6e91be06559e2f1	1	1	main_slash	24	main_slash	11	stimuli_distractor_trianglediamonds.svg	stimuli_target_rectanglediamonds.svg	10	yes	53	1	595	6	1	antiphase_hc_iso.wav	2	6	3	noise_calib_stim_LEFT.wav	1	4	blb_dichoticlistening_ba-ka.mp3	ba	ka	1	left
6.6.1	win	2023-06-27	07:24:03	07:36:21	733622	629f2dccc6e91be06559e2f1	1	1	main_slash	24	advance_on_keypress_SLASH	12	stimuli_distractor_trianglediamonds.svg	stimuli_target_rectanglediamonds.svg	10	yes	57	0	727	6	1	antiphase_hc_iso.wav	2	6	3	noise_calib_stim_LEFT.wav	1	4	blb_dichoticlistening_ba-ka.mp3	ba	ka	1	left
6.6.1	win	2023-06-27	07:24:03	07:36:24	736132	629f2dccc6e91be06559e2f1	1	1	main_slash	24	main_slash	13	stimuli_distractor_trianglediamonds.svg	stimuli_target_trianglesquares.svg	26	yes	53	1	1135	6	1	antiphase_hc_iso.wav	2	6	3	noise_calib_stim_LEFT.wav	1	4	blb_dichoticlistening_ba-ka.mp3	ba	ka	1	left
6.6.1	win	2023-06-27	07:24:03	07:36:24	736132	629f2dccc6e91be06559e2f1	1	1	main_slash	24	advance_on_keypress_SLASH	14	stimuli_distractor_trianglediamonds.svg	stimuli_target_trianglesquares.svg	26	yes	57	0	584	6	1	antiphase_hc_iso.wav	2	6	3	noise_calib_stim_LEFT.wav	1	4	blb_dichoticlistening_ba-ka.mp3	ba	ka	1	left
6.6.1	win	2023-06-27	07:24:03	07:36:26	738091	629f2dccc6e91be06559e2f1	1	1	main_slash	24	main_slash	15	stimuli_target_diamondsquares.svg	stimuli_distractor_diamondtriangles.svg	24	yes	53	1	727	6	1	antiphase_hc_iso.wav	2	6	3	noise_calib_stim_LEFT.wav	1	4	blb_dichoticlistening_ba-ka.mp3	ba	ka	1	left
6.6.1	win	2023-06-27	07:24:03	07:36:26	738091	629f2dccc6e91be06559e2f1	1	1	main_slash	24	advance_on_keypress_SLASH	16	stimuli_target_diamondsquares.svg	stimuli_distractor_diamondtriangles.svg	24	yes	57	0	777	6	1	antiphase_hc_iso.wav	2	6	3	noise_calib_stim_LEFT.wav	1	4	blb_dichoticlistening_ba-ka.mp3	ba	ka	1	left
6.6.1	win	2023-06-27	07:24:03	07:36:29	741528	629f2dccc6e91be06559e2f1	1	1	main_slash	24	main_slash	17	stimuli_distractor_diamondtriangles.svg	stimuli_distractor_diamondtriangles.svg	40	no	0	1	2000	6	1	antiphase_hc_iso.wav	2	6	3	noise_calib_stim_LEFT.wav	1	4	blb_dichoticlistening_ba-ka.mp3	ba	ka	1	left
6.6.1	win	2023-06-27	07:24:03	07:36:29	741528	629f2dccc6e91be06559e2f1	1	1	main_slash	24	advance_on_keypress_SLASH	18	stimuli_distractor_diamondtriangles.svg	stimuli_distractor_diamondtriangles.svg	40	no	57	0	290	6	1	antiphase_hc_iso.wav	2	6	3	noise_calib_stim_LEFT.wav	1	4	blb_dichoticlistening_ba-ka.mp3	ba	ka	1	left
6.6.1	win	2023-06-27	07:24:03	07:36:31	743577	629f2dccc6e91be06559e2f1	1	1	main_slash	24	main_slash	19	stimuli_distractor_trianglediamonds.svg	stimuli_target_trianglerectangles.svg	25	yes	53	1	1100	6	1	antiphase_hc_iso.wav	2	6	3	noise_calib_stim_LEFT.wav	1	4	blb_dichoticlistening_ba-ka.mp3	ba	ka	1	left
6.6.1	win	2023-06-27	07:24:03	07:36:31	743577	629f2dccc6e91be06559e2f1	1	1	main_slash	24	advance_on_keypress_SLASH	20	stimuli_distractor_trianglediamonds.svg	stimuli_target_trianglerectangles.svg	25	yes	57	0	581	6	1	antiphase_hc_iso.wav	2	6	3	noise_calib_stim_LEFT.wav	1	4	blb_dichoticlistening_ba-ka.mp3	ba	ka	1	left
6.6.1	win	2023-06-27	07:24:03	07:36:33	745432	629f2dccc6e91be06559e2f1	1	1	main_slash	24	main_slash	21	stimuli_target_trianglesquares.svg	stimuli_distractor_trianglediamonds.svg	18	yes	53	1	624	6	1	antiphase_hc_iso.wav	2	6	3	noise_calib_stim_LEFT.wav	1	4	blb_dichoticlistening_ba-ka.mp3	ba	ka	1	left
6.6.1	win	2023-06-27	07:24:03	07:36:33	745432	629f2dccc6e91be06559e2f1	1	1	main_slash	24	advance_on_keypress_SLASH	22	stimuli_target_trianglesquares.svg	stimuli_distractor_trianglediamonds.svg	18	yes	57	0	607	6	1	antiphase_hc_iso.wav	2	6	3	noise_calib_stim_LEFT.wav	1	4	blb_dichoticlistening_ba-ka.mp3	ba	ka	1	left
6.6.1	win	2023-06-27	07:24:03	07:36:36	748700	629f2dccc6e91be06559e2f1	1	1	main_slash	24	main_slash	23	stimuli_distractor_trianglediamonds.svg	stimuli_distractor_diamondtriangles.svg	36	no	0	1	2000	6	1	antiphase_hc_iso.wav	2	6	3	noise_calib_stim_LEFT.wav	1	4	blb_dichoticlistening_ba-ka.mp3	ba	ka	1	left
6.6.1	win	2023-06-27	07:24:03	07:36:36	748700	629f2dccc6e91be06559e2f1	1	1	main_slash	24	advance_on_keypress_SLASH	24	stimuli_distractor_trianglediamonds.svg	stimuli_distractor_diamondtriangles.svg	36	no	57	0	304	6	1	antiphase_hc_iso.wav	2	6	3	noise_calib_stim_LEFT.wav	1	4	blb_dichoticlistening_ba-ka.mp3	ba	ka	1	left
6.6.1	win	2023-06-27	07:24:03	07:36:38	750378	629f2dccc6e91be06559e2f1	1	1	main_slash	24	main_slash	25	stimuli_target_trianglerectangles.svg	stimuli_distractor_trianglediamonds.svg	17	yes	53	1	713	6	1	antiphase_hc_iso.wav	2	6	3	noise_calib_stim_LEFT.wav	1	4	blb_dichoticlistening_ba-ka.mp3	ba	ka	1	left
6.6.1	win	2023-06-27	07:24:03	07:36:38	750378	629f2dccc6e91be06559e2f1	1	1	main_slash	24	advance_on_keypress_SLASH	26	stimuli_target_trianglerectangles.svg	stimuli_distractor_trianglediamonds.svg	17	yes	57	0	595	6	1	antiphase_hc_iso.wav	2	6	3	noise_calib_stim_LEFT.wav	1	4	blb_dichoticlistening_ba-ka.mp3	ba	ka	1	left
6.6.1	win	2023-06-27	07:24:03	07:36:40	752301	629f2dccc6e91be06559e2f1	1	1	main_slash	24	main_slash	27	stimuli_distractor_trianglediamonds.svg	stimuli_target_diamondsquares.svg	28	yes	53	1	671	6	1	antiphase_hc_iso.wav	2	6	3	noise_calib_stim_LEFT.wav	1	4	blb_dichoticlistening_ba-ka.mp3	ba	ka	1	left
6.6.1	win	2023-06-27	07:24:03	07:36:40	752301	629f2dccc6e91be06559e2f1	1	1	main_slash	24	advance_on_keypress_SLASH	28	stimuli_distractor_trianglediamonds.svg	stimuli_target_diamondsquares.svg	28	yes	57	0	766	6	1	antiphase_hc_iso.wav	2	6	3	noise_calib_stim_LEFT.wav	1	4	blb_dichoticlistening_ba-ka.mp3	ba	ka	1	left
6.6.1	win	2023-06-27	07:24:03	07:36:42	754832	629f2dccc6e91be06559e2f1	1	1	main_slash	24	main_slash	29	stimuli_distractor_diamondtriangles.svg	stimuli_distractor_diamondtriangles.svg	39	no	53	0	1119	6	1	antiphase_hc_iso.wav	2	6	3	noise_calib_stim_LEFT.wav	1	4	blb_dichoticlistening_ba-ka.mp3	ba	ka	1	left
6.6.1	win	2023-06-27	07:24:03	07:36:42	754832	629f2dccc6e91be06559e2f1	1	1	main_slash	24	advance_on_keypress_SLASH	30	stimuli_distractor_diamondtriangles.svg	stimuli_distractor_diamondtriangles.svg	39	no	57	0	346	6	1	antiphase_hc_iso.wav	2	6	3	noise_calib_stim_LEFT.wav	1	4	blb_dichoticlistening_ba-ka.mp3	ba	ka	1	left
6.6.1	win	2023-06-27	07:24:03	07:36:44	756515	629f2dccc6e91be06559e2f1	1	1	main_slash	24	main_slash	31	stimuli_target_squaretriangles.svg	stimuli_distractor_diamondtriangles.svg	7	yes	53	1	693	6	1	antiphase_hc_iso.wav	2	6	3	noise_calib_stim_LEFT.wav	1	4	blb_dichoticlistening_ba-ka.mp3	ba	ka	1	left
6.6.1	win	2023-06-27	07:24:03	07:36:44	756515	629f2dccc6e91be06559e2f1	1	1	main_slash	24	advance_on_keypress_SLASH	32	stimuli_target_squaretriangles.svg	stimuli_distractor_diamondtriangles.svg	7	yes	57	0	455	6	1	antiphase_hc_iso.wav	2	6	3	noise_calib_stim_LEFT.wav	1	4	blb_dichoticlistening_ba-ka.mp3	ba	ka	1	left
6.6.1	win	2023-06-27	07:24:03	07:36:46	758817	629f2dccc6e91be06559e2f1	1	1	main_slash	24	main_slash	33	stimuli_target_diamondrectangles.svg	stimuli_distractor_diamondtriangles.svg	23	yes	53	1	1187	6	1	antiphase_hc_iso.wav	2	6	3	noise_calib_stim_LEFT.wav	1	4	blb_dichoticlistening_ba-ka.mp3	ba	ka	1	left
6.6.1	win	2023-06-27	07:24:03	07:36:46	758817	629f2dccc6e91be06559e2f1	1	1	main_slash	24	advance_on_keypress_SLASH	34	stimuli_target_diamondrectangles.svg	stimuli_distractor_diamondtriangles.svg	23	yes	57	0	342	6	1	antiphase_hc_iso.wav	2	6	3	noise_calib_stim_LEFT.wav	1	4	blb_dichoticlistening_ba-ka.mp3	ba	ka	1	left
6.6.1	win	2023-06-27	07:24:03	07:36:48	760540	629f2dccc6e91be06559e2f1	1	1	main_slash	24	main_slash	35	stimuli_target_trianglerectangles.svg	stimuli_distractor_diamondtriangles.svg	21	yes	53	1	721	6	1	antiphase_hc_iso.wav	2	6	3	noise_calib_stim_LEFT.wav	1	4	blb_dichoticlistening_ba-ka.mp3	ba	ka	1	left
6.6.1	win	2023-06-27	07:24:03	07:36:48	760540	629f2dccc6e91be06559e2f1	1	1	main_slash	24	advance_on_keypress_SLASH	36	stimuli_target_trianglerectangles.svg	stimuli_distractor_diamondtriangles.svg	21	yes	57	0	509	6	1	antiphase_hc_iso.wav	2	6	3	noise_calib_stim_LEFT.wav	1	4	blb_dichoticlistening_ba-ka.mp3	ba	ka	1	left
6.6.1	win	2023-06-27	07:24:03	07:36:50	762409	629f2dccc6e91be06559e2f1	1	1	main_slash	24	main_slash	37	stimuli_target_diamondrectangles.svg	stimuli_distractor_trianglediamonds.svg	19	yes	53	1	707	6	1	antiphase_hc_iso.wav	2	6	3	noise_calib_stim_LEFT.wav	1	4	blb_dichoticlistening_ba-ka.mp3	ba	ka	1	left
6.6.1	win	2023-06-27	07:24:03	07:36:50	762409	629f2dccc6e91be06559e2f1	1	1	main_slash	24	advance_on_keypress_SLASH	38	stimuli_target_diamondrectangles.svg	stimuli_distractor_trianglediamonds.svg	19	yes	57	0	493	6	1	antiphase_hc_iso.wav	2	6	3	noise_calib_stim_LEFT.wav	1	4	blb_dichoticlistening_ba-ka.mp3	ba	ka	1	left
6.6.1	win	2023-06-27	07:24:03	07:36:52	764254	629f2dccc6e91be06559e2f1	1	1	main_slash	24	main_slash	39	stimuli_distractor_diamondtriangles.svg	stimuli_target_squarediamonds.svg	16	yes	53	1	693	6	1	antiphase_hc_iso.wav	2	6	3	noise_calib_stim_LEFT.wav	1	4	blb_dichoticlistening_ba-ka.mp3	ba	ka	1	left
6.6.1	win	2023-06-27	07:24:03	07:36:52	764254	629f2dccc6e91be06559e2f1	1	1	main_slash	24	advance_on_keypress_SLASH	40	stimuli_distractor_diamondtriangles.svg	stimuli_target_squarediamonds.svg	16	yes	57	0	534	6	1	antiphase_hc_iso.wav	2	6	3	noise_calib_stim_LEFT.wav	1	4	blb_dichoticlistening_ba-ka.mp3	ba	ka	1	left
6.6.1	win	2023-06-27	07:24:03	07:36:54	766073	629f2dccc6e91be06559e2f1	1	1	main_slash	24	main_slash	41	stimuli_distractor_diamondtriangles.svg	stimuli_target_diamondrectangles.svg	31	yes	53	1	627	6	1	antiphase_hc_iso.wav	2	6	3	noise_calib_stim_LEFT.wav	1	4	blb_dichoticlistening_ba-ka.mp3	ba	ka	1	left
6.6.1	win	2023-06-27	07:24:03	07:36:54	766073	629f2dccc6e91be06559e2f1	1	1	main_slash	24	advance_on_keypress_SLASH	42	stimuli_distractor_diamondtriangles.svg	stimuli_target_diamondrectangles.svg	31	yes	57	0	480	6	1	antiphase_hc_iso.wav	2	6	3	noise_calib_stim_LEFT.wav	1	4	blb_dichoticlistening_ba-ka.mp3	ba	ka	1	left
6.6.1	win	2023-06-27	07:24:03	07:36:57	769213	629f2dccc6e91be06559e2f1	1	1	main_slash	24	main_slash	43	stimuli_distractor_diamondtriangles.svg	stimuli_target_squaretriangles.svg	15	yes	0	0	2000	6	1	antiphase_hc_iso.wav	2	6	3	noise_calib_stim_LEFT.wav	1	4	blb_dichoticlistening_ba-ka.mp3	ba	ka	1	left
6.6.1	win	2023-06-27	07:24:03	07:36:57	769213	629f2dccc6e91be06559e2f1	1	1	main_slash	24	advance_on_keypress_SLASH	44	stimuli_distractor_diamondtriangles.svg	stimuli_target_squaretriangles.svg	15	yes	57	0	627	6	1	antiphase_hc_iso.wav	2	6	3	noise_calib_stim_LEFT.wav	1	4	blb_dichoticlistening_ba-ka.mp3	ba	ka	1	left
6.6.1	win	2023-06-27	07:24:03	07:36:59	771320	629f2dccc6e91be06559e2f1	1	1	main_slash	24	main_slash	45	stimuli_target_rectangletriangles.svg	stimuli_distractor_diamondtriangles.svg	5	yes	53	1	821	6	1	antiphase_hc_iso.wav	2	6	3	noise_calib_stim_LEFT.wav	1	4	blb_dichoticlistening_ba-ka.mp3	ba	ka	1	left
6.6.1	win	2023-06-27	07:24:03	07:36:59	771320	629f2dccc6e91be06559e2f1	1	1	main_slash	24	advance_on_keypress_SLASH	46	stimuli_target_rectangletriangles.svg	stimuli_distractor_diamondtriangles.svg	5	yes	57	0	530	6	1	antiphase_hc_iso.wav	2	6	3	noise_calib_stim_LEFT.wav	1	4	blb_dichoticlistening_ba-ka.mp3	ba	ka	1	left
6.6.1	win	2023-06-27	07:24:03	07:37:01	773665	629f2dccc6e91be06559e2f1	1	1	main_slash	24	main_slash	47	stimuli_distractor_trianglediamonds.svg	stimuli_distractor_diamondtriangles.svg	35	no	53	0	1156	6	1	antiphase_hc_iso.wav	2	6	3	noise_calib_stim_LEFT.wav	1	4	blb_dichoticlistening_ba-ka.mp3	ba	ka	1	left
6.6.1	win	2023-06-27	07:24:03	07:37:01	773665	629f2dccc6e91be06559e2f1	1	1	main_slash	24	advance_on_keypress_SLASH	48	stimuli_distractor_trianglediamonds.svg	stimuli_distractor_diamondtriangles.svg	35	no	57	0	391	6	1	antiphase_hc_iso.wav	2	6	3	noise_calib_stim_LEFT.wav	1	4	blb_dichoticlistening_ba-ka.mp3	ba	ka	1	left
6.6.1	win	2023-06-27	07:24:03	07:37:03	775518	629f2dccc6e91be06559e2f1	1	1	main_slash	24	main_slash	49	stimuli_target_squarediamonds.svg	stimuli_distractor_diamondtriangles.svg	8	yes	53	1	802	6	1	antiphase_hc_iso.wav	2	6	3	noise_calib_stim_LEFT.wav	1	4	blb_dichoticlistening_ba-ka.mp3	ba	ka	1	left
6.6.1	win	2023-06-27	07:24:03	07:37:03	775518	629f2dccc6e91be06559e2f1	1	1	main_slash	24	advance_on_keypress_SLASH	50	stimuli_target_squarediamonds.svg	stimuli_distractor_diamondtriangles.svg	8	yes	57	0	527	6	1	antiphase_hc_iso.wav	2	6	3	noise_calib_stim_LEFT.wav	1	4	blb_dichoticlistening_ba-ka.mp3	ba	ka	1	left
6.6.1	win	2023-06-27	07:24:03	07:37:05	777339	629f2dccc6e91be06559e2f1	1	1	main_slash	24	main_slash	51	stimuli_target_rectanglediamonds.svg	stimuli_distractor_diamondtriangles.svg	6	yes	53	1	635	6	1	antiphase_hc_iso.wav	2	6	3	noise_calib_stim_LEFT.wav	1	4	blb_dichoticlistening_ba-ka.mp3	ba	ka	1	left
6.6.1	win	2023-06-27	07:24:03	07:37:05	777339	629f2dccc6e91be06559e2f1	1	1	main_slash	24	advance_on_keypress_SLASH	52	stimuli_target_rectanglediamonds.svg	stimuli_distractor_diamondtriangles.svg	6	yes	57	0	414	6	1	antiphase_hc_iso.wav	2	6	3	noise_calib_stim_LEFT.wav	1	4	blb_dichoticlistening_ba-ka.mp3	ba	ka	1	left
6.6.1	win	2023-06-27	07:24:03	07:37:08	780412	629f2dccc6e91be06559e2f1	1	1	main_slash	24	main_slash	53	stimuli_distractor_trianglediamonds.svg	stimuli_target_squaretriangles.svg	11	yes	0	0	2000	6	1	antiphase_hc_iso.wav	2	6	3	noise_calib_stim_LEFT.wav	1	4	blb_dichoticlistening_ba-ka.mp3	ba	ka	1	left
6.6.1	win	2023-06-27	07:24:03	07:37:08	780412	629f2dccc6e91be06559e2f1	1	1	main_slash	24	advance_on_keypress_SLASH	54	stimuli_distractor_trianglediamonds.svg	stimuli_target_squaretriangles.svg	11	yes	57	0	285	6	1	antiphase_hc_iso.wav	2	6	3	noise_calib_stim_LEFT.wav	1	4	blb_dichoticlistening_ba-ka.mp3	ba	ka	1	left
6.6.1	win	2023-06-27	07:24:03	07:37:10	782021	629f2dccc6e91be06559e2f1	1	1	main_slash	24	main_slash	55	stimuli_distractor_diamondtriangles.svg	stimuli_target_trianglerectangles.svg	29	yes	53	1	665	6	1	antiphase_hc_iso.wav	2	6	3	noise_calib_stim_LEFT.wav	1	4	blb_dichoticlistening_ba-ka.mp3	ba	ka	1	left
6.6.1	win	2023-06-27	07:24:03	07:37:10	782021	629f2dccc6e91be06559e2f1	1	1	main_slash	24	advance_on_keypress_SLASH	56	stimuli_distractor_diamondtriangles.svg	stimuli_target_trianglerectangles.svg	29	yes	57	0	465	6	1	antiphase_hc_iso.wav	2	6	3	noise_calib_stim_LEFT.wav	1	4	blb_dichoticlistening_ba-ka.mp3	ba	ka	1	left
6.6.1	win	2023-06-27	07:24:03	07:37:12	783860	629f2dccc6e91be06559e2f1	1	1	main_slash	24	main_slash	57	stimuli_distractor_diamondtriangles.svg	stimuli_target_rectangletriangles.svg	13	yes	53	1	715	6	1	antiphase_hc_iso.wav	2	6	3	noise_calib_stim_LEFT.wav	1	4	blb_dichoticlistening_ba-ka.mp3	ba	ka	1	left
6.6.1	win	2023-06-27	07:24:03	07:37:12	783860	629f2dccc6e91be06559e2f1	1	1	main_slash	24	advance_on_keypress_SLASH	58	stimuli_distractor_diamondtriangles.svg	stimuli_target_rectangletriangles.svg	13	yes	57	0	493	6	1	antiphase_hc_iso.wav	2	6	3	noise_calib_stim_LEFT.wav	1	4	blb_dichoticlistening_ba-ka.mp3	ba	ka	1	left
6.6.1	win	2023-06-27	07:24:03	07:37:13	785548	629f2dccc6e91be06559e2f1	1	1	main_slash	24	main_slash	59	stimuli_target_rectangletriangles.svg	stimuli_distractor_trianglediamonds.svg	1	yes	53	1	543	6	1	antiphase_hc_iso.wav	2	6	3	noise_calib_stim_LEFT.wav	1	4	blb_dichoticlistening_ba-ka.mp3	ba	ka	1	left
6.6.1	win	2023-06-27	07:24:03	07:37:13	785548	629f2dccc6e91be06559e2f1	1	1	main_slash	24	advance_on_keypress_SLASH	60	stimuli_target_rectangletriangles.svg	stimuli_distractor_trianglediamonds.svg	1	yes	57	0	410	6	1	antiphase_hc_iso.wav	2	6	3	noise_calib_stim_LEFT.wav	1	4	blb_dichoticlistening_ba-ka.mp3	ba	ka	1	left
6.6.1	win	2023-06-27	07:24:03	07:37:15	787441	629f2dccc6e91be06559e2f1	1	1	main_slash	24	main_slash	61	stimuli_distractor_diamondtriangles.svg	stimuli_target_trianglesquares.svg	30	yes	53	1	846	6	1	antiphase_hc_iso.wav	2	6	3	noise_calib_stim_LEFT.wav	1	4	blb_dichoticlistening_ba-ka.mp3	ba	ka	1	left
6.6.1	win	2023-06-27	07:24:03	07:37:15	787441	629f2dccc6e91be06559e2f1	1	1	main_slash	24	advance_on_keypress_SLASH	62	stimuli_distractor_diamondtriangles.svg	stimuli_target_trianglesquares.svg	30	yes	57	0	327	6	1	antiphase_hc_iso.wav	2	6	3	noise_calib_stim_LEFT.wav	1	4	blb_dichoticlistening_ba-ka.mp3	ba	ka	1	left
6.6.1	win	2023-06-27	07:24:03	07:37:17	789073	629f2dccc6e91be06559e2f1	1	1	main_slash	24	main_slash	63	stimuli_distractor_trianglediamonds.svg	stimuli_target_rectangletriangles.svg	9	yes	53	1	645	6	1	antiphase_hc_iso.wav	2	6	3	noise_calib_stim_LEFT.wav	1	4	blb_dichoticlistening_ba-ka.mp3	ba	ka	1	left
6.6.1	win	2023-06-27	07:24:03	07:37:17	789073	629f2dccc6e91be06559e2f1	1	1	main_slash	24	advance_on_keypress_SLASH	64	stimuli_distractor_trianglediamonds.svg	stimuli_target_rectangletriangles.svg	9	yes	57	0	411	6	1	antiphase_hc_iso.wav	2	6	3	noise_calib_stim_LEFT.wav	1	4	blb_dichoticlistening_ba-ka.mp3	ba	ka	1	left
6.6.1	win	2023-06-27	07:24:03	07:37:18	790800	629f2dccc6e91be06559e2f1	1	1	main_slash	24	main_slash	65	stimuli_target_diamondsquares.svg	stimuli_distractor_trianglediamonds.svg	20	yes	53	1	658	6	1	antiphase_hc_iso.wav	2	6	3	noise_calib_stim_LEFT.wav	1	4	blb_dichoticlistening_ba-ka.mp3	ba	ka	1	left
6.6.1	win	2023-06-27	07:24:03	07:37:18	790800	629f2dccc6e91be06559e2f1	1	1	main_slash	24	advance_on_keypress_SLASH	66	stimuli_target_diamondsquares.svg	stimuli_distractor_trianglediamonds.svg	20	yes	57	0	373	6	1	antiphase_hc_iso.wav	2	6	3	noise_calib_stim_LEFT.wav	1	4	blb_dichoticlistening_ba-ka.mp3	ba	ka	1	left
6.6.1	win	2023-06-27	07:24:03	07:37:21	793827	629f2dccc6e91be06559e2f1	1	1	main_slash	24	main_slash	67	stimuli_distractor_diamondtriangles.svg	stimuli_distractor_trianglediamonds.svg	37	no	0	1	2000	6	1	antiphase_hc_iso.wav	2	6	3	noise_calib_stim_LEFT.wav	1	4	blb_dichoticlistening_ba-ka.mp3	ba	ka	1	left
6.6.1	win	2023-06-27	07:24:03	07:37:21	793827	629f2dccc6e91be06559e2f1	1	1	main_slash	24	advance_on_keypress_SLASH	68	stimuli_distractor_diamondtriangles.svg	stimuli_distractor_trianglediamonds.svg	37	no	57	0	456	6	1	antiphase_hc_iso.wav	2	6	3	noise_calib_stim_LEFT.wav	1	4	blb_dichoticlistening_ba-ka.mp3	ba	ka	1	left
6.6.1	win	2023-06-27	07:24:03	07:37:23	795488	629f2dccc6e91be06559e2f1	1	1	main_slash	24	main_slash	69	stimuli_target_trianglesquares.svg	stimuli_distractor_diamondtriangles.svg	22	yes	53	1	546	6	1	antiphase_hc_iso.wav	2	6	3	noise_calib_stim_LEFT.wav	1	4	blb_dichoticlistening_ba-ka.mp3	ba	ka	1	left
6.6.1	win	2023-06-27	07:24:03	07:37:23	795488	629f2dccc6e91be06559e2f1	1	1	main_slash	24	advance_on_keypress_SLASH	70	stimuli_target_trianglesquares.svg	stimuli_distractor_diamondtriangles.svg	22	yes	57	0	441	6	1	antiphase_hc_iso.wav	2	6	3	noise_calib_stim_LEFT.wav	1	4	blb_dichoticlistening_ba-ka.mp3	ba	ka	1	left
6.6.1	win	2023-06-27	07:24:03	07:37:25	797553	629f2dccc6e91be06559e2f1	1	1	main_slash	24	main_slash	71	stimuli_distractor_diamondtriangles.svg	stimuli_target_rectanglediamonds.svg	14	yes	53	1	976	6	1	antiphase_hc_iso.wav	2	6	3	noise_calib_stim_LEFT.wav	1	4	blb_dichoticlistening_ba-ka.mp3	ba	ka	1	left
6.6.1	win	2023-06-27	07:24:03	07:37:25	797553	629f2dccc6e91be06559e2f1	1	1	main_slash	24	advance_on_keypress_SLASH	72	stimuli_distractor_diamondtriangles.svg	stimuli_target_rectanglediamonds.svg	14	yes	57	0	348	6	1	antiphase_hc_iso.wav	2	6	3	noise_calib_stim_LEFT.wav	1	4	blb_dichoticlistening_ba-ka.mp3	ba	ka	1	left
6.6.1	win	2023-06-27	07:24:03	07:37:28	800556	629f2dccc6e91be06559e2f1	1	1	main_slash	24	main_slash	73	stimuli_distractor_trianglediamonds.svg	stimuli_distractor_trianglediamonds.svg	34	no	0	1	2000	6	1	antiphase_hc_iso.wav	2	6	3	noise_calib_stim_LEFT.wav	1	4	blb_dichoticlistening_ba-ka.mp3	ba	ka	1	left
6.6.1	win	2023-06-27	07:24:03	07:37:28	800556	629f2dccc6e91be06559e2f1	1	1	main_slash	24	advance_on_keypress_SLASH	74	stimuli_distractor_trianglediamonds.svg	stimuli_distractor_trianglediamonds.svg	34	no	57	0	267	6	1	antiphase_hc_iso.wav	2	6	3	noise_calib_stim_LEFT.wav	1	4	blb_dichoticlistening_ba-ka.mp3	ba	ka	1	left
6.6.1	win	2023-06-27	07:24:03	07:37:30	802083	629f2dccc6e91be06559e2f1	1	1	main_slash	24	main_slash	75	stimuli_target_squarediamonds.svg	stimuli_distractor_trianglediamonds.svg	4	yes	53	1	603	6	1	antiphase_hc_iso.wav	2	6	3	noise_calib_stim_LEFT.wav	1	4	blb_dichoticlistening_ba-ka.mp3	ba	ka	1	left
6.6.1	win	2023-06-27	07:24:03	07:37:30	802083	629f2dccc6e91be06559e2f1	1	1	main_slash	24	advance_on_keypress_SLASH	76	stimuli_target_squarediamonds.svg	stimuli_distractor_trianglediamonds.svg	4	yes	57	0	503	6	1	antiphase_hc_iso.wav	2	6	3	noise_calib_stim_LEFT.wav	1	4	blb_dichoticlistening_ba-ka.mp3	ba	ka	1	left
6.6.1	win	2023-06-27	07:24:03	07:37:32	803895	629f2dccc6e91be06559e2f1	1	1	main_slash	24	main_slash	77	stimuli_distractor_diamondtriangles.svg	stimuli_target_diamondsquares.svg	32	yes	53	1	648	6	1	antiphase_hc_iso.wav	2	6	3	noise_calib_stim_LEFT.wav	1	4	blb_dichoticlistening_ba-ka.mp3	ba	ka	1	left
6.6.1	win	2023-06-27	07:24:03	07:37:32	803895	629f2dccc6e91be06559e2f1	1	1	main_slash	24	advance_on_keypress_SLASH	78	stimuli_distractor_diamondtriangles.svg	stimuli_target_diamondsquares.svg	32	yes	57	0	400	6	1	antiphase_hc_iso.wav	2	6	3	noise_calib_stim_LEFT.wav	1	4	blb_dichoticlistening_ba-ka.mp3	ba	ka	1	left
6.6.1	win	2023-06-27	07:24:03	07:37:34	805883	629f2dccc6e91be06559e2f1	1	1	main_slash	24	main_slash	79	stimuli_distractor_diamondtriangles.svg	stimuli_distractor_trianglediamonds.svg	38	no	53	0	927	6	1	antiphase_hc_iso.wav	2	6	3	noise_calib_stim_LEFT.wav	1	4	blb_dichoticlistening_ba-ka.mp3	ba	ka	1	left
6.6.1	win	2023-06-27	07:24:03	07:37:34	805883	629f2dccc6e91be06559e2f1	1	1	main_slash	24	advance_on_keypress_SLASH	80	stimuli_distractor_diamondtriangles.svg	stimuli_distractor_trianglediamonds.svg	38	no	57	0	387	6	1	antiphase_hc_iso.wav	2	6	3	noise_calib_stim_LEFT.wav	1	4	blb_dichoticlistening_ba-ka.mp3	ba	ka	1	left
6.6.1	win	2023-06-27	07:24:03	07:37:37	808930	629f2dccc6e91be06559e2f1	1	1	main_slash	24	main_slash	81	stimuli_distractor_diamondtriangles.svg	stimuli_distractor_trianglediamonds.svg	38	no	0	1	2000	6	1	antiphase_hc_iso.wav	2	6	3	noise_calib_stim_LEFT.wav	1	4	blb_dichoticlistening_ba-ka.mp3	ba	ka	1	left
6.6.1	win	2023-06-27	07:24:03	07:37:37	808930	629f2dccc6e91be06559e2f1	1	1	main_slash	24	advance_on_keypress_SLASH	82	stimuli_distractor_diamondtriangles.svg	stimuli_distractor_trianglediamonds.svg	38	no	57	0	290	6	1	antiphase_hc_iso.wav	2	6	3	noise_calib_stim_LEFT.wav	1	4	blb_dichoticlistening_ba-ka.mp3	ba	ka	1	left
6.6.1	win	2023-06-27	07:24:03	07:37:38	810726	629f2dccc6e91be06559e2f1	1	1	main_slash	24	main_slash	83	stimuli_distractor_diamondtriangles.svg	stimuli_target_trianglerectangles.svg	29	yes	53	1	849	6	1	antiphase_hc_iso.wav	2	6	3	noise_calib_stim_LEFT.wav	1	4	blb_dichoticlistening_ba-ka.mp3	ba	ka	1	left
6.6.1	win	2023-06-27	07:24:03	07:37:38	810726	629f2dccc6e91be06559e2f1	1	1	main_slash	24	advance_on_keypress_SLASH	84	stimuli_distractor_diamondtriangles.svg	stimuli_target_trianglerectangles.svg	29	yes	57	0	524	6	1	antiphase_hc_iso.wav	2	6	3	noise_calib_stim_LEFT.wav	1	4	blb_dichoticlistening_ba-ka.mp3	ba	ka	1	left
6.6.1	win	2023-06-27	07:24:03	07:37:40	812519	629f2dccc6e91be06559e2f1	1	1	main_slash	24	main_slash	85	stimuli_distractor_diamondtriangles.svg	stimuli_target_squaretriangles.svg	15	yes	53	1	609	6	1	antiphase_hc_iso.wav	2	6	3	noise_calib_stim_LEFT.wav	1	4	blb_dichoticlistening_ba-ka.mp3	ba	ka	1	left
6.6.1	win	2023-06-27	07:24:03	07:37:40	812519	629f2dccc6e91be06559e2f1	1	1	main_slash	24	advance_on_keypress_SLASH	86	stimuli_distractor_diamondtriangles.svg	stimuli_target_squaretriangles.svg	15	yes	57	0	313	6	1	antiphase_hc_iso.wav	2	6	3	noise_calib_stim_LEFT.wav	1	4	blb_dichoticlistening_ba-ka.mp3	ba	ka	1	left
6.6.1	win	2023-06-27	07:24:03	07:37:42	814039	629f2dccc6e91be06559e2f1	1	1	main_slash	24	main_slash	87	stimuli_distractor_diamondtriangles.svg	stimuli_target_rectangletriangles.svg	13	yes	53	1	547	6	1	antiphase_hc_iso.wav	2	6	3	noise_calib_stim_LEFT.wav	1	4	blb_dichoticlistening_ba-ka.mp3	ba	ka	1	left
6.6.1	win	2023-06-27	07:24:03	07:37:42	814039	629f2dccc6e91be06559e2f1	1	1	main_slash	24	advance_on_keypress_SLASH	88	stimuli_distractor_diamondtriangles.svg	stimuli_target_rectangletriangles.svg	13	yes	57	0	319	6	1	antiphase_hc_iso.wav	2	6	3	noise_calib_stim_LEFT.wav	1	4	blb_dichoticlistening_ba-ka.mp3	ba	ka	1	left
6.6.1	win	2023-06-27	07:24:03	07:37:45	817007	629f2dccc6e91be06559e2f1	1	1	main_slash	24	main_slash	89	stimuli_distractor_trianglediamonds.svg	stimuli_distractor_diamondtriangles.svg	36	no	0	1	2000	6	1	antiphase_hc_iso.wav	2	6	3	noise_calib_stim_LEFT.wav	1	4	blb_dichoticlistening_ba-ka.mp3	ba	ka	1	left
6.6.1	win	2023-06-27	07:24:03	07:37:45	817007	629f2dccc6e91be06559e2f1	1	1	main_slash	24	advance_on_keypress_SLASH	90	stimuli_distractor_trianglediamonds.svg	stimuli_distractor_diamondtriangles.svg	36	no	57	0	271	6	1	antiphase_hc_iso.wav	2	6	3	noise_calib_stim_LEFT.wav	1	4	blb_dichoticlistening_ba-ka.mp3	ba	ka	1	left
6.6.1	win	2023-06-27	07:24:03	07:37:46	818502	629f2dccc6e91be06559e2f1	1	1	main_slash	24	main_slash	91	stimuli_target_rectanglediamonds.svg	stimuli_distractor_trianglediamonds.svg	2	yes	53	1	565	6	1	antiphase_hc_iso.wav	2	6	3	noise_calib_stim_LEFT.wav	1	4	blb_dichoticlistening_ba-ka.mp3	ba	ka	1	left
6.6.1	win	2023-06-27	07:24:03	07:37:46	818502	629f2dccc6e91be06559e2f1	1	1	main_slash	24	advance_on_keypress_SLASH	92	stimuli_target_rectanglediamonds.svg	stimuli_distractor_trianglediamonds.svg	2	yes	57	0	299	6	1	antiphase_hc_iso.wav	2	6	3	noise_calib_stim_LEFT.wav	1	4	blb_dichoticlistening_ba-ka.mp3	ba	ka	1	left
6.6.1	win	2023-06-27	07:24:03	07:37:48	820521	629f2dccc6e91be06559e2f1	1	1	main_slash	24	main_slash	93	stimuli_distractor_diamondtriangles.svg	stimuli_target_diamondrectangles.svg	31	yes	53	1	1088	6	1	antiphase_hc_iso.wav	2	6	3	noise_calib_stim_LEFT.wav	1	4	blb_dichoticlistening_ba-ka.mp3	ba	ka	1	left
6.6.1	win	2023-06-27	07:24:03	07:37:48	820521	629f2dccc6e91be06559e2f1	1	1	main_slash	24	advance_on_keypress_SLASH	94	stimuli_distractor_diamondtriangles.svg	stimuli_target_diamondrectangles.svg	31	yes	57	0	478	6	1	antiphase_hc_iso.wav	2	6	3	noise_calib_stim_LEFT.wav	1	4	blb_dichoticlistening_ba-ka.mp3	ba	ka	1	left
6.6.1	win	2023-06-27	07:24:03	07:37:50	822346	629f2dccc6e91be06559e2f1	1	1	main_slash	24	main_slash	95	stimuli_distractor_trianglediamonds.svg	stimuli_target_diamondsquares.svg	28	yes	53	1	687	6	1	antiphase_hc_iso.wav	2	6	3	noise_calib_stim_LEFT.wav	1	4	blb_dichoticlistening_ba-ka.mp3	ba	ka	1	left
6.6.1	win	2023-06-27	07:24:03	07:37:50	822346	629f2dccc6e91be06559e2f1	1	1	main_slash	24	advance_on_keypress_SLASH	96	stimuli_distractor_trianglediamonds.svg	stimuli_target_diamondsquares.svg	28	yes	57	0	522	6	1	antiphase_hc_iso.wav	2	6	3	noise_calib_stim_LEFT.wav	1	4	blb_dichoticlistening_ba-ka.mp3	ba	ka	1	left
6.6.1	win	2023-06-27	07:24:03	07:37:53	825528	629f2dccc6e91be06559e2f1	1	1	main_slash	24	main_slash	97	stimuli_distractor_trianglediamonds.svg	stimuli_distractor_trianglediamonds.svg	33	no	0	1	2000	6	1	antiphase_hc_iso.wav	2	6	3	noise_calib_stim_LEFT.wav	1	4	blb_dichoticlistening_ba-ka.mp3	ba	ka	1	left
6.6.1	win	2023-06-27	07:24:03	07:37:53	825528	629f2dccc6e91be06559e2f1	1	1	main_slash	24	advance_on_keypress_SLASH	98	stimuli_distractor_trianglediamonds.svg	stimuli_distractor_trianglediamonds.svg	33	no	57	0	267	6	1	antiphase_hc_iso.wav	2	6	3	noise_calib_stim_LEFT.wav	1	4	blb_dichoticlistening_ba-ka.mp3	ba	ka	1	left
6.6.1	win	2023-06-27	07:24:03	07:37:55	827200	629f2dccc6e91be06559e2f1	1	1	main_slash	24	main_slash	99	stimuli_distractor_diamondtriangles.svg	stimuli_target_squarediamonds.svg	16	yes	53	1	746	6	1	antiphase_hc_iso.wav	2	6	3	noise_calib_stim_LEFT.wav	1	4	blb_dichoticlistening_ba-ka.mp3	ba	ka	1	left
6.6.1	win	2023-06-27	07:24:03	07:37:55	827200	629f2dccc6e91be06559e2f1	1	1	main_slash	24	advance_on_keypress_SLASH	100	stimuli_distractor_diamondtriangles.svg	stimuli_target_squarediamonds.svg	16	yes	57	0	589	6	1	antiphase_hc_iso.wav	2	6	3	noise_calib_stim_LEFT.wav	1	4	blb_dichoticlistening_ba-ka.mp3	ba	ka	1	left
6.6.1	win	2023-06-27	07:24:03	07:37:57	829217	629f2dccc6e91be06559e2f1	1	1	main_slash	24	main_slash	101	stimuli_distractor_diamondtriangles.svg	stimuli_distractor_diamondtriangles.svg	39	no	53	0	782	6	1	antiphase_hc_iso.wav	2	6	3	noise_calib_stim_LEFT.wav	1	4	blb_dichoticlistening_ba-ka.mp3	ba	ka	1	left
6.6.1	win	2023-06-27	07:24:03	07:37:57	829217	629f2dccc6e91be06559e2f1	1	1	main_slash	24	advance_on_keypress_SLASH	102	stimuli_distractor_diamondtriangles.svg	stimuli_distractor_diamondtriangles.svg	39	no	57	0	551	6	1	antiphase_hc_iso.wav	2	6	3	noise_calib_stim_LEFT.wav	1	4	blb_dichoticlistening_ba-ka.mp3	ba	ka	1	left
6.6.1	win	2023-06-27	07:24:03	07:38:00	832378	629f2dccc6e91be06559e2f1	1	1	main_slash	24	main_slash	103	stimuli_distractor_trianglediamonds.svg	stimuli_target_rectangletriangles.svg	9	yes	53	1	1952	6	1	antiphase_hc_iso.wav	2	6	3	noise_calib_stim_LEFT.wav	1	4	blb_dichoticlistening_ba-ka.mp3	ba	ka	1	left
6.6.1	win	2023-06-27	07:24:03	07:38:00	832378	629f2dccc6e91be06559e2f1	1	1	main_slash	24	advance_on_keypress_SLASH	104	stimuli_distractor_trianglediamonds.svg	stimuli_target_rectangletriangles.svg	9	yes	57	0	533	6	1	antiphase_hc_iso.wav	2	6	3	noise_calib_stim_LEFT.wav	1	4	blb_dichoticlistening_ba-ka.mp3	ba	ka	1	left
6.6.1	win	2023-06-27	07:24:03	07:38:02	834237	629f2dccc6e91be06559e2f1	1	1	main_slash	24	main_slash	105	stimuli_distractor_trianglediamonds.svg	stimuli_distractor_trianglediamonds.svg	34	no	53	0	667	6	1	antiphase_hc_iso.wav	2	6	3	noise_calib_stim_LEFT.wav	1	4	blb_dichoticlistening_ba-ka.mp3	ba	ka	1	left
6.6.1	win	2023-06-27	07:24:03	07:38:02	834237	629f2dccc6e91be06559e2f1	1	1	main_slash	24	advance_on_keypress_SLASH	106	stimuli_distractor_trianglediamonds.svg	stimuli_distractor_trianglediamonds.svg	34	no	57	0	561	6	1	antiphase_hc_iso.wav	2	6	3	noise_calib_stim_LEFT.wav	1	4	blb_dichoticlistening_ba-ka.mp3	ba	ka	1	left
6.6.1	win	2023-06-27	07:24:03	07:38:04	836112	629f2dccc6e91be06559e2f1	1	1	main_slash	24	main_slash	107	stimuli_distractor_trianglediamonds.svg	stimuli_target_diamondrectangles.svg	27	yes	53	1	657	6	1	antiphase_hc_iso.wav	2	6	3	noise_calib_stim_LEFT.wav	1	4	blb_dichoticlistening_ba-ka.mp3	ba	ka	1	left
6.6.1	win	2023-06-27	07:24:03	07:38:04	836112	629f2dccc6e91be06559e2f1	1	1	main_slash	24	advance_on_keypress_SLASH	108	stimuli_distractor_trianglediamonds.svg	stimuli_target_diamondrectangles.svg	27	yes	57	0	407	6	1	antiphase_hc_iso.wav	2	6	3	noise_calib_stim_LEFT.wav	1	4	blb_dichoticlistening_ba-ka.mp3	ba	ka	1	left
6.6.1	win	2023-06-27	07:24:03	07:38:07	839179	629f2dccc6e91be06559e2f1	1	1	main_slash	24	main_slash	109	stimuli_distractor_trianglediamonds.svg	stimuli_distractor_diamondtriangles.svg	35	no	0	1	2000	6	1	antiphase_hc_iso.wav	2	6	3	noise_calib_stim_LEFT.wav	1	4	blb_dichoticlistening_ba-ka.mp3	ba	ka	1	left
6.6.1	win	2023-06-27	07:24:03	07:38:07	839179	629f2dccc6e91be06559e2f1	1	1	main_slash	24	advance_on_keypress_SLASH	110	stimuli_distractor_trianglediamonds.svg	stimuli_distractor_diamondtriangles.svg	35	no	57	0	246	6	1	antiphase_hc_iso.wav	2	6	3	noise_calib_stim_LEFT.wav	1	4	blb_dichoticlistening_ba-ka.mp3	ba	ka	1	left
6.6.1	win	2023-06-27	07:24:03	07:38:10	842075	629f2dccc6e91be06559e2f1	1	1	main_slash	24	main_slash	111	stimuli_distractor_diamondtriangles.svg	stimuli_distractor_trianglediamonds.svg	37	no	0	1	2000	6	1	antiphase_hc_iso.wav	2	6	3	noise_calib_stim_LEFT.wav	1	4	blb_dichoticlistening_ba-ka.mp3	ba	ka	1	left
6.6.1	win	2023-06-27	07:24:03	07:38:10	842075	629f2dccc6e91be06559e2f1	1	1	main_slash	24	advance_on_keypress_SLASH	112	stimuli_distractor_diamondtriangles.svg	stimuli_distractor_trianglediamonds.svg	37	no	57	0	257	6	1	antiphase_hc_iso.wav	2	6	3	noise_calib_stim_LEFT.wav	1	4	blb_dichoticlistening_ba-ka.mp3	ba	ka	1	left
6.6.1	win	2023-06-27	07:24:03	07:38:11	843466	629f2dccc6e91be06559e2f1	1	1	main_slash	24	main_slash	113	stimuli_target_squaretriangles.svg	stimuli_distractor_diamondtriangles.svg	7	yes	53	1	484	6	1	antiphase_hc_iso.wav	2	6	3	noise_calib_stim_LEFT.wav	1	4	blb_dichoticlistening_ba-ka.mp3	ba	ka	1	left
6.6.1	win	2023-06-27	07:24:03	07:38:11	843466	629f2dccc6e91be06559e2f1	1	1	main_slash	24	advance_on_keypress_SLASH	114	stimuli_target_squaretriangles.svg	stimuli_distractor_diamondtriangles.svg	7	yes	57	0	298	6	1	antiphase_hc_iso.wav	2	6	3	noise_calib_stim_LEFT.wav	1	4	blb_dichoticlistening_ba-ka.mp3	ba	ka	1	left
6.6.1	win	2023-06-27	07:24:03	07:38:12	844852	629f2dccc6e91be06559e2f1	1	1	main_slash	24	main_slash	115	stimuli_target_rectangletriangles.svg	stimuli_distractor_diamondtriangles.svg	5	yes	53	1	429	6	1	antiphase_hc_iso.wav	2	6	3	noise_calib_stim_LEFT.wav	1	4	blb_dichoticlistening_ba-ka.mp3	ba	ka	1	left
6.6.1	win	2023-06-27	07:24:03	07:38:12	844852	629f2dccc6e91be06559e2f1	1	1	main_slash	24	advance_on_keypress_SLASH	116	stimuli_target_rectangletriangles.svg	stimuli_distractor_diamondtriangles.svg	5	yes	57	0	305	6	1	antiphase_hc_iso.wav	2	6	3	noise_calib_stim_LEFT.wav	1	4	blb_dichoticlistening_ba-ka.mp3	ba	ka	1	left
6.6.1	win	2023-06-27	07:24:03	07:38:14	846334	629f2dccc6e91be06559e2f1	1	1	main_slash	24	main_slash	117	stimuli_distractor_trianglediamonds.svg	stimuli_target_squaretriangles.svg	11	yes	53	1	505	6	1	antiphase_hc_iso.wav	2	6	3	noise_calib_stim_LEFT.wav	1	4	blb_dichoticlistening_ba-ka.mp3	ba	ka	1	left
6.6.1	win	2023-06-27	07:24:03	07:38:14	846334	629f2dccc6e91be06559e2f1	1	1	main_slash	24	advance_on_keypress_SLASH	118	stimuli_distractor_trianglediamonds.svg	stimuli_target_squaretriangles.svg	11	yes	57	0	240	6	1	antiphase_hc_iso.wav	2	6	3	noise_calib_stim_LEFT.wav	1	4	blb_dichoticlistening_ba-ka.mp3	ba	ka	1	left
6.6.1	win	2023-06-27	07:24:03	07:38:15	847751	629f2dccc6e91be06559e2f1	1	1	main_slash	24	main_slash	119	stimuli_distractor_trianglediamonds.svg	stimuli_target_rectanglediamonds.svg	10	yes	53	1	506	6	1	antiphase_hc_iso.wav	2	6	3	noise_calib_stim_LEFT.wav	1	4	blb_dichoticlistening_ba-ka.mp3	ba	ka	1	left
6.6.1	win	2023-06-27	07:24:03	07:38:15	847751	629f2dccc6e91be06559e2f1	1	1	main_slash	24	advance_on_keypress_SLASH	120	stimuli_distractor_trianglediamonds.svg	stimuli_target_rectanglediamonds.svg	10	yes	57	0	249	6	1	antiphase_hc_iso.wav	2	6	3	noise_calib_stim_LEFT.wav	1	4	blb_dichoticlistening_ba-ka.mp3	ba	ka	1	left
6.6.1	win	2023-06-27	07:24:03	07:38:17	849135	629f2dccc6e91be06559e2f1	1	1	main_slash	24	main_slash	121	stimuli_target_squarediamonds.svg	stimuli_distractor_diamondtriangles.svg	8	yes	53	1	479	6	1	antiphase_hc_iso.wav	2	6	3	noise_calib_stim_LEFT.wav	1	4	blb_dichoticlistening_ba-ka.mp3	ba	ka	1	left
6.6.1	win	2023-06-27	07:24:03	07:38:17	849135	629f2dccc6e91be06559e2f1	1	1	main_slash	24	advance_on_keypress_SLASH	122	stimuli_target_squarediamonds.svg	stimuli_distractor_diamondtriangles.svg	8	yes	57	0	268	6	1	antiphase_hc_iso.wav	2	6	3	noise_calib_stim_LEFT.wav	1	4	blb_dichoticlistening_ba-ka.mp3	ba	ka	1	left
6.6.1	win	2023-06-27	07:24:03	07:38:20	852062	629f2dccc6e91be06559e2f1	1	1	main_slash	24	main_slash	123	stimuli_distractor_diamondtriangles.svg	stimuli_distractor_diamondtriangles.svg	40	no	0	1	2000	6	1	antiphase_hc_iso.wav	2	6	3	noise_calib_stim_LEFT.wav	1	4	blb_dichoticlistening_ba-ka.mp3	ba	ka	1	left
6.6.1	win	2023-06-27	07:24:03	07:38:20	852062	629f2dccc6e91be06559e2f1	1	1	main_slash	24	advance_on_keypress_SLASH	124	stimuli_distractor_diamondtriangles.svg	stimuli_distractor_diamondtriangles.svg	40	no	57	0	268	6	1	antiphase_hc_iso.wav	2	6	3	noise_calib_stim_LEFT.wav	1	4	blb_dichoticlistening_ba-ka.mp3	ba	ka	1	left
6.6.1	win	2023-06-27	07:24:03	07:38:21	853480	629f2dccc6e91be06559e2f1	1	1	main_slash	24	main_slash	125	stimuli_distractor_trianglediamonds.svg	stimuli_target_squarediamonds.svg	12	yes	53	1	490	6	1	antiphase_hc_iso.wav	2	6	3	noise_calib_stim_LEFT.wav	1	4	blb_dichoticlistening_ba-ka.mp3	ba	ka	1	left
6.6.1	win	2023-06-27	07:24:03	07:38:21	853480	629f2dccc6e91be06559e2f1	1	1	main_slash	24	advance_on_keypress_SLASH	126	stimuli_distractor_trianglediamonds.svg	stimuli_target_squarediamonds.svg	12	yes	57	0	283	6	1	antiphase_hc_iso.wav	2	6	3	noise_calib_stim_LEFT.wav	1	4	blb_dichoticlistening_ba-ka.mp3	ba	ka	1	left
6.6.1	win	2023-06-27	07:24:03	07:38:22	854844	629f2dccc6e91be06559e2f1	1	1	main_slash	24	main_slash	127	stimuli_target_squaretriangles.svg	stimuli_distractor_trianglediamonds.svg	3	yes	53	1	433	6	1	antiphase_hc_iso.wav	2	6	3	noise_calib_stim_LEFT.wav	1	4	blb_dichoticlistening_ba-ka.mp3	ba	ka	1	left
6.6.1	win	2023-06-27	07:24:03	07:38:22	854844	629f2dccc6e91be06559e2f1	1	1	main_slash	24	advance_on_keypress_SLASH	128	stimuli_target_squaretriangles.svg	stimuli_distractor_trianglediamonds.svg	3	yes	57	0	259	6	1	antiphase_hc_iso.wav	2	6	3	noise_calib_stim_LEFT.wav	1	4	blb_dichoticlistening_ba-ka.mp3	ba	ka	1	left
6.6.1	win	2023-06-27	07:24:03	07:38:24	856181	629f2dccc6e91be06559e2f1	1	1	main_slash	24	main_slash	129	stimuli_target_rectangletriangles.svg	stimuli_distractor_trianglediamonds.svg	1	yes	53	1	418	6	1	antiphase_hc_iso.wav	2	6	3	noise_calib_stim_LEFT.wav	1	4	blb_dichoticlistening_ba-ka.mp3	ba	ka	1	left
6.6.1	win	2023-06-27	07:24:03	07:38:24	856181	629f2dccc6e91be06559e2f1	1	1	main_slash	24	advance_on_keypress_SLASH	130	stimuli_target_rectangletriangles.svg	stimuli_distractor_trianglediamonds.svg	1	yes	57	0	251	6	1	antiphase_hc_iso.wav	2	6	3	noise_calib_stim_LEFT.wav	1	4	blb_dichoticlistening_ba-ka.mp3	ba	ka	1	left
6.6.1	win	2023-06-27	07:24:03	07:38:27	859086	629f2dccc6e91be06559e2f1	1	1	main_slash	24	main_slash	131	stimuli_distractor_trianglediamonds.svg	stimuli_target_trianglerectangles.svg	25	yes	0	0	2000	6	1	antiphase_hc_iso.wav	2	6	3	noise_calib_stim_LEFT.wav	1	4	blb_dichoticlistening_ba-ka.mp3	ba	ka	1	left
6.6.1	win	2023-06-27	07:24:03	07:38:27	859086	629f2dccc6e91be06559e2f1	1	1	main_slash	24	advance_on_keypress_SLASH	132	stimuli_distractor_trianglediamonds.svg	stimuli_target_trianglerectangles.svg	25	yes	57	0	274	6	1	antiphase_hc_iso.wav	2	6	3	noise_calib_stim_LEFT.wav	1	4	blb_dichoticlistening_ba-ka.mp3	ba	ka	1	left
6.6.1	win	2023-06-27	07:24:03	07:38:28	860459	629f2dccc6e91be06559e2f1	1	1	main_slash	24	main_slash	133	stimuli_distractor_diamondtriangles.svg	stimuli_target_rectanglediamonds.svg	14	yes	53	1	439	6	1	antiphase_hc_iso.wav	2	6	3	noise_calib_stim_LEFT.wav	1	4	blb_dichoticlistening_ba-ka.mp3	ba	ka	1	left
6.6.1	win	2023-06-27	07:24:03	07:38:28	860459	629f2dccc6e91be06559e2f1	1	1	main_slash	24	advance_on_keypress_SLASH	134	stimuli_distractor_diamondtriangles.svg	stimuli_target_rectanglediamonds.svg	14	yes	57	0	257	6	1	antiphase_hc_iso.wav	2	6	3	noise_calib_stim_LEFT.wav	1	4	blb_dichoticlistening_ba-ka.mp3	ba	ka	1	left
6.6.1	win	2023-06-27	07:24:03	07:38:31	863370	629f2dccc6e91be06559e2f1	1	1	main_slash	24	main_slash	135	stimuli_target_trianglerectangles.svg	stimuli_distractor_trianglediamonds.svg	17	yes	0	0	2000	6	1	antiphase_hc_iso.wav	2	6	3	noise_calib_stim_LEFT.wav	1	4	blb_dichoticlistening_ba-ka.mp3	ba	ka	1	left
6.6.1	win	2023-06-27	07:24:03	07:38:31	863370	629f2dccc6e91be06559e2f1	1	1	main_slash	24	advance_on_keypress_SLASH	136	stimuli_target_trianglerectangles.svg	stimuli_distractor_trianglediamonds.svg	17	yes	57	0	447	6	1	antiphase_hc_iso.wav	2	6	3	noise_calib_stim_LEFT.wav	1	4	blb_dichoticlistening_ba-ka.mp3	ba	ka	1	left
6.6.1	win	2023-06-27	07:24:03	07:38:33	865309	629f2dccc6e91be06559e2f1	1	1	main_slash	24	main_slash	137	stimuli_distractor_diamondtriangles.svg	stimuli_target_trianglesquares.svg	30	yes	53	1	832	6	1	antiphase_hc_iso.wav	2	6	3	noise_calib_stim_LEFT.wav	1	4	blb_dichoticlistening_ba-ka.mp3	ba	ka	1	left
6.6.1	win	2023-06-27	07:24:03	07:38:33	865309	629f2dccc6e91be06559e2f1	1	1	main_slash	24	advance_on_keypress_SLASH	138	stimuli_distractor_diamondtriangles.svg	stimuli_target_trianglesquares.svg	30	yes	57	0	216	6	1	antiphase_hc_iso.wav	2	6	3	noise_calib_stim_LEFT.wav	1	4	blb_dichoticlistening_ba-ka.mp3	ba	ka	1	left
6.6.1	win	2023-06-27	07:24:03	07:38:36	868184	629f2dccc6e91be06559e2f1	1	1	main_slash	24	main_slash	139	stimuli_distractor_diamondtriangles.svg	stimuli_target_diamondsquares.svg	32	yes	0	0	2000	6	1	antiphase_hc_iso.wav	2	6	3	noise_calib_stim_LEFT.wav	1	4	blb_dichoticlistening_ba-ka.mp3	ba	ka	1	left
6.6.1	win	2023-06-27	07:24:03	07:38:36	868184	629f2dccc6e91be06559e2f1	1	1	main_slash	24	advance_on_keypress_SLASH	140	stimuli_distractor_diamondtriangles.svg	stimuli_target_diamondsquares.svg	32	yes	57	0	450	6	1	antiphase_hc_iso.wav	2	6	3	noise_calib_stim_LEFT.wav	1	4	blb_dichoticlistening_ba-ka.mp3	ba	ka	1	left
6.6.1	win	2023-06-27	07:24:03	07:38:37	869828	629f2dccc6e91be06559e2f1	1	1	main_slash	24	main_slash	141	stimuli_target_squarediamonds.svg	stimuli_distractor_trianglediamonds.svg	4	yes	53	1	539	6	1	antiphase_hc_iso.wav	2	6	3	noise_calib_stim_LEFT.wav	1	4	blb_dichoticlistening_ba-ka.mp3	ba	ka	1	left
6.6.1	win	2023-06-27	07:24:03	07:38:37	869828	629f2dccc6e91be06559e2f1	1	1	main_slash	24	advance_on_keypress_SLASH	142	stimuli_target_squarediamonds.svg	stimuli_distractor_trianglediamonds.svg	4	yes	57	0	242	6	1	antiphase_hc_iso.wav	2	6	3	noise_calib_stim_LEFT.wav	1	4	blb_dichoticlistening_ba-ka.mp3	ba	ka	1	left
6.6.1	win	2023-06-27	07:24:03	07:38:40	872726	629f2dccc6e91be06559e2f1	1	1	main_slash	24	main_slash	143	stimuli_target_trianglesquares.svg	stimuli_distractor_trianglediamonds.svg	18	yes	0	0	2000	6	1	antiphase_hc_iso.wav	2	6	3	noise_calib_stim_LEFT.wav	1	4	blb_dichoticlistening_ba-ka.mp3	ba	ka	1	left
6.6.1	win	2023-06-27	07:24:03	07:38:40	872726	629f2dccc6e91be06559e2f1	1	1	main_slash	24	advance_on_keypress_SLASH	144	stimuli_target_trianglesquares.svg	stimuli_distractor_trianglediamonds.svg	18	yes	57	0	512	6	1	antiphase_hc_iso.wav	2	6	3	noise_calib_stim_LEFT.wav	1	4	blb_dichoticlistening_ba-ka.mp3	ba	ka	1	left
6.6.1	win	2023-06-27	07:24:03	07:38:44	875897	629f2dccc6e91be06559e2f1	1	1	main_slash	24	main_slash	145	stimuli_target_diamondsquares.svg	stimuli_distractor_trianglediamonds.svg	20	yes	0	0	2000	6	1	antiphase_hc_iso.wav	2	6	3	noise_calib_stim_LEFT.wav	1	4	blb_dichoticlistening_ba-ka.mp3	ba	ka	1	left
6.6.1	win	2023-06-27	07:24:03	07:38:44	875897	629f2dccc6e91be06559e2f1	1	1	main_slash	24	advance_on_keypress_SLASH	146	stimuli_target_diamondsquares.svg	stimuli_distractor_trianglediamonds.svg	20	yes	57	0	398	6	1	antiphase_hc_iso.wav	2	6	3	noise_calib_stim_LEFT.wav	1	4	blb_dichoticlistening_ba-ka.mp3	ba	ka	1	left
6.6.1	win	2023-06-27	07:24:03	07:38:45	877594	629f2dccc6e91be06559e2f1	1	1	main_slash	24	main_slash	147	stimuli_target_diamondsquares.svg	stimuli_distractor_diamondtriangles.svg	24	yes	53	1	640	6	1	antiphase_hc_iso.wav	2	6	3	noise_calib_stim_LEFT.wav	1	4	blb_dichoticlistening_ba-ka.mp3	ba	ka	1	left
6.6.1	win	2023-06-27	07:24:03	07:38:45	877594	629f2dccc6e91be06559e2f1	1	1	main_slash	24	advance_on_keypress_SLASH	148	stimuli_target_diamondsquares.svg	stimuli_distractor_diamondtriangles.svg	24	yes	57	0	232	6	1	antiphase_hc_iso.wav	2	6	3	noise_calib_stim_LEFT.wav	1	4	blb_dichoticlistening_ba-ka.mp3	ba	ka	1	left
6.6.1	win	2023-06-27	07:24:03	07:38:47	879087	629f2dccc6e91be06559e2f1	1	1	main_slash	24	main_slash	149	stimuli_target_rectanglediamonds.svg	stimuli_distractor_diamondtriangles.svg	6	yes	53	1	602	6	1	antiphase_hc_iso.wav	2	6	3	noise_calib_stim_LEFT.wav	1	4	blb_dichoticlistening_ba-ka.mp3	ba	ka	1	left
6.6.1	win	2023-06-27	07:24:03	07:38:47	879087	629f2dccc6e91be06559e2f1	1	1	main_slash	24	advance_on_keypress_SLASH	150	stimuli_target_rectanglediamonds.svg	stimuli_distractor_diamondtriangles.svg	6	yes	57	0	290	6	1	antiphase_hc_iso.wav	2	6	3	noise_calib_stim_LEFT.wav	1	4	blb_dichoticlistening_ba-ka.mp3	ba	ka	1	left
6.6.1	win	2023-06-27	07:24:03	07:38:48	880667	629f2dccc6e91be06559e2f1	1	1	main_slash	24	main_slash	151	stimuli_distractor_trianglediamonds.svg	stimuli_target_trianglesquares.svg	26	yes	53	1	631	6	1	antiphase_hc_iso.wav	2	6	3	noise_calib_stim_LEFT.wav	1	4	blb_dichoticlistening_ba-ka.mp3	ba	ka	1	left
6.6.1	win	2023-06-27	07:24:03	07:38:48	880667	629f2dccc6e91be06559e2f1	1	1	main_slash	24	advance_on_keypress_SLASH	152	stimuli_distractor_trianglediamonds.svg	stimuli_target_trianglesquares.svg	26	yes	57	0	459	6	1	antiphase_hc_iso.wav	2	6	3	noise_calib_stim_LEFT.wav	1	4	blb_dichoticlistening_ba-ka.mp3	ba	ka	1	left
6.6.1	win	2023-06-27	07:24:03	07:38:50	882495	629f2dccc6e91be06559e2f1	1	1	main_slash	24	main_slash	153	stimuli_target_diamondrectangles.svg	stimuli_distractor_diamondtriangles.svg	23	yes	53	1	710	6	1	antiphase_hc_iso.wav	2	6	3	noise_calib_stim_LEFT.wav	1	4	blb_dichoticlistening_ba-ka.mp3	ba	ka	1	left
6.6.1	win	2023-06-27	07:24:03	07:38:50	882495	629f2dccc6e91be06559e2f1	1	1	main_slash	24	advance_on_keypress_SLASH	154	stimuli_target_diamondrectangles.svg	stimuli_distractor_diamondtriangles.svg	23	yes	57	0	227	6	1	antiphase_hc_iso.wav	2	6	3	noise_calib_stim_LEFT.wav	1	4	blb_dichoticlistening_ba-ka.mp3	ba	ka	1	left
6.6.1	win	2023-06-27	07:24:03	07:38:52	883978	629f2dccc6e91be06559e2f1	1	1	main_slash	24	main_slash	155	stimuli_target_trianglesquares.svg	stimuli_distractor_diamondtriangles.svg	22	yes	53	1	597	6	1	antiphase_hc_iso.wav	2	6	3	noise_calib_stim_LEFT.wav	1	4	blb_dichoticlistening_ba-ka.mp3	ba	ka	1	left
6.6.1	win	2023-06-27	07:24:03	07:38:52	883978	629f2dccc6e91be06559e2f1	1	1	main_slash	24	advance_on_keypress_SLASH	156	stimuli_target_trianglesquares.svg	stimuli_distractor_diamondtriangles.svg	22	yes	57	0	215	6	1	antiphase_hc_iso.wav	2	6	3	noise_calib_stim_LEFT.wav	1	4	blb_dichoticlistening_ba-ka.mp3	ba	ka	1	left
6.6.1	win	2023-06-27	07:24:03	07:38:53	885459	629f2dccc6e91be06559e2f1	1	1	main_slash	24	main_slash	157	stimuli_target_trianglerectangles.svg	stimuli_distractor_diamondtriangles.svg	21	yes	53	1	619	6	1	antiphase_hc_iso.wav	2	6	3	noise_calib_stim_LEFT.wav	1	4	blb_dichoticlistening_ba-ka.mp3	ba	ka	1	left
6.6.1	win	2023-06-27	07:24:03	07:38:53	885459	629f2dccc6e91be06559e2f1	1	1	main_slash	24	advance_on_keypress_SLASH	158	stimuli_target_trianglerectangles.svg	stimuli_distractor_diamondtriangles.svg	21	yes	57	0	251	6	1	antiphase_hc_iso.wav	2	6	3	noise_calib_stim_LEFT.wav	1	4	blb_dichoticlistening_ba-ka.mp3	ba	ka	1	left
6.6.1	win	2023-06-27	07:24:03	07:38:55	886922	629f2dccc6e91be06559e2f1	1	1	main_slash	24	main_slash	159	stimuli_target_diamondrectangles.svg	stimuli_distractor_trianglediamonds.svg	19	yes	53	1	553	6	1	antiphase_hc_iso.wav	2	6	3	noise_calib_stim_LEFT.wav	1	4	blb_dichoticlistening_ba-ka.mp3	ba	ka	1	left
6.6.1	win	2023-06-27	07:24:03	07:38:55	886922	629f2dccc6e91be06559e2f1	1	1	main_slash	24	advance_on_keypress_SLASH	160	stimuli_target_diamondrectangles.svg	stimuli_distractor_trianglediamonds.svg	19	yes	57	0	219	6	1	antiphase_hc_iso.wav	2	6	3	noise_calib_stim_LEFT.wav	1	4	blb_dichoticlistening_ba-ka.mp3	ba	ka	1	left
6.6.1	win	2023-06-27	07:24:03	07:39:10	901993	629f2dccc6e91be06559e2f1	1	1	practice_z	26	practice_z	1	stimuli_distractor_trianglediamonds.svg	stimuli_target_rectanglediamonds.svg	10	yes	44	1	914	6	1	antiphase_hc_iso.wav	2	6	3	noise_calib_stim_LEFT.wav	1	4	blb_dichoticlistening_ba-ka.mp3	ba	ka	1	left
6.6.1	win	2023-06-27	07:24:03	07:39:10	901993	629f2dccc6e91be06559e2f1	1	1	practice_z	26	advance_on_keypress_ZEE	2	stimuli_distractor_trianglediamonds.svg	stimuli_target_rectanglediamonds.svg	10	yes	57	0	451	6	1	antiphase_hc_iso.wav	2	6	3	noise_calib_stim_LEFT.wav	1	4	blb_dichoticlistening_ba-ka.mp3	ba	ka	1	left
6.6.1	win	2023-06-27	07:24:03	07:39:12	904706	629f2dccc6e91be06559e2f1	1	1	practice_z	26	practice_z	3	stimuli_distractor_diamondtriangles.svg	stimuli_target_trianglerectangles.svg	9	yes	44	1	600	6	1	antiphase_hc_iso.wav	2	6	3	noise_calib_stim_LEFT.wav	1	4	blb_dichoticlistening_ba-ka.mp3	ba	ka	1	left
6.6.1	win	2023-06-27	07:24:03	07:39:12	904706	629f2dccc6e91be06559e2f1	1	1	practice_z	26	advance_on_keypress_ZEE	4	stimuli_distractor_diamondtriangles.svg	stimuli_target_trianglerectangles.svg	9	yes	57	0	531	6	1	antiphase_hc_iso.wav	2	6	3	noise_calib_stim_LEFT.wav	1	4	blb_dichoticlistening_ba-ka.mp3	ba	ka	1	left
6.6.1	win	2023-06-27	07:24:03	07:39:15	907822	629f2dccc6e91be06559e2f1	1	1	practice_z	26	practice_z	5	stimuli_distractor_diamondtriangles.svg	stimuli_target_rectangletriangles.svg	7	yes	44	1	930	6	1	antiphase_hc_iso.wav	2	6	3	noise_calib_stim_LEFT.wav	1	4	blb_dichoticlistening_ba-ka.mp3	ba	ka	1	left
6.6.1	win	2023-06-27	07:24:03	07:39:15	907822	629f2dccc6e91be06559e2f1	1	1	practice_z	26	advance_on_keypress_ZEE	6	stimuli_distractor_diamondtriangles.svg	stimuli_target_rectangletriangles.svg	7	yes	57	0	444	6	1	antiphase_hc_iso.wav	2	6	3	noise_calib_stim_LEFT.wav	1	4	blb_dichoticlistening_ba-ka.mp3	ba	ka	1	left
6.6.1	win	2023-06-27	07:24:03	07:39:20	911926	629f2dccc6e91be06559e2f1	1	1	practice_z	26	practice_z	7	stimuli_distractor_trianglediamonds.svg	stimuli_distractor_diamondtriangles.svg	16	no	0	1	2000	6	1	antiphase_hc_iso.wav	2	6	3	noise_calib_stim_LEFT.wav	1	4	blb_dichoticlistening_ba-ka.mp3	ba	ka	1	left
6.6.1	win	2023-06-27	07:24:03	07:39:20	911926	629f2dccc6e91be06559e2f1	1	1	practice_z	26	advance_on_keypress_ZEE	8	stimuli_distractor_trianglediamonds.svg	stimuli_distractor_diamondtriangles.svg	16	no	57	0	407	6	1	antiphase_hc_iso.wav	2	6	3	noise_calib_stim_LEFT.wav	1	4	blb_dichoticlistening_ba-ka.mp3	ba	ka	1	left
6.6.1	win	2023-06-27	07:24:03	07:39:22	914724	629f2dccc6e91be06559e2f1	1	1	practice_z	26	practice_z	9	stimuli_distractor_diamondtriangles.svg	stimuli_distractor_trianglediamonds.svg	14	no	44	0	730	6	1	antiphase_hc_iso.wav	2	6	3	noise_calib_stim_LEFT.wav	1	4	blb_dichoticlistening_ba-ka.mp3	ba	ka	1	left
6.6.1	win	2023-06-27	07:24:03	07:39:22	914724	629f2dccc6e91be06559e2f1	1	1	practice_z	26	advance_on_keypress_ZEE	10	stimuli_distractor_diamondtriangles.svg	stimuli_distractor_trianglediamonds.svg	14	no	57	0	403	6	1	antiphase_hc_iso.wav	2	6	3	noise_calib_stim_LEFT.wav	1	4	blb_dichoticlistening_ba-ka.mp3	ba	ka	1	left
6.6.1	win	2023-06-27	07:24:03	07:39:25	917485	629f2dccc6e91be06559e2f1	1	1	practice_z	26	practice_z	11	stimuli_distractor_diamondtriangles.svg	stimuli_distractor_diamondtriangles.svg	13	no	44	0	697	6	1	antiphase_hc_iso.wav	2	6	3	noise_calib_stim_LEFT.wav	1	4	blb_dichoticlistening_ba-ka.mp3	ba	ka	1	left
6.6.1	win	2023-06-27	07:24:03	07:39:25	917485	629f2dccc6e91be06559e2f1	1	1	practice_z	26	advance_on_keypress_ZEE	12	stimuli_distractor_diamondtriangles.svg	stimuli_distractor_diamondtriangles.svg	13	no	57	0	384	6	1	antiphase_hc_iso.wav	2	6	3	noise_calib_stim_LEFT.wav	1	4	blb_dichoticlistening_ba-ka.mp3	ba	ka	1	left
6.6.1	win	2023-06-27	07:24:03	07:39:28	920156	629f2dccc6e91be06559e2f1	1	1	practice_z	26	practice_z	13	stimuli_distractor_trianglediamonds.svg	stimuli_target_diamondrectangles.svg	12	yes	44	1	637	6	1	antiphase_hc_iso.wav	2	6	3	noise_calib_stim_LEFT.wav	1	4	blb_dichoticlistening_ba-ka.mp3	ba	ka	1	left
6.6.1	win	2023-06-27	07:24:03	07:39:28	920156	629f2dccc6e91be06559e2f1	1	1	practice_z	26	advance_on_keypress_ZEE	14	stimuli_distractor_trianglediamonds.svg	stimuli_target_diamondrectangles.svg	12	yes	57	0	469	6	1	antiphase_hc_iso.wav	2	6	3	noise_calib_stim_LEFT.wav	1	4	blb_dichoticlistening_ba-ka.mp3	ba	ka	1	left
6.6.1	win	2023-06-27	07:24:03	07:39:31	922984	629f2dccc6e91be06559e2f1	1	1	practice_z	26	practice_z	15	stimuli_target_rectanglediamonds.svg	stimuli_distractor_trianglediamonds.svg	4	yes	44	1	698	6	1	antiphase_hc_iso.wav	2	6	3	noise_calib_stim_LEFT.wav	1	4	blb_dichoticlistening_ba-ka.mp3	ba	ka	1	left
6.6.1	win	2023-06-27	07:24:03	07:39:31	922984	629f2dccc6e91be06559e2f1	1	1	practice_z	26	advance_on_keypress_ZEE	16	stimuli_target_rectanglediamonds.svg	stimuli_distractor_trianglediamonds.svg	4	yes	57	0	289	6	1	antiphase_hc_iso.wav	2	6	3	noise_calib_stim_LEFT.wav	1	4	blb_dichoticlistening_ba-ka.mp3	ba	ka	1	left
