build	computer.platform	date	time	timestamp	time_elapsed_ms	subject	group	session	blockcode	blocknum	trialcode	trialnum	stimulus_left	stimulus_right	stim_index	target_present	response	correct	latency	headphonecheck_countTestTrials	headphonecheck_index	headphonecheck_testSound	headphonecheck_correctResponse	stereocheck_countTestTrials	stereocheck_index	stereocheck_testSound	stereocheck_correctResponse	DL_index	DL_soundfile	DL_leftSound	DL_rightSound	DL_dualSound	DL_choice
6.6.1	win	2023-07-14	12:14:57	12:18:29	208106	5b2aac848580750001aa0b64	4	1	practice_z	5	practice_z	1	stimuli_distractor_trianglediamonds.svg	stimuli_target_squarediamonds.svg	11	yes	0	0	2000	0	0			0	0			1				0	
6.6.1	win	2023-07-14	12:14:57	12:18:29	208106	5b2aac848580750001aa0b64	4	1	practice_z	5	advance_on_keypress_ZEE	2	stimuli_distractor_trianglediamonds.svg	stimuli_target_squarediamonds.svg	11	yes	57	0	3052	0	0			0	0			1				0	
6.6.1	win	2023-07-14	12:14:57	12:18:35	213874	5b2aac848580750001aa0b64	4	1	practice_z	5	practice_z	3	stimuli_distractor_trianglediamonds.svg	stimuli_distractor_trianglediamonds.svg	15	no	44	0	1032	0	0			0	0			1				0	
6.6.1	win	2023-07-14	12:14:57	12:18:35	213874	5b2aac848580750001aa0b64	4	1	practice_z	5	advance_on_keypress_ZEE	4	stimuli_distractor_trianglediamonds.svg	stimuli_distractor_trianglediamonds.svg	15	no	57	0	742	0	0			0	0			1				0	
6.6.1	win	2023-07-14	12:14:57	12:18:39	217779	5b2aac848580750001aa0b64	4	1	practice_z	5	practice_z	5	stimuli_distractor_diamondtriangles.svg	stimuli_target_rectangletriangles.svg	7	yes	44	1	1519	0	0			0	0			1				0	
6.6.1	win	2023-07-14	12:14:57	12:18:39	217779	5b2aac848580750001aa0b64	4	1	practice_z	5	advance_on_keypress_ZEE	6	stimuli_distractor_diamondtriangles.svg	stimuli_target_rectangletriangles.svg	7	yes	57	0	1666	0	0			0	0			1				0	
6.6.1	win	2023-07-14	12:14:57	12:18:43	222037	5b2aac848580750001aa0b64	4	1	practice_z	5	practice_z	7	stimuli_distractor_trianglediamonds.svg	stimuli_target_diamondrectangles.svg	12	yes	44	1	901	0	0			0	0			1				0	
6.6.1	win	2023-07-14	12:14:57	12:18:43	222037	5b2aac848580750001aa0b64	4	1	practice_z	5	advance_on_keypress_ZEE	8	stimuli_distractor_trianglediamonds.svg	stimuli_target_diamondrectangles.svg	12	yes	57	0	839	0	0			0	0			1				0	
6.6.1	win	2023-07-14	12:14:57	12:18:46	225366	5b2aac848580750001aa0b64	4	1	practice_z	5	practice_z	9	stimuli_distractor_diamondtriangles.svg	stimuli_target_trianglerectangles.svg	9	yes	44	1	804	0	0			0	0			1				0	
6.6.1	win	2023-07-14	12:14:57	12:18:46	225366	5b2aac848580750001aa0b64	4	1	practice_z	5	advance_on_keypress_ZEE	10	stimuli_distractor_diamondtriangles.svg	stimuli_target_trianglerectangles.svg	9	yes	57	0	467	0	0			0	0			1				0	
6.6.1	win	2023-07-14	12:14:57	12:18:50	229511	5b2aac848580750001aa0b64	4	1	practice_z	5	practice_z	11	stimuli_distractor_diamondtriangles.svg	stimuli_distractor_trianglediamonds.svg	14	no	0	1	2000	0	0			0	0			1				0	
6.6.1	win	2023-07-14	12:14:57	12:18:50	229511	5b2aac848580750001aa0b64	4	1	practice_z	5	advance_on_keypress_ZEE	12	stimuli_distractor_diamondtriangles.svg	stimuli_distractor_trianglediamonds.svg	14	no	57	0	525	0	0			0	0			1				0	
6.6.1	win	2023-07-14	12:14:57	12:18:53	232635	5b2aac848580750001aa0b64	4	1	practice_z	5	practice_z	13	stimuli_target_squarediamonds.svg	stimuli_distractor_diamondtriangles.svg	2	yes	44	1	942	0	0			0	0			1				0	
6.6.1	win	2023-07-14	12:14:57	12:18:53	232635	5b2aac848580750001aa0b64	4	1	practice_z	5	advance_on_keypress_ZEE	14	stimuli_target_squarediamonds.svg	stimuli_distractor_diamondtriangles.svg	2	yes	57	0	1184	0	0			0	0			1				0	
6.6.1	win	2023-07-14	12:14:57	12:18:58	237477	5b2aac848580750001aa0b64	4	1	practice_z	5	practice_z	15	stimuli_distractor_diamondtriangles.svg	stimuli_distractor_diamondtriangles.svg	13	no	0	1	2000	0	0			0	0			1				0	
6.6.1	win	2023-07-14	12:14:57	12:18:58	237477	5b2aac848580750001aa0b64	4	1	practice_z	5	advance_on_keypress_ZEE	16	stimuli_distractor_diamondtriangles.svg	stimuli_distractor_diamondtriangles.svg	13	no	57	0	1143	0	0			0	0			1				0	
6.6.1	win	2023-07-14	12:14:57	12:19:02	240987	5b2aac848580750001aa0b64	4	1	practice_z	5	practice_z	17	stimuli_target_diamondsquares.svg	stimuli_distractor_trianglediamonds.svg	6	yes	44	1	711	0	0			0	0			1				0	
6.6.1	win	2023-07-14	12:14:57	12:19:02	240987	5b2aac848580750001aa0b64	4	1	practice_z	5	advance_on_keypress_ZEE	18	stimuli_target_diamondsquares.svg	stimuli_distractor_trianglediamonds.svg	6	yes	57	0	1442	0	0			0	0			1				0	
6.6.1	win	2023-07-14	12:14:57	12:19:06	245071	5b2aac848580750001aa0b64	4	1	practice_z	5	practice_z	19	stimuli_target_rectanglediamonds.svg	stimuli_distractor_trianglediamonds.svg	4	yes	44	1	959	0	0			0	0			1				0	
6.6.1	win	2023-07-14	12:14:57	12:19:06	245071	5b2aac848580750001aa0b64	4	1	practice_z	5	advance_on_keypress_ZEE	20	stimuli_target_rectanglediamonds.svg	stimuli_distractor_trianglediamonds.svg	4	yes	57	0	863	0	0			0	0			1				0	
6.6.1	win	2023-07-14	12:14:57	12:19:09	248471	5b2aac848580750001aa0b64	4	1	practice_z	5	practice_z	21	stimuli_distractor_diamondtriangles.svg	stimuli_target_diamondrectangles.svg	8	yes	44	1	859	0	0			0	0			1				0	
6.6.1	win	2023-07-14	12:14:57	12:19:09	248471	5b2aac848580750001aa0b64	4	1	practice_z	5	advance_on_keypress_ZEE	22	stimuli_distractor_diamondtriangles.svg	stimuli_target_diamondrectangles.svg	8	yes	57	0	655	0	0			0	0			1				0	
6.6.1	win	2023-07-14	12:14:57	12:19:12	251594	5b2aac848580750001aa0b64	4	1	practice_z	5	practice_z	23	stimuli_target_squarediamonds.svg	stimuli_distractor_trianglediamonds.svg	5	yes	44	1	796	0	0			0	0			1				0	
6.6.1	win	2023-07-14	12:14:57	12:19:12	251594	5b2aac848580750001aa0b64	4	1	practice_z	5	advance_on_keypress_ZEE	24	stimuli_target_squarediamonds.svg	stimuli_distractor_trianglediamonds.svg	5	yes	57	0	419	0	0			0	0			1				0	
6.6.1	win	2023-07-14	12:14:57	12:19:16	255173	5b2aac848580750001aa0b64	4	1	practice_z	5	practice_z	25	stimuli_distractor_trianglediamonds.svg	stimuli_distractor_diamondtriangles.svg	16	no	44	0	1472	0	0			0	0			1				0	
6.6.1	win	2023-07-14	12:14:57	12:19:16	255173	5b2aac848580750001aa0b64	4	1	practice_z	5	advance_on_keypress_ZEE	26	stimuli_distractor_trianglediamonds.svg	stimuli_distractor_diamondtriangles.svg	16	no	57	0	435	0	0			0	0			1				0	
6.6.1	win	2023-07-14	12:14:57	12:19:19	258071	5b2aac848580750001aa0b64	4	1	practice_z	5	practice_z	27	stimuli_target_diamondsquares.svg	stimuli_distractor_diamondtriangles.svg	3	yes	44	1	793	0	0			0	0			1				0	
6.6.1	win	2023-07-14	12:14:57	12:19:19	258071	5b2aac848580750001aa0b64	4	1	practice_z	5	advance_on_keypress_ZEE	28	stimuli_target_diamondsquares.svg	stimuli_distractor_diamondtriangles.svg	3	yes	57	0	407	0	0			0	0			1				0	
6.6.1	win	2023-07-14	12:14:57	12:19:22	260923	5b2aac848580750001aa0b64	4	1	practice_z	5	practice_z	29	stimuli_target_rectanglediamonds.svg	stimuli_distractor_diamondtriangles.svg	1	yes	44	1	781	0	0			0	0			1				0	
6.6.1	win	2023-07-14	12:14:57	12:19:22	260923	5b2aac848580750001aa0b64	4	1	practice_z	5	advance_on_keypress_ZEE	30	stimuli_target_rectanglediamonds.svg	stimuli_distractor_diamondtriangles.svg	1	yes	57	0	414	0	0			0	0			1				0	
6.6.1	win	2023-07-14	12:14:57	12:19:25	264593	5b2aac848580750001aa0b64	4	1	practice_z	5	practice_z	31	stimuli_distractor_trianglediamonds.svg	stimuli_target_rectanglediamonds.svg	10	yes	44	1	1580	0	0			0	0			1				0	
6.6.1	win	2023-07-14	12:14:57	12:19:25	264593	5b2aac848580750001aa0b64	4	1	practice_z	5	advance_on_keypress_ZEE	32	stimuli_distractor_trianglediamonds.svg	stimuli_target_rectanglediamonds.svg	10	yes	57	0	515	0	0			0	0			1				0	
6.6.1	win	2023-07-14	12:14:57	12:19:32	271378	5b2aac848580750001aa0b64	4	1	main_z	7	main_z	1	stimuli_distractor_diamondtriangles.svg	stimuli_target_rectanglediamonds.svg	14	yes	44	1	671	0	0			0	0			1				0	
6.6.1	win	2023-07-14	12:14:57	12:19:32	271378	5b2aac848580750001aa0b64	4	1	main_z	7	advance_on_keypress_ZEE	2	stimuli_distractor_diamondtriangles.svg	stimuli_target_rectanglediamonds.svg	14	yes	57	0	1588	0	0			0	0			1				0	
6.6.1	win	2023-07-14	12:14:57	12:19:35	274230	5b2aac848580750001aa0b64	4	1	main_z	7	main_z	3	stimuli_distractor_diamondtriangles.svg	stimuli_target_diamondsquares.svg	32	yes	44	1	603	0	0			0	0			1				0	
6.6.1	win	2023-07-14	12:14:57	12:19:35	274230	5b2aac848580750001aa0b64	4	1	main_z	7	advance_on_keypress_ZEE	4	stimuli_distractor_diamondtriangles.svg	stimuli_target_diamondsquares.svg	32	yes	57	0	682	0	0			0	0			1				0	
6.6.1	win	2023-07-14	12:14:57	12:19:37	276049	5b2aac848580750001aa0b64	4	1	main_z	7	main_z	5	stimuli_distractor_trianglediamonds.svg	stimuli_target_rectanglediamonds.svg	10	yes	44	1	483	0	0			0	0			1				0	
6.6.1	win	2023-07-14	12:14:57	12:19:37	276049	5b2aac848580750001aa0b64	4	1	main_z	7	advance_on_keypress_ZEE	6	stimuli_distractor_trianglediamonds.svg	stimuli_target_rectanglediamonds.svg	10	yes	57	0	401	0	0			0	0			1				0	
6.6.1	win	2023-07-14	12:14:57	12:19:38	277622	5b2aac848580750001aa0b64	4	1	main_z	7	main_z	7	stimuli_distractor_diamondtriangles.svg	stimuli_target_squarediamonds.svg	16	yes	44	1	503	0	0			0	0			1				0	
6.6.1	win	2023-07-14	12:14:57	12:19:38	277622	5b2aac848580750001aa0b64	4	1	main_z	7	advance_on_keypress_ZEE	8	stimuli_distractor_diamondtriangles.svg	stimuli_target_squarediamonds.svg	16	yes	57	0	442	0	0			0	0			1				0	
6.6.1	win	2023-07-14	12:14:57	12:19:40	279642	5b2aac848580750001aa0b64	4	1	main_z	7	main_z	9	stimuli_target_trianglerectangles.svg	stimuli_distractor_trianglediamonds.svg	17	yes	44	1	919	0	0			0	0			1				0	
6.6.1	win	2023-07-14	12:14:57	12:19:40	279642	5b2aac848580750001aa0b64	4	1	main_z	7	advance_on_keypress_ZEE	10	stimuli_target_trianglerectangles.svg	stimuli_distractor_trianglediamonds.svg	17	yes	57	0	746	0	0			0	0			1				0	
6.6.1	win	2023-07-14	12:14:57	12:19:44	283055	5b2aac848580750001aa0b64	4	1	main_z	7	main_z	11	stimuli_distractor_trianglediamonds.svg	stimuli_distractor_trianglediamonds.svg	33	no	0	1	2000	0	0			0	0			1				0	
6.6.1	win	2023-07-14	12:14:57	12:19:44	283055	5b2aac848580750001aa0b64	4	1	main_z	7	advance_on_keypress_ZEE	12	stimuli_distractor_trianglediamonds.svg	stimuli_distractor_trianglediamonds.svg	33	no	57	0	665	0	0			0	0			1				0	
6.6.1	win	2023-07-14	12:14:57	12:19:46	285261	5b2aac848580750001aa0b64	4	1	main_z	7	main_z	13	stimuli_distractor_diamondtriangles.svg	stimuli_target_trianglesquares.svg	30	yes	44	1	885	0	0			0	0			1				0	
6.6.1	win	2023-07-14	12:14:57	12:19:46	285261	5b2aac848580750001aa0b64	4	1	main_z	7	advance_on_keypress_ZEE	14	stimuli_distractor_diamondtriangles.svg	stimuli_target_trianglesquares.svg	30	yes	57	0	449	0	0			0	0			1				0	
6.6.1	win	2023-07-14	12:14:57	12:19:48	287250	5b2aac848580750001aa0b64	4	1	main_z	7	main_z	15	stimuli_target_squarediamonds.svg	stimuli_distractor_trianglediamonds.svg	4	yes	44	1	894	0	0			0	0			1				0	
6.6.1	win	2023-07-14	12:14:57	12:19:48	287250	5b2aac848580750001aa0b64	4	1	main_z	7	advance_on_keypress_ZEE	16	stimuli_target_squarediamonds.svg	stimuli_distractor_trianglediamonds.svg	4	yes	57	0	329	0	0			0	0			1				0	
6.6.1	win	2023-07-14	12:14:57	12:19:50	289092	5b2aac848580750001aa0b64	4	1	main_z	7	main_z	17	stimuli_distractor_diamondtriangles.svg	stimuli_target_diamondrectangles.svg	31	yes	44	1	842	0	0			0	0			1				0	
6.6.1	win	2023-07-14	12:14:57	12:19:50	289092	5b2aac848580750001aa0b64	4	1	main_z	7	advance_on_keypress_ZEE	18	stimuli_distractor_diamondtriangles.svg	stimuli_target_diamondrectangles.svg	31	yes	57	0	376	0	0			0	0			1				0	
6.6.1	win	2023-07-14	12:14:57	12:19:52	291618	5b2aac848580750001aa0b64	4	1	main_z	7	main_z	19	stimuli_distractor_diamondtriangles.svg	stimuli_distractor_trianglediamonds.svg	37	no	44	0	1512	0	0			0	0			1				0	
6.6.1	win	2023-07-14	12:14:57	12:19:52	291618	5b2aac848580750001aa0b64	4	1	main_z	7	advance_on_keypress_ZEE	20	stimuli_distractor_diamondtriangles.svg	stimuli_distractor_trianglediamonds.svg	37	no	57	0	459	0	0			0	0			1				0	
6.6.1	win	2023-07-14	12:14:57	12:19:55	294017	5b2aac848580750001aa0b64	4	1	main_z	7	main_z	21	stimuli_distractor_trianglediamonds.svg	stimuli_distractor_diamondtriangles.svg	35	no	44	0	1279	0	0			0	0			1				0	
6.6.1	win	2023-07-14	12:14:57	12:19:55	294017	5b2aac848580750001aa0b64	4	1	main_z	7	advance_on_keypress_ZEE	22	stimuli_distractor_trianglediamonds.svg	stimuli_distractor_diamondtriangles.svg	35	no	57	0	395	0	0			0	0			1				0	
6.6.1	win	2023-07-14	12:14:57	12:19:57	296619	5b2aac848580750001aa0b64	4	1	main_z	7	main_z	23	stimuli_target_squaretriangles.svg	stimuli_distractor_diamondtriangles.svg	7	yes	44	1	1537	0	0			0	0			1				0	
6.6.1	win	2023-07-14	12:14:57	12:19:57	296619	5b2aac848580750001aa0b64	4	1	main_z	7	advance_on_keypress_ZEE	24	stimuli_target_squaretriangles.svg	stimuli_distractor_diamondtriangles.svg	7	yes	57	0	539	0	0			0	0			1				0	
6.6.1	win	2023-07-14	12:14:57	12:20:01	299824	5b2aac848580750001aa0b64	4	1	main_z	7	main_z	25	stimuli_distractor_diamondtriangles.svg	stimuli_distractor_diamondtriangles.svg	40	no	0	1	2000	0	0			0	0			1				0	
6.6.1	win	2023-07-14	12:14:57	12:20:01	299824	5b2aac848580750001aa0b64	4	1	main_z	7	advance_on_keypress_ZEE	26	stimuli_distractor_diamondtriangles.svg	stimuli_distractor_diamondtriangles.svg	40	no	57	0	627	0	0			0	0			1				0	
6.6.1	win	2023-07-14	12:14:57	12:20:03	302212	5b2aac848580750001aa0b64	4	1	main_z	7	main_z	27	stimuli_distractor_trianglediamonds.svg	stimuli_target_squarediamonds.svg	12	yes	44	1	1104	0	0			0	0			1				0	
6.6.1	win	2023-07-14	12:14:57	12:20:03	302212	5b2aac848580750001aa0b64	4	1	main_z	7	advance_on_keypress_ZEE	28	stimuli_distractor_trianglediamonds.svg	stimuli_target_squarediamonds.svg	12	yes	57	0	332	0	0			0	0			1				0	
6.6.1	win	2023-07-14	12:14:57	12:20:05	304128	5b2aac848580750001aa0b64	4	1	main_z	7	main_z	29	stimuli_distractor_diamondtriangles.svg	stimuli_target_rectangletriangles.svg	13	yes	44	1	933	0	0			0	0			1				0	
6.6.1	win	2023-07-14	12:14:57	12:20:05	304128	5b2aac848580750001aa0b64	4	1	main_z	7	advance_on_keypress_ZEE	30	stimuli_distractor_diamondtriangles.svg	stimuli_target_rectangletriangles.svg	13	yes	57	0	391	0	0			0	0			1				0	
6.6.1	win	2023-07-14	12:14:57	12:20:07	306212	5b2aac848580750001aa0b64	4	1	main_z	7	main_z	31	stimuli_distractor_diamondtriangles.svg	stimuli_distractor_trianglediamonds.svg	38	no	44	0	1038	0	0			0	0			1				0	
6.6.1	win	2023-07-14	12:14:57	12:20:07	306212	5b2aac848580750001aa0b64	4	1	main_z	7	advance_on_keypress_ZEE	32	stimuli_distractor_diamondtriangles.svg	stimuli_distractor_trianglediamonds.svg	38	no	57	0	444	0	0			0	0			1				0	
6.6.1	win	2023-07-14	12:14:57	12:20:09	308314	5b2aac848580750001aa0b64	4	1	main_z	7	main_z	33	stimuli_target_trianglesquares.svg	stimuli_distractor_trianglediamonds.svg	18	yes	44	1	1025	0	0			0	0			1				0	
6.6.1	win	2023-07-14	12:14:57	12:20:09	308314	5b2aac848580750001aa0b64	4	1	main_z	7	advance_on_keypress_ZEE	34	stimuli_target_trianglesquares.svg	stimuli_distractor_trianglediamonds.svg	18	yes	57	0	384	0	0			0	0			1				0	
6.6.1	win	2023-07-14	12:14:57	12:20:11	310243	5b2aac848580750001aa0b64	4	1	main_z	7	main_z	35	stimuli_distractor_trianglediamonds.svg	stimuli_target_diamondrectangles.svg	27	yes	44	1	887	0	0			0	0			1				0	
6.6.1	win	2023-07-14	12:14:57	12:20:11	310243	5b2aac848580750001aa0b64	4	1	main_z	7	advance_on_keypress_ZEE	36	stimuli_distractor_trianglediamonds.svg	stimuli_target_diamondrectangles.svg	27	yes	57	0	339	0	0			0	0			1				0	
6.6.1	win	2023-07-14	12:14:57	12:20:14	312832	5b2aac848580750001aa0b64	4	1	main_z	7	main_z	37	stimuli_distractor_trianglediamonds.svg	stimuli_distractor_diamondtriangles.svg	36	no	44	0	1579	0	0			0	0			1				0	
6.6.1	win	2023-07-14	12:14:57	12:20:14	312832	5b2aac848580750001aa0b64	4	1	main_z	7	advance_on_keypress_ZEE	38	stimuli_distractor_trianglediamonds.svg	stimuli_distractor_diamondtriangles.svg	36	no	57	0	347	0	0			0	0			1				0	
6.6.1	win	2023-07-14	12:14:57	12:20:16	314786	5b2aac848580750001aa0b64	4	1	main_z	7	main_z	39	stimuli_distractor_diamondtriangles.svg	stimuli_target_squaretriangles.svg	15	yes	44	1	947	0	0			0	0			1				0	
6.6.1	win	2023-07-14	12:14:57	12:20:16	314786	5b2aac848580750001aa0b64	4	1	main_z	7	advance_on_keypress_ZEE	40	stimuli_distractor_diamondtriangles.svg	stimuli_target_squaretriangles.svg	15	yes	57	0	349	0	0			0	0			1				0	
6.6.1	win	2023-07-14	12:14:57	12:20:18	316720	5b2aac848580750001aa0b64	4	1	main_z	7	main_z	41	stimuli_distractor_trianglediamonds.svg	stimuli_target_squaretriangles.svg	11	yes	44	1	917	0	0			0	0			1				0	
6.6.1	win	2023-07-14	12:14:57	12:20:18	316720	5b2aac848580750001aa0b64	4	1	main_z	7	advance_on_keypress_ZEE	42	stimuli_distractor_trianglediamonds.svg	stimuli_target_squaretriangles.svg	11	yes	57	0	336	0	0			0	0			1				0	
6.6.1	win	2023-07-14	12:14:57	12:20:20	319416	5b2aac848580750001aa0b64	4	1	main_z	7	main_z	43	stimuli_target_trianglesquares.svg	stimuli_distractor_diamondtriangles.svg	22	yes	44	1	1697	0	0			0	0			1				0	
6.6.1	win	2023-07-14	12:14:57	12:20:20	319416	5b2aac848580750001aa0b64	4	1	main_z	7	advance_on_keypress_ZEE	44	stimuli_target_trianglesquares.svg	stimuli_distractor_diamondtriangles.svg	22	yes	57	0	380	0	0			0	0			1				0	
6.6.1	win	2023-07-14	12:14:57	12:20:22	321402	5b2aac848580750001aa0b64	4	1	main_z	7	main_z	45	stimuli_target_diamondrectangles.svg	stimuli_distractor_diamondtriangles.svg	23	yes	44	1	947	0	0			0	0			1				0	
6.6.1	win	2023-07-14	12:14:57	12:20:22	321402	5b2aac848580750001aa0b64	4	1	main_z	7	advance_on_keypress_ZEE	46	stimuli_target_diamondrectangles.svg	stimuli_distractor_diamondtriangles.svg	23	yes	57	0	276	0	0			0	0			1				0	
6.6.1	win	2023-07-14	12:14:57	12:20:24	323397	5b2aac848580750001aa0b64	4	1	main_z	7	main_z	47	stimuli_distractor_trianglediamonds.svg	stimuli_target_diamondsquares.svg	28	yes	44	1	1056	0	0			0	0			1				0	
6.6.1	win	2023-07-14	12:14:57	12:20:24	323397	5b2aac848580750001aa0b64	4	1	main_z	7	advance_on_keypress_ZEE	48	stimuli_distractor_trianglediamonds.svg	stimuli_target_diamondsquares.svg	28	yes	57	0	317	0	0			0	0			1				0	
6.6.1	win	2023-07-14	12:14:57	12:20:26	325374	5b2aac848580750001aa0b64	4	1	main_z	7	main_z	49	stimuli_target_rectangletriangles.svg	stimuli_distractor_diamondtriangles.svg	5	yes	44	1	1015	0	0			0	0			1				0	
6.6.1	win	2023-07-14	12:14:57	12:20:26	325374	5b2aac848580750001aa0b64	4	1	main_z	7	advance_on_keypress_ZEE	50	stimuli_target_rectangletriangles.svg	stimuli_distractor_diamondtriangles.svg	5	yes	57	0	230	0	0			0	0			1				0	
6.6.1	win	2023-07-14	12:14:57	12:20:28	327258	5b2aac848580750001aa0b64	4	1	main_z	7	main_z	51	stimuli_distractor_diamondtriangles.svg	stimuli_target_trianglerectangles.svg	29	yes	44	1	1003	0	0			0	0			1				0	
6.6.1	win	2023-07-14	12:14:57	12:20:28	327258	5b2aac848580750001aa0b64	4	1	main_z	7	advance_on_keypress_ZEE	52	stimuli_distractor_diamondtriangles.svg	stimuli_target_trianglerectangles.svg	29	yes	57	0	283	0	0			0	0			1				0	
6.6.1	win	2023-07-14	12:14:57	12:20:30	329167	5b2aac848580750001aa0b64	4	1	main_z	7	main_z	53	stimuli_target_rectanglediamonds.svg	stimuli_distractor_trianglediamonds.svg	2	yes	44	1	964	0	0			0	0			1				0	
6.6.1	win	2023-07-14	12:14:57	12:20:30	329167	5b2aac848580750001aa0b64	4	1	main_z	7	advance_on_keypress_ZEE	54	stimuli_target_rectanglediamonds.svg	stimuli_distractor_trianglediamonds.svg	2	yes	57	0	214	0	0			0	0			1				0	
6.6.1	win	2023-07-14	12:14:57	12:20:32	330916	5b2aac848580750001aa0b64	4	1	main_z	7	main_z	55	stimuli_target_squarediamonds.svg	stimuli_distractor_diamondtriangles.svg	8	yes	44	1	868	0	0			0	0			1				0	
6.6.1	win	2023-07-14	12:14:57	12:20:32	330916	5b2aac848580750001aa0b64	4	1	main_z	7	advance_on_keypress_ZEE	56	stimuli_target_squarediamonds.svg	stimuli_distractor_diamondtriangles.svg	8	yes	57	0	256	0	0			0	0			1				0	
6.6.1	win	2023-07-14	12:14:57	12:20:34	332874	5b2aac848580750001aa0b64	4	1	main_z	7	main_z	57	stimuli_target_diamondsquares.svg	stimuli_distractor_diamondtriangles.svg	24	yes	44	1	1053	0	0			0	0			1				0	
6.6.1	win	2023-07-14	12:14:57	12:20:34	332874	5b2aac848580750001aa0b64	4	1	main_z	7	advance_on_keypress_ZEE	58	stimuli_target_diamondsquares.svg	stimuli_distractor_diamondtriangles.svg	24	yes	57	0	298	0	0			0	0			1				0	
6.6.1	win	2023-07-14	12:14:57	12:20:36	334700	5b2aac848580750001aa0b64	4	1	main_z	7	main_z	59	stimuli_target_rectangletriangles.svg	stimuli_distractor_trianglediamonds.svg	1	yes	44	1	877	0	0			0	0			1				0	
6.6.1	win	2023-07-14	12:14:57	12:20:36	334700	5b2aac848580750001aa0b64	4	1	main_z	7	advance_on_keypress_ZEE	60	stimuli_target_rectangletriangles.svg	stimuli_distractor_trianglediamonds.svg	1	yes	57	0	305	0	0			0	0			1				0	
6.6.1	win	2023-07-14	12:14:57	12:20:37	336586	5b2aac848580750001aa0b64	4	1	main_z	7	main_z	61	stimuli_distractor_trianglediamonds.svg	stimuli_target_rectangletriangles.svg	9	yes	44	1	924	0	0			0	0			1				0	
6.6.1	win	2023-07-14	12:14:57	12:20:37	336586	5b2aac848580750001aa0b64	4	1	main_z	7	advance_on_keypress_ZEE	62	stimuli_distractor_trianglediamonds.svg	stimuli_target_rectangletriangles.svg	9	yes	57	0	262	0	0			0	0			1				0	
6.6.1	win	2023-07-14	12:14:57	12:20:39	338378	5b2aac848580750001aa0b64	4	1	main_z	7	main_z	63	stimuli_distractor_trianglediamonds.svg	stimuli_target_trianglesquares.svg	26	yes	44	1	874	0	0			0	0			1				0	
6.6.1	win	2023-07-14	12:14:57	12:20:39	338378	5b2aac848580750001aa0b64	4	1	main_z	7	advance_on_keypress_ZEE	64	stimuli_distractor_trianglediamonds.svg	stimuli_target_trianglesquares.svg	26	yes	57	0	302	0	0			0	0			1				0	
6.6.1	win	2023-07-14	12:14:57	12:20:41	340183	5b2aac848580750001aa0b64	4	1	main_z	7	main_z	65	stimuli_target_diamondrectangles.svg	stimuli_distractor_trianglediamonds.svg	19	yes	44	1	857	0	0			0	0			1				0	
6.6.1	win	2023-07-14	12:14:57	12:20:41	340183	5b2aac848580750001aa0b64	4	1	main_z	7	advance_on_keypress_ZEE	66	stimuli_target_diamondrectangles.svg	stimuli_distractor_trianglediamonds.svg	19	yes	57	0	238	0	0			0	0			1				0	
6.6.1	win	2023-07-14	12:14:57	12:20:44	343092	5b2aac848580750001aa0b64	4	1	main_z	7	main_z	67	stimuli_distractor_trianglediamonds.svg	stimuli_distractor_trianglediamonds.svg	34	no	0	1	2000	0	0			0	0			1				0	
6.6.1	win	2023-07-14	12:14:57	12:20:44	343092	5b2aac848580750001aa0b64	4	1	main_z	7	advance_on_keypress_ZEE	68	stimuli_distractor_trianglediamonds.svg	stimuli_distractor_trianglediamonds.svg	34	no	57	0	514	0	0			0	0			1				0	
6.6.1	win	2023-07-14	12:14:57	12:20:46	345066	5b2aac848580750001aa0b64	4	1	main_z	7	main_z	69	stimuli_target_diamondsquares.svg	stimuli_distractor_trianglediamonds.svg	20	yes	44	1	812	0	0			0	0			1				0	
6.6.1	win	2023-07-14	12:14:57	12:20:46	345066	5b2aac848580750001aa0b64	4	1	main_z	7	advance_on_keypress_ZEE	70	stimuli_target_diamondsquares.svg	stimuli_distractor_trianglediamonds.svg	20	yes	57	0	243	0	0			0	0			1				0	
6.6.1	win	2023-07-14	12:14:57	12:20:48	346836	5b2aac848580750001aa0b64	4	1	main_z	7	main_z	71	stimuli_distractor_trianglediamonds.svg	stimuli_target_trianglerectangles.svg	25	yes	44	1	880	0	0			0	0			1				0	
6.6.1	win	2023-07-14	12:14:57	12:20:48	346836	5b2aac848580750001aa0b64	4	1	main_z	7	advance_on_keypress_ZEE	72	stimuli_distractor_trianglediamonds.svg	stimuli_target_trianglerectangles.svg	25	yes	57	0	252	0	0			0	0			1				0	
6.6.1	win	2023-07-14	12:14:57	12:20:49	348663	5b2aac848580750001aa0b64	4	1	main_z	7	main_z	73	stimuli_target_squaretriangles.svg	stimuli_distractor_trianglediamonds.svg	3	yes	44	1	904	0	0			0	0			1				0	
6.6.1	win	2023-07-14	12:14:57	12:20:49	348663	5b2aac848580750001aa0b64	4	1	main_z	7	advance_on_keypress_ZEE	74	stimuli_target_squaretriangles.svg	stimuli_distractor_trianglediamonds.svg	3	yes	57	0	251	0	0			0	0			1				0	
6.6.1	win	2023-07-14	12:14:57	12:20:51	350485	5b2aac848580750001aa0b64	4	1	main_z	7	main_z	75	stimuli_target_trianglerectangles.svg	stimuli_distractor_diamondtriangles.svg	21	yes	44	1	903	0	0			0	0			1				0	
6.6.1	win	2023-07-14	12:14:57	12:20:51	350485	5b2aac848580750001aa0b64	4	1	main_z	7	advance_on_keypress_ZEE	76	stimuli_target_trianglerectangles.svg	stimuli_distractor_diamondtriangles.svg	21	yes	57	0	242	0	0			0	0			1				0	
6.6.1	win	2023-07-14	12:14:57	12:20:53	352329	5b2aac848580750001aa0b64	4	1	main_z	7	main_z	77	stimuli_target_rectanglediamonds.svg	stimuli_distractor_diamondtriangles.svg	6	yes	44	1	935	0	0			0	0			1				0	
6.6.1	win	2023-07-14	12:14:57	12:20:53	352329	5b2aac848580750001aa0b64	4	1	main_z	7	advance_on_keypress_ZEE	78	stimuli_target_rectanglediamonds.svg	stimuli_distractor_diamondtriangles.svg	6	yes	57	0	249	0	0			0	0			1				0	
6.6.1	win	2023-07-14	12:14:57	12:20:56	355227	5b2aac848580750001aa0b64	4	1	main_z	7	main_z	79	stimuli_distractor_diamondtriangles.svg	stimuli_distractor_diamondtriangles.svg	39	no	0	1	2000	0	0			0	0			1				0	
6.6.1	win	2023-07-14	12:14:57	12:20:56	355227	5b2aac848580750001aa0b64	4	1	main_z	7	advance_on_keypress_ZEE	80	stimuli_distractor_diamondtriangles.svg	stimuli_distractor_diamondtriangles.svg	39	no	57	0	509	0	0			0	0			1				0	
6.6.1	win	2023-07-14	12:14:57	12:20:58	357201	5b2aac848580750001aa0b64	4	1	main_z	7	main_z	81	stimuli_target_trianglesquares.svg	stimuli_distractor_diamondtriangles.svg	22	yes	44	1	832	0	0			0	0			1				0	
6.6.1	win	2023-07-14	12:14:57	12:20:58	357201	5b2aac848580750001aa0b64	4	1	main_z	7	advance_on_keypress_ZEE	82	stimuli_target_trianglesquares.svg	stimuli_distractor_diamondtriangles.svg	22	yes	57	0	270	0	0			0	0			1				0	
6.6.1	win	2023-07-14	12:14:57	12:21:00	359043	5b2aac848580750001aa0b64	4	1	main_z	7	main_z	83	stimuli_target_trianglerectangles.svg	stimuli_distractor_trianglediamonds.svg	17	yes	44	1	905	0	0			0	0			1				0	
6.6.1	win	2023-07-14	12:14:57	12:21:00	359043	5b2aac848580750001aa0b64	4	1	main_z	7	advance_on_keypress_ZEE	84	stimuli_target_trianglerectangles.svg	stimuli_distractor_trianglediamonds.svg	17	yes	57	0	292	0	0			0	0			1				0	
6.6.1	win	2023-07-14	12:14:57	12:21:02	360952	5b2aac848580750001aa0b64	4	1	main_z	7	main_z	85	stimuli_distractor_trianglediamonds.svg	stimuli_target_rectangletriangles.svg	9	yes	44	1	951	0	0			0	0			1				0	
6.6.1	win	2023-07-14	12:14:57	12:21:02	360952	5b2aac848580750001aa0b64	4	1	main_z	7	advance_on_keypress_ZEE	86	stimuli_distractor_trianglediamonds.svg	stimuli_target_rectangletriangles.svg	9	yes	57	0	304	0	0			0	0			1				0	
6.6.1	win	2023-07-14	12:14:57	12:21:05	363921	5b2aac848580750001aa0b64	4	1	main_z	7	main_z	87	stimuli_distractor_diamondtriangles.svg	stimuli_distractor_trianglediamonds.svg	38	no	0	1	2000	0	0			0	0			1				0	
6.6.1	win	2023-07-14	12:14:57	12:21:05	363921	5b2aac848580750001aa0b64	4	1	main_z	7	advance_on_keypress_ZEE	88	stimuli_distractor_diamondtriangles.svg	stimuli_distractor_trianglediamonds.svg	38	no	57	0	441	0	0			0	0			1				0	
6.6.1	win	2023-07-14	12:14:57	12:21:07	366338	5b2aac848580750001aa0b64	4	1	main_z	7	main_z	89	stimuli_distractor_trianglediamonds.svg	stimuli_distractor_diamondtriangles.svg	35	no	44	0	1335	0	0			0	0			1				0	
6.6.1	win	2023-07-14	12:14:57	12:21:07	366338	5b2aac848580750001aa0b64	4	1	main_z	7	advance_on_keypress_ZEE	90	stimuli_distractor_trianglediamonds.svg	stimuli_distractor_diamondtriangles.svg	35	no	57	0	273	0	0			0	0			1				0	
6.6.1	win	2023-07-14	12:14:57	12:21:10	369282	5b2aac848580750001aa0b64	4	1	main_z	7	main_z	91	stimuli_distractor_trianglediamonds.svg	stimuli_distractor_trianglediamonds.svg	33	no	0	1	2000	0	0			0	0			1				0	
6.6.1	win	2023-07-14	12:14:57	12:21:10	369282	5b2aac848580750001aa0b64	4	1	main_z	7	advance_on_keypress_ZEE	92	stimuli_distractor_trianglediamonds.svg	stimuli_distractor_trianglediamonds.svg	33	no	57	0	563	0	0			0	0			1				0	
6.6.1	win	2023-07-14	12:14:57	12:21:12	371298	5b2aac848580750001aa0b64	4	1	main_z	7	main_z	93	stimuli_distractor_trianglediamonds.svg	stimuli_target_trianglesquares.svg	26	yes	44	1	795	0	0			0	0			1				0	
6.6.1	win	2023-07-14	12:14:57	12:21:12	371298	5b2aac848580750001aa0b64	4	1	main_z	7	advance_on_keypress_ZEE	94	stimuli_distractor_trianglediamonds.svg	stimuli_target_trianglesquares.svg	26	yes	57	0	210	0	0			0	0			1				0	
6.6.1	win	2023-07-14	12:14:57	12:21:14	373678	5b2aac848580750001aa0b64	4	1	main_z	7	main_z	95	stimuli_distractor_trianglediamonds.svg	stimuli_target_trianglerectangles.svg	25	yes	44	1	1513	0	0			0	0			1				0	
6.6.1	win	2023-07-14	12:14:57	12:21:14	373678	5b2aac848580750001aa0b64	4	1	main_z	7	advance_on_keypress_ZEE	96	stimuli_distractor_trianglediamonds.svg	stimuli_target_trianglerectangles.svg	25	yes	57	0	220	0	0			0	0			1				0	
6.6.1	win	2023-07-14	12:14:57	12:21:16	375618	5b2aac848580750001aa0b64	4	1	main_z	7	main_z	97	stimuli_target_diamondrectangles.svg	stimuli_distractor_diamondtriangles.svg	23	yes	44	1	1082	0	0			0	0			1				0	
6.6.1	win	2023-07-14	12:14:57	12:21:16	375618	5b2aac848580750001aa0b64	4	1	main_z	7	advance_on_keypress_ZEE	98	stimuli_target_diamondrectangles.svg	stimuli_distractor_diamondtriangles.svg	23	yes	57	0	438	0	0			0	0			1				0	
6.6.1	win	2023-07-14	12:14:57	12:21:19	378298	5b2aac848580750001aa0b64	4	1	main_z	7	main_z	99	stimuli_distractor_diamondtriangles.svg	stimuli_target_squarediamonds.svg	16	yes	44	1	1579	0	0			0	0			1				0	
6.6.1	win	2023-07-14	12:14:57	12:21:19	378298	5b2aac848580750001aa0b64	4	1	main_z	7	advance_on_keypress_ZEE	100	stimuli_distractor_diamondtriangles.svg	stimuli_target_squarediamonds.svg	16	yes	57	0	267	0	0			0	0			1				0	
6.6.1	win	2023-07-14	12:14:57	12:21:21	380080	5b2aac848580750001aa0b64	4	1	main_z	7	main_z	101	stimuli_distractor_trianglediamonds.svg	stimuli_target_squaretriangles.svg	11	yes	44	1	854	0	0			0	0			1				0	
6.6.1	win	2023-07-14	12:14:57	12:21:21	380080	5b2aac848580750001aa0b64	4	1	main_z	7	advance_on_keypress_ZEE	102	stimuli_distractor_trianglediamonds.svg	stimuli_target_squaretriangles.svg	11	yes	57	0	219	0	0			0	0			1				0	
6.6.1	win	2023-07-14	12:14:57	12:21:23	381725	5b2aac848580750001aa0b64	4	1	main_z	7	main_z	103	stimuli_target_rectanglediamonds.svg	stimuli_distractor_trianglediamonds.svg	2	yes	44	1	769	0	0			0	0			1				0	
6.6.1	win	2023-07-14	12:14:57	12:21:23	381725	5b2aac848580750001aa0b64	4	1	main_z	7	advance_on_keypress_ZEE	104	stimuli_target_rectanglediamonds.svg	stimuli_distractor_trianglediamonds.svg	2	yes	57	0	202	0	0			0	0			1				0	
6.6.1	win	2023-07-14	12:14:57	12:21:24	383414	5b2aac848580750001aa0b64	4	1	main_z	7	main_z	105	stimuli_distractor_diamondtriangles.svg	stimuli_target_trianglerectangles.svg	29	yes	44	1	841	0	0			0	0			1				0	
6.6.1	win	2023-07-14	12:14:57	12:21:24	383414	5b2aac848580750001aa0b64	4	1	main_z	7	advance_on_keypress_ZEE	106	stimuli_distractor_diamondtriangles.svg	stimuli_target_trianglerectangles.svg	29	yes	57	0	198	0	0			0	0			1				0	
6.6.1	win	2023-07-14	12:14:57	12:21:26	384948	5b2aac848580750001aa0b64	4	1	main_z	7	main_z	107	stimuli_target_squarediamonds.svg	stimuli_distractor_diamondtriangles.svg	8	yes	44	1	676	0	0			0	0			1				0	
6.6.1	win	2023-07-14	12:14:57	12:21:26	384948	5b2aac848580750001aa0b64	4	1	main_z	7	advance_on_keypress_ZEE	108	stimuli_target_squarediamonds.svg	stimuli_distractor_diamondtriangles.svg	8	yes	57	0	201	0	0			0	0			1				0	
6.6.1	win	2023-07-14	12:14:57	12:21:27	386498	5b2aac848580750001aa0b64	4	1	main_z	7	main_z	109	stimuli_distractor_diamondtriangles.svg	stimuli_target_rectanglediamonds.svg	14	yes	44	1	671	0	0			0	0			1				0	
6.6.1	win	2023-07-14	12:14:57	12:21:27	386498	5b2aac848580750001aa0b64	4	1	main_z	7	advance_on_keypress_ZEE	110	stimuli_distractor_diamondtriangles.svg	stimuli_target_rectanglediamonds.svg	14	yes	57	0	203	0	0			0	0			1				0	
6.6.1	win	2023-07-14	12:14:57	12:21:30	389384	5b2aac848580750001aa0b64	4	1	main_z	7	main_z	111	stimuli_distractor_trianglediamonds.svg	stimuli_target_diamondrectangles.svg	27	yes	0	0	2000	0	0			0	0			1				0	
6.6.1	win	2023-07-14	12:14:57	12:21:30	389384	5b2aac848580750001aa0b64	4	1	main_z	7	advance_on_keypress_ZEE	112	stimuli_distractor_trianglediamonds.svg	stimuli_target_diamondrectangles.svg	27	yes	57	0	400	0	0			0	0			1				0	
6.6.1	win	2023-07-14	12:14:57	12:21:32	391025	5b2aac848580750001aa0b64	4	1	main_z	7	main_z	113	stimuli_target_rectangletriangles.svg	stimuli_distractor_diamondtriangles.svg	5	yes	44	1	574	0	0			0	0			1				0	
6.6.1	win	2023-07-14	12:14:57	12:21:32	391025	5b2aac848580750001aa0b64	4	1	main_z	7	advance_on_keypress_ZEE	114	stimuli_target_rectangletriangles.svg	stimuli_distractor_diamondtriangles.svg	5	yes	57	0	182	0	0			0	0			1				0	
6.6.1	win	2023-07-14	12:14:57	12:21:33	392624	5b2aac848580750001aa0b64	4	1	main_z	7	main_z	115	stimuli_distractor_diamondtriangles.svg	stimuli_target_diamondsquares.svg	32	yes	44	1	758	0	0			0	0			1				0	
6.6.1	win	2023-07-14	12:14:57	12:21:33	392624	5b2aac848580750001aa0b64	4	1	main_z	7	advance_on_keypress_ZEE	116	stimuli_distractor_diamondtriangles.svg	stimuli_target_diamondsquares.svg	32	yes	57	0	206	0	0			0	0			1				0	
6.6.1	win	2023-07-14	12:14:57	12:21:35	394146	5b2aac848580750001aa0b64	4	1	main_z	7	main_z	117	stimuli_target_trianglerectangles.svg	stimuli_distractor_diamondtriangles.svg	21	yes	44	1	677	0	0			0	0			1				0	
6.6.1	win	2023-07-14	12:14:57	12:21:35	394146	5b2aac848580750001aa0b64	4	1	main_z	7	advance_on_keypress_ZEE	118	stimuli_target_trianglerectangles.svg	stimuli_distractor_diamondtriangles.svg	21	yes	57	0	217	0	0			0	0			1				0	
6.6.1	win	2023-07-14	12:14:57	12:21:37	395759	5b2aac848580750001aa0b64	4	1	main_z	7	main_z	119	stimuli_target_rectanglediamonds.svg	stimuli_distractor_diamondtriangles.svg	6	yes	44	1	727	0	0			0	0			1				0	
6.6.1	win	2023-07-14	12:14:57	12:21:37	395759	5b2aac848580750001aa0b64	4	1	main_z	7	advance_on_keypress_ZEE	120	stimuli_target_rectanglediamonds.svg	stimuli_distractor_diamondtriangles.svg	6	yes	57	0	537	0	0			0	0			1				0	
6.6.1	win	2023-07-14	12:14:57	12:21:38	397530	5b2aac848580750001aa0b64	4	1	main_z	7	main_z	121	stimuli_distractor_diamondtriangles.svg	stimuli_target_rectangletriangles.svg	13	yes	44	1	594	0	0			0	0			1				0	
6.6.1	win	2023-07-14	12:14:57	12:21:38	397530	5b2aac848580750001aa0b64	4	1	main_z	7	advance_on_keypress_ZEE	122	stimuli_distractor_diamondtriangles.svg	stimuli_target_rectangletriangles.svg	13	yes	57	0	226	0	0			0	0			1				0	
6.6.1	win	2023-07-14	12:14:57	12:21:40	399012	5b2aac848580750001aa0b64	4	1	main_z	7	main_z	123	stimuli_distractor_trianglediamonds.svg	stimuli_target_squarediamonds.svg	12	yes	44	1	591	0	0			0	0			1				0	
6.6.1	win	2023-07-14	12:14:57	12:21:40	399012	5b2aac848580750001aa0b64	4	1	main_z	7	advance_on_keypress_ZEE	124	stimuli_distractor_trianglediamonds.svg	stimuli_target_squarediamonds.svg	12	yes	57	0	191	0	0			0	0			1				0	
6.6.1	win	2023-07-14	12:14:57	12:21:41	400409	5b2aac848580750001aa0b64	4	1	main_z	7	main_z	125	stimuli_target_squarediamonds.svg	stimuli_distractor_trianglediamonds.svg	4	yes	44	1	533	0	0			0	0			1				0	
6.6.1	win	2023-07-14	12:14:57	12:21:41	400409	5b2aac848580750001aa0b64	4	1	main_z	7	advance_on_keypress_ZEE	126	stimuli_target_squarediamonds.svg	stimuli_distractor_trianglediamonds.svg	4	yes	57	0	207	0	0			0	0			1				0	
6.6.1	win	2023-07-14	12:14:57	12:21:43	402508	5b2aac848580750001aa0b64	4	1	main_z	7	main_z	127	stimuli_target_diamondrectangles.svg	stimuli_distractor_trianglediamonds.svg	19	yes	44	1	1254	0	0			0	0			1				0	
6.6.1	win	2023-07-14	12:14:57	12:21:43	402508	5b2aac848580750001aa0b64	4	1	main_z	7	advance_on_keypress_ZEE	128	stimuli_target_diamondrectangles.svg	stimuli_distractor_trianglediamonds.svg	19	yes	57	0	211	0	0			0	0			1				0	
6.6.1	win	2023-07-14	12:14:57	12:21:46	405378	5b2aac848580750001aa0b64	4	1	main_z	7	main_z	129	stimuli_distractor_trianglediamonds.svg	stimuli_distractor_diamondtriangles.svg	36	no	0	1	2000	0	0			0	0			1				0	
6.6.1	win	2023-07-14	12:14:57	12:21:46	405378	5b2aac848580750001aa0b64	4	1	main_z	7	advance_on_keypress_ZEE	130	stimuli_distractor_trianglediamonds.svg	stimuli_distractor_diamondtriangles.svg	36	no	57	0	377	0	0			0	0			1				0	
6.6.1	win	2023-07-14	12:14:57	12:21:48	406996	5b2aac848580750001aa0b64	4	1	main_z	7	main_z	131	stimuli_distractor_diamondtriangles.svg	stimuli_target_squaretriangles.svg	15	yes	44	1	584	0	0			0	0			1				0	
6.6.1	win	2023-07-14	12:14:57	12:21:48	406996	5b2aac848580750001aa0b64	4	1	main_z	7	advance_on_keypress_ZEE	132	stimuli_distractor_diamondtriangles.svg	stimuli_target_squaretriangles.svg	15	yes	57	0	176	0	0			0	0			1				0	
6.6.1	win	2023-07-14	12:14:57	12:21:51	409851	5b2aac848580750001aa0b64	4	1	main_z	7	main_z	133	stimuli_distractor_trianglediamonds.svg	stimuli_distractor_trianglediamonds.svg	34	no	0	1	2000	0	0			0	0			1				0	
6.6.1	win	2023-07-14	12:14:57	12:21:51	409851	5b2aac848580750001aa0b64	4	1	main_z	7	advance_on_keypress_ZEE	134	stimuli_distractor_trianglediamonds.svg	stimuli_distractor_trianglediamonds.svg	34	no	57	0	406	0	0			0	0			1				0	
6.6.1	win	2023-07-14	12:14:57	12:21:52	411545	5b2aac848580750001aa0b64	4	1	main_z	7	main_z	135	stimuli_distractor_diamondtriangles.svg	stimuli_target_diamondrectangles.svg	31	yes	44	1	628	0	0			0	0			1				0	
6.6.1	win	2023-07-14	12:14:57	12:21:52	411545	5b2aac848580750001aa0b64	4	1	main_z	7	advance_on_keypress_ZEE	136	stimuli_distractor_diamondtriangles.svg	stimuli_target_diamondrectangles.svg	31	yes	57	0	162	0	0			0	0			1				0	
6.6.1	win	2023-07-14	12:14:57	12:21:54	413014	5b2aac848580750001aa0b64	4	1	main_z	7	main_z	137	stimuli_distractor_diamondtriangles.svg	stimuli_target_trianglesquares.svg	30	yes	44	1	634	0	0			0	0			1				0	
6.6.1	win	2023-07-14	12:14:57	12:21:54	413014	5b2aac848580750001aa0b64	4	1	main_z	7	advance_on_keypress_ZEE	138	stimuli_distractor_diamondtriangles.svg	stimuli_target_trianglesquares.svg	30	yes	57	0	159	0	0			0	0			1				0	
6.6.1	win	2023-07-14	12:14:57	12:21:55	414350	5b2aac848580750001aa0b64	4	1	main_z	7	main_z	139	stimuli_distractor_trianglediamonds.svg	stimuli_target_rectanglediamonds.svg	10	yes	44	1	503	0	0			0	0			1				0	
6.6.1	win	2023-07-14	12:14:57	12:21:55	414350	5b2aac848580750001aa0b64	4	1	main_z	7	advance_on_keypress_ZEE	140	stimuli_distractor_trianglediamonds.svg	stimuli_target_rectanglediamonds.svg	10	yes	57	0	170	0	0			0	0			1				0	
6.6.1	win	2023-07-14	12:14:57	12:21:58	417080	5b2aac848580750001aa0b64	4	1	main_z	7	main_z	141	stimuli_distractor_diamondtriangles.svg	stimuli_distractor_diamondtriangles.svg	39	no	44	0	1888	0	0			0	0			1				0	
6.6.1	win	2023-07-14	12:14:57	12:21:58	417080	5b2aac848580750001aa0b64	4	1	main_z	7	advance_on_keypress_ZEE	142	stimuli_distractor_diamondtriangles.svg	stimuli_distractor_diamondtriangles.svg	39	no	57	0	165	0	0			0	0			1				0	
6.6.1	win	2023-07-14	12:14:57	12:21:59	418532	5b2aac848580750001aa0b64	4	1	main_z	7	main_z	143	stimuli_target_diamondsquares.svg	stimuli_distractor_diamondtriangles.svg	24	yes	44	1	620	0	0			0	0			1				0	
6.6.1	win	2023-07-14	12:14:57	12:21:59	418532	5b2aac848580750001aa0b64	4	1	main_z	7	advance_on_keypress_ZEE	144	stimuli_target_diamondsquares.svg	stimuli_distractor_diamondtriangles.svg	24	yes	57	0	163	0	0			0	0			1				0	
6.6.1	win	2023-07-14	12:14:57	12:22:01	420114	5b2aac848580750001aa0b64	4	1	main_z	7	main_z	145	stimuli_target_trianglesquares.svg	stimuli_distractor_trianglediamonds.svg	18	yes	44	1	763	0	0			0	0			1				0	
6.6.1	win	2023-07-14	12:14:57	12:22:01	420114	5b2aac848580750001aa0b64	4	1	main_z	7	advance_on_keypress_ZEE	146	stimuli_target_trianglesquares.svg	stimuli_distractor_trianglediamonds.svg	18	yes	57	0	195	0	0			0	0			1				0	
6.6.1	win	2023-07-14	12:14:57	12:22:04	422984	5b2aac848580750001aa0b64	4	1	main_z	7	main_z	147	stimuli_distractor_diamondtriangles.svg	stimuli_distractor_diamondtriangles.svg	40	no	0	1	2000	0	0			0	0			1				0	
6.6.1	win	2023-07-14	12:14:57	12:22:04	422984	5b2aac848580750001aa0b64	4	1	main_z	7	advance_on_keypress_ZEE	148	stimuli_distractor_diamondtriangles.svg	stimuli_distractor_diamondtriangles.svg	40	no	57	0	425	0	0			0	0			1				0	
6.6.1	win	2023-07-14	12:14:57	12:22:05	424677	5b2aac848580750001aa0b64	4	1	main_z	7	main_z	149	stimuli_target_squaretriangles.svg	stimuli_distractor_trianglediamonds.svg	3	yes	44	1	623	0	0			0	0			1				0	
6.6.1	win	2023-07-14	12:14:57	12:22:05	424677	5b2aac848580750001aa0b64	4	1	main_z	7	advance_on_keypress_ZEE	150	stimuli_target_squaretriangles.svg	stimuli_distractor_trianglediamonds.svg	3	yes	57	0	182	0	0			0	0			1				0	
6.6.1	win	2023-07-14	12:14:57	12:22:07	426305	5b2aac848580750001aa0b64	4	1	main_z	7	main_z	151	stimuli_distractor_diamondtriangles.svg	stimuli_distractor_trianglediamonds.svg	37	no	44	0	787	0	0			0	0			1				0	
6.6.1	win	2023-07-14	12:14:57	12:22:07	426305	5b2aac848580750001aa0b64	4	1	main_z	7	advance_on_keypress_ZEE	152	stimuli_distractor_diamondtriangles.svg	stimuli_distractor_trianglediamonds.svg	37	no	57	0	180	0	0			0	0			1				0	
6.6.1	win	2023-07-14	12:14:57	12:22:09	428274	5b2aac848580750001aa0b64	4	1	main_z	7	main_z	153	stimuli_target_diamondsquares.svg	stimuli_distractor_trianglediamonds.svg	20	yes	44	1	1140	0	0			0	0			1				0	
6.6.1	win	2023-07-14	12:14:57	12:22:09	428274	5b2aac848580750001aa0b64	4	1	main_z	7	advance_on_keypress_ZEE	154	stimuli_target_diamondsquares.svg	stimuli_distractor_trianglediamonds.svg	20	yes	57	0	190	0	0			0	0			1				0	
6.6.1	win	2023-07-14	12:14:57	12:22:11	430449	5b2aac848580750001aa0b64	4	1	main_z	7	main_z	155	stimuli_target_squaretriangles.svg	stimuli_distractor_diamondtriangles.svg	7	yes	44	1	1316	0	0			0	0			1				0	
6.6.1	win	2023-07-14	12:14:57	12:22:11	430449	5b2aac848580750001aa0b64	4	1	main_z	7	advance_on_keypress_ZEE	156	stimuli_target_squaretriangles.svg	stimuli_distractor_diamondtriangles.svg	7	yes	57	0	134	0	0			0	0			1				0	
6.6.1	win	2023-07-14	12:14:57	12:22:13	431887	5b2aac848580750001aa0b64	4	1	main_z	7	main_z	157	stimuli_target_rectangletriangles.svg	stimuli_distractor_trianglediamonds.svg	1	yes	44	1	640	0	0			0	0			1				0	
6.6.1	win	2023-07-14	12:14:57	12:22:13	431887	5b2aac848580750001aa0b64	4	1	main_z	7	advance_on_keypress_ZEE	158	stimuli_target_rectangletriangles.svg	stimuli_distractor_trianglediamonds.svg	1	yes	57	0	189	0	0			0	0			1				0	
6.6.1	win	2023-07-14	12:14:57	12:22:15	434052	5b2aac848580750001aa0b64	4	1	main_z	7	main_z	159	stimuli_distractor_trianglediamonds.svg	stimuli_target_diamondsquares.svg	28	yes	44	1	1316	0	0			0	0			1				0	
6.6.1	win	2023-07-14	12:14:57	12:22:15	434052	5b2aac848580750001aa0b64	4	1	main_z	7	advance_on_keypress_ZEE	160	stimuli_distractor_trianglediamonds.svg	stimuli_target_diamondsquares.svg	28	yes	57	0	263	0	0			0	0			1				0	
6.6.1	win	2023-07-14	12:14:57	12:22:47	466612	5b2aac848580750001aa0b64	4	1	practice_slash	9	practice_slash	1	stimuli_distractor_trianglediamonds.svg	stimuli_target_rectanglediamonds.svg	10	yes	53	1	594	0	0			0	0			1				0	
6.6.1	win	2023-07-14	12:14:57	12:22:47	466612	5b2aac848580750001aa0b64	4	1	practice_slash	9	advance_on_keypress_SLASH	2	stimuli_distractor_trianglediamonds.svg	stimuli_target_rectanglediamonds.svg	10	yes	57	0	561	0	0			0	0			1				0	
6.6.1	win	2023-07-14	12:14:57	12:22:50	469363	5b2aac848580750001aa0b64	4	1	practice_slash	9	practice_slash	3	stimuli_target_squarediamonds.svg	stimuli_distractor_diamondtriangles.svg	2	yes	53	1	546	0	0			0	0			1				0	
6.6.1	win	2023-07-14	12:14:57	12:22:50	469363	5b2aac848580750001aa0b64	4	1	practice_slash	9	advance_on_keypress_SLASH	4	stimuli_target_squarediamonds.svg	stimuli_distractor_diamondtriangles.svg	2	yes	57	0	435	0	0			0	0			1				0	
6.6.1	win	2023-07-14	12:14:57	12:22:53	472039	5b2aac848580750001aa0b64	4	1	practice_slash	9	practice_slash	5	stimuli_target_squarediamonds.svg	stimuli_distractor_trianglediamonds.svg	5	yes	53	1	552	0	0			0	0			1				0	
6.6.1	win	2023-07-14	12:14:57	12:22:53	472039	5b2aac848580750001aa0b64	4	1	practice_slash	9	advance_on_keypress_SLASH	6	stimuli_target_squarediamonds.svg	stimuli_distractor_trianglediamonds.svg	5	yes	57	0	385	0	0			0	0			1				0	
6.6.1	win	2023-07-14	12:14:57	12:22:55	474651	5b2aac848580750001aa0b64	4	1	practice_slash	9	practice_slash	7	stimuli_target_rectanglediamonds.svg	stimuli_distractor_diamondtriangles.svg	1	yes	53	1	543	0	0			0	0			1				0	
6.6.1	win	2023-07-14	12:14:57	12:22:55	474651	5b2aac848580750001aa0b64	4	1	practice_slash	9	advance_on_keypress_SLASH	8	stimuli_target_rectanglediamonds.svg	stimuli_distractor_diamondtriangles.svg	1	yes	57	0	400	0	0			0	0			1				0	
6.6.1	win	2023-07-14	12:14:57	12:23:00	478701	5b2aac848580750001aa0b64	4	1	practice_slash	9	practice_slash	9	stimuli_distractor_trianglediamonds.svg	stimuli_distractor_trianglediamonds.svg	15	no	0	1	2000	0	0			0	0			1				0	
6.6.1	win	2023-07-14	12:14:57	12:23:00	478701	5b2aac848580750001aa0b64	4	1	practice_slash	9	advance_on_keypress_SLASH	10	stimuli_distractor_trianglediamonds.svg	stimuli_distractor_trianglediamonds.svg	15	no	57	0	462	0	0			0	0			1				0	
6.6.1	win	2023-07-14	12:14:57	12:23:02	481515	5b2aac848580750001aa0b64	4	1	practice_slash	9	practice_slash	11	stimuli_distractor_trianglediamonds.svg	stimuli_target_diamondrectangles.svg	12	yes	53	1	674	0	0			0	0			1				0	
6.6.1	win	2023-07-14	12:14:57	12:23:02	481515	5b2aac848580750001aa0b64	4	1	practice_slash	9	advance_on_keypress_SLASH	12	stimuli_distractor_trianglediamonds.svg	stimuli_target_diamondrectangles.svg	12	yes	57	0	422	0	0			0	0			1				0	
6.6.1	win	2023-07-14	12:14:57	12:23:05	484138	5b2aac848580750001aa0b64	4	1	practice_slash	9	practice_slash	13	stimuli_distractor_diamondtriangles.svg	stimuli_target_rectangletriangles.svg	7	yes	53	1	531	0	0			0	0			1				0	
6.6.1	win	2023-07-14	12:14:57	12:23:05	484138	5b2aac848580750001aa0b64	4	1	practice_slash	9	advance_on_keypress_SLASH	14	stimuli_distractor_diamondtriangles.svg	stimuli_target_rectangletriangles.svg	7	yes	57	0	429	0	0			0	0			1				0	
6.6.1	win	2023-07-14	12:14:57	12:23:09	488219	5b2aac848580750001aa0b64	4	1	practice_slash	9	practice_slash	15	stimuli_distractor_diamondtriangles.svg	stimuli_distractor_diamondtriangles.svg	13	no	0	1	2000	0	0			0	0			1				0	
6.6.1	win	2023-07-14	12:14:57	12:23:09	488219	5b2aac848580750001aa0b64	4	1	practice_slash	9	advance_on_keypress_SLASH	16	stimuli_distractor_diamondtriangles.svg	stimuli_distractor_diamondtriangles.svg	13	no	57	0	410	0	0			0	0			1				0	
6.6.1	win	2023-07-14	12:14:57	12:23:12	490905	5b2aac848580750001aa0b64	4	1	practice_slash	9	practice_slash	17	stimuli_target_rectanglediamonds.svg	stimuli_distractor_trianglediamonds.svg	4	yes	53	1	600	0	0			0	0			1				0	
6.6.1	win	2023-07-14	12:14:57	12:23:12	490905	5b2aac848580750001aa0b64	4	1	practice_slash	9	advance_on_keypress_SLASH	18	stimuli_target_rectanglediamonds.svg	stimuli_distractor_trianglediamonds.svg	4	yes	57	0	383	0	0			0	0			1				0	
6.6.1	win	2023-07-14	12:14:57	12:23:15	494227	5b2aac848580750001aa0b64	4	1	practice_slash	9	practice_slash	19	stimuli_distractor_trianglediamonds.svg	stimuli_distractor_diamondtriangles.svg	16	no	53	0	1270	0	0			0	0			1				0	
6.6.1	win	2023-07-14	12:14:57	12:23:15	494227	5b2aac848580750001aa0b64	4	1	practice_slash	9	advance_on_keypress_SLASH	20	stimuli_distractor_trianglediamonds.svg	stimuli_distractor_diamondtriangles.svg	16	no	57	0	464	0	0			0	0			1				0	
6.6.1	win	2023-07-14	12:14:57	12:23:18	497257	5b2aac848580750001aa0b64	4	1	practice_slash	9	practice_slash	21	stimuli_target_diamondsquares.svg	stimuli_distractor_trianglediamonds.svg	6	yes	53	1	869	0	0			0	0			1				0	
6.6.1	win	2023-07-14	12:14:57	12:23:18	497257	5b2aac848580750001aa0b64	4	1	practice_slash	9	advance_on_keypress_SLASH	22	stimuli_target_diamondsquares.svg	stimuli_distractor_trianglediamonds.svg	6	yes	57	0	345	0	0			0	0			1				0	
6.6.1	win	2023-07-14	12:14:57	12:23:21	499883	5b2aac848580750001aa0b64	4	1	practice_slash	9	practice_slash	23	stimuli_target_diamondsquares.svg	stimuli_distractor_diamondtriangles.svg	3	yes	53	1	634	0	0			0	0			1				0	
6.6.1	win	2023-07-14	12:14:57	12:23:21	499883	5b2aac848580750001aa0b64	4	1	practice_slash	9	advance_on_keypress_SLASH	24	stimuli_target_diamondsquares.svg	stimuli_distractor_diamondtriangles.svg	3	yes	57	0	384	0	0			0	0			1				0	
6.6.1	win	2023-07-14	12:14:57	12:23:24	503272	5b2aac848580750001aa0b64	4	1	practice_slash	9	practice_slash	25	stimuli_distractor_diamondtriangles.svg	stimuli_distractor_trianglediamonds.svg	14	no	53	0	1318	0	0			0	0			1				0	
6.6.1	win	2023-07-14	12:14:57	12:23:24	503272	5b2aac848580750001aa0b64	4	1	practice_slash	9	advance_on_keypress_SLASH	26	stimuli_distractor_diamondtriangles.svg	stimuli_distractor_trianglediamonds.svg	14	no	57	0	416	0	0			0	0			1				0	
6.6.1	win	2023-07-14	12:14:57	12:23:27	506356	5b2aac848580750001aa0b64	4	1	practice_slash	9	practice_slash	27	stimuli_distractor_diamondtriangles.svg	stimuli_target_trianglerectangles.svg	9	yes	53	1	998	0	0			0	0			1				0	
6.6.1	win	2023-07-14	12:14:57	12:23:27	506356	5b2aac848580750001aa0b64	4	1	practice_slash	9	advance_on_keypress_SLASH	28	stimuli_distractor_diamondtriangles.svg	stimuli_target_trianglerectangles.svg	9	yes	57	0	405	0	0			0	0			1				0	
6.6.1	win	2023-07-14	12:14:57	12:23:30	508899	5b2aac848580750001aa0b64	4	1	practice_slash	9	practice_slash	29	stimuli_distractor_trianglediamonds.svg	stimuli_target_squarediamonds.svg	11	yes	53	1	483	0	0			0	0			1				0	
6.6.1	win	2023-07-14	12:14:57	12:23:30	508899	5b2aac848580750001aa0b64	4	1	practice_slash	9	advance_on_keypress_SLASH	30	stimuli_distractor_trianglediamonds.svg	stimuli_target_squarediamonds.svg	11	yes	57	0	271	0	0			0	0			1				0	
6.6.1	win	2023-07-14	12:14:57	12:23:32	511388	5b2aac848580750001aa0b64	4	1	practice_slash	9	practice_slash	31	stimuli_distractor_diamondtriangles.svg	stimuli_target_diamondrectangles.svg	8	yes	53	1	530	0	0			0	0			1				0	
6.6.1	win	2023-07-14	12:14:57	12:23:32	511388	5b2aac848580750001aa0b64	4	1	practice_slash	9	advance_on_keypress_SLASH	32	stimuli_distractor_diamondtriangles.svg	stimuli_target_diamondrectangles.svg	8	yes	57	0	419	0	0			0	0			1				0	
6.6.1	win	2023-07-14	12:14:57	12:23:37	516650	5b2aac848580750001aa0b64	4	1	main_slash	11	main_slash	1	stimuli_target_rectangletriangles.svg	stimuli_distractor_trianglediamonds.svg	1	yes	53	1	493	0	0			0	0			1				0	
6.6.1	win	2023-07-14	12:14:57	12:23:37	516650	5b2aac848580750001aa0b64	4	1	main_slash	11	advance_on_keypress_SLASH	2	stimuli_target_rectangletriangles.svg	stimuli_distractor_trianglediamonds.svg	1	yes	57	0	770	0	0			0	0			1				0	
6.6.1	win	2023-07-14	12:14:57	12:23:40	519561	5b2aac848580750001aa0b64	4	1	main_slash	11	main_slash	3	stimuli_distractor_diamondtriangles.svg	stimuli_distractor_trianglediamonds.svg	38	no	53	0	1497	0	0			0	0			1				0	
6.6.1	win	2023-07-14	12:14:57	12:23:40	519561	5b2aac848580750001aa0b64	4	1	main_slash	11	advance_on_keypress_SLASH	4	stimuli_distractor_diamondtriangles.svg	stimuli_distractor_trianglediamonds.svg	38	no	57	0	380	0	0			0	0			1				0	
6.6.1	win	2023-07-14	12:14:57	12:23:42	521153	5b2aac848580750001aa0b64	4	1	main_slash	11	main_slash	5	stimuli_distractor_trianglediamonds.svg	stimuli_target_rectanglediamonds.svg	10	yes	53	1	556	0	0			0	0			1				0	
6.6.1	win	2023-07-14	12:14:57	12:23:42	521153	5b2aac848580750001aa0b64	4	1	main_slash	11	advance_on_keypress_SLASH	6	stimuli_distractor_trianglediamonds.svg	stimuli_target_rectanglediamonds.svg	10	yes	57	0	469	0	0			0	0			1				0	
6.6.1	win	2023-07-14	12:14:57	12:23:44	522927	5b2aac848580750001aa0b64	4	1	main_slash	11	main_slash	7	stimuli_target_diamondrectangles.svg	stimuli_distractor_diamondtriangles.svg	23	yes	53	1	657	0	0			0	0			1				0	
6.6.1	win	2023-07-14	12:14:57	12:23:44	522927	5b2aac848580750001aa0b64	4	1	main_slash	11	advance_on_keypress_SLASH	8	stimuli_target_diamondrectangles.svg	stimuli_distractor_diamondtriangles.svg	23	yes	57	0	423	0	0			0	0			1				0	
6.6.1	win	2023-07-14	12:14:57	12:23:45	524615	5b2aac848580750001aa0b64	4	1	main_slash	11	main_slash	9	stimuli_target_squarediamonds.svg	stimuli_distractor_trianglediamonds.svg	4	yes	53	1	588	0	0			0	0			1				0	
6.6.1	win	2023-07-14	12:14:57	12:23:45	524615	5b2aac848580750001aa0b64	4	1	main_slash	11	advance_on_keypress_SLASH	10	stimuli_target_squarediamonds.svg	stimuli_distractor_trianglediamonds.svg	4	yes	57	0	434	0	0			0	0			1				0	
6.6.1	win	2023-07-14	12:14:57	12:23:47	526165	5b2aac848580750001aa0b64	4	1	main_slash	11	main_slash	11	stimuli_target_rectanglediamonds.svg	stimuli_distractor_trianglediamonds.svg	2	yes	53	1	464	0	0			0	0			1				0	
6.6.1	win	2023-07-14	12:14:57	12:23:47	526165	5b2aac848580750001aa0b64	4	1	main_slash	11	advance_on_keypress_SLASH	12	stimuli_target_rectanglediamonds.svg	stimuli_distractor_trianglediamonds.svg	2	yes	57	0	452	0	0			0	0			1				0	
6.6.1	win	2023-07-14	12:14:57	12:23:50	529265	5b2aac848580750001aa0b64	4	1	main_slash	11	main_slash	13	stimuli_distractor_diamondtriangles.svg	stimuli_distractor_diamondtriangles.svg	40	no	0	1	2000	0	0			0	0			1				0	
6.6.1	win	2023-07-14	12:14:57	12:23:50	529265	5b2aac848580750001aa0b64	4	1	main_slash	11	advance_on_keypress_SLASH	14	stimuli_distractor_diamondtriangles.svg	stimuli_distractor_diamondtriangles.svg	40	no	57	0	393	0	0			0	0			1				0	
6.6.1	win	2023-07-14	12:14:57	12:23:52	530732	5b2aac848580750001aa0b64	4	1	main_slash	11	main_slash	15	stimuli_distractor_diamondtriangles.svg	stimuli_target_squarediamonds.svg	16	yes	53	1	433	0	0			0	0			1				0	
6.6.1	win	2023-07-14	12:14:57	12:23:52	530732	5b2aac848580750001aa0b64	4	1	main_slash	11	advance_on_keypress_SLASH	16	stimuli_distractor_diamondtriangles.svg	stimuli_target_squarediamonds.svg	16	yes	57	0	318	0	0			0	0			1				0	
6.6.1	win	2023-07-14	12:14:57	12:23:53	532461	5b2aac848580750001aa0b64	4	1	main_slash	11	main_slash	17	stimuli_distractor_trianglediamonds.svg	stimuli_target_diamondsquares.svg	28	yes	53	1	743	0	0			0	0			1				0	
6.6.1	win	2023-07-14	12:14:57	12:23:53	532461	5b2aac848580750001aa0b64	4	1	main_slash	11	advance_on_keypress_SLASH	18	stimuli_distractor_trianglediamonds.svg	stimuli_target_diamondsquares.svg	28	yes	57	0	377	0	0			0	0			1				0	
6.6.1	win	2023-07-14	12:14:57	12:23:56	535484	5b2aac848580750001aa0b64	4	1	main_slash	11	main_slash	19	stimuli_distractor_trianglediamonds.svg	stimuli_distractor_trianglediamonds.svg	33	no	0	1	2000	0	0			0	0			1				0	
6.6.1	win	2023-07-14	12:14:57	12:23:56	535484	5b2aac848580750001aa0b64	4	1	main_slash	11	advance_on_keypress_SLASH	20	stimuli_distractor_trianglediamonds.svg	stimuli_distractor_trianglediamonds.svg	33	no	57	0	313	0	0			0	0			1				0	
6.6.1	win	2023-07-14	12:14:57	12:23:58	537009	5b2aac848580750001aa0b64	4	1	main_slash	11	main_slash	21	stimuli_target_diamondsquares.svg	stimuli_distractor_diamondtriangles.svg	24	yes	53	1	563	0	0			0	0			1				0	
6.6.1	win	2023-07-14	12:14:57	12:23:58	537009	5b2aac848580750001aa0b64	4	1	main_slash	11	advance_on_keypress_SLASH	22	stimuli_target_diamondsquares.svg	stimuli_distractor_diamondtriangles.svg	24	yes	57	0	348	0	0			0	0			1				0	
6.6.1	win	2023-07-14	12:14:57	12:23:59	538661	5b2aac848580750001aa0b64	4	1	main_slash	11	main_slash	23	stimuli_target_trianglesquares.svg	stimuli_distractor_trianglediamonds.svg	18	yes	53	1	644	0	0			0	0			1				0	
6.6.1	win	2023-07-14	12:14:57	12:23:59	538661	5b2aac848580750001aa0b64	4	1	main_slash	11	advance_on_keypress_SLASH	24	stimuli_target_trianglesquares.svg	stimuli_distractor_trianglediamonds.svg	18	yes	57	0	458	0	0			0	0			1				0	
6.6.1	win	2023-07-14	12:14:57	12:24:02	541196	5b2aac848580750001aa0b64	4	1	main_slash	11	main_slash	25	stimuli_target_squaretriangles.svg	stimuli_distractor_trianglediamonds.svg	3	yes	53	1	1406	0	0			0	0			1				0	
6.6.1	win	2023-07-14	12:14:57	12:24:02	541196	5b2aac848580750001aa0b64	4	1	main_slash	11	advance_on_keypress_SLASH	26	stimuli_target_squaretriangles.svg	stimuli_distractor_trianglediamonds.svg	3	yes	57	0	372	0	0			0	0			1				0	
6.6.1	win	2023-07-14	12:14:57	12:24:04	543329	5b2aac848580750001aa0b64	4	1	main_slash	11	main_slash	27	stimuli_distractor_diamondtriangles.svg	stimuli_target_rectangletriangles.svg	13	yes	53	1	1116	0	0			0	0			1				0	
6.6.1	win	2023-07-14	12:14:57	12:24:04	543329	5b2aac848580750001aa0b64	4	1	main_slash	11	advance_on_keypress_SLASH	28	stimuli_distractor_diamondtriangles.svg	stimuli_target_rectangletriangles.svg	13	yes	57	0	390	0	0			0	0			1				0	
6.6.1	win	2023-07-14	12:14:57	12:24:06	545592	5b2aac848580750001aa0b64	4	1	main_slash	11	main_slash	29	stimuli_distractor_trianglediamonds.svg	stimuli_target_trianglesquares.svg	26	yes	53	1	1206	0	0			0	0			1				0	
6.6.1	win	2023-07-14	12:14:57	12:24:06	545592	5b2aac848580750001aa0b64	4	1	main_slash	11	advance_on_keypress_SLASH	30	stimuli_distractor_trianglediamonds.svg	stimuli_target_trianglesquares.svg	26	yes	57	0	340	0	0			0	0			1				0	
6.6.1	win	2023-07-14	12:14:57	12:24:09	548581	5b2aac848580750001aa0b64	4	1	main_slash	11	main_slash	31	stimuli_distractor_diamondtriangles.svg	stimuli_target_trianglerectangles.svg	29	yes	0	0	2000	0	0			0	0			1				0	
6.6.1	win	2023-07-14	12:14:57	12:24:09	548581	5b2aac848580750001aa0b64	4	1	main_slash	11	advance_on_keypress_SLASH	32	stimuli_distractor_diamondtriangles.svg	stimuli_target_trianglerectangles.svg	29	yes	57	0	421	0	0			0	0			1				0	
6.6.1	win	2023-07-14	12:14:57	12:24:12	551654	5b2aac848580750001aa0b64	4	1	main_slash	11	main_slash	33	stimuli_distractor_trianglediamonds.svg	stimuli_distractor_trianglediamonds.svg	34	no	0	1	2000	0	0			0	0			1				0	
6.6.1	win	2023-07-14	12:14:57	12:24:12	551654	5b2aac848580750001aa0b64	4	1	main_slash	11	advance_on_keypress_SLASH	34	stimuli_distractor_trianglediamonds.svg	stimuli_distractor_trianglediamonds.svg	34	no	57	0	371	0	0			0	0			1				0	
6.6.1	win	2023-07-14	12:14:57	12:24:14	553298	5b2aac848580750001aa0b64	4	1	main_slash	11	main_slash	35	stimuli_distractor_trianglediamonds.svg	stimuli_target_diamondrectangles.svg	27	yes	53	1	617	0	0			0	0			1				0	
6.6.1	win	2023-07-14	12:14:57	12:24:14	553298	5b2aac848580750001aa0b64	4	1	main_slash	11	advance_on_keypress_SLASH	36	stimuli_distractor_trianglediamonds.svg	stimuli_target_diamondrectangles.svg	27	yes	57	0	401	0	0			0	0			1				0	
6.6.1	win	2023-07-14	12:14:57	12:24:16	555030	5b2aac848580750001aa0b64	4	1	main_slash	11	main_slash	37	stimuli_target_trianglerectangles.svg	stimuli_distractor_diamondtriangles.svg	21	yes	53	1	663	0	0			0	0			1				0	
6.6.1	win	2023-07-14	12:14:57	12:24:16	555030	5b2aac848580750001aa0b64	4	1	main_slash	11	advance_on_keypress_SLASH	38	stimuli_target_trianglerectangles.svg	stimuli_distractor_diamondtriangles.svg	21	yes	57	0	355	0	0			0	0			1				0	
6.6.1	win	2023-07-14	12:14:57	12:24:18	557414	5b2aac848580750001aa0b64	4	1	main_slash	11	main_slash	39	stimuli_distractor_diamondtriangles.svg	stimuli_target_diamondrectangles.svg	31	yes	53	1	1372	0	0			0	0			1				0	
6.6.1	win	2023-07-14	12:14:57	12:24:18	557414	5b2aac848580750001aa0b64	4	1	main_slash	11	advance_on_keypress_SLASH	40	stimuli_distractor_diamondtriangles.svg	stimuli_target_diamondrectangles.svg	31	yes	57	0	299	0	0			0	0			1				0	
6.6.1	win	2023-07-14	12:14:57	12:24:20	559124	5b2aac848580750001aa0b64	4	1	main_slash	11	main_slash	41	stimuli_target_diamondsquares.svg	stimuli_distractor_trianglediamonds.svg	20	yes	53	1	751	0	0			0	0			1				0	
6.6.1	win	2023-07-14	12:14:57	12:24:20	559124	5b2aac848580750001aa0b64	4	1	main_slash	11	advance_on_keypress_SLASH	42	stimuli_target_diamondsquares.svg	stimuli_distractor_trianglediamonds.svg	20	yes	57	0	344	0	0			0	0			1				0	
6.6.1	win	2023-07-14	12:14:57	12:24:22	560703	5b2aac848580750001aa0b64	4	1	main_slash	11	main_slash	43	stimuli_distractor_diamondtriangles.svg	stimuli_target_trianglesquares.svg	30	yes	53	1	561	0	0			0	0			1				0	
6.6.1	win	2023-07-14	12:14:57	12:24:22	560703	5b2aac848580750001aa0b64	4	1	main_slash	11	advance_on_keypress_SLASH	44	stimuli_distractor_diamondtriangles.svg	stimuli_target_trianglesquares.svg	30	yes	57	0	361	0	0			0	0			1				0	
6.6.1	win	2023-07-14	12:14:57	12:24:24	562741	5b2aac848580750001aa0b64	4	1	main_slash	11	main_slash	45	stimuli_distractor_trianglediamonds.svg	stimuli_target_rectangletriangles.svg	9	yes	53	1	1024	0	0			0	0			1				0	
6.6.1	win	2023-07-14	12:14:57	12:24:24	562741	5b2aac848580750001aa0b64	4	1	main_slash	11	advance_on_keypress_SLASH	46	stimuli_distractor_trianglediamonds.svg	stimuli_target_rectangletriangles.svg	9	yes	57	0	302	0	0			0	0			1				0	
6.6.1	win	2023-07-14	12:14:57	12:24:27	565709	5b2aac848580750001aa0b64	4	1	main_slash	11	main_slash	47	stimuli_distractor_trianglediamonds.svg	stimuli_distractor_diamondtriangles.svg	35	no	0	1	2000	0	0			0	0			1				0	
6.6.1	win	2023-07-14	12:14:57	12:24:27	565709	5b2aac848580750001aa0b64	4	1	main_slash	11	advance_on_keypress_SLASH	48	stimuli_distractor_trianglediamonds.svg	stimuli_distractor_diamondtriangles.svg	35	no	57	0	409	0	0			0	0			1				0	
6.6.1	win	2023-07-14	12:14:57	12:24:28	567525	5b2aac848580750001aa0b64	4	1	main_slash	11	main_slash	49	stimuli_distractor_trianglediamonds.svg	stimuli_target_squaretriangles.svg	11	yes	53	1	735	0	0			0	0			1				0	
6.6.1	win	2023-07-14	12:14:57	12:24:28	567525	5b2aac848580750001aa0b64	4	1	main_slash	11	advance_on_keypress_SLASH	50	stimuli_distractor_trianglediamonds.svg	stimuli_target_squaretriangles.svg	11	yes	57	0	304	0	0			0	0			1				0	
6.6.1	win	2023-07-14	12:14:57	12:24:30	569297	5b2aac848580750001aa0b64	4	1	main_slash	11	main_slash	51	stimuli_target_trianglesquares.svg	stimuli_distractor_diamondtriangles.svg	22	yes	53	1	811	0	0			0	0			1				0	
6.6.1	win	2023-07-14	12:14:57	12:24:30	569297	5b2aac848580750001aa0b64	4	1	main_slash	11	advance_on_keypress_SLASH	52	stimuli_target_trianglesquares.svg	stimuli_distractor_diamondtriangles.svg	22	yes	57	0	314	0	0			0	0			1				0	
6.6.1	win	2023-07-14	12:14:57	12:24:32	570881	5b2aac848580750001aa0b64	4	1	main_slash	11	main_slash	53	stimuli_distractor_diamondtriangles.svg	stimuli_target_squaretriangles.svg	15	yes	53	1	612	0	0			0	0			1				0	
6.6.1	win	2023-07-14	12:14:57	12:24:32	570881	5b2aac848580750001aa0b64	4	1	main_slash	11	advance_on_keypress_SLASH	54	stimuli_distractor_diamondtriangles.svg	stimuli_target_squaretriangles.svg	15	yes	57	0	346	0	0			0	0			1				0	
6.6.1	win	2023-07-14	12:14:57	12:24:34	572930	5b2aac848580750001aa0b64	4	1	main_slash	11	main_slash	55	stimuli_target_trianglerectangles.svg	stimuli_distractor_trianglediamonds.svg	17	yes	53	1	1059	0	0			0	0			1				0	
6.6.1	win	2023-07-14	12:14:57	12:24:34	572930	5b2aac848580750001aa0b64	4	1	main_slash	11	advance_on_keypress_SLASH	56	stimuli_target_trianglerectangles.svg	stimuli_distractor_trianglediamonds.svg	17	yes	57	0	263	0	0			0	0			1				0	
6.6.1	win	2023-07-14	12:14:57	12:24:35	574400	5b2aac848580750001aa0b64	4	1	main_slash	11	main_slash	57	stimuli_distractor_diamondtriangles.svg	stimuli_target_diamondsquares.svg	32	yes	53	1	540	0	0			0	0			1				0	
6.6.1	win	2023-07-14	12:14:57	12:24:35	574400	5b2aac848580750001aa0b64	4	1	main_slash	11	advance_on_keypress_SLASH	58	stimuli_distractor_diamondtriangles.svg	stimuli_target_diamondsquares.svg	32	yes	57	0	309	0	0			0	0			1				0	
6.6.1	win	2023-07-14	12:14:57	12:24:37	576012	5b2aac848580750001aa0b64	4	1	main_slash	11	main_slash	59	stimuli_distractor_diamondtriangles.svg	stimuli_target_rectanglediamonds.svg	14	yes	53	1	639	0	0			0	0			1				0	
6.6.1	win	2023-07-14	12:14:57	12:24:37	576012	5b2aac848580750001aa0b64	4	1	main_slash	11	advance_on_keypress_SLASH	60	stimuli_distractor_diamondtriangles.svg	stimuli_target_rectanglediamonds.svg	14	yes	57	0	445	0	0			0	0			1				0	
6.6.1	win	2023-07-14	12:14:57	12:24:38	577636	5b2aac848580750001aa0b64	4	1	main_slash	11	main_slash	61	stimuli_distractor_trianglediamonds.svg	stimuli_target_squarediamonds.svg	12	yes	53	1	521	0	0			0	0			1				0	
6.6.1	win	2023-07-14	12:14:57	12:24:38	577636	5b2aac848580750001aa0b64	4	1	main_slash	11	advance_on_keypress_SLASH	62	stimuli_distractor_trianglediamonds.svg	stimuli_target_squarediamonds.svg	12	yes	57	0	437	0	0			0	0			1				0	
6.6.1	win	2023-07-14	12:14:57	12:24:42	580730	5b2aac848580750001aa0b64	4	1	main_slash	11	main_slash	63	stimuli_distractor_trianglediamonds.svg	stimuli_distractor_diamondtriangles.svg	36	no	0	1	2000	0	0			0	0			1				0	
6.6.1	win	2023-07-14	12:14:57	12:24:42	580730	5b2aac848580750001aa0b64	4	1	main_slash	11	advance_on_keypress_SLASH	64	stimuli_distractor_trianglediamonds.svg	stimuli_distractor_diamondtriangles.svg	36	no	57	0	624	0	0			0	0			1				0	
6.6.1	win	2023-07-14	12:14:57	12:24:44	583190	5b2aac848580750001aa0b64	4	1	main_slash	11	main_slash	65	stimuli_distractor_trianglediamonds.svg	stimuli_target_trianglerectangles.svg	25	yes	53	1	1165	0	0			0	0			1				0	
6.6.1	win	2023-07-14	12:14:57	12:24:44	583190	5b2aac848580750001aa0b64	4	1	main_slash	11	advance_on_keypress_SLASH	66	stimuli_distractor_trianglediamonds.svg	stimuli_target_trianglerectangles.svg	25	yes	57	0	213	0	0			0	0			1				0	
6.6.1	win	2023-07-14	12:14:57	12:24:45	584598	5b2aac848580750001aa0b64	4	1	main_slash	11	main_slash	67	stimuli_target_squaretriangles.svg	stimuli_distractor_diamondtriangles.svg	7	yes	53	1	541	0	0			0	0			1				0	
6.6.1	win	2023-07-14	12:14:57	12:24:45	584598	5b2aac848580750001aa0b64	4	1	main_slash	11	advance_on_keypress_SLASH	68	stimuli_target_squaretriangles.svg	stimuli_distractor_diamondtriangles.svg	7	yes	57	0	309	0	0			0	0			1				0	
6.6.1	win	2023-07-14	12:14:57	12:24:47	586082	5b2aac848580750001aa0b64	4	1	main_slash	11	main_slash	69	stimuli_target_rectangletriangles.svg	stimuli_distractor_diamondtriangles.svg	5	yes	53	1	506	0	0			0	0			1				0	
6.6.1	win	2023-07-14	12:14:57	12:24:47	586082	5b2aac848580750001aa0b64	4	1	main_slash	11	advance_on_keypress_SLASH	70	stimuli_target_rectangletriangles.svg	stimuli_distractor_diamondtriangles.svg	5	yes	57	0	243	0	0			0	0			1				0	
6.6.1	win	2023-07-14	12:14:57	12:24:49	587822	5b2aac848580750001aa0b64	4	1	main_slash	11	main_slash	71	stimuli_distractor_diamondtriangles.svg	stimuli_distractor_trianglediamonds.svg	37	no	53	0	839	0	0			0	0			1				0	
6.6.1	win	2023-07-14	12:14:57	12:24:49	587822	5b2aac848580750001aa0b64	4	1	main_slash	11	advance_on_keypress_SLASH	72	stimuli_distractor_diamondtriangles.svg	stimuli_distractor_trianglediamonds.svg	37	no	57	0	244	0	0			0	0			1				0	
6.6.1	win	2023-07-14	12:14:57	12:24:50	589422	5b2aac848580750001aa0b64	4	1	main_slash	11	main_slash	73	stimuli_target_rectanglediamonds.svg	stimuli_distractor_diamondtriangles.svg	6	yes	53	1	697	0	0			0	0			1				0	
6.6.1	win	2023-07-14	12:14:57	12:24:50	589422	5b2aac848580750001aa0b64	4	1	main_slash	11	advance_on_keypress_SLASH	74	stimuli_target_rectanglediamonds.svg	stimuli_distractor_diamondtriangles.svg	6	yes	57	0	284	0	0			0	0			1				0	
6.6.1	win	2023-07-14	12:14:57	12:24:52	590894	5b2aac848580750001aa0b64	4	1	main_slash	11	main_slash	75	stimuli_target_squarediamonds.svg	stimuli_distractor_diamondtriangles.svg	8	yes	53	1	514	0	0			0	0			1				0	
6.6.1	win	2023-07-14	12:14:57	12:24:52	590894	5b2aac848580750001aa0b64	4	1	main_slash	11	advance_on_keypress_SLASH	76	stimuli_target_squarediamonds.svg	stimuli_distractor_diamondtriangles.svg	8	yes	57	0	217	0	0			0	0			1				0	
6.6.1	win	2023-07-14	12:14:57	12:24:55	593763	5b2aac848580750001aa0b64	4	1	main_slash	11	main_slash	77	stimuli_distractor_diamondtriangles.svg	stimuli_distractor_diamondtriangles.svg	39	no	0	1	2000	0	0			0	0			1				0	
6.6.1	win	2023-07-14	12:14:57	12:24:55	593763	5b2aac848580750001aa0b64	4	1	main_slash	11	advance_on_keypress_SLASH	78	stimuli_distractor_diamondtriangles.svg	stimuli_distractor_diamondtriangles.svg	39	no	57	0	432	0	0			0	0			1				0	
6.6.1	win	2023-07-14	12:14:57	12:24:57	595710	5b2aac848580750001aa0b64	4	1	main_slash	11	main_slash	79	stimuli_target_diamondrectangles.svg	stimuli_distractor_trianglediamonds.svg	19	yes	53	1	861	0	0			0	0			1				0	
6.6.1	win	2023-07-14	12:14:57	12:24:57	595710	5b2aac848580750001aa0b64	4	1	main_slash	11	advance_on_keypress_SLASH	80	stimuli_target_diamondrectangles.svg	stimuli_distractor_trianglediamonds.svg	19	yes	57	0	265	0	0			0	0			1				0	
6.6.1	win	2023-07-14	12:14:57	12:24:58	597254	5b2aac848580750001aa0b64	4	1	main_slash	11	main_slash	81	stimuli_distractor_diamondtriangles.svg	stimuli_target_rectanglediamonds.svg	14	yes	53	1	613	0	0			0	0			1				0	
6.6.1	win	2023-07-14	12:14:57	12:24:58	597254	5b2aac848580750001aa0b64	4	1	main_slash	11	advance_on_keypress_SLASH	82	stimuli_distractor_diamondtriangles.svg	stimuli_target_rectanglediamonds.svg	14	yes	57	0	284	0	0			0	0			1				0	
6.6.1	win	2023-07-14	12:14:57	12:25:00	599453	5b2aac848580750001aa0b64	4	1	main_slash	11	main_slash	83	stimuli_target_diamondsquares.svg	stimuli_distractor_trianglediamonds.svg	20	yes	53	1	1247	0	0			0	0			1				0	
6.6.1	win	2023-07-14	12:14:57	12:25:00	599453	5b2aac848580750001aa0b64	4	1	main_slash	11	advance_on_keypress_SLASH	84	stimuli_target_diamondsquares.svg	stimuli_distractor_trianglediamonds.svg	20	yes	57	0	205	0	0			0	0			1				0	
6.6.1	win	2023-07-14	12:14:57	12:25:02	600851	5b2aac848580750001aa0b64	4	1	main_slash	11	main_slash	85	stimuli_target_rectanglediamonds.svg	stimuli_distractor_diamondtriangles.svg	6	yes	53	1	553	0	0			0	0			1				0	
6.6.1	win	2023-07-14	12:14:57	12:25:02	600851	5b2aac848580750001aa0b64	4	1	main_slash	11	advance_on_keypress_SLASH	86	stimuli_target_rectanglediamonds.svg	stimuli_distractor_diamondtriangles.svg	6	yes	57	0	220	0	0			0	0			1				0	
6.6.1	win	2023-07-14	12:14:57	12:25:03	602245	5b2aac848580750001aa0b64	4	1	main_slash	11	main_slash	87	stimuli_target_squaretriangles.svg	stimuli_distractor_trianglediamonds.svg	3	yes	53	1	522	0	0			0	0			1				0	
6.6.1	win	2023-07-14	12:14:57	12:25:03	602245	5b2aac848580750001aa0b64	4	1	main_slash	11	advance_on_keypress_SLASH	88	stimuli_target_squaretriangles.svg	stimuli_distractor_trianglediamonds.svg	3	yes	57	0	172	0	0			0	0			1				0	
6.6.1	win	2023-07-14	12:14:57	12:25:06	605068	5b2aac848580750001aa0b64	4	1	main_slash	11	main_slash	89	stimuli_distractor_trianglediamonds.svg	stimuli_distractor_trianglediamonds.svg	34	no	0	1	2000	0	0			0	0			1				0	
6.6.1	win	2023-07-14	12:14:57	12:25:06	605068	5b2aac848580750001aa0b64	4	1	main_slash	11	advance_on_keypress_SLASH	90	stimuli_distractor_trianglediamonds.svg	stimuli_distractor_trianglediamonds.svg	34	no	57	0	452	0	0			0	0			1				0	
6.6.1	win	2023-07-14	12:14:57	12:25:08	606729	5b2aac848580750001aa0b64	4	1	main_slash	11	main_slash	91	stimuli_distractor_diamondtriangles.svg	stimuli_target_trianglesquares.svg	30	yes	53	1	536	0	0			0	0			1				0	
6.6.1	win	2023-07-14	12:14:57	12:25:08	606729	5b2aac848580750001aa0b64	4	1	main_slash	11	advance_on_keypress_SLASH	92	stimuli_distractor_diamondtriangles.svg	stimuli_target_trianglesquares.svg	30	yes	57	0	241	0	0			0	0			1				0	
6.6.1	win	2023-07-14	12:14:57	12:25:10	609640	5b2aac848580750001aa0b64	4	1	main_slash	11	main_slash	93	stimuli_distractor_diamondtriangles.svg	stimuli_target_squarediamonds.svg	16	yes	0	0	2000	0	0			0	0			1				0	
6.6.1	win	2023-07-14	12:14:57	12:25:10	609640	5b2aac848580750001aa0b64	4	1	main_slash	11	advance_on_keypress_SLASH	94	stimuli_distractor_diamondtriangles.svg	stimuli_target_squarediamonds.svg	16	yes	57	0	388	0	0			0	0			1				0	
6.6.1	win	2023-07-14	12:14:57	12:25:12	611601	5b2aac848580750001aa0b64	4	1	main_slash	11	main_slash	95	stimuli_distractor_trianglediamonds.svg	stimuli_target_trianglerectangles.svg	25	yes	53	1	923	0	0			0	0			1				0	
6.6.1	win	2023-07-14	12:14:57	12:25:12	611601	5b2aac848580750001aa0b64	4	1	main_slash	11	advance_on_keypress_SLASH	96	stimuli_distractor_trianglediamonds.svg	stimuli_target_trianglerectangles.svg	25	yes	57	0	158	0	0			0	0			1				0	
6.6.1	win	2023-07-14	12:14:57	12:25:15	614271	5b2aac848580750001aa0b64	4	1	main_slash	11	main_slash	97	stimuli_distractor_trianglediamonds.svg	stimuli_target_rectanglediamonds.svg	10	yes	53	1	1846	0	0			0	0			1				0	
6.6.1	win	2023-07-14	12:14:57	12:25:15	614271	5b2aac848580750001aa0b64	4	1	main_slash	11	advance_on_keypress_SLASH	98	stimuli_distractor_trianglediamonds.svg	stimuli_target_rectanglediamonds.svg	10	yes	57	0	140	0	0			0	0			1				0	
6.6.1	win	2023-07-14	12:14:57	12:25:17	615989	5b2aac848580750001aa0b64	4	1	main_slash	11	main_slash	99	stimuli_target_diamondsquares.svg	stimuli_distractor_diamondtriangles.svg	24	yes	53	1	908	0	0			0	0			1				0	
6.6.1	win	2023-07-14	12:14:57	12:25:17	615989	5b2aac848580750001aa0b64	4	1	main_slash	11	advance_on_keypress_SLASH	100	stimuli_target_diamondsquares.svg	stimuli_distractor_diamondtriangles.svg	24	yes	57	0	142	0	0			0	0			1				0	
6.6.1	win	2023-07-14	12:14:57	12:25:18	617317	5b2aac848580750001aa0b64	4	1	main_slash	11	main_slash	101	stimuli_target_rectangletriangles.svg	stimuli_distractor_diamondtriangles.svg	5	yes	53	1	519	0	0			0	0			1				0	
6.6.1	win	2023-07-14	12:14:57	12:25:18	617317	5b2aac848580750001aa0b64	4	1	main_slash	11	advance_on_keypress_SLASH	102	stimuli_target_rectangletriangles.svg	stimuli_distractor_diamondtriangles.svg	5	yes	57	0	194	0	0			0	0			1				0	
6.6.1	win	2023-07-14	12:14:57	12:25:20	618814	5b2aac848580750001aa0b64	4	1	main_slash	11	main_slash	103	stimuli_distractor_diamondtriangles.svg	stimuli_target_diamondrectangles.svg	31	yes	53	1	665	0	0			0	0			1				0	
6.6.1	win	2023-07-14	12:14:57	12:25:20	618814	5b2aac848580750001aa0b64	4	1	main_slash	11	advance_on_keypress_SLASH	104	stimuli_distractor_diamondtriangles.svg	stimuli_target_diamondrectangles.svg	31	yes	57	0	238	0	0			0	0			1				0	
6.6.1	win	2023-07-14	12:14:57	12:25:21	620504	5b2aac848580750001aa0b64	4	1	main_slash	11	main_slash	105	stimuli_target_trianglesquares.svg	stimuli_distractor_trianglediamonds.svg	18	yes	53	1	786	0	0			0	0			1				0	
6.6.1	win	2023-07-14	12:14:57	12:25:21	620504	5b2aac848580750001aa0b64	4	1	main_slash	11	advance_on_keypress_SLASH	106	stimuli_target_trianglesquares.svg	stimuli_distractor_trianglediamonds.svg	18	yes	57	0	298	0	0			0	0			1				0	
6.6.1	win	2023-07-14	12:14:57	12:25:23	622005	5b2aac848580750001aa0b64	4	1	main_slash	11	main_slash	107	stimuli_distractor_trianglediamonds.svg	stimuli_target_diamondrectangles.svg	27	yes	53	1	532	0	0			0	0			1				0	
6.6.1	win	2023-07-14	12:14:57	12:25:23	622005	5b2aac848580750001aa0b64	4	1	main_slash	11	advance_on_keypress_SLASH	108	stimuli_distractor_trianglediamonds.svg	stimuli_target_diamondrectangles.svg	27	yes	57	0	198	0	0			0	0			1				0	
6.6.1	win	2023-07-14	12:14:57	12:25:25	623725	5b2aac848580750001aa0b64	4	1	main_slash	11	main_slash	109	stimuli_target_trianglerectangles.svg	stimuli_distractor_diamondtriangles.svg	21	yes	53	1	861	0	0			0	0			1				0	
6.6.1	win	2023-07-14	12:14:57	12:25:25	623725	5b2aac848580750001aa0b64	4	1	main_slash	11	advance_on_keypress_SLASH	110	stimuli_target_trianglerectangles.svg	stimuli_distractor_diamondtriangles.svg	21	yes	57	0	226	0	0			0	0			1				0	
6.6.1	win	2023-07-14	12:14:57	12:25:26	625649	5b2aac848580750001aa0b64	4	1	main_slash	11	main_slash	111	stimuli_distractor_trianglediamonds.svg	stimuli_target_squaretriangles.svg	11	yes	53	1	1039	0	0			0	0			1				0	
6.6.1	win	2023-07-14	12:14:57	12:25:26	625649	5b2aac848580750001aa0b64	4	1	main_slash	11	advance_on_keypress_SLASH	112	stimuli_distractor_trianglediamonds.svg	stimuli_target_squaretriangles.svg	11	yes	57	0	205	0	0			0	0			1				0	
6.6.1	win	2023-07-14	12:14:57	12:25:28	627348	5b2aac848580750001aa0b64	4	1	main_slash	11	main_slash	113	stimuli_distractor_diamondtriangles.svg	stimuli_distractor_diamondtriangles.svg	39	no	53	0	827	0	0			0	0			1				0	
6.6.1	win	2023-07-14	12:14:57	12:25:28	627348	5b2aac848580750001aa0b64	4	1	main_slash	11	advance_on_keypress_SLASH	114	stimuli_distractor_diamondtriangles.svg	stimuli_distractor_diamondtriangles.svg	39	no	57	0	441	0	0			0	0			1				0	
6.6.1	win	2023-07-14	12:14:57	12:25:31	630402	5b2aac848580750001aa0b64	4	1	main_slash	11	main_slash	115	stimuli_distractor_trianglediamonds.svg	stimuli_distractor_diamondtriangles.svg	36	no	53	0	1957	0	0			0	0			1				0	
6.6.1	win	2023-07-14	12:14:57	12:25:31	630402	5b2aac848580750001aa0b64	4	1	main_slash	11	advance_on_keypress_SLASH	116	stimuli_distractor_trianglediamonds.svg	stimuli_distractor_diamondtriangles.svg	36	no	57	0	63	0	0			0	0			1				0	
6.6.1	win	2023-07-14	12:14:57	12:25:33	631810	5b2aac848580750001aa0b64	4	1	main_slash	11	main_slash	117	stimuli_distractor_trianglediamonds.svg	stimuli_target_trianglesquares.svg	26	yes	53	1	684	0	0			0	0			1				0	
6.6.1	win	2023-07-14	12:14:57	12:25:33	631810	5b2aac848580750001aa0b64	4	1	main_slash	11	advance_on_keypress_SLASH	118	stimuli_distractor_trianglediamonds.svg	stimuli_target_trianglesquares.svg	26	yes	57	0	142	0	0			0	0			1				0	
6.6.1	win	2023-07-14	12:14:57	12:25:34	633262	5b2aac848580750001aa0b64	4	1	main_slash	11	main_slash	119	stimuli_target_trianglesquares.svg	stimuli_distractor_diamondtriangles.svg	22	yes	53	1	639	0	0			0	0			1				0	
6.6.1	win	2023-07-14	12:14:57	12:25:34	633262	5b2aac848580750001aa0b64	4	1	main_slash	11	advance_on_keypress_SLASH	120	stimuli_target_trianglesquares.svg	stimuli_distractor_diamondtriangles.svg	22	yes	57	0	180	0	0			0	0			1				0	
6.6.1	win	2023-07-14	12:14:57	12:25:36	634749	5b2aac848580750001aa0b64	4	1	main_slash	11	main_slash	121	stimuli_target_diamondrectangles.svg	stimuli_distractor_trianglediamonds.svg	19	yes	53	1	644	0	0			0	0			1				0	
6.6.1	win	2023-07-14	12:14:57	12:25:36	634749	5b2aac848580750001aa0b64	4	1	main_slash	11	advance_on_keypress_SLASH	122	stimuli_target_diamondrectangles.svg	stimuli_distractor_trianglediamonds.svg	19	yes	57	0	121	0	0			0	0			1				0	
6.6.1	win	2023-07-14	12:14:57	12:25:37	636545	5b2aac848580750001aa0b64	4	1	main_slash	11	main_slash	123	stimuli_distractor_trianglediamonds.svg	stimuli_distractor_diamondtriangles.svg	35	no	53	0	1035	0	0			0	0			1				0	
6.6.1	win	2023-07-14	12:14:57	12:25:37	636545	5b2aac848580750001aa0b64	4	1	main_slash	11	advance_on_keypress_SLASH	124	stimuli_distractor_trianglediamonds.svg	stimuli_distractor_diamondtriangles.svg	35	no	57	0	129	0	0			0	0			1				0	
6.6.1	win	2023-07-14	12:14:57	12:25:39	637929	5b2aac848580750001aa0b64	4	1	main_slash	11	main_slash	125	stimuli_distractor_diamondtriangles.svg	stimuli_target_squaretriangles.svg	15	yes	53	1	594	0	0			0	0			1				0	
6.6.1	win	2023-07-14	12:14:57	12:25:39	637929	5b2aac848580750001aa0b64	4	1	main_slash	11	advance_on_keypress_SLASH	126	stimuli_distractor_diamondtriangles.svg	stimuli_target_squaretriangles.svg	15	yes	57	0	170	0	0			0	0			1				0	
6.6.1	win	2023-07-14	12:14:57	12:25:40	639239	5b2aac848580750001aa0b64	4	1	main_slash	11	main_slash	127	stimuli_target_rectanglediamonds.svg	stimuli_distractor_trianglediamonds.svg	2	yes	53	1	482	0	0			0	0			1				0	
6.6.1	win	2023-07-14	12:14:57	12:25:40	639239	5b2aac848580750001aa0b64	4	1	main_slash	11	advance_on_keypress_SLASH	128	stimuli_target_rectanglediamonds.svg	stimuli_distractor_trianglediamonds.svg	2	yes	57	0	165	0	0			0	0			1				0	
6.6.1	win	2023-07-14	12:14:57	12:25:42	641069	5b2aac848580750001aa0b64	4	1	main_slash	11	main_slash	129	stimuli_distractor_trianglediamonds.svg	stimuli_target_diamondsquares.svg	28	yes	53	1	1005	0	0			0	0			1				0	
6.6.1	win	2023-07-14	12:14:57	12:25:42	641069	5b2aac848580750001aa0b64	4	1	main_slash	11	advance_on_keypress_SLASH	130	stimuli_distractor_trianglediamonds.svg	stimuli_target_diamondsquares.svg	28	yes	57	0	157	0	0			0	0			1				0	
6.6.1	win	2023-07-14	12:14:57	12:25:43	642494	5b2aac848580750001aa0b64	4	1	main_slash	11	main_slash	131	stimuli_target_diamondrectangles.svg	stimuli_distractor_diamondtriangles.svg	23	yes	53	1	605	0	0			0	0			1				0	
6.6.1	win	2023-07-14	12:14:57	12:25:43	642494	5b2aac848580750001aa0b64	4	1	main_slash	11	advance_on_keypress_SLASH	132	stimuli_target_diamondrectangles.svg	stimuli_distractor_diamondtriangles.svg	23	yes	57	0	243	0	0			0	0			1				0	
6.6.1	win	2023-07-14	12:14:57	12:25:45	644231	5b2aac848580750001aa0b64	4	1	main_slash	11	main_slash	133	stimuli_target_rectangletriangles.svg	stimuli_distractor_trianglediamonds.svg	1	yes	53	1	825	0	0			0	0			1				0	
6.6.1	win	2023-07-14	12:14:57	12:25:45	644231	5b2aac848580750001aa0b64	4	1	main_slash	11	advance_on_keypress_SLASH	134	stimuli_target_rectangletriangles.svg	stimuli_distractor_trianglediamonds.svg	1	yes	57	0	182	0	0			0	0			1				0	
6.6.1	win	2023-07-14	12:14:57	12:25:47	646529	5b2aac848580750001aa0b64	4	1	main_slash	11	main_slash	135	stimuli_distractor_diamondtriangles.svg	stimuli_distractor_trianglediamonds.svg	38	no	53	0	1470	0	0			0	0			1				0	
6.6.1	win	2023-07-14	12:14:57	12:25:47	646529	5b2aac848580750001aa0b64	4	1	main_slash	11	advance_on_keypress_SLASH	136	stimuli_distractor_diamondtriangles.svg	stimuli_distractor_trianglediamonds.svg	38	no	57	0	114	0	0			0	0			1				0	
6.6.1	win	2023-07-14	12:14:57	12:25:49	647864	5b2aac848580750001aa0b64	4	1	main_slash	11	main_slash	137	stimuli_target_squarediamonds.svg	stimuli_distractor_trianglediamonds.svg	4	yes	53	1	556	0	0			0	0			1				0	
6.6.1	win	2023-07-14	12:14:57	12:25:49	647864	5b2aac848580750001aa0b64	4	1	main_slash	11	advance_on_keypress_SLASH	138	stimuli_target_squarediamonds.svg	stimuli_distractor_trianglediamonds.svg	4	yes	57	0	133	0	0			0	0			1				0	
6.6.1	win	2023-07-14	12:14:57	12:25:50	649262	5b2aac848580750001aa0b64	4	1	main_slash	11	main_slash	139	stimuli_target_squaretriangles.svg	stimuli_distractor_diamondtriangles.svg	7	yes	53	1	605	0	0			0	0			1				0	
6.6.1	win	2023-07-14	12:14:57	12:25:50	649262	5b2aac848580750001aa0b64	4	1	main_slash	11	advance_on_keypress_SLASH	140	stimuli_target_squaretriangles.svg	stimuli_distractor_diamondtriangles.svg	7	yes	57	0	157	0	0			0	0			1				0	
6.6.1	win	2023-07-14	12:14:57	12:25:52	651004	5b2aac848580750001aa0b64	4	1	main_slash	11	main_slash	141	stimuli_distractor_diamondtriangles.svg	stimuli_target_trianglerectangles.svg	29	yes	53	1	934	0	0			0	0			1				0	
6.6.1	win	2023-07-14	12:14:57	12:25:52	651004	5b2aac848580750001aa0b64	4	1	main_slash	11	advance_on_keypress_SLASH	142	stimuli_distractor_diamondtriangles.svg	stimuli_target_trianglerectangles.svg	29	yes	57	0	127	0	0			0	0			1				0	
6.6.1	win	2023-07-14	12:14:57	12:25:54	653252	5b2aac848580750001aa0b64	4	1	main_slash	11	main_slash	143	stimuli_distractor_trianglediamonds.svg	stimuli_target_squarediamonds.svg	12	yes	53	1	1456	0	0			0	0			1				0	
6.6.1	win	2023-07-14	12:14:57	12:25:54	653252	5b2aac848580750001aa0b64	4	1	main_slash	11	advance_on_keypress_SLASH	144	stimuli_distractor_trianglediamonds.svg	stimuli_target_squarediamonds.svg	12	yes	57	0	118	0	0			0	0			1				0	
6.6.1	win	2023-07-14	12:14:57	12:25:55	654485	5b2aac848580750001aa0b64	4	1	main_slash	11	main_slash	145	stimuli_distractor_trianglediamonds.svg	stimuli_target_rectangletriangles.svg	9	yes	53	1	470	0	0			0	0			1				0	
6.6.1	win	2023-07-14	12:14:57	12:25:55	654485	5b2aac848580750001aa0b64	4	1	main_slash	11	advance_on_keypress_SLASH	146	stimuli_distractor_trianglediamonds.svg	stimuli_target_rectangletriangles.svg	9	yes	57	0	164	0	0			0	0			1				0	
6.6.1	win	2023-07-14	12:14:57	12:25:57	655808	5b2aac848580750001aa0b64	4	1	main_slash	11	main_slash	147	stimuli_distractor_diamondtriangles.svg	stimuli_target_rectangletriangles.svg	13	yes	53	1	508	0	0			0	0			1				0	
6.6.1	win	2023-07-14	12:14:57	12:25:57	655808	5b2aac848580750001aa0b64	4	1	main_slash	11	advance_on_keypress_SLASH	148	stimuli_distractor_diamondtriangles.svg	stimuli_target_rectangletriangles.svg	13	yes	57	0	159	0	0			0	0			1				0	
6.6.1	win	2023-07-14	12:14:57	12:25:58	657225	5b2aac848580750001aa0b64	4	1	main_slash	11	main_slash	149	stimuli_target_trianglerectangles.svg	stimuli_distractor_trianglediamonds.svg	17	yes	53	1	608	0	0			0	0			1				0	
6.6.1	win	2023-07-14	12:14:57	12:25:58	657225	5b2aac848580750001aa0b64	4	1	main_slash	11	advance_on_keypress_SLASH	150	stimuli_target_trianglerectangles.svg	stimuli_distractor_trianglediamonds.svg	17	yes	57	0	151	0	0			0	0			1				0	
6.6.1	win	2023-07-14	12:14:57	12:26:00	658801	5b2aac848580750001aa0b64	4	1	main_slash	11	main_slash	151	stimuli_target_squarediamonds.svg	stimuli_distractor_diamondtriangles.svg	8	yes	53	1	775	0	0			0	0			1				0	
6.6.1	win	2023-07-14	12:14:57	12:26:00	658801	5b2aac848580750001aa0b64	4	1	main_slash	11	advance_on_keypress_SLASH	152	stimuli_target_squarediamonds.svg	stimuli_distractor_diamondtriangles.svg	8	yes	57	0	832	0	0			0	0			1				0	
6.6.1	win	2023-07-14	12:14:57	12:26:02	660969	5b2aac848580750001aa0b64	4	1	main_slash	11	main_slash	153	stimuli_distractor_trianglediamonds.svg	stimuli_distractor_trianglediamonds.svg	33	no	53	0	693	0	0			0	0			1				0	
6.6.1	win	2023-07-14	12:14:57	12:26:02	660969	5b2aac848580750001aa0b64	4	1	main_slash	11	advance_on_keypress_SLASH	154	stimuli_distractor_trianglediamonds.svg	stimuli_distractor_trianglediamonds.svg	33	no	57	0	369	0	0			0	0			1				0	
6.6.1	win	2023-07-14	12:14:57	12:26:04	663052	5b2aac848580750001aa0b64	4	1	main_slash	11	main_slash	155	stimuli_distractor_diamondtriangles.svg	stimuli_distractor_diamondtriangles.svg	40	no	53	0	1049	0	0			0	0			1				0	
6.6.1	win	2023-07-14	12:14:57	12:26:04	663052	5b2aac848580750001aa0b64	4	1	main_slash	11	advance_on_keypress_SLASH	156	stimuli_distractor_diamondtriangles.svg	stimuli_distractor_diamondtriangles.svg	40	no	57	0	109	0	0			0	0			1				0	
6.6.1	win	2023-07-14	12:14:57	12:26:07	665838	5b2aac848580750001aa0b64	4	1	main_slash	11	main_slash	157	stimuli_distractor_diamondtriangles.svg	stimuli_distractor_trianglediamonds.svg	37	no	0	1	2000	0	0			0	0			1				0	
6.6.1	win	2023-07-14	12:14:57	12:26:07	665838	5b2aac848580750001aa0b64	4	1	main_slash	11	advance_on_keypress_SLASH	158	stimuli_distractor_diamondtriangles.svg	stimuli_distractor_trianglediamonds.svg	37	no	57	0	502	0	0			0	0			1				0	
6.6.1	win	2023-07-14	12:14:57	12:26:08	667541	5b2aac848580750001aa0b64	4	1	main_slash	11	main_slash	159	stimuli_distractor_diamondtriangles.svg	stimuli_target_diamondsquares.svg	32	yes	53	1	514	0	0			0	0			1				0	
6.6.1	win	2023-07-14	12:14:57	12:26:08	667541	5b2aac848580750001aa0b64	4	1	main_slash	11	advance_on_keypress_SLASH	160	stimuli_distractor_diamondtriangles.svg	stimuli_target_diamondsquares.svg	32	yes	57	0	130	0	0			0	0			1				0	
6.6.1	win	2023-07-14	12:14:57	12:26:08	667541	5b2aac848580750001aa0b64	4	1	headphonecheck_calibration	14	headphonecheck_calibrationIntro	1	stimuli_distractor_diamondtriangles.svg	stimuli_target_diamondsquares.svg	32	yes	calibrationButton	0	2781	0	0			0	0			1				0	
6.6.1	win	2023-07-14	12:14:57	12:26:08	667541	5b2aac848580750001aa0b64	4	1	headphonecheck_testphase	15	test_collectResponse	3	stimuli_distractor_diamondtriangles.svg	stimuli_target_diamondsquares.svg	32	yes	first	1	13753	1	4	antiphase_hc_sio.wav	1	0	0			1				0	
6.6.1	win	2023-07-14	12:14:57	12:26:08	667541	5b2aac848580750001aa0b64	4	1	headphonecheck_testphase	15	test_collectResponse	6	stimuli_distractor_diamondtriangles.svg	stimuli_target_diamondsquares.svg	32	yes	second	1	1433	2	1	antiphase_hc_iso.wav	2	0	0			1				0	
6.6.1	win	2023-07-14	12:14:57	12:26:08	667541	5b2aac848580750001aa0b64	4	1	headphonecheck_testphase	15	test_collectResponse	9	stimuli_distractor_diamondtriangles.svg	stimuli_target_diamondsquares.svg	32	yes	second	0	21574	3	6	antiphase_hc_ois.wav	3	0	0			1				0	
6.6.1	win	2023-07-14	12:14:57	12:26:08	667541	5b2aac848580750001aa0b64	4	1	headphonecheck_testphase	15	test_collectResponse	12	stimuli_distractor_diamondtriangles.svg	stimuli_target_diamondsquares.svg	32	yes	third	1	426	4	2	antiphase_hc_ios.wav	3	0	0			1				0	
6.6.1	win	2023-07-14	12:14:57	12:26:08	667541	5b2aac848580750001aa0b64	4	1	headphonecheck_testphase	15	test_collectResponse	15	stimuli_distractor_diamondtriangles.svg	stimuli_target_diamondsquares.svg	32	yes	first	1	778	5	3	antiphase_hc_soi.wav	1	0	0			1				0	
6.6.1	win	2023-07-14	12:14:57	12:26:08	667541	5b2aac848580750001aa0b64	4	1	headphonecheck_testphase	15	test_collectResponse	18	stimuli_distractor_diamondtriangles.svg	stimuli_target_diamondsquares.svg	32	yes	second	1	332	6	5	antiphase_hc_osi.wav	2	0	0			1				0	
6.6.1	win	2023-07-14	12:14:57	12:26:08	667541	5b2aac848580750001aa0b64	4	1	stereocheck_calibration	17	stereocheck_calibrationIntro	1	stimuli_distractor_diamondtriangles.svg	stimuli_target_diamondsquares.svg	32	yes	stereocheck_calibrationButton	0	3503	6	5	antiphase_hc_osi.wav	2	0	0			1				0	
6.6.1	win	2023-07-14	12:14:57	12:26:08	667541	5b2aac848580750001aa0b64	4	1	stereocheck_testphase	18	stereocheck_test_collectResponse	3	stimuli_distractor_diamondtriangles.svg	stimuli_target_diamondsquares.svg	32	yes	stereocheck_left	1	414	6	5	antiphase_hc_osi.wav	2	1	3	noise_calib_stim_LEFT.wav	1	1				0	
6.6.1	win	2023-07-14	12:14:57	12:26:08	667541	5b2aac848580750001aa0b64	4	1	stereocheck_testphase	18	stereocheck_test_collectResponse	6	stimuli_distractor_diamondtriangles.svg	stimuli_target_diamondsquares.svg	32	yes	stereocheck_right	1	251	6	5	antiphase_hc_osi.wav	2	2	4	noise_calib_stim_RIGHT.wav	2	1				0	
6.6.1	win	2023-07-14	12:14:57	12:26:08	667541	5b2aac848580750001aa0b64	4	1	stereocheck_testphase	18	stereocheck_test_collectResponse	9	stimuli_distractor_diamondtriangles.svg	stimuli_target_diamondsquares.svg	32	yes	stereocheck_right	1	593	6	5	antiphase_hc_osi.wav	2	3	5	noise_calib_stim_RIGHT.wav	2	1				0	
6.6.1	win	2023-07-14	12:14:57	12:26:08	667541	5b2aac848580750001aa0b64	4	1	stereocheck_testphase	18	stereocheck_test_collectResponse	12	stimuli_distractor_diamondtriangles.svg	stimuli_target_diamondsquares.svg	32	yes	stereocheck_right	1	628	6	5	antiphase_hc_osi.wav	2	4	6	noise_calib_stim_RIGHT.wav	2	1				0	
6.6.1	win	2023-07-14	12:14:57	12:26:08	667541	5b2aac848580750001aa0b64	4	1	stereocheck_testphase	18	stereocheck_test_collectResponse	15	stimuli_distractor_diamondtriangles.svg	stimuli_target_diamondsquares.svg	32	yes	stereocheck_left	1	360	6	5	antiphase_hc_osi.wav	2	5	1	noise_calib_stim_LEFT.wav	1	1				0	
6.6.1	win	2023-07-14	12:14:57	12:26:08	667541	5b2aac848580750001aa0b64	4	1	stereocheck_testphase	18	stereocheck_test_collectResponse	18	stimuli_distractor_diamondtriangles.svg	stimuli_target_diamondsquares.svg	32	yes	stereocheck_left	1	1310	6	5	antiphase_hc_osi.wav	2	6	2	noise_calib_stim_LEFT.wav	1	1				0	
6.6.1	win	2023-07-14	12:14:57	12:26:08	667541	5b2aac848580750001aa0b64	4	1	DL_practice	21	DL_practice	2	stimuli_distractor_diamondtriangles.svg	stimuli_target_diamondsquares.svg	32	yes	da	1	1339	6	5	antiphase_hc_osi.wav	2	6	2	noise_calib_stim_LEFT.wav	1	7	blb_dichoticlistening_da-ba.mp3	da	ba	1	left
6.6.1	win	2023-07-14	12:14:57	12:26:08	667541	5b2aac848580750001aa0b64	4	1	DL_practice	21	DL_practice	3	stimuli_distractor_diamondtriangles.svg	stimuli_target_diamondsquares.svg	32	yes	ta	1	1293	6	5	antiphase_hc_osi.wav	2	6	2	noise_calib_stim_LEFT.wav	1	18	blb_dichoticlistening_ga-ta.mp3	ga	ta	1	right
6.6.1	win	2023-07-14	12:14:57	12:26:08	667541	5b2aac848580750001aa0b64	4	1	DL_practice	21	DL_practice	4	stimuli_distractor_diamondtriangles.svg	stimuli_target_diamondsquares.svg	32	yes	ka	1	917	6	5	antiphase_hc_osi.wav	2	6	2	noise_calib_stim_LEFT.wav	1	22	blb_dichoticlistening_ka-ka.mp3	ka	ka	0	left
6.6.1	win	2023-07-14	12:14:57	12:26:08	667541	5b2aac848580750001aa0b64	4	1	DL_practice	21	DL_practice	5	stimuli_distractor_diamondtriangles.svg	stimuli_target_diamondsquares.svg	32	yes	ba	1	1004	6	5	antiphase_hc_osi.wav	2	6	2	noise_calib_stim_LEFT.wav	1	1	blb_dichoticlistening_ba-ba.mp3	ba	ba	0	left
6.6.1	win	2023-07-14	12:14:57	12:26:08	667541	5b2aac848580750001aa0b64	4	1	DL_practice	21	DL_practice	6	stimuli_distractor_diamondtriangles.svg	stimuli_target_diamondsquares.svg	32	yes	pa	1	1318	6	5	antiphase_hc_osi.wav	2	6	2	noise_calib_stim_LEFT.wav	1	23	blb_dichoticlistening_ka-pa.mp3	ka	pa	1	right
6.6.1	win	2023-07-14	12:14:57	12:26:08	667541	5b2aac848580750001aa0b64	4	1	DL_practice	21	DL_practice	7	stimuli_distractor_diamondtriangles.svg	stimuli_target_diamondsquares.svg	32	yes	pa	1	1056	6	5	antiphase_hc_osi.wav	2	6	2	noise_calib_stim_LEFT.wav	1	29	blb_dichoticlistening_pa-pa.mp3	pa	pa	0	left
6.6.1	win	2023-07-14	12:14:57	12:26:08	667541	5b2aac848580750001aa0b64	4	1	DL_practice	21	DL_practice	8	stimuli_distractor_diamondtriangles.svg	stimuli_target_diamondsquares.svg	32	yes	ta	1	816	6	5	antiphase_hc_osi.wav	2	6	2	noise_calib_stim_LEFT.wav	1	36	blb_dichoticlistening_ta-ta.mp3	ta	ta	0	left
6.6.1	win	2023-07-14	12:14:57	12:26:08	667541	5b2aac848580750001aa0b64	4	1	DL_practice	21	DL_practice	9	stimuli_distractor_diamondtriangles.svg	stimuli_target_diamondsquares.svg	32	yes	ga	1	651	6	5	antiphase_hc_osi.wav	2	6	2	noise_calib_stim_LEFT.wav	1	15	blb_dichoticlistening_ga-ga.mp3	ga	ga	0	left
6.6.1	win	2023-07-14	12:14:57	12:26:08	667541	5b2aac848580750001aa0b64	4	1	DL_practice	21	DL_practice	10	stimuli_distractor_diamondtriangles.svg	stimuli_target_diamondsquares.svg	32	yes	da	1	713	6	5	antiphase_hc_osi.wav	2	6	2	noise_calib_stim_LEFT.wav	1	8	blb_dichoticlistening_da-da.mp3	da	da	0	left
6.6.1	win	2023-07-14	12:14:57	12:26:08	667541	5b2aac848580750001aa0b64	4	1	DL_test	23	DL_test	1	stimuli_distractor_diamondtriangles.svg	stimuli_target_diamondsquares.svg	32	yes	ta	1	1095	6	5	antiphase_hc_osi.wav	2	6	2	noise_calib_stim_LEFT.wav	1	12	blb_dichoticlistening_da-ta.mp3	da	ta	1	right
6.6.1	win	2023-07-14	12:14:57	12:26:08	667541	5b2aac848580750001aa0b64	4	1	DL_test	23	DL_test	2	stimuli_distractor_diamondtriangles.svg	stimuli_target_diamondsquares.svg	32	yes	pa	1	933	6	5	antiphase_hc_osi.wav	2	6	2	noise_calib_stim_LEFT.wav	1	17	blb_dichoticlistening_ga-pa.mp3	ga	pa	1	right
6.6.1	win	2023-07-14	12:14:57	12:26:08	667541	5b2aac848580750001aa0b64	4	1	DL_test	23	DL_test	3	stimuli_distractor_diamondtriangles.svg	stimuli_target_diamondsquares.svg	32	yes	da	1	969	6	5	antiphase_hc_osi.wav	2	6	2	noise_calib_stim_LEFT.wav	1	9	blb_dichoticlistening_da-ga.mp3	da	ga	1	left
6.6.1	win	2023-07-14	12:14:57	12:26:08	667541	5b2aac848580750001aa0b64	4	1	DL_test	23	DL_test	4	stimuli_distractor_diamondtriangles.svg	stimuli_target_diamondsquares.svg	32	yes	pa	1	831	6	5	antiphase_hc_osi.wav	2	6	2	noise_calib_stim_LEFT.wav	1	23	blb_dichoticlistening_ka-pa.mp3	ka	pa	1	right
6.6.1	win	2023-07-14	12:14:57	12:26:08	667541	5b2aac848580750001aa0b64	4	1	DL_test	23	DL_test	5	stimuli_distractor_diamondtriangles.svg	stimuli_target_diamondsquares.svg	32	yes	ba	1	1217	6	5	antiphase_hc_osi.wav	2	6	2	noise_calib_stim_LEFT.wav	1	19	blb_dichoticlistening_ka-ba.mp3	ka	ba	1	right
6.6.1	win	2023-07-14	12:14:57	12:26:08	667541	5b2aac848580750001aa0b64	4	1	DL_test	23	DL_test	6	stimuli_distractor_diamondtriangles.svg	stimuli_target_diamondsquares.svg	32	yes	ga	1	603	6	5	antiphase_hc_osi.wav	2	6	2	noise_calib_stim_LEFT.wav	1	15	blb_dichoticlistening_ga-ga.mp3	ga	ga	0	left
6.6.1	win	2023-07-14	12:14:57	12:26:08	667541	5b2aac848580750001aa0b64	4	1	DL_test	23	DL_test	7	stimuli_distractor_diamondtriangles.svg	stimuli_target_diamondsquares.svg	32	yes	ta	1	797	6	5	antiphase_hc_osi.wav	2	6	2	noise_calib_stim_LEFT.wav	1	6	blb_dichoticlistening_ba-ta.mp3	ba	ta	1	right
6.6.1	win	2023-07-14	12:14:57	12:26:08	667541	5b2aac848580750001aa0b64	4	1	DL_test	23	DL_test	8	stimuli_distractor_diamondtriangles.svg	stimuli_target_diamondsquares.svg	32	yes	ba	1	804	6	5	antiphase_hc_osi.wav	2	6	2	noise_calib_stim_LEFT.wav	1	13	blb_dichoticlistening_ga-ba.mp3	ga	ba	1	right
6.6.1	win	2023-07-14	12:14:57	12:26:08	667541	5b2aac848580750001aa0b64	4	1	DL_test	23	DL_test	9	stimuli_distractor_diamondtriangles.svg	stimuli_target_diamondsquares.svg	32	yes	da	1	905	6	5	antiphase_hc_osi.wav	2	6	2	noise_calib_stim_LEFT.wav	1	2	blb_dichoticlistening_ba-da.mp3	ba	da	1	right
6.6.1	win	2023-07-14	12:14:57	12:26:08	667541	5b2aac848580750001aa0b64	4	1	DL_test	23	DL_test	10	stimuli_distractor_diamondtriangles.svg	stimuli_target_diamondsquares.svg	32	yes	pa	1	1037	6	5	antiphase_hc_osi.wav	2	6	2	noise_calib_stim_LEFT.wav	1	35	blb_dichoticlistening_ta-pa.mp3	ta	pa	1	right
6.6.1	win	2023-07-14	12:14:57	12:26:08	667541	5b2aac848580750001aa0b64	4	1	DL_test	23	DL_test	11	stimuli_distractor_diamondtriangles.svg	stimuli_target_diamondsquares.svg	32	yes	pa	0	1225	6	5	antiphase_hc_osi.wav	2	6	2	noise_calib_stim_LEFT.wav	1	31	blb_dichoticlistening_ta-ba.mp3	ta	ba	1	other
6.6.1	win	2023-07-14	12:14:57	12:26:08	667541	5b2aac848580750001aa0b64	4	1	DL_test	23	DL_test	12	stimuli_distractor_diamondtriangles.svg	stimuli_target_diamondsquares.svg	32	yes	ta	1	1073	6	5	antiphase_hc_osi.wav	2	6	2	noise_calib_stim_LEFT.wav	1	32	blb_dichoticlistening_ta-da.mp3	ta	da	1	left
6.6.1	win	2023-07-14	12:14:57	12:26:08	667541	5b2aac848580750001aa0b64	4	1	DL_test	23	DL_test	13	stimuli_distractor_diamondtriangles.svg	stimuli_target_diamondsquares.svg	32	yes	ta	1	870	6	5	antiphase_hc_osi.wav	2	6	2	noise_calib_stim_LEFT.wav	1	36	blb_dichoticlistening_ta-ta.mp3	ta	ta	0	left
6.6.1	win	2023-07-14	12:14:57	12:26:08	667541	5b2aac848580750001aa0b64	4	1	DL_test	23	DL_test	14	stimuli_distractor_diamondtriangles.svg	stimuli_target_diamondsquares.svg	32	yes	pa	1	828	6	5	antiphase_hc_osi.wav	2	6	2	noise_calib_stim_LEFT.wav	1	11	blb_dichoticlistening_da-pa.mp3	da	pa	1	right
6.6.1	win	2023-07-14	12:14:57	12:26:08	667541	5b2aac848580750001aa0b64	4	1	DL_test	23	DL_test	15	stimuli_distractor_diamondtriangles.svg	stimuli_target_diamondsquares.svg	32	yes	ka	1	613	6	5	antiphase_hc_osi.wav	2	6	2	noise_calib_stim_LEFT.wav	1	22	blb_dichoticlistening_ka-ka.mp3	ka	ka	0	left
6.6.1	win	2023-07-14	12:14:57	12:26:08	667541	5b2aac848580750001aa0b64	4	1	DL_test	23	DL_test	16	stimuli_distractor_diamondtriangles.svg	stimuli_target_diamondsquares.svg	32	yes	da	1	895	6	5	antiphase_hc_osi.wav	2	6	2	noise_calib_stim_LEFT.wav	1	7	blb_dichoticlistening_da-ba.mp3	da	ba	1	left
6.6.1	win	2023-07-14	12:14:57	12:26:08	667541	5b2aac848580750001aa0b64	4	1	DL_test	23	DL_test	17	stimuli_distractor_diamondtriangles.svg	stimuli_target_diamondsquares.svg	32	yes	da	1	1085	6	5	antiphase_hc_osi.wav	2	6	2	noise_calib_stim_LEFT.wav	1	8	blb_dichoticlistening_da-da.mp3	da	da	0	left
6.6.1	win	2023-07-14	12:14:57	12:26:08	667541	5b2aac848580750001aa0b64	4	1	DL_test	23	DL_test	18	stimuli_distractor_diamondtriangles.svg	stimuli_target_diamondsquares.svg	32	yes	ka	1	2690	6	5	antiphase_hc_osi.wav	2	6	2	noise_calib_stim_LEFT.wav	1	20	blb_dichoticlistening_ka-da.mp3	ka	da	1	left
6.6.1	win	2023-07-14	12:14:57	12:26:08	667541	5b2aac848580750001aa0b64	4	1	DL_test	23	DL_test	19	stimuli_distractor_diamondtriangles.svg	stimuli_target_diamondsquares.svg	32	yes	pa	1	600	6	5	antiphase_hc_osi.wav	2	6	2	noise_calib_stim_LEFT.wav	1	25	blb_dichoticlistening_pa-ba.mp3	pa	ba	1	left
6.6.1	win	2023-07-14	12:14:57	12:26:08	667541	5b2aac848580750001aa0b64	4	1	DL_test	23	DL_test	20	stimuli_distractor_diamondtriangles.svg	stimuli_target_diamondsquares.svg	32	yes	ka	1	949	6	5	antiphase_hc_osi.wav	2	6	2	noise_calib_stim_LEFT.wav	1	34	blb_dichoticlistening_ta-ka.mp3	ta	ka	1	right
6.6.1	win	2023-07-14	12:14:57	12:26:08	667541	5b2aac848580750001aa0b64	4	1	DL_test	23	DL_test	21	stimuli_distractor_diamondtriangles.svg	stimuli_target_diamondsquares.svg	32	yes	ta	1	953	6	5	antiphase_hc_osi.wav	2	6	2	noise_calib_stim_LEFT.wav	1	30	blb_dichoticlistening_pa-ta.mp3	pa	ta	1	right
6.6.1	win	2023-07-14	12:14:57	12:26:08	667541	5b2aac848580750001aa0b64	4	1	DL_test	23	DL_test	22	stimuli_distractor_diamondtriangles.svg	stimuli_target_diamondsquares.svg	32	yes	pa	1	689	6	5	antiphase_hc_osi.wav	2	6	2	noise_calib_stim_LEFT.wav	1	29	blb_dichoticlistening_pa-pa.mp3	pa	pa	0	left
6.6.1	win	2023-07-14	12:14:57	12:26:08	667541	5b2aac848580750001aa0b64	4	1	DL_test	23	DL_test	23	stimuli_distractor_diamondtriangles.svg	stimuli_target_diamondsquares.svg	32	yes	pa	1	2276	6	5	antiphase_hc_osi.wav	2	6	2	noise_calib_stim_LEFT.wav	1	27	blb_dichoticlistening_pa-ga.mp3	pa	ga	1	left
6.6.1	win	2023-07-14	12:14:57	12:26:08	667541	5b2aac848580750001aa0b64	4	1	DL_test	23	DL_test	24	stimuli_distractor_diamondtriangles.svg	stimuli_target_diamondsquares.svg	32	yes	ka	0	1886	6	5	antiphase_hc_osi.wav	2	6	2	noise_calib_stim_LEFT.wav	1	33	blb_dichoticlistening_ta-ga.mp3	ta	ga	1	other
6.6.1	win	2023-07-14	12:14:57	12:26:08	667541	5b2aac848580750001aa0b64	4	1	DL_test	23	DL_test	25	stimuli_distractor_diamondtriangles.svg	stimuli_target_diamondsquares.svg	32	yes	ba	1	1340	6	5	antiphase_hc_osi.wav	2	6	2	noise_calib_stim_LEFT.wav	1	1	blb_dichoticlistening_ba-ba.mp3	ba	ba	0	left
6.6.1	win	2023-07-14	12:14:57	12:26:08	667541	5b2aac848580750001aa0b64	4	1	DL_test	23	DL_test	26	stimuli_distractor_diamondtriangles.svg	stimuli_target_diamondsquares.svg	32	yes	ka	1	795	6	5	antiphase_hc_osi.wav	2	6	2	noise_calib_stim_LEFT.wav	1	24	blb_dichoticlistening_ka-ta.mp3	ka	ta	1	left
