build	computer.platform	date	time	timestamp	time_elapsed_ms	subject	group	session	blockcode	blocknum	trialcode	trialnum	stimulus_left	stimulus_right	stim_index	target_present	response	correct	latency	headphonecheck_countTestTrials	headphonecheck_index	headphonecheck_testSound	headphonecheck_correctResponse	stereocheck_countTestTrials	stereocheck_index	stereocheck_testSound	stereocheck_correctResponse	DL_index	DL_soundfile	DL_leftSound	DL_rightSound	DL_dualSound	DL_choice
6.6.1	win	2023-06-27	20:46:59	0	0	5fcd709227fabfc6ca7a969e	1	1	headphonecheck_calibration	4	headphonecheck_calibrationIntro	1			0		calibrationButton	0	2849	0	0			0	0			1				0	
6.6.1	win	2023-06-27	20:46:59	0	0	5fcd709227fabfc6ca7a969e	1	1	headphonecheck_testphase	5	test_collectResponse	3			0		third	1	290	1	6	antiphase_hc_ois.wav	3	0	0			1				0	
6.6.1	win	2023-06-27	20:46:59	0	0	5fcd709227fabfc6ca7a969e	1	1	headphonecheck_testphase	5	test_collectResponse	6			0		third	1	486	2	2	antiphase_hc_ios.wav	3	0	0			1				0	
6.6.1	win	2023-06-27	20:46:59	0	0	5fcd709227fabfc6ca7a969e	1	1	headphonecheck_testphase	5	test_collectResponse	9			0		first	1	254	3	3	antiphase_hc_soi.wav	1	0	0			1				0	
6.6.1	win	2023-06-27	20:46:59	0	0	5fcd709227fabfc6ca7a969e	1	1	headphonecheck_testphase	5	test_collectResponse	12			0		first	1	456	4	4	antiphase_hc_sio.wav	1	0	0			1				0	
6.6.1	win	2023-06-27	20:46:59	0	0	5fcd709227fabfc6ca7a969e	1	1	headphonecheck_testphase	5	test_collectResponse	15			0		second	1	280	5	5	antiphase_hc_osi.wav	2	0	0			1				0	
6.6.1	win	2023-06-27	20:46:59	0	0	5fcd709227fabfc6ca7a969e	1	1	headphonecheck_testphase	5	test_collectResponse	18			0		second	1	285	6	1	antiphase_hc_iso.wav	2	0	0			1				0	
6.6.1	win	2023-06-27	20:46:59	0	0	5fcd709227fabfc6ca7a969e	1	1	stereocheck_calibration	7	stereocheck_calibrationIntro	1			0		stereocheck_calibrationButton	0	4660	6	1	antiphase_hc_iso.wav	2	0	0			1				0	
6.6.1	win	2023-06-27	20:46:59	0	0	5fcd709227fabfc6ca7a969e	1	1	stereocheck_testphase	8	stereocheck_test_collectResponse	3			0		stereocheck_right	1	4679	6	1	antiphase_hc_iso.wav	2	1	5	noise_calib_stim_RIGHT.wav	2	1				0	
6.6.1	win	2023-06-27	20:46:59	0	0	5fcd709227fabfc6ca7a969e	1	1	stereocheck_testphase	8	stereocheck_test_collectResponse	6			0		stereocheck_left	1	238	6	1	antiphase_hc_iso.wav	2	2	2	noise_calib_stim_LEFT.wav	1	1				0	
6.6.1	win	2023-06-27	20:46:59	0	0	5fcd709227fabfc6ca7a969e	1	1	stereocheck_testphase	8	stereocheck_test_collectResponse	9			0		stereocheck_left	1	174	6	1	antiphase_hc_iso.wav	2	3	1	noise_calib_stim_LEFT.wav	1	1				0	
6.6.1	win	2023-06-27	20:46:59	0	0	5fcd709227fabfc6ca7a969e	1	1	stereocheck_testphase	8	stereocheck_test_collectResponse	12			0		stereocheck_right	1	209	6	1	antiphase_hc_iso.wav	2	4	4	noise_calib_stim_RIGHT.wav	2	1				0	
6.6.1	win	2023-06-27	20:46:59	0	0	5fcd709227fabfc6ca7a969e	1	1	stereocheck_testphase	8	stereocheck_test_collectResponse	15			0		stereocheck_right	1	154	6	1	antiphase_hc_iso.wav	2	5	6	noise_calib_stim_RIGHT.wav	2	1				0	
6.6.1	win	2023-06-27	20:46:59	0	0	5fcd709227fabfc6ca7a969e	1	1	stereocheck_testphase	8	stereocheck_test_collectResponse	18			0		stereocheck_left	1	228	6	1	antiphase_hc_iso.wav	2	6	3	noise_calib_stim_LEFT.wav	1	1				0	
6.6.1	win	2023-06-27	20:46:59	0	0	5fcd709227fabfc6ca7a969e	1	1	DL_practice	11	DL_practice	2			0		ga	1	1098	6	1	antiphase_hc_iso.wav	2	6	3	noise_calib_stim_LEFT.wav	1	15	blb_dichoticlistening_ga-ga.mp3	ga	ga	0	left
6.6.1	win	2023-06-27	20:46:59	0	0	5fcd709227fabfc6ca7a969e	1	1	DL_practice	11	DL_practice	3			0		ta	1	1160	6	1	antiphase_hc_iso.wav	2	6	3	noise_calib_stim_LEFT.wav	1	18	blb_dichoticlistening_ga-ta.mp3	ga	ta	1	right
6.6.1	win	2023-06-27	20:46:59	0	0	5fcd709227fabfc6ca7a969e	1	1	DL_practice	11	DL_practice	4			0		pa	1	1212	6	1	antiphase_hc_iso.wav	2	6	3	noise_calib_stim_LEFT.wav	1	23	blb_dichoticlistening_ka-pa.mp3	ka	pa	1	right
6.6.1	win	2023-06-27	20:46:59	0	0	5fcd709227fabfc6ca7a969e	1	1	DL_practice	11	DL_practice	5			0		ta	1	1068	6	1	antiphase_hc_iso.wav	2	6	3	noise_calib_stim_LEFT.wav	1	36	blb_dichoticlistening_ta-ta.mp3	ta	ta	0	left
6.6.1	win	2023-06-27	20:46:59	0	0	5fcd709227fabfc6ca7a969e	1	1	DL_practice	11	DL_practice	6			0		ka	1	750	6	1	antiphase_hc_iso.wav	2	6	3	noise_calib_stim_LEFT.wav	1	22	blb_dichoticlistening_ka-ka.mp3	ka	ka	0	left
6.6.1	win	2023-06-27	20:46:59	0	0	5fcd709227fabfc6ca7a969e	1	1	DL_practice	11	DL_practice	7			0		da	1	841	6	1	antiphase_hc_iso.wav	2	6	3	noise_calib_stim_LEFT.wav	1	8	blb_dichoticlistening_da-da.mp3	da	da	0	left
6.6.1	win	2023-06-27	20:46:59	0	0	5fcd709227fabfc6ca7a969e	1	1	DL_practice	11	DL_practice	8			0		ba	1	1120	6	1	antiphase_hc_iso.wav	2	6	3	noise_calib_stim_LEFT.wav	1	1	blb_dichoticlistening_ba-ba.mp3	ba	ba	0	left
6.6.1	win	2023-06-27	20:46:59	0	0	5fcd709227fabfc6ca7a969e	1	1	DL_practice	11	DL_practice	9			0		da	1	971	6	1	antiphase_hc_iso.wav	2	6	3	noise_calib_stim_LEFT.wav	1	7	blb_dichoticlistening_da-ba.mp3	da	ba	1	left
6.6.1	win	2023-06-27	20:46:59	0	0	5fcd709227fabfc6ca7a969e	1	1	DL_practice	11	DL_practice	10			0		pa	1	817	6	1	antiphase_hc_iso.wav	2	6	3	noise_calib_stim_LEFT.wav	1	29	blb_dichoticlistening_pa-pa.mp3	pa	pa	0	left
6.6.1	win	2023-06-27	20:46:59	0	0	5fcd709227fabfc6ca7a969e	1	1	DL_test	13	DL_test	1			0		ka	0	799	6	1	antiphase_hc_iso.wav	2	6	3	noise_calib_stim_LEFT.wav	1	18	blb_dichoticlistening_ga-ta.mp3	ga	ta	1	other
6.6.1	win	2023-06-27	20:46:59	0	0	5fcd709227fabfc6ca7a969e	1	1	DL_test	13	DL_test	2			0		pa	1	818	6	1	antiphase_hc_iso.wav	2	6	3	noise_calib_stim_LEFT.wav	1	5	blb_dichoticlistening_ba-pa.mp3	ba	pa	1	right
6.6.1	win	2023-06-27	20:46:59	0	0	5fcd709227fabfc6ca7a969e	1	1	DL_test	13	DL_test	3			0		ga	1	1207	6	1	antiphase_hc_iso.wav	2	6	3	noise_calib_stim_LEFT.wav	1	13	blb_dichoticlistening_ga-ba.mp3	ga	ba	1	left
6.6.1	win	2023-06-27	20:46:59	0	0	5fcd709227fabfc6ca7a969e	1	1	DL_test	13	DL_test	4			0		pa	1	1119	6	1	antiphase_hc_iso.wav	2	6	3	noise_calib_stim_LEFT.wav	1	17	blb_dichoticlistening_ga-pa.mp3	ga	pa	1	right
6.6.1	win	2023-06-27	20:46:59	0	0	5fcd709227fabfc6ca7a969e	1	1	DL_test	13	DL_test	5			0		da	0	1738	6	1	antiphase_hc_iso.wav	2	6	3	noise_calib_stim_LEFT.wav	1	3	blb_dichoticlistening_ba-ga.mp3	ba	ga	1	other
6.6.1	win	2023-06-27	20:46:59	0	0	5fcd709227fabfc6ca7a969e	1	1	DL_test	13	DL_test	6			0		ka	1	825	6	1	antiphase_hc_iso.wav	2	6	3	noise_calib_stim_LEFT.wav	1	4	blb_dichoticlistening_ba-ka.mp3	ba	ka	1	right
6.6.1	win	2023-06-27	20:46:59	0	0	5fcd709227fabfc6ca7a969e	1	1	DL_test	13	DL_test	7			0		pa	1	1388	6	1	antiphase_hc_iso.wav	2	6	3	noise_calib_stim_LEFT.wav	1	27	blb_dichoticlistening_pa-ga.mp3	pa	ga	1	left
6.6.1	win	2023-06-27	20:46:59	0	0	5fcd709227fabfc6ca7a969e	1	1	DL_test	13	DL_test	8			0		ka	1	1582	6	1	antiphase_hc_iso.wav	2	6	3	noise_calib_stim_LEFT.wav	1	24	blb_dichoticlistening_ka-ta.mp3	ka	ta	1	left
6.6.1	win	2023-06-27	20:46:59	0	0	5fcd709227fabfc6ca7a969e	1	1	DL_test	13	DL_test	9			0		ba	1	1346	6	1	antiphase_hc_iso.wav	2	6	3	noise_calib_stim_LEFT.wav	1	1	blb_dichoticlistening_ba-ba.mp3	ba	ba	0	left
6.6.1	win	2023-06-27	20:46:59	0	0	5fcd709227fabfc6ca7a969e	1	1	DL_test	13	DL_test	10			0		ta	1	959	6	1	antiphase_hc_iso.wav	2	6	3	noise_calib_stim_LEFT.wav	1	35	blb_dichoticlistening_ta-pa.mp3	ta	pa	1	left
6.6.1	win	2023-06-27	20:46:59	0	0	5fcd709227fabfc6ca7a969e	1	1	DL_test	13	DL_test	11			0		pa	1	804	6	1	antiphase_hc_iso.wav	2	6	3	noise_calib_stim_LEFT.wav	1	29	blb_dichoticlistening_pa-pa.mp3	pa	pa	0	left
6.6.1	win	2023-06-27	20:46:59	0	0	5fcd709227fabfc6ca7a969e	1	1	DL_test	13	DL_test	12			0		ka	1	961	6	1	antiphase_hc_iso.wav	2	6	3	noise_calib_stim_LEFT.wav	1	22	blb_dichoticlistening_ka-ka.mp3	ka	ka	0	left
6.6.1	win	2023-06-27	20:46:59	0	0	5fcd709227fabfc6ca7a969e	1	1	DL_test	13	DL_test	13			0		ka	1	933	6	1	antiphase_hc_iso.wav	2	6	3	noise_calib_stim_LEFT.wav	1	34	blb_dichoticlistening_ta-ka.mp3	ta	ka	1	right
6.6.1	win	2023-06-27	20:46:59	0	0	5fcd709227fabfc6ca7a969e	1	1	DL_test	13	DL_test	14			0		da	1	1584	6	1	antiphase_hc_iso.wav	2	6	3	noise_calib_stim_LEFT.wav	1	8	blb_dichoticlistening_da-da.mp3	da	da	0	left
6.6.1	win	2023-06-27	20:46:59	0	0	5fcd709227fabfc6ca7a969e	1	1	DL_test	13	DL_test	15			0		pa	1	967	6	1	antiphase_hc_iso.wav	2	6	3	noise_calib_stim_LEFT.wav	1	23	blb_dichoticlistening_ka-pa.mp3	ka	pa	1	right
6.6.1	win	2023-06-27	20:46:59	0	0	5fcd709227fabfc6ca7a969e	1	1	DL_test	13	DL_test	16			0		da	1	1051	6	1	antiphase_hc_iso.wav	2	6	3	noise_calib_stim_LEFT.wav	1	26	blb_dichoticlistening_pa-da.mp3	pa	da	1	right
6.6.1	win	2023-06-27	20:46:59	0	0	5fcd709227fabfc6ca7a969e	1	1	DL_test	13	DL_test	17			0		ga	1	1823	6	1	antiphase_hc_iso.wav	2	6	3	noise_calib_stim_LEFT.wav	1	33	blb_dichoticlistening_ta-ga.mp3	ta	ga	1	right
6.6.1	win	2023-06-27	20:46:59	0	0	5fcd709227fabfc6ca7a969e	1	1	DL_test	13	DL_test	18			0		da	1	1184	6	1	antiphase_hc_iso.wav	2	6	3	noise_calib_stim_LEFT.wav	1	2	blb_dichoticlistening_ba-da.mp3	ba	da	1	right
6.6.1	win	2023-06-27	20:46:59	0	0	5fcd709227fabfc6ca7a969e	1	1	DL_test	13	DL_test	19			0		da	1	1181	6	1	antiphase_hc_iso.wav	2	6	3	noise_calib_stim_LEFT.wav	1	32	blb_dichoticlistening_ta-da.mp3	ta	da	1	right
6.6.1	win	2023-06-27	20:46:59	0	0	5fcd709227fabfc6ca7a969e	1	1	DL_test	13	DL_test	20			0		pa	1	1148	6	1	antiphase_hc_iso.wav	2	6	3	noise_calib_stim_LEFT.wav	1	11	blb_dichoticlistening_da-pa.mp3	da	pa	1	right
6.6.1	win	2023-06-27	20:46:59	0	0	5fcd709227fabfc6ca7a969e	1	1	DL_test	13	DL_test	21			0		ka	1	707	6	1	antiphase_hc_iso.wav	2	6	3	noise_calib_stim_LEFT.wav	1	16	blb_dichoticlistening_ga-ka.mp3	ga	ka	1	right
6.6.1	win	2023-06-27	20:46:59	0	0	5fcd709227fabfc6ca7a969e	1	1	DL_test	13	DL_test	22			0		ta	1	815	6	1	antiphase_hc_iso.wav	2	6	3	noise_calib_stim_LEFT.wav	1	12	blb_dichoticlistening_da-ta.mp3	da	ta	1	right
6.6.1	win	2023-06-27	20:46:59	0	0	5fcd709227fabfc6ca7a969e	1	1	DL_test	13	DL_test	23			0		da	1	829	6	1	antiphase_hc_iso.wav	2	6	3	noise_calib_stim_LEFT.wav	1	14	blb_dichoticlistening_ga-da.mp3	ga	da	1	right
6.6.1	win	2023-06-27	20:46:59	0	0	5fcd709227fabfc6ca7a969e	1	1	DL_test	13	DL_test	24			0		pa	0	1468	6	1	antiphase_hc_iso.wav	2	6	3	noise_calib_stim_LEFT.wav	1	10	blb_dichoticlistening_da-ka.mp3	da	ka	1	other
6.6.1	win	2023-06-27	20:46:59	0	0	5fcd709227fabfc6ca7a969e	1	1	DL_test	13	DL_test	25			0		ka	1	988	6	1	antiphase_hc_iso.wav	2	6	3	noise_calib_stim_LEFT.wav	1	28	blb_dichoticlistening_pa-ka.mp3	pa	ka	1	right
6.6.1	win	2023-06-27	20:46:59	0	0	5fcd709227fabfc6ca7a969e	1	1	DL_test	13	DL_test	26			0		ta	1	905	6	1	antiphase_hc_iso.wav	2	6	3	noise_calib_stim_LEFT.wav	1	30	blb_dichoticlistening_pa-ta.mp3	pa	ta	1	right
6.6.1	win	2023-06-27	20:46:59	0	0	5fcd709227fabfc6ca7a969e	1	1	DL_test	13	DL_test	27			0		da	1	990	6	1	antiphase_hc_iso.wav	2	6	3	noise_calib_stim_LEFT.wav	1	7	blb_dichoticlistening_da-ba.mp3	da	ba	1	left
6.6.1	win	2023-06-27	20:46:59	0	0	5fcd709227fabfc6ca7a969e	1	1	DL_test	13	DL_test	28			0		ka	1	1063	6	1	antiphase_hc_iso.wav	2	6	3	noise_calib_stim_LEFT.wav	1	19	blb_dichoticlistening_ka-ba.mp3	ka	ba	1	left
6.6.1	win	2023-06-27	20:46:59	0	0	5fcd709227fabfc6ca7a969e	1	1	DL_test	13	DL_test	29			0		pa	1	1538	6	1	antiphase_hc_iso.wav	2	6	3	noise_calib_stim_LEFT.wav	1	25	blb_dichoticlistening_pa-ba.mp3	pa	ba	1	left
6.6.1	win	2023-06-27	20:46:59	0	0	5fcd709227fabfc6ca7a969e	1	1	DL_test	13	DL_test	30			0		ga	0	1123	6	1	antiphase_hc_iso.wav	2	6	3	noise_calib_stim_LEFT.wav	1	20	blb_dichoticlistening_ka-da.mp3	ka	da	1	other
6.6.1	win	2023-06-27	20:46:59	0	0	5fcd709227fabfc6ca7a969e	1	1	DL_test	13	DL_test	31			0		ga	1	708	6	1	antiphase_hc_iso.wav	2	6	3	noise_calib_stim_LEFT.wav	1	15	blb_dichoticlistening_ga-ga.mp3	ga	ga	0	left
6.6.1	win	2023-06-27	20:46:59	0	0	5fcd709227fabfc6ca7a969e	1	1	DL_test	13	DL_test	32			0		da	0	1206	6	1	antiphase_hc_iso.wav	2	6	3	noise_calib_stim_LEFT.wav	1	31	blb_dichoticlistening_ta-ba.mp3	ta	ba	1	other
6.6.1	win	2023-06-27	20:46:59	0	0	5fcd709227fabfc6ca7a969e	1	1	DL_test	13	DL_test	33			0		ta	1	1724	6	1	antiphase_hc_iso.wav	2	6	3	noise_calib_stim_LEFT.wav	1	36	blb_dichoticlistening_ta-ta.mp3	ta	ta	0	left
6.6.1	win	2023-06-27	20:46:59	0	0	5fcd709227fabfc6ca7a969e	1	1	DL_test	13	DL_test	34			0		ga	1	962	6	1	antiphase_hc_iso.wav	2	6	3	noise_calib_stim_LEFT.wav	1	21	blb_dichoticlistening_ka-ga.mp3	ka	ga	1	right
6.6.1	win	2023-06-27	20:46:59	0	0	5fcd709227fabfc6ca7a969e	1	1	DL_test	13	DL_test	35			0		da	1	998	6	1	antiphase_hc_iso.wav	2	6	3	noise_calib_stim_LEFT.wav	1	9	blb_dichoticlistening_da-ga.mp3	da	ga	1	left
6.6.1	win	2023-06-27	20:46:59	0	0	5fcd709227fabfc6ca7a969e	1	1	DL_test	13	DL_test	36			0		ta	1	1061	6	1	antiphase_hc_iso.wav	2	6	3	noise_calib_stim_LEFT.wav	1	6	blb_dichoticlistening_ba-ta.mp3	ba	ta	1	right
6.6.1	win	2023-06-27	20:46:59	0	0	5fcd709227fabfc6ca7a969e	1	1	DL_test	14	DL_test	1			0		da	0	1155	6	1	antiphase_hc_iso.wav	2	6	3	noise_calib_stim_LEFT.wav	1	6	blb_dichoticlistening_ba-ta.mp3	ba	ta	1	other
6.6.1	win	2023-06-27	20:46:59	0	0	5fcd709227fabfc6ca7a969e	1	1	DL_test	14	DL_test	2			0		pa	0	926	6	1	antiphase_hc_iso.wav	2	6	3	noise_calib_stim_LEFT.wav	1	10	blb_dichoticlistening_da-ka.mp3	da	ka	1	other
6.6.1	win	2023-06-27	20:46:59	0	0	5fcd709227fabfc6ca7a969e	1	1	DL_test	14	DL_test	3			0		ga	0	895	6	1	antiphase_hc_iso.wav	2	6	3	noise_calib_stim_LEFT.wav	1	26	blb_dichoticlistening_pa-da.mp3	pa	da	1	other
6.6.1	win	2023-06-27	20:46:59	0	0	5fcd709227fabfc6ca7a969e	1	1	DL_test	14	DL_test	4			0		ba	1	1154	6	1	antiphase_hc_iso.wav	2	6	3	noise_calib_stim_LEFT.wav	1	1	blb_dichoticlistening_ba-ba.mp3	ba	ba	0	left
6.6.1	win	2023-06-27	20:46:59	0	0	5fcd709227fabfc6ca7a969e	1	1	DL_test	14	DL_test	5			0		ta	1	1321	6	1	antiphase_hc_iso.wav	2	6	3	noise_calib_stim_LEFT.wav	1	31	blb_dichoticlistening_ta-ba.mp3	ta	ba	1	left
6.6.1	win	2023-06-27	20:46:59	0	0	5fcd709227fabfc6ca7a969e	1	1	DL_test	14	DL_test	6			0		ka	1	986	6	1	antiphase_hc_iso.wav	2	6	3	noise_calib_stim_LEFT.wav	1	21	blb_dichoticlistening_ka-ga.mp3	ka	ga	1	left
6.6.1	win	2023-06-27	20:46:59	0	0	5fcd709227fabfc6ca7a969e	1	1	DL_test	14	DL_test	7			0		da	0	1197	6	1	antiphase_hc_iso.wav	2	6	3	noise_calib_stim_LEFT.wav	1	18	blb_dichoticlistening_ga-ta.mp3	ga	ta	1	other
6.6.1	win	2023-06-27	20:46:59	0	0	5fcd709227fabfc6ca7a969e	1	1	DL_test	14	DL_test	8			0		da	1	1023	6	1	antiphase_hc_iso.wav	2	6	3	noise_calib_stim_LEFT.wav	1	8	blb_dichoticlistening_da-da.mp3	da	da	0	left
6.6.1	win	2023-06-27	20:46:59	0	0	5fcd709227fabfc6ca7a969e	1	1	DL_test	14	DL_test	9			0		pa	1	821	6	1	antiphase_hc_iso.wav	2	6	3	noise_calib_stim_LEFT.wav	1	25	blb_dichoticlistening_pa-ba.mp3	pa	ba	1	left
6.6.1	win	2023-06-27	20:46:59	0	0	5fcd709227fabfc6ca7a969e	1	1	DL_test	14	DL_test	10			0		ka	1	892	6	1	antiphase_hc_iso.wav	2	6	3	noise_calib_stim_LEFT.wav	1	28	blb_dichoticlistening_pa-ka.mp3	pa	ka	1	right
6.6.1	win	2023-06-27	20:46:59	0	0	5fcd709227fabfc6ca7a969e	1	1	DL_test	14	DL_test	11			0		ga	1	1134	6	1	antiphase_hc_iso.wav	2	6	3	noise_calib_stim_LEFT.wav	1	3	blb_dichoticlistening_ba-ga.mp3	ba	ga	1	right
6.6.1	win	2023-06-27	20:46:59	0	0	5fcd709227fabfc6ca7a969e	1	1	DL_test	14	DL_test	12			0		da	0	1128	6	1	antiphase_hc_iso.wav	2	6	3	noise_calib_stim_LEFT.wav	1	33	blb_dichoticlistening_ta-ga.mp3	ta	ga	1	other
6.6.1	win	2023-06-27	20:46:59	0	0	5fcd709227fabfc6ca7a969e	1	1	DL_test	14	DL_test	13			0		da	1	787	6	1	antiphase_hc_iso.wav	2	6	3	noise_calib_stim_LEFT.wav	1	7	blb_dichoticlistening_da-ba.mp3	da	ba	1	left
6.6.1	win	2023-06-27	20:46:59	0	0	5fcd709227fabfc6ca7a969e	1	1	DL_test	14	DL_test	14			0		ka	1	940	6	1	antiphase_hc_iso.wav	2	6	3	noise_calib_stim_LEFT.wav	1	24	blb_dichoticlistening_ka-ta.mp3	ka	ta	1	left
6.6.1	win	2023-06-27	20:46:59	0	0	5fcd709227fabfc6ca7a969e	1	1	DL_test	14	DL_test	15			0		ta	1	1230	6	1	antiphase_hc_iso.wav	2	6	3	noise_calib_stim_LEFT.wav	1	12	blb_dichoticlistening_da-ta.mp3	da	ta	1	right
6.6.1	win	2023-06-27	20:46:59	0	0	5fcd709227fabfc6ca7a969e	1	1	DL_test	14	DL_test	16			0		pa	1	774	6	1	antiphase_hc_iso.wav	2	6	3	noise_calib_stim_LEFT.wav	1	11	blb_dichoticlistening_da-pa.mp3	da	pa	1	right
6.6.1	win	2023-06-27	20:46:59	0	0	5fcd709227fabfc6ca7a969e	1	1	DL_test	14	DL_test	17			0		ka	1	765	6	1	antiphase_hc_iso.wav	2	6	3	noise_calib_stim_LEFT.wav	1	34	blb_dichoticlistening_ta-ka.mp3	ta	ka	1	right
6.6.1	win	2023-06-27	20:46:59	0	0	5fcd709227fabfc6ca7a969e	1	1	DL_test	14	DL_test	18			0		da	1	1316	6	1	antiphase_hc_iso.wav	2	6	3	noise_calib_stim_LEFT.wav	1	14	blb_dichoticlistening_ga-da.mp3	ga	da	1	right
6.6.1	win	2023-06-27	20:46:59	0	0	5fcd709227fabfc6ca7a969e	1	1	DL_test	14	DL_test	19			0		ka	1	926	6	1	antiphase_hc_iso.wav	2	6	3	noise_calib_stim_LEFT.wav	1	19	blb_dichoticlistening_ka-ba.mp3	ka	ba	1	left
6.6.1	win	2023-06-27	20:46:59	0	0	5fcd709227fabfc6ca7a969e	1	1	DL_test	14	DL_test	20			0		da	1	2165	6	1	antiphase_hc_iso.wav	2	6	3	noise_calib_stim_LEFT.wav	1	20	blb_dichoticlistening_ka-da.mp3	ka	da	1	right
6.6.1	win	2023-06-27	20:46:59	0	0	5fcd709227fabfc6ca7a969e	1	1	DL_test	14	DL_test	21			0		da	0	958	6	1	antiphase_hc_iso.wav	2	6	3	noise_calib_stim_LEFT.wav	1	13	blb_dichoticlistening_ga-ba.mp3	ga	ba	1	other
6.6.1	win	2023-06-27	20:46:59	0	0	5fcd709227fabfc6ca7a969e	1	1	DL_test	14	DL_test	22			0		ga	1	1024	6	1	antiphase_hc_iso.wav	2	6	3	noise_calib_stim_LEFT.wav	1	9	blb_dichoticlistening_da-ga.mp3	da	ga	1	right
6.6.1	win	2023-06-27	20:46:59	0	0	5fcd709227fabfc6ca7a969e	1	1	DL_test	14	DL_test	23			0		pa	1	873	6	1	antiphase_hc_iso.wav	2	6	3	noise_calib_stim_LEFT.wav	1	30	blb_dichoticlistening_pa-ta.mp3	pa	ta	1	left
6.6.1	win	2023-06-27	20:46:59	0	0	5fcd709227fabfc6ca7a969e	1	1	DL_test	14	DL_test	24			0		ka	1	788	6	1	antiphase_hc_iso.wav	2	6	3	noise_calib_stim_LEFT.wav	1	16	blb_dichoticlistening_ga-ka.mp3	ga	ka	1	right
6.6.1	win	2023-06-27	20:46:59	0	0	5fcd709227fabfc6ca7a969e	1	1	DL_test	14	DL_test	25			0		pa	1	851	6	1	antiphase_hc_iso.wav	2	6	3	noise_calib_stim_LEFT.wav	1	23	blb_dichoticlistening_ka-pa.mp3	ka	pa	1	right
6.6.1	win	2023-06-27	20:46:59	0	0	5fcd709227fabfc6ca7a969e	1	1	DL_test	14	DL_test	26			0		ta	1	897	6	1	antiphase_hc_iso.wav	2	6	3	noise_calib_stim_LEFT.wav	1	36	blb_dichoticlistening_ta-ta.mp3	ta	ta	0	left
6.6.1	win	2023-06-27	20:46:59	0	0	5fcd709227fabfc6ca7a969e	1	1	DL_test	14	DL_test	27			0		ga	0	1024	6	1	antiphase_hc_iso.wav	2	6	3	noise_calib_stim_LEFT.wav	1	32	blb_dichoticlistening_ta-da.mp3	ta	da	1	other
6.6.1	win	2023-06-27	20:46:59	0	0	5fcd709227fabfc6ca7a969e	1	1	DL_test	14	DL_test	28			0		pa	1	996	6	1	antiphase_hc_iso.wav	2	6	3	noise_calib_stim_LEFT.wav	1	27	blb_dichoticlistening_pa-ga.mp3	pa	ga	1	left
6.6.1	win	2023-06-27	20:46:59	0	0	5fcd709227fabfc6ca7a969e	1	1	DL_test	14	DL_test	29			0		da	1	1126	6	1	antiphase_hc_iso.wav	2	6	3	noise_calib_stim_LEFT.wav	1	2	blb_dichoticlistening_ba-da.mp3	ba	da	1	right
6.6.1	win	2023-06-27	20:46:59	0	0	5fcd709227fabfc6ca7a969e	1	1	DL_test	14	DL_test	30			0		pa	1	811	6	1	antiphase_hc_iso.wav	2	6	3	noise_calib_stim_LEFT.wav	1	29	blb_dichoticlistening_pa-pa.mp3	pa	pa	0	left
6.6.1	win	2023-06-27	20:46:59	0	0	5fcd709227fabfc6ca7a969e	1	1	DL_test	14	DL_test	31			0		ga	1	803	6	1	antiphase_hc_iso.wav	2	6	3	noise_calib_stim_LEFT.wav	1	15	blb_dichoticlistening_ga-ga.mp3	ga	ga	0	left
6.6.1	win	2023-06-27	20:46:59	0	0	5fcd709227fabfc6ca7a969e	1	1	DL_test	14	DL_test	32			0		pa	1	917	6	1	antiphase_hc_iso.wav	2	6	3	noise_calib_stim_LEFT.wav	1	35	blb_dichoticlistening_ta-pa.mp3	ta	pa	1	right
6.6.1	win	2023-06-27	20:46:59	0	0	5fcd709227fabfc6ca7a969e	1	1	DL_test	14	DL_test	33			0		ka	0	862	6	1	antiphase_hc_iso.wav	2	6	3	noise_calib_stim_LEFT.wav	1	17	blb_dichoticlistening_ga-pa.mp3	ga	pa	1	other
6.6.1	win	2023-06-27	20:46:59	0	0	5fcd709227fabfc6ca7a969e	1	1	DL_test	14	DL_test	34			0		ka	1	818	6	1	antiphase_hc_iso.wav	2	6	3	noise_calib_stim_LEFT.wav	1	4	blb_dichoticlistening_ba-ka.mp3	ba	ka	1	right
6.6.1	win	2023-06-27	20:46:59	0	0	5fcd709227fabfc6ca7a969e	1	1	DL_test	14	DL_test	35			0		pa	1	1362	6	1	antiphase_hc_iso.wav	2	6	3	noise_calib_stim_LEFT.wav	1	5	blb_dichoticlistening_ba-pa.mp3	ba	pa	1	right
6.6.1	win	2023-06-27	20:46:59	0	0	5fcd709227fabfc6ca7a969e	1	1	DL_test	14	DL_test	36			0		ka	1	721	6	1	antiphase_hc_iso.wav	2	6	3	noise_calib_stim_LEFT.wav	1	22	blb_dichoticlistening_ka-ka.mp3	ka	ka	0	left
6.6.1	win	2023-06-27	20:46:59	0	0	5fcd709227fabfc6ca7a969e	1	1	DL_test	15	DL_test	1			0		ka	1	812	6	1	antiphase_hc_iso.wav	2	6	3	noise_calib_stim_LEFT.wav	1	28	blb_dichoticlistening_pa-ka.mp3	pa	ka	1	right
6.6.1	win	2023-06-27	20:46:59	0	0	5fcd709227fabfc6ca7a969e	1	1	DL_test	15	DL_test	2			0		da	1	1221	6	1	antiphase_hc_iso.wav	2	6	3	noise_calib_stim_LEFT.wav	1	14	blb_dichoticlistening_ga-da.mp3	ga	da	1	right
6.6.1	win	2023-06-27	20:46:59	0	0	5fcd709227fabfc6ca7a969e	1	1	DL_test	15	DL_test	3			0		ga	0	1066	6	1	antiphase_hc_iso.wav	2	6	3	noise_calib_stim_LEFT.wav	1	31	blb_dichoticlistening_ta-ba.mp3	ta	ba	1	other
6.6.1	win	2023-06-27	20:46:59	0	0	5fcd709227fabfc6ca7a969e	1	1	DL_test	15	DL_test	4			0		ka	1	835	6	1	antiphase_hc_iso.wav	2	6	3	noise_calib_stim_LEFT.wav	1	21	blb_dichoticlistening_ka-ga.mp3	ka	ga	1	left
6.6.1	win	2023-06-27	20:46:59	0	0	5fcd709227fabfc6ca7a969e	1	1	DL_test	15	DL_test	5			0		da	1	991	6	1	antiphase_hc_iso.wav	2	6	3	noise_calib_stim_LEFT.wav	1	2	blb_dichoticlistening_ba-da.mp3	ba	da	1	right
6.6.1	win	2023-06-27	20:46:59	0	0	5fcd709227fabfc6ca7a969e	1	1	DL_test	15	DL_test	6			0		ta	1	1087	6	1	antiphase_hc_iso.wav	2	6	3	noise_calib_stim_LEFT.wav	1	36	blb_dichoticlistening_ta-ta.mp3	ta	ta	0	left
6.6.1	win	2023-06-27	20:46:59	0	0	5fcd709227fabfc6ca7a969e	1	1	DL_test	15	DL_test	7			0		ba	1	796	6	1	antiphase_hc_iso.wav	2	6	3	noise_calib_stim_LEFT.wav	1	1	blb_dichoticlistening_ba-ba.mp3	ba	ba	0	left
6.6.1	win	2023-06-27	20:46:59	0	0	5fcd709227fabfc6ca7a969e	1	1	DL_test	15	DL_test	8			0		ka	1	651	6	1	antiphase_hc_iso.wav	2	6	3	noise_calib_stim_LEFT.wav	1	22	blb_dichoticlistening_ka-ka.mp3	ka	ka	0	left
6.6.1	win	2023-06-27	20:46:59	0	0	5fcd709227fabfc6ca7a969e	1	1	DL_test	15	DL_test	9			0		pa	1	810	6	1	antiphase_hc_iso.wav	2	6	3	noise_calib_stim_LEFT.wav	1	17	blb_dichoticlistening_ga-pa.mp3	ga	pa	1	right
6.6.1	win	2023-06-27	20:46:59	0	0	5fcd709227fabfc6ca7a969e	1	1	DL_test	15	DL_test	10			0		ka	1	1066	6	1	antiphase_hc_iso.wav	2	6	3	noise_calib_stim_LEFT.wav	1	23	blb_dichoticlistening_ka-pa.mp3	ka	pa	1	left
6.6.1	win	2023-06-27	20:46:59	0	0	5fcd709227fabfc6ca7a969e	1	1	DL_test	15	DL_test	11			0		ka	1	907	6	1	antiphase_hc_iso.wav	2	6	3	noise_calib_stim_LEFT.wav	1	16	blb_dichoticlistening_ga-ka.mp3	ga	ka	1	right
6.6.1	win	2023-06-27	20:46:59	0	0	5fcd709227fabfc6ca7a969e	1	1	DL_test	15	DL_test	12			0		ga	1	948	6	1	antiphase_hc_iso.wav	2	6	3	noise_calib_stim_LEFT.wav	1	33	blb_dichoticlistening_ta-ga.mp3	ta	ga	1	right
6.6.1	win	2023-06-27	20:46:59	0	0	5fcd709227fabfc6ca7a969e	1	1	DL_test	15	DL_test	13			0		ta	1	949	6	1	antiphase_hc_iso.wav	2	6	3	noise_calib_stim_LEFT.wav	1	6	blb_dichoticlistening_ba-ta.mp3	ba	ta	1	right
6.6.1	win	2023-06-27	20:46:59	0	0	5fcd709227fabfc6ca7a969e	1	1	DL_test	15	DL_test	14			0		ga	1	1422	6	1	antiphase_hc_iso.wav	2	6	3	noise_calib_stim_LEFT.wav	1	3	blb_dichoticlistening_ba-ga.mp3	ba	ga	1	right
6.6.1	win	2023-06-27	20:46:59	0	0	5fcd709227fabfc6ca7a969e	1	1	DL_test	15	DL_test	15			0		da	1	1056	6	1	antiphase_hc_iso.wav	2	6	3	noise_calib_stim_LEFT.wav	1	32	blb_dichoticlistening_ta-da.mp3	ta	da	1	right
6.6.1	win	2023-06-27	20:46:59	0	0	5fcd709227fabfc6ca7a969e	1	1	DL_test	15	DL_test	16			0		pa	1	1062	6	1	antiphase_hc_iso.wav	2	6	3	noise_calib_stim_LEFT.wav	1	30	blb_dichoticlistening_pa-ta.mp3	pa	ta	1	left
6.6.1	win	2023-06-27	20:46:59	0	0	5fcd709227fabfc6ca7a969e	1	1	DL_test	15	DL_test	17			0		ga	0	1564	6	1	antiphase_hc_iso.wav	2	6	3	noise_calib_stim_LEFT.wav	1	19	blb_dichoticlistening_ka-ba.mp3	ka	ba	1	other
6.6.1	win	2023-06-27	20:46:59	0	0	5fcd709227fabfc6ca7a969e	1	1	DL_test	15	DL_test	18			0		pa	1	808	6	1	antiphase_hc_iso.wav	2	6	3	noise_calib_stim_LEFT.wav	1	29	blb_dichoticlistening_pa-pa.mp3	pa	pa	0	left
6.6.1	win	2023-06-27	20:46:59	0	0	5fcd709227fabfc6ca7a969e	1	1	DL_test	15	DL_test	19			0		pa	1	934	6	1	antiphase_hc_iso.wav	2	6	3	noise_calib_stim_LEFT.wav	1	5	blb_dichoticlistening_ba-pa.mp3	ba	pa	1	right
6.6.1	win	2023-06-27	20:46:59	0	0	5fcd709227fabfc6ca7a969e	1	1	DL_test	15	DL_test	20			0		da	1	983	6	1	antiphase_hc_iso.wav	2	6	3	noise_calib_stim_LEFT.wav	1	12	blb_dichoticlistening_da-ta.mp3	da	ta	1	left
6.6.1	win	2023-06-27	20:46:59	0	0	5fcd709227fabfc6ca7a969e	1	1	DL_test	15	DL_test	21			0		pa	0	1076	6	1	antiphase_hc_iso.wav	2	6	3	noise_calib_stim_LEFT.wav	1	10	blb_dichoticlistening_da-ka.mp3	da	ka	1	other
6.6.1	win	2023-06-27	20:46:59	0	0	5fcd709227fabfc6ca7a969e	1	1	DL_test	15	DL_test	22			0		da	1	995	6	1	antiphase_hc_iso.wav	2	6	3	noise_calib_stim_LEFT.wav	1	8	blb_dichoticlistening_da-da.mp3	da	da	0	left
6.6.1	win	2023-06-27	20:46:59	0	0	5fcd709227fabfc6ca7a969e	1	1	DL_test	15	DL_test	23			0		pa	1	829	6	1	antiphase_hc_iso.wav	2	6	3	noise_calib_stim_LEFT.wav	1	35	blb_dichoticlistening_ta-pa.mp3	ta	pa	1	right
6.6.1	win	2023-06-27	20:46:59	0	0	5fcd709227fabfc6ca7a969e	1	1	DL_test	15	DL_test	24			0		ga	0	1196	6	1	antiphase_hc_iso.wav	2	6	3	noise_calib_stim_LEFT.wav	1	11	blb_dichoticlistening_da-pa.mp3	da	pa	1	other
6.6.1	win	2023-06-27	20:46:59	0	0	5fcd709227fabfc6ca7a969e	1	1	DL_test	15	DL_test	25			0		ka	1	974	6	1	antiphase_hc_iso.wav	2	6	3	noise_calib_stim_LEFT.wav	1	4	blb_dichoticlistening_ba-ka.mp3	ba	ka	1	right
6.6.1	win	2023-06-27	20:46:59	0	0	5fcd709227fabfc6ca7a969e	1	1	DL_test	15	DL_test	26			0		ga	0	1218	6	1	antiphase_hc_iso.wav	2	6	3	noise_calib_stim_LEFT.wav	1	20	blb_dichoticlistening_ka-da.mp3	ka	da	1	other
6.6.1	win	2023-06-27	20:46:59	0	0	5fcd709227fabfc6ca7a969e	1	1	DL_test	15	DL_test	27			0		ka	1	831	6	1	antiphase_hc_iso.wav	2	6	3	noise_calib_stim_LEFT.wav	1	24	blb_dichoticlistening_ka-ta.mp3	ka	ta	1	left
6.6.1	win	2023-06-27	20:46:59	0	0	5fcd709227fabfc6ca7a969e	1	1	DL_test	15	DL_test	28			0		ga	1	1341	6	1	antiphase_hc_iso.wav	2	6	3	noise_calib_stim_LEFT.wav	1	15	blb_dichoticlistening_ga-ga.mp3	ga	ga	0	left
6.6.1	win	2023-06-27	20:46:59	0	0	5fcd709227fabfc6ca7a969e	1	1	DL_test	15	DL_test	29			0		ka	1	987	6	1	antiphase_hc_iso.wav	2	6	3	noise_calib_stim_LEFT.wav	1	34	blb_dichoticlistening_ta-ka.mp3	ta	ka	1	right
6.6.1	win	2023-06-27	20:46:59	0	0	5fcd709227fabfc6ca7a969e	1	1	DL_test	15	DL_test	30			0		pa	1	884	6	1	antiphase_hc_iso.wav	2	6	3	noise_calib_stim_LEFT.wav	1	25	blb_dichoticlistening_pa-ba.mp3	pa	ba	1	left
6.6.1	win	2023-06-27	20:46:59	0	0	5fcd709227fabfc6ca7a969e	1	1	DL_test	15	DL_test	31			0		ga	1	1574	6	1	antiphase_hc_iso.wav	2	6	3	noise_calib_stim_LEFT.wav	1	27	blb_dichoticlistening_pa-ga.mp3	pa	ga	1	right
6.6.1	win	2023-06-27	20:46:59	0	0	5fcd709227fabfc6ca7a969e	1	1	DL_test	15	DL_test	32			0		da	1	1511	6	1	antiphase_hc_iso.wav	2	6	3	noise_calib_stim_LEFT.wav	1	9	blb_dichoticlistening_da-ga.mp3	da	ga	1	left
6.6.1	win	2023-06-27	20:46:59	0	0	5fcd709227fabfc6ca7a969e	1	1	DL_test	15	DL_test	33			0		pa	1	1483	6	1	antiphase_hc_iso.wav	2	6	3	noise_calib_stim_LEFT.wav	1	26	blb_dichoticlistening_pa-da.mp3	pa	da	1	left
6.6.1	win	2023-06-27	20:46:59	0	0	5fcd709227fabfc6ca7a969e	1	1	DL_test	15	DL_test	34			0		ga	1	973	6	1	antiphase_hc_iso.wav	2	6	3	noise_calib_stim_LEFT.wav	1	18	blb_dichoticlistening_ga-ta.mp3	ga	ta	1	left
6.6.1	win	2023-06-27	20:46:59	0	0	5fcd709227fabfc6ca7a969e	1	1	DL_test	15	DL_test	35			0		da	1	1214	6	1	antiphase_hc_iso.wav	2	6	3	noise_calib_stim_LEFT.wav	1	7	blb_dichoticlistening_da-ba.mp3	da	ba	1	left
6.6.1	win	2023-06-27	20:46:59	0	0	5fcd709227fabfc6ca7a969e	1	1	DL_test	15	DL_test	36			0		ba	1	2358	6	1	antiphase_hc_iso.wav	2	6	3	noise_calib_stim_LEFT.wav	1	13	blb_dichoticlistening_ga-ba.mp3	ga	ba	1	right
6.6.1	win	2023-06-27	20:46:59	0	0	5fcd709227fabfc6ca7a969e	1	1	DL_test	16	DL_test	1			0		ka	1	962	6	1	antiphase_hc_iso.wav	2	6	3	noise_calib_stim_LEFT.wav	1	20	blb_dichoticlistening_ka-da.mp3	ka	da	1	left
6.6.1	win	2023-06-27	20:46:59	0	0	5fcd709227fabfc6ca7a969e	1	1	DL_test	16	DL_test	2			0		da	1	906	6	1	antiphase_hc_iso.wav	2	6	3	noise_calib_stim_LEFT.wav	1	14	blb_dichoticlistening_ga-da.mp3	ga	da	1	right
6.6.1	win	2023-06-27	20:46:59	0	0	5fcd709227fabfc6ca7a969e	1	1	DL_test	16	DL_test	3			0		pa	1	1109	6	1	antiphase_hc_iso.wav	2	6	3	noise_calib_stim_LEFT.wav	1	26	blb_dichoticlistening_pa-da.mp3	pa	da	1	left
6.6.1	win	2023-06-27	20:46:59	0	0	5fcd709227fabfc6ca7a969e	1	1	DL_test	16	DL_test	4			0		ka	1	750	6	1	antiphase_hc_iso.wav	2	6	3	noise_calib_stim_LEFT.wav	1	19	blb_dichoticlistening_ka-ba.mp3	ka	ba	1	left
6.6.1	win	2023-06-27	20:46:59	0	0	5fcd709227fabfc6ca7a969e	1	1	DL_test	16	DL_test	5			0		ga	0	2135	6	1	antiphase_hc_iso.wav	2	6	3	noise_calib_stim_LEFT.wav	1	6	blb_dichoticlistening_ba-ta.mp3	ba	ta	1	other
6.6.1	win	2023-06-27	20:46:59	0	0	5fcd709227fabfc6ca7a969e	1	1	DL_test	16	DL_test	6			0		da	1	886	6	1	antiphase_hc_iso.wav	2	6	3	noise_calib_stim_LEFT.wav	1	7	blb_dichoticlistening_da-ba.mp3	da	ba	1	left
6.6.1	win	2023-06-27	20:46:59	0	0	5fcd709227fabfc6ca7a969e	1	1	DL_test	16	DL_test	7			0		ga	1	738	6	1	antiphase_hc_iso.wav	2	6	3	noise_calib_stim_LEFT.wav	1	15	blb_dichoticlistening_ga-ga.mp3	ga	ga	0	left
6.6.1	win	2023-06-27	20:46:59	0	0	5fcd709227fabfc6ca7a969e	1	1	DL_test	16	DL_test	8			0		ba	1	1143	6	1	antiphase_hc_iso.wav	2	6	3	noise_calib_stim_LEFT.wav	1	3	blb_dichoticlistening_ba-ga.mp3	ba	ga	1	left
6.6.1	win	2023-06-27	20:46:59	0	0	5fcd709227fabfc6ca7a969e	1	1	DL_test	16	DL_test	9			0		da	0	946	6	1	antiphase_hc_iso.wav	2	6	3	noise_calib_stim_LEFT.wav	1	13	blb_dichoticlistening_ga-ba.mp3	ga	ba	1	other
6.6.1	win	2023-06-27	20:46:59	0	0	5fcd709227fabfc6ca7a969e	1	1	DL_test	16	DL_test	10			0		ta	1	1055	6	1	antiphase_hc_iso.wav	2	6	3	noise_calib_stim_LEFT.wav	1	30	blb_dichoticlistening_pa-ta.mp3	pa	ta	1	right
6.6.1	win	2023-06-27	20:46:59	0	0	5fcd709227fabfc6ca7a969e	1	1	DL_test	16	DL_test	11			0		pa	1	920	6	1	antiphase_hc_iso.wav	2	6	3	noise_calib_stim_LEFT.wav	1	23	blb_dichoticlistening_ka-pa.mp3	ka	pa	1	right
6.6.1	win	2023-06-27	20:46:59	0	0	5fcd709227fabfc6ca7a969e	1	1	DL_test	16	DL_test	12			0		ka	1	980	6	1	antiphase_hc_iso.wav	2	6	3	noise_calib_stim_LEFT.wav	1	21	blb_dichoticlistening_ka-ga.mp3	ka	ga	1	left
6.6.1	win	2023-06-27	20:46:59	0	0	5fcd709227fabfc6ca7a969e	1	1	DL_test	16	DL_test	13			0		da	0	1030	6	1	antiphase_hc_iso.wav	2	6	3	noise_calib_stim_LEFT.wav	1	18	blb_dichoticlistening_ga-ta.mp3	ga	ta	1	other
6.6.1	win	2023-06-27	20:46:59	0	0	5fcd709227fabfc6ca7a969e	1	1	DL_test	16	DL_test	14			0		ka	1	947	6	1	antiphase_hc_iso.wav	2	6	3	noise_calib_stim_LEFT.wav	1	34	blb_dichoticlistening_ta-ka.mp3	ta	ka	1	right
6.6.1	win	2023-06-27	20:46:59	0	0	5fcd709227fabfc6ca7a969e	1	1	DL_test	16	DL_test	15			0		da	1	986	6	1	antiphase_hc_iso.wav	2	6	3	noise_calib_stim_LEFT.wav	1	8	blb_dichoticlistening_da-da.mp3	da	da	0	left
6.6.1	win	2023-06-27	20:46:59	0	0	5fcd709227fabfc6ca7a969e	1	1	DL_test	16	DL_test	16			0		ga	1	844	6	1	antiphase_hc_iso.wav	2	6	3	noise_calib_stim_LEFT.wav	1	9	blb_dichoticlistening_da-ga.mp3	da	ga	1	right
6.6.1	win	2023-06-27	20:46:59	0	0	5fcd709227fabfc6ca7a969e	1	1	DL_test	16	DL_test	17			0		pa	1	717	6	1	antiphase_hc_iso.wav	2	6	3	noise_calib_stim_LEFT.wav	1	35	blb_dichoticlistening_ta-pa.mp3	ta	pa	1	right
6.6.1	win	2023-06-27	20:46:59	0	0	5fcd709227fabfc6ca7a969e	1	1	DL_test	16	DL_test	18			0		ka	0	1056	6	1	antiphase_hc_iso.wav	2	6	3	noise_calib_stim_LEFT.wav	1	31	blb_dichoticlistening_ta-ba.mp3	ta	ba	1	other
6.6.1	win	2023-06-27	20:46:59	0	0	5fcd709227fabfc6ca7a969e	1	1	DL_test	16	DL_test	19			0		ka	1	802	6	1	antiphase_hc_iso.wav	2	6	3	noise_calib_stim_LEFT.wav	1	22	blb_dichoticlistening_ka-ka.mp3	ka	ka	0	left
6.6.1	win	2023-06-27	20:46:59	0	0	5fcd709227fabfc6ca7a969e	1	1	DL_test	16	DL_test	20			0		pa	1	806	6	1	antiphase_hc_iso.wav	2	6	3	noise_calib_stim_LEFT.wav	1	29	blb_dichoticlistening_pa-pa.mp3	pa	pa	0	left
6.6.1	win	2023-06-27	20:46:59	0	0	5fcd709227fabfc6ca7a969e	1	1	DL_test	16	DL_test	21			0		ka	1	906	6	1	antiphase_hc_iso.wav	2	6	3	noise_calib_stim_LEFT.wav	1	24	blb_dichoticlistening_ka-ta.mp3	ka	ta	1	left
6.6.1	win	2023-06-27	20:46:59	0	0	5fcd709227fabfc6ca7a969e	1	1	DL_test	16	DL_test	22			0		ba	1	1221	6	1	antiphase_hc_iso.wav	2	6	3	noise_calib_stim_LEFT.wav	1	25	blb_dichoticlistening_pa-ba.mp3	pa	ba	1	right
6.6.1	win	2023-06-27	20:46:59	0	0	5fcd709227fabfc6ca7a969e	1	1	DL_test	16	DL_test	23			0		ba	1	756	6	1	antiphase_hc_iso.wav	2	6	3	noise_calib_stim_LEFT.wav	1	1	blb_dichoticlistening_ba-ba.mp3	ba	ba	0	left
6.6.1	win	2023-06-27	20:46:59	0	0	5fcd709227fabfc6ca7a969e	1	1	DL_test	16	DL_test	24			0		da	1	1395	6	1	antiphase_hc_iso.wav	2	6	3	noise_calib_stim_LEFT.wav	1	32	blb_dichoticlistening_ta-da.mp3	ta	da	1	right
6.6.1	win	2023-06-27	20:46:59	0	0	5fcd709227fabfc6ca7a969e	1	1	DL_test	16	DL_test	25			0		ta	1	1431	6	1	antiphase_hc_iso.wav	2	6	3	noise_calib_stim_LEFT.wav	1	36	blb_dichoticlistening_ta-ta.mp3	ta	ta	0	left
6.6.1	win	2023-06-27	20:46:59	0	0	5fcd709227fabfc6ca7a969e	1	1	DL_test	16	DL_test	26			0		ga	1	1339	6	1	antiphase_hc_iso.wav	2	6	3	noise_calib_stim_LEFT.wav	1	33	blb_dichoticlistening_ta-ga.mp3	ta	ga	1	right
6.6.1	win	2023-06-27	20:46:59	0	0	5fcd709227fabfc6ca7a969e	1	1	DL_test	16	DL_test	27			0		pa	1	1465	6	1	antiphase_hc_iso.wav	2	6	3	noise_calib_stim_LEFT.wav	1	27	blb_dichoticlistening_pa-ga.mp3	pa	ga	1	left
6.6.1	win	2023-06-27	20:46:59	0	0	5fcd709227fabfc6ca7a969e	1	1	DL_test	16	DL_test	28			0		da	1	1382	6	1	antiphase_hc_iso.wav	2	6	3	noise_calib_stim_LEFT.wav	1	11	blb_dichoticlistening_da-pa.mp3	da	pa	1	left
6.6.1	win	2023-06-27	20:46:59	0	0	5fcd709227fabfc6ca7a969e	1	1	DL_test	16	DL_test	29			0		pa	1	1076	6	1	antiphase_hc_iso.wav	2	6	3	noise_calib_stim_LEFT.wav	1	17	blb_dichoticlistening_ga-pa.mp3	ga	pa	1	right
6.6.1	win	2023-06-27	20:46:59	0	0	5fcd709227fabfc6ca7a969e	1	1	DL_test	16	DL_test	30			0		da	1	1055	6	1	antiphase_hc_iso.wav	2	6	3	noise_calib_stim_LEFT.wav	1	2	blb_dichoticlistening_ba-da.mp3	ba	da	1	right
6.6.1	win	2023-06-27	20:46:59	0	0	5fcd709227fabfc6ca7a969e	1	1	DL_test	16	DL_test	31			0		ta	1	1312	6	1	antiphase_hc_iso.wav	2	6	3	noise_calib_stim_LEFT.wav	1	12	blb_dichoticlistening_da-ta.mp3	da	ta	1	right
6.6.1	win	2023-06-27	20:46:59	0	0	5fcd709227fabfc6ca7a969e	1	1	DL_test	16	DL_test	32			0		ka	1	710	6	1	antiphase_hc_iso.wav	2	6	3	noise_calib_stim_LEFT.wav	1	28	blb_dichoticlistening_pa-ka.mp3	pa	ka	1	right
6.6.1	win	2023-06-27	20:46:59	0	0	5fcd709227fabfc6ca7a969e	1	1	DL_test	16	DL_test	33			0		ka	1	1595	6	1	antiphase_hc_iso.wav	2	6	3	noise_calib_stim_LEFT.wav	1	16	blb_dichoticlistening_ga-ka.mp3	ga	ka	1	right
6.6.1	win	2023-06-27	20:46:59	0	0	5fcd709227fabfc6ca7a969e	1	1	DL_test	16	DL_test	34			0		pa	1	647	6	1	antiphase_hc_iso.wav	2	6	3	noise_calib_stim_LEFT.wav	1	5	blb_dichoticlistening_ba-pa.mp3	ba	pa	1	right
6.6.1	win	2023-06-27	20:46:59	0	0	5fcd709227fabfc6ca7a969e	1	1	DL_test	16	DL_test	35			0		pa	0	1674	6	1	antiphase_hc_iso.wav	2	6	3	noise_calib_stim_LEFT.wav	1	10	blb_dichoticlistening_da-ka.mp3	da	ka	1	other
6.6.1	win	2023-06-27	20:46:59	0	0	5fcd709227fabfc6ca7a969e	1	1	DL_test	16	DL_test	36			0		ka	1	776	6	1	antiphase_hc_iso.wav	2	6	3	noise_calib_stim_LEFT.wav	1	4	blb_dichoticlistening_ba-ka.mp3	ba	ka	1	right
6.6.1	win	2023-06-27	20:46:59	20:56:33	569950	5fcd709227fabfc6ca7a969e	1	1	practice_slash	22	practice_slash	1	stimuli_distractor_diamondtriangles.svg	stimuli_target_diamondrectangles.svg	8	yes	53	1	977	6	1	antiphase_hc_iso.wav	2	6	3	noise_calib_stim_LEFT.wav	1	4	blb_dichoticlistening_ba-ka.mp3	ba	ka	1	right
6.6.1	win	2023-06-27	20:46:59	20:56:33	569950	5fcd709227fabfc6ca7a969e	1	1	practice_slash	22	advance_on_keypress_SLASH	2	stimuli_distractor_diamondtriangles.svg	stimuli_target_diamondrectangles.svg	8	yes	57	0	1618	6	1	antiphase_hc_iso.wav	2	6	3	noise_calib_stim_LEFT.wav	1	4	blb_dichoticlistening_ba-ka.mp3	ba	ka	1	right
6.6.1	win	2023-06-27	20:46:59	20:56:38	575190	5fcd709227fabfc6ca7a969e	1	1	practice_slash	22	practice_slash	3	stimuli_distractor_trianglediamonds.svg	stimuli_distractor_trianglediamonds.svg	15	no	0	1	2003	6	1	antiphase_hc_iso.wav	2	6	3	noise_calib_stim_LEFT.wav	1	4	blb_dichoticlistening_ba-ka.mp3	ba	ka	1	right
6.6.1	win	2023-06-27	20:46:59	20:56:38	575190	5fcd709227fabfc6ca7a969e	1	1	practice_slash	22	advance_on_keypress_SLASH	4	stimuli_distractor_trianglediamonds.svg	stimuli_distractor_trianglediamonds.svg	15	no	57	0	746	6	1	antiphase_hc_iso.wav	2	6	3	noise_calib_stim_LEFT.wav	1	4	blb_dichoticlistening_ba-ka.mp3	ba	ka	1	right
6.6.1	win	2023-06-27	20:46:59	20:56:41	578034	5fcd709227fabfc6ca7a969e	1	1	practice_slash	22	practice_slash	5	stimuli_target_squarediamonds.svg	stimuli_distractor_diamondtriangles.svg	2	yes	53	1	477	6	1	antiphase_hc_iso.wav	2	6	3	noise_calib_stim_LEFT.wav	1	4	blb_dichoticlistening_ba-ka.mp3	ba	ka	1	right
6.6.1	win	2023-06-27	20:46:59	20:56:41	578034	5fcd709227fabfc6ca7a969e	1	1	practice_slash	22	advance_on_keypress_SLASH	6	stimuli_target_squarediamonds.svg	stimuli_distractor_diamondtriangles.svg	2	yes	57	0	491	6	1	antiphase_hc_iso.wav	2	6	3	noise_calib_stim_LEFT.wav	1	4	blb_dichoticlistening_ba-ka.mp3	ba	ka	1	right
6.6.1	win	2023-06-27	20:46:59	20:56:43	580639	5fcd709227fabfc6ca7a969e	1	1	practice_slash	22	practice_slash	7	stimuli_target_rectanglediamonds.svg	stimuli_distractor_trianglediamonds.svg	4	yes	53	1	492	6	1	antiphase_hc_iso.wav	2	6	3	noise_calib_stim_LEFT.wav	1	4	blb_dichoticlistening_ba-ka.mp3	ba	ka	1	right
6.6.1	win	2023-06-27	20:46:59	20:56:43	580639	5fcd709227fabfc6ca7a969e	1	1	practice_slash	22	advance_on_keypress_SLASH	8	stimuli_target_rectanglediamonds.svg	stimuli_distractor_trianglediamonds.svg	4	yes	57	0	481	6	1	antiphase_hc_iso.wav	2	6	3	noise_calib_stim_LEFT.wav	1	4	blb_dichoticlistening_ba-ka.mp3	ba	ka	1	right
6.6.1	win	2023-06-27	20:46:59	20:56:46	583193	5fcd709227fabfc6ca7a969e	1	1	practice_slash	22	practice_slash	9	stimuli_distractor_diamondtriangles.svg	stimuli_target_rectangletriangles.svg	7	yes	53	1	450	6	1	antiphase_hc_iso.wav	2	6	3	noise_calib_stim_LEFT.wav	1	4	blb_dichoticlistening_ba-ka.mp3	ba	ka	1	right
6.6.1	win	2023-06-27	20:46:59	20:56:46	583193	5fcd709227fabfc6ca7a969e	1	1	practice_slash	22	advance_on_keypress_SLASH	10	stimuli_distractor_diamondtriangles.svg	stimuli_target_rectangletriangles.svg	7	yes	57	0	447	6	1	antiphase_hc_iso.wav	2	6	3	noise_calib_stim_LEFT.wav	1	4	blb_dichoticlistening_ba-ka.mp3	ba	ka	1	right
6.6.1	win	2023-06-27	20:46:59	20:56:50	587261	5fcd709227fabfc6ca7a969e	1	1	practice_slash	22	practice_slash	11	stimuli_distractor_diamondtriangles.svg	stimuli_distractor_trianglediamonds.svg	14	no	0	1	2003	6	1	antiphase_hc_iso.wav	2	6	3	noise_calib_stim_LEFT.wav	1	4	blb_dichoticlistening_ba-ka.mp3	ba	ka	1	right
6.6.1	win	2023-06-27	20:46:59	20:56:50	587261	5fcd709227fabfc6ca7a969e	1	1	practice_slash	22	advance_on_keypress_SLASH	12	stimuli_distractor_diamondtriangles.svg	stimuli_distractor_trianglediamonds.svg	14	no	57	0	461	6	1	antiphase_hc_iso.wav	2	6	3	noise_calib_stim_LEFT.wav	1	4	blb_dichoticlistening_ba-ka.mp3	ba	ka	1	right
6.6.1	win	2023-06-27	20:46:59	20:56:53	589842	5fcd709227fabfc6ca7a969e	1	1	practice_slash	22	practice_slash	13	stimuli_distractor_diamondtriangles.svg	stimuli_target_trianglerectangles.svg	9	yes	53	1	494	6	1	antiphase_hc_iso.wav	2	6	3	noise_calib_stim_LEFT.wav	1	4	blb_dichoticlistening_ba-ka.mp3	ba	ka	1	right
6.6.1	win	2023-06-27	20:46:59	20:56:53	589842	5fcd709227fabfc6ca7a969e	1	1	practice_slash	22	advance_on_keypress_SLASH	14	stimuli_distractor_diamondtriangles.svg	stimuli_target_trianglerectangles.svg	9	yes	57	0	551	6	1	antiphase_hc_iso.wav	2	6	3	noise_calib_stim_LEFT.wav	1	4	blb_dichoticlistening_ba-ka.mp3	ba	ka	1	right
6.6.1	win	2023-06-27	20:46:59	20:56:57	594011	5fcd709227fabfc6ca7a969e	1	1	practice_slash	22	practice_slash	15	stimuli_distractor_diamondtriangles.svg	stimuli_distractor_diamondtriangles.svg	13	no	0	1	2003	6	1	antiphase_hc_iso.wav	2	6	3	noise_calib_stim_LEFT.wav	1	4	blb_dichoticlistening_ba-ka.mp3	ba	ka	1	right
6.6.1	win	2023-06-27	20:46:59	20:56:57	594011	5fcd709227fabfc6ca7a969e	1	1	practice_slash	22	advance_on_keypress_SLASH	16	stimuli_distractor_diamondtriangles.svg	stimuli_distractor_diamondtriangles.svg	13	no	57	0	298	6	1	antiphase_hc_iso.wav	2	6	3	noise_calib_stim_LEFT.wav	1	4	blb_dichoticlistening_ba-ka.mp3	ba	ka	1	right
6.6.1	win	2023-06-27	20:46:59	20:56:59	596353	5fcd709227fabfc6ca7a969e	1	1	practice_slash	22	practice_slash	17	stimuli_target_squarediamonds.svg	stimuli_distractor_trianglediamonds.svg	5	yes	53	1	416	6	1	antiphase_hc_iso.wav	2	6	3	noise_calib_stim_LEFT.wav	1	4	blb_dichoticlistening_ba-ka.mp3	ba	ka	1	right
6.6.1	win	2023-06-27	20:46:59	20:56:59	596353	5fcd709227fabfc6ca7a969e	1	1	practice_slash	22	advance_on_keypress_SLASH	18	stimuli_target_squarediamonds.svg	stimuli_distractor_trianglediamonds.svg	5	yes	57	0	434	6	1	antiphase_hc_iso.wav	2	6	3	noise_calib_stim_LEFT.wav	1	4	blb_dichoticlistening_ba-ka.mp3	ba	ka	1	right
6.6.1	win	2023-06-27	20:46:59	20:57:02	599051	5fcd709227fabfc6ca7a969e	1	1	practice_slash	22	practice_slash	19	stimuli_distractor_trianglediamonds.svg	stimuli_target_rectanglediamonds.svg	10	yes	53	1	649	6	1	antiphase_hc_iso.wav	2	6	3	noise_calib_stim_LEFT.wav	1	4	blb_dichoticlistening_ba-ka.mp3	ba	ka	1	right
6.6.1	win	2023-06-27	20:46:59	20:57:02	599051	5fcd709227fabfc6ca7a969e	1	1	practice_slash	22	advance_on_keypress_SLASH	20	stimuli_distractor_trianglediamonds.svg	stimuli_target_rectanglediamonds.svg	10	yes	57	0	435	6	1	antiphase_hc_iso.wav	2	6	3	noise_calib_stim_LEFT.wav	1	4	blb_dichoticlistening_ba-ka.mp3	ba	ka	1	right
6.6.1	win	2023-06-27	20:46:59	20:57:04	601536	5fcd709227fabfc6ca7a969e	1	1	practice_slash	22	practice_slash	21	stimuli_target_rectanglediamonds.svg	stimuli_distractor_diamondtriangles.svg	1	yes	53	1	432	6	1	antiphase_hc_iso.wav	2	6	3	noise_calib_stim_LEFT.wav	1	4	blb_dichoticlistening_ba-ka.mp3	ba	ka	1	right
6.6.1	win	2023-06-27	20:46:59	20:57:04	601536	5fcd709227fabfc6ca7a969e	1	1	practice_slash	22	advance_on_keypress_SLASH	22	stimuli_target_rectanglediamonds.svg	stimuli_distractor_diamondtriangles.svg	1	yes	57	0	513	6	1	antiphase_hc_iso.wav	2	6	3	noise_calib_stim_LEFT.wav	1	4	blb_dichoticlistening_ba-ka.mp3	ba	ka	1	right
6.6.1	win	2023-06-27	20:46:59	20:57:07	604225	5fcd709227fabfc6ca7a969e	1	1	practice_slash	22	practice_slash	23	stimuli_target_diamondsquares.svg	stimuli_distractor_diamondtriangles.svg	3	yes	53	1	559	6	1	antiphase_hc_iso.wav	2	6	3	noise_calib_stim_LEFT.wav	1	4	blb_dichoticlistening_ba-ka.mp3	ba	ka	1	right
6.6.1	win	2023-06-27	20:46:59	20:57:07	604225	5fcd709227fabfc6ca7a969e	1	1	practice_slash	22	advance_on_keypress_SLASH	24	stimuli_target_diamondsquares.svg	stimuli_distractor_diamondtriangles.svg	3	yes	57	0	495	6	1	antiphase_hc_iso.wav	2	6	3	noise_calib_stim_LEFT.wav	1	4	blb_dichoticlistening_ba-ka.mp3	ba	ka	1	right
6.6.1	win	2023-06-27	20:46:59	20:57:10	606796	5fcd709227fabfc6ca7a969e	1	1	practice_slash	22	practice_slash	25	stimuli_distractor_trianglediamonds.svg	stimuli_target_squarediamonds.svg	11	yes	53	1	455	6	1	antiphase_hc_iso.wav	2	6	3	noise_calib_stim_LEFT.wav	1	4	blb_dichoticlistening_ba-ka.mp3	ba	ka	1	right
6.6.1	win	2023-06-27	20:46:59	20:57:10	606796	5fcd709227fabfc6ca7a969e	1	1	practice_slash	22	advance_on_keypress_SLASH	26	stimuli_distractor_trianglediamonds.svg	stimuli_target_squarediamonds.svg	11	yes	57	0	384	6	1	antiphase_hc_iso.wav	2	6	3	noise_calib_stim_LEFT.wav	1	4	blb_dichoticlistening_ba-ka.mp3	ba	ka	1	right
6.6.1	win	2023-06-27	20:46:59	20:57:14	610802	5fcd709227fabfc6ca7a969e	1	1	practice_slash	22	practice_slash	27	stimuli_distractor_trianglediamonds.svg	stimuli_target_diamondrectangles.svg	12	yes	0	0	2003	6	1	antiphase_hc_iso.wav	2	6	3	noise_calib_stim_LEFT.wav	1	4	blb_dichoticlistening_ba-ka.mp3	ba	ka	1	right
6.6.1	win	2023-06-27	20:46:59	20:57:14	610802	5fcd709227fabfc6ca7a969e	1	1	practice_slash	22	advance_on_keypress_SLASH	28	stimuli_distractor_trianglediamonds.svg	stimuli_target_diamondrectangles.svg	12	yes	57	0	411	6	1	antiphase_hc_iso.wav	2	6	3	noise_calib_stim_LEFT.wav	1	4	blb_dichoticlistening_ba-ka.mp3	ba	ka	1	right
6.6.1	win	2023-06-27	20:46:59	20:57:16	613360	5fcd709227fabfc6ca7a969e	1	1	practice_slash	22	practice_slash	29	stimuli_target_diamondsquares.svg	stimuli_distractor_trianglediamonds.svg	6	yes	53	1	525	6	1	antiphase_hc_iso.wav	2	6	3	noise_calib_stim_LEFT.wav	1	4	blb_dichoticlistening_ba-ka.mp3	ba	ka	1	right
6.6.1	win	2023-06-27	20:46:59	20:57:16	613360	5fcd709227fabfc6ca7a969e	1	1	practice_slash	22	advance_on_keypress_SLASH	30	stimuli_target_diamondsquares.svg	stimuli_distractor_trianglediamonds.svg	6	yes	57	0	380	6	1	antiphase_hc_iso.wav	2	6	3	noise_calib_stim_LEFT.wav	1	4	blb_dichoticlistening_ba-ka.mp3	ba	ka	1	right
6.6.1	win	2023-06-27	20:46:59	20:57:20	617364	5fcd709227fabfc6ca7a969e	1	1	practice_slash	22	practice_slash	31	stimuli_distractor_trianglediamonds.svg	stimuli_distractor_diamondtriangles.svg	16	no	0	1	2003	6	1	antiphase_hc_iso.wav	2	6	3	noise_calib_stim_LEFT.wav	1	4	blb_dichoticlistening_ba-ka.mp3	ba	ka	1	right
6.6.1	win	2023-06-27	20:46:59	20:57:20	617364	5fcd709227fabfc6ca7a969e	1	1	practice_slash	22	advance_on_keypress_SLASH	32	stimuli_distractor_trianglediamonds.svg	stimuli_distractor_diamondtriangles.svg	16	no	57	0	282	6	1	antiphase_hc_iso.wav	2	6	3	noise_calib_stim_LEFT.wav	1	4	blb_dichoticlistening_ba-ka.mp3	ba	ka	1	right
6.6.1	win	2023-06-27	20:46:59	20:57:26	623161	5fcd709227fabfc6ca7a969e	1	1	main_slash	24	main_slash	1	stimuli_distractor_trianglediamonds.svg	stimuli_target_trianglerectangles.svg	25	yes	53	1	455	6	1	antiphase_hc_iso.wav	2	6	3	noise_calib_stim_LEFT.wav	1	4	blb_dichoticlistening_ba-ka.mp3	ba	ka	1	right
6.6.1	win	2023-06-27	20:46:59	20:57:26	623161	5fcd709227fabfc6ca7a969e	1	1	main_slash	24	advance_on_keypress_SLASH	2	stimuli_distractor_trianglediamonds.svg	stimuli_target_trianglerectangles.svg	25	yes	57	0	1217	6	1	antiphase_hc_iso.wav	2	6	3	noise_calib_stim_LEFT.wav	1	4	blb_dichoticlistening_ba-ka.mp3	ba	ka	1	right
6.6.1	win	2023-06-27	20:46:59	20:57:28	625495	5fcd709227fabfc6ca7a969e	1	1	main_slash	24	main_slash	3	stimuli_target_squarediamonds.svg	stimuli_distractor_trianglediamonds.svg	4	yes	53	1	504	6	1	antiphase_hc_iso.wav	2	6	3	noise_calib_stim_LEFT.wav	1	4	blb_dichoticlistening_ba-ka.mp3	ba	ka	1	right
6.6.1	win	2023-06-27	20:46:59	20:57:28	625495	5fcd709227fabfc6ca7a969e	1	1	main_slash	24	advance_on_keypress_SLASH	4	stimuli_target_squarediamonds.svg	stimuli_distractor_trianglediamonds.svg	4	yes	57	0	682	6	1	antiphase_hc_iso.wav	2	6	3	noise_calib_stim_LEFT.wav	1	4	blb_dichoticlistening_ba-ka.mp3	ba	ka	1	right
6.6.1	win	2023-06-27	20:46:59	20:57:30	627431	5fcd709227fabfc6ca7a969e	1	1	main_slash	24	main_slash	5	stimuli_distractor_trianglediamonds.svg	stimuli_target_rectangletriangles.svg	9	yes	53	1	641	6	1	antiphase_hc_iso.wav	2	6	3	noise_calib_stim_LEFT.wav	1	4	blb_dichoticlistening_ba-ka.mp3	ba	ka	1	right
6.6.1	win	2023-06-27	20:46:59	20:57:30	627431	5fcd709227fabfc6ca7a969e	1	1	main_slash	24	advance_on_keypress_SLASH	6	stimuli_distractor_trianglediamonds.svg	stimuli_target_rectangletriangles.svg	9	yes	57	0	571	6	1	antiphase_hc_iso.wav	2	6	3	noise_calib_stim_LEFT.wav	1	4	blb_dichoticlistening_ba-ka.mp3	ba	ka	1	right
6.6.1	win	2023-06-27	20:46:59	20:57:33	630619	5fcd709227fabfc6ca7a969e	1	1	main_slash	24	main_slash	7	stimuli_target_trianglerectangles.svg	stimuli_distractor_diamondtriangles.svg	21	yes	0	0	2003	6	1	antiphase_hc_iso.wav	2	6	3	noise_calib_stim_LEFT.wav	1	4	blb_dichoticlistening_ba-ka.mp3	ba	ka	1	right
6.6.1	win	2023-06-27	20:46:59	20:57:33	630619	5fcd709227fabfc6ca7a969e	1	1	main_slash	24	advance_on_keypress_SLASH	8	stimuli_target_trianglerectangles.svg	stimuli_distractor_diamondtriangles.svg	21	yes	57	0	415	6	1	antiphase_hc_iso.wav	2	6	3	noise_calib_stim_LEFT.wav	1	4	blb_dichoticlistening_ba-ka.mp3	ba	ka	1	right
6.6.1	win	2023-06-27	20:46:59	20:57:36	633654	5fcd709227fabfc6ca7a969e	1	1	main_slash	24	main_slash	9	stimuli_distractor_diamondtriangles.svg	stimuli_distractor_trianglediamonds.svg	37	no	0	1	2003	6	1	antiphase_hc_iso.wav	2	6	3	noise_calib_stim_LEFT.wav	1	4	blb_dichoticlistening_ba-ka.mp3	ba	ka	1	right
6.6.1	win	2023-06-27	20:46:59	20:57:36	633654	5fcd709227fabfc6ca7a969e	1	1	main_slash	24	advance_on_keypress_SLASH	10	stimuli_distractor_diamondtriangles.svg	stimuli_distractor_trianglediamonds.svg	37	no	57	0	400	6	1	antiphase_hc_iso.wav	2	6	3	noise_calib_stim_LEFT.wav	1	4	blb_dichoticlistening_ba-ka.mp3	ba	ka	1	right
6.6.1	win	2023-06-27	20:46:59	20:57:38	635199	5fcd709227fabfc6ca7a969e	1	1	main_slash	24	main_slash	11	stimuli_distractor_diamondtriangles.svg	stimuli_target_squarediamonds.svg	16	yes	53	1	522	6	1	antiphase_hc_iso.wav	2	6	3	noise_calib_stim_LEFT.wav	1	4	blb_dichoticlistening_ba-ka.mp3	ba	ka	1	right
6.6.1	win	2023-06-27	20:46:59	20:57:38	635199	5fcd709227fabfc6ca7a969e	1	1	main_slash	24	advance_on_keypress_SLASH	12	stimuli_distractor_diamondtriangles.svg	stimuli_target_squarediamonds.svg	16	yes	57	0	537	6	1	antiphase_hc_iso.wav	2	6	3	noise_calib_stim_LEFT.wav	1	4	blb_dichoticlistening_ba-ka.mp3	ba	ka	1	right
6.6.1	win	2023-06-27	20:46:59	20:57:40	636799	5fcd709227fabfc6ca7a969e	1	1	main_slash	24	main_slash	13	stimuli_target_rectanglediamonds.svg	stimuli_distractor_diamondtriangles.svg	6	yes	53	1	447	6	1	antiphase_hc_iso.wav	2	6	3	noise_calib_stim_LEFT.wav	1	4	blb_dichoticlistening_ba-ka.mp3	ba	ka	1	right
6.6.1	win	2023-06-27	20:46:59	20:57:40	636799	5fcd709227fabfc6ca7a969e	1	1	main_slash	24	advance_on_keypress_SLASH	14	stimuli_target_rectanglediamonds.svg	stimuli_distractor_diamondtriangles.svg	6	yes	57	0	352	6	1	antiphase_hc_iso.wav	2	6	3	noise_calib_stim_LEFT.wav	1	4	blb_dichoticlistening_ba-ka.mp3	ba	ka	1	right
6.6.1	win	2023-06-27	20:46:59	20:57:43	639772	5fcd709227fabfc6ca7a969e	1	1	main_slash	24	main_slash	15	stimuli_distractor_diamondtriangles.svg	stimuli_distractor_diamondtriangles.svg	40	no	0	1	2003	6	1	antiphase_hc_iso.wav	2	6	3	noise_calib_stim_LEFT.wav	1	4	blb_dichoticlistening_ba-ka.mp3	ba	ka	1	right
6.6.1	win	2023-06-27	20:46:59	20:57:43	639772	5fcd709227fabfc6ca7a969e	1	1	main_slash	24	advance_on_keypress_SLASH	16	stimuli_distractor_diamondtriangles.svg	stimuli_distractor_diamondtriangles.svg	40	no	57	0	293	6	1	antiphase_hc_iso.wav	2	6	3	noise_calib_stim_LEFT.wav	1	4	blb_dichoticlistening_ba-ka.mp3	ba	ka	1	right
6.6.1	win	2023-06-27	20:46:59	20:57:44	641187	5fcd709227fabfc6ca7a969e	1	1	main_slash	24	main_slash	17	stimuli_target_squaretriangles.svg	stimuli_distractor_diamondtriangles.svg	7	yes	53	1	509	6	1	antiphase_hc_iso.wav	2	6	3	noise_calib_stim_LEFT.wav	1	4	blb_dichoticlistening_ba-ka.mp3	ba	ka	1	right
6.6.1	win	2023-06-27	20:46:59	20:57:44	641187	5fcd709227fabfc6ca7a969e	1	1	main_slash	24	advance_on_keypress_SLASH	18	stimuli_target_squaretriangles.svg	stimuli_distractor_diamondtriangles.svg	7	yes	57	0	364	6	1	antiphase_hc_iso.wav	2	6	3	noise_calib_stim_LEFT.wav	1	4	blb_dichoticlistening_ba-ka.mp3	ba	ka	1	right
6.6.1	win	2023-06-27	20:46:59	20:57:45	642582	5fcd709227fabfc6ca7a969e	1	1	main_slash	24	main_slash	19	stimuli_distractor_trianglediamonds.svg	stimuli_target_rectanglediamonds.svg	10	yes	53	1	418	6	1	antiphase_hc_iso.wav	2	6	3	noise_calib_stim_LEFT.wav	1	4	blb_dichoticlistening_ba-ka.mp3	ba	ka	1	right
6.6.1	win	2023-06-27	20:46:59	20:57:45	642582	5fcd709227fabfc6ca7a969e	1	1	main_slash	24	advance_on_keypress_SLASH	20	stimuli_distractor_trianglediamonds.svg	stimuli_target_rectanglediamonds.svg	10	yes	57	0	407	6	1	antiphase_hc_iso.wav	2	6	3	noise_calib_stim_LEFT.wav	1	4	blb_dichoticlistening_ba-ka.mp3	ba	ka	1	right
6.6.1	win	2023-06-27	20:46:59	20:57:47	644609	5fcd709227fabfc6ca7a969e	1	1	main_slash	24	main_slash	21	stimuli_target_trianglesquares.svg	stimuli_distractor_trianglediamonds.svg	18	yes	53	1	1000	6	1	antiphase_hc_iso.wav	2	6	3	noise_calib_stim_LEFT.wav	1	4	blb_dichoticlistening_ba-ka.mp3	ba	ka	1	right
6.6.1	win	2023-06-27	20:46:59	20:57:47	644609	5fcd709227fabfc6ca7a969e	1	1	main_slash	24	advance_on_keypress_SLASH	22	stimuli_target_trianglesquares.svg	stimuli_distractor_trianglediamonds.svg	18	yes	57	0	301	6	1	antiphase_hc_iso.wav	2	6	3	noise_calib_stim_LEFT.wav	1	4	blb_dichoticlistening_ba-ka.mp3	ba	ka	1	right
6.6.1	win	2023-06-27	20:46:59	20:57:49	646161	5fcd709227fabfc6ca7a969e	1	1	main_slash	24	main_slash	23	stimuli_distractor_diamondtriangles.svg	stimuli_target_rectanglediamonds.svg	14	yes	53	1	636	6	1	antiphase_hc_iso.wav	2	6	3	noise_calib_stim_LEFT.wav	1	4	blb_dichoticlistening_ba-ka.mp3	ba	ka	1	right
6.6.1	win	2023-06-27	20:46:59	20:57:49	646161	5fcd709227fabfc6ca7a969e	1	1	main_slash	24	advance_on_keypress_SLASH	24	stimuli_distractor_diamondtriangles.svg	stimuli_target_rectanglediamonds.svg	14	yes	57	0	252	6	1	antiphase_hc_iso.wav	2	6	3	noise_calib_stim_LEFT.wav	1	4	blb_dichoticlistening_ba-ka.mp3	ba	ka	1	right
6.6.1	win	2023-06-27	20:46:59	20:57:50	647674	5fcd709227fabfc6ca7a969e	1	1	main_slash	24	main_slash	25	stimuli_distractor_diamondtriangles.svg	stimuli_target_trianglesquares.svg	30	yes	53	1	649	6	1	antiphase_hc_iso.wav	2	6	3	noise_calib_stim_LEFT.wav	1	4	blb_dichoticlistening_ba-ka.mp3	ba	ka	1	right
6.6.1	win	2023-06-27	20:46:59	20:57:50	647674	5fcd709227fabfc6ca7a969e	1	1	main_slash	24	advance_on_keypress_SLASH	26	stimuli_distractor_diamondtriangles.svg	stimuli_target_trianglesquares.svg	30	yes	57	0	277	6	1	antiphase_hc_iso.wav	2	6	3	noise_calib_stim_LEFT.wav	1	4	blb_dichoticlistening_ba-ka.mp3	ba	ka	1	right
6.6.1	win	2023-06-27	20:46:59	20:57:52	649278	5fcd709227fabfc6ca7a969e	1	1	main_slash	24	main_slash	27	stimuli_target_trianglerectangles.svg	stimuli_distractor_trianglediamonds.svg	17	yes	53	1	711	6	1	antiphase_hc_iso.wav	2	6	3	noise_calib_stim_LEFT.wav	1	4	blb_dichoticlistening_ba-ka.mp3	ba	ka	1	right
6.6.1	win	2023-06-27	20:46:59	20:57:52	649278	5fcd709227fabfc6ca7a969e	1	1	main_slash	24	advance_on_keypress_SLASH	28	stimuli_target_trianglerectangles.svg	stimuli_distractor_trianglediamonds.svg	17	yes	57	0	335	6	1	antiphase_hc_iso.wav	2	6	3	noise_calib_stim_LEFT.wav	1	4	blb_dichoticlistening_ba-ka.mp3	ba	ka	1	right
6.6.1	win	2023-06-27	20:46:59	20:57:54	650877	5fcd709227fabfc6ca7a969e	1	1	main_slash	24	main_slash	29	stimuli_target_rectangletriangles.svg	stimuli_distractor_diamondtriangles.svg	5	yes	53	1	650	6	1	antiphase_hc_iso.wav	2	6	3	noise_calib_stim_LEFT.wav	1	4	blb_dichoticlistening_ba-ka.mp3	ba	ka	1	right
6.6.1	win	2023-06-27	20:46:59	20:57:54	650877	5fcd709227fabfc6ca7a969e	1	1	main_slash	24	advance_on_keypress_SLASH	30	stimuli_target_rectangletriangles.svg	stimuli_distractor_diamondtriangles.svg	5	yes	57	0	218	6	1	antiphase_hc_iso.wav	2	6	3	noise_calib_stim_LEFT.wav	1	4	blb_dichoticlistening_ba-ka.mp3	ba	ka	1	right
6.6.1	win	2023-06-27	20:46:59	20:57:56	653716	5fcd709227fabfc6ca7a969e	1	1	main_slash	24	main_slash	31	stimuli_target_diamondrectangles.svg	stimuli_distractor_diamondtriangles.svg	23	yes	0	0	2003	6	1	antiphase_hc_iso.wav	2	6	3	noise_calib_stim_LEFT.wav	1	4	blb_dichoticlistening_ba-ka.mp3	ba	ka	1	right
6.6.1	win	2023-06-27	20:46:59	20:57:56	653716	5fcd709227fabfc6ca7a969e	1	1	main_slash	24	advance_on_keypress_SLASH	32	stimuli_target_diamondrectangles.svg	stimuli_distractor_diamondtriangles.svg	23	yes	57	0	531	6	1	antiphase_hc_iso.wav	2	6	3	noise_calib_stim_LEFT.wav	1	4	blb_dichoticlistening_ba-ka.mp3	ba	ka	1	right
6.6.1	win	2023-06-27	20:46:59	20:57:58	655327	5fcd709227fabfc6ca7a969e	1	1	main_slash	24	main_slash	33	stimuli_target_rectanglediamonds.svg	stimuli_distractor_trianglediamonds.svg	2	yes	53	1	469	6	1	antiphase_hc_iso.wav	2	6	3	noise_calib_stim_LEFT.wav	1	4	blb_dichoticlistening_ba-ka.mp3	ba	ka	1	right
6.6.1	win	2023-06-27	20:46:59	20:57:58	655327	5fcd709227fabfc6ca7a969e	1	1	main_slash	24	advance_on_keypress_SLASH	34	stimuli_target_rectanglediamonds.svg	stimuli_distractor_trianglediamonds.svg	2	yes	57	0	453	6	1	antiphase_hc_iso.wav	2	6	3	noise_calib_stim_LEFT.wav	1	4	blb_dichoticlistening_ba-ka.mp3	ba	ka	1	right
6.6.1	win	2023-06-27	20:46:59	20:58:00	656959	5fcd709227fabfc6ca7a969e	1	1	main_slash	24	main_slash	35	stimuli_target_trianglesquares.svg	stimuli_distractor_diamondtriangles.svg	22	yes	53	1	566	6	1	antiphase_hc_iso.wav	2	6	3	noise_calib_stim_LEFT.wav	1	4	blb_dichoticlistening_ba-ka.mp3	ba	ka	1	right
6.6.1	win	2023-06-27	20:46:59	20:58:00	656959	5fcd709227fabfc6ca7a969e	1	1	main_slash	24	advance_on_keypress_SLASH	36	stimuli_target_trianglesquares.svg	stimuli_distractor_diamondtriangles.svg	22	yes	57	0	333	6	1	antiphase_hc_iso.wav	2	6	3	noise_calib_stim_LEFT.wav	1	4	blb_dichoticlistening_ba-ka.mp3	ba	ka	1	right
6.6.1	win	2023-06-27	20:46:59	20:58:02	658937	5fcd709227fabfc6ca7a969e	1	1	main_slash	24	main_slash	37	stimuli_target_squaretriangles.svg	stimuli_distractor_trianglediamonds.svg	3	yes	53	1	1029	6	1	antiphase_hc_iso.wav	2	6	3	noise_calib_stim_LEFT.wav	1	4	blb_dichoticlistening_ba-ka.mp3	ba	ka	1	right
6.6.1	win	2023-06-27	20:46:59	20:58:02	658937	5fcd709227fabfc6ca7a969e	1	1	main_slash	24	advance_on_keypress_SLASH	38	stimuli_target_squaretriangles.svg	stimuli_distractor_trianglediamonds.svg	3	yes	57	0	381	6	1	antiphase_hc_iso.wav	2	6	3	noise_calib_stim_LEFT.wav	1	4	blb_dichoticlistening_ba-ka.mp3	ba	ka	1	right
6.6.1	win	2023-06-27	20:46:59	20:58:03	660461	5fcd709227fabfc6ca7a969e	1	1	main_slash	24	main_slash	39	stimuli_target_rectangletriangles.svg	stimuli_distractor_trianglediamonds.svg	1	yes	53	1	525	6	1	antiphase_hc_iso.wav	2	6	3	noise_calib_stim_LEFT.wav	1	4	blb_dichoticlistening_ba-ka.mp3	ba	ka	1	right
6.6.1	win	2023-06-27	20:46:59	20:58:03	660461	5fcd709227fabfc6ca7a969e	1	1	main_slash	24	advance_on_keypress_SLASH	40	stimuli_target_rectangletriangles.svg	stimuli_distractor_trianglediamonds.svg	1	yes	57	0	319	6	1	antiphase_hc_iso.wav	2	6	3	noise_calib_stim_LEFT.wav	1	4	blb_dichoticlistening_ba-ka.mp3	ba	ka	1	right
6.6.1	win	2023-06-27	20:46:59	20:58:05	661837	5fcd709227fabfc6ca7a969e	1	1	main_slash	24	main_slash	41	stimuli_distractor_trianglediamonds.svg	stimuli_target_squarediamonds.svg	12	yes	53	1	437	6	1	antiphase_hc_iso.wav	2	6	3	noise_calib_stim_LEFT.wav	1	4	blb_dichoticlistening_ba-ka.mp3	ba	ka	1	right
6.6.1	win	2023-06-27	20:46:59	20:58:05	661837	5fcd709227fabfc6ca7a969e	1	1	main_slash	24	advance_on_keypress_SLASH	42	stimuli_distractor_trianglediamonds.svg	stimuli_target_squarediamonds.svg	12	yes	57	0	262	6	1	antiphase_hc_iso.wav	2	6	3	noise_calib_stim_LEFT.wav	1	4	blb_dichoticlistening_ba-ka.mp3	ba	ka	1	right
6.6.1	win	2023-06-27	20:46:59	20:58:06	663168	5fcd709227fabfc6ca7a969e	1	1	main_slash	24	main_slash	43	stimuli_target_squarediamonds.svg	stimuli_distractor_diamondtriangles.svg	8	yes	53	1	449	6	1	antiphase_hc_iso.wav	2	6	3	noise_calib_stim_LEFT.wav	1	4	blb_dichoticlistening_ba-ka.mp3	ba	ka	1	right
6.6.1	win	2023-06-27	20:46:59	20:58:06	663168	5fcd709227fabfc6ca7a969e	1	1	main_slash	24	advance_on_keypress_SLASH	44	stimuli_target_squarediamonds.svg	stimuli_distractor_diamondtriangles.svg	8	yes	57	0	254	6	1	antiphase_hc_iso.wav	2	6	3	noise_calib_stim_LEFT.wav	1	4	blb_dichoticlistening_ba-ka.mp3	ba	ka	1	right
6.6.1	win	2023-06-27	20:46:59	20:58:07	664629	5fcd709227fabfc6ca7a969e	1	1	main_slash	24	main_slash	45	stimuli_target_diamondsquares.svg	stimuli_distractor_diamondtriangles.svg	24	yes	53	1	582	6	1	antiphase_hc_iso.wav	2	6	3	noise_calib_stim_LEFT.wav	1	4	blb_dichoticlistening_ba-ka.mp3	ba	ka	1	right
6.6.1	win	2023-06-27	20:46:59	20:58:07	664629	5fcd709227fabfc6ca7a969e	1	1	main_slash	24	advance_on_keypress_SLASH	46	stimuli_target_diamondsquares.svg	stimuli_distractor_diamondtriangles.svg	24	yes	57	0	209	6	1	antiphase_hc_iso.wav	2	6	3	noise_calib_stim_LEFT.wav	1	4	blb_dichoticlistening_ba-ka.mp3	ba	ka	1	right
6.6.1	win	2023-06-27	20:46:59	20:58:10	667459	5fcd709227fabfc6ca7a969e	1	1	main_slash	24	main_slash	47	stimuli_distractor_diamondtriangles.svg	stimuli_distractor_diamondtriangles.svg	39	no	0	1	2003	6	1	antiphase_hc_iso.wav	2	6	3	noise_calib_stim_LEFT.wav	1	4	blb_dichoticlistening_ba-ka.mp3	ba	ka	1	right
6.6.1	win	2023-06-27	20:46:59	20:58:10	667459	5fcd709227fabfc6ca7a969e	1	1	main_slash	24	advance_on_keypress_SLASH	48	stimuli_distractor_diamondtriangles.svg	stimuli_distractor_diamondtriangles.svg	39	no	57	0	435	6	1	antiphase_hc_iso.wav	2	6	3	noise_calib_stim_LEFT.wav	1	4	blb_dichoticlistening_ba-ka.mp3	ba	ka	1	right
6.6.1	win	2023-06-27	20:46:59	20:58:12	669268	5fcd709227fabfc6ca7a969e	1	1	main_slash	24	main_slash	49	stimuli_target_diamondsquares.svg	stimuli_distractor_trianglediamonds.svg	20	yes	53	1	764	6	1	antiphase_hc_iso.wav	2	6	3	noise_calib_stim_LEFT.wav	1	4	blb_dichoticlistening_ba-ka.mp3	ba	ka	1	right
6.6.1	win	2023-06-27	20:46:59	20:58:12	669268	5fcd709227fabfc6ca7a969e	1	1	main_slash	24	advance_on_keypress_SLASH	50	stimuli_target_diamondsquares.svg	stimuli_distractor_trianglediamonds.svg	20	yes	57	0	306	6	1	antiphase_hc_iso.wav	2	6	3	noise_calib_stim_LEFT.wav	1	4	blb_dichoticlistening_ba-ka.mp3	ba	ka	1	right
6.6.1	win	2023-06-27	20:46:59	20:58:14	670856	5fcd709227fabfc6ca7a969e	1	1	main_slash	24	main_slash	51	stimuli_distractor_diamondtriangles.svg	stimuli_target_trianglerectangles.svg	29	yes	53	1	664	6	1	antiphase_hc_iso.wav	2	6	3	noise_calib_stim_LEFT.wav	1	4	blb_dichoticlistening_ba-ka.mp3	ba	ka	1	right
6.6.1	win	2023-06-27	20:46:59	20:58:14	670856	5fcd709227fabfc6ca7a969e	1	1	main_slash	24	advance_on_keypress_SLASH	52	stimuli_distractor_diamondtriangles.svg	stimuli_target_trianglerectangles.svg	29	yes	57	0	181	6	1	antiphase_hc_iso.wav	2	6	3	noise_calib_stim_LEFT.wav	1	4	blb_dichoticlistening_ba-ka.mp3	ba	ka	1	right
6.6.1	win	2023-06-27	20:46:59	20:58:15	672236	5fcd709227fabfc6ca7a969e	1	1	main_slash	24	main_slash	53	stimuli_distractor_trianglediamonds.svg	stimuli_target_diamondsquares.svg	28	yes	53	1	579	6	1	antiphase_hc_iso.wav	2	6	3	noise_calib_stim_LEFT.wav	1	4	blb_dichoticlistening_ba-ka.mp3	ba	ka	1	right
6.6.1	win	2023-06-27	20:46:59	20:58:15	672236	5fcd709227fabfc6ca7a969e	1	1	main_slash	24	advance_on_keypress_SLASH	54	stimuli_distractor_trianglediamonds.svg	stimuli_target_diamondsquares.svg	28	yes	57	0	179	6	1	antiphase_hc_iso.wav	2	6	3	noise_calib_stim_LEFT.wav	1	4	blb_dichoticlistening_ba-ka.mp3	ba	ka	1	right
6.6.1	win	2023-06-27	20:46:59	20:58:17	673727	5fcd709227fabfc6ca7a969e	1	1	main_slash	24	main_slash	55	stimuli_distractor_trianglediamonds.svg	stimuli_target_trianglesquares.svg	26	yes	53	1	695	6	1	antiphase_hc_iso.wav	2	6	3	noise_calib_stim_LEFT.wav	1	4	blb_dichoticlistening_ba-ka.mp3	ba	ka	1	right
6.6.1	win	2023-06-27	20:46:59	20:58:17	673727	5fcd709227fabfc6ca7a969e	1	1	main_slash	24	advance_on_keypress_SLASH	56	stimuli_distractor_trianglediamonds.svg	stimuli_target_trianglesquares.svg	26	yes	57	0	215	6	1	antiphase_hc_iso.wav	2	6	3	noise_calib_stim_LEFT.wav	1	4	blb_dichoticlistening_ba-ka.mp3	ba	ka	1	right
6.6.1	win	2023-06-27	20:46:59	20:58:18	675128	5fcd709227fabfc6ca7a969e	1	1	main_slash	24	main_slash	57	stimuli_distractor_trianglediamonds.svg	stimuli_target_squaretriangles.svg	11	yes	53	1	569	6	1	antiphase_hc_iso.wav	2	6	3	noise_calib_stim_LEFT.wav	1	4	blb_dichoticlistening_ba-ka.mp3	ba	ka	1	right
6.6.1	win	2023-06-27	20:46:59	20:58:18	675128	5fcd709227fabfc6ca7a969e	1	1	main_slash	24	advance_on_keypress_SLASH	58	stimuli_distractor_trianglediamonds.svg	stimuli_target_squaretriangles.svg	11	yes	57	0	207	6	1	antiphase_hc_iso.wav	2	6	3	noise_calib_stim_LEFT.wav	1	4	blb_dichoticlistening_ba-ka.mp3	ba	ka	1	right
6.6.1	win	2023-06-27	20:46:59	20:58:21	677958	5fcd709227fabfc6ca7a969e	1	1	main_slash	24	main_slash	59	stimuli_distractor_trianglediamonds.svg	stimuli_distractor_diamondtriangles.svg	36	no	0	1	2003	6	1	antiphase_hc_iso.wav	2	6	3	noise_calib_stim_LEFT.wav	1	4	blb_dichoticlistening_ba-ka.mp3	ba	ka	1	right
6.6.1	win	2023-06-27	20:46:59	20:58:21	677958	5fcd709227fabfc6ca7a969e	1	1	main_slash	24	advance_on_keypress_SLASH	60	stimuli_distractor_trianglediamonds.svg	stimuli_distractor_diamondtriangles.svg	36	no	57	0	339	6	1	antiphase_hc_iso.wav	2	6	3	noise_calib_stim_LEFT.wav	1	4	blb_dichoticlistening_ba-ka.mp3	ba	ka	1	right
6.6.1	win	2023-06-27	20:46:59	20:58:24	680917	5fcd709227fabfc6ca7a969e	1	1	main_slash	24	main_slash	61	stimuli_distractor_diamondtriangles.svg	stimuli_distractor_trianglediamonds.svg	38	no	0	1	2003	6	1	antiphase_hc_iso.wav	2	6	3	noise_calib_stim_LEFT.wav	1	4	blb_dichoticlistening_ba-ka.mp3	ba	ka	1	right
6.6.1	win	2023-06-27	20:46:59	20:58:24	680917	5fcd709227fabfc6ca7a969e	1	1	main_slash	24	advance_on_keypress_SLASH	62	stimuli_distractor_diamondtriangles.svg	stimuli_distractor_trianglediamonds.svg	38	no	57	0	369	6	1	antiphase_hc_iso.wav	2	6	3	noise_calib_stim_LEFT.wav	1	4	blb_dichoticlistening_ba-ka.mp3	ba	ka	1	right
6.6.1	win	2023-06-27	20:46:59	20:58:25	682349	5fcd709227fabfc6ca7a969e	1	1	main_slash	24	main_slash	63	stimuli_distractor_diamondtriangles.svg	stimuli_target_rectangletriangles.svg	13	yes	53	1	449	6	1	antiphase_hc_iso.wav	2	6	3	noise_calib_stim_LEFT.wav	1	4	blb_dichoticlistening_ba-ka.mp3	ba	ka	1	right
6.6.1	win	2023-06-27	20:46:59	20:58:25	682349	5fcd709227fabfc6ca7a969e	1	1	main_slash	24	advance_on_keypress_SLASH	64	stimuli_distractor_diamondtriangles.svg	stimuli_target_rectangletriangles.svg	13	yes	57	0	251	6	1	antiphase_hc_iso.wav	2	6	3	noise_calib_stim_LEFT.wav	1	4	blb_dichoticlistening_ba-ka.mp3	ba	ka	1	right
6.6.1	win	2023-06-27	20:46:59	20:58:28	685222	5fcd709227fabfc6ca7a969e	1	1	main_slash	24	main_slash	65	stimuli_distractor_trianglediamonds.svg	stimuli_distractor_diamondtriangles.svg	35	no	0	1	2003	6	1	antiphase_hc_iso.wav	2	6	3	noise_calib_stim_LEFT.wav	1	4	blb_dichoticlistening_ba-ka.mp3	ba	ka	1	right
6.6.1	win	2023-06-27	20:46:59	20:58:28	685222	5fcd709227fabfc6ca7a969e	1	1	main_slash	24	advance_on_keypress_SLASH	66	stimuli_distractor_trianglediamonds.svg	stimuli_distractor_diamondtriangles.svg	35	no	57	0	377	6	1	antiphase_hc_iso.wav	2	6	3	noise_calib_stim_LEFT.wav	1	4	blb_dichoticlistening_ba-ka.mp3	ba	ka	1	right
6.6.1	win	2023-06-27	20:46:59	20:58:29	686607	5fcd709227fabfc6ca7a969e	1	1	main_slash	24	main_slash	67	stimuli_target_diamondrectangles.svg	stimuli_distractor_trianglediamonds.svg	19	yes	53	1	389	6	1	antiphase_hc_iso.wav	2	6	3	noise_calib_stim_LEFT.wav	1	4	blb_dichoticlistening_ba-ka.mp3	ba	ka	1	right
6.6.1	win	2023-06-27	20:46:59	20:58:29	686607	5fcd709227fabfc6ca7a969e	1	1	main_slash	24	advance_on_keypress_SLASH	68	stimuli_target_diamondrectangles.svg	stimuli_distractor_trianglediamonds.svg	19	yes	57	0	406	6	1	antiphase_hc_iso.wav	2	6	3	noise_calib_stim_LEFT.wav	1	4	blb_dichoticlistening_ba-ka.mp3	ba	ka	1	right
6.6.1	win	2023-06-27	20:46:59	20:58:31	688025	5fcd709227fabfc6ca7a969e	1	1	main_slash	24	main_slash	69	stimuli_distractor_trianglediamonds.svg	stimuli_target_diamondrectangles.svg	27	yes	53	1	389	6	1	antiphase_hc_iso.wav	2	6	3	noise_calib_stim_LEFT.wav	1	4	blb_dichoticlistening_ba-ka.mp3	ba	ka	1	right
6.6.1	win	2023-06-27	20:46:59	20:58:31	688025	5fcd709227fabfc6ca7a969e	1	1	main_slash	24	advance_on_keypress_SLASH	70	stimuli_distractor_trianglediamonds.svg	stimuli_target_diamondrectangles.svg	27	yes	57	0	208	6	1	antiphase_hc_iso.wav	2	6	3	noise_calib_stim_LEFT.wav	1	4	blb_dichoticlistening_ba-ka.mp3	ba	ka	1	right
6.6.1	win	2023-06-27	20:46:59	20:58:34	690854	5fcd709227fabfc6ca7a969e	1	1	main_slash	24	main_slash	71	stimuli_distractor_trianglediamonds.svg	stimuli_distractor_trianglediamonds.svg	33	no	0	1	2003	6	1	antiphase_hc_iso.wav	2	6	3	noise_calib_stim_LEFT.wav	1	4	blb_dichoticlistening_ba-ka.mp3	ba	ka	1	right
6.6.1	win	2023-06-27	20:46:59	20:58:34	690854	5fcd709227fabfc6ca7a969e	1	1	main_slash	24	advance_on_keypress_SLASH	72	stimuli_distractor_trianglediamonds.svg	stimuli_distractor_trianglediamonds.svg	33	no	57	0	317	6	1	antiphase_hc_iso.wav	2	6	3	noise_calib_stim_LEFT.wav	1	4	blb_dichoticlistening_ba-ka.mp3	ba	ka	1	right
6.6.1	win	2023-06-27	20:46:59	20:58:35	692167	5fcd709227fabfc6ca7a969e	1	1	main_slash	24	main_slash	73	stimuli_distractor_diamondtriangles.svg	stimuli_target_diamondsquares.svg	32	yes	53	1	379	6	1	antiphase_hc_iso.wav	2	6	3	noise_calib_stim_LEFT.wav	1	4	blb_dichoticlistening_ba-ka.mp3	ba	ka	1	right
6.6.1	win	2023-06-27	20:46:59	20:58:35	692167	5fcd709227fabfc6ca7a969e	1	1	main_slash	24	advance_on_keypress_SLASH	74	stimuli_distractor_diamondtriangles.svg	stimuli_target_diamondsquares.svg	32	yes	57	0	240	6	1	antiphase_hc_iso.wav	2	6	3	noise_calib_stim_LEFT.wav	1	4	blb_dichoticlistening_ba-ka.mp3	ba	ka	1	right
6.6.1	win	2023-06-27	20:46:59	20:58:38	695028	5fcd709227fabfc6ca7a969e	1	1	main_slash	24	main_slash	75	stimuli_distractor_trianglediamonds.svg	stimuli_distractor_trianglediamonds.svg	34	no	0	1	2003	6	1	antiphase_hc_iso.wav	2	6	3	noise_calib_stim_LEFT.wav	1	4	blb_dichoticlistening_ba-ka.mp3	ba	ka	1	right
6.6.1	win	2023-06-27	20:46:59	20:58:38	695028	5fcd709227fabfc6ca7a969e	1	1	main_slash	24	advance_on_keypress_SLASH	76	stimuli_distractor_trianglediamonds.svg	stimuli_distractor_trianglediamonds.svg	34	no	57	0	450	6	1	antiphase_hc_iso.wav	2	6	3	noise_calib_stim_LEFT.wav	1	4	blb_dichoticlistening_ba-ka.mp3	ba	ka	1	right
6.6.1	win	2023-06-27	20:46:59	20:58:40	696796	5fcd709227fabfc6ca7a969e	1	1	main_slash	24	main_slash	77	stimuli_distractor_diamondtriangles.svg	stimuli_target_squaretriangles.svg	15	yes	53	1	702	6	1	antiphase_hc_iso.wav	2	6	3	noise_calib_stim_LEFT.wav	1	4	blb_dichoticlistening_ba-ka.mp3	ba	ka	1	right
6.6.1	win	2023-06-27	20:46:59	20:58:40	696796	5fcd709227fabfc6ca7a969e	1	1	main_slash	24	advance_on_keypress_SLASH	78	stimuli_distractor_diamondtriangles.svg	stimuli_target_squaretriangles.svg	15	yes	57	0	277	6	1	antiphase_hc_iso.wav	2	6	3	noise_calib_stim_LEFT.wav	1	4	blb_dichoticlistening_ba-ka.mp3	ba	ka	1	right
6.6.1	win	2023-06-27	20:46:59	20:58:41	698141	5fcd709227fabfc6ca7a969e	1	1	main_slash	24	main_slash	79	stimuli_distractor_diamondtriangles.svg	stimuli_target_diamondrectangles.svg	31	yes	53	1	450	6	1	antiphase_hc_iso.wav	2	6	3	noise_calib_stim_LEFT.wav	1	4	blb_dichoticlistening_ba-ka.mp3	ba	ka	1	right
6.6.1	win	2023-06-27	20:46:59	20:58:41	698141	5fcd709227fabfc6ca7a969e	1	1	main_slash	24	advance_on_keypress_SLASH	80	stimuli_distractor_diamondtriangles.svg	stimuli_target_diamondrectangles.svg	31	yes	57	0	190	6	1	antiphase_hc_iso.wav	2	6	3	noise_calib_stim_LEFT.wav	1	4	blb_dichoticlistening_ba-ka.mp3	ba	ka	1	right
6.6.1	win	2023-06-27	20:46:59	20:58:42	699334	5fcd709227fabfc6ca7a969e	1	1	main_slash	24	main_slash	81	stimuli_distractor_trianglediamonds.svg	stimuli_target_diamondsquares.svg	28	yes	53	1	385	6	1	antiphase_hc_iso.wav	2	6	3	noise_calib_stim_LEFT.wav	1	4	blb_dichoticlistening_ba-ka.mp3	ba	ka	1	right
6.6.1	win	2023-06-27	20:46:59	20:58:42	699334	5fcd709227fabfc6ca7a969e	1	1	main_slash	24	advance_on_keypress_SLASH	82	stimuli_distractor_trianglediamonds.svg	stimuli_target_diamondsquares.svg	28	yes	57	0	221	6	1	antiphase_hc_iso.wav	2	6	3	noise_calib_stim_LEFT.wav	1	4	blb_dichoticlistening_ba-ka.mp3	ba	ka	1	right
6.6.1	win	2023-06-27	20:46:59	20:58:43	700539	5fcd709227fabfc6ca7a969e	1	1	main_slash	24	main_slash	83	stimuli_distractor_diamondtriangles.svg	stimuli_target_trianglerectangles.svg	29	yes	53	1	368	6	1	antiphase_hc_iso.wav	2	6	3	noise_calib_stim_LEFT.wav	1	4	blb_dichoticlistening_ba-ka.mp3	ba	ka	1	right
6.6.1	win	2023-06-27	20:46:59	20:58:43	700539	5fcd709227fabfc6ca7a969e	1	1	main_slash	24	advance_on_keypress_SLASH	84	stimuli_distractor_diamondtriangles.svg	stimuli_target_trianglerectangles.svg	29	yes	57	0	190	6	1	antiphase_hc_iso.wav	2	6	3	noise_calib_stim_LEFT.wav	1	4	blb_dichoticlistening_ba-ka.mp3	ba	ka	1	right
6.6.1	win	2023-06-27	20:46:59	20:58:45	701887	5fcd709227fabfc6ca7a969e	1	1	main_slash	24	main_slash	85	stimuli_distractor_trianglediamonds.svg	stimuli_target_squaretriangles.svg	11	yes	53	1	543	6	1	antiphase_hc_iso.wav	2	6	3	noise_calib_stim_LEFT.wav	1	4	blb_dichoticlistening_ba-ka.mp3	ba	ka	1	right
6.6.1	win	2023-06-27	20:46:59	20:58:45	701887	5fcd709227fabfc6ca7a969e	1	1	main_slash	24	advance_on_keypress_SLASH	86	stimuli_distractor_trianglediamonds.svg	stimuli_target_squaretriangles.svg	11	yes	57	0	161	6	1	antiphase_hc_iso.wav	2	6	3	noise_calib_stim_LEFT.wav	1	4	blb_dichoticlistening_ba-ka.mp3	ba	ka	1	right
6.6.1	win	2023-06-27	20:46:59	20:58:47	704666	5fcd709227fabfc6ca7a969e	1	1	main_slash	24	main_slash	87	stimuli_distractor_diamondtriangles.svg	stimuli_distractor_diamondtriangles.svg	39	no	0	1	2003	6	1	antiphase_hc_iso.wav	2	6	3	noise_calib_stim_LEFT.wav	1	4	blb_dichoticlistening_ba-ka.mp3	ba	ka	1	right
6.6.1	win	2023-06-27	20:46:59	20:58:47	704666	5fcd709227fabfc6ca7a969e	1	1	main_slash	24	advance_on_keypress_SLASH	88	stimuli_distractor_diamondtriangles.svg	stimuli_distractor_diamondtriangles.svg	39	no	57	0	363	6	1	antiphase_hc_iso.wav	2	6	3	noise_calib_stim_LEFT.wav	1	4	blb_dichoticlistening_ba-ka.mp3	ba	ka	1	right
6.6.1	win	2023-06-27	20:46:59	20:58:50	707645	5fcd709227fabfc6ca7a969e	1	1	main_slash	24	main_slash	89	stimuli_distractor_trianglediamonds.svg	stimuli_distractor_trianglediamonds.svg	34	no	0	1	2003	6	1	antiphase_hc_iso.wav	2	6	3	noise_calib_stim_LEFT.wav	1	4	blb_dichoticlistening_ba-ka.mp3	ba	ka	1	right
6.6.1	win	2023-06-27	20:46:59	20:58:50	707645	5fcd709227fabfc6ca7a969e	1	1	main_slash	24	advance_on_keypress_SLASH	90	stimuli_distractor_trianglediamonds.svg	stimuli_distractor_trianglediamonds.svg	34	no	57	0	449	6	1	antiphase_hc_iso.wav	2	6	3	noise_calib_stim_LEFT.wav	1	4	blb_dichoticlistening_ba-ka.mp3	ba	ka	1	right
6.6.1	win	2023-06-27	20:46:59	20:58:52	709425	5fcd709227fabfc6ca7a969e	1	1	main_slash	24	main_slash	91	stimuli_distractor_trianglediamonds.svg	stimuli_target_squarediamonds.svg	12	yes	53	1	721	6	1	antiphase_hc_iso.wav	2	6	3	noise_calib_stim_LEFT.wav	1	4	blb_dichoticlistening_ba-ka.mp3	ba	ka	1	right
6.6.1	win	2023-06-27	20:46:59	20:58:52	709425	5fcd709227fabfc6ca7a969e	1	1	main_slash	24	advance_on_keypress_SLASH	92	stimuli_distractor_trianglediamonds.svg	stimuli_target_squarediamonds.svg	12	yes	57	0	202	6	1	antiphase_hc_iso.wav	2	6	3	noise_calib_stim_LEFT.wav	1	4	blb_dichoticlistening_ba-ka.mp3	ba	ka	1	right
6.6.1	win	2023-06-27	20:46:59	20:58:53	710642	5fcd709227fabfc6ca7a969e	1	1	main_slash	24	main_slash	93	stimuli_target_rectanglediamonds.svg	stimuli_distractor_trianglediamonds.svg	2	yes	53	1	390	6	1	antiphase_hc_iso.wav	2	6	3	noise_calib_stim_LEFT.wav	1	4	blb_dichoticlistening_ba-ka.mp3	ba	ka	1	right
6.6.1	win	2023-06-27	20:46:59	20:58:53	710642	5fcd709227fabfc6ca7a969e	1	1	main_slash	24	advance_on_keypress_SLASH	94	stimuli_target_rectanglediamonds.svg	stimuli_distractor_trianglediamonds.svg	2	yes	57	0	181	6	1	antiphase_hc_iso.wav	2	6	3	noise_calib_stim_LEFT.wav	1	4	blb_dichoticlistening_ba-ka.mp3	ba	ka	1	right
6.6.1	win	2023-06-27	20:46:59	20:58:55	711972	5fcd709227fabfc6ca7a969e	1	1	main_slash	24	main_slash	95	stimuli_distractor_diamondtriangles.svg	stimuli_target_rectanglediamonds.svg	14	yes	53	1	531	6	1	antiphase_hc_iso.wav	2	6	3	noise_calib_stim_LEFT.wav	1	4	blb_dichoticlistening_ba-ka.mp3	ba	ka	1	right
6.6.1	win	2023-06-27	20:46:59	20:58:55	711972	5fcd709227fabfc6ca7a969e	1	1	main_slash	24	advance_on_keypress_SLASH	96	stimuli_distractor_diamondtriangles.svg	stimuli_target_rectanglediamonds.svg	14	yes	57	0	183	6	1	antiphase_hc_iso.wav	2	6	3	noise_calib_stim_LEFT.wav	1	4	blb_dichoticlistening_ba-ka.mp3	ba	ka	1	right
6.6.1	win	2023-06-27	20:46:59	20:58:56	713172	5fcd709227fabfc6ca7a969e	1	1	main_slash	24	main_slash	97	stimuli_distractor_diamondtriangles.svg	stimuli_target_diamondsquares.svg	32	yes	53	1	405	6	1	antiphase_hc_iso.wav	2	6	3	noise_calib_stim_LEFT.wav	1	4	blb_dichoticlistening_ba-ka.mp3	ba	ka	1	right
6.6.1	win	2023-06-27	20:46:59	20:58:56	713172	5fcd709227fabfc6ca7a969e	1	1	main_slash	24	advance_on_keypress_SLASH	98	stimuli_distractor_diamondtriangles.svg	stimuli_target_diamondsquares.svg	32	yes	57	0	171	6	1	antiphase_hc_iso.wav	2	6	3	noise_calib_stim_LEFT.wav	1	4	blb_dichoticlistening_ba-ka.mp3	ba	ka	1	right
6.6.1	win	2023-06-27	20:46:59	20:58:57	714404	5fcd709227fabfc6ca7a969e	1	1	main_slash	24	main_slash	99	stimuli_target_squarediamonds.svg	stimuli_distractor_trianglediamonds.svg	4	yes	53	1	443	6	1	antiphase_hc_iso.wav	2	6	3	noise_calib_stim_LEFT.wav	1	4	blb_dichoticlistening_ba-ka.mp3	ba	ka	1	right
6.6.1	win	2023-06-27	20:46:59	20:58:57	714404	5fcd709227fabfc6ca7a969e	1	1	main_slash	24	advance_on_keypress_SLASH	100	stimuli_target_squarediamonds.svg	stimuli_distractor_trianglediamonds.svg	4	yes	57	0	234	6	1	antiphase_hc_iso.wav	2	6	3	noise_calib_stim_LEFT.wav	1	4	blb_dichoticlistening_ba-ka.mp3	ba	ka	1	right
6.6.1	win	2023-06-27	20:46:59	20:58:58	715667	5fcd709227fabfc6ca7a969e	1	1	main_slash	24	main_slash	101	stimuli_target_diamondrectangles.svg	stimuli_distractor_diamondtriangles.svg	23	yes	53	1	407	6	1	antiphase_hc_iso.wav	2	6	3	noise_calib_stim_LEFT.wav	1	4	blb_dichoticlistening_ba-ka.mp3	ba	ka	1	right
6.6.1	win	2023-06-27	20:46:59	20:58:58	715667	5fcd709227fabfc6ca7a969e	1	1	main_slash	24	advance_on_keypress_SLASH	102	stimuli_target_diamondrectangles.svg	stimuli_distractor_diamondtriangles.svg	23	yes	57	0	199	6	1	antiphase_hc_iso.wav	2	6	3	noise_calib_stim_LEFT.wav	1	4	blb_dichoticlistening_ba-ka.mp3	ba	ka	1	right
6.6.1	win	2023-06-27	20:46:59	20:59:00	716875	5fcd709227fabfc6ca7a969e	1	1	main_slash	24	main_slash	103	stimuli_distractor_trianglediamonds.svg	stimuli_target_trianglerectangles.svg	25	yes	53	1	386	6	1	antiphase_hc_iso.wav	2	6	3	noise_calib_stim_LEFT.wav	1	4	blb_dichoticlistening_ba-ka.mp3	ba	ka	1	right
6.6.1	win	2023-06-27	20:46:59	20:59:00	716875	5fcd709227fabfc6ca7a969e	1	1	main_slash	24	advance_on_keypress_SLASH	104	stimuli_distractor_trianglediamonds.svg	stimuli_target_trianglerectangles.svg	25	yes	57	0	197	6	1	antiphase_hc_iso.wav	2	6	3	noise_calib_stim_LEFT.wav	1	4	blb_dichoticlistening_ba-ka.mp3	ba	ka	1	right
6.6.1	win	2023-06-27	20:46:59	20:59:01	718058	5fcd709227fabfc6ca7a969e	1	1	main_slash	24	main_slash	105	stimuli_target_rectanglediamonds.svg	stimuli_distractor_diamondtriangles.svg	6	yes	53	1	374	6	1	antiphase_hc_iso.wav	2	6	3	noise_calib_stim_LEFT.wav	1	4	blb_dichoticlistening_ba-ka.mp3	ba	ka	1	right
6.6.1	win	2023-06-27	20:46:59	20:59:01	718058	5fcd709227fabfc6ca7a969e	1	1	main_slash	24	advance_on_keypress_SLASH	106	stimuli_target_rectanglediamonds.svg	stimuli_distractor_diamondtriangles.svg	6	yes	57	0	155	6	1	antiphase_hc_iso.wav	2	6	3	noise_calib_stim_LEFT.wav	1	4	blb_dichoticlistening_ba-ka.mp3	ba	ka	1	right
6.6.1	win	2023-06-27	20:46:59	20:59:02	719192	5fcd709227fabfc6ca7a969e	1	1	main_slash	24	main_slash	107	stimuli_target_squaretriangles.svg	stimuli_distractor_diamondtriangles.svg	7	yes	53	1	362	6	1	antiphase_hc_iso.wav	2	6	3	noise_calib_stim_LEFT.wav	1	4	blb_dichoticlistening_ba-ka.mp3	ba	ka	1	right
6.6.1	win	2023-06-27	20:46:59	20:59:02	719192	5fcd709227fabfc6ca7a969e	1	1	main_slash	24	advance_on_keypress_SLASH	108	stimuli_target_squaretriangles.svg	stimuli_distractor_diamondtriangles.svg	7	yes	57	0	198	6	1	antiphase_hc_iso.wav	2	6	3	noise_calib_stim_LEFT.wav	1	4	blb_dichoticlistening_ba-ka.mp3	ba	ka	1	right
6.6.1	win	2023-06-27	20:46:59	20:59:05	722006	5fcd709227fabfc6ca7a969e	1	1	main_slash	24	main_slash	109	stimuli_distractor_diamondtriangles.svg	stimuli_distractor_trianglediamonds.svg	38	no	0	1	2003	6	1	antiphase_hc_iso.wav	2	6	3	noise_calib_stim_LEFT.wav	1	4	blb_dichoticlistening_ba-ka.mp3	ba	ka	1	right
6.6.1	win	2023-06-27	20:46:59	20:59:05	722006	5fcd709227fabfc6ca7a969e	1	1	main_slash	24	advance_on_keypress_SLASH	110	stimuli_distractor_diamondtriangles.svg	stimuli_distractor_trianglediamonds.svg	38	no	57	0	487	6	1	antiphase_hc_iso.wav	2	6	3	noise_calib_stim_LEFT.wav	1	4	blb_dichoticlistening_ba-ka.mp3	ba	ka	1	right
6.6.1	win	2023-06-27	20:46:59	20:59:06	723525	5fcd709227fabfc6ca7a969e	1	1	main_slash	24	main_slash	111	stimuli_target_trianglesquares.svg	stimuli_distractor_trianglediamonds.svg	18	yes	53	1	418	6	1	antiphase_hc_iso.wav	2	6	3	noise_calib_stim_LEFT.wav	1	4	blb_dichoticlistening_ba-ka.mp3	ba	ka	1	right
6.6.1	win	2023-06-27	20:46:59	20:59:06	723525	5fcd709227fabfc6ca7a969e	1	1	main_slash	24	advance_on_keypress_SLASH	112	stimuli_target_trianglesquares.svg	stimuli_distractor_trianglediamonds.svg	18	yes	57	0	244	6	1	antiphase_hc_iso.wav	2	6	3	noise_calib_stim_LEFT.wav	1	4	blb_dichoticlistening_ba-ka.mp3	ba	ka	1	right
6.6.1	win	2023-06-27	20:46:59	20:59:08	724781	5fcd709227fabfc6ca7a969e	1	1	main_slash	24	main_slash	113	stimuli_target_diamondsquares.svg	stimuli_distractor_diamondtriangles.svg	24	yes	53	1	390	6	1	antiphase_hc_iso.wav	2	6	3	noise_calib_stim_LEFT.wav	1	4	blb_dichoticlistening_ba-ka.mp3	ba	ka	1	right
6.6.1	win	2023-06-27	20:46:59	20:59:08	724781	5fcd709227fabfc6ca7a969e	1	1	main_slash	24	advance_on_keypress_SLASH	114	stimuli_target_diamondsquares.svg	stimuli_distractor_diamondtriangles.svg	24	yes	57	0	169	6	1	antiphase_hc_iso.wav	2	6	3	noise_calib_stim_LEFT.wav	1	4	blb_dichoticlistening_ba-ka.mp3	ba	ka	1	right
6.6.1	win	2023-06-27	20:46:59	20:59:09	725944	5fcd709227fabfc6ca7a969e	1	1	main_slash	24	main_slash	115	stimuli_target_trianglerectangles.svg	stimuli_distractor_diamondtriangles.svg	21	yes	53	1	378	6	1	antiphase_hc_iso.wav	2	6	3	noise_calib_stim_LEFT.wav	1	4	blb_dichoticlistening_ba-ka.mp3	ba	ka	1	right
6.6.1	win	2023-06-27	20:46:59	20:59:09	725944	5fcd709227fabfc6ca7a969e	1	1	main_slash	24	advance_on_keypress_SLASH	116	stimuli_target_trianglerectangles.svg	stimuli_distractor_diamondtriangles.svg	21	yes	57	0	227	6	1	antiphase_hc_iso.wav	2	6	3	noise_calib_stim_LEFT.wav	1	4	blb_dichoticlistening_ba-ka.mp3	ba	ka	1	right
6.6.1	win	2023-06-27	20:46:59	20:59:10	727184	5fcd709227fabfc6ca7a969e	1	1	main_slash	24	main_slash	117	stimuli_target_squaretriangles.svg	stimuli_distractor_trianglediamonds.svg	3	yes	53	1	389	6	1	antiphase_hc_iso.wav	2	6	3	noise_calib_stim_LEFT.wav	1	4	blb_dichoticlistening_ba-ka.mp3	ba	ka	1	right
6.6.1	win	2023-06-27	20:46:59	20:59:10	727184	5fcd709227fabfc6ca7a969e	1	1	main_slash	24	advance_on_keypress_SLASH	118	stimuli_target_squaretriangles.svg	stimuli_distractor_trianglediamonds.svg	3	yes	57	0	193	6	1	antiphase_hc_iso.wav	2	6	3	noise_calib_stim_LEFT.wav	1	4	blb_dichoticlistening_ba-ka.mp3	ba	ka	1	right
6.6.1	win	2023-06-27	20:46:59	20:59:11	728330	5fcd709227fabfc6ca7a969e	1	1	main_slash	24	main_slash	119	stimuli_distractor_diamondtriangles.svg	stimuli_target_squaretriangles.svg	15	yes	53	1	334	6	1	antiphase_hc_iso.wav	2	6	3	noise_calib_stim_LEFT.wav	1	4	blb_dichoticlistening_ba-ka.mp3	ba	ka	1	right
6.6.1	win	2023-06-27	20:46:59	20:59:11	728330	5fcd709227fabfc6ca7a969e	1	1	main_slash	24	advance_on_keypress_SLASH	120	stimuli_distractor_diamondtriangles.svg	stimuli_target_squaretriangles.svg	15	yes	57	0	205	6	1	antiphase_hc_iso.wav	2	6	3	noise_calib_stim_LEFT.wav	1	4	blb_dichoticlistening_ba-ka.mp3	ba	ka	1	right
6.6.1	win	2023-06-27	20:46:59	20:59:12	729500	5fcd709227fabfc6ca7a969e	1	1	main_slash	24	main_slash	121	stimuli_target_trianglerectangles.svg	stimuli_distractor_trianglediamonds.svg	17	yes	53	1	351	6	1	antiphase_hc_iso.wav	2	6	3	noise_calib_stim_LEFT.wav	1	4	blb_dichoticlistening_ba-ka.mp3	ba	ka	1	right
6.6.1	win	2023-06-27	20:46:59	20:59:12	729500	5fcd709227fabfc6ca7a969e	1	1	main_slash	24	advance_on_keypress_SLASH	122	stimuli_target_trianglerectangles.svg	stimuli_distractor_trianglediamonds.svg	17	yes	57	0	202	6	1	antiphase_hc_iso.wav	2	6	3	noise_calib_stim_LEFT.wav	1	4	blb_dichoticlistening_ba-ka.mp3	ba	ka	1	right
6.6.1	win	2023-06-27	20:46:59	20:59:13	730669	5fcd709227fabfc6ca7a969e	1	1	main_slash	24	main_slash	123	stimuli_distractor_trianglediamonds.svg	stimuli_target_rectangletriangles.svg	9	yes	53	1	354	6	1	antiphase_hc_iso.wav	2	6	3	noise_calib_stim_LEFT.wav	1	4	blb_dichoticlistening_ba-ka.mp3	ba	ka	1	right
6.6.1	win	2023-06-27	20:46:59	20:59:13	730669	5fcd709227fabfc6ca7a969e	1	1	main_slash	24	advance_on_keypress_SLASH	124	stimuli_distractor_trianglediamonds.svg	stimuli_target_rectangletriangles.svg	9	yes	57	0	176	6	1	antiphase_hc_iso.wav	2	6	3	noise_calib_stim_LEFT.wav	1	4	blb_dichoticlistening_ba-ka.mp3	ba	ka	1	right
6.6.1	win	2023-06-27	20:46:59	20:59:15	731787	5fcd709227fabfc6ca7a969e	1	1	main_slash	24	main_slash	125	stimuli_distractor_trianglediamonds.svg	stimuli_target_trianglesquares.svg	26	yes	53	1	326	6	1	antiphase_hc_iso.wav	2	6	3	noise_calib_stim_LEFT.wav	1	4	blb_dichoticlistening_ba-ka.mp3	ba	ka	1	right
6.6.1	win	2023-06-27	20:46:59	20:59:15	731787	5fcd709227fabfc6ca7a969e	1	1	main_slash	24	advance_on_keypress_SLASH	126	stimuli_distractor_trianglediamonds.svg	stimuli_target_trianglesquares.svg	26	yes	57	0	169	6	1	antiphase_hc_iso.wav	2	6	3	noise_calib_stim_LEFT.wav	1	4	blb_dichoticlistening_ba-ka.mp3	ba	ka	1	right
6.6.1	win	2023-06-27	20:46:59	20:59:17	734575	5fcd709227fabfc6ca7a969e	1	1	main_slash	24	main_slash	127	stimuli_distractor_trianglediamonds.svg	stimuli_distractor_trianglediamonds.svg	33	no	0	1	2003	6	1	antiphase_hc_iso.wav	2	6	3	noise_calib_stim_LEFT.wav	1	4	blb_dichoticlistening_ba-ka.mp3	ba	ka	1	right
6.6.1	win	2023-06-27	20:46:59	20:59:17	734575	5fcd709227fabfc6ca7a969e	1	1	main_slash	24	advance_on_keypress_SLASH	128	stimuli_distractor_trianglediamonds.svg	stimuli_distractor_trianglediamonds.svg	33	no	57	0	556	6	1	antiphase_hc_iso.wav	2	6	3	noise_calib_stim_LEFT.wav	1	4	blb_dichoticlistening_ba-ka.mp3	ba	ka	1	right
6.6.1	win	2023-06-27	20:46:59	20:59:19	736141	5fcd709227fabfc6ca7a969e	1	1	main_slash	24	main_slash	129	stimuli_target_diamondrectangles.svg	stimuli_distractor_trianglediamonds.svg	19	yes	53	1	389	6	1	antiphase_hc_iso.wav	2	6	3	noise_calib_stim_LEFT.wav	1	4	blb_dichoticlistening_ba-ka.mp3	ba	ka	1	right
6.6.1	win	2023-06-27	20:46:59	20:59:19	736141	5fcd709227fabfc6ca7a969e	1	1	main_slash	24	advance_on_keypress_SLASH	130	stimuli_target_diamondrectangles.svg	stimuli_distractor_trianglediamonds.svg	19	yes	57	0	206	6	1	antiphase_hc_iso.wav	2	6	3	noise_calib_stim_LEFT.wav	1	4	blb_dichoticlistening_ba-ka.mp3	ba	ka	1	right
6.6.1	win	2023-06-27	20:46:59	20:59:20	737312	5fcd709227fabfc6ca7a969e	1	1	main_slash	24	main_slash	131	stimuli_target_rectangletriangles.svg	stimuli_distractor_trianglediamonds.svg	1	yes	53	1	351	6	1	antiphase_hc_iso.wav	2	6	3	noise_calib_stim_LEFT.wav	1	4	blb_dichoticlistening_ba-ka.mp3	ba	ka	1	right
6.6.1	win	2023-06-27	20:46:59	20:59:20	737312	5fcd709227fabfc6ca7a969e	1	1	main_slash	24	advance_on_keypress_SLASH	132	stimuli_target_rectangletriangles.svg	stimuli_distractor_trianglediamonds.svg	1	yes	57	0	194	6	1	antiphase_hc_iso.wav	2	6	3	noise_calib_stim_LEFT.wav	1	4	blb_dichoticlistening_ba-ka.mp3	ba	ka	1	right
6.6.1	win	2023-06-27	20:46:59	20:59:21	738485	5fcd709227fabfc6ca7a969e	1	1	main_slash	24	main_slash	133	stimuli_distractor_diamondtriangles.svg	stimuli_target_rectangletriangles.svg	13	yes	53	1	357	6	1	antiphase_hc_iso.wav	2	6	3	noise_calib_stim_LEFT.wav	1	4	blb_dichoticlistening_ba-ka.mp3	ba	ka	1	right
6.6.1	win	2023-06-27	20:46:59	20:59:21	738485	5fcd709227fabfc6ca7a969e	1	1	main_slash	24	advance_on_keypress_SLASH	134	stimuli_distractor_diamondtriangles.svg	stimuli_target_rectangletriangles.svg	13	yes	57	0	209	6	1	antiphase_hc_iso.wav	2	6	3	noise_calib_stim_LEFT.wav	1	4	blb_dichoticlistening_ba-ka.mp3	ba	ka	1	right
6.6.1	win	2023-06-27	20:46:59	20:59:22	739666	5fcd709227fabfc6ca7a969e	1	1	main_slash	24	main_slash	135	stimuli_target_squarediamonds.svg	stimuli_distractor_diamondtriangles.svg	8	yes	53	1	358	6	1	antiphase_hc_iso.wav	2	6	3	noise_calib_stim_LEFT.wav	1	4	blb_dichoticlistening_ba-ka.mp3	ba	ka	1	right
6.6.1	win	2023-06-27	20:46:59	20:59:22	739666	5fcd709227fabfc6ca7a969e	1	1	main_slash	24	advance_on_keypress_SLASH	136	stimuli_target_squarediamonds.svg	stimuli_distractor_diamondtriangles.svg	8	yes	57	0	167	6	1	antiphase_hc_iso.wav	2	6	3	noise_calib_stim_LEFT.wav	1	4	blb_dichoticlistening_ba-ka.mp3	ba	ka	1	right
6.6.1	win	2023-06-27	20:46:59	20:59:24	740784	5fcd709227fabfc6ca7a969e	1	1	main_slash	24	main_slash	137	stimuli_target_rectangletriangles.svg	stimuli_distractor_diamondtriangles.svg	5	yes	53	1	337	6	1	antiphase_hc_iso.wav	2	6	3	noise_calib_stim_LEFT.wav	1	4	blb_dichoticlistening_ba-ka.mp3	ba	ka	1	right
6.6.1	win	2023-06-27	20:46:59	20:59:24	740784	5fcd709227fabfc6ca7a969e	1	1	main_slash	24	advance_on_keypress_SLASH	138	stimuli_target_rectangletriangles.svg	stimuli_distractor_diamondtriangles.svg	5	yes	57	0	205	6	1	antiphase_hc_iso.wav	2	6	3	noise_calib_stim_LEFT.wav	1	4	blb_dichoticlistening_ba-ka.mp3	ba	ka	1	right
6.6.1	win	2023-06-27	20:46:59	20:59:25	741940	5fcd709227fabfc6ca7a969e	1	1	main_slash	24	main_slash	139	stimuli_distractor_trianglediamonds.svg	stimuli_target_diamondrectangles.svg	27	yes	53	1	333	6	1	antiphase_hc_iso.wav	2	6	3	noise_calib_stim_LEFT.wav	1	4	blb_dichoticlistening_ba-ka.mp3	ba	ka	1	right
6.6.1	win	2023-06-27	20:46:59	20:59:25	741940	5fcd709227fabfc6ca7a969e	1	1	main_slash	24	advance_on_keypress_SLASH	140	stimuli_distractor_trianglediamonds.svg	stimuli_target_diamondrectangles.svg	27	yes	57	0	199	6	1	antiphase_hc_iso.wav	2	6	3	noise_calib_stim_LEFT.wav	1	4	blb_dichoticlistening_ba-ka.mp3	ba	ka	1	right
6.6.1	win	2023-06-27	20:46:59	20:59:28	744763	5fcd709227fabfc6ca7a969e	1	1	main_slash	24	main_slash	141	stimuli_distractor_trianglediamonds.svg	stimuli_distractor_diamondtriangles.svg	35	no	0	1	2003	6	1	antiphase_hc_iso.wav	2	6	3	noise_calib_stim_LEFT.wav	1	4	blb_dichoticlistening_ba-ka.mp3	ba	ka	1	right
6.6.1	win	2023-06-27	20:46:59	20:59:28	744763	5fcd709227fabfc6ca7a969e	1	1	main_slash	24	advance_on_keypress_SLASH	142	stimuli_distractor_trianglediamonds.svg	stimuli_distractor_diamondtriangles.svg	35	no	57	0	459	6	1	antiphase_hc_iso.wav	2	6	3	noise_calib_stim_LEFT.wav	1	4	blb_dichoticlistening_ba-ka.mp3	ba	ka	1	right
6.6.1	win	2023-06-27	20:46:59	20:59:29	746241	5fcd709227fabfc6ca7a969e	1	1	main_slash	24	main_slash	143	stimuli_target_diamondsquares.svg	stimuli_distractor_trianglediamonds.svg	20	yes	53	1	405	6	1	antiphase_hc_iso.wav	2	6	3	noise_calib_stim_LEFT.wav	1	4	blb_dichoticlistening_ba-ka.mp3	ba	ka	1	right
6.6.1	win	2023-06-27	20:46:59	20:59:29	746241	5fcd709227fabfc6ca7a969e	1	1	main_slash	24	advance_on_keypress_SLASH	144	stimuli_target_diamondsquares.svg	stimuli_distractor_trianglediamonds.svg	20	yes	57	0	204	6	1	antiphase_hc_iso.wav	2	6	3	noise_calib_stim_LEFT.wav	1	4	blb_dichoticlistening_ba-ka.mp3	ba	ka	1	right
6.6.1	win	2023-06-27	20:46:59	20:59:32	749061	5fcd709227fabfc6ca7a969e	1	1	main_slash	24	main_slash	145	stimuli_distractor_trianglediamonds.svg	stimuli_distractor_diamondtriangles.svg	36	no	0	1	2003	6	1	antiphase_hc_iso.wav	2	6	3	noise_calib_stim_LEFT.wav	1	4	blb_dichoticlistening_ba-ka.mp3	ba	ka	1	right
6.6.1	win	2023-06-27	20:46:59	20:59:32	749061	5fcd709227fabfc6ca7a969e	1	1	main_slash	24	advance_on_keypress_SLASH	146	stimuli_distractor_trianglediamonds.svg	stimuli_distractor_diamondtriangles.svg	36	no	57	0	373	6	1	antiphase_hc_iso.wav	2	6	3	noise_calib_stim_LEFT.wav	1	4	blb_dichoticlistening_ba-ka.mp3	ba	ka	1	right
6.6.1	win	2023-06-27	20:46:59	20:59:35	752054	5fcd709227fabfc6ca7a969e	1	1	main_slash	24	main_slash	147	stimuli_distractor_diamondtriangles.svg	stimuli_distractor_diamondtriangles.svg	40	no	0	1	2003	6	1	antiphase_hc_iso.wav	2	6	3	noise_calib_stim_LEFT.wav	1	4	blb_dichoticlistening_ba-ka.mp3	ba	ka	1	right
6.6.1	win	2023-06-27	20:46:59	20:59:35	752054	5fcd709227fabfc6ca7a969e	1	1	main_slash	24	advance_on_keypress_SLASH	148	stimuli_distractor_diamondtriangles.svg	stimuli_distractor_diamondtriangles.svg	40	no	57	0	285	6	1	antiphase_hc_iso.wav	2	6	3	noise_calib_stim_LEFT.wav	1	4	blb_dichoticlistening_ba-ka.mp3	ba	ka	1	right
6.6.1	win	2023-06-27	20:46:59	20:59:36	753335	5fcd709227fabfc6ca7a969e	1	1	main_slash	24	main_slash	149	stimuli_target_trianglesquares.svg	stimuli_distractor_diamondtriangles.svg	22	yes	53	1	381	6	1	antiphase_hc_iso.wav	2	6	3	noise_calib_stim_LEFT.wav	1	4	blb_dichoticlistening_ba-ka.mp3	ba	ka	1	right
6.6.1	win	2023-06-27	20:46:59	20:59:36	753335	5fcd709227fabfc6ca7a969e	1	1	main_slash	24	advance_on_keypress_SLASH	150	stimuli_target_trianglesquares.svg	stimuli_distractor_diamondtriangles.svg	22	yes	57	0	199	6	1	antiphase_hc_iso.wav	2	6	3	noise_calib_stim_LEFT.wav	1	4	blb_dichoticlistening_ba-ka.mp3	ba	ka	1	right
6.6.1	win	2023-06-27	20:46:59	20:59:37	754567	5fcd709227fabfc6ca7a969e	1	1	main_slash	24	main_slash	151	stimuli_distractor_trianglediamonds.svg	stimuli_target_rectanglediamonds.svg	10	yes	53	1	412	6	1	antiphase_hc_iso.wav	2	6	3	noise_calib_stim_LEFT.wav	1	4	blb_dichoticlistening_ba-ka.mp3	ba	ka	1	right
6.6.1	win	2023-06-27	20:46:59	20:59:37	754567	5fcd709227fabfc6ca7a969e	1	1	main_slash	24	advance_on_keypress_SLASH	152	stimuli_distractor_trianglediamonds.svg	stimuli_target_rectanglediamonds.svg	10	yes	57	0	167	6	1	antiphase_hc_iso.wav	2	6	3	noise_calib_stim_LEFT.wav	1	4	blb_dichoticlistening_ba-ka.mp3	ba	ka	1	right
6.6.1	win	2023-06-27	20:46:59	20:59:40	757352	5fcd709227fabfc6ca7a969e	1	1	main_slash	24	main_slash	153	stimuli_distractor_diamondtriangles.svg	stimuli_distractor_trianglediamonds.svg	37	no	0	1	2003	6	1	antiphase_hc_iso.wav	2	6	3	noise_calib_stim_LEFT.wav	1	4	blb_dichoticlistening_ba-ka.mp3	ba	ka	1	right
6.6.1	win	2023-06-27	20:46:59	20:59:40	757352	5fcd709227fabfc6ca7a969e	1	1	main_slash	24	advance_on_keypress_SLASH	154	stimuli_distractor_diamondtriangles.svg	stimuli_distractor_trianglediamonds.svg	37	no	57	0	345	6	1	antiphase_hc_iso.wav	2	6	3	noise_calib_stim_LEFT.wav	1	4	blb_dichoticlistening_ba-ka.mp3	ba	ka	1	right
6.6.1	win	2023-06-27	20:46:59	20:59:42	758797	5fcd709227fabfc6ca7a969e	1	1	main_slash	24	main_slash	155	stimuli_distractor_diamondtriangles.svg	stimuli_target_squarediamonds.svg	16	yes	53	1	482	6	1	antiphase_hc_iso.wav	2	6	3	noise_calib_stim_LEFT.wav	1	4	blb_dichoticlistening_ba-ka.mp3	ba	ka	1	right
6.6.1	win	2023-06-27	20:46:59	20:59:42	758797	5fcd709227fabfc6ca7a969e	1	1	main_slash	24	advance_on_keypress_SLASH	156	stimuli_distractor_diamondtriangles.svg	stimuli_target_squarediamonds.svg	16	yes	57	0	166	6	1	antiphase_hc_iso.wav	2	6	3	noise_calib_stim_LEFT.wav	1	4	blb_dichoticlistening_ba-ka.mp3	ba	ka	1	right
6.6.1	win	2023-06-27	20:46:59	20:59:44	761078	5fcd709227fabfc6ca7a969e	1	1	main_slash	24	main_slash	157	stimuli_distractor_diamondtriangles.svg	stimuli_target_trianglesquares.svg	30	yes	53	1	1500	6	1	antiphase_hc_iso.wav	2	6	3	noise_calib_stim_LEFT.wav	1	4	blb_dichoticlistening_ba-ka.mp3	ba	ka	1	right
6.6.1	win	2023-06-27	20:46:59	20:59:44	761078	5fcd709227fabfc6ca7a969e	1	1	main_slash	24	advance_on_keypress_SLASH	158	stimuli_distractor_diamondtriangles.svg	stimuli_target_trianglesquares.svg	30	yes	57	0	407	6	1	antiphase_hc_iso.wav	2	6	3	noise_calib_stim_LEFT.wav	1	4	blb_dichoticlistening_ba-ka.mp3	ba	ka	1	right
6.6.1	win	2023-06-27	20:46:59	20:59:45	762560	5fcd709227fabfc6ca7a969e	1	1	main_slash	24	main_slash	159	stimuli_distractor_diamondtriangles.svg	stimuli_target_diamondrectangles.svg	31	yes	53	1	454	6	1	antiphase_hc_iso.wav	2	6	3	noise_calib_stim_LEFT.wav	1	4	blb_dichoticlistening_ba-ka.mp3	ba	ka	1	right
6.6.1	win	2023-06-27	20:46:59	20:59:45	762560	5fcd709227fabfc6ca7a969e	1	1	main_slash	24	advance_on_keypress_SLASH	160	stimuli_distractor_diamondtriangles.svg	stimuli_target_diamondrectangles.svg	31	yes	57	0	164	6	1	antiphase_hc_iso.wav	2	6	3	noise_calib_stim_LEFT.wav	1	4	blb_dichoticlistening_ba-ka.mp3	ba	ka	1	right
6.6.1	win	2023-06-27	20:46:59	21:00:05	782519	5fcd709227fabfc6ca7a969e	1	1	practice_z	26	practice_z	1	stimuli_distractor_diamondtriangles.svg	stimuli_distractor_diamondtriangles.svg	13	no	0	1	2003	6	1	antiphase_hc_iso.wav	2	6	3	noise_calib_stim_LEFT.wav	1	4	blb_dichoticlistening_ba-ka.mp3	ba	ka	1	right
6.6.1	win	2023-06-27	20:46:59	21:00:05	782519	5fcd709227fabfc6ca7a969e	1	1	practice_z	26	advance_on_keypress_ZEE	2	stimuli_distractor_diamondtriangles.svg	stimuli_distractor_diamondtriangles.svg	13	no	57	0	317	6	1	antiphase_hc_iso.wav	2	6	3	noise_calib_stim_LEFT.wav	1	4	blb_dichoticlistening_ba-ka.mp3	ba	ka	1	right
6.6.1	win	2023-06-27	20:46:59	21:00:08	784836	5fcd709227fabfc6ca7a969e	1	1	practice_z	26	practice_z	3	stimuli_target_diamondsquares.svg	stimuli_distractor_diamondtriangles.svg	3	yes	44	1	374	6	1	antiphase_hc_iso.wav	2	6	3	noise_calib_stim_LEFT.wav	1	4	blb_dichoticlistening_ba-ka.mp3	ba	ka	1	right
6.6.1	win	2023-06-27	20:46:59	21:00:08	784836	5fcd709227fabfc6ca7a969e	1	1	practice_z	26	advance_on_keypress_ZEE	4	stimuli_target_diamondsquares.svg	stimuli_distractor_diamondtriangles.svg	3	yes	57	0	274	6	1	antiphase_hc_iso.wav	2	6	3	noise_calib_stim_LEFT.wav	1	4	blb_dichoticlistening_ba-ka.mp3	ba	ka	1	right
6.6.1	win	2023-06-27	20:46:59	21:00:12	788727	5fcd709227fabfc6ca7a969e	1	1	practice_z	26	practice_z	5	stimuli_distractor_diamondtriangles.svg	stimuli_distractor_trianglediamonds.svg	14	no	0	1	2003	6	1	antiphase_hc_iso.wav	2	6	3	noise_calib_stim_LEFT.wav	1	4	blb_dichoticlistening_ba-ka.mp3	ba	ka	1	right
6.6.1	win	2023-06-27	20:46:59	21:00:12	788727	5fcd709227fabfc6ca7a969e	1	1	practice_z	26	advance_on_keypress_ZEE	6	stimuli_distractor_diamondtriangles.svg	stimuli_distractor_trianglediamonds.svg	14	no	57	0	385	6	1	antiphase_hc_iso.wav	2	6	3	noise_calib_stim_LEFT.wav	1	4	blb_dichoticlistening_ba-ka.mp3	ba	ka	1	right
6.6.1	win	2023-06-27	20:46:59	21:00:14	791244	5fcd709227fabfc6ca7a969e	1	1	practice_z	26	practice_z	7	stimuli_distractor_trianglediamonds.svg	stimuli_target_rectanglediamonds.svg	10	yes	44	1	512	6	1	antiphase_hc_iso.wav	2	6	3	noise_calib_stim_LEFT.wav	1	4	blb_dichoticlistening_ba-ka.mp3	ba	ka	1	right
6.6.1	win	2023-06-27	20:46:59	21:00:14	791244	5fcd709227fabfc6ca7a969e	1	1	practice_z	26	advance_on_keypress_ZEE	8	stimuli_distractor_trianglediamonds.svg	stimuli_target_rectanglediamonds.svg	10	yes	57	0	261	6	1	antiphase_hc_iso.wav	2	6	3	noise_calib_stim_LEFT.wav	1	4	blb_dichoticlistening_ba-ka.mp3	ba	ka	1	right
6.6.1	win	2023-06-27	20:46:59	21:00:17	793838	5fcd709227fabfc6ca7a969e	1	1	practice_z	26	practice_z	9	stimuli_target_squarediamonds.svg	stimuli_distractor_diamondtriangles.svg	2	yes	44	1	711	6	1	antiphase_hc_iso.wav	2	6	3	noise_calib_stim_LEFT.wav	1	4	blb_dichoticlistening_ba-ka.mp3	ba	ka	1	right
6.6.1	win	2023-06-27	20:46:59	21:00:17	793838	5fcd709227fabfc6ca7a969e	1	1	practice_z	26	advance_on_keypress_ZEE	10	stimuli_target_squarediamonds.svg	stimuli_distractor_diamondtriangles.svg	2	yes	57	0	224	6	1	antiphase_hc_iso.wav	2	6	3	noise_calib_stim_LEFT.wav	1	4	blb_dichoticlistening_ba-ka.mp3	ba	ka	1	right
6.6.1	win	2023-06-27	20:46:59	21:00:19	796102	5fcd709227fabfc6ca7a969e	1	1	practice_z	26	practice_z	11	stimuli_target_squarediamonds.svg	stimuli_distractor_trianglediamonds.svg	5	yes	44	1	426	6	1	antiphase_hc_iso.wav	2	6	3	noise_calib_stim_LEFT.wav	1	4	blb_dichoticlistening_ba-ka.mp3	ba	ka	1	right
6.6.1	win	2023-06-27	20:46:59	21:00:19	796102	5fcd709227fabfc6ca7a969e	1	1	practice_z	26	advance_on_keypress_ZEE	12	stimuli_target_squarediamonds.svg	stimuli_distractor_trianglediamonds.svg	5	yes	57	0	208	6	1	antiphase_hc_iso.wav	2	6	3	noise_calib_stim_LEFT.wav	1	4	blb_dichoticlistening_ba-ka.mp3	ba	ka	1	right
6.6.1	win	2023-06-27	20:46:59	21:00:23	799930	5fcd709227fabfc6ca7a969e	1	1	practice_z	26	practice_z	13	stimuli_distractor_trianglediamonds.svg	stimuli_distractor_diamondtriangles.svg	16	no	0	1	2003	6	1	antiphase_hc_iso.wav	2	6	3	noise_calib_stim_LEFT.wav	1	4	blb_dichoticlistening_ba-ka.mp3	ba	ka	1	right
6.6.1	win	2023-06-27	20:46:59	21:00:23	799930	5fcd709227fabfc6ca7a969e	1	1	practice_z	26	advance_on_keypress_ZEE	14	stimuli_distractor_trianglediamonds.svg	stimuli_distractor_diamondtriangles.svg	16	no	57	0	352	6	1	antiphase_hc_iso.wav	2	6	3	noise_calib_stim_LEFT.wav	1	4	blb_dichoticlistening_ba-ka.mp3	ba	ka	1	right
6.6.1	win	2023-06-27	20:46:59	21:00:25	802340	5fcd709227fabfc6ca7a969e	1	1	practice_z	26	practice_z	15	stimuli_distractor_diamondtriangles.svg	stimuli_target_diamondrectangles.svg	8	yes	44	1	434	6	1	antiphase_hc_iso.wav	2	6	3	noise_calib_stim_LEFT.wav	1	4	blb_dichoticlistening_ba-ka.mp3	ba	ka	1	right
6.6.1	win	2023-06-27	20:46:59	21:00:25	802340	5fcd709227fabfc6ca7a969e	1	1	practice_z	26	advance_on_keypress_ZEE	16	stimuli_distractor_diamondtriangles.svg	stimuli_target_diamondrectangles.svg	8	yes	57	0	201	6	1	antiphase_hc_iso.wav	2	6	3	noise_calib_stim_LEFT.wav	1	4	blb_dichoticlistening_ba-ka.mp3	ba	ka	1	right
