build	computer.platform	date	time	timestamp	time_elapsed_ms	subject	group	session	blockcode	blocknum	trialcode	trialnum	stimulus_left	stimulus_right	stim_index	target_present	response	correct	latency	headphonecheck_countTestTrials	headphonecheck_index	headphonecheck_testSound	headphonecheck_correctResponse	stereocheck_countTestTrials	stereocheck_index	stereocheck_testSound	stereocheck_correctResponse	DL_index	DL_soundfile	DL_leftSound	DL_rightSound	DL_dualSound	DL_choice
6.6.1	win	2023-07-08	11:14:33	11:17:34	177478	5fb402a66cba9801673f2b5c	4	1	practice_z	5	practice_z	1	stimuli_distractor_trianglediamonds.svg	stimuli_target_diamondrectangles.svg	12	yes	0	0	2000	0	0			0	0			1				0	
6.6.1	win	2023-07-08	11:14:33	11:17:34	177478	5fb402a66cba9801673f2b5c	4	1	practice_z	5	advance_on_keypress_ZEE	2	stimuli_distractor_trianglediamonds.svg	stimuli_target_diamondrectangles.svg	12	yes	57	0	6956	0	0			0	0			1				0	
6.6.1	win	2023-07-08	11:14:33	11:17:43	186608	5fb402a66cba9801673f2b5c	4	1	practice_z	5	practice_z	3	stimuli_target_rectanglediamonds.svg	stimuli_distractor_trianglediamonds.svg	4	yes	44	1	531	0	0			0	0			1				0	
6.6.1	win	2023-07-08	11:14:33	11:17:43	186608	5fb402a66cba9801673f2b5c	4	1	practice_z	5	advance_on_keypress_ZEE	4	stimuli_target_rectanglediamonds.svg	stimuli_distractor_trianglediamonds.svg	4	yes	57	0	4986	0	0			0	0			1				0	
6.6.1	win	2023-07-08	11:14:33	11:17:50	193836	5fb402a66cba9801673f2b5c	4	1	practice_z	5	practice_z	5	stimuli_distractor_diamondtriangles.svg	stimuli_target_diamondrectangles.svg	8	yes	44	1	592	0	0			0	0			1				0	
6.6.1	win	2023-07-08	11:14:33	11:17:50	193836	5fb402a66cba9801673f2b5c	4	1	practice_z	5	advance_on_keypress_ZEE	6	stimuli_distractor_diamondtriangles.svg	stimuli_target_diamondrectangles.svg	8	yes	57	0	5343	0	0			0	0			1				0	
6.6.1	win	2023-07-08	11:14:33	11:17:58	201230	5fb402a66cba9801673f2b5c	4	1	practice_z	5	practice_z	7	stimuli_target_squarediamonds.svg	stimuli_distractor_diamondtriangles.svg	2	yes	44	1	384	0	0			0	0			1				0	
6.6.1	win	2023-07-08	11:14:33	11:17:58	201230	5fb402a66cba9801673f2b5c	4	1	practice_z	5	advance_on_keypress_ZEE	8	stimuli_target_squarediamonds.svg	stimuli_distractor_diamondtriangles.svg	2	yes	57	0	2978	0	0			0	0			1				0	
6.6.1	win	2023-07-08	11:14:33	11:18:04	207862	5fb402a66cba9801673f2b5c	4	1	practice_z	5	practice_z	9	stimuli_distractor_diamondtriangles.svg	stimuli_distractor_diamondtriangles.svg	13	no	0	1	2000	0	0			0	0			1				0	
6.6.1	win	2023-07-08	11:14:33	11:18:04	207862	5fb402a66cba9801673f2b5c	4	1	practice_z	5	advance_on_keypress_ZEE	10	stimuli_distractor_diamondtriangles.svg	stimuli_distractor_diamondtriangles.svg	13	no	57	0	1590	0	0			0	0			1				0	
6.6.1	win	2023-07-08	11:14:33	11:18:09	213095	5fb402a66cba9801673f2b5c	4	1	practice_z	5	practice_z	11	stimuli_distractor_trianglediamonds.svg	stimuli_distractor_diamondtriangles.svg	16	no	0	1	2000	0	0			0	0			1				0	
6.6.1	win	2023-07-08	11:14:33	11:18:09	213095	5fb402a66cba9801673f2b5c	4	1	practice_z	5	advance_on_keypress_ZEE	12	stimuli_distractor_trianglediamonds.svg	stimuli_distractor_diamondtriangles.svg	16	no	57	0	1036	0	0			0	0			1				0	
6.6.1	win	2023-07-08	11:14:33	11:18:14	217778	5fb402a66cba9801673f2b5c	4	1	practice_z	5	practice_z	13	stimuli_distractor_trianglediamonds.svg	stimuli_distractor_trianglediamonds.svg	15	no	0	1	2000	0	0			0	0			1				0	
6.6.1	win	2023-07-08	11:14:33	11:18:14	217778	5fb402a66cba9801673f2b5c	4	1	practice_z	5	advance_on_keypress_ZEE	14	stimuli_distractor_trianglediamonds.svg	stimuli_distractor_trianglediamonds.svg	15	no	57	0	1771	0	0			0	0			1				0	
6.6.1	win	2023-07-08	11:14:33	11:18:20	223195	5fb402a66cba9801673f2b5c	4	1	practice_z	5	practice_z	15	stimuli_distractor_diamondtriangles.svg	stimuli_distractor_trianglediamonds.svg	14	no	0	1	2000	0	0			0	0			1				0	
6.6.1	win	2023-07-08	11:14:33	11:18:20	223195	5fb402a66cba9801673f2b5c	4	1	practice_z	5	advance_on_keypress_ZEE	16	stimuli_distractor_diamondtriangles.svg	stimuli_distractor_trianglediamonds.svg	14	no	57	0	2077	0	0			0	0			1				0	
6.6.1	win	2023-07-08	11:14:33	11:18:25	228928	5fb402a66cba9801673f2b5c	4	1	practice_z	5	practice_z	17	stimuli_target_diamondsquares.svg	stimuli_distractor_diamondtriangles.svg	3	yes	0	0	2000	0	0			0	0			1				0	
6.6.1	win	2023-07-08	11:14:33	11:18:25	228928	5fb402a66cba9801673f2b5c	4	1	practice_z	5	advance_on_keypress_ZEE	18	stimuli_target_diamondsquares.svg	stimuli_distractor_diamondtriangles.svg	3	yes	57	0	1308	0	0			0	0			1				0	
6.6.1	win	2023-07-08	11:14:33	11:18:30	233895	5fb402a66cba9801673f2b5c	4	1	practice_z	5	practice_z	19	stimuli_distractor_trianglediamonds.svg	stimuli_target_rectanglediamonds.svg	10	yes	0	0	2000	0	0			0	0			1				0	
6.6.1	win	2023-07-08	11:14:33	11:18:30	233895	5fb402a66cba9801673f2b5c	4	1	practice_z	5	advance_on_keypress_ZEE	20	stimuli_distractor_trianglediamonds.svg	stimuli_target_rectanglediamonds.svg	10	yes	57	0	1127	0	0			0	0			1				0	
6.6.1	win	2023-07-08	11:14:33	11:18:34	237402	5fb402a66cba9801673f2b5c	4	1	practice_z	5	practice_z	21	stimuli_distractor_diamondtriangles.svg	stimuli_target_trianglerectangles.svg	9	yes	44	1	724	0	0			0	0			1				0	
6.6.1	win	2023-07-08	11:14:33	11:18:34	237402	5fb402a66cba9801673f2b5c	4	1	practice_z	5	advance_on_keypress_ZEE	22	stimuli_distractor_diamondtriangles.svg	stimuli_target_trianglerectangles.svg	9	yes	57	0	2009	0	0			0	0			1				0	
6.6.1	win	2023-07-08	11:14:33	11:18:38	241670	5fb402a66cba9801673f2b5c	4	1	practice_z	5	practice_z	23	stimuli_target_squarediamonds.svg	stimuli_distractor_trianglediamonds.svg	5	yes	44	1	609	0	0			0	0			1				0	
6.6.1	win	2023-07-08	11:14:33	11:18:38	241670	5fb402a66cba9801673f2b5c	4	1	practice_z	5	advance_on_keypress_ZEE	24	stimuli_target_squarediamonds.svg	stimuli_distractor_trianglediamonds.svg	5	yes	57	0	1339	0	0			0	0			1				0	
6.6.1	win	2023-07-08	11:14:33	11:18:41	245064	5fb402a66cba9801673f2b5c	4	1	practice_z	5	practice_z	25	stimuli_distractor_trianglediamonds.svg	stimuli_target_squarediamonds.svg	11	yes	44	1	402	0	0			0	0			1				0	
6.6.1	win	2023-07-08	11:14:33	11:18:41	245064	5fb402a66cba9801673f2b5c	4	1	practice_z	5	advance_on_keypress_ZEE	26	stimuli_distractor_trianglediamonds.svg	stimuli_target_squarediamonds.svg	11	yes	57	0	1242	0	0			0	0			1				0	
6.6.1	win	2023-07-08	11:14:33	11:18:45	248450	5fb402a66cba9801673f2b5c	4	1	practice_z	5	practice_z	27	stimuli_target_rectanglediamonds.svg	stimuli_distractor_diamondtriangles.svg	1	yes	44	1	488	0	0			0	0			1				0	
6.6.1	win	2023-07-08	11:14:33	11:18:45	248450	5fb402a66cba9801673f2b5c	4	1	practice_z	5	advance_on_keypress_ZEE	28	stimuli_target_rectanglediamonds.svg	stimuli_distractor_diamondtriangles.svg	1	yes	57	0	931	0	0			0	0			1				0	
6.6.1	win	2023-07-08	11:14:33	11:18:48	251410	5fb402a66cba9801673f2b5c	4	1	practice_z	5	practice_z	29	stimuli_distractor_diamondtriangles.svg	stimuli_target_rectangletriangles.svg	7	yes	44	1	375	0	0			0	0			1				0	
6.6.1	win	2023-07-08	11:14:33	11:18:48	251410	5fb402a66cba9801673f2b5c	4	1	practice_z	5	advance_on_keypress_ZEE	30	stimuli_distractor_diamondtriangles.svg	stimuli_target_rectangletriangles.svg	7	yes	57	0	904	0	0			0	0			1				0	
6.6.1	win	2023-07-08	11:14:33	11:18:51	254363	5fb402a66cba9801673f2b5c	4	1	practice_z	5	practice_z	31	stimuli_target_diamondsquares.svg	stimuli_distractor_trianglediamonds.svg	6	yes	44	1	401	0	0			0	0			1				0	
6.6.1	win	2023-07-08	11:14:33	11:18:51	254363	5fb402a66cba9801673f2b5c	4	1	practice_z	5	advance_on_keypress_ZEE	32	stimuli_target_diamondsquares.svg	stimuli_distractor_trianglediamonds.svg	6	yes	57	0	807	0	0			0	0			1				0	
6.6.1	win	2023-07-08	11:14:33	11:19:02	265159	5fb402a66cba9801673f2b5c	4	1	main_z	7	main_z	1	stimuli_distractor_diamondtriangles.svg	stimuli_distractor_diamondtriangles.svg	40	no	0	1	2000	0	0			0	0			1				0	
6.6.1	win	2023-07-08	11:14:33	11:19:02	265159	5fb402a66cba9801673f2b5c	4	1	main_z	7	advance_on_keypress_ZEE	2	stimuli_distractor_diamondtriangles.svg	stimuli_distractor_diamondtriangles.svg	40	no	57	0	737	0	0			0	0			1				0	
6.6.1	win	2023-07-08	11:14:33	11:19:04	267130	5fb402a66cba9801673f2b5c	4	1	main_z	7	main_z	3	stimuli_target_diamondrectangles.svg	stimuli_distractor_diamondtriangles.svg	23	yes	44	1	588	0	0			0	0			1				0	
6.6.1	win	2023-07-08	11:14:33	11:19:04	267130	5fb402a66cba9801673f2b5c	4	1	main_z	7	advance_on_keypress_ZEE	4	stimuli_target_diamondrectangles.svg	stimuli_distractor_diamondtriangles.svg	23	yes	57	0	1698	0	0			0	0			1				0	
6.6.1	win	2023-07-08	11:14:33	11:19:06	269995	5fb402a66cba9801673f2b5c	4	1	main_z	7	main_z	5	stimuli_distractor_diamondtriangles.svg	stimuli_target_rectanglediamonds.svg	14	yes	44	1	518	0	0			0	0			1				0	
6.6.1	win	2023-07-08	11:14:33	11:19:06	269995	5fb402a66cba9801673f2b5c	4	1	main_z	7	advance_on_keypress_ZEE	6	stimuli_distractor_diamondtriangles.svg	stimuli_target_rectanglediamonds.svg	14	yes	57	0	2047	0	0			0	0			1				0	
6.6.1	win	2023-07-08	11:14:33	11:19:10	273178	5fb402a66cba9801673f2b5c	4	1	main_z	7	main_z	7	stimuli_distractor_diamondtriangles.svg	stimuli_target_trianglerectangles.svg	29	yes	44	1	485	0	0			0	0			1				0	
6.6.1	win	2023-07-08	11:14:33	11:19:10	273178	5fb402a66cba9801673f2b5c	4	1	main_z	7	advance_on_keypress_ZEE	8	stimuli_distractor_diamondtriangles.svg	stimuli_target_trianglerectangles.svg	29	yes	57	0	1515	0	0			0	0			1				0	
6.6.1	win	2023-07-08	11:14:33	11:19:14	277343	5fb402a66cba9801673f2b5c	4	1	main_z	7	main_z	9	stimuli_distractor_trianglediamonds.svg	stimuli_distractor_trianglediamonds.svg	33	no	0	1	2000	0	0			0	0			1				0	
6.6.1	win	2023-07-08	11:14:33	11:19:14	277343	5fb402a66cba9801673f2b5c	4	1	main_z	7	advance_on_keypress_ZEE	10	stimuli_distractor_trianglediamonds.svg	stimuli_distractor_trianglediamonds.svg	33	no	57	0	942	0	0			0	0			1				0	
6.6.1	win	2023-07-08	11:14:33	11:19:16	279349	5fb402a66cba9801673f2b5c	4	1	main_z	7	main_z	11	stimuli_target_squarediamonds.svg	stimuli_distractor_diamondtriangles.svg	8	yes	44	1	423	0	0			0	0			1				0	
6.6.1	win	2023-07-08	11:14:33	11:19:16	279349	5fb402a66cba9801673f2b5c	4	1	main_z	7	advance_on_keypress_ZEE	12	stimuli_target_squarediamonds.svg	stimuli_distractor_diamondtriangles.svg	8	yes	57	0	1965	0	0			0	0			1				0	
6.6.1	win	2023-07-08	11:14:33	11:19:19	282495	5fb402a66cba9801673f2b5c	4	1	main_z	7	main_z	13	stimuli_target_squaretriangles.svg	stimuli_distractor_trianglediamonds.svg	3	yes	44	1	535	0	0			0	0			1				0	
6.6.1	win	2023-07-08	11:14:33	11:19:19	282495	5fb402a66cba9801673f2b5c	4	1	main_z	7	advance_on_keypress_ZEE	14	stimuli_target_squaretriangles.svg	stimuli_distractor_trianglediamonds.svg	3	yes	57	0	2263	0	0			0	0			1				0	
6.6.1	win	2023-07-08	11:14:33	11:19:22	286094	5fb402a66cba9801673f2b5c	4	1	main_z	7	main_z	15	stimuli_target_squarediamonds.svg	stimuli_distractor_trianglediamonds.svg	4	yes	44	1	684	0	0			0	0			1				0	
6.6.1	win	2023-07-08	11:14:33	11:19:22	286094	5fb402a66cba9801673f2b5c	4	1	main_z	7	advance_on_keypress_ZEE	16	stimuli_target_squarediamonds.svg	stimuli_distractor_trianglediamonds.svg	4	yes	57	0	2863	0	0			0	0			1				0	
6.6.1	win	2023-07-08	11:14:33	11:19:27	290646	5fb402a66cba9801673f2b5c	4	1	main_z	7	main_z	17	stimuli_distractor_diamondtriangles.svg	stimuli_distractor_trianglediamonds.svg	38	no	44	0	1037	0	0			0	0			1				0	
6.6.1	win	2023-07-08	11:14:33	11:19:27	290646	5fb402a66cba9801673f2b5c	4	1	main_z	7	advance_on_keypress_ZEE	18	stimuli_distractor_diamondtriangles.svg	stimuli_distractor_trianglediamonds.svg	38	no	57	0	2205	0	0			0	0			1				0	
6.6.1	win	2023-07-08	11:14:33	11:19:31	294375	5fb402a66cba9801673f2b5c	4	1	main_z	7	main_z	19	stimuli_target_trianglerectangles.svg	stimuli_distractor_trianglediamonds.svg	17	yes	44	1	882	0	0			0	0			1				0	
6.6.1	win	2023-07-08	11:14:33	11:19:31	294375	5fb402a66cba9801673f2b5c	4	1	main_z	7	advance_on_keypress_ZEE	20	stimuli_target_trianglerectangles.svg	stimuli_distractor_trianglediamonds.svg	17	yes	57	0	1697	0	0			0	0			1				0	
6.6.1	win	2023-07-08	11:14:33	11:19:34	297600	5fb402a66cba9801673f2b5c	4	1	main_z	7	main_z	21	stimuli_distractor_trianglediamonds.svg	stimuli_target_trianglesquares.svg	26	yes	44	1	874	0	0			0	0			1				0	
6.6.1	win	2023-07-08	11:14:33	11:19:34	297600	5fb402a66cba9801673f2b5c	4	1	main_z	7	advance_on_keypress_ZEE	22	stimuli_distractor_trianglediamonds.svg	stimuli_target_trianglesquares.svg	26	yes	57	0	1476	0	0			0	0			1				0	
6.6.1	win	2023-07-08	11:14:33	11:19:38	301726	5fb402a66cba9801673f2b5c	4	1	main_z	7	main_z	23	stimuli_target_trianglesquares.svg	stimuli_distractor_diamondtriangles.svg	22	yes	0	0	2000	0	0			0	0			1				0	
6.6.1	win	2023-07-08	11:14:33	11:19:38	301726	5fb402a66cba9801673f2b5c	4	1	main_z	7	advance_on_keypress_ZEE	24	stimuli_target_trianglesquares.svg	stimuli_distractor_diamondtriangles.svg	22	yes	57	0	887	0	0			0	0			1				0	
6.6.1	win	2023-07-08	11:14:33	11:19:40	304029	5fb402a66cba9801673f2b5c	4	1	main_z	7	main_z	25	stimuli_target_trianglesquares.svg	stimuli_distractor_trianglediamonds.svg	18	yes	44	1	769	0	0			0	0			1				0	
6.6.1	win	2023-07-08	11:14:33	11:19:40	304029	5fb402a66cba9801673f2b5c	4	1	main_z	7	advance_on_keypress_ZEE	26	stimuli_target_trianglesquares.svg	stimuli_distractor_trianglediamonds.svg	18	yes	57	0	2904	0	0			0	0			1				0	
6.6.1	win	2023-07-08	11:14:33	11:19:46	309576	5fb402a66cba9801673f2b5c	4	1	main_z	7	main_z	27	stimuli_distractor_diamondtriangles.svg	stimuli_distractor_trianglediamonds.svg	37	no	0	1	2000	0	0			0	0			1				0	
6.6.1	win	2023-07-08	11:14:33	11:19:46	309576	5fb402a66cba9801673f2b5c	4	1	main_z	7	advance_on_keypress_ZEE	28	stimuli_distractor_diamondtriangles.svg	stimuli_distractor_trianglediamonds.svg	37	no	57	0	857	0	0			0	0			1				0	
6.6.1	win	2023-07-08	11:14:33	11:19:48	311943	5fb402a66cba9801673f2b5c	4	1	main_z	7	main_z	29	stimuli_distractor_diamondtriangles.svg	stimuli_target_squarediamonds.svg	16	yes	44	1	866	0	0			0	0			1				0	
6.6.1	win	2023-07-08	11:14:33	11:19:48	311943	5fb402a66cba9801673f2b5c	4	1	main_z	7	advance_on_keypress_ZEE	30	stimuli_distractor_diamondtriangles.svg	stimuli_target_squarediamonds.svg	16	yes	57	0	2073	0	0			0	0			1				0	
6.6.1	win	2023-07-08	11:14:33	11:19:52	315295	5fb402a66cba9801673f2b5c	4	1	main_z	7	main_z	31	stimuli_distractor_trianglediamonds.svg	stimuli_target_squaretriangles.svg	11	yes	44	1	635	0	0			0	0			1				0	
6.6.1	win	2023-07-08	11:14:33	11:19:52	315295	5fb402a66cba9801673f2b5c	4	1	main_z	7	advance_on_keypress_ZEE	32	stimuli_distractor_trianglediamonds.svg	stimuli_target_squaretriangles.svg	11	yes	57	0	1325	0	0			0	0			1				0	
6.6.1	win	2023-07-08	11:14:33	11:19:55	318223	5fb402a66cba9801673f2b5c	4	1	main_z	7	main_z	33	stimuli_distractor_trianglediamonds.svg	stimuli_distractor_diamondtriangles.svg	35	no	44	0	963	0	0			0	0			1				0	
6.6.1	win	2023-07-08	11:14:33	11:19:55	318223	5fb402a66cba9801673f2b5c	4	1	main_z	7	advance_on_keypress_ZEE	34	stimuli_distractor_trianglediamonds.svg	stimuli_distractor_diamondtriangles.svg	35	no	57	0	1387	0	0			0	0			1				0	
6.6.1	win	2023-07-08	11:14:33	11:19:57	320971	5fb402a66cba9801673f2b5c	4	1	main_z	7	main_z	35	stimuli_distractor_diamondtriangles.svg	stimuli_target_rectangletriangles.svg	13	yes	44	1	711	0	0			0	0			1				0	
6.6.1	win	2023-07-08	11:14:33	11:19:57	320971	5fb402a66cba9801673f2b5c	4	1	main_z	7	advance_on_keypress_ZEE	36	stimuli_distractor_diamondtriangles.svg	stimuli_target_rectangletriangles.svg	13	yes	57	0	2114	0	0			0	0			1				0	
6.6.1	win	2023-07-08	11:14:33	11:20:02	325743	5fb402a66cba9801673f2b5c	4	1	main_z	7	main_z	37	stimuli_distractor_diamondtriangles.svg	stimuli_distractor_diamondtriangles.svg	39	no	0	1	2000	0	0			0	0			1				0	
6.6.1	win	2023-07-08	11:14:33	11:20:02	325743	5fb402a66cba9801673f2b5c	4	1	main_z	7	advance_on_keypress_ZEE	38	stimuli_distractor_diamondtriangles.svg	stimuli_distractor_diamondtriangles.svg	39	no	57	0	707	0	0			0	0			1				0	
6.6.1	win	2023-07-08	11:14:33	11:20:04	327917	5fb402a66cba9801673f2b5c	4	1	main_z	7	main_z	39	stimuli_distractor_diamondtriangles.svg	stimuli_target_squaretriangles.svg	15	yes	44	1	823	0	0			0	0			1				0	
6.6.1	win	2023-07-08	11:14:33	11:20:04	327917	5fb402a66cba9801673f2b5c	4	1	main_z	7	advance_on_keypress_ZEE	40	stimuli_distractor_diamondtriangles.svg	stimuli_target_squaretriangles.svg	15	yes	57	0	2177	0	0			0	0			1				0	
6.6.1	win	2023-07-08	11:14:33	11:20:08	331453	5fb402a66cba9801673f2b5c	4	1	main_z	7	main_z	41	stimuli_target_squaretriangles.svg	stimuli_distractor_diamondtriangles.svg	7	yes	44	1	727	0	0			0	0			1				0	
6.6.1	win	2023-07-08	11:14:33	11:20:08	331453	5fb402a66cba9801673f2b5c	4	1	main_z	7	advance_on_keypress_ZEE	42	stimuli_target_squaretriangles.svg	stimuli_distractor_diamondtriangles.svg	7	yes	57	0	2675	0	0			0	0			1				0	
6.6.1	win	2023-07-08	11:14:33	11:20:12	335628	5fb402a66cba9801673f2b5c	4	1	main_z	7	main_z	43	stimuli_distractor_diamondtriangles.svg	stimuli_target_diamondsquares.svg	32	yes	44	1	868	0	0			0	0			1				0	
6.6.1	win	2023-07-08	11:14:33	11:20:12	335628	5fb402a66cba9801673f2b5c	4	1	main_z	7	advance_on_keypress_ZEE	44	stimuli_distractor_diamondtriangles.svg	stimuli_target_diamondsquares.svg	32	yes	57	0	1515	0	0			0	0			1				0	
6.6.1	win	2023-07-08	11:14:33	11:20:15	338446	5fb402a66cba9801673f2b5c	4	1	main_z	7	main_z	45	stimuli_distractor_trianglediamonds.svg	stimuli_target_rectangletriangles.svg	9	yes	44	1	653	0	0			0	0			1				0	
6.6.1	win	2023-07-08	11:14:33	11:20:15	338446	5fb402a66cba9801673f2b5c	4	1	main_z	7	advance_on_keypress_ZEE	46	stimuli_distractor_trianglediamonds.svg	stimuli_target_rectangletriangles.svg	9	yes	57	0	2140	0	0			0	0			1				0	
6.6.1	win	2023-07-08	11:14:33	11:20:18	341780	5fb402a66cba9801673f2b5c	4	1	main_z	7	main_z	47	stimuli_target_rectanglediamonds.svg	stimuli_distractor_diamondtriangles.svg	6	yes	44	1	553	0	0			0	0			1				0	
6.6.1	win	2023-07-08	11:14:33	11:20:18	341780	5fb402a66cba9801673f2b5c	4	1	main_z	7	advance_on_keypress_ZEE	48	stimuli_target_rectanglediamonds.svg	stimuli_distractor_diamondtriangles.svg	6	yes	57	0	1879	0	0			0	0			1				0	
6.6.1	win	2023-07-08	11:14:33	11:20:21	345115	5fb402a66cba9801673f2b5c	4	1	main_z	7	main_z	49	stimuli_target_diamondsquares.svg	stimuli_distractor_trianglediamonds.svg	20	yes	44	1	805	0	0			0	0			1				0	
6.6.1	win	2023-07-08	11:14:33	11:20:21	345115	5fb402a66cba9801673f2b5c	4	1	main_z	7	advance_on_keypress_ZEE	50	stimuli_target_diamondsquares.svg	stimuli_distractor_trianglediamonds.svg	20	yes	57	0	1329	0	0			0	0			1				0	
6.6.1	win	2023-07-08	11:14:33	11:20:24	347919	5fb402a66cba9801673f2b5c	4	1	main_z	7	main_z	51	stimuli_target_rectangletriangles.svg	stimuli_distractor_diamondtriangles.svg	5	yes	44	1	826	0	0			0	0			1				0	
6.6.1	win	2023-07-08	11:14:33	11:20:24	347919	5fb402a66cba9801673f2b5c	4	1	main_z	7	advance_on_keypress_ZEE	52	stimuli_target_rectangletriangles.svg	stimuli_distractor_diamondtriangles.svg	5	yes	57	0	1530	0	0			0	0			1				0	
6.6.1	win	2023-07-08	11:14:33	11:20:27	351011	5fb402a66cba9801673f2b5c	4	1	main_z	7	main_z	53	stimuli_distractor_trianglediamonds.svg	stimuli_target_trianglerectangles.svg	25	yes	44	1	917	0	0			0	0			1				0	
6.6.1	win	2023-07-08	11:14:33	11:20:27	351011	5fb402a66cba9801673f2b5c	4	1	main_z	7	advance_on_keypress_ZEE	54	stimuli_distractor_trianglediamonds.svg	stimuli_target_trianglerectangles.svg	25	yes	57	0	1400	0	0			0	0			1				0	
6.6.1	win	2023-07-08	11:14:33	11:20:30	353889	5fb402a66cba9801673f2b5c	4	1	main_z	7	main_z	55	stimuli_target_diamondrectangles.svg	stimuli_distractor_trianglediamonds.svg	19	yes	44	1	829	0	0			0	0			1				0	
6.6.1	win	2023-07-08	11:14:33	11:20:30	353889	5fb402a66cba9801673f2b5c	4	1	main_z	7	advance_on_keypress_ZEE	56	stimuli_target_diamondrectangles.svg	stimuli_distractor_trianglediamonds.svg	19	yes	57	0	1092	0	0			0	0			1				0	
6.6.1	win	2023-07-08	11:14:33	11:20:34	357627	5fb402a66cba9801673f2b5c	4	1	main_z	7	main_z	57	stimuli_distractor_trianglediamonds.svg	stimuli_distractor_trianglediamonds.svg	34	no	0	1	2000	0	0			0	0			1				0	
6.6.1	win	2023-07-08	11:14:33	11:20:34	357627	5fb402a66cba9801673f2b5c	4	1	main_z	7	advance_on_keypress_ZEE	58	stimuli_distractor_trianglediamonds.svg	stimuli_distractor_trianglediamonds.svg	34	no	57	0	683	0	0			0	0			1				0	
6.6.1	win	2023-07-08	11:14:33	11:20:36	359586	5fb402a66cba9801673f2b5c	4	1	main_z	7	main_z	59	stimuli_distractor_trianglediamonds.svg	stimuli_target_rectanglediamonds.svg	10	yes	44	1	626	0	0			0	0			1				0	
6.6.1	win	2023-07-08	11:14:33	11:20:36	359586	5fb402a66cba9801673f2b5c	4	1	main_z	7	advance_on_keypress_ZEE	60	stimuli_distractor_trianglediamonds.svg	stimuli_target_rectanglediamonds.svg	10	yes	57	0	2348	0	0			0	0			1				0	
6.6.1	win	2023-07-08	11:14:33	11:20:40	363404	5fb402a66cba9801673f2b5c	4	1	main_z	7	main_z	61	stimuli_target_trianglerectangles.svg	stimuli_distractor_diamondtriangles.svg	21	yes	44	1	828	0	0			0	0			1				0	
6.6.1	win	2023-07-08	11:14:33	11:20:40	363404	5fb402a66cba9801673f2b5c	4	1	main_z	7	advance_on_keypress_ZEE	62	stimuli_target_trianglerectangles.svg	stimuli_distractor_diamondtriangles.svg	21	yes	57	0	1628	0	0			0	0			1				0	
6.6.1	win	2023-07-08	11:14:33	11:20:44	367677	5fb402a66cba9801673f2b5c	4	1	main_z	7	main_z	63	stimuli_distractor_trianglediamonds.svg	stimuli_distractor_diamondtriangles.svg	36	no	0	1	2000	0	0			0	0			1				0	
6.6.1	win	2023-07-08	11:14:33	11:20:44	367677	5fb402a66cba9801673f2b5c	4	1	main_z	7	advance_on_keypress_ZEE	64	stimuli_distractor_trianglediamonds.svg	stimuli_distractor_diamondtriangles.svg	36	no	57	0	719	0	0			0	0			1				0	
6.6.1	win	2023-07-08	11:14:33	11:20:46	369980	5fb402a66cba9801673f2b5c	4	1	main_z	7	main_z	65	stimuli_target_diamondsquares.svg	stimuli_distractor_diamondtriangles.svg	24	yes	44	1	936	0	0			0	0			1				0	
6.6.1	win	2023-07-08	11:14:33	11:20:46	369980	5fb402a66cba9801673f2b5c	4	1	main_z	7	advance_on_keypress_ZEE	66	stimuli_target_diamondsquares.svg	stimuli_distractor_diamondtriangles.svg	24	yes	57	0	1120	0	0			0	0			1				0	
6.6.1	win	2023-07-08	11:14:33	11:20:49	372542	5fb402a66cba9801673f2b5c	4	1	main_z	7	main_z	67	stimuli_distractor_trianglediamonds.svg	stimuli_target_squarediamonds.svg	12	yes	44	1	798	0	0			0	0			1				0	
6.6.1	win	2023-07-08	11:14:33	11:20:49	372542	5fb402a66cba9801673f2b5c	4	1	main_z	7	advance_on_keypress_ZEE	68	stimuli_distractor_trianglediamonds.svg	stimuli_target_squarediamonds.svg	12	yes	57	0	973	0	0			0	0			1				0	
6.6.1	win	2023-07-08	11:14:33	11:20:51	374904	5fb402a66cba9801673f2b5c	4	1	main_z	7	main_z	69	stimuli_target_rectanglediamonds.svg	stimuli_distractor_trianglediamonds.svg	2	yes	44	1	743	0	0			0	0			1				0	
6.6.1	win	2023-07-08	11:14:33	11:20:51	374904	5fb402a66cba9801673f2b5c	4	1	main_z	7	advance_on_keypress_ZEE	70	stimuli_target_rectanglediamonds.svg	stimuli_distractor_trianglediamonds.svg	2	yes	57	0	1017	0	0			0	0			1				0	
6.6.1	win	2023-07-08	11:14:33	11:20:54	377270	5fb402a66cba9801673f2b5c	4	1	main_z	7	main_z	71	stimuli_target_rectangletriangles.svg	stimuli_distractor_trianglediamonds.svg	1	yes	44	1	709	0	0			0	0			1				0	
6.6.1	win	2023-07-08	11:14:33	11:20:54	377270	5fb402a66cba9801673f2b5c	4	1	main_z	7	advance_on_keypress_ZEE	72	stimuli_target_rectangletriangles.svg	stimuli_distractor_trianglediamonds.svg	1	yes	57	0	833	0	0			0	0			1				0	
6.6.1	win	2023-07-08	11:14:33	11:20:56	379788	5fb402a66cba9801673f2b5c	4	1	main_z	7	main_z	73	stimuli_distractor_diamondtriangles.svg	stimuli_target_trianglesquares.svg	30	yes	44	1	1044	0	0			0	0			1				0	
6.6.1	win	2023-07-08	11:14:33	11:20:56	379788	5fb402a66cba9801673f2b5c	4	1	main_z	7	advance_on_keypress_ZEE	74	stimuli_distractor_diamondtriangles.svg	stimuli_target_trianglesquares.svg	30	yes	57	0	1152	0	0			0	0			1				0	
6.6.1	win	2023-07-08	11:14:33	11:20:59	382587	5fb402a66cba9801673f2b5c	4	1	main_z	7	main_z	75	stimuli_distractor_trianglediamonds.svg	stimuli_target_diamondrectangles.svg	27	yes	44	1	993	0	0			0	0			1				0	
6.6.1	win	2023-07-08	11:14:33	11:20:59	382587	5fb402a66cba9801673f2b5c	4	1	main_z	7	advance_on_keypress_ZEE	76	stimuli_distractor_trianglediamonds.svg	stimuli_target_diamondrectangles.svg	27	yes	57	0	952	0	0			0	0			1				0	
6.6.1	win	2023-07-08	11:14:33	11:21:02	385167	5fb402a66cba9801673f2b5c	4	1	main_z	7	main_z	77	stimuli_distractor_diamondtriangles.svg	stimuli_target_diamondrectangles.svg	31	yes	44	1	989	0	0			0	0			1				0	
6.6.1	win	2023-07-08	11:14:33	11:21:02	385167	5fb402a66cba9801673f2b5c	4	1	main_z	7	advance_on_keypress_ZEE	78	stimuli_distractor_diamondtriangles.svg	stimuli_target_diamondrectangles.svg	31	yes	57	0	973	0	0			0	0			1				0	
6.6.1	win	2023-07-08	11:14:33	11:21:04	387629	5fb402a66cba9801673f2b5c	4	1	main_z	7	main_z	79	stimuli_distractor_trianglediamonds.svg	stimuli_target_diamondsquares.svg	28	yes	44	1	851	0	0			0	0			1				0	
6.6.1	win	2023-07-08	11:14:33	11:21:04	387629	5fb402a66cba9801673f2b5c	4	1	main_z	7	advance_on_keypress_ZEE	80	stimuli_distractor_trianglediamonds.svg	stimuli_target_diamondsquares.svg	28	yes	57	0	1107	0	0			0	0			1				0	
6.6.1	win	2023-07-08	11:14:33	11:21:06	390070	5fb402a66cba9801673f2b5c	4	1	main_z	7	main_z	81	stimuli_distractor_trianglediamonds.svg	stimuli_target_squaretriangles.svg	11	yes	44	1	692	0	0			0	0			1				0	
6.6.1	win	2023-07-08	11:14:33	11:21:06	390070	5fb402a66cba9801673f2b5c	4	1	main_z	7	advance_on_keypress_ZEE	82	stimuli_distractor_trianglediamonds.svg	stimuli_target_squaretriangles.svg	11	yes	57	0	874	0	0			0	0			1				0	
6.6.1	win	2023-07-08	11:14:33	11:21:09	392525	5fb402a66cba9801673f2b5c	4	1	main_z	7	main_z	83	stimuli_target_rectanglediamonds.svg	stimuli_distractor_trianglediamonds.svg	2	yes	44	1	932	0	0			0	0			1				0	
6.6.1	win	2023-07-08	11:14:33	11:21:09	392525	5fb402a66cba9801673f2b5c	4	1	main_z	7	advance_on_keypress_ZEE	84	stimuli_target_rectanglediamonds.svg	stimuli_distractor_trianglediamonds.svg	2	yes	57	0	728	0	0			0	0			1				0	
6.6.1	win	2023-07-08	11:14:33	11:21:12	395911	5fb402a66cba9801673f2b5c	4	1	main_z	7	main_z	85	stimuli_distractor_diamondtriangles.svg	stimuli_distractor_diamondtriangles.svg	39	no	0	1	2000	0	0			0	0			1				0	
6.6.1	win	2023-07-08	11:14:33	11:21:12	395911	5fb402a66cba9801673f2b5c	4	1	main_z	7	advance_on_keypress_ZEE	86	stimuli_distractor_diamondtriangles.svg	stimuli_distractor_diamondtriangles.svg	39	no	57	0	522	0	0			0	0			1				0	
6.6.1	win	2023-07-08	11:14:33	11:21:14	397894	5fb402a66cba9801673f2b5c	4	1	main_z	7	main_z	87	stimuli_target_diamondrectangles.svg	stimuli_distractor_diamondtriangles.svg	23	yes	44	1	816	0	0			0	0			1				0	
6.6.1	win	2023-07-08	11:14:33	11:21:14	397894	5fb402a66cba9801673f2b5c	4	1	main_z	7	advance_on_keypress_ZEE	88	stimuli_target_diamondrectangles.svg	stimuli_distractor_diamondtriangles.svg	23	yes	57	0	665	0	0			0	0			1				0	
6.6.1	win	2023-07-08	11:14:33	11:21:16	400051	5fb402a66cba9801673f2b5c	4	1	main_z	7	main_z	89	stimuli_target_squarediamonds.svg	stimuli_distractor_diamondtriangles.svg	8	yes	44	1	840	0	0			0	0			1				0	
6.6.1	win	2023-07-08	11:14:33	11:21:16	400051	5fb402a66cba9801673f2b5c	4	1	main_z	7	advance_on_keypress_ZEE	90	stimuli_target_squarediamonds.svg	stimuli_distractor_diamondtriangles.svg	8	yes	57	0	472	0	0			0	0			1				0	
6.6.1	win	2023-07-08	11:14:33	11:21:18	402027	5fb402a66cba9801673f2b5c	4	1	main_z	7	main_z	91	stimuli_target_squaretriangles.svg	stimuli_distractor_diamondtriangles.svg	7	yes	44	1	849	0	0			0	0			1				0	
6.6.1	win	2023-07-08	11:14:33	11:21:18	402027	5fb402a66cba9801673f2b5c	4	1	main_z	7	advance_on_keypress_ZEE	92	stimuli_target_squaretriangles.svg	stimuli_distractor_diamondtriangles.svg	7	yes	57	0	518	0	0			0	0			1				0	
6.6.1	win	2023-07-08	11:14:33	11:21:22	405194	5fb402a66cba9801673f2b5c	4	1	main_z	7	main_z	93	stimuli_distractor_trianglediamonds.svg	stimuli_distractor_trianglediamonds.svg	33	no	0	1	2000	0	0			0	0			1				0	
6.6.1	win	2023-07-08	11:14:33	11:21:22	405194	5fb402a66cba9801673f2b5c	4	1	main_z	7	advance_on_keypress_ZEE	94	stimuli_distractor_trianglediamonds.svg	stimuli_distractor_trianglediamonds.svg	33	no	57	0	777	0	0			0	0			1				0	
6.6.1	win	2023-07-08	11:14:33	11:21:24	407499	5fb402a66cba9801673f2b5c	4	1	main_z	7	main_z	95	stimuli_distractor_trianglediamonds.svg	stimuli_target_diamondsquares.svg	28	yes	44	1	887	0	0			0	0			1				0	
6.6.1	win	2023-07-08	11:14:33	11:21:24	407499	5fb402a66cba9801673f2b5c	4	1	main_z	7	advance_on_keypress_ZEE	96	stimuli_distractor_trianglediamonds.svg	stimuli_target_diamondsquares.svg	28	yes	57	0	628	0	0			0	0			1				0	
6.6.1	win	2023-07-08	11:14:33	11:21:26	409744	5fb402a66cba9801673f2b5c	4	1	main_z	7	main_z	97	stimuli_target_trianglesquares.svg	stimuli_distractor_diamondtriangles.svg	22	yes	44	1	967	0	0			0	0			1				0	
6.6.1	win	2023-07-08	11:14:33	11:21:26	409744	5fb402a66cba9801673f2b5c	4	1	main_z	7	advance_on_keypress_ZEE	98	stimuli_target_trianglesquares.svg	stimuli_distractor_diamondtriangles.svg	22	yes	57	0	398	0	0			0	0			1				0	
6.6.1	win	2023-07-08	11:14:33	11:21:28	411764	5fb402a66cba9801673f2b5c	4	1	main_z	7	main_z	99	stimuli_target_rectangletriangles.svg	stimuli_distractor_diamondtriangles.svg	5	yes	44	1	969	0	0			0	0			1				0	
6.6.1	win	2023-07-08	11:14:33	11:21:28	411764	5fb402a66cba9801673f2b5c	4	1	main_z	7	advance_on_keypress_ZEE	100	stimuli_target_rectangletriangles.svg	stimuli_distractor_diamondtriangles.svg	5	yes	57	0	510	0	0			0	0			1				0	
6.6.1	win	2023-07-08	11:14:33	11:21:30	413865	5fb402a66cba9801673f2b5c	4	1	main_z	7	main_z	101	stimuli_distractor_diamondtriangles.svg	stimuli_target_trianglerectangles.svg	29	yes	44	1	953	0	0			0	0			1				0	
6.6.1	win	2023-07-08	11:14:33	11:21:30	413865	5fb402a66cba9801673f2b5c	4	1	main_z	7	advance_on_keypress_ZEE	102	stimuli_distractor_diamondtriangles.svg	stimuli_target_trianglerectangles.svg	29	yes	57	0	471	0	0			0	0			1				0	
6.6.1	win	2023-07-08	11:14:33	11:21:33	416395	5fb402a66cba9801673f2b5c	4	1	main_z	7	main_z	103	stimuli_distractor_diamondtriangles.svg	stimuli_target_rectanglediamonds.svg	14	yes	44	1	1417	0	0			0	0			1				0	
6.6.1	win	2023-07-08	11:14:33	11:21:33	416395	5fb402a66cba9801673f2b5c	4	1	main_z	7	advance_on_keypress_ZEE	104	stimuli_distractor_diamondtriangles.svg	stimuli_target_rectanglediamonds.svg	14	yes	57	0	814	0	0			0	0			1				0	
6.6.1	win	2023-07-08	11:14:33	11:21:36	419861	5fb402a66cba9801673f2b5c	4	1	main_z	7	main_z	105	stimuli_distractor_diamondtriangles.svg	stimuli_distractor_diamondtriangles.svg	40	no	0	1	2000	0	0			0	0			1				0	
6.6.1	win	2023-07-08	11:14:33	11:21:36	419861	5fb402a66cba9801673f2b5c	4	1	main_z	7	advance_on_keypress_ZEE	106	stimuli_distractor_diamondtriangles.svg	stimuli_distractor_diamondtriangles.svg	40	no	57	0	557	0	0			0	0			1				0	
6.6.1	win	2023-07-08	11:14:33	11:21:38	421942	5fb402a66cba9801673f2b5c	4	1	main_z	7	main_z	107	stimuli_distractor_diamondtriangles.svg	stimuli_target_diamondrectangles.svg	31	yes	44	1	881	0	0			0	0			1				0	
6.6.1	win	2023-07-08	11:14:33	11:21:38	421942	5fb402a66cba9801673f2b5c	4	1	main_z	7	advance_on_keypress_ZEE	108	stimuli_distractor_diamondtriangles.svg	stimuli_target_diamondrectangles.svg	31	yes	57	0	456	0	0			0	0			1				0	
6.6.1	win	2023-07-08	11:14:33	11:21:40	423898	5fb402a66cba9801673f2b5c	4	1	main_z	7	main_z	109	stimuli_distractor_diamondtriangles.svg	stimuli_target_squaretriangles.svg	15	yes	44	1	854	0	0			0	0			1				0	
6.6.1	win	2023-07-08	11:14:33	11:21:40	423898	5fb402a66cba9801673f2b5c	4	1	main_z	7	advance_on_keypress_ZEE	110	stimuli_distractor_diamondtriangles.svg	stimuli_target_squaretriangles.svg	15	yes	57	0	476	0	0			0	0			1				0	
6.6.1	win	2023-07-08	11:14:33	11:21:42	425866	5fb402a66cba9801673f2b5c	4	1	main_z	7	main_z	111	stimuli_distractor_trianglediamonds.svg	stimuli_target_rectanglediamonds.svg	10	yes	44	1	854	0	0			0	0			1				0	
6.6.1	win	2023-07-08	11:14:33	11:21:42	425866	5fb402a66cba9801673f2b5c	4	1	main_z	7	advance_on_keypress_ZEE	112	stimuli_distractor_trianglediamonds.svg	stimuli_target_rectanglediamonds.svg	10	yes	57	0	500	0	0			0	0			1				0	
6.6.1	win	2023-07-08	11:14:33	11:21:45	429012	5fb402a66cba9801673f2b5c	4	1	main_z	7	main_z	113	stimuli_distractor_trianglediamonds.svg	stimuli_distractor_trianglediamonds.svg	34	no	0	1	2000	0	0			0	0			1				0	
6.6.1	win	2023-07-08	11:14:33	11:21:45	429012	5fb402a66cba9801673f2b5c	4	1	main_z	7	advance_on_keypress_ZEE	114	stimuli_distractor_trianglediamonds.svg	stimuli_distractor_trianglediamonds.svg	34	no	57	0	602	0	0			0	0			1				0	
6.6.1	win	2023-07-08	11:14:33	11:21:49	432261	5fb402a66cba9801673f2b5c	4	1	main_z	7	main_z	115	stimuli_distractor_diamondtriangles.svg	stimuli_distractor_trianglediamonds.svg	38	no	0	1	2000	0	0			0	0			1				0	
6.6.1	win	2023-07-08	11:14:33	11:21:49	432261	5fb402a66cba9801673f2b5c	4	1	main_z	7	advance_on_keypress_ZEE	116	stimuli_distractor_diamondtriangles.svg	stimuli_distractor_trianglediamonds.svg	38	no	57	0	520	0	0			0	0			1				0	
6.6.1	win	2023-07-08	11:14:33	11:21:51	434148	5fb402a66cba9801673f2b5c	4	1	main_z	7	main_z	117	stimuli_target_diamondsquares.svg	stimuli_distractor_trianglediamonds.svg	20	yes	44	1	719	0	0			0	0			1				0	
6.6.1	win	2023-07-08	11:14:33	11:21:51	434148	5fb402a66cba9801673f2b5c	4	1	main_z	7	advance_on_keypress_ZEE	118	stimuli_target_diamondsquares.svg	stimuli_distractor_trianglediamonds.svg	20	yes	57	0	481	0	0			0	0			1				0	
6.6.1	win	2023-07-08	11:14:33	11:21:52	436103	5fb402a66cba9801673f2b5c	4	1	main_z	7	main_z	119	stimuli_target_rectanglediamonds.svg	stimuli_distractor_diamondtriangles.svg	6	yes	44	1	824	0	0			0	0			1				0	
6.6.1	win	2023-07-08	11:14:33	11:21:52	436103	5fb402a66cba9801673f2b5c	4	1	main_z	7	advance_on_keypress_ZEE	120	stimuli_target_rectanglediamonds.svg	stimuli_distractor_diamondtriangles.svg	6	yes	57	0	448	0	0			0	0			1				0	
6.6.1	win	2023-07-08	11:14:33	11:21:54	438032	5fb402a66cba9801673f2b5c	4	1	main_z	7	main_z	121	stimuli_target_squarediamonds.svg	stimuli_distractor_trianglediamonds.svg	4	yes	44	1	838	0	0			0	0			1				0	
6.6.1	win	2023-07-08	11:14:33	11:21:54	438032	5fb402a66cba9801673f2b5c	4	1	main_z	7	advance_on_keypress_ZEE	122	stimuli_target_squarediamonds.svg	stimuli_distractor_trianglediamonds.svg	4	yes	57	0	446	0	0			0	0			1				0	
6.6.1	win	2023-07-08	11:14:33	11:21:57	440177	5fb402a66cba9801673f2b5c	4	1	main_z	7	main_z	123	stimuli_target_trianglerectangles.svg	stimuli_distractor_trianglediamonds.svg	17	yes	44	1	1048	0	0			0	0			1				0	
6.6.1	win	2023-07-08	11:14:33	11:21:57	440177	5fb402a66cba9801673f2b5c	4	1	main_z	7	advance_on_keypress_ZEE	124	stimuli_target_trianglerectangles.svg	stimuli_distractor_trianglediamonds.svg	17	yes	57	0	479	0	0			0	0			1				0	
6.6.1	win	2023-07-08	11:14:33	11:21:59	442410	5fb402a66cba9801673f2b5c	4	1	main_z	7	main_z	125	stimuli_target_trianglesquares.svg	stimuli_distractor_trianglediamonds.svg	18	yes	44	1	1098	0	0			0	0			1				0	
6.6.1	win	2023-07-08	11:14:33	11:21:59	442410	5fb402a66cba9801673f2b5c	4	1	main_z	7	advance_on_keypress_ZEE	126	stimuli_target_trianglesquares.svg	stimuli_distractor_trianglediamonds.svg	18	yes	57	0	505	0	0			0	0			1				0	
6.6.1	win	2023-07-08	11:14:33	11:22:01	444715	5fb402a66cba9801673f2b5c	4	1	main_z	7	main_z	127	stimuli_distractor_diamondtriangles.svg	stimuli_target_rectangletriangles.svg	13	yes	44	1	1154	0	0			0	0			1				0	
6.6.1	win	2023-07-08	11:14:33	11:22:01	444715	5fb402a66cba9801673f2b5c	4	1	main_z	7	advance_on_keypress_ZEE	128	stimuli_distractor_diamondtriangles.svg	stimuli_target_rectangletriangles.svg	13	yes	57	0	669	0	0			0	0			1				0	
6.6.1	win	2023-07-08	11:14:33	11:22:03	447034	5fb402a66cba9801673f2b5c	4	1	main_z	7	main_z	129	stimuli_distractor_trianglediamonds.svg	stimuli_target_squarediamonds.svg	12	yes	44	1	1005	0	0			0	0			1				0	
6.6.1	win	2023-07-08	11:14:33	11:22:03	447034	5fb402a66cba9801673f2b5c	4	1	main_z	7	advance_on_keypress_ZEE	130	stimuli_distractor_trianglediamonds.svg	stimuli_target_squarediamonds.svg	12	yes	57	0	584	0	0			0	0			1				0	
6.6.1	win	2023-07-08	11:14:33	11:22:06	449385	5fb402a66cba9801673f2b5c	4	1	main_z	7	main_z	131	stimuli_distractor_trianglediamonds.svg	stimuli_distractor_diamondtriangles.svg	36	no	44	0	1124	0	0			0	0			1				0	
6.6.1	win	2023-07-08	11:14:33	11:22:06	449385	5fb402a66cba9801673f2b5c	4	1	main_z	7	advance_on_keypress_ZEE	132	stimuli_distractor_trianglediamonds.svg	stimuli_distractor_diamondtriangles.svg	36	no	57	0	441	0	0			0	0			1				0	
6.6.1	win	2023-07-08	11:14:33	11:22:08	451374	5fb402a66cba9801673f2b5c	4	1	main_z	7	main_z	133	stimuli_target_trianglerectangles.svg	stimuli_distractor_diamondtriangles.svg	21	yes	44	1	912	0	0			0	0			1				0	
6.6.1	win	2023-07-08	11:14:33	11:22:08	451374	5fb402a66cba9801673f2b5c	4	1	main_z	7	advance_on_keypress_ZEE	134	stimuli_target_trianglerectangles.svg	stimuli_distractor_diamondtriangles.svg	21	yes	57	0	439	0	0			0	0			1				0	
6.6.1	win	2023-07-08	11:14:33	11:22:10	453412	5fb402a66cba9801673f2b5c	4	1	main_z	7	main_z	135	stimuli_distractor_trianglediamonds.svg	stimuli_target_trianglerectangles.svg	25	yes	44	1	950	0	0			0	0			1				0	
6.6.1	win	2023-07-08	11:14:33	11:22:10	453412	5fb402a66cba9801673f2b5c	4	1	main_z	7	advance_on_keypress_ZEE	136	stimuli_distractor_trianglediamonds.svg	stimuli_target_trianglerectangles.svg	25	yes	57	0	431	0	0			0	0			1				0	
6.6.1	win	2023-07-08	11:14:33	11:22:12	455515	5fb402a66cba9801673f2b5c	4	1	main_z	7	main_z	137	stimuli_target_squaretriangles.svg	stimuli_distractor_trianglediamonds.svg	3	yes	44	1	1021	0	0			0	0			1				0	
6.6.1	win	2023-07-08	11:14:33	11:22:12	455515	5fb402a66cba9801673f2b5c	4	1	main_z	7	advance_on_keypress_ZEE	138	stimuli_target_squaretriangles.svg	stimuli_distractor_trianglediamonds.svg	3	yes	57	0	487	0	0			0	0			1				0	
6.6.1	win	2023-07-08	11:14:33	11:22:14	457615	5fb402a66cba9801673f2b5c	4	1	main_z	7	main_z	139	stimuli_distractor_trianglediamonds.svg	stimuli_target_trianglesquares.svg	26	yes	44	1	971	0	0			0	0			1				0	
6.6.1	win	2023-07-08	11:14:33	11:22:14	457615	5fb402a66cba9801673f2b5c	4	1	main_z	7	advance_on_keypress_ZEE	140	stimuli_distractor_trianglediamonds.svg	stimuli_target_trianglesquares.svg	26	yes	57	0	350	0	0			0	0			1				0	
6.6.1	win	2023-07-08	11:14:33	11:22:16	459271	5fb402a66cba9801673f2b5c	4	1	main_z	7	main_z	141	stimuli_target_rectangletriangles.svg	stimuli_distractor_trianglediamonds.svg	1	yes	44	1	659	0	0			0	0			1				0	
6.6.1	win	2023-07-08	11:14:33	11:22:16	459271	5fb402a66cba9801673f2b5c	4	1	main_z	7	advance_on_keypress_ZEE	142	stimuli_target_rectangletriangles.svg	stimuli_distractor_trianglediamonds.svg	1	yes	57	0	731	0	0			0	0			1				0	
6.6.1	win	2023-07-08	11:14:33	11:22:18	461408	5fb402a66cba9801673f2b5c	4	1	main_z	7	main_z	143	stimuli_distractor_diamondtriangles.svg	stimuli_target_trianglesquares.svg	30	yes	44	1	762	0	0			0	0			1				0	
6.6.1	win	2023-07-08	11:14:33	11:22:18	461408	5fb402a66cba9801673f2b5c	4	1	main_z	7	advance_on_keypress_ZEE	144	stimuli_distractor_diamondtriangles.svg	stimuli_target_trianglesquares.svg	30	yes	57	0	374	0	0			0	0			1				0	
6.6.1	win	2023-07-08	11:14:33	11:22:20	463391	5fb402a66cba9801673f2b5c	4	1	main_z	7	main_z	145	stimuli_distractor_trianglediamonds.svg	stimuli_target_rectangletriangles.svg	9	yes	44	1	962	0	0			0	0			1				0	
6.6.1	win	2023-07-08	11:14:33	11:22:20	463391	5fb402a66cba9801673f2b5c	4	1	main_z	7	advance_on_keypress_ZEE	146	stimuli_distractor_trianglediamonds.svg	stimuli_target_rectangletriangles.svg	9	yes	57	0	392	0	0			0	0			1				0	
6.6.1	win	2023-07-08	11:14:33	11:22:22	465915	5fb402a66cba9801673f2b5c	4	1	main_z	7	main_z	147	stimuli_distractor_diamondtriangles.svg	stimuli_target_squarediamonds.svg	16	yes	44	1	1486	0	0			0	0			1				0	
6.6.1	win	2023-07-08	11:14:33	11:22:22	465915	5fb402a66cba9801673f2b5c	4	1	main_z	7	advance_on_keypress_ZEE	148	stimuli_distractor_diamondtriangles.svg	stimuli_target_squarediamonds.svg	16	yes	57	0	448	0	0			0	0			1				0	
6.6.1	win	2023-07-08	11:14:33	11:22:24	468061	5fb402a66cba9801673f2b5c	4	1	main_z	7	main_z	149	stimuli_distractor_trianglediamonds.svg	stimuli_distractor_diamondtriangles.svg	35	no	44	0	1049	0	0			0	0			1				0	
6.6.1	win	2023-07-08	11:14:33	11:22:24	468061	5fb402a66cba9801673f2b5c	4	1	main_z	7	advance_on_keypress_ZEE	150	stimuli_distractor_trianglediamonds.svg	stimuli_distractor_diamondtriangles.svg	35	no	57	0	419	0	0			0	0			1				0	
6.6.1	win	2023-07-08	11:14:33	11:22:28	471129	5fb402a66cba9801673f2b5c	4	1	main_z	7	main_z	151	stimuli_distractor_diamondtriangles.svg	stimuli_distractor_trianglediamonds.svg	37	no	0	1	2000	0	0			0	0			1				0	
6.6.1	win	2023-07-08	11:14:33	11:22:28	471129	5fb402a66cba9801673f2b5c	4	1	main_z	7	advance_on_keypress_ZEE	152	stimuli_distractor_diamondtriangles.svg	stimuli_distractor_trianglediamonds.svg	37	no	57	0	606	0	0			0	0			1				0	
6.6.1	win	2023-07-08	11:14:33	11:22:30	473256	5fb402a66cba9801673f2b5c	4	1	main_z	7	main_z	153	stimuli_target_diamondsquares.svg	stimuli_distractor_diamondtriangles.svg	24	yes	44	1	878	0	0			0	0			1				0	
6.6.1	win	2023-07-08	11:14:33	11:22:30	473256	5fb402a66cba9801673f2b5c	4	1	main_z	7	advance_on_keypress_ZEE	154	stimuli_target_diamondsquares.svg	stimuli_distractor_diamondtriangles.svg	24	yes	57	0	390	0	0			0	0			1				0	
6.6.1	win	2023-07-08	11:14:33	11:22:32	475348	5fb402a66cba9801673f2b5c	4	1	main_z	7	main_z	155	stimuli_target_diamondrectangles.svg	stimuli_distractor_trianglediamonds.svg	19	yes	44	1	1053	0	0			0	0			1				0	
6.6.1	win	2023-07-08	11:14:33	11:22:32	475348	5fb402a66cba9801673f2b5c	4	1	main_z	7	advance_on_keypress_ZEE	156	stimuli_target_diamondrectangles.svg	stimuli_distractor_trianglediamonds.svg	19	yes	57	0	537	0	0			0	0			1				0	
6.6.1	win	2023-07-08	11:14:33	11:22:34	477544	5fb402a66cba9801673f2b5c	4	1	main_z	7	main_z	157	stimuli_distractor_trianglediamonds.svg	stimuli_target_diamondrectangles.svg	27	yes	44	1	1015	0	0			0	0			1				0	
6.6.1	win	2023-07-08	11:14:33	11:22:34	477544	5fb402a66cba9801673f2b5c	4	1	main_z	7	advance_on_keypress_ZEE	158	stimuli_distractor_trianglediamonds.svg	stimuli_target_diamondrectangles.svg	27	yes	57	0	374	0	0			0	0			1				0	
6.6.1	win	2023-07-08	11:14:33	11:22:36	479481	5fb402a66cba9801673f2b5c	4	1	main_z	7	main_z	159	stimuli_distractor_diamondtriangles.svg	stimuli_target_diamondsquares.svg	32	yes	44	1	920	0	0			0	0			1				0	
6.6.1	win	2023-07-08	11:14:33	11:22:36	479481	5fb402a66cba9801673f2b5c	4	1	main_z	7	advance_on_keypress_ZEE	160	stimuli_distractor_diamondtriangles.svg	stimuli_target_diamondsquares.svg	32	yes	57	0	544	0	0			0	0			1				0	
6.6.1	win	2023-07-08	11:14:33	11:23:00	503632	5fb402a66cba9801673f2b5c	4	1	practice_slash	9	practice_slash	1	stimuli_target_diamondsquares.svg	stimuli_distractor_diamondtriangles.svg	3	yes	53	1	1082	0	0			0	0			1				0	
6.6.1	win	2023-07-08	11:14:33	11:23:00	503632	5fb402a66cba9801673f2b5c	4	1	practice_slash	9	advance_on_keypress_SLASH	2	stimuli_target_diamondsquares.svg	stimuli_distractor_diamondtriangles.svg	3	yes	57	0	2288	0	0			0	0			1				0	
6.6.1	win	2023-07-08	11:14:33	11:23:05	508173	5fb402a66cba9801673f2b5c	4	1	practice_slash	9	practice_slash	3	stimuli_distractor_diamondtriangles.svg	stimuli_target_diamondrectangles.svg	8	yes	53	1	607	0	0			0	0			1				0	
6.6.1	win	2023-07-08	11:14:33	11:23:05	508173	5fb402a66cba9801673f2b5c	4	1	practice_slash	9	advance_on_keypress_SLASH	4	stimuli_distractor_diamondtriangles.svg	stimuli_target_diamondrectangles.svg	8	yes	57	0	498	0	0			0	0			1				0	
6.6.1	win	2023-07-08	11:14:33	11:23:07	510892	5fb402a66cba9801673f2b5c	4	1	practice_slash	9	practice_slash	5	stimuli_target_rectanglediamonds.svg	stimuli_distractor_diamondtriangles.svg	1	yes	53	1	560	0	0			0	0			1				0	
6.6.1	win	2023-07-08	11:14:33	11:23:07	510892	5fb402a66cba9801673f2b5c	4	1	practice_slash	9	advance_on_keypress_SLASH	6	stimuli_target_rectanglediamonds.svg	stimuli_distractor_diamondtriangles.svg	1	yes	57	0	494	0	0			0	0			1				0	
6.6.1	win	2023-07-08	11:14:33	11:23:11	515048	5fb402a66cba9801673f2b5c	4	1	practice_slash	9	practice_slash	7	stimuli_distractor_diamondtriangles.svg	stimuli_distractor_diamondtriangles.svg	13	no	0	1	2000	0	0			0	0			1				0	
6.6.1	win	2023-07-08	11:14:33	11:23:11	515048	5fb402a66cba9801673f2b5c	4	1	practice_slash	9	advance_on_keypress_SLASH	8	stimuli_distractor_diamondtriangles.svg	stimuli_distractor_diamondtriangles.svg	13	no	57	0	550	0	0			0	0			1				0	
6.6.1	win	2023-07-08	11:14:33	11:23:14	517982	5fb402a66cba9801673f2b5c	4	1	practice_slash	9	practice_slash	9	stimuli_target_squarediamonds.svg	stimuli_distractor_trianglediamonds.svg	5	yes	53	1	733	0	0			0	0			1				0	
6.6.1	win	2023-07-08	11:14:33	11:23:14	517982	5fb402a66cba9801673f2b5c	4	1	practice_slash	9	advance_on_keypress_SLASH	10	stimuli_target_squarediamonds.svg	stimuli_distractor_trianglediamonds.svg	5	yes	57	0	559	0	0			0	0			1				0	
6.6.1	win	2023-07-08	11:14:33	11:23:17	521013	5fb402a66cba9801673f2b5c	4	1	practice_slash	9	practice_slash	11	stimuli_distractor_trianglediamonds.svg	stimuli_target_diamondrectangles.svg	12	yes	53	1	815	0	0			0	0			1				0	
6.6.1	win	2023-07-08	11:14:33	11:23:17	521013	5fb402a66cba9801673f2b5c	4	1	practice_slash	9	advance_on_keypress_SLASH	12	stimuli_distractor_trianglediamonds.svg	stimuli_target_diamondrectangles.svg	12	yes	57	0	573	0	0			0	0			1				0	
6.6.1	win	2023-07-08	11:14:33	11:23:20	523865	5fb402a66cba9801673f2b5c	4	1	practice_slash	9	practice_slash	13	stimuli_distractor_trianglediamonds.svg	stimuli_target_squarediamonds.svg	11	yes	53	1	632	0	0			0	0			1				0	
6.6.1	win	2023-07-08	11:14:33	11:23:20	523865	5fb402a66cba9801673f2b5c	4	1	practice_slash	9	advance_on_keypress_SLASH	14	stimuli_distractor_trianglediamonds.svg	stimuli_target_squarediamonds.svg	11	yes	57	0	452	0	0			0	0			1				0	
6.6.1	win	2023-07-08	11:14:33	11:23:23	526680	5fb402a66cba9801673f2b5c	4	1	practice_slash	9	practice_slash	15	stimuli_distractor_trianglediamonds.svg	stimuli_distractor_diamondtriangles.svg	16	no	53	0	714	0	0			0	0			1				0	
6.6.1	win	2023-07-08	11:14:33	11:23:23	526680	5fb402a66cba9801673f2b5c	4	1	practice_slash	9	advance_on_keypress_SLASH	16	stimuli_distractor_trianglediamonds.svg	stimuli_distractor_diamondtriangles.svg	16	no	57	0	459	0	0			0	0			1				0	
6.6.1	win	2023-07-08	11:14:33	11:23:26	529532	5fb402a66cba9801673f2b5c	4	1	practice_slash	9	practice_slash	17	stimuli_distractor_diamondtriangles.svg	stimuli_target_rectangletriangles.svg	7	yes	53	1	732	0	0			0	0			1				0	
6.6.1	win	2023-07-08	11:14:33	11:23:26	529532	5fb402a66cba9801673f2b5c	4	1	practice_slash	9	advance_on_keypress_SLASH	18	stimuli_distractor_diamondtriangles.svg	stimuli_target_rectangletriangles.svg	7	yes	57	0	590	0	0			0	0			1				0	
6.6.1	win	2023-07-08	11:14:33	11:23:30	533766	5fb402a66cba9801673f2b5c	4	1	practice_slash	9	practice_slash	19	stimuli_distractor_trianglediamonds.svg	stimuli_distractor_trianglediamonds.svg	15	no	0	1	2000	0	0			0	0			1				0	
6.6.1	win	2023-07-08	11:14:33	11:23:30	533766	5fb402a66cba9801673f2b5c	4	1	practice_slash	9	advance_on_keypress_SLASH	20	stimuli_distractor_trianglediamonds.svg	stimuli_distractor_trianglediamonds.svg	15	no	57	0	527	0	0			0	0			1				0	
6.6.1	win	2023-07-08	11:14:33	11:23:34	537949	5fb402a66cba9801673f2b5c	4	1	practice_slash	9	practice_slash	21	stimuli_distractor_diamondtriangles.svg	stimuli_distractor_trianglediamonds.svg	14	no	0	1	2000	0	0			0	0			1				0	
6.6.1	win	2023-07-08	11:14:33	11:23:34	537949	5fb402a66cba9801673f2b5c	4	1	practice_slash	9	advance_on_keypress_SLASH	22	stimuli_distractor_diamondtriangles.svg	stimuli_distractor_trianglediamonds.svg	14	no	57	0	441	0	0			0	0			1				0	
6.6.1	win	2023-07-08	11:14:33	11:23:37	540665	5fb402a66cba9801673f2b5c	4	1	practice_slash	9	practice_slash	23	stimuli_distractor_trianglediamonds.svg	stimuli_target_rectanglediamonds.svg	10	yes	53	1	633	0	0			0	0			1				0	
6.6.1	win	2023-07-08	11:14:33	11:23:37	540665	5fb402a66cba9801673f2b5c	4	1	practice_slash	9	advance_on_keypress_SLASH	24	stimuli_distractor_trianglediamonds.svg	stimuli_target_rectanglediamonds.svg	10	yes	57	0	584	0	0			0	0			1				0	
6.6.1	win	2023-07-08	11:14:33	11:23:40	543612	5fb402a66cba9801673f2b5c	4	1	practice_slash	9	practice_slash	25	stimuli_target_rectanglediamonds.svg	stimuli_distractor_trianglediamonds.svg	4	yes	53	1	713	0	0			0	0			1				0	
6.6.1	win	2023-07-08	11:14:33	11:23:40	543612	5fb402a66cba9801673f2b5c	4	1	practice_slash	9	advance_on_keypress_SLASH	26	stimuli_target_rectanglediamonds.svg	stimuli_distractor_trianglediamonds.svg	4	yes	57	0	822	0	0			0	0			1				0	
6.6.1	win	2023-07-08	11:14:33	11:23:43	546944	5fb402a66cba9801673f2b5c	4	1	practice_slash	9	practice_slash	27	stimuli_target_diamondsquares.svg	stimuli_distractor_trianglediamonds.svg	6	yes	53	1	861	0	0			0	0			1				0	
6.6.1	win	2023-07-08	11:14:33	11:23:43	546944	5fb402a66cba9801673f2b5c	4	1	practice_slash	9	advance_on_keypress_SLASH	28	stimuli_target_diamondsquares.svg	stimuli_distractor_trianglediamonds.svg	6	yes	57	0	536	0	0			0	0			1				0	
6.6.1	win	2023-07-08	11:14:33	11:23:46	549843	5fb402a66cba9801673f2b5c	4	1	practice_slash	9	practice_slash	29	stimuli_distractor_diamondtriangles.svg	stimuli_target_trianglerectangles.svg	9	yes	53	1	711	0	0			0	0			1				0	
6.6.1	win	2023-07-08	11:14:33	11:23:46	549843	5fb402a66cba9801673f2b5c	4	1	practice_slash	9	advance_on_keypress_SLASH	30	stimuli_distractor_diamondtriangles.svg	stimuli_target_trianglerectangles.svg	9	yes	57	0	555	0	0			0	0			1				0	
6.6.1	win	2023-07-08	11:14:33	11:23:49	552660	5fb402a66cba9801673f2b5c	4	1	practice_slash	9	practice_slash	31	stimuli_target_squarediamonds.svg	stimuli_distractor_diamondtriangles.svg	2	yes	53	1	611	0	0			0	0			1				0	
6.6.1	win	2023-07-08	11:14:33	11:23:49	552660	5fb402a66cba9801673f2b5c	4	1	practice_slash	9	advance_on_keypress_SLASH	32	stimuli_target_squarediamonds.svg	stimuli_distractor_diamondtriangles.svg	2	yes	57	0	388	0	0			0	0			1				0	
6.6.1	win	2023-07-08	11:14:33	11:23:53	556614	5fb402a66cba9801673f2b5c	4	1	main_slash	11	main_slash	1	stimuli_target_rectanglediamonds.svg	stimuli_distractor_trianglediamonds.svg	2	yes	53	1	535	0	0			0	0			1				0	
6.6.1	win	2023-07-08	11:14:33	11:23:53	556614	5fb402a66cba9801673f2b5c	4	1	main_slash	11	advance_on_keypress_SLASH	2	stimuli_target_rectanglediamonds.svg	stimuli_distractor_trianglediamonds.svg	2	yes	57	0	732	0	0			0	0			1				0	
6.6.1	win	2023-07-08	11:14:33	11:23:56	559997	5fb402a66cba9801673f2b5c	4	1	main_slash	11	main_slash	3	stimuli_distractor_diamondtriangles.svg	stimuli_distractor_trianglediamonds.svg	38	no	0	1	2000	0	0			0	0			1				0	
6.6.1	win	2023-07-08	11:14:33	11:23:56	559997	5fb402a66cba9801673f2b5c	4	1	main_slash	11	advance_on_keypress_SLASH	4	stimuli_distractor_diamondtriangles.svg	stimuli_distractor_trianglediamonds.svg	38	no	57	0	612	0	0			0	0			1				0	
6.6.1	win	2023-07-08	11:14:33	11:23:58	561678	5fb402a66cba9801673f2b5c	4	1	main_slash	11	main_slash	5	stimuli_target_squarediamonds.svg	stimuli_distractor_trianglediamonds.svg	4	yes	53	1	414	0	0			0	0			1				0	
6.6.1	win	2023-07-08	11:14:33	11:23:58	561678	5fb402a66cba9801673f2b5c	4	1	main_slash	11	advance_on_keypress_SLASH	6	stimuli_target_squarediamonds.svg	stimuli_distractor_trianglediamonds.svg	4	yes	57	0	779	0	0			0	0			1				0	
6.6.1	win	2023-07-08	11:14:33	11:24:00	563631	5fb402a66cba9801673f2b5c	4	1	main_slash	11	main_slash	7	stimuli_target_diamondsquares.svg	stimuli_distractor_diamondtriangles.svg	24	yes	53	1	515	0	0			0	0			1				0	
6.6.1	win	2023-07-08	11:14:33	11:24:00	563631	5fb402a66cba9801673f2b5c	4	1	main_slash	11	advance_on_keypress_SLASH	8	stimuli_target_diamondsquares.svg	stimuli_distractor_diamondtriangles.svg	24	yes	57	0	650	0	0			0	0			1				0	
6.6.1	win	2023-07-08	11:14:33	11:24:03	566930	5fb402a66cba9801673f2b5c	4	1	main_slash	11	main_slash	9	stimuli_distractor_trianglediamonds.svg	stimuli_distractor_trianglediamonds.svg	34	no	0	1	2000	0	0			0	0			1				0	
6.6.1	win	2023-07-08	11:14:33	11:24:03	566930	5fb402a66cba9801673f2b5c	4	1	main_slash	11	advance_on_keypress_SLASH	10	stimuli_distractor_trianglediamonds.svg	stimuli_distractor_trianglediamonds.svg	34	no	57	0	479	0	0			0	0			1				0	
6.6.1	win	2023-07-08	11:14:33	11:24:05	568461	5fb402a66cba9801673f2b5c	4	1	main_slash	11	main_slash	11	stimuli_distractor_trianglediamonds.svg	stimuli_target_squarediamonds.svg	12	yes	53	1	397	0	0			0	0			1				0	
6.6.1	win	2023-07-08	11:14:33	11:24:05	568461	5fb402a66cba9801673f2b5c	4	1	main_slash	11	advance_on_keypress_SLASH	12	stimuli_distractor_trianglediamonds.svg	stimuli_target_squarediamonds.svg	12	yes	57	0	809	0	0			0	0			1				0	
6.6.1	win	2023-07-08	11:14:33	11:24:08	571914	5fb402a66cba9801673f2b5c	4	1	main_slash	11	main_slash	13	stimuli_distractor_diamondtriangles.svg	stimuli_target_squaretriangles.svg	15	yes	0	0	2000	0	0			0	0			1				0	
6.6.1	win	2023-07-08	11:14:33	11:24:08	571914	5fb402a66cba9801673f2b5c	4	1	main_slash	11	advance_on_keypress_SLASH	14	stimuli_distractor_diamondtriangles.svg	stimuli_target_squaretriangles.svg	15	yes	57	0	290	0	0			0	0			1				0	
6.6.1	win	2023-07-08	11:14:33	11:24:10	573393	5fb402a66cba9801673f2b5c	4	1	main_slash	11	main_slash	15	stimuli_target_trianglesquares.svg	stimuli_distractor_trianglediamonds.svg	18	yes	53	1	546	0	0			0	0			1				0	
6.6.1	win	2023-07-08	11:14:33	11:24:10	573393	5fb402a66cba9801673f2b5c	4	1	main_slash	11	advance_on_keypress_SLASH	16	stimuli_target_trianglesquares.svg	stimuli_distractor_trianglediamonds.svg	18	yes	57	0	758	0	0			0	0			1				0	
6.6.1	win	2023-07-08	11:14:33	11:24:12	575266	5fb402a66cba9801673f2b5c	4	1	main_slash	11	main_slash	17	stimuli_distractor_diamondtriangles.svg	stimuli_target_trianglerectangles.svg	29	yes	53	1	470	0	0			0	0			1				0	
6.6.1	win	2023-07-08	11:14:33	11:24:12	575266	5fb402a66cba9801673f2b5c	4	1	main_slash	11	advance_on_keypress_SLASH	18	stimuli_distractor_diamondtriangles.svg	stimuli_target_trianglerectangles.svg	29	yes	57	0	601	0	0			0	0			1				0	
6.6.1	win	2023-07-08	11:14:33	11:24:13	577051	5fb402a66cba9801673f2b5c	4	1	main_slash	11	main_slash	19	stimuli_target_trianglerectangles.svg	stimuli_distractor_diamondtriangles.svg	21	yes	53	1	538	0	0			0	0			1				0	
6.6.1	win	2023-07-08	11:14:33	11:24:13	577051	5fb402a66cba9801673f2b5c	4	1	main_slash	11	advance_on_keypress_SLASH	20	stimuli_target_trianglerectangles.svg	stimuli_distractor_diamondtriangles.svg	21	yes	57	0	665	0	0			0	0			1				0	
6.6.1	win	2023-07-08	11:14:33	11:24:15	578807	5fb402a66cba9801673f2b5c	4	1	main_slash	11	main_slash	21	stimuli_target_trianglesquares.svg	stimuli_distractor_diamondtriangles.svg	22	yes	53	1	443	0	0			0	0			1				0	
6.6.1	win	2023-07-08	11:14:33	11:24:15	578807	5fb402a66cba9801673f2b5c	4	1	main_slash	11	advance_on_keypress_SLASH	22	stimuli_target_trianglesquares.svg	stimuli_distractor_diamondtriangles.svg	22	yes	57	0	787	0	0			0	0			1				0	
6.6.1	win	2023-07-08	11:14:33	11:24:19	582230	5fb402a66cba9801673f2b5c	4	1	main_slash	11	main_slash	23	stimuli_distractor_trianglediamonds.svg	stimuli_distractor_diamondtriangles.svg	35	no	0	1	2000	0	0			0	0			1				0	
6.6.1	win	2023-07-08	11:14:33	11:24:19	582230	5fb402a66cba9801673f2b5c	4	1	main_slash	11	advance_on_keypress_SLASH	24	stimuli_distractor_trianglediamonds.svg	stimuli_distractor_diamondtriangles.svg	35	no	57	0	370	0	0			0	0			1				0	
6.6.1	win	2023-07-08	11:14:33	11:24:20	583896	5fb402a66cba9801673f2b5c	4	1	main_slash	11	main_slash	25	stimuli_distractor_trianglediamonds.svg	stimuli_target_rectanglediamonds.svg	10	yes	53	1	649	0	0			0	0			1				0	
6.6.1	win	2023-07-08	11:14:33	11:24:20	583896	5fb402a66cba9801673f2b5c	4	1	main_slash	11	advance_on_keypress_SLASH	26	stimuli_distractor_trianglediamonds.svg	stimuli_target_rectanglediamonds.svg	10	yes	57	0	752	0	0			0	0			1				0	
6.6.1	win	2023-07-08	11:14:33	11:24:22	585811	5fb402a66cba9801673f2b5c	4	1	main_slash	11	main_slash	27	stimuli_target_rectangletriangles.svg	stimuli_distractor_trianglediamonds.svg	1	yes	53	1	511	0	0			0	0			1				0	
6.6.1	win	2023-07-08	11:14:33	11:24:22	585811	5fb402a66cba9801673f2b5c	4	1	main_slash	11	advance_on_keypress_SLASH	28	stimuli_target_rectangletriangles.svg	stimuli_distractor_trianglediamonds.svg	1	yes	57	0	610	0	0			0	0			1				0	
6.6.1	win	2023-07-08	11:14:33	11:24:25	588581	5fb402a66cba9801673f2b5c	4	1	main_slash	11	main_slash	29	stimuli_target_diamondrectangles.svg	stimuli_distractor_trianglediamonds.svg	19	yes	53	1	1518	0	0			0	0			1				0	
6.6.1	win	2023-07-08	11:14:33	11:24:25	588581	5fb402a66cba9801673f2b5c	4	1	main_slash	11	advance_on_keypress_SLASH	30	stimuli_target_diamondrectangles.svg	stimuli_distractor_trianglediamonds.svg	19	yes	57	0	627	0	0			0	0			1				0	
6.6.1	win	2023-07-08	11:14:33	11:24:28	591865	5fb402a66cba9801673f2b5c	4	1	main_slash	11	main_slash	31	stimuli_distractor_diamondtriangles.svg	stimuli_distractor_diamondtriangles.svg	39	no	0	1	2000	0	0			0	0			1				0	
6.6.1	win	2023-07-08	11:14:33	11:24:28	591865	5fb402a66cba9801673f2b5c	4	1	main_slash	11	advance_on_keypress_SLASH	32	stimuli_distractor_diamondtriangles.svg	stimuli_distractor_diamondtriangles.svg	39	no	57	0	450	0	0			0	0			1				0	
6.6.1	win	2023-07-08	11:14:33	11:24:30	593420	5fb402a66cba9801673f2b5c	4	1	main_slash	11	main_slash	33	stimuli_distractor_diamondtriangles.svg	stimuli_target_squarediamonds.svg	16	yes	53	1	456	0	0			0	0			1				0	
6.6.1	win	2023-07-08	11:14:33	11:24:30	593420	5fb402a66cba9801673f2b5c	4	1	main_slash	11	advance_on_keypress_SLASH	34	stimuli_distractor_diamondtriangles.svg	stimuli_target_squarediamonds.svg	16	yes	57	0	685	0	0			0	0			1				0	
6.6.1	win	2023-07-08	11:14:33	11:24:33	596747	5fb402a66cba9801673f2b5c	4	1	main_slash	11	main_slash	35	stimuli_distractor_diamondtriangles.svg	stimuli_distractor_diamondtriangles.svg	40	no	0	1	2000	0	0			0	0			1				0	
6.6.1	win	2023-07-08	11:14:33	11:24:33	596747	5fb402a66cba9801673f2b5c	4	1	main_slash	11	advance_on_keypress_SLASH	36	stimuli_distractor_diamondtriangles.svg	stimuli_distractor_diamondtriangles.svg	40	no	57	0	366	0	0			0	0			1				0	
6.6.1	win	2023-07-08	11:14:33	11:24:35	598436	5fb402a66cba9801673f2b5c	4	1	main_slash	11	main_slash	37	stimuli_target_diamondrectangles.svg	stimuli_distractor_diamondtriangles.svg	23	yes	53	1	672	0	0			0	0			1				0	
6.6.1	win	2023-07-08	11:14:33	11:24:35	598436	5fb402a66cba9801673f2b5c	4	1	main_slash	11	advance_on_keypress_SLASH	38	stimuli_target_diamondrectangles.svg	stimuli_distractor_diamondtriangles.svg	23	yes	57	0	604	0	0			0	0			1				0	
6.6.1	win	2023-07-08	11:14:33	11:24:37	600566	5fb402a66cba9801673f2b5c	4	1	main_slash	11	main_slash	39	stimuli_target_rectanglediamonds.svg	stimuli_distractor_diamondtriangles.svg	6	yes	53	1	885	0	0			0	0			1				0	
6.6.1	win	2023-07-08	11:14:33	11:24:37	600566	5fb402a66cba9801673f2b5c	4	1	main_slash	11	advance_on_keypress_SLASH	40	stimuli_target_rectanglediamonds.svg	stimuli_distractor_diamondtriangles.svg	6	yes	57	0	457	0	0			0	0			1				0	
6.6.1	win	2023-07-08	11:14:33	11:24:39	602183	5fb402a66cba9801673f2b5c	4	1	main_slash	11	main_slash	41	stimuli_target_squarediamonds.svg	stimuli_distractor_diamondtriangles.svg	8	yes	53	1	519	0	0			0	0			1				0	
6.6.1	win	2023-07-08	11:14:33	11:24:39	602183	5fb402a66cba9801673f2b5c	4	1	main_slash	11	advance_on_keypress_SLASH	42	stimuli_target_squarediamonds.svg	stimuli_distractor_diamondtriangles.svg	8	yes	57	0	513	0	0			0	0			1				0	
6.6.1	win	2023-07-08	11:14:33	11:24:40	603975	5fb402a66cba9801673f2b5c	4	1	main_slash	11	main_slash	43	stimuli_target_rectangletriangles.svg	stimuli_distractor_diamondtriangles.svg	5	yes	53	1	627	0	0			0	0			1				0	
6.6.1	win	2023-07-08	11:14:33	11:24:40	603975	5fb402a66cba9801673f2b5c	4	1	main_slash	11	advance_on_keypress_SLASH	44	stimuli_target_rectangletriangles.svg	stimuli_distractor_diamondtriangles.svg	5	yes	57	0	503	0	0			0	0			1				0	
6.6.1	win	2023-07-08	11:14:33	11:24:42	605560	5fb402a66cba9801673f2b5c	4	1	main_slash	11	main_slash	45	stimuli_target_squaretriangles.svg	stimuli_distractor_trianglediamonds.svg	3	yes	53	1	430	0	0			0	0			1				0	
6.6.1	win	2023-07-08	11:14:33	11:24:42	605560	5fb402a66cba9801673f2b5c	4	1	main_slash	11	advance_on_keypress_SLASH	46	stimuli_target_squaretriangles.svg	stimuli_distractor_trianglediamonds.svg	3	yes	57	0	549	0	0			0	0			1				0	
6.6.1	win	2023-07-08	11:14:33	11:24:44	607119	5fb402a66cba9801673f2b5c	4	1	main_slash	11	main_slash	47	stimuli_distractor_trianglediamonds.svg	stimuli_target_squaretriangles.svg	11	yes	53	1	355	0	0			0	0			1				0	
6.6.1	win	2023-07-08	11:14:33	11:24:44	607119	5fb402a66cba9801673f2b5c	4	1	main_slash	11	advance_on_keypress_SLASH	48	stimuli_distractor_trianglediamonds.svg	stimuli_target_squaretriangles.svg	11	yes	57	0	574	0	0			0	0			1				0	
6.6.1	win	2023-07-08	11:14:33	11:24:45	608718	5fb402a66cba9801673f2b5c	4	1	main_slash	11	main_slash	49	stimuli_distractor_diamondtriangles.svg	stimuli_target_rectanglediamonds.svg	14	yes	53	1	388	0	0			0	0			1				0	
6.6.1	win	2023-07-08	11:14:33	11:24:45	608718	5fb402a66cba9801673f2b5c	4	1	main_slash	11	advance_on_keypress_SLASH	50	stimuli_distractor_diamondtriangles.svg	stimuli_target_rectanglediamonds.svg	14	yes	57	0	467	0	0			0	0			1				0	
6.6.1	win	2023-07-08	11:14:33	11:24:47	610543	5fb402a66cba9801673f2b5c	4	1	main_slash	11	main_slash	51	stimuli_distractor_diamondtriangles.svg	stimuli_target_diamondsquares.svg	32	yes	53	1	713	0	0			0	0			1				0	
6.6.1	win	2023-07-08	11:14:33	11:24:47	610543	5fb402a66cba9801673f2b5c	4	1	main_slash	11	advance_on_keypress_SLASH	52	stimuli_distractor_diamondtriangles.svg	stimuli_target_diamondsquares.svg	32	yes	57	0	453	0	0			0	0			1				0	
6.6.1	win	2023-07-08	11:14:33	11:24:50	613647	5fb402a66cba9801673f2b5c	4	1	main_slash	11	main_slash	53	stimuli_distractor_diamondtriangles.svg	stimuli_target_rectangletriangles.svg	13	yes	0	0	2000	0	0			0	0			1				0	
6.6.1	win	2023-07-08	11:14:33	11:24:50	613647	5fb402a66cba9801673f2b5c	4	1	main_slash	11	advance_on_keypress_SLASH	54	stimuli_distractor_diamondtriangles.svg	stimuli_target_rectangletriangles.svg	13	yes	57	0	453	0	0			0	0			1				0	
6.6.1	win	2023-07-08	11:14:33	11:24:53	616748	5fb402a66cba9801673f2b5c	4	1	main_slash	11	main_slash	55	stimuli_distractor_trianglediamonds.svg	stimuli_distractor_diamondtriangles.svg	36	no	0	1	2000	0	0			0	0			1				0	
6.6.1	win	2023-07-08	11:14:33	11:24:53	616748	5fb402a66cba9801673f2b5c	4	1	main_slash	11	advance_on_keypress_SLASH	56	stimuli_distractor_trianglediamonds.svg	stimuli_distractor_diamondtriangles.svg	36	no	57	0	298	0	0			0	0			1				0	
6.6.1	win	2023-07-08	11:14:33	11:24:55	618788	5fb402a66cba9801673f2b5c	4	1	main_slash	11	main_slash	57	stimuli_target_trianglerectangles.svg	stimuli_distractor_trianglediamonds.svg	17	yes	53	1	1090	0	0			0	0			1				0	
6.6.1	win	2023-07-08	11:14:33	11:24:55	618788	5fb402a66cba9801673f2b5c	4	1	main_slash	11	advance_on_keypress_SLASH	58	stimuli_target_trianglerectangles.svg	stimuli_distractor_trianglediamonds.svg	17	yes	57	0	508	0	0			0	0			1				0	
6.6.1	win	2023-07-08	11:14:33	11:24:57	620662	5fb402a66cba9801673f2b5c	4	1	main_slash	11	main_slash	59	stimuli_target_diamondsquares.svg	stimuli_distractor_trianglediamonds.svg	20	yes	53	1	731	0	0			0	0			1				0	
6.6.1	win	2023-07-08	11:14:33	11:24:57	620662	5fb402a66cba9801673f2b5c	4	1	main_slash	11	advance_on_keypress_SLASH	60	stimuli_target_diamondsquares.svg	stimuli_distractor_trianglediamonds.svg	20	yes	57	0	445	0	0			0	0			1				0	
6.6.1	win	2023-07-08	11:14:33	11:24:59	622473	5fb402a66cba9801673f2b5c	4	1	main_slash	11	main_slash	61	stimuli_distractor_trianglediamonds.svg	stimuli_target_diamondsquares.svg	28	yes	53	1	708	0	0			0	0			1				0	
6.6.1	win	2023-07-08	11:14:33	11:24:59	622473	5fb402a66cba9801673f2b5c	4	1	main_slash	11	advance_on_keypress_SLASH	62	stimuli_distractor_trianglediamonds.svg	stimuli_target_diamondsquares.svg	28	yes	57	0	605	0	0			0	0			1				0	
6.6.1	win	2023-07-08	11:14:33	11:25:01	624213	5fb402a66cba9801673f2b5c	4	1	main_slash	11	main_slash	63	stimuli_distractor_trianglediamonds.svg	stimuli_target_trianglesquares.svg	26	yes	53	1	499	0	0			0	0			1				0	
6.6.1	win	2023-07-08	11:14:33	11:25:01	624213	5fb402a66cba9801673f2b5c	4	1	main_slash	11	advance_on_keypress_SLASH	64	stimuli_distractor_trianglediamonds.svg	stimuli_target_trianglesquares.svg	26	yes	57	0	706	0	0			0	0			1				0	
6.6.1	win	2023-07-08	11:14:33	11:25:02	625998	5fb402a66cba9801673f2b5c	4	1	main_slash	11	main_slash	65	stimuli_distractor_trianglediamonds.svg	stimuli_target_trianglerectangles.svg	25	yes	53	1	434	0	0			0	0			1				0	
6.6.1	win	2023-07-08	11:14:33	11:25:02	625998	5fb402a66cba9801673f2b5c	4	1	main_slash	11	advance_on_keypress_SLASH	66	stimuli_distractor_trianglediamonds.svg	stimuli_target_trianglerectangles.svg	25	yes	57	0	581	0	0			0	0			1				0	
6.6.1	win	2023-07-08	11:14:33	11:25:04	627932	5fb402a66cba9801673f2b5c	4	1	main_slash	11	main_slash	67	stimuli_distractor_diamondtriangles.svg	stimuli_distractor_trianglediamonds.svg	37	no	53	0	701	0	0			0	0			1				0	
6.6.1	win	2023-07-08	11:14:33	11:25:04	627932	5fb402a66cba9801673f2b5c	4	1	main_slash	11	advance_on_keypress_SLASH	68	stimuli_distractor_diamondtriangles.svg	stimuli_distractor_trianglediamonds.svg	37	no	57	0	445	0	0			0	0			1				0	
6.6.1	win	2023-07-08	11:14:33	11:25:07	631031	5fb402a66cba9801673f2b5c	4	1	main_slash	11	main_slash	69	stimuli_distractor_trianglediamonds.svg	stimuli_target_rectangletriangles.svg	9	yes	0	0	2000	0	0			0	0			1				0	
6.6.1	win	2023-07-08	11:14:33	11:25:07	631031	5fb402a66cba9801673f2b5c	4	1	main_slash	11	advance_on_keypress_SLASH	70	stimuli_distractor_trianglediamonds.svg	stimuli_target_rectangletriangles.svg	9	yes	57	0	458	0	0			0	0			1				0	
6.6.1	win	2023-07-08	11:14:33	11:25:09	632695	5fb402a66cba9801673f2b5c	4	1	main_slash	11	main_slash	71	stimuli_target_squaretriangles.svg	stimuli_distractor_diamondtriangles.svg	7	yes	53	1	564	0	0			0	0			1				0	
6.6.1	win	2023-07-08	11:14:33	11:25:09	632695	5fb402a66cba9801673f2b5c	4	1	main_slash	11	advance_on_keypress_SLASH	72	stimuli_target_squaretriangles.svg	stimuli_distractor_diamondtriangles.svg	7	yes	57	0	504	0	0			0	0			1				0	
6.6.1	win	2023-07-08	11:14:33	11:25:11	634500	5fb402a66cba9801673f2b5c	4	1	main_slash	11	main_slash	73	stimuli_distractor_trianglediamonds.svg	stimuli_target_diamondrectangles.svg	27	yes	53	1	652	0	0			0	0			1				0	
6.6.1	win	2023-07-08	11:14:33	11:25:11	634500	5fb402a66cba9801673f2b5c	4	1	main_slash	11	advance_on_keypress_SLASH	74	stimuli_distractor_trianglediamonds.svg	stimuli_target_diamondrectangles.svg	27	yes	57	0	505	0	0			0	0			1				0	
6.6.1	win	2023-07-08	11:14:33	11:25:13	636166	5fb402a66cba9801673f2b5c	4	1	main_slash	11	main_slash	75	stimuli_distractor_diamondtriangles.svg	stimuli_target_trianglesquares.svg	30	yes	53	1	518	0	0			0	0			1				0	
6.6.1	win	2023-07-08	11:14:33	11:25:13	636166	5fb402a66cba9801673f2b5c	4	1	main_slash	11	advance_on_keypress_SLASH	76	stimuli_distractor_diamondtriangles.svg	stimuli_target_trianglesquares.svg	30	yes	57	0	445	0	0			0	0			1				0	
6.6.1	win	2023-07-08	11:14:33	11:25:16	639264	5fb402a66cba9801673f2b5c	4	1	main_slash	11	main_slash	77	stimuli_distractor_trianglediamonds.svg	stimuli_distractor_trianglediamonds.svg	33	no	0	1	2000	0	0			0	0			1				0	
6.6.1	win	2023-07-08	11:14:33	11:25:16	639264	5fb402a66cba9801673f2b5c	4	1	main_slash	11	advance_on_keypress_SLASH	78	stimuli_distractor_trianglediamonds.svg	stimuli_distractor_trianglediamonds.svg	33	no	57	0	286	0	0			0	0			1				0	
6.6.1	win	2023-07-08	11:14:33	11:25:17	640712	5fb402a66cba9801673f2b5c	4	1	main_slash	11	main_slash	79	stimuli_distractor_diamondtriangles.svg	stimuli_target_diamondrectangles.svg	31	yes	53	1	505	0	0			0	0			1				0	
6.6.1	win	2023-07-08	11:14:33	11:25:17	640712	5fb402a66cba9801673f2b5c	4	1	main_slash	11	advance_on_keypress_SLASH	80	stimuli_distractor_diamondtriangles.svg	stimuli_target_diamondrectangles.svg	31	yes	57	0	384	0	0			0	0			1				0	
6.6.1	win	2023-07-08	11:14:33	11:25:19	642270	5fb402a66cba9801673f2b5c	4	1	main_slash	11	main_slash	81	stimuli_target_diamondrectangles.svg	stimuli_distractor_diamondtriangles.svg	23	yes	53	1	523	0	0			0	0			1				0	
6.6.1	win	2023-07-08	11:14:33	11:25:19	642270	5fb402a66cba9801673f2b5c	4	1	main_slash	11	advance_on_keypress_SLASH	82	stimuli_target_diamondrectangles.svg	stimuli_distractor_diamondtriangles.svg	23	yes	57	0	428	0	0			0	0			1				0	
6.6.1	win	2023-07-08	11:14:33	11:25:20	643756	5fb402a66cba9801673f2b5c	4	1	main_slash	11	main_slash	83	stimuli_distractor_trianglediamonds.svg	stimuli_target_rectanglediamonds.svg	10	yes	53	1	408	0	0			0	0			1				0	
6.6.1	win	2023-07-08	11:14:33	11:25:20	643756	5fb402a66cba9801673f2b5c	4	1	main_slash	11	advance_on_keypress_SLASH	84	stimuli_distractor_trianglediamonds.svg	stimuli_target_rectanglediamonds.svg	10	yes	57	0	568	0	0			0	0			1				0	
6.6.1	win	2023-07-08	11:14:33	11:25:22	645566	5fb402a66cba9801673f2b5c	4	1	main_slash	11	main_slash	85	stimuli_target_squaretriangles.svg	stimuli_distractor_diamondtriangles.svg	7	yes	53	1	602	0	0			0	0			1				0	
6.6.1	win	2023-07-08	11:14:33	11:25:22	645566	5fb402a66cba9801673f2b5c	4	1	main_slash	11	advance_on_keypress_SLASH	86	stimuli_target_squaretriangles.svg	stimuli_distractor_diamondtriangles.svg	7	yes	57	0	488	0	0			0	0			1				0	
6.6.1	win	2023-07-08	11:14:33	11:25:24	647142	5fb402a66cba9801673f2b5c	4	1	main_slash	11	main_slash	87	stimuli_distractor_trianglediamonds.svg	stimuli_target_trianglerectangles.svg	25	yes	53	1	444	0	0			0	0			1				0	
6.6.1	win	2023-07-08	11:14:33	11:25:24	647142	5fb402a66cba9801673f2b5c	4	1	main_slash	11	advance_on_keypress_SLASH	88	stimuli_distractor_trianglediamonds.svg	stimuli_target_trianglerectangles.svg	25	yes	57	0	485	0	0			0	0			1				0	
6.6.1	win	2023-07-08	11:14:33	11:25:27	650265	5fb402a66cba9801673f2b5c	4	1	main_slash	11	main_slash	89	stimuli_distractor_trianglediamonds.svg	stimuli_distractor_diamondtriangles.svg	35	no	0	1	2000	0	0			0	0			1				0	
6.6.1	win	2023-07-08	11:14:33	11:25:27	650265	5fb402a66cba9801673f2b5c	4	1	main_slash	11	advance_on_keypress_SLASH	90	stimuli_distractor_trianglediamonds.svg	stimuli_distractor_diamondtriangles.svg	35	no	57	0	334	0	0			0	0			1				0	
6.6.1	win	2023-07-08	11:14:33	11:25:28	651975	5fb402a66cba9801673f2b5c	4	1	main_slash	11	main_slash	91	stimuli_distractor_trianglediamonds.svg	stimuli_target_squaretriangles.svg	11	yes	53	1	728	0	0			0	0			1				0	
6.6.1	win	2023-07-08	11:14:33	11:25:28	651975	5fb402a66cba9801673f2b5c	4	1	main_slash	11	advance_on_keypress_SLASH	92	stimuli_distractor_trianglediamonds.svg	stimuli_target_squaretriangles.svg	11	yes	57	0	410	0	0			0	0			1				0	
6.6.1	win	2023-07-08	11:14:33	11:25:30	653632	5fb402a66cba9801673f2b5c	4	1	main_slash	11	main_slash	93	stimuli_distractor_trianglediamonds.svg	stimuli_target_trianglesquares.svg	26	yes	53	1	584	0	0			0	0			1				0	
6.6.1	win	2023-07-08	11:14:33	11:25:30	653632	5fb402a66cba9801673f2b5c	4	1	main_slash	11	advance_on_keypress_SLASH	94	stimuli_distractor_trianglediamonds.svg	stimuli_target_trianglesquares.svg	26	yes	57	0	488	0	0			0	0			1				0	
6.6.1	win	2023-07-08	11:14:33	11:25:32	655447	5fb402a66cba9801673f2b5c	4	1	main_slash	11	main_slash	95	stimuli_distractor_diamondtriangles.svg	stimuli_target_squarediamonds.svg	16	yes	53	1	683	0	0			0	0			1				0	
6.6.1	win	2023-07-08	11:14:33	11:25:32	655447	5fb402a66cba9801673f2b5c	4	1	main_slash	11	advance_on_keypress_SLASH	96	stimuli_distractor_diamondtriangles.svg	stimuli_target_squarediamonds.svg	16	yes	57	0	489	0	0			0	0			1				0	
6.6.1	win	2023-07-08	11:14:33	11:25:34	657181	5fb402a66cba9801673f2b5c	4	1	main_slash	11	main_slash	97	stimuli_distractor_trianglediamonds.svg	stimuli_target_diamondrectangles.svg	27	yes	53	1	599	0	0			0	0			1				0	
6.6.1	win	2023-07-08	11:14:33	11:25:34	657181	5fb402a66cba9801673f2b5c	4	1	main_slash	11	advance_on_keypress_SLASH	98	stimuli_distractor_trianglediamonds.svg	stimuli_target_diamondrectangles.svg	27	yes	57	0	524	0	0			0	0			1				0	
6.6.1	win	2023-07-08	11:14:33	11:25:37	660348	5fb402a66cba9801673f2b5c	4	1	main_slash	11	main_slash	99	stimuli_distractor_diamondtriangles.svg	stimuli_distractor_trianglediamonds.svg	37	no	0	1	2000	0	0			0	0			1				0	
6.6.1	win	2023-07-08	11:14:33	11:25:37	660348	5fb402a66cba9801673f2b5c	4	1	main_slash	11	advance_on_keypress_SLASH	100	stimuli_distractor_diamondtriangles.svg	stimuli_distractor_trianglediamonds.svg	37	no	57	0	332	0	0			0	0			1				0	
6.6.1	win	2023-07-08	11:14:33	11:25:38	661952	5fb402a66cba9801673f2b5c	4	1	main_slash	11	main_slash	101	stimuli_target_trianglesquares.svg	stimuli_distractor_diamondtriangles.svg	22	yes	53	1	620	0	0			0	0			1				0	
6.6.1	win	2023-07-08	11:14:33	11:25:38	661952	5fb402a66cba9801673f2b5c	4	1	main_slash	11	advance_on_keypress_SLASH	102	stimuli_target_trianglesquares.svg	stimuli_distractor_diamondtriangles.svg	22	yes	57	0	365	0	0			0	0			1				0	
6.6.1	win	2023-07-08	11:14:33	11:25:40	663356	5fb402a66cba9801673f2b5c	4	1	main_slash	11	main_slash	103	stimuli_target_rectanglediamonds.svg	stimuli_distractor_diamondtriangles.svg	6	yes	53	1	392	0	0			0	0			1				0	
6.6.1	win	2023-07-08	11:14:33	11:25:40	663356	5fb402a66cba9801673f2b5c	4	1	main_slash	11	advance_on_keypress_SLASH	104	stimuli_target_rectanglediamonds.svg	stimuli_distractor_diamondtriangles.svg	6	yes	57	0	435	0	0			0	0			1				0	
6.6.1	win	2023-07-08	11:14:33	11:25:41	664893	5fb402a66cba9801673f2b5c	4	1	main_slash	11	main_slash	105	stimuli_distractor_diamondtriangles.svg	stimuli_target_squaretriangles.svg	15	yes	53	1	461	0	0			0	0			1				0	
6.6.1	win	2023-07-08	11:14:33	11:25:41	664893	5fb402a66cba9801673f2b5c	4	1	main_slash	11	advance_on_keypress_SLASH	106	stimuli_distractor_diamondtriangles.svg	stimuli_target_squaretriangles.svg	15	yes	57	0	303	0	0			0	0			1				0	
6.6.1	win	2023-07-08	11:14:33	11:25:43	666408	5fb402a66cba9801673f2b5c	4	1	main_slash	11	main_slash	107	stimuli_target_diamondsquares.svg	stimuli_distractor_diamondtriangles.svg	24	yes	53	1	561	0	0			0	0			1				0	
6.6.1	win	2023-07-08	11:14:33	11:25:43	666408	5fb402a66cba9801673f2b5c	4	1	main_slash	11	advance_on_keypress_SLASH	108	stimuli_target_diamondsquares.svg	stimuli_distractor_diamondtriangles.svg	24	yes	57	0	411	0	0			0	0			1				0	
6.6.1	win	2023-07-08	11:14:33	11:25:44	667984	5fb402a66cba9801673f2b5c	4	1	main_slash	11	main_slash	109	stimuli_target_rectangletriangles.svg	stimuli_distractor_diamondtriangles.svg	5	yes	53	1	520	0	0			0	0			1				0	
6.6.1	win	2023-07-08	11:14:33	11:25:44	667984	5fb402a66cba9801673f2b5c	4	1	main_slash	11	advance_on_keypress_SLASH	110	stimuli_target_rectangletriangles.svg	stimuli_distractor_diamondtriangles.svg	5	yes	57	0	381	0	0			0	0			1				0	
6.6.1	win	2023-07-08	11:14:33	11:25:47	671015	5fb402a66cba9801673f2b5c	4	1	main_slash	11	main_slash	111	stimuli_distractor_diamondtriangles.svg	stimuli_distractor_diamondtriangles.svg	39	no	0	1	2000	0	0			0	0			1				0	
6.6.1	win	2023-07-08	11:14:33	11:25:47	671015	5fb402a66cba9801673f2b5c	4	1	main_slash	11	advance_on_keypress_SLASH	112	stimuli_distractor_diamondtriangles.svg	stimuli_distractor_diamondtriangles.svg	39	no	57	0	378	0	0			0	0			1				0	
6.6.1	win	2023-07-08	11:14:33	11:25:49	672571	5fb402a66cba9801673f2b5c	4	1	main_slash	11	main_slash	113	stimuli_target_diamondsquares.svg	stimuli_distractor_trianglediamonds.svg	20	yes	53	1	524	0	0			0	0			1				0	
6.6.1	win	2023-07-08	11:14:33	11:25:49	672571	5fb402a66cba9801673f2b5c	4	1	main_slash	11	advance_on_keypress_SLASH	114	stimuli_target_diamondsquares.svg	stimuli_distractor_trianglediamonds.svg	20	yes	57	0	368	0	0			0	0			1				0	
6.6.1	win	2023-07-08	11:14:33	11:25:50	673988	5fb402a66cba9801673f2b5c	4	1	main_slash	11	main_slash	115	stimuli_distractor_trianglediamonds.svg	stimuli_target_diamondsquares.svg	28	yes	53	1	406	0	0			0	0			1				0	
6.6.1	win	2023-07-08	11:14:33	11:25:50	673988	5fb402a66cba9801673f2b5c	4	1	main_slash	11	advance_on_keypress_SLASH	116	stimuli_distractor_trianglediamonds.svg	stimuli_target_diamondsquares.svg	28	yes	57	0	394	0	0			0	0			1				0	
6.6.1	win	2023-07-08	11:14:33	11:25:52	675551	5fb402a66cba9801673f2b5c	4	1	main_slash	11	main_slash	117	stimuli_distractor_diamondtriangles.svg	stimuli_target_diamondrectangles.svg	31	yes	53	1	520	0	0			0	0			1				0	
6.6.1	win	2023-07-08	11:14:33	11:25:52	675551	5fb402a66cba9801673f2b5c	4	1	main_slash	11	advance_on_keypress_SLASH	118	stimuli_distractor_diamondtriangles.svg	stimuli_target_diamondrectangles.svg	31	yes	57	0	407	0	0			0	0			1				0	
6.6.1	win	2023-07-08	11:14:33	11:25:54	677128	5fb402a66cba9801673f2b5c	4	1	main_slash	11	main_slash	119	stimuli_target_diamondrectangles.svg	stimuli_distractor_trianglediamonds.svg	19	yes	53	1	530	0	0			0	0			1				0	
6.6.1	win	2023-07-08	11:14:33	11:25:54	677128	5fb402a66cba9801673f2b5c	4	1	main_slash	11	advance_on_keypress_SLASH	120	stimuli_target_diamondrectangles.svg	stimuli_distractor_trianglediamonds.svg	19	yes	57	0	467	0	0			0	0			1				0	
6.6.1	win	2023-07-08	11:14:33	11:25:55	678769	5fb402a66cba9801673f2b5c	4	1	main_slash	11	main_slash	121	stimuli_target_squaretriangles.svg	stimuli_distractor_trianglediamonds.svg	3	yes	53	1	522	0	0			0	0			1				0	
6.6.1	win	2023-07-08	11:14:33	11:25:55	678769	5fb402a66cba9801673f2b5c	4	1	main_slash	11	advance_on_keypress_SLASH	122	stimuli_target_squaretriangles.svg	stimuli_distractor_trianglediamonds.svg	3	yes	57	0	497	0	0			0	0			1				0	
6.6.1	win	2023-07-08	11:14:33	11:25:57	680709	5fb402a66cba9801673f2b5c	4	1	main_slash	11	main_slash	123	stimuli_target_trianglerectangles.svg	stimuli_distractor_diamondtriangles.svg	21	yes	53	1	794	0	0			0	0			1				0	
6.6.1	win	2023-07-08	11:14:33	11:25:57	680709	5fb402a66cba9801673f2b5c	4	1	main_slash	11	advance_on_keypress_SLASH	124	stimuli_target_trianglerectangles.svg	stimuli_distractor_diamondtriangles.svg	21	yes	57	0	351	0	0			0	0			1				0	
6.6.1	win	2023-07-08	11:14:33	11:25:59	682414	5fb402a66cba9801673f2b5c	4	1	main_slash	11	main_slash	125	stimuli_target_squarediamonds.svg	stimuli_distractor_diamondtriangles.svg	8	yes	53	1	715	0	0			0	0			1				0	
6.6.1	win	2023-07-08	11:14:33	11:25:59	682414	5fb402a66cba9801673f2b5c	4	1	main_slash	11	advance_on_keypress_SLASH	126	stimuli_target_squarediamonds.svg	stimuli_distractor_diamondtriangles.svg	8	yes	57	0	420	0	0			0	0			1				0	
6.6.1	win	2023-07-08	11:14:33	11:26:00	683897	5fb402a66cba9801673f2b5c	4	1	main_slash	11	main_slash	127	stimuli_target_rectangletriangles.svg	stimuli_distractor_trianglediamonds.svg	1	yes	53	1	415	0	0			0	0			1				0	
6.6.1	win	2023-07-08	11:14:33	11:26:00	683897	5fb402a66cba9801673f2b5c	4	1	main_slash	11	advance_on_keypress_SLASH	128	stimuli_target_rectangletriangles.svg	stimuli_distractor_trianglediamonds.svg	1	yes	57	0	375	0	0			0	0			1				0	
6.6.1	win	2023-07-08	11:14:33	11:26:02	685520	5fb402a66cba9801673f2b5c	4	1	main_slash	11	main_slash	129	stimuli_distractor_diamondtriangles.svg	stimuli_target_trianglesquares.svg	30	yes	53	1	604	0	0			0	0			1				0	
6.6.1	win	2023-07-08	11:14:33	11:26:02	685520	5fb402a66cba9801673f2b5c	4	1	main_slash	11	advance_on_keypress_SLASH	130	stimuli_distractor_diamondtriangles.svg	stimuli_target_trianglesquares.svg	30	yes	57	0	416	0	0			0	0			1				0	
6.6.1	win	2023-07-08	11:14:33	11:26:05	688582	5fb402a66cba9801673f2b5c	4	1	main_slash	11	main_slash	131	stimuli_distractor_trianglediamonds.svg	stimuli_distractor_trianglediamonds.svg	34	no	0	1	2000	0	0			0	0			1				0	
6.6.1	win	2023-07-08	11:14:33	11:26:05	688582	5fb402a66cba9801673f2b5c	4	1	main_slash	11	advance_on_keypress_SLASH	132	stimuli_distractor_trianglediamonds.svg	stimuli_distractor_trianglediamonds.svg	34	no	57	0	760	0	0			0	0			1				0	
6.6.1	win	2023-07-08	11:14:33	11:26:07	690645	5fb402a66cba9801673f2b5c	4	1	main_slash	11	main_slash	133	stimuli_distractor_trianglediamonds.svg	stimuli_target_squarediamonds.svg	12	yes	53	1	663	0	0			0	0			1				0	
6.6.1	win	2023-07-08	11:14:33	11:26:07	690645	5fb402a66cba9801673f2b5c	4	1	main_slash	11	advance_on_keypress_SLASH	134	stimuli_distractor_trianglediamonds.svg	stimuli_target_squarediamonds.svg	12	yes	57	0	360	0	0			0	0			1				0	
6.6.1	win	2023-07-08	11:14:33	11:26:10	693665	5fb402a66cba9801673f2b5c	4	1	main_slash	11	main_slash	135	stimuli_distractor_trianglediamonds.svg	stimuli_distractor_diamondtriangles.svg	36	no	0	1	2000	0	0			0	0			1				0	
6.6.1	win	2023-07-08	11:14:33	11:26:10	693665	5fb402a66cba9801673f2b5c	4	1	main_slash	11	advance_on_keypress_SLASH	136	stimuli_distractor_trianglediamonds.svg	stimuli_distractor_diamondtriangles.svg	36	no	57	0	417	0	0			0	0			1				0	
6.6.1	win	2023-07-08	11:14:33	11:26:12	695466	5fb402a66cba9801673f2b5c	4	1	main_slash	11	main_slash	137	stimuli_target_trianglerectangles.svg	stimuli_distractor_trianglediamonds.svg	17	yes	53	1	734	0	0			0	0			1				0	
6.6.1	win	2023-07-08	11:14:33	11:26:12	695466	5fb402a66cba9801673f2b5c	4	1	main_slash	11	advance_on_keypress_SLASH	138	stimuli_target_trianglerectangles.svg	stimuli_distractor_trianglediamonds.svg	17	yes	57	0	399	0	0			0	0			1				0	
6.6.1	win	2023-07-08	11:14:33	11:26:13	697103	5fb402a66cba9801673f2b5c	4	1	main_slash	11	main_slash	139	stimuli_target_trianglesquares.svg	stimuli_distractor_trianglediamonds.svg	18	yes	53	1	588	0	0			0	0			1				0	
6.6.1	win	2023-07-08	11:14:33	11:26:13	697103	5fb402a66cba9801673f2b5c	4	1	main_slash	11	advance_on_keypress_SLASH	140	stimuli_target_trianglesquares.svg	stimuli_distractor_trianglediamonds.svg	18	yes	57	0	416	0	0			0	0			1				0	
6.6.1	win	2023-07-08	11:14:33	11:26:15	698830	5fb402a66cba9801673f2b5c	4	1	main_slash	11	main_slash	141	stimuli_distractor_diamondtriangles.svg	stimuli_target_rectangletriangles.svg	13	yes	53	1	665	0	0			0	0			1				0	
6.6.1	win	2023-07-08	11:14:33	11:26:15	698830	5fb402a66cba9801673f2b5c	4	1	main_slash	11	advance_on_keypress_SLASH	142	stimuli_distractor_diamondtriangles.svg	stimuli_target_rectangletriangles.svg	13	yes	57	0	452	0	0			0	0			1				0	
6.6.1	win	2023-07-08	11:14:33	11:26:17	700446	5fb402a66cba9801673f2b5c	4	1	main_slash	11	main_slash	143	stimuli_target_rectanglediamonds.svg	stimuli_distractor_trianglediamonds.svg	2	yes	53	1	505	0	0			0	0			1				0	
6.6.1	win	2023-07-08	11:14:33	11:26:17	700446	5fb402a66cba9801673f2b5c	4	1	main_slash	11	advance_on_keypress_SLASH	144	stimuli_target_rectanglediamonds.svg	stimuli_distractor_trianglediamonds.svg	2	yes	57	0	382	0	0			0	0			1				0	
6.6.1	win	2023-07-08	11:14:33	11:26:19	702150	5fb402a66cba9801673f2b5c	4	1	main_slash	11	main_slash	145	stimuli_distractor_diamondtriangles.svg	stimuli_target_diamondsquares.svg	32	yes	53	1	668	0	0			0	0			1				0	
6.6.1	win	2023-07-08	11:14:33	11:26:19	702150	5fb402a66cba9801673f2b5c	4	1	main_slash	11	advance_on_keypress_SLASH	146	stimuli_distractor_diamondtriangles.svg	stimuli_target_diamondsquares.svg	32	yes	57	0	461	0	0			0	0			1				0	
6.6.1	win	2023-07-08	11:14:33	11:26:22	705265	5fb402a66cba9801673f2b5c	4	1	main_slash	11	main_slash	147	stimuli_distractor_diamondtriangles.svg	stimuli_distractor_trianglediamonds.svg	38	no	0	1	2000	0	0			0	0			1				0	
6.6.1	win	2023-07-08	11:14:33	11:26:22	705265	5fb402a66cba9801673f2b5c	4	1	main_slash	11	advance_on_keypress_SLASH	148	stimuli_distractor_diamondtriangles.svg	stimuli_distractor_trianglediamonds.svg	38	no	57	0	424	0	0			0	0			1				0	
6.6.1	win	2023-07-08	11:14:33	11:26:23	706870	5fb402a66cba9801673f2b5c	4	1	main_slash	11	main_slash	149	stimuli_distractor_diamondtriangles.svg	stimuli_target_trianglerectangles.svg	29	yes	53	1	539	0	0			0	0			1				0	
6.6.1	win	2023-07-08	11:14:33	11:26:23	706870	5fb402a66cba9801673f2b5c	4	1	main_slash	11	advance_on_keypress_SLASH	150	stimuli_distractor_diamondtriangles.svg	stimuli_target_trianglerectangles.svg	29	yes	57	0	451	0	0			0	0			1				0	
6.6.1	win	2023-07-08	11:14:33	11:26:25	708797	5fb402a66cba9801673f2b5c	4	1	main_slash	11	main_slash	151	stimuli_distractor_trianglediamonds.svg	stimuli_distractor_trianglediamonds.svg	33	no	53	0	832	0	0			0	0			1				0	
6.6.1	win	2023-07-08	11:14:33	11:26:25	708797	5fb402a66cba9801673f2b5c	4	1	main_slash	11	advance_on_keypress_SLASH	152	stimuli_distractor_trianglediamonds.svg	stimuli_distractor_trianglediamonds.svg	33	no	57	0	798	0	0			0	0			1				0	
6.6.1	win	2023-07-08	11:14:33	11:26:27	711038	5fb402a66cba9801673f2b5c	4	1	main_slash	11	main_slash	153	stimuli_distractor_trianglediamonds.svg	stimuli_target_rectangletriangles.svg	9	yes	53	1	790	0	0			0	0			1				0	
6.6.1	win	2023-07-08	11:14:33	11:26:27	711038	5fb402a66cba9801673f2b5c	4	1	main_slash	11	advance_on_keypress_SLASH	154	stimuli_distractor_trianglediamonds.svg	stimuli_target_rectangletriangles.svg	9	yes	57	0	329	0	0			0	0			1				0	
6.6.1	win	2023-07-08	11:14:33	11:26:29	712606	5fb402a66cba9801673f2b5c	4	1	main_slash	11	main_slash	155	stimuli_distractor_diamondtriangles.svg	stimuli_target_rectanglediamonds.svg	14	yes	53	1	590	0	0			0	0			1				0	
6.6.1	win	2023-07-08	11:14:33	11:26:29	712606	5fb402a66cba9801673f2b5c	4	1	main_slash	11	advance_on_keypress_SLASH	156	stimuli_distractor_diamondtriangles.svg	stimuli_target_rectanglediamonds.svg	14	yes	57	0	352	0	0			0	0			1				0	
6.6.1	win	2023-07-08	11:14:33	11:26:30	713830	5fb402a66cba9801673f2b5c	4	1	main_slash	11	main_slash	157	stimuli_distractor_diamondtriangles.svg	stimuli_distractor_diamondtriangles.svg	40	no	53	0	231	0	0			0	0			1				0	
6.6.1	win	2023-07-08	11:14:33	11:26:30	713830	5fb402a66cba9801673f2b5c	4	1	main_slash	11	advance_on_keypress_SLASH	158	stimuli_distractor_diamondtriangles.svg	stimuli_distractor_diamondtriangles.svg	40	no	57	0	1226	0	0			0	0			1				0	
6.6.1	win	2023-07-08	11:14:33	11:26:33	716405	5fb402a66cba9801673f2b5c	4	1	main_slash	11	main_slash	159	stimuli_target_squarediamonds.svg	stimuli_distractor_trianglediamonds.svg	4	yes	53	1	689	0	0			0	0			1				0	
6.6.1	win	2023-07-08	11:14:33	11:26:33	716405	5fb402a66cba9801673f2b5c	4	1	main_slash	11	advance_on_keypress_SLASH	160	stimuli_target_squarediamonds.svg	stimuli_distractor_trianglediamonds.svg	4	yes	57	0	364	0	0			0	0			1				0	
6.6.1	win	2023-07-08	11:14:33	11:26:33	716405	5fb402a66cba9801673f2b5c	4	1	headphonecheck_calibration	14	headphonecheck_calibrationIntro	1	stimuli_target_squarediamonds.svg	stimuli_distractor_trianglediamonds.svg	4	yes	calibrationButton	0	2818	0	0			0	0			1				0	
6.6.1	win	2023-07-08	11:14:33	11:26:33	716405	5fb402a66cba9801673f2b5c	4	1	headphonecheck_testphase	15	test_collectResponse	3	stimuli_target_squarediamonds.svg	stimuli_distractor_trianglediamonds.svg	4	yes	first	0	2263	1	6	antiphase_hc_ois.wav	3	0	0			1				0	
6.6.1	win	2023-07-08	11:14:33	11:26:33	716405	5fb402a66cba9801673f2b5c	4	1	headphonecheck_testphase	15	test_collectResponse	6	stimuli_target_squarediamonds.svg	stimuli_distractor_trianglediamonds.svg	4	yes	second	0	1682	2	2	antiphase_hc_ios.wav	3	0	0			1				0	
6.6.1	win	2023-07-08	11:14:33	11:26:33	716405	5fb402a66cba9801673f2b5c	4	1	headphonecheck_testphase	15	test_collectResponse	9	stimuli_target_squarediamonds.svg	stimuli_distractor_trianglediamonds.svg	4	yes	third	0	1243	3	4	antiphase_hc_sio.wav	1	0	0			1				0	
6.6.1	win	2023-07-08	11:14:33	11:26:33	716405	5fb402a66cba9801673f2b5c	4	1	headphonecheck_testphase	15	test_collectResponse	12	stimuli_target_squarediamonds.svg	stimuli_distractor_trianglediamonds.svg	4	yes	third	0	3448	4	1	antiphase_hc_iso.wav	2	0	0			1				0	
6.6.1	win	2023-07-08	11:14:33	11:26:33	716405	5fb402a66cba9801673f2b5c	4	1	headphonecheck_testphase	15	test_collectResponse	15	stimuli_target_squarediamonds.svg	stimuli_distractor_trianglediamonds.svg	4	yes	second	0	1098	5	3	antiphase_hc_soi.wav	1	0	0			1				0	
6.6.1	win	2023-07-08	11:14:33	11:26:33	716405	5fb402a66cba9801673f2b5c	4	1	headphonecheck_testphase	15	test_collectResponse	18	stimuli_target_squarediamonds.svg	stimuli_distractor_trianglediamonds.svg	4	yes	first	0	755	6	5	antiphase_hc_osi.wav	2	0	0			1				0	
6.6.1	win	2023-07-08	11:14:33	11:26:33	716405	5fb402a66cba9801673f2b5c	4	1	stereocheck_calibration	17	stereocheck_calibrationIntro	1	stimuli_target_squarediamonds.svg	stimuli_distractor_trianglediamonds.svg	4	yes	stereocheck_calibrationButton	0	15516	6	5	antiphase_hc_osi.wav	2	0	0			1				0	
6.6.1	win	2023-07-08	11:14:33	11:26:33	716405	5fb402a66cba9801673f2b5c	4	1	stereocheck_testphase	18	stereocheck_test_collectResponse	3	stimuli_target_squarediamonds.svg	stimuli_distractor_trianglediamonds.svg	4	yes	stereocheck_left	1	882	6	5	antiphase_hc_osi.wav	2	1	2	noise_calib_stim_LEFT.wav	1	1				0	
6.6.1	win	2023-07-08	11:14:33	11:26:33	716405	5fb402a66cba9801673f2b5c	4	1	stereocheck_testphase	18	stereocheck_test_collectResponse	6	stimuli_target_squarediamonds.svg	stimuli_distractor_trianglediamonds.svg	4	yes	stereocheck_left	1	1037	6	5	antiphase_hc_osi.wav	2	2	3	noise_calib_stim_LEFT.wav	1	1				0	
6.6.1	win	2023-07-08	11:14:33	11:26:33	716405	5fb402a66cba9801673f2b5c	4	1	stereocheck_testphase	18	stereocheck_test_collectResponse	9	stimuli_target_squarediamonds.svg	stimuli_distractor_trianglediamonds.svg	4	yes	stereocheck_right	1	507	6	5	antiphase_hc_osi.wav	2	3	5	noise_calib_stim_RIGHT.wav	2	1				0	
6.6.1	win	2023-07-08	11:14:33	11:26:33	716405	5fb402a66cba9801673f2b5c	4	1	stereocheck_testphase	18	stereocheck_test_collectResponse	12	stimuli_target_squarediamonds.svg	stimuli_distractor_trianglediamonds.svg	4	yes	stereocheck_right	1	481	6	5	antiphase_hc_osi.wav	2	4	4	noise_calib_stim_RIGHT.wav	2	1				0	
6.6.1	win	2023-07-08	11:14:33	11:26:33	716405	5fb402a66cba9801673f2b5c	4	1	stereocheck_testphase	18	stereocheck_test_collectResponse	15	stimuli_target_squarediamonds.svg	stimuli_distractor_trianglediamonds.svg	4	yes	stereocheck_left	1	314	6	5	antiphase_hc_osi.wav	2	5	1	noise_calib_stim_LEFT.wav	1	1				0	
6.6.1	win	2023-07-08	11:14:33	11:26:33	716405	5fb402a66cba9801673f2b5c	4	1	stereocheck_testphase	18	stereocheck_test_collectResponse	18	stimuli_target_squarediamonds.svg	stimuli_distractor_trianglediamonds.svg	4	yes	stereocheck_right	1	284	6	5	antiphase_hc_osi.wav	2	6	6	noise_calib_stim_RIGHT.wav	2	1				0	
6.6.1	win	2023-07-08	11:14:33	11:26:33	716405	5fb402a66cba9801673f2b5c	4	1	DL_practice	21	DL_practice	2	stimuli_target_squarediamonds.svg	stimuli_distractor_trianglediamonds.svg	4	yes	da	1	1317	6	5	antiphase_hc_osi.wav	2	6	6	noise_calib_stim_RIGHT.wav	2	8	blb_dichoticlistening_da-da.mp3	da	da	0	left
6.6.1	win	2023-07-08	11:14:33	11:26:33	716405	5fb402a66cba9801673f2b5c	4	1	DL_practice	21	DL_practice	3	stimuli_target_squarediamonds.svg	stimuli_distractor_trianglediamonds.svg	4	yes	da	0	730	6	5	antiphase_hc_osi.wav	2	6	6	noise_calib_stim_RIGHT.wav	2	36	blb_dichoticlistening_ta-ta.mp3	ta	ta	0	other
6.6.1	win	2023-07-08	11:14:33	11:26:33	716405	5fb402a66cba9801673f2b5c	4	1	DL_practice	21	DL_practice	4	stimuli_target_squarediamonds.svg	stimuli_distractor_trianglediamonds.svg	4	yes	ba	1	2064	6	5	antiphase_hc_osi.wav	2	6	6	noise_calib_stim_RIGHT.wav	2	7	blb_dichoticlistening_da-ba.mp3	da	ba	1	right
6.6.1	win	2023-07-08	11:14:33	11:26:33	716405	5fb402a66cba9801673f2b5c	4	1	DL_practice	21	DL_practice	5	stimuli_target_squarediamonds.svg	stimuli_distractor_trianglediamonds.svg	4	yes	pa	1	1347	6	5	antiphase_hc_osi.wav	2	6	6	noise_calib_stim_RIGHT.wav	2	29	blb_dichoticlistening_pa-pa.mp3	pa	pa	0	left
6.6.1	win	2023-07-08	11:14:33	11:26:33	716405	5fb402a66cba9801673f2b5c	4	1	DL_practice	21	DL_practice	6	stimuli_target_squarediamonds.svg	stimuli_distractor_trianglediamonds.svg	4	yes	ka	1	1106	6	5	antiphase_hc_osi.wav	2	6	6	noise_calib_stim_RIGHT.wav	2	23	blb_dichoticlistening_ka-pa.mp3	ka	pa	1	left
6.6.1	win	2023-07-08	11:14:33	11:26:33	716405	5fb402a66cba9801673f2b5c	4	1	DL_practice	21	DL_practice	7	stimuli_target_squarediamonds.svg	stimuli_distractor_trianglediamonds.svg	4	yes	ga	1	975	6	5	antiphase_hc_osi.wav	2	6	6	noise_calib_stim_RIGHT.wav	2	15	blb_dichoticlistening_ga-ga.mp3	ga	ga	0	left
6.6.1	win	2023-07-08	11:14:33	11:26:33	716405	5fb402a66cba9801673f2b5c	4	1	DL_practice	21	DL_practice	8	stimuli_target_squarediamonds.svg	stimuli_distractor_trianglediamonds.svg	4	yes	ga	1	1244	6	5	antiphase_hc_osi.wav	2	6	6	noise_calib_stim_RIGHT.wav	2	18	blb_dichoticlistening_ga-ta.mp3	ga	ta	1	left
6.6.1	win	2023-07-08	11:14:33	11:26:33	716405	5fb402a66cba9801673f2b5c	4	1	DL_practice	21	DL_practice	9	stimuli_target_squarediamonds.svg	stimuli_distractor_trianglediamonds.svg	4	yes	ka	1	1109	6	5	antiphase_hc_osi.wav	2	6	6	noise_calib_stim_RIGHT.wav	2	22	blb_dichoticlistening_ka-ka.mp3	ka	ka	0	left
6.6.1	win	2023-07-08	11:14:33	11:26:33	716405	5fb402a66cba9801673f2b5c	4	1	DL_practice	21	DL_practice	10	stimuli_target_squarediamonds.svg	stimuli_distractor_trianglediamonds.svg	4	yes	ba	1	1375	6	5	antiphase_hc_osi.wav	2	6	6	noise_calib_stim_RIGHT.wav	2	1	blb_dichoticlistening_ba-ba.mp3	ba	ba	0	left
6.6.1	win	2023-07-08	11:14:33	11:26:33	716405	5fb402a66cba9801673f2b5c	4	1	DL_test	23	DL_test	1	stimuli_target_squarediamonds.svg	stimuli_distractor_trianglediamonds.svg	4	yes	pa	1	1647	6	5	antiphase_hc_osi.wav	2	6	6	noise_calib_stim_RIGHT.wav	2	29	blb_dichoticlistening_pa-pa.mp3	pa	pa	0	left
6.6.1	win	2023-07-08	11:14:33	11:26:33	716405	5fb402a66cba9801673f2b5c	4	1	DL_test	23	DL_test	2	stimuli_target_squarediamonds.svg	stimuli_distractor_trianglediamonds.svg	4	yes	da	1	1826	6	5	antiphase_hc_osi.wav	2	6	6	noise_calib_stim_RIGHT.wav	2	8	blb_dichoticlistening_da-da.mp3	da	da	0	left
6.6.1	win	2023-07-08	11:14:33	11:26:33	716405	5fb402a66cba9801673f2b5c	4	1	DL_test	23	DL_test	3	stimuli_target_squarediamonds.svg	stimuli_distractor_trianglediamonds.svg	4	yes	ka	1	1345	6	5	antiphase_hc_osi.wav	2	6	6	noise_calib_stim_RIGHT.wav	2	28	blb_dichoticlistening_pa-ka.mp3	pa	ka	1	right
6.6.1	win	2023-07-08	11:14:33	11:26:33	716405	5fb402a66cba9801673f2b5c	4	1	DL_test	23	DL_test	4	stimuli_target_squarediamonds.svg	stimuli_distractor_trianglediamonds.svg	4	yes	ga	0	1086	6	5	antiphase_hc_osi.wav	2	6	6	noise_calib_stim_RIGHT.wav	2	20	blb_dichoticlistening_ka-da.mp3	ka	da	1	other
6.6.1	win	2023-07-08	11:14:33	11:26:33	716405	5fb402a66cba9801673f2b5c	4	1	DL_test	23	DL_test	5	stimuli_target_squarediamonds.svg	stimuli_distractor_trianglediamonds.svg	4	yes	ba	1	1217	6	5	antiphase_hc_osi.wav	2	6	6	noise_calib_stim_RIGHT.wav	2	7	blb_dichoticlistening_da-ba.mp3	da	ba	1	right
6.6.1	win	2023-07-08	11:14:33	11:26:33	716405	5fb402a66cba9801673f2b5c	4	1	DL_test	23	DL_test	6	stimuli_target_squarediamonds.svg	stimuli_distractor_trianglediamonds.svg	4	yes	ka	1	1488	6	5	antiphase_hc_osi.wav	2	6	6	noise_calib_stim_RIGHT.wav	2	23	blb_dichoticlistening_ka-pa.mp3	ka	pa	1	left
6.6.1	win	2023-07-08	11:14:33	11:26:33	716405	5fb402a66cba9801673f2b5c	4	1	DL_test	23	DL_test	7	stimuli_target_squarediamonds.svg	stimuli_distractor_trianglediamonds.svg	4	yes	da	1	1312	6	5	antiphase_hc_osi.wav	2	6	6	noise_calib_stim_RIGHT.wav	2	26	blb_dichoticlistening_pa-da.mp3	pa	da	1	right
6.6.1	win	2023-07-08	11:14:33	11:26:33	716405	5fb402a66cba9801673f2b5c	4	1	DL_test	23	DL_test	8	stimuli_target_squarediamonds.svg	stimuli_distractor_trianglediamonds.svg	4	yes	da	1	1076	6	5	antiphase_hc_osi.wav	2	6	6	noise_calib_stim_RIGHT.wav	2	32	blb_dichoticlistening_ta-da.mp3	ta	da	1	right
6.6.1	win	2023-07-08	11:14:33	11:26:33	716405	5fb402a66cba9801673f2b5c	4	1	DL_test	23	DL_test	9	stimuli_target_squarediamonds.svg	stimuli_distractor_trianglediamonds.svg	4	yes	ta	1	2378	6	5	antiphase_hc_osi.wav	2	6	6	noise_calib_stim_RIGHT.wav	2	35	blb_dichoticlistening_ta-pa.mp3	ta	pa	1	left
6.6.1	win	2023-07-08	11:14:33	11:26:33	716405	5fb402a66cba9801673f2b5c	4	1	DL_test	23	DL_test	10	stimuli_target_squarediamonds.svg	stimuli_distractor_trianglediamonds.svg	4	yes	ga	1	1252	6	5	antiphase_hc_osi.wav	2	6	6	noise_calib_stim_RIGHT.wav	2	15	blb_dichoticlistening_ga-ga.mp3	ga	ga	0	left
6.6.1	win	2023-07-08	11:14:33	11:26:33	716405	5fb402a66cba9801673f2b5c	4	1	DL_test	23	DL_test	11	stimuli_target_squarediamonds.svg	stimuli_distractor_trianglediamonds.svg	4	yes	ka	1	1036	6	5	antiphase_hc_osi.wav	2	6	6	noise_calib_stim_RIGHT.wav	2	22	blb_dichoticlistening_ka-ka.mp3	ka	ka	0	left
6.6.1	win	2023-07-08	11:14:33	11:26:33	716405	5fb402a66cba9801673f2b5c	4	1	DL_test	23	DL_test	12	stimuli_target_squarediamonds.svg	stimuli_distractor_trianglediamonds.svg	4	yes	ga	1	1481	6	5	antiphase_hc_osi.wav	2	6	6	noise_calib_stim_RIGHT.wav	2	27	blb_dichoticlistening_pa-ga.mp3	pa	ga	1	right
6.6.1	win	2023-07-08	11:14:33	11:26:33	716405	5fb402a66cba9801673f2b5c	4	1	DL_test	23	DL_test	13	stimuli_target_squarediamonds.svg	stimuli_distractor_trianglediamonds.svg	4	yes	ba	1	1288	6	5	antiphase_hc_osi.wav	2	6	6	noise_calib_stim_RIGHT.wav	2	3	blb_dichoticlistening_ba-ga.mp3	ba	ga	1	left
6.6.1	win	2023-07-08	11:14:33	11:26:33	716405	5fb402a66cba9801673f2b5c	4	1	DL_test	23	DL_test	14	stimuli_target_squarediamonds.svg	stimuli_distractor_trianglediamonds.svg	4	yes	da	1	999	6	5	antiphase_hc_osi.wav	2	6	6	noise_calib_stim_RIGHT.wav	2	2	blb_dichoticlistening_ba-da.mp3	ba	da	1	right
6.6.1	win	2023-07-08	11:14:33	11:26:33	716405	5fb402a66cba9801673f2b5c	4	1	DL_test	23	DL_test	15	stimuli_target_squarediamonds.svg	stimuli_distractor_trianglediamonds.svg	4	yes	ga	1	1398	6	5	antiphase_hc_osi.wav	2	6	6	noise_calib_stim_RIGHT.wav	2	16	blb_dichoticlistening_ga-ka.mp3	ga	ka	1	left
6.6.1	win	2023-07-08	11:14:33	11:26:33	716405	5fb402a66cba9801673f2b5c	4	1	DL_test	23	DL_test	16	stimuli_target_squarediamonds.svg	stimuli_distractor_trianglediamonds.svg	4	yes	pa	0	1315	6	5	antiphase_hc_osi.wav	2	6	6	noise_calib_stim_RIGHT.wav	2	4	blb_dichoticlistening_ba-ka.mp3	ba	ka	1	other
6.6.1	win	2023-07-08	11:14:33	11:26:33	716405	5fb402a66cba9801673f2b5c	4	1	DL_test	23	DL_test	17	stimuli_target_squarediamonds.svg	stimuli_distractor_trianglediamonds.svg	4	yes	ka	1	1151	6	5	antiphase_hc_osi.wav	2	6	6	noise_calib_stim_RIGHT.wav	2	34	blb_dichoticlistening_ta-ka.mp3	ta	ka	1	right
6.6.1	win	2023-07-08	11:14:33	11:26:33	716405	5fb402a66cba9801673f2b5c	4	1	DL_test	23	DL_test	18	stimuli_target_squarediamonds.svg	stimuli_distractor_trianglediamonds.svg	4	yes	ka	1	1157	6	5	antiphase_hc_osi.wav	2	6	6	noise_calib_stim_RIGHT.wav	2	24	blb_dichoticlistening_ka-ta.mp3	ka	ta	1	left
6.6.1	win	2023-07-08	11:14:33	11:26:33	716405	5fb402a66cba9801673f2b5c	4	1	DL_test	23	DL_test	19	stimuli_target_squarediamonds.svg	stimuli_distractor_trianglediamonds.svg	4	yes	pa	0	1469	6	5	antiphase_hc_osi.wav	2	6	6	noise_calib_stim_RIGHT.wav	2	6	blb_dichoticlistening_ba-ta.mp3	ba	ta	1	other
6.6.1	win	2023-07-08	11:14:33	11:26:33	716405	5fb402a66cba9801673f2b5c	4	1	DL_test	23	DL_test	20	stimuli_target_squarediamonds.svg	stimuli_distractor_trianglediamonds.svg	4	yes	ga	1	1111	6	5	antiphase_hc_osi.wav	2	6	6	noise_calib_stim_RIGHT.wav	2	33	blb_dichoticlistening_ta-ga.mp3	ta	ga	1	right
6.6.1	win	2023-07-08	11:14:33	11:26:33	716405	5fb402a66cba9801673f2b5c	4	1	DL_test	23	DL_test	21	stimuli_target_squarediamonds.svg	stimuli_distractor_trianglediamonds.svg	4	yes	ta	1	1417	6	5	antiphase_hc_osi.wav	2	6	6	noise_calib_stim_RIGHT.wav	2	30	blb_dichoticlistening_pa-ta.mp3	pa	ta	1	right
6.6.1	win	2023-07-08	11:14:33	11:26:33	716405	5fb402a66cba9801673f2b5c	4	1	DL_test	23	DL_test	22	stimuli_target_squarediamonds.svg	stimuli_distractor_trianglediamonds.svg	4	yes	ga	1	1159	6	5	antiphase_hc_osi.wav	2	6	6	noise_calib_stim_RIGHT.wav	2	21	blb_dichoticlistening_ka-ga.mp3	ka	ga	1	right
6.6.1	win	2023-07-08	11:14:33	11:26:33	716405	5fb402a66cba9801673f2b5c	4	1	DL_test	23	DL_test	23	stimuli_target_squarediamonds.svg	stimuli_distractor_trianglediamonds.svg	4	yes	ba	1	1237	6	5	antiphase_hc_osi.wav	2	6	6	noise_calib_stim_RIGHT.wav	2	13	blb_dichoticlistening_ga-ba.mp3	ga	ba	1	right
6.6.1	win	2023-07-08	11:14:33	11:26:33	716405	5fb402a66cba9801673f2b5c	4	1	DL_test	23	DL_test	24	stimuli_target_squarediamonds.svg	stimuli_distractor_trianglediamonds.svg	4	yes	ba	1	831	6	5	antiphase_hc_osi.wav	2	6	6	noise_calib_stim_RIGHT.wav	2	31	blb_dichoticlistening_ta-ba.mp3	ta	ba	1	right
6.6.1	win	2023-07-08	11:14:33	11:26:33	716405	5fb402a66cba9801673f2b5c	4	1	DL_test	23	DL_test	25	stimuli_target_squarediamonds.svg	stimuli_distractor_trianglediamonds.svg	4	yes	ba	1	832	6	5	antiphase_hc_osi.wav	2	6	6	noise_calib_stim_RIGHT.wav	2	19	blb_dichoticlistening_ka-ba.mp3	ka	ba	1	right
6.6.1	win	2023-07-08	11:14:33	11:26:33	716405	5fb402a66cba9801673f2b5c	4	1	DL_test	23	DL_test	26	stimuli_target_squarediamonds.svg	stimuli_distractor_trianglediamonds.svg	4	yes	ga	1	1266	6	5	antiphase_hc_osi.wav	2	6	6	noise_calib_stim_RIGHT.wav	2	17	blb_dichoticlistening_ga-pa.mp3	ga	pa	1	left
