build	computer.platform	date	time	timestamp	time_elapsed_ms	subject	group	session	blockcode	blocknum	trialcode	trialnum	stimulus_left	stimulus_right	stim_index	target_present	response	correct	latency	headphonecheck_countTestTrials	headphonecheck_index	headphonecheck_testSound	headphonecheck_correctResponse	stereocheck_countTestTrials	stereocheck_index	stereocheck_testSound	stereocheck_correctResponse	DL_index	DL_soundfile	DL_leftSound	DL_rightSound	DL_dualSound	DL_choice
6.6.1	mac	2023-06-27	02:33:22	0	0	60d35fa71e56e17e064c2c1e	2	1	headphonecheck_calibration	4	headphonecheck_calibrationIntro	1			0		calibrationButton	0	4206	0	0			0	0			1				0	
6.6.1	mac	2023-06-27	02:33:22	0	0	60d35fa71e56e17e064c2c1e	2	1	headphonecheck_testphase	5	test_collectResponse	3			0		second	0	1008	1	3	antiphase_hc_soi.wav	1	0	0			1				0	
6.6.1	mac	2023-06-27	02:33:22	0	0	60d35fa71e56e17e064c2c1e	2	1	headphonecheck_testphase	5	test_collectResponse	6			0		third	0	598	2	4	antiphase_hc_sio.wav	1	0	0			1				0	
6.6.1	mac	2023-06-27	02:33:22	0	0	60d35fa71e56e17e064c2c1e	2	1	headphonecheck_testphase	5	test_collectResponse	9			0		second	1	728	3	5	antiphase_hc_osi.wav	2	0	0			1				0	
6.6.1	mac	2023-06-27	02:33:22	0	0	60d35fa71e56e17e064c2c1e	2	1	headphonecheck_testphase	5	test_collectResponse	12			0		second	1	307	4	1	antiphase_hc_iso.wav	2	0	0			1				0	
6.6.1	mac	2023-06-27	02:33:22	0	0	60d35fa71e56e17e064c2c1e	2	1	headphonecheck_testphase	5	test_collectResponse	15			0		third	1	469	5	2	antiphase_hc_ios.wav	3	0	0			1				0	
6.6.1	mac	2023-06-27	02:33:22	0	0	60d35fa71e56e17e064c2c1e	2	1	headphonecheck_testphase	5	test_collectResponse	18			0		third	1	530	6	6	antiphase_hc_ois.wav	3	0	0			1				0	
6.6.1	mac	2023-06-27	02:33:22	0	0	60d35fa71e56e17e064c2c1e	2	1	stereocheck_calibration	7	stereocheck_calibrationIntro	1			0		stereocheck_calibrationButton	0	13479	6	6	antiphase_hc_ois.wav	3	0	0			1				0	
6.6.1	mac	2023-06-27	02:33:22	0	0	60d35fa71e56e17e064c2c1e	2	1	stereocheck_testphase	8	stereocheck_test_collectResponse	3			0		stereocheck_left	0	1183	6	6	antiphase_hc_ois.wav	3	1	5	noise_calib_stim_RIGHT.wav	2	1				0	
6.6.1	mac	2023-06-27	02:33:22	0	0	60d35fa71e56e17e064c2c1e	2	1	stereocheck_testphase	8	stereocheck_test_collectResponse	6			0		stereocheck_left	0	631	6	6	antiphase_hc_ois.wav	3	2	4	noise_calib_stim_RIGHT.wav	2	1				0	
6.6.1	mac	2023-06-27	02:33:22	0	0	60d35fa71e56e17e064c2c1e	2	1	stereocheck_testphase	8	stereocheck_test_collectResponse	9			0		stereocheck_right	0	695	6	6	antiphase_hc_ois.wav	3	3	3	noise_calib_stim_LEFT.wav	1	1				0	
6.6.1	mac	2023-06-27	02:33:22	0	0	60d35fa71e56e17e064c2c1e	2	1	stereocheck_testphase	8	stereocheck_test_collectResponse	12			0		stereocheck_right	0	808	6	6	antiphase_hc_ois.wav	3	4	1	noise_calib_stim_LEFT.wav	1	1				0	
6.6.1	mac	2023-06-27	02:33:22	0	0	60d35fa71e56e17e064c2c1e	2	1	stereocheck_testphase	8	stereocheck_test_collectResponse	15			0		stereocheck_right	0	887	6	6	antiphase_hc_ois.wav	3	5	2	noise_calib_stim_LEFT.wav	1	1				0	
6.6.1	mac	2023-06-27	02:33:22	0	0	60d35fa71e56e17e064c2c1e	2	1	stereocheck_testphase	8	stereocheck_test_collectResponse	18			0		stereocheck_left	0	433	6	6	antiphase_hc_ois.wav	3	6	6	noise_calib_stim_RIGHT.wav	2	1				0	
6.6.1	mac	2023-06-27	02:33:22	0	0	60d35fa71e56e17e064c2c1e	2	1	DL_practice	11	DL_practice	2			0		ta	1	2544	6	6	antiphase_hc_ois.wav	3	6	6	noise_calib_stim_RIGHT.wav	2	36	blb_dichoticlistening_ta-ta.mp3	ta	ta	0	left
6.6.1	mac	2023-06-27	02:33:22	0	0	60d35fa71e56e17e064c2c1e	2	1	DL_practice	11	DL_practice	3			0		ba	1	1441	6	6	antiphase_hc_ois.wav	3	6	6	noise_calib_stim_RIGHT.wav	2	7	blb_dichoticlistening_da-ba.mp3	da	ba	1	right
6.6.1	mac	2023-06-27	02:33:22	0	0	60d35fa71e56e17e064c2c1e	2	1	DL_practice	11	DL_practice	4			0		ga	1	1122	6	6	antiphase_hc_ois.wav	3	6	6	noise_calib_stim_RIGHT.wav	2	15	blb_dichoticlistening_ga-ga.mp3	ga	ga	0	left
6.6.1	mac	2023-06-27	02:33:22	0	0	60d35fa71e56e17e064c2c1e	2	1	DL_practice	11	DL_practice	5			0		ba	1	1221	6	6	antiphase_hc_ois.wav	3	6	6	noise_calib_stim_RIGHT.wav	2	1	blb_dichoticlistening_ba-ba.mp3	ba	ba	0	left
6.6.1	mac	2023-06-27	02:33:22	0	0	60d35fa71e56e17e064c2c1e	2	1	DL_practice	11	DL_practice	6			0		da	1	1052	6	6	antiphase_hc_ois.wav	3	6	6	noise_calib_stim_RIGHT.wav	2	8	blb_dichoticlistening_da-da.mp3	da	da	0	left
6.6.1	mac	2023-06-27	02:33:22	0	0	60d35fa71e56e17e064c2c1e	2	1	DL_practice	11	DL_practice	7			0		ka	1	1135	6	6	antiphase_hc_ois.wav	3	6	6	noise_calib_stim_RIGHT.wav	2	22	blb_dichoticlistening_ka-ka.mp3	ka	ka	0	left
6.6.1	mac	2023-06-27	02:33:22	0	0	60d35fa71e56e17e064c2c1e	2	1	DL_practice	11	DL_practice	8			0		ga	1	1066	6	6	antiphase_hc_ois.wav	3	6	6	noise_calib_stim_RIGHT.wav	2	18	blb_dichoticlistening_ga-ta.mp3	ga	ta	1	left
6.6.1	mac	2023-06-27	02:33:22	0	0	60d35fa71e56e17e064c2c1e	2	1	DL_practice	11	DL_practice	9			0		pa	1	1081	6	6	antiphase_hc_ois.wav	3	6	6	noise_calib_stim_RIGHT.wav	2	29	blb_dichoticlistening_pa-pa.mp3	pa	pa	0	left
6.6.1	mac	2023-06-27	02:33:22	0	0	60d35fa71e56e17e064c2c1e	2	1	DL_practice	11	DL_practice	10			0		ka	1	730	6	6	antiphase_hc_ois.wav	3	6	6	noise_calib_stim_RIGHT.wav	2	23	blb_dichoticlistening_ka-pa.mp3	ka	pa	1	left
6.6.1	mac	2023-06-27	02:33:22	0	0	60d35fa71e56e17e064c2c1e	2	1	DL_test	13	DL_test	1			0		ta	1	1759	6	6	antiphase_hc_ois.wav	3	6	6	noise_calib_stim_RIGHT.wav	2	30	blb_dichoticlistening_pa-ta.mp3	pa	ta	1	right
6.6.1	mac	2023-06-27	02:33:22	0	0	60d35fa71e56e17e064c2c1e	2	1	DL_test	13	DL_test	2			0		da	1	1190	6	6	antiphase_hc_ois.wav	3	6	6	noise_calib_stim_RIGHT.wav	2	12	blb_dichoticlistening_da-ta.mp3	da	ta	1	left
6.6.1	mac	2023-06-27	02:33:22	0	0	60d35fa71e56e17e064c2c1e	2	1	DL_test	13	DL_test	3			0		ba	1	921	6	6	antiphase_hc_ois.wav	3	6	6	noise_calib_stim_RIGHT.wav	2	2	blb_dichoticlistening_ba-da.mp3	ba	da	1	left
6.6.1	mac	2023-06-27	02:33:22	0	0	60d35fa71e56e17e064c2c1e	2	1	DL_test	13	DL_test	4			0		ka	1	1620	6	6	antiphase_hc_ois.wav	3	6	6	noise_calib_stim_RIGHT.wav	2	34	blb_dichoticlistening_ta-ka.mp3	ta	ka	1	right
6.6.1	mac	2023-06-27	02:33:22	0	0	60d35fa71e56e17e064c2c1e	2	1	DL_test	13	DL_test	5			0		ga	1	935	6	6	antiphase_hc_ois.wav	3	6	6	noise_calib_stim_RIGHT.wav	2	16	blb_dichoticlistening_ga-ka.mp3	ga	ka	1	left
6.6.1	mac	2023-06-27	02:33:22	0	0	60d35fa71e56e17e064c2c1e	2	1	DL_test	13	DL_test	6			0		pa	1	1116	6	6	antiphase_hc_ois.wav	3	6	6	noise_calib_stim_RIGHT.wav	2	29	blb_dichoticlistening_pa-pa.mp3	pa	pa	0	left
6.6.1	mac	2023-06-27	02:33:22	0	0	60d35fa71e56e17e064c2c1e	2	1	DL_test	13	DL_test	7			0		ka	1	982	6	6	antiphase_hc_ois.wav	3	6	6	noise_calib_stim_RIGHT.wav	2	24	blb_dichoticlistening_ka-ta.mp3	ka	ta	1	left
6.6.1	mac	2023-06-27	02:33:22	0	0	60d35fa71e56e17e064c2c1e	2	1	DL_test	13	DL_test	8			0		ta	1	1364	6	6	antiphase_hc_ois.wav	3	6	6	noise_calib_stim_RIGHT.wav	2	35	blb_dichoticlistening_ta-pa.mp3	ta	pa	1	left
6.6.1	mac	2023-06-27	02:33:22	0	0	60d35fa71e56e17e064c2c1e	2	1	DL_test	13	DL_test	9			0		ta	1	851	6	6	antiphase_hc_ois.wav	3	6	6	noise_calib_stim_RIGHT.wav	2	36	blb_dichoticlistening_ta-ta.mp3	ta	ta	0	left
6.6.1	mac	2023-06-27	02:33:22	0	0	60d35fa71e56e17e064c2c1e	2	1	DL_test	13	DL_test	10			0		pa	0	1411	6	6	antiphase_hc_ois.wav	3	6	6	noise_calib_stim_RIGHT.wav	2	4	blb_dichoticlistening_ba-ka.mp3	ba	ka	1	other
6.6.1	mac	2023-06-27	02:33:22	0	0	60d35fa71e56e17e064c2c1e	2	1	DL_test	13	DL_test	11			0		ka	1	558	6	6	antiphase_hc_ois.wav	3	6	6	noise_calib_stim_RIGHT.wav	2	28	blb_dichoticlistening_pa-ka.mp3	pa	ka	1	right
6.6.1	mac	2023-06-27	02:33:22	0	0	60d35fa71e56e17e064c2c1e	2	1	DL_test	13	DL_test	12			0		ba	1	924	6	6	antiphase_hc_ois.wav	3	6	6	noise_calib_stim_RIGHT.wav	2	5	blb_dichoticlistening_ba-pa.mp3	ba	pa	1	left
6.6.1	mac	2023-06-27	02:33:22	0	0	60d35fa71e56e17e064c2c1e	2	1	DL_test	13	DL_test	13			0		ga	0	718	6	6	antiphase_hc_ois.wav	3	6	6	noise_calib_stim_RIGHT.wav	2	20	blb_dichoticlistening_ka-da.mp3	ka	da	1	other
6.6.1	mac	2023-06-27	02:33:22	0	0	60d35fa71e56e17e064c2c1e	2	1	DL_test	13	DL_test	14			0		ga	0	921	6	6	antiphase_hc_ois.wav	3	6	6	noise_calib_stim_RIGHT.wav	2	11	blb_dichoticlistening_da-pa.mp3	da	pa	1	other
6.6.1	mac	2023-06-27	02:33:22	0	0	60d35fa71e56e17e064c2c1e	2	1	DL_test	13	DL_test	15			0		ba	1	936	6	6	antiphase_hc_ois.wav	3	6	6	noise_calib_stim_RIGHT.wav	2	3	blb_dichoticlistening_ba-ga.mp3	ba	ga	1	left
6.6.1	mac	2023-06-27	02:33:22	0	0	60d35fa71e56e17e064c2c1e	2	1	DL_test	13	DL_test	16			0		ga	1	419	6	6	antiphase_hc_ois.wav	3	6	6	noise_calib_stim_RIGHT.wav	2	17	blb_dichoticlistening_ga-pa.mp3	ga	pa	1	left
6.6.1	mac	2023-06-27	02:33:22	0	0	60d35fa71e56e17e064c2c1e	2	1	DL_test	13	DL_test	17			0		ba	1	735	6	6	antiphase_hc_ois.wav	3	6	6	noise_calib_stim_RIGHT.wav	2	7	blb_dichoticlistening_da-ba.mp3	da	ba	1	right
6.6.1	mac	2023-06-27	02:33:22	0	0	60d35fa71e56e17e064c2c1e	2	1	DL_test	13	DL_test	18			0		ba	1	734	6	6	antiphase_hc_ois.wav	3	6	6	noise_calib_stim_RIGHT.wav	2	19	blb_dichoticlistening_ka-ba.mp3	ka	ba	1	right
6.6.1	mac	2023-06-27	02:33:22	0	0	60d35fa71e56e17e064c2c1e	2	1	DL_test	13	DL_test	19			0		ga	1	733	6	6	antiphase_hc_ois.wav	3	6	6	noise_calib_stim_RIGHT.wav	2	14	blb_dichoticlistening_ga-da.mp3	ga	da	1	left
6.6.1	mac	2023-06-27	02:33:22	0	0	60d35fa71e56e17e064c2c1e	2	1	DL_test	13	DL_test	20			0		ga	1	931	6	6	antiphase_hc_ois.wav	3	6	6	noise_calib_stim_RIGHT.wav	2	21	blb_dichoticlistening_ka-ga.mp3	ka	ga	1	right
6.6.1	mac	2023-06-27	02:33:22	0	0	60d35fa71e56e17e064c2c1e	2	1	DL_test	13	DL_test	21			0		ga	0	796	6	6	antiphase_hc_ois.wav	3	6	6	noise_calib_stim_RIGHT.wav	2	32	blb_dichoticlistening_ta-da.mp3	ta	da	1	other
6.6.1	mac	2023-06-27	02:33:22	0	0	60d35fa71e56e17e064c2c1e	2	1	DL_test	13	DL_test	22			0		ba	1	1012	6	6	antiphase_hc_ois.wav	3	6	6	noise_calib_stim_RIGHT.wav	2	1	blb_dichoticlistening_ba-ba.mp3	ba	ba	0	left
6.6.1	mac	2023-06-27	02:33:22	0	0	60d35fa71e56e17e064c2c1e	2	1	DL_test	13	DL_test	23			0		ga	1	1418	6	6	antiphase_hc_ois.wav	3	6	6	noise_calib_stim_RIGHT.wav	2	33	blb_dichoticlistening_ta-ga.mp3	ta	ga	1	right
6.6.1	mac	2023-06-27	02:33:22	0	0	60d35fa71e56e17e064c2c1e	2	1	DL_test	13	DL_test	24			0		ba	1	858	6	6	antiphase_hc_ois.wav	3	6	6	noise_calib_stim_RIGHT.wav	2	31	blb_dichoticlistening_ta-ba.mp3	ta	ba	1	right
6.6.1	mac	2023-06-27	02:33:22	0	0	60d35fa71e56e17e064c2c1e	2	1	DL_test	13	DL_test	25			0		ga	0	850	6	6	antiphase_hc_ois.wav	3	6	6	noise_calib_stim_RIGHT.wav	2	26	blb_dichoticlistening_pa-da.mp3	pa	da	1	other
6.6.1	mac	2023-06-27	02:33:22	0	0	60d35fa71e56e17e064c2c1e	2	1	DL_test	13	DL_test	26			0		ga	1	1155	6	6	antiphase_hc_ois.wav	3	6	6	noise_calib_stim_RIGHT.wav	2	9	blb_dichoticlistening_da-ga.mp3	da	ga	1	right
6.6.1	mac	2023-06-27	02:33:22	0	0	60d35fa71e56e17e064c2c1e	2	1	DL_test	13	DL_test	27			0		ga	1	587	6	6	antiphase_hc_ois.wav	3	6	6	noise_calib_stim_RIGHT.wav	2	18	blb_dichoticlistening_ga-ta.mp3	ga	ta	1	left
6.6.1	mac	2023-06-27	02:33:22	0	0	60d35fa71e56e17e064c2c1e	2	1	DL_test	13	DL_test	28			0		ka	1	1120	6	6	antiphase_hc_ois.wav	3	6	6	noise_calib_stim_RIGHT.wav	2	22	blb_dichoticlistening_ka-ka.mp3	ka	ka	0	left
6.6.1	mac	2023-06-27	02:33:22	0	0	60d35fa71e56e17e064c2c1e	2	1	DL_test	13	DL_test	29			0		ba	1	918	6	6	antiphase_hc_ois.wav	3	6	6	noise_calib_stim_RIGHT.wav	2	13	blb_dichoticlistening_ga-ba.mp3	ga	ba	1	right
6.6.1	mac	2023-06-27	02:33:22	0	0	60d35fa71e56e17e064c2c1e	2	1	DL_test	13	DL_test	30			0		ga	1	999	6	6	antiphase_hc_ois.wav	3	6	6	noise_calib_stim_RIGHT.wav	2	27	blb_dichoticlistening_pa-ga.mp3	pa	ga	1	right
6.6.1	mac	2023-06-27	02:33:22	0	0	60d35fa71e56e17e064c2c1e	2	1	DL_test	13	DL_test	31			0		ka	1	898	6	6	antiphase_hc_ois.wav	3	6	6	noise_calib_stim_RIGHT.wav	2	23	blb_dichoticlistening_ka-pa.mp3	ka	pa	1	left
6.6.1	mac	2023-06-27	02:33:22	0	0	60d35fa71e56e17e064c2c1e	2	1	DL_test	13	DL_test	32			0		ga	0	897	6	6	antiphase_hc_ois.wav	3	6	6	noise_calib_stim_RIGHT.wav	2	8	blb_dichoticlistening_da-da.mp3	da	da	0	other
6.6.1	mac	2023-06-27	02:33:22	0	0	60d35fa71e56e17e064c2c1e	2	1	DL_test	13	DL_test	33			0		ba	1	1279	6	6	antiphase_hc_ois.wav	3	6	6	noise_calib_stim_RIGHT.wav	2	25	blb_dichoticlistening_pa-ba.mp3	pa	ba	1	right
6.6.1	mac	2023-06-27	02:33:22	0	0	60d35fa71e56e17e064c2c1e	2	1	DL_test	13	DL_test	34			0		ba	1	693	6	6	antiphase_hc_ois.wav	3	6	6	noise_calib_stim_RIGHT.wav	2	6	blb_dichoticlistening_ba-ta.mp3	ba	ta	1	left
6.6.1	mac	2023-06-27	02:33:22	0	0	60d35fa71e56e17e064c2c1e	2	1	DL_test	13	DL_test	35			0		ga	0	1076	6	6	antiphase_hc_ois.wav	3	6	6	noise_calib_stim_RIGHT.wav	2	10	blb_dichoticlistening_da-ka.mp3	da	ka	1	other
6.6.1	mac	2023-06-27	02:33:22	0	0	60d35fa71e56e17e064c2c1e	2	1	DL_test	13	DL_test	36			0		ga	1	808	6	6	antiphase_hc_ois.wav	3	6	6	noise_calib_stim_RIGHT.wav	2	15	blb_dichoticlistening_ga-ga.mp3	ga	ga	0	left
6.6.1	mac	2023-06-27	02:33:22	0	0	60d35fa71e56e17e064c2c1e	2	1	DL_test	14	DL_test	1			0		ga	1	678	6	6	antiphase_hc_ois.wav	3	6	6	noise_calib_stim_RIGHT.wav	2	33	blb_dichoticlistening_ta-ga.mp3	ta	ga	1	right
6.6.1	mac	2023-06-27	02:33:22	0	0	60d35fa71e56e17e064c2c1e	2	1	DL_test	14	DL_test	2			0		ga	1	461	6	6	antiphase_hc_ois.wav	3	6	6	noise_calib_stim_RIGHT.wav	2	21	blb_dichoticlistening_ka-ga.mp3	ka	ga	1	right
6.6.1	mac	2023-06-27	02:33:22	0	0	60d35fa71e56e17e064c2c1e	2	1	DL_test	14	DL_test	3			0		ta	1	1593	6	6	antiphase_hc_ois.wav	3	6	6	noise_calib_stim_RIGHT.wav	2	35	blb_dichoticlistening_ta-pa.mp3	ta	pa	1	left
6.6.1	mac	2023-06-27	02:33:22	0	0	60d35fa71e56e17e064c2c1e	2	1	DL_test	14	DL_test	4			0		ga	1	1357	6	6	antiphase_hc_ois.wav	3	6	6	noise_calib_stim_RIGHT.wav	2	27	blb_dichoticlistening_pa-ga.mp3	pa	ga	1	right
6.6.1	mac	2023-06-27	02:33:22	0	0	60d35fa71e56e17e064c2c1e	2	1	DL_test	14	DL_test	5			0		ba	0	1423	6	6	antiphase_hc_ois.wav	3	6	6	noise_calib_stim_RIGHT.wav	2	9	blb_dichoticlistening_da-ga.mp3	da	ga	1	other
6.6.1	mac	2023-06-27	02:33:22	0	0	60d35fa71e56e17e064c2c1e	2	1	DL_test	14	DL_test	6			0		ba	1	1420	6	6	antiphase_hc_ois.wav	3	6	6	noise_calib_stim_RIGHT.wav	2	7	blb_dichoticlistening_da-ba.mp3	da	ba	1	right
6.6.1	mac	2023-06-27	02:33:22	0	0	60d35fa71e56e17e064c2c1e	2	1	DL_test	14	DL_test	7			0		ta	1	1769	6	6	antiphase_hc_ois.wav	3	6	6	noise_calib_stim_RIGHT.wav	2	30	blb_dichoticlistening_pa-ta.mp3	pa	ta	1	right
6.6.1	mac	2023-06-27	02:33:22	0	0	60d35fa71e56e17e064c2c1e	2	1	DL_test	14	DL_test	8			0		ga	0	933	6	6	antiphase_hc_ois.wav	3	6	6	noise_calib_stim_RIGHT.wav	2	11	blb_dichoticlistening_da-pa.mp3	da	pa	1	other
6.6.1	mac	2023-06-27	02:33:22	0	0	60d35fa71e56e17e064c2c1e	2	1	DL_test	14	DL_test	9			0		ga	0	832	6	6	antiphase_hc_ois.wav	3	6	6	noise_calib_stim_RIGHT.wav	2	10	blb_dichoticlistening_da-ka.mp3	da	ka	1	other
6.6.1	mac	2023-06-27	02:33:22	0	0	60d35fa71e56e17e064c2c1e	2	1	DL_test	14	DL_test	10			0		ba	1	1130	6	6	antiphase_hc_ois.wav	3	6	6	noise_calib_stim_RIGHT.wav	2	2	blb_dichoticlistening_ba-da.mp3	ba	da	1	left
6.6.1	mac	2023-06-27	02:33:22	0	0	60d35fa71e56e17e064c2c1e	2	1	DL_test	14	DL_test	11			0		ga	1	879	6	6	antiphase_hc_ois.wav	3	6	6	noise_calib_stim_RIGHT.wav	2	16	blb_dichoticlistening_ga-ka.mp3	ga	ka	1	left
6.6.1	mac	2023-06-27	02:33:22	0	0	60d35fa71e56e17e064c2c1e	2	1	DL_test	14	DL_test	12			0		da	1	744	6	6	antiphase_hc_ois.wav	3	6	6	noise_calib_stim_RIGHT.wav	2	32	blb_dichoticlistening_ta-da.mp3	ta	da	1	right
6.6.1	mac	2023-06-27	02:33:22	0	0	60d35fa71e56e17e064c2c1e	2	1	DL_test	14	DL_test	13			0		ba	1	676	6	6	antiphase_hc_ois.wav	3	6	6	noise_calib_stim_RIGHT.wav	2	4	blb_dichoticlistening_ba-ka.mp3	ba	ka	1	left
6.6.1	mac	2023-06-27	02:33:22	0	0	60d35fa71e56e17e064c2c1e	2	1	DL_test	14	DL_test	14			0		ka	1	1175	6	6	antiphase_hc_ois.wav	3	6	6	noise_calib_stim_RIGHT.wav	2	34	blb_dichoticlistening_ta-ka.mp3	ta	ka	1	right
6.6.1	mac	2023-06-27	02:33:22	0	0	60d35fa71e56e17e064c2c1e	2	1	DL_test	14	DL_test	15			0		ka	0	790	6	6	antiphase_hc_ois.wav	3	6	6	noise_calib_stim_RIGHT.wav	2	36	blb_dichoticlistening_ta-ta.mp3	ta	ta	0	other
6.6.1	mac	2023-06-27	02:33:22	0	0	60d35fa71e56e17e064c2c1e	2	1	DL_test	14	DL_test	16			0		ka	1	789	6	6	antiphase_hc_ois.wav	3	6	6	noise_calib_stim_RIGHT.wav	2	24	blb_dichoticlistening_ka-ta.mp3	ka	ta	1	left
6.6.1	mac	2023-06-27	02:33:22	0	0	60d35fa71e56e17e064c2c1e	2	1	DL_test	14	DL_test	17			0		ga	1	1053	6	6	antiphase_hc_ois.wav	3	6	6	noise_calib_stim_RIGHT.wav	2	15	blb_dichoticlistening_ga-ga.mp3	ga	ga	0	left
6.6.1	mac	2023-06-27	02:33:22	0	0	60d35fa71e56e17e064c2c1e	2	1	DL_test	14	DL_test	18			0		ba	1	1069	6	6	antiphase_hc_ois.wav	3	6	6	noise_calib_stim_RIGHT.wav	2	31	blb_dichoticlistening_ta-ba.mp3	ta	ba	1	right
6.6.1	mac	2023-06-27	02:33:22	0	0	60d35fa71e56e17e064c2c1e	2	1	DL_test	14	DL_test	19			0		ka	1	1051	6	6	antiphase_hc_ois.wav	3	6	6	noise_calib_stim_RIGHT.wav	2	23	blb_dichoticlistening_ka-pa.mp3	ka	pa	1	left
6.6.1	mac	2023-06-27	02:33:22	0	0	60d35fa71e56e17e064c2c1e	2	1	DL_test	14	DL_test	20			0		ba	1	982	6	6	antiphase_hc_ois.wav	3	6	6	noise_calib_stim_RIGHT.wav	2	19	blb_dichoticlistening_ka-ba.mp3	ka	ba	1	right
6.6.1	mac	2023-06-27	02:33:22	0	0	60d35fa71e56e17e064c2c1e	2	1	DL_test	14	DL_test	21			0		ka	1	1168	6	6	antiphase_hc_ois.wav	3	6	6	noise_calib_stim_RIGHT.wav	2	22	blb_dichoticlistening_ka-ka.mp3	ka	ka	0	left
6.6.1	mac	2023-06-27	02:33:22	0	0	60d35fa71e56e17e064c2c1e	2	1	DL_test	14	DL_test	22			0		ba	1	830	6	6	antiphase_hc_ois.wav	3	6	6	noise_calib_stim_RIGHT.wav	2	25	blb_dichoticlistening_pa-ba.mp3	pa	ba	1	right
6.6.1	mac	2023-06-27	02:33:22	0	0	60d35fa71e56e17e064c2c1e	2	1	DL_test	14	DL_test	23			0		da	1	1328	6	6	antiphase_hc_ois.wav	3	6	6	noise_calib_stim_RIGHT.wav	2	12	blb_dichoticlistening_da-ta.mp3	da	ta	1	left
6.6.1	mac	2023-06-27	02:33:22	0	0	60d35fa71e56e17e064c2c1e	2	1	DL_test	14	DL_test	24			0		ga	1	826	6	6	antiphase_hc_ois.wav	3	6	6	noise_calib_stim_RIGHT.wav	2	14	blb_dichoticlistening_ga-da.mp3	ga	da	1	left
6.6.1	mac	2023-06-27	02:33:22	0	0	60d35fa71e56e17e064c2c1e	2	1	DL_test	14	DL_test	25			0		ga	0	492	6	6	antiphase_hc_ois.wav	3	6	6	noise_calib_stim_RIGHT.wav	2	26	blb_dichoticlistening_pa-da.mp3	pa	da	1	other
6.6.1	mac	2023-06-27	02:33:22	0	0	60d35fa71e56e17e064c2c1e	2	1	DL_test	14	DL_test	26			0		ga	0	658	6	6	antiphase_hc_ois.wav	3	6	6	noise_calib_stim_RIGHT.wav	2	8	blb_dichoticlistening_da-da.mp3	da	da	0	other
6.6.1	mac	2023-06-27	02:33:22	0	0	60d35fa71e56e17e064c2c1e	2	1	DL_test	14	DL_test	27			0		ba	1	839	6	6	antiphase_hc_ois.wav	3	6	6	noise_calib_stim_RIGHT.wav	2	1	blb_dichoticlistening_ba-ba.mp3	ba	ba	0	left
6.6.1	mac	2023-06-27	02:33:22	0	0	60d35fa71e56e17e064c2c1e	2	1	DL_test	14	DL_test	28			0		ga	0	1021	6	6	antiphase_hc_ois.wav	3	6	6	noise_calib_stim_RIGHT.wav	2	20	blb_dichoticlistening_ka-da.mp3	ka	da	1	other
6.6.1	mac	2023-06-27	02:33:22	0	0	60d35fa71e56e17e064c2c1e	2	1	DL_test	14	DL_test	29			0		ga	1	870	6	6	antiphase_hc_ois.wav	3	6	6	noise_calib_stim_RIGHT.wav	2	17	blb_dichoticlistening_ga-pa.mp3	ga	pa	1	left
6.6.1	mac	2023-06-27	02:33:22	0	0	60d35fa71e56e17e064c2c1e	2	1	DL_test	14	DL_test	30			0		ba	0	1085	6	6	antiphase_hc_ois.wav	3	6	6	noise_calib_stim_RIGHT.wav	2	18	blb_dichoticlistening_ga-ta.mp3	ga	ta	1	other
6.6.1	mac	2023-06-27	02:33:22	0	0	60d35fa71e56e17e064c2c1e	2	1	DL_test	14	DL_test	31			0		ba	1	1550	6	6	antiphase_hc_ois.wav	3	6	6	noise_calib_stim_RIGHT.wav	2	6	blb_dichoticlistening_ba-ta.mp3	ba	ta	1	left
6.6.1	mac	2023-06-27	02:33:22	0	0	60d35fa71e56e17e064c2c1e	2	1	DL_test	14	DL_test	32			0		ka	1	1232	6	6	antiphase_hc_ois.wav	3	6	6	noise_calib_stim_RIGHT.wav	2	28	blb_dichoticlistening_pa-ka.mp3	pa	ka	1	right
6.6.1	mac	2023-06-27	02:33:22	0	0	60d35fa71e56e17e064c2c1e	2	1	DL_test	14	DL_test	33			0		ba	1	1380	6	6	antiphase_hc_ois.wav	3	6	6	noise_calib_stim_RIGHT.wav	2	3	blb_dichoticlistening_ba-ga.mp3	ba	ga	1	left
6.6.1	mac	2023-06-27	02:33:22	0	0	60d35fa71e56e17e064c2c1e	2	1	DL_test	14	DL_test	34			0		ba	1	1279	6	6	antiphase_hc_ois.wav	3	6	6	noise_calib_stim_RIGHT.wav	2	5	blb_dichoticlistening_ba-pa.mp3	ba	pa	1	left
6.6.1	mac	2023-06-27	02:33:22	0	0	60d35fa71e56e17e064c2c1e	2	1	DL_test	14	DL_test	35			0		ba	1	777	6	6	antiphase_hc_ois.wav	3	6	6	noise_calib_stim_RIGHT.wav	2	13	blb_dichoticlistening_ga-ba.mp3	ga	ba	1	right
6.6.1	mac	2023-06-27	02:33:22	0	0	60d35fa71e56e17e064c2c1e	2	1	DL_test	14	DL_test	36			0		pa	1	1192	6	6	antiphase_hc_ois.wav	3	6	6	noise_calib_stim_RIGHT.wav	2	29	blb_dichoticlistening_pa-pa.mp3	pa	pa	0	left
6.6.1	mac	2023-06-27	02:33:22	0	0	60d35fa71e56e17e064c2c1e	2	1	DL_test	15	DL_test	1			0		ga	1	697	6	6	antiphase_hc_ois.wav	3	6	6	noise_calib_stim_RIGHT.wav	2	27	blb_dichoticlistening_pa-ga.mp3	pa	ga	1	right
6.6.1	mac	2023-06-27	02:33:22	0	0	60d35fa71e56e17e064c2c1e	2	1	DL_test	15	DL_test	2			0		pa	1	1095	6	6	antiphase_hc_ois.wav	3	6	6	noise_calib_stim_RIGHT.wav	2	30	blb_dichoticlistening_pa-ta.mp3	pa	ta	1	left
6.6.1	mac	2023-06-27	02:33:22	0	0	60d35fa71e56e17e064c2c1e	2	1	DL_test	15	DL_test	3			0		ga	0	977	6	6	antiphase_hc_ois.wav	3	6	6	noise_calib_stim_RIGHT.wav	2	20	blb_dichoticlistening_ka-da.mp3	ka	da	1	other
6.6.1	mac	2023-06-27	02:33:22	0	0	60d35fa71e56e17e064c2c1e	2	1	DL_test	15	DL_test	4			0		ka	1	909	6	6	antiphase_hc_ois.wav	3	6	6	noise_calib_stim_RIGHT.wav	2	28	blb_dichoticlistening_pa-ka.mp3	pa	ka	1	right
6.6.1	mac	2023-06-27	02:33:22	0	0	60d35fa71e56e17e064c2c1e	2	1	DL_test	15	DL_test	5			0		ba	1	1608	6	6	antiphase_hc_ois.wav	3	6	6	noise_calib_stim_RIGHT.wav	2	1	blb_dichoticlistening_ba-ba.mp3	ba	ba	0	left
6.6.1	mac	2023-06-27	02:33:22	0	0	60d35fa71e56e17e064c2c1e	2	1	DL_test	15	DL_test	6			0		ba	1	822	6	6	antiphase_hc_ois.wav	3	6	6	noise_calib_stim_RIGHT.wav	2	31	blb_dichoticlistening_ta-ba.mp3	ta	ba	1	right
6.6.1	mac	2023-06-27	02:33:22	0	0	60d35fa71e56e17e064c2c1e	2	1	DL_test	15	DL_test	7			0		ga	1	1488	6	6	antiphase_hc_ois.wav	3	6	6	noise_calib_stim_RIGHT.wav	2	17	blb_dichoticlistening_ga-pa.mp3	ga	pa	1	left
6.6.1	mac	2023-06-27	02:33:22	0	0	60d35fa71e56e17e064c2c1e	2	1	DL_test	15	DL_test	8			0		pa	1	1436	6	6	antiphase_hc_ois.wav	3	6	6	noise_calib_stim_RIGHT.wav	2	35	blb_dichoticlistening_ta-pa.mp3	ta	pa	1	right
6.6.1	mac	2023-06-27	02:33:22	0	0	60d35fa71e56e17e064c2c1e	2	1	DL_test	15	DL_test	9			0		ga	1	1101	6	6	antiphase_hc_ois.wav	3	6	6	noise_calib_stim_RIGHT.wav	2	33	blb_dichoticlistening_ta-ga.mp3	ta	ga	1	right
6.6.1	mac	2023-06-27	02:33:22	0	0	60d35fa71e56e17e064c2c1e	2	1	DL_test	15	DL_test	10			0		ba	1	915	6	6	antiphase_hc_ois.wav	3	6	6	noise_calib_stim_RIGHT.wav	2	6	blb_dichoticlistening_ba-ta.mp3	ba	ta	1	left
6.6.1	mac	2023-06-27	02:33:22	0	0	60d35fa71e56e17e064c2c1e	2	1	DL_test	15	DL_test	11			0		ga	1	964	6	6	antiphase_hc_ois.wav	3	6	6	noise_calib_stim_RIGHT.wav	2	14	blb_dichoticlistening_ga-da.mp3	ga	da	1	left
6.6.1	mac	2023-06-27	02:33:22	0	0	60d35fa71e56e17e064c2c1e	2	1	DL_test	15	DL_test	12			0		ka	1	980	6	6	antiphase_hc_ois.wav	3	6	6	noise_calib_stim_RIGHT.wav	2	22	blb_dichoticlistening_ka-ka.mp3	ka	ka	0	left
6.6.1	mac	2023-06-27	02:33:22	0	0	60d35fa71e56e17e064c2c1e	2	1	DL_test	15	DL_test	13			0		ka	1	744	6	6	antiphase_hc_ois.wav	3	6	6	noise_calib_stim_RIGHT.wav	2	34	blb_dichoticlistening_ta-ka.mp3	ta	ka	1	right
6.6.1	mac	2023-06-27	02:33:22	0	0	60d35fa71e56e17e064c2c1e	2	1	DL_test	15	DL_test	14			0		pa	1	1243	6	6	antiphase_hc_ois.wav	3	6	6	noise_calib_stim_RIGHT.wav	2	29	blb_dichoticlistening_pa-pa.mp3	pa	pa	0	left
6.6.1	mac	2023-06-27	02:33:22	0	0	60d35fa71e56e17e064c2c1e	2	1	DL_test	15	DL_test	15			0		ba	1	1475	6	6	antiphase_hc_ois.wav	3	6	6	noise_calib_stim_RIGHT.wav	2	5	blb_dichoticlistening_ba-pa.mp3	ba	pa	1	left
6.6.1	mac	2023-06-27	02:33:22	0	0	60d35fa71e56e17e064c2c1e	2	1	DL_test	15	DL_test	16			0		ba	1	939	6	6	antiphase_hc_ois.wav	3	6	6	noise_calib_stim_RIGHT.wav	2	2	blb_dichoticlistening_ba-da.mp3	ba	da	1	left
6.6.1	mac	2023-06-27	02:33:22	0	0	60d35fa71e56e17e064c2c1e	2	1	DL_test	15	DL_test	17			0		ba	1	638	6	6	antiphase_hc_ois.wav	3	6	6	noise_calib_stim_RIGHT.wav	2	4	blb_dichoticlistening_ba-ka.mp3	ba	ka	1	left
6.6.1	mac	2023-06-27	02:33:22	0	0	60d35fa71e56e17e064c2c1e	2	1	DL_test	15	DL_test	18			0		ba	1	771	6	6	antiphase_hc_ois.wav	3	6	6	noise_calib_stim_RIGHT.wav	2	7	blb_dichoticlistening_da-ba.mp3	da	ba	1	right
6.6.1	mac	2023-06-27	02:33:22	0	0	60d35fa71e56e17e064c2c1e	2	1	DL_test	15	DL_test	19			0		ga	1	1369	6	6	antiphase_hc_ois.wav	3	6	6	noise_calib_stim_RIGHT.wav	2	9	blb_dichoticlistening_da-ga.mp3	da	ga	1	right
6.6.1	mac	2023-06-27	02:33:22	0	0	60d35fa71e56e17e064c2c1e	2	1	DL_test	15	DL_test	20			0		ga	0	834	6	6	antiphase_hc_ois.wav	3	6	6	noise_calib_stim_RIGHT.wav	2	12	blb_dichoticlistening_da-ta.mp3	da	ta	1	other
6.6.1	mac	2023-06-27	02:33:22	0	0	60d35fa71e56e17e064c2c1e	2	1	DL_test	15	DL_test	21			0		ka	1	1149	6	6	antiphase_hc_ois.wav	3	6	6	noise_calib_stim_RIGHT.wav	2	24	blb_dichoticlistening_ka-ta.mp3	ka	ta	1	left
6.6.1	mac	2023-06-27	02:33:22	0	0	60d35fa71e56e17e064c2c1e	2	1	DL_test	15	DL_test	22			0		ka	0	981	6	6	antiphase_hc_ois.wav	3	6	6	noise_calib_stim_RIGHT.wav	2	32	blb_dichoticlistening_ta-da.mp3	ta	da	1	other
6.6.1	mac	2023-06-27	02:33:22	0	0	60d35fa71e56e17e064c2c1e	2	1	DL_test	15	DL_test	23			0		ga	1	847	6	6	antiphase_hc_ois.wav	3	6	6	noise_calib_stim_RIGHT.wav	2	18	blb_dichoticlistening_ga-ta.mp3	ga	ta	1	left
6.6.1	mac	2023-06-27	02:33:22	0	0	60d35fa71e56e17e064c2c1e	2	1	DL_test	15	DL_test	24			0		ga	0	862	6	6	antiphase_hc_ois.wav	3	6	6	noise_calib_stim_RIGHT.wav	2	26	blb_dichoticlistening_pa-da.mp3	pa	da	1	other
6.6.1	mac	2023-06-27	02:33:22	0	0	60d35fa71e56e17e064c2c1e	2	1	DL_test	15	DL_test	25			0		ga	1	1110	6	6	antiphase_hc_ois.wav	3	6	6	noise_calib_stim_RIGHT.wav	2	21	blb_dichoticlistening_ka-ga.mp3	ka	ga	1	right
6.6.1	mac	2023-06-27	02:33:22	0	0	60d35fa71e56e17e064c2c1e	2	1	DL_test	15	DL_test	26			0		ga	1	1225	6	6	antiphase_hc_ois.wav	3	6	6	noise_calib_stim_RIGHT.wav	2	15	blb_dichoticlistening_ga-ga.mp3	ga	ga	0	left
6.6.1	mac	2023-06-27	02:33:22	0	0	60d35fa71e56e17e064c2c1e	2	1	DL_test	15	DL_test	27			0		ga	1	1040	6	6	antiphase_hc_ois.wav	3	6	6	noise_calib_stim_RIGHT.wav	2	16	blb_dichoticlistening_ga-ka.mp3	ga	ka	1	left
6.6.1	mac	2023-06-27	02:33:22	0	0	60d35fa71e56e17e064c2c1e	2	1	DL_test	15	DL_test	28			0		ba	1	1455	6	6	antiphase_hc_ois.wav	3	6	6	noise_calib_stim_RIGHT.wav	2	25	blb_dichoticlistening_pa-ba.mp3	pa	ba	1	right
6.6.1	mac	2023-06-27	02:33:22	0	0	60d35fa71e56e17e064c2c1e	2	1	DL_test	15	DL_test	29			0		ba	1	571	6	6	antiphase_hc_ois.wav	3	6	6	noise_calib_stim_RIGHT.wav	2	13	blb_dichoticlistening_ga-ba.mp3	ga	ba	1	right
6.6.1	mac	2023-06-27	02:33:22	0	0	60d35fa71e56e17e064c2c1e	2	1	DL_test	15	DL_test	30			0		ba	1	802	6	6	antiphase_hc_ois.wav	3	6	6	noise_calib_stim_RIGHT.wav	2	3	blb_dichoticlistening_ba-ga.mp3	ba	ga	1	left
6.6.1	mac	2023-06-27	02:33:22	0	0	60d35fa71e56e17e064c2c1e	2	1	DL_test	15	DL_test	31			0		ka	0	968	6	6	antiphase_hc_ois.wav	3	6	6	noise_calib_stim_RIGHT.wav	2	36	blb_dichoticlistening_ta-ta.mp3	ta	ta	0	other
6.6.1	mac	2023-06-27	02:33:22	0	0	60d35fa71e56e17e064c2c1e	2	1	DL_test	15	DL_test	32			0		ga	0	750	6	6	antiphase_hc_ois.wav	3	6	6	noise_calib_stim_RIGHT.wav	2	10	blb_dichoticlistening_da-ka.mp3	da	ka	1	other
6.6.1	mac	2023-06-27	02:33:22	0	0	60d35fa71e56e17e064c2c1e	2	1	DL_test	15	DL_test	33			0		ka	1	1165	6	6	antiphase_hc_ois.wav	3	6	6	noise_calib_stim_RIGHT.wav	2	23	blb_dichoticlistening_ka-pa.mp3	ka	pa	1	left
6.6.1	mac	2023-06-27	02:33:22	0	0	60d35fa71e56e17e064c2c1e	2	1	DL_test	15	DL_test	34			0		da	1	1346	6	6	antiphase_hc_ois.wav	3	6	6	noise_calib_stim_RIGHT.wav	2	8	blb_dichoticlistening_da-da.mp3	da	da	0	left
6.6.1	mac	2023-06-27	02:33:22	0	0	60d35fa71e56e17e064c2c1e	2	1	DL_test	15	DL_test	35			0		da	1	995	6	6	antiphase_hc_ois.wav	3	6	6	noise_calib_stim_RIGHT.wav	2	11	blb_dichoticlistening_da-pa.mp3	da	pa	1	left
6.6.1	mac	2023-06-27	02:33:22	0	0	60d35fa71e56e17e064c2c1e	2	1	DL_test	15	DL_test	36			0		ba	1	1077	6	6	antiphase_hc_ois.wav	3	6	6	noise_calib_stim_RIGHT.wav	2	19	blb_dichoticlistening_ka-ba.mp3	ka	ba	1	right
6.6.1	mac	2023-06-27	02:33:22	0	0	60d35fa71e56e17e064c2c1e	2	1	DL_test	16	DL_test	1			0		da	1	913	6	6	antiphase_hc_ois.wav	3	6	6	noise_calib_stim_RIGHT.wav	2	8	blb_dichoticlistening_da-da.mp3	da	da	0	left
6.6.1	mac	2023-06-27	02:33:22	0	0	60d35fa71e56e17e064c2c1e	2	1	DL_test	16	DL_test	2			0		ka	1	1112	6	6	antiphase_hc_ois.wav	3	6	6	noise_calib_stim_RIGHT.wav	2	24	blb_dichoticlistening_ka-ta.mp3	ka	ta	1	left
6.6.1	mac	2023-06-27	02:33:22	0	0	60d35fa71e56e17e064c2c1e	2	1	DL_test	16	DL_test	3			0		ga	1	760	6	6	antiphase_hc_ois.wav	3	6	6	noise_calib_stim_RIGHT.wav	2	33	blb_dichoticlistening_ta-ga.mp3	ta	ga	1	right
6.6.1	mac	2023-06-27	02:33:22	0	0	60d35fa71e56e17e064c2c1e	2	1	DL_test	16	DL_test	4			0		ka	1	976	6	6	antiphase_hc_ois.wav	3	6	6	noise_calib_stim_RIGHT.wav	2	22	blb_dichoticlistening_ka-ka.mp3	ka	ka	0	left
6.6.1	mac	2023-06-27	02:33:22	0	0	60d35fa71e56e17e064c2c1e	2	1	DL_test	16	DL_test	5			0		ba	1	1074	6	6	antiphase_hc_ois.wav	3	6	6	noise_calib_stim_RIGHT.wav	2	5	blb_dichoticlistening_ba-pa.mp3	ba	pa	1	left
6.6.1	mac	2023-06-27	02:33:22	0	0	60d35fa71e56e17e064c2c1e	2	1	DL_test	16	DL_test	6			0		ba	1	856	6	6	antiphase_hc_ois.wav	3	6	6	noise_calib_stim_RIGHT.wav	2	31	blb_dichoticlistening_ta-ba.mp3	ta	ba	1	right
6.6.1	mac	2023-06-27	02:33:22	0	0	60d35fa71e56e17e064c2c1e	2	1	DL_test	16	DL_test	7			0		ga	1	1055	6	6	antiphase_hc_ois.wav	3	6	6	noise_calib_stim_RIGHT.wav	2	21	blb_dichoticlistening_ka-ga.mp3	ka	ga	1	right
6.6.1	mac	2023-06-27	02:33:22	0	0	60d35fa71e56e17e064c2c1e	2	1	DL_test	16	DL_test	8			0		ka	1	1037	6	6	antiphase_hc_ois.wav	3	6	6	noise_calib_stim_RIGHT.wav	2	23	blb_dichoticlistening_ka-pa.mp3	ka	pa	1	left
6.6.1	mac	2023-06-27	02:33:22	0	0	60d35fa71e56e17e064c2c1e	2	1	DL_test	16	DL_test	9			0		ba	1	1469	6	6	antiphase_hc_ois.wav	3	6	6	noise_calib_stim_RIGHT.wav	2	4	blb_dichoticlistening_ba-ka.mp3	ba	ka	1	left
6.6.1	mac	2023-06-27	02:33:22	0	0	60d35fa71e56e17e064c2c1e	2	1	DL_test	16	DL_test	10			0		ga	1	850	6	6	antiphase_hc_ois.wav	3	6	6	noise_calib_stim_RIGHT.wav	2	14	blb_dichoticlistening_ga-da.mp3	ga	da	1	left
6.6.1	mac	2023-06-27	02:33:22	0	0	60d35fa71e56e17e064c2c1e	2	1	DL_test	16	DL_test	11			0		ga	0	1015	6	6	antiphase_hc_ois.wav	3	6	6	noise_calib_stim_RIGHT.wav	2	10	blb_dichoticlistening_da-ka.mp3	da	ka	1	other
6.6.1	mac	2023-06-27	02:33:22	0	0	60d35fa71e56e17e064c2c1e	2	1	DL_test	16	DL_test	12			0		ka	1	680	6	6	antiphase_hc_ois.wav	3	6	6	noise_calib_stim_RIGHT.wav	2	28	blb_dichoticlistening_pa-ka.mp3	pa	ka	1	right
6.6.1	mac	2023-06-27	02:33:22	0	0	60d35fa71e56e17e064c2c1e	2	1	DL_test	16	DL_test	13			0		da	1	1129	6	6	antiphase_hc_ois.wav	3	6	6	noise_calib_stim_RIGHT.wav	2	32	blb_dichoticlistening_ta-da.mp3	ta	da	1	right
6.6.1	mac	2023-06-27	02:33:22	0	0	60d35fa71e56e17e064c2c1e	2	1	DL_test	16	DL_test	14			0		pa	1	1811	6	6	antiphase_hc_ois.wav	3	6	6	noise_calib_stim_RIGHT.wav	2	29	blb_dichoticlistening_pa-pa.mp3	pa	pa	0	left
6.6.1	mac	2023-06-27	02:33:22	0	0	60d35fa71e56e17e064c2c1e	2	1	DL_test	16	DL_test	15			0		ga	0	808	6	6	antiphase_hc_ois.wav	3	6	6	noise_calib_stim_RIGHT.wav	2	20	blb_dichoticlistening_ka-da.mp3	ka	da	1	other
6.6.1	mac	2023-06-27	02:33:22	0	0	60d35fa71e56e17e064c2c1e	2	1	DL_test	16	DL_test	16			0		ka	1	1290	6	6	antiphase_hc_ois.wav	3	6	6	noise_calib_stim_RIGHT.wav	2	34	blb_dichoticlistening_ta-ka.mp3	ta	ka	1	right
6.6.1	mac	2023-06-27	02:33:22	0	0	60d35fa71e56e17e064c2c1e	2	1	DL_test	16	DL_test	17			0		ga	1	1056	6	6	antiphase_hc_ois.wav	3	6	6	noise_calib_stim_RIGHT.wav	2	18	blb_dichoticlistening_ga-ta.mp3	ga	ta	1	left
6.6.1	mac	2023-06-27	02:33:22	0	0	60d35fa71e56e17e064c2c1e	2	1	DL_test	16	DL_test	18			0		ga	1	1005	6	6	antiphase_hc_ois.wav	3	6	6	noise_calib_stim_RIGHT.wav	2	9	blb_dichoticlistening_da-ga.mp3	da	ga	1	right
6.6.1	mac	2023-06-27	02:33:22	0	0	60d35fa71e56e17e064c2c1e	2	1	DL_test	16	DL_test	19			0		pa	0	2436	6	6	antiphase_hc_ois.wav	3	6	6	noise_calib_stim_RIGHT.wav	2	3	blb_dichoticlistening_ba-ga.mp3	ba	ga	1	other
6.6.1	mac	2023-06-27	02:33:22	0	0	60d35fa71e56e17e064c2c1e	2	1	DL_test	16	DL_test	20			0		ka	0	1216	6	6	antiphase_hc_ois.wav	3	6	6	noise_calib_stim_RIGHT.wav	2	36	blb_dichoticlistening_ta-ta.mp3	ta	ta	0	other
6.6.1	mac	2023-06-27	02:33:22	0	0	60d35fa71e56e17e064c2c1e	2	1	DL_test	16	DL_test	21			0		ba	1	1498	6	6	antiphase_hc_ois.wav	3	6	6	noise_calib_stim_RIGHT.wav	2	25	blb_dichoticlistening_pa-ba.mp3	pa	ba	1	right
6.6.1	mac	2023-06-27	02:33:22	0	0	60d35fa71e56e17e064c2c1e	2	1	DL_test	16	DL_test	22			0		ba	1	563	6	6	antiphase_hc_ois.wav	3	6	6	noise_calib_stim_RIGHT.wav	2	2	blb_dichoticlistening_ba-da.mp3	ba	da	1	left
6.6.1	mac	2023-06-27	02:33:22	0	0	60d35fa71e56e17e064c2c1e	2	1	DL_test	16	DL_test	23			0		da	1	1162	6	6	antiphase_hc_ois.wav	3	6	6	noise_calib_stim_RIGHT.wav	2	26	blb_dichoticlistening_pa-da.mp3	pa	da	1	right
6.6.1	mac	2023-06-27	02:33:22	0	0	60d35fa71e56e17e064c2c1e	2	1	DL_test	16	DL_test	24			0		ga	1	443	6	6	antiphase_hc_ois.wav	3	6	6	noise_calib_stim_RIGHT.wav	2	15	blb_dichoticlistening_ga-ga.mp3	ga	ga	0	left
6.6.1	mac	2023-06-27	02:33:22	0	0	60d35fa71e56e17e064c2c1e	2	1	DL_test	16	DL_test	25			0		ga	1	476	6	6	antiphase_hc_ois.wav	3	6	6	noise_calib_stim_RIGHT.wav	2	16	blb_dichoticlistening_ga-ka.mp3	ga	ka	1	left
6.6.1	mac	2023-06-27	02:33:22	0	0	60d35fa71e56e17e064c2c1e	2	1	DL_test	16	DL_test	26			0		ba	1	1275	6	6	antiphase_hc_ois.wav	3	6	6	noise_calib_stim_RIGHT.wav	2	1	blb_dichoticlistening_ba-ba.mp3	ba	ba	0	left
6.6.1	mac	2023-06-27	02:33:22	0	0	60d35fa71e56e17e064c2c1e	2	1	DL_test	16	DL_test	27			0		ba	1	1123	6	6	antiphase_hc_ois.wav	3	6	6	noise_calib_stim_RIGHT.wav	2	6	blb_dichoticlistening_ba-ta.mp3	ba	ta	1	left
6.6.1	mac	2023-06-27	02:33:22	0	0	60d35fa71e56e17e064c2c1e	2	1	DL_test	16	DL_test	28			0		ga	1	1355	6	6	antiphase_hc_ois.wav	3	6	6	noise_calib_stim_RIGHT.wav	2	17	blb_dichoticlistening_ga-pa.mp3	ga	pa	1	left
6.6.1	mac	2023-06-27	02:33:22	0	0	60d35fa71e56e17e064c2c1e	2	1	DL_test	16	DL_test	29			0		ba	1	836	6	6	antiphase_hc_ois.wav	3	6	6	noise_calib_stim_RIGHT.wav	2	7	blb_dichoticlistening_da-ba.mp3	da	ba	1	right
6.6.1	mac	2023-06-27	02:33:22	0	0	60d35fa71e56e17e064c2c1e	2	1	DL_test	16	DL_test	30			0		da	1	936	6	6	antiphase_hc_ois.wav	3	6	6	noise_calib_stim_RIGHT.wav	2	12	blb_dichoticlistening_da-ta.mp3	da	ta	1	left
6.6.1	mac	2023-06-27	02:33:22	0	0	60d35fa71e56e17e064c2c1e	2	1	DL_test	16	DL_test	31			0		ta	1	1285	6	6	antiphase_hc_ois.wav	3	6	6	noise_calib_stim_RIGHT.wav	2	35	blb_dichoticlistening_ta-pa.mp3	ta	pa	1	left
6.6.1	mac	2023-06-27	02:33:22	0	0	60d35fa71e56e17e064c2c1e	2	1	DL_test	16	DL_test	32			0		ta	1	831	6	6	antiphase_hc_ois.wav	3	6	6	noise_calib_stim_RIGHT.wav	2	30	blb_dichoticlistening_pa-ta.mp3	pa	ta	1	right
6.6.1	mac	2023-06-27	02:33:22	0	0	60d35fa71e56e17e064c2c1e	2	1	DL_test	16	DL_test	33			0		ba	1	1347	6	6	antiphase_hc_ois.wav	3	6	6	noise_calib_stim_RIGHT.wav	2	13	blb_dichoticlistening_ga-ba.mp3	ga	ba	1	right
6.6.1	mac	2023-06-27	02:33:22	0	0	60d35fa71e56e17e064c2c1e	2	1	DL_test	16	DL_test	34			0		ga	1	1062	6	6	antiphase_hc_ois.wav	3	6	6	noise_calib_stim_RIGHT.wav	2	27	blb_dichoticlistening_pa-ga.mp3	pa	ga	1	right
6.6.1	mac	2023-06-27	02:33:22	0	0	60d35fa71e56e17e064c2c1e	2	1	DL_test	16	DL_test	35			0		ba	1	1111	6	6	antiphase_hc_ois.wav	3	6	6	noise_calib_stim_RIGHT.wav	2	19	blb_dichoticlistening_ka-ba.mp3	ka	ba	1	right
6.6.1	mac	2023-06-27	02:33:22	0	0	60d35fa71e56e17e064c2c1e	2	1	DL_test	16	DL_test	36			0		da	1	1059	6	6	antiphase_hc_ois.wav	3	6	6	noise_calib_stim_RIGHT.wav	2	11	blb_dichoticlistening_da-pa.mp3	da	pa	1	left
6.6.1	mac	2023-06-27	02:33:22	02:44:45	680235	60d35fa71e56e17e064c2c1e	2	1	practice_z	22	practice_z	1	stimuli_distractor_diamondtriangles.svg	stimuli_distractor_diamondtriangles.svg	13	no	44	0	1656	6	6	antiphase_hc_ois.wav	3	6	6	noise_calib_stim_RIGHT.wav	2	11	blb_dichoticlistening_da-pa.mp3	da	pa	1	left
6.6.1	mac	2023-06-27	02:33:22	02:44:45	680235	60d35fa71e56e17e064c2c1e	2	1	practice_z	22	advance_on_keypress_ZEE	2	stimuli_distractor_diamondtriangles.svg	stimuli_distractor_diamondtriangles.svg	13	no	57	0	1629	6	6	antiphase_hc_ois.wav	3	6	6	noise_calib_stim_RIGHT.wav	2	11	blb_dichoticlistening_da-pa.mp3	da	pa	1	left
6.6.1	mac	2023-06-27	02:33:22	02:44:50	685498	60d35fa71e56e17e064c2c1e	2	1	practice_z	22	practice_z	3	stimuli_distractor_trianglediamonds.svg	stimuli_distractor_trianglediamonds.svg	15	no	0	1	2000	6	6	antiphase_hc_ois.wav	3	6	6	noise_calib_stim_RIGHT.wav	2	11	blb_dichoticlistening_da-pa.mp3	da	pa	1	left
6.6.1	mac	2023-06-27	02:33:22	02:44:50	685498	60d35fa71e56e17e064c2c1e	2	1	practice_z	22	advance_on_keypress_ZEE	4	stimuli_distractor_trianglediamonds.svg	stimuli_distractor_trianglediamonds.svg	15	no	57	0	1147	6	6	antiphase_hc_ois.wav	3	6	6	noise_calib_stim_RIGHT.wav	2	11	blb_dichoticlistening_da-pa.mp3	da	pa	1	left
6.6.1	mac	2023-06-27	02:33:22	02:44:54	690009	60d35fa71e56e17e064c2c1e	2	1	practice_z	22	practice_z	5	stimuli_distractor_trianglediamonds.svg	stimuli_target_diamondrectangles.svg	12	yes	44	1	1722	6	6	antiphase_hc_ois.wav	3	6	6	noise_calib_stim_RIGHT.wav	2	11	blb_dichoticlistening_da-pa.mp3	da	pa	1	left
6.6.1	mac	2023-06-27	02:33:22	02:44:54	690009	60d35fa71e56e17e064c2c1e	2	1	practice_z	22	advance_on_keypress_ZEE	6	stimuli_distractor_trianglediamonds.svg	stimuli_target_diamondrectangles.svg	12	yes	57	0	812	6	6	antiphase_hc_ois.wav	3	6	6	noise_calib_stim_RIGHT.wav	2	11	blb_dichoticlistening_da-pa.mp3	da	pa	1	left
6.6.1	mac	2023-06-27	02:33:22	02:44:59	694088	60d35fa71e56e17e064c2c1e	2	1	practice_z	22	practice_z	7	stimuli_target_rectanglediamonds.svg	stimuli_distractor_diamondtriangles.svg	1	yes	44	1	1629	6	6	antiphase_hc_ois.wav	3	6	6	noise_calib_stim_RIGHT.wav	2	11	blb_dichoticlistening_da-pa.mp3	da	pa	1	left
6.6.1	mac	2023-06-27	02:33:22	02:44:59	694088	60d35fa71e56e17e064c2c1e	2	1	practice_z	22	advance_on_keypress_ZEE	8	stimuli_target_rectanglediamonds.svg	stimuli_distractor_diamondtriangles.svg	1	yes	57	0	601	6	6	antiphase_hc_ois.wav	3	6	6	noise_calib_stim_RIGHT.wav	2	11	blb_dichoticlistening_da-pa.mp3	da	pa	1	left
6.6.1	mac	2023-06-27	02:33:22	02:45:03	698328	60d35fa71e56e17e064c2c1e	2	1	practice_z	22	practice_z	9	stimuli_target_diamondsquares.svg	stimuli_distractor_diamondtriangles.svg	3	yes	0	0	2000	6	6	antiphase_hc_ois.wav	3	6	6	noise_calib_stim_RIGHT.wav	2	11	blb_dichoticlistening_da-pa.mp3	da	pa	1	left
6.6.1	mac	2023-06-27	02:33:22	02:45:03	698328	60d35fa71e56e17e064c2c1e	2	1	practice_z	22	advance_on_keypress_ZEE	10	stimuli_target_diamondsquares.svg	stimuli_distractor_diamondtriangles.svg	3	yes	57	0	582	6	6	antiphase_hc_ois.wav	3	6	6	noise_calib_stim_RIGHT.wav	2	11	blb_dichoticlistening_da-pa.mp3	da	pa	1	left
6.6.1	mac	2023-06-27	02:33:22	02:45:06	701779	60d35fa71e56e17e064c2c1e	2	1	practice_z	22	practice_z	11	stimuli_target_squarediamonds.svg	stimuli_distractor_diamondtriangles.svg	2	yes	44	1	1229	6	6	antiphase_hc_ois.wav	3	6	6	noise_calib_stim_RIGHT.wav	2	11	blb_dichoticlistening_da-pa.mp3	da	pa	1	left
6.6.1	mac	2023-06-27	02:33:22	02:45:06	701779	60d35fa71e56e17e064c2c1e	2	1	practice_z	22	advance_on_keypress_ZEE	12	stimuli_target_squarediamonds.svg	stimuli_distractor_diamondtriangles.svg	2	yes	57	0	556	6	6	antiphase_hc_ois.wav	3	6	6	noise_calib_stim_RIGHT.wav	2	11	blb_dichoticlistening_da-pa.mp3	da	pa	1	left
6.6.1	mac	2023-06-27	02:33:22	02:45:10	705337	60d35fa71e56e17e064c2c1e	2	1	practice_z	22	practice_z	13	stimuli_distractor_diamondtriangles.svg	stimuli_target_diamondrectangles.svg	8	yes	44	1	1384	6	6	antiphase_hc_ois.wav	3	6	6	noise_calib_stim_RIGHT.wav	2	11	blb_dichoticlistening_da-pa.mp3	da	pa	1	left
6.6.1	mac	2023-06-27	02:33:22	02:45:10	705337	60d35fa71e56e17e064c2c1e	2	1	practice_z	22	advance_on_keypress_ZEE	14	stimuli_distractor_diamondtriangles.svg	stimuli_target_diamondrectangles.svg	8	yes	57	0	560	6	6	antiphase_hc_ois.wav	3	6	6	noise_calib_stim_RIGHT.wav	2	11	blb_dichoticlistening_da-pa.mp3	da	pa	1	left
6.6.1	mac	2023-06-27	02:33:22	02:45:14	709219	60d35fa71e56e17e064c2c1e	2	1	practice_z	22	practice_z	15	stimuli_distractor_trianglediamonds.svg	stimuli_target_squarediamonds.svg	11	yes	44	1	1695	6	6	antiphase_hc_ois.wav	3	6	6	noise_calib_stim_RIGHT.wav	2	11	blb_dichoticlistening_da-pa.mp3	da	pa	1	left
6.6.1	mac	2023-06-27	02:33:22	02:45:14	709219	60d35fa71e56e17e064c2c1e	2	1	practice_z	22	advance_on_keypress_ZEE	16	stimuli_distractor_trianglediamonds.svg	stimuli_target_squarediamonds.svg	11	yes	57	0	401	6	6	antiphase_hc_ois.wav	3	6	6	noise_calib_stim_RIGHT.wav	2	11	blb_dichoticlistening_da-pa.mp3	da	pa	1	left
6.6.1	mac	2023-06-27	02:33:22	02:45:17	712582	60d35fa71e56e17e064c2c1e	2	1	practice_z	22	practice_z	17	stimuli_target_rectanglediamonds.svg	stimuli_distractor_trianglediamonds.svg	4	yes	44	1	1338	6	6	antiphase_hc_ois.wav	3	6	6	noise_calib_stim_RIGHT.wav	2	11	blb_dichoticlistening_da-pa.mp3	da	pa	1	left
6.6.1	mac	2023-06-27	02:33:22	02:45:17	712582	60d35fa71e56e17e064c2c1e	2	1	practice_z	22	advance_on_keypress_ZEE	18	stimuli_target_rectanglediamonds.svg	stimuli_distractor_trianglediamonds.svg	4	yes	57	0	481	6	6	antiphase_hc_ois.wav	3	6	6	noise_calib_stim_RIGHT.wav	2	11	blb_dichoticlistening_da-pa.mp3	da	pa	1	left
6.6.1	mac	2023-06-27	02:33:22	02:45:21	716160	60d35fa71e56e17e064c2c1e	2	1	practice_z	22	practice_z	19	stimuli_distractor_diamondtriangles.svg	stimuli_distractor_trianglediamonds.svg	14	no	44	0	1462	6	6	antiphase_hc_ois.wav	3	6	6	noise_calib_stim_RIGHT.wav	2	11	blb_dichoticlistening_da-pa.mp3	da	pa	1	left
6.6.1	mac	2023-06-27	02:33:22	02:45:21	716160	60d35fa71e56e17e064c2c1e	2	1	practice_z	22	advance_on_keypress_ZEE	20	stimuli_distractor_diamondtriangles.svg	stimuli_distractor_trianglediamonds.svg	14	no	57	0	1352	6	6	antiphase_hc_ois.wav	3	6	6	noise_calib_stim_RIGHT.wav	2	11	blb_dichoticlistening_da-pa.mp3	da	pa	1	left
6.6.1	mac	2023-06-27	02:33:22	02:45:26	721133	60d35fa71e56e17e064c2c1e	2	1	practice_z	22	practice_z	21	stimuli_distractor_trianglediamonds.svg	stimuli_target_rectanglediamonds.svg	10	yes	0	0	2000	6	6	antiphase_hc_ois.wav	3	6	6	noise_calib_stim_RIGHT.wav	2	11	blb_dichoticlistening_da-pa.mp3	da	pa	1	left
6.6.1	mac	2023-06-27	02:33:22	02:45:26	721133	60d35fa71e56e17e064c2c1e	2	1	practice_z	22	advance_on_keypress_ZEE	22	stimuli_distractor_trianglediamonds.svg	stimuli_target_rectanglediamonds.svg	10	yes	57	0	3173	6	6	antiphase_hc_ois.wav	3	6	6	noise_calib_stim_RIGHT.wav	2	11	blb_dichoticlistening_da-pa.mp3	da	pa	1	left
6.6.1	mac	2023-06-27	02:33:22	02:45:31	726974	60d35fa71e56e17e064c2c1e	2	1	practice_z	22	practice_z	23	stimuli_distractor_diamondtriangles.svg	stimuli_target_rectangletriangles.svg	7	yes	44	1	1033	6	6	antiphase_hc_ois.wav	3	6	6	noise_calib_stim_RIGHT.wav	2	11	blb_dichoticlistening_da-pa.mp3	da	pa	1	left
6.6.1	mac	2023-06-27	02:33:22	02:45:31	726974	60d35fa71e56e17e064c2c1e	2	1	practice_z	22	advance_on_keypress_ZEE	24	stimuli_distractor_diamondtriangles.svg	stimuli_target_rectangletriangles.svg	7	yes	57	0	648	6	6	antiphase_hc_ois.wav	3	6	6	noise_calib_stim_RIGHT.wav	2	11	blb_dichoticlistening_da-pa.mp3	da	pa	1	left
6.6.1	mac	2023-06-27	02:33:22	02:45:36	731165	60d35fa71e56e17e064c2c1e	2	1	practice_z	22	practice_z	25	stimuli_distractor_trianglediamonds.svg	stimuli_distractor_diamondtriangles.svg	16	no	44	0	1903	6	6	antiphase_hc_ois.wav	3	6	6	noise_calib_stim_RIGHT.wav	2	11	blb_dichoticlistening_da-pa.mp3	da	pa	1	left
6.6.1	mac	2023-06-27	02:33:22	02:45:36	731165	60d35fa71e56e17e064c2c1e	2	1	practice_z	22	advance_on_keypress_ZEE	26	stimuli_distractor_trianglediamonds.svg	stimuli_distractor_diamondtriangles.svg	16	no	57	0	773	6	6	antiphase_hc_ois.wav	3	6	6	noise_calib_stim_RIGHT.wav	2	11	blb_dichoticlistening_da-pa.mp3	da	pa	1	left
6.6.1	mac	2023-06-27	02:33:22	02:45:39	734668	60d35fa71e56e17e064c2c1e	2	1	practice_z	22	practice_z	27	stimuli_target_diamondsquares.svg	stimuli_distractor_trianglediamonds.svg	6	yes	44	1	1102	6	6	antiphase_hc_ois.wav	3	6	6	noise_calib_stim_RIGHT.wav	2	11	blb_dichoticlistening_da-pa.mp3	da	pa	1	left
6.6.1	mac	2023-06-27	02:33:22	02:45:39	734668	60d35fa71e56e17e064c2c1e	2	1	practice_z	22	advance_on_keypress_ZEE	28	stimuli_target_diamondsquares.svg	stimuli_distractor_trianglediamonds.svg	6	yes	57	0	403	6	6	antiphase_hc_ois.wav	3	6	6	noise_calib_stim_RIGHT.wav	2	11	blb_dichoticlistening_da-pa.mp3	da	pa	1	left
6.6.1	mac	2023-06-27	02:33:22	02:45:42	737867	60d35fa71e56e17e064c2c1e	2	1	practice_z	22	practice_z	29	stimuli_distractor_diamondtriangles.svg	stimuli_target_trianglerectangles.svg	9	yes	44	1	1164	6	6	antiphase_hc_ois.wav	3	6	6	noise_calib_stim_RIGHT.wav	2	11	blb_dichoticlistening_da-pa.mp3	da	pa	1	left
6.6.1	mac	2023-06-27	02:33:22	02:45:42	737867	60d35fa71e56e17e064c2c1e	2	1	practice_z	22	advance_on_keypress_ZEE	30	stimuli_distractor_diamondtriangles.svg	stimuli_target_trianglerectangles.svg	9	yes	57	0	349	6	6	antiphase_hc_ois.wav	3	6	6	noise_calib_stim_RIGHT.wav	2	11	blb_dichoticlistening_da-pa.mp3	da	pa	1	left
6.6.1	mac	2023-06-27	02:33:22	02:45:46	741638	60d35fa71e56e17e064c2c1e	2	1	practice_z	22	practice_z	31	stimuli_target_squarediamonds.svg	stimuli_distractor_trianglediamonds.svg	5	yes	44	1	1782	6	6	antiphase_hc_ois.wav	3	6	6	noise_calib_stim_RIGHT.wav	2	11	blb_dichoticlistening_da-pa.mp3	da	pa	1	left
6.6.1	mac	2023-06-27	02:33:22	02:45:46	741638	60d35fa71e56e17e064c2c1e	2	1	practice_z	22	advance_on_keypress_ZEE	32	stimuli_target_squarediamonds.svg	stimuli_distractor_trianglediamonds.svg	5	yes	57	0	399	6	6	antiphase_hc_ois.wav	3	6	6	noise_calib_stim_RIGHT.wav	2	11	blb_dichoticlistening_da-pa.mp3	da	pa	1	left
6.6.1	mac	2023-06-27	02:33:22	02:45:53	748978	60d35fa71e56e17e064c2c1e	2	1	main_z	24	main_z	1	stimuli_target_trianglerectangles.svg	stimuli_distractor_diamondtriangles.svg	21	yes	44	1	896	6	6	antiphase_hc_ois.wav	3	6	6	noise_calib_stim_RIGHT.wav	2	11	blb_dichoticlistening_da-pa.mp3	da	pa	1	left
6.6.1	mac	2023-06-27	02:33:22	02:45:53	748978	60d35fa71e56e17e064c2c1e	2	1	main_z	24	advance_on_keypress_ZEE	2	stimuli_target_trianglerectangles.svg	stimuli_distractor_diamondtriangles.svg	21	yes	57	0	1898	6	6	antiphase_hc_ois.wav	3	6	6	noise_calib_stim_RIGHT.wav	2	11	blb_dichoticlistening_da-pa.mp3	da	pa	1	left
6.6.1	mac	2023-06-27	02:33:22	02:45:57	752540	60d35fa71e56e17e064c2c1e	2	1	main_z	24	main_z	3	stimuli_target_diamondrectangles.svg	stimuli_distractor_diamondtriangles.svg	23	yes	44	1	1022	6	6	antiphase_hc_ois.wav	3	6	6	noise_calib_stim_RIGHT.wav	2	11	blb_dichoticlistening_da-pa.mp3	da	pa	1	left
6.6.1	mac	2023-06-27	02:33:22	02:45:57	752540	60d35fa71e56e17e064c2c1e	2	1	main_z	24	advance_on_keypress_ZEE	4	stimuli_target_diamondrectangles.svg	stimuli_distractor_diamondtriangles.svg	23	yes	57	0	817	6	6	antiphase_hc_ois.wav	3	6	6	noise_calib_stim_RIGHT.wav	2	11	blb_dichoticlistening_da-pa.mp3	da	pa	1	left
6.6.1	mac	2023-06-27	02:33:22	02:46:00	755986	60d35fa71e56e17e064c2c1e	2	1	main_z	24	main_z	5	stimuli_target_trianglerectangles.svg	stimuli_distractor_trianglediamonds.svg	17	yes	0	0	2000	6	6	antiphase_hc_ois.wav	3	6	6	noise_calib_stim_RIGHT.wav	2	11	blb_dichoticlistening_da-pa.mp3	da	pa	1	left
6.6.1	mac	2023-06-27	02:33:22	02:46:00	755986	60d35fa71e56e17e064c2c1e	2	1	main_z	24	advance_on_keypress_ZEE	6	stimuli_target_trianglerectangles.svg	stimuli_distractor_trianglediamonds.svg	17	yes	57	0	938	6	6	antiphase_hc_ois.wav	3	6	6	noise_calib_stim_RIGHT.wav	2	11	blb_dichoticlistening_da-pa.mp3	da	pa	1	left
6.6.1	mac	2023-06-27	02:33:22	02:46:03	758984	60d35fa71e56e17e064c2c1e	2	1	main_z	24	main_z	7	stimuli_distractor_trianglediamonds.svg	stimuli_distractor_diamondtriangles.svg	35	no	44	0	1427	6	6	antiphase_hc_ois.wav	3	6	6	noise_calib_stim_RIGHT.wav	2	11	blb_dichoticlistening_da-pa.mp3	da	pa	1	left
6.6.1	mac	2023-06-27	02:33:22	02:46:03	758984	60d35fa71e56e17e064c2c1e	2	1	main_z	24	advance_on_keypress_ZEE	8	stimuli_distractor_trianglediamonds.svg	stimuli_distractor_diamondtriangles.svg	35	no	57	0	1800	6	6	antiphase_hc_ois.wav	3	6	6	noise_calib_stim_RIGHT.wav	2	11	blb_dichoticlistening_da-pa.mp3	da	pa	1	left
6.6.1	mac	2023-06-27	02:33:22	02:46:07	762521	60d35fa71e56e17e064c2c1e	2	1	main_z	24	main_z	9	stimuli_target_diamondsquares.svg	stimuli_distractor_trianglediamonds.svg	20	yes	44	1	1111	6	6	antiphase_hc_ois.wav	3	6	6	noise_calib_stim_RIGHT.wav	2	11	blb_dichoticlistening_da-pa.mp3	da	pa	1	left
6.6.1	mac	2023-06-27	02:33:22	02:46:07	762521	60d35fa71e56e17e064c2c1e	2	1	main_z	24	advance_on_keypress_ZEE	10	stimuli_target_diamondsquares.svg	stimuli_distractor_trianglediamonds.svg	20	yes	57	0	710	6	6	antiphase_hc_ois.wav	3	6	6	noise_calib_stim_RIGHT.wav	2	11	blb_dichoticlistening_da-pa.mp3	da	pa	1	left
6.6.1	mac	2023-06-27	02:33:22	02:46:10	765846	60d35fa71e56e17e064c2c1e	2	1	main_z	24	main_z	11	stimuli_distractor_diamondtriangles.svg	stimuli_distractor_trianglediamonds.svg	38	no	0	1	2000	6	6	antiphase_hc_ois.wav	3	6	6	noise_calib_stim_RIGHT.wav	2	11	blb_dichoticlistening_da-pa.mp3	da	pa	1	left
6.6.1	mac	2023-06-27	02:33:22	02:46:10	765846	60d35fa71e56e17e064c2c1e	2	1	main_z	24	advance_on_keypress_ZEE	12	stimuli_distractor_diamondtriangles.svg	stimuli_distractor_trianglediamonds.svg	38	no	57	0	622	6	6	antiphase_hc_ois.wav	3	6	6	noise_calib_stim_RIGHT.wav	2	11	blb_dichoticlistening_da-pa.mp3	da	pa	1	left
6.6.1	mac	2023-06-27	02:33:22	02:46:12	768037	60d35fa71e56e17e064c2c1e	2	1	main_z	24	main_z	13	stimuli_distractor_diamondtriangles.svg	stimuli_target_rectanglediamonds.svg	14	yes	44	1	937	6	6	antiphase_hc_ois.wav	3	6	6	noise_calib_stim_RIGHT.wav	2	11	blb_dichoticlistening_da-pa.mp3	da	pa	1	left
6.6.1	mac	2023-06-27	02:33:22	02:46:12	768037	60d35fa71e56e17e064c2c1e	2	1	main_z	24	advance_on_keypress_ZEE	14	stimuli_distractor_diamondtriangles.svg	stimuli_target_rectanglediamonds.svg	14	yes	57	0	1343	6	6	antiphase_hc_ois.wav	3	6	6	noise_calib_stim_RIGHT.wav	2	11	blb_dichoticlistening_da-pa.mp3	da	pa	1	left
6.6.1	mac	2023-06-27	02:33:22	02:46:16	771156	60d35fa71e56e17e064c2c1e	2	1	main_z	24	main_z	15	stimuli_target_diamondrectangles.svg	stimuli_distractor_trianglediamonds.svg	19	yes	44	1	1154	6	6	antiphase_hc_ois.wav	3	6	6	noise_calib_stim_RIGHT.wav	2	11	blb_dichoticlistening_da-pa.mp3	da	pa	1	left
6.6.1	mac	2023-06-27	02:33:22	02:46:16	771156	60d35fa71e56e17e064c2c1e	2	1	main_z	24	advance_on_keypress_ZEE	16	stimuli_target_diamondrectangles.svg	stimuli_distractor_trianglediamonds.svg	19	yes	57	0	796	6	6	antiphase_hc_ois.wav	3	6	6	noise_calib_stim_RIGHT.wav	2	11	blb_dichoticlistening_da-pa.mp3	da	pa	1	left
6.6.1	mac	2023-06-27	02:33:22	02:46:19	774586	60d35fa71e56e17e064c2c1e	2	1	main_z	24	main_z	17	stimuli_distractor_trianglediamonds.svg	stimuli_distractor_diamondtriangles.svg	36	no	0	1	2000	6	6	antiphase_hc_ois.wav	3	6	6	noise_calib_stim_RIGHT.wav	2	11	blb_dichoticlistening_da-pa.mp3	da	pa	1	left
6.6.1	mac	2023-06-27	02:33:22	02:46:19	774586	60d35fa71e56e17e064c2c1e	2	1	main_z	24	advance_on_keypress_ZEE	18	stimuli_distractor_trianglediamonds.svg	stimuli_distractor_diamondtriangles.svg	36	no	57	0	674	6	6	antiphase_hc_ois.wav	3	6	6	noise_calib_stim_RIGHT.wav	2	11	blb_dichoticlistening_da-pa.mp3	da	pa	1	left
6.6.1	mac	2023-06-27	02:33:22	02:46:22	777233	60d35fa71e56e17e064c2c1e	2	1	main_z	24	main_z	19	stimuli_distractor_diamondtriangles.svg	stimuli_target_squarediamonds.svg	16	yes	44	1	1342	6	6	antiphase_hc_ois.wav	3	6	6	noise_calib_stim_RIGHT.wav	2	11	blb_dichoticlistening_da-pa.mp3	da	pa	1	left
6.6.1	mac	2023-06-27	02:33:22	02:46:22	777233	60d35fa71e56e17e064c2c1e	2	1	main_z	24	advance_on_keypress_ZEE	20	stimuli_distractor_diamondtriangles.svg	stimuli_target_squarediamonds.svg	16	yes	57	0	1286	6	6	antiphase_hc_ois.wav	3	6	6	noise_calib_stim_RIGHT.wav	2	11	blb_dichoticlistening_da-pa.mp3	da	pa	1	left
6.6.1	mac	2023-06-27	02:33:22	02:46:25	780623	60d35fa71e56e17e064c2c1e	2	1	main_z	24	main_z	21	stimuli_distractor_trianglediamonds.svg	stimuli_target_squaretriangles.svg	11	yes	44	1	1477	6	6	antiphase_hc_ois.wav	3	6	6	noise_calib_stim_RIGHT.wav	2	11	blb_dichoticlistening_da-pa.mp3	da	pa	1	left
6.6.1	mac	2023-06-27	02:33:22	02:46:25	780623	60d35fa71e56e17e064c2c1e	2	1	main_z	24	advance_on_keypress_ZEE	22	stimuli_distractor_trianglediamonds.svg	stimuli_target_squaretriangles.svg	11	yes	57	0	875	6	6	antiphase_hc_ois.wav	3	6	6	noise_calib_stim_RIGHT.wav	2	11	blb_dichoticlistening_da-pa.mp3	da	pa	1	left
6.6.1	mac	2023-06-27	02:33:22	02:46:28	783815	60d35fa71e56e17e064c2c1e	2	1	main_z	24	main_z	23	stimuli_target_squaretriangles.svg	stimuli_distractor_trianglediamonds.svg	3	yes	44	1	1700	6	6	antiphase_hc_ois.wav	3	6	6	noise_calib_stim_RIGHT.wav	2	11	blb_dichoticlistening_da-pa.mp3	da	pa	1	left
6.6.1	mac	2023-06-27	02:33:22	02:46:28	783815	60d35fa71e56e17e064c2c1e	2	1	main_z	24	advance_on_keypress_ZEE	24	stimuli_target_squaretriangles.svg	stimuli_distractor_trianglediamonds.svg	3	yes	57	0	944	6	6	antiphase_hc_ois.wav	3	6	6	noise_calib_stim_RIGHT.wav	2	11	blb_dichoticlistening_da-pa.mp3	da	pa	1	left
6.6.1	mac	2023-06-27	02:33:22	02:46:32	787383	60d35fa71e56e17e064c2c1e	2	1	main_z	24	main_z	25	stimuli_distractor_trianglediamonds.svg	stimuli_target_trianglerectangles.svg	25	yes	0	0	2000	6	6	antiphase_hc_ois.wav	3	6	6	noise_calib_stim_RIGHT.wav	2	11	blb_dichoticlistening_da-pa.mp3	da	pa	1	left
6.6.1	mac	2023-06-27	02:33:22	02:46:32	787383	60d35fa71e56e17e064c2c1e	2	1	main_z	24	advance_on_keypress_ZEE	26	stimuli_distractor_trianglediamonds.svg	stimuli_target_trianglerectangles.svg	25	yes	57	0	801	6	6	antiphase_hc_ois.wav	3	6	6	noise_calib_stim_RIGHT.wav	2	11	blb_dichoticlistening_da-pa.mp3	da	pa	1	left
6.6.1	mac	2023-06-27	02:33:22	02:46:35	790262	60d35fa71e56e17e064c2c1e	2	1	main_z	24	main_z	27	stimuli_distractor_diamondtriangles.svg	stimuli_target_squaretriangles.svg	15	yes	44	1	1441	6	6	antiphase_hc_ois.wav	3	6	6	noise_calib_stim_RIGHT.wav	2	11	blb_dichoticlistening_da-pa.mp3	da	pa	1	left
6.6.1	mac	2023-06-27	02:33:22	02:46:35	790262	60d35fa71e56e17e064c2c1e	2	1	main_z	24	advance_on_keypress_ZEE	28	stimuli_distractor_diamondtriangles.svg	stimuli_target_squaretriangles.svg	15	yes	57	0	1579	6	6	antiphase_hc_ois.wav	3	6	6	noise_calib_stim_RIGHT.wav	2	11	blb_dichoticlistening_da-pa.mp3	da	pa	1	left
6.6.1	mac	2023-06-27	02:33:22	02:46:38	793922	60d35fa71e56e17e064c2c1e	2	1	main_z	24	main_z	29	stimuli_distractor_diamondtriangles.svg	stimuli_target_trianglesquares.svg	30	yes	44	1	1447	6	6	antiphase_hc_ois.wav	3	6	6	noise_calib_stim_RIGHT.wav	2	11	blb_dichoticlistening_da-pa.mp3	da	pa	1	left
6.6.1	mac	2023-06-27	02:33:22	02:46:38	793922	60d35fa71e56e17e064c2c1e	2	1	main_z	24	advance_on_keypress_ZEE	30	stimuli_distractor_diamondtriangles.svg	stimuli_target_trianglesquares.svg	30	yes	57	0	1021	6	6	antiphase_hc_ois.wav	3	6	6	noise_calib_stim_RIGHT.wav	2	11	blb_dichoticlistening_da-pa.mp3	da	pa	1	left
6.6.1	mac	2023-06-27	02:33:22	02:46:41	796702	60d35fa71e56e17e064c2c1e	2	1	main_z	24	main_z	31	stimuli_distractor_trianglediamonds.svg	stimuli_target_rectanglediamonds.svg	10	yes	44	1	1124	6	6	antiphase_hc_ois.wav	3	6	6	noise_calib_stim_RIGHT.wav	2	11	blb_dichoticlistening_da-pa.mp3	da	pa	1	left
6.6.1	mac	2023-06-27	02:33:22	02:46:41	796702	60d35fa71e56e17e064c2c1e	2	1	main_z	24	advance_on_keypress_ZEE	32	stimuli_distractor_trianglediamonds.svg	stimuli_target_rectanglediamonds.svg	10	yes	57	0	570	6	6	antiphase_hc_ois.wav	3	6	6	noise_calib_stim_RIGHT.wav	2	11	blb_dichoticlistening_da-pa.mp3	da	pa	1	left
6.6.1	mac	2023-06-27	02:33:22	02:46:44	799896	60d35fa71e56e17e064c2c1e	2	1	main_z	24	main_z	33	stimuli_target_diamondsquares.svg	stimuli_distractor_diamondtriangles.svg	24	yes	0	0	2000	6	6	antiphase_hc_ois.wav	3	6	6	noise_calib_stim_RIGHT.wav	2	11	blb_dichoticlistening_da-pa.mp3	da	pa	1	left
6.6.1	mac	2023-06-27	02:33:22	02:46:44	799896	60d35fa71e56e17e064c2c1e	2	1	main_z	24	advance_on_keypress_ZEE	34	stimuli_target_diamondsquares.svg	stimuli_distractor_diamondtriangles.svg	24	yes	57	0	1990	6	6	antiphase_hc_ois.wav	3	6	6	noise_calib_stim_RIGHT.wav	2	11	blb_dichoticlistening_da-pa.mp3	da	pa	1	left
6.6.1	mac	2023-06-27	02:33:22	02:46:48	803741	60d35fa71e56e17e064c2c1e	2	1	main_z	24	main_z	35	stimuli_target_rectangletriangles.svg	stimuli_distractor_diamondtriangles.svg	5	yes	44	1	1223	6	6	antiphase_hc_ois.wav	3	6	6	noise_calib_stim_RIGHT.wav	2	11	blb_dichoticlistening_da-pa.mp3	da	pa	1	left
6.6.1	mac	2023-06-27	02:33:22	02:46:48	803741	60d35fa71e56e17e064c2c1e	2	1	main_z	24	advance_on_keypress_ZEE	36	stimuli_target_rectangletriangles.svg	stimuli_distractor_diamondtriangles.svg	5	yes	57	0	989	6	6	antiphase_hc_ois.wav	3	6	6	noise_calib_stim_RIGHT.wav	2	11	blb_dichoticlistening_da-pa.mp3	da	pa	1	left
6.6.1	mac	2023-06-27	02:33:22	02:46:51	806361	60d35fa71e56e17e064c2c1e	2	1	main_z	24	main_z	37	stimuli_distractor_trianglediamonds.svg	stimuli_target_squarediamonds.svg	12	yes	44	1	1008	6	6	antiphase_hc_ois.wav	3	6	6	noise_calib_stim_RIGHT.wav	2	11	blb_dichoticlistening_da-pa.mp3	da	pa	1	left
6.6.1	mac	2023-06-27	02:33:22	02:46:51	806361	60d35fa71e56e17e064c2c1e	2	1	main_z	24	advance_on_keypress_ZEE	38	stimuli_distractor_trianglediamonds.svg	stimuli_target_squarediamonds.svg	12	yes	57	0	464	6	6	antiphase_hc_ois.wav	3	6	6	noise_calib_stim_RIGHT.wav	2	11	blb_dichoticlistening_da-pa.mp3	da	pa	1	left
6.6.1	mac	2023-06-27	02:33:22	02:46:54	809455	60d35fa71e56e17e064c2c1e	2	1	main_z	24	main_z	39	stimuli_distractor_trianglediamonds.svg	stimuli_distractor_trianglediamonds.svg	33	no	0	1	2000	6	6	antiphase_hc_ois.wav	3	6	6	noise_calib_stim_RIGHT.wav	2	11	blb_dichoticlistening_da-pa.mp3	da	pa	1	left
6.6.1	mac	2023-06-27	02:33:22	02:46:54	809455	60d35fa71e56e17e064c2c1e	2	1	main_z	24	advance_on_keypress_ZEE	40	stimuli_distractor_trianglediamonds.svg	stimuli_distractor_trianglediamonds.svg	33	no	57	0	445	6	6	antiphase_hc_ois.wav	3	6	6	noise_calib_stim_RIGHT.wav	2	11	blb_dichoticlistening_da-pa.mp3	da	pa	1	left
6.6.1	mac	2023-06-27	02:33:22	02:46:55	810683	60d35fa71e56e17e064c2c1e	2	1	main_z	24	main_z	41	stimuli_distractor_trianglediamonds.svg	stimuli_target_diamondsquares.svg	28	yes	44	1	141	6	6	antiphase_hc_ois.wav	3	6	6	noise_calib_stim_RIGHT.wav	2	11	blb_dichoticlistening_da-pa.mp3	da	pa	1	left
6.6.1	mac	2023-06-27	02:33:22	02:46:55	810683	60d35fa71e56e17e064c2c1e	2	1	main_z	24	advance_on_keypress_ZEE	42	stimuli_distractor_trianglediamonds.svg	stimuli_target_diamondsquares.svg	28	yes	57	0	496	6	6	antiphase_hc_ois.wav	3	6	6	noise_calib_stim_RIGHT.wav	2	11	blb_dichoticlistening_da-pa.mp3	da	pa	1	left
6.6.1	mac	2023-06-27	02:33:22	02:46:57	812217	60d35fa71e56e17e064c2c1e	2	1	main_z	24	main_z	43	stimuli_target_squarediamonds.svg	stimuli_distractor_diamondtriangles.svg	8	yes	44	1	407	6	6	antiphase_hc_ois.wav	3	6	6	noise_calib_stim_RIGHT.wav	2	11	blb_dichoticlistening_da-pa.mp3	da	pa	1	left
6.6.1	mac	2023-06-27	02:33:22	02:46:57	812217	60d35fa71e56e17e064c2c1e	2	1	main_z	24	advance_on_keypress_ZEE	44	stimuli_target_squarediamonds.svg	stimuli_distractor_diamondtriangles.svg	8	yes	57	0	231	6	6	antiphase_hc_ois.wav	3	6	6	noise_calib_stim_RIGHT.wav	2	11	blb_dichoticlistening_da-pa.mp3	da	pa	1	left
6.6.1	mac	2023-06-27	02:33:22	02:46:58	813641	60d35fa71e56e17e064c2c1e	2	1	main_z	24	main_z	45	stimuli_distractor_trianglediamonds.svg	stimuli_target_rectangletriangles.svg	9	yes	44	1	563	6	6	antiphase_hc_ois.wav	3	6	6	noise_calib_stim_RIGHT.wav	2	11	blb_dichoticlistening_da-pa.mp3	da	pa	1	left
6.6.1	mac	2023-06-27	02:33:22	02:46:58	813641	60d35fa71e56e17e064c2c1e	2	1	main_z	24	advance_on_keypress_ZEE	46	stimuli_distractor_trianglediamonds.svg	stimuli_target_rectangletriangles.svg	9	yes	57	0	1284	6	6	antiphase_hc_ois.wav	3	6	6	noise_calib_stim_RIGHT.wav	2	11	blb_dichoticlistening_da-pa.mp3	da	pa	1	left
6.6.1	mac	2023-06-27	02:33:22	02:47:01	816783	60d35fa71e56e17e064c2c1e	2	1	main_z	24	main_z	47	stimuli_distractor_trianglediamonds.svg	stimuli_target_diamondrectangles.svg	27	yes	44	1	1219	6	6	antiphase_hc_ois.wav	3	6	6	noise_calib_stim_RIGHT.wav	2	11	blb_dichoticlistening_da-pa.mp3	da	pa	1	left
6.6.1	mac	2023-06-27	02:33:22	02:47:01	816783	60d35fa71e56e17e064c2c1e	2	1	main_z	24	advance_on_keypress_ZEE	48	stimuli_distractor_trianglediamonds.svg	stimuli_target_diamondrectangles.svg	27	yes	57	0	769	6	6	antiphase_hc_ois.wav	3	6	6	noise_calib_stim_RIGHT.wav	2	11	blb_dichoticlistening_da-pa.mp3	da	pa	1	left
6.6.1	mac	2023-06-27	02:33:22	02:47:03	818904	60d35fa71e56e17e064c2c1e	2	1	main_z	24	main_z	49	stimuli_distractor_diamondtriangles.svg	stimuli_distractor_trianglediamonds.svg	37	no	44	0	720	6	6	antiphase_hc_ois.wav	3	6	6	noise_calib_stim_RIGHT.wav	2	11	blb_dichoticlistening_da-pa.mp3	da	pa	1	left
6.6.1	mac	2023-06-27	02:33:22	02:47:03	818904	60d35fa71e56e17e064c2c1e	2	1	main_z	24	advance_on_keypress_ZEE	50	stimuli_distractor_diamondtriangles.svg	stimuli_distractor_trianglediamonds.svg	37	no	57	0	185	6	6	antiphase_hc_ois.wav	3	6	6	noise_calib_stim_RIGHT.wav	2	11	blb_dichoticlistening_da-pa.mp3	da	pa	1	left
6.6.1	mac	2023-06-27	02:33:22	02:47:05	820302	60d35fa71e56e17e064c2c1e	2	1	main_z	24	main_z	51	stimuli_distractor_diamondtriangles.svg	stimuli_target_diamondsquares.svg	32	yes	44	1	584	6	6	antiphase_hc_ois.wav	3	6	6	noise_calib_stim_RIGHT.wav	2	11	blb_dichoticlistening_da-pa.mp3	da	pa	1	left
6.6.1	mac	2023-06-27	02:33:22	02:47:05	820302	60d35fa71e56e17e064c2c1e	2	1	main_z	24	advance_on_keypress_ZEE	52	stimuli_distractor_diamondtriangles.svg	stimuli_target_diamondsquares.svg	32	yes	57	0	2	6	6	antiphase_hc_ois.wav	3	6	6	noise_calib_stim_RIGHT.wav	2	11	blb_dichoticlistening_da-pa.mp3	da	pa	1	left
6.6.1	mac	2023-06-27	02:33:22	02:47:06	821357	60d35fa71e56e17e064c2c1e	2	1	main_z	24	main_z	53	stimuli_distractor_diamondtriangles.svg	stimuli_target_trianglerectangles.svg	29	yes	44	1	421	6	6	antiphase_hc_ois.wav	3	6	6	noise_calib_stim_RIGHT.wav	2	11	blb_dichoticlistening_da-pa.mp3	da	pa	1	left
6.6.1	mac	2023-06-27	02:33:22	02:47:06	821357	60d35fa71e56e17e064c2c1e	2	1	main_z	24	advance_on_keypress_ZEE	54	stimuli_distractor_diamondtriangles.svg	stimuli_target_trianglerectangles.svg	29	yes	57	0	28	6	6	antiphase_hc_ois.wav	3	6	6	noise_calib_stim_RIGHT.wav	2	11	blb_dichoticlistening_da-pa.mp3	da	pa	1	left
6.6.1	mac	2023-06-27	02:33:22	02:47:08	824020	60d35fa71e56e17e064c2c1e	2	1	main_z	24	main_z	55	stimuli_target_trianglesquares.svg	stimuli_distractor_trianglediamonds.svg	18	yes	0	0	2000	6	6	antiphase_hc_ois.wav	3	6	6	noise_calib_stim_RIGHT.wav	2	11	blb_dichoticlistening_da-pa.mp3	da	pa	1	left
6.6.1	mac	2023-06-27	02:33:22	02:47:08	824020	60d35fa71e56e17e064c2c1e	2	1	main_z	24	advance_on_keypress_ZEE	56	stimuli_target_trianglesquares.svg	stimuli_distractor_trianglediamonds.svg	18	yes	57	0	1125	6	6	antiphase_hc_ois.wav	3	6	6	noise_calib_stim_RIGHT.wav	2	11	blb_dichoticlistening_da-pa.mp3	da	pa	1	left
6.6.1	mac	2023-06-27	02:33:22	02:47:11	826960	60d35fa71e56e17e064c2c1e	2	1	main_z	24	main_z	57	stimuli_distractor_diamondtriangles.svg	stimuli_distractor_diamondtriangles.svg	39	no	44	0	1185	6	6	antiphase_hc_ois.wav	3	6	6	noise_calib_stim_RIGHT.wav	2	11	blb_dichoticlistening_da-pa.mp3	da	pa	1	left
6.6.1	mac	2023-06-27	02:33:22	02:47:11	826960	60d35fa71e56e17e064c2c1e	2	1	main_z	24	advance_on_keypress_ZEE	58	stimuli_distractor_diamondtriangles.svg	stimuli_distractor_diamondtriangles.svg	39	no	57	0	10	6	6	antiphase_hc_ois.wav	3	6	6	noise_calib_stim_RIGHT.wav	2	11	blb_dichoticlistening_da-pa.mp3	da	pa	1	left
6.6.1	mac	2023-06-27	02:33:22	02:47:13	828738	60d35fa71e56e17e064c2c1e	2	1	main_z	24	main_z	59	stimuli_target_rectangletriangles.svg	stimuli_distractor_trianglediamonds.svg	1	yes	44	1	1127	6	6	antiphase_hc_ois.wav	3	6	6	noise_calib_stim_RIGHT.wav	2	11	blb_dichoticlistening_da-pa.mp3	da	pa	1	left
6.6.1	mac	2023-06-27	02:33:22	02:47:13	828738	60d35fa71e56e17e064c2c1e	2	1	main_z	24	advance_on_keypress_ZEE	60	stimuli_target_rectangletriangles.svg	stimuli_distractor_trianglediamonds.svg	1	yes	57	0	4	6	6	antiphase_hc_ois.wav	3	6	6	noise_calib_stim_RIGHT.wav	2	11	blb_dichoticlistening_da-pa.mp3	da	pa	1	left
6.6.1	mac	2023-06-27	02:33:22	02:47:15	830710	60d35fa71e56e17e064c2c1e	2	1	main_z	24	main_z	61	stimuli_distractor_trianglediamonds.svg	stimuli_target_trianglesquares.svg	26	yes	44	1	1348	6	6	antiphase_hc_ois.wav	3	6	6	noise_calib_stim_RIGHT.wav	2	11	blb_dichoticlistening_da-pa.mp3	da	pa	1	left
6.6.1	mac	2023-06-27	02:33:22	02:47:15	830710	60d35fa71e56e17e064c2c1e	2	1	main_z	24	advance_on_keypress_ZEE	62	stimuli_distractor_trianglediamonds.svg	stimuli_target_trianglesquares.svg	26	yes	57	0	14	6	6	antiphase_hc_ois.wav	3	6	6	noise_calib_stim_RIGHT.wav	2	11	blb_dichoticlistening_da-pa.mp3	da	pa	1	left
6.6.1	mac	2023-06-27	02:33:22	02:47:18	833363	60d35fa71e56e17e064c2c1e	2	1	main_z	24	main_z	63	stimuli_distractor_diamondtriangles.svg	stimuli_distractor_diamondtriangles.svg	40	no	0	1	2000	6	6	antiphase_hc_ois.wav	3	6	6	noise_calib_stim_RIGHT.wav	2	11	blb_dichoticlistening_da-pa.mp3	da	pa	1	left
6.6.1	mac	2023-06-27	02:33:22	02:47:18	833363	60d35fa71e56e17e064c2c1e	2	1	main_z	24	advance_on_keypress_ZEE	64	stimuli_distractor_diamondtriangles.svg	stimuli_distractor_diamondtriangles.svg	40	no	57	0	522	6	6	antiphase_hc_ois.wav	3	6	6	noise_calib_stim_RIGHT.wav	2	11	blb_dichoticlistening_da-pa.mp3	da	pa	1	left
6.6.1	mac	2023-06-27	02:33:22	02:47:20	835577	60d35fa71e56e17e064c2c1e	2	1	main_z	24	main_z	65	stimuli_target_trianglesquares.svg	stimuli_distractor_diamondtriangles.svg	22	yes	44	1	1061	6	6	antiphase_hc_ois.wav	3	6	6	noise_calib_stim_RIGHT.wav	2	11	blb_dichoticlistening_da-pa.mp3	da	pa	1	left
6.6.1	mac	2023-06-27	02:33:22	02:47:20	835577	60d35fa71e56e17e064c2c1e	2	1	main_z	24	advance_on_keypress_ZEE	66	stimuli_target_trianglesquares.svg	stimuli_distractor_diamondtriangles.svg	22	yes	57	0	127	6	6	antiphase_hc_ois.wav	3	6	6	noise_calib_stim_RIGHT.wav	2	11	blb_dichoticlistening_da-pa.mp3	da	pa	1	left
6.6.1	mac	2023-06-27	02:33:22	02:47:22	837355	60d35fa71e56e17e064c2c1e	2	1	main_z	24	main_z	67	stimuli_target_rectanglediamonds.svg	stimuli_distractor_trianglediamonds.svg	2	yes	44	1	1036	6	6	antiphase_hc_ois.wav	3	6	6	noise_calib_stim_RIGHT.wav	2	11	blb_dichoticlistening_da-pa.mp3	da	pa	1	left
6.6.1	mac	2023-06-27	02:33:22	02:47:22	837355	60d35fa71e56e17e064c2c1e	2	1	main_z	24	advance_on_keypress_ZEE	68	stimuli_target_rectanglediamonds.svg	stimuli_distractor_trianglediamonds.svg	2	yes	57	0	0	6	6	antiphase_hc_ois.wav	3	6	6	noise_calib_stim_RIGHT.wav	2	11	blb_dichoticlistening_da-pa.mp3	da	pa	1	left
6.6.1	mac	2023-06-27	02:33:22	02:47:23	839073	60d35fa71e56e17e064c2c1e	2	1	main_z	24	main_z	69	stimuli_distractor_diamondtriangles.svg	stimuli_target_rectangletriangles.svg	13	yes	44	1	1086	6	6	antiphase_hc_ois.wav	3	6	6	noise_calib_stim_RIGHT.wav	2	11	blb_dichoticlistening_da-pa.mp3	da	pa	1	left
6.6.1	mac	2023-06-27	02:33:22	02:47:23	839073	60d35fa71e56e17e064c2c1e	2	1	main_z	24	advance_on_keypress_ZEE	70	stimuli_distractor_diamondtriangles.svg	stimuli_target_rectangletriangles.svg	13	yes	57	0	68	6	6	antiphase_hc_ois.wav	3	6	6	noise_calib_stim_RIGHT.wav	2	11	blb_dichoticlistening_da-pa.mp3	da	pa	1	left
6.6.1	mac	2023-06-27	02:33:22	02:47:25	840557	60d35fa71e56e17e064c2c1e	2	1	main_z	24	main_z	71	stimuli_target_squaretriangles.svg	stimuli_distractor_diamondtriangles.svg	7	yes	44	1	784	6	6	antiphase_hc_ois.wav	3	6	6	noise_calib_stim_RIGHT.wav	2	11	blb_dichoticlistening_da-pa.mp3	da	pa	1	left
6.6.1	mac	2023-06-27	02:33:22	02:47:25	840557	60d35fa71e56e17e064c2c1e	2	1	main_z	24	advance_on_keypress_ZEE	72	stimuli_target_squaretriangles.svg	stimuli_distractor_diamondtriangles.svg	7	yes	57	0	26	6	6	antiphase_hc_ois.wav	3	6	6	noise_calib_stim_RIGHT.wav	2	11	blb_dichoticlistening_da-pa.mp3	da	pa	1	left
6.6.1	mac	2023-06-27	02:33:22	02:47:27	842121	60d35fa71e56e17e064c2c1e	2	1	main_z	24	main_z	73	stimuli_target_squarediamonds.svg	stimuli_distractor_trianglediamonds.svg	4	yes	44	1	897	6	6	antiphase_hc_ois.wav	3	6	6	noise_calib_stim_RIGHT.wav	2	11	blb_dichoticlistening_da-pa.mp3	da	pa	1	left
6.6.1	mac	2023-06-27	02:33:22	02:47:27	842121	60d35fa71e56e17e064c2c1e	2	1	main_z	24	advance_on_keypress_ZEE	74	stimuli_target_squarediamonds.svg	stimuli_distractor_trianglediamonds.svg	4	yes	57	0	771	6	6	antiphase_hc_ois.wav	3	6	6	noise_calib_stim_RIGHT.wav	2	11	blb_dichoticlistening_da-pa.mp3	da	pa	1	left
6.6.1	mac	2023-06-27	02:33:22	02:47:29	844988	60d35fa71e56e17e064c2c1e	2	1	main_z	24	main_z	75	stimuli_distractor_diamondtriangles.svg	stimuli_target_diamondrectangles.svg	31	yes	44	1	1462	6	6	antiphase_hc_ois.wav	3	6	6	noise_calib_stim_RIGHT.wav	2	11	blb_dichoticlistening_da-pa.mp3	da	pa	1	left
6.6.1	mac	2023-06-27	02:33:22	02:47:29	844988	60d35fa71e56e17e064c2c1e	2	1	main_z	24	advance_on_keypress_ZEE	76	stimuli_distractor_diamondtriangles.svg	stimuli_target_diamondrectangles.svg	31	yes	57	0	141	6	6	antiphase_hc_ois.wav	3	6	6	noise_calib_stim_RIGHT.wav	2	11	blb_dichoticlistening_da-pa.mp3	da	pa	1	left
6.6.1	mac	2023-06-27	02:33:22	02:47:32	847744	60d35fa71e56e17e064c2c1e	2	1	main_z	24	main_z	77	stimuli_target_rectanglediamonds.svg	stimuli_distractor_diamondtriangles.svg	6	yes	0	0	2000	6	6	antiphase_hc_ois.wav	3	6	6	noise_calib_stim_RIGHT.wav	2	11	blb_dichoticlistening_da-pa.mp3	da	pa	1	left
6.6.1	mac	2023-06-27	02:33:22	02:47:32	847744	60d35fa71e56e17e064c2c1e	2	1	main_z	24	advance_on_keypress_ZEE	78	stimuli_target_rectanglediamonds.svg	stimuli_distractor_diamondtriangles.svg	6	yes	57	0	122	6	6	antiphase_hc_ois.wav	3	6	6	noise_calib_stim_RIGHT.wav	2	11	blb_dichoticlistening_da-pa.mp3	da	pa	1	left
6.6.1	mac	2023-06-27	02:33:22	02:47:34	849752	60d35fa71e56e17e064c2c1e	2	1	main_z	24	main_z	79	stimuli_distractor_trianglediamonds.svg	stimuli_distractor_trianglediamonds.svg	34	no	44	0	1255	6	6	antiphase_hc_ois.wav	3	6	6	noise_calib_stim_RIGHT.wav	2	11	blb_dichoticlistening_da-pa.mp3	da	pa	1	left
6.6.1	mac	2023-06-27	02:33:22	02:47:34	849752	60d35fa71e56e17e064c2c1e	2	1	main_z	24	advance_on_keypress_ZEE	80	stimuli_distractor_trianglediamonds.svg	stimuli_distractor_trianglediamonds.svg	34	no	57	0	5	6	6	antiphase_hc_ois.wav	3	6	6	noise_calib_stim_RIGHT.wav	2	11	blb_dichoticlistening_da-pa.mp3	da	pa	1	left
6.6.1	mac	2023-06-27	02:33:22	02:47:36	851640	60d35fa71e56e17e064c2c1e	2	1	main_z	24	main_z	81	stimuli_target_trianglerectangles.svg	stimuli_distractor_diamondtriangles.svg	21	yes	44	1	1257	6	6	antiphase_hc_ois.wav	3	6	6	noise_calib_stim_RIGHT.wav	2	11	blb_dichoticlistening_da-pa.mp3	da	pa	1	left
6.6.1	mac	2023-06-27	02:33:22	02:47:36	851640	60d35fa71e56e17e064c2c1e	2	1	main_z	24	advance_on_keypress_ZEE	82	stimuli_target_trianglerectangles.svg	stimuli_distractor_diamondtriangles.svg	21	yes	57	0	36	6	6	antiphase_hc_ois.wav	3	6	6	noise_calib_stim_RIGHT.wav	2	11	blb_dichoticlistening_da-pa.mp3	da	pa	1	left
6.6.1	mac	2023-06-27	02:33:22	02:47:38	853687	60d35fa71e56e17e064c2c1e	2	1	main_z	24	main_z	83	stimuli_distractor_trianglediamonds.svg	stimuli_distractor_diamondtriangles.svg	35	no	44	0	1386	6	6	antiphase_hc_ois.wav	3	6	6	noise_calib_stim_RIGHT.wav	2	11	blb_dichoticlistening_da-pa.mp3	da	pa	1	left
6.6.1	mac	2023-06-27	02:33:22	02:47:38	853687	60d35fa71e56e17e064c2c1e	2	1	main_z	24	advance_on_keypress_ZEE	84	stimuli_distractor_trianglediamonds.svg	stimuli_distractor_diamondtriangles.svg	35	no	57	0	67	6	6	antiphase_hc_ois.wav	3	6	6	noise_calib_stim_RIGHT.wav	2	11	blb_dichoticlistening_da-pa.mp3	da	pa	1	left
6.6.1	mac	2023-06-27	02:33:22	02:47:40	855350	60d35fa71e56e17e064c2c1e	2	1	main_z	24	main_z	85	stimuli_distractor_diamondtriangles.svg	stimuli_target_diamondrectangles.svg	31	yes	44	1	963	6	6	antiphase_hc_ois.wav	3	6	6	noise_calib_stim_RIGHT.wav	2	11	blb_dichoticlistening_da-pa.mp3	da	pa	1	left
6.6.1	mac	2023-06-27	02:33:22	02:47:40	855350	60d35fa71e56e17e064c2c1e	2	1	main_z	24	advance_on_keypress_ZEE	86	stimuli_distractor_diamondtriangles.svg	stimuli_target_diamondrectangles.svg	31	yes	57	0	38	6	6	antiphase_hc_ois.wav	3	6	6	noise_calib_stim_RIGHT.wav	2	11	blb_dichoticlistening_da-pa.mp3	da	pa	1	left
6.6.1	mac	2023-06-27	02:33:22	02:47:41	856795	60d35fa71e56e17e064c2c1e	2	1	main_z	24	main_z	87	stimuli_distractor_diamondtriangles.svg	stimuli_target_rectangletriangles.svg	13	yes	44	1	773	6	6	antiphase_hc_ois.wav	3	6	6	noise_calib_stim_RIGHT.wav	2	11	blb_dichoticlistening_da-pa.mp3	da	pa	1	left
6.6.1	mac	2023-06-27	02:33:22	02:47:41	856795	60d35fa71e56e17e064c2c1e	2	1	main_z	24	advance_on_keypress_ZEE	88	stimuli_distractor_diamondtriangles.svg	stimuli_target_rectangletriangles.svg	13	yes	57	0	19	6	6	antiphase_hc_ois.wav	3	6	6	noise_calib_stim_RIGHT.wav	2	11	blb_dichoticlistening_da-pa.mp3	da	pa	1	left
6.6.1	mac	2023-06-27	02:33:22	02:47:43	858212	60d35fa71e56e17e064c2c1e	2	1	main_z	24	main_z	89	stimuli_distractor_trianglediamonds.svg	stimuli_target_rectanglediamonds.svg	10	yes	44	1	773	6	6	antiphase_hc_ois.wav	3	6	6	noise_calib_stim_RIGHT.wav	2	11	blb_dichoticlistening_da-pa.mp3	da	pa	1	left
6.6.1	mac	2023-06-27	02:33:22	02:47:43	858212	60d35fa71e56e17e064c2c1e	2	1	main_z	24	advance_on_keypress_ZEE	90	stimuli_distractor_trianglediamonds.svg	stimuli_target_rectanglediamonds.svg	10	yes	57	0	8	6	6	antiphase_hc_ois.wav	3	6	6	noise_calib_stim_RIGHT.wav	2	11	blb_dichoticlistening_da-pa.mp3	da	pa	1	left
6.6.1	mac	2023-06-27	02:33:22	02:47:44	859506	60d35fa71e56e17e064c2c1e	2	1	main_z	24	main_z	91	stimuli_target_rectanglediamonds.svg	stimuli_distractor_diamondtriangles.svg	6	yes	44	1	665	6	6	antiphase_hc_ois.wav	3	6	6	noise_calib_stim_RIGHT.wav	2	11	blb_dichoticlistening_da-pa.mp3	da	pa	1	left
6.6.1	mac	2023-06-27	02:33:22	02:47:44	859506	60d35fa71e56e17e064c2c1e	2	1	main_z	24	advance_on_keypress_ZEE	92	stimuli_target_rectanglediamonds.svg	stimuli_distractor_diamondtriangles.svg	6	yes	57	0	2	6	6	antiphase_hc_ois.wav	3	6	6	noise_calib_stim_RIGHT.wav	2	11	blb_dichoticlistening_da-pa.mp3	da	pa	1	left
6.6.1	mac	2023-06-27	02:33:22	02:47:45	860809	60d35fa71e56e17e064c2c1e	2	1	main_z	24	main_z	93	stimuli_distractor_trianglediamonds.svg	stimuli_target_squarediamonds.svg	12	yes	44	1	650	6	6	antiphase_hc_ois.wav	3	6	6	noise_calib_stim_RIGHT.wav	2	11	blb_dichoticlistening_da-pa.mp3	da	pa	1	left
6.6.1	mac	2023-06-27	02:33:22	02:47:45	860809	60d35fa71e56e17e064c2c1e	2	1	main_z	24	advance_on_keypress_ZEE	94	stimuli_distractor_trianglediamonds.svg	stimuli_target_squarediamonds.svg	12	yes	57	0	16	6	6	antiphase_hc_ois.wav	3	6	6	noise_calib_stim_RIGHT.wav	2	11	blb_dichoticlistening_da-pa.mp3	da	pa	1	left
6.6.1	mac	2023-06-27	02:33:22	02:47:46	861938	60d35fa71e56e17e064c2c1e	2	1	main_z	24	main_z	95	stimuli_target_squarediamonds.svg	stimuli_distractor_diamondtriangles.svg	8	yes	44	1	477	6	6	antiphase_hc_ois.wav	3	6	6	noise_calib_stim_RIGHT.wav	2	11	blb_dichoticlistening_da-pa.mp3	da	pa	1	left
6.6.1	mac	2023-06-27	02:33:22	02:47:46	861938	60d35fa71e56e17e064c2c1e	2	1	main_z	24	advance_on_keypress_ZEE	96	stimuli_target_squarediamonds.svg	stimuli_distractor_diamondtriangles.svg	8	yes	57	0	0	6	6	antiphase_hc_ois.wav	3	6	6	noise_calib_stim_RIGHT.wav	2	11	blb_dichoticlistening_da-pa.mp3	da	pa	1	left
6.6.1	mac	2023-06-27	02:33:22	02:47:48	863193	60d35fa71e56e17e064c2c1e	2	1	main_z	24	main_z	97	stimuli_distractor_diamondtriangles.svg	stimuli_target_squarediamonds.svg	16	yes	44	1	598	6	6	antiphase_hc_ois.wav	3	6	6	noise_calib_stim_RIGHT.wav	2	11	blb_dichoticlistening_da-pa.mp3	da	pa	1	left
6.6.1	mac	2023-06-27	02:33:22	02:47:48	863193	60d35fa71e56e17e064c2c1e	2	1	main_z	24	advance_on_keypress_ZEE	98	stimuli_distractor_diamondtriangles.svg	stimuli_target_squarediamonds.svg	16	yes	57	0	56	6	6	antiphase_hc_ois.wav	3	6	6	noise_calib_stim_RIGHT.wav	2	11	blb_dichoticlistening_da-pa.mp3	da	pa	1	left
6.6.1	mac	2023-06-27	02:33:22	02:47:49	864725	60d35fa71e56e17e064c2c1e	2	1	main_z	24	main_z	99	stimuli_distractor_trianglediamonds.svg	stimuli_target_trianglesquares.svg	26	yes	44	1	846	6	6	antiphase_hc_ois.wav	3	6	6	noise_calib_stim_RIGHT.wav	2	11	blb_dichoticlistening_da-pa.mp3	da	pa	1	left
6.6.1	mac	2023-06-27	02:33:22	02:47:49	864725	60d35fa71e56e17e064c2c1e	2	1	main_z	24	advance_on_keypress_ZEE	100	stimuli_distractor_trianglediamonds.svg	stimuli_target_trianglesquares.svg	26	yes	57	0	30	6	6	antiphase_hc_ois.wav	3	6	6	noise_calib_stim_RIGHT.wav	2	11	blb_dichoticlistening_da-pa.mp3	da	pa	1	left
6.6.1	mac	2023-06-27	02:33:22	02:47:52	867396	60d35fa71e56e17e064c2c1e	2	1	main_z	24	main_z	101	stimuli_distractor_diamondtriangles.svg	stimuli_distractor_diamondtriangles.svg	39	no	0	1	2000	6	6	antiphase_hc_ois.wav	3	6	6	noise_calib_stim_RIGHT.wav	2	11	blb_dichoticlistening_da-pa.mp3	da	pa	1	left
6.6.1	mac	2023-06-27	02:33:22	02:47:52	867396	60d35fa71e56e17e064c2c1e	2	1	main_z	24	advance_on_keypress_ZEE	102	stimuli_distractor_diamondtriangles.svg	stimuli_distractor_diamondtriangles.svg	39	no	57	0	406	6	6	antiphase_hc_ois.wav	3	6	6	noise_calib_stim_RIGHT.wav	2	11	blb_dichoticlistening_da-pa.mp3	da	pa	1	left
6.6.1	mac	2023-06-27	02:33:22	02:47:53	869070	60d35fa71e56e17e064c2c1e	2	1	main_z	24	main_z	103	stimuli_target_squaretriangles.svg	stimuli_distractor_trianglediamonds.svg	3	yes	44	1	638	6	6	antiphase_hc_ois.wav	3	6	6	noise_calib_stim_RIGHT.wav	2	11	blb_dichoticlistening_da-pa.mp3	da	pa	1	left
6.6.1	mac	2023-06-27	02:33:22	02:47:53	869070	60d35fa71e56e17e064c2c1e	2	1	main_z	24	advance_on_keypress_ZEE	104	stimuli_target_squaretriangles.svg	stimuli_distractor_trianglediamonds.svg	3	yes	57	0	778	6	6	antiphase_hc_ois.wav	3	6	6	noise_calib_stim_RIGHT.wav	2	11	blb_dichoticlistening_da-pa.mp3	da	pa	1	left
6.6.1	mac	2023-06-27	02:33:22	02:47:56	871549	60d35fa71e56e17e064c2c1e	2	1	main_z	24	main_z	105	stimuli_target_trianglesquares.svg	stimuli_distractor_trianglediamonds.svg	18	yes	44	1	1080	6	6	antiphase_hc_ois.wav	3	6	6	noise_calib_stim_RIGHT.wav	2	11	blb_dichoticlistening_da-pa.mp3	da	pa	1	left
6.6.1	mac	2023-06-27	02:33:22	02:47:56	871549	60d35fa71e56e17e064c2c1e	2	1	main_z	24	advance_on_keypress_ZEE	106	stimuli_target_trianglesquares.svg	stimuli_distractor_trianglediamonds.svg	18	yes	57	0	89	6	6	antiphase_hc_ois.wav	3	6	6	noise_calib_stim_RIGHT.wav	2	11	blb_dichoticlistening_da-pa.mp3	da	pa	1	left
6.6.1	mac	2023-06-27	02:33:22	02:47:58	873607	60d35fa71e56e17e064c2c1e	2	1	main_z	24	main_z	107	stimuli_distractor_diamondtriangles.svg	stimuli_target_rectanglediamonds.svg	14	yes	44	1	1336	6	6	antiphase_hc_ois.wav	3	6	6	noise_calib_stim_RIGHT.wav	2	11	blb_dichoticlistening_da-pa.mp3	da	pa	1	left
6.6.1	mac	2023-06-27	02:33:22	02:47:58	873607	60d35fa71e56e17e064c2c1e	2	1	main_z	24	advance_on_keypress_ZEE	108	stimuli_distractor_diamondtriangles.svg	stimuli_target_rectanglediamonds.svg	14	yes	57	0	107	6	6	antiphase_hc_ois.wav	3	6	6	noise_calib_stim_RIGHT.wav	2	11	blb_dichoticlistening_da-pa.mp3	da	pa	1	left
6.6.1	mac	2023-06-27	02:33:22	02:48:00	875264	60d35fa71e56e17e064c2c1e	2	1	main_z	24	main_z	109	stimuli_distractor_trianglediamonds.svg	stimuli_distractor_diamondtriangles.svg	36	no	44	0	924	6	6	antiphase_hc_ois.wav	3	6	6	noise_calib_stim_RIGHT.wav	2	11	blb_dichoticlistening_da-pa.mp3	da	pa	1	left
6.6.1	mac	2023-06-27	02:33:22	02:48:00	875264	60d35fa71e56e17e064c2c1e	2	1	main_z	24	advance_on_keypress_ZEE	110	stimuli_distractor_trianglediamonds.svg	stimuli_distractor_diamondtriangles.svg	36	no	57	0	36	6	6	antiphase_hc_ois.wav	3	6	6	noise_calib_stim_RIGHT.wav	2	11	blb_dichoticlistening_da-pa.mp3	da	pa	1	left
6.6.1	mac	2023-06-27	02:33:22	02:48:01	876556	60d35fa71e56e17e064c2c1e	2	1	main_z	24	main_z	111	stimuli_target_squarediamonds.svg	stimuli_distractor_trianglediamonds.svg	4	yes	44	1	632	6	6	antiphase_hc_ois.wav	3	6	6	noise_calib_stim_RIGHT.wav	2	11	blb_dichoticlistening_da-pa.mp3	da	pa	1	left
6.6.1	mac	2023-06-27	02:33:22	02:48:01	876556	60d35fa71e56e17e064c2c1e	2	1	main_z	24	advance_on_keypress_ZEE	112	stimuli_target_squarediamonds.svg	stimuli_distractor_trianglediamonds.svg	4	yes	57	0	1031	6	6	antiphase_hc_ois.wav	3	6	6	noise_calib_stim_RIGHT.wav	2	11	blb_dichoticlistening_da-pa.mp3	da	pa	1	left
6.6.1	mac	2023-06-27	02:33:22	02:48:03	878947	60d35fa71e56e17e064c2c1e	2	1	main_z	24	main_z	113	stimuli_target_diamondsquares.svg	stimuli_distractor_diamondtriangles.svg	24	yes	44	1	719	6	6	antiphase_hc_ois.wav	3	6	6	noise_calib_stim_RIGHT.wav	2	11	blb_dichoticlistening_da-pa.mp3	da	pa	1	left
6.6.1	mac	2023-06-27	02:33:22	02:48:03	878947	60d35fa71e56e17e064c2c1e	2	1	main_z	24	advance_on_keypress_ZEE	114	stimuli_target_diamondsquares.svg	stimuli_distractor_diamondtriangles.svg	24	yes	57	0	847	6	6	antiphase_hc_ois.wav	3	6	6	noise_calib_stim_RIGHT.wav	2	11	blb_dichoticlistening_da-pa.mp3	da	pa	1	left
6.6.1	mac	2023-06-27	02:33:22	02:48:06	881169	60d35fa71e56e17e064c2c1e	2	1	main_z	24	main_z	115	stimuli_distractor_trianglediamonds.svg	stimuli_target_trianglerectangles.svg	25	yes	44	1	741	6	6	antiphase_hc_ois.wav	3	6	6	noise_calib_stim_RIGHT.wav	2	11	blb_dichoticlistening_da-pa.mp3	da	pa	1	left
6.6.1	mac	2023-06-27	02:33:22	02:48:06	881169	60d35fa71e56e17e064c2c1e	2	1	main_z	24	advance_on_keypress_ZEE	116	stimuli_distractor_trianglediamonds.svg	stimuli_target_trianglerectangles.svg	25	yes	57	0	572	6	6	antiphase_hc_ois.wav	3	6	6	noise_calib_stim_RIGHT.wav	2	11	blb_dichoticlistening_da-pa.mp3	da	pa	1	left
6.6.1	mac	2023-06-27	02:33:22	02:48:07	883081	60d35fa71e56e17e064c2c1e	2	1	main_z	24	main_z	117	stimuli_target_trianglesquares.svg	stimuli_distractor_diamondtriangles.svg	22	yes	44	1	718	6	6	antiphase_hc_ois.wav	3	6	6	noise_calib_stim_RIGHT.wav	2	11	blb_dichoticlistening_da-pa.mp3	da	pa	1	left
6.6.1	mac	2023-06-27	02:33:22	02:48:07	883081	60d35fa71e56e17e064c2c1e	2	1	main_z	24	advance_on_keypress_ZEE	118	stimuli_target_trianglesquares.svg	stimuli_distractor_diamondtriangles.svg	22	yes	57	0	889	6	6	antiphase_hc_ois.wav	3	6	6	noise_calib_stim_RIGHT.wav	2	11	blb_dichoticlistening_da-pa.mp3	da	pa	1	left
6.6.1	mac	2023-06-27	02:33:22	02:48:11	886599	60d35fa71e56e17e064c2c1e	2	1	main_z	24	main_z	119	stimuli_distractor_diamondtriangles.svg	stimuli_distractor_diamondtriangles.svg	40	no	0	1	2000	6	6	antiphase_hc_ois.wav	3	6	6	noise_calib_stim_RIGHT.wav	2	11	blb_dichoticlistening_da-pa.mp3	da	pa	1	left
6.6.1	mac	2023-06-27	02:33:22	02:48:11	886599	60d35fa71e56e17e064c2c1e	2	1	main_z	24	advance_on_keypress_ZEE	120	stimuli_distractor_diamondtriangles.svg	stimuli_distractor_diamondtriangles.svg	40	no	57	0	437	6	6	antiphase_hc_ois.wav	3	6	6	noise_calib_stim_RIGHT.wav	2	11	blb_dichoticlistening_da-pa.mp3	da	pa	1	left
6.6.1	mac	2023-06-27	02:33:22	02:48:14	889670	60d35fa71e56e17e064c2c1e	2	1	main_z	24	main_z	121	stimuli_distractor_trianglediamonds.svg	stimuli_distractor_trianglediamonds.svg	34	no	0	1	2000	6	6	antiphase_hc_ois.wav	3	6	6	noise_calib_stim_RIGHT.wav	2	11	blb_dichoticlistening_da-pa.mp3	da	pa	1	left
6.6.1	mac	2023-06-27	02:33:22	02:48:14	889670	60d35fa71e56e17e064c2c1e	2	1	main_z	24	advance_on_keypress_ZEE	122	stimuli_distractor_trianglediamonds.svg	stimuli_distractor_trianglediamonds.svg	34	no	57	0	321	6	6	antiphase_hc_ois.wav	3	6	6	noise_calib_stim_RIGHT.wav	2	11	blb_dichoticlistening_da-pa.mp3	da	pa	1	left
6.6.1	mac	2023-06-27	02:33:22	02:48:16	891553	60d35fa71e56e17e064c2c1e	2	1	main_z	24	main_z	123	stimuli_distractor_diamondtriangles.svg	stimuli_target_squaretriangles.svg	15	yes	44	1	930	6	6	antiphase_hc_ois.wav	3	6	6	noise_calib_stim_RIGHT.wav	2	11	blb_dichoticlistening_da-pa.mp3	da	pa	1	left
6.6.1	mac	2023-06-27	02:33:22	02:48:16	891553	60d35fa71e56e17e064c2c1e	2	1	main_z	24	advance_on_keypress_ZEE	124	stimuli_distractor_diamondtriangles.svg	stimuli_target_squaretriangles.svg	15	yes	57	0	897	6	6	antiphase_hc_ois.wav	3	6	6	noise_calib_stim_RIGHT.wav	2	11	blb_dichoticlistening_da-pa.mp3	da	pa	1	left
6.6.1	mac	2023-06-27	02:33:22	02:48:19	894351	60d35fa71e56e17e064c2c1e	2	1	main_z	24	main_z	125	stimuli_distractor_trianglediamonds.svg	stimuli_distractor_trianglediamonds.svg	33	no	44	0	1260	6	6	antiphase_hc_ois.wav	3	6	6	noise_calib_stim_RIGHT.wav	2	11	blb_dichoticlistening_da-pa.mp3	da	pa	1	left
6.6.1	mac	2023-06-27	02:33:22	02:48:19	894351	60d35fa71e56e17e064c2c1e	2	1	main_z	24	advance_on_keypress_ZEE	126	stimuli_distractor_trianglediamonds.svg	stimuli_distractor_trianglediamonds.svg	33	no	57	0	28	6	6	antiphase_hc_ois.wav	3	6	6	noise_calib_stim_RIGHT.wav	2	11	blb_dichoticlistening_da-pa.mp3	da	pa	1	left
6.6.1	mac	2023-06-27	02:33:22	02:48:20	895717	60d35fa71e56e17e064c2c1e	2	1	main_z	24	main_z	127	stimuli_target_squaretriangles.svg	stimuli_distractor_diamondtriangles.svg	7	yes	44	1	706	6	6	antiphase_hc_ois.wav	3	6	6	noise_calib_stim_RIGHT.wav	2	11	blb_dichoticlistening_da-pa.mp3	da	pa	1	left
6.6.1	mac	2023-06-27	02:33:22	02:48:20	895717	60d35fa71e56e17e064c2c1e	2	1	main_z	24	advance_on_keypress_ZEE	128	stimuli_target_squaretriangles.svg	stimuli_distractor_diamondtriangles.svg	7	yes	57	0	0	6	6	antiphase_hc_ois.wav	3	6	6	noise_calib_stim_RIGHT.wav	2	11	blb_dichoticlistening_da-pa.mp3	da	pa	1	left
6.6.1	mac	2023-06-27	02:33:22	02:48:21	896831	60d35fa71e56e17e064c2c1e	2	1	main_z	24	main_z	129	stimuli_distractor_trianglediamonds.svg	stimuli_target_rectangletriangles.svg	9	yes	44	1	470	6	6	antiphase_hc_ois.wav	3	6	6	noise_calib_stim_RIGHT.wav	2	11	blb_dichoticlistening_da-pa.mp3	da	pa	1	left
6.6.1	mac	2023-06-27	02:33:22	02:48:21	896831	60d35fa71e56e17e064c2c1e	2	1	main_z	24	advance_on_keypress_ZEE	130	stimuli_distractor_trianglediamonds.svg	stimuli_target_rectangletriangles.svg	9	yes	57	0	0	6	6	antiphase_hc_ois.wav	3	6	6	noise_calib_stim_RIGHT.wav	2	11	blb_dichoticlistening_da-pa.mp3	da	pa	1	left
6.6.1	mac	2023-06-27	02:33:22	02:48:22	898029	60d35fa71e56e17e064c2c1e	2	1	main_z	24	main_z	131	stimuli_distractor_diamondtriangles.svg	stimuli_distractor_trianglediamonds.svg	38	no	44	0	551	6	6	antiphase_hc_ois.wav	3	6	6	noise_calib_stim_RIGHT.wav	2	11	blb_dichoticlistening_da-pa.mp3	da	pa	1	left
6.6.1	mac	2023-06-27	02:33:22	02:48:22	898029	60d35fa71e56e17e064c2c1e	2	1	main_z	24	advance_on_keypress_ZEE	132	stimuli_distractor_diamondtriangles.svg	stimuli_distractor_trianglediamonds.svg	38	no	57	0	10	6	6	antiphase_hc_ois.wav	3	6	6	noise_calib_stim_RIGHT.wav	2	11	blb_dichoticlistening_da-pa.mp3	da	pa	1	left
6.6.1	mac	2023-06-27	02:33:22	02:48:24	899931	60d35fa71e56e17e064c2c1e	2	1	main_z	24	main_z	133	stimuli_target_diamondsquares.svg	stimuli_distractor_trianglediamonds.svg	20	yes	44	1	1251	6	6	antiphase_hc_ois.wav	3	6	6	noise_calib_stim_RIGHT.wav	2	11	blb_dichoticlistening_da-pa.mp3	da	pa	1	left
6.6.1	mac	2023-06-27	02:33:22	02:48:24	899931	60d35fa71e56e17e064c2c1e	2	1	main_z	24	advance_on_keypress_ZEE	134	stimuli_target_diamondsquares.svg	stimuli_distractor_trianglediamonds.svg	20	yes	57	0	15	6	6	antiphase_hc_ois.wav	3	6	6	noise_calib_stim_RIGHT.wav	2	11	blb_dichoticlistening_da-pa.mp3	da	pa	1	left
6.6.1	mac	2023-06-27	02:33:22	02:48:27	902582	60d35fa71e56e17e064c2c1e	2	1	main_z	24	main_z	135	stimuli_distractor_diamondtriangles.svg	stimuli_distractor_trianglediamonds.svg	37	no	0	1	2000	6	6	antiphase_hc_ois.wav	3	6	6	noise_calib_stim_RIGHT.wav	2	11	blb_dichoticlistening_da-pa.mp3	da	pa	1	left
6.6.1	mac	2023-06-27	02:33:22	02:48:27	902582	60d35fa71e56e17e064c2c1e	2	1	main_z	24	advance_on_keypress_ZEE	136	stimuli_distractor_diamondtriangles.svg	stimuli_distractor_trianglediamonds.svg	37	no	57	0	334	6	6	antiphase_hc_ois.wav	3	6	6	noise_calib_stim_RIGHT.wav	2	11	blb_dichoticlistening_da-pa.mp3	da	pa	1	left
6.6.1	mac	2023-06-27	02:33:22	02:48:29	904147	60d35fa71e56e17e064c2c1e	2	1	main_z	24	main_z	137	stimuli_distractor_trianglediamonds.svg	stimuli_target_squaretriangles.svg	11	yes	44	1	594	6	6	antiphase_hc_ois.wav	3	6	6	noise_calib_stim_RIGHT.wav	2	11	blb_dichoticlistening_da-pa.mp3	da	pa	1	left
6.6.1	mac	2023-06-27	02:33:22	02:48:29	904147	60d35fa71e56e17e064c2c1e	2	1	main_z	24	advance_on_keypress_ZEE	138	stimuli_distractor_trianglediamonds.svg	stimuli_target_squaretriangles.svg	11	yes	57	0	1	6	6	antiphase_hc_ois.wav	3	6	6	noise_calib_stim_RIGHT.wav	2	11	blb_dichoticlistening_da-pa.mp3	da	pa	1	left
6.6.1	mac	2023-06-27	02:33:22	02:48:30	905445	60d35fa71e56e17e064c2c1e	2	1	main_z	24	main_z	139	stimuli_distractor_diamondtriangles.svg	stimuli_target_diamondsquares.svg	32	yes	44	1	674	6	6	antiphase_hc_ois.wav	3	6	6	noise_calib_stim_RIGHT.wav	2	11	blb_dichoticlistening_da-pa.mp3	da	pa	1	left
6.6.1	mac	2023-06-27	02:33:22	02:48:30	905445	60d35fa71e56e17e064c2c1e	2	1	main_z	24	advance_on_keypress_ZEE	140	stimuli_distractor_diamondtriangles.svg	stimuli_target_diamondsquares.svg	32	yes	57	0	9	6	6	antiphase_hc_ois.wav	3	6	6	noise_calib_stim_RIGHT.wav	2	11	blb_dichoticlistening_da-pa.mp3	da	pa	1	left
6.6.1	mac	2023-06-27	02:33:22	02:48:31	906643	60d35fa71e56e17e064c2c1e	2	1	main_z	24	main_z	141	stimuli_target_diamondrectangles.svg	stimuli_distractor_diamondtriangles.svg	23	yes	44	1	571	6	6	antiphase_hc_ois.wav	3	6	6	noise_calib_stim_RIGHT.wav	2	11	blb_dichoticlistening_da-pa.mp3	da	pa	1	left
6.6.1	mac	2023-06-27	02:33:22	02:48:31	906643	60d35fa71e56e17e064c2c1e	2	1	main_z	24	advance_on_keypress_ZEE	142	stimuli_target_diamondrectangles.svg	stimuli_distractor_diamondtriangles.svg	23	yes	57	0	8	6	6	antiphase_hc_ois.wav	3	6	6	noise_calib_stim_RIGHT.wav	2	11	blb_dichoticlistening_da-pa.mp3	da	pa	1	left
6.6.1	mac	2023-06-27	02:33:22	02:48:32	907794	60d35fa71e56e17e064c2c1e	2	1	main_z	24	main_z	143	stimuli_target_rectangletriangles.svg	stimuli_distractor_trianglediamonds.svg	1	yes	44	1	504	6	6	antiphase_hc_ois.wav	3	6	6	noise_calib_stim_RIGHT.wav	2	11	blb_dichoticlistening_da-pa.mp3	da	pa	1	left
6.6.1	mac	2023-06-27	02:33:22	02:48:32	907794	60d35fa71e56e17e064c2c1e	2	1	main_z	24	advance_on_keypress_ZEE	144	stimuli_target_rectangletriangles.svg	stimuli_distractor_trianglediamonds.svg	1	yes	57	0	10	6	6	antiphase_hc_ois.wav	3	6	6	noise_calib_stim_RIGHT.wav	2	11	blb_dichoticlistening_da-pa.mp3	da	pa	1	left
6.6.1	mac	2023-06-27	02:33:22	02:48:33	908846	60d35fa71e56e17e064c2c1e	2	1	main_z	24	main_z	145	stimuli_distractor_diamondtriangles.svg	stimuli_target_trianglesquares.svg	30	yes	44	1	423	6	6	antiphase_hc_ois.wav	3	6	6	noise_calib_stim_RIGHT.wav	2	11	blb_dichoticlistening_da-pa.mp3	da	pa	1	left
6.6.1	mac	2023-06-27	02:33:22	02:48:33	908846	60d35fa71e56e17e064c2c1e	2	1	main_z	24	advance_on_keypress_ZEE	146	stimuli_distractor_diamondtriangles.svg	stimuli_target_trianglesquares.svg	30	yes	57	0	30	6	6	antiphase_hc_ois.wav	3	6	6	noise_calib_stim_RIGHT.wav	2	11	blb_dichoticlistening_da-pa.mp3	da	pa	1	left
6.6.1	mac	2023-06-27	02:33:22	02:48:35	910120	60d35fa71e56e17e064c2c1e	2	1	main_z	24	main_z	147	stimuli_target_diamondrectangles.svg	stimuli_distractor_trianglediamonds.svg	19	yes	44	1	611	6	6	antiphase_hc_ois.wav	3	6	6	noise_calib_stim_RIGHT.wav	2	11	blb_dichoticlistening_da-pa.mp3	da	pa	1	left
6.6.1	mac	2023-06-27	02:33:22	02:48:35	910120	60d35fa71e56e17e064c2c1e	2	1	main_z	24	advance_on_keypress_ZEE	148	stimuli_target_diamondrectangles.svg	stimuli_distractor_trianglediamonds.svg	19	yes	57	0	34	6	6	antiphase_hc_ois.wav	3	6	6	noise_calib_stim_RIGHT.wav	2	11	blb_dichoticlistening_da-pa.mp3	da	pa	1	left
6.6.1	mac	2023-06-27	02:33:22	02:48:37	912775	60d35fa71e56e17e064c2c1e	2	1	main_z	24	main_z	149	stimuli_distractor_trianglediamonds.svg	stimuli_target_diamondrectangles.svg	27	yes	0	0	2000	6	6	antiphase_hc_ois.wav	3	6	6	noise_calib_stim_RIGHT.wav	2	11	blb_dichoticlistening_da-pa.mp3	da	pa	1	left
6.6.1	mac	2023-06-27	02:33:22	02:48:37	912775	60d35fa71e56e17e064c2c1e	2	1	main_z	24	advance_on_keypress_ZEE	150	stimuli_distractor_trianglediamonds.svg	stimuli_target_diamondrectangles.svg	27	yes	57	0	538	6	6	antiphase_hc_ois.wav	3	6	6	noise_calib_stim_RIGHT.wav	2	11	blb_dichoticlistening_da-pa.mp3	da	pa	1	left
6.6.1	mac	2023-06-27	02:33:22	02:48:39	914525	60d35fa71e56e17e064c2c1e	2	1	main_z	24	main_z	151	stimuli_distractor_trianglediamonds.svg	stimuli_target_diamondsquares.svg	28	yes	44	1	579	6	6	antiphase_hc_ois.wav	3	6	6	noise_calib_stim_RIGHT.wav	2	11	blb_dichoticlistening_da-pa.mp3	da	pa	1	left
6.6.1	mac	2023-06-27	02:33:22	02:48:39	914525	60d35fa71e56e17e064c2c1e	2	1	main_z	24	advance_on_keypress_ZEE	152	stimuli_distractor_trianglediamonds.svg	stimuli_target_diamondsquares.svg	28	yes	57	0	9	6	6	antiphase_hc_ois.wav	3	6	6	noise_calib_stim_RIGHT.wav	2	11	blb_dichoticlistening_da-pa.mp3	da	pa	1	left
6.6.1	mac	2023-06-27	02:33:22	02:48:41	916409	60d35fa71e56e17e064c2c1e	2	1	main_z	24	main_z	153	stimuli_target_trianglerectangles.svg	stimuli_distractor_trianglediamonds.svg	17	yes	44	1	1229	6	6	antiphase_hc_ois.wav	3	6	6	noise_calib_stim_RIGHT.wav	2	11	blb_dichoticlistening_da-pa.mp3	da	pa	1	left
6.6.1	mac	2023-06-27	02:33:22	02:48:41	916409	60d35fa71e56e17e064c2c1e	2	1	main_z	24	advance_on_keypress_ZEE	154	stimuli_target_trianglerectangles.svg	stimuli_distractor_trianglediamonds.svg	17	yes	57	0	41	6	6	antiphase_hc_ois.wav	3	6	6	noise_calib_stim_RIGHT.wav	2	11	blb_dichoticlistening_da-pa.mp3	da	pa	1	left
6.6.1	mac	2023-06-27	02:33:22	02:48:42	918007	60d35fa71e56e17e064c2c1e	2	1	main_z	24	main_z	155	stimuli_distractor_diamondtriangles.svg	stimuli_target_trianglerectangles.svg	29	yes	44	1	942	6	6	antiphase_hc_ois.wav	3	6	6	noise_calib_stim_RIGHT.wav	2	11	blb_dichoticlistening_da-pa.mp3	da	pa	1	left
6.6.1	mac	2023-06-27	02:33:22	02:48:42	918007	60d35fa71e56e17e064c2c1e	2	1	main_z	24	advance_on_keypress_ZEE	156	stimuli_distractor_diamondtriangles.svg	stimuli_target_trianglerectangles.svg	29	yes	57	0	825	6	6	antiphase_hc_ois.wav	3	6	6	noise_calib_stim_RIGHT.wav	2	11	blb_dichoticlistening_da-pa.mp3	da	pa	1	left
6.6.1	mac	2023-06-27	02:33:22	02:48:45	921050	60d35fa71e56e17e064c2c1e	2	1	main_z	24	main_z	157	stimuli_target_rectangletriangles.svg	stimuli_distractor_diamondtriangles.svg	5	yes	44	1	1598	6	6	antiphase_hc_ois.wav	3	6	6	noise_calib_stim_RIGHT.wav	2	11	blb_dichoticlistening_da-pa.mp3	da	pa	1	left
6.6.1	mac	2023-06-27	02:33:22	02:48:45	921050	60d35fa71e56e17e064c2c1e	2	1	main_z	24	advance_on_keypress_ZEE	158	stimuli_target_rectangletriangles.svg	stimuli_distractor_diamondtriangles.svg	5	yes	57	0	13	6	6	antiphase_hc_ois.wav	3	6	6	noise_calib_stim_RIGHT.wav	2	11	blb_dichoticlistening_da-pa.mp3	da	pa	1	left
6.6.1	mac	2023-06-27	02:33:22	02:48:47	922469	60d35fa71e56e17e064c2c1e	2	1	main_z	24	main_z	159	stimuli_target_rectanglediamonds.svg	stimuli_distractor_trianglediamonds.svg	2	yes	44	1	765	6	6	antiphase_hc_ois.wav	3	6	6	noise_calib_stim_RIGHT.wav	2	11	blb_dichoticlistening_da-pa.mp3	da	pa	1	left
6.6.1	mac	2023-06-27	02:33:22	02:48:47	922469	60d35fa71e56e17e064c2c1e	2	1	main_z	24	advance_on_keypress_ZEE	160	stimuli_target_rectanglediamonds.svg	stimuli_distractor_trianglediamonds.svg	2	yes	57	0	56	6	6	antiphase_hc_ois.wav	3	6	6	noise_calib_stim_RIGHT.wav	2	11	blb_dichoticlistening_da-pa.mp3	da	pa	1	left
6.6.1	mac	2023-06-27	02:33:22	02:49:21	957004	60d35fa71e56e17e064c2c1e	2	1	practice_slash	26	practice_slash	1	stimuli_distractor_diamondtriangles.svg	stimuli_distractor_diamondtriangles.svg	13	no	0	1	2000	6	6	antiphase_hc_ois.wav	3	6	6	noise_calib_stim_RIGHT.wav	2	11	blb_dichoticlistening_da-pa.mp3	da	pa	1	left
6.6.1	mac	2023-06-27	02:33:22	02:49:21	957004	60d35fa71e56e17e064c2c1e	2	1	practice_slash	26	advance_on_keypress_SLASH	2	stimuli_distractor_diamondtriangles.svg	stimuli_distractor_diamondtriangles.svg	13	no	57	0	667	6	6	antiphase_hc_ois.wav	3	6	6	noise_calib_stim_RIGHT.wav	2	11	blb_dichoticlistening_da-pa.mp3	da	pa	1	left
6.6.1	mac	2023-06-27	02:33:22	02:49:24	960024	60d35fa71e56e17e064c2c1e	2	1	practice_slash	26	practice_slash	3	stimuli_distractor_trianglediamonds.svg	stimuli_target_rectanglediamonds.svg	10	yes	53	1	716	6	6	antiphase_hc_ois.wav	3	6	6	noise_calib_stim_RIGHT.wav	2	11	blb_dichoticlistening_da-pa.mp3	da	pa	1	left
6.6.1	mac	2023-06-27	02:33:22	02:49:24	960024	60d35fa71e56e17e064c2c1e	2	1	practice_slash	26	advance_on_keypress_SLASH	4	stimuli_distractor_trianglediamonds.svg	stimuli_target_rectanglediamonds.svg	10	yes	57	0	901	6	6	antiphase_hc_ois.wav	3	6	6	noise_calib_stim_RIGHT.wav	2	11	blb_dichoticlistening_da-pa.mp3	da	pa	1	left
6.6.1	mac	2023-06-27	02:33:22	02:49:28	963112	60d35fa71e56e17e064c2c1e	2	1	practice_slash	26	practice_slash	5	stimuli_target_rectanglediamonds.svg	stimuli_distractor_trianglediamonds.svg	4	yes	53	1	551	6	6	antiphase_hc_ois.wav	3	6	6	noise_calib_stim_RIGHT.wav	2	11	blb_dichoticlistening_da-pa.mp3	da	pa	1	left
6.6.1	mac	2023-06-27	02:33:22	02:49:28	963112	60d35fa71e56e17e064c2c1e	2	1	practice_slash	26	advance_on_keypress_SLASH	6	stimuli_target_rectanglediamonds.svg	stimuli_distractor_trianglediamonds.svg	4	yes	57	0	488	6	6	antiphase_hc_ois.wav	3	6	6	noise_calib_stim_RIGHT.wav	2	11	blb_dichoticlistening_da-pa.mp3	da	pa	1	left
6.6.1	mac	2023-06-27	02:33:22	02:49:32	967230	60d35fa71e56e17e064c2c1e	2	1	practice_slash	26	practice_slash	7	stimuli_distractor_trianglediamonds.svg	stimuli_distractor_trianglediamonds.svg	15	no	0	1	2000	6	6	antiphase_hc_ois.wav	3	6	6	noise_calib_stim_RIGHT.wav	2	11	blb_dichoticlistening_da-pa.mp3	da	pa	1	left
6.6.1	mac	2023-06-27	02:33:22	02:49:32	967230	60d35fa71e56e17e064c2c1e	2	1	practice_slash	26	advance_on_keypress_SLASH	8	stimuli_distractor_trianglediamonds.svg	stimuli_distractor_trianglediamonds.svg	15	no	57	0	977	6	6	antiphase_hc_ois.wav	3	6	6	noise_calib_stim_RIGHT.wav	2	11	blb_dichoticlistening_da-pa.mp3	da	pa	1	left
6.6.1	mac	2023-06-27	02:33:22	02:49:35	970503	60d35fa71e56e17e064c2c1e	2	1	practice_slash	26	practice_slash	9	stimuli_distractor_diamondtriangles.svg	stimuli_target_rectangletriangles.svg	7	yes	53	1	668	6	6	antiphase_hc_ois.wav	3	6	6	noise_calib_stim_RIGHT.wav	2	11	blb_dichoticlistening_da-pa.mp3	da	pa	1	left
6.6.1	mac	2023-06-27	02:33:22	02:49:35	970503	60d35fa71e56e17e064c2c1e	2	1	practice_slash	26	advance_on_keypress_SLASH	10	stimuli_distractor_diamondtriangles.svg	stimuli_target_rectangletriangles.svg	7	yes	57	0	473	6	6	antiphase_hc_ois.wav	3	6	6	noise_calib_stim_RIGHT.wav	2	11	blb_dichoticlistening_da-pa.mp3	da	pa	1	left
6.6.1	mac	2023-06-27	02:33:22	02:49:38	973262	60d35fa71e56e17e064c2c1e	2	1	practice_slash	26	practice_slash	11	stimuli_distractor_diamondtriangles.svg	stimuli_target_diamondrectangles.svg	8	yes	53	1	658	6	6	antiphase_hc_ois.wav	3	6	6	noise_calib_stim_RIGHT.wav	2	11	blb_dichoticlistening_da-pa.mp3	da	pa	1	left
6.6.1	mac	2023-06-27	02:33:22	02:49:38	973262	60d35fa71e56e17e064c2c1e	2	1	practice_slash	26	advance_on_keypress_SLASH	12	stimuli_distractor_diamondtriangles.svg	stimuli_target_diamondrectangles.svg	8	yes	57	0	330	6	6	antiphase_hc_ois.wav	3	6	6	noise_calib_stim_RIGHT.wav	2	11	blb_dichoticlistening_da-pa.mp3	da	pa	1	left
6.6.1	mac	2023-06-27	02:33:22	02:49:40	975762	60d35fa71e56e17e064c2c1e	2	1	practice_slash	26	practice_slash	13	stimuli_target_squarediamonds.svg	stimuli_distractor_diamondtriangles.svg	2	yes	53	1	540	6	6	antiphase_hc_ois.wav	3	6	6	noise_calib_stim_RIGHT.wav	2	11	blb_dichoticlistening_da-pa.mp3	da	pa	1	left
6.6.1	mac	2023-06-27	02:33:22	02:49:40	975762	60d35fa71e56e17e064c2c1e	2	1	practice_slash	26	advance_on_keypress_SLASH	14	stimuli_target_squarediamonds.svg	stimuli_distractor_diamondtriangles.svg	2	yes	57	0	246	6	6	antiphase_hc_ois.wav	3	6	6	noise_calib_stim_RIGHT.wav	2	11	blb_dichoticlistening_da-pa.mp3	da	pa	1	left
6.6.1	mac	2023-06-27	02:33:22	02:49:43	978187	60d35fa71e56e17e064c2c1e	2	1	practice_slash	26	practice_slash	15	stimuli_target_rectanglediamonds.svg	stimuli_distractor_diamondtriangles.svg	1	yes	53	1	544	6	6	antiphase_hc_ois.wav	3	6	6	noise_calib_stim_RIGHT.wav	2	11	blb_dichoticlistening_da-pa.mp3	da	pa	1	left
6.6.1	mac	2023-06-27	02:33:22	02:49:43	978187	60d35fa71e56e17e064c2c1e	2	1	practice_slash	26	advance_on_keypress_SLASH	16	stimuli_target_rectanglediamonds.svg	stimuli_distractor_diamondtriangles.svg	1	yes	57	0	378	6	6	antiphase_hc_ois.wav	3	6	6	noise_calib_stim_RIGHT.wav	2	11	blb_dichoticlistening_da-pa.mp3	da	pa	1	left
6.6.1	mac	2023-06-27	02:33:22	02:49:45	980814	60d35fa71e56e17e064c2c1e	2	1	practice_slash	26	practice_slash	17	stimuli_distractor_diamondtriangles.svg	stimuli_target_trianglerectangles.svg	9	yes	53	1	620	6	6	antiphase_hc_ois.wav	3	6	6	noise_calib_stim_RIGHT.wav	2	11	blb_dichoticlistening_da-pa.mp3	da	pa	1	left
6.6.1	mac	2023-06-27	02:33:22	02:49:45	980814	60d35fa71e56e17e064c2c1e	2	1	practice_slash	26	advance_on_keypress_SLASH	18	stimuli_distractor_diamondtriangles.svg	stimuli_target_trianglerectangles.svg	9	yes	57	0	353	6	6	antiphase_hc_ois.wav	3	6	6	noise_calib_stim_RIGHT.wav	2	11	blb_dichoticlistening_da-pa.mp3	da	pa	1	left
6.6.1	mac	2023-06-27	02:33:22	02:49:48	983833	60d35fa71e56e17e064c2c1e	2	1	practice_slash	26	practice_slash	19	stimuli_target_diamondsquares.svg	stimuli_distractor_diamondtriangles.svg	3	yes	53	1	1035	6	6	antiphase_hc_ois.wav	3	6	6	noise_calib_stim_RIGHT.wav	2	11	blb_dichoticlistening_da-pa.mp3	da	pa	1	left
