build	computer.platform	date	time	timestamp	time_elapsed_ms	subject	group	session	blockcode	blocknum	trialcode	trialnum	stimulus_left	stimulus_right	stim_index	target_present	response	correct	latency	headphonecheck_countTestTrials	headphonecheck_index	headphonecheck_testSound	headphonecheck_correctResponse	stereocheck_countTestTrials	stereocheck_index	stereocheck_testSound	stereocheck_correctResponse	DL_index	DL_soundfile	DL_leftSound	DL_rightSound	DL_dualSound	DL_choice
6.6.1	win	2023-06-27	16:57:27	17:00:15	165554	6130ea03d6862384241af61a	4	1	practice_z	5	practice_z	1	stimuli_target_diamondsquares.svg	stimuli_distractor_diamondtriangles.svg	3	yes	0	0	2000	0	0			0	0			1				0	
6.6.1	win	2023-06-27	16:57:27	17:00:15	165554	6130ea03d6862384241af61a	4	1	practice_z	5	advance_on_keypress_ZEE	2	stimuli_target_diamondsquares.svg	stimuli_distractor_diamondtriangles.svg	3	yes	57	0	2910	0	0			0	0			1				0	
6.6.1	win	2023-06-27	16:57:27	17:00:20	170155	6130ea03d6862384241af61a	4	1	practice_z	5	practice_z	3	stimuli_distractor_diamondtriangles.svg	stimuli_distractor_diamondtriangles.svg	13	no	44	0	52	0	0			0	0			1				0	
6.6.1	win	2023-06-27	16:57:27	17:00:20	170155	6130ea03d6862384241af61a	4	1	practice_z	5	advance_on_keypress_ZEE	4	stimuli_distractor_diamondtriangles.svg	stimuli_distractor_diamondtriangles.svg	13	no	57	0	1128	0	0			0	0			1				0	
6.6.1	win	2023-06-27	16:57:27	17:00:23	173906	6130ea03d6862384241af61a	4	1	practice_z	5	practice_z	5	stimuli_distractor_diamondtriangles.svg	stimuli_distractor_trianglediamonds.svg	14	no	44	0	969	0	0			0	0			1				0	
6.6.1	win	2023-06-27	16:57:27	17:00:23	173906	6130ea03d6862384241af61a	4	1	practice_z	5	advance_on_keypress_ZEE	6	stimuli_distractor_diamondtriangles.svg	stimuli_distractor_trianglediamonds.svg	14	no	57	0	561	0	0			0	0			1				0	
6.6.1	win	2023-06-27	16:57:27	17:00:26	176811	6130ea03d6862384241af61a	4	1	practice_z	5	practice_z	7	stimuli_distractor_diamondtriangles.svg	stimuli_target_rectangletriangles.svg	7	yes	44	1	690	0	0			0	0			1				0	
6.6.1	win	2023-06-27	16:57:27	17:00:26	176811	6130ea03d6862384241af61a	4	1	practice_z	5	advance_on_keypress_ZEE	8	stimuli_distractor_diamondtriangles.svg	stimuli_target_rectangletriangles.svg	7	yes	57	0	2335	0	0			0	0			1				0	
6.6.1	win	2023-06-27	16:57:27	17:00:31	181425	6130ea03d6862384241af61a	4	1	practice_z	5	practice_z	9	stimuli_target_rectanglediamonds.svg	stimuli_distractor_diamondtriangles.svg	1	yes	44	1	639	0	0			0	0			1				0	
6.6.1	win	2023-06-27	16:57:27	17:00:31	181425	6130ea03d6862384241af61a	4	1	practice_z	5	advance_on_keypress_ZEE	10	stimuli_target_rectanglediamonds.svg	stimuli_distractor_diamondtriangles.svg	1	yes	57	0	1033	0	0			0	0			1				0	
6.6.1	win	2023-06-27	16:57:27	17:00:35	185028	6130ea03d6862384241af61a	4	1	practice_z	5	practice_z	11	stimuli_target_diamondsquares.svg	stimuli_distractor_trianglediamonds.svg	6	yes	44	1	926	0	0			0	0			1				0	
6.6.1	win	2023-06-27	16:57:27	17:00:35	185028	6130ea03d6862384241af61a	4	1	practice_z	5	advance_on_keypress_ZEE	12	stimuli_target_diamondsquares.svg	stimuli_distractor_trianglediamonds.svg	6	yes	57	0	854	0	0			0	0			1				0	
6.6.1	win	2023-06-27	16:57:27	17:00:38	188240	6130ea03d6862384241af61a	4	1	practice_z	5	practice_z	13	stimuli_target_rectanglediamonds.svg	stimuli_distractor_trianglediamonds.svg	4	yes	44	1	721	0	0			0	0			1				0	
6.6.1	win	2023-06-27	16:57:27	17:00:38	188240	6130ea03d6862384241af61a	4	1	practice_z	5	advance_on_keypress_ZEE	14	stimuli_target_rectanglediamonds.svg	stimuli_distractor_trianglediamonds.svg	4	yes	57	0	644	0	0			0	0			1				0	
6.6.1	win	2023-06-27	16:57:27	17:00:41	191757	6130ea03d6862384241af61a	4	1	practice_z	5	practice_z	15	stimuli_distractor_trianglediamonds.svg	stimuli_distractor_diamondtriangles.svg	16	no	44	0	1238	0	0			0	0			1				0	
6.6.1	win	2023-06-27	16:57:27	17:00:41	191757	6130ea03d6862384241af61a	4	1	practice_z	5	advance_on_keypress_ZEE	16	stimuli_distractor_trianglediamonds.svg	stimuli_distractor_diamondtriangles.svg	16	no	57	0	1616	0	0			0	0			1				0	
6.6.1	win	2023-06-27	16:57:27	17:00:45	195697	6130ea03d6862384241af61a	4	1	practice_z	5	practice_z	17	stimuli_distractor_diamondtriangles.svg	stimuli_target_diamondrectangles.svg	8	yes	44	1	679	0	0			0	0			1				0	
6.6.1	win	2023-06-27	16:57:27	17:00:45	195697	6130ea03d6862384241af61a	4	1	practice_z	5	advance_on_keypress_ZEE	18	stimuli_distractor_diamondtriangles.svg	stimuli_target_diamondrectangles.svg	8	yes	57	0	625	0	0			0	0			1				0	
6.6.1	win	2023-06-27	16:57:27	17:00:48	198706	6130ea03d6862384241af61a	4	1	practice_z	5	practice_z	19	stimuli_target_squarediamonds.svg	stimuli_distractor_diamondtriangles.svg	2	yes	44	1	755	0	0			0	0			1				0	
6.6.1	win	2023-06-27	16:57:27	17:00:48	198706	6130ea03d6862384241af61a	4	1	practice_z	5	advance_on_keypress_ZEE	20	stimuli_target_squarediamonds.svg	stimuli_distractor_diamondtriangles.svg	2	yes	57	0	1023	0	0			0	0			1				0	
6.6.1	win	2023-06-27	16:57:27	17:00:52	202333	6130ea03d6862384241af61a	4	1	practice_z	5	practice_z	21	stimuli_distractor_diamondtriangles.svg	stimuli_target_trianglerectangles.svg	9	yes	44	1	965	0	0			0	0			1				0	
6.6.1	win	2023-06-27	16:57:27	17:00:52	202333	6130ea03d6862384241af61a	4	1	practice_z	5	advance_on_keypress_ZEE	22	stimuli_distractor_diamondtriangles.svg	stimuli_target_trianglerectangles.svg	9	yes	57	0	335	0	0			0	0			1				0	
6.6.1	win	2023-06-27	16:57:27	17:00:55	205031	6130ea03d6862384241af61a	4	1	practice_z	5	practice_z	23	stimuli_distractor_trianglediamonds.svg	stimuli_target_diamondrectangles.svg	12	yes	44	1	713	0	0			0	0			1				0	
6.6.1	win	2023-06-27	16:57:27	17:00:55	205031	6130ea03d6862384241af61a	4	1	practice_z	5	advance_on_keypress_ZEE	24	stimuli_distractor_trianglediamonds.svg	stimuli_target_diamondrectangles.svg	12	yes	57	0	287	0	0			0	0			1				0	
6.6.1	win	2023-06-27	16:57:27	17:00:57	207575	6130ea03d6862384241af61a	4	1	practice_z	5	practice_z	25	stimuli_target_squarediamonds.svg	stimuli_distractor_trianglediamonds.svg	5	yes	44	1	608	0	0			0	0			1				0	
6.6.1	win	2023-06-27	16:57:27	17:00:57	207575	6130ea03d6862384241af61a	4	1	practice_z	5	advance_on_keypress_ZEE	26	stimuli_target_squarediamonds.svg	stimuli_distractor_trianglediamonds.svg	5	yes	57	0	391	0	0			0	0			1				0	
6.6.1	win	2023-06-27	16:57:27	17:01:01	211601	6130ea03d6862384241af61a	4	1	practice_z	5	practice_z	27	stimuli_distractor_trianglediamonds.svg	stimuli_distractor_trianglediamonds.svg	15	no	0	1	2000	0	0			0	0			1				0	
6.6.1	win	2023-06-27	16:57:27	17:01:01	211601	6130ea03d6862384241af61a	4	1	practice_z	5	advance_on_keypress_ZEE	28	stimuli_distractor_trianglediamonds.svg	stimuli_distractor_trianglediamonds.svg	15	no	57	0	659	0	0			0	0			1				0	
6.6.1	win	2023-06-27	16:57:27	17:01:04	214546	6130ea03d6862384241af61a	4	1	practice_z	5	practice_z	29	stimuli_distractor_trianglediamonds.svg	stimuli_target_squarediamonds.svg	11	yes	44	1	646	0	0			0	0			1				0	
6.6.1	win	2023-06-27	16:57:27	17:01:04	214546	6130ea03d6862384241af61a	4	1	practice_z	5	advance_on_keypress_ZEE	30	stimuli_distractor_trianglediamonds.svg	stimuli_target_squarediamonds.svg	11	yes	57	0	952	0	0			0	0			1				0	
6.6.1	win	2023-06-27	16:57:27	17:01:07	217790	6130ea03d6862384241af61a	4	1	practice_z	5	practice_z	31	stimuli_distractor_trianglediamonds.svg	stimuli_target_rectanglediamonds.svg	10	yes	44	1	641	0	0			0	0			1				0	
6.6.1	win	2023-06-27	16:57:27	17:01:07	217790	6130ea03d6862384241af61a	4	1	practice_z	5	advance_on_keypress_ZEE	32	stimuli_distractor_trianglediamonds.svg	stimuli_target_rectanglediamonds.svg	10	yes	57	0	1639	0	0			0	0			1				0	
6.6.1	win	2023-06-27	16:57:27	17:01:19	229561	6130ea03d6862384241af61a	4	1	main_z	7	main_z	1	stimuli_target_diamondsquares.svg	stimuli_distractor_trianglediamonds.svg	20	yes	44	1	696	0	0			0	0			1				0	
6.6.1	win	2023-06-27	16:57:27	17:01:19	229561	6130ea03d6862384241af61a	4	1	main_z	7	advance_on_keypress_ZEE	2	stimuli_target_diamondsquares.svg	stimuli_distractor_trianglediamonds.svg	20	yes	57	0	2174	0	0			0	0			1				0	
6.6.1	win	2023-06-27	16:57:27	17:01:23	233015	6130ea03d6862384241af61a	4	1	main_z	7	main_z	3	stimuli_distractor_diamondtriangles.svg	stimuli_target_trianglesquares.svg	30	yes	44	1	634	0	0			0	0			1				0	
6.6.1	win	2023-06-27	16:57:27	17:01:23	233015	6130ea03d6862384241af61a	4	1	main_z	7	advance_on_keypress_ZEE	4	stimuli_distractor_diamondtriangles.svg	stimuli_target_trianglesquares.svg	30	yes	57	0	1347	0	0			0	0			1				0	
6.6.1	win	2023-06-27	16:57:27	17:01:27	237014	6130ea03d6862384241af61a	4	1	main_z	7	main_z	5	stimuli_distractor_trianglediamonds.svg	stimuli_distractor_trianglediamonds.svg	34	no	0	1	2000	0	0			0	0			1				0	
6.6.1	win	2023-06-27	16:57:27	17:01:27	237014	6130ea03d6862384241af61a	4	1	main_z	7	advance_on_keypress_ZEE	6	stimuli_distractor_trianglediamonds.svg	stimuli_distractor_trianglediamonds.svg	34	no	57	0	894	0	0			0	0			1				0	
6.6.1	win	2023-06-27	16:57:27	17:01:29	239181	6130ea03d6862384241af61a	4	1	main_z	7	main_z	7	stimuli_target_rectangletriangles.svg	stimuli_distractor_diamondtriangles.svg	5	yes	44	1	633	0	0			0	0			1				0	
6.6.1	win	2023-06-27	16:57:27	17:01:29	239181	6130ea03d6862384241af61a	4	1	main_z	7	advance_on_keypress_ZEE	8	stimuli_target_rectangletriangles.svg	stimuli_distractor_diamondtriangles.svg	5	yes	57	0	1509	0	0			0	0			1				0	
6.6.1	win	2023-06-27	16:57:27	17:01:31	241880	6130ea03d6862384241af61a	4	1	main_z	7	main_z	9	stimuli_distractor_trianglediamonds.svg	stimuli_target_trianglesquares.svg	26	yes	44	1	550	0	0			0	0			1				0	
6.6.1	win	2023-06-27	16:57:27	17:01:31	241880	6130ea03d6862384241af61a	4	1	main_z	7	advance_on_keypress_ZEE	10	stimuli_distractor_trianglediamonds.svg	stimuli_target_trianglesquares.svg	26	yes	57	0	784	0	0			0	0			1				0	
6.6.1	win	2023-06-27	16:57:27	17:01:35	245314	6130ea03d6862384241af61a	4	1	main_z	7	main_z	11	stimuli_distractor_trianglediamonds.svg	stimuli_distractor_diamondtriangles.svg	35	no	0	1	2000	0	0			0	0			1				0	
6.6.1	win	2023-06-27	16:57:27	17:01:35	245314	6130ea03d6862384241af61a	4	1	main_z	7	advance_on_keypress_ZEE	12	stimuli_distractor_trianglediamonds.svg	stimuli_distractor_diamondtriangles.svg	35	no	57	0	643	0	0			0	0			1				0	
6.6.1	win	2023-06-27	16:57:27	17:01:37	247120	6130ea03d6862384241af61a	4	1	main_z	7	main_z	13	stimuli_target_rectanglediamonds.svg	stimuli_distractor_trianglediamonds.svg	2	yes	44	1	522	0	0			0	0			1				0	
6.6.1	win	2023-06-27	16:57:27	17:01:37	247120	6130ea03d6862384241af61a	4	1	main_z	7	advance_on_keypress_ZEE	14	stimuli_target_rectanglediamonds.svg	stimuli_distractor_trianglediamonds.svg	2	yes	57	0	739	0	0			0	0			1				0	
6.6.1	win	2023-06-27	16:57:27	17:01:39	249151	6130ea03d6862384241af61a	4	1	main_z	7	main_z	15	stimuli_distractor_diamondtriangles.svg	stimuli_target_rectanglediamonds.svg	14	yes	44	1	654	0	0			0	0			1				0	
6.6.1	win	2023-06-27	16:57:27	17:01:39	249151	6130ea03d6862384241af61a	4	1	main_z	7	advance_on_keypress_ZEE	16	stimuli_distractor_diamondtriangles.svg	stimuli_target_rectanglediamonds.svg	14	yes	57	0	1022	0	0			0	0			1				0	
6.6.1	win	2023-06-27	16:57:27	17:01:41	251761	6130ea03d6862384241af61a	4	1	main_z	7	main_z	17	stimuli_target_squaretriangles.svg	stimuli_distractor_diamondtriangles.svg	7	yes	44	1	931	0	0			0	0			1				0	
6.6.1	win	2023-06-27	16:57:27	17:01:41	251761	6130ea03d6862384241af61a	4	1	main_z	7	advance_on_keypress_ZEE	18	stimuli_target_squaretriangles.svg	stimuli_distractor_diamondtriangles.svg	7	yes	57	0	693	0	0			0	0			1				0	
6.6.1	win	2023-06-27	16:57:27	17:01:43	253629	6130ea03d6862384241af61a	4	1	main_z	7	main_z	19	stimuli_target_rectanglediamonds.svg	stimuli_distractor_diamondtriangles.svg	6	yes	44	1	533	0	0			0	0			1				0	
6.6.1	win	2023-06-27	16:57:27	17:01:43	253629	6130ea03d6862384241af61a	4	1	main_z	7	advance_on_keypress_ZEE	20	stimuli_target_rectanglediamonds.svg	stimuli_distractor_diamondtriangles.svg	6	yes	57	0	690	0	0			0	0			1				0	
6.6.1	win	2023-06-27	16:57:27	17:01:47	256963	6130ea03d6862384241af61a	4	1	main_z	7	main_z	21	stimuli_distractor_diamondtriangles.svg	stimuli_distractor_diamondtriangles.svg	40	no	0	1	2000	0	0			0	0			1				0	
6.6.1	win	2023-06-27	16:57:27	17:01:47	256963	6130ea03d6862384241af61a	4	1	main_z	7	advance_on_keypress_ZEE	22	stimuli_distractor_diamondtriangles.svg	stimuli_distractor_diamondtriangles.svg	40	no	57	0	456	0	0			0	0			1				0	
6.6.1	win	2023-06-27	16:57:27	17:01:48	258716	6130ea03d6862384241af61a	4	1	main_z	7	main_z	23	stimuli_target_diamondrectangles.svg	stimuli_distractor_diamondtriangles.svg	23	yes	44	1	653	0	0			0	0			1				0	
6.6.1	win	2023-06-27	16:57:27	17:01:48	258716	6130ea03d6862384241af61a	4	1	main_z	7	advance_on_keypress_ZEE	24	stimuli_target_diamondrectangles.svg	stimuli_distractor_diamondtriangles.svg	23	yes	57	0	759	0	0			0	0			1				0	
6.6.1	win	2023-06-27	16:57:27	17:01:50	260838	6130ea03d6862384241af61a	4	1	main_z	7	main_z	25	stimuli_distractor_diamondtriangles.svg	stimuli_target_squarediamonds.svg	16	yes	44	1	726	0	0			0	0			1				0	
6.6.1	win	2023-06-27	16:57:27	17:01:50	260838	6130ea03d6862384241af61a	4	1	main_z	7	advance_on_keypress_ZEE	26	stimuli_distractor_diamondtriangles.svg	stimuli_target_squarediamonds.svg	16	yes	57	0	699	0	0			0	0			1				0	
6.6.1	win	2023-06-27	16:57:27	17:01:54	264179	6130ea03d6862384241af61a	4	1	main_z	7	main_z	27	stimuli_distractor_trianglediamonds.svg	stimuli_distractor_trianglediamonds.svg	33	no	0	1	2000	0	0			0	0			1				0	
6.6.1	win	2023-06-27	16:57:27	17:01:54	264179	6130ea03d6862384241af61a	4	1	main_z	7	advance_on_keypress_ZEE	28	stimuli_distractor_trianglediamonds.svg	stimuli_distractor_trianglediamonds.svg	33	no	57	0	1682	0	0			0	0			1				0	
6.6.1	win	2023-06-27	16:57:27	17:01:57	266975	6130ea03d6862384241af61a	4	1	main_z	7	main_z	29	stimuli_distractor_trianglediamonds.svg	stimuli_target_squarediamonds.svg	12	yes	44	1	463	0	0			0	0			1				0	
6.6.1	win	2023-06-27	16:57:27	17:01:57	266975	6130ea03d6862384241af61a	4	1	main_z	7	advance_on_keypress_ZEE	30	stimuli_distractor_trianglediamonds.svg	stimuli_target_squarediamonds.svg	12	yes	57	0	662	0	0			0	0			1				0	
6.6.1	win	2023-06-27	16:57:27	17:01:58	268687	6130ea03d6862384241af61a	4	1	main_z	7	main_z	31	stimuli_distractor_trianglediamonds.svg	stimuli_target_rectangletriangles.svg	9	yes	44	1	425	0	0			0	0			1				0	
6.6.1	win	2023-06-27	16:57:27	17:01:58	268687	6130ea03d6862384241af61a	4	1	main_z	7	advance_on_keypress_ZEE	32	stimuli_distractor_trianglediamonds.svg	stimuli_target_rectangletriangles.svg	9	yes	57	0	576	0	0			0	0			1				0	
6.6.1	win	2023-06-27	16:57:27	17:02:01	271896	6130ea03d6862384241af61a	4	1	main_z	7	main_z	33	stimuli_distractor_diamondtriangles.svg	stimuli_distractor_trianglediamonds.svg	38	no	0	1	2000	0	0			0	0			1				0	
6.6.1	win	2023-06-27	16:57:27	17:02:01	271896	6130ea03d6862384241af61a	4	1	main_z	7	advance_on_keypress_ZEE	34	stimuli_distractor_diamondtriangles.svg	stimuli_distractor_trianglediamonds.svg	38	no	57	0	350	0	0			0	0			1				0	
6.6.1	win	2023-06-27	16:57:27	17:02:03	273404	6130ea03d6862384241af61a	4	1	main_z	7	main_z	35	stimuli_target_squarediamonds.svg	stimuli_distractor_trianglediamonds.svg	4	yes	44	1	509	0	0			0	0			1				0	
6.6.1	win	2023-06-27	16:57:27	17:02:03	273404	6130ea03d6862384241af61a	4	1	main_z	7	advance_on_keypress_ZEE	36	stimuli_target_squarediamonds.svg	stimuli_distractor_trianglediamonds.svg	4	yes	57	0	1273	0	0			0	0			1				0	
6.6.1	win	2023-06-27	16:57:27	17:02:05	275788	6130ea03d6862384241af61a	4	1	main_z	7	main_z	37	stimuli_target_rectangletriangles.svg	stimuli_distractor_trianglediamonds.svg	1	yes	44	1	477	0	0			0	0			1				0	
6.6.1	win	2023-06-27	16:57:27	17:02:05	275788	6130ea03d6862384241af61a	4	1	main_z	7	advance_on_keypress_ZEE	38	stimuli_target_rectangletriangles.svg	stimuli_distractor_trianglediamonds.svg	1	yes	57	0	599	0	0			0	0			1				0	
6.6.1	win	2023-06-27	16:57:27	17:02:09	279028	6130ea03d6862384241af61a	4	1	main_z	7	main_z	39	stimuli_target_diamondsquares.svg	stimuli_distractor_diamondtriangles.svg	24	yes	0	0	2000	0	0			0	0			1				0	
6.6.1	win	2023-06-27	16:57:27	17:02:09	279028	6130ea03d6862384241af61a	4	1	main_z	7	advance_on_keypress_ZEE	40	stimuli_target_diamondsquares.svg	stimuli_distractor_diamondtriangles.svg	24	yes	57	0	429	0	0			0	0			1				0	
6.6.1	win	2023-06-27	16:57:27	17:02:12	282095	6130ea03d6862384241af61a	4	1	main_z	7	main_z	41	stimuli_distractor_trianglediamonds.svg	stimuli_distractor_diamondtriangles.svg	36	no	0	1	2000	0	0			0	0			1				0	
6.6.1	win	2023-06-27	16:57:27	17:02:12	282095	6130ea03d6862384241af61a	4	1	main_z	7	advance_on_keypress_ZEE	42	stimuli_distractor_trianglediamonds.svg	stimuli_distractor_diamondtriangles.svg	36	no	57	0	201	0	0			0	0			1				0	
6.6.1	win	2023-06-27	16:57:27	17:02:13	283542	6130ea03d6862384241af61a	4	1	main_z	7	main_z	43	stimuli_distractor_trianglediamonds.svg	stimuli_target_rectanglediamonds.svg	10	yes	44	1	597	0	0			0	0			1				0	
6.6.1	win	2023-06-27	16:57:27	17:02:13	283542	6130ea03d6862384241af61a	4	1	main_z	7	advance_on_keypress_ZEE	44	stimuli_distractor_trianglediamonds.svg	stimuli_target_rectanglediamonds.svg	10	yes	57	0	594	0	0			0	0			1				0	
6.6.1	win	2023-06-27	16:57:27	17:02:15	285363	6130ea03d6862384241af61a	4	1	main_z	7	main_z	45	stimuli_distractor_trianglediamonds.svg	stimuli_target_diamondsquares.svg	28	yes	44	1	585	0	0			0	0			1				0	
6.6.1	win	2023-06-27	16:57:27	17:02:15	285363	6130ea03d6862384241af61a	4	1	main_z	7	advance_on_keypress_ZEE	46	stimuli_distractor_trianglediamonds.svg	stimuli_target_diamondsquares.svg	28	yes	57	0	486	0	0			0	0			1				0	
6.6.1	win	2023-06-27	16:57:27	17:02:17	287310	6130ea03d6862384241af61a	4	1	main_z	7	main_z	47	stimuli_distractor_trianglediamonds.svg	stimuli_target_trianglerectangles.svg	25	yes	44	1	815	0	0			0	0			1				0	
6.6.1	win	2023-06-27	16:57:27	17:02:17	287310	6130ea03d6862384241af61a	4	1	main_z	7	advance_on_keypress_ZEE	48	stimuli_distractor_trianglediamonds.svg	stimuli_target_trianglerectangles.svg	25	yes	57	0	416	0	0			0	0			1				0	
6.6.1	win	2023-06-27	16:57:27	17:02:18	288882	6130ea03d6862384241af61a	4	1	main_z	7	main_z	49	stimuli_target_squaretriangles.svg	stimuli_distractor_trianglediamonds.svg	3	yes	44	1	503	0	0			0	0			1				0	
6.6.1	win	2023-06-27	16:57:27	17:02:18	288882	6130ea03d6862384241af61a	4	1	main_z	7	advance_on_keypress_ZEE	50	stimuli_target_squaretriangles.svg	stimuli_distractor_trianglediamonds.svg	3	yes	57	0	504	0	0			0	0			1				0	
6.6.1	win	2023-06-27	16:57:27	17:02:20	290780	6130ea03d6862384241af61a	4	1	main_z	7	main_z	51	stimuli_distractor_diamondtriangles.svg	stimuli_target_diamondsquares.svg	32	yes	44	1	753	0	0			0	0			1				0	
6.6.1	win	2023-06-27	16:57:27	17:02:20	290780	6130ea03d6862384241af61a	4	1	main_z	7	advance_on_keypress_ZEE	52	stimuli_distractor_diamondtriangles.svg	stimuli_target_diamondsquares.svg	32	yes	57	0	396	0	0			0	0			1				0	
6.6.1	win	2023-06-27	16:57:27	17:02:22	292351	6130ea03d6862384241af61a	4	1	main_z	7	main_z	53	stimuli_target_trianglesquares.svg	stimuli_distractor_trianglediamonds.svg	18	yes	44	1	541	0	0			0	0			1				0	
6.6.1	win	2023-06-27	16:57:27	17:02:22	292351	6130ea03d6862384241af61a	4	1	main_z	7	advance_on_keypress_ZEE	54	stimuli_target_trianglesquares.svg	stimuli_distractor_trianglediamonds.svg	18	yes	57	0	479	0	0			0	0			1				0	
6.6.1	win	2023-06-27	16:57:27	17:02:23	293956	6130ea03d6862384241af61a	4	1	main_z	7	main_z	55	stimuli_target_trianglerectangles.svg	stimuli_distractor_diamondtriangles.svg	21	yes	44	1	496	0	0			0	0			1				0	
6.6.1	win	2023-06-27	16:57:27	17:02:23	293956	6130ea03d6862384241af61a	4	1	main_z	7	advance_on_keypress_ZEE	56	stimuli_target_trianglerectangles.svg	stimuli_distractor_diamondtriangles.svg	21	yes	57	0	488	0	0			0	0			1				0	
6.6.1	win	2023-06-27	16:57:27	17:02:25	295456	6130ea03d6862384241af61a	4	1	main_z	7	main_z	57	stimuli_target_squarediamonds.svg	stimuli_distractor_diamondtriangles.svg	8	yes	44	1	379	0	0			0	0			1				0	
6.6.1	win	2023-06-27	16:57:27	17:02:25	295456	6130ea03d6862384241af61a	4	1	main_z	7	advance_on_keypress_ZEE	58	stimuli_target_squarediamonds.svg	stimuli_distractor_diamondtriangles.svg	8	yes	57	0	486	0	0			0	0			1				0	
6.6.1	win	2023-06-27	16:57:27	17:02:27	297010	6130ea03d6862384241af61a	4	1	main_z	7	main_z	59	stimuli_distractor_trianglediamonds.svg	stimuli_target_squaretriangles.svg	11	yes	44	1	432	0	0			0	0			1				0	
6.6.1	win	2023-06-27	16:57:27	17:02:27	297010	6130ea03d6862384241af61a	4	1	main_z	7	advance_on_keypress_ZEE	60	stimuli_distractor_trianglediamonds.svg	stimuli_target_squaretriangles.svg	11	yes	57	0	392	0	0			0	0			1				0	
6.6.1	win	2023-06-27	16:57:27	17:02:28	298443	6130ea03d6862384241af61a	4	1	main_z	7	main_z	61	stimuli_target_trianglesquares.svg	stimuli_distractor_diamondtriangles.svg	22	yes	44	1	400	0	0			0	0			1				0	
6.6.1	win	2023-06-27	16:57:27	17:02:28	298443	6130ea03d6862384241af61a	4	1	main_z	7	advance_on_keypress_ZEE	62	stimuli_target_trianglesquares.svg	stimuli_distractor_diamondtriangles.svg	22	yes	57	0	391	0	0			0	0			1				0	
6.6.1	win	2023-06-27	16:57:27	17:02:29	299886	6130ea03d6862384241af61a	4	1	main_z	7	main_z	63	stimuli_distractor_diamondtriangles.svg	stimuli_target_trianglerectangles.svg	29	yes	44	1	410	0	0			0	0			1				0	
6.6.1	win	2023-06-27	16:57:27	17:02:29	299886	6130ea03d6862384241af61a	4	1	main_z	7	advance_on_keypress_ZEE	64	stimuli_distractor_diamondtriangles.svg	stimuli_target_trianglerectangles.svg	29	yes	57	0	456	0	0			0	0			1				0	
6.6.1	win	2023-06-27	16:57:27	17:02:33	302977	6130ea03d6862384241af61a	4	1	main_z	7	main_z	65	stimuli_distractor_diamondtriangles.svg	stimuli_target_rectangletriangles.svg	13	yes	0	0	2000	0	0			0	0			1				0	
6.6.1	win	2023-06-27	16:57:27	17:02:33	302977	6130ea03d6862384241af61a	4	1	main_z	7	advance_on_keypress_ZEE	66	stimuli_distractor_diamondtriangles.svg	stimuli_target_rectangletriangles.svg	13	yes	57	0	508	0	0			0	0			1				0	
6.6.1	win	2023-06-27	16:57:27	17:02:34	304737	6130ea03d6862384241af61a	4	1	main_z	7	main_z	67	stimuli_target_diamondrectangles.svg	stimuli_distractor_trianglediamonds.svg	19	yes	44	1	610	0	0			0	0			1				0	
6.6.1	win	2023-06-27	16:57:27	17:02:34	304737	6130ea03d6862384241af61a	4	1	main_z	7	advance_on_keypress_ZEE	68	stimuli_target_diamondrectangles.svg	stimuli_distractor_trianglediamonds.svg	19	yes	57	0	385	0	0			0	0			1				0	
6.6.1	win	2023-06-27	16:57:27	17:02:36	306325	6130ea03d6862384241af61a	4	1	main_z	7	main_z	69	stimuli_distractor_diamondtriangles.svg	stimuli_distractor_diamondtriangles.svg	39	no	44	0	566	0	0			0	0			1				0	
6.6.1	win	2023-06-27	16:57:27	17:02:36	306325	6130ea03d6862384241af61a	4	1	main_z	7	advance_on_keypress_ZEE	70	stimuli_distractor_diamondtriangles.svg	stimuli_distractor_diamondtriangles.svg	39	no	57	0	287	0	0			0	0			1				0	
6.6.1	win	2023-06-27	16:57:27	17:02:37	307844	6130ea03d6862384241af61a	4	1	main_z	7	main_z	71	stimuli_target_trianglerectangles.svg	stimuli_distractor_trianglediamonds.svg	17	yes	44	1	585	0	0			0	0			1				0	
6.6.1	win	2023-06-27	16:57:27	17:02:37	307844	6130ea03d6862384241af61a	4	1	main_z	7	advance_on_keypress_ZEE	72	stimuli_target_trianglerectangles.svg	stimuli_distractor_trianglediamonds.svg	17	yes	57	0	316	0	0			0	0			1				0	
6.6.1	win	2023-06-27	16:57:27	17:02:39	309299	6130ea03d6862384241af61a	4	1	main_z	7	main_z	73	stimuli_distractor_diamondtriangles.svg	stimuli_target_squaretriangles.svg	15	yes	44	1	490	0	0			0	0			1				0	
6.6.1	win	2023-06-27	16:57:27	17:02:39	309299	6130ea03d6862384241af61a	4	1	main_z	7	advance_on_keypress_ZEE	74	stimuli_distractor_diamondtriangles.svg	stimuli_target_squaretriangles.svg	15	yes	57	0	347	0	0			0	0			1				0	
6.6.1	win	2023-06-27	16:57:27	17:02:41	311355	6130ea03d6862384241af61a	4	1	main_z	7	main_z	75	stimuli_distractor_diamondtriangles.svg	stimuli_target_diamondrectangles.svg	31	yes	44	1	1062	0	0			0	0			1				0	
6.6.1	win	2023-06-27	16:57:27	17:02:41	311355	6130ea03d6862384241af61a	4	1	main_z	7	advance_on_keypress_ZEE	76	stimuli_distractor_diamondtriangles.svg	stimuli_target_diamondrectangles.svg	31	yes	57	0	224	0	0			0	0			1				0	
6.6.1	win	2023-06-27	16:57:27	17:02:44	314209	6130ea03d6862384241af61a	4	1	main_z	7	main_z	77	stimuli_distractor_trianglediamonds.svg	stimuli_target_diamondrectangles.svg	27	yes	0	0	2000	0	0			0	0			1				0	
6.6.1	win	2023-06-27	16:57:27	17:02:44	314209	6130ea03d6862384241af61a	4	1	main_z	7	advance_on_keypress_ZEE	78	stimuli_distractor_trianglediamonds.svg	stimuli_target_diamondrectangles.svg	27	yes	57	0	1556	0	0			0	0			1				0	
6.6.1	win	2023-06-27	16:57:27	17:02:48	318409	6130ea03d6862384241af61a	4	1	main_z	7	main_z	79	stimuli_distractor_diamondtriangles.svg	stimuli_distractor_trianglediamonds.svg	37	no	0	1	2000	0	0			0	0			1				0	
6.6.1	win	2023-06-27	16:57:27	17:02:48	318409	6130ea03d6862384241af61a	4	1	main_z	7	advance_on_keypress_ZEE	80	stimuli_distractor_diamondtriangles.svg	stimuli_distractor_trianglediamonds.svg	37	no	57	0	729	0	0			0	0			1				0	
6.6.1	win	2023-06-27	16:57:27	17:02:50	320229	6130ea03d6862384241af61a	4	1	main_z	7	main_z	81	stimuli_distractor_trianglediamonds.svg	stimuli_target_diamondrectangles.svg	27	yes	44	1	454	0	0			0	0			1				0	
6.6.1	win	2023-06-27	16:57:27	17:02:50	320229	6130ea03d6862384241af61a	4	1	main_z	7	advance_on_keypress_ZEE	82	stimuli_distractor_trianglediamonds.svg	stimuli_target_diamondrectangles.svg	27	yes	57	0	307	0	0			0	0			1				0	
6.6.1	win	2023-06-27	16:57:27	17:02:53	323175	6130ea03d6862384241af61a	4	1	main_z	7	main_z	83	stimuli_distractor_diamondtriangles.svg	stimuli_target_squaretriangles.svg	15	yes	0	0	2000	0	0			0	0			1				0	
6.6.1	win	2023-06-27	16:57:27	17:02:53	323175	6130ea03d6862384241af61a	4	1	main_z	7	advance_on_keypress_ZEE	84	stimuli_distractor_diamondtriangles.svg	stimuli_target_squaretriangles.svg	15	yes	57	0	1011	0	0			0	0			1				0	
6.6.1	win	2023-06-27	16:57:27	17:02:55	325158	6130ea03d6862384241af61a	4	1	main_z	7	main_z	85	stimuli_distractor_diamondtriangles.svg	stimuli_target_rectangletriangles.svg	13	yes	44	1	333	0	0			0	0			1				0	
6.6.1	win	2023-06-27	16:57:27	17:02:55	325158	6130ea03d6862384241af61a	4	1	main_z	7	advance_on_keypress_ZEE	86	stimuli_distractor_diamondtriangles.svg	stimuli_target_rectangletriangles.svg	13	yes	57	0	808	0	0			0	0			1				0	
6.6.1	win	2023-06-27	16:57:27	17:02:57	327113	6130ea03d6862384241af61a	4	1	main_z	7	main_z	87	stimuli_target_rectangletriangles.svg	stimuli_distractor_trianglediamonds.svg	1	yes	44	1	502	0	0			0	0			1				0	
6.6.1	win	2023-06-27	16:57:27	17:02:57	327113	6130ea03d6862384241af61a	4	1	main_z	7	advance_on_keypress_ZEE	88	stimuli_target_rectangletriangles.svg	stimuli_distractor_trianglediamonds.svg	1	yes	57	0	1585	0	0			0	0			1				0	
6.6.1	win	2023-06-27	16:57:27	17:02:59	329739	6130ea03d6862384241af61a	4	1	main_z	7	main_z	89	stimuli_distractor_trianglediamonds.svg	stimuli_target_rectanglediamonds.svg	10	yes	44	1	397	0	0			0	0			1				0	
6.6.1	win	2023-06-27	16:57:27	17:02:59	329739	6130ea03d6862384241af61a	4	1	main_z	7	advance_on_keypress_ZEE	90	stimuli_distractor_trianglediamonds.svg	stimuli_target_rectanglediamonds.svg	10	yes	57	0	902	0	0			0	0			1				0	
6.6.1	win	2023-06-27	16:57:27	17:03:01	331589	6130ea03d6862384241af61a	4	1	main_z	7	main_z	91	stimuli_distractor_trianglediamonds.svg	stimuli_distractor_diamondtriangles.svg	36	no	44	0	298	0	0			0	0			1				0	
6.6.1	win	2023-06-27	16:57:27	17:03:01	331589	6130ea03d6862384241af61a	4	1	main_z	7	advance_on_keypress_ZEE	92	stimuli_distractor_trianglediamonds.svg	stimuli_distractor_diamondtriangles.svg	36	no	57	0	1217	0	0			0	0			1				0	
6.6.1	win	2023-06-27	16:57:27	17:03:04	334276	6130ea03d6862384241af61a	4	1	main_z	7	main_z	93	stimuli_target_trianglesquares.svg	stimuli_distractor_trianglediamonds.svg	18	yes	44	1	818	0	0			0	0			1				0	
6.6.1	win	2023-06-27	16:57:27	17:03:04	334276	6130ea03d6862384241af61a	4	1	main_z	7	advance_on_keypress_ZEE	94	stimuli_target_trianglesquares.svg	stimuli_distractor_trianglediamonds.svg	18	yes	57	0	970	0	0			0	0			1				0	
6.6.1	win	2023-06-27	16:57:27	17:03:06	336343	6130ea03d6862384241af61a	4	1	main_z	7	main_z	95	stimuli_target_trianglesquares.svg	stimuli_distractor_diamondtriangles.svg	22	yes	44	1	453	0	0			0	0			1				0	
6.6.1	win	2023-06-27	16:57:27	17:03:06	336343	6130ea03d6862384241af61a	4	1	main_z	7	advance_on_keypress_ZEE	96	stimuli_target_trianglesquares.svg	stimuli_distractor_diamondtriangles.svg	22	yes	57	0	1243	0	0			0	0			1				0	
6.6.1	win	2023-06-27	16:57:27	17:03:08	338793	6130ea03d6862384241af61a	4	1	main_z	7	main_z	97	stimuli_target_rectanglediamonds.svg	stimuli_distractor_trianglediamonds.svg	2	yes	44	1	569	0	0			0	0			1				0	
6.6.1	win	2023-06-27	16:57:27	17:03:08	338793	6130ea03d6862384241af61a	4	1	main_z	7	advance_on_keypress_ZEE	98	stimuli_target_rectanglediamonds.svg	stimuli_distractor_trianglediamonds.svg	2	yes	57	0	536	0	0			0	0			1				0	
6.6.1	win	2023-06-27	16:57:27	17:03:10	340903	6130ea03d6862384241af61a	4	1	main_z	7	main_z	99	stimuli_distractor_diamondtriangles.svg	stimuli_target_trianglesquares.svg	30	yes	44	1	930	0	0			0	0			1				0	
6.6.1	win	2023-06-27	16:57:27	17:03:10	340903	6130ea03d6862384241af61a	4	1	main_z	7	advance_on_keypress_ZEE	100	stimuli_distractor_diamondtriangles.svg	stimuli_target_trianglesquares.svg	30	yes	57	0	3103	0	0			0	0			1				0	
6.6.1	win	2023-06-27	16:57:27	17:03:15	345019	6130ea03d6862384241af61a	4	1	main_z	7	main_z	101	stimuli_distractor_diamondtriangles.svg	stimuli_distractor_trianglediamonds.svg	38	no	44	0	362	0	0			0	0			1				0	
6.6.1	win	2023-06-27	16:57:27	17:03:15	345019	6130ea03d6862384241af61a	4	1	main_z	7	advance_on_keypress_ZEE	102	stimuli_distractor_diamondtriangles.svg	stimuli_distractor_trianglediamonds.svg	38	no	57	0	947	0	0			0	0			1				0	
6.6.1	win	2023-06-27	16:57:27	17:03:17	347233	6130ea03d6862384241af61a	4	1	main_z	7	main_z	103	stimuli_target_trianglerectangles.svg	stimuli_distractor_trianglediamonds.svg	17	yes	44	1	627	0	0			0	0			1				0	
6.6.1	win	2023-06-27	16:57:27	17:03:17	347233	6130ea03d6862384241af61a	4	1	main_z	7	advance_on_keypress_ZEE	104	stimuli_target_trianglerectangles.svg	stimuli_distractor_trianglediamonds.svg	17	yes	57	0	1232	0	0			0	0			1				0	
6.6.1	win	2023-06-27	16:57:27	17:03:21	351106	6130ea03d6862384241af61a	4	1	main_z	7	main_z	105	stimuli_distractor_trianglediamonds.svg	stimuli_distractor_diamondtriangles.svg	35	no	0	1	2000	0	0			0	0			1				0	
6.6.1	win	2023-06-27	16:57:27	17:03:21	351106	6130ea03d6862384241af61a	4	1	main_z	7	advance_on_keypress_ZEE	106	stimuli_distractor_trianglediamonds.svg	stimuli_distractor_diamondtriangles.svg	35	no	57	0	1119	0	0			0	0			1				0	
6.6.1	win	2023-06-27	16:57:27	17:03:23	353427	6130ea03d6862384241af61a	4	1	main_z	7	main_z	107	stimuli_distractor_diamondtriangles.svg	stimuli_target_squarediamonds.svg	16	yes	44	1	555	0	0			0	0			1				0	
6.6.1	win	2023-06-27	16:57:27	17:03:23	353427	6130ea03d6862384241af61a	4	1	main_z	7	advance_on_keypress_ZEE	108	stimuli_distractor_diamondtriangles.svg	stimuli_target_squarediamonds.svg	16	yes	57	0	894	0	0			0	0			1				0	
6.6.1	win	2023-06-27	16:57:27	17:03:25	355767	6130ea03d6862384241af61a	4	1	main_z	7	main_z	109	stimuli_distractor_diamondtriangles.svg	stimuli_target_trianglerectangles.svg	29	yes	44	1	811	0	0			0	0			1				0	
6.6.1	win	2023-06-27	16:57:27	17:03:25	355767	6130ea03d6862384241af61a	4	1	main_z	7	advance_on_keypress_ZEE	110	stimuli_distractor_diamondtriangles.svg	stimuli_target_trianglerectangles.svg	29	yes	57	0	1304	0	0			0	0			1				0	
6.6.1	win	2023-06-27	16:57:27	17:03:28	358580	6130ea03d6862384241af61a	4	1	main_z	7	main_z	111	stimuli_distractor_diamondtriangles.svg	stimuli_target_rectanglediamonds.svg	14	yes	44	1	875	0	0			0	0			1				0	
6.6.1	win	2023-06-27	16:57:27	17:03:28	358580	6130ea03d6862384241af61a	4	1	main_z	7	advance_on_keypress_ZEE	112	stimuli_distractor_diamondtriangles.svg	stimuli_target_rectanglediamonds.svg	14	yes	57	0	1115	0	0			0	0			1				0	
6.6.1	win	2023-06-27	16:57:27	17:03:31	361371	6130ea03d6862384241af61a	4	1	main_z	7	main_z	113	stimuli_target_rectanglediamonds.svg	stimuli_distractor_diamondtriangles.svg	6	yes	44	1	1032	0	0			0	0			1				0	
6.6.1	win	2023-06-27	16:57:27	17:03:31	361371	6130ea03d6862384241af61a	4	1	main_z	7	advance_on_keypress_ZEE	114	stimuli_target_rectanglediamonds.svg	stimuli_distractor_diamondtriangles.svg	6	yes	57	0	1810	0	0			0	0			1				0	
6.6.1	win	2023-06-27	16:57:27	17:03:34	364368	6130ea03d6862384241af61a	4	1	main_z	7	main_z	115	stimuli_target_trianglerectangles.svg	stimuli_distractor_diamondtriangles.svg	21	yes	44	1	547	0	0			0	0			1				0	
6.6.1	win	2023-06-27	16:57:27	17:03:34	364368	6130ea03d6862384241af61a	4	1	main_z	7	advance_on_keypress_ZEE	116	stimuli_target_trianglerectangles.svg	stimuli_distractor_diamondtriangles.svg	21	yes	57	0	964	0	0			0	0			1				0	
6.6.1	win	2023-06-27	16:57:27	17:03:36	366534	6130ea03d6862384241af61a	4	1	main_z	7	main_z	117	stimuli_distractor_trianglediamonds.svg	stimuli_target_squarediamonds.svg	12	yes	44	1	545	0	0			0	0			1				0	
6.6.1	win	2023-06-27	16:57:27	17:03:36	366534	6130ea03d6862384241af61a	4	1	main_z	7	advance_on_keypress_ZEE	118	stimuli_distractor_trianglediamonds.svg	stimuli_target_squarediamonds.svg	12	yes	57	0	571	0	0			0	0			1				0	
6.6.1	win	2023-06-27	16:57:27	17:03:38	368120	6130ea03d6862384241af61a	4	1	main_z	7	main_z	119	stimuli_target_squarediamonds.svg	stimuli_distractor_trianglediamonds.svg	4	yes	44	1	382	0	0			0	0			1				0	
6.6.1	win	2023-06-27	16:57:27	17:03:38	368120	6130ea03d6862384241af61a	4	1	main_z	7	advance_on_keypress_ZEE	120	stimuli_target_squarediamonds.svg	stimuli_distractor_trianglediamonds.svg	4	yes	57	0	491	0	0			0	0			1				0	
6.6.1	win	2023-06-27	16:57:27	17:03:39	369626	6130ea03d6862384241af61a	4	1	main_z	7	main_z	121	stimuli_distractor_diamondtriangles.svg	stimuli_distractor_trianglediamonds.svg	37	no	44	0	369	0	0			0	0			1				0	
6.6.1	win	2023-06-27	16:57:27	17:03:39	369626	6130ea03d6862384241af61a	4	1	main_z	7	advance_on_keypress_ZEE	122	stimuli_distractor_diamondtriangles.svg	stimuli_distractor_trianglediamonds.svg	37	no	57	0	1201	0	0			0	0			1				0	
6.6.1	win	2023-06-27	16:57:27	17:03:42	372451	6130ea03d6862384241af61a	4	1	main_z	7	main_z	123	stimuli_target_diamondrectangles.svg	stimuli_distractor_trianglediamonds.svg	19	yes	44	1	980	0	0			0	0			1				0	
6.6.1	win	2023-06-27	16:57:27	17:03:42	372451	6130ea03d6862384241af61a	4	1	main_z	7	advance_on_keypress_ZEE	124	stimuli_target_diamondrectangles.svg	stimuli_distractor_trianglediamonds.svg	19	yes	57	0	1317	0	0			0	0			1				0	
6.6.1	win	2023-06-27	16:57:27	17:03:45	375036	6130ea03d6862384241af61a	4	1	main_z	7	main_z	125	stimuli_distractor_diamondtriangles.svg	stimuli_distractor_diamondtriangles.svg	40	no	44	0	615	0	0			0	0			1				0	
6.6.1	win	2023-06-27	16:57:27	17:03:45	375036	6130ea03d6862384241af61a	4	1	main_z	7	advance_on_keypress_ZEE	126	stimuli_distractor_diamondtriangles.svg	stimuli_distractor_diamondtriangles.svg	40	no	57	0	1165	0	0			0	0			1				0	
6.6.1	win	2023-06-27	16:57:27	17:03:47	377675	6130ea03d6862384241af61a	4	1	main_z	7	main_z	127	stimuli_distractor_trianglediamonds.svg	stimuli_target_squaretriangles.svg	11	yes	44	1	820	0	0			0	0			1				0	
6.6.1	win	2023-06-27	16:57:27	17:03:47	377675	6130ea03d6862384241af61a	4	1	main_z	7	advance_on_keypress_ZEE	128	stimuli_distractor_trianglediamonds.svg	stimuli_target_squaretriangles.svg	11	yes	57	0	1088	0	0			0	0			1				0	
6.6.1	win	2023-06-27	16:57:27	17:03:51	381404	6130ea03d6862384241af61a	4	1	main_z	7	main_z	129	stimuli_distractor_trianglediamonds.svg	stimuli_distractor_trianglediamonds.svg	33	no	0	1	2000	0	0			0	0			1				0	
6.6.1	win	2023-06-27	16:57:27	17:03:51	381404	6130ea03d6862384241af61a	4	1	main_z	7	advance_on_keypress_ZEE	130	stimuli_distractor_trianglediamonds.svg	stimuli_distractor_trianglediamonds.svg	33	no	57	0	554	0	0			0	0			1				0	
6.6.1	win	2023-06-27	16:57:27	17:03:53	383205	6130ea03d6862384241af61a	4	1	main_z	7	main_z	131	stimuli_distractor_diamondtriangles.svg	stimuli_target_diamondrectangles.svg	31	yes	44	1	601	0	0			0	0			1				0	
6.6.1	win	2023-06-27	16:57:27	17:03:53	383205	6130ea03d6862384241af61a	4	1	main_z	7	advance_on_keypress_ZEE	132	stimuli_distractor_diamondtriangles.svg	stimuli_target_diamondrectangles.svg	31	yes	57	0	607	0	0			0	0			1				0	
6.6.1	win	2023-06-27	16:57:27	17:03:56	386454	6130ea03d6862384241af61a	4	1	main_z	7	main_z	133	stimuli_distractor_diamondtriangles.svg	stimuli_distractor_diamondtriangles.svg	39	no	0	1	2000	0	0			0	0			1				0	
6.6.1	win	2023-06-27	16:57:27	17:03:56	386454	6130ea03d6862384241af61a	4	1	main_z	7	advance_on_keypress_ZEE	134	stimuli_distractor_diamondtriangles.svg	stimuli_distractor_diamondtriangles.svg	39	no	57	0	422	0	0			0	0			1				0	
6.6.1	win	2023-06-27	16:57:27	17:03:58	388092	6130ea03d6862384241af61a	4	1	main_z	7	main_z	135	stimuli_target_diamondsquares.svg	stimuli_distractor_trianglediamonds.svg	20	yes	44	1	572	0	0			0	0			1				0	
6.6.1	win	2023-06-27	16:57:27	17:03:58	388092	6130ea03d6862384241af61a	4	1	main_z	7	advance_on_keypress_ZEE	136	stimuli_target_diamondsquares.svg	stimuli_distractor_trianglediamonds.svg	20	yes	57	0	752	0	0			0	0			1				0	
6.6.1	win	2023-06-27	16:57:27	17:04:00	390580	6130ea03d6862384241af61a	4	1	main_z	7	main_z	137	stimuli_distractor_trianglediamonds.svg	stimuli_target_trianglesquares.svg	26	yes	44	1	1094	0	0			0	0			1				0	
6.6.1	win	2023-06-27	16:57:27	17:04:00	390580	6130ea03d6862384241af61a	4	1	main_z	7	advance_on_keypress_ZEE	138	stimuli_distractor_trianglediamonds.svg	stimuli_target_trianglesquares.svg	26	yes	57	0	650	0	0			0	0			1				0	
6.6.1	win	2023-06-27	16:57:27	17:04:02	392674	6130ea03d6862384241af61a	4	1	main_z	7	main_z	139	stimuli_distractor_trianglediamonds.svg	stimuli_target_rectangletriangles.svg	9	yes	44	1	803	0	0			0	0			1				0	
6.6.1	win	2023-06-27	16:57:27	17:04:02	392674	6130ea03d6862384241af61a	4	1	main_z	7	advance_on_keypress_ZEE	140	stimuli_distractor_trianglediamonds.svg	stimuli_target_rectangletriangles.svg	9	yes	57	0	549	0	0			0	0			1				0	
6.6.1	win	2023-06-27	16:57:27	17:04:04	394357	6130ea03d6862384241af61a	4	1	main_z	7	main_z	141	stimuli_target_rectangletriangles.svg	stimuli_distractor_diamondtriangles.svg	5	yes	44	1	488	0	0			0	0			1				0	
6.6.1	win	2023-06-27	16:57:27	17:04:04	394357	6130ea03d6862384241af61a	4	1	main_z	7	advance_on_keypress_ZEE	142	stimuli_target_rectangletriangles.svg	stimuli_distractor_diamondtriangles.svg	5	yes	57	0	672	0	0			0	0			1				0	
6.6.1	win	2023-06-27	16:57:27	17:04:06	396279	6130ea03d6862384241af61a	4	1	main_z	7	main_z	143	stimuli_distractor_trianglediamonds.svg	stimuli_target_diamondsquares.svg	28	yes	44	1	610	0	0			0	0			1				0	
6.6.1	win	2023-06-27	16:57:27	17:04:06	396279	6130ea03d6862384241af61a	4	1	main_z	7	advance_on_keypress_ZEE	144	stimuli_distractor_trianglediamonds.svg	stimuli_target_diamondsquares.svg	28	yes	57	0	678	0	0			0	0			1				0	
6.6.1	win	2023-06-27	16:57:27	17:04:08	398071	6130ea03d6862384241af61a	4	1	main_z	7	main_z	145	stimuli_target_diamondrectangles.svg	stimuli_distractor_diamondtriangles.svg	23	yes	44	1	485	0	0			0	0			1				0	
6.6.1	win	2023-06-27	16:57:27	17:04:08	398071	6130ea03d6862384241af61a	4	1	main_z	7	advance_on_keypress_ZEE	146	stimuli_target_diamondrectangles.svg	stimuli_distractor_diamondtriangles.svg	23	yes	57	0	3284	0	0			0	0			1				0	
6.6.1	win	2023-06-27	16:57:27	17:04:12	402369	6130ea03d6862384241af61a	4	1	main_z	7	main_z	147	stimuli_target_diamondsquares.svg	stimuli_distractor_diamondtriangles.svg	24	yes	44	1	366	0	0			0	0			1				0	
6.6.1	win	2023-06-27	16:57:27	17:04:12	402369	6130ea03d6862384241af61a	4	1	main_z	7	advance_on_keypress_ZEE	148	stimuli_target_diamondsquares.svg	stimuli_distractor_diamondtriangles.svg	24	yes	57	0	809	0	0			0	0			1				0	
6.6.1	win	2023-06-27	16:57:27	17:04:14	404327	6130ea03d6862384241af61a	4	1	main_z	7	main_z	149	stimuli_distractor_trianglediamonds.svg	stimuli_target_trianglerectangles.svg	25	yes	44	1	508	0	0			0	0			1				0	
6.6.1	win	2023-06-27	16:57:27	17:04:14	404327	6130ea03d6862384241af61a	4	1	main_z	7	advance_on_keypress_ZEE	150	stimuli_distractor_trianglediamonds.svg	stimuli_target_trianglerectangles.svg	25	yes	57	0	794	0	0			0	0			1				0	
6.6.1	win	2023-06-27	16:57:27	17:04:16	406051	6130ea03d6862384241af61a	4	1	main_z	7	main_z	151	stimuli_target_squarediamonds.svg	stimuli_distractor_diamondtriangles.svg	8	yes	44	1	299	0	0			0	0			1				0	
6.6.1	win	2023-06-27	16:57:27	17:04:16	406051	6130ea03d6862384241af61a	4	1	main_z	7	advance_on_keypress_ZEE	152	stimuli_target_squarediamonds.svg	stimuli_distractor_diamondtriangles.svg	8	yes	57	0	625	0	0			0	0			1				0	
6.6.1	win	2023-06-27	16:57:27	17:04:19	409319	6130ea03d6862384241af61a	4	1	main_z	7	main_z	153	stimuli_distractor_trianglediamonds.svg	stimuli_distractor_trianglediamonds.svg	34	no	0	1	2000	0	0			0	0			1				0	
6.6.1	win	2023-06-27	16:57:27	17:04:19	409319	6130ea03d6862384241af61a	4	1	main_z	7	advance_on_keypress_ZEE	154	stimuli_distractor_trianglediamonds.svg	stimuli_distractor_trianglediamonds.svg	34	no	57	0	1052	0	0			0	0			1				0	
6.6.1	win	2023-06-27	16:57:27	17:04:21	411556	6130ea03d6862384241af61a	4	1	main_z	7	main_z	155	stimuli_distractor_diamondtriangles.svg	stimuli_target_diamondsquares.svg	32	yes	44	1	537	0	0			0	0			1				0	
6.6.1	win	2023-06-27	16:57:27	17:04:21	411556	6130ea03d6862384241af61a	4	1	main_z	7	advance_on_keypress_ZEE	156	stimuli_distractor_diamondtriangles.svg	stimuli_target_diamondsquares.svg	32	yes	57	0	868	0	0			0	0			1				0	
6.6.1	win	2023-06-27	16:57:27	17:04:23	413543	6130ea03d6862384241af61a	4	1	main_z	7	main_z	157	stimuli_target_squaretriangles.svg	stimuli_distractor_diamondtriangles.svg	7	yes	44	1	475	0	0			0	0			1				0	
6.6.1	win	2023-06-27	16:57:27	17:04:23	413543	6130ea03d6862384241af61a	4	1	main_z	7	advance_on_keypress_ZEE	158	stimuli_target_squaretriangles.svg	stimuli_distractor_diamondtriangles.svg	7	yes	57	0	417	0	0			0	0			1				0	
6.6.1	win	2023-06-27	16:57:27	17:04:25	415019	6130ea03d6862384241af61a	4	1	main_z	7	main_z	159	stimuli_target_squaretriangles.svg	stimuli_distractor_trianglediamonds.svg	3	yes	44	1	418	0	0			0	0			1				0	
6.6.1	win	2023-06-27	16:57:27	17:04:25	415019	6130ea03d6862384241af61a	4	1	main_z	7	advance_on_keypress_ZEE	160	stimuli_target_squaretriangles.svg	stimuli_distractor_trianglediamonds.svg	3	yes	57	0	682	0	0			0	0			1				0	
6.6.1	win	2023-06-27	16:57:27	17:04:58	448684	6130ea03d6862384241af61a	4	1	practice_slash	9	practice_slash	1	stimuli_distractor_trianglediamonds.svg	stimuli_target_rectanglediamonds.svg	10	yes	53	1	667	0	0			0	0			1				0	
6.6.1	win	2023-06-27	16:57:27	17:04:58	448684	6130ea03d6862384241af61a	4	1	practice_slash	9	advance_on_keypress_SLASH	2	stimuli_distractor_trianglediamonds.svg	stimuli_target_rectanglediamonds.svg	10	yes	57	0	1029	0	0			0	0			1				0	
6.6.1	win	2023-06-27	16:57:27	17:05:01	451873	6130ea03d6862384241af61a	4	1	practice_slash	9	practice_slash	3	stimuli_target_rectanglediamonds.svg	stimuli_distractor_diamondtriangles.svg	1	yes	53	1	507	0	0			0	0			1				0	
6.6.1	win	2023-06-27	16:57:27	17:05:01	451873	6130ea03d6862384241af61a	4	1	practice_slash	9	advance_on_keypress_SLASH	4	stimuli_target_rectanglediamonds.svg	stimuli_distractor_diamondtriangles.svg	1	yes	57	0	875	0	0			0	0			1				0	
6.6.1	win	2023-06-27	16:57:27	17:05:04	454696	6130ea03d6862384241af61a	4	1	practice_slash	9	practice_slash	5	stimuli_distractor_diamondtriangles.svg	stimuli_distractor_diamondtriangles.svg	13	no	53	0	313	0	0			0	0			1				0	
6.6.1	win	2023-06-27	16:57:27	17:05:04	454696	6130ea03d6862384241af61a	4	1	practice_slash	9	advance_on_keypress_SLASH	6	stimuli_distractor_diamondtriangles.svg	stimuli_distractor_diamondtriangles.svg	13	no	57	0	897	0	0			0	0			1				0	
6.6.1	win	2023-06-27	16:57:27	17:05:09	459250	6130ea03d6862384241af61a	4	1	practice_slash	9	practice_slash	7	stimuli_distractor_diamondtriangles.svg	stimuli_distractor_trianglediamonds.svg	14	no	0	1	2000	0	0			0	0			1				0	
6.6.1	win	2023-06-27	16:57:27	17:05:09	459250	6130ea03d6862384241af61a	4	1	practice_slash	9	advance_on_keypress_SLASH	8	stimuli_distractor_diamondtriangles.svg	stimuli_distractor_trianglediamonds.svg	14	no	57	0	562	0	0			0	0			1				0	
6.6.1	win	2023-06-27	16:57:27	17:05:12	462125	6130ea03d6862384241af61a	4	1	practice_slash	9	practice_slash	9	stimuli_target_diamondsquares.svg	stimuli_distractor_diamondtriangles.svg	3	yes	53	1	659	0	0			0	0			1				0	
6.6.1	win	2023-06-27	16:57:27	17:05:12	462125	6130ea03d6862384241af61a	4	1	practice_slash	9	advance_on_keypress_SLASH	10	stimuli_target_diamondsquares.svg	stimuli_distractor_diamondtriangles.svg	3	yes	57	0	281	0	0			0	0			1				0	
6.6.1	win	2023-06-27	16:57:27	17:05:14	464422	6130ea03d6862384241af61a	4	1	practice_slash	9	practice_slash	11	stimuli_target_diamondsquares.svg	stimuli_distractor_trianglediamonds.svg	6	yes	53	1	373	0	0			0	0			1				0	
6.6.1	win	2023-06-27	16:57:27	17:05:14	464422	6130ea03d6862384241af61a	4	1	practice_slash	9	advance_on_keypress_SLASH	12	stimuli_target_diamondsquares.svg	stimuli_distractor_trianglediamonds.svg	6	yes	57	0	390	0	0			0	0			1				0	
6.6.1	win	2023-06-27	16:57:27	17:05:18	468466	6130ea03d6862384241af61a	4	1	practice_slash	9	practice_slash	13	stimuli_distractor_trianglediamonds.svg	stimuli_distractor_trianglediamonds.svg	15	no	0	1	2000	0	0			0	0			1				0	
6.6.1	win	2023-06-27	16:57:27	17:05:18	468466	6130ea03d6862384241af61a	4	1	practice_slash	9	advance_on_keypress_SLASH	14	stimuli_distractor_trianglediamonds.svg	stimuli_distractor_trianglediamonds.svg	15	no	57	0	390	0	0			0	0			1				0	
6.6.1	win	2023-06-27	16:57:27	17:05:20	470923	6130ea03d6862384241af61a	4	1	practice_slash	9	practice_slash	15	stimuli_distractor_trianglediamonds.svg	stimuli_target_diamondrectangles.svg	12	yes	53	1	425	0	0			0	0			1				0	
6.6.1	win	2023-06-27	16:57:27	17:05:20	470923	6130ea03d6862384241af61a	4	1	practice_slash	9	advance_on_keypress_SLASH	16	stimuli_distractor_trianglediamonds.svg	stimuli_target_diamondrectangles.svg	12	yes	57	0	551	0	0			0	0			1				0	
6.6.1	win	2023-06-27	16:57:27	17:05:23	473544	6130ea03d6862384241af61a	4	1	practice_slash	9	practice_slash	17	stimuli_distractor_diamondtriangles.svg	stimuli_target_trianglerectangles.svg	9	yes	53	1	429	0	0			0	0			1				0	
6.6.1	win	2023-06-27	16:57:27	17:05:23	473544	6130ea03d6862384241af61a	4	1	practice_slash	9	advance_on_keypress_SLASH	18	stimuli_distractor_diamondtriangles.svg	stimuli_target_trianglerectangles.svg	9	yes	57	0	406	0	0			0	0			1				0	
6.6.1	win	2023-06-27	16:57:27	17:05:26	475980	6130ea03d6862384241af61a	4	1	practice_slash	9	practice_slash	19	stimuli_distractor_trianglediamonds.svg	stimuli_distractor_diamondtriangles.svg	16	no	53	0	383	0	0			0	0			1				0	
6.6.1	win	2023-06-27	16:57:27	17:05:26	475980	6130ea03d6862384241af61a	4	1	practice_slash	9	advance_on_keypress_SLASH	20	stimuli_distractor_trianglediamonds.svg	stimuli_distractor_diamondtriangles.svg	16	no	57	0	593	0	0			0	0			1				0	
6.6.1	win	2023-06-27	16:57:27	17:05:28	478643	6130ea03d6862384241af61a	4	1	practice_slash	9	practice_slash	21	stimuli_distractor_diamondtriangles.svg	stimuli_target_diamondrectangles.svg	8	yes	53	1	428	0	0			0	0			1				0	
6.6.1	win	2023-06-27	16:57:27	17:05:28	478643	6130ea03d6862384241af61a	4	1	practice_slash	9	advance_on_keypress_SLASH	22	stimuli_distractor_diamondtriangles.svg	stimuli_target_diamondrectangles.svg	8	yes	57	0	457	0	0			0	0			1				0	
6.6.1	win	2023-06-27	16:57:27	17:05:31	481313	6130ea03d6862384241af61a	4	1	practice_slash	9	practice_slash	23	stimuli_distractor_trianglediamonds.svg	stimuli_target_squarediamonds.svg	11	yes	53	1	582	0	0			0	0			1				0	
6.6.1	win	2023-06-27	16:57:27	17:05:31	481313	6130ea03d6862384241af61a	4	1	practice_slash	9	advance_on_keypress_SLASH	24	stimuli_distractor_trianglediamonds.svg	stimuli_target_squarediamonds.svg	11	yes	57	0	607	0	0			0	0			1				0	
6.6.1	win	2023-06-27	16:57:27	17:05:34	484107	6130ea03d6862384241af61a	4	1	practice_slash	9	practice_slash	25	stimuli_target_squarediamonds.svg	stimuli_distractor_trianglediamonds.svg	5	yes	53	1	542	0	0			0	0			1				0	
6.6.1	win	2023-06-27	16:57:27	17:05:34	484107	6130ea03d6862384241af61a	4	1	practice_slash	9	advance_on_keypress_SLASH	26	stimuli_target_squarediamonds.svg	stimuli_distractor_trianglediamonds.svg	5	yes	57	0	374	0	0			0	0			1				0	
6.6.1	win	2023-06-27	16:57:27	17:05:36	486940	6130ea03d6862384241af61a	4	1	practice_slash	9	practice_slash	27	stimuli_target_squarediamonds.svg	stimuli_distractor_diamondtriangles.svg	2	yes	53	1	826	0	0			0	0			1				0	
6.6.1	win	2023-06-27	16:57:27	17:05:36	486940	6130ea03d6862384241af61a	4	1	practice_slash	9	advance_on_keypress_SLASH	28	stimuli_target_squarediamonds.svg	stimuli_distractor_diamondtriangles.svg	2	yes	57	0	732	0	0			0	0			1				0	
6.6.1	win	2023-06-27	16:57:27	17:05:40	490017	6130ea03d6862384241af61a	4	1	practice_slash	9	practice_slash	29	stimuli_distractor_diamondtriangles.svg	stimuli_target_rectangletriangles.svg	7	yes	53	1	703	0	0			0	0			1				0	
6.6.1	win	2023-06-27	16:57:27	17:05:40	490017	6130ea03d6862384241af61a	4	1	practice_slash	9	advance_on_keypress_SLASH	30	stimuli_distractor_diamondtriangles.svg	stimuli_target_rectangletriangles.svg	7	yes	57	0	410	0	0			0	0			1				0	
6.6.1	win	2023-06-27	16:57:27	17:05:42	492749	6130ea03d6862384241af61a	4	1	practice_slash	9	practice_slash	31	stimuli_target_rectanglediamonds.svg	stimuli_distractor_trianglediamonds.svg	4	yes	53	1	685	0	0			0	0			1				0	
6.6.1	win	2023-06-27	16:57:27	17:05:42	492749	6130ea03d6862384241af61a	4	1	practice_slash	9	advance_on_keypress_SLASH	32	stimuli_target_rectanglediamonds.svg	stimuli_distractor_trianglediamonds.svg	4	yes	57	0	415	0	0			0	0			1				0	
6.6.1	win	2023-06-27	16:57:27	17:05:47	497455	6130ea03d6862384241af61a	4	1	main_slash	11	main_slash	1	stimuli_target_squarediamonds.svg	stimuli_distractor_diamondtriangles.svg	8	yes	53	1	676	0	0			0	0			1				0	
6.6.1	win	2023-06-27	16:57:27	17:05:47	497455	6130ea03d6862384241af61a	4	1	main_slash	11	advance_on_keypress_SLASH	2	stimuli_target_squarediamonds.svg	stimuli_distractor_diamondtriangles.svg	8	yes	57	0	1219	0	0			0	0			1				0	
6.6.1	win	2023-06-27	16:57:27	17:05:51	501313	6130ea03d6862384241af61a	4	1	main_slash	11	main_slash	3	stimuli_distractor_diamondtriangles.svg	stimuli_distractor_diamondtriangles.svg	39	no	0	1	2000	0	0			0	0			1				0	
6.6.1	win	2023-06-27	16:57:27	17:05:51	501313	6130ea03d6862384241af61a	4	1	main_slash	11	advance_on_keypress_SLASH	4	stimuli_distractor_diamondtriangles.svg	stimuli_distractor_diamondtriangles.svg	39	no	57	0	324	0	0			0	0			1				0	
6.6.1	win	2023-06-27	16:57:27	17:05:52	502670	6130ea03d6862384241af61a	4	1	main_slash	11	main_slash	5	stimuli_distractor_trianglediamonds.svg	stimuli_target_diamondsquares.svg	28	yes	53	1	392	0	0			0	0			1				0	
6.6.1	win	2023-06-27	16:57:27	17:05:52	502670	6130ea03d6862384241af61a	4	1	main_slash	11	advance_on_keypress_SLASH	6	stimuli_distractor_trianglediamonds.svg	stimuli_target_diamondsquares.svg	28	yes	57	0	535	0	0			0	0			1				0	
6.6.1	win	2023-06-27	16:57:27	17:05:55	505845	6130ea03d6862384241af61a	4	1	main_slash	11	main_slash	7	stimuli_distractor_diamondtriangles.svg	stimuli_distractor_trianglediamonds.svg	37	no	0	1	2000	0	0			0	0			1				0	
6.6.1	win	2023-06-27	16:57:27	17:05:55	505845	6130ea03d6862384241af61a	4	1	main_slash	11	advance_on_keypress_SLASH	8	stimuli_distractor_diamondtriangles.svg	stimuli_distractor_trianglediamonds.svg	37	no	57	0	339	0	0			0	0			1				0	
6.6.1	win	2023-06-27	16:57:27	17:05:57	507351	6130ea03d6862384241af61a	4	1	main_slash	11	main_slash	9	stimuli_distractor_trianglediamonds.svg	stimuli_target_squarediamonds.svg	12	yes	53	1	523	0	0			0	0			1				0	
6.6.1	win	2023-06-27	16:57:27	17:05:57	507351	6130ea03d6862384241af61a	4	1	main_slash	11	advance_on_keypress_SLASH	10	stimuli_distractor_trianglediamonds.svg	stimuli_target_squarediamonds.svg	12	yes	57	0	469	0	0			0	0			1				0	
6.6.1	win	2023-06-27	16:57:27	17:06:00	510461	6130ea03d6862384241af61a	4	1	main_slash	11	main_slash	11	stimuli_distractor_diamondtriangles.svg	stimuli_distractor_diamondtriangles.svg	40	no	0	1	2000	0	0			0	0			1				0	
6.6.1	win	2023-06-27	16:57:27	17:06:00	510461	6130ea03d6862384241af61a	4	1	main_slash	11	advance_on_keypress_SLASH	12	stimuli_distractor_diamondtriangles.svg	stimuli_distractor_diamondtriangles.svg	40	no	57	0	642	0	0			0	0			1				0	
6.6.1	win	2023-06-27	16:57:27	17:06:02	512174	6130ea03d6862384241af61a	4	1	main_slash	11	main_slash	13	stimuli_target_rectangletriangles.svg	stimuli_distractor_diamondtriangles.svg	5	yes	53	1	430	0	0			0	0			1				0	
6.6.1	win	2023-06-27	16:57:27	17:06:02	512174	6130ea03d6862384241af61a	4	1	main_slash	11	advance_on_keypress_SLASH	14	stimuli_target_rectangletriangles.svg	stimuli_distractor_diamondtriangles.svg	5	yes	57	0	524	0	0			0	0			1				0	
6.6.1	win	2023-06-27	16:57:27	17:06:03	513733	6130ea03d6862384241af61a	4	1	main_slash	11	main_slash	15	stimuli_distractor_trianglediamonds.svg	stimuli_target_rectanglediamonds.svg	10	yes	53	1	388	0	0			0	0			1				0	
6.6.1	win	2023-06-27	16:57:27	17:06:03	513733	6130ea03d6862384241af61a	4	1	main_slash	11	advance_on_keypress_SLASH	16	stimuli_distractor_trianglediamonds.svg	stimuli_target_rectanglediamonds.svg	10	yes	57	0	488	0	0			0	0			1				0	
6.6.1	win	2023-06-27	16:57:27	17:06:05	515477	6130ea03d6862384241af61a	4	1	main_slash	11	main_slash	17	stimuli_target_diamondsquares.svg	stimuli_distractor_trianglediamonds.svg	20	yes	53	1	617	0	0			0	0			1				0	
6.6.1	win	2023-06-27	16:57:27	17:06:05	515477	6130ea03d6862384241af61a	4	1	main_slash	11	advance_on_keypress_SLASH	18	stimuli_target_diamondsquares.svg	stimuli_distractor_trianglediamonds.svg	20	yes	57	0	419	0	0			0	0			1				0	
6.6.1	win	2023-06-27	16:57:27	17:06:08	518544	6130ea03d6862384241af61a	4	1	main_slash	11	main_slash	19	stimuli_target_trianglerectangles.svg	stimuli_distractor_diamondtriangles.svg	21	yes	0	0	2000	0	0			0	0			1				0	
6.6.1	win	2023-06-27	16:57:27	17:06:08	518544	6130ea03d6862384241af61a	4	1	main_slash	11	advance_on_keypress_SLASH	20	stimuli_target_trianglerectangles.svg	stimuli_distractor_diamondtriangles.svg	21	yes	57	0	422	0	0			0	0			1				0	
6.6.1	win	2023-06-27	16:57:27	17:06:11	521611	6130ea03d6862384241af61a	4	1	main_slash	11	main_slash	21	stimuli_distractor_trianglediamonds.svg	stimuli_distractor_diamondtriangles.svg	35	no	0	1	2000	0	0			0	0			1				0	
6.6.1	win	2023-06-27	16:57:27	17:06:11	521611	6130ea03d6862384241af61a	4	1	main_slash	11	advance_on_keypress_SLASH	22	stimuli_distractor_trianglediamonds.svg	stimuli_distractor_diamondtriangles.svg	35	no	57	0	295	0	0			0	0			1				0	
6.6.1	win	2023-06-27	16:57:27	17:06:13	523050	6130ea03d6862384241af61a	4	1	main_slash	11	main_slash	23	stimuli_distractor_diamondtriangles.svg	stimuli_target_diamondrectangles.svg	31	yes	53	1	507	0	0			0	0			1				0	
6.6.1	win	2023-06-27	16:57:27	17:06:13	523050	6130ea03d6862384241af61a	4	1	main_slash	11	advance_on_keypress_SLASH	24	stimuli_distractor_diamondtriangles.svg	stimuli_target_diamondrectangles.svg	31	yes	57	0	455	0	0			0	0			1				0	
6.6.1	win	2023-06-27	16:57:27	17:06:16	526144	6130ea03d6862384241af61a	4	1	main_slash	11	main_slash	25	stimuli_distractor_trianglediamonds.svg	stimuli_distractor_diamondtriangles.svg	36	no	0	1	2000	0	0			0	0			1				0	
6.6.1	win	2023-06-27	16:57:27	17:06:16	526144	6130ea03d6862384241af61a	4	1	main_slash	11	advance_on_keypress_SLASH	26	stimuli_distractor_trianglediamonds.svg	stimuli_distractor_diamondtriangles.svg	36	no	57	0	385	0	0			0	0			1				0	
6.6.1	win	2023-06-27	16:57:27	17:06:17	527648	6130ea03d6862384241af61a	4	1	main_slash	11	main_slash	27	stimuli_target_squarediamonds.svg	stimuli_distractor_trianglediamonds.svg	4	yes	53	1	472	0	0			0	0			1				0	
6.6.1	win	2023-06-27	16:57:27	17:06:17	527648	6130ea03d6862384241af61a	4	1	main_slash	11	advance_on_keypress_SLASH	28	stimuli_target_squarediamonds.svg	stimuli_distractor_trianglediamonds.svg	4	yes	57	0	530	0	0			0	0			1				0	
6.6.1	win	2023-06-27	16:57:27	17:06:19	529173	6130ea03d6862384241af61a	4	1	main_slash	11	main_slash	29	stimuli_distractor_trianglediamonds.svg	stimuli_target_squaretriangles.svg	11	yes	53	1	347	0	0			0	0			1				0	
6.6.1	win	2023-06-27	16:57:27	17:06:19	529173	6130ea03d6862384241af61a	4	1	main_slash	11	advance_on_keypress_SLASH	30	stimuli_distractor_trianglediamonds.svg	stimuli_target_squaretriangles.svg	11	yes	57	0	361	0	0			0	0			1				0	
6.6.1	win	2023-06-27	16:57:27	17:06:22	532177	6130ea03d6862384241af61a	4	1	main_slash	11	main_slash	31	stimuli_target_trianglerectangles.svg	stimuli_distractor_trianglediamonds.svg	17	yes	0	0	2000	0	0			0	0			1				0	
6.6.1	win	2023-06-27	16:57:27	17:06:22	532177	6130ea03d6862384241af61a	4	1	main_slash	11	advance_on_keypress_SLASH	32	stimuli_target_trianglerectangles.svg	stimuli_distractor_trianglediamonds.svg	17	yes	57	0	387	0	0			0	0			1				0	
6.6.1	win	2023-06-27	16:57:27	17:06:23	533586	6130ea03d6862384241af61a	4	1	main_slash	11	main_slash	33	stimuli_target_squaretriangles.svg	stimuli_distractor_diamondtriangles.svg	7	yes	53	1	377	0	0			0	0			1				0	
6.6.1	win	2023-06-27	16:57:27	17:06:23	533586	6130ea03d6862384241af61a	4	1	main_slash	11	advance_on_keypress_SLASH	34	stimuli_target_squaretriangles.svg	stimuli_distractor_diamondtriangles.svg	7	yes	57	0	459	0	0			0	0			1				0	
6.6.1	win	2023-06-27	16:57:27	17:06:25	534976	6130ea03d6862384241af61a	4	1	main_slash	11	main_slash	35	stimuli_distractor_diamondtriangles.svg	stimuli_target_diamondsquares.svg	32	yes	53	1	300	0	0			0	0			1				0	
6.6.1	win	2023-06-27	16:57:27	17:06:25	534976	6130ea03d6862384241af61a	4	1	main_slash	11	advance_on_keypress_SLASH	36	stimuli_distractor_diamondtriangles.svg	stimuli_target_diamondsquares.svg	32	yes	57	0	475	0	0			0	0			1				0	
6.6.1	win	2023-06-27	16:57:27	17:06:26	536465	6130ea03d6862384241af61a	4	1	main_slash	11	main_slash	37	stimuli_distractor_diamondtriangles.svg	stimuli_target_trianglesquares.svg	30	yes	53	1	369	0	0			0	0			1				0	
6.6.1	win	2023-06-27	16:57:27	17:06:26	536465	6130ea03d6862384241af61a	4	1	main_slash	11	advance_on_keypress_SLASH	38	stimuli_distractor_diamondtriangles.svg	stimuli_target_trianglesquares.svg	30	yes	57	0	357	0	0			0	0			1				0	
6.6.1	win	2023-06-27	16:57:27	17:06:27	537741	6130ea03d6862384241af61a	4	1	main_slash	11	main_slash	39	stimuli_distractor_diamondtriangles.svg	stimuli_distractor_trianglediamonds.svg	38	no	53	0	282	0	0			0	0			1				0	
6.6.1	win	2023-06-27	16:57:27	17:06:27	537741	6130ea03d6862384241af61a	4	1	main_slash	11	advance_on_keypress_SLASH	40	stimuli_distractor_diamondtriangles.svg	stimuli_distractor_trianglediamonds.svg	38	no	57	0	692	0	0			0	0			1				0	
6.6.1	win	2023-06-27	16:57:27	17:06:29	539536	6130ea03d6862384241af61a	4	1	main_slash	11	main_slash	41	stimuli_target_trianglesquares.svg	stimuli_distractor_trianglediamonds.svg	18	yes	53	1	460	0	0			0	0			1				0	
6.6.1	win	2023-06-27	16:57:27	17:06:29	539536	6130ea03d6862384241af61a	4	1	main_slash	11	advance_on_keypress_SLASH	42	stimuli_target_trianglesquares.svg	stimuli_distractor_trianglediamonds.svg	18	yes	57	0	429	0	0			0	0			1				0	
6.6.1	win	2023-06-27	16:57:27	17:06:31	540983	6130ea03d6862384241af61a	4	1	main_slash	11	main_slash	43	stimuli_distractor_diamondtriangles.svg	stimuli_target_trianglerectangles.svg	29	yes	53	1	391	0	0			0	0			1				0	
6.6.1	win	2023-06-27	16:57:27	17:06:31	540983	6130ea03d6862384241af61a	4	1	main_slash	11	advance_on_keypress_SLASH	44	stimuli_distractor_diamondtriangles.svg	stimuli_target_trianglerectangles.svg	29	yes	57	0	361	0	0			0	0			1				0	
6.6.1	win	2023-06-27	16:57:27	17:06:32	542366	6130ea03d6862384241af61a	4	1	main_slash	11	main_slash	45	stimuli_target_rectanglediamonds.svg	stimuli_distractor_diamondtriangles.svg	6	yes	53	1	391	0	0			0	0			1				0	
6.6.1	win	2023-06-27	16:57:27	17:06:32	542366	6130ea03d6862384241af61a	4	1	main_slash	11	advance_on_keypress_SLASH	46	stimuli_target_rectanglediamonds.svg	stimuli_distractor_diamondtriangles.svg	6	yes	57	0	441	0	0			0	0			1				0	
6.6.1	win	2023-06-27	16:57:27	17:06:33	543760	6130ea03d6862384241af61a	4	1	main_slash	11	main_slash	47	stimuli_target_rectanglediamonds.svg	stimuli_distractor_trianglediamonds.svg	2	yes	53	1	318	0	0			0	0			1				0	
6.6.1	win	2023-06-27	16:57:27	17:06:33	543760	6130ea03d6862384241af61a	4	1	main_slash	11	advance_on_keypress_SLASH	48	stimuli_target_rectanglediamonds.svg	stimuli_distractor_trianglediamonds.svg	2	yes	57	0	376	0	0			0	0			1				0	
6.6.1	win	2023-06-27	16:57:27	17:06:35	545217	6130ea03d6862384241af61a	4	1	main_slash	11	main_slash	49	stimuli_distractor_trianglediamonds.svg	stimuli_target_diamondrectangles.svg	27	yes	53	1	441	0	0			0	0			1				0	
6.6.1	win	2023-06-27	16:57:27	17:06:35	545217	6130ea03d6862384241af61a	4	1	main_slash	11	advance_on_keypress_SLASH	50	stimuli_distractor_trianglediamonds.svg	stimuli_target_diamondrectangles.svg	27	yes	57	0	679	0	0			0	0			1				0	
6.6.1	win	2023-06-27	16:57:27	17:06:37	546978	6130ea03d6862384241af61a	4	1	main_slash	11	main_slash	51	stimuli_target_diamondsquares.svg	stimuli_distractor_diamondtriangles.svg	24	yes	53	1	453	0	0			0	0			1				0	
6.6.1	win	2023-06-27	16:57:27	17:06:37	546978	6130ea03d6862384241af61a	4	1	main_slash	11	advance_on_keypress_SLASH	52	stimuli_target_diamondsquares.svg	stimuli_distractor_diamondtriangles.svg	24	yes	57	0	552	0	0			0	0			1				0	
6.6.1	win	2023-06-27	16:57:27	17:06:38	548763	6130ea03d6862384241af61a	4	1	main_slash	11	main_slash	53	stimuli_distractor_diamondtriangles.svg	stimuli_target_rectangletriangles.svg	13	yes	53	1	588	0	0			0	0			1				0	
6.6.1	win	2023-06-27	16:57:27	17:06:38	548763	6130ea03d6862384241af61a	4	1	main_slash	11	advance_on_keypress_SLASH	54	stimuli_distractor_diamondtriangles.svg	stimuli_target_rectangletriangles.svg	13	yes	57	0	1390	0	0			0	0			1				0	
6.6.1	win	2023-06-27	16:57:27	17:06:41	551091	6130ea03d6862384241af61a	4	1	main_slash	11	main_slash	55	stimuli_distractor_trianglediamonds.svg	stimuli_target_trianglesquares.svg	26	yes	53	1	300	0	0			0	0			1				0	
6.6.1	win	2023-06-27	16:57:27	17:06:41	551091	6130ea03d6862384241af61a	4	1	main_slash	11	advance_on_keypress_SLASH	56	stimuli_distractor_trianglediamonds.svg	stimuli_target_trianglesquares.svg	26	yes	57	0	772	0	0			0	0			1				0	
6.6.1	win	2023-06-27	16:57:27	17:06:43	553081	6130ea03d6862384241af61a	4	1	main_slash	11	main_slash	57	stimuli_distractor_diamondtriangles.svg	stimuli_target_squarediamonds.svg	16	yes	53	1	573	0	0			0	0			1				0	
6.6.1	win	2023-06-27	16:57:27	17:06:43	553081	6130ea03d6862384241af61a	4	1	main_slash	11	advance_on_keypress_SLASH	58	stimuli_distractor_diamondtriangles.svg	stimuli_target_squarediamonds.svg	16	yes	57	0	503	0	0			0	0			1				0	
6.6.1	win	2023-06-27	16:57:27	17:06:44	554649	6130ea03d6862384241af61a	4	1	main_slash	11	main_slash	59	stimuli_target_diamondrectangles.svg	stimuli_distractor_trianglediamonds.svg	19	yes	53	1	424	0	0			0	0			1				0	
6.6.1	win	2023-06-27	16:57:27	17:06:44	554649	6130ea03d6862384241af61a	4	1	main_slash	11	advance_on_keypress_SLASH	60	stimuli_target_diamondrectangles.svg	stimuli_distractor_trianglediamonds.svg	19	yes	57	0	426	0	0			0	0			1				0	
6.6.1	win	2023-06-27	16:57:27	17:06:46	556857	6130ea03d6862384241af61a	4	1	main_slash	11	main_slash	61	stimuli_target_squaretriangles.svg	stimuli_distractor_trianglediamonds.svg	3	yes	53	1	1149	0	0			0	0			1				0	
6.6.1	win	2023-06-27	16:57:27	17:06:46	556857	6130ea03d6862384241af61a	4	1	main_slash	11	advance_on_keypress_SLASH	62	stimuli_target_squaretriangles.svg	stimuli_distractor_trianglediamonds.svg	3	yes	57	0	1149	0	0			0	0			1				0	
6.6.1	win	2023-06-27	16:57:27	17:06:49	559286	6130ea03d6862384241af61a	4	1	main_slash	11	main_slash	63	stimuli_target_diamondrectangles.svg	stimuli_distractor_diamondtriangles.svg	23	yes	53	1	629	0	0			0	0			1				0	
6.6.1	win	2023-06-27	16:57:27	17:06:49	559286	6130ea03d6862384241af61a	4	1	main_slash	11	advance_on_keypress_SLASH	64	stimuli_target_diamondrectangles.svg	stimuli_distractor_diamondtriangles.svg	23	yes	57	0	509	0	0			0	0			1				0	
6.6.1	win	2023-06-27	16:57:27	17:06:50	560828	6130ea03d6862384241af61a	4	1	main_slash	11	main_slash	65	stimuli_distractor_diamondtriangles.svg	stimuli_target_squaretriangles.svg	15	yes	53	1	404	0	0			0	0			1				0	
6.6.1	win	2023-06-27	16:57:27	17:06:50	560828	6130ea03d6862384241af61a	4	1	main_slash	11	advance_on_keypress_SLASH	66	stimuli_distractor_diamondtriangles.svg	stimuli_target_squaretriangles.svg	15	yes	57	0	443	0	0			0	0			1				0	
6.6.1	win	2023-06-27	16:57:27	17:06:52	562394	6130ea03d6862384241af61a	4	1	main_slash	11	main_slash	67	stimuli_target_rectangletriangles.svg	stimuli_distractor_trianglediamonds.svg	1	yes	53	1	487	0	0			0	0			1				0	
6.6.1	win	2023-06-27	16:57:27	17:06:52	562394	6130ea03d6862384241af61a	4	1	main_slash	11	advance_on_keypress_SLASH	68	stimuli_target_rectangletriangles.svg	stimuli_distractor_trianglediamonds.svg	1	yes	57	0	431	0	0			0	0			1				0	
6.6.1	win	2023-06-27	16:57:27	17:06:53	563835	6130ea03d6862384241af61a	4	1	main_slash	11	main_slash	69	stimuli_distractor_diamondtriangles.svg	stimuli_target_rectanglediamonds.svg	14	yes	53	1	361	0	0			0	0			1				0	
6.6.1	win	2023-06-27	16:57:27	17:06:53	563835	6130ea03d6862384241af61a	4	1	main_slash	11	advance_on_keypress_SLASH	70	stimuli_distractor_diamondtriangles.svg	stimuli_target_rectanglediamonds.svg	14	yes	57	0	335	0	0			0	0			1				0	
6.6.1	win	2023-06-27	16:57:27	17:06:56	566807	6130ea03d6862384241af61a	4	1	main_slash	11	main_slash	71	stimuli_distractor_trianglediamonds.svg	stimuli_distractor_trianglediamonds.svg	33	no	0	1	2000	0	0			0	0			1				0	
6.6.1	win	2023-06-27	16:57:27	17:06:56	566807	6130ea03d6862384241af61a	4	1	main_slash	11	advance_on_keypress_SLASH	72	stimuli_distractor_trianglediamonds.svg	stimuli_distractor_trianglediamonds.svg	33	no	57	0	839	0	0			0	0			1				0	
6.6.1	win	2023-06-27	16:57:27	17:06:58	568698	6130ea03d6862384241af61a	4	1	main_slash	11	main_slash	73	stimuli_target_trianglesquares.svg	stimuli_distractor_diamondtriangles.svg	22	yes	53	1	408	0	0			0	0			1				0	
6.6.1	win	2023-06-27	16:57:27	17:06:58	568698	6130ea03d6862384241af61a	4	1	main_slash	11	advance_on_keypress_SLASH	74	stimuli_target_trianglesquares.svg	stimuli_distractor_diamondtriangles.svg	22	yes	57	0	430	0	0			0	0			1				0	
6.6.1	win	2023-06-27	16:57:27	17:07:00	570232	6130ea03d6862384241af61a	4	1	main_slash	11	main_slash	75	stimuli_distractor_trianglediamonds.svg	stimuli_target_trianglerectangles.svg	25	yes	53	1	476	0	0			0	0			1				0	
6.6.1	win	2023-06-27	16:57:27	17:07:00	570232	6130ea03d6862384241af61a	4	1	main_slash	11	advance_on_keypress_SLASH	76	stimuli_distractor_trianglediamonds.svg	stimuli_target_trianglerectangles.svg	25	yes	57	0	502	0	0			0	0			1				0	
6.6.1	win	2023-06-27	16:57:27	17:07:01	571901	6130ea03d6862384241af61a	4	1	main_slash	11	main_slash	77	stimuli_distractor_trianglediamonds.svg	stimuli_target_rectangletriangles.svg	9	yes	53	1	528	0	0			0	0			1				0	
6.6.1	win	2023-06-27	16:57:27	17:07:01	571901	6130ea03d6862384241af61a	4	1	main_slash	11	advance_on_keypress_SLASH	78	stimuli_distractor_trianglediamonds.svg	stimuli_target_rectangletriangles.svg	9	yes	57	0	493	0	0			0	0			1				0	
6.6.1	win	2023-06-27	16:57:27	17:07:05	575024	6130ea03d6862384241af61a	4	1	main_slash	11	main_slash	79	stimuli_distractor_trianglediamonds.svg	stimuli_distractor_trianglediamonds.svg	34	no	0	1	2000	0	0			0	0			1				0	
6.6.1	win	2023-06-27	16:57:27	17:07:05	575024	6130ea03d6862384241af61a	4	1	main_slash	11	advance_on_keypress_SLASH	80	stimuli_distractor_trianglediamonds.svg	stimuli_distractor_trianglediamonds.svg	34	no	57	0	2416	0	0			0	0			1				0	
6.6.1	win	2023-06-27	16:57:27	17:07:08	578686	6130ea03d6862384241af61a	4	1	main_slash	11	main_slash	81	stimuli_distractor_diamondtriangles.svg	stimuli_target_diamondsquares.svg	32	yes	53	1	596	0	0			0	0			1				0	
6.6.1	win	2023-06-27	16:57:27	17:07:08	578686	6130ea03d6862384241af61a	4	1	main_slash	11	advance_on_keypress_SLASH	82	stimuli_distractor_diamondtriangles.svg	stimuli_target_diamondsquares.svg	32	yes	57	0	477	0	0			0	0			1				0	
6.6.1	win	2023-06-27	16:57:27	17:07:10	580101	6130ea03d6862384241af61a	4	1	main_slash	11	main_slash	83	stimuli_distractor_trianglediamonds.svg	stimuli_target_rectanglediamonds.svg	10	yes	53	1	294	0	0			0	0			1				0	
6.6.1	win	2023-06-27	16:57:27	17:07:10	580101	6130ea03d6862384241af61a	4	1	main_slash	11	advance_on_keypress_SLASH	84	stimuli_distractor_trianglediamonds.svg	stimuli_target_rectanglediamonds.svg	10	yes	57	0	366	0	0			0	0			1				0	
6.6.1	win	2023-06-27	16:57:27	17:07:13	583036	6130ea03d6862384241af61a	4	1	main_slash	11	main_slash	85	stimuli_distractor_diamondtriangles.svg	stimuli_target_trianglerectangles.svg	29	yes	53	1	1914	0	0			0	0			1				0	
6.6.1	win	2023-06-27	16:57:27	17:07:13	583036	6130ea03d6862384241af61a	4	1	main_slash	11	advance_on_keypress_SLASH	86	stimuli_distractor_diamondtriangles.svg	stimuli_target_trianglerectangles.svg	29	yes	57	0	1603	0	0			0	0			1				0	
6.6.1	win	2023-06-27	16:57:27	17:07:17	587289	6130ea03d6862384241af61a	4	1	main_slash	11	main_slash	87	stimuli_distractor_trianglediamonds.svg	stimuli_distractor_diamondtriangles.svg	36	no	0	1	2000	0	0			0	0			1				0	
6.6.1	win	2023-06-27	16:57:27	17:07:17	587289	6130ea03d6862384241af61a	4	1	main_slash	11	advance_on_keypress_SLASH	88	stimuli_distractor_trianglediamonds.svg	stimuli_distractor_diamondtriangles.svg	36	no	57	0	467	0	0			0	0			1				0	
6.6.1	win	2023-06-27	16:57:27	17:07:18	588917	6130ea03d6862384241af61a	4	1	main_slash	11	main_slash	89	stimuli_target_squaretriangles.svg	stimuli_distractor_trianglediamonds.svg	3	yes	53	1	503	0	0			0	0			1				0	
6.6.1	win	2023-06-27	16:57:27	17:07:18	588917	6130ea03d6862384241af61a	4	1	main_slash	11	advance_on_keypress_SLASH	90	stimuli_target_squaretriangles.svg	stimuli_distractor_trianglediamonds.svg	3	yes	57	0	939	0	0			0	0			1				0	
6.6.1	win	2023-06-27	16:57:27	17:07:21	591011	6130ea03d6862384241af61a	4	1	main_slash	11	main_slash	91	stimuli_target_trianglesquares.svg	stimuli_distractor_diamondtriangles.svg	22	yes	53	1	505	0	0			0	0			1				0	
6.6.1	win	2023-06-27	16:57:27	17:07:21	591011	6130ea03d6862384241af61a	4	1	main_slash	11	advance_on_keypress_SLASH	92	stimuli_target_trianglesquares.svg	stimuli_distractor_diamondtriangles.svg	22	yes	57	0	509	0	0			0	0			1				0	
6.6.1	win	2023-06-27	16:57:27	17:07:22	592540	6130ea03d6862384241af61a	4	1	main_slash	11	main_slash	93	stimuli_distractor_trianglediamonds.svg	stimuli_target_trianglerectangles.svg	25	yes	53	1	385	0	0			0	0			1				0	
6.6.1	win	2023-06-27	16:57:27	17:07:22	592540	6130ea03d6862384241af61a	4	1	main_slash	11	advance_on_keypress_SLASH	94	stimuli_distractor_trianglediamonds.svg	stimuli_target_trianglerectangles.svg	25	yes	57	0	484	0	0			0	0			1				0	
6.6.1	win	2023-06-27	16:57:27	17:07:24	594202	6130ea03d6862384241af61a	4	1	main_slash	11	main_slash	95	stimuli_distractor_diamondtriangles.svg	stimuli_distractor_diamondtriangles.svg	40	no	53	0	531	0	0			0	0			1				0	
6.6.1	win	2023-06-27	16:57:27	17:07:24	594202	6130ea03d6862384241af61a	4	1	main_slash	11	advance_on_keypress_SLASH	96	stimuli_distractor_diamondtriangles.svg	stimuli_distractor_diamondtriangles.svg	40	no	57	0	1911	0	0			0	0			1				0	
6.6.1	win	2023-06-27	16:57:27	17:07:27	597190	6130ea03d6862384241af61a	4	1	main_slash	11	main_slash	97	stimuli_distractor_diamondtriangles.svg	stimuli_target_squarediamonds.svg	16	yes	53	1	436	0	0			0	0			1				0	
6.6.1	win	2023-06-27	16:57:27	17:07:27	597190	6130ea03d6862384241af61a	4	1	main_slash	11	advance_on_keypress_SLASH	98	stimuli_distractor_diamondtriangles.svg	stimuli_target_squarediamonds.svg	16	yes	57	0	672	0	0			0	0			1				0	
6.6.1	win	2023-06-27	16:57:27	17:07:29	599144	6130ea03d6862384241af61a	4	1	main_slash	11	main_slash	99	stimuli_distractor_trianglediamonds.svg	stimuli_target_trianglesquares.svg	26	yes	53	1	640	0	0			0	0			1				0	
6.6.1	win	2023-06-27	16:57:27	17:07:29	599144	6130ea03d6862384241af61a	4	1	main_slash	11	advance_on_keypress_SLASH	100	stimuli_distractor_trianglediamonds.svg	stimuli_target_trianglesquares.svg	26	yes	57	0	700	0	0			0	0			1				0	
6.6.1	win	2023-06-27	16:57:27	17:07:31	601408	6130ea03d6862384241af61a	4	1	main_slash	11	main_slash	101	stimuli_target_diamondsquares.svg	stimuli_distractor_trianglediamonds.svg	20	yes	53	1	920	0	0			0	0			1				0	
6.6.1	win	2023-06-27	16:57:27	17:07:31	601408	6130ea03d6862384241af61a	4	1	main_slash	11	advance_on_keypress_SLASH	102	stimuli_target_diamondsquares.svg	stimuli_distractor_trianglediamonds.svg	20	yes	57	0	684	0	0			0	0			1				0	
6.6.1	win	2023-06-27	16:57:27	17:07:33	603212	6130ea03d6862384241af61a	4	1	main_slash	11	main_slash	103	stimuli_distractor_diamondtriangles.svg	stimuli_target_diamondrectangles.svg	31	yes	53	1	475	0	0			0	0			1				0	
6.6.1	win	2023-06-27	16:57:27	17:07:33	603212	6130ea03d6862384241af61a	4	1	main_slash	11	advance_on_keypress_SLASH	104	stimuli_distractor_diamondtriangles.svg	stimuli_target_diamondrectangles.svg	31	yes	57	0	596	0	0			0	0			1				0	
6.6.1	win	2023-06-27	16:57:27	17:07:35	605343	6130ea03d6862384241af61a	4	1	main_slash	11	main_slash	105	stimuli_target_rectanglediamonds.svg	stimuli_distractor_trianglediamonds.svg	2	yes	53	1	905	0	0			0	0			1				0	
6.6.1	win	2023-06-27	16:57:27	17:07:35	605343	6130ea03d6862384241af61a	4	1	main_slash	11	advance_on_keypress_SLASH	106	stimuli_target_rectanglediamonds.svg	stimuli_distractor_trianglediamonds.svg	2	yes	57	0	469	0	0			0	0			1				0	
6.6.1	win	2023-06-27	16:57:27	17:07:36	606860	6130ea03d6862384241af61a	4	1	main_slash	11	main_slash	107	stimuli_distractor_trianglediamonds.svg	stimuli_target_squarediamonds.svg	12	yes	53	1	406	0	0			0	0			1				0	
6.6.1	win	2023-06-27	16:57:27	17:07:36	606860	6130ea03d6862384241af61a	4	1	main_slash	11	advance_on_keypress_SLASH	108	stimuli_distractor_trianglediamonds.svg	stimuli_target_squarediamonds.svg	12	yes	57	0	420	0	0			0	0			1				0	
6.6.1	win	2023-06-27	16:57:27	17:07:39	609921	6130ea03d6862384241af61a	4	1	main_slash	11	main_slash	109	stimuli_distractor_diamondtriangles.svg	stimuli_distractor_trianglediamonds.svg	38	no	0	1	2000	0	0			0	0			1				0	
6.6.1	win	2023-06-27	16:57:27	17:07:39	609921	6130ea03d6862384241af61a	4	1	main_slash	11	advance_on_keypress_SLASH	110	stimuli_distractor_diamondtriangles.svg	stimuli_distractor_trianglediamonds.svg	38	no	57	0	516	0	0			0	0			1				0	
6.6.1	win	2023-06-27	16:57:27	17:07:41	611620	6130ea03d6862384241af61a	4	1	main_slash	11	main_slash	111	stimuli_target_trianglesquares.svg	stimuli_distractor_trianglediamonds.svg	18	yes	53	1	533	0	0			0	0			1				0	
6.6.1	win	2023-06-27	16:57:27	17:07:41	611620	6130ea03d6862384241af61a	4	1	main_slash	11	advance_on_keypress_SLASH	112	stimuli_target_trianglesquares.svg	stimuli_distractor_trianglediamonds.svg	18	yes	57	0	421	0	0			0	0			1				0	
6.6.1	win	2023-06-27	16:57:27	17:07:44	614687	6130ea03d6862384241af61a	4	1	main_slash	11	main_slash	113	stimuli_distractor_trianglediamonds.svg	stimuli_distractor_trianglediamonds.svg	33	no	0	1	2000	0	0			0	0			1				0	
6.6.1	win	2023-06-27	16:57:27	17:07:44	614687	6130ea03d6862384241af61a	4	1	main_slash	11	advance_on_keypress_SLASH	114	stimuli_distractor_trianglediamonds.svg	stimuli_distractor_trianglediamonds.svg	33	no	57	0	573	0	0			0	0			1				0	
6.6.1	win	2023-06-27	16:57:27	17:07:46	616432	6130ea03d6862384241af61a	4	1	main_slash	11	main_slash	115	stimuli_target_diamondrectangles.svg	stimuli_distractor_diamondtriangles.svg	23	yes	53	1	529	0	0			0	0			1				0	
6.6.1	win	2023-06-27	16:57:27	17:07:46	616432	6130ea03d6862384241af61a	4	1	main_slash	11	advance_on_keypress_SLASH	116	stimuli_target_diamondrectangles.svg	stimuli_distractor_diamondtriangles.svg	23	yes	57	0	503	0	0			0	0			1				0	
6.6.1	win	2023-06-27	16:57:27	17:07:48	618273	6130ea03d6862384241af61a	4	1	main_slash	11	main_slash	117	stimuli_distractor_trianglediamonds.svg	stimuli_target_rectangletriangles.svg	9	yes	53	1	703	0	0			0	0			1				0	
6.6.1	win	2023-06-27	16:57:27	17:07:48	618273	6130ea03d6862384241af61a	4	1	main_slash	11	advance_on_keypress_SLASH	118	stimuli_distractor_trianglediamonds.svg	stimuli_target_rectangletriangles.svg	9	yes	57	0	698	0	0			0	0			1				0	
6.6.1	win	2023-06-27	16:57:27	17:07:50	620424	6130ea03d6862384241af61a	4	1	main_slash	11	main_slash	119	stimuli_target_trianglerectangles.svg	stimuli_distractor_trianglediamonds.svg	17	yes	53	1	805	0	0			0	0			1				0	
6.6.1	win	2023-06-27	16:57:27	17:07:50	620424	6130ea03d6862384241af61a	4	1	main_slash	11	advance_on_keypress_SLASH	120	stimuli_target_trianglerectangles.svg	stimuli_distractor_trianglediamonds.svg	17	yes	57	0	469	0	0			0	0			1				0	
6.6.1	win	2023-06-27	16:57:27	17:07:53	623536	6130ea03d6862384241af61a	4	1	main_slash	11	main_slash	121	stimuli_distractor_trianglediamonds.svg	stimuli_distractor_diamondtriangles.svg	35	no	0	1	2000	0	0			0	0			1				0	
6.6.1	win	2023-06-27	16:57:27	17:07:53	623536	6130ea03d6862384241af61a	4	1	main_slash	11	advance_on_keypress_SLASH	122	stimuli_distractor_trianglediamonds.svg	stimuli_distractor_diamondtriangles.svg	35	no	57	0	1084	0	0			0	0			1				0	
6.6.1	win	2023-06-27	16:57:27	17:07:55	625917	6130ea03d6862384241af61a	4	1	main_slash	11	main_slash	123	stimuli_target_diamondrectangles.svg	stimuli_distractor_trianglediamonds.svg	19	yes	53	1	646	0	0			0	0			1				0	
6.6.1	win	2023-06-27	16:57:27	17:07:55	625917	6130ea03d6862384241af61a	4	1	main_slash	11	advance_on_keypress_SLASH	124	stimuli_target_diamondrectangles.svg	stimuli_distractor_trianglediamonds.svg	19	yes	57	0	685	0	0			0	0			1				0	
6.6.1	win	2023-06-27	16:57:27	17:07:57	627875	6130ea03d6862384241af61a	4	1	main_slash	11	main_slash	125	stimuli_target_rectanglediamonds.svg	stimuli_distractor_diamondtriangles.svg	6	yes	53	1	622	0	0			0	0			1				0	
6.6.1	win	2023-06-27	16:57:27	17:07:57	627875	6130ea03d6862384241af61a	4	1	main_slash	11	advance_on_keypress_SLASH	126	stimuli_target_rectanglediamonds.svg	stimuli_distractor_diamondtriangles.svg	6	yes	57	0	458	0	0			0	0			1				0	
6.6.1	win	2023-06-27	16:57:27	17:07:59	629534	6130ea03d6862384241af61a	4	1	main_slash	11	main_slash	127	stimuli_distractor_diamondtriangles.svg	stimuli_target_rectangletriangles.svg	13	yes	53	1	565	0	0			0	0			1				0	
6.6.1	win	2023-06-27	16:57:27	17:07:59	629534	6130ea03d6862384241af61a	4	1	main_slash	11	advance_on_keypress_SLASH	128	stimuli_distractor_diamondtriangles.svg	stimuli_target_rectangletriangles.svg	13	yes	57	0	455	0	0			0	0			1				0	
6.6.1	win	2023-06-27	16:57:27	17:08:01	631054	6130ea03d6862384241af61a	4	1	main_slash	11	main_slash	129	stimuli_target_rectangletriangles.svg	stimuli_distractor_diamondtriangles.svg	5	yes	53	1	419	0	0			0	0			1				0	
6.6.1	win	2023-06-27	16:57:27	17:08:01	631054	6130ea03d6862384241af61a	4	1	main_slash	11	advance_on_keypress_SLASH	130	stimuli_target_rectangletriangles.svg	stimuli_distractor_diamondtriangles.svg	5	yes	57	0	546	0	0			0	0			1				0	
6.6.1	win	2023-06-27	16:57:27	17:08:02	632648	6130ea03d6862384241af61a	4	1	main_slash	11	main_slash	131	stimuli_distractor_trianglediamonds.svg	stimuli_target_squaretriangles.svg	11	yes	53	1	396	0	0			0	0			1				0	
6.6.1	win	2023-06-27	16:57:27	17:08:02	632648	6130ea03d6862384241af61a	4	1	main_slash	11	advance_on_keypress_SLASH	132	stimuli_distractor_trianglediamonds.svg	stimuli_target_squaretriangles.svg	11	yes	57	0	521	0	0			0	0			1				0	
6.6.1	win	2023-06-27	16:57:27	17:08:04	634261	6130ea03d6862384241af61a	4	1	main_slash	11	main_slash	133	stimuli_distractor_diamondtriangles.svg	stimuli_target_squaretriangles.svg	15	yes	53	1	459	0	0			0	0			1				0	
6.6.1	win	2023-06-27	16:57:27	17:08:04	634261	6130ea03d6862384241af61a	4	1	main_slash	11	advance_on_keypress_SLASH	134	stimuli_distractor_diamondtriangles.svg	stimuli_target_squaretriangles.svg	15	yes	57	0	641	0	0			0	0			1				0	
6.6.1	win	2023-06-27	16:57:27	17:08:06	636031	6130ea03d6862384241af61a	4	1	main_slash	11	main_slash	135	stimuli_target_squaretriangles.svg	stimuli_distractor_diamondtriangles.svg	7	yes	53	1	495	0	0			0	0			1				0	
6.6.1	win	2023-06-27	16:57:27	17:08:06	636031	6130ea03d6862384241af61a	4	1	main_slash	11	advance_on_keypress_SLASH	136	stimuli_target_squaretriangles.svg	stimuli_distractor_diamondtriangles.svg	7	yes	57	0	644	0	0			0	0			1				0	
6.6.1	win	2023-06-27	16:57:27	17:08:07	637818	6130ea03d6862384241af61a	4	1	main_slash	11	main_slash	137	stimuli_distractor_trianglediamonds.svg	stimuli_target_diamondsquares.svg	28	yes	53	1	517	0	0			0	0			1				0	
6.6.1	win	2023-06-27	16:57:27	17:08:07	637818	6130ea03d6862384241af61a	4	1	main_slash	11	advance_on_keypress_SLASH	138	stimuli_distractor_trianglediamonds.svg	stimuli_target_diamondsquares.svg	28	yes	57	0	425	0	0			0	0			1				0	
6.6.1	win	2023-06-27	16:57:27	17:08:10	640885	6130ea03d6862384241af61a	4	1	main_slash	11	main_slash	139	stimuli_distractor_trianglediamonds.svg	stimuli_distractor_trianglediamonds.svg	34	no	0	1	2000	0	0			0	0			1				0	
6.6.1	win	2023-06-27	16:57:27	17:08:10	640885	6130ea03d6862384241af61a	4	1	main_slash	11	advance_on_keypress_SLASH	140	stimuli_distractor_trianglediamonds.svg	stimuli_distractor_trianglediamonds.svg	34	no	57	0	1722	0	0			0	0			1				0	
6.6.1	win	2023-06-27	16:57:27	17:08:13	643766	6130ea03d6862384241af61a	4	1	main_slash	11	main_slash	141	stimuli_target_trianglerectangles.svg	stimuli_distractor_diamondtriangles.svg	21	yes	53	1	515	0	0			0	0			1				0	
6.6.1	win	2023-06-27	16:57:27	17:08:13	643766	6130ea03d6862384241af61a	4	1	main_slash	11	advance_on_keypress_SLASH	142	stimuli_target_trianglerectangles.svg	stimuli_distractor_diamondtriangles.svg	21	yes	57	0	1026	0	0			0	0			1				0	
6.6.1	win	2023-06-27	16:57:27	17:08:15	645860	6130ea03d6862384241af61a	4	1	main_slash	11	main_slash	143	stimuli_target_squarediamonds.svg	stimuli_distractor_trianglediamonds.svg	4	yes	53	1	426	0	0			0	0			1				0	
6.6.1	win	2023-06-27	16:57:27	17:08:15	645860	6130ea03d6862384241af61a	4	1	main_slash	11	advance_on_keypress_SLASH	144	stimuli_target_squarediamonds.svg	stimuli_distractor_trianglediamonds.svg	4	yes	57	0	365	0	0			0	0			1				0	
6.6.1	win	2023-06-27	16:57:27	17:08:17	647344	6130ea03d6862384241af61a	4	1	main_slash	11	main_slash	145	stimuli_target_squarediamonds.svg	stimuli_distractor_diamondtriangles.svg	8	yes	53	1	477	0	0			0	0			1				0	
6.6.1	win	2023-06-27	16:57:27	17:08:17	647344	6130ea03d6862384241af61a	4	1	main_slash	11	advance_on_keypress_SLASH	146	stimuli_target_squarediamonds.svg	stimuli_distractor_diamondtriangles.svg	8	yes	57	0	564	0	0			0	0			1				0	
6.6.1	win	2023-06-27	16:57:27	17:08:19	649355	6130ea03d6862384241af61a	4	1	main_slash	11	main_slash	147	stimuli_distractor_trianglediamonds.svg	stimuli_target_diamondrectangles.svg	27	yes	53	1	804	0	0			0	0			1				0	
6.6.1	win	2023-06-27	16:57:27	17:08:19	649355	6130ea03d6862384241af61a	4	1	main_slash	11	advance_on_keypress_SLASH	148	stimuli_distractor_trianglediamonds.svg	stimuli_target_diamondrectangles.svg	27	yes	57	0	648	0	0			0	0			1				0	
6.6.1	win	2023-06-27	16:57:27	17:08:21	651581	6130ea03d6862384241af61a	4	1	main_slash	11	main_slash	149	stimuli_distractor_diamondtriangles.svg	stimuli_target_trianglesquares.svg	30	yes	53	1	930	0	0			0	0			1				0	
6.6.1	win	2023-06-27	16:57:27	17:08:21	651581	6130ea03d6862384241af61a	4	1	main_slash	11	advance_on_keypress_SLASH	150	stimuli_distractor_diamondtriangles.svg	stimuli_target_trianglesquares.svg	30	yes	57	0	468	0	0			0	0			1				0	
6.6.1	win	2023-06-27	16:57:27	17:08:23	653519	6130ea03d6862384241af61a	4	1	main_slash	11	main_slash	151	stimuli_target_diamondsquares.svg	stimuli_distractor_diamondtriangles.svg	24	yes	53	1	818	0	0			0	0			1				0	
6.6.1	win	2023-06-27	16:57:27	17:08:23	653519	6130ea03d6862384241af61a	4	1	main_slash	11	advance_on_keypress_SLASH	152	stimuli_target_diamondsquares.svg	stimuli_distractor_diamondtriangles.svg	24	yes	57	0	399	0	0			0	0			1				0	
6.6.1	win	2023-06-27	16:57:27	17:08:26	656567	6130ea03d6862384241af61a	4	1	main_slash	11	main_slash	153	stimuli_distractor_diamondtriangles.svg	stimuli_distractor_diamondtriangles.svg	39	no	0	1	2000	0	0			0	0			1				0	
6.6.1	win	2023-06-27	16:57:27	17:08:26	656567	6130ea03d6862384241af61a	4	1	main_slash	11	advance_on_keypress_SLASH	154	stimuli_distractor_diamondtriangles.svg	stimuli_distractor_diamondtriangles.svg	39	no	57	0	1595	0	0			0	0			1				0	
6.6.1	win	2023-06-27	16:57:27	17:08:30	660800	6130ea03d6862384241af61a	4	1	main_slash	11	main_slash	155	stimuli_distractor_diamondtriangles.svg	stimuli_distractor_trianglediamonds.svg	37	no	0	1	2000	0	0			0	0			1				0	
6.6.1	win	2023-06-27	16:57:27	17:08:30	660800	6130ea03d6862384241af61a	4	1	main_slash	11	advance_on_keypress_SLASH	156	stimuli_distractor_diamondtriangles.svg	stimuli_distractor_trianglediamonds.svg	37	no	57	0	735	0	0			0	0			1				0	
6.6.1	win	2023-06-27	16:57:27	17:08:32	662619	6130ea03d6862384241af61a	4	1	main_slash	11	main_slash	157	stimuli_distractor_diamondtriangles.svg	stimuli_target_rectanglediamonds.svg	14	yes	53	1	436	0	0			0	0			1				0	
6.6.1	win	2023-06-27	16:57:27	17:08:32	662619	6130ea03d6862384241af61a	4	1	main_slash	11	advance_on_keypress_SLASH	158	stimuli_distractor_diamondtriangles.svg	stimuli_target_rectanglediamonds.svg	14	yes	57	0	368	0	0			0	0			1				0	
6.6.1	win	2023-06-27	16:57:27	17:08:34	664006	6130ea03d6862384241af61a	4	1	main_slash	11	main_slash	159	stimuli_target_rectangletriangles.svg	stimuli_distractor_trianglediamonds.svg	1	yes	53	1	367	0	0			0	0			1				0	
6.6.1	win	2023-06-27	16:57:27	17:08:34	664006	6130ea03d6862384241af61a	4	1	main_slash	11	advance_on_keypress_SLASH	160	stimuli_target_rectangletriangles.svg	stimuli_distractor_trianglediamonds.svg	1	yes	57	0	391	0	0			0	0			1				0	
6.6.1	win	2023-06-27	16:57:27	17:08:34	664006	6130ea03d6862384241af61a	4	1	headphonecheck_calibration	14	headphonecheck_calibrationIntro	1	stimuli_target_rectangletriangles.svg	stimuli_distractor_trianglediamonds.svg	1	yes	calibrationButton	0	3388	0	0			0	0			1				0	
6.6.1	win	2023-06-27	16:57:27	17:08:34	664006	6130ea03d6862384241af61a	4	1	headphonecheck_testphase	15	test_collectResponse	3	stimuli_target_rectangletriangles.svg	stimuli_distractor_trianglediamonds.svg	1	yes	third	0	15155	1	5	antiphase_hc_osi.wav	2	0	0			1				0	
6.6.1	win	2023-06-27	16:57:27	17:08:34	664006	6130ea03d6862384241af61a	4	1	headphonecheck_testphase	15	test_collectResponse	6	stimuli_target_rectangletriangles.svg	stimuli_distractor_trianglediamonds.svg	1	yes	third	0	1264	2	4	antiphase_hc_sio.wav	1	0	0			1				0	
6.6.1	win	2023-06-27	16:57:27	17:08:34	664006	6130ea03d6862384241af61a	4	1	headphonecheck_testphase	15	test_collectResponse	9	stimuli_target_rectangletriangles.svg	stimuli_distractor_trianglediamonds.svg	1	yes	third	0	712	3	1	antiphase_hc_iso.wav	2	0	0			1				0	
6.6.1	win	2023-06-27	16:57:27	17:08:34	664006	6130ea03d6862384241af61a	4	1	headphonecheck_testphase	15	test_collectResponse	12	stimuli_target_rectangletriangles.svg	stimuli_distractor_trianglediamonds.svg	1	yes	second	0	594	4	3	antiphase_hc_soi.wav	1	0	0			1				0	
6.6.1	win	2023-06-27	16:57:27	17:08:34	664006	6130ea03d6862384241af61a	4	1	headphonecheck_testphase	15	test_collectResponse	15	stimuli_target_rectangletriangles.svg	stimuli_distractor_trianglediamonds.svg	1	yes	first	0	2688	5	6	antiphase_hc_ois.wav	3	0	0			1				0	
6.6.1	win	2023-06-27	16:57:27	17:08:34	664006	6130ea03d6862384241af61a	4	1	headphonecheck_testphase	15	test_collectResponse	18	stimuli_target_rectangletriangles.svg	stimuli_distractor_trianglediamonds.svg	1	yes	second	0	548	6	2	antiphase_hc_ios.wav	3	0	0			1				0	
6.6.1	win	2023-06-27	16:57:27	17:08:34	664006	6130ea03d6862384241af61a	4	1	stereocheck_calibration	17	stereocheck_calibrationIntro	1	stimuli_target_rectangletriangles.svg	stimuli_distractor_trianglediamonds.svg	1	yes	stereocheck_calibrationButton	0	5565	6	2	antiphase_hc_ios.wav	3	0	0			1				0	
6.6.1	win	2023-06-27	16:57:27	17:08:34	664006	6130ea03d6862384241af61a	4	1	stereocheck_testphase	18	stereocheck_test_collectResponse	3	stimuli_target_rectangletriangles.svg	stimuli_distractor_trianglediamonds.svg	1	yes	stereocheck_right	1	802	6	2	antiphase_hc_ios.wav	3	1	5	noise_calib_stim_RIGHT.wav	2	1				0	
6.6.1	win	2023-06-27	16:57:27	17:08:34	664006	6130ea03d6862384241af61a	4	1	stereocheck_testphase	18	stereocheck_test_collectResponse	6	stimuli_target_rectangletriangles.svg	stimuli_distractor_trianglediamonds.svg	1	yes	stereocheck_left	1	2964	6	2	antiphase_hc_ios.wav	3	2	1	noise_calib_stim_LEFT.wav	1	1				0	
6.6.1	win	2023-06-27	16:57:27	17:08:34	664006	6130ea03d6862384241af61a	4	1	stereocheck_testphase	18	stereocheck_test_collectResponse	9	stimuli_target_rectangletriangles.svg	stimuli_distractor_trianglediamonds.svg	1	yes	stereocheck_left	1	1103	6	2	antiphase_hc_ios.wav	3	3	2	noise_calib_stim_LEFT.wav	1	1				0	
6.6.1	win	2023-06-27	16:57:27	17:08:34	664006	6130ea03d6862384241af61a	4	1	stereocheck_testphase	18	stereocheck_test_collectResponse	12	stimuli_target_rectangletriangles.svg	stimuli_distractor_trianglediamonds.svg	1	yes	stereocheck_right	1	399	6	2	antiphase_hc_ios.wav	3	4	6	noise_calib_stim_RIGHT.wav	2	1				0	
6.6.1	win	2023-06-27	16:57:27	17:08:34	664006	6130ea03d6862384241af61a	4	1	stereocheck_testphase	18	stereocheck_test_collectResponse	15	stimuli_target_rectangletriangles.svg	stimuli_distractor_trianglediamonds.svg	1	yes	stereocheck_left	1	421	6	2	antiphase_hc_ios.wav	3	5	3	noise_calib_stim_LEFT.wav	1	1				0	
6.6.1	win	2023-06-27	16:57:27	17:08:34	664006	6130ea03d6862384241af61a	4	1	stereocheck_testphase	18	stereocheck_test_collectResponse	18	stimuli_target_rectangletriangles.svg	stimuli_distractor_trianglediamonds.svg	1	yes	stereocheck_right	1	232	6	2	antiphase_hc_ios.wav	3	6	4	noise_calib_stim_RIGHT.wav	2	1				0	
6.6.1	win	2023-06-27	16:57:27	17:08:34	664006	6130ea03d6862384241af61a	4	1	DL_practice	21	DL_practice	2	stimuli_target_rectangletriangles.svg	stimuli_distractor_trianglediamonds.svg	1	yes	ka	1	1038	6	2	antiphase_hc_ios.wav	3	6	4	noise_calib_stim_RIGHT.wav	2	22	blb_dichoticlistening_ka-ka.mp3	ka	ka	0	left
6.6.1	win	2023-06-27	16:57:27	17:08:34	664006	6130ea03d6862384241af61a	4	1	DL_practice	21	DL_practice	3	stimuli_target_rectangletriangles.svg	stimuli_distractor_trianglediamonds.svg	1	yes	ba	1	1683	6	2	antiphase_hc_ios.wav	3	6	4	noise_calib_stim_RIGHT.wav	2	1	blb_dichoticlistening_ba-ba.mp3	ba	ba	0	left
6.6.1	win	2023-06-27	16:57:27	17:08:34	664006	6130ea03d6862384241af61a	4	1	DL_practice	21	DL_practice	4	stimuli_target_rectangletriangles.svg	stimuli_distractor_trianglediamonds.svg	1	yes	pa	1	1216	6	2	antiphase_hc_ios.wav	3	6	4	noise_calib_stim_RIGHT.wav	2	29	blb_dichoticlistening_pa-pa.mp3	pa	pa	0	left
6.6.1	win	2023-06-27	16:57:27	17:08:34	664006	6130ea03d6862384241af61a	4	1	DL_practice	21	DL_practice	5	stimuli_target_rectangletriangles.svg	stimuli_distractor_trianglediamonds.svg	1	yes	da	1	1593	6	2	antiphase_hc_ios.wav	3	6	4	noise_calib_stim_RIGHT.wav	2	7	blb_dichoticlistening_da-ba.mp3	da	ba	1	left
6.6.1	win	2023-06-27	16:57:27	17:08:34	664006	6130ea03d6862384241af61a	4	1	DL_practice	21	DL_practice	6	stimuli_target_rectangletriangles.svg	stimuli_distractor_trianglediamonds.svg	1	yes	ta	1	1618	6	2	antiphase_hc_ios.wav	3	6	4	noise_calib_stim_RIGHT.wav	2	36	blb_dichoticlistening_ta-ta.mp3	ta	ta	0	left
6.6.1	win	2023-06-27	16:57:27	17:08:34	664006	6130ea03d6862384241af61a	4	1	DL_practice	21	DL_practice	7	stimuli_target_rectangletriangles.svg	stimuli_distractor_trianglediamonds.svg	1	yes	da	1	1138	6	2	antiphase_hc_ios.wav	3	6	4	noise_calib_stim_RIGHT.wav	2	8	blb_dichoticlistening_da-da.mp3	da	da	0	left
6.6.1	win	2023-06-27	16:57:27	17:08:34	664006	6130ea03d6862384241af61a	4	1	DL_practice	21	DL_practice	8	stimuli_target_rectangletriangles.svg	stimuli_distractor_trianglediamonds.svg	1	yes	ga	1	840	6	2	antiphase_hc_ios.wav	3	6	4	noise_calib_stim_RIGHT.wav	2	15	blb_dichoticlistening_ga-ga.mp3	ga	ga	0	left
6.6.1	win	2023-06-27	16:57:27	17:08:34	664006	6130ea03d6862384241af61a	4	1	DL_practice	21	DL_practice	9	stimuli_target_rectangletriangles.svg	stimuli_distractor_trianglediamonds.svg	1	yes	ka	0	2055	6	2	antiphase_hc_ios.wav	3	6	4	noise_calib_stim_RIGHT.wav	2	18	blb_dichoticlistening_ga-ta.mp3	ga	ta	1	other
6.6.1	win	2023-06-27	16:57:27	17:08:34	664006	6130ea03d6862384241af61a	4	1	DL_practice	21	DL_practice	10	stimuli_target_rectangletriangles.svg	stimuli_distractor_trianglediamonds.svg	1	yes	pa	1	995	6	2	antiphase_hc_ios.wav	3	6	4	noise_calib_stim_RIGHT.wav	2	23	blb_dichoticlistening_ka-pa.mp3	ka	pa	1	right
6.6.1	win	2023-06-27	16:57:27	17:08:34	664006	6130ea03d6862384241af61a	4	1	DL_test	23	DL_test	1	stimuli_target_rectangletriangles.svg	stimuli_distractor_trianglediamonds.svg	1	yes	pa	1	1760	6	2	antiphase_hc_ios.wav	3	6	4	noise_calib_stim_RIGHT.wav	2	23	blb_dichoticlistening_ka-pa.mp3	ka	pa	1	right
6.6.1	win	2023-06-27	16:57:27	17:08:34	664006	6130ea03d6862384241af61a	4	1	DL_test	23	DL_test	2	stimuli_target_rectangletriangles.svg	stimuli_distractor_trianglediamonds.svg	1	yes	ba	1	1261	6	2	antiphase_hc_ios.wav	3	6	4	noise_calib_stim_RIGHT.wav	2	1	blb_dichoticlistening_ba-ba.mp3	ba	ba	0	left
6.6.1	win	2023-06-27	16:57:27	17:08:34	664006	6130ea03d6862384241af61a	4	1	DL_test	23	DL_test	3	stimuli_target_rectangletriangles.svg	stimuli_distractor_trianglediamonds.svg	1	yes	da	1	690	6	2	antiphase_hc_ios.wav	3	6	4	noise_calib_stim_RIGHT.wav	2	8	blb_dichoticlistening_da-da.mp3	da	da	0	left
6.6.1	win	2023-06-27	16:57:27	17:08:34	664006	6130ea03d6862384241af61a	4	1	DL_test	23	DL_test	4	stimuli_target_rectangletriangles.svg	stimuli_distractor_trianglediamonds.svg	1	yes	pa	0	1392	6	2	antiphase_hc_ios.wav	3	6	4	noise_calib_stim_RIGHT.wav	2	10	blb_dichoticlistening_da-ka.mp3	da	ka	1	other
6.6.1	win	2023-06-27	16:57:27	17:08:34	664006	6130ea03d6862384241af61a	4	1	DL_test	23	DL_test	5	stimuli_target_rectangletriangles.svg	stimuli_distractor_trianglediamonds.svg	1	yes	pa	1	1328	6	2	antiphase_hc_ios.wav	3	6	4	noise_calib_stim_RIGHT.wav	2	11	blb_dichoticlistening_da-pa.mp3	da	pa	1	right
6.6.1	win	2023-06-27	16:57:27	17:08:34	664006	6130ea03d6862384241af61a	4	1	DL_test	23	DL_test	6	stimuli_target_rectangletriangles.svg	stimuli_distractor_trianglediamonds.svg	1	yes	pa	1	800	6	2	antiphase_hc_ios.wav	3	6	4	noise_calib_stim_RIGHT.wav	2	29	blb_dichoticlistening_pa-pa.mp3	pa	pa	0	left
6.6.1	win	2023-06-27	16:57:27	17:08:34	664006	6130ea03d6862384241af61a	4	1	DL_test	23	DL_test	7	stimuli_target_rectangletriangles.svg	stimuli_distractor_trianglediamonds.svg	1	yes	da	1	2266	6	2	antiphase_hc_ios.wav	3	6	4	noise_calib_stim_RIGHT.wav	2	32	blb_dichoticlistening_ta-da.mp3	ta	da	1	right
6.6.1	win	2023-06-27	16:57:27	17:08:34	664006	6130ea03d6862384241af61a	4	1	DL_test	23	DL_test	8	stimuli_target_rectangletriangles.svg	stimuli_distractor_trianglediamonds.svg	1	yes	ga	1	988	6	2	antiphase_hc_ios.wav	3	6	4	noise_calib_stim_RIGHT.wav	2	14	blb_dichoticlistening_ga-da.mp3	ga	da	1	left
6.6.1	win	2023-06-27	16:57:27	17:08:34	664006	6130ea03d6862384241af61a	4	1	DL_test	23	DL_test	9	stimuli_target_rectangletriangles.svg	stimuli_distractor_trianglediamonds.svg	1	yes	ga	0	968	6	2	antiphase_hc_ios.wav	3	6	4	noise_calib_stim_RIGHT.wav	2	20	blb_dichoticlistening_ka-da.mp3	ka	da	1	other
6.6.1	win	2023-06-27	16:57:27	17:08:34	664006	6130ea03d6862384241af61a	4	1	DL_test	23	DL_test	10	stimuli_target_rectangletriangles.svg	stimuli_distractor_trianglediamonds.svg	1	yes	ta	1	1270	6	2	antiphase_hc_ios.wav	3	6	4	noise_calib_stim_RIGHT.wav	2	6	blb_dichoticlistening_ba-ta.mp3	ba	ta	1	right
6.6.1	win	2023-06-27	16:57:27	17:08:34	664006	6130ea03d6862384241af61a	4	1	DL_test	23	DL_test	11	stimuli_target_rectangletriangles.svg	stimuli_distractor_trianglediamonds.svg	1	yes	ta	1	914	6	2	antiphase_hc_ios.wav	3	6	4	noise_calib_stim_RIGHT.wav	2	12	blb_dichoticlistening_da-ta.mp3	da	ta	1	right
6.6.1	win	2023-06-27	16:57:27	17:08:34	664006	6130ea03d6862384241af61a	4	1	DL_test	23	DL_test	12	stimuli_target_rectangletriangles.svg	stimuli_distractor_trianglediamonds.svg	1	yes	pa	1	1227	6	2	antiphase_hc_ios.wav	3	6	4	noise_calib_stim_RIGHT.wav	2	25	blb_dichoticlistening_pa-ba.mp3	pa	ba	1	left
6.6.1	win	2023-06-27	16:57:27	17:08:34	664006	6130ea03d6862384241af61a	4	1	DL_test	23	DL_test	13	stimuli_target_rectangletriangles.svg	stimuli_distractor_trianglediamonds.svg	1	yes	da	1	1631	6	2	antiphase_hc_ios.wav	3	6	4	noise_calib_stim_RIGHT.wav	2	7	blb_dichoticlistening_da-ba.mp3	da	ba	1	left
6.6.1	win	2023-06-27	16:57:27	17:08:34	664006	6130ea03d6862384241af61a	4	1	DL_test	23	DL_test	14	stimuli_target_rectangletriangles.svg	stimuli_distractor_trianglediamonds.svg	1	yes	pa	1	1607	6	2	antiphase_hc_ios.wav	3	6	4	noise_calib_stim_RIGHT.wav	2	26	blb_dichoticlistening_pa-da.mp3	pa	da	1	left
6.6.1	win	2023-06-27	16:57:27	17:08:34	664006	6130ea03d6862384241af61a	4	1	DL_test	23	DL_test	15	stimuli_target_rectangletriangles.svg	stimuli_distractor_trianglediamonds.svg	1	yes	ka	1	1020	6	2	antiphase_hc_ios.wav	3	6	4	noise_calib_stim_RIGHT.wav	2	24	blb_dichoticlistening_ka-ta.mp3	ka	ta	1	left
6.6.1	win	2023-06-27	16:57:27	17:08:34	664006	6130ea03d6862384241af61a	4	1	DL_test	23	DL_test	16	stimuli_target_rectangletriangles.svg	stimuli_distractor_trianglediamonds.svg	1	yes	ka	1	942	6	2	antiphase_hc_ios.wav	3	6	4	noise_calib_stim_RIGHT.wav	2	22	blb_dichoticlistening_ka-ka.mp3	ka	ka	0	left
6.6.1	win	2023-06-27	16:57:27	17:08:34	664006	6130ea03d6862384241af61a	4	1	DL_test	23	DL_test	17	stimuli_target_rectangletriangles.svg	stimuli_distractor_trianglediamonds.svg	1	yes	ga	1	1368	6	2	antiphase_hc_ios.wav	3	6	4	noise_calib_stim_RIGHT.wav	2	16	blb_dichoticlistening_ga-ka.mp3	ga	ka	1	left
6.6.1	win	2023-06-27	16:57:27	17:08:34	664006	6130ea03d6862384241af61a	4	1	DL_test	23	DL_test	18	stimuli_target_rectangletriangles.svg	stimuli_distractor_trianglediamonds.svg	1	yes	ga	1	834	6	2	antiphase_hc_ios.wav	3	6	4	noise_calib_stim_RIGHT.wav	2	17	blb_dichoticlistening_ga-pa.mp3	ga	pa	1	left
6.6.1	win	2023-06-27	16:57:27	17:08:34	664006	6130ea03d6862384241af61a	4	1	DL_test	23	DL_test	19	stimuli_target_rectangletriangles.svg	stimuli_distractor_trianglediamonds.svg	1	yes	ba	1	1712	6	2	antiphase_hc_ios.wav	3	6	4	noise_calib_stim_RIGHT.wav	2	3	blb_dichoticlistening_ba-ga.mp3	ba	ga	1	left
6.6.1	win	2023-06-27	16:57:27	17:08:34	664006	6130ea03d6862384241af61a	4	1	DL_test	23	DL_test	20	stimuli_target_rectangletriangles.svg	stimuli_distractor_trianglediamonds.svg	1	yes	ka	1	1543	6	2	antiphase_hc_ios.wav	3	6	4	noise_calib_stim_RIGHT.wav	2	28	blb_dichoticlistening_pa-ka.mp3	pa	ka	1	right
6.6.1	win	2023-06-27	16:57:27	17:08:34	664006	6130ea03d6862384241af61a	4	1	DL_test	23	DL_test	21	stimuli_target_rectangletriangles.svg	stimuli_distractor_trianglediamonds.svg	1	yes	ka	1	1106	6	2	antiphase_hc_ios.wav	3	6	4	noise_calib_stim_RIGHT.wav	2	4	blb_dichoticlistening_ba-ka.mp3	ba	ka	1	right
6.6.1	win	2023-06-27	16:57:27	17:08:34	664006	6130ea03d6862384241af61a	4	1	DL_test	23	DL_test	22	stimuli_target_rectangletriangles.svg	stimuli_distractor_trianglediamonds.svg	1	yes	ka	1	1917	6	2	antiphase_hc_ios.wav	3	6	4	noise_calib_stim_RIGHT.wav	2	19	blb_dichoticlistening_ka-ba.mp3	ka	ba	1	left
6.6.1	win	2023-06-27	16:57:27	17:08:34	664006	6130ea03d6862384241af61a	4	1	DL_test	23	DL_test	23	stimuli_target_rectangletriangles.svg	stimuli_distractor_trianglediamonds.svg	1	yes	pa	1	861	6	2	antiphase_hc_ios.wav	3	6	4	noise_calib_stim_RIGHT.wav	2	5	blb_dichoticlistening_ba-pa.mp3	ba	pa	1	right
6.6.1	win	2023-06-27	16:57:27	17:08:34	664006	6130ea03d6862384241af61a	4	1	DL_test	23	DL_test	24	stimuli_target_rectangletriangles.svg	stimuli_distractor_trianglediamonds.svg	1	yes	ga	1	1186	6	2	antiphase_hc_ios.wav	3	6	4	noise_calib_stim_RIGHT.wav	2	21	blb_dichoticlistening_ka-ga.mp3	ka	ga	1	right
6.6.1	win	2023-06-27	16:57:27	17:08:34	664006	6130ea03d6862384241af61a	4	1	DL_test	23	DL_test	25	stimuli_target_rectangletriangles.svg	stimuli_distractor_trianglediamonds.svg	1	yes	ta	1	2029	6	2	antiphase_hc_ios.wav	3	6	4	noise_calib_stim_RIGHT.wav	2	31	blb_dichoticlistening_ta-ba.mp3	ta	ba	1	left
6.6.1	win	2023-06-27	16:57:27	17:08:34	664006	6130ea03d6862384241af61a	4	1	DL_test	23	DL_test	26	stimuli_target_rectangletriangles.svg	stimuli_distractor_trianglediamonds.svg	1	yes	ta	1	1378	6	2	antiphase_hc_ios.wav	3	6	4	noise_calib_stim_RIGHT.wav	2	35	blb_dichoticlistening_ta-pa.mp3	ta	pa	1	left
