build	computer.platform	date	time	timestamp	time_elapsed_ms	subject	group	session	blockcode	blocknum	trialcode	trialnum	stimulus_left	stimulus_right	stim_index	target_present	response	correct	latency	headphonecheck_countTestTrials	headphonecheck_index	headphonecheck_testSound	headphonecheck_correctResponse	stereocheck_countTestTrials	stereocheck_index	stereocheck_testSound	stereocheck_correctResponse	DL_index	DL_soundfile	DL_leftSound	DL_rightSound	DL_dualSound	DL_choice
6.6.1	win	2023-06-19	18:11:26	0	0	5c28884289f035000174bfbe	2	1	headphonecheck_calibration	4	headphonecheck_calibrationIntro	1			0		calibrationButton	0	7221	0	0			0	0			1				0	
6.6.1	win	2023-06-19	18:11:26	0	0	5c28884289f035000174bfbe	2	1	headphonecheck_testphase	5	test_collectResponse	3			0		third	1	1783	1	2	antiphase_hc_ios.wav	3	0	0			1				0	
6.6.1	win	2023-06-19	18:11:26	0	0	5c28884289f035000174bfbe	2	1	headphonecheck_testphase	5	test_collectResponse	6			0		first	1	1149	2	4	antiphase_hc_sio.wav	1	0	0			1				0	
6.6.1	win	2023-06-19	18:11:26	0	0	5c28884289f035000174bfbe	2	1	headphonecheck_testphase	5	test_collectResponse	9			0		second	1	896	3	5	antiphase_hc_osi.wav	2	0	0			1				0	
6.6.1	win	2023-06-19	18:11:26	0	0	5c28884289f035000174bfbe	2	1	headphonecheck_testphase	5	test_collectResponse	12			0		third	1	949	4	6	antiphase_hc_ois.wav	3	0	0			1				0	
6.6.1	win	2023-06-19	18:11:26	0	0	5c28884289f035000174bfbe	2	1	headphonecheck_testphase	5	test_collectResponse	15			0		second	1	640	5	1	antiphase_hc_iso.wav	2	0	0			1				0	
6.6.1	win	2023-06-19	18:11:26	0	0	5c28884289f035000174bfbe	2	1	headphonecheck_testphase	5	test_collectResponse	18			0		first	1	573	6	3	antiphase_hc_soi.wav	1	0	0			1				0	
6.6.1	win	2023-06-19	18:11:26	0	0	5c28884289f035000174bfbe	2	1	stereocheck_calibration	7	stereocheck_calibrationIntro	1			0		stereocheck_calibrationButton	0	28219	6	3	antiphase_hc_soi.wav	1	0	0			1				0	
6.6.1	win	2023-06-19	18:11:26	0	0	5c28884289f035000174bfbe	2	1	stereocheck_testphase	8	stereocheck_test_collectResponse	3			0		stereocheck_right	1	970	6	3	antiphase_hc_soi.wav	1	1	6	noise_calib_stim_RIGHT.wav	2	1				0	
6.6.1	win	2023-06-19	18:11:26	0	0	5c28884289f035000174bfbe	2	1	stereocheck_testphase	8	stereocheck_test_collectResponse	6			0		stereocheck_right	1	747	6	3	antiphase_hc_soi.wav	1	2	5	noise_calib_stim_RIGHT.wav	2	1				0	
6.6.1	win	2023-06-19	18:11:26	0	0	5c28884289f035000174bfbe	2	1	stereocheck_testphase	8	stereocheck_test_collectResponse	9			0		stereocheck_left	1	875	6	3	antiphase_hc_soi.wav	1	3	1	noise_calib_stim_LEFT.wav	1	1				0	
6.6.1	win	2023-06-19	18:11:26	0	0	5c28884289f035000174bfbe	2	1	stereocheck_testphase	8	stereocheck_test_collectResponse	12			0		stereocheck_left	1	816	6	3	antiphase_hc_soi.wav	1	4	2	noise_calib_stim_LEFT.wav	1	1				0	
6.6.1	win	2023-06-19	18:11:26	0	0	5c28884289f035000174bfbe	2	1	stereocheck_testphase	8	stereocheck_test_collectResponse	15			0		stereocheck_right	1	542	6	3	antiphase_hc_soi.wav	1	5	4	noise_calib_stim_RIGHT.wav	2	1				0	
6.6.1	win	2023-06-19	18:11:26	0	0	5c28884289f035000174bfbe	2	1	stereocheck_testphase	8	stereocheck_test_collectResponse	18			0		stereocheck_left	1	969	6	3	antiphase_hc_soi.wav	1	6	3	noise_calib_stim_LEFT.wav	1	1				0	
6.6.1	win	2023-06-19	18:11:26	0	0	5c28884289f035000174bfbe	2	1	DL_practice	11	DL_practice	2			0		ka	1	4048	6	3	antiphase_hc_soi.wav	1	6	3	noise_calib_stim_LEFT.wav	1	23	blb_dichoticlistening_ka-pa.mp3	ka	pa	1	left
6.6.1	win	2023-06-19	18:11:26	0	0	5c28884289f035000174bfbe	2	1	DL_practice	11	DL_practice	3			0		da	1	3325	6	3	antiphase_hc_soi.wav	1	6	3	noise_calib_stim_LEFT.wav	1	7	blb_dichoticlistening_da-ba.mp3	da	ba	1	left
6.6.1	win	2023-06-19	18:11:26	0	0	5c28884289f035000174bfbe	2	1	DL_practice	11	DL_practice	4			0		pa	1	1737	6	3	antiphase_hc_soi.wav	1	6	3	noise_calib_stim_LEFT.wav	1	29	blb_dichoticlistening_pa-pa.mp3	pa	pa	0	left
6.6.1	win	2023-06-19	18:11:26	0	0	5c28884289f035000174bfbe	2	1	DL_practice	11	DL_practice	5			0		ta	1	2064	6	3	antiphase_hc_soi.wav	1	6	3	noise_calib_stim_LEFT.wav	1	36	blb_dichoticlistening_ta-ta.mp3	ta	ta	0	left
6.6.1	win	2023-06-19	18:11:26	0	0	5c28884289f035000174bfbe	2	1	DL_practice	11	DL_practice	6			0		ga	1	1806	6	3	antiphase_hc_soi.wav	1	6	3	noise_calib_stim_LEFT.wav	1	15	blb_dichoticlistening_ga-ga.mp3	ga	ga	0	left
6.6.1	win	2023-06-19	18:11:26	0	0	5c28884289f035000174bfbe	2	1	DL_practice	11	DL_practice	7			0		ga	1	3769	6	3	antiphase_hc_soi.wav	1	6	3	noise_calib_stim_LEFT.wav	1	18	blb_dichoticlistening_ga-ta.mp3	ga	ta	1	left
6.6.1	win	2023-06-19	18:11:26	0	0	5c28884289f035000174bfbe	2	1	DL_practice	11	DL_practice	8			0		da	1	1578	6	3	antiphase_hc_soi.wav	1	6	3	noise_calib_stim_LEFT.wav	1	8	blb_dichoticlistening_da-da.mp3	da	da	0	left
6.6.1	win	2023-06-19	18:11:26	0	0	5c28884289f035000174bfbe	2	1	DL_practice	11	DL_practice	9			0		ka	1	1709	6	3	antiphase_hc_soi.wav	1	6	3	noise_calib_stim_LEFT.wav	1	22	blb_dichoticlistening_ka-ka.mp3	ka	ka	0	left
6.6.1	win	2023-06-19	18:11:26	0	0	5c28884289f035000174bfbe	2	1	DL_practice	11	DL_practice	10			0		ba	1	1577	6	3	antiphase_hc_soi.wav	1	6	3	noise_calib_stim_LEFT.wav	1	1	blb_dichoticlistening_ba-ba.mp3	ba	ba	0	left
6.6.1	win	2023-06-19	18:11:26	0	0	5c28884289f035000174bfbe	2	1	DL_test	13	DL_test	1			0		ba	1	3253	6	3	antiphase_hc_soi.wav	1	6	3	noise_calib_stim_LEFT.wav	1	3	blb_dichoticlistening_ba-ga.mp3	ba	ga	1	left
6.6.1	win	2023-06-19	18:11:26	0	0	5c28884289f035000174bfbe	2	1	DL_test	13	DL_test	2			0		ka	0	2544	6	3	antiphase_hc_soi.wav	1	6	3	noise_calib_stim_LEFT.wav	1	18	blb_dichoticlistening_ga-ta.mp3	ga	ta	1	other
6.6.1	win	2023-06-19	18:11:26	0	0	5c28884289f035000174bfbe	2	1	DL_test	13	DL_test	3			0		ka	1	1855	6	3	antiphase_hc_soi.wav	1	6	3	noise_calib_stim_LEFT.wav	1	21	blb_dichoticlistening_ka-ga.mp3	ka	ga	1	left
6.6.1	win	2023-06-19	18:11:26	0	0	5c28884289f035000174bfbe	2	1	DL_test	13	DL_test	4			0		da	1	1696	6	3	antiphase_hc_soi.wav	1	6	3	noise_calib_stim_LEFT.wav	1	12	blb_dichoticlistening_da-ta.mp3	da	ta	1	left
6.6.1	win	2023-06-19	18:11:26	0	0	5c28884289f035000174bfbe	2	1	DL_test	13	DL_test	5			0		ka	1	2740	6	3	antiphase_hc_soi.wav	1	6	3	noise_calib_stim_LEFT.wav	1	28	blb_dichoticlistening_pa-ka.mp3	pa	ka	1	right
6.6.1	win	2023-06-19	18:11:26	0	0	5c28884289f035000174bfbe	2	1	DL_test	13	DL_test	6			0		pa	1	2608	6	3	antiphase_hc_soi.wav	1	6	3	noise_calib_stim_LEFT.wav	1	26	blb_dichoticlistening_pa-da.mp3	pa	da	1	left
6.6.1	win	2023-06-19	18:11:26	0	0	5c28884289f035000174bfbe	2	1	DL_test	13	DL_test	7			0		ka	1	2606	6	3	antiphase_hc_soi.wav	1	6	3	noise_calib_stim_LEFT.wav	1	20	blb_dichoticlistening_ka-da.mp3	ka	da	1	left
6.6.1	win	2023-06-19	18:11:26	0	0	5c28884289f035000174bfbe	2	1	DL_test	13	DL_test	8			0		pa	0	3870	6	3	antiphase_hc_soi.wav	1	6	3	noise_calib_stim_LEFT.wav	1	4	blb_dichoticlistening_ba-ka.mp3	ba	ka	1	other
6.6.1	win	2023-06-19	18:11:26	0	0	5c28884289f035000174bfbe	2	1	DL_test	13	DL_test	9			0		ka	1	1575	6	3	antiphase_hc_soi.wav	1	6	3	noise_calib_stim_LEFT.wav	1	24	blb_dichoticlistening_ka-ta.mp3	ka	ta	1	left
6.6.1	win	2023-06-19	18:11:26	0	0	5c28884289f035000174bfbe	2	1	DL_test	13	DL_test	10			0		da	1	3641	6	3	antiphase_hc_soi.wav	1	6	3	noise_calib_stim_LEFT.wav	1	11	blb_dichoticlistening_da-pa.mp3	da	pa	1	left
6.6.1	win	2023-06-19	18:11:26	0	0	5c28884289f035000174bfbe	2	1	DL_test	13	DL_test	11			0		da	1	1175	6	3	antiphase_hc_soi.wav	1	6	3	noise_calib_stim_LEFT.wav	1	14	blb_dichoticlistening_ga-da.mp3	ga	da	1	right
6.6.1	win	2023-06-19	18:11:26	0	0	5c28884289f035000174bfbe	2	1	DL_test	13	DL_test	12			0		ga	1	2316	6	3	antiphase_hc_soi.wav	1	6	3	noise_calib_stim_LEFT.wav	1	17	blb_dichoticlistening_ga-pa.mp3	ga	pa	1	left
6.6.1	win	2023-06-19	18:11:26	0	0	5c28884289f035000174bfbe	2	1	DL_test	13	DL_test	13			0		pa	1	1712	6	3	antiphase_hc_soi.wav	1	6	3	noise_calib_stim_LEFT.wav	1	27	blb_dichoticlistening_pa-ga.mp3	pa	ga	1	left
6.6.1	win	2023-06-19	18:11:26	0	0	5c28884289f035000174bfbe	2	1	DL_test	13	DL_test	14			0		ka	1	2450	6	3	antiphase_hc_soi.wav	1	6	3	noise_calib_stim_LEFT.wav	1	16	blb_dichoticlistening_ga-ka.mp3	ga	ka	1	right
6.6.1	win	2023-06-19	18:11:26	0	0	5c28884289f035000174bfbe	2	1	DL_test	13	DL_test	15			0		ga	1	1521	6	3	antiphase_hc_soi.wav	1	6	3	noise_calib_stim_LEFT.wav	1	15	blb_dichoticlistening_ga-ga.mp3	ga	ga	0	left
6.6.1	win	2023-06-19	18:11:26	0	0	5c28884289f035000174bfbe	2	1	DL_test	13	DL_test	16			0		da	1	1957	6	3	antiphase_hc_soi.wav	1	6	3	noise_calib_stim_LEFT.wav	1	7	blb_dichoticlistening_da-ba.mp3	da	ba	1	left
6.6.1	win	2023-06-19	18:11:26	0	0	5c28884289f035000174bfbe	2	1	DL_test	13	DL_test	17			0		ka	1	2682	6	3	antiphase_hc_soi.wav	1	6	3	noise_calib_stim_LEFT.wav	1	23	blb_dichoticlistening_ka-pa.mp3	ka	pa	1	left
6.6.1	win	2023-06-19	18:11:26	0	0	5c28884289f035000174bfbe	2	1	DL_test	13	DL_test	18			0		ba	1	1667	6	3	antiphase_hc_soi.wav	1	6	3	noise_calib_stim_LEFT.wav	1	2	blb_dichoticlistening_ba-da.mp3	ba	da	1	left
6.6.1	win	2023-06-19	18:11:26	0	0	5c28884289f035000174bfbe	2	1	DL_test	13	DL_test	19			0		ta	1	2331	6	3	antiphase_hc_soi.wav	1	6	3	noise_calib_stim_LEFT.wav	1	31	blb_dichoticlistening_ta-ba.mp3	ta	ba	1	left
6.6.1	win	2023-06-19	18:11:26	0	0	5c28884289f035000174bfbe	2	1	DL_test	13	DL_test	20			0		ta	1	1010	6	3	antiphase_hc_soi.wav	1	6	3	noise_calib_stim_LEFT.wav	1	32	blb_dichoticlistening_ta-da.mp3	ta	da	1	left
6.6.1	win	2023-06-19	18:11:26	0	0	5c28884289f035000174bfbe	2	1	DL_test	13	DL_test	21			0		ka	1	1625	6	3	antiphase_hc_soi.wav	1	6	3	noise_calib_stim_LEFT.wav	1	19	blb_dichoticlistening_ka-ba.mp3	ka	ba	1	left
6.6.1	win	2023-06-19	18:11:26	0	0	5c28884289f035000174bfbe	2	1	DL_test	13	DL_test	22			0		ta	1	1505	6	3	antiphase_hc_soi.wav	1	6	3	noise_calib_stim_LEFT.wav	1	36	blb_dichoticlistening_ta-ta.mp3	ta	ta	0	left
6.6.1	win	2023-06-19	18:11:26	0	0	5c28884289f035000174bfbe	2	1	DL_test	13	DL_test	23			0		ba	1	1560	6	3	antiphase_hc_soi.wav	1	6	3	noise_calib_stim_LEFT.wav	1	1	blb_dichoticlistening_ba-ba.mp3	ba	ba	0	left
6.6.1	win	2023-06-19	18:11:26	0	0	5c28884289f035000174bfbe	2	1	DL_test	13	DL_test	24			0		ta	1	1841	6	3	antiphase_hc_soi.wav	1	6	3	noise_calib_stim_LEFT.wav	1	35	blb_dichoticlistening_ta-pa.mp3	ta	pa	1	left
6.6.1	win	2023-06-19	18:11:26	0	0	5c28884289f035000174bfbe	2	1	DL_test	13	DL_test	25			0		ka	0	1916	6	3	antiphase_hc_soi.wav	1	6	3	noise_calib_stim_LEFT.wav	1	30	blb_dichoticlistening_pa-ta.mp3	pa	ta	1	other
6.6.1	win	2023-06-19	18:11:26	0	0	5c28884289f035000174bfbe	2	1	DL_test	13	DL_test	26			0		pa	1	2174	6	3	antiphase_hc_soi.wav	1	6	3	noise_calib_stim_LEFT.wav	1	25	blb_dichoticlistening_pa-ba.mp3	pa	ba	1	left
6.6.1	win	2023-06-19	18:11:26	0	0	5c28884289f035000174bfbe	2	1	DL_test	13	DL_test	27			0		ka	0	2716	6	3	antiphase_hc_soi.wav	1	6	3	noise_calib_stim_LEFT.wav	1	6	blb_dichoticlistening_ba-ta.mp3	ba	ta	1	other
6.6.1	win	2023-06-19	18:11:26	0	0	5c28884289f035000174bfbe	2	1	DL_test	13	DL_test	28			0		pa	1	1387	6	3	antiphase_hc_soi.wav	1	6	3	noise_calib_stim_LEFT.wav	1	29	blb_dichoticlistening_pa-pa.mp3	pa	pa	0	left
6.6.1	win	2023-06-19	18:11:26	0	0	5c28884289f035000174bfbe	2	1	DL_test	13	DL_test	29			0		ba	1	1833	6	3	antiphase_hc_soi.wav	1	6	3	noise_calib_stim_LEFT.wav	1	13	blb_dichoticlistening_ga-ba.mp3	ga	ba	1	right
6.6.1	win	2023-06-19	18:11:26	0	0	5c28884289f035000174bfbe	2	1	DL_test	13	DL_test	30			0		da	1	1310	6	3	antiphase_hc_soi.wav	1	6	3	noise_calib_stim_LEFT.wav	1	10	blb_dichoticlistening_da-ka.mp3	da	ka	1	left
6.6.1	win	2023-06-19	18:11:26	0	0	5c28884289f035000174bfbe	2	1	DL_test	13	DL_test	31			0		pa	1	1758	6	3	antiphase_hc_soi.wav	1	6	3	noise_calib_stim_LEFT.wav	1	5	blb_dichoticlistening_ba-pa.mp3	ba	pa	1	right
6.6.1	win	2023-06-19	18:11:26	0	0	5c28884289f035000174bfbe	2	1	DL_test	13	DL_test	32			0		ga	1	1337	6	3	antiphase_hc_soi.wav	1	6	3	noise_calib_stim_LEFT.wav	1	9	blb_dichoticlistening_da-ga.mp3	da	ga	1	right
6.6.1	win	2023-06-19	18:11:26	0	0	5c28884289f035000174bfbe	2	1	DL_test	13	DL_test	33			0		ka	1	1193	6	3	antiphase_hc_soi.wav	1	6	3	noise_calib_stim_LEFT.wav	1	34	blb_dichoticlistening_ta-ka.mp3	ta	ka	1	right
6.6.1	win	2023-06-19	18:11:26	0	0	5c28884289f035000174bfbe	2	1	DL_test	13	DL_test	34			0		da	1	1476	6	3	antiphase_hc_soi.wav	1	6	3	noise_calib_stim_LEFT.wav	1	8	blb_dichoticlistening_da-da.mp3	da	da	0	left
6.6.1	win	2023-06-19	18:11:26	0	0	5c28884289f035000174bfbe	2	1	DL_test	13	DL_test	35			0		ka	1	1241	6	3	antiphase_hc_soi.wav	1	6	3	noise_calib_stim_LEFT.wav	1	22	blb_dichoticlistening_ka-ka.mp3	ka	ka	0	left
6.6.1	win	2023-06-19	18:11:26	0	0	5c28884289f035000174bfbe	2	1	DL_test	13	DL_test	36			0		ka	0	1467	6	3	antiphase_hc_soi.wav	1	6	3	noise_calib_stim_LEFT.wav	1	33	blb_dichoticlistening_ta-ga.mp3	ta	ga	1	other
6.6.1	win	2023-06-19	18:11:26	0	0	5c28884289f035000174bfbe	2	1	DL_test	14	DL_test	1			0		ba	1	1674	6	3	antiphase_hc_soi.wav	1	6	3	noise_calib_stim_LEFT.wav	1	2	blb_dichoticlistening_ba-da.mp3	ba	da	1	left
6.6.1	win	2023-06-19	18:11:26	0	0	5c28884289f035000174bfbe	2	1	DL_test	14	DL_test	2			0		ba	1	674	6	3	antiphase_hc_soi.wav	1	6	3	noise_calib_stim_LEFT.wav	1	1	blb_dichoticlistening_ba-ba.mp3	ba	ba	0	left
6.6.1	win	2023-06-19	18:11:26	0	0	5c28884289f035000174bfbe	2	1	DL_test	14	DL_test	3			0		ka	0	1639	6	3	antiphase_hc_soi.wav	1	6	3	noise_calib_stim_LEFT.wav	1	12	blb_dichoticlistening_da-ta.mp3	da	ta	1	other
6.6.1	win	2023-06-19	18:11:26	0	0	5c28884289f035000174bfbe	2	1	DL_test	14	DL_test	4			0		pa	1	1420	6	3	antiphase_hc_soi.wav	1	6	3	noise_calib_stim_LEFT.wav	1	30	blb_dichoticlistening_pa-ta.mp3	pa	ta	1	left
6.6.1	win	2023-06-19	18:11:26	0	0	5c28884289f035000174bfbe	2	1	DL_test	14	DL_test	5			0		ka	1	1388	6	3	antiphase_hc_soi.wav	1	6	3	noise_calib_stim_LEFT.wav	1	16	blb_dichoticlistening_ga-ka.mp3	ga	ka	1	right
6.6.1	win	2023-06-19	18:11:26	0	0	5c28884289f035000174bfbe	2	1	DL_test	14	DL_test	6			0		ka	1	949	6	3	antiphase_hc_soi.wav	1	6	3	noise_calib_stim_LEFT.wav	1	22	blb_dichoticlistening_ka-ka.mp3	ka	ka	0	left
6.6.1	win	2023-06-19	18:11:26	0	0	5c28884289f035000174bfbe	2	1	DL_test	14	DL_test	7			0		ka	1	1896	6	3	antiphase_hc_soi.wav	1	6	3	noise_calib_stim_LEFT.wav	1	19	blb_dichoticlistening_ka-ba.mp3	ka	ba	1	left
6.6.1	win	2023-06-19	18:11:26	0	0	5c28884289f035000174bfbe	2	1	DL_test	14	DL_test	8			0		pa	1	1243	6	3	antiphase_hc_soi.wav	1	6	3	noise_calib_stim_LEFT.wav	1	17	blb_dichoticlistening_ga-pa.mp3	ga	pa	1	right
6.6.1	win	2023-06-19	18:11:26	0	0	5c28884289f035000174bfbe	2	1	DL_test	14	DL_test	9			0		pa	1	982	6	3	antiphase_hc_soi.wav	1	6	3	noise_calib_stim_LEFT.wav	1	29	blb_dichoticlistening_pa-pa.mp3	pa	pa	0	left
6.6.1	win	2023-06-19	18:11:26	0	0	5c28884289f035000174bfbe	2	1	DL_test	14	DL_test	10			0		da	1	1505	6	3	antiphase_hc_soi.wav	1	6	3	noise_calib_stim_LEFT.wav	1	11	blb_dichoticlistening_da-pa.mp3	da	pa	1	left
6.6.1	win	2023-06-19	18:11:26	0	0	5c28884289f035000174bfbe	2	1	DL_test	14	DL_test	11			0		ta	1	2918	6	3	antiphase_hc_soi.wav	1	6	3	noise_calib_stim_LEFT.wav	1	31	blb_dichoticlistening_ta-ba.mp3	ta	ba	1	left
6.6.1	win	2023-06-19	18:11:26	0	0	5c28884289f035000174bfbe	2	1	DL_test	14	DL_test	12			0		ka	1	1499	6	3	antiphase_hc_soi.wav	1	6	3	noise_calib_stim_LEFT.wav	1	23	blb_dichoticlistening_ka-pa.mp3	ka	pa	1	left
6.6.1	win	2023-06-19	18:11:26	0	0	5c28884289f035000174bfbe	2	1	DL_test	14	DL_test	13			0		ka	0	3882	6	3	antiphase_hc_soi.wav	1	6	3	noise_calib_stim_LEFT.wav	1	32	blb_dichoticlistening_ta-da.mp3	ta	da	1	other
6.6.1	win	2023-06-19	18:11:26	0	0	5c28884289f035000174bfbe	2	1	DL_test	14	DL_test	14			0		ga	1	1118	6	3	antiphase_hc_soi.wav	1	6	3	noise_calib_stim_LEFT.wav	1	15	blb_dichoticlistening_ga-ga.mp3	ga	ga	0	left
6.6.1	win	2023-06-19	18:11:26	0	0	5c28884289f035000174bfbe	2	1	DL_test	14	DL_test	15			0		ka	0	3817	6	3	antiphase_hc_soi.wav	1	6	3	noise_calib_stim_LEFT.wav	1	18	blb_dichoticlistening_ga-ta.mp3	ga	ta	1	other
6.6.1	win	2023-06-19	18:11:26	0	0	5c28884289f035000174bfbe	2	1	DL_test	14	DL_test	16			0		ba	1	1593	6	3	antiphase_hc_soi.wav	1	6	3	noise_calib_stim_LEFT.wav	1	3	blb_dichoticlistening_ba-ga.mp3	ba	ga	1	left
6.6.1	win	2023-06-19	18:11:26	0	0	5c28884289f035000174bfbe	2	1	DL_test	14	DL_test	17			0		pa	1	1504	6	3	antiphase_hc_soi.wav	1	6	3	noise_calib_stim_LEFT.wav	1	26	blb_dichoticlistening_pa-da.mp3	pa	da	1	left
6.6.1	win	2023-06-19	18:11:26	0	0	5c28884289f035000174bfbe	2	1	DL_test	14	DL_test	18			0		ka	0	2189	6	3	antiphase_hc_soi.wav	1	6	3	noise_calib_stim_LEFT.wav	1	6	blb_dichoticlistening_ba-ta.mp3	ba	ta	1	other
6.6.1	win	2023-06-19	18:11:26	0	0	5c28884289f035000174bfbe	2	1	DL_test	14	DL_test	19			0		da	1	1509	6	3	antiphase_hc_soi.wav	1	6	3	noise_calib_stim_LEFT.wav	1	8	blb_dichoticlistening_da-da.mp3	da	da	0	left
6.6.1	win	2023-06-19	18:11:26	0	0	5c28884289f035000174bfbe	2	1	DL_test	14	DL_test	20			0		ka	1	1316	6	3	antiphase_hc_soi.wav	1	6	3	noise_calib_stim_LEFT.wav	1	20	blb_dichoticlistening_ka-da.mp3	ka	da	1	left
6.6.1	win	2023-06-19	18:11:26	0	0	5c28884289f035000174bfbe	2	1	DL_test	14	DL_test	21			0		ga	1	2132	6	3	antiphase_hc_soi.wav	1	6	3	noise_calib_stim_LEFT.wav	1	21	blb_dichoticlistening_ka-ga.mp3	ka	ga	1	right
6.6.1	win	2023-06-19	18:11:26	0	0	5c28884289f035000174bfbe	2	1	DL_test	14	DL_test	22			0		ta	1	1464	6	3	antiphase_hc_soi.wav	1	6	3	noise_calib_stim_LEFT.wav	1	33	blb_dichoticlistening_ta-ga.mp3	ta	ga	1	left
6.6.1	win	2023-06-19	18:11:26	0	0	5c28884289f035000174bfbe	2	1	DL_test	14	DL_test	23			0		pa	0	2085	6	3	antiphase_hc_soi.wav	1	6	3	noise_calib_stim_LEFT.wav	1	4	blb_dichoticlistening_ba-ka.mp3	ba	ka	1	other
6.6.1	win	2023-06-19	18:11:26	0	0	5c28884289f035000174bfbe	2	1	DL_test	14	DL_test	24			0		pa	1	1462	6	3	antiphase_hc_soi.wav	1	6	3	noise_calib_stim_LEFT.wav	1	25	blb_dichoticlistening_pa-ba.mp3	pa	ba	1	left
6.6.1	win	2023-06-19	18:11:26	0	0	5c28884289f035000174bfbe	2	1	DL_test	14	DL_test	25			0		ka	1	1304	6	3	antiphase_hc_soi.wav	1	6	3	noise_calib_stim_LEFT.wav	1	34	blb_dichoticlistening_ta-ka.mp3	ta	ka	1	right
6.6.1	win	2023-06-19	18:11:26	0	0	5c28884289f035000174bfbe	2	1	DL_test	14	DL_test	26			0		pa	1	1577	6	3	antiphase_hc_soi.wav	1	6	3	noise_calib_stim_LEFT.wav	1	27	blb_dichoticlistening_pa-ga.mp3	pa	ga	1	left
6.6.1	win	2023-06-19	18:11:26	0	0	5c28884289f035000174bfbe	2	1	DL_test	14	DL_test	27			0		ta	1	1275	6	3	antiphase_hc_soi.wav	1	6	3	noise_calib_stim_LEFT.wav	1	36	blb_dichoticlistening_ta-ta.mp3	ta	ta	0	left
6.6.1	win	2023-06-19	18:11:26	0	0	5c28884289f035000174bfbe	2	1	DL_test	14	DL_test	28			0		da	1	1357	6	3	antiphase_hc_soi.wav	1	6	3	noise_calib_stim_LEFT.wav	1	10	blb_dichoticlistening_da-ka.mp3	da	ka	1	left
6.6.1	win	2023-06-19	18:11:26	0	0	5c28884289f035000174bfbe	2	1	DL_test	14	DL_test	29			0		ka	1	1299	6	3	antiphase_hc_soi.wav	1	6	3	noise_calib_stim_LEFT.wav	1	24	blb_dichoticlistening_ka-ta.mp3	ka	ta	1	left
6.6.1	win	2023-06-19	18:11:26	0	0	5c28884289f035000174bfbe	2	1	DL_test	14	DL_test	30			0		ba	1	1410	6	3	antiphase_hc_soi.wav	1	6	3	noise_calib_stim_LEFT.wav	1	13	blb_dichoticlistening_ga-ba.mp3	ga	ba	1	right
6.6.1	win	2023-06-19	18:11:26	0	0	5c28884289f035000174bfbe	2	1	DL_test	14	DL_test	31			0		da	1	1428	6	3	antiphase_hc_soi.wav	1	6	3	noise_calib_stim_LEFT.wav	1	9	blb_dichoticlistening_da-ga.mp3	da	ga	1	left
6.6.1	win	2023-06-19	18:11:26	0	0	5c28884289f035000174bfbe	2	1	DL_test	14	DL_test	32			0		ga	1	1032	6	3	antiphase_hc_soi.wav	1	6	3	noise_calib_stim_LEFT.wav	1	14	blb_dichoticlistening_ga-da.mp3	ga	da	1	left
6.6.1	win	2023-06-19	18:11:26	0	0	5c28884289f035000174bfbe	2	1	DL_test	14	DL_test	33			0		da	1	1616	6	3	antiphase_hc_soi.wav	1	6	3	noise_calib_stim_LEFT.wav	1	7	blb_dichoticlistening_da-ba.mp3	da	ba	1	left
6.6.1	win	2023-06-19	18:11:26	0	0	5c28884289f035000174bfbe	2	1	DL_test	14	DL_test	34			0		ta	1	1383	6	3	antiphase_hc_soi.wav	1	6	3	noise_calib_stim_LEFT.wav	1	35	blb_dichoticlistening_ta-pa.mp3	ta	pa	1	left
6.6.1	win	2023-06-19	18:11:26	0	0	5c28884289f035000174bfbe	2	1	DL_test	14	DL_test	35			0		pa	1	1191	6	3	antiphase_hc_soi.wav	1	6	3	noise_calib_stim_LEFT.wav	1	28	blb_dichoticlistening_pa-ka.mp3	pa	ka	1	left
6.6.1	win	2023-06-19	18:11:26	0	0	5c28884289f035000174bfbe	2	1	DL_test	14	DL_test	36			0		pa	1	1307	6	3	antiphase_hc_soi.wav	1	6	3	noise_calib_stim_LEFT.wav	1	5	blb_dichoticlistening_ba-pa.mp3	ba	pa	1	right
6.6.1	win	2023-06-19	18:11:26	0	0	5c28884289f035000174bfbe	2	1	DL_test	15	DL_test	1			0		pa	0	2469	6	3	antiphase_hc_soi.wav	1	6	3	noise_calib_stim_LEFT.wav	1	6	blb_dichoticlistening_ba-ta.mp3	ba	ta	1	other
6.6.1	win	2023-06-19	18:11:26	0	0	5c28884289f035000174bfbe	2	1	DL_test	15	DL_test	2			0		da	0	1286	6	3	antiphase_hc_soi.wav	1	6	3	noise_calib_stim_LEFT.wav	1	13	blb_dichoticlistening_ga-ba.mp3	ga	ba	1	other
6.6.1	win	2023-06-19	18:11:26	0	0	5c28884289f035000174bfbe	2	1	DL_test	15	DL_test	3			0		ka	0	1640	6	3	antiphase_hc_soi.wav	1	6	3	noise_calib_stim_LEFT.wav	1	11	blb_dichoticlistening_da-pa.mp3	da	pa	1	other
6.6.1	win	2023-06-19	18:11:26	0	0	5c28884289f035000174bfbe	2	1	DL_test	15	DL_test	4			0		ta	1	1369	6	3	antiphase_hc_soi.wav	1	6	3	noise_calib_stim_LEFT.wav	1	32	blb_dichoticlistening_ta-da.mp3	ta	da	1	left
6.6.1	win	2023-06-19	18:11:26	0	0	5c28884289f035000174bfbe	2	1	DL_test	15	DL_test	5			0		ka	1	2144	6	3	antiphase_hc_soi.wav	1	6	3	noise_calib_stim_LEFT.wav	1	20	blb_dichoticlistening_ka-da.mp3	ka	da	1	left
6.6.1	win	2023-06-19	18:11:26	0	0	5c28884289f035000174bfbe	2	1	DL_test	15	DL_test	6			0		da	1	1390	6	3	antiphase_hc_soi.wav	1	6	3	noise_calib_stim_LEFT.wav	1	10	blb_dichoticlistening_da-ka.mp3	da	ka	1	left
6.6.1	win	2023-06-19	18:11:26	0	0	5c28884289f035000174bfbe	2	1	DL_test	15	DL_test	7			0		ga	1	852	6	3	antiphase_hc_soi.wav	1	6	3	noise_calib_stim_LEFT.wav	1	14	blb_dichoticlistening_ga-da.mp3	ga	da	1	left
6.6.1	win	2023-06-19	18:11:26	0	0	5c28884289f035000174bfbe	2	1	DL_test	15	DL_test	8			0		ka	1	1565	6	3	antiphase_hc_soi.wav	1	6	3	noise_calib_stim_LEFT.wav	1	23	blb_dichoticlistening_ka-pa.mp3	ka	pa	1	left
6.6.1	win	2023-06-19	18:11:26	0	0	5c28884289f035000174bfbe	2	1	DL_test	15	DL_test	9			0		ka	1	2138	6	3	antiphase_hc_soi.wav	1	6	3	noise_calib_stim_LEFT.wav	1	28	blb_dichoticlistening_pa-ka.mp3	pa	ka	1	right
6.6.1	win	2023-06-19	18:11:26	0	0	5c28884289f035000174bfbe	2	1	DL_test	15	DL_test	10			0		ga	1	1333	6	3	antiphase_hc_soi.wav	1	6	3	noise_calib_stim_LEFT.wav	1	15	blb_dichoticlistening_ga-ga.mp3	ga	ga	0	left
6.6.1	win	2023-06-19	18:11:26	0	0	5c28884289f035000174bfbe	2	1	DL_test	15	DL_test	11			0		pa	0	1422	6	3	antiphase_hc_soi.wav	1	6	3	noise_calib_stim_LEFT.wav	1	4	blb_dichoticlistening_ba-ka.mp3	ba	ka	1	other
6.6.1	win	2023-06-19	18:11:26	0	0	5c28884289f035000174bfbe	2	1	DL_test	15	DL_test	12			0		ka	1	1445	6	3	antiphase_hc_soi.wav	1	6	3	noise_calib_stim_LEFT.wav	1	19	blb_dichoticlistening_ka-ba.mp3	ka	ba	1	left
6.6.1	win	2023-06-19	18:11:26	0	0	5c28884289f035000174bfbe	2	1	DL_test	15	DL_test	13			0		ga	1	1569	6	3	antiphase_hc_soi.wav	1	6	3	noise_calib_stim_LEFT.wav	1	17	blb_dichoticlistening_ga-pa.mp3	ga	pa	1	left
6.6.1	win	2023-06-19	18:11:26	0	0	5c28884289f035000174bfbe	2	1	DL_test	15	DL_test	14			0		pa	1	1288	6	3	antiphase_hc_soi.wav	1	6	3	noise_calib_stim_LEFT.wav	1	27	blb_dichoticlistening_pa-ga.mp3	pa	ga	1	left
6.6.1	win	2023-06-19	18:11:26	0	0	5c28884289f035000174bfbe	2	1	DL_test	15	DL_test	15			0		ka	0	1222	6	3	antiphase_hc_soi.wav	1	6	3	noise_calib_stim_LEFT.wav	1	33	blb_dichoticlistening_ta-ga.mp3	ta	ga	1	other
6.6.1	win	2023-06-19	18:11:26	0	0	5c28884289f035000174bfbe	2	1	DL_test	15	DL_test	16			0		ba	1	1209	6	3	antiphase_hc_soi.wav	1	6	3	noise_calib_stim_LEFT.wav	1	5	blb_dichoticlistening_ba-pa.mp3	ba	pa	1	left
6.6.1	win	2023-06-19	18:11:26	0	0	5c28884289f035000174bfbe	2	1	DL_test	15	DL_test	17			0		ta	1	1233	6	3	antiphase_hc_soi.wav	1	6	3	noise_calib_stim_LEFT.wav	1	35	blb_dichoticlistening_ta-pa.mp3	ta	pa	1	left
6.6.1	win	2023-06-19	18:11:26	0	0	5c28884289f035000174bfbe	2	1	DL_test	15	DL_test	18			0		ba	1	1249	6	3	antiphase_hc_soi.wav	1	6	3	noise_calib_stim_LEFT.wav	1	1	blb_dichoticlistening_ba-ba.mp3	ba	ba	0	left
6.6.1	win	2023-06-19	18:11:26	0	0	5c28884289f035000174bfbe	2	1	DL_test	15	DL_test	19			0		ga	1	836	6	3	antiphase_hc_soi.wav	1	6	3	noise_calib_stim_LEFT.wav	1	9	blb_dichoticlistening_da-ga.mp3	da	ga	1	right
6.6.1	win	2023-06-19	18:11:26	0	0	5c28884289f035000174bfbe	2	1	DL_test	15	DL_test	20			0		pa	1	1298	6	3	antiphase_hc_soi.wav	1	6	3	noise_calib_stim_LEFT.wav	1	29	blb_dichoticlistening_pa-pa.mp3	pa	pa	0	left
6.6.1	win	2023-06-19	18:11:26	0	0	5c28884289f035000174bfbe	2	1	DL_test	15	DL_test	21			0		pa	1	858	6	3	antiphase_hc_soi.wav	1	6	3	noise_calib_stim_LEFT.wav	1	25	blb_dichoticlistening_pa-ba.mp3	pa	ba	1	left
6.6.1	win	2023-06-19	18:11:26	0	0	5c28884289f035000174bfbe	2	1	DL_test	15	DL_test	22			0		da	1	2512	6	3	antiphase_hc_soi.wav	1	6	3	noise_calib_stim_LEFT.wav	1	7	blb_dichoticlistening_da-ba.mp3	da	ba	1	left
6.6.1	win	2023-06-19	18:11:26	0	0	5c28884289f035000174bfbe	2	1	DL_test	15	DL_test	23			0		ba	1	2180	6	3	antiphase_hc_soi.wav	1	6	3	noise_calib_stim_LEFT.wav	1	3	blb_dichoticlistening_ba-ga.mp3	ba	ga	1	left
6.6.1	win	2023-06-19	18:11:26	0	0	5c28884289f035000174bfbe	2	1	DL_test	15	DL_test	24			0		ka	1	1125	6	3	antiphase_hc_soi.wav	1	6	3	noise_calib_stim_LEFT.wav	1	34	blb_dichoticlistening_ta-ka.mp3	ta	ka	1	right
6.6.1	win	2023-06-19	18:11:26	0	0	5c28884289f035000174bfbe	2	1	DL_test	15	DL_test	25			0		ta	1	1197	6	3	antiphase_hc_soi.wav	1	6	3	noise_calib_stim_LEFT.wav	1	30	blb_dichoticlistening_pa-ta.mp3	pa	ta	1	right
6.6.1	win	2023-06-19	18:11:26	0	0	5c28884289f035000174bfbe	2	1	DL_test	15	DL_test	26			0		da	1	1622	6	3	antiphase_hc_soi.wav	1	6	3	noise_calib_stim_LEFT.wav	1	2	blb_dichoticlistening_ba-da.mp3	ba	da	1	right
6.6.1	win	2023-06-19	18:11:26	0	0	5c28884289f035000174bfbe	2	1	DL_test	15	DL_test	27			0		ga	1	862	6	3	antiphase_hc_soi.wav	1	6	3	noise_calib_stim_LEFT.wav	1	16	blb_dichoticlistening_ga-ka.mp3	ga	ka	1	left
6.6.1	win	2023-06-19	18:11:26	0	0	5c28884289f035000174bfbe	2	1	DL_test	15	DL_test	28			0		ka	1	1118	6	3	antiphase_hc_soi.wav	1	6	3	noise_calib_stim_LEFT.wav	1	24	blb_dichoticlistening_ka-ta.mp3	ka	ta	1	left
6.6.1	win	2023-06-19	18:11:26	0	0	5c28884289f035000174bfbe	2	1	DL_test	15	DL_test	29			0		ka	0	1066	6	3	antiphase_hc_soi.wav	1	6	3	noise_calib_stim_LEFT.wav	1	18	blb_dichoticlistening_ga-ta.mp3	ga	ta	1	other
6.6.1	win	2023-06-19	18:11:26	0	0	5c28884289f035000174bfbe	2	1	DL_test	15	DL_test	30			0		ta	1	1407	6	3	antiphase_hc_soi.wav	1	6	3	noise_calib_stim_LEFT.wav	1	36	blb_dichoticlistening_ta-ta.mp3	ta	ta	0	left
6.6.1	win	2023-06-19	18:11:26	0	0	5c28884289f035000174bfbe	2	1	DL_test	15	DL_test	31			0		ta	1	1550	6	3	antiphase_hc_soi.wav	1	6	3	noise_calib_stim_LEFT.wav	1	31	blb_dichoticlistening_ta-ba.mp3	ta	ba	1	left
6.6.1	win	2023-06-19	18:11:26	0	0	5c28884289f035000174bfbe	2	1	DL_test	15	DL_test	32			0		ka	1	1242	6	3	antiphase_hc_soi.wav	1	6	3	noise_calib_stim_LEFT.wav	1	21	blb_dichoticlistening_ka-ga.mp3	ka	ga	1	left
6.6.1	win	2023-06-19	18:11:26	0	0	5c28884289f035000174bfbe	2	1	DL_test	15	DL_test	33			0		pa	1	1479	6	3	antiphase_hc_soi.wav	1	6	3	noise_calib_stim_LEFT.wav	1	26	blb_dichoticlistening_pa-da.mp3	pa	da	1	left
6.6.1	win	2023-06-19	18:11:26	0	0	5c28884289f035000174bfbe	2	1	DL_test	15	DL_test	34			0		da	1	2245	6	3	antiphase_hc_soi.wav	1	6	3	noise_calib_stim_LEFT.wav	1	12	blb_dichoticlistening_da-ta.mp3	da	ta	1	left
6.6.1	win	2023-06-19	18:11:26	0	0	5c28884289f035000174bfbe	2	1	DL_test	15	DL_test	35			0		da	1	827	6	3	antiphase_hc_soi.wav	1	6	3	noise_calib_stim_LEFT.wav	1	8	blb_dichoticlistening_da-da.mp3	da	da	0	left
6.6.1	win	2023-06-19	18:11:26	0	0	5c28884289f035000174bfbe	2	1	DL_test	15	DL_test	36			0		ka	1	1330	6	3	antiphase_hc_soi.wav	1	6	3	noise_calib_stim_LEFT.wav	1	22	blb_dichoticlistening_ka-ka.mp3	ka	ka	0	left
6.6.1	win	2023-06-19	18:11:26	0	0	5c28884289f035000174bfbe	2	1	DL_test	16	DL_test	1			0		ta	1	2208	6	3	antiphase_hc_soi.wav	1	6	3	noise_calib_stim_LEFT.wav	1	12	blb_dichoticlistening_da-ta.mp3	da	ta	1	right
6.6.1	win	2023-06-19	18:11:26	0	0	5c28884289f035000174bfbe	2	1	DL_test	16	DL_test	2			0		ga	1	1779	6	3	antiphase_hc_soi.wav	1	6	3	noise_calib_stim_LEFT.wav	1	33	blb_dichoticlistening_ta-ga.mp3	ta	ga	1	right
6.6.1	win	2023-06-19	18:11:26	0	0	5c28884289f035000174bfbe	2	1	DL_test	16	DL_test	3			0		pa	1	1457	6	3	antiphase_hc_soi.wav	1	6	3	noise_calib_stim_LEFT.wav	1	30	blb_dichoticlistening_pa-ta.mp3	pa	ta	1	left
6.6.1	win	2023-06-19	18:11:26	0	0	5c28884289f035000174bfbe	2	1	DL_test	16	DL_test	4			0		ga	1	1611	6	3	antiphase_hc_soi.wav	1	6	3	noise_calib_stim_LEFT.wav	1	16	blb_dichoticlistening_ga-ka.mp3	ga	ka	1	left
6.6.1	win	2023-06-19	18:11:26	0	0	5c28884289f035000174bfbe	2	1	DL_test	16	DL_test	5			0		da	1	1405	6	3	antiphase_hc_soi.wav	1	6	3	noise_calib_stim_LEFT.wav	1	9	blb_dichoticlistening_da-ga.mp3	da	ga	1	left
6.6.1	win	2023-06-19	18:11:26	0	0	5c28884289f035000174bfbe	2	1	DL_test	16	DL_test	6			0		ta	1	1635	6	3	antiphase_hc_soi.wav	1	6	3	noise_calib_stim_LEFT.wav	1	36	blb_dichoticlistening_ta-ta.mp3	ta	ta	0	left
6.6.1	win	2023-06-19	18:11:26	0	0	5c28884289f035000174bfbe	2	1	DL_test	16	DL_test	7			0		pa	1	1486	6	3	antiphase_hc_soi.wav	1	6	3	noise_calib_stim_LEFT.wav	1	29	blb_dichoticlistening_pa-pa.mp3	pa	pa	0	left
6.6.1	win	2023-06-19	18:11:26	0	0	5c28884289f035000174bfbe	2	1	DL_test	16	DL_test	8			0		ba	1	2039	6	3	antiphase_hc_soi.wav	1	6	3	noise_calib_stim_LEFT.wav	1	3	blb_dichoticlistening_ba-ga.mp3	ba	ga	1	left
6.6.1	win	2023-06-19	18:11:26	0	0	5c28884289f035000174bfbe	2	1	DL_test	16	DL_test	9			0		ba	1	1876	6	3	antiphase_hc_soi.wav	1	6	3	noise_calib_stim_LEFT.wav	1	13	blb_dichoticlistening_ga-ba.mp3	ga	ba	1	right
6.6.1	win	2023-06-19	18:11:26	0	0	5c28884289f035000174bfbe	2	1	DL_test	16	DL_test	10			0		pa	1	1571	6	3	antiphase_hc_soi.wav	1	6	3	noise_calib_stim_LEFT.wav	1	27	blb_dichoticlistening_pa-ga.mp3	pa	ga	1	left
6.6.1	win	2023-06-19	18:11:26	0	0	5c28884289f035000174bfbe	2	1	DL_test	16	DL_test	11			0		pa	1	1568	6	3	antiphase_hc_soi.wav	1	6	3	noise_calib_stim_LEFT.wav	1	26	blb_dichoticlistening_pa-da.mp3	pa	da	1	left
6.6.1	win	2023-06-19	18:11:26	0	0	5c28884289f035000174bfbe	2	1	DL_test	16	DL_test	12			0		da	1	1588	6	3	antiphase_hc_soi.wav	1	6	3	noise_calib_stim_LEFT.wav	1	7	blb_dichoticlistening_da-ba.mp3	da	ba	1	left
6.6.1	win	2023-06-19	18:11:26	0	0	5c28884289f035000174bfbe	2	1	DL_test	16	DL_test	13			0		ga	0	964	6	3	antiphase_hc_soi.wav	1	6	3	noise_calib_stim_LEFT.wav	1	20	blb_dichoticlistening_ka-da.mp3	ka	da	1	other
6.6.1	win	2023-06-19	18:11:26	0	0	5c28884289f035000174bfbe	2	1	DL_test	16	DL_test	14			0		ka	1	1764	6	3	antiphase_hc_soi.wav	1	6	3	noise_calib_stim_LEFT.wav	1	22	blb_dichoticlistening_ka-ka.mp3	ka	ka	0	left
6.6.1	win	2023-06-19	18:11:26	0	0	5c28884289f035000174bfbe	2	1	DL_test	16	DL_test	15			0		ta	1	2208	6	3	antiphase_hc_soi.wav	1	6	3	noise_calib_stim_LEFT.wav	1	32	blb_dichoticlistening_ta-da.mp3	ta	da	1	left
6.6.1	win	2023-06-19	18:11:26	0	0	5c28884289f035000174bfbe	2	1	DL_test	16	DL_test	16			0		ka	1	1261	6	3	antiphase_hc_soi.wav	1	6	3	noise_calib_stim_LEFT.wav	1	23	blb_dichoticlistening_ka-pa.mp3	ka	pa	1	left
6.6.1	win	2023-06-19	18:11:26	0	0	5c28884289f035000174bfbe	2	1	DL_test	16	DL_test	17			0		ba	1	1217	6	3	antiphase_hc_soi.wav	1	6	3	noise_calib_stim_LEFT.wav	1	1	blb_dichoticlistening_ba-ba.mp3	ba	ba	0	left
6.6.1	win	2023-06-19	18:11:26	0	0	5c28884289f035000174bfbe	2	1	DL_test	16	DL_test	18			0		da	1	1332	6	3	antiphase_hc_soi.wav	1	6	3	noise_calib_stim_LEFT.wav	1	10	blb_dichoticlistening_da-ka.mp3	da	ka	1	left
6.6.1	win	2023-06-19	18:11:26	0	0	5c28884289f035000174bfbe	2	1	DL_test	16	DL_test	19			0		ka	1	1436	6	3	antiphase_hc_soi.wav	1	6	3	noise_calib_stim_LEFT.wav	1	34	blb_dichoticlistening_ta-ka.mp3	ta	ka	1	right
6.6.1	win	2023-06-19	18:11:26	0	0	5c28884289f035000174bfbe	2	1	DL_test	16	DL_test	20			0		pa	0	3023	6	3	antiphase_hc_soi.wav	1	6	3	noise_calib_stim_LEFT.wav	1	6	blb_dichoticlistening_ba-ta.mp3	ba	ta	1	other
6.6.1	win	2023-06-19	18:11:26	0	0	5c28884289f035000174bfbe	2	1	DL_test	16	DL_test	21			0		da	1	1410	6	3	antiphase_hc_soi.wav	1	6	3	noise_calib_stim_LEFT.wav	1	8	blb_dichoticlistening_da-da.mp3	da	da	0	left
6.6.1	win	2023-06-19	18:11:26	0	0	5c28884289f035000174bfbe	2	1	DL_test	16	DL_test	22			0		ka	1	2259	6	3	antiphase_hc_soi.wav	1	6	3	noise_calib_stim_LEFT.wav	1	28	blb_dichoticlistening_pa-ka.mp3	pa	ka	1	right
6.6.1	win	2023-06-19	18:11:26	0	0	5c28884289f035000174bfbe	2	1	DL_test	16	DL_test	23			0		ga	1	1937	6	3	antiphase_hc_soi.wav	1	6	3	noise_calib_stim_LEFT.wav	1	18	blb_dichoticlistening_ga-ta.mp3	ga	ta	1	left
6.6.1	win	2023-06-19	18:11:26	0	0	5c28884289f035000174bfbe	2	1	DL_test	16	DL_test	24			0		ka	1	1669	6	3	antiphase_hc_soi.wav	1	6	3	noise_calib_stim_LEFT.wav	1	24	blb_dichoticlistening_ka-ta.mp3	ka	ta	1	left
6.6.1	win	2023-06-19	18:11:26	0	0	5c28884289f035000174bfbe	2	1	DL_test	16	DL_test	25			0		ba	1	1866	6	3	antiphase_hc_soi.wav	1	6	3	noise_calib_stim_LEFT.wav	1	2	blb_dichoticlistening_ba-da.mp3	ba	da	1	left
6.6.1	win	2023-06-19	18:11:26	0	0	5c28884289f035000174bfbe	2	1	DL_test	16	DL_test	26			0		pa	0	1964	6	3	antiphase_hc_soi.wav	1	6	3	noise_calib_stim_LEFT.wav	1	4	blb_dichoticlistening_ba-ka.mp3	ba	ka	1	other
6.6.1	win	2023-06-19	18:11:26	0	0	5c28884289f035000174bfbe	2	1	DL_test	16	DL_test	27			0		ga	1	1674	6	3	antiphase_hc_soi.wav	1	6	3	noise_calib_stim_LEFT.wav	1	17	blb_dichoticlistening_ga-pa.mp3	ga	pa	1	left
6.6.1	win	2023-06-19	18:11:26	0	0	5c28884289f035000174bfbe	2	1	DL_test	16	DL_test	28			0		pa	1	1344	6	3	antiphase_hc_soi.wav	1	6	3	noise_calib_stim_LEFT.wav	1	5	blb_dichoticlistening_ba-pa.mp3	ba	pa	1	right
6.6.1	win	2023-06-19	18:11:26	0	0	5c28884289f035000174bfbe	2	1	DL_test	16	DL_test	29			0		ga	1	987	6	3	antiphase_hc_soi.wav	1	6	3	noise_calib_stim_LEFT.wav	1	14	blb_dichoticlistening_ga-da.mp3	ga	da	1	left
6.6.1	win	2023-06-19	18:11:26	0	0	5c28884289f035000174bfbe	2	1	DL_test	16	DL_test	30			0		ta	1	2193	6	3	antiphase_hc_soi.wav	1	6	3	noise_calib_stim_LEFT.wav	1	35	blb_dichoticlistening_ta-pa.mp3	ta	pa	1	left
6.6.1	win	2023-06-19	18:11:26	0	0	5c28884289f035000174bfbe	2	1	DL_test	16	DL_test	31			0		ka	1	1852	6	3	antiphase_hc_soi.wav	1	6	3	noise_calib_stim_LEFT.wav	1	19	blb_dichoticlistening_ka-ba.mp3	ka	ba	1	left
6.6.1	win	2023-06-19	18:11:26	0	0	5c28884289f035000174bfbe	2	1	DL_test	16	DL_test	32			0		ga	1	1821	6	3	antiphase_hc_soi.wav	1	6	3	noise_calib_stim_LEFT.wav	1	15	blb_dichoticlistening_ga-ga.mp3	ga	ga	0	left
6.6.1	win	2023-06-19	18:11:26	0	0	5c28884289f035000174bfbe	2	1	DL_test	16	DL_test	33			0		da	1	2119	6	3	antiphase_hc_soi.wav	1	6	3	noise_calib_stim_LEFT.wav	1	11	blb_dichoticlistening_da-pa.mp3	da	pa	1	left
6.6.1	win	2023-06-19	18:11:26	0	0	5c28884289f035000174bfbe	2	1	DL_test	16	DL_test	34			0		ta	1	2466	6	3	antiphase_hc_soi.wav	1	6	3	noise_calib_stim_LEFT.wav	1	31	blb_dichoticlistening_ta-ba.mp3	ta	ba	1	left
6.6.1	win	2023-06-19	18:11:26	0	0	5c28884289f035000174bfbe	2	1	DL_test	16	DL_test	35			0		pa	1	1524	6	3	antiphase_hc_soi.wav	1	6	3	noise_calib_stim_LEFT.wav	1	25	blb_dichoticlistening_pa-ba.mp3	pa	ba	1	left
6.6.1	win	2023-06-19	18:11:26	0	0	5c28884289f035000174bfbe	2	1	DL_test	16	DL_test	36			0		ka	1	2023	6	3	antiphase_hc_soi.wav	1	6	3	noise_calib_stim_LEFT.wav	1	21	blb_dichoticlistening_ka-ga.mp3	ka	ga	1	left
6.6.1	win	2023-06-19	18:11:26	18:27:43	965826	5c28884289f035000174bfbe	2	1	practice_z	22	practice_z	1	stimuli_distractor_diamondtriangles.svg	stimuli_target_rectangletriangles.svg	7	yes	44	1	422	6	3	antiphase_hc_soi.wav	1	6	3	noise_calib_stim_LEFT.wav	1	21	blb_dichoticlistening_ka-ga.mp3	ka	ga	1	left
6.6.1	win	2023-06-19	18:11:26	18:27:43	965826	5c28884289f035000174bfbe	2	1	practice_z	22	advance_on_keypress_ZEE	2	stimuli_distractor_diamondtriangles.svg	stimuli_target_rectangletriangles.svg	7	yes	57	0	2272	6	3	antiphase_hc_soi.wav	1	6	3	noise_calib_stim_LEFT.wav	1	21	blb_dichoticlistening_ka-ga.mp3	ka	ga	1	left
6.6.1	win	2023-06-19	18:11:26	18:27:47	970103	5c28884289f035000174bfbe	2	1	practice_z	22	practice_z	3	stimuli_distractor_diamondtriangles.svg	stimuli_distractor_diamondtriangles.svg	13	no	44	0	334	6	3	antiphase_hc_soi.wav	1	6	3	noise_calib_stim_LEFT.wav	1	21	blb_dichoticlistening_ka-ga.mp3	ka	ga	1	left
6.6.1	win	2023-06-19	18:11:26	18:27:47	970103	5c28884289f035000174bfbe	2	1	practice_z	22	advance_on_keypress_ZEE	4	stimuli_distractor_diamondtriangles.svg	stimuli_distractor_diamondtriangles.svg	13	no	57	0	1098	6	3	antiphase_hc_soi.wav	1	6	3	noise_calib_stim_LEFT.wav	1	21	blb_dichoticlistening_ka-ga.mp3	ka	ga	1	left
6.6.1	win	2023-06-19	18:11:26	18:27:50	973395	5c28884289f035000174bfbe	2	1	practice_z	22	practice_z	5	stimuli_distractor_diamondtriangles.svg	stimuli_target_trianglerectangles.svg	9	yes	44	1	544	6	3	antiphase_hc_soi.wav	1	6	3	noise_calib_stim_LEFT.wav	1	21	blb_dichoticlistening_ka-ga.mp3	ka	ga	1	left
6.6.1	win	2023-06-19	18:11:26	18:27:50	973395	5c28884289f035000174bfbe	2	1	practice_z	22	advance_on_keypress_ZEE	6	stimuli_distractor_diamondtriangles.svg	stimuli_target_trianglerectangles.svg	9	yes	57	0	1416	6	3	antiphase_hc_soi.wav	1	6	3	noise_calib_stim_LEFT.wav	1	21	blb_dichoticlistening_ka-ga.mp3	ka	ga	1	left
6.6.1	win	2023-06-19	18:11:26	18:27:54	976885	5c28884289f035000174bfbe	2	1	practice_z	22	practice_z	7	stimuli_distractor_trianglediamonds.svg	stimuli_target_diamondrectangles.svg	12	yes	44	1	402	6	3	antiphase_hc_soi.wav	1	6	3	noise_calib_stim_LEFT.wav	1	21	blb_dichoticlistening_ka-ga.mp3	ka	ga	1	left
6.6.1	win	2023-06-19	18:11:26	18:27:54	976885	5c28884289f035000174bfbe	2	1	practice_z	22	advance_on_keypress_ZEE	8	stimuli_distractor_trianglediamonds.svg	stimuli_target_diamondrectangles.svg	12	yes	57	0	647	6	3	antiphase_hc_soi.wav	1	6	3	noise_calib_stim_LEFT.wav	1	21	blb_dichoticlistening_ka-ga.mp3	ka	ga	1	left
6.6.1	win	2023-06-19	18:11:26	18:27:56	979484	5c28884289f035000174bfbe	2	1	practice_z	22	practice_z	9	stimuli_target_rectanglediamonds.svg	stimuli_distractor_diamondtriangles.svg	1	yes	44	1	302	6	3	antiphase_hc_soi.wav	1	6	3	noise_calib_stim_LEFT.wav	1	21	blb_dichoticlistening_ka-ga.mp3	ka	ga	1	left
6.6.1	win	2023-06-19	18:11:26	18:27:56	979484	5c28884289f035000174bfbe	2	1	practice_z	22	advance_on_keypress_ZEE	10	stimuli_target_rectanglediamonds.svg	stimuli_distractor_diamondtriangles.svg	1	yes	57	0	547	6	3	antiphase_hc_soi.wav	1	6	3	noise_calib_stim_LEFT.wav	1	21	blb_dichoticlistening_ka-ga.mp3	ka	ga	1	left
6.6.1	win	2023-06-19	18:11:26	18:27:59	981991	5c28884289f035000174bfbe	2	1	practice_z	22	practice_z	11	stimuli_distractor_trianglediamonds.svg	stimuli_target_squarediamonds.svg	11	yes	44	1	309	6	3	antiphase_hc_soi.wav	1	6	3	noise_calib_stim_LEFT.wav	1	21	blb_dichoticlistening_ka-ga.mp3	ka	ga	1	left
6.6.1	win	2023-06-19	18:11:26	18:27:59	981991	5c28884289f035000174bfbe	2	1	practice_z	22	advance_on_keypress_ZEE	12	stimuli_distractor_trianglediamonds.svg	stimuli_target_squarediamonds.svg	11	yes	57	0	2645	6	3	antiphase_hc_soi.wav	1	6	3	noise_calib_stim_LEFT.wav	1	21	blb_dichoticlistening_ka-ga.mp3	ka	ga	1	left
6.6.1	win	2023-06-19	18:11:26	18:28:03	986599	5c28884289f035000174bfbe	2	1	practice_z	22	practice_z	13	stimuli_distractor_diamondtriangles.svg	stimuli_target_diamondrectangles.svg	8	yes	44	1	302	6	3	antiphase_hc_soi.wav	1	6	3	noise_calib_stim_LEFT.wav	1	21	blb_dichoticlistening_ka-ga.mp3	ka	ga	1	left
6.6.1	win	2023-06-19	18:11:26	18:28:03	986599	5c28884289f035000174bfbe	2	1	practice_z	22	advance_on_keypress_ZEE	14	stimuli_distractor_diamondtriangles.svg	stimuli_target_diamondrectangles.svg	8	yes	57	0	482	6	3	antiphase_hc_soi.wav	1	6	3	noise_calib_stim_LEFT.wav	1	21	blb_dichoticlistening_ka-ga.mp3	ka	ga	1	left
6.6.1	win	2023-06-19	18:11:26	18:28:06	989092	5c28884289f035000174bfbe	2	1	practice_z	22	practice_z	15	stimuli_target_squarediamonds.svg	stimuli_distractor_trianglediamonds.svg	5	yes	44	1	362	6	3	antiphase_hc_soi.wav	1	6	3	noise_calib_stim_LEFT.wav	1	21	blb_dichoticlistening_ka-ga.mp3	ka	ga	1	left
6.6.1	win	2023-06-19	18:11:26	18:28:06	989092	5c28884289f035000174bfbe	2	1	practice_z	22	advance_on_keypress_ZEE	16	stimuli_target_squarediamonds.svg	stimuli_distractor_trianglediamonds.svg	5	yes	57	0	672	6	3	antiphase_hc_soi.wav	1	6	3	noise_calib_stim_LEFT.wav	1	21	blb_dichoticlistening_ka-ga.mp3	ka	ga	1	left
6.6.1	win	2023-06-19	18:11:26	18:28:09	991692	5c28884289f035000174bfbe	2	1	practice_z	22	practice_z	17	stimuli_distractor_trianglediamonds.svg	stimuli_distractor_diamondtriangles.svg	16	no	44	0	279	6	3	antiphase_hc_soi.wav	1	6	3	noise_calib_stim_LEFT.wav	1	21	blb_dichoticlistening_ka-ga.mp3	ka	ga	1	left
6.6.1	win	2023-06-19	18:11:26	18:28:09	991692	5c28884289f035000174bfbe	2	1	practice_z	22	advance_on_keypress_ZEE	18	stimuli_distractor_trianglediamonds.svg	stimuli_distractor_diamondtriangles.svg	16	no	57	0	283	6	3	antiphase_hc_soi.wav	1	6	3	noise_calib_stim_LEFT.wav	1	21	blb_dichoticlistening_ka-ga.mp3	ka	ga	1	left
6.6.1	win	2023-06-19	18:11:26	18:28:11	994261	5c28884289f035000174bfbe	2	1	practice_z	22	practice_z	19	stimuli_distractor_trianglediamonds.svg	stimuli_distractor_trianglediamonds.svg	15	no	44	0	631	6	3	antiphase_hc_soi.wav	1	6	3	noise_calib_stim_LEFT.wav	1	21	blb_dichoticlistening_ka-ga.mp3	ka	ga	1	left
6.6.1	win	2023-06-19	18:11:26	18:28:11	994261	5c28884289f035000174bfbe	2	1	practice_z	22	advance_on_keypress_ZEE	20	stimuli_distractor_trianglediamonds.svg	stimuli_distractor_trianglediamonds.svg	15	no	57	0	721	6	3	antiphase_hc_soi.wav	1	6	3	noise_calib_stim_LEFT.wav	1	21	blb_dichoticlistening_ka-ga.mp3	ka	ga	1	left
6.6.1	win	2023-06-19	18:11:26	18:28:14	997462	5c28884289f035000174bfbe	2	1	practice_z	22	practice_z	21	stimuli_distractor_trianglediamonds.svg	stimuli_target_rectanglediamonds.svg	10	yes	44	1	833	6	3	antiphase_hc_soi.wav	1	6	3	noise_calib_stim_LEFT.wav	1	21	blb_dichoticlistening_ka-ga.mp3	ka	ga	1	left
6.6.1	win	2023-06-19	18:11:26	18:28:14	997462	5c28884289f035000174bfbe	2	1	practice_z	22	advance_on_keypress_ZEE	22	stimuli_distractor_trianglediamonds.svg	stimuli_target_rectanglediamonds.svg	10	yes	57	0	651	6	3	antiphase_hc_soi.wav	1	6	3	noise_calib_stim_LEFT.wav	1	21	blb_dichoticlistening_ka-ga.mp3	ka	ga	1	left
6.6.1	win	2023-06-19	18:11:26	18:28:17	1000280	5c28884289f035000174bfbe	2	1	practice_z	22	practice_z	23	stimuli_target_diamondsquares.svg	stimuli_distractor_diamondtriangles.svg	3	yes	44	1	421	6	3	antiphase_hc_soi.wav	1	6	3	noise_calib_stim_LEFT.wav	1	21	blb_dichoticlistening_ka-ga.mp3	ka	ga	1	left
6.6.1	win	2023-06-19	18:11:26	18:28:17	1000280	5c28884289f035000174bfbe	2	1	practice_z	22	advance_on_keypress_ZEE	24	stimuli_target_diamondsquares.svg	stimuli_distractor_diamondtriangles.svg	3	yes	57	0	1146	6	3	antiphase_hc_soi.wav	1	6	3	noise_calib_stim_LEFT.wav	1	21	blb_dichoticlistening_ka-ga.mp3	ka	ga	1	left
6.6.1	win	2023-06-19	18:11:26	18:28:20	1003392	5c28884289f035000174bfbe	2	1	practice_z	22	practice_z	25	stimuli_target_diamondsquares.svg	stimuli_distractor_trianglediamonds.svg	6	yes	44	1	315	6	3	antiphase_hc_soi.wav	1	6	3	noise_calib_stim_LEFT.wav	1	21	blb_dichoticlistening_ka-ga.mp3	ka	ga	1	left
6.6.1	win	2023-06-19	18:11:26	18:28:20	1003392	5c28884289f035000174bfbe	2	1	practice_z	22	advance_on_keypress_ZEE	26	stimuli_target_diamondsquares.svg	stimuli_distractor_trianglediamonds.svg	6	yes	57	0	539	6	3	antiphase_hc_soi.wav	1	6	3	noise_calib_stim_LEFT.wav	1	21	blb_dichoticlistening_ka-ga.mp3	ka	ga	1	left
6.6.1	win	2023-06-19	18:11:26	18:28:23	1005819	5c28884289f035000174bfbe	2	1	practice_z	22	practice_z	27	stimuli_target_squarediamonds.svg	stimuli_distractor_diamondtriangles.svg	2	yes	44	1	246	6	3	antiphase_hc_soi.wav	1	6	3	noise_calib_stim_LEFT.wav	1	21	blb_dichoticlistening_ka-ga.mp3	ka	ga	1	left
6.6.1	win	2023-06-19	18:11:26	18:28:23	1005819	5c28884289f035000174bfbe	2	1	practice_z	22	advance_on_keypress_ZEE	28	stimuli_target_squarediamonds.svg	stimuli_distractor_diamondtriangles.svg	2	yes	57	0	662	6	3	antiphase_hc_soi.wav	1	6	3	noise_calib_stim_LEFT.wav	1	21	blb_dichoticlistening_ka-ga.mp3	ka	ga	1	left
6.6.1	win	2023-06-19	18:11:26	18:28:25	1008487	5c28884289f035000174bfbe	2	1	practice_z	22	practice_z	29	stimuli_target_rectanglediamonds.svg	stimuli_distractor_trianglediamonds.svg	4	yes	44	1	348	6	3	antiphase_hc_soi.wav	1	6	3	noise_calib_stim_LEFT.wav	1	21	blb_dichoticlistening_ka-ga.mp3	ka	ga	1	left
6.6.1	win	2023-06-19	18:11:26	18:28:25	1008487	5c28884289f035000174bfbe	2	1	practice_z	22	advance_on_keypress_ZEE	30	stimuli_target_rectanglediamonds.svg	stimuli_distractor_trianglediamonds.svg	4	yes	57	0	451	6	3	antiphase_hc_soi.wav	1	6	3	noise_calib_stim_LEFT.wav	1	21	blb_dichoticlistening_ka-ga.mp3	ka	ga	1	left
6.6.1	win	2023-06-19	18:11:26	18:28:29	1012588	5c28884289f035000174bfbe	2	1	practice_z	22	practice_z	31	stimuli_distractor_diamondtriangles.svg	stimuli_distractor_trianglediamonds.svg	14	no	0	1	2000	6	3	antiphase_hc_soi.wav	1	6	3	noise_calib_stim_LEFT.wav	1	21	blb_dichoticlistening_ka-ga.mp3	ka	ga	1	left
6.6.1	win	2023-06-19	18:11:26	18:28:29	1012588	5c28884289f035000174bfbe	2	1	practice_z	22	advance_on_keypress_ZEE	32	stimuli_distractor_diamondtriangles.svg	stimuli_distractor_trianglediamonds.svg	14	no	57	0	596	6	3	antiphase_hc_soi.wav	1	6	3	noise_calib_stim_LEFT.wav	1	21	blb_dichoticlistening_ka-ga.mp3	ka	ga	1	left
6.6.1	win	2023-06-19	18:11:26	18:28:40	1023220	5c28884289f035000174bfbe	2	1	main_z	24	main_z	1	stimuli_target_squarediamonds.svg	stimuli_distractor_trianglediamonds.svg	4	yes	44	1	356	6	3	antiphase_hc_soi.wav	1	6	3	noise_calib_stim_LEFT.wav	1	21	blb_dichoticlistening_ka-ga.mp3	ka	ga	1	left
6.6.1	win	2023-06-19	18:11:26	18:28:40	1023220	5c28884289f035000174bfbe	2	1	main_z	24	advance_on_keypress_ZEE	2	stimuli_target_squarediamonds.svg	stimuli_distractor_trianglediamonds.svg	4	yes	57	0	1197	6	3	antiphase_hc_soi.wav	1	6	3	noise_calib_stim_LEFT.wav	1	21	blb_dichoticlistening_ka-ga.mp3	ka	ga	1	left
6.6.1	win	2023-06-19	18:11:26	18:28:43	1026079	5c28884289f035000174bfbe	2	1	main_z	24	main_z	3	stimuli_distractor_trianglediamonds.svg	stimuli_target_trianglesquares.svg	26	yes	44	1	1015	6	3	antiphase_hc_soi.wav	1	6	3	noise_calib_stim_LEFT.wav	1	21	blb_dichoticlistening_ka-ga.mp3	ka	ga	1	left
6.6.1	win	2023-06-19	18:11:26	18:28:43	1026079	5c28884289f035000174bfbe	2	1	main_z	24	advance_on_keypress_ZEE	4	stimuli_distractor_trianglediamonds.svg	stimuli_target_trianglesquares.svg	26	yes	57	0	962	6	3	antiphase_hc_soi.wav	1	6	3	noise_calib_stim_LEFT.wav	1	21	blb_dichoticlistening_ka-ga.mp3	ka	ga	1	left
6.6.1	win	2023-06-19	18:11:26	18:28:46	1028724	5c28884289f035000174bfbe	2	1	main_z	24	main_z	5	stimuli_target_diamondrectangles.svg	stimuli_distractor_trianglediamonds.svg	19	yes	44	1	1028	6	3	antiphase_hc_soi.wav	1	6	3	noise_calib_stim_LEFT.wav	1	21	blb_dichoticlistening_ka-ga.mp3	ka	ga	1	left
6.6.1	win	2023-06-19	18:11:26	18:28:46	1028724	5c28884289f035000174bfbe	2	1	main_z	24	advance_on_keypress_ZEE	6	stimuli_target_diamondrectangles.svg	stimuli_distractor_trianglediamonds.svg	19	yes	57	0	689	6	3	antiphase_hc_soi.wav	1	6	3	noise_calib_stim_LEFT.wav	1	21	blb_dichoticlistening_ka-ga.mp3	ka	ga	1	left
6.6.1	win	2023-06-19	18:11:26	18:28:47	1030432	5c28884289f035000174bfbe	2	1	main_z	24	main_z	7	stimuli_target_rectangletriangles.svg	stimuli_distractor_diamondtriangles.svg	5	yes	44	1	352	6	3	antiphase_hc_soi.wav	1	6	3	noise_calib_stim_LEFT.wav	1	21	blb_dichoticlistening_ka-ga.mp3	ka	ga	1	left
6.6.1	win	2023-06-19	18:11:26	18:28:47	1030432	5c28884289f035000174bfbe	2	1	main_z	24	advance_on_keypress_ZEE	8	stimuli_target_rectangletriangles.svg	stimuli_distractor_diamondtriangles.svg	5	yes	57	0	1115	6	3	antiphase_hc_soi.wav	1	6	3	noise_calib_stim_LEFT.wav	1	21	blb_dichoticlistening_ka-ga.mp3	ka	ga	1	left
6.6.1	win	2023-06-19	18:11:26	18:28:51	1034194	5c28884289f035000174bfbe	2	1	main_z	24	main_z	9	stimuli_distractor_diamondtriangles.svg	stimuli_target_diamondsquares.svg	32	yes	0	0	2000	6	3	antiphase_hc_soi.wav	1	6	3	noise_calib_stim_LEFT.wav	1	21	blb_dichoticlistening_ka-ga.mp3	ka	ga	1	left
6.6.1	win	2023-06-19	18:11:26	18:28:51	1034194	5c28884289f035000174bfbe	2	1	main_z	24	advance_on_keypress_ZEE	10	stimuli_distractor_diamondtriangles.svg	stimuli_target_diamondsquares.svg	32	yes	57	0	532	6	3	antiphase_hc_soi.wav	1	6	3	noise_calib_stim_LEFT.wav	1	21	blb_dichoticlistening_ka-ga.mp3	ka	ga	1	left
6.6.1	win	2023-06-19	18:11:26	18:28:53	1035784	5c28884289f035000174bfbe	2	1	main_z	24	main_z	11	stimuli_distractor_diamondtriangles.svg	stimuli_target_rectangletriangles.svg	13	yes	44	1	407	6	3	antiphase_hc_soi.wav	1	6	3	noise_calib_stim_LEFT.wav	1	21	blb_dichoticlistening_ka-ga.mp3	ka	ga	1	left
6.6.1	win	2023-06-19	18:11:26	18:28:53	1035784	5c28884289f035000174bfbe	2	1	main_z	24	advance_on_keypress_ZEE	12	stimuli_distractor_diamondtriangles.svg	stimuli_target_rectangletriangles.svg	13	yes	57	0	1588	6	3	antiphase_hc_soi.wav	1	6	3	noise_calib_stim_LEFT.wav	1	21	blb_dichoticlistening_ka-ga.mp3	ka	ga	1	left
6.6.1	win	2023-06-19	18:11:26	18:28:56	1038730	5c28884289f035000174bfbe	2	1	main_z	24	main_z	13	stimuli_target_rectangletriangles.svg	stimuli_distractor_trianglediamonds.svg	1	yes	44	1	722	6	3	antiphase_hc_soi.wav	1	6	3	noise_calib_stim_LEFT.wav	1	21	blb_dichoticlistening_ka-ga.mp3	ka	ga	1	left
6.6.1	win	2023-06-19	18:11:26	18:28:56	1038730	5c28884289f035000174bfbe	2	1	main_z	24	advance_on_keypress_ZEE	14	stimuli_target_rectangletriangles.svg	stimuli_distractor_trianglediamonds.svg	1	yes	57	0	1170	6	3	antiphase_hc_soi.wav	1	6	3	noise_calib_stim_LEFT.wav	1	21	blb_dichoticlistening_ka-ga.mp3	ka	ga	1	left
6.6.1	win	2023-06-19	18:11:26	18:28:58	1040856	5c28884289f035000174bfbe	2	1	main_z	24	main_z	15	stimuli_distractor_diamondtriangles.svg	stimuli_target_squaretriangles.svg	15	yes	44	1	314	6	3	antiphase_hc_soi.wav	1	6	3	noise_calib_stim_LEFT.wav	1	21	blb_dichoticlistening_ka-ga.mp3	ka	ga	1	left
6.6.1	win	2023-06-19	18:11:26	18:28:58	1040856	5c28884289f035000174bfbe	2	1	main_z	24	advance_on_keypress_ZEE	16	stimuli_distractor_diamondtriangles.svg	stimuli_target_squaretriangles.svg	15	yes	57	0	761	6	3	antiphase_hc_soi.wav	1	6	3	noise_calib_stim_LEFT.wav	1	21	blb_dichoticlistening_ka-ga.mp3	ka	ga	1	left
6.6.1	win	2023-06-19	18:11:26	18:29:00	1043043	5c28884289f035000174bfbe	2	1	main_z	24	main_z	17	stimuli_target_trianglesquares.svg	stimuli_distractor_trianglediamonds.svg	18	yes	44	1	769	6	3	antiphase_hc_soi.wav	1	6	3	noise_calib_stim_LEFT.wav	1	21	blb_dichoticlistening_ka-ga.mp3	ka	ga	1	left
6.6.1	win	2023-06-19	18:11:26	18:29:00	1043043	5c28884289f035000174bfbe	2	1	main_z	24	advance_on_keypress_ZEE	18	stimuli_target_trianglesquares.svg	stimuli_distractor_trianglediamonds.svg	18	yes	57	0	823	6	3	antiphase_hc_soi.wav	1	6	3	noise_calib_stim_LEFT.wav	1	21	blb_dichoticlistening_ka-ga.mp3	ka	ga	1	left
6.6.1	win	2023-06-19	18:11:26	18:29:03	1046506	5c28884289f035000174bfbe	2	1	main_z	24	main_z	19	stimuli_target_squaretriangles.svg	stimuli_distractor_trianglediamonds.svg	3	yes	0	0	2000	6	3	antiphase_hc_soi.wav	1	6	3	noise_calib_stim_LEFT.wav	1	21	blb_dichoticlistening_ka-ga.mp3	ka	ga	1	left
6.6.1	win	2023-06-19	18:11:26	18:29:03	1046506	5c28884289f035000174bfbe	2	1	main_z	24	advance_on_keypress_ZEE	20	stimuli_target_squaretriangles.svg	stimuli_distractor_trianglediamonds.svg	3	yes	57	0	1040	6	3	antiphase_hc_soi.wav	1	6	3	noise_calib_stim_LEFT.wav	1	21	blb_dichoticlistening_ka-ga.mp3	ka	ga	1	left
6.6.1	win	2023-06-19	18:11:26	18:29:05	1048545	5c28884289f035000174bfbe	2	1	main_z	24	main_z	21	stimuli_distractor_trianglediamonds.svg	stimuli_target_trianglerectangles.svg	25	yes	44	1	357	6	3	antiphase_hc_soi.wav	1	6	3	noise_calib_stim_LEFT.wav	1	21	blb_dichoticlistening_ka-ga.mp3	ka	ga	1	left
6.6.1	win	2023-06-19	18:11:26	18:29:05	1048545	5c28884289f035000174bfbe	2	1	main_z	24	advance_on_keypress_ZEE	22	stimuli_distractor_trianglediamonds.svg	stimuli_target_trianglerectangles.svg	25	yes	57	0	559	6	3	antiphase_hc_soi.wav	1	6	3	noise_calib_stim_LEFT.wav	1	21	blb_dichoticlistening_ka-ga.mp3	ka	ga	1	left
6.6.1	win	2023-06-19	18:11:26	18:29:07	1050604	5c28884289f035000174bfbe	2	1	main_z	24	main_z	23	stimuli_distractor_diamondtriangles.svg	stimuli_target_trianglerectangles.svg	29	yes	44	1	848	6	3	antiphase_hc_soi.wav	1	6	3	noise_calib_stim_LEFT.wav	1	21	blb_dichoticlistening_ka-ga.mp3	ka	ga	1	left
6.6.1	win	2023-06-19	18:11:26	18:29:07	1050604	5c28884289f035000174bfbe	2	1	main_z	24	advance_on_keypress_ZEE	24	stimuli_distractor_diamondtriangles.svg	stimuli_target_trianglerectangles.svg	29	yes	57	0	756	6	3	antiphase_hc_soi.wav	1	6	3	noise_calib_stim_LEFT.wav	1	21	blb_dichoticlistening_ka-ga.mp3	ka	ga	1	left
6.6.1	win	2023-06-19	18:11:26	18:29:09	1052369	5c28884289f035000174bfbe	2	1	main_z	24	main_z	25	stimuli_target_diamondsquares.svg	stimuli_distractor_trianglediamonds.svg	20	yes	44	1	365	6	3	antiphase_hc_soi.wav	1	6	3	noise_calib_stim_LEFT.wav	1	21	blb_dichoticlistening_ka-ga.mp3	ka	ga	1	left
6.6.1	win	2023-06-19	18:11:26	18:29:09	1052369	5c28884289f035000174bfbe	2	1	main_z	24	advance_on_keypress_ZEE	26	stimuli_target_diamondsquares.svg	stimuli_distractor_trianglediamonds.svg	20	yes	57	0	744	6	3	antiphase_hc_soi.wav	1	6	3	noise_calib_stim_LEFT.wav	1	21	blb_dichoticlistening_ka-ga.mp3	ka	ga	1	left
6.6.1	win	2023-06-19	18:11:26	18:29:13	1055770	5c28884289f035000174bfbe	2	1	main_z	24	main_z	27	stimuli_target_squaretriangles.svg	stimuli_distractor_diamondtriangles.svg	7	yes	0	0	2000	6	3	antiphase_hc_soi.wav	1	6	3	noise_calib_stim_LEFT.wav	1	21	blb_dichoticlistening_ka-ga.mp3	ka	ga	1	left
6.6.1	win	2023-06-19	18:11:26	18:29:13	1055770	5c28884289f035000174bfbe	2	1	main_z	24	advance_on_keypress_ZEE	28	stimuli_target_squaretriangles.svg	stimuli_distractor_diamondtriangles.svg	7	yes	57	0	397	6	3	antiphase_hc_soi.wav	1	6	3	noise_calib_stim_LEFT.wav	1	21	blb_dichoticlistening_ka-ga.mp3	ka	ga	1	left
6.6.1	win	2023-06-19	18:11:26	18:29:14	1057101	5c28884289f035000174bfbe	2	1	main_z	24	main_z	29	stimuli_target_trianglesquares.svg	stimuli_distractor_diamondtriangles.svg	22	yes	44	1	281	6	3	antiphase_hc_soi.wav	1	6	3	noise_calib_stim_LEFT.wav	1	21	blb_dichoticlistening_ka-ga.mp3	ka	ga	1	left
6.6.1	win	2023-06-19	18:11:26	18:29:14	1057101	5c28884289f035000174bfbe	2	1	main_z	24	advance_on_keypress_ZEE	30	stimuli_target_trianglesquares.svg	stimuli_distractor_diamondtriangles.svg	22	yes	57	0	1261	6	3	antiphase_hc_soi.wav	1	6	3	noise_calib_stim_LEFT.wav	1	21	blb_dichoticlistening_ka-ga.mp3	ka	ga	1	left
6.6.1	win	2023-06-19	18:11:26	18:29:16	1059335	5c28884289f035000174bfbe	2	1	main_z	24	main_z	31	stimuli_target_trianglerectangles.svg	stimuli_distractor_diamondtriangles.svg	21	yes	44	1	316	6	3	antiphase_hc_soi.wav	1	6	3	noise_calib_stim_LEFT.wav	1	21	blb_dichoticlistening_ka-ga.mp3	ka	ga	1	left
6.6.1	win	2023-06-19	18:11:26	18:29:16	1059335	5c28884289f035000174bfbe	2	1	main_z	24	advance_on_keypress_ZEE	32	stimuli_target_trianglerectangles.svg	stimuli_distractor_diamondtriangles.svg	21	yes	57	0	918	6	3	antiphase_hc_soi.wav	1	6	3	noise_calib_stim_LEFT.wav	1	21	blb_dichoticlistening_ka-ga.mp3	ka	ga	1	left
6.6.1	win	2023-06-19	18:11:26	18:29:18	1061228	5c28884289f035000174bfbe	2	1	main_z	24	main_z	33	stimuli_distractor_diamondtriangles.svg	stimuli_distractor_trianglediamonds.svg	37	no	44	0	328	6	3	antiphase_hc_soi.wav	1	6	3	noise_calib_stim_LEFT.wav	1	21	blb_dichoticlistening_ka-ga.mp3	ka	ga	1	left
6.6.1	win	2023-06-19	18:11:26	18:29:18	1061228	5c28884289f035000174bfbe	2	1	main_z	24	advance_on_keypress_ZEE	34	stimuli_distractor_diamondtriangles.svg	stimuli_distractor_trianglediamonds.svg	37	no	57	0	1628	6	3	antiphase_hc_soi.wav	1	6	3	noise_calib_stim_LEFT.wav	1	21	blb_dichoticlistening_ka-ga.mp3	ka	ga	1	left
6.6.1	win	2023-06-19	18:11:26	18:29:21	1064117	5c28884289f035000174bfbe	2	1	main_z	24	main_z	35	stimuli_target_trianglerectangles.svg	stimuli_distractor_trianglediamonds.svg	17	yes	44	1	601	6	3	antiphase_hc_soi.wav	1	6	3	noise_calib_stim_LEFT.wav	1	21	blb_dichoticlistening_ka-ga.mp3	ka	ga	1	left
6.6.1	win	2023-06-19	18:11:26	18:29:21	1064117	5c28884289f035000174bfbe	2	1	main_z	24	advance_on_keypress_ZEE	36	stimuli_target_trianglerectangles.svg	stimuli_distractor_trianglediamonds.svg	17	yes	57	0	484	6	3	antiphase_hc_soi.wav	1	6	3	noise_calib_stim_LEFT.wav	1	21	blb_dichoticlistening_ka-ga.mp3	ka	ga	1	left
6.6.1	win	2023-06-19	18:11:26	18:29:22	1065594	5c28884289f035000174bfbe	2	1	main_z	24	main_z	37	stimuli_distractor_diamondtriangles.svg	stimuli_target_rectanglediamonds.svg	14	yes	44	1	344	6	3	antiphase_hc_soi.wav	1	6	3	noise_calib_stim_LEFT.wav	1	21	blb_dichoticlistening_ka-ga.mp3	ka	ga	1	left
6.6.1	win	2023-06-19	18:11:26	18:29:22	1065594	5c28884289f035000174bfbe	2	1	main_z	24	advance_on_keypress_ZEE	38	stimuli_distractor_diamondtriangles.svg	stimuli_target_rectanglediamonds.svg	14	yes	57	0	377	6	3	antiphase_hc_soi.wav	1	6	3	noise_calib_stim_LEFT.wav	1	21	blb_dichoticlistening_ka-ga.mp3	ka	ga	1	left
6.6.1	win	2023-06-19	18:11:26	18:29:24	1066832	5c28884289f035000174bfbe	2	1	main_z	24	main_z	39	stimuli_distractor_trianglediamonds.svg	stimuli_distractor_trianglediamonds.svg	33	no	44	0	198	6	3	antiphase_hc_soi.wav	1	6	3	noise_calib_stim_LEFT.wav	1	21	blb_dichoticlistening_ka-ga.mp3	ka	ga	1	left
6.6.1	win	2023-06-19	18:11:26	18:29:24	1066832	5c28884289f035000174bfbe	2	1	main_z	24	advance_on_keypress_ZEE	40	stimuli_distractor_trianglediamonds.svg	stimuli_distractor_trianglediamonds.svg	33	no	57	0	658	6	3	antiphase_hc_soi.wav	1	6	3	noise_calib_stim_LEFT.wav	1	21	blb_dichoticlistening_ka-ga.mp3	ka	ga	1	left
6.6.1	win	2023-06-19	18:11:26	18:29:27	1070148	5c28884289f035000174bfbe	2	1	main_z	24	main_z	41	stimuli_distractor_diamondtriangles.svg	stimuli_target_squarediamonds.svg	16	yes	0	0	2000	6	3	antiphase_hc_soi.wav	1	6	3	noise_calib_stim_LEFT.wav	1	21	blb_dichoticlistening_ka-ga.mp3	ka	ga	1	left
6.6.1	win	2023-06-19	18:11:26	18:29:27	1070148	5c28884289f035000174bfbe	2	1	main_z	24	advance_on_keypress_ZEE	42	stimuli_distractor_diamondtriangles.svg	stimuli_target_squarediamonds.svg	16	yes	57	0	3262	6	3	antiphase_hc_soi.wav	1	6	3	noise_calib_stim_LEFT.wav	1	21	blb_dichoticlistening_ka-ga.mp3	ka	ga	1	left
6.6.1	win	2023-06-19	18:11:26	18:29:32	1074679	5c28884289f035000174bfbe	2	1	main_z	24	main_z	43	stimuli_distractor_diamondtriangles.svg	stimuli_distractor_diamondtriangles.svg	39	no	44	0	615	6	3	antiphase_hc_soi.wav	1	6	3	noise_calib_stim_LEFT.wav	1	21	blb_dichoticlistening_ka-ga.mp3	ka	ga	1	left
6.6.1	win	2023-06-19	18:11:26	18:29:32	1074679	5c28884289f035000174bfbe	2	1	main_z	24	advance_on_keypress_ZEE	44	stimuli_distractor_diamondtriangles.svg	stimuli_distractor_diamondtriangles.svg	39	no	57	0	880	6	3	antiphase_hc_soi.wav	1	6	3	noise_calib_stim_LEFT.wav	1	21	blb_dichoticlistening_ka-ga.mp3	ka	ga	1	left
6.6.1	win	2023-06-19	18:11:26	18:29:35	1078212	5c28884289f035000174bfbe	2	1	main_z	24	main_z	45	stimuli_distractor_trianglediamonds.svg	stimuli_distractor_diamondtriangles.svg	35	no	0	1	2000	6	3	antiphase_hc_soi.wav	1	6	3	noise_calib_stim_LEFT.wav	1	21	blb_dichoticlistening_ka-ga.mp3	ka	ga	1	left
6.6.1	win	2023-06-19	18:11:26	18:29:35	1078212	5c28884289f035000174bfbe	2	1	main_z	24	advance_on_keypress_ZEE	46	stimuli_distractor_trianglediamonds.svg	stimuli_distractor_diamondtriangles.svg	35	no	57	0	846	6	3	antiphase_hc_soi.wav	1	6	3	noise_calib_stim_LEFT.wav	1	21	blb_dichoticlistening_ka-ga.mp3	ka	ga	1	left
6.6.1	win	2023-06-19	18:11:26	18:29:39	1081711	5c28884289f035000174bfbe	2	1	main_z	24	main_z	47	stimuli_distractor_trianglediamonds.svg	stimuli_distractor_diamondtriangles.svg	36	no	0	1	2000	6	3	antiphase_hc_soi.wav	1	6	3	noise_calib_stim_LEFT.wav	1	21	blb_dichoticlistening_ka-ga.mp3	ka	ga	1	left
6.6.1	win	2023-06-19	18:11:26	18:29:39	1081711	5c28884289f035000174bfbe	2	1	main_z	24	advance_on_keypress_ZEE	48	stimuli_distractor_trianglediamonds.svg	stimuli_distractor_diamondtriangles.svg	36	no	57	0	393	6	3	antiphase_hc_soi.wav	1	6	3	noise_calib_stim_LEFT.wav	1	21	blb_dichoticlistening_ka-ga.mp3	ka	ga	1	left
6.6.1	win	2023-06-19	18:11:26	18:29:40	1083364	5c28884289f035000174bfbe	2	1	main_z	24	main_z	49	stimuli_distractor_trianglediamonds.svg	stimuli_target_squaretriangles.svg	11	yes	44	1	602	6	3	antiphase_hc_soi.wav	1	6	3	noise_calib_stim_LEFT.wav	1	21	blb_dichoticlistening_ka-ga.mp3	ka	ga	1	left
6.6.1	win	2023-06-19	18:11:26	18:29:40	1083364	5c28884289f035000174bfbe	2	1	main_z	24	advance_on_keypress_ZEE	50	stimuli_distractor_trianglediamonds.svg	stimuli_target_squaretriangles.svg	11	yes	57	0	4097	6	3	antiphase_hc_soi.wav	1	6	3	noise_calib_stim_LEFT.wav	1	21	blb_dichoticlistening_ka-ga.mp3	ka	ga	1	left
6.6.1	win	2023-06-19	18:11:26	18:29:47	1090109	5c28884289f035000174bfbe	2	1	main_z	24	main_z	51	stimuli_distractor_trianglediamonds.svg	stimuli_target_diamondrectangles.svg	27	yes	0	0	2000	6	3	antiphase_hc_soi.wav	1	6	3	noise_calib_stim_LEFT.wav	1	21	blb_dichoticlistening_ka-ga.mp3	ka	ga	1	left
6.6.1	win	2023-06-19	18:11:26	18:29:47	1090109	5c28884289f035000174bfbe	2	1	main_z	24	advance_on_keypress_ZEE	52	stimuli_distractor_trianglediamonds.svg	stimuli_target_diamondrectangles.svg	27	yes	57	0	851	6	3	antiphase_hc_soi.wav	1	6	3	noise_calib_stim_LEFT.wav	1	21	blb_dichoticlistening_ka-ga.mp3	ka	ga	1	left
6.6.1	win	2023-06-19	18:11:26	18:29:49	1091927	5c28884289f035000174bfbe	2	1	main_z	24	main_z	53	stimuli_target_diamondrectangles.svg	stimuli_distractor_diamondtriangles.svg	23	yes	44	1	319	6	3	antiphase_hc_soi.wav	1	6	3	noise_calib_stim_LEFT.wav	1	21	blb_dichoticlistening_ka-ga.mp3	ka	ga	1	left
6.6.1	win	2023-06-19	18:11:26	18:29:49	1091927	5c28884289f035000174bfbe	2	1	main_z	24	advance_on_keypress_ZEE	54	stimuli_target_diamondrectangles.svg	stimuli_distractor_diamondtriangles.svg	23	yes	57	0	1976	6	3	antiphase_hc_soi.wav	1	6	3	noise_calib_stim_LEFT.wav	1	21	blb_dichoticlistening_ka-ga.mp3	ka	ga	1	left
6.6.1	win	2023-06-19	18:11:26	18:29:52	1095034	5c28884289f035000174bfbe	2	1	main_z	24	main_z	55	stimuli_target_squarediamonds.svg	stimuli_distractor_diamondtriangles.svg	8	yes	44	1	477	6	3	antiphase_hc_soi.wav	1	6	3	noise_calib_stim_LEFT.wav	1	21	blb_dichoticlistening_ka-ga.mp3	ka	ga	1	left
6.6.1	win	2023-06-19	18:11:26	18:29:52	1095034	5c28884289f035000174bfbe	2	1	main_z	24	advance_on_keypress_ZEE	56	stimuli_target_squarediamonds.svg	stimuli_distractor_diamondtriangles.svg	8	yes	57	0	959	6	3	antiphase_hc_soi.wav	1	6	3	noise_calib_stim_LEFT.wav	1	21	blb_dichoticlistening_ka-ga.mp3	ka	ga	1	left
6.6.1	win	2023-06-19	18:11:26	18:29:54	1097083	5c28884289f035000174bfbe	2	1	main_z	24	main_z	57	stimuli_distractor_trianglediamonds.svg	stimuli_target_rectangletriangles.svg	9	yes	44	1	427	6	3	antiphase_hc_soi.wav	1	6	3	noise_calib_stim_LEFT.wav	1	21	blb_dichoticlistening_ka-ga.mp3	ka	ga	1	left
6.6.1	win	2023-06-19	18:11:26	18:29:54	1097083	5c28884289f035000174bfbe	2	1	main_z	24	advance_on_keypress_ZEE	58	stimuli_distractor_trianglediamonds.svg	stimuli_target_rectangletriangles.svg	9	yes	57	0	852	6	3	antiphase_hc_soi.wav	1	6	3	noise_calib_stim_LEFT.wav	1	21	blb_dichoticlistening_ka-ga.mp3	ka	ga	1	left
6.6.1	win	2023-06-19	18:11:26	18:29:56	1099041	5c28884289f035000174bfbe	2	1	main_z	24	main_z	59	stimuli_distractor_trianglediamonds.svg	stimuli_target_squarediamonds.svg	12	yes	44	1	452	6	3	antiphase_hc_soi.wav	1	6	3	noise_calib_stim_LEFT.wav	1	21	blb_dichoticlistening_ka-ga.mp3	ka	ga	1	left
6.6.1	win	2023-06-19	18:11:26	18:29:56	1099041	5c28884289f035000174bfbe	2	1	main_z	24	advance_on_keypress_ZEE	60	stimuli_distractor_trianglediamonds.svg	stimuli_target_squarediamonds.svg	12	yes	57	0	496	6	3	antiphase_hc_soi.wav	1	6	3	noise_calib_stim_LEFT.wav	1	21	blb_dichoticlistening_ka-ga.mp3	ka	ga	1	left
6.6.1	win	2023-06-19	18:11:26	18:29:57	1100474	5c28884289f035000174bfbe	2	1	main_z	24	main_z	61	stimuli_target_rectanglediamonds.svg	stimuli_distractor_diamondtriangles.svg	6	yes	44	1	286	6	3	antiphase_hc_soi.wav	1	6	3	noise_calib_stim_LEFT.wav	1	21	blb_dichoticlistening_ka-ga.mp3	ka	ga	1	left
6.6.1	win	2023-06-19	18:11:26	18:29:57	1100474	5c28884289f035000174bfbe	2	1	main_z	24	advance_on_keypress_ZEE	62	stimuli_target_rectanglediamonds.svg	stimuli_distractor_diamondtriangles.svg	6	yes	57	0	388	6	3	antiphase_hc_soi.wav	1	6	3	noise_calib_stim_LEFT.wav	1	21	blb_dichoticlistening_ka-ga.mp3	ka	ga	1	left
6.6.1	win	2023-06-19	18:11:26	18:29:59	1101793	5c28884289f035000174bfbe	2	1	main_z	24	main_z	63	stimuli_target_rectanglediamonds.svg	stimuli_distractor_trianglediamonds.svg	2	yes	44	1	290	6	3	antiphase_hc_soi.wav	1	6	3	noise_calib_stim_LEFT.wav	1	21	blb_dichoticlistening_ka-ga.mp3	ka	ga	1	left
6.6.1	win	2023-06-19	18:11:26	18:29:59	1101793	5c28884289f035000174bfbe	2	1	main_z	24	advance_on_keypress_ZEE	64	stimuli_target_rectanglediamonds.svg	stimuli_distractor_trianglediamonds.svg	2	yes	57	0	790	6	3	antiphase_hc_soi.wav	1	6	3	noise_calib_stim_LEFT.wav	1	21	blb_dichoticlistening_ka-ga.mp3	ka	ga	1	left
6.6.1	win	2023-06-19	18:11:26	18:30:02	1105220	5c28884289f035000174bfbe	2	1	main_z	24	main_z	65	stimuli_distractor_diamondtriangles.svg	stimuli_distractor_trianglediamonds.svg	38	no	0	1	2000	6	3	antiphase_hc_soi.wav	1	6	3	noise_calib_stim_LEFT.wav	1	21	blb_dichoticlistening_ka-ga.mp3	ka	ga	1	left
6.6.1	win	2023-06-19	18:11:26	18:30:02	1105220	5c28884289f035000174bfbe	2	1	main_z	24	advance_on_keypress_ZEE	66	stimuli_distractor_diamondtriangles.svg	stimuli_distractor_trianglediamonds.svg	38	no	57	0	336	6	3	antiphase_hc_soi.wav	1	6	3	noise_calib_stim_LEFT.wav	1	21	blb_dichoticlistening_ka-ga.mp3	ka	ga	1	left
6.6.1	win	2023-06-19	18:11:26	18:30:05	1108202	5c28884289f035000174bfbe	2	1	main_z	24	main_z	67	stimuli_distractor_diamondtriangles.svg	stimuli_target_diamondrectangles.svg	31	yes	0	0	2000	6	3	antiphase_hc_soi.wav	1	6	3	noise_calib_stim_LEFT.wav	1	21	blb_dichoticlistening_ka-ga.mp3	ka	ga	1	left
6.6.1	win	2023-06-19	18:11:26	18:30:05	1108202	5c28884289f035000174bfbe	2	1	main_z	24	advance_on_keypress_ZEE	68	stimuli_distractor_diamondtriangles.svg	stimuli_target_diamondrectangles.svg	31	yes	57	0	444	6	3	antiphase_hc_soi.wav	1	6	3	noise_calib_stim_LEFT.wav	1	21	blb_dichoticlistening_ka-ga.mp3	ka	ga	1	left
6.6.1	win	2023-06-19	18:11:26	18:30:07	1110044	5c28884289f035000174bfbe	2	1	main_z	24	main_z	69	stimuli_distractor_trianglediamonds.svg	stimuli_target_diamondsquares.svg	28	yes	44	1	743	6	3	antiphase_hc_soi.wav	1	6	3	noise_calib_stim_LEFT.wav	1	21	blb_dichoticlistening_ka-ga.mp3	ka	ga	1	left
6.6.1	win	2023-06-19	18:11:26	18:30:07	1110044	5c28884289f035000174bfbe	2	1	main_z	24	advance_on_keypress_ZEE	70	stimuli_distractor_trianglediamonds.svg	stimuli_target_diamondsquares.svg	28	yes	57	0	690	6	3	antiphase_hc_soi.wav	1	6	3	noise_calib_stim_LEFT.wav	1	21	blb_dichoticlistening_ka-ga.mp3	ka	ga	1	left
6.6.1	win	2023-06-19	18:11:26	18:30:10	1113384	5c28884289f035000174bfbe	2	1	main_z	24	main_z	71	stimuli_distractor_diamondtriangles.svg	stimuli_distractor_diamondtriangles.svg	40	no	0	1	2000	6	3	antiphase_hc_soi.wav	1	6	3	noise_calib_stim_LEFT.wav	1	21	blb_dichoticlistening_ka-ga.mp3	ka	ga	1	left
6.6.1	win	2023-06-19	18:11:26	18:30:10	1113384	5c28884289f035000174bfbe	2	1	main_z	24	advance_on_keypress_ZEE	72	stimuli_distractor_diamondtriangles.svg	stimuli_distractor_diamondtriangles.svg	40	no	57	0	603	6	3	antiphase_hc_soi.wav	1	6	3	noise_calib_stim_LEFT.wav	1	21	blb_dichoticlistening_ka-ga.mp3	ka	ga	1	left
6.6.1	win	2023-06-19	18:11:26	18:30:12	1114883	5c28884289f035000174bfbe	2	1	main_z	24	main_z	73	stimuli_distractor_trianglediamonds.svg	stimuli_target_rectanglediamonds.svg	10	yes	44	1	249	6	3	antiphase_hc_soi.wav	1	6	3	noise_calib_stim_LEFT.wav	1	21	blb_dichoticlistening_ka-ga.mp3	ka	ga	1	left
6.6.1	win	2023-06-19	18:11:26	18:30:12	1114883	5c28884289f035000174bfbe	2	1	main_z	24	advance_on_keypress_ZEE	74	stimuli_distractor_trianglediamonds.svg	stimuli_target_rectanglediamonds.svg	10	yes	57	0	1181	6	3	antiphase_hc_soi.wav	1	6	3	noise_calib_stim_LEFT.wav	1	21	blb_dichoticlistening_ka-ga.mp3	ka	ga	1	left
6.6.1	win	2023-06-19	18:11:26	18:30:14	1116942	5c28884289f035000174bfbe	2	1	main_z	24	main_z	75	stimuli_distractor_diamondtriangles.svg	stimuli_target_trianglesquares.svg	30	yes	44	1	226	6	3	antiphase_hc_soi.wav	1	6	3	noise_calib_stim_LEFT.wav	1	21	blb_dichoticlistening_ka-ga.mp3	ka	ga	1	left
6.6.1	win	2023-06-19	18:11:26	18:30:14	1116942	5c28884289f035000174bfbe	2	1	main_z	24	advance_on_keypress_ZEE	76	stimuli_distractor_diamondtriangles.svg	stimuli_target_trianglesquares.svg	30	yes	57	0	1008	6	3	antiphase_hc_soi.wav	1	6	3	noise_calib_stim_LEFT.wav	1	21	blb_dichoticlistening_ka-ga.mp3	ka	ga	1	left
6.6.1	win	2023-06-19	18:11:26	18:30:16	1118831	5c28884289f035000174bfbe	2	1	main_z	24	main_z	77	stimuli_distractor_trianglediamonds.svg	stimuli_distractor_trianglediamonds.svg	34	no	44	0	234	6	3	antiphase_hc_soi.wav	1	6	3	noise_calib_stim_LEFT.wav	1	21	blb_dichoticlistening_ka-ga.mp3	ka	ga	1	left
6.6.1	win	2023-06-19	18:11:26	18:30:16	1118831	5c28884289f035000174bfbe	2	1	main_z	24	advance_on_keypress_ZEE	78	stimuli_distractor_trianglediamonds.svg	stimuli_distractor_trianglediamonds.svg	34	no	57	0	1261	6	3	antiphase_hc_soi.wav	1	6	3	noise_calib_stim_LEFT.wav	1	21	blb_dichoticlistening_ka-ga.mp3	ka	ga	1	left
6.6.1	win	2023-06-19	18:11:26	18:30:20	1122747	5c28884289f035000174bfbe	2	1	main_z	24	main_z	79	stimuli_target_diamondsquares.svg	stimuli_distractor_diamondtriangles.svg	24	yes	0	0	2000	6	3	antiphase_hc_soi.wav	1	6	3	noise_calib_stim_LEFT.wav	1	21	blb_dichoticlistening_ka-ga.mp3	ka	ga	1	left
6.6.1	win	2023-06-19	18:11:26	18:30:20	1122747	5c28884289f035000174bfbe	2	1	main_z	24	advance_on_keypress_ZEE	80	stimuli_target_diamondsquares.svg	stimuli_distractor_diamondtriangles.svg	24	yes	57	0	408	6	3	antiphase_hc_soi.wav	1	6	3	noise_calib_stim_LEFT.wav	1	21	blb_dichoticlistening_ka-ga.mp3	ka	ga	1	left
6.6.1	win	2023-06-19	18:11:26	18:30:21	1124142	5c28884289f035000174bfbe	2	1	main_z	24	main_z	81	stimuli_distractor_diamondtriangles.svg	stimuli_distractor_diamondtriangles.svg	40	no	44	0	343	6	3	antiphase_hc_soi.wav	1	6	3	noise_calib_stim_LEFT.wav	1	21	blb_dichoticlistening_ka-ga.mp3	ka	ga	1	left
6.6.1	win	2023-06-19	18:11:26	18:30:21	1124142	5c28884289f035000174bfbe	2	1	main_z	24	advance_on_keypress_ZEE	82	stimuli_distractor_diamondtriangles.svg	stimuli_distractor_diamondtriangles.svg	40	no	57	0	611	6	3	antiphase_hc_soi.wav	1	6	3	noise_calib_stim_LEFT.wav	1	21	blb_dichoticlistening_ka-ga.mp3	ka	ga	1	left
6.6.1	win	2023-06-19	18:11:26	18:30:24	1127412	5c28884289f035000174bfbe	2	1	main_z	24	main_z	83	stimuli_target_trianglerectangles.svg	stimuli_distractor_trianglediamonds.svg	17	yes	0	0	2000	6	3	antiphase_hc_soi.wav	1	6	3	noise_calib_stim_LEFT.wav	1	21	blb_dichoticlistening_ka-ga.mp3	ka	ga	1	left
6.6.1	win	2023-06-19	18:11:26	18:30:24	1127412	5c28884289f035000174bfbe	2	1	main_z	24	advance_on_keypress_ZEE	84	stimuli_target_trianglerectangles.svg	stimuli_distractor_trianglediamonds.svg	17	yes	57	0	459	6	3	antiphase_hc_soi.wav	1	6	3	noise_calib_stim_LEFT.wav	1	21	blb_dichoticlistening_ka-ga.mp3	ka	ga	1	left
6.6.1	win	2023-06-19	18:11:26	18:30:27	1130528	5c28884289f035000174bfbe	2	1	main_z	24	main_z	85	stimuli_distractor_trianglediamonds.svg	stimuli_distractor_trianglediamonds.svg	33	no	0	1	2000	6	3	antiphase_hc_soi.wav	1	6	3	noise_calib_stim_LEFT.wav	1	21	blb_dichoticlistening_ka-ga.mp3	ka	ga	1	left
6.6.1	win	2023-06-19	18:11:26	18:30:27	1130528	5c28884289f035000174bfbe	2	1	main_z	24	advance_on_keypress_ZEE	86	stimuli_distractor_trianglediamonds.svg	stimuli_distractor_trianglediamonds.svg	33	no	57	0	460	6	3	antiphase_hc_soi.wav	1	6	3	noise_calib_stim_LEFT.wav	1	21	blb_dichoticlistening_ka-ga.mp3	ka	ga	1	left
6.6.1	win	2023-06-19	18:11:26	18:30:29	1132030	5c28884289f035000174bfbe	2	1	main_z	24	main_z	87	stimuli_distractor_trianglediamonds.svg	stimuli_target_trianglerectangles.svg	25	yes	44	1	386	6	3	antiphase_hc_soi.wav	1	6	3	noise_calib_stim_LEFT.wav	1	21	blb_dichoticlistening_ka-ga.mp3	ka	ga	1	left
6.6.1	win	2023-06-19	18:11:26	18:30:29	1132030	5c28884289f035000174bfbe	2	1	main_z	24	advance_on_keypress_ZEE	88	stimuli_distractor_trianglediamonds.svg	stimuli_target_trianglerectangles.svg	25	yes	57	0	906	6	3	antiphase_hc_soi.wav	1	6	3	noise_calib_stim_LEFT.wav	1	21	blb_dichoticlistening_ka-ga.mp3	ka	ga	1	left
6.6.1	win	2023-06-19	18:11:26	18:30:31	1134097	5c28884289f035000174bfbe	2	1	main_z	24	main_z	89	stimuli_target_squaretriangles.svg	stimuli_distractor_trianglediamonds.svg	3	yes	44	1	521	6	3	antiphase_hc_soi.wav	1	6	3	noise_calib_stim_LEFT.wav	1	21	blb_dichoticlistening_ka-ga.mp3	ka	ga	1	left
6.6.1	win	2023-06-19	18:11:26	18:30:31	1134097	5c28884289f035000174bfbe	2	1	main_z	24	advance_on_keypress_ZEE	90	stimuli_target_squaretriangles.svg	stimuli_distractor_trianglediamonds.svg	3	yes	57	0	1158	6	3	antiphase_hc_soi.wav	1	6	3	noise_calib_stim_LEFT.wav	1	21	blb_dichoticlistening_ka-ga.mp3	ka	ga	1	left
6.6.1	win	2023-06-19	18:11:26	18:30:33	1136197	5c28884289f035000174bfbe	2	1	main_z	24	main_z	91	stimuli_target_trianglesquares.svg	stimuli_distractor_trianglediamonds.svg	18	yes	44	1	288	6	3	antiphase_hc_soi.wav	1	6	3	noise_calib_stim_LEFT.wav	1	21	blb_dichoticlistening_ka-ga.mp3	ka	ga	1	left
6.6.1	win	2023-06-19	18:11:26	18:30:33	1136197	5c28884289f035000174bfbe	2	1	main_z	24	advance_on_keypress_ZEE	92	stimuli_target_trianglesquares.svg	stimuli_distractor_trianglediamonds.svg	18	yes	57	0	1331	6	3	antiphase_hc_soi.wav	1	6	3	noise_calib_stim_LEFT.wav	1	21	blb_dichoticlistening_ka-ga.mp3	ka	ga	1	left
6.6.1	win	2023-06-19	18:11:26	18:30:36	1138857	5c28884289f035000174bfbe	2	1	main_z	24	main_z	93	stimuli_distractor_diamondtriangles.svg	stimuli_target_trianglerectangles.svg	29	yes	44	1	683	6	3	antiphase_hc_soi.wav	1	6	3	noise_calib_stim_LEFT.wav	1	21	blb_dichoticlistening_ka-ga.mp3	ka	ga	1	left
6.6.1	win	2023-06-19	18:11:26	18:30:36	1138857	5c28884289f035000174bfbe	2	1	main_z	24	advance_on_keypress_ZEE	94	stimuli_distractor_diamondtriangles.svg	stimuli_target_trianglerectangles.svg	29	yes	57	0	917	6	3	antiphase_hc_soi.wav	1	6	3	noise_calib_stim_LEFT.wav	1	21	blb_dichoticlistening_ka-ga.mp3	ka	ga	1	left
6.6.1	win	2023-06-19	18:11:26	18:30:38	1141195	5c28884289f035000174bfbe	2	1	main_z	24	main_z	95	stimuli_distractor_trianglediamonds.svg	stimuli_target_rectangletriangles.svg	9	yes	44	1	770	6	3	antiphase_hc_soi.wav	1	6	3	noise_calib_stim_LEFT.wav	1	21	blb_dichoticlistening_ka-ga.mp3	ka	ga	1	left
6.6.1	win	2023-06-19	18:11:26	18:30:38	1141195	5c28884289f035000174bfbe	2	1	main_z	24	advance_on_keypress_ZEE	96	stimuli_distractor_trianglediamonds.svg	stimuli_target_rectangletriangles.svg	9	yes	57	0	2033	6	3	antiphase_hc_soi.wav	1	6	3	noise_calib_stim_LEFT.wav	1	21	blb_dichoticlistening_ka-ga.mp3	ka	ga	1	left
6.6.1	win	2023-06-19	18:11:26	18:30:41	1144172	5c28884289f035000174bfbe	2	1	main_z	24	main_z	97	stimuli_distractor_diamondtriangles.svg	stimuli_target_rectanglediamonds.svg	14	yes	44	1	299	6	3	antiphase_hc_soi.wav	1	6	3	noise_calib_stim_LEFT.wav	1	21	blb_dichoticlistening_ka-ga.mp3	ka	ga	1	left
6.6.1	win	2023-06-19	18:11:26	18:30:41	1144172	5c28884289f035000174bfbe	2	1	main_z	24	advance_on_keypress_ZEE	98	stimuli_distractor_diamondtriangles.svg	stimuli_target_rectanglediamonds.svg	14	yes	57	0	156	6	3	antiphase_hc_soi.wav	1	6	3	noise_calib_stim_LEFT.wav	1	21	blb_dichoticlistening_ka-ga.mp3	ka	ga	1	left
6.6.1	win	2023-06-19	18:11:26	18:30:42	1145581	5c28884289f035000174bfbe	2	1	main_z	24	main_z	99	stimuli_distractor_diamondtriangles.svg	stimuli_target_squaretriangles.svg	15	yes	44	1	608	6	3	antiphase_hc_soi.wav	1	6	3	noise_calib_stim_LEFT.wav	1	21	blb_dichoticlistening_ka-ga.mp3	ka	ga	1	left
6.6.1	win	2023-06-19	18:11:26	18:30:42	1145581	5c28884289f035000174bfbe	2	1	main_z	24	advance_on_keypress_ZEE	100	stimuli_distractor_diamondtriangles.svg	stimuli_target_squaretriangles.svg	15	yes	57	0	2110	6	3	antiphase_hc_soi.wav	1	6	3	noise_calib_stim_LEFT.wav	1	21	blb_dichoticlistening_ka-ga.mp3	ka	ga	1	left
6.6.1	win	2023-06-19	18:11:26	18:30:46	1148666	5c28884289f035000174bfbe	2	1	main_z	24	main_z	101	stimuli_distractor_diamondtriangles.svg	stimuli_distractor_diamondtriangles.svg	39	no	44	0	329	6	3	antiphase_hc_soi.wav	1	6	3	noise_calib_stim_LEFT.wav	1	21	blb_dichoticlistening_ka-ga.mp3	ka	ga	1	left
6.6.1	win	2023-06-19	18:11:26	18:30:46	1148666	5c28884289f035000174bfbe	2	1	main_z	24	advance_on_keypress_ZEE	102	stimuli_distractor_diamondtriangles.svg	stimuli_distractor_diamondtriangles.svg	39	no	57	0	534	6	3	antiphase_hc_soi.wav	1	6	3	noise_calib_stim_LEFT.wav	1	21	blb_dichoticlistening_ka-ga.mp3	ka	ga	1	left
6.6.1	win	2023-06-19	18:11:26	18:30:47	1150123	5c28884289f035000174bfbe	2	1	main_z	24	main_z	103	stimuli_distractor_trianglediamonds.svg	stimuli_target_squaretriangles.svg	11	yes	44	1	269	6	3	antiphase_hc_soi.wav	1	6	3	noise_calib_stim_LEFT.wav	1	21	blb_dichoticlistening_ka-ga.mp3	ka	ga	1	left
6.6.1	win	2023-06-19	18:11:26	18:30:47	1150123	5c28884289f035000174bfbe	2	1	main_z	24	advance_on_keypress_ZEE	104	stimuli_distractor_trianglediamonds.svg	stimuli_target_squaretriangles.svg	11	yes	57	0	779	6	3	antiphase_hc_soi.wav	1	6	3	noise_calib_stim_LEFT.wav	1	21	blb_dichoticlistening_ka-ga.mp3	ka	ga	1	left
6.6.1	win	2023-06-19	18:11:26	18:30:50	1153554	5c28884289f035000174bfbe	2	1	main_z	24	main_z	105	stimuli_distractor_trianglediamonds.svg	stimuli_distractor_diamondtriangles.svg	35	no	0	1	2000	6	3	antiphase_hc_soi.wav	1	6	3	noise_calib_stim_LEFT.wav	1	21	blb_dichoticlistening_ka-ga.mp3	ka	ga	1	left
6.6.1	win	2023-06-19	18:11:26	18:30:50	1153554	5c28884289f035000174bfbe	2	1	main_z	24	advance_on_keypress_ZEE	106	stimuli_distractor_trianglediamonds.svg	stimuli_distractor_diamondtriangles.svg	35	no	57	0	375	6	3	antiphase_hc_soi.wav	1	6	3	noise_calib_stim_LEFT.wav	1	21	blb_dichoticlistening_ka-ga.mp3	ka	ga	1	left
6.6.1	win	2023-06-19	18:11:26	18:30:53	1156569	5c28884289f035000174bfbe	2	1	main_z	24	main_z	107	stimuli_distractor_diamondtriangles.svg	stimuli_target_diamondrectangles.svg	31	yes	0	0	2000	6	3	antiphase_hc_soi.wav	1	6	3	noise_calib_stim_LEFT.wav	1	21	blb_dichoticlistening_ka-ga.mp3	ka	ga	1	left
6.6.1	win	2023-06-19	18:11:26	18:30:53	1156569	5c28884289f035000174bfbe	2	1	main_z	24	advance_on_keypress_ZEE	108	stimuli_distractor_diamondtriangles.svg	stimuli_target_diamondrectangles.svg	31	yes	57	0	344	6	3	antiphase_hc_soi.wav	1	6	3	noise_calib_stim_LEFT.wav	1	21	blb_dichoticlistening_ka-ga.mp3	ka	ga	1	left
6.6.1	win	2023-06-19	18:11:26	18:30:55	1157929	5c28884289f035000174bfbe	2	1	main_z	24	main_z	109	stimuli_target_diamondsquares.svg	stimuli_distractor_diamondtriangles.svg	24	yes	44	1	361	6	3	antiphase_hc_soi.wav	1	6	3	noise_calib_stim_LEFT.wav	1	21	blb_dichoticlistening_ka-ga.mp3	ka	ga	1	left
6.6.1	win	2023-06-19	18:11:26	18:30:55	1157929	5c28884289f035000174bfbe	2	1	main_z	24	advance_on_keypress_ZEE	110	stimuli_target_diamondsquares.svg	stimuli_distractor_diamondtriangles.svg	24	yes	57	0	977	6	3	antiphase_hc_soi.wav	1	6	3	noise_calib_stim_LEFT.wav	1	21	blb_dichoticlistening_ka-ga.mp3	ka	ga	1	left
6.6.1	win	2023-06-19	18:11:26	18:30:57	1159882	5c28884289f035000174bfbe	2	1	main_z	24	main_z	111	stimuli_target_trianglesquares.svg	stimuli_distractor_diamondtriangles.svg	22	yes	44	1	314	6	3	antiphase_hc_soi.wav	1	6	3	noise_calib_stim_LEFT.wav	1	21	blb_dichoticlistening_ka-ga.mp3	ka	ga	1	left
6.6.1	win	2023-06-19	18:11:26	18:30:57	1159882	5c28884289f035000174bfbe	2	1	main_z	24	advance_on_keypress_ZEE	112	stimuli_target_trianglesquares.svg	stimuli_distractor_diamondtriangles.svg	22	yes	57	0	954	6	3	antiphase_hc_soi.wav	1	6	3	noise_calib_stim_LEFT.wav	1	21	blb_dichoticlistening_ka-ga.mp3	ka	ga	1	left
6.6.1	win	2023-06-19	18:11:26	18:30:59	1161841	5c28884289f035000174bfbe	2	1	main_z	24	main_z	113	stimuli_distractor_trianglediamonds.svg	stimuli_target_rectanglediamonds.svg	10	yes	44	1	356	6	3	antiphase_hc_soi.wav	1	6	3	noise_calib_stim_LEFT.wav	1	21	blb_dichoticlistening_ka-ga.mp3	ka	ga	1	left
6.6.1	win	2023-06-19	18:11:26	18:30:59	1161841	5c28884289f035000174bfbe	2	1	main_z	24	advance_on_keypress_ZEE	114	stimuli_distractor_trianglediamonds.svg	stimuli_target_rectanglediamonds.svg	10	yes	57	0	739	6	3	antiphase_hc_soi.wav	1	6	3	noise_calib_stim_LEFT.wav	1	21	blb_dichoticlistening_ka-ga.mp3	ka	ga	1	left
6.6.1	win	2023-06-19	18:11:26	18:31:00	1163491	5c28884289f035000174bfbe	2	1	main_z	24	main_z	115	stimuli_distractor_diamondtriangles.svg	stimuli_distractor_trianglediamonds.svg	38	no	44	0	275	6	3	antiphase_hc_soi.wav	1	6	3	noise_calib_stim_LEFT.wav	1	21	blb_dichoticlistening_ka-ga.mp3	ka	ga	1	left
6.6.1	win	2023-06-19	18:11:26	18:31:00	1163491	5c28884289f035000174bfbe	2	1	main_z	24	advance_on_keypress_ZEE	116	stimuli_distractor_diamondtriangles.svg	stimuli_distractor_trianglediamonds.svg	38	no	57	0	852	6	3	antiphase_hc_soi.wav	1	6	3	noise_calib_stim_LEFT.wav	1	21	blb_dichoticlistening_ka-ga.mp3	ka	ga	1	left
6.6.1	win	2023-06-19	18:11:26	18:31:04	1166983	5c28884289f035000174bfbe	2	1	main_z	24	main_z	117	stimuli_distractor_trianglediamonds.svg	stimuli_target_diamondrectangles.svg	27	yes	0	0	2000	6	3	antiphase_hc_soi.wav	1	6	3	noise_calib_stim_LEFT.wav	1	21	blb_dichoticlistening_ka-ga.mp3	ka	ga	1	left
6.6.1	win	2023-06-19	18:11:26	18:31:04	1166983	5c28884289f035000174bfbe	2	1	main_z	24	advance_on_keypress_ZEE	118	stimuli_distractor_trianglediamonds.svg	stimuli_target_diamondrectangles.svg	27	yes	57	0	611	6	3	antiphase_hc_soi.wav	1	6	3	noise_calib_stim_LEFT.wav	1	21	blb_dichoticlistening_ka-ga.mp3	ka	ga	1	left
6.6.1	win	2023-06-19	18:11:26	18:31:05	1168560	5c28884289f035000174bfbe	2	1	main_z	24	main_z	119	stimuli_target_squarediamonds.svg	stimuli_distractor_trianglediamonds.svg	4	yes	44	1	311	6	3	antiphase_hc_soi.wav	1	6	3	noise_calib_stim_LEFT.wav	1	21	blb_dichoticlistening_ka-ga.mp3	ka	ga	1	left
6.6.1	win	2023-06-19	18:11:26	18:31:05	1168560	5c28884289f035000174bfbe	2	1	main_z	24	advance_on_keypress_ZEE	120	stimuli_target_squarediamonds.svg	stimuli_distractor_trianglediamonds.svg	4	yes	57	0	470	6	3	antiphase_hc_soi.wav	1	6	3	noise_calib_stim_LEFT.wav	1	21	blb_dichoticlistening_ka-ga.mp3	ka	ga	1	left
6.6.1	win	2023-06-19	18:11:26	18:31:07	1170166	5c28884289f035000174bfbe	2	1	main_z	24	main_z	121	stimuli_target_rectangletriangles.svg	stimuli_distractor_diamondtriangles.svg	5	yes	44	1	485	6	3	antiphase_hc_soi.wav	1	6	3	noise_calib_stim_LEFT.wav	1	21	blb_dichoticlistening_ka-ga.mp3	ka	ga	1	left
6.6.1	win	2023-06-19	18:11:26	18:31:07	1170166	5c28884289f035000174bfbe	2	1	main_z	24	advance_on_keypress_ZEE	122	stimuli_target_rectangletriangles.svg	stimuli_distractor_diamondtriangles.svg	5	yes	57	0	695	6	3	antiphase_hc_soi.wav	1	6	3	noise_calib_stim_LEFT.wav	1	21	blb_dichoticlistening_ka-ga.mp3	ka	ga	1	left
6.6.1	win	2023-06-19	18:11:26	18:31:10	1172974	5c28884289f035000174bfbe	2	1	main_z	24	main_z	123	stimuli_target_rectangletriangles.svg	stimuli_distractor_trianglediamonds.svg	1	yes	44	1	1460	6	3	antiphase_hc_soi.wav	1	6	3	noise_calib_stim_LEFT.wav	1	21	blb_dichoticlistening_ka-ga.mp3	ka	ga	1	left
6.6.1	win	2023-06-19	18:11:26	18:31:10	1172974	5c28884289f035000174bfbe	2	1	main_z	24	advance_on_keypress_ZEE	124	stimuli_target_rectangletriangles.svg	stimuli_distractor_trianglediamonds.svg	1	yes	57	0	530	6	3	antiphase_hc_soi.wav	1	6	3	noise_calib_stim_LEFT.wav	1	21	blb_dichoticlistening_ka-ga.mp3	ka	ga	1	left
6.6.1	win	2023-06-19	18:11:26	18:31:11	1174567	5c28884289f035000174bfbe	2	1	main_z	24	main_z	125	stimuli_target_squarediamonds.svg	stimuli_distractor_diamondtriangles.svg	8	yes	44	1	405	6	3	antiphase_hc_soi.wav	1	6	3	noise_calib_stim_LEFT.wav	1	21	blb_dichoticlistening_ka-ga.mp3	ka	ga	1	left
6.6.1	win	2023-06-19	18:11:26	18:31:11	1174567	5c28884289f035000174bfbe	2	1	main_z	24	advance_on_keypress_ZEE	126	stimuli_target_squarediamonds.svg	stimuli_distractor_diamondtriangles.svg	8	yes	57	0	608	6	3	antiphase_hc_soi.wav	1	6	3	noise_calib_stim_LEFT.wav	1	21	blb_dichoticlistening_ka-ga.mp3	ka	ga	1	left
6.6.1	win	2023-06-19	18:11:26	18:31:13	1176204	5c28884289f035000174bfbe	2	1	main_z	24	main_z	127	stimuli_distractor_trianglediamonds.svg	stimuli_target_squarediamonds.svg	12	yes	44	1	391	6	3	antiphase_hc_soi.wav	1	6	3	noise_calib_stim_LEFT.wav	1	21	blb_dichoticlistening_ka-ga.mp3	ka	ga	1	left
6.6.1	win	2023-06-19	18:11:26	18:31:13	1176204	5c28884289f035000174bfbe	2	1	main_z	24	advance_on_keypress_ZEE	128	stimuli_distractor_trianglediamonds.svg	stimuli_target_squarediamonds.svg	12	yes	57	0	571	6	3	antiphase_hc_soi.wav	1	6	3	noise_calib_stim_LEFT.wav	1	21	blb_dichoticlistening_ka-ga.mp3	ka	ga	1	left
6.6.1	win	2023-06-19	18:11:26	18:31:15	1178395	5c28884289f035000174bfbe	2	1	main_z	24	main_z	129	stimuli_distractor_trianglediamonds.svg	stimuli_distractor_diamondtriangles.svg	36	no	44	0	967	6	3	antiphase_hc_soi.wav	1	6	3	noise_calib_stim_LEFT.wav	1	21	blb_dichoticlistening_ka-ga.mp3	ka	ga	1	left
6.6.1	win	2023-06-19	18:11:26	18:31:15	1178395	5c28884289f035000174bfbe	2	1	main_z	24	advance_on_keypress_ZEE	130	stimuli_distractor_trianglediamonds.svg	stimuli_distractor_diamondtriangles.svg	36	no	57	0	434	6	3	antiphase_hc_soi.wav	1	6	3	noise_calib_stim_LEFT.wav	1	21	blb_dichoticlistening_ka-ga.mp3	ka	ga	1	left
6.6.1	win	2023-06-19	18:11:26	18:31:17	1180049	5c28884289f035000174bfbe	2	1	main_z	24	main_z	131	stimuli_target_squaretriangles.svg	stimuli_distractor_diamondtriangles.svg	7	yes	44	1	570	6	3	antiphase_hc_soi.wav	1	6	3	noise_calib_stim_LEFT.wav	1	21	blb_dichoticlistening_ka-ga.mp3	ka	ga	1	left
6.6.1	win	2023-06-19	18:11:26	18:31:17	1180049	5c28884289f035000174bfbe	2	1	main_z	24	advance_on_keypress_ZEE	132	stimuli_target_squaretriangles.svg	stimuli_distractor_diamondtriangles.svg	7	yes	57	0	234	6	3	antiphase_hc_soi.wav	1	6	3	noise_calib_stim_LEFT.wav	1	21	blb_dichoticlistening_ka-ga.mp3	ka	ga	1	left
6.6.1	win	2023-06-19	18:11:26	18:31:18	1181387	5c28884289f035000174bfbe	2	1	main_z	24	main_z	133	stimuli_distractor_trianglediamonds.svg	stimuli_target_trianglesquares.svg	26	yes	44	1	459	6	3	antiphase_hc_soi.wav	1	6	3	noise_calib_stim_LEFT.wav	1	21	blb_dichoticlistening_ka-ga.mp3	ka	ga	1	left
6.6.1	win	2023-06-19	18:11:26	18:31:18	1181387	5c28884289f035000174bfbe	2	1	main_z	24	advance_on_keypress_ZEE	134	stimuli_distractor_trianglediamonds.svg	stimuli_target_trianglesquares.svg	26	yes	57	0	133	6	3	antiphase_hc_soi.wav	1	6	3	noise_calib_stim_LEFT.wav	1	21	blb_dichoticlistening_ka-ga.mp3	ka	ga	1	left
6.6.1	win	2023-06-19	18:11:26	18:31:19	1182429	5c28884289f035000174bfbe	2	1	main_z	24	main_z	135	stimuli_distractor_diamondtriangles.svg	stimuli_distractor_trianglediamonds.svg	37	no	44	0	251	6	3	antiphase_hc_soi.wav	1	6	3	noise_calib_stim_LEFT.wav	1	21	blb_dichoticlistening_ka-ga.mp3	ka	ga	1	left
6.6.1	win	2023-06-19	18:11:26	18:31:19	1182429	5c28884289f035000174bfbe	2	1	main_z	24	advance_on_keypress_ZEE	136	stimuli_distractor_diamondtriangles.svg	stimuli_distractor_trianglediamonds.svg	37	no	57	0	173	6	3	antiphase_hc_soi.wav	1	6	3	noise_calib_stim_LEFT.wav	1	21	blb_dichoticlistening_ka-ga.mp3	ka	ga	1	left
6.6.1	win	2023-06-19	18:11:26	18:31:20	1183502	5c28884289f035000174bfbe	2	1	main_z	24	main_z	137	stimuli_target_rectanglediamonds.svg	stimuli_distractor_diamondtriangles.svg	6	yes	44	1	259	6	3	antiphase_hc_soi.wav	1	6	3	noise_calib_stim_LEFT.wav	1	21	blb_dichoticlistening_ka-ga.mp3	ka	ga	1	left
6.6.1	win	2023-06-19	18:11:26	18:31:20	1183502	5c28884289f035000174bfbe	2	1	main_z	24	advance_on_keypress_ZEE	138	stimuli_target_rectanglediamonds.svg	stimuli_distractor_diamondtriangles.svg	6	yes	57	0	439	6	3	antiphase_hc_soi.wav	1	6	3	noise_calib_stim_LEFT.wav	1	21	blb_dichoticlistening_ka-ga.mp3	ka	ga	1	left
6.6.1	win	2023-06-19	18:11:26	18:31:22	1184678	5c28884289f035000174bfbe	2	1	main_z	24	main_z	139	stimuli_distractor_trianglediamonds.svg	stimuli_target_diamondsquares.svg	28	yes	44	1	84	6	3	antiphase_hc_soi.wav	1	6	3	noise_calib_stim_LEFT.wav	1	21	blb_dichoticlistening_ka-ga.mp3	ka	ga	1	left
6.6.1	win	2023-06-19	18:11:26	18:31:22	1184678	5c28884289f035000174bfbe	2	1	main_z	24	advance_on_keypress_ZEE	140	stimuli_distractor_trianglediamonds.svg	stimuli_target_diamondsquares.svg	28	yes	57	0	230	6	3	antiphase_hc_soi.wav	1	6	3	noise_calib_stim_LEFT.wav	1	21	blb_dichoticlistening_ka-ga.mp3	ka	ga	1	left
6.6.1	win	2023-06-19	18:11:26	18:31:23	1185753	5c28884289f035000174bfbe	2	1	main_z	24	main_z	141	stimuli_target_diamondsquares.svg	stimuli_distractor_trianglediamonds.svg	20	yes	44	1	195	6	3	antiphase_hc_soi.wav	1	6	3	noise_calib_stim_LEFT.wav	1	21	blb_dichoticlistening_ka-ga.mp3	ka	ga	1	left
6.6.1	win	2023-06-19	18:11:26	18:31:23	1185753	5c28884289f035000174bfbe	2	1	main_z	24	advance_on_keypress_ZEE	142	stimuli_target_diamondsquares.svg	stimuli_distractor_trianglediamonds.svg	20	yes	57	0	146	6	3	antiphase_hc_soi.wav	1	6	3	noise_calib_stim_LEFT.wav	1	21	blb_dichoticlistening_ka-ga.mp3	ka	ga	1	left
6.6.1	win	2023-06-19	18:11:26	18:31:24	1186706	5c28884289f035000174bfbe	2	1	main_z	24	main_z	143	stimuli_distractor_trianglediamonds.svg	stimuli_distractor_trianglediamonds.svg	34	no	44	0	146	6	3	antiphase_hc_soi.wav	1	6	3	noise_calib_stim_LEFT.wav	1	21	blb_dichoticlistening_ka-ga.mp3	ka	ga	1	left
6.6.1	win	2023-06-19	18:11:26	18:31:24	1186706	5c28884289f035000174bfbe	2	1	main_z	24	advance_on_keypress_ZEE	144	stimuli_distractor_trianglediamonds.svg	stimuli_distractor_trianglediamonds.svg	34	no	57	0	141	6	3	antiphase_hc_soi.wav	1	6	3	noise_calib_stim_LEFT.wav	1	21	blb_dichoticlistening_ka-ga.mp3	ka	ga	1	left
6.6.1	win	2023-06-19	18:11:26	18:31:25	1188244	5c28884289f035000174bfbe	2	1	main_z	24	main_z	145	stimuli_distractor_diamondtriangles.svg	stimuli_target_trianglesquares.svg	30	yes	44	1	736	6	3	antiphase_hc_soi.wav	1	6	3	noise_calib_stim_LEFT.wav	1	21	blb_dichoticlistening_ka-ga.mp3	ka	ga	1	left
6.6.1	win	2023-06-19	18:11:26	18:31:25	1188244	5c28884289f035000174bfbe	2	1	main_z	24	advance_on_keypress_ZEE	146	stimuli_distractor_diamondtriangles.svg	stimuli_target_trianglesquares.svg	30	yes	57	0	1008	6	3	antiphase_hc_soi.wav	1	6	3	noise_calib_stim_LEFT.wav	1	21	blb_dichoticlistening_ka-ga.mp3	ka	ga	1	left
6.6.1	win	2023-06-19	18:11:26	18:31:27	1190194	5c28884289f035000174bfbe	2	1	main_z	24	main_z	147	stimuli_distractor_diamondtriangles.svg	stimuli_target_diamondsquares.svg	32	yes	44	1	303	6	3	antiphase_hc_soi.wav	1	6	3	noise_calib_stim_LEFT.wav	1	21	blb_dichoticlistening_ka-ga.mp3	ka	ga	1	left
6.6.1	win	2023-06-19	18:11:26	18:31:27	1190194	5c28884289f035000174bfbe	2	1	main_z	24	advance_on_keypress_ZEE	148	stimuli_distractor_diamondtriangles.svg	stimuli_target_diamondsquares.svg	32	yes	57	0	357	6	3	antiphase_hc_soi.wav	1	6	3	noise_calib_stim_LEFT.wav	1	21	blb_dichoticlistening_ka-ga.mp3	ka	ga	1	left
6.6.1	win	2023-06-19	18:11:26	18:31:28	1191426	5c28884289f035000174bfbe	2	1	main_z	24	main_z	149	stimuli_target_diamondrectangles.svg	stimuli_distractor_trianglediamonds.svg	19	yes	44	1	235	6	3	antiphase_hc_soi.wav	1	6	3	noise_calib_stim_LEFT.wav	1	21	blb_dichoticlistening_ka-ga.mp3	ka	ga	1	left
6.6.1	win	2023-06-19	18:11:26	18:31:28	1191426	5c28884289f035000174bfbe	2	1	main_z	24	advance_on_keypress_ZEE	150	stimuli_target_diamondrectangles.svg	stimuli_distractor_trianglediamonds.svg	19	yes	57	0	304	6	3	antiphase_hc_soi.wav	1	6	3	noise_calib_stim_LEFT.wav	1	21	blb_dichoticlistening_ka-ga.mp3	ka	ga	1	left
6.6.1	win	2023-06-19	18:11:26	18:31:29	1192604	5c28884289f035000174bfbe	2	1	main_z	24	main_z	151	stimuli_distractor_diamondtriangles.svg	stimuli_target_squarediamonds.svg	16	yes	44	1	232	6	3	antiphase_hc_soi.wav	1	6	3	noise_calib_stim_LEFT.wav	1	21	blb_dichoticlistening_ka-ga.mp3	ka	ga	1	left
6.6.1	win	2023-06-19	18:11:26	18:31:29	1192604	5c28884289f035000174bfbe	2	1	main_z	24	advance_on_keypress_ZEE	152	stimuli_distractor_diamondtriangles.svg	stimuli_target_squarediamonds.svg	16	yes	57	0	244	6	3	antiphase_hc_soi.wav	1	6	3	noise_calib_stim_LEFT.wav	1	21	blb_dichoticlistening_ka-ga.mp3	ka	ga	1	left
6.6.1	win	2023-06-19	18:11:26	18:31:31	1193704	5c28884289f035000174bfbe	2	1	main_z	24	main_z	153	stimuli_target_trianglerectangles.svg	stimuli_distractor_diamondtriangles.svg	21	yes	44	1	198	6	3	antiphase_hc_soi.wav	1	6	3	noise_calib_stim_LEFT.wav	1	21	blb_dichoticlistening_ka-ga.mp3	ka	ga	1	left
6.6.1	win	2023-06-19	18:11:26	18:31:31	1193704	5c28884289f035000174bfbe	2	1	main_z	24	advance_on_keypress_ZEE	154	stimuli_target_trianglerectangles.svg	stimuli_distractor_diamondtriangles.svg	21	yes	57	0	209	6	3	antiphase_hc_soi.wav	1	6	3	noise_calib_stim_LEFT.wav	1	21	blb_dichoticlistening_ka-ga.mp3	ka	ga	1	left
6.6.1	win	2023-06-19	18:11:26	18:31:32	1194778	5c28884289f035000174bfbe	2	1	main_z	24	main_z	155	stimuli_target_rectanglediamonds.svg	stimuli_distractor_trianglediamonds.svg	2	yes	44	1	206	6	3	antiphase_hc_soi.wav	1	6	3	noise_calib_stim_LEFT.wav	1	21	blb_dichoticlistening_ka-ga.mp3	ka	ga	1	left
6.6.1	win	2023-06-19	18:11:26	18:31:32	1194778	5c28884289f035000174bfbe	2	1	main_z	24	advance_on_keypress_ZEE	156	stimuli_target_rectanglediamonds.svg	stimuli_distractor_trianglediamonds.svg	2	yes	57	0	134	6	3	antiphase_hc_soi.wav	1	6	3	noise_calib_stim_LEFT.wav	1	21	blb_dichoticlistening_ka-ga.mp3	ka	ga	1	left
6.6.1	win	2023-06-19	18:11:26	18:31:33	1195703	5c28884289f035000174bfbe	2	1	main_z	24	main_z	157	stimuli_target_diamondrectangles.svg	stimuli_distractor_diamondtriangles.svg	23	yes	44	1	123	6	3	antiphase_hc_soi.wav	1	6	3	noise_calib_stim_LEFT.wav	1	21	blb_dichoticlistening_ka-ga.mp3	ka	ga	1	left
6.6.1	win	2023-06-19	18:11:26	18:31:33	1195703	5c28884289f035000174bfbe	2	1	main_z	24	advance_on_keypress_ZEE	158	stimuli_target_diamondrectangles.svg	stimuli_distractor_diamondtriangles.svg	23	yes	57	0	92	6	3	antiphase_hc_soi.wav	1	6	3	noise_calib_stim_LEFT.wav	1	21	blb_dichoticlistening_ka-ga.mp3	ka	ga	1	left
6.6.1	win	2023-06-19	18:11:26	18:31:33	1196523	5c28884289f035000174bfbe	2	1	main_z	24	main_z	159	stimuli_distractor_diamondtriangles.svg	stimuli_target_rectangletriangles.svg	13	yes	44	1	85	6	3	antiphase_hc_soi.wav	1	6	3	noise_calib_stim_LEFT.wav	1	21	blb_dichoticlistening_ka-ga.mp3	ka	ga	1	left
6.6.1	win	2023-06-19	18:11:26	18:31:33	1196523	5c28884289f035000174bfbe	2	1	main_z	24	advance_on_keypress_ZEE	160	stimuli_distractor_diamondtriangles.svg	stimuli_target_rectangletriangles.svg	13	yes	57	0	153	6	3	antiphase_hc_soi.wav	1	6	3	noise_calib_stim_LEFT.wav	1	21	blb_dichoticlistening_ka-ga.mp3	ka	ga	1	left
6.6.1	win	2023-06-19	18:11:26	18:32:01	1224331	5c28884289f035000174bfbe	2	1	practice_slash	26	practice_slash	1	stimuli_target_squarediamonds.svg	stimuli_distractor_diamondtriangles.svg	2	yes	53	1	516	6	3	antiphase_hc_soi.wav	1	6	3	noise_calib_stim_LEFT.wav	1	21	blb_dichoticlistening_ka-ga.mp3	ka	ga	1	left
6.6.1	win	2023-06-19	18:11:26	18:32:01	1224331	5c28884289f035000174bfbe	2	1	practice_slash	26	advance_on_keypress_SLASH	2	stimuli_target_squarediamonds.svg	stimuli_distractor_diamondtriangles.svg	2	yes	57	0	688	6	3	antiphase_hc_soi.wav	1	6	3	noise_calib_stim_LEFT.wav	1	21	blb_dichoticlistening_ka-ga.mp3	ka	ga	1	left
6.6.1	win	2023-06-19	18:11:26	18:32:04	1227032	5c28884289f035000174bfbe	2	1	practice_slash	26	practice_slash	3	stimuli_target_diamondsquares.svg	stimuli_distractor_trianglediamonds.svg	6	yes	53	1	365	6	3	antiphase_hc_soi.wav	1	6	3	noise_calib_stim_LEFT.wav	1	21	blb_dichoticlistening_ka-ga.mp3	ka	ga	1	left
6.6.1	win	2023-06-19	18:11:26	18:32:04	1227032	5c28884289f035000174bfbe	2	1	practice_slash	26	advance_on_keypress_SLASH	4	stimuli_target_diamondsquares.svg	stimuli_distractor_trianglediamonds.svg	6	yes	57	0	260	6	3	antiphase_hc_soi.wav	1	6	3	noise_calib_stim_LEFT.wav	1	21	blb_dichoticlistening_ka-ga.mp3	ka	ga	1	left
6.6.1	win	2023-06-19	18:11:26	18:32:06	1228991	5c28884289f035000174bfbe	2	1	practice_slash	26	practice_slash	5	stimuli_distractor_trianglediamonds.svg	stimuli_target_rectanglediamonds.svg	10	yes	53	1	41	6	3	antiphase_hc_soi.wav	1	6	3	noise_calib_stim_LEFT.wav	1	21	blb_dichoticlistening_ka-ga.mp3	ka	ga	1	left
6.6.1	win	2023-06-19	18:11:26	18:32:06	1228991	5c28884289f035000174bfbe	2	1	practice_slash	26	advance_on_keypress_SLASH	6	stimuli_distractor_trianglediamonds.svg	stimuli_target_rectanglediamonds.svg	10	yes	57	0	274	6	3	antiphase_hc_soi.wav	1	6	3	noise_calib_stim_LEFT.wav	1	21	blb_dichoticlistening_ka-ga.mp3	ka	ga	1	left
6.6.1	win	2023-06-19	18:11:26	18:32:08	1231147	5c28884289f035000174bfbe	2	1	practice_slash	26	practice_slash	7	stimuli_distractor_diamondtriangles.svg	stimuli_distractor_diamondtriangles.svg	13	no	53	0	235	6	3	antiphase_hc_soi.wav	1	6	3	noise_calib_stim_LEFT.wav	1	21	blb_dichoticlistening_ka-ga.mp3	ka	ga	1	left
6.6.1	win	2023-06-19	18:11:26	18:32:08	1231147	5c28884289f035000174bfbe	2	1	practice_slash	26	advance_on_keypress_SLASH	8	stimuli_distractor_diamondtriangles.svg	stimuli_distractor_diamondtriangles.svg	13	no	57	0	309	6	3	antiphase_hc_soi.wav	1	6	3	noise_calib_stim_LEFT.wav	1	21	blb_dichoticlistening_ka-ga.mp3	ka	ga	1	left
6.6.1	win	2023-06-19	18:11:26	18:32:11	1233694	5c28884289f035000174bfbe	2	1	practice_slash	26	practice_slash	9	stimuli_distractor_diamondtriangles.svg	stimuli_target_trianglerectangles.svg	9	yes	53	1	581	6	3	antiphase_hc_soi.wav	1	6	3	noise_calib_stim_LEFT.wav	1	21	blb_dichoticlistening_ka-ga.mp3	ka	ga	1	left
6.6.1	win	2023-06-19	18:11:26	18:32:11	1233694	5c28884289f035000174bfbe	2	1	practice_slash	26	advance_on_keypress_SLASH	10	stimuli_distractor_diamondtriangles.svg	stimuli_target_trianglerectangles.svg	9	yes	57	0	427	6	3	antiphase_hc_soi.wav	1	6	3	noise_calib_stim_LEFT.wav	1	21	blb_dichoticlistening_ka-ga.mp3	ka	ga	1	left
6.6.1	win	2023-06-19	18:11:26	18:32:13	1236067	5c28884289f035000174bfbe	2	1	practice_slash	26	practice_slash	11	stimuli_target_rectanglediamonds.svg	stimuli_distractor_diamondtriangles.svg	1	yes	53	1	287	6	3	antiphase_hc_soi.wav	1	6	3	noise_calib_stim_LEFT.wav	1	21	blb_dichoticlistening_ka-ga.mp3	ka	ga	1	left
6.6.1	win	2023-06-19	18:11:26	18:32:13	1236067	5c28884289f035000174bfbe	2	1	practice_slash	26	advance_on_keypress_SLASH	12	stimuli_target_rectanglediamonds.svg	stimuli_distractor_diamondtriangles.svg	1	yes	57	0	279	6	3	antiphase_hc_soi.wav	1	6	3	noise_calib_stim_LEFT.wav	1	21	blb_dichoticlistening_ka-ga.mp3	ka	ga	1	left
6.6.1	win	2023-06-19	18:11:26	18:32:15	1238321	5c28884289f035000174bfbe	2	1	practice_slash	26	practice_slash	13	stimuli_distractor_diamondtriangles.svg	stimuli_target_diamondrectangles.svg	8	yes	53	1	310	6	3	antiphase_hc_soi.wav	1	6	3	noise_calib_stim_LEFT.wav	1	21	blb_dichoticlistening_ka-ga.mp3	ka	ga	1	left
6.6.1	win	2023-06-19	18:11:26	18:32:15	1238321	5c28884289f035000174bfbe	2	1	practice_slash	26	advance_on_keypress_SLASH	14	stimuli_distractor_diamondtriangles.svg	stimuli_target_diamondrectangles.svg	8	yes	57	0	311	6	3	antiphase_hc_soi.wav	1	6	3	noise_calib_stim_LEFT.wav	1	21	blb_dichoticlistening_ka-ga.mp3	ka	ga	1	left
6.6.1	win	2023-06-19	18:11:26	18:32:17	1240555	5c28884289f035000174bfbe	2	1	practice_slash	26	practice_slash	15	stimuli_target_squarediamonds.svg	stimuli_distractor_trianglediamonds.svg	5	yes	53	1	259	6	3	antiphase_hc_soi.wav	1	6	3	noise_calib_stim_LEFT.wav	1	21	blb_dichoticlistening_ka-ga.mp3	ka	ga	1	left
6.6.1	win	2023-06-19	18:11:26	18:32:17	1240555	5c28884289f035000174bfbe	2	1	practice_slash	26	advance_on_keypress_SLASH	16	stimuli_target_squarediamonds.svg	stimuli_distractor_trianglediamonds.svg	5	yes	57	0	326	6	3	antiphase_hc_soi.wav	1	6	3	noise_calib_stim_LEFT.wav	1	21	blb_dichoticlistening_ka-ga.mp3	ka	ga	1	left
6.6.1	win	2023-06-19	18:11:26	18:32:20	1242786	5c28884289f035000174bfbe	2	1	practice_slash	26	practice_slash	17	stimuli_target_rectanglediamonds.svg	stimuli_distractor_trianglediamonds.svg	4	yes	53	1	242	6	3	antiphase_hc_soi.wav	1	6	3	noise_calib_stim_LEFT.wav	1	21	blb_dichoticlistening_ka-ga.mp3	ka	ga	1	left
6.6.1	win	2023-06-19	18:11:26	18:32:20	1242786	5c28884289f035000174bfbe	2	1	practice_slash	26	advance_on_keypress_SLASH	18	stimuli_target_rectanglediamonds.svg	stimuli_distractor_trianglediamonds.svg	4	yes	57	0	312	6	3	antiphase_hc_soi.wav	1	6	3	noise_calib_stim_LEFT.wav	1	21	blb_dichoticlistening_ka-ga.mp3	ka	ga	1	left
6.6.1	win	2023-06-19	18:11:26	18:32:22	1245121	5c28884289f035000174bfbe	2	1	practice_slash	26	practice_slash	19	stimuli_distractor_trianglediamonds.svg	stimuli_distractor_trianglediamonds.svg	15	no	53	0	361	6	3	antiphase_hc_soi.wav	1	6	3	noise_calib_stim_LEFT.wav	1	21	blb_dichoticlistening_ka-ga.mp3	ka	ga	1	left
