build	computer.platform	date	time	timestamp	time_elapsed_ms	subject	group	session	blockcode	blocknum	trialcode	trialnum	stimulus_left	stimulus_right	stim_index	target_present	response	correct	latency	headphonecheck_countTestTrials	headphonecheck_index	headphonecheck_testSound	headphonecheck_correctResponse	stereocheck_countTestTrials	stereocheck_index	stereocheck_testSound	stereocheck_correctResponse	DL_index	DL_soundfile	DL_leftSound	DL_rightSound	DL_dualSound	DL_choice
6.6.1	win	2023-07-11	11:08:56	0	0	628f6d4d2a3cf806fc7e01ff	1	1	headphonecheck_calibration	4	headphonecheck_calibrationIntro	1			0		calibrationButton	0	3564	0	0			0	0			1				0	
6.6.1	win	2023-07-11	11:08:56	0	0	628f6d4d2a3cf806fc7e01ff	1	1	headphonecheck_testphase	5	test_collectResponse	3			0		second	0	434481	1	6	antiphase_hc_ois.wav	3	0	0			1				0	
6.6.1	win	2023-07-11	11:08:56	0	0	628f6d4d2a3cf806fc7e01ff	1	1	headphonecheck_testphase	5	test_collectResponse	6			0		third	0	1042	2	1	antiphase_hc_iso.wav	2	0	0			1				0	
6.6.1	win	2023-07-11	11:08:56	0	0	628f6d4d2a3cf806fc7e01ff	1	1	headphonecheck_testphase	5	test_collectResponse	9			0		third	0	967	3	4	antiphase_hc_sio.wav	1	0	0			1				0	
6.6.1	win	2023-07-11	11:08:56	0	0	628f6d4d2a3cf806fc7e01ff	1	1	headphonecheck_testphase	5	test_collectResponse	12			0		first	0	1281	4	5	antiphase_hc_osi.wav	2	0	0			1				0	
6.6.1	win	2023-07-11	11:08:56	0	0	628f6d4d2a3cf806fc7e01ff	1	1	headphonecheck_testphase	5	test_collectResponse	15			0		second	0	603	5	2	antiphase_hc_ios.wav	3	0	0			1				0	
6.6.1	win	2023-07-11	11:08:56	0	0	628f6d4d2a3cf806fc7e01ff	1	1	headphonecheck_testphase	5	test_collectResponse	18			0		second	0	442	6	3	antiphase_hc_soi.wav	1	0	0			1				0	
6.6.1	win	2023-07-11	11:08:56	0	0	628f6d4d2a3cf806fc7e01ff	1	1	stereocheck_calibration	7	stereocheck_calibrationIntro	1			0		stereocheck_calibrationButton	0	7317	6	3	antiphase_hc_soi.wav	1	0	0			1				0	
6.6.1	win	2023-07-11	11:08:56	0	0	628f6d4d2a3cf806fc7e01ff	1	1	stereocheck_testphase	8	stereocheck_test_collectResponse	3			0		stereocheck_right	1	1292	6	3	antiphase_hc_soi.wav	1	1	4	noise_calib_stim_RIGHT.wav	2	1				0	
6.6.1	win	2023-07-11	11:08:56	0	0	628f6d4d2a3cf806fc7e01ff	1	1	stereocheck_testphase	8	stereocheck_test_collectResponse	6			0		stereocheck_left	1	490	6	3	antiphase_hc_soi.wav	1	2	3	noise_calib_stim_LEFT.wav	1	1				0	
6.6.1	win	2023-07-11	11:08:56	0	0	628f6d4d2a3cf806fc7e01ff	1	1	stereocheck_testphase	8	stereocheck_test_collectResponse	9			0		stereocheck_right	1	356	6	3	antiphase_hc_soi.wav	1	3	6	noise_calib_stim_RIGHT.wav	2	1				0	
6.6.1	win	2023-07-11	11:08:56	0	0	628f6d4d2a3cf806fc7e01ff	1	1	stereocheck_testphase	8	stereocheck_test_collectResponse	12			0		stereocheck_left	1	424	6	3	antiphase_hc_soi.wav	1	4	2	noise_calib_stim_LEFT.wav	1	1				0	
6.6.1	win	2023-07-11	11:08:56	0	0	628f6d4d2a3cf806fc7e01ff	1	1	stereocheck_testphase	8	stereocheck_test_collectResponse	15			0		stereocheck_left	1	938	6	3	antiphase_hc_soi.wav	1	5	1	noise_calib_stim_LEFT.wav	1	1				0	
6.6.1	win	2023-07-11	11:08:56	0	0	628f6d4d2a3cf806fc7e01ff	1	1	stereocheck_testphase	8	stereocheck_test_collectResponse	18			0		stereocheck_right	1	402	6	3	antiphase_hc_soi.wav	1	6	5	noise_calib_stim_RIGHT.wav	2	1				0	
6.6.1	win	2023-07-11	11:08:56	0	0	628f6d4d2a3cf806fc7e01ff	1	1	DL_practice	11	DL_practice	2			0		ka	1	1640	6	3	antiphase_hc_soi.wav	1	6	5	noise_calib_stim_RIGHT.wav	2	22	blb_dichoticlistening_ka-ka.mp3	ka	ka	0	left
6.6.1	win	2023-07-11	11:08:56	0	0	628f6d4d2a3cf806fc7e01ff	1	1	DL_practice	11	DL_practice	3			0		ga	1	1755	6	3	antiphase_hc_soi.wav	1	6	5	noise_calib_stim_RIGHT.wav	2	18	blb_dichoticlistening_ga-ta.mp3	ga	ta	1	left
6.6.1	win	2023-07-11	11:08:56	0	0	628f6d4d2a3cf806fc7e01ff	1	1	DL_practice	11	DL_practice	4			0		ba	1	4385	6	3	antiphase_hc_soi.wav	1	6	5	noise_calib_stim_RIGHT.wav	2	1	blb_dichoticlistening_ba-ba.mp3	ba	ba	0	left
6.6.1	win	2023-07-11	11:08:56	0	0	628f6d4d2a3cf806fc7e01ff	1	1	DL_practice	11	DL_practice	5			0		ga	1	1390	6	3	antiphase_hc_soi.wav	1	6	5	noise_calib_stim_RIGHT.wav	2	15	blb_dichoticlistening_ga-ga.mp3	ga	ga	0	left
6.6.1	win	2023-07-11	11:08:56	0	0	628f6d4d2a3cf806fc7e01ff	1	1	DL_practice	11	DL_practice	6			0		da	1	1602	6	3	antiphase_hc_soi.wav	1	6	5	noise_calib_stim_RIGHT.wav	2	8	blb_dichoticlistening_da-da.mp3	da	da	0	left
6.6.1	win	2023-07-11	11:08:56	0	0	628f6d4d2a3cf806fc7e01ff	1	1	DL_practice	11	DL_practice	7			0		ka	1	1652	6	3	antiphase_hc_soi.wav	1	6	5	noise_calib_stim_RIGHT.wav	2	23	blb_dichoticlistening_ka-pa.mp3	ka	pa	1	left
6.6.1	win	2023-07-11	11:08:56	0	0	628f6d4d2a3cf806fc7e01ff	1	1	DL_practice	11	DL_practice	8			0		ka	0	2183	6	3	antiphase_hc_soi.wav	1	6	5	noise_calib_stim_RIGHT.wav	2	36	blb_dichoticlistening_ta-ta.mp3	ta	ta	0	other
6.6.1	win	2023-07-11	11:08:56	0	0	628f6d4d2a3cf806fc7e01ff	1	1	DL_practice	11	DL_practice	9			0		pa	0	3587	6	3	antiphase_hc_soi.wav	1	6	5	noise_calib_stim_RIGHT.wav	2	7	blb_dichoticlistening_da-ba.mp3	da	ba	1	other
6.6.1	win	2023-07-11	11:08:56	0	0	628f6d4d2a3cf806fc7e01ff	1	1	DL_practice	11	DL_practice	10			0		pa	1	1109	6	3	antiphase_hc_soi.wav	1	6	5	noise_calib_stim_RIGHT.wav	2	29	blb_dichoticlistening_pa-pa.mp3	pa	pa	0	left
6.6.1	win	2023-07-11	11:08:56	0	0	628f6d4d2a3cf806fc7e01ff	1	1	DL_test	13	DL_test	1			0		ka	1	2190	6	3	antiphase_hc_soi.wav	1	6	5	noise_calib_stim_RIGHT.wav	2	23	blb_dichoticlistening_ka-pa.mp3	ka	pa	1	left
6.6.1	win	2023-07-11	11:08:56	0	0	628f6d4d2a3cf806fc7e01ff	1	1	DL_test	13	DL_test	2			0		ka	1	2404	6	3	antiphase_hc_soi.wav	1	6	5	noise_calib_stim_RIGHT.wav	2	22	blb_dichoticlistening_ka-ka.mp3	ka	ka	0	left
6.6.1	win	2023-07-11	11:08:56	0	0	628f6d4d2a3cf806fc7e01ff	1	1	DL_test	13	DL_test	3			0		ka	1	1307	6	3	antiphase_hc_soi.wav	1	6	5	noise_calib_stim_RIGHT.wav	2	28	blb_dichoticlistening_pa-ka.mp3	pa	ka	1	right
6.6.1	win	2023-07-11	11:08:56	0	0	628f6d4d2a3cf806fc7e01ff	1	1	DL_test	13	DL_test	4			0		ba	1	3520	6	3	antiphase_hc_soi.wav	1	6	5	noise_calib_stim_RIGHT.wav	2	25	blb_dichoticlistening_pa-ba.mp3	pa	ba	1	right
6.6.1	win	2023-07-11	11:08:56	0	0	628f6d4d2a3cf806fc7e01ff	1	1	DL_test	13	DL_test	5			0		ta	1	2037	6	3	antiphase_hc_soi.wav	1	6	5	noise_calib_stim_RIGHT.wav	2	35	blb_dichoticlistening_ta-pa.mp3	ta	pa	1	left
6.6.1	win	2023-07-11	11:08:56	0	0	628f6d4d2a3cf806fc7e01ff	1	1	DL_test	13	DL_test	6			0		ga	1	1523	6	3	antiphase_hc_soi.wav	1	6	5	noise_calib_stim_RIGHT.wav	2	15	blb_dichoticlistening_ga-ga.mp3	ga	ga	0	left
6.6.1	win	2023-07-11	11:08:56	0	0	628f6d4d2a3cf806fc7e01ff	1	1	DL_test	13	DL_test	7			0		ga	1	1411	6	3	antiphase_hc_soi.wav	1	6	5	noise_calib_stim_RIGHT.wav	2	16	blb_dichoticlistening_ga-ka.mp3	ga	ka	1	left
6.6.1	win	2023-07-11	11:08:56	0	0	628f6d4d2a3cf806fc7e01ff	1	1	DL_test	13	DL_test	8			0		ga	1	964	6	3	antiphase_hc_soi.wav	1	6	5	noise_calib_stim_RIGHT.wav	2	18	blb_dichoticlistening_ga-ta.mp3	ga	ta	1	left
6.6.1	win	2023-07-11	11:08:56	0	0	628f6d4d2a3cf806fc7e01ff	1	1	DL_test	13	DL_test	9			0		ka	0	1237	6	3	antiphase_hc_soi.wav	1	6	5	noise_calib_stim_RIGHT.wav	2	30	blb_dichoticlistening_pa-ta.mp3	pa	ta	1	other
6.6.1	win	2023-07-11	11:08:56	0	0	628f6d4d2a3cf806fc7e01ff	1	1	DL_test	13	DL_test	10			0		da	1	3556	6	3	antiphase_hc_soi.wav	1	6	5	noise_calib_stim_RIGHT.wav	2	32	blb_dichoticlistening_ta-da.mp3	ta	da	1	right
6.6.1	win	2023-07-11	11:08:56	0	0	628f6d4d2a3cf806fc7e01ff	1	1	DL_test	13	DL_test	11			0		da	1	1984	6	3	antiphase_hc_soi.wav	1	6	5	noise_calib_stim_RIGHT.wav	2	8	blb_dichoticlistening_da-da.mp3	da	da	0	left
6.6.1	win	2023-07-11	11:08:56	0	0	628f6d4d2a3cf806fc7e01ff	1	1	DL_test	13	DL_test	12			0		ba	1	4474	6	3	antiphase_hc_soi.wav	1	6	5	noise_calib_stim_RIGHT.wav	2	31	blb_dichoticlistening_ta-ba.mp3	ta	ba	1	right
6.6.1	win	2023-07-11	11:08:56	0	0	628f6d4d2a3cf806fc7e01ff	1	1	DL_test	13	DL_test	13			0		ga	1	1930	6	3	antiphase_hc_soi.wav	1	6	5	noise_calib_stim_RIGHT.wav	2	27	blb_dichoticlistening_pa-ga.mp3	pa	ga	1	right
6.6.1	win	2023-07-11	11:08:56	0	0	628f6d4d2a3cf806fc7e01ff	1	1	DL_test	13	DL_test	14			0		pa	1	1511	6	3	antiphase_hc_soi.wav	1	6	5	noise_calib_stim_RIGHT.wav	2	29	blb_dichoticlistening_pa-pa.mp3	pa	pa	0	left
6.6.1	win	2023-07-11	11:08:56	0	0	628f6d4d2a3cf806fc7e01ff	1	1	DL_test	13	DL_test	15			0		da	1	1963	6	3	antiphase_hc_soi.wav	1	6	5	noise_calib_stim_RIGHT.wav	2	11	blb_dichoticlistening_da-pa.mp3	da	pa	1	left
6.6.1	win	2023-07-11	11:08:56	0	0	628f6d4d2a3cf806fc7e01ff	1	1	DL_test	13	DL_test	16			0		da	1	1291	6	3	antiphase_hc_soi.wav	1	6	5	noise_calib_stim_RIGHT.wav	2	26	blb_dichoticlistening_pa-da.mp3	pa	da	1	right
6.6.1	win	2023-07-11	11:08:56	0	0	628f6d4d2a3cf806fc7e01ff	1	1	DL_test	13	DL_test	17			0		ga	0	1252	6	3	antiphase_hc_soi.wav	1	6	5	noise_calib_stim_RIGHT.wav	2	20	blb_dichoticlistening_ka-da.mp3	ka	da	1	other
6.6.1	win	2023-07-11	11:08:56	0	0	628f6d4d2a3cf806fc7e01ff	1	1	DL_test	13	DL_test	18			0		da	1	2876	6	3	antiphase_hc_soi.wav	1	6	5	noise_calib_stim_RIGHT.wav	2	9	blb_dichoticlistening_da-ga.mp3	da	ga	1	left
6.6.1	win	2023-07-11	11:08:56	0	0	628f6d4d2a3cf806fc7e01ff	1	1	DL_test	13	DL_test	19			0		ba	1	1960	6	3	antiphase_hc_soi.wav	1	6	5	noise_calib_stim_RIGHT.wav	2	3	blb_dichoticlistening_ba-ga.mp3	ba	ga	1	left
6.6.1	win	2023-07-11	11:08:56	0	0	628f6d4d2a3cf806fc7e01ff	1	1	DL_test	13	DL_test	20			0		ba	1	8155	6	3	antiphase_hc_soi.wav	1	6	5	noise_calib_stim_RIGHT.wav	2	1	blb_dichoticlistening_ba-ba.mp3	ba	ba	0	left
6.6.1	win	2023-07-11	11:08:56	0	0	628f6d4d2a3cf806fc7e01ff	1	1	DL_test	13	DL_test	21			0		ba	1	2893	6	3	antiphase_hc_soi.wav	1	6	5	noise_calib_stim_RIGHT.wav	2	13	blb_dichoticlistening_ga-ba.mp3	ga	ba	1	right
6.6.1	win	2023-07-11	11:08:56	0	0	628f6d4d2a3cf806fc7e01ff	1	1	DL_test	13	DL_test	22			0		ba	1	100407	6	3	antiphase_hc_soi.wav	1	6	5	noise_calib_stim_RIGHT.wav	2	4	blb_dichoticlistening_ba-ka.mp3	ba	ka	1	left
6.6.1	win	2023-07-11	11:08:56	0	0	628f6d4d2a3cf806fc7e01ff	1	1	DL_test	13	DL_test	23			0		da	0	1571	6	3	antiphase_hc_soi.wav	1	6	5	noise_calib_stim_RIGHT.wav	2	19	blb_dichoticlistening_ka-ba.mp3	ka	ba	1	other
6.6.1	win	2023-07-11	11:08:56	0	0	628f6d4d2a3cf806fc7e01ff	1	1	DL_test	13	DL_test	24			0		da	1	1319	6	3	antiphase_hc_soi.wav	1	6	5	noise_calib_stim_RIGHT.wav	2	2	blb_dichoticlistening_ba-da.mp3	ba	da	1	right
6.6.1	win	2023-07-11	11:08:56	0	0	628f6d4d2a3cf806fc7e01ff	1	1	DL_test	13	DL_test	25			0		da	1	1112	6	3	antiphase_hc_soi.wav	1	6	5	noise_calib_stim_RIGHT.wav	2	10	blb_dichoticlistening_da-ka.mp3	da	ka	1	left
6.6.1	win	2023-07-11	11:08:56	0	0	628f6d4d2a3cf806fc7e01ff	1	1	DL_test	13	DL_test	26			0		ga	1	1646	6	3	antiphase_hc_soi.wav	1	6	5	noise_calib_stim_RIGHT.wav	2	14	blb_dichoticlistening_ga-da.mp3	ga	da	1	left
6.6.1	win	2023-07-11	11:08:56	0	0	628f6d4d2a3cf806fc7e01ff	1	1	DL_test	13	DL_test	27			0		ka	0	1279	6	3	antiphase_hc_soi.wav	1	6	5	noise_calib_stim_RIGHT.wav	2	36	blb_dichoticlistening_ta-ta.mp3	ta	ta	0	other
6.6.1	win	2023-07-11	11:08:56	0	0	628f6d4d2a3cf806fc7e01ff	1	1	DL_test	13	DL_test	28			0		ba	1	1641	6	3	antiphase_hc_soi.wav	1	6	5	noise_calib_stim_RIGHT.wav	2	5	blb_dichoticlistening_ba-pa.mp3	ba	pa	1	left
6.6.1	win	2023-07-11	11:08:56	0	0	628f6d4d2a3cf806fc7e01ff	1	1	DL_test	13	DL_test	29			0		da	1	1024	6	3	antiphase_hc_soi.wav	1	6	5	noise_calib_stim_RIGHT.wav	2	12	blb_dichoticlistening_da-ta.mp3	da	ta	1	left
6.6.1	win	2023-07-11	11:08:56	0	0	628f6d4d2a3cf806fc7e01ff	1	1	DL_test	13	DL_test	30			0		ta	1	1811	6	3	antiphase_hc_soi.wav	1	6	5	noise_calib_stim_RIGHT.wav	2	6	blb_dichoticlistening_ba-ta.mp3	ba	ta	1	right
6.6.1	win	2023-07-11	11:08:56	0	0	628f6d4d2a3cf806fc7e01ff	1	1	DL_test	13	DL_test	31			0		ga	1	1140	6	3	antiphase_hc_soi.wav	1	6	5	noise_calib_stim_RIGHT.wav	2	33	blb_dichoticlistening_ta-ga.mp3	ta	ga	1	right
6.6.1	win	2023-07-11	11:08:56	0	0	628f6d4d2a3cf806fc7e01ff	1	1	DL_test	13	DL_test	32			0		ba	1	2209	6	3	antiphase_hc_soi.wav	1	6	5	noise_calib_stim_RIGHT.wav	2	7	blb_dichoticlistening_da-ba.mp3	da	ba	1	right
6.6.1	win	2023-07-11	11:08:56	0	0	628f6d4d2a3cf806fc7e01ff	1	1	DL_test	13	DL_test	33			0		ka	1	1230	6	3	antiphase_hc_soi.wav	1	6	5	noise_calib_stim_RIGHT.wav	2	34	blb_dichoticlistening_ta-ka.mp3	ta	ka	1	right
6.6.1	win	2023-07-11	11:08:56	0	0	628f6d4d2a3cf806fc7e01ff	1	1	DL_test	13	DL_test	34			0		ga	1	1078	6	3	antiphase_hc_soi.wav	1	6	5	noise_calib_stim_RIGHT.wav	2	21	blb_dichoticlistening_ka-ga.mp3	ka	ga	1	right
6.6.1	win	2023-07-11	11:08:56	0	0	628f6d4d2a3cf806fc7e01ff	1	1	DL_test	13	DL_test	35			0		ka	1	1150	6	3	antiphase_hc_soi.wav	1	6	5	noise_calib_stim_RIGHT.wav	2	24	blb_dichoticlistening_ka-ta.mp3	ka	ta	1	left
6.6.1	win	2023-07-11	11:08:56	0	0	628f6d4d2a3cf806fc7e01ff	1	1	DL_test	13	DL_test	36			0		ga	1	1899	6	3	antiphase_hc_soi.wav	1	6	5	noise_calib_stim_RIGHT.wav	2	17	blb_dichoticlistening_ga-pa.mp3	ga	pa	1	left
6.6.1	win	2023-07-11	11:08:56	0	0	628f6d4d2a3cf806fc7e01ff	1	1	DL_test	14	DL_test	1			0		ga	1	1520	6	3	antiphase_hc_soi.wav	1	6	5	noise_calib_stim_RIGHT.wav	2	33	blb_dichoticlistening_ta-ga.mp3	ta	ga	1	right
6.6.1	win	2023-07-11	11:08:56	0	0	628f6d4d2a3cf806fc7e01ff	1	1	DL_test	14	DL_test	2			0		ga	1	836	6	3	antiphase_hc_soi.wav	1	6	5	noise_calib_stim_RIGHT.wav	2	15	blb_dichoticlistening_ga-ga.mp3	ga	ga	0	left
6.6.1	win	2023-07-11	11:08:56	0	0	628f6d4d2a3cf806fc7e01ff	1	1	DL_test	14	DL_test	3			0		ba	1	1864	6	3	antiphase_hc_soi.wav	1	6	5	noise_calib_stim_RIGHT.wav	2	19	blb_dichoticlistening_ka-ba.mp3	ka	ba	1	right
6.6.1	win	2023-07-11	11:08:56	0	0	628f6d4d2a3cf806fc7e01ff	1	1	DL_test	14	DL_test	4			0		ba	1	1269	6	3	antiphase_hc_soi.wav	1	6	5	noise_calib_stim_RIGHT.wav	2	1	blb_dichoticlistening_ba-ba.mp3	ba	ba	0	left
6.6.1	win	2023-07-11	11:08:56	0	0	628f6d4d2a3cf806fc7e01ff	1	1	DL_test	14	DL_test	5			0		ka	1	1952	6	3	antiphase_hc_soi.wav	1	6	5	noise_calib_stim_RIGHT.wav	2	34	blb_dichoticlistening_ta-ka.mp3	ta	ka	1	right
6.6.1	win	2023-07-11	11:08:56	0	0	628f6d4d2a3cf806fc7e01ff	1	1	DL_test	14	DL_test	6			0		da	1	1429	6	3	antiphase_hc_soi.wav	1	6	5	noise_calib_stim_RIGHT.wav	2	9	blb_dichoticlistening_da-ga.mp3	da	ga	1	left
6.6.1	win	2023-07-11	11:08:56	0	0	628f6d4d2a3cf806fc7e01ff	1	1	DL_test	14	DL_test	7			0		ga	1	1231	6	3	antiphase_hc_soi.wav	1	6	5	noise_calib_stim_RIGHT.wav	2	16	blb_dichoticlistening_ga-ka.mp3	ga	ka	1	left
6.6.1	win	2023-07-11	11:08:56	0	0	628f6d4d2a3cf806fc7e01ff	1	1	DL_test	14	DL_test	8			0		da	1	1504	6	3	antiphase_hc_soi.wav	1	6	5	noise_calib_stim_RIGHT.wav	2	12	blb_dichoticlistening_da-ta.mp3	da	ta	1	left
6.6.1	win	2023-07-11	11:08:56	0	0	628f6d4d2a3cf806fc7e01ff	1	1	DL_test	14	DL_test	9			0		ba	1	1551	6	3	antiphase_hc_soi.wav	1	6	5	noise_calib_stim_RIGHT.wav	2	25	blb_dichoticlistening_pa-ba.mp3	pa	ba	1	right
6.6.1	win	2023-07-11	11:08:56	0	0	628f6d4d2a3cf806fc7e01ff	1	1	DL_test	14	DL_test	10			0		da	1	1442	6	3	antiphase_hc_soi.wav	1	6	5	noise_calib_stim_RIGHT.wav	2	11	blb_dichoticlistening_da-pa.mp3	da	pa	1	left
6.6.1	win	2023-07-11	11:08:56	0	0	628f6d4d2a3cf806fc7e01ff	1	1	DL_test	14	DL_test	11			0		ba	1	4059	6	3	antiphase_hc_soi.wav	1	6	5	noise_calib_stim_RIGHT.wav	2	7	blb_dichoticlistening_da-ba.mp3	da	ba	1	right
6.6.1	win	2023-07-11	11:08:56	0	0	628f6d4d2a3cf806fc7e01ff	1	1	DL_test	14	DL_test	12			0		pa	1	1841	6	3	antiphase_hc_soi.wav	1	6	5	noise_calib_stim_RIGHT.wav	2	29	blb_dichoticlistening_pa-pa.mp3	pa	pa	0	left
6.6.1	win	2023-07-11	11:08:56	0	0	628f6d4d2a3cf806fc7e01ff	1	1	DL_test	14	DL_test	13			0		ba	1	1769	6	3	antiphase_hc_soi.wav	1	6	5	noise_calib_stim_RIGHT.wav	2	13	blb_dichoticlistening_ga-ba.mp3	ga	ba	1	right
6.6.1	win	2023-07-11	11:08:56	0	0	628f6d4d2a3cf806fc7e01ff	1	1	DL_test	14	DL_test	14			0		ba	1	3997	6	3	antiphase_hc_soi.wav	1	6	5	noise_calib_stim_RIGHT.wav	2	31	blb_dichoticlistening_ta-ba.mp3	ta	ba	1	right
6.6.1	win	2023-07-11	11:08:56	0	0	628f6d4d2a3cf806fc7e01ff	1	1	DL_test	14	DL_test	15			0		ka	1	1357	6	3	antiphase_hc_soi.wav	1	6	5	noise_calib_stim_RIGHT.wav	2	28	blb_dichoticlistening_pa-ka.mp3	pa	ka	1	right
6.6.1	win	2023-07-11	11:08:56	0	0	628f6d4d2a3cf806fc7e01ff	1	1	DL_test	14	DL_test	16			0		ba	1	2005	6	3	antiphase_hc_soi.wav	1	6	5	noise_calib_stim_RIGHT.wav	2	6	blb_dichoticlistening_ba-ta.mp3	ba	ta	1	left
6.6.1	win	2023-07-11	11:08:56	0	0	628f6d4d2a3cf806fc7e01ff	1	1	DL_test	14	DL_test	17			0		da	1	3059	6	3	antiphase_hc_soi.wav	1	6	5	noise_calib_stim_RIGHT.wav	2	2	blb_dichoticlistening_ba-da.mp3	ba	da	1	right
6.6.1	win	2023-07-11	11:08:56	0	0	628f6d4d2a3cf806fc7e01ff	1	1	DL_test	14	DL_test	18			0		ba	1	1558	6	3	antiphase_hc_soi.wav	1	6	5	noise_calib_stim_RIGHT.wav	2	5	blb_dichoticlistening_ba-pa.mp3	ba	pa	1	left
6.6.1	win	2023-07-11	11:08:56	0	0	628f6d4d2a3cf806fc7e01ff	1	1	DL_test	14	DL_test	19			0		da	1	1318	6	3	antiphase_hc_soi.wav	1	6	5	noise_calib_stim_RIGHT.wav	2	32	blb_dichoticlistening_ta-da.mp3	ta	da	1	right
6.6.1	win	2023-07-11	11:08:56	0	0	628f6d4d2a3cf806fc7e01ff	1	1	DL_test	14	DL_test	20			0		ka	1	1295	6	3	antiphase_hc_soi.wav	1	6	5	noise_calib_stim_RIGHT.wav	2	24	blb_dichoticlistening_ka-ta.mp3	ka	ta	1	left
6.6.1	win	2023-07-11	11:08:56	0	0	628f6d4d2a3cf806fc7e01ff	1	1	DL_test	14	DL_test	21			0		ka	1	2285	6	3	antiphase_hc_soi.wav	1	6	5	noise_calib_stim_RIGHT.wav	2	23	blb_dichoticlistening_ka-pa.mp3	ka	pa	1	left
6.6.1	win	2023-07-11	11:08:56	0	0	628f6d4d2a3cf806fc7e01ff	1	1	DL_test	14	DL_test	22			0		da	1	1547	6	3	antiphase_hc_soi.wav	1	6	5	noise_calib_stim_RIGHT.wav	2	10	blb_dichoticlistening_da-ka.mp3	da	ka	1	left
6.6.1	win	2023-07-11	11:08:56	0	0	628f6d4d2a3cf806fc7e01ff	1	1	DL_test	14	DL_test	23			0		da	1	1032	6	3	antiphase_hc_soi.wav	1	6	5	noise_calib_stim_RIGHT.wav	2	26	blb_dichoticlistening_pa-da.mp3	pa	da	1	right
6.6.1	win	2023-07-11	11:08:56	0	0	628f6d4d2a3cf806fc7e01ff	1	1	DL_test	14	DL_test	24			0		ga	1	1437	6	3	antiphase_hc_soi.wav	1	6	5	noise_calib_stim_RIGHT.wav	2	17	blb_dichoticlistening_ga-pa.mp3	ga	pa	1	left
6.6.1	win	2023-07-11	11:08:56	0	0	628f6d4d2a3cf806fc7e01ff	1	1	DL_test	14	DL_test	25			0		ga	1	1836	6	3	antiphase_hc_soi.wav	1	6	5	noise_calib_stim_RIGHT.wav	2	18	blb_dichoticlistening_ga-ta.mp3	ga	ta	1	left
6.6.1	win	2023-07-11	11:08:56	0	0	628f6d4d2a3cf806fc7e01ff	1	1	DL_test	14	DL_test	26			0		ka	1	1020	6	3	antiphase_hc_soi.wav	1	6	5	noise_calib_stim_RIGHT.wav	2	22	blb_dichoticlistening_ka-ka.mp3	ka	ka	0	left
6.6.1	win	2023-07-11	11:08:56	0	0	628f6d4d2a3cf806fc7e01ff	1	1	DL_test	14	DL_test	27			0		ba	1	1306	6	3	antiphase_hc_soi.wav	1	6	5	noise_calib_stim_RIGHT.wav	2	3	blb_dichoticlistening_ba-ga.mp3	ba	ga	1	left
6.6.1	win	2023-07-11	11:08:56	0	0	628f6d4d2a3cf806fc7e01ff	1	1	DL_test	14	DL_test	28			0		da	0	1347	6	3	antiphase_hc_soi.wav	1	6	5	noise_calib_stim_RIGHT.wav	2	4	blb_dichoticlistening_ba-ka.mp3	ba	ka	1	other
6.6.1	win	2023-07-11	11:08:56	0	0	628f6d4d2a3cf806fc7e01ff	1	1	DL_test	14	DL_test	29			0		ga	1	1030	6	3	antiphase_hc_soi.wav	1	6	5	noise_calib_stim_RIGHT.wav	2	21	blb_dichoticlistening_ka-ga.mp3	ka	ga	1	right
6.6.1	win	2023-07-11	11:08:56	0	0	628f6d4d2a3cf806fc7e01ff	1	1	DL_test	14	DL_test	30			0		ka	0	1261	6	3	antiphase_hc_soi.wav	1	6	5	noise_calib_stim_RIGHT.wav	2	35	blb_dichoticlistening_ta-pa.mp3	ta	pa	1	other
6.6.1	win	2023-07-11	11:08:56	0	0	628f6d4d2a3cf806fc7e01ff	1	1	DL_test	14	DL_test	31			0		da	1	1619	6	3	antiphase_hc_soi.wav	1	6	5	noise_calib_stim_RIGHT.wav	2	14	blb_dichoticlistening_ga-da.mp3	ga	da	1	right
6.6.1	win	2023-07-11	11:08:56	0	0	628f6d4d2a3cf806fc7e01ff	1	1	DL_test	14	DL_test	32			0		da	1	1119	6	3	antiphase_hc_soi.wav	1	6	5	noise_calib_stim_RIGHT.wav	2	8	blb_dichoticlistening_da-da.mp3	da	da	0	left
6.6.1	win	2023-07-11	11:08:56	0	0	628f6d4d2a3cf806fc7e01ff	1	1	DL_test	14	DL_test	33			0		ka	0	1541	6	3	antiphase_hc_soi.wav	1	6	5	noise_calib_stim_RIGHT.wav	2	36	blb_dichoticlistening_ta-ta.mp3	ta	ta	0	other
6.6.1	win	2023-07-11	11:08:56	0	0	628f6d4d2a3cf806fc7e01ff	1	1	DL_test	14	DL_test	34			0		ga	0	1339	6	3	antiphase_hc_soi.wav	1	6	5	noise_calib_stim_RIGHT.wav	2	20	blb_dichoticlistening_ka-da.mp3	ka	da	1	other
6.6.1	win	2023-07-11	11:08:56	0	0	628f6d4d2a3cf806fc7e01ff	1	1	DL_test	14	DL_test	35			0		da	0	3346	6	3	antiphase_hc_soi.wav	1	6	5	noise_calib_stim_RIGHT.wav	2	27	blb_dichoticlistening_pa-ga.mp3	pa	ga	1	other
6.6.1	win	2023-07-11	11:08:56	0	0	628f6d4d2a3cf806fc7e01ff	1	1	DL_test	14	DL_test	36			0		ta	1	1397	6	3	antiphase_hc_soi.wav	1	6	5	noise_calib_stim_RIGHT.wav	2	30	blb_dichoticlistening_pa-ta.mp3	pa	ta	1	right
6.6.1	win	2023-07-11	11:08:56	0	0	628f6d4d2a3cf806fc7e01ff	1	1	DL_test	15	DL_test	1			0		da	0	1811	6	3	antiphase_hc_soi.wav	1	6	5	noise_calib_stim_RIGHT.wav	2	31	blb_dichoticlistening_ta-ba.mp3	ta	ba	1	other
6.6.1	win	2023-07-11	11:08:56	0	0	628f6d4d2a3cf806fc7e01ff	1	1	DL_test	15	DL_test	2			0		ga	1	1127	6	3	antiphase_hc_soi.wav	1	6	5	noise_calib_stim_RIGHT.wav	2	18	blb_dichoticlistening_ga-ta.mp3	ga	ta	1	left
6.6.1	win	2023-07-11	11:08:56	0	0	628f6d4d2a3cf806fc7e01ff	1	1	DL_test	15	DL_test	3			0		ga	0	1061	6	3	antiphase_hc_soi.wav	1	6	5	noise_calib_stim_RIGHT.wav	2	20	blb_dichoticlistening_ka-da.mp3	ka	da	1	other
6.6.1	win	2023-07-11	11:08:56	0	0	628f6d4d2a3cf806fc7e01ff	1	1	DL_test	15	DL_test	4			0		ga	1	808	6	3	antiphase_hc_soi.wav	1	6	5	noise_calib_stim_RIGHT.wav	2	15	blb_dichoticlistening_ga-ga.mp3	ga	ga	0	left
6.6.1	win	2023-07-11	11:08:56	0	0	628f6d4d2a3cf806fc7e01ff	1	1	DL_test	15	DL_test	5			0		da	1	1316	6	3	antiphase_hc_soi.wav	1	6	5	noise_calib_stim_RIGHT.wav	2	26	blb_dichoticlistening_pa-da.mp3	pa	da	1	right
6.6.1	win	2023-07-11	11:08:56	0	0	628f6d4d2a3cf806fc7e01ff	1	1	DL_test	15	DL_test	6			0		ba	1	1603	6	3	antiphase_hc_soi.wav	1	6	5	noise_calib_stim_RIGHT.wav	2	5	blb_dichoticlistening_ba-pa.mp3	ba	pa	1	left
6.6.1	win	2023-07-11	11:08:56	0	0	628f6d4d2a3cf806fc7e01ff	1	1	DL_test	15	DL_test	7			0		ba	1	993	6	3	antiphase_hc_soi.wav	1	6	5	noise_calib_stim_RIGHT.wav	2	3	blb_dichoticlistening_ba-ga.mp3	ba	ga	1	left
6.6.1	win	2023-07-11	11:08:56	0	0	628f6d4d2a3cf806fc7e01ff	1	1	DL_test	15	DL_test	8			0		da	1	1480	6	3	antiphase_hc_soi.wav	1	6	5	noise_calib_stim_RIGHT.wav	2	8	blb_dichoticlistening_da-da.mp3	da	da	0	left
6.6.1	win	2023-07-11	11:08:56	0	0	628f6d4d2a3cf806fc7e01ff	1	1	DL_test	15	DL_test	9			0		da	1	1130	6	3	antiphase_hc_soi.wav	1	6	5	noise_calib_stim_RIGHT.wav	2	11	blb_dichoticlistening_da-pa.mp3	da	pa	1	left
6.6.1	win	2023-07-11	11:08:56	0	0	628f6d4d2a3cf806fc7e01ff	1	1	DL_test	15	DL_test	10			0		ba	1	1866	6	3	antiphase_hc_soi.wav	1	6	5	noise_calib_stim_RIGHT.wav	2	1	blb_dichoticlistening_ba-ba.mp3	ba	ba	0	left
6.6.1	win	2023-07-11	11:08:56	0	0	628f6d4d2a3cf806fc7e01ff	1	1	DL_test	15	DL_test	11			0		da	1	1251	6	3	antiphase_hc_soi.wav	1	6	5	noise_calib_stim_RIGHT.wav	2	10	blb_dichoticlistening_da-ka.mp3	da	ka	1	left
6.6.1	win	2023-07-11	11:08:56	0	0	628f6d4d2a3cf806fc7e01ff	1	1	DL_test	15	DL_test	12			0		ta	1	1527	6	3	antiphase_hc_soi.wav	1	6	5	noise_calib_stim_RIGHT.wav	2	30	blb_dichoticlistening_pa-ta.mp3	pa	ta	1	right
6.6.1	win	2023-07-11	11:08:56	0	0	628f6d4d2a3cf806fc7e01ff	1	1	DL_test	15	DL_test	13			0		ka	1	1430	6	3	antiphase_hc_soi.wav	1	6	5	noise_calib_stim_RIGHT.wav	2	24	blb_dichoticlistening_ka-ta.mp3	ka	ta	1	left
6.6.1	win	2023-07-11	11:08:56	0	0	628f6d4d2a3cf806fc7e01ff	1	1	DL_test	15	DL_test	14			0		ba	1	2055	6	3	antiphase_hc_soi.wav	1	6	5	noise_calib_stim_RIGHT.wav	2	13	blb_dichoticlistening_ga-ba.mp3	ga	ba	1	right
6.6.1	win	2023-07-11	11:08:56	0	0	628f6d4d2a3cf806fc7e01ff	1	1	DL_test	15	DL_test	15			0		ba	1	1542	6	3	antiphase_hc_soi.wav	1	6	5	noise_calib_stim_RIGHT.wav	2	2	blb_dichoticlistening_ba-da.mp3	ba	da	1	left
6.6.1	win	2023-07-11	11:08:56	0	0	628f6d4d2a3cf806fc7e01ff	1	1	DL_test	15	DL_test	16			0		da	1	1158	6	3	antiphase_hc_soi.wav	1	6	5	noise_calib_stim_RIGHT.wav	2	9	blb_dichoticlistening_da-ga.mp3	da	ga	1	left
6.6.1	win	2023-07-11	11:08:56	0	0	628f6d4d2a3cf806fc7e01ff	1	1	DL_test	15	DL_test	17			0		ka	0	1763	6	3	antiphase_hc_soi.wav	1	6	5	noise_calib_stim_RIGHT.wav	2	35	blb_dichoticlistening_ta-pa.mp3	ta	pa	1	other
6.6.1	win	2023-07-11	11:08:56	0	0	628f6d4d2a3cf806fc7e01ff	1	1	DL_test	15	DL_test	18			0		pa	1	1298	6	3	antiphase_hc_soi.wav	1	6	5	noise_calib_stim_RIGHT.wav	2	29	blb_dichoticlistening_pa-pa.mp3	pa	pa	0	left
6.6.1	win	2023-07-11	11:08:56	0	0	628f6d4d2a3cf806fc7e01ff	1	1	DL_test	15	DL_test	19			0		ba	1	1664	6	3	antiphase_hc_soi.wav	1	6	5	noise_calib_stim_RIGHT.wav	2	7	blb_dichoticlistening_da-ba.mp3	da	ba	1	right
6.6.1	win	2023-07-11	11:08:56	0	0	628f6d4d2a3cf806fc7e01ff	1	1	DL_test	15	DL_test	20			0		da	1	5960	6	3	antiphase_hc_soi.wav	1	6	5	noise_calib_stim_RIGHT.wav	2	32	blb_dichoticlistening_ta-da.mp3	ta	da	1	right
6.6.1	win	2023-07-11	11:08:56	0	0	628f6d4d2a3cf806fc7e01ff	1	1	DL_test	15	DL_test	21			0		da	0	5229	6	3	antiphase_hc_soi.wav	1	6	5	noise_calib_stim_RIGHT.wav	2	33	blb_dichoticlistening_ta-ga.mp3	ta	ga	1	other
6.6.1	win	2023-07-11	11:08:56	0	0	628f6d4d2a3cf806fc7e01ff	1	1	DL_test	15	DL_test	22			0		ka	1	2725	6	3	antiphase_hc_soi.wav	1	6	5	noise_calib_stim_RIGHT.wav	2	28	blb_dichoticlistening_pa-ka.mp3	pa	ka	1	right
6.6.1	win	2023-07-11	11:08:56	0	0	628f6d4d2a3cf806fc7e01ff	1	1	DL_test	15	DL_test	23			0		ba	1	1644	6	3	antiphase_hc_soi.wav	1	6	5	noise_calib_stim_RIGHT.wav	2	25	blb_dichoticlistening_pa-ba.mp3	pa	ba	1	right
6.6.1	win	2023-07-11	11:08:56	0	0	628f6d4d2a3cf806fc7e01ff	1	1	DL_test	15	DL_test	24			0		ta	0	1620	6	3	antiphase_hc_soi.wav	1	6	5	noise_calib_stim_RIGHT.wav	2	19	blb_dichoticlistening_ka-ba.mp3	ka	ba	1	other
6.6.1	win	2023-07-11	11:08:56	0	0	628f6d4d2a3cf806fc7e01ff	1	1	DL_test	15	DL_test	25			0		ka	1	2978	6	3	antiphase_hc_soi.wav	1	6	5	noise_calib_stim_RIGHT.wav	2	23	blb_dichoticlistening_ka-pa.mp3	ka	pa	1	left
6.6.1	win	2023-07-11	11:08:56	0	0	628f6d4d2a3cf806fc7e01ff	1	1	DL_test	15	DL_test	26			0		da	1	1227	6	3	antiphase_hc_soi.wav	1	6	5	noise_calib_stim_RIGHT.wav	2	12	blb_dichoticlistening_da-ta.mp3	da	ta	1	left
6.6.1	win	2023-07-11	11:08:56	0	0	628f6d4d2a3cf806fc7e01ff	1	1	DL_test	15	DL_test	27			0		ga	1	1172	6	3	antiphase_hc_soi.wav	1	6	5	noise_calib_stim_RIGHT.wav	2	27	blb_dichoticlistening_pa-ga.mp3	pa	ga	1	right
6.6.1	win	2023-07-11	11:08:56	0	0	628f6d4d2a3cf806fc7e01ff	1	1	DL_test	15	DL_test	28			0		ba	1	1955	6	3	antiphase_hc_soi.wav	1	6	5	noise_calib_stim_RIGHT.wav	2	4	blb_dichoticlistening_ba-ka.mp3	ba	ka	1	left
6.6.1	win	2023-07-11	11:08:56	0	0	628f6d4d2a3cf806fc7e01ff	1	1	DL_test	15	DL_test	29			0		ka	1	1971	6	3	antiphase_hc_soi.wav	1	6	5	noise_calib_stim_RIGHT.wav	2	22	blb_dichoticlistening_ka-ka.mp3	ka	ka	0	left
6.6.1	win	2023-07-11	11:08:56	0	0	628f6d4d2a3cf806fc7e01ff	1	1	DL_test	15	DL_test	30			0		da	1	1543	6	3	antiphase_hc_soi.wav	1	6	5	noise_calib_stim_RIGHT.wav	2	14	blb_dichoticlistening_ga-da.mp3	ga	da	1	right
6.6.1	win	2023-07-11	11:08:56	0	0	628f6d4d2a3cf806fc7e01ff	1	1	DL_test	15	DL_test	31			0		ba	1	2109	6	3	antiphase_hc_soi.wav	1	6	5	noise_calib_stim_RIGHT.wav	2	6	blb_dichoticlistening_ba-ta.mp3	ba	ta	1	left
6.6.1	win	2023-07-11	11:08:56	0	0	628f6d4d2a3cf806fc7e01ff	1	1	DL_test	15	DL_test	32			0		ga	1	1165	6	3	antiphase_hc_soi.wav	1	6	5	noise_calib_stim_RIGHT.wav	2	21	blb_dichoticlistening_ka-ga.mp3	ka	ga	1	right
6.6.1	win	2023-07-11	11:08:56	0	0	628f6d4d2a3cf806fc7e01ff	1	1	DL_test	15	DL_test	33			0		da	0	1419	6	3	antiphase_hc_soi.wav	1	6	5	noise_calib_stim_RIGHT.wav	2	17	blb_dichoticlistening_ga-pa.mp3	ga	pa	1	other
6.6.1	win	2023-07-11	11:08:56	0	0	628f6d4d2a3cf806fc7e01ff	1	1	DL_test	15	DL_test	34			0		ka	1	1351	6	3	antiphase_hc_soi.wav	1	6	5	noise_calib_stim_RIGHT.wav	2	34	blb_dichoticlistening_ta-ka.mp3	ta	ka	1	right
6.6.1	win	2023-07-11	11:08:56	0	0	628f6d4d2a3cf806fc7e01ff	1	1	DL_test	15	DL_test	35			0		ka	0	1540	6	3	antiphase_hc_soi.wav	1	6	5	noise_calib_stim_RIGHT.wav	2	36	blb_dichoticlistening_ta-ta.mp3	ta	ta	0	other
6.6.1	win	2023-07-11	11:08:56	0	0	628f6d4d2a3cf806fc7e01ff	1	1	DL_test	15	DL_test	36			0		ga	1	1116	6	3	antiphase_hc_soi.wav	1	6	5	noise_calib_stim_RIGHT.wav	2	16	blb_dichoticlistening_ga-ka.mp3	ga	ka	1	left
6.6.1	win	2023-07-11	11:08:56	0	0	628f6d4d2a3cf806fc7e01ff	1	1	DL_test	16	DL_test	1			0		ga	1	1375	6	3	antiphase_hc_soi.wav	1	6	5	noise_calib_stim_RIGHT.wav	2	27	blb_dichoticlistening_pa-ga.mp3	pa	ga	1	right
6.6.1	win	2023-07-11	11:08:56	0	0	628f6d4d2a3cf806fc7e01ff	1	1	DL_test	16	DL_test	2			0		da	0	1144	6	3	antiphase_hc_soi.wav	1	6	5	noise_calib_stim_RIGHT.wav	2	6	blb_dichoticlistening_ba-ta.mp3	ba	ta	1	other
6.6.1	win	2023-07-11	11:08:56	0	0	628f6d4d2a3cf806fc7e01ff	1	1	DL_test	16	DL_test	3			0		ga	1	1842	6	3	antiphase_hc_soi.wav	1	6	5	noise_calib_stim_RIGHT.wav	2	17	blb_dichoticlistening_ga-pa.mp3	ga	pa	1	left
6.6.1	win	2023-07-11	11:08:56	0	0	628f6d4d2a3cf806fc7e01ff	1	1	DL_test	16	DL_test	4			0		pa	1	1194	6	3	antiphase_hc_soi.wav	1	6	5	noise_calib_stim_RIGHT.wav	2	29	blb_dichoticlistening_pa-pa.mp3	pa	pa	0	left
6.6.1	win	2023-07-11	11:08:56	0	0	628f6d4d2a3cf806fc7e01ff	1	1	DL_test	16	DL_test	5			0		ba	1	2212	6	3	antiphase_hc_soi.wav	1	6	5	noise_calib_stim_RIGHT.wav	2	7	blb_dichoticlistening_da-ba.mp3	da	ba	1	right
6.6.1	win	2023-07-11	11:08:56	0	0	628f6d4d2a3cf806fc7e01ff	1	1	DL_test	16	DL_test	6			0		ga	1	1110	6	3	antiphase_hc_soi.wav	1	6	5	noise_calib_stim_RIGHT.wav	2	14	blb_dichoticlistening_ga-da.mp3	ga	da	1	left
6.6.1	win	2023-07-11	11:08:56	0	0	628f6d4d2a3cf806fc7e01ff	1	1	DL_test	16	DL_test	7			0		ga	1	977	6	3	antiphase_hc_soi.wav	1	6	5	noise_calib_stim_RIGHT.wav	2	33	blb_dichoticlistening_ta-ga.mp3	ta	ga	1	right
6.6.1	win	2023-07-11	11:08:56	0	0	628f6d4d2a3cf806fc7e01ff	1	1	DL_test	16	DL_test	8			0		ba	1	1807	6	3	antiphase_hc_soi.wav	1	6	5	noise_calib_stim_RIGHT.wav	2	13	blb_dichoticlistening_ga-ba.mp3	ga	ba	1	right
6.6.1	win	2023-07-11	11:08:56	0	0	628f6d4d2a3cf806fc7e01ff	1	1	DL_test	16	DL_test	9			0		ka	1	1624	6	3	antiphase_hc_soi.wav	1	6	5	noise_calib_stim_RIGHT.wav	2	24	blb_dichoticlistening_ka-ta.mp3	ka	ta	1	left
6.6.1	win	2023-07-11	11:08:56	0	0	628f6d4d2a3cf806fc7e01ff	1	1	DL_test	16	DL_test	10			0		ba	1	2530	6	3	antiphase_hc_soi.wav	1	6	5	noise_calib_stim_RIGHT.wav	2	31	blb_dichoticlistening_ta-ba.mp3	ta	ba	1	right
6.6.1	win	2023-07-11	11:08:56	0	0	628f6d4d2a3cf806fc7e01ff	1	1	DL_test	16	DL_test	11			0		da	1	996	6	3	antiphase_hc_soi.wav	1	6	5	noise_calib_stim_RIGHT.wav	2	9	blb_dichoticlistening_da-ga.mp3	da	ga	1	left
6.6.1	win	2023-07-11	11:08:56	0	0	628f6d4d2a3cf806fc7e01ff	1	1	DL_test	16	DL_test	12			0		da	0	1073	6	3	antiphase_hc_soi.wav	1	6	5	noise_calib_stim_RIGHT.wav	2	19	blb_dichoticlistening_ka-ba.mp3	ka	ba	1	other
6.6.1	win	2023-07-11	11:08:56	0	0	628f6d4d2a3cf806fc7e01ff	1	1	DL_test	16	DL_test	13			0		ga	1	986	6	3	antiphase_hc_soi.wav	1	6	5	noise_calib_stim_RIGHT.wav	2	18	blb_dichoticlistening_ga-ta.mp3	ga	ta	1	left
6.6.1	win	2023-07-11	11:08:56	0	0	628f6d4d2a3cf806fc7e01ff	1	1	DL_test	16	DL_test	14			0		da	1	1147	6	3	antiphase_hc_soi.wav	1	6	5	noise_calib_stim_RIGHT.wav	2	10	blb_dichoticlistening_da-ka.mp3	da	ka	1	left
6.6.1	win	2023-07-11	11:08:56	0	0	628f6d4d2a3cf806fc7e01ff	1	1	DL_test	16	DL_test	15			0		ka	0	1093	6	3	antiphase_hc_soi.wav	1	6	5	noise_calib_stim_RIGHT.wav	2	35	blb_dichoticlistening_ta-pa.mp3	ta	pa	1	other
6.6.1	win	2023-07-11	11:08:56	0	0	628f6d4d2a3cf806fc7e01ff	1	1	DL_test	16	DL_test	16			0		da	1	1168	6	3	antiphase_hc_soi.wav	1	6	5	noise_calib_stim_RIGHT.wav	2	32	blb_dichoticlistening_ta-da.mp3	ta	da	1	right
6.6.1	win	2023-07-11	11:08:56	0	0	628f6d4d2a3cf806fc7e01ff	1	1	DL_test	16	DL_test	17			0		da	1	969	6	3	antiphase_hc_soi.wav	1	6	5	noise_calib_stim_RIGHT.wav	2	12	blb_dichoticlistening_da-ta.mp3	da	ta	1	left
6.6.1	win	2023-07-11	11:08:56	0	0	628f6d4d2a3cf806fc7e01ff	1	1	DL_test	16	DL_test	18			0		ka	1	1160	6	3	antiphase_hc_soi.wav	1	6	5	noise_calib_stim_RIGHT.wav	2	28	blb_dichoticlistening_pa-ka.mp3	pa	ka	1	right
6.6.1	win	2023-07-11	11:08:56	0	0	628f6d4d2a3cf806fc7e01ff	1	1	DL_test	16	DL_test	19			0		ga	0	1273	6	3	antiphase_hc_soi.wav	1	6	5	noise_calib_stim_RIGHT.wav	2	20	blb_dichoticlistening_ka-da.mp3	ka	da	1	other
6.6.1	win	2023-07-11	11:08:56	0	0	628f6d4d2a3cf806fc7e01ff	1	1	DL_test	16	DL_test	20			0		ba	1	1728	6	3	antiphase_hc_soi.wav	1	6	5	noise_calib_stim_RIGHT.wav	2	2	blb_dichoticlistening_ba-da.mp3	ba	da	1	left
6.6.1	win	2023-07-11	11:08:56	0	0	628f6d4d2a3cf806fc7e01ff	1	1	DL_test	16	DL_test	21			0		da	1	974	6	3	antiphase_hc_soi.wav	1	6	5	noise_calib_stim_RIGHT.wav	2	26	blb_dichoticlistening_pa-da.mp3	pa	da	1	right
6.6.1	win	2023-07-11	11:08:56	0	0	628f6d4d2a3cf806fc7e01ff	1	1	DL_test	16	DL_test	22			0		ka	1	1025	6	3	antiphase_hc_soi.wav	1	6	5	noise_calib_stim_RIGHT.wav	2	34	blb_dichoticlistening_ta-ka.mp3	ta	ka	1	right
6.6.1	win	2023-07-11	11:08:56	0	0	628f6d4d2a3cf806fc7e01ff	1	1	DL_test	16	DL_test	23			0		ka	1	849	6	3	antiphase_hc_soi.wav	1	6	5	noise_calib_stim_RIGHT.wav	2	22	blb_dichoticlistening_ka-ka.mp3	ka	ka	0	left
6.6.1	win	2023-07-11	11:08:56	0	0	628f6d4d2a3cf806fc7e01ff	1	1	DL_test	16	DL_test	24			0		ka	0	910	6	3	antiphase_hc_soi.wav	1	6	5	noise_calib_stim_RIGHT.wav	2	30	blb_dichoticlistening_pa-ta.mp3	pa	ta	1	other
6.6.1	win	2023-07-11	11:08:56	0	0	628f6d4d2a3cf806fc7e01ff	1	1	DL_test	16	DL_test	25			0		ba	1	2092	6	3	antiphase_hc_soi.wav	1	6	5	noise_calib_stim_RIGHT.wav	2	5	blb_dichoticlistening_ba-pa.mp3	ba	pa	1	left
6.6.1	win	2023-07-11	11:08:56	0	0	628f6d4d2a3cf806fc7e01ff	1	1	DL_test	16	DL_test	26			0		da	0	960	6	3	antiphase_hc_soi.wav	1	6	5	noise_calib_stim_RIGHT.wav	2	4	blb_dichoticlistening_ba-ka.mp3	ba	ka	1	other
6.6.1	win	2023-07-11	11:08:56	0	0	628f6d4d2a3cf806fc7e01ff	1	1	DL_test	16	DL_test	27			0		ga	1	951	6	3	antiphase_hc_soi.wav	1	6	5	noise_calib_stim_RIGHT.wav	2	21	blb_dichoticlistening_ka-ga.mp3	ka	ga	1	right
6.6.1	win	2023-07-11	11:08:56	0	0	628f6d4d2a3cf806fc7e01ff	1	1	DL_test	16	DL_test	28			0		da	1	1109	6	3	antiphase_hc_soi.wav	1	6	5	noise_calib_stim_RIGHT.wav	2	8	blb_dichoticlistening_da-da.mp3	da	da	0	left
6.6.1	win	2023-07-11	11:08:56	0	0	628f6d4d2a3cf806fc7e01ff	1	1	DL_test	16	DL_test	29			0		ga	1	1155	6	3	antiphase_hc_soi.wav	1	6	5	noise_calib_stim_RIGHT.wav	2	16	blb_dichoticlistening_ga-ka.mp3	ga	ka	1	left
6.6.1	win	2023-07-11	11:08:56	0	0	628f6d4d2a3cf806fc7e01ff	1	1	DL_test	16	DL_test	30			0		ka	0	1101	6	3	antiphase_hc_soi.wav	1	6	5	noise_calib_stim_RIGHT.wav	2	36	blb_dichoticlistening_ta-ta.mp3	ta	ta	0	other
6.6.1	win	2023-07-11	11:08:56	0	0	628f6d4d2a3cf806fc7e01ff	1	1	DL_test	16	DL_test	31			0		ga	1	1333	6	3	antiphase_hc_soi.wav	1	6	5	noise_calib_stim_RIGHT.wav	2	15	blb_dichoticlistening_ga-ga.mp3	ga	ga	0	left
6.6.1	win	2023-07-11	11:08:56	0	0	628f6d4d2a3cf806fc7e01ff	1	1	DL_test	16	DL_test	32			0		ka	1	1416	6	3	antiphase_hc_soi.wav	1	6	5	noise_calib_stim_RIGHT.wav	2	23	blb_dichoticlistening_ka-pa.mp3	ka	pa	1	left
6.6.1	win	2023-07-11	11:08:56	0	0	628f6d4d2a3cf806fc7e01ff	1	1	DL_test	16	DL_test	33			0		ba	1	1321	6	3	antiphase_hc_soi.wav	1	6	5	noise_calib_stim_RIGHT.wav	2	25	blb_dichoticlistening_pa-ba.mp3	pa	ba	1	right
6.6.1	win	2023-07-11	11:08:56	0	0	628f6d4d2a3cf806fc7e01ff	1	1	DL_test	16	DL_test	34			0		ba	1	1570	6	3	antiphase_hc_soi.wav	1	6	5	noise_calib_stim_RIGHT.wav	2	1	blb_dichoticlistening_ba-ba.mp3	ba	ba	0	left
6.6.1	win	2023-07-11	11:08:56	0	0	628f6d4d2a3cf806fc7e01ff	1	1	DL_test	16	DL_test	35			0		ba	1	930	6	3	antiphase_hc_soi.wav	1	6	5	noise_calib_stim_RIGHT.wav	2	3	blb_dichoticlistening_ba-ga.mp3	ba	ga	1	left
6.6.1	win	2023-07-11	11:08:56	0	0	628f6d4d2a3cf806fc7e01ff	1	1	DL_test	16	DL_test	36			0		da	1	813	6	3	antiphase_hc_soi.wav	1	6	5	noise_calib_stim_RIGHT.wav	2	11	blb_dichoticlistening_da-pa.mp3	da	pa	1	left
6.6.1	win	2023-07-11	11:08:56	11:54:03	2701328	628f6d4d2a3cf806fc7e01ff	1	1	practice_slash	22	practice_slash	1	stimuli_target_squarediamonds.svg	stimuli_distractor_trianglediamonds.svg	5	yes	0	0	2000	6	3	antiphase_hc_soi.wav	1	6	5	noise_calib_stim_RIGHT.wav	2	11	blb_dichoticlistening_da-pa.mp3	da	pa	1	left
6.6.1	win	2023-07-11	11:08:56	11:54:03	2701328	628f6d4d2a3cf806fc7e01ff	1	1	practice_slash	22	advance_on_keypress_SLASH	2	stimuli_target_squarediamonds.svg	stimuli_distractor_trianglediamonds.svg	5	yes	57	0	623	6	3	antiphase_hc_soi.wav	1	6	5	noise_calib_stim_RIGHT.wav	2	11	blb_dichoticlistening_da-pa.mp3	da	pa	1	left
6.6.1	win	2023-07-11	11:08:56	11:54:06	2704866	628f6d4d2a3cf806fc7e01ff	1	1	practice_slash	22	practice_slash	3	stimuli_distractor_trianglediamonds.svg	stimuli_target_diamondrectangles.svg	12	yes	53	1	1256	6	3	antiphase_hc_soi.wav	1	6	5	noise_calib_stim_RIGHT.wav	2	11	blb_dichoticlistening_da-pa.mp3	da	pa	1	left
6.6.1	win	2023-07-11	11:08:56	11:54:06	2704866	628f6d4d2a3cf806fc7e01ff	1	1	practice_slash	22	advance_on_keypress_SLASH	4	stimuli_distractor_trianglediamonds.svg	stimuli_target_diamondrectangles.svg	12	yes	57	0	361	6	3	antiphase_hc_soi.wav	1	6	5	noise_calib_stim_RIGHT.wav	2	11	blb_dichoticlistening_da-pa.mp3	da	pa	1	left
6.6.1	win	2023-07-11	11:08:56	11:54:10	2708076	628f6d4d2a3cf806fc7e01ff	1	1	practice_slash	22	practice_slash	5	stimuli_target_diamondsquares.svg	stimuli_distractor_diamondtriangles.svg	3	yes	53	1	1199	6	3	antiphase_hc_soi.wav	1	6	5	noise_calib_stim_RIGHT.wav	2	11	blb_dichoticlistening_da-pa.mp3	da	pa	1	left
6.6.1	win	2023-07-11	11:08:56	11:54:10	2708076	628f6d4d2a3cf806fc7e01ff	1	1	practice_slash	22	advance_on_keypress_SLASH	6	stimuli_target_diamondsquares.svg	stimuli_distractor_diamondtriangles.svg	3	yes	57	0	485	6	3	antiphase_hc_soi.wav	1	6	5	noise_calib_stim_RIGHT.wav	2	11	blb_dichoticlistening_da-pa.mp3	da	pa	1	left
6.6.1	win	2023-07-11	11:08:56	11:54:14	2712210	628f6d4d2a3cf806fc7e01ff	1	1	practice_slash	22	practice_slash	7	stimuli_distractor_diamondtriangles.svg	stimuli_distractor_diamondtriangles.svg	13	no	0	1	2000	6	3	antiphase_hc_soi.wav	1	6	5	noise_calib_stim_RIGHT.wav	2	11	blb_dichoticlistening_da-pa.mp3	da	pa	1	left
6.6.1	win	2023-07-11	11:08:56	11:54:14	2712210	628f6d4d2a3cf806fc7e01ff	1	1	practice_slash	22	advance_on_keypress_SLASH	8	stimuli_distractor_diamondtriangles.svg	stimuli_distractor_diamondtriangles.svg	13	no	57	0	430	6	3	antiphase_hc_soi.wav	1	6	5	noise_calib_stim_RIGHT.wav	2	11	blb_dichoticlistening_da-pa.mp3	da	pa	1	left
6.6.1	win	2023-07-11	11:08:56	11:54:18	2716293	628f6d4d2a3cf806fc7e01ff	1	1	practice_slash	22	practice_slash	9	stimuli_distractor_diamondtriangles.svg	stimuli_target_trianglerectangles.svg	9	yes	0	0	2000	6	3	antiphase_hc_soi.wav	1	6	5	noise_calib_stim_RIGHT.wav	2	11	blb_dichoticlistening_da-pa.mp3	da	pa	1	left
6.6.1	win	2023-07-11	11:08:56	11:54:18	2716293	628f6d4d2a3cf806fc7e01ff	1	1	practice_slash	22	advance_on_keypress_SLASH	10	stimuli_distractor_diamondtriangles.svg	stimuli_target_trianglerectangles.svg	9	yes	57	0	545	6	3	antiphase_hc_soi.wav	1	6	5	noise_calib_stim_RIGHT.wav	2	11	blb_dichoticlistening_da-pa.mp3	da	pa	1	left
6.6.1	win	2023-07-11	11:08:56	11:54:21	2719599	628f6d4d2a3cf806fc7e01ff	1	1	practice_slash	22	practice_slash	11	stimuli_target_squarediamonds.svg	stimuli_distractor_diamondtriangles.svg	2	yes	53	1	1107	6	3	antiphase_hc_soi.wav	1	6	5	noise_calib_stim_RIGHT.wav	2	11	blb_dichoticlistening_da-pa.mp3	da	pa	1	left
6.6.1	win	2023-07-11	11:08:56	11:54:21	2719599	628f6d4d2a3cf806fc7e01ff	1	1	practice_slash	22	advance_on_keypress_SLASH	12	stimuli_target_squarediamonds.svg	stimuli_distractor_diamondtriangles.svg	2	yes	57	0	557	6	3	antiphase_hc_soi.wav	1	6	5	noise_calib_stim_RIGHT.wav	2	11	blb_dichoticlistening_da-pa.mp3	da	pa	1	left
6.6.1	win	2023-07-11	11:08:56	11:54:25	2723793	628f6d4d2a3cf806fc7e01ff	1	1	practice_slash	22	practice_slash	13	stimuli_distractor_trianglediamonds.svg	stimuli_distractor_trianglediamonds.svg	15	no	0	1	2000	6	3	antiphase_hc_soi.wav	1	6	5	noise_calib_stim_RIGHT.wav	2	11	blb_dichoticlistening_da-pa.mp3	da	pa	1	left
6.6.1	win	2023-07-11	11:08:56	11:54:25	2723793	628f6d4d2a3cf806fc7e01ff	1	1	practice_slash	22	advance_on_keypress_SLASH	14	stimuli_distractor_trianglediamonds.svg	stimuli_distractor_trianglediamonds.svg	15	no	57	0	410	6	3	antiphase_hc_soi.wav	1	6	5	noise_calib_stim_RIGHT.wav	2	11	blb_dichoticlistening_da-pa.mp3	da	pa	1	left
6.6.1	win	2023-07-11	11:08:56	11:54:29	2727008	628f6d4d2a3cf806fc7e01ff	1	1	practice_slash	22	practice_slash	15	stimuli_distractor_diamondtriangles.svg	stimuli_target_rectangletriangles.svg	7	yes	53	1	1148	6	3	antiphase_hc_soi.wav	1	6	5	noise_calib_stim_RIGHT.wav	2	11	blb_dichoticlistening_da-pa.mp3	da	pa	1	left
6.6.1	win	2023-07-11	11:08:56	11:54:29	2727008	628f6d4d2a3cf806fc7e01ff	1	1	practice_slash	22	advance_on_keypress_SLASH	16	stimuli_distractor_diamondtriangles.svg	stimuli_target_rectangletriangles.svg	7	yes	57	0	695	6	3	antiphase_hc_soi.wav	1	6	5	noise_calib_stim_RIGHT.wav	2	11	blb_dichoticlistening_da-pa.mp3	da	pa	1	left
6.6.1	win	2023-07-11	11:08:56	11:54:33	2731360	628f6d4d2a3cf806fc7e01ff	1	1	practice_slash	22	practice_slash	17	stimuli_distractor_trianglediamonds.svg	stimuli_distractor_diamondtriangles.svg	16	no	0	1	2000	6	3	antiphase_hc_soi.wav	1	6	5	noise_calib_stim_RIGHT.wav	2	11	blb_dichoticlistening_da-pa.mp3	da	pa	1	left
6.6.1	win	2023-07-11	11:08:56	11:54:33	2731360	628f6d4d2a3cf806fc7e01ff	1	1	practice_slash	22	advance_on_keypress_SLASH	18	stimuli_distractor_trianglediamonds.svg	stimuli_distractor_diamondtriangles.svg	16	no	57	0	377	6	3	antiphase_hc_soi.wav	1	6	5	noise_calib_stim_RIGHT.wav	2	11	blb_dichoticlistening_da-pa.mp3	da	pa	1	left
6.6.1	win	2023-07-11	11:08:56	11:54:36	2734591	628f6d4d2a3cf806fc7e01ff	1	1	practice_slash	22	practice_slash	19	stimuli_target_rectanglediamonds.svg	stimuli_distractor_diamondtriangles.svg	1	yes	53	1	1199	6	3	antiphase_hc_soi.wav	1	6	5	noise_calib_stim_RIGHT.wav	2	11	blb_dichoticlistening_da-pa.mp3	da	pa	1	left
6.6.1	win	2023-07-11	11:08:56	11:54:36	2734591	628f6d4d2a3cf806fc7e01ff	1	1	practice_slash	22	advance_on_keypress_SLASH	20	stimuli_target_rectanglediamonds.svg	stimuli_distractor_diamondtriangles.svg	1	yes	57	0	452	6	3	antiphase_hc_soi.wav	1	6	5	noise_calib_stim_RIGHT.wav	2	11	blb_dichoticlistening_da-pa.mp3	da	pa	1	left
6.6.1	win	2023-07-11	11:08:56	11:54:39	2737798	628f6d4d2a3cf806fc7e01ff	1	1	practice_slash	22	practice_slash	21	stimuli_distractor_trianglediamonds.svg	stimuli_target_squarediamonds.svg	11	yes	53	1	1106	6	3	antiphase_hc_soi.wav	1	6	5	noise_calib_stim_RIGHT.wav	2	11	blb_dichoticlistening_da-pa.mp3	da	pa	1	left
6.6.1	win	2023-07-11	11:08:56	11:54:39	2737798	628f6d4d2a3cf806fc7e01ff	1	1	practice_slash	22	advance_on_keypress_SLASH	22	stimuli_distractor_trianglediamonds.svg	stimuli_target_squarediamonds.svg	11	yes	57	0	655	6	3	antiphase_hc_soi.wav	1	6	5	noise_calib_stim_RIGHT.wav	2	11	blb_dichoticlistening_da-pa.mp3	da	pa	1	left
6.6.1	win	2023-07-11	11:08:56	11:54:44	2742092	628f6d4d2a3cf806fc7e01ff	1	1	practice_slash	22	practice_slash	23	stimuli_distractor_diamondtriangles.svg	stimuli_distractor_trianglediamonds.svg	14	no	0	1	2000	6	3	antiphase_hc_soi.wav	1	6	5	noise_calib_stim_RIGHT.wav	2	11	blb_dichoticlistening_da-pa.mp3	da	pa	1	left
6.6.1	win	2023-07-11	11:08:56	11:54:44	2742092	628f6d4d2a3cf806fc7e01ff	1	1	practice_slash	22	advance_on_keypress_SLASH	24	stimuli_distractor_diamondtriangles.svg	stimuli_distractor_trianglediamonds.svg	14	no	57	0	248	6	3	antiphase_hc_soi.wav	1	6	5	noise_calib_stim_RIGHT.wav	2	11	blb_dichoticlistening_da-pa.mp3	da	pa	1	left
6.6.1	win	2023-07-11	11:08:56	11:54:47	2745375	628f6d4d2a3cf806fc7e01ff	1	1	practice_slash	22	practice_slash	25	stimuli_distractor_trianglediamonds.svg	stimuli_target_rectanglediamonds.svg	10	yes	53	1	1383	6	3	antiphase_hc_soi.wav	1	6	5	noise_calib_stim_RIGHT.wav	2	11	blb_dichoticlistening_da-pa.mp3	da	pa	1	left
6.6.1	win	2023-07-11	11:08:56	11:54:47	2745375	628f6d4d2a3cf806fc7e01ff	1	1	practice_slash	22	advance_on_keypress_SLASH	26	stimuli_distractor_trianglediamonds.svg	stimuli_target_rectanglediamonds.svg	10	yes	57	0	409	6	3	antiphase_hc_soi.wav	1	6	5	noise_calib_stim_RIGHT.wav	2	11	blb_dichoticlistening_da-pa.mp3	da	pa	1	left
6.6.1	win	2023-07-11	11:08:56	11:54:50	2748696	628f6d4d2a3cf806fc7e01ff	1	1	practice_slash	22	practice_slash	27	stimuli_target_diamondsquares.svg	stimuli_distractor_trianglediamonds.svg	6	yes	53	1	1253	6	3	antiphase_hc_soi.wav	1	6	5	noise_calib_stim_RIGHT.wav	2	11	blb_dichoticlistening_da-pa.mp3	da	pa	1	left
6.6.1	win	2023-07-11	11:08:56	11:54:50	2748696	628f6d4d2a3cf806fc7e01ff	1	1	practice_slash	22	advance_on_keypress_SLASH	28	stimuli_target_diamondsquares.svg	stimuli_distractor_trianglediamonds.svg	6	yes	57	0	455	6	3	antiphase_hc_soi.wav	1	6	5	noise_calib_stim_RIGHT.wav	2	11	blb_dichoticlistening_da-pa.mp3	da	pa	1	left
6.6.1	win	2023-07-11	11:08:56	11:54:53	2751879	628f6d4d2a3cf806fc7e01ff	1	1	practice_slash	22	practice_slash	29	stimuli_distractor_diamondtriangles.svg	stimuli_target_diamondrectangles.svg	8	yes	53	1	1087	6	3	antiphase_hc_soi.wav	1	6	5	noise_calib_stim_RIGHT.wav	2	11	blb_dichoticlistening_da-pa.mp3	da	pa	1	left
6.6.1	win	2023-07-11	11:08:56	11:54:53	2751879	628f6d4d2a3cf806fc7e01ff	1	1	practice_slash	22	advance_on_keypress_SLASH	30	stimuli_distractor_diamondtriangles.svg	stimuli_target_diamondrectangles.svg	8	yes	57	0	452	6	3	antiphase_hc_soi.wav	1	6	5	noise_calib_stim_RIGHT.wav	2	11	blb_dichoticlistening_da-pa.mp3	da	pa	1	left
6.6.1	win	2023-07-11	11:08:56	11:54:57	2755047	628f6d4d2a3cf806fc7e01ff	1	1	practice_slash	22	practice_slash	31	stimuli_target_rectanglediamonds.svg	stimuli_distractor_trianglediamonds.svg	4	yes	53	1	1072	6	3	antiphase_hc_soi.wav	1	6	5	noise_calib_stim_RIGHT.wav	2	11	blb_dichoticlistening_da-pa.mp3	da	pa	1	left
6.6.1	win	2023-07-11	11:08:56	11:54:57	2755047	628f6d4d2a3cf806fc7e01ff	1	1	practice_slash	22	advance_on_keypress_SLASH	32	stimuli_target_rectanglediamonds.svg	stimuli_distractor_trianglediamonds.svg	4	yes	57	0	512	6	3	antiphase_hc_soi.wav	1	6	5	noise_calib_stim_RIGHT.wav	2	11	blb_dichoticlistening_da-pa.mp3	da	pa	1	left
6.6.1	win	2023-07-11	11:08:56	11:55:04	2762451	628f6d4d2a3cf806fc7e01ff	1	1	main_slash	24	main_slash	1	stimuli_distractor_diamondtriangles.svg	stimuli_target_rectanglediamonds.svg	14	yes	53	1	1428	6	3	antiphase_hc_soi.wav	1	6	5	noise_calib_stim_RIGHT.wav	2	11	blb_dichoticlistening_da-pa.mp3	da	pa	1	left
6.6.1	win	2023-07-11	11:08:56	11:55:04	2762451	628f6d4d2a3cf806fc7e01ff	1	1	main_slash	24	advance_on_keypress_SLASH	2	stimuli_distractor_diamondtriangles.svg	stimuli_target_rectanglediamonds.svg	14	yes	57	0	1037	6	3	antiphase_hc_soi.wav	1	6	5	noise_calib_stim_RIGHT.wav	2	11	blb_dichoticlistening_da-pa.mp3	da	pa	1	left
6.6.1	win	2023-07-11	11:08:56	11:55:07	2765077	628f6d4d2a3cf806fc7e01ff	1	1	main_slash	24	main_slash	3	stimuli_distractor_trianglediamonds.svg	stimuli_target_rectanglediamonds.svg	10	yes	53	1	938	6	3	antiphase_hc_soi.wav	1	6	5	noise_calib_stim_RIGHT.wav	2	11	blb_dichoticlistening_da-pa.mp3	da	pa	1	left
6.6.1	win	2023-07-11	11:08:56	11:55:07	2765077	628f6d4d2a3cf806fc7e01ff	1	1	main_slash	24	advance_on_keypress_SLASH	4	stimuli_distractor_trianglediamonds.svg	stimuli_target_rectanglediamonds.svg	10	yes	57	0	1313	6	3	antiphase_hc_soi.wav	1	6	5	noise_calib_stim_RIGHT.wav	2	11	blb_dichoticlistening_da-pa.mp3	da	pa	1	left
6.6.1	win	2023-07-11	11:08:56	11:55:10	2767973	628f6d4d2a3cf806fc7e01ff	1	1	main_slash	24	main_slash	5	stimuli_distractor_trianglediamonds.svg	stimuli_target_diamondsquares.svg	28	yes	53	1	933	6	3	antiphase_hc_soi.wav	1	6	5	noise_calib_stim_RIGHT.wav	2	11	blb_dichoticlistening_da-pa.mp3	da	pa	1	left
6.6.1	win	2023-07-11	11:08:56	11:55:10	2767973	628f6d4d2a3cf806fc7e01ff	1	1	main_slash	24	advance_on_keypress_SLASH	6	stimuli_distractor_trianglediamonds.svg	stimuli_target_diamondsquares.svg	28	yes	57	0	615	6	3	antiphase_hc_soi.wav	1	6	5	noise_calib_stim_RIGHT.wav	2	11	blb_dichoticlistening_da-pa.mp3	da	pa	1	left
6.6.1	win	2023-07-11	11:08:56	11:55:12	2770236	628f6d4d2a3cf806fc7e01ff	1	1	main_slash	24	main_slash	7	stimuli_target_diamondsquares.svg	stimuli_distractor_trianglediamonds.svg	20	yes	53	1	996	6	3	antiphase_hc_soi.wav	1	6	5	noise_calib_stim_RIGHT.wav	2	11	blb_dichoticlistening_da-pa.mp3	da	pa	1	left
6.6.1	win	2023-07-11	11:08:56	11:55:12	2770236	628f6d4d2a3cf806fc7e01ff	1	1	main_slash	24	advance_on_keypress_SLASH	8	stimuli_target_diamondsquares.svg	stimuli_distractor_trianglediamonds.svg	20	yes	57	0	520	6	3	antiphase_hc_soi.wav	1	6	5	noise_calib_stim_RIGHT.wav	2	11	blb_dichoticlistening_da-pa.mp3	da	pa	1	left
6.6.1	win	2023-07-11	11:08:56	11:55:15	2773406	628f6d4d2a3cf806fc7e01ff	1	1	main_slash	24	main_slash	9	stimuli_distractor_trianglediamonds.svg	stimuli_distractor_diamondtriangles.svg	36	no	0	1	2000	6	3	antiphase_hc_soi.wav	1	6	5	noise_calib_stim_RIGHT.wav	2	11	blb_dichoticlistening_da-pa.mp3	da	pa	1	left
6.6.1	win	2023-07-11	11:08:56	11:55:15	2773406	628f6d4d2a3cf806fc7e01ff	1	1	main_slash	24	advance_on_keypress_SLASH	10	stimuli_distractor_trianglediamonds.svg	stimuli_distractor_diamondtriangles.svg	36	no	57	0	328	6	3	antiphase_hc_soi.wav	1	6	5	noise_calib_stim_RIGHT.wav	2	11	blb_dichoticlistening_da-pa.mp3	da	pa	1	left
6.6.1	win	2023-07-11	11:08:56	11:55:17	2775506	628f6d4d2a3cf806fc7e01ff	1	1	main_slash	24	main_slash	11	stimuli_target_squaretriangles.svg	stimuli_distractor_diamondtriangles.svg	7	yes	53	1	1117	6	3	antiphase_hc_soi.wav	1	6	5	noise_calib_stim_RIGHT.wav	2	11	blb_dichoticlistening_da-pa.mp3	da	pa	1	left
6.6.1	win	2023-07-11	11:08:56	11:55:17	2775506	628f6d4d2a3cf806fc7e01ff	1	1	main_slash	24	advance_on_keypress_SLASH	12	stimuli_target_squaretriangles.svg	stimuli_distractor_diamondtriangles.svg	7	yes	57	0	748	6	3	antiphase_hc_soi.wav	1	6	5	noise_calib_stim_RIGHT.wav	2	11	blb_dichoticlistening_da-pa.mp3	da	pa	1	left
6.6.1	win	2023-07-11	11:08:56	11:55:19	2777696	628f6d4d2a3cf806fc7e01ff	1	1	main_slash	24	main_slash	13	stimuli_target_rectanglediamonds.svg	stimuli_distractor_diamondtriangles.svg	6	yes	53	1	791	6	3	antiphase_hc_soi.wav	1	6	5	noise_calib_stim_RIGHT.wav	2	11	blb_dichoticlistening_da-pa.mp3	da	pa	1	left
6.6.1	win	2023-07-11	11:08:56	11:55:19	2777696	628f6d4d2a3cf806fc7e01ff	1	1	main_slash	24	advance_on_keypress_SLASH	14	stimuli_target_rectanglediamonds.svg	stimuli_distractor_diamondtriangles.svg	6	yes	57	0	512	6	3	antiphase_hc_soi.wav	1	6	5	noise_calib_stim_RIGHT.wav	2	11	blb_dichoticlistening_da-pa.mp3	da	pa	1	left
6.6.1	win	2023-07-11	11:08:56	11:55:21	2779668	628f6d4d2a3cf806fc7e01ff	1	1	main_slash	24	main_slash	15	stimuli_distractor_trianglediamonds.svg	stimuli_target_squaretriangles.svg	11	yes	53	1	812	6	3	antiphase_hc_soi.wav	1	6	5	noise_calib_stim_RIGHT.wav	2	11	blb_dichoticlistening_da-pa.mp3	da	pa	1	left
6.6.1	win	2023-07-11	11:08:56	11:55:21	2779668	628f6d4d2a3cf806fc7e01ff	1	1	main_slash	24	advance_on_keypress_SLASH	16	stimuli_distractor_trianglediamonds.svg	stimuli_target_squaretriangles.svg	11	yes	57	0	440	6	3	antiphase_hc_soi.wav	1	6	5	noise_calib_stim_RIGHT.wav	2	11	blb_dichoticlistening_da-pa.mp3	da	pa	1	left
6.6.1	win	2023-07-11	11:08:56	11:55:24	2782755	628f6d4d2a3cf806fc7e01ff	1	1	main_slash	24	main_slash	17	stimuli_distractor_diamondtriangles.svg	stimuli_distractor_diamondtriangles.svg	39	no	0	1	2000	6	3	antiphase_hc_soi.wav	1	6	5	noise_calib_stim_RIGHT.wav	2	11	blb_dichoticlistening_da-pa.mp3	da	pa	1	left
6.6.1	win	2023-07-11	11:08:56	11:55:24	2782755	628f6d4d2a3cf806fc7e01ff	1	1	main_slash	24	advance_on_keypress_SLASH	18	stimuli_distractor_diamondtriangles.svg	stimuli_distractor_diamondtriangles.svg	39	no	57	0	321	6	3	antiphase_hc_soi.wav	1	6	5	noise_calib_stim_RIGHT.wav	2	11	blb_dichoticlistening_da-pa.mp3	da	pa	1	left
6.6.1	win	2023-07-11	11:08:56	11:55:26	2784823	628f6d4d2a3cf806fc7e01ff	1	1	main_slash	24	main_slash	19	stimuli_distractor_trianglediamonds.svg	stimuli_target_diamondrectangles.svg	27	yes	53	1	1101	6	3	antiphase_hc_soi.wav	1	6	5	noise_calib_stim_RIGHT.wav	2	11	blb_dichoticlistening_da-pa.mp3	da	pa	1	left
6.6.1	win	2023-07-11	11:08:56	11:55:26	2784823	628f6d4d2a3cf806fc7e01ff	1	1	main_slash	24	advance_on_keypress_SLASH	20	stimuli_distractor_trianglediamonds.svg	stimuli_target_diamondrectangles.svg	27	yes	57	0	673	6	3	antiphase_hc_soi.wav	1	6	5	noise_calib_stim_RIGHT.wav	2	11	blb_dichoticlistening_da-pa.mp3	da	pa	1	left
6.6.1	win	2023-07-11	11:08:56	11:55:29	2787223	628f6d4d2a3cf806fc7e01ff	1	1	main_slash	24	main_slash	21	stimuli_distractor_diamondtriangles.svg	stimuli_target_squarediamonds.svg	16	yes	53	1	1084	6	3	antiphase_hc_soi.wav	1	6	5	noise_calib_stim_RIGHT.wav	2	11	blb_dichoticlistening_da-pa.mp3	da	pa	1	left
6.6.1	win	2023-07-11	11:08:56	11:55:29	2787223	628f6d4d2a3cf806fc7e01ff	1	1	main_slash	24	advance_on_keypress_SLASH	22	stimuli_distractor_diamondtriangles.svg	stimuli_target_squarediamonds.svg	16	yes	57	0	472	6	3	antiphase_hc_soi.wav	1	6	5	noise_calib_stim_RIGHT.wav	2	11	blb_dichoticlistening_da-pa.mp3	da	pa	1	left
6.6.1	win	2023-07-11	11:08:56	11:55:32	2790339	628f6d4d2a3cf806fc7e01ff	1	1	main_slash	24	main_slash	23	stimuli_distractor_trianglediamonds.svg	stimuli_distractor_trianglediamonds.svg	33	no	0	1	2000	6	3	antiphase_hc_soi.wav	1	6	5	noise_calib_stim_RIGHT.wav	2	11	blb_dichoticlistening_da-pa.mp3	da	pa	1	left
6.6.1	win	2023-07-11	11:08:56	11:55:32	2790339	628f6d4d2a3cf806fc7e01ff	1	1	main_slash	24	advance_on_keypress_SLASH	24	stimuli_distractor_trianglediamonds.svg	stimuli_distractor_trianglediamonds.svg	33	no	57	0	369	6	3	antiphase_hc_soi.wav	1	6	5	noise_calib_stim_RIGHT.wav	2	11	blb_dichoticlistening_da-pa.mp3	da	pa	1	left
6.6.1	win	2023-07-11	11:08:56	11:55:34	2792324	628f6d4d2a3cf806fc7e01ff	1	1	main_slash	24	main_slash	25	stimuli_target_trianglesquares.svg	stimuli_distractor_trianglediamonds.svg	18	yes	53	1	970	6	3	antiphase_hc_soi.wav	1	6	5	noise_calib_stim_RIGHT.wav	2	11	blb_dichoticlistening_da-pa.mp3	da	pa	1	left
6.6.1	win	2023-07-11	11:08:56	11:55:34	2792324	628f6d4d2a3cf806fc7e01ff	1	1	main_slash	24	advance_on_keypress_SLASH	26	stimuli_target_trianglesquares.svg	stimuli_distractor_trianglediamonds.svg	18	yes	57	0	643	6	3	antiphase_hc_soi.wav	1	6	5	noise_calib_stim_RIGHT.wav	2	11	blb_dichoticlistening_da-pa.mp3	da	pa	1	left
6.6.1	win	2023-07-11	11:08:56	11:55:37	2795605	628f6d4d2a3cf806fc7e01ff	1	1	main_slash	24	main_slash	27	stimuli_distractor_diamondtriangles.svg	stimuli_distractor_diamondtriangles.svg	40	no	0	1	2000	6	3	antiphase_hc_soi.wav	1	6	5	noise_calib_stim_RIGHT.wav	2	11	blb_dichoticlistening_da-pa.mp3	da	pa	1	left
6.6.1	win	2023-07-11	11:08:56	11:55:37	2795605	628f6d4d2a3cf806fc7e01ff	1	1	main_slash	24	advance_on_keypress_SLASH	28	stimuli_distractor_diamondtriangles.svg	stimuli_distractor_diamondtriangles.svg	40	no	57	0	301	6	3	antiphase_hc_soi.wav	1	6	5	noise_calib_stim_RIGHT.wav	2	11	blb_dichoticlistening_da-pa.mp3	da	pa	1	left
6.6.1	win	2023-07-11	11:08:56	11:55:40	2798554	628f6d4d2a3cf806fc7e01ff	1	1	main_slash	24	main_slash	29	stimuli_distractor_trianglediamonds.svg	stimuli_distractor_diamondtriangles.svg	35	no	0	1	2000	6	3	antiphase_hc_soi.wav	1	6	5	noise_calib_stim_RIGHT.wav	2	11	blb_dichoticlistening_da-pa.mp3	da	pa	1	left
6.6.1	win	2023-07-11	11:08:56	11:55:40	2798554	628f6d4d2a3cf806fc7e01ff	1	1	main_slash	24	advance_on_keypress_SLASH	30	stimuli_distractor_trianglediamonds.svg	stimuli_distractor_diamondtriangles.svg	35	no	57	0	323	6	3	antiphase_hc_soi.wav	1	6	5	noise_calib_stim_RIGHT.wav	2	11	blb_dichoticlistening_da-pa.mp3	da	pa	1	left
6.6.1	win	2023-07-11	11:08:56	11:55:42	2800554	628f6d4d2a3cf806fc7e01ff	1	1	main_slash	24	main_slash	31	stimuli_target_trianglesquares.svg	stimuli_distractor_diamondtriangles.svg	22	yes	53	1	1034	6	3	antiphase_hc_soi.wav	1	6	5	noise_calib_stim_RIGHT.wav	2	11	blb_dichoticlistening_da-pa.mp3	da	pa	1	left
6.6.1	win	2023-07-11	11:08:56	11:55:42	2800554	628f6d4d2a3cf806fc7e01ff	1	1	main_slash	24	advance_on_keypress_SLASH	32	stimuli_target_trianglesquares.svg	stimuli_distractor_diamondtriangles.svg	22	yes	57	0	823	6	3	antiphase_hc_soi.wav	1	6	5	noise_calib_stim_RIGHT.wav	2	11	blb_dichoticlistening_da-pa.mp3	da	pa	1	left
6.6.1	win	2023-07-11	11:08:56	11:55:45	2803020	628f6d4d2a3cf806fc7e01ff	1	1	main_slash	24	main_slash	33	stimuli_target_rectanglediamonds.svg	stimuli_distractor_trianglediamonds.svg	2	yes	53	1	999	6	3	antiphase_hc_soi.wav	1	6	5	noise_calib_stim_RIGHT.wav	2	11	blb_dichoticlistening_da-pa.mp3	da	pa	1	left
6.6.1	win	2023-07-11	11:08:56	11:55:45	2803020	628f6d4d2a3cf806fc7e01ff	1	1	main_slash	24	advance_on_keypress_SLASH	34	stimuli_target_rectanglediamonds.svg	stimuli_distractor_trianglediamonds.svg	2	yes	57	0	1075	6	3	antiphase_hc_soi.wav	1	6	5	noise_calib_stim_RIGHT.wav	2	11	blb_dichoticlistening_da-pa.mp3	da	pa	1	left
6.6.1	win	2023-07-11	11:08:56	11:55:48	2805913	628f6d4d2a3cf806fc7e01ff	1	1	main_slash	24	main_slash	35	stimuli_distractor_diamondtriangles.svg	stimuli_target_trianglesquares.svg	30	yes	53	1	1176	6	3	antiphase_hc_soi.wav	1	6	5	noise_calib_stim_RIGHT.wav	2	11	blb_dichoticlistening_da-pa.mp3	da	pa	1	left
6.6.1	win	2023-07-11	11:08:56	11:55:48	2805913	628f6d4d2a3cf806fc7e01ff	1	1	main_slash	24	advance_on_keypress_SLASH	36	stimuli_distractor_diamondtriangles.svg	stimuli_target_trianglesquares.svg	30	yes	57	0	1434	6	3	antiphase_hc_soi.wav	1	6	5	noise_calib_stim_RIGHT.wav	2	11	blb_dichoticlistening_da-pa.mp3	da	pa	1	left
6.6.1	win	2023-07-11	11:08:56	11:55:51	2809339	628f6d4d2a3cf806fc7e01ff	1	1	main_slash	24	main_slash	37	stimuli_distractor_diamondtriangles.svg	stimuli_target_diamondsquares.svg	32	yes	53	1	1351	6	3	antiphase_hc_soi.wav	1	6	5	noise_calib_stim_RIGHT.wav	2	11	blb_dichoticlistening_da-pa.mp3	da	pa	1	left
6.6.1	win	2023-07-11	11:08:56	11:55:51	2809339	628f6d4d2a3cf806fc7e01ff	1	1	main_slash	24	advance_on_keypress_SLASH	38	stimuli_distractor_diamondtriangles.svg	stimuli_target_diamondsquares.svg	32	yes	57	0	825	6	3	antiphase_hc_soi.wav	1	6	5	noise_calib_stim_RIGHT.wav	2	11	blb_dichoticlistening_da-pa.mp3	da	pa	1	left
6.6.1	win	2023-07-11	11:08:56	11:55:54	2812131	628f6d4d2a3cf806fc7e01ff	1	1	main_slash	24	main_slash	39	stimuli_distractor_diamondtriangles.svg	stimuli_target_trianglerectangles.svg	29	yes	53	1	1327	6	3	antiphase_hc_soi.wav	1	6	5	noise_calib_stim_RIGHT.wav	2	11	blb_dichoticlistening_da-pa.mp3	da	pa	1	left
6.6.1	win	2023-07-11	11:08:56	11:55:54	2812131	628f6d4d2a3cf806fc7e01ff	1	1	main_slash	24	advance_on_keypress_SLASH	40	stimuli_distractor_diamondtriangles.svg	stimuli_target_trianglerectangles.svg	29	yes	57	0	499	6	3	antiphase_hc_soi.wav	1	6	5	noise_calib_stim_RIGHT.wav	2	11	blb_dichoticlistening_da-pa.mp3	da	pa	1	left
6.6.1	win	2023-07-11	11:08:56	11:55:56	2814763	628f6d4d2a3cf806fc7e01ff	1	1	main_slash	24	main_slash	41	stimuli_target_rectangletriangles.svg	stimuli_distractor_trianglediamonds.svg	1	yes	53	1	1475	6	3	antiphase_hc_soi.wav	1	6	5	noise_calib_stim_RIGHT.wav	2	11	blb_dichoticlistening_da-pa.mp3	da	pa	1	left
6.6.1	win	2023-07-11	11:08:56	11:55:56	2814763	628f6d4d2a3cf806fc7e01ff	1	1	main_slash	24	advance_on_keypress_SLASH	42	stimuli_target_rectangletriangles.svg	stimuli_distractor_trianglediamonds.svg	1	yes	57	0	773	6	3	antiphase_hc_soi.wav	1	6	5	noise_calib_stim_RIGHT.wav	2	11	blb_dichoticlistening_da-pa.mp3	da	pa	1	left
6.6.1	win	2023-07-11	11:08:56	11:55:59	2817588	628f6d4d2a3cf806fc7e01ff	1	1	main_slash	24	main_slash	43	stimuli_target_diamondrectangles.svg	stimuli_distractor_trianglediamonds.svg	19	yes	53	1	1418	6	3	antiphase_hc_soi.wav	1	6	5	noise_calib_stim_RIGHT.wav	2	11	blb_dichoticlistening_da-pa.mp3	da	pa	1	left
6.6.1	win	2023-07-11	11:08:56	11:55:59	2817588	628f6d4d2a3cf806fc7e01ff	1	1	main_slash	24	advance_on_keypress_SLASH	44	stimuli_target_diamondrectangles.svg	stimuli_distractor_trianglediamonds.svg	19	yes	57	0	1138	6	3	antiphase_hc_soi.wav	1	6	5	noise_calib_stim_RIGHT.wav	2	11	blb_dichoticlistening_da-pa.mp3	da	pa	1	left
6.6.1	win	2023-07-11	11:08:56	11:56:02	2820763	628f6d4d2a3cf806fc7e01ff	1	1	main_slash	24	main_slash	45	stimuli_target_trianglerectangles.svg	stimuli_distractor_diamondtriangles.svg	21	yes	53	1	1392	6	3	antiphase_hc_soi.wav	1	6	5	noise_calib_stim_RIGHT.wav	2	11	blb_dichoticlistening_da-pa.mp3	da	pa	1	left
6.6.1	win	2023-07-11	11:08:56	11:56:02	2820763	628f6d4d2a3cf806fc7e01ff	1	1	main_slash	24	advance_on_keypress_SLASH	46	stimuli_target_trianglerectangles.svg	stimuli_distractor_diamondtriangles.svg	21	yes	57	0	550	6	3	antiphase_hc_soi.wav	1	6	5	noise_calib_stim_RIGHT.wav	2	11	blb_dichoticlistening_da-pa.mp3	da	pa	1	left
6.6.1	win	2023-07-11	11:08:56	11:56:05	2823151	628f6d4d2a3cf806fc7e01ff	1	1	main_slash	24	main_slash	47	stimuli_target_diamondrectangles.svg	stimuli_distractor_diamondtriangles.svg	23	yes	53	1	1198	6	3	antiphase_hc_soi.wav	1	6	5	noise_calib_stim_RIGHT.wav	2	11	blb_dichoticlistening_da-pa.mp3	da	pa	1	left
6.6.1	win	2023-07-11	11:08:56	11:56:05	2823151	628f6d4d2a3cf806fc7e01ff	1	1	main_slash	24	advance_on_keypress_SLASH	48	stimuli_target_diamondrectangles.svg	stimuli_distractor_diamondtriangles.svg	23	yes	57	0	535	6	3	antiphase_hc_soi.wav	1	6	5	noise_calib_stim_RIGHT.wav	2	11	blb_dichoticlistening_da-pa.mp3	da	pa	1	left
6.6.1	win	2023-07-11	11:08:56	11:56:08	2826336	628f6d4d2a3cf806fc7e01ff	1	1	main_slash	24	main_slash	49	stimuli_distractor_diamondtriangles.svg	stimuli_distractor_trianglediamonds.svg	38	no	0	1	2000	6	3	antiphase_hc_soi.wav	1	6	5	noise_calib_stim_RIGHT.wav	2	11	blb_dichoticlistening_da-pa.mp3	da	pa	1	left
6.6.1	win	2023-07-11	11:08:56	11:56:08	2826336	628f6d4d2a3cf806fc7e01ff	1	1	main_slash	24	advance_on_keypress_SLASH	50	stimuli_distractor_diamondtriangles.svg	stimuli_distractor_trianglediamonds.svg	38	no	57	0	365	6	3	antiphase_hc_soi.wav	1	6	5	noise_calib_stim_RIGHT.wav	2	11	blb_dichoticlistening_da-pa.mp3	da	pa	1	left
6.6.1	win	2023-07-11	11:08:56	11:56:10	2828797	628f6d4d2a3cf806fc7e01ff	1	1	main_slash	24	main_slash	51	stimuli_distractor_diamondtriangles.svg	stimuli_target_rectangletriangles.svg	13	yes	53	1	1443	6	3	antiphase_hc_soi.wav	1	6	5	noise_calib_stim_RIGHT.wav	2	11	blb_dichoticlistening_da-pa.mp3	da	pa	1	left
6.6.1	win	2023-07-11	11:08:56	11:56:10	2828797	628f6d4d2a3cf806fc7e01ff	1	1	main_slash	24	advance_on_keypress_SLASH	52	stimuli_distractor_diamondtriangles.svg	stimuli_target_rectangletriangles.svg	13	yes	57	0	811	6	3	antiphase_hc_soi.wav	1	6	5	noise_calib_stim_RIGHT.wav	2	11	blb_dichoticlistening_da-pa.mp3	da	pa	1	left
6.6.1	win	2023-07-11	11:08:56	11:56:13	2831664	628f6d4d2a3cf806fc7e01ff	1	1	main_slash	24	main_slash	53	stimuli_distractor_diamondtriangles.svg	stimuli_target_squaretriangles.svg	15	yes	53	1	1428	6	3	antiphase_hc_soi.wav	1	6	5	noise_calib_stim_RIGHT.wav	2	11	blb_dichoticlistening_da-pa.mp3	da	pa	1	left
6.6.1	win	2023-07-11	11:08:56	11:56:13	2831664	628f6d4d2a3cf806fc7e01ff	1	1	main_slash	24	advance_on_keypress_SLASH	54	stimuli_distractor_diamondtriangles.svg	stimuli_target_squaretriangles.svg	15	yes	57	0	1634	6	3	antiphase_hc_soi.wav	1	6	5	noise_calib_stim_RIGHT.wav	2	11	blb_dichoticlistening_da-pa.mp3	da	pa	1	left
6.6.1	win	2023-07-11	11:08:56	11:56:18	2835953	628f6d4d2a3cf806fc7e01ff	1	1	main_slash	24	main_slash	55	stimuli_distractor_trianglediamonds.svg	stimuli_distractor_trianglediamonds.svg	34	no	0	1	2000	6	3	antiphase_hc_soi.wav	1	6	5	noise_calib_stim_RIGHT.wav	2	11	blb_dichoticlistening_da-pa.mp3	da	pa	1	left
6.6.1	win	2023-07-11	11:08:56	11:56:18	2835953	628f6d4d2a3cf806fc7e01ff	1	1	main_slash	24	advance_on_keypress_SLASH	56	stimuli_distractor_trianglediamonds.svg	stimuli_distractor_trianglediamonds.svg	34	no	57	0	880	6	3	antiphase_hc_soi.wav	1	6	5	noise_calib_stim_RIGHT.wav	2	11	blb_dichoticlistening_da-pa.mp3	da	pa	1	left
6.6.1	win	2023-07-11	11:08:56	11:56:21	2839486	628f6d4d2a3cf806fc7e01ff	1	1	main_slash	24	main_slash	57	stimuli_distractor_diamondtriangles.svg	stimuli_distractor_trianglediamonds.svg	37	no	0	1	2000	6	3	antiphase_hc_soi.wav	1	6	5	noise_calib_stim_RIGHT.wav	2	11	blb_dichoticlistening_da-pa.mp3	da	pa	1	left
6.6.1	win	2023-07-11	11:08:56	11:56:21	2839486	628f6d4d2a3cf806fc7e01ff	1	1	main_slash	24	advance_on_keypress_SLASH	58	stimuli_distractor_diamondtriangles.svg	stimuli_distractor_trianglediamonds.svg	37	no	57	0	300	6	3	antiphase_hc_soi.wav	1	6	5	noise_calib_stim_RIGHT.wav	2	11	blb_dichoticlistening_da-pa.mp3	da	pa	1	left
6.6.1	win	2023-07-11	11:08:56	11:56:23	2841664	628f6d4d2a3cf806fc7e01ff	1	1	main_slash	24	main_slash	59	stimuli_target_squaretriangles.svg	stimuli_distractor_trianglediamonds.svg	3	yes	53	1	1228	6	3	antiphase_hc_soi.wav	1	6	5	noise_calib_stim_RIGHT.wav	2	11	blb_dichoticlistening_da-pa.mp3	da	pa	1	left
6.6.1	win	2023-07-11	11:08:56	11:56:23	2841664	628f6d4d2a3cf806fc7e01ff	1	1	main_slash	24	advance_on_keypress_SLASH	60	stimuli_target_squaretriangles.svg	stimuli_distractor_trianglediamonds.svg	3	yes	57	0	486	6	3	antiphase_hc_soi.wav	1	6	5	noise_calib_stim_RIGHT.wav	2	11	blb_dichoticlistening_da-pa.mp3	da	pa	1	left
6.6.1	win	2023-07-11	11:08:56	11:56:26	2844539	628f6d4d2a3cf806fc7e01ff	1	1	main_slash	24	main_slash	61	stimuli_distractor_diamondtriangles.svg	stimuli_target_diamondrectangles.svg	31	yes	53	1	1737	6	3	antiphase_hc_soi.wav	1	6	5	noise_calib_stim_RIGHT.wav	2	11	blb_dichoticlistening_da-pa.mp3	da	pa	1	left
6.6.1	win	2023-07-11	11:08:56	11:56:26	2844539	628f6d4d2a3cf806fc7e01ff	1	1	main_slash	24	advance_on_keypress_SLASH	62	stimuli_distractor_diamondtriangles.svg	stimuli_target_diamondrectangles.svg	31	yes	57	0	663	6	3	antiphase_hc_soi.wav	1	6	5	noise_calib_stim_RIGHT.wav	2	11	blb_dichoticlistening_da-pa.mp3	da	pa	1	left
6.6.1	win	2023-07-11	11:08:56	11:56:29	2847011	628f6d4d2a3cf806fc7e01ff	1	1	main_slash	24	main_slash	63	stimuli_distractor_trianglediamonds.svg	stimuli_target_trianglesquares.svg	26	yes	53	1	1158	6	3	antiphase_hc_soi.wav	1	6	5	noise_calib_stim_RIGHT.wav	2	11	blb_dichoticlistening_da-pa.mp3	da	pa	1	left
6.6.1	win	2023-07-11	11:08:56	11:56:29	2847011	628f6d4d2a3cf806fc7e01ff	1	1	main_slash	24	advance_on_keypress_SLASH	64	stimuli_distractor_trianglediamonds.svg	stimuli_target_trianglesquares.svg	26	yes	57	0	736	6	3	antiphase_hc_soi.wav	1	6	5	noise_calib_stim_RIGHT.wav	2	11	blb_dichoticlistening_da-pa.mp3	da	pa	1	left
6.6.1	win	2023-07-11	11:08:56	11:56:31	2849263	628f6d4d2a3cf806fc7e01ff	1	1	main_slash	24	main_slash	65	stimuli_distractor_trianglediamonds.svg	stimuli_target_trianglerectangles.svg	25	yes	53	1	877	6	3	antiphase_hc_soi.wav	1	6	5	noise_calib_stim_RIGHT.wav	2	11	blb_dichoticlistening_da-pa.mp3	da	pa	1	left
6.6.1	win	2023-07-11	11:08:56	11:56:31	2849263	628f6d4d2a3cf806fc7e01ff	1	1	main_slash	24	advance_on_keypress_SLASH	66	stimuli_distractor_trianglediamonds.svg	stimuli_target_trianglerectangles.svg	25	yes	57	0	487	6	3	antiphase_hc_soi.wav	1	6	5	noise_calib_stim_RIGHT.wav	2	11	blb_dichoticlistening_da-pa.mp3	da	pa	1	left
6.6.1	win	2023-07-11	11:08:56	11:56:33	2851330	628f6d4d2a3cf806fc7e01ff	1	1	main_slash	24	main_slash	67	stimuli_target_rectangletriangles.svg	stimuli_distractor_diamondtriangles.svg	5	yes	53	1	927	6	3	antiphase_hc_soi.wav	1	6	5	noise_calib_stim_RIGHT.wav	2	11	blb_dichoticlistening_da-pa.mp3	da	pa	1	left
6.6.1	win	2023-07-11	11:08:56	11:56:33	2851330	628f6d4d2a3cf806fc7e01ff	1	1	main_slash	24	advance_on_keypress_SLASH	68	stimuli_target_rectangletriangles.svg	stimuli_distractor_diamondtriangles.svg	5	yes	57	0	385	6	3	antiphase_hc_soi.wav	1	6	5	noise_calib_stim_RIGHT.wav	2	11	blb_dichoticlistening_da-pa.mp3	da	pa	1	left
6.6.1	win	2023-07-11	11:08:56	11:56:35	2853250	628f6d4d2a3cf806fc7e01ff	1	1	main_slash	24	main_slash	69	stimuli_target_squarediamonds.svg	stimuli_distractor_diamondtriangles.svg	8	yes	53	1	882	6	3	antiphase_hc_soi.wav	1	6	5	noise_calib_stim_RIGHT.wav	2	11	blb_dichoticlistening_da-pa.mp3	da	pa	1	left
6.6.1	win	2023-07-11	11:08:56	11:56:35	2853250	628f6d4d2a3cf806fc7e01ff	1	1	main_slash	24	advance_on_keypress_SLASH	70	stimuli_target_squarediamonds.svg	stimuli_distractor_diamondtriangles.svg	8	yes	57	0	599	6	3	antiphase_hc_soi.wav	1	6	5	noise_calib_stim_RIGHT.wav	2	11	blb_dichoticlistening_da-pa.mp3	da	pa	1	left
6.6.1	win	2023-07-11	11:08:56	11:56:37	2855420	628f6d4d2a3cf806fc7e01ff	1	1	main_slash	24	main_slash	71	stimuli_distractor_trianglediamonds.svg	stimuli_target_rectangletriangles.svg	9	yes	53	1	918	6	3	antiphase_hc_soi.wav	1	6	5	noise_calib_stim_RIGHT.wav	2	11	blb_dichoticlistening_da-pa.mp3	da	pa	1	left
6.6.1	win	2023-07-11	11:08:56	11:56:37	2855420	628f6d4d2a3cf806fc7e01ff	1	1	main_slash	24	advance_on_keypress_SLASH	72	stimuli_distractor_trianglediamonds.svg	stimuli_target_rectangletriangles.svg	9	yes	57	0	480	6	3	antiphase_hc_soi.wav	1	6	5	noise_calib_stim_RIGHT.wav	2	11	blb_dichoticlistening_da-pa.mp3	da	pa	1	left
6.6.1	win	2023-07-11	11:08:56	11:56:40	2858552	628f6d4d2a3cf806fc7e01ff	1	1	main_slash	24	main_slash	73	stimuli_target_trianglerectangles.svg	stimuli_distractor_trianglediamonds.svg	17	yes	0	0	2000	6	3	antiphase_hc_soi.wav	1	6	5	noise_calib_stim_RIGHT.wav	2	11	blb_dichoticlistening_da-pa.mp3	da	pa	1	left
6.6.1	win	2023-07-11	11:08:56	11:56:40	2858552	628f6d4d2a3cf806fc7e01ff	1	1	main_slash	24	advance_on_keypress_SLASH	74	stimuli_target_trianglerectangles.svg	stimuli_distractor_trianglediamonds.svg	17	yes	57	0	248	6	3	antiphase_hc_soi.wav	1	6	5	noise_calib_stim_RIGHT.wav	2	11	blb_dichoticlistening_da-pa.mp3	da	pa	1	left
6.6.1	win	2023-07-11	11:08:56	11:56:42	2860298	628f6d4d2a3cf806fc7e01ff	1	1	main_slash	24	main_slash	75	stimuli_target_diamondsquares.svg	stimuli_distractor_diamondtriangles.svg	24	yes	53	1	847	6	3	antiphase_hc_soi.wav	1	6	5	noise_calib_stim_RIGHT.wav	2	11	blb_dichoticlistening_da-pa.mp3	da	pa	1	left
6.6.1	win	2023-07-11	11:08:56	11:56:42	2860298	628f6d4d2a3cf806fc7e01ff	1	1	main_slash	24	advance_on_keypress_SLASH	76	stimuli_target_diamondsquares.svg	stimuli_distractor_diamondtriangles.svg	24	yes	57	0	1098	6	3	antiphase_hc_soi.wav	1	6	5	noise_calib_stim_RIGHT.wav	2	11	blb_dichoticlistening_da-pa.mp3	da	pa	1	left
6.6.1	win	2023-07-11	11:08:56	11:56:45	2863110	628f6d4d2a3cf806fc7e01ff	1	1	main_slash	24	main_slash	77	stimuli_distractor_trianglediamonds.svg	stimuli_target_squarediamonds.svg	12	yes	53	1	1058	6	3	antiphase_hc_soi.wav	1	6	5	noise_calib_stim_RIGHT.wav	2	11	blb_dichoticlistening_da-pa.mp3	da	pa	1	left
6.6.1	win	2023-07-11	11:08:56	11:56:45	2863110	628f6d4d2a3cf806fc7e01ff	1	1	main_slash	24	advance_on_keypress_SLASH	78	stimuli_distractor_trianglediamonds.svg	stimuli_target_squarediamonds.svg	12	yes	57	0	748	6	3	antiphase_hc_soi.wav	1	6	5	noise_calib_stim_RIGHT.wav	2	11	blb_dichoticlistening_da-pa.mp3	da	pa	1	left
6.6.1	win	2023-07-11	11:08:56	11:56:47	2865598	628f6d4d2a3cf806fc7e01ff	1	1	main_slash	24	main_slash	79	stimuli_target_squarediamonds.svg	stimuli_distractor_trianglediamonds.svg	4	yes	53	1	1096	6	3	antiphase_hc_soi.wav	1	6	5	noise_calib_stim_RIGHT.wav	2	11	blb_dichoticlistening_da-pa.mp3	da	pa	1	left
6.6.1	win	2023-07-11	11:08:56	11:56:47	2865598	628f6d4d2a3cf806fc7e01ff	1	1	main_slash	24	advance_on_keypress_SLASH	80	stimuli_target_squarediamonds.svg	stimuli_distractor_trianglediamonds.svg	4	yes	57	0	781	6	3	antiphase_hc_soi.wav	1	6	5	noise_calib_stim_RIGHT.wav	2	11	blb_dichoticlistening_da-pa.mp3	da	pa	1	left
6.6.1	win	2023-07-11	11:08:56	11:56:50	2868213	628f6d4d2a3cf806fc7e01ff	1	1	main_slash	24	main_slash	81	stimuli_distractor_diamondtriangles.svg	stimuli_target_trianglesquares.svg	30	yes	53	1	1178	6	3	antiphase_hc_soi.wav	1	6	5	noise_calib_stim_RIGHT.wav	2	11	blb_dichoticlistening_da-pa.mp3	da	pa	1	left
6.6.1	win	2023-07-11	11:08:56	11:56:50	2868213	628f6d4d2a3cf806fc7e01ff	1	1	main_slash	24	advance_on_keypress_SLASH	82	stimuli_distractor_diamondtriangles.svg	stimuli_target_trianglesquares.svg	30	yes	57	0	1395	6	3	antiphase_hc_soi.wav	1	6	5	noise_calib_stim_RIGHT.wav	2	11	blb_dichoticlistening_da-pa.mp3	da	pa	1	left
6.6.1	win	2023-07-11	11:08:56	11:56:53	2871383	628f6d4d2a3cf806fc7e01ff	1	1	main_slash	24	main_slash	83	stimuli_target_trianglesquares.svg	stimuli_distractor_trianglediamonds.svg	18	yes	53	1	1115	6	3	antiphase_hc_soi.wav	1	6	5	noise_calib_stim_RIGHT.wav	2	11	blb_dichoticlistening_da-pa.mp3	da	pa	1	left
6.6.1	win	2023-07-11	11:08:56	11:56:53	2871383	628f6d4d2a3cf806fc7e01ff	1	1	main_slash	24	advance_on_keypress_SLASH	84	stimuli_target_trianglesquares.svg	stimuli_distractor_trianglediamonds.svg	18	yes	57	0	914	6	3	antiphase_hc_soi.wav	1	6	5	noise_calib_stim_RIGHT.wav	2	11	blb_dichoticlistening_da-pa.mp3	da	pa	1	left
6.6.1	win	2023-07-11	11:08:56	11:56:56	2873925	628f6d4d2a3cf806fc7e01ff	1	1	main_slash	24	main_slash	85	stimuli_target_trianglerectangles.svg	stimuli_distractor_trianglediamonds.svg	17	yes	53	1	974	6	3	antiphase_hc_soi.wav	1	6	5	noise_calib_stim_RIGHT.wav	2	11	blb_dichoticlistening_da-pa.mp3	da	pa	1	left
6.6.1	win	2023-07-11	11:08:56	11:56:56	2873925	628f6d4d2a3cf806fc7e01ff	1	1	main_slash	24	advance_on_keypress_SLASH	86	stimuli_target_trianglerectangles.svg	stimuli_distractor_trianglediamonds.svg	17	yes	57	0	1209	6	3	antiphase_hc_soi.wav	1	6	5	noise_calib_stim_RIGHT.wav	2	11	blb_dichoticlistening_da-pa.mp3	da	pa	1	left
6.6.1	win	2023-07-11	11:08:56	11:56:58	2876839	628f6d4d2a3cf806fc7e01ff	1	1	main_slash	24	main_slash	87	stimuli_target_trianglerectangles.svg	stimuli_distractor_diamondtriangles.svg	21	yes	53	1	1072	6	3	antiphase_hc_soi.wav	1	6	5	noise_calib_stim_RIGHT.wav	2	11	blb_dichoticlistening_da-pa.mp3	da	pa	1	left
6.6.1	win	2023-07-11	11:08:56	11:56:58	2876839	628f6d4d2a3cf806fc7e01ff	1	1	main_slash	24	advance_on_keypress_SLASH	88	stimuli_target_trianglerectangles.svg	stimuli_distractor_diamondtriangles.svg	21	yes	57	0	839	6	3	antiphase_hc_soi.wav	1	6	5	noise_calib_stim_RIGHT.wav	2	11	blb_dichoticlistening_da-pa.mp3	da	pa	1	left
6.6.1	win	2023-07-11	11:08:56	11:57:01	2879358	628f6d4d2a3cf806fc7e01ff	1	1	main_slash	24	main_slash	89	stimuli_target_trianglesquares.svg	stimuli_distractor_diamondtriangles.svg	22	yes	53	1	1040	6	3	antiphase_hc_soi.wav	1	6	5	noise_calib_stim_RIGHT.wav	2	11	blb_dichoticlistening_da-pa.mp3	da	pa	1	left
6.6.1	win	2023-07-11	11:08:56	11:57:01	2879358	628f6d4d2a3cf806fc7e01ff	1	1	main_slash	24	advance_on_keypress_SLASH	90	stimuli_target_trianglesquares.svg	stimuli_distractor_diamondtriangles.svg	22	yes	57	0	580	6	3	antiphase_hc_soi.wav	1	6	5	noise_calib_stim_RIGHT.wav	2	11	blb_dichoticlistening_da-pa.mp3	da	pa	1	left
6.6.1	win	2023-07-11	11:08:56	11:57:03	2881500	628f6d4d2a3cf806fc7e01ff	1	1	main_slash	24	main_slash	91	stimuli_distractor_trianglediamonds.svg	stimuli_target_rectanglediamonds.svg	10	yes	53	1	915	6	3	antiphase_hc_soi.wav	1	6	5	noise_calib_stim_RIGHT.wav	2	11	blb_dichoticlistening_da-pa.mp3	da	pa	1	left
6.6.1	win	2023-07-11	11:08:56	11:57:03	2881500	628f6d4d2a3cf806fc7e01ff	1	1	main_slash	24	advance_on_keypress_SLASH	92	stimuli_distractor_trianglediamonds.svg	stimuli_target_rectanglediamonds.svg	10	yes	57	0	665	6	3	antiphase_hc_soi.wav	1	6	5	noise_calib_stim_RIGHT.wav	2	11	blb_dichoticlistening_da-pa.mp3	da	pa	1	left
6.6.1	win	2023-07-11	11:08:56	11:57:06	2884097	628f6d4d2a3cf806fc7e01ff	1	1	main_slash	24	main_slash	93	stimuli_distractor_trianglediamonds.svg	stimuli_target_squaretriangles.svg	11	yes	53	1	1280	6	3	antiphase_hc_soi.wav	1	6	5	noise_calib_stim_RIGHT.wav	2	11	blb_dichoticlistening_da-pa.mp3	da	pa	1	left
6.6.1	win	2023-07-11	11:08:56	11:57:06	2884097	628f6d4d2a3cf806fc7e01ff	1	1	main_slash	24	advance_on_keypress_SLASH	94	stimuli_distractor_trianglediamonds.svg	stimuli_target_squaretriangles.svg	11	yes	57	0	760	6	3	antiphase_hc_soi.wav	1	6	5	noise_calib_stim_RIGHT.wav	2	11	blb_dichoticlistening_da-pa.mp3	da	pa	1	left
6.6.1	win	2023-07-11	11:08:56	11:57:08	2886736	628f6d4d2a3cf806fc7e01ff	1	1	main_slash	24	main_slash	95	stimuli_target_diamondsquares.svg	stimuli_distractor_diamondtriangles.svg	24	yes	53	1	1219	6	3	antiphase_hc_soi.wav	1	6	5	noise_calib_stim_RIGHT.wav	2	11	blb_dichoticlistening_da-pa.mp3	da	pa	1	left
6.6.1	win	2023-07-11	11:08:56	11:57:08	2886736	628f6d4d2a3cf806fc7e01ff	1	1	main_slash	24	advance_on_keypress_SLASH	96	stimuli_target_diamondsquares.svg	stimuli_distractor_diamondtriangles.svg	24	yes	57	0	880	6	3	antiphase_hc_soi.wav	1	6	5	noise_calib_stim_RIGHT.wav	2	11	blb_dichoticlistening_da-pa.mp3	da	pa	1	left
6.6.1	win	2023-07-11	11:08:56	11:57:11	2889636	628f6d4d2a3cf806fc7e01ff	1	1	main_slash	24	main_slash	97	stimuli_distractor_diamondtriangles.svg	stimuli_target_diamondsquares.svg	32	yes	53	1	1370	6	3	antiphase_hc_soi.wav	1	6	5	noise_calib_stim_RIGHT.wav	2	11	blb_dichoticlistening_da-pa.mp3	da	pa	1	left
6.6.1	win	2023-07-11	11:08:56	11:57:11	2889636	628f6d4d2a3cf806fc7e01ff	1	1	main_slash	24	advance_on_keypress_SLASH	98	stimuli_distractor_diamondtriangles.svg	stimuli_target_diamondsquares.svg	32	yes	57	0	739	6	3	antiphase_hc_soi.wav	1	6	5	noise_calib_stim_RIGHT.wav	2	11	blb_dichoticlistening_da-pa.mp3	da	pa	1	left
6.6.1	win	2023-07-11	11:08:56	11:57:15	2893017	628f6d4d2a3cf806fc7e01ff	1	1	main_slash	24	main_slash	99	stimuli_distractor_diamondtriangles.svg	stimuli_target_diamondrectangles.svg	31	yes	0	0	2000	6	3	antiphase_hc_soi.wav	1	6	5	noise_calib_stim_RIGHT.wav	2	11	blb_dichoticlistening_da-pa.mp3	da	pa	1	left
6.6.1	win	2023-07-11	11:08:56	11:57:15	2893017	628f6d4d2a3cf806fc7e01ff	1	1	main_slash	24	advance_on_keypress_SLASH	100	stimuli_distractor_diamondtriangles.svg	stimuli_target_diamondrectangles.svg	31	yes	57	0	695	6	3	antiphase_hc_soi.wav	1	6	5	noise_calib_stim_RIGHT.wav	2	11	blb_dichoticlistening_da-pa.mp3	da	pa	1	left
6.6.1	win	2023-07-11	11:08:56	11:57:17	2895348	628f6d4d2a3cf806fc7e01ff	1	1	main_slash	24	main_slash	101	stimuli_distractor_trianglediamonds.svg	stimuli_target_squarediamonds.svg	12	yes	53	1	982	6	3	antiphase_hc_soi.wav	1	6	5	noise_calib_stim_RIGHT.wav	2	11	blb_dichoticlistening_da-pa.mp3	da	pa	1	left
6.6.1	win	2023-07-11	11:08:56	11:57:17	2895348	628f6d4d2a3cf806fc7e01ff	1	1	main_slash	24	advance_on_keypress_SLASH	102	stimuli_distractor_trianglediamonds.svg	stimuli_target_squarediamonds.svg	12	yes	57	0	10905	6	3	antiphase_hc_soi.wav	1	6	5	noise_calib_stim_RIGHT.wav	2	11	blb_dichoticlistening_da-pa.mp3	da	pa	1	left
6.6.1	win	2023-07-11	11:08:56	11:57:31	2908899	628f6d4d2a3cf806fc7e01ff	1	1	main_slash	24	main_slash	103	stimuli_distractor_trianglediamonds.svg	stimuli_distractor_trianglediamonds.svg	34	no	0	1	2000	6	3	antiphase_hc_soi.wav	1	6	5	noise_calib_stim_RIGHT.wav	2	11	blb_dichoticlistening_da-pa.mp3	da	pa	1	left
6.6.1	win	2023-07-11	11:08:56	11:57:31	2908899	628f6d4d2a3cf806fc7e01ff	1	1	main_slash	24	advance_on_keypress_SLASH	104	stimuli_distractor_trianglediamonds.svg	stimuli_distractor_trianglediamonds.svg	34	no	57	0	721	6	3	antiphase_hc_soi.wav	1	6	5	noise_calib_stim_RIGHT.wav	2	11	blb_dichoticlistening_da-pa.mp3	da	pa	1	left
6.6.1	win	2023-07-11	11:08:56	11:57:34	2912266	628f6d4d2a3cf806fc7e01ff	1	1	main_slash	24	main_slash	105	stimuli_distractor_diamondtriangles.svg	stimuli_distractor_trianglediamonds.svg	38	no	0	1	2000	6	3	antiphase_hc_soi.wav	1	6	5	noise_calib_stim_RIGHT.wav	2	11	blb_dichoticlistening_da-pa.mp3	da	pa	1	left
6.6.1	win	2023-07-11	11:08:56	11:57:34	2912266	628f6d4d2a3cf806fc7e01ff	1	1	main_slash	24	advance_on_keypress_SLASH	106	stimuli_distractor_diamondtriangles.svg	stimuli_distractor_trianglediamonds.svg	38	no	57	0	559	6	3	antiphase_hc_soi.wav	1	6	5	noise_calib_stim_RIGHT.wav	2	11	blb_dichoticlistening_da-pa.mp3	da	pa	1	left
6.6.1	win	2023-07-11	11:08:56	11:57:36	2914503	628f6d4d2a3cf806fc7e01ff	1	1	main_slash	24	main_slash	107	stimuli_target_diamondsquares.svg	stimuli_distractor_trianglediamonds.svg	20	yes	53	1	1038	6	3	antiphase_hc_soi.wav	1	6	5	noise_calib_stim_RIGHT.wav	2	11	blb_dichoticlistening_da-pa.mp3	da	pa	1	left
6.6.1	win	2023-07-11	11:08:56	11:57:36	2914503	628f6d4d2a3cf806fc7e01ff	1	1	main_slash	24	advance_on_keypress_SLASH	108	stimuli_target_diamondsquares.svg	stimuli_distractor_trianglediamonds.svg	20	yes	57	0	1165	6	3	antiphase_hc_soi.wav	1	6	5	noise_calib_stim_RIGHT.wav	2	11	blb_dichoticlistening_da-pa.mp3	da	pa	1	left
6.6.1	win	2023-07-11	11:08:56	11:57:39	2917398	628f6d4d2a3cf806fc7e01ff	1	1	main_slash	24	main_slash	109	stimuli_target_squarediamonds.svg	stimuli_distractor_diamondtriangles.svg	8	yes	53	1	1082	6	3	antiphase_hc_soi.wav	1	6	5	noise_calib_stim_RIGHT.wav	2	11	blb_dichoticlistening_da-pa.mp3	da	pa	1	left
6.6.1	win	2023-07-11	11:08:56	11:57:39	2917398	628f6d4d2a3cf806fc7e01ff	1	1	main_slash	24	advance_on_keypress_SLASH	110	stimuli_target_squarediamonds.svg	stimuli_distractor_diamondtriangles.svg	8	yes	57	0	711	6	3	antiphase_hc_soi.wav	1	6	5	noise_calib_stim_RIGHT.wav	2	11	blb_dichoticlistening_da-pa.mp3	da	pa	1	left
6.6.1	win	2023-07-11	11:08:56	11:57:41	2919759	628f6d4d2a3cf806fc7e01ff	1	1	main_slash	24	main_slash	111	stimuli_target_squaretriangles.svg	stimuli_distractor_diamondtriangles.svg	7	yes	53	1	993	6	3	antiphase_hc_soi.wav	1	6	5	noise_calib_stim_RIGHT.wav	2	11	blb_dichoticlistening_da-pa.mp3	da	pa	1	left
6.6.1	win	2023-07-11	11:08:56	11:57:41	2919759	628f6d4d2a3cf806fc7e01ff	1	1	main_slash	24	advance_on_keypress_SLASH	112	stimuli_target_squaretriangles.svg	stimuli_distractor_diamondtriangles.svg	7	yes	57	0	502	6	3	antiphase_hc_soi.wav	1	6	5	noise_calib_stim_RIGHT.wav	2	11	blb_dichoticlistening_da-pa.mp3	da	pa	1	left
6.6.1	win	2023-07-11	11:08:56	11:57:45	2922915	628f6d4d2a3cf806fc7e01ff	1	1	main_slash	24	main_slash	113	stimuli_distractor_diamondtriangles.svg	stimuli_distractor_diamondtriangles.svg	40	no	0	1	2000	6	3	antiphase_hc_soi.wav	1	6	5	noise_calib_stim_RIGHT.wav	2	11	blb_dichoticlistening_da-pa.mp3	da	pa	1	left
6.6.1	win	2023-07-11	11:08:56	11:57:45	2922915	628f6d4d2a3cf806fc7e01ff	1	1	main_slash	24	advance_on_keypress_SLASH	114	stimuli_distractor_diamondtriangles.svg	stimuli_distractor_diamondtriangles.svg	40	no	57	0	716	6	3	antiphase_hc_soi.wav	1	6	5	noise_calib_stim_RIGHT.wav	2	11	blb_dichoticlistening_da-pa.mp3	da	pa	1	left
6.6.1	win	2023-07-11	11:08:56	11:57:47	2925499	628f6d4d2a3cf806fc7e01ff	1	1	main_slash	24	main_slash	115	stimuli_distractor_diamondtriangles.svg	stimuli_target_squarediamonds.svg	16	yes	53	1	1217	6	3	antiphase_hc_soi.wav	1	6	5	noise_calib_stim_RIGHT.wav	2	11	blb_dichoticlistening_da-pa.mp3	da	pa	1	left
6.6.1	win	2023-07-11	11:08:56	11:57:47	2925499	628f6d4d2a3cf806fc7e01ff	1	1	main_slash	24	advance_on_keypress_SLASH	116	stimuli_distractor_diamondtriangles.svg	stimuli_target_squarediamonds.svg	16	yes	57	0	1509	6	3	antiphase_hc_soi.wav	1	6	5	noise_calib_stim_RIGHT.wav	2	11	blb_dichoticlistening_da-pa.mp3	da	pa	1	left
6.6.1	win	2023-07-11	11:08:56	11:57:50	2928718	628f6d4d2a3cf806fc7e01ff	1	1	main_slash	24	main_slash	117	stimuli_distractor_trianglediamonds.svg	stimuli_target_rectangletriangles.svg	9	yes	53	1	1070	6	3	antiphase_hc_soi.wav	1	6	5	noise_calib_stim_RIGHT.wav	2	11	blb_dichoticlistening_da-pa.mp3	da	pa	1	left
6.6.1	win	2023-07-11	11:08:56	11:57:50	2928718	628f6d4d2a3cf806fc7e01ff	1	1	main_slash	24	advance_on_keypress_SLASH	118	stimuli_distractor_trianglediamonds.svg	stimuli_target_rectangletriangles.svg	9	yes	57	0	851	6	3	antiphase_hc_soi.wav	1	6	5	noise_calib_stim_RIGHT.wav	2	11	blb_dichoticlistening_da-pa.mp3	da	pa	1	left
6.6.1	win	2023-07-11	11:08:56	11:57:53	2931323	628f6d4d2a3cf806fc7e01ff	1	1	main_slash	24	main_slash	119	stimuli_distractor_trianglediamonds.svg	stimuli_target_diamondsquares.svg	28	yes	53	1	1109	6	3	antiphase_hc_soi.wav	1	6	5	noise_calib_stim_RIGHT.wav	2	11	blb_dichoticlistening_da-pa.mp3	da	pa	1	left
6.6.1	win	2023-07-11	11:08:56	11:57:53	2931323	628f6d4d2a3cf806fc7e01ff	1	1	main_slash	24	advance_on_keypress_SLASH	120	stimuli_distractor_trianglediamonds.svg	stimuli_target_diamondsquares.svg	28	yes	57	0	1145	6	3	antiphase_hc_soi.wav	1	6	5	noise_calib_stim_RIGHT.wav	2	11	blb_dichoticlistening_da-pa.mp3	da	pa	1	left
6.6.1	win	2023-07-11	11:08:56	11:57:56	2934111	628f6d4d2a3cf806fc7e01ff	1	1	main_slash	24	main_slash	121	stimuli_distractor_diamondtriangles.svg	stimuli_target_rectangletriangles.svg	13	yes	53	1	997	6	3	antiphase_hc_soi.wav	1	6	5	noise_calib_stim_RIGHT.wav	2	11	blb_dichoticlistening_da-pa.mp3	da	pa	1	left
6.6.1	win	2023-07-11	11:08:56	11:57:56	2934111	628f6d4d2a3cf806fc7e01ff	1	1	main_slash	24	advance_on_keypress_SLASH	122	stimuli_distractor_diamondtriangles.svg	stimuli_target_rectangletriangles.svg	13	yes	57	0	1402	6	3	antiphase_hc_soi.wav	1	6	5	noise_calib_stim_RIGHT.wav	2	11	blb_dichoticlistening_da-pa.mp3	da	pa	1	left
6.6.1	win	2023-07-11	11:08:56	11:57:59	2937166	628f6d4d2a3cf806fc7e01ff	1	1	main_slash	24	main_slash	123	stimuli_distractor_diamondtriangles.svg	stimuli_target_trianglerectangles.svg	29	yes	53	1	1001	6	3	antiphase_hc_soi.wav	1	6	5	noise_calib_stim_RIGHT.wav	2	11	blb_dichoticlistening_da-pa.mp3	da	pa	1	left
6.6.1	win	2023-07-11	11:08:56	11:57:59	2937166	628f6d4d2a3cf806fc7e01ff	1	1	main_slash	24	advance_on_keypress_SLASH	124	stimuli_distractor_diamondtriangles.svg	stimuli_target_trianglerectangles.svg	29	yes	57	0	749	6	3	antiphase_hc_soi.wav	1	6	5	noise_calib_stim_RIGHT.wav	2	11	blb_dichoticlistening_da-pa.mp3	da	pa	1	left
6.6.1	win	2023-07-11	11:08:56	11:58:01	2939522	628f6d4d2a3cf806fc7e01ff	1	1	main_slash	24	main_slash	125	stimuli_target_diamondrectangles.svg	stimuli_distractor_trianglediamonds.svg	19	yes	53	1	957	6	3	antiphase_hc_soi.wav	1	6	5	noise_calib_stim_RIGHT.wav	2	11	blb_dichoticlistening_da-pa.mp3	da	pa	1	left
6.6.1	win	2023-07-11	11:08:56	11:58:01	2939522	628f6d4d2a3cf806fc7e01ff	1	1	main_slash	24	advance_on_keypress_SLASH	126	stimuli_target_diamondrectangles.svg	stimuli_distractor_trianglediamonds.svg	19	yes	57	0	728	6	3	antiphase_hc_soi.wav	1	6	5	noise_calib_stim_RIGHT.wav	2	11	blb_dichoticlistening_da-pa.mp3	da	pa	1	left
6.6.1	win	2023-07-11	11:08:56	11:58:05	2942898	628f6d4d2a3cf806fc7e01ff	1	1	main_slash	24	main_slash	127	stimuli_distractor_trianglediamonds.svg	stimuli_distractor_diamondtriangles.svg	36	no	0	1	2000	6	3	antiphase_hc_soi.wav	1	6	5	noise_calib_stim_RIGHT.wav	2	11	blb_dichoticlistening_da-pa.mp3	da	pa	1	left
6.6.1	win	2023-07-11	11:08:56	11:58:05	2942898	628f6d4d2a3cf806fc7e01ff	1	1	main_slash	24	advance_on_keypress_SLASH	128	stimuli_distractor_trianglediamonds.svg	stimuli_distractor_diamondtriangles.svg	36	no	57	0	474	6	3	antiphase_hc_soi.wav	1	6	5	noise_calib_stim_RIGHT.wav	2	11	blb_dichoticlistening_da-pa.mp3	da	pa	1	left
6.6.1	win	2023-07-11	11:08:56	11:58:07	2944979	628f6d4d2a3cf806fc7e01ff	1	1	main_slash	24	main_slash	129	stimuli_distractor_trianglediamonds.svg	stimuli_target_trianglesquares.svg	26	yes	53	1	964	6	3	antiphase_hc_soi.wav	1	6	5	noise_calib_stim_RIGHT.wav	2	11	blb_dichoticlistening_da-pa.mp3	da	pa	1	left
6.6.1	win	2023-07-11	11:08:56	11:58:07	2944979	628f6d4d2a3cf806fc7e01ff	1	1	main_slash	24	advance_on_keypress_SLASH	130	stimuli_distractor_trianglediamonds.svg	stimuli_target_trianglesquares.svg	26	yes	57	0	555	6	3	antiphase_hc_soi.wav	1	6	5	noise_calib_stim_RIGHT.wav	2	11	blb_dichoticlistening_da-pa.mp3	da	pa	1	left
6.6.1	win	2023-07-11	11:08:56	11:58:09	2947246	628f6d4d2a3cf806fc7e01ff	1	1	main_slash	24	main_slash	131	stimuli_target_rectanglediamonds.svg	stimuli_distractor_trianglediamonds.svg	2	yes	53	1	1065	6	3	antiphase_hc_soi.wav	1	6	5	noise_calib_stim_RIGHT.wav	2	11	blb_dichoticlistening_da-pa.mp3	da	pa	1	left
6.6.1	win	2023-07-11	11:08:56	11:58:09	2947246	628f6d4d2a3cf806fc7e01ff	1	1	main_slash	24	advance_on_keypress_SLASH	132	stimuli_target_rectanglediamonds.svg	stimuli_distractor_trianglediamonds.svg	2	yes	57	0	712	6	3	antiphase_hc_soi.wav	1	6	5	noise_calib_stim_RIGHT.wav	2	11	blb_dichoticlistening_da-pa.mp3	da	pa	1	left
6.6.1	win	2023-07-11	11:08:56	11:58:11	2949436	628f6d4d2a3cf806fc7e01ff	1	1	main_slash	24	main_slash	133	stimuli_target_rectangletriangles.svg	stimuli_distractor_trianglediamonds.svg	1	yes	53	1	822	6	3	antiphase_hc_soi.wav	1	6	5	noise_calib_stim_RIGHT.wav	2	11	blb_dichoticlistening_da-pa.mp3	da	pa	1	left
6.6.1	win	2023-07-11	11:08:56	11:58:11	2949436	628f6d4d2a3cf806fc7e01ff	1	1	main_slash	24	advance_on_keypress_SLASH	134	stimuli_target_rectangletriangles.svg	stimuli_distractor_trianglediamonds.svg	1	yes	57	0	893	6	3	antiphase_hc_soi.wav	1	6	5	noise_calib_stim_RIGHT.wav	2	11	blb_dichoticlistening_da-pa.mp3	da	pa	1	left
6.6.1	win	2023-07-11	11:08:56	11:58:14	2951994	628f6d4d2a3cf806fc7e01ff	1	1	main_slash	24	main_slash	135	stimuli_target_squarediamonds.svg	stimuli_distractor_trianglediamonds.svg	4	yes	53	1	1030	6	3	antiphase_hc_soi.wav	1	6	5	noise_calib_stim_RIGHT.wav	2	11	blb_dichoticlistening_da-pa.mp3	da	pa	1	left
6.6.1	win	2023-07-11	11:08:56	11:58:14	2951994	628f6d4d2a3cf806fc7e01ff	1	1	main_slash	24	advance_on_keypress_SLASH	136	stimuli_target_squarediamonds.svg	stimuli_distractor_trianglediamonds.svg	4	yes	57	0	492	6	3	antiphase_hc_soi.wav	1	6	5	noise_calib_stim_RIGHT.wav	2	11	blb_dichoticlistening_da-pa.mp3	da	pa	1	left
6.6.1	win	2023-07-11	11:08:56	11:58:16	2954053	628f6d4d2a3cf806fc7e01ff	1	1	main_slash	24	main_slash	137	stimuli_target_diamondrectangles.svg	stimuli_distractor_diamondtriangles.svg	23	yes	53	1	922	6	3	antiphase_hc_soi.wav	1	6	5	noise_calib_stim_RIGHT.wav	2	11	blb_dichoticlistening_da-pa.mp3	da	pa	1	left
6.6.1	win	2023-07-11	11:08:56	11:58:16	2954053	628f6d4d2a3cf806fc7e01ff	1	1	main_slash	24	advance_on_keypress_SLASH	138	stimuli_target_diamondrectangles.svg	stimuli_distractor_diamondtriangles.svg	23	yes	57	0	680	6	3	antiphase_hc_soi.wav	1	6	5	noise_calib_stim_RIGHT.wav	2	11	blb_dichoticlistening_da-pa.mp3	da	pa	1	left
6.6.1	win	2023-07-11	11:08:56	11:58:18	2956323	628f6d4d2a3cf806fc7e01ff	1	1	main_slash	24	main_slash	139	stimuli_target_rectanglediamonds.svg	stimuli_distractor_diamondtriangles.svg	6	yes	53	1	943	6	3	antiphase_hc_soi.wav	1	6	5	noise_calib_stim_RIGHT.wav	2	11	blb_dichoticlistening_da-pa.mp3	da	pa	1	left
6.6.1	win	2023-07-11	11:08:56	11:58:18	2956323	628f6d4d2a3cf806fc7e01ff	1	1	main_slash	24	advance_on_keypress_SLASH	140	stimuli_target_rectanglediamonds.svg	stimuli_distractor_diamondtriangles.svg	6	yes	57	0	645	6	3	antiphase_hc_soi.wav	1	6	5	noise_calib_stim_RIGHT.wav	2	11	blb_dichoticlistening_da-pa.mp3	da	pa	1	left
6.6.1	win	2023-07-11	11:08:56	11:58:20	2958612	628f6d4d2a3cf806fc7e01ff	1	1	main_slash	24	main_slash	141	stimuli_distractor_trianglediamonds.svg	stimuli_target_trianglerectangles.svg	25	yes	53	1	982	6	3	antiphase_hc_soi.wav	1	6	5	noise_calib_stim_RIGHT.wav	2	11	blb_dichoticlistening_da-pa.mp3	da	pa	1	left
6.6.1	win	2023-07-11	11:08:56	11:58:20	2958612	628f6d4d2a3cf806fc7e01ff	1	1	main_slash	24	advance_on_keypress_SLASH	142	stimuli_distractor_trianglediamonds.svg	stimuli_target_trianglerectangles.svg	25	yes	57	0	464	6	3	antiphase_hc_soi.wav	1	6	5	noise_calib_stim_RIGHT.wav	2	11	blb_dichoticlistening_da-pa.mp3	da	pa	1	left
6.6.1	win	2023-07-11	11:08:56	11:58:22	2960710	628f6d4d2a3cf806fc7e01ff	1	1	main_slash	24	main_slash	143	stimuli_distractor_diamondtriangles.svg	stimuli_target_squaretriangles.svg	15	yes	53	1	979	6	3	antiphase_hc_soi.wav	1	6	5	noise_calib_stim_RIGHT.wav	2	11	blb_dichoticlistening_da-pa.mp3	da	pa	1	left
6.6.1	win	2023-07-11	11:08:56	11:58:22	2960710	628f6d4d2a3cf806fc7e01ff	1	1	main_slash	24	advance_on_keypress_SLASH	144	stimuli_distractor_diamondtriangles.svg	stimuli_target_squaretriangles.svg	15	yes	57	0	711	6	3	antiphase_hc_soi.wav	1	6	5	noise_calib_stim_RIGHT.wav	2	11	blb_dichoticlistening_da-pa.mp3	da	pa	1	left
6.6.1	win	2023-07-11	11:08:56	11:58:24	2962767	628f6d4d2a3cf806fc7e01ff	1	1	main_slash	24	main_slash	145	stimuli_distractor_diamondtriangles.svg	stimuli_target_rectanglediamonds.svg	14	yes	53	1	703	6	3	antiphase_hc_soi.wav	1	6	5	noise_calib_stim_RIGHT.wav	2	11	blb_dichoticlistening_da-pa.mp3	da	pa	1	left
6.6.1	win	2023-07-11	11:08:56	11:58:24	2962767	628f6d4d2a3cf806fc7e01ff	1	1	main_slash	24	advance_on_keypress_SLASH	146	stimuli_distractor_diamondtriangles.svg	stimuli_target_rectanglediamonds.svg	14	yes	57	0	914	6	3	antiphase_hc_soi.wav	1	6	5	noise_calib_stim_RIGHT.wav	2	11	blb_dichoticlistening_da-pa.mp3	da	pa	1	left
6.6.1	win	2023-07-11	11:08:56	11:58:28	2966330	628f6d4d2a3cf806fc7e01ff	1	1	main_slash	24	main_slash	147	stimuli_distractor_trianglediamonds.svg	stimuli_distractor_diamondtriangles.svg	35	no	0	1	2000	6	3	antiphase_hc_soi.wav	1	6	5	noise_calib_stim_RIGHT.wav	2	11	blb_dichoticlistening_da-pa.mp3	da	pa	1	left
6.6.1	win	2023-07-11	11:08:56	11:58:28	2966330	628f6d4d2a3cf806fc7e01ff	1	1	main_slash	24	advance_on_keypress_SLASH	148	stimuli_distractor_trianglediamonds.svg	stimuli_distractor_diamondtriangles.svg	35	no	57	0	454	6	3	antiphase_hc_soi.wav	1	6	5	noise_calib_stim_RIGHT.wav	2	11	blb_dichoticlistening_da-pa.mp3	da	pa	1	left
6.6.1	win	2023-07-11	11:08:56	11:58:31	2969430	628f6d4d2a3cf806fc7e01ff	1	1	main_slash	24	main_slash	149	stimuli_distractor_diamondtriangles.svg	stimuli_distractor_diamondtriangles.svg	39	no	0	1	2000	6	3	antiphase_hc_soi.wav	1	6	5	noise_calib_stim_RIGHT.wav	2	11	blb_dichoticlistening_da-pa.mp3	da	pa	1	left
6.6.1	win	2023-07-11	11:08:56	11:58:31	2969430	628f6d4d2a3cf806fc7e01ff	1	1	main_slash	24	advance_on_keypress_SLASH	150	stimuli_distractor_diamondtriangles.svg	stimuli_distractor_diamondtriangles.svg	39	no	57	0	428	6	3	antiphase_hc_soi.wav	1	6	5	noise_calib_stim_RIGHT.wav	2	11	blb_dichoticlistening_da-pa.mp3	da	pa	1	left
6.6.1	win	2023-07-11	11:08:56	11:58:34	2972513	628f6d4d2a3cf806fc7e01ff	1	1	main_slash	24	main_slash	151	stimuli_distractor_trianglediamonds.svg	stimuli_distractor_trianglediamonds.svg	33	no	0	1	2000	6	3	antiphase_hc_soi.wav	1	6	5	noise_calib_stim_RIGHT.wav	2	11	blb_dichoticlistening_da-pa.mp3	da	pa	1	left
6.6.1	win	2023-07-11	11:08:56	11:58:34	2972513	628f6d4d2a3cf806fc7e01ff	1	1	main_slash	24	advance_on_keypress_SLASH	152	stimuli_distractor_trianglediamonds.svg	stimuli_distractor_trianglediamonds.svg	33	no	57	0	518	6	3	antiphase_hc_soi.wav	1	6	5	noise_calib_stim_RIGHT.wav	2	11	blb_dichoticlistening_da-pa.mp3	da	pa	1	left
6.6.1	win	2023-07-11	11:08:56	11:58:36	2974415	628f6d4d2a3cf806fc7e01ff	1	1	main_slash	24	main_slash	153	stimuli_distractor_trianglediamonds.svg	stimuli_target_diamondrectangles.svg	27	yes	53	1	736	6	3	antiphase_hc_soi.wav	1	6	5	noise_calib_stim_RIGHT.wav	2	11	blb_dichoticlistening_da-pa.mp3	da	pa	1	left
6.6.1	win	2023-07-11	11:08:56	11:58:36	2974415	628f6d4d2a3cf806fc7e01ff	1	1	main_slash	24	advance_on_keypress_SLASH	154	stimuli_distractor_trianglediamonds.svg	stimuli_target_diamondrectangles.svg	27	yes	57	0	869	6	3	antiphase_hc_soi.wav	1	6	5	noise_calib_stim_RIGHT.wav	2	11	blb_dichoticlistening_da-pa.mp3	da	pa	1	left
6.6.1	win	2023-07-11	11:08:56	11:58:40	2977929	628f6d4d2a3cf806fc7e01ff	1	1	main_slash	24	main_slash	155	stimuli_distractor_diamondtriangles.svg	stimuli_distractor_trianglediamonds.svg	37	no	0	1	2000	6	3	antiphase_hc_soi.wav	1	6	5	noise_calib_stim_RIGHT.wav	2	11	blb_dichoticlistening_da-pa.mp3	da	pa	1	left
6.6.1	win	2023-07-11	11:08:56	11:58:40	2977929	628f6d4d2a3cf806fc7e01ff	1	1	main_slash	24	advance_on_keypress_SLASH	156	stimuli_distractor_diamondtriangles.svg	stimuli_distractor_trianglediamonds.svg	37	no	57	0	408	6	3	antiphase_hc_soi.wav	1	6	5	noise_calib_stim_RIGHT.wav	2	11	blb_dichoticlistening_da-pa.mp3	da	pa	1	left
6.6.1	win	2023-07-11	11:08:56	11:58:41	2979854	628f6d4d2a3cf806fc7e01ff	1	1	main_slash	24	main_slash	157	stimuli_target_rectangletriangles.svg	stimuli_distractor_diamondtriangles.svg	5	yes	53	1	875	6	3	antiphase_hc_soi.wav	1	6	5	noise_calib_stim_RIGHT.wav	2	11	blb_dichoticlistening_da-pa.mp3	da	pa	1	left
6.6.1	win	2023-07-11	11:08:56	11:58:41	2979854	628f6d4d2a3cf806fc7e01ff	1	1	main_slash	24	advance_on_keypress_SLASH	158	stimuli_target_rectangletriangles.svg	stimuli_distractor_diamondtriangles.svg	5	yes	57	0	849	6	3	antiphase_hc_soi.wav	1	6	5	noise_calib_stim_RIGHT.wav	2	11	blb_dichoticlistening_da-pa.mp3	da	pa	1	left
6.6.1	win	2023-07-11	11:08:56	11:58:44	2982377	628f6d4d2a3cf806fc7e01ff	1	1	main_slash	24	main_slash	159	stimuli_target_squaretriangles.svg	stimuli_distractor_trianglediamonds.svg	3	yes	53	1	1031	6	3	antiphase_hc_soi.wav	1	6	5	noise_calib_stim_RIGHT.wav	2	11	blb_dichoticlistening_da-pa.mp3	da	pa	1	left
6.6.1	win	2023-07-11	11:08:56	11:58:44	2982377	628f6d4d2a3cf806fc7e01ff	1	1	main_slash	24	advance_on_keypress_SLASH	160	stimuli_target_squaretriangles.svg	stimuli_distractor_trianglediamonds.svg	3	yes	57	0	491	6	3	antiphase_hc_soi.wav	1	6	5	noise_calib_stim_RIGHT.wav	2	11	blb_dichoticlistening_da-pa.mp3	da	pa	1	left
6.6.1	win	2023-07-11	11:08:56	11:58:59	2997289	628f6d4d2a3cf806fc7e01ff	1	1	practice_z	26	practice_z	1	stimuli_distractor_diamondtriangles.svg	stimuli_target_rectangletriangles.svg	7	yes	44	1	557	6	3	antiphase_hc_soi.wav	1	6	5	noise_calib_stim_RIGHT.wav	2	11	blb_dichoticlistening_da-pa.mp3	da	pa	1	left
6.6.1	win	2023-07-11	11:08:56	11:58:59	2997289	628f6d4d2a3cf806fc7e01ff	1	1	practice_z	26	advance_on_keypress_ZEE	2	stimuli_distractor_diamondtriangles.svg	stimuli_target_rectangletriangles.svg	7	yes	57	0	365	6	3	antiphase_hc_soi.wav	1	6	5	noise_calib_stim_RIGHT.wav	2	11	blb_dichoticlistening_da-pa.mp3	da	pa	1	left
6.6.1	win	2023-07-11	11:08:56	11:59:01	2999834	628f6d4d2a3cf806fc7e01ff	1	1	practice_z	26	practice_z	3	stimuli_distractor_trianglediamonds.svg	stimuli_target_rectanglediamonds.svg	10	yes	44	1	520	6	3	antiphase_hc_soi.wav	1	6	5	noise_calib_stim_RIGHT.wav	2	11	blb_dichoticlistening_da-pa.mp3	da	pa	1	left
6.6.1	win	2023-07-11	11:08:56	11:59:01	2999834	628f6d4d2a3cf806fc7e01ff	1	1	practice_z	26	advance_on_keypress_ZEE	4	stimuli_distractor_trianglediamonds.svg	stimuli_target_rectanglediamonds.svg	10	yes	57	0	250	6	3	antiphase_hc_soi.wav	1	6	5	noise_calib_stim_RIGHT.wav	2	11	blb_dichoticlistening_da-pa.mp3	da	pa	1	left
6.6.1	win	2023-07-11	11:08:56	11:59:04	3002731	628f6d4d2a3cf806fc7e01ff	1	1	practice_z	26	practice_z	5	stimuli_target_rectanglediamonds.svg	stimuli_distractor_diamondtriangles.svg	1	yes	44	1	1000	6	3	antiphase_hc_soi.wav	1	6	5	noise_calib_stim_RIGHT.wav	2	11	blb_dichoticlistening_da-pa.mp3	da	pa	1	left
6.6.1	win	2023-07-11	11:08:56	11:59:04	3002731	628f6d4d2a3cf806fc7e01ff	1	1	practice_z	26	advance_on_keypress_ZEE	6	stimuli_target_rectanglediamonds.svg	stimuli_distractor_diamondtriangles.svg	1	yes	57	0	367	6	3	antiphase_hc_soi.wav	1	6	5	noise_calib_stim_RIGHT.wav	2	11	blb_dichoticlistening_da-pa.mp3	da	pa	1	left
6.6.1	win	2023-07-11	11:08:56	11:59:08	3006746	628f6d4d2a3cf806fc7e01ff	1	1	practice_z	26	practice_z	7	stimuli_distractor_diamondtriangles.svg	stimuli_distractor_trianglediamonds.svg	14	no	0	1	2000	6	3	antiphase_hc_soi.wav	1	6	5	noise_calib_stim_RIGHT.wav	2	11	blb_dichoticlistening_da-pa.mp3	da	pa	1	left
6.6.1	win	2023-07-11	11:08:56	11:59:08	3006746	628f6d4d2a3cf806fc7e01ff	1	1	practice_z	26	advance_on_keypress_ZEE	8	stimuli_distractor_diamondtriangles.svg	stimuli_distractor_trianglediamonds.svg	14	no	57	0	438	6	3	antiphase_hc_soi.wav	1	6	5	noise_calib_stim_RIGHT.wav	2	11	blb_dichoticlistening_da-pa.mp3	da	pa	1	left
6.6.1	win	2023-07-11	11:08:56	11:59:11	3009720	628f6d4d2a3cf806fc7e01ff	1	1	practice_z	26	practice_z	9	stimuli_target_squarediamonds.svg	stimuli_distractor_trianglediamonds.svg	5	yes	44	1	891	6	3	antiphase_hc_soi.wav	1	6	5	noise_calib_stim_RIGHT.wav	2	11	blb_dichoticlistening_da-pa.mp3	da	pa	1	left
6.6.1	win	2023-07-11	11:08:56	11:59:11	3009720	628f6d4d2a3cf806fc7e01ff	1	1	practice_z	26	advance_on_keypress_ZEE	10	stimuli_target_squarediamonds.svg	stimuli_distractor_trianglediamonds.svg	5	yes	57	0	443	6	3	antiphase_hc_soi.wav	1	6	5	noise_calib_stim_RIGHT.wav	2	11	blb_dichoticlistening_da-pa.mp3	da	pa	1	left
6.6.1	win	2023-07-11	11:08:56	11:59:14	3012770	628f6d4d2a3cf806fc7e01ff	1	1	practice_z	26	practice_z	11	stimuli_target_diamondsquares.svg	stimuli_distractor_diamondtriangles.svg	3	yes	44	1	957	6	3	antiphase_hc_soi.wav	1	6	5	noise_calib_stim_RIGHT.wav	2	11	blb_dichoticlistening_da-pa.mp3	da	pa	1	left
6.6.1	win	2023-07-11	11:08:56	11:59:14	3012770	628f6d4d2a3cf806fc7e01ff	1	1	practice_z	26	advance_on_keypress_ZEE	12	stimuli_target_diamondsquares.svg	stimuli_distractor_diamondtriangles.svg	3	yes	57	0	426	6	3	antiphase_hc_soi.wav	1	6	5	noise_calib_stim_RIGHT.wav	2	11	blb_dichoticlistening_da-pa.mp3	da	pa	1	left
6.6.1	win	2023-07-11	11:08:56	11:59:17	3015546	628f6d4d2a3cf806fc7e01ff	1	1	practice_z	26	practice_z	13	stimuli_distractor_trianglediamonds.svg	stimuli_target_diamondrectangles.svg	12	yes	44	1	699	6	3	antiphase_hc_soi.wav	1	6	5	noise_calib_stim_RIGHT.wav	2	11	blb_dichoticlistening_da-pa.mp3	da	pa	1	left
6.6.1	win	2023-07-11	11:08:56	11:59:17	3015546	628f6d4d2a3cf806fc7e01ff	1	1	practice_z	26	advance_on_keypress_ZEE	14	stimuli_distractor_trianglediamonds.svg	stimuli_target_diamondrectangles.svg	12	yes	57	0	383	6	3	antiphase_hc_soi.wav	1	6	5	noise_calib_stim_RIGHT.wav	2	11	blb_dichoticlistening_da-pa.mp3	da	pa	1	left
