build	computer.platform	date	time	timestamp	time_elapsed_ms	subject	group	session	blockcode	blocknum	trialcode	trialnum	stimulus_left	stimulus_right	stim_index	target_present	response	correct	latency	headphonecheck_countTestTrials	headphonecheck_index	headphonecheck_testSound	headphonecheck_correctResponse	stereocheck_countTestTrials	stereocheck_index	stereocheck_testSound	stereocheck_correctResponse	DL_index	DL_soundfile	DL_leftSound	DL_rightSound	DL_dualSound	DL_choice
6.6.1	win	2023-06-26	23:19:52	23:26:01	365484	62b4370c9a89e5a09c4447de	3	1	practice_slash	5	practice_slash	1	stimuli_distractor_diamondtriangles.svg	stimuli_target_trianglerectangles.svg	9	yes	53	1	1967	0	0			0	0			1				0	
6.6.1	win	2023-06-26	23:19:52	23:26:01	365484	62b4370c9a89e5a09c4447de	3	1	practice_slash	5	advance_on_keypress_SLASH	2	stimuli_distractor_diamondtriangles.svg	stimuli_target_trianglerectangles.svg	9	yes	57	0	2410	0	0			0	0			1				0	
6.6.1	win	2023-06-26	23:19:52	23:26:06	370674	62b4370c9a89e5a09c4447de	3	1	practice_slash	5	practice_slash	3	stimuli_target_squarediamonds.svg	stimuli_distractor_diamondtriangles.svg	2	yes	53	1	1124	0	0			0	0			1				0	
6.6.1	win	2023-06-26	23:19:52	23:26:06	370674	62b4370c9a89e5a09c4447de	3	1	practice_slash	5	advance_on_keypress_SLASH	4	stimuli_target_squarediamonds.svg	stimuli_distractor_diamondtriangles.svg	2	yes	57	0	956	0	0			0	0			1				0	
6.6.1	win	2023-06-26	23:19:52	23:26:10	374708	62b4370c9a89e5a09c4447de	3	1	practice_slash	5	practice_slash	5	stimuli_distractor_trianglediamonds.svg	stimuli_target_rectanglediamonds.svg	10	yes	53	1	1423	0	0			0	0			1				0	
6.6.1	win	2023-06-26	23:19:52	23:26:10	374708	62b4370c9a89e5a09c4447de	3	1	practice_slash	5	advance_on_keypress_SLASH	6	stimuli_distractor_trianglediamonds.svg	stimuli_target_rectanglediamonds.svg	10	yes	57	0	967	0	0			0	0			1				0	
6.6.1	win	2023-06-26	23:19:52	23:26:15	379318	62b4370c9a89e5a09c4447de	3	1	practice_slash	5	practice_slash	7	stimuli_distractor_diamondtriangles.svg	stimuli_distractor_trianglediamonds.svg	14	no	0	1	2000	0	0			0	0			1				0	
6.6.1	win	2023-06-26	23:19:52	23:26:15	379318	62b4370c9a89e5a09c4447de	3	1	practice_slash	5	advance_on_keypress_SLASH	8	stimuli_distractor_diamondtriangles.svg	stimuli_distractor_trianglediamonds.svg	14	no	57	0	778	0	0			0	0			1				0	
6.6.1	win	2023-06-26	23:19:52	23:26:19	383119	62b4370c9a89e5a09c4447de	3	1	practice_slash	5	practice_slash	9	stimuli_target_squarediamonds.svg	stimuli_distractor_trianglediamonds.svg	5	yes	53	1	1368	0	0			0	0			1				0	
6.6.1	win	2023-06-26	23:19:52	23:26:19	383119	62b4370c9a89e5a09c4447de	3	1	practice_slash	5	advance_on_keypress_SLASH	10	stimuli_target_squarediamonds.svg	stimuli_distractor_trianglediamonds.svg	5	yes	57	0	1107	0	0			0	0			1				0	
6.6.1	win	2023-06-26	23:19:52	23:26:23	387868	62b4370c9a89e5a09c4447de	3	1	practice_slash	5	practice_slash	11	stimuli_target_diamondsquares.svg	stimuli_distractor_trianglediamonds.svg	6	yes	0	0	2000	0	0			0	0			1				0	
6.6.1	win	2023-06-26	23:19:52	23:26:23	387868	62b4370c9a89e5a09c4447de	3	1	practice_slash	5	advance_on_keypress_SLASH	12	stimuli_target_diamondsquares.svg	stimuli_distractor_trianglediamonds.svg	6	yes	57	0	1003	0	0			0	0			1				0	
6.6.1	win	2023-06-26	23:19:52	23:26:27	391727	62b4370c9a89e5a09c4447de	3	1	practice_slash	5	practice_slash	13	stimuli_target_rectanglediamonds.svg	stimuli_distractor_trianglediamonds.svg	4	yes	53	1	1209	0	0			0	0			1				0	
6.6.1	win	2023-06-26	23:19:52	23:26:27	391727	62b4370c9a89e5a09c4447de	3	1	practice_slash	5	advance_on_keypress_SLASH	14	stimuli_target_rectanglediamonds.svg	stimuli_distractor_trianglediamonds.svg	4	yes	57	0	1106	0	0			0	0			1				0	
6.6.1	win	2023-06-26	23:19:52	23:26:32	396469	62b4370c9a89e5a09c4447de	3	1	practice_slash	5	practice_slash	15	stimuli_distractor_diamondtriangles.svg	stimuli_distractor_diamondtriangles.svg	13	no	0	1	2000	0	0			0	0			1				0	
6.6.1	win	2023-06-26	23:19:52	23:26:32	396469	62b4370c9a89e5a09c4447de	3	1	practice_slash	5	advance_on_keypress_SLASH	16	stimuli_distractor_diamondtriangles.svg	stimuli_distractor_diamondtriangles.svg	13	no	57	0	962	0	0			0	0			1				0	
6.6.1	win	2023-06-26	23:19:52	23:26:36	400379	62b4370c9a89e5a09c4447de	3	1	practice_slash	5	practice_slash	17	stimuli_distractor_diamondtriangles.svg	stimuli_target_rectangletriangles.svg	7	yes	53	1	1293	0	0			0	0			1				0	
6.6.1	win	2023-06-26	23:19:52	23:26:36	400379	62b4370c9a89e5a09c4447de	3	1	practice_slash	5	advance_on_keypress_SLASH	18	stimuli_distractor_diamondtriangles.svg	stimuli_target_rectangletriangles.svg	7	yes	57	0	901	0	0			0	0			1				0	
6.6.1	win	2023-06-26	23:19:52	23:26:40	404038	62b4370c9a89e5a09c4447de	3	1	practice_slash	5	practice_slash	19	stimuli_distractor_trianglediamonds.svg	stimuli_target_squarediamonds.svg	11	yes	53	1	1102	0	0			0	0			1				0	
6.6.1	win	2023-06-26	23:19:52	23:26:40	404038	62b4370c9a89e5a09c4447de	3	1	practice_slash	5	advance_on_keypress_SLASH	20	stimuli_distractor_trianglediamonds.svg	stimuli_target_squarediamonds.svg	11	yes	57	0	961	0	0			0	0			1				0	
6.6.1	win	2023-06-26	23:19:52	23:26:44	408653	62b4370c9a89e5a09c4447de	3	1	practice_slash	5	practice_slash	21	stimuli_distractor_trianglediamonds.svg	stimuli_distractor_diamondtriangles.svg	16	no	0	1	2000	0	0			0	0			1				0	
6.6.1	win	2023-06-26	23:19:52	23:26:44	408653	62b4370c9a89e5a09c4447de	3	1	practice_slash	5	advance_on_keypress_SLASH	22	stimuli_distractor_trianglediamonds.svg	stimuli_distractor_diamondtriangles.svg	16	no	57	0	782	0	0			0	0			1				0	
6.6.1	win	2023-06-26	23:19:52	23:26:49	413087	62b4370c9a89e5a09c4447de	3	1	practice_slash	5	practice_slash	23	stimuli_distractor_trianglediamonds.svg	stimuli_distractor_trianglediamonds.svg	15	no	0	1	2000	0	0			0	0			1				0	
6.6.1	win	2023-06-26	23:19:52	23:26:49	413087	62b4370c9a89e5a09c4447de	3	1	practice_slash	5	advance_on_keypress_SLASH	24	stimuli_distractor_trianglediamonds.svg	stimuli_distractor_trianglediamonds.svg	15	no	57	0	914	0	0			0	0			1				0	
6.6.1	win	2023-06-26	23:19:52	23:26:52	416711	62b4370c9a89e5a09c4447de	3	1	practice_slash	5	practice_slash	25	stimuli_target_rectanglediamonds.svg	stimuli_distractor_diamondtriangles.svg	1	yes	53	1	1056	0	0			0	0			1				0	
6.6.1	win	2023-06-26	23:19:52	23:26:52	416711	62b4370c9a89e5a09c4447de	3	1	practice_slash	5	advance_on_keypress_SLASH	26	stimuli_target_rectanglediamonds.svg	stimuli_distractor_diamondtriangles.svg	1	yes	57	0	911	0	0			0	0			1				0	
6.6.1	win	2023-06-26	23:19:52	23:26:57	421271	62b4370c9a89e5a09c4447de	3	1	practice_slash	5	practice_slash	27	stimuli_target_diamondsquares.svg	stimuli_distractor_diamondtriangles.svg	3	yes	0	0	2000	0	0			0	0			1				0	
6.6.1	win	2023-06-26	23:19:52	23:26:57	421271	62b4370c9a89e5a09c4447de	3	1	practice_slash	5	advance_on_keypress_SLASH	28	stimuli_target_diamondsquares.svg	stimuli_distractor_diamondtriangles.svg	3	yes	57	0	910	0	0			0	0			1				0	
6.6.1	win	2023-06-26	23:19:52	23:27:01	425838	62b4370c9a89e5a09c4447de	3	1	practice_slash	5	practice_slash	29	stimuli_distractor_diamondtriangles.svg	stimuli_target_diamondrectangles.svg	8	yes	0	0	2000	0	0			0	0			1				0	
6.6.1	win	2023-06-26	23:19:52	23:27:01	425838	62b4370c9a89e5a09c4447de	3	1	practice_slash	5	advance_on_keypress_SLASH	30	stimuli_distractor_diamondtriangles.svg	stimuli_target_diamondrectangles.svg	8	yes	57	0	935	0	0			0	0			1				0	
6.6.1	win	2023-06-26	23:19:52	23:27:05	429791	62b4370c9a89e5a09c4447de	3	1	practice_slash	5	practice_slash	31	stimuli_distractor_trianglediamonds.svg	stimuli_target_diamondrectangles.svg	12	yes	53	1	1370	0	0			0	0			1				0	
6.6.1	win	2023-06-26	23:19:52	23:27:05	429791	62b4370c9a89e5a09c4447de	3	1	practice_slash	5	advance_on_keypress_SLASH	32	stimuli_distractor_trianglediamonds.svg	stimuli_target_diamondrectangles.svg	12	yes	57	0	993	0	0			0	0			1				0	
6.6.1	win	2023-06-26	23:19:52	23:27:16	440020	62b4370c9a89e5a09c4447de	3	1	main_slash	7	main_slash	1	stimuli_distractor_diamondtriangles.svg	stimuli_distractor_trianglediamonds.svg	37	no	0	1	2000	0	0			0	0			1				0	
6.6.1	win	2023-06-26	23:19:52	23:27:16	440020	62b4370c9a89e5a09c4447de	3	1	main_slash	7	advance_on_keypress_SLASH	2	stimuli_distractor_diamondtriangles.svg	stimuli_distractor_trianglediamonds.svg	37	no	57	0	1143	0	0			0	0			1				0	
6.6.1	win	2023-06-26	23:19:52	23:27:18	442696	62b4370c9a89e5a09c4447de	3	1	main_slash	7	main_slash	3	stimuli_distractor_trianglediamonds.svg	stimuli_target_rectanglediamonds.svg	10	yes	53	1	891	0	0			0	0			1				0	
6.6.1	win	2023-06-26	23:19:52	23:27:18	442696	62b4370c9a89e5a09c4447de	3	1	main_slash	7	advance_on_keypress_SLASH	4	stimuli_distractor_trianglediamonds.svg	stimuli_target_rectanglediamonds.svg	10	yes	57	0	1146	0	0			0	0			1				0	
6.6.1	win	2023-06-26	23:19:52	23:27:22	446488	62b4370c9a89e5a09c4447de	3	1	main_slash	7	main_slash	5	stimuli_distractor_diamondtriangles.svg	stimuli_target_diamondrectangles.svg	31	yes	0	0	2000	0	0			0	0			1				0	
6.6.1	win	2023-06-26	23:19:52	23:27:22	446488	62b4370c9a89e5a09c4447de	3	1	main_slash	7	advance_on_keypress_SLASH	6	stimuli_distractor_diamondtriangles.svg	stimuli_target_diamondrectangles.svg	31	yes	57	0	635	0	0			0	0			1				0	
6.6.1	win	2023-06-26	23:19:52	23:27:25	449431	62b4370c9a89e5a09c4447de	3	1	main_slash	7	main_slash	7	stimuli_distractor_trianglediamonds.svg	stimuli_target_diamondsquares.svg	28	yes	53	1	1659	0	0			0	0			1				0	
6.6.1	win	2023-06-26	23:19:52	23:27:25	449431	62b4370c9a89e5a09c4447de	3	1	main_slash	7	advance_on_keypress_SLASH	8	stimuli_distractor_trianglediamonds.svg	stimuli_target_diamondsquares.svg	28	yes	57	0	1016	0	0			0	0			1				0	
6.6.1	win	2023-06-26	23:19:52	23:27:27	451888	62b4370c9a89e5a09c4447de	3	1	main_slash	7	main_slash	9	stimuli_distractor_diamondtriangles.svg	stimuli_target_squarediamonds.svg	16	yes	53	1	800	0	0			0	0			1				0	
6.6.1	win	2023-06-26	23:19:52	23:27:27	451888	62b4370c9a89e5a09c4447de	3	1	main_slash	7	advance_on_keypress_SLASH	10	stimuli_distractor_diamondtriangles.svg	stimuli_target_squarediamonds.svg	16	yes	57	0	916	0	0			0	0			1				0	
6.6.1	win	2023-06-26	23:19:52	23:27:30	454726	62b4370c9a89e5a09c4447de	3	1	main_slash	7	main_slash	11	stimuli_distractor_diamondtriangles.svg	stimuli_distractor_diamondtriangles.svg	39	no	53	0	1272	0	0			0	0			1				0	
6.6.1	win	2023-06-26	23:19:52	23:27:30	454726	62b4370c9a89e5a09c4447de	3	1	main_slash	7	advance_on_keypress_SLASH	12	stimuli_distractor_diamondtriangles.svg	stimuli_distractor_diamondtriangles.svg	39	no	57	0	895	0	0			0	0			1				0	
6.6.1	win	2023-06-26	23:19:52	23:27:33	457315	62b4370c9a89e5a09c4447de	3	1	main_slash	7	main_slash	13	stimuli_target_squaretriangles.svg	stimuli_distractor_trianglediamonds.svg	3	yes	53	1	1044	0	0			0	0			1				0	
6.6.1	win	2023-06-26	23:19:52	23:27:33	457315	62b4370c9a89e5a09c4447de	3	1	main_slash	7	advance_on_keypress_SLASH	14	stimuli_target_squaretriangles.svg	stimuli_distractor_trianglediamonds.svg	3	yes	57	0	829	0	0			0	0			1				0	
6.6.1	win	2023-06-26	23:19:52	23:27:35	459413	62b4370c9a89e5a09c4447de	3	1	main_slash	7	main_slash	15	stimuli_distractor_diamondtriangles.svg	stimuli_target_rectangletriangles.svg	13	yes	53	1	625	0	0			0	0			1				0	
6.6.1	win	2023-06-26	23:19:52	23:27:35	459413	62b4370c9a89e5a09c4447de	3	1	main_slash	7	advance_on_keypress_SLASH	16	stimuli_distractor_diamondtriangles.svg	stimuli_target_rectangletriangles.svg	13	yes	57	0	757	0	0			0	0			1				0	
6.6.1	win	2023-06-26	23:19:52	23:27:37	461461	62b4370c9a89e5a09c4447de	3	1	main_slash	7	main_slash	17	stimuli_distractor_diamondtriangles.svg	stimuli_distractor_diamondtriangles.svg	40	no	53	0	655	0	0			0	0			1				0	
6.6.1	win	2023-06-26	23:19:52	23:27:37	461461	62b4370c9a89e5a09c4447de	3	1	main_slash	7	advance_on_keypress_SLASH	18	stimuli_distractor_diamondtriangles.svg	stimuli_distractor_diamondtriangles.svg	40	no	57	0	839	0	0			0	0			1				0	
6.6.1	win	2023-06-26	23:19:52	23:27:39	463807	62b4370c9a89e5a09c4447de	3	1	main_slash	7	main_slash	19	stimuli_distractor_diamondtriangles.svg	stimuli_target_rectanglediamonds.svg	14	yes	53	1	868	0	0			0	0			1				0	
6.6.1	win	2023-06-26	23:19:52	23:27:39	463807	62b4370c9a89e5a09c4447de	3	1	main_slash	7	advance_on_keypress_SLASH	20	stimuli_distractor_diamondtriangles.svg	stimuli_target_rectanglediamonds.svg	14	yes	57	0	618	0	0			0	0			1				0	
6.6.1	win	2023-06-26	23:19:52	23:27:43	467073	62b4370c9a89e5a09c4447de	3	1	main_slash	7	main_slash	21	stimuli_target_trianglerectangles.svg	stimuli_distractor_diamondtriangles.svg	21	yes	0	0	2000	0	0			0	0			1				0	
6.6.1	win	2023-06-26	23:19:52	23:27:43	467073	62b4370c9a89e5a09c4447de	3	1	main_slash	7	advance_on_keypress_SLASH	22	stimuli_target_trianglerectangles.svg	stimuli_distractor_diamondtriangles.svg	21	yes	57	0	463	0	0			0	0			1				0	
6.6.1	win	2023-06-26	23:19:52	23:27:45	468966	62b4370c9a89e5a09c4447de	3	1	main_slash	7	main_slash	23	stimuli_target_rectangletriangles.svg	stimuli_distractor_trianglediamonds.svg	1	yes	53	1	777	0	0			0	0			1				0	
6.6.1	win	2023-06-26	23:19:52	23:27:45	468966	62b4370c9a89e5a09c4447de	3	1	main_slash	7	advance_on_keypress_SLASH	24	stimuli_target_rectangletriangles.svg	stimuli_distractor_trianglediamonds.svg	1	yes	57	0	738	0	0			0	0			1				0	
6.6.1	win	2023-06-26	23:19:52	23:27:48	472339	62b4370c9a89e5a09c4447de	3	1	main_slash	7	main_slash	25	stimuli_distractor_trianglediamonds.svg	stimuli_distractor_trianglediamonds.svg	34	no	0	1	2000	0	0			0	0			1				0	
6.6.1	win	2023-06-26	23:19:52	23:27:48	472339	62b4370c9a89e5a09c4447de	3	1	main_slash	7	advance_on_keypress_SLASH	26	stimuli_distractor_trianglediamonds.svg	stimuli_distractor_trianglediamonds.svg	34	no	57	0	434	0	0			0	0			1				0	
6.6.1	win	2023-06-26	23:19:52	23:27:50	474483	62b4370c9a89e5a09c4447de	3	1	main_slash	7	main_slash	27	stimuli_distractor_trianglediamonds.svg	stimuli_target_trianglerectangles.svg	25	yes	53	1	1059	0	0			0	0			1				0	
6.6.1	win	2023-06-26	23:19:52	23:27:50	474483	62b4370c9a89e5a09c4447de	3	1	main_slash	7	advance_on_keypress_SLASH	28	stimuli_distractor_trianglediamonds.svg	stimuli_target_trianglerectangles.svg	25	yes	57	0	891	0	0			0	0			1				0	
6.6.1	win	2023-06-26	23:19:52	23:27:54	478007	62b4370c9a89e5a09c4447de	3	1	main_slash	7	main_slash	29	stimuli_distractor_trianglediamonds.svg	stimuli_distractor_trianglediamonds.svg	33	no	0	1	2000	0	0			0	0			1				0	
6.6.1	win	2023-06-26	23:19:52	23:27:54	478007	62b4370c9a89e5a09c4447de	3	1	main_slash	7	advance_on_keypress_SLASH	30	stimuli_distractor_trianglediamonds.svg	stimuli_distractor_trianglediamonds.svg	33	no	57	0	2	0	0			0	0			1				0	
6.6.1	win	2023-06-26	23:19:52	23:27:55	479612	62b4370c9a89e5a09c4447de	3	1	main_slash	7	main_slash	31	stimuli_target_trianglerectangles.svg	stimuli_distractor_trianglediamonds.svg	17	yes	53	1	938	0	0			0	0			1				0	
6.6.1	win	2023-06-26	23:19:52	23:27:55	479612	62b4370c9a89e5a09c4447de	3	1	main_slash	7	advance_on_keypress_SLASH	32	stimuli_target_trianglerectangles.svg	stimuli_distractor_trianglediamonds.svg	17	yes	57	0	804	0	0			0	0			1				0	
6.6.1	win	2023-06-26	23:19:52	23:27:58	482394	62b4370c9a89e5a09c4447de	3	1	main_slash	7	main_slash	33	stimuli_distractor_diamondtriangles.svg	stimuli_target_trianglesquares.svg	30	yes	53	1	1337	0	0			0	0			1				0	
6.6.1	win	2023-06-26	23:19:52	23:27:58	482394	62b4370c9a89e5a09c4447de	3	1	main_slash	7	advance_on_keypress_SLASH	34	stimuli_distractor_diamondtriangles.svg	stimuli_target_trianglesquares.svg	30	yes	57	0	757	0	0			0	0			1				0	
6.6.1	win	2023-06-26	23:19:52	23:28:00	484760	62b4370c9a89e5a09c4447de	3	1	main_slash	7	main_slash	35	stimuli_distractor_diamondtriangles.svg	stimuli_target_squaretriangles.svg	15	yes	53	1	970	0	0			0	0			1				0	
6.6.1	win	2023-06-26	23:19:52	23:28:00	484760	62b4370c9a89e5a09c4447de	3	1	main_slash	7	advance_on_keypress_SLASH	36	stimuli_distractor_diamondtriangles.svg	stimuli_target_squaretriangles.svg	15	yes	57	0	767	0	0			0	0			1				0	
6.6.1	win	2023-06-26	23:19:52	23:28:03	487771	62b4370c9a89e5a09c4447de	3	1	main_slash	7	main_slash	37	stimuli_target_trianglesquares.svg	stimuli_distractor_trianglediamonds.svg	18	yes	53	1	1597	0	0			0	0			1				0	
6.6.1	win	2023-06-26	23:19:52	23:28:03	487771	62b4370c9a89e5a09c4447de	3	1	main_slash	7	advance_on_keypress_SLASH	38	stimuli_target_trianglesquares.svg	stimuli_distractor_trianglediamonds.svg	18	yes	57	0	696	0	0			0	0			1				0	
6.6.1	win	2023-06-26	23:19:52	23:28:06	490423	62b4370c9a89e5a09c4447de	3	1	main_slash	7	main_slash	39	stimuli_target_trianglesquares.svg	stimuli_distractor_diamondtriangles.svg	22	yes	53	1	1298	0	0			0	0			1				0	
6.6.1	win	2023-06-26	23:19:52	23:28:06	490423	62b4370c9a89e5a09c4447de	3	1	main_slash	7	advance_on_keypress_SLASH	40	stimuli_target_trianglesquares.svg	stimuli_distractor_diamondtriangles.svg	22	yes	57	0	802	0	0			0	0			1				0	
6.6.1	win	2023-06-26	23:19:52	23:28:09	493042	62b4370c9a89e5a09c4447de	3	1	main_slash	7	main_slash	41	stimuli_distractor_trianglediamonds.svg	stimuli_target_trianglesquares.svg	26	yes	53	1	1168	0	0			0	0			1				0	
6.6.1	win	2023-06-26	23:19:52	23:28:09	493042	62b4370c9a89e5a09c4447de	3	1	main_slash	7	advance_on_keypress_SLASH	42	stimuli_distractor_trianglediamonds.svg	stimuli_target_trianglesquares.svg	26	yes	57	0	754	0	0			0	0			1				0	
6.6.1	win	2023-06-26	23:19:52	23:28:11	495748	62b4370c9a89e5a09c4447de	3	1	main_slash	7	main_slash	43	stimuli_distractor_trianglediamonds.svg	stimuli_target_diamondrectangles.svg	27	yes	53	1	1307	0	0			0	0			1				0	
6.6.1	win	2023-06-26	23:19:52	23:28:11	495748	62b4370c9a89e5a09c4447de	3	1	main_slash	7	advance_on_keypress_SLASH	44	stimuli_distractor_trianglediamonds.svg	stimuli_target_diamondrectangles.svg	27	yes	57	0	766	0	0			0	0			1				0	
6.6.1	win	2023-06-26	23:19:52	23:28:15	499158	62b4370c9a89e5a09c4447de	3	1	main_slash	7	main_slash	45	stimuli_target_diamondrectangles.svg	stimuli_distractor_diamondtriangles.svg	23	yes	0	0	2000	0	0			0	0			1				0	
6.6.1	win	2023-06-26	23:19:52	23:28:15	499158	62b4370c9a89e5a09c4447de	3	1	main_slash	7	advance_on_keypress_SLASH	46	stimuli_target_diamondrectangles.svg	stimuli_distractor_diamondtriangles.svg	23	yes	57	0	521	0	0			0	0			1				0	
6.6.1	win	2023-06-26	23:19:52	23:28:18	502325	62b4370c9a89e5a09c4447de	3	1	main_slash	7	main_slash	47	stimuli_target_diamondsquares.svg	stimuli_distractor_diamondtriangles.svg	24	yes	0	0	2000	0	0			0	0			1				0	
6.6.1	win	2023-06-26	23:19:52	23:28:18	502325	62b4370c9a89e5a09c4447de	3	1	main_slash	7	advance_on_keypress_SLASH	48	stimuli_target_diamondsquares.svg	stimuli_distractor_diamondtriangles.svg	24	yes	57	0	450	0	0			0	0			1				0	
6.6.1	win	2023-06-26	23:19:52	23:28:20	504369	62b4370c9a89e5a09c4447de	3	1	main_slash	7	main_slash	49	stimuli_distractor_trianglediamonds.svg	stimuli_target_squaretriangles.svg	11	yes	53	1	944	0	0			0	0			1				0	
6.6.1	win	2023-06-26	23:19:52	23:28:20	504369	62b4370c9a89e5a09c4447de	3	1	main_slash	7	advance_on_keypress_SLASH	50	stimuli_distractor_trianglediamonds.svg	stimuli_target_squaretriangles.svg	11	yes	57	0	880	0	0			0	0			1				0	
6.6.1	win	2023-06-26	23:19:52	23:28:23	507141	62b4370c9a89e5a09c4447de	3	1	main_slash	7	main_slash	51	stimuli_target_rectanglediamonds.svg	stimuli_distractor_diamondtriangles.svg	6	yes	53	1	1249	0	0			0	0			1				0	
6.6.1	win	2023-06-26	23:19:52	23:28:23	507141	62b4370c9a89e5a09c4447de	3	1	main_slash	7	advance_on_keypress_SLASH	52	stimuli_target_rectanglediamonds.svg	stimuli_distractor_diamondtriangles.svg	6	yes	57	0	752	0	0			0	0			1				0	
6.6.1	win	2023-06-26	23:19:52	23:28:26	510030	62b4370c9a89e5a09c4447de	3	1	main_slash	7	main_slash	53	stimuli_distractor_diamondtriangles.svg	stimuli_distractor_trianglediamonds.svg	38	no	53	0	1488	0	0			0	0			1				0	
6.6.1	win	2023-06-26	23:19:52	23:28:26	510030	62b4370c9a89e5a09c4447de	3	1	main_slash	7	advance_on_keypress_SLASH	54	stimuli_distractor_diamondtriangles.svg	stimuli_distractor_trianglediamonds.svg	38	no	57	0	641	0	0			0	0			1				0	
6.6.1	win	2023-06-26	23:19:52	23:28:28	512640	62b4370c9a89e5a09c4447de	3	1	main_slash	7	main_slash	55	stimuli_distractor_diamondtriangles.svg	stimuli_target_diamondsquares.svg	32	yes	53	1	1331	0	0			0	0			1				0	
6.6.1	win	2023-06-26	23:19:52	23:28:28	512640	62b4370c9a89e5a09c4447de	3	1	main_slash	7	advance_on_keypress_SLASH	56	stimuli_distractor_diamondtriangles.svg	stimuli_target_diamondsquares.svg	32	yes	57	0	503	0	0			0	0			1				0	
6.6.1	win	2023-06-26	23:19:52	23:28:30	514658	62b4370c9a89e5a09c4447de	3	1	main_slash	7	main_slash	57	stimuli_distractor_trianglediamonds.svg	stimuli_target_rectangletriangles.svg	9	yes	53	1	865	0	0			0	0			1				0	
6.6.1	win	2023-06-26	23:19:52	23:28:30	514658	62b4370c9a89e5a09c4447de	3	1	main_slash	7	advance_on_keypress_SLASH	58	stimuli_distractor_trianglediamonds.svg	stimuli_target_rectangletriangles.svg	9	yes	57	0	715	0	0			0	0			1				0	
6.6.1	win	2023-06-26	23:19:52	23:28:34	518026	62b4370c9a89e5a09c4447de	3	1	main_slash	7	main_slash	59	stimuli_distractor_trianglediamonds.svg	stimuli_distractor_diamondtriangles.svg	35	no	0	1	2000	0	0			0	0			1				0	
6.6.1	win	2023-06-26	23:19:52	23:28:34	518026	62b4370c9a89e5a09c4447de	3	1	main_slash	7	advance_on_keypress_SLASH	60	stimuli_distractor_trianglediamonds.svg	stimuli_distractor_diamondtriangles.svg	35	no	57	0	115	0	0			0	0			1				0	
6.6.1	win	2023-06-26	23:19:52	23:28:35	519785	62b4370c9a89e5a09c4447de	3	1	main_slash	7	main_slash	61	stimuli_target_rectanglediamonds.svg	stimuli_distractor_trianglediamonds.svg	2	yes	53	1	991	0	0			0	0			1				0	
6.6.1	win	2023-06-26	23:19:52	23:28:35	519785	62b4370c9a89e5a09c4447de	3	1	main_slash	7	advance_on_keypress_SLASH	62	stimuli_target_rectanglediamonds.svg	stimuli_distractor_trianglediamonds.svg	2	yes	57	0	534	0	0			0	0			1				0	
6.6.1	win	2023-06-26	23:19:52	23:28:38	522223	62b4370c9a89e5a09c4447de	3	1	main_slash	7	main_slash	63	stimuli_target_diamondsquares.svg	stimuli_distractor_trianglediamonds.svg	20	yes	53	1	1263	0	0			0	0			1				0	
6.6.1	win	2023-06-26	23:19:52	23:28:38	522223	62b4370c9a89e5a09c4447de	3	1	main_slash	7	advance_on_keypress_SLASH	64	stimuli_target_diamondsquares.svg	stimuli_distractor_trianglediamonds.svg	20	yes	57	0	532	0	0			0	0			1				0	
6.6.1	win	2023-06-26	23:19:52	23:28:40	524473	62b4370c9a89e5a09c4447de	3	1	main_slash	7	main_slash	65	stimuli_target_squaretriangles.svg	stimuli_distractor_diamondtriangles.svg	7	yes	53	1	1062	0	0			0	0			1				0	
6.6.1	win	2023-06-26	23:19:52	23:28:40	524473	62b4370c9a89e5a09c4447de	3	1	main_slash	7	advance_on_keypress_SLASH	66	stimuli_target_squaretriangles.svg	stimuli_distractor_diamondtriangles.svg	7	yes	57	0	462	0	0			0	0			1				0	
6.6.1	win	2023-06-26	23:19:52	23:28:42	526187	62b4370c9a89e5a09c4447de	3	1	main_slash	7	main_slash	67	stimuli_distractor_trianglediamonds.svg	stimuli_target_squarediamonds.svg	12	yes	53	1	593	0	0			0	0			1				0	
6.6.1	win	2023-06-26	23:19:52	23:28:42	526187	62b4370c9a89e5a09c4447de	3	1	main_slash	7	advance_on_keypress_SLASH	68	stimuli_distractor_trianglediamonds.svg	stimuli_target_squarediamonds.svg	12	yes	57	0	699	0	0			0	0			1				0	
6.6.1	win	2023-06-26	23:19:52	23:28:44	528154	62b4370c9a89e5a09c4447de	3	1	main_slash	7	main_slash	69	stimuli_target_rectangletriangles.svg	stimuli_distractor_diamondtriangles.svg	5	yes	53	1	626	0	0			0	0			1				0	
6.6.1	win	2023-06-26	23:19:52	23:28:44	528154	62b4370c9a89e5a09c4447de	3	1	main_slash	7	advance_on_keypress_SLASH	70	stimuli_target_rectangletriangles.svg	stimuli_distractor_diamondtriangles.svg	5	yes	57	0	576	0	0			0	0			1				0	
6.6.1	win	2023-06-26	23:19:52	23:28:46	530024	62b4370c9a89e5a09c4447de	3	1	main_slash	7	main_slash	71	stimuli_target_squarediamonds.svg	stimuli_distractor_trianglediamonds.svg	4	yes	53	1	664	0	0			0	0			1				0	
6.6.1	win	2023-06-26	23:19:52	23:28:46	530024	62b4370c9a89e5a09c4447de	3	1	main_slash	7	advance_on_keypress_SLASH	72	stimuli_target_squarediamonds.svg	stimuli_distractor_trianglediamonds.svg	4	yes	57	0	562	0	0			0	0			1				0	
6.6.1	win	2023-06-26	23:19:52	23:28:48	531939	62b4370c9a89e5a09c4447de	3	1	main_slash	7	main_slash	73	stimuli_target_squarediamonds.svg	stimuli_distractor_diamondtriangles.svg	8	yes	53	1	695	0	0			0	0			1				0	
6.6.1	win	2023-06-26	23:19:52	23:28:48	531939	62b4370c9a89e5a09c4447de	3	1	main_slash	7	advance_on_keypress_SLASH	74	stimuli_target_squarediamonds.svg	stimuli_distractor_diamondtriangles.svg	8	yes	57	0	517	0	0			0	0			1				0	
6.6.1	win	2023-06-26	23:19:52	23:28:51	535094	62b4370c9a89e5a09c4447de	3	1	main_slash	7	main_slash	75	stimuli_distractor_trianglediamonds.svg	stimuli_distractor_diamondtriangles.svg	36	no	0	1	2000	0	0			0	0			1				0	
6.6.1	win	2023-06-26	23:19:52	23:28:51	535094	62b4370c9a89e5a09c4447de	3	1	main_slash	7	advance_on_keypress_SLASH	76	stimuli_distractor_trianglediamonds.svg	stimuli_distractor_diamondtriangles.svg	36	no	57	0	1394	0	0			0	0			1				0	
6.6.1	win	2023-06-26	23:19:52	23:28:54	538213	62b4370c9a89e5a09c4447de	3	1	main_slash	7	main_slash	77	stimuli_distractor_diamondtriangles.svg	stimuli_target_trianglerectangles.svg	29	yes	53	1	1085	0	0			0	0			1				0	
6.6.1	win	2023-06-26	23:19:52	23:28:54	538213	62b4370c9a89e5a09c4447de	3	1	main_slash	7	advance_on_keypress_SLASH	78	stimuli_distractor_diamondtriangles.svg	stimuli_target_trianglerectangles.svg	29	yes	57	0	624	0	0			0	0			1				0	
6.6.1	win	2023-06-26	23:19:52	23:28:57	541478	62b4370c9a89e5a09c4447de	3	1	main_slash	7	main_slash	79	stimuli_target_diamondrectangles.svg	stimuli_distractor_trianglediamonds.svg	19	yes	0	0	2000	0	0			0	0			1				0	
6.6.1	win	2023-06-26	23:19:52	23:28:57	541478	62b4370c9a89e5a09c4447de	3	1	main_slash	7	advance_on_keypress_SLASH	80	stimuli_target_diamondrectangles.svg	stimuli_distractor_trianglediamonds.svg	19	yes	57	0	857	0	0			0	0			1				0	
6.6.1	win	2023-06-26	23:19:52	23:29:01	544978	62b4370c9a89e5a09c4447de	3	1	main_slash	7	main_slash	81	stimuli_distractor_diamondtriangles.svg	stimuli_distractor_diamondtriangles.svg	39	no	0	1	2000	0	0			0	0			1				0	
6.6.1	win	2023-06-26	23:19:52	23:29:01	544978	62b4370c9a89e5a09c4447de	3	1	main_slash	7	advance_on_keypress_SLASH	82	stimuli_distractor_diamondtriangles.svg	stimuli_distractor_diamondtriangles.svg	39	no	57	0	652	0	0			0	0			1				0	
6.6.1	win	2023-06-26	23:19:52	23:29:03	547032	62b4370c9a89e5a09c4447de	3	1	main_slash	7	main_slash	83	stimuli_target_squaretriangles.svg	stimuli_distractor_diamondtriangles.svg	7	yes	53	1	753	0	0			0	0			1				0	
6.6.1	win	2023-06-26	23:19:52	23:29:03	547032	62b4370c9a89e5a09c4447de	3	1	main_slash	7	advance_on_keypress_SLASH	84	stimuli_target_squaretriangles.svg	stimuli_distractor_diamondtriangles.svg	7	yes	57	0	549	0	0			0	0			1				0	
6.6.1	win	2023-06-26	23:19:52	23:29:06	550229	62b4370c9a89e5a09c4447de	3	1	main_slash	7	main_slash	85	stimuli_distractor_diamondtriangles.svg	stimuli_distractor_trianglediamonds.svg	38	no	0	1	2000	0	0			0	0			1				0	
6.6.1	win	2023-06-26	23:19:52	23:29:06	550229	62b4370c9a89e5a09c4447de	3	1	main_slash	7	advance_on_keypress_SLASH	86	stimuli_distractor_diamondtriangles.svg	stimuli_distractor_trianglediamonds.svg	38	no	57	0	178	0	0			0	0			1				0	
6.6.1	win	2023-06-26	23:19:52	23:29:07	551619	62b4370c9a89e5a09c4447de	3	1	main_slash	7	main_slash	87	stimuli_target_squarediamonds.svg	stimuli_distractor_trianglediamonds.svg	4	yes	53	1	574	0	0			0	0			1				0	
6.6.1	win	2023-06-26	23:19:52	23:29:07	551619	62b4370c9a89e5a09c4447de	3	1	main_slash	7	advance_on_keypress_SLASH	88	stimuli_target_squarediamonds.svg	stimuli_distractor_trianglediamonds.svg	4	yes	57	0	513	0	0			0	0			1				0	
6.6.1	win	2023-06-26	23:19:52	23:29:09	553445	62b4370c9a89e5a09c4447de	3	1	main_slash	7	main_slash	89	stimuli_target_squaretriangles.svg	stimuli_distractor_trianglediamonds.svg	3	yes	53	1	665	0	0			0	0			1				0	
6.6.1	win	2023-06-26	23:19:52	23:29:09	553445	62b4370c9a89e5a09c4447de	3	1	main_slash	7	advance_on_keypress_SLASH	90	stimuli_target_squaretriangles.svg	stimuli_distractor_trianglediamonds.svg	3	yes	57	0	474	0	0			0	0			1				0	
6.6.1	win	2023-06-26	23:19:52	23:29:11	555204	62b4370c9a89e5a09c4447de	3	1	main_slash	7	main_slash	91	stimuli_distractor_trianglediamonds.svg	stimuli_target_rectanglediamonds.svg	10	yes	53	1	642	0	0			0	0			1				0	
6.6.1	win	2023-06-26	23:19:52	23:29:11	555204	62b4370c9a89e5a09c4447de	3	1	main_slash	7	advance_on_keypress_SLASH	92	stimuli_distractor_trianglediamonds.svg	stimuli_target_rectanglediamonds.svg	10	yes	57	0	463	0	0			0	0			1				0	
6.6.1	win	2023-06-26	23:19:52	23:29:12	556668	62b4370c9a89e5a09c4447de	3	1	main_slash	7	main_slash	93	stimuli_distractor_diamondtriangles.svg	stimuli_target_squarediamonds.svg	16	yes	53	1	356	0	0			0	0			1				0	
6.6.1	win	2023-06-26	23:19:52	23:29:12	556668	62b4370c9a89e5a09c4447de	3	1	main_slash	7	advance_on_keypress_SLASH	94	stimuli_distractor_diamondtriangles.svg	stimuli_target_squarediamonds.svg	16	yes	57	0	471	0	0			0	0			1				0	
6.6.1	win	2023-06-26	23:19:52	23:29:15	559779	62b4370c9a89e5a09c4447de	3	1	main_slash	7	main_slash	95	stimuli_target_diamondsquares.svg	stimuli_distractor_trianglediamonds.svg	20	yes	0	0	2000	0	0			0	0			1				0	
6.6.1	win	2023-06-26	23:19:52	23:29:15	559779	62b4370c9a89e5a09c4447de	3	1	main_slash	7	advance_on_keypress_SLASH	96	stimuli_target_diamondsquares.svg	stimuli_distractor_trianglediamonds.svg	20	yes	57	0	386	0	0			0	0			1				0	
6.6.1	win	2023-06-26	23:19:52	23:29:17	561277	62b4370c9a89e5a09c4447de	3	1	main_slash	7	main_slash	97	stimuli_distractor_trianglediamonds.svg	stimuli_target_rectangletriangles.svg	9	yes	53	1	463	0	0			0	0			1				0	
6.6.1	win	2023-06-26	23:19:52	23:29:17	561277	62b4370c9a89e5a09c4447de	3	1	main_slash	7	advance_on_keypress_SLASH	98	stimuli_distractor_trianglediamonds.svg	stimuli_target_rectangletriangles.svg	9	yes	57	0	553	0	0			0	0			1				0	
6.6.1	win	2023-06-26	23:19:52	23:29:20	564480	62b4370c9a89e5a09c4447de	3	1	main_slash	7	main_slash	99	stimuli_distractor_trianglediamonds.svg	stimuli_distractor_diamondtriangles.svg	35	no	0	1	2000	0	0			0	0			1				0	
6.6.1	win	2023-06-26	23:19:52	23:29:20	564480	62b4370c9a89e5a09c4447de	3	1	main_slash	7	advance_on_keypress_SLASH	100	stimuli_distractor_trianglediamonds.svg	stimuli_distractor_diamondtriangles.svg	35	no	57	0	425	0	0			0	0			1				0	
6.6.1	win	2023-06-26	23:19:52	23:29:22	566132	62b4370c9a89e5a09c4447de	3	1	main_slash	7	main_slash	101	stimuli_distractor_trianglediamonds.svg	stimuli_target_diamondsquares.svg	28	yes	53	1	586	0	0			0	0			1				0	
6.6.1	win	2023-06-26	23:19:52	23:29:22	566132	62b4370c9a89e5a09c4447de	3	1	main_slash	7	advance_on_keypress_SLASH	102	stimuli_distractor_trianglediamonds.svg	stimuli_target_diamondsquares.svg	28	yes	57	0	578	0	0			0	0			1				0	
6.6.1	win	2023-06-26	23:19:52	23:29:24	567943	62b4370c9a89e5a09c4447de	3	1	main_slash	7	main_slash	103	stimuli_target_rectanglediamonds.svg	stimuli_distractor_diamondtriangles.svg	6	yes	53	1	579	0	0			0	0			1				0	
6.6.1	win	2023-06-26	23:19:52	23:29:24	567943	62b4370c9a89e5a09c4447de	3	1	main_slash	7	advance_on_keypress_SLASH	104	stimuli_target_rectanglediamonds.svg	stimuli_distractor_diamondtriangles.svg	6	yes	57	0	562	0	0			0	0			1				0	
6.6.1	win	2023-06-26	23:19:52	23:29:27	571164	62b4370c9a89e5a09c4447de	3	1	main_slash	7	main_slash	105	stimuli_distractor_trianglediamonds.svg	stimuli_distractor_diamondtriangles.svg	36	no	0	1	2000	0	0			0	0			1				0	
6.6.1	win	2023-06-26	23:19:52	23:29:27	571164	62b4370c9a89e5a09c4447de	3	1	main_slash	7	advance_on_keypress_SLASH	106	stimuli_distractor_trianglediamonds.svg	stimuli_distractor_diamondtriangles.svg	36	no	57	0	1291	0	0			0	0			1				0	
6.6.1	win	2023-06-26	23:19:52	23:29:29	573647	62b4370c9a89e5a09c4447de	3	1	main_slash	7	main_slash	107	stimuli_target_rectangletriangles.svg	stimuli_distractor_trianglediamonds.svg	1	yes	53	1	550	0	0			0	0			1				0	
6.6.1	win	2023-06-26	23:19:52	23:29:29	573647	62b4370c9a89e5a09c4447de	3	1	main_slash	7	advance_on_keypress_SLASH	108	stimuli_target_rectangletriangles.svg	stimuli_distractor_trianglediamonds.svg	1	yes	57	0	560	0	0			0	0			1				0	
6.6.1	win	2023-06-26	23:19:52	23:29:31	575665	62b4370c9a89e5a09c4447de	3	1	main_slash	7	main_slash	109	stimuli_distractor_trianglediamonds.svg	stimuli_target_trianglesquares.svg	26	yes	53	1	818	0	0			0	0			1				0	
6.6.1	win	2023-06-26	23:19:52	23:29:31	575665	62b4370c9a89e5a09c4447de	3	1	main_slash	7	advance_on_keypress_SLASH	110	stimuli_distractor_trianglediamonds.svg	stimuli_target_trianglesquares.svg	26	yes	57	0	515	0	0			0	0			1				0	
6.6.1	win	2023-06-26	23:19:52	23:29:33	577561	62b4370c9a89e5a09c4447de	3	1	main_slash	7	main_slash	111	stimuli_target_trianglesquares.svg	stimuli_distractor_diamondtriangles.svg	22	yes	53	1	730	0	0			0	0			1				0	
6.6.1	win	2023-06-26	23:19:52	23:29:33	577561	62b4370c9a89e5a09c4447de	3	1	main_slash	7	advance_on_keypress_SLASH	112	stimuli_target_trianglesquares.svg	stimuli_distractor_diamondtriangles.svg	22	yes	57	0	573	0	0			0	0			1				0	
6.6.1	win	2023-06-26	23:19:52	23:29:35	579818	62b4370c9a89e5a09c4447de	3	1	main_slash	7	main_slash	113	stimuli_distractor_trianglediamonds.svg	stimuli_target_trianglerectangles.svg	25	yes	53	1	1036	0	0			0	0			1				0	
6.6.1	win	2023-06-26	23:19:52	23:29:35	579818	62b4370c9a89e5a09c4447de	3	1	main_slash	7	advance_on_keypress_SLASH	114	stimuli_distractor_trianglediamonds.svg	stimuli_target_trianglerectangles.svg	25	yes	57	0	497	0	0			0	0			1				0	
6.6.1	win	2023-06-26	23:19:52	23:29:37	581845	62b4370c9a89e5a09c4447de	3	1	main_slash	7	main_slash	115	stimuli_distractor_trianglediamonds.svg	stimuli_target_squaretriangles.svg	11	yes	53	1	881	0	0			0	0			1				0	
6.6.1	win	2023-06-26	23:19:52	23:29:37	581845	62b4370c9a89e5a09c4447de	3	1	main_slash	7	advance_on_keypress_SLASH	116	stimuli_distractor_trianglediamonds.svg	stimuli_target_squaretriangles.svg	11	yes	57	0	565	0	0			0	0			1				0	
6.6.1	win	2023-06-26	23:19:52	23:29:39	583585	62b4370c9a89e5a09c4447de	3	1	main_slash	7	main_slash	117	stimuli_target_rectangletriangles.svg	stimuli_distractor_diamondtriangles.svg	5	yes	53	1	520	0	0			0	0			1				0	
6.6.1	win	2023-06-26	23:19:52	23:29:39	583585	62b4370c9a89e5a09c4447de	3	1	main_slash	7	advance_on_keypress_SLASH	118	stimuli_target_rectangletriangles.svg	stimuli_distractor_diamondtriangles.svg	5	yes	57	0	519	0	0			0	0			1				0	
6.6.1	win	2023-06-26	23:19:52	23:29:42	586748	62b4370c9a89e5a09c4447de	3	1	main_slash	7	main_slash	119	stimuli_target_trianglerectangles.svg	stimuli_distractor_diamondtriangles.svg	21	yes	0	0	2000	0	0			0	0			1				0	
6.6.1	win	2023-06-26	23:19:52	23:29:42	586748	62b4370c9a89e5a09c4447de	3	1	main_slash	7	advance_on_keypress_SLASH	120	stimuli_target_trianglerectangles.svg	stimuli_distractor_diamondtriangles.svg	21	yes	57	0	403	0	0			0	0			1				0	
6.6.1	win	2023-06-26	23:19:52	23:29:44	588364	62b4370c9a89e5a09c4447de	3	1	main_slash	7	main_slash	121	stimuli_distractor_diamondtriangles.svg	stimuli_target_trianglesquares.svg	30	yes	53	1	566	0	0			0	0			1				0	
6.6.1	win	2023-06-26	23:19:52	23:29:44	588364	62b4370c9a89e5a09c4447de	3	1	main_slash	7	advance_on_keypress_SLASH	122	stimuli_distractor_diamondtriangles.svg	stimuli_target_trianglesquares.svg	30	yes	57	0	540	0	0			0	0			1				0	
6.6.1	win	2023-06-26	23:19:52	23:29:46	590068	62b4370c9a89e5a09c4447de	3	1	main_slash	7	main_slash	123	stimuli_distractor_diamondtriangles.svg	stimuli_target_squaretriangles.svg	15	yes	53	1	520	0	0			0	0			1				0	
6.6.1	win	2023-06-26	23:19:52	23:29:46	590068	62b4370c9a89e5a09c4447de	3	1	main_slash	7	advance_on_keypress_SLASH	124	stimuli_distractor_diamondtriangles.svg	stimuli_target_squaretriangles.svg	15	yes	57	0	570	0	0			0	0			1				0	
6.6.1	win	2023-06-26	23:19:52	23:29:48	592006	62b4370c9a89e5a09c4447de	3	1	main_slash	7	main_slash	125	stimuli_target_diamondrectangles.svg	stimuli_distractor_diamondtriangles.svg	23	yes	53	1	723	0	0			0	0			1				0	
6.6.1	win	2023-06-26	23:19:52	23:29:48	592006	62b4370c9a89e5a09c4447de	3	1	main_slash	7	advance_on_keypress_SLASH	126	stimuli_target_diamondrectangles.svg	stimuli_distractor_diamondtriangles.svg	23	yes	57	0	786	0	0			0	0			1				0	
6.6.1	win	2023-06-26	23:19:52	23:29:50	593993	62b4370c9a89e5a09c4447de	3	1	main_slash	7	main_slash	127	stimuli_distractor_trianglediamonds.svg	stimuli_target_squarediamonds.svg	12	yes	53	1	560	0	0			0	0			1				0	
6.6.1	win	2023-06-26	23:19:52	23:29:50	593993	62b4370c9a89e5a09c4447de	3	1	main_slash	7	advance_on_keypress_SLASH	128	stimuli_distractor_trianglediamonds.svg	stimuli_target_squarediamonds.svg	12	yes	57	0	537	0	0			0	0			1				0	
6.6.1	win	2023-06-26	23:19:52	23:29:53	597166	62b4370c9a89e5a09c4447de	3	1	main_slash	7	main_slash	129	stimuli_distractor_diamondtriangles.svg	stimuli_distractor_diamondtriangles.svg	40	no	0	1	2000	0	0			0	0			1				0	
6.6.1	win	2023-06-26	23:19:52	23:29:53	597166	62b4370c9a89e5a09c4447de	3	1	main_slash	7	advance_on_keypress_SLASH	130	stimuli_distractor_diamondtriangles.svg	stimuli_distractor_diamondtriangles.svg	40	no	57	0	426	0	0			0	0			1				0	
6.6.1	win	2023-06-26	23:19:52	23:29:55	599657	62b4370c9a89e5a09c4447de	3	1	main_slash	7	main_slash	131	stimuli_target_trianglerectangles.svg	stimuli_distractor_trianglediamonds.svg	17	yes	53	1	1425	0	0			0	0			1				0	
6.6.1	win	2023-06-26	23:19:52	23:29:55	599657	62b4370c9a89e5a09c4447de	3	1	main_slash	7	advance_on_keypress_SLASH	132	stimuli_target_trianglerectangles.svg	stimuli_distractor_trianglediamonds.svg	17	yes	57	0	816	0	0			0	0			1				0	
6.6.1	win	2023-06-26	23:19:52	23:29:59	603116	62b4370c9a89e5a09c4447de	3	1	main_slash	7	main_slash	133	stimuli_distractor_trianglediamonds.svg	stimuli_distractor_trianglediamonds.svg	34	no	0	1	2000	0	0			0	0			1				0	
6.6.1	win	2023-06-26	23:19:52	23:29:59	603116	62b4370c9a89e5a09c4447de	3	1	main_slash	7	advance_on_keypress_SLASH	134	stimuli_distractor_trianglediamonds.svg	stimuli_distractor_trianglediamonds.svg	34	no	57	0	1491	0	0			0	0			1				0	
6.6.1	win	2023-06-26	23:19:52	23:30:02	606243	62b4370c9a89e5a09c4447de	3	1	main_slash	7	main_slash	135	stimuli_distractor_diamondtriangles.svg	stimuli_target_trianglerectangles.svg	29	yes	53	1	993	0	0			0	0			1				0	
6.6.1	win	2023-06-26	23:19:52	23:30:02	606243	62b4370c9a89e5a09c4447de	3	1	main_slash	7	advance_on_keypress_SLASH	136	stimuli_distractor_diamondtriangles.svg	stimuli_target_trianglerectangles.svg	29	yes	57	0	515	0	0			0	0			1				0	
6.6.1	win	2023-06-26	23:19:52	23:30:04	608310	62b4370c9a89e5a09c4447de	3	1	main_slash	7	main_slash	137	stimuli_distractor_trianglediamonds.svg	stimuli_target_diamondrectangles.svg	27	yes	53	1	910	0	0			0	0			1				0	
6.6.1	win	2023-06-26	23:19:52	23:30:04	608310	62b4370c9a89e5a09c4447de	3	1	main_slash	7	advance_on_keypress_SLASH	138	stimuli_distractor_trianglediamonds.svg	stimuli_target_diamondrectangles.svg	27	yes	57	0	618	0	0			0	0			1				0	
6.6.1	win	2023-06-26	23:19:52	23:30:06	610050	62b4370c9a89e5a09c4447de	3	1	main_slash	7	main_slash	139	stimuli_distractor_diamondtriangles.svg	stimuli_target_diamondrectangles.svg	31	yes	53	1	483	0	0			0	0			1				0	
6.6.1	win	2023-06-26	23:19:52	23:30:06	610050	62b4370c9a89e5a09c4447de	3	1	main_slash	7	advance_on_keypress_SLASH	140	stimuli_distractor_diamondtriangles.svg	stimuli_target_diamondrectangles.svg	31	yes	57	0	516	0	0			0	0			1				0	
6.6.1	win	2023-06-26	23:19:52	23:30:09	613217	62b4370c9a89e5a09c4447de	3	1	main_slash	7	main_slash	141	stimuli_target_diamondsquares.svg	stimuli_distractor_diamondtriangles.svg	24	yes	0	0	2000	0	0			0	0			1				0	
6.6.1	win	2023-06-26	23:19:52	23:30:09	613217	62b4370c9a89e5a09c4447de	3	1	main_slash	7	advance_on_keypress_SLASH	142	stimuli_target_diamondsquares.svg	stimuli_distractor_diamondtriangles.svg	24	yes	57	0	330	0	0			0	0			1				0	
6.6.1	win	2023-06-26	23:19:52	23:30:10	614608	62b4370c9a89e5a09c4447de	3	1	main_slash	7	main_slash	143	stimuli_distractor_diamondtriangles.svg	stimuli_target_rectanglediamonds.svg	14	yes	53	1	407	0	0			0	0			1				0	
6.6.1	win	2023-06-26	23:19:52	23:30:10	614608	62b4370c9a89e5a09c4447de	3	1	main_slash	7	advance_on_keypress_SLASH	144	stimuli_distractor_diamondtriangles.svg	stimuli_target_rectanglediamonds.svg	14	yes	57	0	493	0	0			0	0			1				0	
6.6.1	win	2023-06-26	23:19:52	23:30:12	616758	62b4370c9a89e5a09c4447de	3	1	main_slash	7	main_slash	145	stimuli_distractor_diamondtriangles.svg	stimuli_target_diamondsquares.svg	32	yes	53	1	1025	0	0			0	0			1				0	
6.6.1	win	2023-06-26	23:19:52	23:30:12	616758	62b4370c9a89e5a09c4447de	3	1	main_slash	7	advance_on_keypress_SLASH	146	stimuli_distractor_diamondtriangles.svg	stimuli_target_diamondsquares.svg	32	yes	57	0	472	0	0			0	0			1				0	
6.6.1	win	2023-06-26	23:19:52	23:30:14	618173	62b4370c9a89e5a09c4447de	3	1	main_slash	7	main_slash	147	stimuli_distractor_diamondtriangles.svg	stimuli_target_rectangletriangles.svg	13	yes	53	1	306	0	0			0	0			1				0	
6.6.1	win	2023-06-26	23:19:52	23:30:14	618173	62b4370c9a89e5a09c4447de	3	1	main_slash	7	advance_on_keypress_SLASH	148	stimuli_distractor_diamondtriangles.svg	stimuli_target_rectangletriangles.svg	13	yes	57	0	550	0	0			0	0			1				0	
6.6.1	win	2023-06-26	23:19:52	23:30:16	620530	62b4370c9a89e5a09c4447de	3	1	main_slash	7	main_slash	149	stimuli_target_diamondrectangles.svg	stimuli_distractor_trianglediamonds.svg	19	yes	53	1	1162	0	0			0	0			1				0	
6.6.1	win	2023-06-26	23:19:52	23:30:16	620530	62b4370c9a89e5a09c4447de	3	1	main_slash	7	advance_on_keypress_SLASH	150	stimuli_target_diamondrectangles.svg	stimuli_distractor_trianglediamonds.svg	19	yes	57	0	461	0	0			0	0			1				0	
6.6.1	win	2023-06-26	23:19:52	23:30:18	622340	62b4370c9a89e5a09c4447de	3	1	main_slash	7	main_slash	151	stimuli_target_rectanglediamonds.svg	stimuli_distractor_trianglediamonds.svg	2	yes	53	1	706	0	0			0	0			1				0	
6.6.1	win	2023-06-26	23:19:52	23:30:18	622340	62b4370c9a89e5a09c4447de	3	1	main_slash	7	advance_on_keypress_SLASH	152	stimuli_target_rectanglediamonds.svg	stimuli_distractor_trianglediamonds.svg	2	yes	57	0	525	0	0			0	0			1				0	
6.6.1	win	2023-06-26	23:19:52	23:30:21	625501	62b4370c9a89e5a09c4447de	3	1	main_slash	7	main_slash	153	stimuli_distractor_trianglediamonds.svg	stimuli_distractor_trianglediamonds.svg	33	no	0	1	2000	0	0			0	0			1				0	
6.6.1	win	2023-06-26	23:19:52	23:30:21	625501	62b4370c9a89e5a09c4447de	3	1	main_slash	7	advance_on_keypress_SLASH	154	stimuli_distractor_trianglediamonds.svg	stimuli_distractor_trianglediamonds.svg	33	no	57	0	315	0	0			0	0			1				0	
6.6.1	win	2023-06-26	23:19:52	23:30:23	627361	62b4370c9a89e5a09c4447de	3	1	main_slash	7	main_slash	155	stimuli_target_trianglesquares.svg	stimuli_distractor_trianglediamonds.svg	18	yes	53	1	892	0	0			0	0			1				0	
6.6.1	win	2023-06-26	23:19:52	23:30:23	627361	62b4370c9a89e5a09c4447de	3	1	main_slash	7	advance_on_keypress_SLASH	156	stimuli_target_trianglesquares.svg	stimuli_distractor_trianglediamonds.svg	18	yes	57	0	533	0	0			0	0			1				0	
6.6.1	win	2023-06-26	23:19:52	23:30:26	630535	62b4370c9a89e5a09c4447de	3	1	main_slash	7	main_slash	157	stimuli_distractor_diamondtriangles.svg	stimuli_distractor_trianglediamonds.svg	37	no	0	1	2000	0	0			0	0			1				0	
6.6.1	win	2023-06-26	23:19:52	23:30:26	630535	62b4370c9a89e5a09c4447de	3	1	main_slash	7	advance_on_keypress_SLASH	158	stimuli_distractor_diamondtriangles.svg	stimuli_distractor_trianglediamonds.svg	37	no	57	0	373	0	0			0	0			1				0	
6.6.1	win	2023-06-26	23:19:52	23:30:28	632349	62b4370c9a89e5a09c4447de	3	1	main_slash	7	main_slash	159	stimuli_target_squarediamonds.svg	stimuli_distractor_diamondtriangles.svg	8	yes	53	1	798	0	0			0	0			1				0	
6.6.1	win	2023-06-26	23:19:52	23:30:28	632349	62b4370c9a89e5a09c4447de	3	1	main_slash	7	advance_on_keypress_SLASH	160	stimuli_target_squarediamonds.svg	stimuli_distractor_diamondtriangles.svg	8	yes	57	0	503	0	0			0	0			1				0	
6.6.1	win	2023-06-26	23:19:52	23:31:10	674123	62b4370c9a89e5a09c4447de	3	1	practice_z	9	practice_z	1	stimuli_target_diamondsquares.svg	stimuli_distractor_trianglediamonds.svg	6	yes	44	1	1066	0	0			0	0			1				0	
6.6.1	win	2023-06-26	23:19:52	23:31:10	674123	62b4370c9a89e5a09c4447de	3	1	practice_z	9	advance_on_keypress_ZEE	2	stimuli_target_diamondsquares.svg	stimuli_distractor_trianglediamonds.svg	6	yes	57	0	884	0	0			0	0			1				0	
6.6.1	win	2023-06-26	23:19:52	23:31:14	678657	62b4370c9a89e5a09c4447de	3	1	practice_z	9	practice_z	3	stimuli_distractor_diamondtriangles.svg	stimuli_distractor_diamondtriangles.svg	13	no	0	1	2000	0	0			0	0			1				0	
6.6.1	win	2023-06-26	23:19:52	23:31:14	678657	62b4370c9a89e5a09c4447de	3	1	practice_z	9	advance_on_keypress_ZEE	4	stimuli_distractor_diamondtriangles.svg	stimuli_distractor_diamondtriangles.svg	13	no	57	0	1058	0	0			0	0			1				0	
6.6.1	win	2023-06-26	23:19:52	23:31:18	682199	62b4370c9a89e5a09c4447de	3	1	practice_z	9	practice_z	5	stimuli_distractor_diamondtriangles.svg	stimuli_target_trianglerectangles.svg	9	yes	44	1	841	0	0			0	0			1				0	
6.6.1	win	2023-06-26	23:19:52	23:31:18	682199	62b4370c9a89e5a09c4447de	3	1	practice_z	9	advance_on_keypress_ZEE	6	stimuli_distractor_diamondtriangles.svg	stimuli_target_trianglerectangles.svg	9	yes	57	0	944	0	0			0	0			1				0	
6.6.1	win	2023-06-26	23:19:52	23:31:21	685556	62b4370c9a89e5a09c4447de	3	1	practice_z	9	practice_z	7	stimuli_target_squarediamonds.svg	stimuli_distractor_diamondtriangles.svg	2	yes	44	1	765	0	0			0	0			1				0	
6.6.1	win	2023-06-26	23:19:52	23:31:21	685556	62b4370c9a89e5a09c4447de	3	1	practice_z	9	advance_on_keypress_ZEE	8	stimuli_target_squarediamonds.svg	stimuli_distractor_diamondtriangles.svg	2	yes	57	0	519	0	0			0	0			1				0	
6.6.1	win	2023-06-26	23:19:52	23:31:25	689725	62b4370c9a89e5a09c4447de	3	1	practice_z	9	practice_z	9	stimuli_target_diamondsquares.svg	stimuli_distractor_diamondtriangles.svg	3	yes	0	0	2000	0	0			0	0			1				0	
6.6.1	win	2023-06-26	23:19:52	23:31:25	689725	62b4370c9a89e5a09c4447de	3	1	practice_z	9	advance_on_keypress_ZEE	10	stimuli_target_diamondsquares.svg	stimuli_distractor_diamondtriangles.svg	3	yes	57	0	490	0	0			0	0			1				0	
6.6.1	win	2023-06-26	23:19:52	23:31:28	692403	62b4370c9a89e5a09c4447de	3	1	practice_z	9	practice_z	11	stimuli_target_squarediamonds.svg	stimuli_distractor_trianglediamonds.svg	5	yes	44	1	545	0	0			0	0			1				0	
6.6.1	win	2023-06-26	23:19:52	23:31:28	692403	62b4370c9a89e5a09c4447de	3	1	practice_z	9	advance_on_keypress_ZEE	12	stimuli_target_squarediamonds.svg	stimuli_distractor_trianglediamonds.svg	5	yes	57	0	515	0	0			0	0			1				0	
6.6.1	win	2023-06-26	23:19:52	23:31:31	695537	62b4370c9a89e5a09c4447de	3	1	practice_z	9	practice_z	13	stimuli_target_rectanglediamonds.svg	stimuli_distractor_trianglediamonds.svg	4	yes	44	1	962	0	0			0	0			1				0	
6.6.1	win	2023-06-26	23:19:52	23:31:31	695537	62b4370c9a89e5a09c4447de	3	1	practice_z	9	advance_on_keypress_ZEE	14	stimuli_target_rectanglediamonds.svg	stimuli_distractor_trianglediamonds.svg	4	yes	57	0	45	0	0			0	0			1				0	
6.6.1	win	2023-06-26	23:19:52	23:31:34	697906	62b4370c9a89e5a09c4447de	3	1	practice_z	9	practice_z	15	stimuli_distractor_diamondtriangles.svg	stimuli_target_rectangletriangles.svg	7	yes	44	1	664	0	0			0	0			1				0	
6.6.1	win	2023-06-26	23:19:52	23:31:34	697906	62b4370c9a89e5a09c4447de	3	1	practice_z	9	advance_on_keypress_ZEE	16	stimuli_distractor_diamondtriangles.svg	stimuli_target_rectangletriangles.svg	7	yes	57	0	559	0	0			0	0			1				0	
6.6.1	win	2023-06-26	23:19:52	23:31:38	702126	62b4370c9a89e5a09c4447de	3	1	practice_z	9	practice_z	17	stimuli_distractor_trianglediamonds.svg	stimuli_distractor_diamondtriangles.svg	16	no	0	1	2000	0	0			0	0			1				0	
6.6.1	win	2023-06-26	23:19:52	23:31:38	702126	62b4370c9a89e5a09c4447de	3	1	practice_z	9	advance_on_keypress_ZEE	18	stimuli_distractor_trianglediamonds.svg	stimuli_distractor_diamondtriangles.svg	16	no	57	0	723	0	0			0	0			1				0	
6.6.1	win	2023-06-26	23:19:52	23:31:41	705393	62b4370c9a89e5a09c4447de	3	1	practice_z	9	practice_z	19	stimuli_distractor_diamondtriangles.svg	stimuli_target_diamondrectangles.svg	8	yes	44	1	901	0	0			0	0			1				0	
6.6.1	win	2023-06-26	23:19:52	23:31:41	705393	62b4370c9a89e5a09c4447de	3	1	practice_z	9	advance_on_keypress_ZEE	20	stimuli_distractor_diamondtriangles.svg	stimuli_target_diamondrectangles.svg	8	yes	57	0	398	0	0			0	0			1				0	
6.6.1	win	2023-06-26	23:19:52	23:31:45	709009	62b4370c9a89e5a09c4447de	3	1	practice_z	9	practice_z	21	stimuli_distractor_diamondtriangles.svg	stimuli_distractor_trianglediamonds.svg	14	no	44	0	1567	0	0			0	0			1				0	
6.6.1	win	2023-06-26	23:19:52	23:31:45	709009	62b4370c9a89e5a09c4447de	3	1	practice_z	9	advance_on_keypress_ZEE	22	stimuli_distractor_diamondtriangles.svg	stimuli_distractor_trianglediamonds.svg	14	no	57	0	605	0	0			0	0			1				0	
6.6.1	win	2023-06-26	23:19:52	23:31:48	712321	62b4370c9a89e5a09c4447de	3	1	practice_z	9	practice_z	23	stimuli_distractor_trianglediamonds.svg	stimuli_target_diamondrectangles.svg	12	yes	44	1	1062	0	0			0	0			1				0	
6.6.1	win	2023-06-26	23:19:52	23:31:48	712321	62b4370c9a89e5a09c4447de	3	1	practice_z	9	advance_on_keypress_ZEE	24	stimuli_distractor_trianglediamonds.svg	stimuli_target_diamondrectangles.svg	12	yes	57	0	747	0	0			0	0			1				0	
6.6.1	win	2023-06-26	23:19:52	23:31:51	715273	62b4370c9a89e5a09c4447de	3	1	practice_z	9	practice_z	25	stimuli_distractor_trianglediamonds.svg	stimuli_target_squarediamonds.svg	11	yes	44	1	547	0	0			0	0			1				0	
6.6.1	win	2023-06-26	23:19:52	23:31:51	715273	62b4370c9a89e5a09c4447de	3	1	practice_z	9	advance_on_keypress_ZEE	26	stimuli_distractor_trianglediamonds.svg	stimuli_target_squarediamonds.svg	11	yes	57	0	330	0	0			0	0			1				0	
6.6.1	win	2023-06-26	23:19:52	23:31:55	719260	62b4370c9a89e5a09c4447de	3	1	practice_z	9	practice_z	27	stimuli_distractor_trianglediamonds.svg	stimuli_distractor_trianglediamonds.svg	15	no	0	1	2000	0	0			0	0			1				0	
6.6.1	win	2023-06-26	23:19:52	23:31:55	719260	62b4370c9a89e5a09c4447de	3	1	practice_z	9	advance_on_keypress_ZEE	28	stimuli_distractor_trianglediamonds.svg	stimuli_distractor_trianglediamonds.svg	15	no	57	0	1144	0	0			0	0			1				0	
6.6.1	win	2023-06-26	23:19:52	23:31:58	722609	62b4370c9a89e5a09c4447de	3	1	practice_z	9	practice_z	29	stimuli_distractor_trianglediamonds.svg	stimuli_target_rectanglediamonds.svg	10	yes	44	1	548	0	0			0	0			1				0	
6.6.1	win	2023-06-26	23:19:52	23:31:58	722609	62b4370c9a89e5a09c4447de	3	1	practice_z	9	advance_on_keypress_ZEE	30	stimuli_distractor_trianglediamonds.svg	stimuli_target_rectanglediamonds.svg	10	yes	57	0	406	0	0			0	0			1				0	
6.6.1	win	2023-06-26	23:19:52	23:32:01	725818	62b4370c9a89e5a09c4447de	3	1	practice_z	9	practice_z	31	stimuli_target_rectanglediamonds.svg	stimuli_distractor_diamondtriangles.svg	1	yes	44	1	1158	0	0			0	0			1				0	
6.6.1	win	2023-06-26	23:19:52	23:32:01	725818	62b4370c9a89e5a09c4447de	3	1	practice_z	9	advance_on_keypress_ZEE	32	stimuli_target_rectanglediamonds.svg	stimuli_distractor_diamondtriangles.svg	1	yes	57	0	432	0	0			0	0			1				0	
6.6.1	win	2023-06-26	23:19:52	23:32:08	732163	62b4370c9a89e5a09c4447de	3	1	main_z	11	main_z	1	stimuli_distractor_diamondtriangles.svg	stimuli_target_trianglesquares.svg	30	yes	44	1	886	0	0			0	0			1				0	
6.6.1	win	2023-06-26	23:19:52	23:32:08	732163	62b4370c9a89e5a09c4447de	3	1	main_z	11	advance_on_keypress_ZEE	2	stimuli_distractor_diamondtriangles.svg	stimuli_target_trianglesquares.svg	30	yes	57	0	909	0	0			0	0			1				0	
6.6.1	win	2023-06-26	23:19:52	23:32:10	734252	62b4370c9a89e5a09c4447de	3	1	main_z	11	main_z	3	stimuli_distractor_trianglediamonds.svg	stimuli_target_rectanglediamonds.svg	10	yes	44	1	543	0	0			0	0			1				0	
6.6.1	win	2023-06-26	23:19:52	23:32:10	734252	62b4370c9a89e5a09c4447de	3	1	main_z	11	advance_on_keypress_ZEE	4	stimuli_distractor_trianglediamonds.svg	stimuli_target_rectanglediamonds.svg	10	yes	57	0	1951	0	0			0	0			1				0	
6.6.1	win	2023-06-26	23:19:52	23:32:13	737399	62b4370c9a89e5a09c4447de	3	1	main_z	11	main_z	5	stimuli_distractor_trianglediamonds.svg	stimuli_target_squarediamonds.svg	12	yes	44	1	555	0	0			0	0			1				0	
6.6.1	win	2023-06-26	23:19:52	23:32:13	737399	62b4370c9a89e5a09c4447de	3	1	main_z	11	advance_on_keypress_ZEE	6	stimuli_distractor_trianglediamonds.svg	stimuli_target_squarediamonds.svg	12	yes	57	0	558	0	0			0	0			1				0	
6.6.1	win	2023-06-26	23:19:52	23:32:16	740593	62b4370c9a89e5a09c4447de	3	1	main_z	11	main_z	7	stimuli_target_diamondrectangles.svg	stimuli_distractor_diamondtriangles.svg	23	yes	0	0	2000	0	0			0	0			1				0	
6.6.1	win	2023-06-26	23:19:52	23:32:16	740593	62b4370c9a89e5a09c4447de	3	1	main_z	11	advance_on_keypress_ZEE	8	stimuli_target_diamondrectangles.svg	stimuli_distractor_diamondtriangles.svg	23	yes	57	0	304	0	0			0	0			1				0	
6.6.1	win	2023-06-26	23:19:52	23:32:18	742024	62b4370c9a89e5a09c4447de	3	1	main_z	11	main_z	9	stimuli_target_rectangletriangles.svg	stimuli_distractor_trianglediamonds.svg	1	yes	44	1	481	0	0			0	0			1				0	
6.6.1	win	2023-06-26	23:19:52	23:32:18	742024	62b4370c9a89e5a09c4447de	3	1	main_z	11	advance_on_keypress_ZEE	10	stimuli_target_rectangletriangles.svg	stimuli_distractor_trianglediamonds.svg	1	yes	57	0	880	0	0			0	0			1				0	
6.6.1	win	2023-06-26	23:19:52	23:32:21	745560	62b4370c9a89e5a09c4447de	3	1	main_z	11	main_z	11	stimuli_distractor_diamondtriangles.svg	stimuli_distractor_diamondtriangles.svg	40	no	0	1	2000	0	0			0	0			1				0	
6.6.1	win	2023-06-26	23:19:52	23:32:21	745560	62b4370c9a89e5a09c4447de	3	1	main_z	11	advance_on_keypress_ZEE	12	stimuli_distractor_diamondtriangles.svg	stimuli_distractor_diamondtriangles.svg	40	no	57	0	451	0	0			0	0			1				0	
6.6.1	win	2023-06-26	23:19:52	23:32:23	747382	62b4370c9a89e5a09c4447de	3	1	main_z	11	main_z	13	stimuli_distractor_diamondtriangles.svg	stimuli_target_diamondsquares.svg	32	yes	44	1	722	0	0			0	0			1				0	
6.6.1	win	2023-06-26	23:19:52	23:32:23	747382	62b4370c9a89e5a09c4447de	3	1	main_z	11	advance_on_keypress_ZEE	14	stimuli_distractor_diamondtriangles.svg	stimuli_target_diamondsquares.svg	32	yes	57	0	683	0	0			0	0			1				0	
6.6.1	win	2023-06-26	23:19:52	23:32:26	750711	62b4370c9a89e5a09c4447de	3	1	main_z	11	main_z	15	stimuli_target_diamondsquares.svg	stimuli_distractor_diamondtriangles.svg	24	yes	0	0	2000	0	0			0	0			1				0	
6.6.1	win	2023-06-26	23:19:52	23:32:26	750711	62b4370c9a89e5a09c4447de	3	1	main_z	11	advance_on_keypress_ZEE	16	stimuli_target_diamondsquares.svg	stimuli_distractor_diamondtriangles.svg	24	yes	57	0	785	0	0			0	0			1				0	
6.6.1	win	2023-06-26	23:19:52	23:32:30	754144	62b4370c9a89e5a09c4447de	3	1	main_z	11	main_z	17	stimuli_distractor_trianglediamonds.svg	stimuli_distractor_trianglediamonds.svg	34	no	0	1	2000	0	0			0	0			1				0	
6.6.1	win	2023-06-26	23:19:52	23:32:30	754144	62b4370c9a89e5a09c4447de	3	1	main_z	11	advance_on_keypress_ZEE	18	stimuli_distractor_trianglediamonds.svg	stimuli_distractor_trianglediamonds.svg	34	no	57	0	705	0	0			0	0			1				0	
6.6.1	win	2023-06-26	23:19:52	23:32:32	756084	62b4370c9a89e5a09c4447de	3	1	main_z	11	main_z	19	stimuli_target_squaretriangles.svg	stimuli_distractor_diamondtriangles.svg	7	yes	44	1	589	0	0			0	0			1				0	
6.6.1	win	2023-06-26	23:19:52	23:32:32	756084	62b4370c9a89e5a09c4447de	3	1	main_z	11	advance_on_keypress_ZEE	20	stimuli_target_squaretriangles.svg	stimuli_distractor_diamondtriangles.svg	7	yes	57	0	1044	0	0			0	0			1				0	
6.6.1	win	2023-06-26	23:19:52	23:32:35	759016	62b4370c9a89e5a09c4447de	3	1	main_z	11	main_z	21	stimuli_distractor_trianglediamonds.svg	stimuli_target_squaretriangles.svg	11	yes	44	1	1255	0	0			0	0			1				0	
6.6.1	win	2023-06-26	23:19:52	23:32:35	759016	62b4370c9a89e5a09c4447de	3	1	main_z	11	advance_on_keypress_ZEE	22	stimuli_distractor_trianglediamonds.svg	stimuli_target_squaretriangles.svg	11	yes	57	0	571	0	0			0	0			1				0	
6.6.1	win	2023-06-26	23:19:52	23:32:38	762228	62b4370c9a89e5a09c4447de	3	1	main_z	11	main_z	23	stimuli_distractor_trianglediamonds.svg	stimuli_distractor_diamondtriangles.svg	36	no	0	1	2000	0	0			0	0			1				0	
6.6.1	win	2023-06-26	23:19:52	23:32:38	762228	62b4370c9a89e5a09c4447de	3	1	main_z	11	advance_on_keypress_ZEE	24	stimuli_distractor_trianglediamonds.svg	stimuli_distractor_diamondtriangles.svg	36	no	57	0	919	0	0			0	0			1				0	
6.6.1	win	2023-06-26	23:19:52	23:32:41	765795	62b4370c9a89e5a09c4447de	3	1	main_z	11	main_z	25	stimuli_target_diamondsquares.svg	stimuli_distractor_trianglediamonds.svg	20	yes	0	0	2000	0	0			0	0			1				0	
6.6.1	win	2023-06-26	23:19:52	23:32:41	765795	62b4370c9a89e5a09c4447de	3	1	main_z	11	advance_on_keypress_ZEE	26	stimuli_target_diamondsquares.svg	stimuli_distractor_trianglediamonds.svg	20	yes	57	0	787	0	0			0	0			1				0	
6.6.1	win	2023-06-26	23:19:52	23:32:44	768690	62b4370c9a89e5a09c4447de	3	1	main_z	11	main_z	27	stimuli_distractor_trianglediamonds.svg	stimuli_target_trianglesquares.svg	26	yes	44	1	1461	0	0			0	0			1				0	
6.6.1	win	2023-06-26	23:19:52	23:32:44	768690	62b4370c9a89e5a09c4447de	3	1	main_z	11	advance_on_keypress_ZEE	28	stimuli_distractor_trianglediamonds.svg	stimuli_target_trianglesquares.svg	26	yes	57	0	689	0	0			0	0			1				0	
6.6.1	win	2023-06-26	23:19:52	23:32:47	771099	62b4370c9a89e5a09c4447de	3	1	main_z	11	main_z	29	stimuli_target_squarediamonds.svg	stimuli_distractor_diamondtriangles.svg	8	yes	44	1	1087	0	0			0	0			1				0	
6.6.1	win	2023-06-26	23:19:52	23:32:47	771099	62b4370c9a89e5a09c4447de	3	1	main_z	11	advance_on_keypress_ZEE	30	stimuli_target_squarediamonds.svg	stimuli_distractor_diamondtriangles.svg	8	yes	57	0	1473	0	0			0	0			1				0	
6.6.1	win	2023-06-26	23:19:52	23:32:51	775213	62b4370c9a89e5a09c4447de	3	1	main_z	11	main_z	31	stimuli_target_rectanglediamonds.svg	stimuli_distractor_trianglediamonds.svg	2	yes	0	0	2000	0	0			0	0			1				0	
6.6.1	win	2023-06-26	23:19:52	23:32:51	775213	62b4370c9a89e5a09c4447de	3	1	main_z	11	advance_on_keypress_ZEE	32	stimuli_target_rectanglediamonds.svg	stimuli_distractor_trianglediamonds.svg	2	yes	57	0	1045	0	0			0	0			1				0	
6.6.1	win	2023-06-26	23:19:52	23:32:54	778754	62b4370c9a89e5a09c4447de	3	1	main_z	11	main_z	33	stimuli_distractor_diamondtriangles.svg	stimuli_target_squarediamonds.svg	16	yes	44	1	1842	0	0			0	0			1				0	
6.6.1	win	2023-06-26	23:19:52	23:32:54	778754	62b4370c9a89e5a09c4447de	3	1	main_z	11	advance_on_keypress_ZEE	34	stimuli_distractor_diamondtriangles.svg	stimuli_target_squarediamonds.svg	16	yes	57	0	697	0	0			0	0			1				0	
6.6.1	win	2023-06-26	23:19:52	23:32:56	780642	62b4370c9a89e5a09c4447de	3	1	main_z	11	main_z	35	stimuli_target_rectanglediamonds.svg	stimuli_distractor_diamondtriangles.svg	6	yes	44	1	545	0	0			0	0			1				0	
6.6.1	win	2023-06-26	23:19:52	23:32:56	780642	62b4370c9a89e5a09c4447de	3	1	main_z	11	advance_on_keypress_ZEE	36	stimuli_target_rectanglediamonds.svg	stimuli_distractor_diamondtriangles.svg	6	yes	57	0	683	0	0			0	0			1				0	
6.6.1	win	2023-06-26	23:19:52	23:32:58	782514	62b4370c9a89e5a09c4447de	3	1	main_z	11	main_z	37	stimuli_distractor_diamondtriangles.svg	stimuli_target_squaretriangles.svg	15	yes	44	1	533	0	0			0	0			1				0	
6.6.1	win	2023-06-26	23:19:52	23:32:58	782514	62b4370c9a89e5a09c4447de	3	1	main_z	11	advance_on_keypress_ZEE	38	stimuli_distractor_diamondtriangles.svg	stimuli_target_squaretriangles.svg	15	yes	57	0	444	0	0			0	0			1				0	
6.6.1	win	2023-06-26	23:19:52	23:33:00	784146	62b4370c9a89e5a09c4447de	3	1	main_z	11	main_z	39	stimuli_target_squaretriangles.svg	stimuli_distractor_trianglediamonds.svg	3	yes	44	1	532	0	0			0	0			1				0	
6.6.1	win	2023-06-26	23:19:52	23:33:00	784146	62b4370c9a89e5a09c4447de	3	1	main_z	11	advance_on_keypress_ZEE	40	stimuli_target_squaretriangles.svg	stimuli_distractor_trianglediamonds.svg	3	yes	57	0	419	0	0			0	0			1				0	
6.6.1	win	2023-06-26	23:19:52	23:33:03	787214	62b4370c9a89e5a09c4447de	3	1	main_z	11	main_z	41	stimuli_distractor_trianglediamonds.svg	stimuli_distractor_trianglediamonds.svg	33	no	0	1	2000	0	0			0	0			1				0	
6.6.1	win	2023-06-26	23:19:52	23:33:03	787214	62b4370c9a89e5a09c4447de	3	1	main_z	11	advance_on_keypress_ZEE	42	stimuli_distractor_trianglediamonds.svg	stimuli_distractor_trianglediamonds.svg	33	no	57	0	663	0	0			0	0			1				0	
6.6.1	win	2023-06-26	23:19:52	23:33:05	789665	62b4370c9a89e5a09c4447de	3	1	main_z	11	main_z	43	stimuli_distractor_diamondtriangles.svg	stimuli_distractor_trianglediamonds.svg	37	no	44	0	1134	0	0			0	0			1				0	
6.6.1	win	2023-06-26	23:19:52	23:33:05	789665	62b4370c9a89e5a09c4447de	3	1	main_z	11	advance_on_keypress_ZEE	44	stimuli_distractor_diamondtriangles.svg	stimuli_distractor_trianglediamonds.svg	37	no	57	0	826	0	0			0	0			1				0	
6.6.1	win	2023-06-26	23:19:52	23:33:07	791719	62b4370c9a89e5a09c4447de	3	1	main_z	11	main_z	45	stimuli_target_rectangletriangles.svg	stimuli_distractor_diamondtriangles.svg	5	yes	44	1	589	0	0			0	0			1				0	
6.6.1	win	2023-06-26	23:19:52	23:33:07	791719	62b4370c9a89e5a09c4447de	3	1	main_z	11	advance_on_keypress_ZEE	46	stimuli_target_rectangletriangles.svg	stimuli_distractor_diamondtriangles.svg	5	yes	57	0	541	0	0			0	0			1				0	
6.6.1	win	2023-06-26	23:19:52	23:33:10	793931	62b4370c9a89e5a09c4447de	3	1	main_z	11	main_z	47	stimuli_target_trianglesquares.svg	stimuli_distractor_diamondtriangles.svg	22	yes	44	1	1033	0	0			0	0			1				0	
6.6.1	win	2023-06-26	23:19:52	23:33:10	793931	62b4370c9a89e5a09c4447de	3	1	main_z	11	advance_on_keypress_ZEE	48	stimuli_target_trianglesquares.svg	stimuli_distractor_diamondtriangles.svg	22	yes	57	0	415	0	0			0	0			1				0	
6.6.1	win	2023-06-26	23:19:52	23:33:13	796954	62b4370c9a89e5a09c4447de	3	1	main_z	11	main_z	49	stimuli_distractor_trianglediamonds.svg	stimuli_target_diamondsquares.svg	28	yes	44	1	1957	0	0			0	0			1				0	
6.6.1	win	2023-06-26	23:19:52	23:33:13	796954	62b4370c9a89e5a09c4447de	3	1	main_z	11	advance_on_keypress_ZEE	50	stimuli_distractor_trianglediamonds.svg	stimuli_target_diamondsquares.svg	28	yes	57	0	462	0	0			0	0			1				0	
6.6.1	win	2023-06-26	23:19:52	23:33:15	798994	62b4370c9a89e5a09c4447de	3	1	main_z	11	main_z	51	stimuli_distractor_trianglediamonds.svg	stimuli_target_diamondrectangles.svg	27	yes	44	1	930	0	0			0	0			1				0	
6.6.1	win	2023-06-26	23:19:52	23:33:15	798994	62b4370c9a89e5a09c4447de	3	1	main_z	11	advance_on_keypress_ZEE	52	stimuli_distractor_trianglediamonds.svg	stimuli_target_diamondrectangles.svg	27	yes	57	0	512	0	0			0	0			1				0	
6.6.1	win	2023-06-26	23:19:52	23:33:17	800993	62b4370c9a89e5a09c4447de	3	1	main_z	11	main_z	53	stimuli_distractor_diamondtriangles.svg	stimuli_target_rectangletriangles.svg	13	yes	44	1	828	0	0			0	0			1				0	
6.6.1	win	2023-06-26	23:19:52	23:33:17	800993	62b4370c9a89e5a09c4447de	3	1	main_z	11	advance_on_keypress_ZEE	54	stimuli_distractor_diamondtriangles.svg	stimuli_target_rectangletriangles.svg	13	yes	57	0	517	0	0			0	0			1				0	
6.6.1	win	2023-06-26	23:19:52	23:33:20	804148	62b4370c9a89e5a09c4447de	3	1	main_z	11	main_z	55	stimuli_distractor_diamondtriangles.svg	stimuli_distractor_diamondtriangles.svg	39	no	0	1	2000	0	0			0	0			1				0	
6.6.1	win	2023-06-26	23:19:52	23:33:20	804148	62b4370c9a89e5a09c4447de	3	1	main_z	11	advance_on_keypress_ZEE	56	stimuli_distractor_diamondtriangles.svg	stimuli_distractor_diamondtriangles.svg	39	no	57	0	907	0	0			0	0			1				0	
6.6.1	win	2023-06-26	23:19:52	23:33:22	806457	62b4370c9a89e5a09c4447de	3	1	main_z	11	main_z	57	stimuli_distractor_diamondtriangles.svg	stimuli_target_trianglerectangles.svg	29	yes	44	1	758	0	0			0	0			1				0	
6.6.1	win	2023-06-26	23:19:52	23:33:22	806457	62b4370c9a89e5a09c4447de	3	1	main_z	11	advance_on_keypress_ZEE	58	stimuli_distractor_diamondtriangles.svg	stimuli_target_trianglerectangles.svg	29	yes	57	0	534	0	0			0	0			1				0	
6.6.1	win	2023-06-26	23:19:52	23:33:24	808526	62b4370c9a89e5a09c4447de	3	1	main_z	11	main_z	59	stimuli_target_trianglerectangles.svg	stimuli_distractor_diamondtriangles.svg	21	yes	44	1	894	0	0			0	0			1				0	
6.6.1	win	2023-06-26	23:19:52	23:33:24	808526	62b4370c9a89e5a09c4447de	3	1	main_z	11	advance_on_keypress_ZEE	60	stimuli_target_trianglerectangles.svg	stimuli_distractor_diamondtriangles.svg	21	yes	57	0	749	0	0			0	0			1				0	
6.6.1	win	2023-06-26	23:19:52	23:33:28	811915	62b4370c9a89e5a09c4447de	3	1	main_z	11	main_z	61	stimuli_target_trianglerectangles.svg	stimuli_distractor_trianglediamonds.svg	17	yes	0	0	2000	0	0			0	0			1				0	
6.6.1	win	2023-06-26	23:19:52	23:33:28	811915	62b4370c9a89e5a09c4447de	3	1	main_z	11	advance_on_keypress_ZEE	62	stimuli_target_trianglerectangles.svg	stimuli_distractor_trianglediamonds.svg	17	yes	57	0	805	0	0			0	0			1				0	
6.6.1	win	2023-06-26	23:19:52	23:33:31	815366	62b4370c9a89e5a09c4447de	3	1	main_z	11	main_z	63	stimuli_target_diamondrectangles.svg	stimuli_distractor_trianglediamonds.svg	19	yes	0	0	2000	0	0			0	0			1				0	
6.6.1	win	2023-06-26	23:19:52	23:33:31	815366	62b4370c9a89e5a09c4447de	3	1	main_z	11	advance_on_keypress_ZEE	64	stimuli_target_diamondrectangles.svg	stimuli_distractor_trianglediamonds.svg	19	yes	57	0	940	0	0			0	0			1				0	
6.6.1	win	2023-06-26	23:19:52	23:33:33	817769	62b4370c9a89e5a09c4447de	3	1	main_z	11	main_z	65	stimuli_distractor_trianglediamonds.svg	stimuli_target_trianglerectangles.svg	25	yes	44	1	820	0	0			0	0			1				0	
6.6.1	win	2023-06-26	23:19:52	23:33:33	817769	62b4370c9a89e5a09c4447de	3	1	main_z	11	advance_on_keypress_ZEE	66	stimuli_distractor_trianglediamonds.svg	stimuli_target_trianglerectangles.svg	25	yes	57	0	911	0	0			0	0			1				0	
6.6.1	win	2023-06-26	23:19:52	23:33:36	820033	62b4370c9a89e5a09c4447de	3	1	main_z	11	main_z	67	stimuli_target_trianglesquares.svg	stimuli_distractor_trianglediamonds.svg	18	yes	44	1	716	0	0			0	0			1				0	
6.6.1	win	2023-06-26	23:19:52	23:33:36	820033	62b4370c9a89e5a09c4447de	3	1	main_z	11	advance_on_keypress_ZEE	68	stimuli_target_trianglesquares.svg	stimuli_distractor_trianglediamonds.svg	18	yes	57	0	591	0	0			0	0			1				0	
6.6.1	win	2023-06-26	23:19:52	23:33:38	822249	62b4370c9a89e5a09c4447de	3	1	main_z	11	main_z	69	stimuli_distractor_trianglediamonds.svg	stimuli_target_rectangletriangles.svg	9	yes	44	1	982	0	0			0	0			1				0	
6.6.1	win	2023-06-26	23:19:52	23:33:38	822249	62b4370c9a89e5a09c4447de	3	1	main_z	11	advance_on_keypress_ZEE	70	stimuli_distractor_trianglediamonds.svg	stimuli_target_rectangletriangles.svg	9	yes	57	0	393	0	0			0	0			1				0	
6.6.1	win	2023-06-26	23:19:52	23:33:39	823746	62b4370c9a89e5a09c4447de	3	1	main_z	11	main_z	71	stimuli_distractor_diamondtriangles.svg	stimuli_target_rectanglediamonds.svg	14	yes	44	1	463	0	0			0	0			1				0	
6.6.1	win	2023-06-26	23:19:52	23:33:39	823746	62b4370c9a89e5a09c4447de	3	1	main_z	11	advance_on_keypress_ZEE	72	stimuli_distractor_diamondtriangles.svg	stimuli_target_rectanglediamonds.svg	14	yes	57	0	431	0	0			0	0			1				0	
6.6.1	win	2023-06-26	23:19:52	23:33:42	826833	62b4370c9a89e5a09c4447de	3	1	main_z	11	main_z	73	stimuli_distractor_trianglediamonds.svg	stimuli_distractor_diamondtriangles.svg	35	no	0	1	2000	0	0			0	0			1				0	
6.6.1	win	2023-06-26	23:19:52	23:33:42	826833	62b4370c9a89e5a09c4447de	3	1	main_z	11	advance_on_keypress_ZEE	74	stimuli_distractor_trianglediamonds.svg	stimuli_distractor_diamondtriangles.svg	35	no	57	0	305	0	0			0	0			1				0	
6.6.1	win	2023-06-26	23:19:52	23:33:44	828247	62b4370c9a89e5a09c4447de	3	1	main_z	11	main_z	75	stimuli_target_squarediamonds.svg	stimuli_distractor_trianglediamonds.svg	4	yes	44	1	463	0	0			0	0			1				0	
6.6.1	win	2023-06-26	23:19:52	23:33:44	828247	62b4370c9a89e5a09c4447de	3	1	main_z	11	advance_on_keypress_ZEE	76	stimuli_target_squarediamonds.svg	stimuli_distractor_trianglediamonds.svg	4	yes	57	0	543	0	0			0	0			1				0	
6.6.1	win	2023-06-26	23:19:52	23:33:47	831114	62b4370c9a89e5a09c4447de	3	1	main_z	11	main_z	77	stimuli_distractor_diamondtriangles.svg	stimuli_distractor_trianglediamonds.svg	38	no	44	0	1681	0	0			0	0			1				0	
6.6.1	win	2023-06-26	23:19:52	23:33:47	831114	62b4370c9a89e5a09c4447de	3	1	main_z	11	advance_on_keypress_ZEE	78	stimuli_distractor_diamondtriangles.svg	stimuli_distractor_trianglediamonds.svg	38	no	57	0	823	0	0			0	0			1				0	
6.6.1	win	2023-06-26	23:19:52	23:33:49	833463	62b4370c9a89e5a09c4447de	3	1	main_z	11	main_z	79	stimuli_distractor_diamondtriangles.svg	stimuli_target_diamondrectangles.svg	31	yes	44	1	880	0	0			0	0			1				0	
6.6.1	win	2023-06-26	23:19:52	23:33:49	833463	62b4370c9a89e5a09c4447de	3	1	main_z	11	advance_on_keypress_ZEE	80	stimuli_distractor_diamondtriangles.svg	stimuli_target_diamondrectangles.svg	31	yes	57	0	583	0	0			0	0			1				0	
6.6.1	win	2023-06-26	23:19:52	23:33:51	835305	62b4370c9a89e5a09c4447de	3	1	main_z	11	main_z	81	stimuli_distractor_trianglediamonds.svg	stimuli_target_trianglesquares.svg	26	yes	44	1	605	0	0			0	0			1				0	
6.6.1	win	2023-06-26	23:19:52	23:33:51	835305	62b4370c9a89e5a09c4447de	3	1	main_z	11	advance_on_keypress_ZEE	82	stimuli_distractor_trianglediamonds.svg	stimuli_target_trianglesquares.svg	26	yes	57	0	617	0	0			0	0			1				0	
6.6.1	win	2023-06-26	23:19:52	23:33:53	837193	62b4370c9a89e5a09c4447de	3	1	main_z	11	main_z	83	stimuli_distractor_diamondtriangles.svg	stimuli_target_diamondsquares.svg	32	yes	44	1	626	0	0			0	0			1				0	
6.6.1	win	2023-06-26	23:19:52	23:33:53	837193	62b4370c9a89e5a09c4447de	3	1	main_z	11	advance_on_keypress_ZEE	84	stimuli_distractor_diamondtriangles.svg	stimuli_target_diamondsquares.svg	32	yes	57	0	484	0	0			0	0			1				0	
6.6.1	win	2023-06-26	23:19:52	23:33:55	839080	62b4370c9a89e5a09c4447de	3	1	main_z	11	main_z	85	stimuli_target_rectanglediamonds.svg	stimuli_distractor_trianglediamonds.svg	2	yes	44	1	763	0	0			0	0			1				0	
6.6.1	win	2023-06-26	23:19:52	23:33:55	839080	62b4370c9a89e5a09c4447de	3	1	main_z	11	advance_on_keypress_ZEE	86	stimuli_target_rectanglediamonds.svg	stimuli_distractor_trianglediamonds.svg	2	yes	57	0	613	0	0			0	0			1				0	
6.6.1	win	2023-06-26	23:19:52	23:33:57	841039	62b4370c9a89e5a09c4447de	3	1	main_z	11	main_z	87	stimuli_target_diamondrectangles.svg	stimuli_distractor_diamondtriangles.svg	23	yes	44	1	688	0	0			0	0			1				0	
6.6.1	win	2023-06-26	23:19:52	23:33:57	841039	62b4370c9a89e5a09c4447de	3	1	main_z	11	advance_on_keypress_ZEE	88	stimuli_target_diamondrectangles.svg	stimuli_distractor_diamondtriangles.svg	23	yes	57	0	571	0	0			0	0			1				0	
6.6.1	win	2023-06-26	23:19:52	23:33:58	842729	62b4370c9a89e5a09c4447de	3	1	main_z	11	main_z	89	stimuli_target_diamondsquares.svg	stimuli_distractor_trianglediamonds.svg	20	yes	44	1	477	0	0			0	0			1				0	
6.6.1	win	2023-06-26	23:19:52	23:33:58	842729	62b4370c9a89e5a09c4447de	3	1	main_z	11	advance_on_keypress_ZEE	90	stimuli_target_diamondsquares.svg	stimuli_distractor_trianglediamonds.svg	20	yes	57	0	487	0	0			0	0			1				0	
6.6.1	win	2023-06-26	23:19:52	23:34:01	845851	62b4370c9a89e5a09c4447de	3	1	main_z	11	main_z	91	stimuli_target_squaretriangles.svg	stimuli_distractor_diamondtriangles.svg	7	yes	0	0	2000	0	0			0	0			1				0	
6.6.1	win	2023-06-26	23:19:52	23:34:01	845851	62b4370c9a89e5a09c4447de	3	1	main_z	11	advance_on_keypress_ZEE	92	stimuli_target_squaretriangles.svg	stimuli_distractor_diamondtriangles.svg	7	yes	57	0	459	0	0			0	0			1				0	
6.6.1	win	2023-06-26	23:19:52	23:34:03	847560	62b4370c9a89e5a09c4447de	3	1	main_z	11	main_z	93	stimuli_distractor_trianglediamonds.svg	stimuli_target_squaretriangles.svg	11	yes	44	1	609	0	0			0	0			1				0	
6.6.1	win	2023-06-26	23:19:52	23:34:03	847560	62b4370c9a89e5a09c4447de	3	1	main_z	11	advance_on_keypress_ZEE	94	stimuli_distractor_trianglediamonds.svg	stimuli_target_squaretriangles.svg	11	yes	57	0	428	0	0			0	0			1				0	
6.6.1	win	2023-06-26	23:19:52	23:34:06	850635	62b4370c9a89e5a09c4447de	3	1	main_z	11	main_z	95	stimuli_target_diamondsquares.svg	stimuli_distractor_diamondtriangles.svg	24	yes	0	0	2000	0	0			0	0			1				0	
6.6.1	win	2023-06-26	23:19:52	23:34:06	850635	62b4370c9a89e5a09c4447de	3	1	main_z	11	advance_on_keypress_ZEE	96	stimuli_target_diamondsquares.svg	stimuli_distractor_diamondtriangles.svg	24	yes	57	0	1089	0	0			0	0			1				0	
6.6.1	win	2023-06-26	23:19:52	23:34:10	854369	62b4370c9a89e5a09c4447de	3	1	main_z	11	main_z	97	stimuli_distractor_diamondtriangles.svg	stimuli_distractor_diamondtriangles.svg	40	no	0	1	2000	0	0			0	0			1				0	
6.6.1	win	2023-06-26	23:19:52	23:34:10	854369	62b4370c9a89e5a09c4447de	3	1	main_z	11	advance_on_keypress_ZEE	98	stimuli_distractor_diamondtriangles.svg	stimuli_distractor_diamondtriangles.svg	40	no	57	0	652	0	0			0	0			1				0	
6.6.1	win	2023-06-26	23:19:52	23:34:13	857669	62b4370c9a89e5a09c4447de	3	1	main_z	11	main_z	99	stimuli_distractor_trianglediamonds.svg	stimuli_distractor_trianglediamonds.svg	33	no	0	1	2000	0	0			0	0			1				0	
6.6.1	win	2023-06-26	23:19:52	23:34:13	857669	62b4370c9a89e5a09c4447de	3	1	main_z	11	advance_on_keypress_ZEE	100	stimuli_distractor_trianglediamonds.svg	stimuli_distractor_trianglediamonds.svg	33	no	57	0	627	0	0			0	0			1				0	
6.6.1	win	2023-06-26	23:19:52	23:34:15	859459	62b4370c9a89e5a09c4447de	3	1	main_z	11	main_z	101	stimuli_target_rectangletriangles.svg	stimuli_distractor_diamondtriangles.svg	5	yes	44	1	524	0	0			0	0			1				0	
6.6.1	win	2023-06-26	23:19:52	23:34:15	859459	62b4370c9a89e5a09c4447de	3	1	main_z	11	advance_on_keypress_ZEE	102	stimuli_target_rectangletriangles.svg	stimuli_distractor_diamondtriangles.svg	5	yes	57	0	563	0	0			0	0			1				0	
6.6.1	win	2023-06-26	23:19:52	23:34:17	861179	62b4370c9a89e5a09c4447de	3	1	main_z	11	main_z	103	stimuli_distractor_trianglediamonds.svg	stimuli_target_squarediamonds.svg	12	yes	44	1	509	0	0			0	0			1				0	
6.6.1	win	2023-06-26	23:19:52	23:34:17	861179	62b4370c9a89e5a09c4447de	3	1	main_z	11	advance_on_keypress_ZEE	104	stimuli_distractor_trianglediamonds.svg	stimuli_target_squarediamonds.svg	12	yes	57	0	435	0	0			0	0			1				0	
6.6.1	win	2023-06-26	23:19:52	23:34:20	864253	62b4370c9a89e5a09c4447de	3	1	main_z	11	main_z	105	stimuli_target_diamondrectangles.svg	stimuli_distractor_trianglediamonds.svg	19	yes	0	0	2000	0	0			0	0			1				0	
6.6.1	win	2023-06-26	23:19:52	23:34:20	864253	62b4370c9a89e5a09c4447de	3	1	main_z	11	advance_on_keypress_ZEE	106	stimuli_target_diamondrectangles.svg	stimuli_distractor_trianglediamonds.svg	19	yes	57	0	284	0	0			0	0			1				0	
6.6.1	win	2023-06-26	23:19:52	23:34:21	865680	62b4370c9a89e5a09c4447de	3	1	main_z	11	main_z	107	stimuli_distractor_trianglediamonds.svg	stimuli_target_diamondrectangles.svg	27	yes	44	1	493	0	0			0	0			1				0	
6.6.1	win	2023-06-26	23:19:52	23:34:21	865680	62b4370c9a89e5a09c4447de	3	1	main_z	11	advance_on_keypress_ZEE	108	stimuli_distractor_trianglediamonds.svg	stimuli_target_diamondrectangles.svg	27	yes	57	0	485	0	0			0	0			1				0	
6.6.1	win	2023-06-26	23:19:52	23:34:23	867507	62b4370c9a89e5a09c4447de	3	1	main_z	11	main_z	109	stimuli_distractor_diamondtriangles.svg	stimuli_target_squaretriangles.svg	15	yes	44	1	704	0	0			0	0			1				0	
6.6.1	win	2023-06-26	23:19:52	23:34:23	867507	62b4370c9a89e5a09c4447de	3	1	main_z	11	advance_on_keypress_ZEE	110	stimuli_distractor_diamondtriangles.svg	stimuli_target_squaretriangles.svg	15	yes	57	0	377	0	0			0	0			1				0	
6.6.1	win	2023-06-26	23:19:52	23:34:25	869557	62b4370c9a89e5a09c4447de	3	1	main_z	11	main_z	111	stimuli_target_rectanglediamonds.svg	stimuli_distractor_diamondtriangles.svg	6	yes	44	1	1037	0	0			0	0			1				0	
6.6.1	win	2023-06-26	23:19:52	23:34:25	869557	62b4370c9a89e5a09c4447de	3	1	main_z	11	advance_on_keypress_ZEE	112	stimuli_target_rectanglediamonds.svg	stimuli_distractor_diamondtriangles.svg	6	yes	57	0	428	0	0			0	0			1				0	
6.6.1	win	2023-06-26	23:19:52	23:34:28	872620	62b4370c9a89e5a09c4447de	3	1	main_z	11	main_z	113	stimuli_distractor_trianglediamonds.svg	stimuli_distractor_diamondtriangles.svg	35	no	0	1	2000	0	0			0	0			1				0	
6.6.1	win	2023-06-26	23:19:52	23:34:28	872620	62b4370c9a89e5a09c4447de	3	1	main_z	11	advance_on_keypress_ZEE	114	stimuli_distractor_trianglediamonds.svg	stimuli_distractor_diamondtriangles.svg	35	no	57	0	700	0	0			0	0			1				0	
6.6.1	win	2023-06-26	23:19:52	23:34:30	874581	62b4370c9a89e5a09c4447de	3	1	main_z	11	main_z	115	stimuli_distractor_diamondtriangles.svg	stimuli_target_rectanglediamonds.svg	14	yes	44	1	611	0	0			0	0			1				0	
6.6.1	win	2023-06-26	23:19:52	23:34:30	874581	62b4370c9a89e5a09c4447de	3	1	main_z	11	advance_on_keypress_ZEE	116	stimuli_distractor_diamondtriangles.svg	stimuli_target_rectanglediamonds.svg	14	yes	57	0	425	0	0			0	0			1				0	
6.6.1	win	2023-06-26	23:19:52	23:34:33	877637	62b4370c9a89e5a09c4447de	3	1	main_z	11	main_z	117	stimuli_distractor_diamondtriangles.svg	stimuli_distractor_trianglediamonds.svg	38	no	0	1	2000	0	0			0	0			1				0	
6.6.1	win	2023-06-26	23:19:52	23:34:33	877637	62b4370c9a89e5a09c4447de	3	1	main_z	11	advance_on_keypress_ZEE	118	stimuli_distractor_diamondtriangles.svg	stimuli_distractor_trianglediamonds.svg	38	no	57	0	787	0	0			0	0			1				0	
6.6.1	win	2023-06-26	23:19:52	23:34:36	880811	62b4370c9a89e5a09c4447de	3	1	main_z	11	main_z	119	stimuli_distractor_diamondtriangles.svg	stimuli_target_diamondrectangles.svg	31	yes	44	1	1741	0	0			0	0			1				0	
6.6.1	win	2023-06-26	23:19:52	23:34:36	880811	62b4370c9a89e5a09c4447de	3	1	main_z	11	advance_on_keypress_ZEE	120	stimuli_distractor_diamondtriangles.svg	stimuli_target_diamondrectangles.svg	31	yes	57	0	574	0	0			0	0			1				0	
6.6.1	win	2023-06-26	23:19:52	23:34:38	882608	62b4370c9a89e5a09c4447de	3	1	main_z	11	main_z	121	stimuli_target_squarediamonds.svg	stimuli_distractor_trianglediamonds.svg	4	yes	44	1	587	0	0			0	0			1				0	
6.6.1	win	2023-06-26	23:19:52	23:34:38	882608	62b4370c9a89e5a09c4447de	3	1	main_z	11	advance_on_keypress_ZEE	122	stimuli_target_squarediamonds.svg	stimuli_distractor_trianglediamonds.svg	4	yes	57	0	457	0	0			0	0			1				0	
6.6.1	win	2023-06-26	23:19:52	23:34:41	885704	62b4370c9a89e5a09c4447de	3	1	main_z	11	main_z	123	stimuli_target_trianglesquares.svg	stimuli_distractor_trianglediamonds.svg	18	yes	0	0	2000	0	0			0	0			1				0	
6.6.1	win	2023-06-26	23:19:52	23:34:41	885704	62b4370c9a89e5a09c4447de	3	1	main_z	11	advance_on_keypress_ZEE	124	stimuli_target_trianglesquares.svg	stimuli_distractor_trianglediamonds.svg	18	yes	57	0	615	0	0			0	0			1				0	
6.6.1	win	2023-06-26	23:19:52	23:34:43	887383	62b4370c9a89e5a09c4447de	3	1	main_z	11	main_z	125	stimuli_target_trianglerectangles.svg	stimuli_distractor_diamondtriangles.svg	21	yes	44	1	411	0	0			0	0			1				0	
6.6.1	win	2023-06-26	23:19:52	23:34:43	887383	62b4370c9a89e5a09c4447de	3	1	main_z	11	advance_on_keypress_ZEE	126	stimuli_target_trianglerectangles.svg	stimuli_distractor_diamondtriangles.svg	21	yes	57	0	496	0	0			0	0			1				0	
6.6.1	win	2023-06-26	23:19:52	23:34:46	890521	62b4370c9a89e5a09c4447de	3	1	main_z	11	main_z	127	stimuli_distractor_diamondtriangles.svg	stimuli_target_trianglerectangles.svg	29	yes	0	0	2000	0	0			0	0			1				0	
6.6.1	win	2023-06-26	23:19:52	23:34:46	890521	62b4370c9a89e5a09c4447de	3	1	main_z	11	advance_on_keypress_ZEE	128	stimuli_distractor_diamondtriangles.svg	stimuli_target_trianglerectangles.svg	29	yes	57	0	2484	0	0			0	0			1				0	
6.6.1	win	2023-06-26	23:19:52	23:34:51	895655	62b4370c9a89e5a09c4447de	3	1	main_z	11	main_z	129	stimuli_distractor_trianglediamonds.svg	stimuli_distractor_trianglediamonds.svg	34	no	0	1	2000	0	0			0	0			1				0	
6.6.1	win	2023-06-26	23:19:52	23:34:51	895655	62b4370c9a89e5a09c4447de	3	1	main_z	11	advance_on_keypress_ZEE	130	stimuli_distractor_trianglediamonds.svg	stimuli_distractor_trianglediamonds.svg	34	no	57	0	663	0	0			0	0			1				0	
6.6.1	win	2023-06-26	23:19:52	23:34:53	897553	62b4370c9a89e5a09c4447de	3	1	main_z	11	main_z	131	stimuli_distractor_trianglediamonds.svg	stimuli_target_diamondsquares.svg	28	yes	44	1	581	0	0			0	0			1				0	
6.6.1	win	2023-06-26	23:19:52	23:34:53	897553	62b4370c9a89e5a09c4447de	3	1	main_z	11	advance_on_keypress_ZEE	132	stimuli_distractor_trianglediamonds.svg	stimuli_target_diamondsquares.svg	28	yes	57	0	2604	0	0			0	0			1				0	
6.6.1	win	2023-06-26	23:19:52	23:34:57	901369	62b4370c9a89e5a09c4447de	3	1	main_z	11	main_z	133	stimuli_distractor_trianglediamonds.svg	stimuli_target_trianglerectangles.svg	25	yes	44	1	563	0	0			0	0			1				0	
6.6.1	win	2023-06-26	23:19:52	23:34:57	901369	62b4370c9a89e5a09c4447de	3	1	main_z	11	advance_on_keypress_ZEE	134	stimuli_distractor_trianglediamonds.svg	stimuli_target_trianglerectangles.svg	25	yes	57	0	421	0	0			0	0			1				0	
6.6.1	win	2023-06-26	23:19:52	23:35:00	904439	62b4370c9a89e5a09c4447de	3	1	main_z	11	main_z	135	stimuli_distractor_diamondtriangles.svg	stimuli_distractor_trianglediamonds.svg	37	no	0	1	2000	0	0			0	0			1				0	
6.6.1	win	2023-06-26	23:19:52	23:35:00	904439	62b4370c9a89e5a09c4447de	3	1	main_z	11	advance_on_keypress_ZEE	136	stimuli_distractor_diamondtriangles.svg	stimuli_distractor_trianglediamonds.svg	37	no	57	0	1105	0	0			0	0			1				0	
6.6.1	win	2023-06-26	23:19:52	23:35:02	906566	62b4370c9a89e5a09c4447de	3	1	main_z	11	main_z	137	stimuli_target_squaretriangles.svg	stimuli_distractor_trianglediamonds.svg	3	yes	44	1	376	0	0			0	0			1				0	
6.6.1	win	2023-06-26	23:19:52	23:35:02	906566	62b4370c9a89e5a09c4447de	3	1	main_z	11	advance_on_keypress_ZEE	138	stimuli_target_squaretriangles.svg	stimuli_distractor_trianglediamonds.svg	3	yes	57	0	639	0	0			0	0			1				0	
6.6.1	win	2023-06-26	23:19:52	23:35:04	908368	62b4370c9a89e5a09c4447de	3	1	main_z	11	main_z	139	stimuli_target_trianglesquares.svg	stimuli_distractor_diamondtriangles.svg	22	yes	44	1	528	0	0			0	0			1				0	
6.6.1	win	2023-06-26	23:19:52	23:35:04	908368	62b4370c9a89e5a09c4447de	3	1	main_z	11	advance_on_keypress_ZEE	140	stimuli_target_trianglesquares.svg	stimuli_distractor_diamondtriangles.svg	22	yes	57	0	643	0	0			0	0			1				0	
6.6.1	win	2023-06-26	23:19:52	23:35:06	909982	62b4370c9a89e5a09c4447de	3	1	main_z	11	main_z	141	stimuli_target_squarediamonds.svg	stimuli_distractor_diamondtriangles.svg	8	yes	44	1	342	0	0			0	0			1				0	
6.6.1	win	2023-06-26	23:19:52	23:35:06	909982	62b4370c9a89e5a09c4447de	3	1	main_z	11	advance_on_keypress_ZEE	142	stimuli_target_squarediamonds.svg	stimuli_distractor_diamondtriangles.svg	8	yes	57	0	514	0	0			0	0			1				0	
6.6.1	win	2023-06-26	23:19:52	23:35:07	911661	62b4370c9a89e5a09c4447de	3	1	main_z	11	main_z	143	stimuli_target_rectangletriangles.svg	stimuli_distractor_trianglediamonds.svg	1	yes	44	1	522	0	0			0	0			1				0	
6.6.1	win	2023-06-26	23:19:52	23:35:07	911661	62b4370c9a89e5a09c4447de	3	1	main_z	11	advance_on_keypress_ZEE	144	stimuli_target_rectangletriangles.svg	stimuli_distractor_trianglediamonds.svg	1	yes	57	0	520	0	0			0	0			1				0	
6.6.1	win	2023-06-26	23:19:52	23:35:09	913650	62b4370c9a89e5a09c4447de	3	1	main_z	11	main_z	145	stimuli_target_trianglerectangles.svg	stimuli_distractor_trianglediamonds.svg	17	yes	44	1	826	0	0			0	0			1				0	
6.6.1	win	2023-06-26	23:19:52	23:35:09	913650	62b4370c9a89e5a09c4447de	3	1	main_z	11	advance_on_keypress_ZEE	146	stimuli_target_trianglerectangles.svg	stimuli_distractor_trianglediamonds.svg	17	yes	57	0	649	0	0			0	0			1				0	
6.6.1	win	2023-06-26	23:19:52	23:35:11	915218	62b4370c9a89e5a09c4447de	3	1	main_z	11	main_z	147	stimuli_distractor_diamondtriangles.svg	stimuli_target_trianglesquares.svg	30	yes	44	1	278	0	0			0	0			1				0	
6.6.1	win	2023-06-26	23:19:52	23:35:11	915218	62b4370c9a89e5a09c4447de	3	1	main_z	11	advance_on_keypress_ZEE	148	stimuli_distractor_diamondtriangles.svg	stimuli_target_trianglesquares.svg	30	yes	57	0	517	0	0			0	0			1				0	
6.6.1	win	2023-06-26	23:19:52	23:35:13	916928	62b4370c9a89e5a09c4447de	3	1	main_z	11	main_z	149	stimuli_distractor_trianglediamonds.svg	stimuli_distractor_diamondtriangles.svg	36	no	44	0	554	0	0			0	0			1				0	
6.6.1	win	2023-06-26	23:19:52	23:35:13	916928	62b4370c9a89e5a09c4447de	3	1	main_z	11	advance_on_keypress_ZEE	150	stimuli_distractor_trianglediamonds.svg	stimuli_distractor_diamondtriangles.svg	36	no	57	0	552	0	0			0	0			1				0	
6.6.1	win	2023-06-26	23:19:52	23:35:15	919547	62b4370c9a89e5a09c4447de	3	1	main_z	11	main_z	151	stimuli_distractor_trianglediamonds.svg	stimuli_target_rectangletriangles.svg	9	yes	44	1	1423	0	0			0	0			1				0	
6.6.1	win	2023-06-26	23:19:52	23:35:15	919547	62b4370c9a89e5a09c4447de	3	1	main_z	11	advance_on_keypress_ZEE	152	stimuli_distractor_trianglediamonds.svg	stimuli_target_rectangletriangles.svg	9	yes	57	0	425	0	0			0	0			1				0	
6.6.1	win	2023-06-26	23:19:52	23:35:17	920947	62b4370c9a89e5a09c4447de	3	1	main_z	11	main_z	153	stimuli_distractor_diamondtriangles.svg	stimuli_target_rectangletriangles.svg	13	yes	44	1	339	0	0			0	0			1				0	
6.6.1	win	2023-06-26	23:19:52	23:35:17	920947	62b4370c9a89e5a09c4447de	3	1	main_z	11	advance_on_keypress_ZEE	154	stimuli_distractor_diamondtriangles.svg	stimuli_target_rectangletriangles.svg	13	yes	57	0	862	0	0			0	0			1				0	
6.6.1	win	2023-06-26	23:19:52	23:35:20	924457	62b4370c9a89e5a09c4447de	3	1	main_z	11	main_z	155	stimuli_distractor_diamondtriangles.svg	stimuli_distractor_diamondtriangles.svg	39	no	0	1	2000	0	0			0	0			1				0	
6.6.1	win	2023-06-26	23:19:52	23:35:20	924457	62b4370c9a89e5a09c4447de	3	1	main_z	11	advance_on_keypress_ZEE	156	stimuli_distractor_diamondtriangles.svg	stimuli_distractor_diamondtriangles.svg	39	no	57	0	501	0	0			0	0			1				0	
6.6.1	win	2023-06-26	23:19:52	23:35:22	926291	62b4370c9a89e5a09c4447de	3	1	main_z	11	main_z	157	stimuli_distractor_diamondtriangles.svg	stimuli_target_squarediamonds.svg	16	yes	44	1	683	0	0			0	0			1				0	
6.6.1	win	2023-06-26	23:19:52	23:35:22	926291	62b4370c9a89e5a09c4447de	3	1	main_z	11	advance_on_keypress_ZEE	158	stimuli_distractor_diamondtriangles.svg	stimuli_target_squarediamonds.svg	16	yes	57	0	486	0	0			0	0			1				0	
6.6.1	win	2023-06-26	23:19:52	23:35:24	927980	62b4370c9a89e5a09c4447de	3	1	main_z	11	main_z	159	stimuli_distractor_trianglediamonds.svg	stimuli_target_rectanglediamonds.svg	10	yes	44	1	556	0	0			0	0			1				0	
6.6.1	win	2023-06-26	23:19:52	23:35:24	927980	62b4370c9a89e5a09c4447de	3	1	main_z	11	advance_on_keypress_ZEE	160	stimuli_distractor_trianglediamonds.svg	stimuli_target_rectanglediamonds.svg	10	yes	57	0	431	0	0			0	0			1				0	
6.6.1	win	2023-06-26	23:19:52	23:35:24	927980	62b4370c9a89e5a09c4447de	3	1	headphonecheck_calibration	14	headphonecheck_calibrationIntro	1	stimuli_distractor_trianglediamonds.svg	stimuli_target_rectanglediamonds.svg	10	yes	calibrationButton	0	9072	0	0			0	0			1				0	
6.6.1	win	2023-06-26	23:19:52	23:35:24	927980	62b4370c9a89e5a09c4447de	3	1	headphonecheck_testphase	15	test_collectResponse	3	stimuli_distractor_trianglediamonds.svg	stimuli_target_rectanglediamonds.svg	10	yes	third	1	1796	1	2	antiphase_hc_ios.wav	3	0	0			1				0	
6.6.1	win	2023-06-26	23:19:52	23:35:24	927980	62b4370c9a89e5a09c4447de	3	1	headphonecheck_testphase	15	test_collectResponse	6	stimuli_distractor_trianglediamonds.svg	stimuli_target_rectanglediamonds.svg	10	yes	second	1	940	2	1	antiphase_hc_iso.wav	2	0	0			1				0	
6.6.1	win	2023-06-26	23:19:52	23:35:24	927980	62b4370c9a89e5a09c4447de	3	1	headphonecheck_testphase	15	test_collectResponse	9	stimuli_distractor_trianglediamonds.svg	stimuli_target_rectanglediamonds.svg	10	yes	second	1	426	3	5	antiphase_hc_osi.wav	2	0	0			1				0	
6.6.1	win	2023-06-26	23:19:52	23:35:24	927980	62b4370c9a89e5a09c4447de	3	1	headphonecheck_testphase	15	test_collectResponse	12	stimuli_distractor_trianglediamonds.svg	stimuli_target_rectanglediamonds.svg	10	yes	third	1	675	4	6	antiphase_hc_ois.wav	3	0	0			1				0	
6.6.1	win	2023-06-26	23:19:52	23:35:24	927980	62b4370c9a89e5a09c4447de	3	1	headphonecheck_testphase	15	test_collectResponse	15	stimuli_distractor_trianglediamonds.svg	stimuli_target_rectanglediamonds.svg	10	yes	first	1	143	5	3	antiphase_hc_soi.wav	1	0	0			1				0	
6.6.1	win	2023-06-26	23:19:52	23:35:24	927980	62b4370c9a89e5a09c4447de	3	1	headphonecheck_testphase	15	test_collectResponse	18	stimuli_distractor_trianglediamonds.svg	stimuli_target_rectanglediamonds.svg	10	yes	first	1	39865	6	4	antiphase_hc_sio.wav	1	0	0			1				0	
6.6.1	win	2023-06-26	23:19:52	23:35:24	927980	62b4370c9a89e5a09c4447de	3	1	stereocheck_calibration	17	stereocheck_calibrationIntro	1	stimuli_distractor_trianglediamonds.svg	stimuli_target_rectanglediamonds.svg	10	yes	stereocheck_calibrationButton	0	13186	6	4	antiphase_hc_sio.wav	1	0	0			1				0	
6.6.1	win	2023-06-26	23:19:52	23:35:24	927980	62b4370c9a89e5a09c4447de	3	1	stereocheck_testphase	18	stereocheck_test_collectResponse	3	stimuli_distractor_trianglediamonds.svg	stimuli_target_rectanglediamonds.svg	10	yes	stereocheck_right	1	316	6	4	antiphase_hc_sio.wav	1	1	6	noise_calib_stim_RIGHT.wav	2	1				0	
6.6.1	win	2023-06-26	23:19:52	23:35:24	927980	62b4370c9a89e5a09c4447de	3	1	stereocheck_testphase	18	stereocheck_test_collectResponse	6	stimuli_distractor_trianglediamonds.svg	stimuli_target_rectanglediamonds.svg	10	yes	stereocheck_left	1	287	6	4	antiphase_hc_sio.wav	1	2	2	noise_calib_stim_LEFT.wav	1	1				0	
6.6.1	win	2023-06-26	23:19:52	23:35:24	927980	62b4370c9a89e5a09c4447de	3	1	stereocheck_testphase	18	stereocheck_test_collectResponse	9	stimuli_distractor_trianglediamonds.svg	stimuli_target_rectanglediamonds.svg	10	yes	stereocheck_right	1	309	6	4	antiphase_hc_sio.wav	1	3	4	noise_calib_stim_RIGHT.wav	2	1				0	
6.6.1	win	2023-06-26	23:19:52	23:35:24	927980	62b4370c9a89e5a09c4447de	3	1	stereocheck_testphase	18	stereocheck_test_collectResponse	12	stimuli_distractor_trianglediamonds.svg	stimuli_target_rectanglediamonds.svg	10	yes	stereocheck_left	1	291	6	4	antiphase_hc_sio.wav	1	4	1	noise_calib_stim_LEFT.wav	1	1				0	
6.6.1	win	2023-06-26	23:19:52	23:35:24	927980	62b4370c9a89e5a09c4447de	3	1	stereocheck_testphase	18	stereocheck_test_collectResponse	15	stimuli_distractor_trianglediamonds.svg	stimuli_target_rectanglediamonds.svg	10	yes	stereocheck_right	1	267	6	4	antiphase_hc_sio.wav	1	5	5	noise_calib_stim_RIGHT.wav	2	1				0	
6.6.1	win	2023-06-26	23:19:52	23:35:24	927980	62b4370c9a89e5a09c4447de	3	1	stereocheck_testphase	18	stereocheck_test_collectResponse	18	stimuli_distractor_trianglediamonds.svg	stimuli_target_rectanglediamonds.svg	10	yes	stereocheck_left	1	401	6	4	antiphase_hc_sio.wav	1	6	3	noise_calib_stim_LEFT.wav	1	1				0	
6.6.1	win	2023-06-26	23:19:52	23:35:24	927980	62b4370c9a89e5a09c4447de	3	1	DL_practice	21	DL_practice	2	stimuli_distractor_trianglediamonds.svg	stimuli_target_rectanglediamonds.svg	10	yes	da	0	1651	6	4	antiphase_hc_sio.wav	1	6	3	noise_calib_stim_LEFT.wav	1	15	blb_dichoticlistening_ga-ga.mp3	ga	ga	0	other
6.6.1	win	2023-06-26	23:19:52	23:35:24	927980	62b4370c9a89e5a09c4447de	3	1	DL_practice	21	DL_practice	3	stimuli_distractor_trianglediamonds.svg	stimuli_target_rectanglediamonds.svg	10	yes	pa	1	1413	6	4	antiphase_hc_sio.wav	1	6	3	noise_calib_stim_LEFT.wav	1	29	blb_dichoticlistening_pa-pa.mp3	pa	pa	0	left
6.6.1	win	2023-06-26	23:19:52	23:35:24	927980	62b4370c9a89e5a09c4447de	3	1	DL_practice	21	DL_practice	4	stimuli_distractor_trianglediamonds.svg	stimuli_target_rectanglediamonds.svg	10	yes	da	1	1724	6	4	antiphase_hc_sio.wav	1	6	3	noise_calib_stim_LEFT.wav	1	7	blb_dichoticlistening_da-ba.mp3	da	ba	1	left
6.6.1	win	2023-06-26	23:19:52	23:35:24	927980	62b4370c9a89e5a09c4447de	3	1	DL_practice	21	DL_practice	5	stimuli_distractor_trianglediamonds.svg	stimuli_target_rectanglediamonds.svg	10	yes	ta	1	1989	6	4	antiphase_hc_sio.wav	1	6	3	noise_calib_stim_LEFT.wav	1	36	blb_dichoticlistening_ta-ta.mp3	ta	ta	0	left
6.6.1	win	2023-06-26	23:19:52	23:35:24	927980	62b4370c9a89e5a09c4447de	3	1	DL_practice	21	DL_practice	6	stimuli_distractor_trianglediamonds.svg	stimuli_target_rectanglediamonds.svg	10	yes	pa	1	1270	6	4	antiphase_hc_sio.wav	1	6	3	noise_calib_stim_LEFT.wav	1	23	blb_dichoticlistening_ka-pa.mp3	ka	pa	1	right
6.6.1	win	2023-06-26	23:19:52	23:35:24	927980	62b4370c9a89e5a09c4447de	3	1	DL_practice	21	DL_practice	7	stimuli_distractor_trianglediamonds.svg	stimuli_target_rectanglediamonds.svg	10	yes	da	1	1408	6	4	antiphase_hc_sio.wav	1	6	3	noise_calib_stim_LEFT.wav	1	8	blb_dichoticlistening_da-da.mp3	da	da	0	left
6.6.1	win	2023-06-26	23:19:52	23:35:24	927980	62b4370c9a89e5a09c4447de	3	1	DL_practice	21	DL_practice	8	stimuli_distractor_trianglediamonds.svg	stimuli_target_rectanglediamonds.svg	10	yes	ba	1	1360	6	4	antiphase_hc_sio.wav	1	6	3	noise_calib_stim_LEFT.wav	1	1	blb_dichoticlistening_ba-ba.mp3	ba	ba	0	left
6.6.1	win	2023-06-26	23:19:52	23:35:24	927980	62b4370c9a89e5a09c4447de	3	1	DL_practice	21	DL_practice	9	stimuli_distractor_trianglediamonds.svg	stimuli_target_rectanglediamonds.svg	10	yes	ka	1	1544	6	4	antiphase_hc_sio.wav	1	6	3	noise_calib_stim_LEFT.wav	1	22	blb_dichoticlistening_ka-ka.mp3	ka	ka	0	left
6.6.1	win	2023-06-26	23:19:52	23:35:24	927980	62b4370c9a89e5a09c4447de	3	1	DL_practice	21	DL_practice	10	stimuli_distractor_trianglediamonds.svg	stimuli_target_rectanglediamonds.svg	10	yes	ta	1	2254	6	4	antiphase_hc_sio.wav	1	6	3	noise_calib_stim_LEFT.wav	1	18	blb_dichoticlistening_ga-ta.mp3	ga	ta	1	right
6.6.1	win	2023-06-26	23:19:52	23:35:24	927980	62b4370c9a89e5a09c4447de	3	1	DL_test	23	DL_test	1	stimuli_distractor_trianglediamonds.svg	stimuli_target_rectanglediamonds.svg	10	yes	da	1	1591	6	4	antiphase_hc_sio.wav	1	6	3	noise_calib_stim_LEFT.wav	1	20	blb_dichoticlistening_ka-da.mp3	ka	da	1	right
6.6.1	win	2023-06-26	23:19:52	23:35:24	927980	62b4370c9a89e5a09c4447de	3	1	DL_test	23	DL_test	2	stimuli_distractor_trianglediamonds.svg	stimuli_target_rectanglediamonds.svg	10	yes	pa	1	1522	6	4	antiphase_hc_sio.wav	1	6	3	noise_calib_stim_LEFT.wav	1	25	blb_dichoticlistening_pa-ba.mp3	pa	ba	1	left
6.6.1	win	2023-06-26	23:19:52	23:35:24	927980	62b4370c9a89e5a09c4447de	3	1	DL_test	23	DL_test	3	stimuli_distractor_trianglediamonds.svg	stimuli_target_rectanglediamonds.svg	10	yes	da	0	1836	6	4	antiphase_hc_sio.wav	1	6	3	noise_calib_stim_LEFT.wav	1	13	blb_dichoticlistening_ga-ba.mp3	ga	ba	1	other
6.6.1	win	2023-06-26	23:19:52	23:35:24	927980	62b4370c9a89e5a09c4447de	3	1	DL_test	23	DL_test	4	stimuli_distractor_trianglediamonds.svg	stimuli_target_rectanglediamonds.svg	10	yes	ta	1	1851	6	4	antiphase_hc_sio.wav	1	6	3	noise_calib_stim_LEFT.wav	1	32	blb_dichoticlistening_ta-da.mp3	ta	da	1	left
6.6.1	win	2023-06-26	23:19:52	23:35:24	927980	62b4370c9a89e5a09c4447de	3	1	DL_test	23	DL_test	5	stimuli_distractor_trianglediamonds.svg	stimuli_target_rectanglediamonds.svg	10	yes	da	0	1453	6	4	antiphase_hc_sio.wav	1	6	3	noise_calib_stim_LEFT.wav	1	15	blb_dichoticlistening_ga-ga.mp3	ga	ga	0	other
6.6.1	win	2023-06-26	23:19:52	23:35:24	927980	62b4370c9a89e5a09c4447de	3	1	DL_test	23	DL_test	6	stimuli_distractor_trianglediamonds.svg	stimuli_target_rectanglediamonds.svg	10	yes	da	1	1204	6	4	antiphase_hc_sio.wav	1	6	3	noise_calib_stim_LEFT.wav	1	9	blb_dichoticlistening_da-ga.mp3	da	ga	1	left
6.6.1	win	2023-06-26	23:19:52	23:35:24	927980	62b4370c9a89e5a09c4447de	3	1	DL_test	23	DL_test	7	stimuli_distractor_trianglediamonds.svg	stimuli_target_rectanglediamonds.svg	10	yes	ka	1	1879	6	4	antiphase_hc_sio.wav	1	6	3	noise_calib_stim_LEFT.wav	1	16	blb_dichoticlistening_ga-ka.mp3	ga	ka	1	right
6.6.1	win	2023-06-26	23:19:52	23:35:24	927980	62b4370c9a89e5a09c4447de	3	1	DL_test	23	DL_test	8	stimuli_distractor_trianglediamonds.svg	stimuli_target_rectanglediamonds.svg	10	yes	pa	1	1143	6	4	antiphase_hc_sio.wav	1	6	3	noise_calib_stim_LEFT.wav	1	29	blb_dichoticlistening_pa-pa.mp3	pa	pa	0	left
6.6.1	win	2023-06-26	23:19:52	23:35:24	927980	62b4370c9a89e5a09c4447de	3	1	DL_test	23	DL_test	9	stimuli_distractor_trianglediamonds.svg	stimuli_target_rectanglediamonds.svg	10	yes	ba	1	1383	6	4	antiphase_hc_sio.wav	1	6	3	noise_calib_stim_LEFT.wav	1	1	blb_dichoticlistening_ba-ba.mp3	ba	ba	0	left
6.6.1	win	2023-06-26	23:19:52	23:35:24	927980	62b4370c9a89e5a09c4447de	3	1	DL_test	23	DL_test	10	stimuli_distractor_trianglediamonds.svg	stimuli_target_rectanglediamonds.svg	10	yes	pa	1	1355	6	4	antiphase_hc_sio.wav	1	6	3	noise_calib_stim_LEFT.wav	1	5	blb_dichoticlistening_ba-pa.mp3	ba	pa	1	right
6.6.1	win	2023-06-26	23:19:52	23:35:24	927980	62b4370c9a89e5a09c4447de	3	1	DL_test	23	DL_test	11	stimuli_distractor_trianglediamonds.svg	stimuli_target_rectanglediamonds.svg	10	yes	pa	1	1100	6	4	antiphase_hc_sio.wav	1	6	3	noise_calib_stim_LEFT.wav	1	23	blb_dichoticlistening_ka-pa.mp3	ka	pa	1	right
6.6.1	win	2023-06-26	23:19:52	23:35:24	927980	62b4370c9a89e5a09c4447de	3	1	DL_test	23	DL_test	12	stimuli_distractor_trianglediamonds.svg	stimuli_target_rectanglediamonds.svg	10	yes	ta	1	1567	6	4	antiphase_hc_sio.wav	1	6	3	noise_calib_stim_LEFT.wav	1	12	blb_dichoticlistening_da-ta.mp3	da	ta	1	right
6.6.1	win	2023-06-26	23:19:52	23:35:24	927980	62b4370c9a89e5a09c4447de	3	1	DL_test	23	DL_test	13	stimuli_distractor_trianglediamonds.svg	stimuli_target_rectanglediamonds.svg	10	yes	da	1	1632	6	4	antiphase_hc_sio.wav	1	6	3	noise_calib_stim_LEFT.wav	1	7	blb_dichoticlistening_da-ba.mp3	da	ba	1	left
6.6.1	win	2023-06-26	23:19:52	23:35:24	927980	62b4370c9a89e5a09c4447de	3	1	DL_test	23	DL_test	14	stimuli_distractor_trianglediamonds.svg	stimuli_target_rectanglediamonds.svg	10	yes	ta	1	1358	6	4	antiphase_hc_sio.wav	1	6	3	noise_calib_stim_LEFT.wav	1	34	blb_dichoticlistening_ta-ka.mp3	ta	ka	1	left
6.6.1	win	2023-06-26	23:19:52	23:35:24	927980	62b4370c9a89e5a09c4447de	3	1	DL_test	23	DL_test	15	stimuli_distractor_trianglediamonds.svg	stimuli_target_rectanglediamonds.svg	10	yes	pa	0	1992	6	4	antiphase_hc_sio.wav	1	6	3	noise_calib_stim_LEFT.wav	1	31	blb_dichoticlistening_ta-ba.mp3	ta	ba	1	other
6.6.1	win	2023-06-26	23:19:52	23:35:24	927980	62b4370c9a89e5a09c4447de	3	1	DL_test	23	DL_test	16	stimuli_distractor_trianglediamonds.svg	stimuli_target_rectanglediamonds.svg	10	yes	da	0	1480	6	4	antiphase_hc_sio.wav	1	6	3	noise_calib_stim_LEFT.wav	1	3	blb_dichoticlistening_ba-ga.mp3	ba	ga	1	other
6.6.1	win	2023-06-26	23:19:52	23:35:24	927980	62b4370c9a89e5a09c4447de	3	1	DL_test	23	DL_test	17	stimuli_distractor_trianglediamonds.svg	stimuli_target_rectanglediamonds.svg	10	yes	da	1	1134	6	4	antiphase_hc_sio.wav	1	6	3	noise_calib_stim_LEFT.wav	1	14	blb_dichoticlistening_ga-da.mp3	ga	da	1	right
6.6.1	win	2023-06-26	23:19:52	23:35:24	927980	62b4370c9a89e5a09c4447de	3	1	DL_test	23	DL_test	18	stimuli_distractor_trianglediamonds.svg	stimuli_target_rectanglediamonds.svg	10	yes	ta	1	1715	6	4	antiphase_hc_sio.wav	1	6	3	noise_calib_stim_LEFT.wav	1	6	blb_dichoticlistening_ba-ta.mp3	ba	ta	1	right
6.6.1	win	2023-06-26	23:19:52	23:35:24	927980	62b4370c9a89e5a09c4447de	3	1	DL_test	23	DL_test	19	stimuli_distractor_trianglediamonds.svg	stimuli_target_rectanglediamonds.svg	10	yes	ka	1	1223	6	4	antiphase_hc_sio.wav	1	6	3	noise_calib_stim_LEFT.wav	1	4	blb_dichoticlistening_ba-ka.mp3	ba	ka	1	right
6.6.1	win	2023-06-26	23:19:52	23:35:24	927980	62b4370c9a89e5a09c4447de	3	1	DL_test	23	DL_test	20	stimuli_distractor_trianglediamonds.svg	stimuli_target_rectanglediamonds.svg	10	yes	da	1	1787	6	4	antiphase_hc_sio.wav	1	6	3	noise_calib_stim_LEFT.wav	1	2	blb_dichoticlistening_ba-da.mp3	ba	da	1	right
6.6.1	win	2023-06-26	23:19:52	23:35:24	927980	62b4370c9a89e5a09c4447de	3	1	DL_test	23	DL_test	21	stimuli_distractor_trianglediamonds.svg	stimuli_target_rectanglediamonds.svg	10	yes	da	1	988	6	4	antiphase_hc_sio.wav	1	6	3	noise_calib_stim_LEFT.wav	1	8	blb_dichoticlistening_da-da.mp3	da	da	0	left
6.6.1	win	2023-06-26	23:19:52	23:35:24	927980	62b4370c9a89e5a09c4447de	3	1	DL_test	23	DL_test	22	stimuli_distractor_trianglediamonds.svg	stimuli_target_rectanglediamonds.svg	10	yes	ta	1	1503	6	4	antiphase_hc_sio.wav	1	6	3	noise_calib_stim_LEFT.wav	1	30	blb_dichoticlistening_pa-ta.mp3	pa	ta	1	right
6.6.1	win	2023-06-26	23:19:52	23:35:24	927980	62b4370c9a89e5a09c4447de	3	1	DL_test	23	DL_test	23	stimuli_distractor_trianglediamonds.svg	stimuli_target_rectanglediamonds.svg	10	yes	ga	0	1027	6	4	antiphase_hc_sio.wav	1	6	3	noise_calib_stim_LEFT.wav	1	26	blb_dichoticlistening_pa-da.mp3	pa	da	1	other
6.6.1	win	2023-06-26	23:19:52	23:35:24	927980	62b4370c9a89e5a09c4447de	3	1	DL_test	23	DL_test	24	stimuli_distractor_trianglediamonds.svg	stimuli_target_rectanglediamonds.svg	10	yes	pa	0	1336	6	4	antiphase_hc_sio.wav	1	6	3	noise_calib_stim_LEFT.wav	1	19	blb_dichoticlistening_ka-ba.mp3	ka	ba	1	other
6.6.1	win	2023-06-26	23:19:52	23:35:24	927980	62b4370c9a89e5a09c4447de	3	1	DL_test	23	DL_test	25	stimuli_distractor_trianglediamonds.svg	stimuli_target_rectanglediamonds.svg	10	yes	ta	1	1741	6	4	antiphase_hc_sio.wav	1	6	3	noise_calib_stim_LEFT.wav	1	18	blb_dichoticlistening_ga-ta.mp3	ga	ta	1	right
6.6.1	win	2023-06-26	23:19:52	23:35:24	927980	62b4370c9a89e5a09c4447de	3	1	DL_test	23	DL_test	26	stimuli_distractor_trianglediamonds.svg	stimuli_target_rectanglediamonds.svg	10	yes	pa	0	1488	6	4	antiphase_hc_sio.wav	1	6	3	noise_calib_stim_LEFT.wav	1	10	blb_dichoticlistening_da-ka.mp3	da	ka	1	other
