build	computer.platform	date	time	timestamp	time_elapsed_ms	subject	group	session	blockcode	blocknum	trialcode	trialnum	stimulus_left	stimulus_right	stim_index	target_present	response	correct	latency	headphonecheck_countTestTrials	headphonecheck_index	headphonecheck_testSound	headphonecheck_correctResponse	stereocheck_countTestTrials	stereocheck_index	stereocheck_testSound	stereocheck_correctResponse	DL_index	DL_soundfile	DL_leftSound	DL_rightSound	DL_dualSound	DL_choice
6.6.1	mac	2023-06-27	14:31:49	14:34:34	161803	5c6ddaefdf677d00013fa313	4	1	practice_z	5	practice_z	1	stimuli_distractor_diamondtriangles.svg	stimuli_target_diamondrectangles.svg	8	yes	0	0	2000	0	0			0	0			1				0	
6.6.1	mac	2023-06-27	14:31:49	14:34:34	161803	5c6ddaefdf677d00013fa313	4	1	practice_z	5	advance_on_keypress_ZEE	2	stimuli_distractor_diamondtriangles.svg	stimuli_target_diamondrectangles.svg	8	yes	57	0	2296	0	0			0	0			1				0	
6.6.1	mac	2023-06-27	14:31:49	14:34:39	166538	5c6ddaefdf677d00013fa313	4	1	practice_z	5	practice_z	3	stimuli_distractor_trianglediamonds.svg	stimuli_target_rectanglediamonds.svg	10	yes	44	1	804	0	0			0	0			1				0	
6.6.1	mac	2023-06-27	14:31:49	14:34:39	166538	5c6ddaefdf677d00013fa313	4	1	practice_z	5	advance_on_keypress_ZEE	4	stimuli_distractor_trianglediamonds.svg	stimuli_target_rectanglediamonds.svg	10	yes	57	0	606	0	0			0	0			1				0	
6.6.1	mac	2023-06-27	14:31:49	14:34:43	170768	5c6ddaefdf677d00013fa313	4	1	practice_z	5	practice_z	5	stimuli_distractor_diamondtriangles.svg	stimuli_distractor_diamondtriangles.svg	13	no	0	1	2000	0	0			0	0			1				0	
6.6.1	mac	2023-06-27	14:31:49	14:34:43	170768	5c6ddaefdf677d00013fa313	4	1	practice_z	5	advance_on_keypress_ZEE	6	stimuli_distractor_diamondtriangles.svg	stimuli_distractor_diamondtriangles.svg	13	no	57	0	3623	0	0			0	0			1				0	
6.6.1	mac	2023-06-27	14:31:49	14:34:49	177089	5c6ddaefdf677d00013fa313	4	1	practice_z	5	practice_z	7	stimuli_distractor_diamondtriangles.svg	stimuli_target_trianglerectangles.svg	9	yes	44	1	1056	0	0			0	0			1				0	
6.6.1	mac	2023-06-27	14:31:49	14:34:49	177089	5c6ddaefdf677d00013fa313	4	1	practice_z	5	advance_on_keypress_ZEE	8	stimuli_distractor_diamondtriangles.svg	stimuli_target_trianglerectangles.svg	9	yes	57	0	1711	0	0			0	0			1				0	
6.6.1	mac	2023-06-27	14:31:49	14:34:54	182436	5c6ddaefdf677d00013fa313	4	1	practice_z	5	practice_z	9	stimuli_target_squarediamonds.svg	stimuli_distractor_diamondtriangles.svg	2	yes	0	0	2000	0	0			0	0			1				0	
6.6.1	mac	2023-06-27	14:31:49	14:34:54	182436	5c6ddaefdf677d00013fa313	4	1	practice_z	5	advance_on_keypress_ZEE	10	stimuli_target_squarediamonds.svg	stimuli_distractor_diamondtriangles.svg	2	yes	57	0	693	0	0			0	0			1				0	
6.6.1	mac	2023-06-27	14:31:49	14:34:59	186770	5c6ddaefdf677d00013fa313	4	1	practice_z	5	practice_z	11	stimuli_distractor_diamondtriangles.svg	stimuli_target_rectangletriangles.svg	7	yes	0	0	2000	0	0			0	0			1				0	
6.6.1	mac	2023-06-27	14:31:49	14:34:59	186770	5c6ddaefdf677d00013fa313	4	1	practice_z	5	advance_on_keypress_ZEE	12	stimuli_distractor_diamondtriangles.svg	stimuli_target_rectangletriangles.svg	7	yes	57	0	511	0	0			0	0			1				0	
6.6.1	mac	2023-06-27	14:31:49	14:35:02	189985	5c6ddaefdf677d00013fa313	4	1	practice_z	5	practice_z	13	stimuli_target_rectanglediamonds.svg	stimuli_distractor_trianglediamonds.svg	4	yes	44	1	1068	0	0			0	0			1				0	
6.6.1	mac	2023-06-27	14:31:49	14:35:02	189985	5c6ddaefdf677d00013fa313	4	1	practice_z	5	advance_on_keypress_ZEE	14	stimuli_target_rectanglediamonds.svg	stimuli_distractor_trianglediamonds.svg	4	yes	57	0	669	0	0			0	0			1				0	
6.6.1	mac	2023-06-27	14:31:49	14:35:05	193104	5c6ddaefdf677d00013fa313	4	1	practice_z	5	practice_z	15	stimuli_target_squarediamonds.svg	stimuli_distractor_trianglediamonds.svg	5	yes	44	1	823	0	0			0	0			1				0	
6.6.1	mac	2023-06-27	14:31:49	14:35:05	193104	5c6ddaefdf677d00013fa313	4	1	practice_z	5	advance_on_keypress_ZEE	16	stimuli_target_squarediamonds.svg	stimuli_distractor_trianglediamonds.svg	5	yes	57	0	516	0	0			0	0			1				0	
6.6.1	mac	2023-06-27	14:31:49	14:35:08	195918	5c6ddaefdf677d00013fa313	4	1	practice_z	5	practice_z	17	stimuli_distractor_trianglediamonds.svg	stimuli_target_diamondrectangles.svg	12	yes	44	1	668	0	0			0	0			1				0	
6.6.1	mac	2023-06-27	14:31:49	14:35:08	195918	5c6ddaefdf677d00013fa313	4	1	practice_z	5	advance_on_keypress_ZEE	18	stimuli_distractor_trianglediamonds.svg	stimuli_target_diamondrectangles.svg	12	yes	57	0	456	0	0			0	0			1				0	
6.6.1	mac	2023-06-27	14:31:49	14:35:12	200022	5c6ddaefdf677d00013fa313	4	1	practice_z	5	practice_z	19	stimuli_target_diamondsquares.svg	stimuli_distractor_diamondtriangles.svg	3	yes	0	0	2000	0	0			0	0			1				0	
6.6.1	mac	2023-06-27	14:31:49	14:35:12	200022	5c6ddaefdf677d00013fa313	4	1	practice_z	5	advance_on_keypress_ZEE	20	stimuli_target_diamondsquares.svg	stimuli_distractor_diamondtriangles.svg	3	yes	57	0	414	0	0			0	0			1				0	
6.6.1	mac	2023-06-27	14:31:49	14:35:16	204072	5c6ddaefdf677d00013fa313	4	1	practice_z	5	practice_z	21	stimuli_distractor_trianglediamonds.svg	stimuli_distractor_diamondtriangles.svg	16	no	0	1	2000	0	0			0	0			1				0	
6.6.1	mac	2023-06-27	14:31:49	14:35:16	204072	5c6ddaefdf677d00013fa313	4	1	practice_z	5	advance_on_keypress_ZEE	22	stimuli_distractor_trianglediamonds.svg	stimuli_distractor_diamondtriangles.svg	16	no	57	0	366	0	0			0	0			1				0	
6.6.1	mac	2023-06-27	14:31:49	14:35:20	208072	5c6ddaefdf677d00013fa313	4	1	practice_z	5	practice_z	23	stimuli_distractor_trianglediamonds.svg	stimuli_distractor_trianglediamonds.svg	15	no	0	1	2000	0	0			0	0			1				0	
6.6.1	mac	2023-06-27	14:31:49	14:35:20	208072	5c6ddaefdf677d00013fa313	4	1	practice_z	5	advance_on_keypress_ZEE	24	stimuli_distractor_trianglediamonds.svg	stimuli_distractor_trianglediamonds.svg	15	no	57	0	300	0	0			0	0			1				0	
6.6.1	mac	2023-06-27	14:31:49	14:35:23	211130	5c6ddaefdf677d00013fa313	4	1	practice_z	5	practice_z	25	stimuli_distractor_diamondtriangles.svg	stimuli_distractor_trianglediamonds.svg	14	no	44	0	1128	0	0			0	0			1				0	
6.6.1	mac	2023-06-27	14:31:49	14:35:23	211130	5c6ddaefdf677d00013fa313	4	1	practice_z	5	advance_on_keypress_ZEE	26	stimuli_distractor_diamondtriangles.svg	stimuli_distractor_trianglediamonds.svg	14	no	57	0	346	0	0			0	0			1				0	
6.6.1	mac	2023-06-27	14:31:49	14:35:26	214024	5c6ddaefdf677d00013fa313	4	1	practice_z	5	practice_z	27	stimuli_target_diamondsquares.svg	stimuli_distractor_trianglediamonds.svg	6	yes	44	1	908	0	0			0	0			1				0	
6.6.1	mac	2023-06-27	14:31:49	14:35:26	214024	5c6ddaefdf677d00013fa313	4	1	practice_z	5	advance_on_keypress_ZEE	28	stimuli_target_diamondsquares.svg	stimuli_distractor_trianglediamonds.svg	6	yes	57	0	537	0	0			0	0			1				0	
6.6.1	mac	2023-06-27	14:31:49	14:35:30	217608	5c6ddaefdf677d00013fa313	4	1	practice_z	5	practice_z	29	stimuli_distractor_trianglediamonds.svg	stimuli_target_squarediamonds.svg	11	yes	44	1	1425	0	0			0	0			1				0	
6.6.1	mac	2023-06-27	14:31:49	14:35:30	217608	5c6ddaefdf677d00013fa313	4	1	practice_z	5	advance_on_keypress_ZEE	30	stimuli_distractor_trianglediamonds.svg	stimuli_target_squarediamonds.svg	11	yes	57	0	457	0	0			0	0			1				0	
6.6.1	mac	2023-06-27	14:31:49	14:35:32	220248	5c6ddaefdf677d00013fa313	4	1	practice_z	5	practice_z	31	stimuli_target_rectanglediamonds.svg	stimuli_distractor_diamondtriangles.svg	1	yes	44	1	566	0	0			0	0			1				0	
6.6.1	mac	2023-06-27	14:31:49	14:35:32	220248	5c6ddaefdf677d00013fa313	4	1	practice_z	5	advance_on_keypress_ZEE	32	stimuli_target_rectanglediamonds.svg	stimuli_distractor_diamondtriangles.svg	1	yes	57	0	367	0	0			0	0			1				0	
6.6.1	mac	2023-06-27	14:31:49	14:35:46	233656	5c6ddaefdf677d00013fa313	4	1	main_z	7	main_z	1	stimuli_distractor_trianglediamonds.svg	stimuli_target_rectanglediamonds.svg	10	yes	44	1	508	0	0			0	0			1				0	
6.6.1	mac	2023-06-27	14:31:49	14:35:46	233656	5c6ddaefdf677d00013fa313	4	1	main_z	7	advance_on_keypress_ZEE	2	stimuli_distractor_trianglediamonds.svg	stimuli_target_rectanglediamonds.svg	10	yes	57	0	2008	0	0			0	0			1				0	
6.6.1	mac	2023-06-27	14:31:49	14:35:50	238304	5c6ddaefdf677d00013fa313	4	1	main_z	7	main_z	3	stimuli_distractor_diamondtriangles.svg	stimuli_distractor_trianglediamonds.svg	37	no	0	1	2000	0	0			0	0			1				0	
6.6.1	mac	2023-06-27	14:31:49	14:35:50	238304	5c6ddaefdf677d00013fa313	4	1	main_z	7	advance_on_keypress_ZEE	4	stimuli_distractor_diamondtriangles.svg	stimuli_distractor_trianglediamonds.svg	37	no	57	0	584	0	0			0	0			1				0	
6.6.1	mac	2023-06-27	14:31:49	14:35:52	240054	5c6ddaefdf677d00013fa313	4	1	main_z	7	main_z	5	stimuli_distractor_diamondtriangles.svg	stimuli_target_squarediamonds.svg	16	yes	44	1	537	0	0			0	0			1				0	
6.6.1	mac	2023-06-27	14:31:49	14:35:52	240054	5c6ddaefdf677d00013fa313	4	1	main_z	7	advance_on_keypress_ZEE	6	stimuli_distractor_diamondtriangles.svg	stimuli_target_squarediamonds.svg	16	yes	57	0	2614	0	0			0	0			1				0	
6.6.1	mac	2023-06-27	14:31:49	14:35:56	244309	5c6ddaefdf677d00013fa313	4	1	main_z	7	main_z	7	stimuli_target_diamondsquares.svg	stimuli_distractor_diamondtriangles.svg	24	yes	44	1	1008	0	0			0	0			1				0	
6.6.1	mac	2023-06-27	14:31:49	14:35:56	244309	5c6ddaefdf677d00013fa313	4	1	main_z	7	advance_on_keypress_ZEE	8	stimuli_target_diamondsquares.svg	stimuli_distractor_diamondtriangles.svg	24	yes	57	0	1026	0	0			0	0			1				0	
6.6.1	mac	2023-06-27	14:31:49	14:35:59	246507	5c6ddaefdf677d00013fa313	4	1	main_z	7	main_z	9	stimuli_distractor_diamondtriangles.svg	stimuli_target_squaretriangles.svg	15	yes	44	1	542	0	0			0	0			1				0	
6.6.1	mac	2023-06-27	14:31:49	14:35:59	246507	5c6ddaefdf677d00013fa313	4	1	main_z	7	advance_on_keypress_ZEE	10	stimuli_distractor_diamondtriangles.svg	stimuli_target_squaretriangles.svg	15	yes	57	0	1133	0	0			0	0			1				0	
6.6.1	mac	2023-06-27	14:31:49	14:36:02	250272	5c6ddaefdf677d00013fa313	4	1	main_z	7	main_z	11	stimuli_distractor_trianglediamonds.svg	stimuli_distractor_diamondtriangles.svg	35	no	0	1	2000	0	0			0	0			1				0	
6.6.1	mac	2023-06-27	14:31:49	14:36:02	250272	5c6ddaefdf677d00013fa313	4	1	main_z	7	advance_on_keypress_ZEE	12	stimuli_distractor_trianglediamonds.svg	stimuli_distractor_diamondtriangles.svg	35	no	57	0	626	0	0			0	0			1				0	
6.6.1	mac	2023-06-27	14:31:49	14:36:05	252921	5c6ddaefdf677d00013fa313	4	1	main_z	7	main_z	13	stimuli_distractor_trianglediamonds.svg	stimuli_target_squaretriangles.svg	11	yes	44	1	1372	0	0			0	0			1				0	
6.6.1	mac	2023-06-27	14:31:49	14:36:05	252921	5c6ddaefdf677d00013fa313	4	1	main_z	7	advance_on_keypress_ZEE	14	stimuli_distractor_trianglediamonds.svg	stimuli_target_squaretriangles.svg	11	yes	57	0	1115	0	0			0	0			1				0	
6.6.1	mac	2023-06-27	14:31:49	14:36:07	255088	5c6ddaefdf677d00013fa313	4	1	main_z	7	main_z	15	stimuli_target_squaretriangles.svg	stimuli_distractor_diamondtriangles.svg	7	yes	44	1	424	0	0			0	0			1				0	
6.6.1	mac	2023-06-27	14:31:49	14:36:07	255088	5c6ddaefdf677d00013fa313	4	1	main_z	7	advance_on_keypress_ZEE	16	stimuli_target_squaretriangles.svg	stimuli_distractor_diamondtriangles.svg	7	yes	57	0	768	0	0			0	0			1				0	
6.6.1	mac	2023-06-27	14:31:49	14:36:09	256961	5c6ddaefdf677d00013fa313	4	1	main_z	7	main_z	17	stimuli_distractor_trianglediamonds.svg	stimuli_target_rectangletriangles.svg	9	yes	44	1	481	0	0			0	0			1				0	
6.6.1	mac	2023-06-27	14:31:49	14:36:09	256961	5c6ddaefdf677d00013fa313	4	1	main_z	7	advance_on_keypress_ZEE	18	stimuli_distractor_trianglediamonds.svg	stimuli_target_rectangletriangles.svg	9	yes	57	0	514	0	0			0	0			1				0	
6.6.1	mac	2023-06-27	14:31:49	14:36:12	260118	5c6ddaefdf677d00013fa313	4	1	main_z	7	main_z	19	stimuli_distractor_trianglediamonds.svg	stimuli_distractor_diamondtriangles.svg	36	no	0	1	2000	0	0			0	0			1				0	
6.6.1	mac	2023-06-27	14:31:49	14:36:12	260118	5c6ddaefdf677d00013fa313	4	1	main_z	7	advance_on_keypress_ZEE	20	stimuli_distractor_trianglediamonds.svg	stimuli_distractor_diamondtriangles.svg	36	no	57	0	595	0	0			0	0			1				0	
6.6.1	mac	2023-06-27	14:31:49	14:36:15	263349	5c6ddaefdf677d00013fa313	4	1	main_z	7	main_z	21	stimuli_distractor_diamondtriangles.svg	stimuli_distractor_diamondtriangles.svg	39	no	0	1	2000	0	0			0	0			1				0	
6.6.1	mac	2023-06-27	14:31:49	14:36:15	263349	5c6ddaefdf677d00013fa313	4	1	main_z	7	advance_on_keypress_ZEE	22	stimuli_distractor_diamondtriangles.svg	stimuli_distractor_diamondtriangles.svg	39	no	57	0	578	0	0			0	0			1				0	
6.6.1	mac	2023-06-27	14:31:49	14:36:17	265027	5c6ddaefdf677d00013fa313	4	1	main_z	7	main_z	23	stimuli_distractor_trianglediamonds.svg	stimuli_target_trianglesquares.svg	26	yes	44	1	463	0	0			0	0			1				0	
6.6.1	mac	2023-06-27	14:31:49	14:36:17	265027	5c6ddaefdf677d00013fa313	4	1	main_z	7	advance_on_keypress_ZEE	24	stimuli_distractor_trianglediamonds.svg	stimuli_target_trianglesquares.svg	26	yes	57	0	1106	0	0			0	0			1				0	
6.6.1	mac	2023-06-27	14:31:49	14:36:19	267314	5c6ddaefdf677d00013fa313	4	1	main_z	7	main_z	25	stimuli_distractor_diamondtriangles.svg	stimuli_target_diamondrectangles.svg	31	yes	44	1	550	0	0			0	0			1				0	
6.6.1	mac	2023-06-27	14:31:49	14:36:19	267314	5c6ddaefdf677d00013fa313	4	1	main_z	7	advance_on_keypress_ZEE	26	stimuli_distractor_diamondtriangles.svg	stimuli_target_diamondrectangles.svg	31	yes	57	0	666	0	0			0	0			1				0	
6.6.1	mac	2023-06-27	14:31:49	14:36:21	269014	5c6ddaefdf677d00013fa313	4	1	main_z	7	main_z	27	stimuli_distractor_diamondtriangles.svg	stimuli_target_trianglesquares.svg	30	yes	44	1	400	0	0			0	0			1				0	
6.6.1	mac	2023-06-27	14:31:49	14:36:21	269014	5c6ddaefdf677d00013fa313	4	1	main_z	7	advance_on_keypress_ZEE	28	stimuli_distractor_diamondtriangles.svg	stimuli_target_trianglesquares.svg	30	yes	57	0	597	0	0			0	0			1				0	
6.6.1	mac	2023-06-27	14:31:49	14:36:23	270768	5c6ddaefdf677d00013fa313	4	1	main_z	7	main_z	29	stimuli_target_trianglesquares.svg	stimuli_distractor_diamondtriangles.svg	22	yes	44	1	521	0	0			0	0			1				0	
6.6.1	mac	2023-06-27	14:31:49	14:36:23	270768	5c6ddaefdf677d00013fa313	4	1	main_z	7	advance_on_keypress_ZEE	30	stimuli_target_trianglesquares.svg	stimuli_distractor_diamondtriangles.svg	22	yes	57	0	518	0	0			0	0			1				0	
6.6.1	mac	2023-06-27	14:31:49	14:36:25	272805	5c6ddaefdf677d00013fa313	4	1	main_z	7	main_z	31	stimuli_target_diamondsquares.svg	stimuli_distractor_trianglediamonds.svg	20	yes	44	1	875	0	0			0	0			1				0	
6.6.1	mac	2023-06-27	14:31:49	14:36:25	272805	5c6ddaefdf677d00013fa313	4	1	main_z	7	advance_on_keypress_ZEE	32	stimuli_target_diamondsquares.svg	stimuli_distractor_trianglediamonds.svg	20	yes	57	0	734	0	0			0	0			1				0	
6.6.1	mac	2023-06-27	14:31:49	14:36:27	274593	5c6ddaefdf677d00013fa313	4	1	main_z	7	main_z	33	stimuli_distractor_trianglediamonds.svg	stimuli_target_squarediamonds.svg	12	yes	44	1	430	0	0			0	0			1				0	
6.6.1	mac	2023-06-27	14:31:49	14:36:27	274593	5c6ddaefdf677d00013fa313	4	1	main_z	7	advance_on_keypress_ZEE	34	stimuli_distractor_trianglediamonds.svg	stimuli_target_squarediamonds.svg	12	yes	57	0	600	0	0			0	0			1				0	
6.6.1	mac	2023-06-27	14:31:49	14:36:28	276276	5c6ddaefdf677d00013fa313	4	1	main_z	7	main_z	35	stimuli_target_trianglesquares.svg	stimuli_distractor_trianglediamonds.svg	18	yes	44	1	446	0	0			0	0			1				0	
6.6.1	mac	2023-06-27	14:31:49	14:36:28	276276	5c6ddaefdf677d00013fa313	4	1	main_z	7	advance_on_keypress_ZEE	36	stimuli_target_trianglesquares.svg	stimuli_distractor_trianglediamonds.svg	18	yes	57	0	765	0	0			0	0			1				0	
6.6.1	mac	2023-06-27	14:31:49	14:36:32	279684	5c6ddaefdf677d00013fa313	4	1	main_z	7	main_z	37	stimuli_distractor_diamondtriangles.svg	stimuli_distractor_diamondtriangles.svg	40	no	0	1	2000	0	0			0	0			1				0	
6.6.1	mac	2023-06-27	14:31:49	14:36:32	279684	5c6ddaefdf677d00013fa313	4	1	main_z	7	advance_on_keypress_ZEE	38	stimuli_distractor_diamondtriangles.svg	stimuli_distractor_diamondtriangles.svg	40	no	57	0	561	0	0			0	0			1				0	
6.6.1	mac	2023-06-27	14:31:49	14:36:33	281352	5c6ddaefdf677d00013fa313	4	1	main_z	7	main_z	39	stimuli_distractor_diamondtriangles.svg	stimuli_target_rectangletriangles.svg	13	yes	44	1	471	0	0			0	0			1				0	
6.6.1	mac	2023-06-27	14:31:49	14:36:33	281352	5c6ddaefdf677d00013fa313	4	1	main_z	7	advance_on_keypress_ZEE	40	stimuli_distractor_diamondtriangles.svg	stimuli_target_rectangletriangles.svg	13	yes	57	0	964	0	0			0	0			1				0	
6.6.1	mac	2023-06-27	14:31:49	14:36:35	283379	5c6ddaefdf677d00013fa313	4	1	main_z	7	main_z	41	stimuli_target_rectanglediamonds.svg	stimuli_distractor_trianglediamonds.svg	2	yes	44	1	433	0	0			0	0			1				0	
6.6.1	mac	2023-06-27	14:31:49	14:36:35	283379	5c6ddaefdf677d00013fa313	4	1	main_z	7	advance_on_keypress_ZEE	42	stimuli_target_rectanglediamonds.svg	stimuli_distractor_trianglediamonds.svg	2	yes	57	0	500	0	0			0	0			1				0	
6.6.1	mac	2023-06-27	14:31:49	14:36:37	285062	5c6ddaefdf677d00013fa313	4	1	main_z	7	main_z	43	stimuli_distractor_diamondtriangles.svg	stimuli_target_diamondsquares.svg	32	yes	44	1	549	0	0			0	0			1				0	
6.6.1	mac	2023-06-27	14:31:49	14:36:37	285062	5c6ddaefdf677d00013fa313	4	1	main_z	7	advance_on_keypress_ZEE	44	stimuli_distractor_diamondtriangles.svg	stimuli_target_diamondsquares.svg	32	yes	57	0	631	0	0			0	0			1				0	
6.6.1	mac	2023-06-27	14:31:49	14:36:39	286866	5c6ddaefdf677d00013fa313	4	1	main_z	7	main_z	45	stimuli_target_diamondrectangles.svg	stimuli_distractor_trianglediamonds.svg	19	yes	44	1	535	0	0			0	0			1				0	
6.6.1	mac	2023-06-27	14:31:49	14:36:39	286866	5c6ddaefdf677d00013fa313	4	1	main_z	7	advance_on_keypress_ZEE	46	stimuli_target_diamondrectangles.svg	stimuli_distractor_trianglediamonds.svg	19	yes	57	0	530	0	0			0	0			1				0	
6.6.1	mac	2023-06-27	14:31:49	14:36:41	288468	5c6ddaefdf677d00013fa313	4	1	main_z	7	main_z	47	stimuli_target_rectanglediamonds.svg	stimuli_distractor_diamondtriangles.svg	6	yes	44	1	438	0	0			0	0			1				0	
6.6.1	mac	2023-06-27	14:31:49	14:36:41	288468	5c6ddaefdf677d00013fa313	4	1	main_z	7	advance_on_keypress_ZEE	48	stimuli_target_rectanglediamonds.svg	stimuli_distractor_diamondtriangles.svg	6	yes	57	0	965	0	0			0	0			1				0	
6.6.1	mac	2023-06-27	14:31:49	14:36:43	290469	5c6ddaefdf677d00013fa313	4	1	main_z	7	main_z	49	stimuli_target_squarediamonds.svg	stimuli_distractor_diamondtriangles.svg	8	yes	44	1	405	0	0			0	0			1				0	
6.6.1	mac	2023-06-27	14:31:49	14:36:43	290469	5c6ddaefdf677d00013fa313	4	1	main_z	7	advance_on_keypress_ZEE	50	stimuli_target_squarediamonds.svg	stimuli_distractor_diamondtriangles.svg	8	yes	57	0	471	0	0			0	0			1				0	
6.6.1	mac	2023-06-27	14:31:49	14:36:44	291919	5c6ddaefdf677d00013fa313	4	1	main_z	7	main_z	51	stimuli_target_rectangletriangles.svg	stimuli_distractor_diamondtriangles.svg	5	yes	44	1	355	0	0			0	0			1				0	
6.6.1	mac	2023-06-27	14:31:49	14:36:44	291919	5c6ddaefdf677d00013fa313	4	1	main_z	7	advance_on_keypress_ZEE	52	stimuli_target_rectangletriangles.svg	stimuli_distractor_diamondtriangles.svg	5	yes	57	0	480	0	0			0	0			1				0	
6.6.1	mac	2023-06-27	14:31:49	14:36:46	293670	5c6ddaefdf677d00013fa313	4	1	main_z	7	main_z	53	stimuli_distractor_diamondtriangles.svg	stimuli_target_trianglerectangles.svg	29	yes	44	1	640	0	0			0	0			1				0	
6.6.1	mac	2023-06-27	14:31:49	14:36:46	293670	5c6ddaefdf677d00013fa313	4	1	main_z	7	advance_on_keypress_ZEE	54	stimuli_distractor_diamondtriangles.svg	stimuli_target_trianglerectangles.svg	29	yes	57	0	371	0	0			0	0			1				0	
6.6.1	mac	2023-06-27	14:31:49	14:36:47	295354	5c6ddaefdf677d00013fa313	4	1	main_z	7	main_z	55	stimuli_distractor_trianglediamonds.svg	stimuli_target_trianglerectangles.svg	25	yes	44	1	690	0	0			0	0			1				0	
6.6.1	mac	2023-06-27	14:31:49	14:36:47	295354	5c6ddaefdf677d00013fa313	4	1	main_z	7	advance_on_keypress_ZEE	56	stimuli_distractor_trianglediamonds.svg	stimuli_target_trianglerectangles.svg	25	yes	57	0	414	0	0			0	0			1				0	
6.6.1	mac	2023-06-27	14:31:49	14:36:49	296835	5c6ddaefdf677d00013fa313	4	1	main_z	7	main_z	57	stimuli_target_rectangletriangles.svg	stimuli_distractor_trianglediamonds.svg	1	yes	44	1	438	0	0			0	0			1				0	
6.6.1	mac	2023-06-27	14:31:49	14:36:49	296835	5c6ddaefdf677d00013fa313	4	1	main_z	7	advance_on_keypress_ZEE	58	stimuli_target_rectangletriangles.svg	stimuli_distractor_trianglediamonds.svg	1	yes	57	0	440	0	0			0	0			1				0	
6.6.1	mac	2023-06-27	14:31:49	14:36:50	298450	5c6ddaefdf677d00013fa313	4	1	main_z	7	main_z	59	stimuli_target_trianglerectangles.svg	stimuli_distractor_diamondtriangles.svg	21	yes	44	1	551	0	0			0	0			1				0	
6.6.1	mac	2023-06-27	14:31:49	14:36:50	298450	5c6ddaefdf677d00013fa313	4	1	main_z	7	advance_on_keypress_ZEE	60	stimuli_target_trianglerectangles.svg	stimuli_distractor_diamondtriangles.svg	21	yes	57	0	421	0	0			0	0			1				0	
6.6.1	mac	2023-06-27	14:31:49	14:36:54	301497	5c6ddaefdf677d00013fa313	4	1	main_z	7	main_z	61	stimuli_distractor_trianglediamonds.svg	stimuli_distractor_trianglediamonds.svg	34	no	0	1	2000	0	0			0	0			1				0	
6.6.1	mac	2023-06-27	14:31:49	14:36:54	301497	5c6ddaefdf677d00013fa313	4	1	main_z	7	advance_on_keypress_ZEE	62	stimuli_distractor_trianglediamonds.svg	stimuli_distractor_trianglediamonds.svg	34	no	57	0	428	0	0			0	0			1				0	
6.6.1	mac	2023-06-27	14:31:49	14:36:55	303071	5c6ddaefdf677d00013fa313	4	1	main_z	7	main_z	63	stimuli_distractor_diamondtriangles.svg	stimuli_distractor_trianglediamonds.svg	38	no	44	0	508	0	0			0	0			1				0	
6.6.1	mac	2023-06-27	14:31:49	14:36:55	303071	5c6ddaefdf677d00013fa313	4	1	main_z	7	advance_on_keypress_ZEE	64	stimuli_distractor_diamondtriangles.svg	stimuli_distractor_trianglediamonds.svg	38	no	57	0	452	0	0			0	0			1				0	
6.6.1	mac	2023-06-27	14:31:49	14:36:57	304755	5c6ddaefdf677d00013fa313	4	1	main_z	7	main_z	65	stimuli_distractor_trianglediamonds.svg	stimuli_target_diamondsquares.svg	28	yes	44	1	608	0	0			0	0			1				0	
6.6.1	mac	2023-06-27	14:31:49	14:36:57	304755	5c6ddaefdf677d00013fa313	4	1	main_z	7	advance_on_keypress_ZEE	66	stimuli_distractor_trianglediamonds.svg	stimuli_target_diamondsquares.svg	28	yes	57	0	398	0	0			0	0			1				0	
6.6.1	mac	2023-06-27	14:31:49	14:36:58	306321	5c6ddaefdf677d00013fa313	4	1	main_z	7	main_z	67	stimuli_target_diamondrectangles.svg	stimuli_distractor_diamondtriangles.svg	23	yes	44	1	541	0	0			0	0			1				0	
6.6.1	mac	2023-06-27	14:31:49	14:36:58	306321	5c6ddaefdf677d00013fa313	4	1	main_z	7	advance_on_keypress_ZEE	68	stimuli_target_diamondrectangles.svg	stimuli_distractor_diamondtriangles.svg	23	yes	57	0	426	0	0			0	0			1				0	
6.6.1	mac	2023-06-27	14:31:49	14:37:00	307728	5c6ddaefdf677d00013fa313	4	1	main_z	7	main_z	69	stimuli_distractor_diamondtriangles.svg	stimuli_target_rectanglediamonds.svg	14	yes	44	1	364	0	0			0	0			1				0	
6.6.1	mac	2023-06-27	14:31:49	14:37:00	307728	5c6ddaefdf677d00013fa313	4	1	main_z	7	advance_on_keypress_ZEE	70	stimuli_distractor_diamondtriangles.svg	stimuli_target_rectanglediamonds.svg	14	yes	57	0	410	0	0			0	0			1				0	
6.6.1	mac	2023-06-27	14:31:49	14:37:01	309146	5c6ddaefdf677d00013fa313	4	1	main_z	7	main_z	71	stimuli_target_squarediamonds.svg	stimuli_distractor_trianglediamonds.svg	4	yes	44	1	382	0	0			0	0			1				0	
6.6.1	mac	2023-06-27	14:31:49	14:37:01	309146	5c6ddaefdf677d00013fa313	4	1	main_z	7	advance_on_keypress_ZEE	72	stimuli_target_squarediamonds.svg	stimuli_distractor_trianglediamonds.svg	4	yes	57	0	429	0	0			0	0			1				0	
6.6.1	mac	2023-06-27	14:31:49	14:37:03	310630	5c6ddaefdf677d00013fa313	4	1	main_z	7	main_z	73	stimuli_target_squaretriangles.svg	stimuli_distractor_trianglediamonds.svg	3	yes	44	1	416	0	0			0	0			1				0	
6.6.1	mac	2023-06-27	14:31:49	14:37:03	310630	5c6ddaefdf677d00013fa313	4	1	main_z	7	advance_on_keypress_ZEE	74	stimuli_target_squaretriangles.svg	stimuli_distractor_trianglediamonds.svg	3	yes	57	0	373	0	0			0	0			1				0	
6.6.1	mac	2023-06-27	14:31:49	14:37:06	313631	5c6ddaefdf677d00013fa313	4	1	main_z	7	main_z	75	stimuli_distractor_trianglediamonds.svg	stimuli_distractor_trianglediamonds.svg	33	no	0	1	2000	0	0			0	0			1				0	
6.6.1	mac	2023-06-27	14:31:49	14:37:06	313631	5c6ddaefdf677d00013fa313	4	1	main_z	7	advance_on_keypress_ZEE	76	stimuli_distractor_trianglediamonds.svg	stimuli_distractor_trianglediamonds.svg	33	no	57	0	383	0	0			0	0			1				0	
6.6.1	mac	2023-06-27	14:31:49	14:37:07	315195	5c6ddaefdf677d00013fa313	4	1	main_z	7	main_z	77	stimuli_distractor_trianglediamonds.svg	stimuli_target_diamondrectangles.svg	27	yes	44	1	549	0	0			0	0			1				0	
6.6.1	mac	2023-06-27	14:31:49	14:37:07	315195	5c6ddaefdf677d00013fa313	4	1	main_z	7	advance_on_keypress_ZEE	78	stimuli_distractor_trianglediamonds.svg	stimuli_target_diamondrectangles.svg	27	yes	57	0	426	0	0			0	0			1				0	
6.6.1	mac	2023-06-27	14:31:49	14:37:09	316619	5c6ddaefdf677d00013fa313	4	1	main_z	7	main_z	79	stimuli_target_trianglerectangles.svg	stimuli_distractor_trianglediamonds.svg	17	yes	44	1	371	0	0			0	0			1				0	
6.6.1	mac	2023-06-27	14:31:49	14:37:09	316619	5c6ddaefdf677d00013fa313	4	1	main_z	7	advance_on_keypress_ZEE	80	stimuli_target_trianglerectangles.svg	stimuli_distractor_trianglediamonds.svg	17	yes	57	0	423	0	0			0	0			1				0	
6.6.1	mac	2023-06-27	14:31:49	14:37:10	318010	5c6ddaefdf677d00013fa313	4	1	main_z	7	main_z	81	stimuli_target_trianglerectangles.svg	stimuli_distractor_diamondtriangles.svg	21	yes	44	1	346	0	0			0	0			1				0	
6.6.1	mac	2023-06-27	14:31:49	14:37:10	318010	5c6ddaefdf677d00013fa313	4	1	main_z	7	advance_on_keypress_ZEE	82	stimuli_target_trianglerectangles.svg	stimuli_distractor_diamondtriangles.svg	21	yes	57	0	290	0	0			0	0			1				0	
6.6.1	mac	2023-06-27	14:31:49	14:37:11	319399	5c6ddaefdf677d00013fa313	4	1	main_z	7	main_z	83	stimuli_distractor_trianglediamonds.svg	stimuli_distractor_diamondtriangles.svg	36	no	44	0	468	0	0			0	0			1				0	
6.6.1	mac	2023-06-27	14:31:49	14:37:11	319399	5c6ddaefdf677d00013fa313	4	1	main_z	7	advance_on_keypress_ZEE	84	stimuli_distractor_trianglediamonds.svg	stimuli_distractor_diamondtriangles.svg	36	no	57	0	450	0	0			0	0			1				0	
6.6.1	mac	2023-06-27	14:31:49	14:37:13	321074	5c6ddaefdf677d00013fa313	4	1	main_z	7	main_z	85	stimuli_distractor_diamondtriangles.svg	stimuli_target_diamondsquares.svg	32	yes	44	1	593	0	0			0	0			1				0	
6.6.1	mac	2023-06-27	14:31:49	14:37:13	321074	5c6ddaefdf677d00013fa313	4	1	main_z	7	advance_on_keypress_ZEE	86	stimuli_distractor_diamondtriangles.svg	stimuli_target_diamondsquares.svg	32	yes	57	0	466	0	0			0	0			1				0	
6.6.1	mac	2023-06-27	14:31:49	14:37:15	322735	5c6ddaefdf677d00013fa313	4	1	main_z	7	main_z	87	stimuli_target_squarediamonds.svg	stimuli_distractor_diamondtriangles.svg	8	yes	44	1	571	0	0			0	0			1				0	
6.6.1	mac	2023-06-27	14:31:49	14:37:15	322735	5c6ddaefdf677d00013fa313	4	1	main_z	7	advance_on_keypress_ZEE	88	stimuli_target_squarediamonds.svg	stimuli_distractor_diamondtriangles.svg	8	yes	57	0	395	0	0			0	0			1				0	
6.6.1	mac	2023-06-27	14:31:49	14:37:17	324511	5c6ddaefdf677d00013fa313	4	1	main_z	7	main_z	89	stimuli_distractor_diamondtriangles.svg	stimuli_target_trianglerectangles.svg	29	yes	44	1	763	0	0			0	0			1				0	
6.6.1	mac	2023-06-27	14:31:49	14:37:17	324511	5c6ddaefdf677d00013fa313	4	1	main_z	7	advance_on_keypress_ZEE	90	stimuli_distractor_diamondtriangles.svg	stimuli_target_trianglerectangles.svg	29	yes	57	0	435	0	0			0	0			1				0	
6.6.1	mac	2023-06-27	14:31:49	14:37:18	326017	5c6ddaefdf677d00013fa313	4	1	main_z	7	main_z	91	stimuli_distractor_trianglediamonds.svg	stimuli_target_trianglerectangles.svg	25	yes	44	1	437	0	0			0	0			1				0	
6.6.1	mac	2023-06-27	14:31:49	14:37:18	326017	5c6ddaefdf677d00013fa313	4	1	main_z	7	advance_on_keypress_ZEE	92	stimuli_distractor_trianglediamonds.svg	stimuli_target_trianglerectangles.svg	25	yes	57	0	365	0	0			0	0			1				0	
6.6.1	mac	2023-06-27	14:31:49	14:37:21	328774	5c6ddaefdf677d00013fa313	4	1	main_z	7	main_z	93	stimuli_distractor_trianglediamonds.svg	stimuli_target_squaretriangles.svg	11	yes	44	1	1760	0	0			0	0			1				0	
6.6.1	mac	2023-06-27	14:31:49	14:37:21	328774	5c6ddaefdf677d00013fa313	4	1	main_z	7	advance_on_keypress_ZEE	94	stimuli_distractor_trianglediamonds.svg	stimuli_target_squaretriangles.svg	11	yes	57	0	379	0	0			0	0			1				0	
6.6.1	mac	2023-06-27	14:31:49	14:37:22	330119	5c6ddaefdf677d00013fa313	4	1	main_z	7	main_z	95	stimuli_target_squaretriangles.svg	stimuli_distractor_diamondtriangles.svg	7	yes	44	1	355	0	0			0	0			1				0	
6.6.1	mac	2023-06-27	14:31:49	14:37:22	330119	5c6ddaefdf677d00013fa313	4	1	main_z	7	advance_on_keypress_ZEE	96	stimuli_target_squaretriangles.svg	stimuli_distractor_diamondtriangles.svg	7	yes	57	0	410	0	0			0	0			1				0	
6.6.1	mac	2023-06-27	14:31:49	14:37:25	333150	5c6ddaefdf677d00013fa313	4	1	main_z	7	main_z	97	stimuli_target_rectangletriangles.svg	stimuli_distractor_trianglediamonds.svg	1	yes	0	0	2000	0	0			0	0			1				0	
6.6.1	mac	2023-06-27	14:31:49	14:37:25	333150	5c6ddaefdf677d00013fa313	4	1	main_z	7	advance_on_keypress_ZEE	98	stimuli_target_rectangletriangles.svg	stimuli_distractor_trianglediamonds.svg	1	yes	57	0	449	0	0			0	0			1				0	
6.6.1	mac	2023-06-27	14:31:49	14:37:28	335525	5c6ddaefdf677d00013fa313	4	1	main_z	7	main_z	99	stimuli_distractor_trianglediamonds.svg	stimuli_distractor_diamondtriangles.svg	35	no	44	0	1292	0	0			0	0			1				0	
6.6.1	mac	2023-06-27	14:31:49	14:37:28	335525	5c6ddaefdf677d00013fa313	4	1	main_z	7	advance_on_keypress_ZEE	100	stimuli_distractor_trianglediamonds.svg	stimuli_distractor_diamondtriangles.svg	35	no	57	0	319	0	0			0	0			1				0	
6.6.1	mac	2023-06-27	14:31:49	14:37:31	338467	5c6ddaefdf677d00013fa313	4	1	main_z	7	main_z	101	stimuli_distractor_diamondtriangles.svg	stimuli_distractor_diamondtriangles.svg	40	no	0	1	2000	0	0			0	0			1				0	
6.6.1	mac	2023-06-27	14:31:49	14:37:31	338467	5c6ddaefdf677d00013fa313	4	1	main_z	7	advance_on_keypress_ZEE	102	stimuli_distractor_diamondtriangles.svg	stimuli_distractor_diamondtriangles.svg	40	no	57	0	482	0	0			0	0			1				0	
6.6.1	mac	2023-06-27	14:31:49	14:37:32	339958	5c6ddaefdf677d00013fa313	4	1	main_z	7	main_z	103	stimuli_distractor_trianglediamonds.svg	stimuli_target_diamondrectangles.svg	27	yes	44	1	378	0	0			0	0			1				0	
6.6.1	mac	2023-06-27	14:31:49	14:37:32	339958	5c6ddaefdf677d00013fa313	4	1	main_z	7	advance_on_keypress_ZEE	104	stimuli_distractor_trianglediamonds.svg	stimuli_target_diamondrectangles.svg	27	yes	57	0	436	0	0			0	0			1				0	
6.6.1	mac	2023-06-27	14:31:49	14:37:35	343017	5c6ddaefdf677d00013fa313	4	1	main_z	7	main_z	105	stimuli_distractor_trianglediamonds.svg	stimuli_distractor_trianglediamonds.svg	34	no	0	1	2000	0	0			0	0			1				0	
6.6.1	mac	2023-06-27	14:31:49	14:37:35	343017	5c6ddaefdf677d00013fa313	4	1	main_z	7	advance_on_keypress_ZEE	106	stimuli_distractor_trianglediamonds.svg	stimuli_distractor_trianglediamonds.svg	34	no	57	0	363	0	0			0	0			1				0	
6.6.1	mac	2023-06-27	14:31:49	14:37:38	346017	5c6ddaefdf677d00013fa313	4	1	main_z	7	main_z	107	stimuli_distractor_trianglediamonds.svg	stimuli_target_squarediamonds.svg	12	yes	0	0	2000	0	0			0	0			1				0	
6.6.1	mac	2023-06-27	14:31:49	14:37:38	346017	5c6ddaefdf677d00013fa313	4	1	main_z	7	advance_on_keypress_ZEE	108	stimuli_distractor_trianglediamonds.svg	stimuli_target_squarediamonds.svg	12	yes	57	0	624	0	0			0	0			1				0	
6.6.1	mac	2023-06-27	14:31:49	14:37:40	347678	5c6ddaefdf677d00013fa313	4	1	main_z	7	main_z	109	stimuli_target_rectangletriangles.svg	stimuli_distractor_diamondtriangles.svg	5	yes	44	1	414	0	0			0	0			1				0	
6.6.1	mac	2023-06-27	14:31:49	14:37:40	347678	5c6ddaefdf677d00013fa313	4	1	main_z	7	advance_on_keypress_ZEE	110	stimuli_target_rectangletriangles.svg	stimuli_distractor_diamondtriangles.svg	5	yes	57	0	400	0	0			0	0			1				0	
6.6.1	mac	2023-06-27	14:31:49	14:37:41	349201	5c6ddaefdf677d00013fa313	4	1	main_z	7	main_z	111	stimuli_distractor_diamondtriangles.svg	stimuli_target_rectangletriangles.svg	13	yes	44	1	487	0	0			0	0			1				0	
6.6.1	mac	2023-06-27	14:31:49	14:37:41	349201	5c6ddaefdf677d00013fa313	4	1	main_z	7	advance_on_keypress_ZEE	112	stimuli_distractor_diamondtriangles.svg	stimuli_target_rectangletriangles.svg	13	yes	57	0	379	0	0			0	0			1				0	
6.6.1	mac	2023-06-27	14:31:49	14:37:43	350560	5c6ddaefdf677d00013fa313	4	1	main_z	7	main_z	113	stimuli_target_squarediamonds.svg	stimuli_distractor_trianglediamonds.svg	4	yes	44	1	363	0	0			0	0			1				0	
6.6.1	mac	2023-06-27	14:31:49	14:37:43	350560	5c6ddaefdf677d00013fa313	4	1	main_z	7	advance_on_keypress_ZEE	114	stimuli_target_squarediamonds.svg	stimuli_distractor_trianglediamonds.svg	4	yes	57	0	321	0	0			0	0			1				0	
6.6.1	mac	2023-06-27	14:31:49	14:37:46	353516	5c6ddaefdf677d00013fa313	4	1	main_z	7	main_z	115	stimuli_distractor_diamondtriangles.svg	stimuli_distractor_trianglediamonds.svg	38	no	0	1	2000	0	0			0	0			1				0	
6.6.1	mac	2023-06-27	14:31:49	14:37:46	353516	5c6ddaefdf677d00013fa313	4	1	main_z	7	advance_on_keypress_ZEE	116	stimuli_distractor_diamondtriangles.svg	stimuli_distractor_trianglediamonds.svg	38	no	57	0	579	0	0			0	0			1				0	
6.6.1	mac	2023-06-27	14:31:49	14:37:47	355166	5c6ddaefdf677d00013fa313	4	1	main_z	7	main_z	117	stimuli_target_rectanglediamonds.svg	stimuli_distractor_trianglediamonds.svg	2	yes	44	1	432	0	0			0	0			1				0	
6.6.1	mac	2023-06-27	14:31:49	14:37:47	355166	5c6ddaefdf677d00013fa313	4	1	main_z	7	advance_on_keypress_ZEE	118	stimuli_target_rectanglediamonds.svg	stimuli_distractor_trianglediamonds.svg	2	yes	57	0	369	0	0			0	0			1				0	
6.6.1	mac	2023-06-27	14:31:49	14:37:49	356904	5c6ddaefdf677d00013fa313	4	1	main_z	7	main_z	119	stimuli_target_trianglerectangles.svg	stimuli_distractor_trianglediamonds.svg	17	yes	44	1	740	0	0			0	0			1				0	
6.6.1	mac	2023-06-27	14:31:49	14:37:49	356904	5c6ddaefdf677d00013fa313	4	1	main_z	7	advance_on_keypress_ZEE	120	stimuli_target_trianglerectangles.svg	stimuli_distractor_trianglediamonds.svg	17	yes	57	0	397	0	0			0	0			1				0	
6.6.1	mac	2023-06-27	14:31:49	14:37:52	359934	5c6ddaefdf677d00013fa313	4	1	main_z	7	main_z	121	stimuli_distractor_diamondtriangles.svg	stimuli_distractor_diamondtriangles.svg	39	no	0	1	2000	0	0			0	0			1				0	
6.6.1	mac	2023-06-27	14:31:49	14:37:52	359934	5c6ddaefdf677d00013fa313	4	1	main_z	7	advance_on_keypress_ZEE	122	stimuli_distractor_diamondtriangles.svg	stimuli_distractor_diamondtriangles.svg	39	no	57	0	733	0	0			0	0			1				0	
6.6.1	mac	2023-06-27	14:31:49	14:37:54	361799	5c6ddaefdf677d00013fa313	4	1	main_z	7	main_z	123	stimuli_target_trianglesquares.svg	stimuli_distractor_trianglediamonds.svg	18	yes	44	1	500	0	0			0	0			1				0	
6.6.1	mac	2023-06-27	14:31:49	14:37:54	361799	5c6ddaefdf677d00013fa313	4	1	main_z	7	advance_on_keypress_ZEE	124	stimuli_target_trianglesquares.svg	stimuli_distractor_trianglediamonds.svg	18	yes	57	0	398	0	0			0	0			1				0	
6.6.1	mac	2023-06-27	14:31:49	14:37:57	364833	5c6ddaefdf677d00013fa313	4	1	main_z	7	main_z	125	stimuli_distractor_trianglediamonds.svg	stimuli_distractor_trianglediamonds.svg	33	no	0	1	2000	0	0			0	0			1				0	
6.6.1	mac	2023-06-27	14:31:49	14:37:57	364833	5c6ddaefdf677d00013fa313	4	1	main_z	7	advance_on_keypress_ZEE	126	stimuli_distractor_trianglediamonds.svg	stimuli_distractor_trianglediamonds.svg	33	no	57	0	544	0	0			0	0			1				0	
6.6.1	mac	2023-06-27	14:31:49	14:37:59	366552	5c6ddaefdf677d00013fa313	4	1	main_z	7	main_z	127	stimuli_target_diamondsquares.svg	stimuli_distractor_trianglediamonds.svg	20	yes	44	1	538	0	0			0	0			1				0	
6.6.1	mac	2023-06-27	14:31:49	14:37:59	366552	5c6ddaefdf677d00013fa313	4	1	main_z	7	advance_on_keypress_ZEE	128	stimuli_target_diamondsquares.svg	stimuli_distractor_trianglediamonds.svg	20	yes	57	0	397	0	0			0	0			1				0	
6.6.1	mac	2023-06-27	14:31:49	14:38:02	369583	5c6ddaefdf677d00013fa313	4	1	main_z	7	main_z	129	stimuli_distractor_diamondtriangles.svg	stimuli_distractor_trianglediamonds.svg	37	no	0	1	2000	0	0			0	0			1				0	
6.6.1	mac	2023-06-27	14:31:49	14:38:02	369583	5c6ddaefdf677d00013fa313	4	1	main_z	7	advance_on_keypress_ZEE	130	stimuli_distractor_diamondtriangles.svg	stimuli_distractor_trianglediamonds.svg	37	no	57	0	350	0	0			0	0			1				0	
6.6.1	mac	2023-06-27	14:31:49	14:38:03	371012	5c6ddaefdf677d00013fa313	4	1	main_z	7	main_z	131	stimuli_distractor_trianglediamonds.svg	stimuli_target_rectangletriangles.svg	9	yes	44	1	448	0	0			0	0			1				0	
6.6.1	mac	2023-06-27	14:31:49	14:38:03	371012	5c6ddaefdf677d00013fa313	4	1	main_z	7	advance_on_keypress_ZEE	132	stimuli_distractor_trianglediamonds.svg	stimuli_target_rectangletriangles.svg	9	yes	57	0	450	0	0			0	0			1				0	
6.6.1	mac	2023-06-27	14:31:49	14:38:05	372758	5c6ddaefdf677d00013fa313	4	1	main_z	7	main_z	133	stimuli_target_diamondrectangles.svg	stimuli_distractor_diamondtriangles.svg	23	yes	44	1	659	0	0			0	0			1				0	
6.6.1	mac	2023-06-27	14:31:49	14:38:05	372758	5c6ddaefdf677d00013fa313	4	1	main_z	7	advance_on_keypress_ZEE	134	stimuli_target_diamondrectangles.svg	stimuli_distractor_diamondtriangles.svg	23	yes	57	0	388	0	0			0	0			1				0	
6.6.1	mac	2023-06-27	14:31:49	14:38:06	374285	5c6ddaefdf677d00013fa313	4	1	main_z	7	main_z	135	stimuli_distractor_trianglediamonds.svg	stimuli_target_rectanglediamonds.svg	10	yes	44	1	504	0	0			0	0			1				0	
6.6.1	mac	2023-06-27	14:31:49	14:38:06	374285	5c6ddaefdf677d00013fa313	4	1	main_z	7	advance_on_keypress_ZEE	136	stimuli_distractor_trianglediamonds.svg	stimuli_target_rectanglediamonds.svg	10	yes	57	0	413	0	0			0	0			1				0	
6.6.1	mac	2023-06-27	14:31:49	14:38:08	375751	5c6ddaefdf677d00013fa313	4	1	main_z	7	main_z	137	stimuli_distractor_diamondtriangles.svg	stimuli_target_squarediamonds.svg	16	yes	44	1	437	0	0			0	0			1				0	
6.6.1	mac	2023-06-27	14:31:49	14:38:08	375751	5c6ddaefdf677d00013fa313	4	1	main_z	7	advance_on_keypress_ZEE	138	stimuli_distractor_diamondtriangles.svg	stimuli_target_squarediamonds.svg	16	yes	57	0	368	0	0			0	0			1				0	
6.6.1	mac	2023-06-27	14:31:49	14:38:09	377169	5c6ddaefdf677d00013fa313	4	1	main_z	7	main_z	139	stimuli_distractor_diamondtriangles.svg	stimuli_target_squaretriangles.svg	15	yes	44	1	423	0	0			0	0			1				0	
6.6.1	mac	2023-06-27	14:31:49	14:38:09	377169	5c6ddaefdf677d00013fa313	4	1	main_z	7	advance_on_keypress_ZEE	140	stimuli_distractor_diamondtriangles.svg	stimuli_target_squaretriangles.svg	15	yes	57	0	350	0	0			0	0			1				0	
6.6.1	mac	2023-06-27	14:31:49	14:38:11	378693	5c6ddaefdf677d00013fa313	4	1	main_z	7	main_z	141	stimuli_target_diamondsquares.svg	stimuli_distractor_diamondtriangles.svg	24	yes	44	1	545	0	0			0	0			1				0	
6.6.1	mac	2023-06-27	14:31:49	14:38:11	378693	5c6ddaefdf677d00013fa313	4	1	main_z	7	advance_on_keypress_ZEE	142	stimuli_target_diamondsquares.svg	stimuli_distractor_diamondtriangles.svg	24	yes	57	0	399	0	0			0	0			1				0	
6.6.1	mac	2023-06-27	14:31:49	14:38:12	380068	5c6ddaefdf677d00013fa313	4	1	main_z	7	main_z	143	stimuli_target_diamondrectangles.svg	stimuli_distractor_trianglediamonds.svg	19	yes	44	1	354	0	0			0	0			1				0	
6.6.1	mac	2023-06-27	14:31:49	14:38:12	380068	5c6ddaefdf677d00013fa313	4	1	main_z	7	advance_on_keypress_ZEE	144	stimuli_target_diamondrectangles.svg	stimuli_distractor_trianglediamonds.svg	19	yes	57	0	487	0	0			0	0			1				0	
6.6.1	mac	2023-06-27	14:31:49	14:38:14	381552	5c6ddaefdf677d00013fa313	4	1	main_z	7	main_z	145	stimuli_distractor_diamondtriangles.svg	stimuli_target_diamondrectangles.svg	31	yes	44	1	371	0	0			0	0			1				0	
6.6.1	mac	2023-06-27	14:31:49	14:38:14	381552	5c6ddaefdf677d00013fa313	4	1	main_z	7	advance_on_keypress_ZEE	146	stimuli_distractor_diamondtriangles.svg	stimuli_target_diamondrectangles.svg	31	yes	57	0	421	0	0			0	0			1				0	
6.6.1	mac	2023-06-27	14:31:49	14:38:15	383001	5c6ddaefdf677d00013fa313	4	1	main_z	7	main_z	147	stimuli_target_squaretriangles.svg	stimuli_distractor_trianglediamonds.svg	3	yes	44	1	402	0	0			0	0			1				0	
6.6.1	mac	2023-06-27	14:31:49	14:38:15	383001	5c6ddaefdf677d00013fa313	4	1	main_z	7	advance_on_keypress_ZEE	148	stimuli_target_squaretriangles.svg	stimuli_distractor_trianglediamonds.svg	3	yes	57	0	323	0	0			0	0			1				0	
6.6.1	mac	2023-06-27	14:31:49	14:38:17	384469	5c6ddaefdf677d00013fa313	4	1	main_z	7	main_z	149	stimuli_distractor_diamondtriangles.svg	stimuli_target_trianglesquares.svg	30	yes	44	1	521	0	0			0	0			1				0	
6.6.1	mac	2023-06-27	14:31:49	14:38:17	384469	5c6ddaefdf677d00013fa313	4	1	main_z	7	advance_on_keypress_ZEE	150	stimuli_distractor_diamondtriangles.svg	stimuli_target_trianglesquares.svg	30	yes	57	0	349	0	0			0	0			1				0	
6.6.1	mac	2023-06-27	14:31:49	14:38:18	385892	5c6ddaefdf677d00013fa313	4	1	main_z	7	main_z	151	stimuli_target_rectanglediamonds.svg	stimuli_distractor_diamondtriangles.svg	6	yes	44	1	429	0	0			0	0			1				0	
6.6.1	mac	2023-06-27	14:31:49	14:38:18	385892	5c6ddaefdf677d00013fa313	4	1	main_z	7	advance_on_keypress_ZEE	152	stimuli_target_rectanglediamonds.svg	stimuli_distractor_diamondtriangles.svg	6	yes	57	0	347	0	0			0	0			1				0	
6.6.1	mac	2023-06-27	14:31:49	14:38:20	387577	5c6ddaefdf677d00013fa313	4	1	main_z	7	main_z	153	stimuli_distractor_trianglediamonds.svg	stimuli_target_trianglesquares.svg	26	yes	44	1	713	0	0			0	0			1				0	
6.6.1	mac	2023-06-27	14:31:49	14:38:20	387577	5c6ddaefdf677d00013fa313	4	1	main_z	7	advance_on_keypress_ZEE	154	stimuli_distractor_trianglediamonds.svg	stimuli_target_trianglesquares.svg	26	yes	57	0	308	0	0			0	0			1				0	
6.6.1	mac	2023-06-27	14:31:49	14:38:21	389101	5c6ddaefdf677d00013fa313	4	1	main_z	7	main_z	155	stimuli_distractor_trianglediamonds.svg	stimuli_target_diamondsquares.svg	28	yes	44	1	587	0	0			0	0			1				0	
6.6.1	mac	2023-06-27	14:31:49	14:38:21	389101	5c6ddaefdf677d00013fa313	4	1	main_z	7	advance_on_keypress_ZEE	156	stimuli_distractor_trianglediamonds.svg	stimuli_target_diamondsquares.svg	28	yes	57	0	350	0	0			0	0			1				0	
6.6.1	mac	2023-06-27	14:31:49	14:38:23	390625	5c6ddaefdf677d00013fa313	4	1	main_z	7	main_z	157	stimuli_target_trianglesquares.svg	stimuli_distractor_diamondtriangles.svg	22	yes	44	1	543	0	0			0	0			1				0	
6.6.1	mac	2023-06-27	14:31:49	14:38:23	390625	5c6ddaefdf677d00013fa313	4	1	main_z	7	advance_on_keypress_ZEE	158	stimuli_target_trianglesquares.svg	stimuli_distractor_diamondtriangles.svg	22	yes	57	0	354	0	0			0	0			1				0	
6.6.1	mac	2023-06-27	14:31:49	14:38:24	392145	5c6ddaefdf677d00013fa313	4	1	main_z	7	main_z	159	stimuli_distractor_diamondtriangles.svg	stimuli_target_rectanglediamonds.svg	14	yes	44	1	532	0	0			0	0			1				0	
6.6.1	mac	2023-06-27	14:31:49	14:38:24	392145	5c6ddaefdf677d00013fa313	4	1	main_z	7	advance_on_keypress_ZEE	160	stimuli_distractor_diamondtriangles.svg	stimuli_target_rectanglediamonds.svg	14	yes	57	0	382	0	0			0	0			1				0	
6.6.1	mac	2023-06-27	14:31:49	14:38:55	422801	5c6ddaefdf677d00013fa313	4	1	practice_slash	9	practice_slash	1	stimuli_distractor_trianglediamonds.svg	stimuli_distractor_trianglediamonds.svg	15	no	0	1	2000	0	0			0	0			1				0	
6.6.1	mac	2023-06-27	14:31:49	14:38:55	422801	5c6ddaefdf677d00013fa313	4	1	practice_slash	9	advance_on_keypress_SLASH	2	stimuli_distractor_trianglediamonds.svg	stimuli_distractor_trianglediamonds.svg	15	no	57	0	412	0	0			0	0			1				0	
6.6.1	mac	2023-06-27	14:31:49	14:38:57	425242	5c6ddaefdf677d00013fa313	4	1	practice_slash	9	practice_slash	3	stimuli_distractor_trianglediamonds.svg	stimuli_target_squarediamonds.svg	11	yes	53	1	409	0	0			0	0			1				0	
6.6.1	mac	2023-06-27	14:31:49	14:38:57	425242	5c6ddaefdf677d00013fa313	4	1	practice_slash	9	advance_on_keypress_SLASH	4	stimuli_distractor_trianglediamonds.svg	stimuli_target_squarediamonds.svg	11	yes	57	0	368	0	0			0	0			1				0	
6.6.1	mac	2023-06-27	14:31:49	14:39:00	427679	5c6ddaefdf677d00013fa313	4	1	practice_slash	9	practice_slash	5	stimuli_distractor_diamondtriangles.svg	stimuli_target_diamondrectangles.svg	8	yes	53	1	431	0	0			0	0			1				0	
6.6.1	mac	2023-06-27	14:31:49	14:39:00	427679	5c6ddaefdf677d00013fa313	4	1	practice_slash	9	advance_on_keypress_SLASH	6	stimuli_distractor_diamondtriangles.svg	stimuli_target_diamondrectangles.svg	8	yes	57	0	288	0	0			0	0			1				0	
6.6.1	mac	2023-06-27	14:31:49	14:39:02	430143	5c6ddaefdf677d00013fa313	4	1	practice_slash	9	practice_slash	7	stimuli_target_diamondsquares.svg	stimuli_distractor_trianglediamonds.svg	6	yes	53	1	543	0	0			0	0			1				0	
6.6.1	mac	2023-06-27	14:31:49	14:39:02	430143	5c6ddaefdf677d00013fa313	4	1	practice_slash	9	advance_on_keypress_SLASH	8	stimuli_target_diamondsquares.svg	stimuli_distractor_trianglediamonds.svg	6	yes	57	0	331	0	0			0	0			1				0	
6.6.1	mac	2023-06-27	14:31:49	14:39:05	432516	5c6ddaefdf677d00013fa313	4	1	practice_slash	9	practice_slash	9	stimuli_distractor_diamondtriangles.svg	stimuli_target_rectangletriangles.svg	7	yes	53	1	401	0	0			0	0			1				0	
6.6.1	mac	2023-06-27	14:31:49	14:39:05	432516	5c6ddaefdf677d00013fa313	4	1	practice_slash	9	advance_on_keypress_SLASH	10	stimuli_distractor_diamondtriangles.svg	stimuli_target_rectangletriangles.svg	7	yes	57	0	379	0	0			0	0			1				0	
6.6.1	mac	2023-06-27	14:31:49	14:39:07	434860	5c6ddaefdf677d00013fa313	4	1	practice_slash	9	practice_slash	11	stimuli_target_rectanglediamonds.svg	stimuli_distractor_trianglediamonds.svg	4	yes	53	1	324	0	0			0	0			1				0	
6.6.1	mac	2023-06-27	14:31:49	14:39:07	434860	5c6ddaefdf677d00013fa313	4	1	practice_slash	9	advance_on_keypress_SLASH	12	stimuli_target_rectanglediamonds.svg	stimuli_distractor_trianglediamonds.svg	4	yes	57	0	421	0	0			0	0			1				0	
6.6.1	mac	2023-06-27	14:31:49	14:39:09	437261	5c6ddaefdf677d00013fa313	4	1	practice_slash	9	practice_slash	13	stimuli_distractor_trianglediamonds.svg	stimuli_distractor_diamondtriangles.svg	16	no	53	0	346	0	0			0	0			1				0	
6.6.1	mac	2023-06-27	14:31:49	14:39:09	437261	5c6ddaefdf677d00013fa313	4	1	practice_slash	9	advance_on_keypress_SLASH	14	stimuli_distractor_trianglediamonds.svg	stimuli_distractor_diamondtriangles.svg	16	no	57	0	381	0	0			0	0			1				0	
6.6.1	mac	2023-06-27	14:31:49	14:39:12	439827	5c6ddaefdf677d00013fa313	4	1	practice_slash	9	practice_slash	15	stimuli_target_diamondsquares.svg	stimuli_distractor_diamondtriangles.svg	3	yes	53	1	546	0	0			0	0			1				0	
6.6.1	mac	2023-06-27	14:31:49	14:39:12	439827	5c6ddaefdf677d00013fa313	4	1	practice_slash	9	advance_on_keypress_SLASH	16	stimuli_target_diamondsquares.svg	stimuli_distractor_diamondtriangles.svg	3	yes	57	0	272	0	0			0	0			1				0	
6.6.1	mac	2023-06-27	14:31:49	14:39:14	442153	5c6ddaefdf677d00013fa313	4	1	practice_slash	9	practice_slash	17	stimuli_target_squarediamonds.svg	stimuli_distractor_diamondtriangles.svg	2	yes	53	1	421	0	0			0	0			1				0	
6.6.1	mac	2023-06-27	14:31:49	14:39:14	442153	5c6ddaefdf677d00013fa313	4	1	practice_slash	9	advance_on_keypress_SLASH	18	stimuli_target_squarediamonds.svg	stimuli_distractor_diamondtriangles.svg	2	yes	57	0	339	0	0			0	0			1				0	
6.6.1	mac	2023-06-27	14:31:49	14:39:17	444527	5c6ddaefdf677d00013fa313	4	1	practice_slash	9	practice_slash	19	stimuli_target_squarediamonds.svg	stimuli_distractor_trianglediamonds.svg	5	yes	53	1	412	0	0			0	0			1				0	
6.6.1	mac	2023-06-27	14:31:49	14:39:17	444527	5c6ddaefdf677d00013fa313	4	1	practice_slash	9	advance_on_keypress_SLASH	20	stimuli_target_squarediamonds.svg	stimuli_distractor_trianglediamonds.svg	5	yes	57	0	340	0	0			0	0			1				0	
6.6.1	mac	2023-06-27	14:31:49	14:39:19	446753	5c6ddaefdf677d00013fa313	4	1	practice_slash	9	practice_slash	21	stimuli_distractor_diamondtriangles.svg	stimuli_target_trianglerectangles.svg	9	yes	53	1	255	0	0			0	0			1				0	
6.6.1	mac	2023-06-27	14:31:49	14:39:19	446753	5c6ddaefdf677d00013fa313	4	1	practice_slash	9	advance_on_keypress_SLASH	22	stimuli_distractor_diamondtriangles.svg	stimuli_target_trianglerectangles.svg	9	yes	57	0	436	0	0			0	0			1				0	
6.6.1	mac	2023-06-27	14:31:49	14:39:21	449133	5c6ddaefdf677d00013fa313	4	1	practice_slash	9	practice_slash	23	stimuli_distractor_trianglediamonds.svg	stimuli_target_rectanglediamonds.svg	10	yes	53	1	317	0	0			0	0			1				0	
6.6.1	mac	2023-06-27	14:31:49	14:39:21	449133	5c6ddaefdf677d00013fa313	4	1	practice_slash	9	advance_on_keypress_SLASH	24	stimuli_distractor_trianglediamonds.svg	stimuli_target_rectanglediamonds.svg	10	yes	57	0	430	0	0			0	0			1				0	
6.6.1	mac	2023-06-27	14:31:49	14:39:24	451462	5c6ddaefdf677d00013fa313	4	1	practice_slash	9	practice_slash	25	stimuli_distractor_diamondtriangles.svg	stimuli_distractor_trianglediamonds.svg	14	no	53	0	263	0	0			0	0			1				0	
6.6.1	mac	2023-06-27	14:31:49	14:39:24	451462	5c6ddaefdf677d00013fa313	4	1	practice_slash	9	advance_on_keypress_SLASH	26	stimuli_distractor_diamondtriangles.svg	stimuli_distractor_trianglediamonds.svg	14	no	57	0	659	0	0			0	0			1				0	
6.6.1	mac	2023-06-27	14:31:49	14:39:26	454261	5c6ddaefdf677d00013fa313	4	1	practice_slash	9	practice_slash	27	stimuli_distractor_trianglediamonds.svg	stimuli_target_diamondrectangles.svg	12	yes	53	1	496	0	0			0	0			1				0	
6.6.1	mac	2023-06-27	14:31:49	14:39:26	454261	5c6ddaefdf677d00013fa313	4	1	practice_slash	9	advance_on_keypress_SLASH	28	stimuli_distractor_trianglediamonds.svg	stimuli_target_diamondrectangles.svg	12	yes	57	0	445	0	0			0	0			1				0	
6.6.1	mac	2023-06-27	14:31:49	14:39:29	456818	5c6ddaefdf677d00013fa313	4	1	practice_slash	9	practice_slash	29	stimuli_target_rectanglediamonds.svg	stimuli_distractor_diamondtriangles.svg	1	yes	53	1	472	0	0			0	0			1				0	
6.6.1	mac	2023-06-27	14:31:49	14:39:29	456818	5c6ddaefdf677d00013fa313	4	1	practice_slash	9	advance_on_keypress_SLASH	30	stimuli_target_rectanglediamonds.svg	stimuli_distractor_diamondtriangles.svg	1	yes	57	0	295	0	0			0	0			1				0	
6.6.1	mac	2023-06-27	14:31:49	14:39:31	459144	5c6ddaefdf677d00013fa313	4	1	practice_slash	9	practice_slash	31	stimuli_distractor_diamondtriangles.svg	stimuli_distractor_diamondtriangles.svg	13	no	53	0	413	0	0			0	0			1				0	
6.6.1	mac	2023-06-27	14:31:49	14:39:31	459144	5c6ddaefdf677d00013fa313	4	1	practice_slash	9	advance_on_keypress_SLASH	32	stimuli_distractor_diamondtriangles.svg	stimuli_distractor_diamondtriangles.svg	13	no	57	0	272	0	0			0	0			1				0	
6.6.1	mac	2023-06-27	14:31:49	14:39:38	465968	5c6ddaefdf677d00013fa313	4	1	main_slash	11	main_slash	1	stimuli_distractor_diamondtriangles.svg	stimuli_target_rectanglediamonds.svg	14	yes	53	1	404	0	0			0	0			1				0	
6.6.1	mac	2023-06-27	14:31:49	14:39:38	465968	5c6ddaefdf677d00013fa313	4	1	main_slash	11	advance_on_keypress_SLASH	2	stimuli_distractor_diamondtriangles.svg	stimuli_target_rectanglediamonds.svg	14	yes	57	0	1785	0	0			0	0			1				0	
6.6.1	mac	2023-06-27	14:31:49	14:39:42	469555	5c6ddaefdf677d00013fa313	4	1	main_slash	11	main_slash	3	stimuli_distractor_trianglediamonds.svg	stimuli_distractor_trianglediamonds.svg	34	no	53	0	1175	0	0			0	0			1				0	
6.6.1	mac	2023-06-27	14:31:49	14:39:42	469555	5c6ddaefdf677d00013fa313	4	1	main_slash	11	advance_on_keypress_SLASH	4	stimuli_distractor_trianglediamonds.svg	stimuli_distractor_trianglediamonds.svg	34	no	57	0	545	0	0			0	0			1				0	
6.6.1	mac	2023-06-27	14:31:49	14:39:45	472733	5c6ddaefdf677d00013fa313	4	1	main_slash	11	main_slash	5	stimuli_distractor_diamondtriangles.svg	stimuli_distractor_trianglediamonds.svg	37	no	0	1	2000	0	0			0	0			1				0	
6.6.1	mac	2023-06-27	14:31:49	14:39:45	472733	5c6ddaefdf677d00013fa313	4	1	main_slash	11	advance_on_keypress_SLASH	6	stimuli_distractor_diamondtriangles.svg	stimuli_distractor_trianglediamonds.svg	37	no	57	0	346	0	0			0	0			1				0	
6.6.1	mac	2023-06-27	14:31:49	14:39:46	474145	5c6ddaefdf677d00013fa313	4	1	main_slash	11	main_slash	7	stimuli_distractor_diamondtriangles.svg	stimuli_target_squarediamonds.svg	16	yes	53	1	431	0	0			0	0			1				0	
6.6.1	mac	2023-06-27	14:31:49	14:39:46	474145	5c6ddaefdf677d00013fa313	4	1	main_slash	11	advance_on_keypress_SLASH	8	stimuli_distractor_diamondtriangles.svg	stimuli_target_squarediamonds.svg	16	yes	57	0	529	0	0			0	0			1				0	
6.6.1	mac	2023-06-27	14:31:49	14:39:48	475896	5c6ddaefdf677d00013fa313	4	1	main_slash	11	main_slash	9	stimuli_target_squaretriangles.svg	stimuli_distractor_diamondtriangles.svg	7	yes	53	1	582	0	0			0	0			1				0	
6.6.1	mac	2023-06-27	14:31:49	14:39:48	475896	5c6ddaefdf677d00013fa313	4	1	main_slash	11	advance_on_keypress_SLASH	10	stimuli_target_squaretriangles.svg	stimuli_distractor_diamondtriangles.svg	7	yes	57	0	367	0	0			0	0			1				0	
6.6.1	mac	2023-06-27	14:31:49	14:39:49	477263	5c6ddaefdf677d00013fa313	4	1	main_slash	11	main_slash	11	stimuli_distractor_diamondtriangles.svg	stimuli_target_rectangletriangles.svg	13	yes	53	1	366	0	0			0	0			1				0	
6.6.1	mac	2023-06-27	14:31:49	14:39:49	477263	5c6ddaefdf677d00013fa313	4	1	main_slash	11	advance_on_keypress_SLASH	12	stimuli_distractor_diamondtriangles.svg	stimuli_target_rectangletriangles.svg	13	yes	57	0	400	0	0			0	0			1				0	
6.6.1	mac	2023-06-27	14:31:49	14:39:52	479468	5c6ddaefdf677d00013fa313	4	1	main_slash	11	main_slash	13	stimuli_distractor_diamondtriangles.svg	stimuli_target_diamondrectangles.svg	31	yes	53	1	1170	0	0			0	0			1				0	
6.6.1	mac	2023-06-27	14:31:49	14:39:52	479468	5c6ddaefdf677d00013fa313	4	1	main_slash	11	advance_on_keypress_SLASH	14	stimuli_distractor_diamondtriangles.svg	stimuli_target_diamondrectangles.svg	31	yes	57	0	379	0	0			0	0			1				0	
6.6.1	mac	2023-06-27	14:31:49	14:39:55	482466	5c6ddaefdf677d00013fa313	4	1	main_slash	11	main_slash	15	stimuli_distractor_diamondtriangles.svg	stimuli_distractor_trianglediamonds.svg	38	no	0	1	2000	0	0			0	0			1				0	
6.6.1	mac	2023-06-27	14:31:49	14:39:55	482466	5c6ddaefdf677d00013fa313	4	1	main_slash	11	advance_on_keypress_SLASH	16	stimuli_distractor_diamondtriangles.svg	stimuli_distractor_trianglediamonds.svg	38	no	57	0	279	0	0			0	0			1				0	
6.6.1	mac	2023-06-27	14:31:49	14:39:56	483901	5c6ddaefdf677d00013fa313	4	1	main_slash	11	main_slash	17	stimuli_target_rectangletriangles.svg	stimuli_distractor_diamondtriangles.svg	5	yes	53	1	518	0	0			0	0			1				0	
6.6.1	mac	2023-06-27	14:31:49	14:39:56	483901	5c6ddaefdf677d00013fa313	4	1	main_slash	11	advance_on_keypress_SLASH	18	stimuli_target_rectangletriangles.svg	stimuli_distractor_diamondtriangles.svg	5	yes	57	0	414	0	0			0	0			1				0	
6.6.1	mac	2023-06-27	14:31:49	14:39:58	485843	5c6ddaefdf677d00013fa313	4	1	main_slash	11	main_slash	19	stimuli_target_diamondsquares.svg	stimuli_distractor_trianglediamonds.svg	20	yes	53	1	876	0	0			0	0			1				0	
6.6.1	mac	2023-06-27	14:31:49	14:39:58	485843	5c6ddaefdf677d00013fa313	4	1	main_slash	11	advance_on_keypress_SLASH	20	stimuli_target_diamondsquares.svg	stimuli_distractor_trianglediamonds.svg	20	yes	57	0	357	0	0			0	0			1				0	
6.6.1	mac	2023-06-27	14:31:49	14:39:59	487251	5c6ddaefdf677d00013fa313	4	1	main_slash	11	main_slash	21	stimuli_distractor_trianglediamonds.svg	stimuli_target_diamondsquares.svg	28	yes	53	1	421	0	0			0	0			1				0	
6.6.1	mac	2023-06-27	14:31:49	14:39:59	487251	5c6ddaefdf677d00013fa313	4	1	main_slash	11	advance_on_keypress_SLASH	22	stimuli_distractor_trianglediamonds.svg	stimuli_target_diamondsquares.svg	28	yes	57	0	358	0	0			0	0			1				0	
6.6.1	mac	2023-06-27	14:31:49	14:40:02	490233	5c6ddaefdf677d00013fa313	4	1	main_slash	11	main_slash	23	stimuli_distractor_diamondtriangles.svg	stimuli_distractor_diamondtriangles.svg	40	no	0	1	2000	0	0			0	0			1				0	
6.6.1	mac	2023-06-27	14:31:49	14:40:02	490233	5c6ddaefdf677d00013fa313	4	1	main_slash	11	advance_on_keypress_SLASH	24	stimuli_distractor_diamondtriangles.svg	stimuli_distractor_diamondtriangles.svg	40	no	57	0	283	0	0			0	0			1				0	
6.6.1	mac	2023-06-27	14:31:49	14:40:04	491538	5c6ddaefdf677d00013fa313	4	1	main_slash	11	main_slash	25	stimuli_target_trianglesquares.svg	stimuli_distractor_trianglediamonds.svg	18	yes	53	1	393	0	0			0	0			1				0	
6.6.1	mac	2023-06-27	14:31:49	14:40:04	491538	5c6ddaefdf677d00013fa313	4	1	main_slash	11	advance_on_keypress_SLASH	26	stimuli_target_trianglesquares.svg	stimuli_distractor_trianglediamonds.svg	18	yes	57	0	385	0	0			0	0			1				0	
6.6.1	mac	2023-06-27	14:31:49	14:40:05	492921	5c6ddaefdf677d00013fa313	4	1	main_slash	11	main_slash	27	stimuli_target_squaretriangles.svg	stimuli_distractor_trianglediamonds.svg	3	yes	53	1	357	0	0			0	0			1				0	
6.6.1	mac	2023-06-27	14:31:49	14:40:05	492921	5c6ddaefdf677d00013fa313	4	1	main_slash	11	advance_on_keypress_SLASH	28	stimuli_target_squaretriangles.svg	stimuli_distractor_trianglediamonds.svg	3	yes	57	0	630	0	0			0	0			1				0	
6.6.1	mac	2023-06-27	14:31:49	14:40:07	494634	5c6ddaefdf677d00013fa313	4	1	main_slash	11	main_slash	29	stimuli_distractor_trianglediamonds.svg	stimuli_target_squaretriangles.svg	11	yes	53	1	452	0	0			0	0			1				0	
6.6.1	mac	2023-06-27	14:31:49	14:40:07	494634	5c6ddaefdf677d00013fa313	4	1	main_slash	11	advance_on_keypress_SLASH	30	stimuli_distractor_trianglediamonds.svg	stimuli_target_squaretriangles.svg	11	yes	57	0	471	0	0			0	0			1				0	
6.6.1	mac	2023-06-27	14:31:49	14:40:08	496117	5c6ddaefdf677d00013fa313	4	1	main_slash	11	main_slash	31	stimuli_distractor_trianglediamonds.svg	stimuli_target_rectangletriangles.svg	9	yes	53	1	387	0	0			0	0			1				0	
6.6.1	mac	2023-06-27	14:31:49	14:40:08	496117	5c6ddaefdf677d00013fa313	4	1	main_slash	11	advance_on_keypress_SLASH	32	stimuli_distractor_trianglediamonds.svg	stimuli_target_rectangletriangles.svg	9	yes	57	0	406	0	0			0	0			1				0	
6.6.1	mac	2023-06-27	14:31:49	14:40:10	498001	5c6ddaefdf677d00013fa313	4	1	main_slash	11	main_slash	33	stimuli_distractor_trianglediamonds.svg	stimuli_target_trianglerectangles.svg	25	yes	53	1	837	0	0			0	0			1				0	
6.6.1	mac	2023-06-27	14:31:49	14:40:10	498001	5c6ddaefdf677d00013fa313	4	1	main_slash	11	advance_on_keypress_SLASH	34	stimuli_distractor_trianglediamonds.svg	stimuli_target_trianglerectangles.svg	25	yes	57	0	330	0	0			0	0			1				0	
6.6.1	mac	2023-06-27	14:31:49	14:40:12	499471	5c6ddaefdf677d00013fa313	4	1	main_slash	11	main_slash	35	stimuli_distractor_diamondtriangles.svg	stimuli_target_trianglesquares.svg	30	yes	53	1	507	0	0			0	0			1				0	
6.6.1	mac	2023-06-27	14:31:49	14:40:12	499471	5c6ddaefdf677d00013fa313	4	1	main_slash	11	advance_on_keypress_SLASH	36	stimuli_distractor_diamondtriangles.svg	stimuli_target_trianglesquares.svg	30	yes	57	0	440	0	0			0	0			1				0	
6.6.1	mac	2023-06-27	14:31:49	14:40:13	501402	5c6ddaefdf677d00013fa313	4	1	main_slash	11	main_slash	37	stimuli_distractor_diamondtriangles.svg	stimuli_target_diamondsquares.svg	32	yes	53	1	872	0	0			0	0			1				0	
6.6.1	mac	2023-06-27	14:31:49	14:40:13	501402	5c6ddaefdf677d00013fa313	4	1	main_slash	11	advance_on_keypress_SLASH	38	stimuli_distractor_diamondtriangles.svg	stimuli_target_diamondsquares.svg	32	yes	57	0	357	0	0			0	0			1				0	
6.6.1	mac	2023-06-27	14:31:49	14:40:15	502946	5c6ddaefdf677d00013fa313	4	1	main_slash	11	main_slash	39	stimuli_target_diamondsquares.svg	stimuli_distractor_diamondtriangles.svg	24	yes	53	1	566	0	0			0	0			1				0	
6.6.1	mac	2023-06-27	14:31:49	14:40:15	502946	5c6ddaefdf677d00013fa313	4	1	main_slash	11	advance_on_keypress_SLASH	40	stimuli_target_diamondsquares.svg	stimuli_distractor_diamondtriangles.svg	24	yes	57	0	379	0	0			0	0			1				0	
6.6.1	mac	2023-06-27	14:31:49	14:40:18	505950	5c6ddaefdf677d00013fa313	4	1	main_slash	11	main_slash	41	stimuli_distractor_trianglediamonds.svg	stimuli_distractor_diamondtriangles.svg	36	no	0	1	2000	0	0			0	0			1				0	
6.6.1	mac	2023-06-27	14:31:49	14:40:18	505950	5c6ddaefdf677d00013fa313	4	1	main_slash	11	advance_on_keypress_SLASH	42	stimuli_distractor_trianglediamonds.svg	stimuli_distractor_diamondtriangles.svg	36	no	57	0	312	0	0			0	0			1				0	
6.6.1	mac	2023-06-27	14:31:49	14:40:19	507376	5c6ddaefdf677d00013fa313	4	1	main_slash	11	main_slash	43	stimuli_target_squarediamonds.svg	stimuli_distractor_trianglediamonds.svg	4	yes	53	1	479	0	0			0	0			1				0	
6.6.1	mac	2023-06-27	14:31:49	14:40:19	507376	5c6ddaefdf677d00013fa313	4	1	main_slash	11	advance_on_keypress_SLASH	44	stimuli_target_squarediamonds.svg	stimuli_distractor_trianglediamonds.svg	4	yes	57	0	419	0	0			0	0			1				0	
6.6.1	mac	2023-06-27	14:31:49	14:40:21	508971	5c6ddaefdf677d00013fa313	4	1	main_slash	11	main_slash	45	stimuli_target_trianglesquares.svg	stimuli_distractor_diamondtriangles.svg	22	yes	53	1	558	0	0			0	0			1				0	
6.6.1	mac	2023-06-27	14:31:49	14:40:21	508971	5c6ddaefdf677d00013fa313	4	1	main_slash	11	advance_on_keypress_SLASH	46	stimuli_target_trianglesquares.svg	stimuli_distractor_diamondtriangles.svg	22	yes	57	0	388	0	0			0	0			1				0	
6.6.1	mac	2023-06-27	14:31:49	14:40:23	510468	5c6ddaefdf677d00013fa313	4	1	main_slash	11	main_slash	47	stimuli_distractor_trianglediamonds.svg	stimuli_target_trianglesquares.svg	26	yes	53	1	488	0	0			0	0			1				0	
6.6.1	mac	2023-06-27	14:31:49	14:40:23	510468	5c6ddaefdf677d00013fa313	4	1	main_slash	11	advance_on_keypress_SLASH	48	stimuli_distractor_trianglediamonds.svg	stimuli_target_trianglesquares.svg	26	yes	57	0	384	0	0			0	0			1				0	
6.6.1	mac	2023-06-27	14:31:49	14:40:26	513483	5c6ddaefdf677d00013fa313	4	1	main_slash	11	main_slash	49	stimuli_distractor_diamondtriangles.svg	stimuli_distractor_diamondtriangles.svg	39	no	0	1	2000	0	0			0	0			1				0	
6.6.1	mac	2023-06-27	14:31:49	14:40:26	513483	5c6ddaefdf677d00013fa313	4	1	main_slash	11	advance_on_keypress_SLASH	50	stimuli_distractor_diamondtriangles.svg	stimuli_distractor_diamondtriangles.svg	39	no	57	0	242	0	0			0	0			1				0	
6.6.1	mac	2023-06-27	14:31:49	14:40:27	514880	5c6ddaefdf677d00013fa313	4	1	main_slash	11	main_slash	51	stimuli_target_rectangletriangles.svg	stimuli_distractor_trianglediamonds.svg	1	yes	53	1	533	0	0			0	0			1				0	
6.6.1	mac	2023-06-27	14:31:49	14:40:27	514880	5c6ddaefdf677d00013fa313	4	1	main_slash	11	advance_on_keypress_SLASH	52	stimuli_target_rectangletriangles.svg	stimuli_distractor_trianglediamonds.svg	1	yes	57	0	365	0	0			0	0			1				0	
6.6.1	mac	2023-06-27	14:31:49	14:40:28	516341	5c6ddaefdf677d00013fa313	4	1	main_slash	11	main_slash	53	stimuli_target_squarediamonds.svg	stimuli_distractor_diamondtriangles.svg	8	yes	53	1	459	0	0			0	0			1				0	
6.6.1	mac	2023-06-27	14:31:49	14:40:28	516341	5c6ddaefdf677d00013fa313	4	1	main_slash	11	advance_on_keypress_SLASH	54	stimuli_target_squarediamonds.svg	stimuli_distractor_diamondtriangles.svg	8	yes	57	0	373	0	0			0	0			1				0	
6.6.1	mac	2023-06-27	14:31:49	14:40:30	517832	5c6ddaefdf677d00013fa313	4	1	main_slash	11	main_slash	55	stimuli_target_trianglerectangles.svg	stimuli_distractor_diamondtriangles.svg	21	yes	53	1	484	0	0			0	0			1				0	
6.6.1	mac	2023-06-27	14:31:49	14:40:30	517832	5c6ddaefdf677d00013fa313	4	1	main_slash	11	advance_on_keypress_SLASH	56	stimuli_target_trianglerectangles.svg	stimuli_distractor_diamondtriangles.svg	21	yes	57	0	363	0	0			0	0			1				0	
6.6.1	mac	2023-06-27	14:31:49	14:40:33	520833	5c6ddaefdf677d00013fa313	4	1	main_slash	11	main_slash	57	stimuli_distractor_trianglediamonds.svg	stimuli_distractor_diamondtriangles.svg	35	no	0	1	2000	0	0			0	0			1				0	
6.6.1	mac	2023-06-27	14:31:49	14:40:33	520833	5c6ddaefdf677d00013fa313	4	1	main_slash	11	advance_on_keypress_SLASH	58	stimuli_distractor_trianglediamonds.svg	stimuli_distractor_diamondtriangles.svg	35	no	57	0	343	0	0			0	0			1				0	
6.6.1	mac	2023-06-27	14:31:49	14:40:34	522276	5c6ddaefdf677d00013fa313	4	1	main_slash	11	main_slash	59	stimuli_distractor_trianglediamonds.svg	stimuli_target_squarediamonds.svg	12	yes	53	1	479	0	0			0	0			1				0	
6.6.1	mac	2023-06-27	14:31:49	14:40:34	522276	5c6ddaefdf677d00013fa313	4	1	main_slash	11	advance_on_keypress_SLASH	60	stimuli_distractor_trianglediamonds.svg	stimuli_target_squarediamonds.svg	12	yes	57	0	338	0	0			0	0			1				0	
6.6.1	mac	2023-06-27	14:31:49	14:40:36	523668	5c6ddaefdf677d00013fa313	4	1	main_slash	11	main_slash	61	stimuli_distractor_trianglediamonds.svg	stimuli_target_rectanglediamonds.svg	10	yes	53	1	421	0	0			0	0			1				0	
6.6.1	mac	2023-06-27	14:31:49	14:40:36	523668	5c6ddaefdf677d00013fa313	4	1	main_slash	11	advance_on_keypress_SLASH	62	stimuli_distractor_trianglediamonds.svg	stimuli_target_rectanglediamonds.svg	10	yes	57	0	307	0	0			0	0			1				0	
6.6.1	mac	2023-06-27	14:31:49	14:40:37	525429	5c6ddaefdf677d00013fa313	4	1	main_slash	11	main_slash	63	stimuli_target_diamondrectangles.svg	stimuli_distractor_trianglediamonds.svg	19	yes	53	1	832	0	0			0	0			1				0	
6.6.1	mac	2023-06-27	14:31:49	14:40:37	525429	5c6ddaefdf677d00013fa313	4	1	main_slash	11	advance_on_keypress_SLASH	64	stimuli_target_diamondrectangles.svg	stimuli_distractor_trianglediamonds.svg	19	yes	57	0	313	0	0			0	0			1				0	
6.6.1	mac	2023-06-27	14:31:49	14:40:39	526985	5c6ddaefdf677d00013fa313	4	1	main_slash	11	main_slash	65	stimuli_target_rectanglediamonds.svg	stimuli_distractor_trianglediamonds.svg	2	yes	53	1	620	0	0			0	0			1				0	
6.6.1	mac	2023-06-27	14:31:49	14:40:39	526985	5c6ddaefdf677d00013fa313	4	1	main_slash	11	advance_on_keypress_SLASH	66	stimuli_target_rectanglediamonds.svg	stimuli_distractor_trianglediamonds.svg	2	yes	57	0	547	0	0			0	0			1				0	
6.6.1	mac	2023-06-27	14:31:49	14:40:41	528735	5c6ddaefdf677d00013fa313	4	1	main_slash	11	main_slash	67	stimuli_distractor_diamondtriangles.svg	stimuli_target_squaretriangles.svg	15	yes	53	1	571	0	0			0	0			1				0	
6.6.1	mac	2023-06-27	14:31:49	14:40:41	528735	5c6ddaefdf677d00013fa313	4	1	main_slash	11	advance_on_keypress_SLASH	68	stimuli_distractor_diamondtriangles.svg	stimuli_target_squaretriangles.svg	15	yes	57	0	446	0	0			0	0			1				0	
6.6.1	mac	2023-06-27	14:31:49	14:40:42	530232	5c6ddaefdf677d00013fa313	4	1	main_slash	11	main_slash	69	stimuli_distractor_diamondtriangles.svg	stimuli_target_trianglerectangles.svg	29	yes	53	1	434	0	0			0	0			1				0	
6.6.1	mac	2023-06-27	14:31:49	14:40:42	530232	5c6ddaefdf677d00013fa313	4	1	main_slash	11	advance_on_keypress_SLASH	70	stimuli_distractor_diamondtriangles.svg	stimuli_target_trianglerectangles.svg	29	yes	57	0	406	0	0			0	0			1				0	
6.6.1	mac	2023-06-27	14:31:49	14:40:44	532144	5c6ddaefdf677d00013fa313	4	1	main_slash	11	main_slash	71	stimuli_target_trianglerectangles.svg	stimuli_distractor_trianglediamonds.svg	17	yes	53	1	880	0	0			0	0			1				0	
6.6.1	mac	2023-06-27	14:31:49	14:40:44	532144	5c6ddaefdf677d00013fa313	4	1	main_slash	11	advance_on_keypress_SLASH	72	stimuli_target_trianglerectangles.svg	stimuli_distractor_trianglediamonds.svg	17	yes	57	0	345	0	0			0	0			1				0	
6.6.1	mac	2023-06-27	14:31:49	14:40:47	535116	5c6ddaefdf677d00013fa313	4	1	main_slash	11	main_slash	73	stimuli_distractor_trianglediamonds.svg	stimuli_distractor_trianglediamonds.svg	33	no	0	1	2000	0	0			0	0			1				0	
6.6.1	mac	2023-06-27	14:31:49	14:40:47	535116	5c6ddaefdf677d00013fa313	4	1	main_slash	11	advance_on_keypress_SLASH	74	stimuli_distractor_trianglediamonds.svg	stimuli_distractor_trianglediamonds.svg	33	no	57	0	294	0	0			0	0			1				0	
6.6.1	mac	2023-06-27	14:31:49	14:40:49	537001	5c6ddaefdf677d00013fa313	4	1	main_slash	11	main_slash	75	stimuli_target_rectanglediamonds.svg	stimuli_distractor_diamondtriangles.svg	6	yes	53	1	954	0	0			0	0			1				0	
6.6.1	mac	2023-06-27	14:31:49	14:40:49	537001	5c6ddaefdf677d00013fa313	4	1	main_slash	11	advance_on_keypress_SLASH	76	stimuli_target_rectanglediamonds.svg	stimuli_distractor_diamondtriangles.svg	6	yes	57	0	374	0	0			0	0			1				0	
6.6.1	mac	2023-06-27	14:31:49	14:40:52	539920	5c6ddaefdf677d00013fa313	4	1	main_slash	11	main_slash	77	stimuli_distractor_trianglediamonds.svg	stimuli_target_diamondrectangles.svg	27	yes	53	1	1921	0	0			0	0			1				0	
6.6.1	mac	2023-06-27	14:31:49	14:40:52	539920	5c6ddaefdf677d00013fa313	4	1	main_slash	11	advance_on_keypress_SLASH	78	stimuli_distractor_trianglediamonds.svg	stimuli_target_diamondrectangles.svg	27	yes	57	0	400	0	0			0	0			1				0	
6.6.1	mac	2023-06-27	14:31:49	14:40:55	542949	5c6ddaefdf677d00013fa313	4	1	main_slash	11	main_slash	79	stimuli_target_diamondrectangles.svg	stimuli_distractor_diamondtriangles.svg	23	yes	0	0	2000	0	0			0	0			1				0	
6.6.1	mac	2023-06-27	14:31:49	14:40:55	542949	5c6ddaefdf677d00013fa313	4	1	main_slash	11	advance_on_keypress_SLASH	80	stimuli_target_diamondrectangles.svg	stimuli_distractor_diamondtriangles.svg	23	yes	57	0	414	0	0			0	0			1				0	
6.6.1	mac	2023-06-27	14:31:49	14:40:57	545080	5c6ddaefdf677d00013fa313	4	1	main_slash	11	main_slash	81	stimuli_distractor_trianglediamonds.svg	stimuli_distractor_trianglediamonds.svg	33	no	53	0	1083	0	0			0	0			1				0	
6.6.1	mac	2023-06-27	14:31:49	14:40:57	545080	5c6ddaefdf677d00013fa313	4	1	main_slash	11	advance_on_keypress_SLASH	82	stimuli_distractor_trianglediamonds.svg	stimuli_distractor_trianglediamonds.svg	33	no	57	0	1646	0	0			0	0			1				0	
6.6.1	mac	2023-06-27	14:31:49	14:41:00	548078	5c6ddaefdf677d00013fa313	4	1	main_slash	11	main_slash	83	stimuli_distractor_trianglediamonds.svg	stimuli_target_rectanglediamonds.svg	10	yes	53	1	714	0	0			0	0			1				0	
6.6.1	mac	2023-06-27	14:31:49	14:41:00	548078	5c6ddaefdf677d00013fa313	4	1	main_slash	11	advance_on_keypress_SLASH	84	stimuli_distractor_trianglediamonds.svg	stimuli_target_rectanglediamonds.svg	10	yes	57	0	416	0	0			0	0			1				0	
6.6.1	mac	2023-06-27	14:31:49	14:41:02	549541	5c6ddaefdf677d00013fa313	4	1	main_slash	11	main_slash	85	stimuli_distractor_trianglediamonds.svg	stimuli_target_squaretriangles.svg	11	yes	53	1	409	0	0			0	0			1				0	
6.6.1	mac	2023-06-27	14:31:49	14:41:02	549541	5c6ddaefdf677d00013fa313	4	1	main_slash	11	advance_on_keypress_SLASH	86	stimuli_distractor_trianglediamonds.svg	stimuli_target_squaretriangles.svg	11	yes	57	0	307	0	0			0	0			1				0	
6.6.1	mac	2023-06-27	14:31:49	14:41:03	550951	5c6ddaefdf677d00013fa313	4	1	main_slash	11	main_slash	87	stimuli_target_rectanglediamonds.svg	stimuli_distractor_diamondtriangles.svg	6	yes	53	1	470	0	0			0	0			1				0	
6.6.1	mac	2023-06-27	14:31:49	14:41:03	550951	5c6ddaefdf677d00013fa313	4	1	main_slash	11	advance_on_keypress_SLASH	88	stimuli_target_rectanglediamonds.svg	stimuli_distractor_diamondtriangles.svg	6	yes	57	0	331	0	0			0	0			1				0	
6.6.1	mac	2023-06-27	14:31:49	14:41:06	553916	5c6ddaefdf677d00013fa313	4	1	main_slash	11	main_slash	89	stimuli_target_trianglerectangles.svg	stimuli_distractor_trianglediamonds.svg	17	yes	0	0	2000	0	0			0	0			1				0	
6.6.1	mac	2023-06-27	14:31:49	14:41:06	553916	5c6ddaefdf677d00013fa313	4	1	main_slash	11	advance_on_keypress_SLASH	90	stimuli_target_trianglerectangles.svg	stimuli_distractor_trianglediamonds.svg	17	yes	57	0	265	0	0			0	0			1				0	
6.6.1	mac	2023-06-27	14:31:49	14:41:07	555284	5c6ddaefdf677d00013fa313	4	1	main_slash	11	main_slash	91	stimuli_distractor_trianglediamonds.svg	stimuli_target_trianglesquares.svg	26	yes	53	1	470	0	0			0	0			1				0	
6.6.1	mac	2023-06-27	14:31:49	14:41:07	555284	5c6ddaefdf677d00013fa313	4	1	main_slash	11	advance_on_keypress_SLASH	92	stimuli_distractor_trianglediamonds.svg	stimuli_target_trianglesquares.svg	26	yes	57	0	385	0	0			0	0			1				0	
6.6.1	mac	2023-06-27	14:31:49	14:41:10	558299	5c6ddaefdf677d00013fa313	4	1	main_slash	11	main_slash	93	stimuli_distractor_trianglediamonds.svg	stimuli_distractor_diamondtriangles.svg	36	no	0	1	2000	0	0			0	0			1				0	
6.6.1	mac	2023-06-27	14:31:49	14:41:10	558299	5c6ddaefdf677d00013fa313	4	1	main_slash	11	advance_on_keypress_SLASH	94	stimuli_distractor_trianglediamonds.svg	stimuli_distractor_diamondtriangles.svg	36	no	57	0	250	0	0			0	0			1				0	
6.6.1	mac	2023-06-27	14:31:49	14:41:12	559734	5c6ddaefdf677d00013fa313	4	1	main_slash	11	main_slash	95	stimuli_target_diamondsquares.svg	stimuli_distractor_trianglediamonds.svg	20	yes	53	1	554	0	0			0	0			1				0	
6.6.1	mac	2023-06-27	14:31:49	14:41:12	559734	5c6ddaefdf677d00013fa313	4	1	main_slash	11	advance_on_keypress_SLASH	96	stimuli_target_diamondsquares.svg	stimuli_distractor_trianglediamonds.svg	20	yes	57	0	368	0	0			0	0			1				0	
6.6.1	mac	2023-06-27	14:31:49	14:41:15	562734	5c6ddaefdf677d00013fa313	4	1	main_slash	11	main_slash	97	stimuli_distractor_diamondtriangles.svg	stimuli_distractor_trianglediamonds.svg	37	no	0	1	2000	0	0			0	0			1				0	
6.6.1	mac	2023-06-27	14:31:49	14:41:15	562734	5c6ddaefdf677d00013fa313	4	1	main_slash	11	advance_on_keypress_SLASH	98	stimuli_distractor_diamondtriangles.svg	stimuli_distractor_trianglediamonds.svg	37	no	57	0	423	0	0			0	0			1				0	
6.6.1	mac	2023-06-27	14:31:49	14:41:16	564445	5c6ddaefdf677d00013fa313	4	1	main_slash	11	main_slash	99	stimuli_distractor_trianglediamonds.svg	stimuli_target_diamondsquares.svg	28	yes	53	1	665	0	0			0	0			1				0	
6.6.1	mac	2023-06-27	14:31:49	14:41:16	564445	5c6ddaefdf677d00013fa313	4	1	main_slash	11	advance_on_keypress_SLASH	100	stimuli_distractor_trianglediamonds.svg	stimuli_target_diamondsquares.svg	28	yes	57	0	304	0	0			0	0			1				0	
6.6.1	mac	2023-06-27	14:31:49	14:41:18	565853	5c6ddaefdf677d00013fa313	4	1	main_slash	11	main_slash	101	stimuli_target_rectanglediamonds.svg	stimuli_distractor_trianglediamonds.svg	2	yes	53	1	473	0	0			0	0			1				0	
6.6.1	mac	2023-06-27	14:31:49	14:41:18	565853	5c6ddaefdf677d00013fa313	4	1	main_slash	11	advance_on_keypress_SLASH	102	stimuli_target_rectanglediamonds.svg	stimuli_distractor_trianglediamonds.svg	2	yes	57	0	339	0	0			0	0			1				0	
6.6.1	mac	2023-06-27	14:31:49	14:41:21	568816	5c6ddaefdf677d00013fa313	4	1	main_slash	11	main_slash	103	stimuli_distractor_trianglediamonds.svg	stimuli_distractor_trianglediamonds.svg	34	no	0	1	2000	0	0			0	0			1				0	
6.6.1	mac	2023-06-27	14:31:49	14:41:21	568816	5c6ddaefdf677d00013fa313	4	1	main_slash	11	advance_on_keypress_SLASH	104	stimuli_distractor_trianglediamonds.svg	stimuli_distractor_trianglediamonds.svg	34	no	57	0	309	0	0			0	0			1				0	
6.6.1	mac	2023-06-27	14:31:49	14:41:23	570479	5c6ddaefdf677d00013fa313	4	1	main_slash	11	main_slash	105	stimuli_distractor_diamondtriangles.svg	stimuli_target_diamondrectangles.svg	31	yes	53	1	715	0	0			0	0			1				0	
6.6.1	mac	2023-06-27	14:31:49	14:41:23	570479	5c6ddaefdf677d00013fa313	4	1	main_slash	11	advance_on_keypress_SLASH	106	stimuli_distractor_diamondtriangles.svg	stimuli_target_diamondrectangles.svg	31	yes	57	0	276	0	0			0	0			1				0	
6.6.1	mac	2023-06-27	14:31:49	14:41:24	572052	5c6ddaefdf677d00013fa313	4	1	main_slash	11	main_slash	107	stimuli_target_diamondrectangles.svg	stimuli_distractor_trianglediamonds.svg	19	yes	53	1	672	0	0			0	0			1				0	
6.6.1	mac	2023-06-27	14:31:49	14:41:24	572052	5c6ddaefdf677d00013fa313	4	1	main_slash	11	advance_on_keypress_SLASH	108	stimuli_target_diamondrectangles.svg	stimuli_distractor_trianglediamonds.svg	19	yes	57	0	321	0	0			0	0			1				0	
6.6.1	mac	2023-06-27	14:31:49	14:41:26	573533	5c6ddaefdf677d00013fa313	4	1	main_slash	11	main_slash	109	stimuli_distractor_diamondtriangles.svg	stimuli_target_diamondsquares.svg	32	yes	53	1	534	0	0			0	0			1				0	
6.6.1	mac	2023-06-27	14:31:49	14:41:26	573533	5c6ddaefdf677d00013fa313	4	1	main_slash	11	advance_on_keypress_SLASH	110	stimuli_distractor_diamondtriangles.svg	stimuli_target_diamondsquares.svg	32	yes	57	0	354	0	0			0	0			1				0	
6.6.1	mac	2023-06-27	14:31:49	14:41:27	574924	5c6ddaefdf677d00013fa313	4	1	main_slash	11	main_slash	111	stimuli_distractor_diamondtriangles.svg	stimuli_target_rectanglediamonds.svg	14	yes	53	1	408	0	0			0	0			1				0	
6.6.1	mac	2023-06-27	14:31:49	14:41:27	574924	5c6ddaefdf677d00013fa313	4	1	main_slash	11	advance_on_keypress_SLASH	112	stimuli_distractor_diamondtriangles.svg	stimuli_target_rectanglediamonds.svg	14	yes	57	0	296	0	0			0	0			1				0	
6.6.1	mac	2023-06-27	14:31:49	14:41:29	576568	5c6ddaefdf677d00013fa313	4	1	main_slash	11	main_slash	113	stimuli_distractor_diamondtriangles.svg	stimuli_target_trianglerectangles.svg	29	yes	53	1	720	0	0			0	0			1				0	
6.6.1	mac	2023-06-27	14:31:49	14:41:29	576568	5c6ddaefdf677d00013fa313	4	1	main_slash	11	advance_on_keypress_SLASH	114	stimuli_distractor_diamondtriangles.svg	stimuli_target_trianglerectangles.svg	29	yes	57	0	400	0	0			0	0			1				0	
6.6.1	mac	2023-06-27	14:31:49	14:41:30	578336	5c6ddaefdf677d00013fa313	4	1	main_slash	11	main_slash	115	stimuli_distractor_diamondtriangles.svg	stimuli_target_trianglesquares.svg	30	yes	53	1	739	0	0			0	0			1				0	
6.6.1	mac	2023-06-27	14:31:49	14:41:30	578336	5c6ddaefdf677d00013fa313	4	1	main_slash	11	advance_on_keypress_SLASH	116	stimuli_distractor_diamondtriangles.svg	stimuli_target_trianglesquares.svg	30	yes	57	0	349	0	0			0	0			1				0	
6.6.1	mac	2023-06-27	14:31:49	14:41:32	579744	5c6ddaefdf677d00013fa313	4	1	main_slash	11	main_slash	117	stimuli_distractor_trianglediamonds.svg	stimuli_target_diamondrectangles.svg	27	yes	53	1	430	0	0			0	0			1				0	
6.6.1	mac	2023-06-27	14:31:49	14:41:32	579744	5c6ddaefdf677d00013fa313	4	1	main_slash	11	advance_on_keypress_SLASH	118	stimuli_distractor_trianglediamonds.svg	stimuli_target_diamondrectangles.svg	27	yes	57	0	391	0	0			0	0			1				0	
6.6.1	mac	2023-06-27	14:31:49	14:41:35	582765	5c6ddaefdf677d00013fa313	4	1	main_slash	11	main_slash	119	stimuli_distractor_diamondtriangles.svg	stimuli_distractor_diamondtriangles.svg	39	no	0	1	2000	0	0			0	0			1				0	
6.6.1	mac	2023-06-27	14:31:49	14:41:35	582765	5c6ddaefdf677d00013fa313	4	1	main_slash	11	advance_on_keypress_SLASH	120	stimuli_distractor_diamondtriangles.svg	stimuli_distractor_diamondtriangles.svg	39	no	57	0	260	0	0			0	0			1				0	
6.6.1	mac	2023-06-27	14:31:49	14:41:36	584327	5c6ddaefdf677d00013fa313	4	1	main_slash	11	main_slash	121	stimuli_target_trianglerectangles.svg	stimuli_distractor_diamondtriangles.svg	21	yes	53	1	663	0	0			0	0			1				0	
6.6.1	mac	2023-06-27	14:31:49	14:41:36	584327	5c6ddaefdf677d00013fa313	4	1	main_slash	11	advance_on_keypress_SLASH	122	stimuli_target_trianglerectangles.svg	stimuli_distractor_diamondtriangles.svg	21	yes	57	0	313	0	0			0	0			1				0	
6.6.1	mac	2023-06-27	14:31:49	14:41:38	585734	5c6ddaefdf677d00013fa313	4	1	main_slash	11	main_slash	123	stimuli_target_squarediamonds.svg	stimuli_distractor_diamondtriangles.svg	8	yes	53	1	454	0	0			0	0			1				0	
6.6.1	mac	2023-06-27	14:31:49	14:41:38	585734	5c6ddaefdf677d00013fa313	4	1	main_slash	11	advance_on_keypress_SLASH	124	stimuli_target_squarediamonds.svg	stimuli_distractor_diamondtriangles.svg	8	yes	57	0	567	0	0			0	0			1				0	
6.6.1	mac	2023-06-27	14:31:49	14:41:40	587501	5c6ddaefdf677d00013fa313	4	1	main_slash	11	main_slash	125	stimuli_target_trianglesquares.svg	stimuli_distractor_diamondtriangles.svg	22	yes	53	1	571	0	0			0	0			1				0	
6.6.1	mac	2023-06-27	14:31:49	14:41:40	587501	5c6ddaefdf677d00013fa313	4	1	main_slash	11	advance_on_keypress_SLASH	126	stimuli_target_trianglesquares.svg	stimuli_distractor_diamondtriangles.svg	22	yes	57	0	355	0	0			0	0			1				0	
6.6.1	mac	2023-06-27	14:31:49	14:41:41	588862	5c6ddaefdf677d00013fa313	4	1	main_slash	11	main_slash	127	stimuli_distractor_diamondtriangles.svg	stimuli_target_squaretriangles.svg	15	yes	53	1	381	0	0			0	0			1				0	
6.6.1	mac	2023-06-27	14:31:49	14:41:41	588862	5c6ddaefdf677d00013fa313	4	1	main_slash	11	advance_on_keypress_SLASH	128	stimuli_distractor_diamondtriangles.svg	stimuli_target_squaretriangles.svg	15	yes	57	0	1904	0	0			0	0			1				0	
6.6.1	mac	2023-06-27	14:31:49	14:41:44	591716	5c6ddaefdf677d00013fa313	4	1	main_slash	11	main_slash	129	stimuli_target_squaretriangles.svg	stimuli_distractor_trianglediamonds.svg	3	yes	53	1	317	0	0			0	0			1				0	
6.6.1	mac	2023-06-27	14:31:49	14:41:44	591716	5c6ddaefdf677d00013fa313	4	1	main_slash	11	advance_on_keypress_SLASH	130	stimuli_target_squaretriangles.svg	stimuli_distractor_trianglediamonds.svg	3	yes	57	0	362	0	0			0	0			1				0	
6.6.1	mac	2023-06-27	14:31:49	14:41:45	593018	5c6ddaefdf677d00013fa313	4	1	main_slash	11	main_slash	131	stimuli_distractor_trianglediamonds.svg	stimuli_target_rectangletriangles.svg	9	yes	53	1	304	0	0			0	0			1				0	
6.6.1	mac	2023-06-27	14:31:49	14:41:45	593018	5c6ddaefdf677d00013fa313	4	1	main_slash	11	advance_on_keypress_SLASH	132	stimuli_distractor_trianglediamonds.svg	stimuli_target_rectangletriangles.svg	9	yes	57	0	257	0	0			0	0			1				0	
6.6.1	mac	2023-06-27	14:31:49	14:41:47	595195	5c6ddaefdf677d00013fa313	4	1	main_slash	11	main_slash	133	stimuli_target_diamondrectangles.svg	stimuli_distractor_diamondtriangles.svg	23	yes	53	1	1298	0	0			0	0			1				0	
6.6.1	mac	2023-06-27	14:31:49	14:41:47	595195	5c6ddaefdf677d00013fa313	4	1	main_slash	11	advance_on_keypress_SLASH	134	stimuli_target_diamondrectangles.svg	stimuli_distractor_diamondtriangles.svg	23	yes	57	0	255	0	0			0	0			1				0	
6.6.1	mac	2023-06-27	14:31:49	14:41:49	596526	5c6ddaefdf677d00013fa313	4	1	main_slash	11	main_slash	135	stimuli_distractor_diamondtriangles.svg	stimuli_target_squarediamonds.svg	16	yes	53	1	446	0	0			0	0			1				0	
6.6.1	mac	2023-06-27	14:31:49	14:41:49	596526	5c6ddaefdf677d00013fa313	4	1	main_slash	11	advance_on_keypress_SLASH	136	stimuli_distractor_diamondtriangles.svg	stimuli_target_squarediamonds.svg	16	yes	57	0	509	0	0			0	0			1				0	
6.6.1	mac	2023-06-27	14:31:49	14:41:51	599035	5c6ddaefdf677d00013fa313	4	1	main_slash	11	main_slash	137	stimuli_distractor_diamondtriangles.svg	stimuli_target_rectangletriangles.svg	13	yes	53	1	1371	0	0			0	0			1				0	
6.6.1	mac	2023-06-27	14:31:49	14:41:51	599035	5c6ddaefdf677d00013fa313	4	1	main_slash	11	advance_on_keypress_SLASH	138	stimuli_distractor_diamondtriangles.svg	stimuli_target_rectangletriangles.svg	13	yes	57	0	432	0	0			0	0			1				0	
6.6.1	mac	2023-06-27	14:31:49	14:41:53	600515	5c6ddaefdf677d00013fa313	4	1	main_slash	11	main_slash	139	stimuli_target_squaretriangles.svg	stimuli_distractor_diamondtriangles.svg	7	yes	53	1	417	0	0			0	0			1				0	
6.6.1	mac	2023-06-27	14:31:49	14:41:53	600515	5c6ddaefdf677d00013fa313	4	1	main_slash	11	advance_on_keypress_SLASH	140	stimuli_target_squaretriangles.svg	stimuli_distractor_diamondtriangles.svg	7	yes	57	0	306	0	0			0	0			1				0	
6.6.1	mac	2023-06-27	14:31:49	14:41:55	602719	5c6ddaefdf677d00013fa313	4	1	main_slash	11	main_slash	141	stimuli_target_diamondsquares.svg	stimuli_distractor_diamondtriangles.svg	24	yes	53	1	1272	0	0			0	0			1				0	
6.6.1	mac	2023-06-27	14:31:49	14:41:55	602719	5c6ddaefdf677d00013fa313	4	1	main_slash	11	advance_on_keypress_SLASH	142	stimuli_target_diamondsquares.svg	stimuli_distractor_diamondtriangles.svg	24	yes	57	0	305	0	0			0	0			1				0	
6.6.1	mac	2023-06-27	14:31:49	14:41:58	605649	5c6ddaefdf677d00013fa313	4	1	main_slash	11	main_slash	143	stimuli_distractor_trianglediamonds.svg	stimuli_target_trianglerectangles.svg	25	yes	0	0	2000	0	0			0	0			1				0	
6.6.1	mac	2023-06-27	14:31:49	14:41:58	605649	5c6ddaefdf677d00013fa313	4	1	main_slash	11	advance_on_keypress_SLASH	144	stimuli_distractor_trianglediamonds.svg	stimuli_target_trianglerectangles.svg	25	yes	57	0	300	0	0			0	0			1				0	
6.6.1	mac	2023-06-27	14:31:49	14:42:01	608584	5c6ddaefdf677d00013fa313	4	1	main_slash	11	main_slash	145	stimuli_target_rectangletriangles.svg	stimuli_distractor_trianglediamonds.svg	1	yes	0	0	2000	0	0			0	0			1				0	
6.6.1	mac	2023-06-27	14:31:49	14:42:01	608584	5c6ddaefdf677d00013fa313	4	1	main_slash	11	advance_on_keypress_SLASH	146	stimuli_target_rectangletriangles.svg	stimuli_distractor_trianglediamonds.svg	1	yes	57	0	295	0	0			0	0			1				0	
6.6.1	mac	2023-06-27	14:31:49	14:42:02	610027	5c6ddaefdf677d00013fa313	4	1	main_slash	11	main_slash	147	stimuli_target_trianglesquares.svg	stimuli_distractor_trianglediamonds.svg	18	yes	53	1	513	0	0			0	0			1				0	
6.6.1	mac	2023-06-27	14:31:49	14:42:02	610027	5c6ddaefdf677d00013fa313	4	1	main_slash	11	advance_on_keypress_SLASH	148	stimuli_target_trianglesquares.svg	stimuli_distractor_trianglediamonds.svg	18	yes	57	0	329	0	0			0	0			1				0	
6.6.1	mac	2023-06-27	14:31:49	14:42:04	611807	5c6ddaefdf677d00013fa313	4	1	main_slash	11	main_slash	149	stimuli_distractor_trianglediamonds.svg	stimuli_target_squarediamonds.svg	12	yes	53	1	825	0	0			0	0			1				0	
6.6.1	mac	2023-06-27	14:31:49	14:42:04	611807	5c6ddaefdf677d00013fa313	4	1	main_slash	11	advance_on_keypress_SLASH	150	stimuli_distractor_trianglediamonds.svg	stimuli_target_squarediamonds.svg	12	yes	57	0	295	0	0			0	0			1				0	
6.6.1	mac	2023-06-27	14:31:49	14:42:07	614734	5c6ddaefdf677d00013fa313	4	1	main_slash	11	main_slash	151	stimuli_distractor_diamondtriangles.svg	stimuli_distractor_trianglediamonds.svg	38	no	0	1	2000	0	0			0	0			1				0	
6.6.1	mac	2023-06-27	14:31:49	14:42:07	614734	5c6ddaefdf677d00013fa313	4	1	main_slash	11	advance_on_keypress_SLASH	152	stimuli_distractor_diamondtriangles.svg	stimuli_distractor_trianglediamonds.svg	38	no	57	0	350	0	0			0	0			1				0	
6.6.1	mac	2023-06-27	14:31:49	14:42:10	617718	5c6ddaefdf677d00013fa313	4	1	main_slash	11	main_slash	153	stimuli_distractor_trianglediamonds.svg	stimuli_distractor_diamondtriangles.svg	35	no	0	1	2000	0	0			0	0			1				0	
6.6.1	mac	2023-06-27	14:31:49	14:42:10	617718	5c6ddaefdf677d00013fa313	4	1	main_slash	11	advance_on_keypress_SLASH	154	stimuli_distractor_trianglediamonds.svg	stimuli_distractor_diamondtriangles.svg	35	no	57	0	224	0	0			0	0			1				0	
6.6.1	mac	2023-06-27	14:31:49	14:42:11	619017	5c6ddaefdf677d00013fa313	4	1	main_slash	11	main_slash	155	stimuli_target_rectangletriangles.svg	stimuli_distractor_diamondtriangles.svg	5	yes	53	1	453	0	0			0	0			1				0	
6.6.1	mac	2023-06-27	14:31:49	14:42:11	619017	5c6ddaefdf677d00013fa313	4	1	main_slash	11	advance_on_keypress_SLASH	156	stimuli_target_rectangletriangles.svg	stimuli_distractor_diamondtriangles.svg	5	yes	57	0	312	0	0			0	0			1				0	
6.6.1	mac	2023-06-27	14:31:49	14:42:12	620366	5c6ddaefdf677d00013fa313	4	1	main_slash	11	main_slash	157	stimuli_target_squarediamonds.svg	stimuli_distractor_trianglediamonds.svg	4	yes	53	1	401	0	0			0	0			1				0	
6.6.1	mac	2023-06-27	14:31:49	14:42:12	620366	5c6ddaefdf677d00013fa313	4	1	main_slash	11	advance_on_keypress_SLASH	158	stimuli_target_squarediamonds.svg	stimuli_distractor_trianglediamonds.svg	4	yes	57	0	297	0	0			0	0			1				0	
6.6.1	mac	2023-06-27	14:31:49	14:42:15	623300	5c6ddaefdf677d00013fa313	4	1	main_slash	11	main_slash	159	stimuli_distractor_diamondtriangles.svg	stimuli_distractor_diamondtriangles.svg	40	no	0	1	2000	0	0			0	0			1				0	
6.6.1	mac	2023-06-27	14:31:49	14:42:15	623300	5c6ddaefdf677d00013fa313	4	1	main_slash	11	advance_on_keypress_SLASH	160	stimuli_distractor_diamondtriangles.svg	stimuli_distractor_diamondtriangles.svg	40	no	57	0	542	0	0			0	0			1				0	
6.6.1	mac	2023-06-27	14:31:49	14:42:15	623300	5c6ddaefdf677d00013fa313	4	1	headphonecheck_calibration	14	headphonecheck_calibrationIntro	1	stimuli_distractor_diamondtriangles.svg	stimuli_distractor_diamondtriangles.svg	40	no	calibrationButton	0	1144	0	0			0	0			1				0	
6.6.1	mac	2023-06-27	14:31:49	14:42:15	623300	5c6ddaefdf677d00013fa313	4	1	headphonecheck_testphase	15	test_collectResponse	3	stimuli_distractor_diamondtriangles.svg	stimuli_distractor_diamondtriangles.svg	40	no	second	0	5586	1	2	antiphase_hc_ios.wav	3	0	0			1				0	
6.6.1	mac	2023-06-27	14:31:49	14:42:15	623300	5c6ddaefdf677d00013fa313	4	1	headphonecheck_testphase	15	test_collectResponse	6	stimuli_distractor_diamondtriangles.svg	stimuli_distractor_diamondtriangles.svg	40	no	second	0	1335	2	3	antiphase_hc_soi.wav	1	0	0			1				0	
6.6.1	mac	2023-06-27	14:31:49	14:42:15	623300	5c6ddaefdf677d00013fa313	4	1	headphonecheck_testphase	15	test_collectResponse	9	stimuli_distractor_diamondtriangles.svg	stimuli_distractor_diamondtriangles.svg	40	no	third	0	364	3	4	antiphase_hc_sio.wav	1	0	0			1				0	
6.6.1	mac	2023-06-27	14:31:49	14:42:15	623300	5c6ddaefdf677d00013fa313	4	1	headphonecheck_testphase	15	test_collectResponse	12	stimuli_distractor_diamondtriangles.svg	stimuli_distractor_diamondtriangles.svg	40	no	third	0	345	4	1	antiphase_hc_iso.wav	2	0	0			1				0	
6.6.1	mac	2023-06-27	14:31:49	14:42:15	623300	5c6ddaefdf677d00013fa313	4	1	headphonecheck_testphase	15	test_collectResponse	15	stimuli_distractor_diamondtriangles.svg	stimuli_distractor_diamondtriangles.svg	40	no	first	0	256	5	5	antiphase_hc_osi.wav	2	0	0			1				0	
6.6.1	mac	2023-06-27	14:31:49	14:42:15	623300	5c6ddaefdf677d00013fa313	4	1	headphonecheck_testphase	15	test_collectResponse	18	stimuli_distractor_diamondtriangles.svg	stimuli_distractor_diamondtriangles.svg	40	no	third	1	322	6	6	antiphase_hc_ois.wav	3	0	0			1				0	
6.6.1	mac	2023-06-27	14:31:49	14:42:15	623300	5c6ddaefdf677d00013fa313	4	1	stereocheck_calibration	17	stereocheck_calibrationIntro	1	stimuli_distractor_diamondtriangles.svg	stimuli_distractor_diamondtriangles.svg	40	no	stereocheck_calibrationButton	0	4529	6	6	antiphase_hc_ois.wav	3	0	0			1				0	
6.6.1	mac	2023-06-27	14:31:49	14:42:15	623300	5c6ddaefdf677d00013fa313	4	1	stereocheck_testphase	18	stereocheck_test_collectResponse	3	stimuli_distractor_diamondtriangles.svg	stimuli_distractor_diamondtriangles.svg	40	no	stereocheck_left	1	247	6	6	antiphase_hc_ois.wav	3	1	1	noise_calib_stim_LEFT.wav	1	1				0	
6.6.1	mac	2023-06-27	14:31:49	14:42:15	623300	5c6ddaefdf677d00013fa313	4	1	stereocheck_testphase	18	stereocheck_test_collectResponse	6	stimuli_distractor_diamondtriangles.svg	stimuli_distractor_diamondtriangles.svg	40	no	stereocheck_right	1	181	6	6	antiphase_hc_ois.wav	3	2	6	noise_calib_stim_RIGHT.wav	2	1				0	
6.6.1	mac	2023-06-27	14:31:49	14:42:15	623300	5c6ddaefdf677d00013fa313	4	1	stereocheck_testphase	18	stereocheck_test_collectResponse	9	stimuli_distractor_diamondtriangles.svg	stimuli_distractor_diamondtriangles.svg	40	no	stereocheck_left	1	256	6	6	antiphase_hc_ois.wav	3	3	3	noise_calib_stim_LEFT.wav	1	1				0	
6.6.1	mac	2023-06-27	14:31:49	14:42:15	623300	5c6ddaefdf677d00013fa313	4	1	stereocheck_testphase	18	stereocheck_test_collectResponse	12	stimuli_distractor_diamondtriangles.svg	stimuli_distractor_diamondtriangles.svg	40	no	stereocheck_right	1	181	6	6	antiphase_hc_ois.wav	3	4	4	noise_calib_stim_RIGHT.wav	2	1				0	
6.6.1	mac	2023-06-27	14:31:49	14:42:15	623300	5c6ddaefdf677d00013fa313	4	1	stereocheck_testphase	18	stereocheck_test_collectResponse	15	stimuli_distractor_diamondtriangles.svg	stimuli_distractor_diamondtriangles.svg	40	no	stereocheck_left	1	164	6	6	antiphase_hc_ois.wav	3	5	2	noise_calib_stim_LEFT.wav	1	1				0	
6.6.1	mac	2023-06-27	14:31:49	14:42:15	623300	5c6ddaefdf677d00013fa313	4	1	stereocheck_testphase	18	stereocheck_test_collectResponse	18	stimuli_distractor_diamondtriangles.svg	stimuli_distractor_diamondtriangles.svg	40	no	stereocheck_right	1	173	6	6	antiphase_hc_ois.wav	3	6	5	noise_calib_stim_RIGHT.wav	2	1				0	
6.6.1	mac	2023-06-27	14:31:49	14:42:15	623300	5c6ddaefdf677d00013fa313	4	1	DL_practice	21	DL_practice	2	stimuli_distractor_diamondtriangles.svg	stimuli_distractor_diamondtriangles.svg	40	no	ka	1	1145	6	6	antiphase_hc_ois.wav	3	6	5	noise_calib_stim_RIGHT.wav	2	22	blb_dichoticlistening_ka-ka.mp3	ka	ka	0	left
6.6.1	mac	2023-06-27	14:31:49	14:42:15	623300	5c6ddaefdf677d00013fa313	4	1	DL_practice	21	DL_practice	3	stimuli_distractor_diamondtriangles.svg	stimuli_distractor_diamondtriangles.svg	40	no	ta	1	1229	6	6	antiphase_hc_ois.wav	3	6	5	noise_calib_stim_RIGHT.wav	2	36	blb_dichoticlistening_ta-ta.mp3	ta	ta	0	left
6.6.1	mac	2023-06-27	14:31:49	14:42:15	623300	5c6ddaefdf677d00013fa313	4	1	DL_practice	21	DL_practice	4	stimuli_distractor_diamondtriangles.svg	stimuli_distractor_diamondtriangles.svg	40	no	da	1	804	6	6	antiphase_hc_ois.wav	3	6	5	noise_calib_stim_RIGHT.wav	2	8	blb_dichoticlistening_da-da.mp3	da	da	0	left
6.6.1	mac	2023-06-27	14:31:49	14:42:15	623300	5c6ddaefdf677d00013fa313	4	1	DL_practice	21	DL_practice	5	stimuli_distractor_diamondtriangles.svg	stimuli_distractor_diamondtriangles.svg	40	no	ka	1	1106	6	6	antiphase_hc_ois.wav	3	6	5	noise_calib_stim_RIGHT.wav	2	23	blb_dichoticlistening_ka-pa.mp3	ka	pa	1	left
6.6.1	mac	2023-06-27	14:31:49	14:42:15	623300	5c6ddaefdf677d00013fa313	4	1	DL_practice	21	DL_practice	6	stimuli_distractor_diamondtriangles.svg	stimuli_distractor_diamondtriangles.svg	40	no	pa	1	894	6	6	antiphase_hc_ois.wav	3	6	5	noise_calib_stim_RIGHT.wav	2	29	blb_dichoticlistening_pa-pa.mp3	pa	pa	0	left
6.6.1	mac	2023-06-27	14:31:49	14:42:15	623300	5c6ddaefdf677d00013fa313	4	1	DL_practice	21	DL_practice	7	stimuli_distractor_diamondtriangles.svg	stimuli_distractor_diamondtriangles.svg	40	no	ga	1	878	6	6	antiphase_hc_ois.wav	3	6	5	noise_calib_stim_RIGHT.wav	2	18	blb_dichoticlistening_ga-ta.mp3	ga	ta	1	left
6.6.1	mac	2023-06-27	14:31:49	14:42:15	623300	5c6ddaefdf677d00013fa313	4	1	DL_practice	21	DL_practice	8	stimuli_distractor_diamondtriangles.svg	stimuli_distractor_diamondtriangles.svg	40	no	ba	1	1140	6	6	antiphase_hc_ois.wav	3	6	5	noise_calib_stim_RIGHT.wav	2	1	blb_dichoticlistening_ba-ba.mp3	ba	ba	0	left
6.6.1	mac	2023-06-27	14:31:49	14:42:15	623300	5c6ddaefdf677d00013fa313	4	1	DL_practice	21	DL_practice	9	stimuli_distractor_diamondtriangles.svg	stimuli_distractor_diamondtriangles.svg	40	no	ga	1	861	6	6	antiphase_hc_ois.wav	3	6	5	noise_calib_stim_RIGHT.wav	2	15	blb_dichoticlistening_ga-ga.mp3	ga	ga	0	left
6.6.1	mac	2023-06-27	14:31:49	14:42:15	623300	5c6ddaefdf677d00013fa313	4	1	DL_practice	21	DL_practice	10	stimuli_distractor_diamondtriangles.svg	stimuli_distractor_diamondtriangles.svg	40	no	da	1	2437	6	6	antiphase_hc_ois.wav	3	6	5	noise_calib_stim_RIGHT.wav	2	7	blb_dichoticlistening_da-ba.mp3	da	ba	1	left
6.6.1	mac	2023-06-27	14:31:49	14:42:15	623300	5c6ddaefdf677d00013fa313	4	1	DL_test	23	DL_test	1	stimuli_distractor_diamondtriangles.svg	stimuli_distractor_diamondtriangles.svg	40	no	ba	1	898	6	6	antiphase_hc_ois.wav	3	6	5	noise_calib_stim_RIGHT.wav	2	6	blb_dichoticlistening_ba-ta.mp3	ba	ta	1	left
6.6.1	mac	2023-06-27	14:31:49	14:42:15	623300	5c6ddaefdf677d00013fa313	4	1	DL_test	23	DL_test	2	stimuli_distractor_diamondtriangles.svg	stimuli_distractor_diamondtriangles.svg	40	no	ga	1	881	6	6	antiphase_hc_ois.wav	3	6	5	noise_calib_stim_RIGHT.wav	2	16	blb_dichoticlistening_ga-ka.mp3	ga	ka	1	left
6.6.1	mac	2023-06-27	14:31:49	14:42:15	623300	5c6ddaefdf677d00013fa313	4	1	DL_test	23	DL_test	3	stimuli_distractor_diamondtriangles.svg	stimuli_distractor_diamondtriangles.svg	40	no	ka	1	711	6	6	antiphase_hc_ois.wav	3	6	5	noise_calib_stim_RIGHT.wav	2	22	blb_dichoticlistening_ka-ka.mp3	ka	ka	0	left
6.6.1	mac	2023-06-27	14:31:49	14:42:15	623300	5c6ddaefdf677d00013fa313	4	1	DL_test	23	DL_test	4	stimuli_distractor_diamondtriangles.svg	stimuli_distractor_diamondtriangles.svg	40	no	ba	1	1687	6	6	antiphase_hc_ois.wav	3	6	5	noise_calib_stim_RIGHT.wav	2	19	blb_dichoticlistening_ka-ba.mp3	ka	ba	1	right
6.6.1	mac	2023-06-27	14:31:49	14:42:15	623300	5c6ddaefdf677d00013fa313	4	1	DL_test	23	DL_test	5	stimuli_distractor_diamondtriangles.svg	stimuli_distractor_diamondtriangles.svg	40	no	da	1	831	6	6	antiphase_hc_ois.wav	3	6	5	noise_calib_stim_RIGHT.wav	2	20	blb_dichoticlistening_ka-da.mp3	ka	da	1	right
6.6.1	mac	2023-06-27	14:31:49	14:42:15	623300	5c6ddaefdf677d00013fa313	4	1	DL_test	23	DL_test	6	stimuli_distractor_diamondtriangles.svg	stimuli_distractor_diamondtriangles.svg	40	no	ta	1	1280	6	6	antiphase_hc_ois.wav	3	6	5	noise_calib_stim_RIGHT.wav	2	36	blb_dichoticlistening_ta-ta.mp3	ta	ta	0	left
6.6.1	mac	2023-06-27	14:31:49	14:42:15	623300	5c6ddaefdf677d00013fa313	4	1	DL_test	23	DL_test	7	stimuli_distractor_diamondtriangles.svg	stimuli_distractor_diamondtriangles.svg	40	no	ba	1	1162	6	6	antiphase_hc_ois.wav	3	6	5	noise_calib_stim_RIGHT.wav	2	13	blb_dichoticlistening_ga-ba.mp3	ga	ba	1	right
6.6.1	mac	2023-06-27	14:31:49	14:42:15	623300	5c6ddaefdf677d00013fa313	4	1	DL_test	23	DL_test	8	stimuli_distractor_diamondtriangles.svg	stimuli_distractor_diamondtriangles.svg	40	no	da	1	948	6	6	antiphase_hc_ois.wav	3	6	5	noise_calib_stim_RIGHT.wav	2	12	blb_dichoticlistening_da-ta.mp3	da	ta	1	left
6.6.1	mac	2023-06-27	14:31:49	14:42:15	623300	5c6ddaefdf677d00013fa313	4	1	DL_test	23	DL_test	9	stimuli_distractor_diamondtriangles.svg	stimuli_distractor_diamondtriangles.svg	40	no	pa	0	2495	6	6	antiphase_hc_ois.wav	3	6	5	noise_calib_stim_RIGHT.wav	2	31	blb_dichoticlistening_ta-ba.mp3	ta	ba	1	other
6.6.1	mac	2023-06-27	14:31:49	14:42:15	623300	5c6ddaefdf677d00013fa313	4	1	DL_test	23	DL_test	10	stimuli_distractor_diamondtriangles.svg	stimuli_distractor_diamondtriangles.svg	40	no	ga	1	861	6	6	antiphase_hc_ois.wav	3	6	5	noise_calib_stim_RIGHT.wav	2	18	blb_dichoticlistening_ga-ta.mp3	ga	ta	1	left
6.6.1	mac	2023-06-27	14:31:49	14:42:15	623300	5c6ddaefdf677d00013fa313	4	1	DL_test	23	DL_test	11	stimuli_distractor_diamondtriangles.svg	stimuli_distractor_diamondtriangles.svg	40	no	pa	1	1119	6	6	antiphase_hc_ois.wav	3	6	5	noise_calib_stim_RIGHT.wav	2	29	blb_dichoticlistening_pa-pa.mp3	pa	pa	0	left
6.6.1	mac	2023-06-27	14:31:49	14:42:15	623300	5c6ddaefdf677d00013fa313	4	1	DL_test	23	DL_test	12	stimuli_distractor_diamondtriangles.svg	stimuli_distractor_diamondtriangles.svg	40	no	ka	1	1152	6	6	antiphase_hc_ois.wav	3	6	5	noise_calib_stim_RIGHT.wav	2	24	blb_dichoticlistening_ka-ta.mp3	ka	ta	1	left
6.6.1	mac	2023-06-27	14:31:49	14:42:15	623300	5c6ddaefdf677d00013fa313	4	1	DL_test	23	DL_test	13	stimuli_distractor_diamondtriangles.svg	stimuli_distractor_diamondtriangles.svg	40	no	da	1	952	6	6	antiphase_hc_ois.wav	3	6	5	noise_calib_stim_RIGHT.wav	2	9	blb_dichoticlistening_da-ga.mp3	da	ga	1	left
6.6.1	mac	2023-06-27	14:31:49	14:42:15	623300	5c6ddaefdf677d00013fa313	4	1	DL_test	23	DL_test	14	stimuli_distractor_diamondtriangles.svg	stimuli_distractor_diamondtriangles.svg	40	no	ta	1	1048	6	6	antiphase_hc_ois.wav	3	6	5	noise_calib_stim_RIGHT.wav	2	30	blb_dichoticlistening_pa-ta.mp3	pa	ta	1	right
6.6.1	mac	2023-06-27	14:31:49	14:42:15	623300	5c6ddaefdf677d00013fa313	4	1	DL_test	23	DL_test	15	stimuli_distractor_diamondtriangles.svg	stimuli_distractor_diamondtriangles.svg	40	no	ba	1	1811	6	6	antiphase_hc_ois.wav	3	6	5	noise_calib_stim_RIGHT.wav	2	7	blb_dichoticlistening_da-ba.mp3	da	ba	1	right
6.6.1	mac	2023-06-27	14:31:49	14:42:15	623300	5c6ddaefdf677d00013fa313	4	1	DL_test	23	DL_test	16	stimuli_distractor_diamondtriangles.svg	stimuli_distractor_diamondtriangles.svg	40	no	ga	1	748	6	6	antiphase_hc_ois.wav	3	6	5	noise_calib_stim_RIGHT.wav	2	14	blb_dichoticlistening_ga-da.mp3	ga	da	1	left
6.6.1	mac	2023-06-27	14:31:49	14:42:15	623300	5c6ddaefdf677d00013fa313	4	1	DL_test	23	DL_test	17	stimuli_distractor_diamondtriangles.svg	stimuli_distractor_diamondtriangles.svg	40	no	ga	1	1206	6	6	antiphase_hc_ois.wav	3	6	5	noise_calib_stim_RIGHT.wav	2	27	blb_dichoticlistening_pa-ga.mp3	pa	ga	1	right
6.6.1	mac	2023-06-27	14:31:49	14:42:15	623300	5c6ddaefdf677d00013fa313	4	1	DL_test	23	DL_test	18	stimuli_distractor_diamondtriangles.svg	stimuli_distractor_diamondtriangles.svg	40	no	ka	1	762	6	6	antiphase_hc_ois.wav	3	6	5	noise_calib_stim_RIGHT.wav	2	23	blb_dichoticlistening_ka-pa.mp3	ka	pa	1	left
6.6.1	mac	2023-06-27	14:31:49	14:42:15	623300	5c6ddaefdf677d00013fa313	4	1	DL_test	23	DL_test	19	stimuli_distractor_diamondtriangles.svg	stimuli_distractor_diamondtriangles.svg	40	no	ga	1	906	6	6	antiphase_hc_ois.wav	3	6	5	noise_calib_stim_RIGHT.wav	2	33	blb_dichoticlistening_ta-ga.mp3	ta	ga	1	right
6.6.1	mac	2023-06-27	14:31:49	14:42:15	623300	5c6ddaefdf677d00013fa313	4	1	DL_test	23	DL_test	20	stimuli_distractor_diamondtriangles.svg	stimuli_distractor_diamondtriangles.svg	40	no	da	1	1189	6	6	antiphase_hc_ois.wav	3	6	5	noise_calib_stim_RIGHT.wav	2	8	blb_dichoticlistening_da-da.mp3	da	da	0	left
6.6.1	mac	2023-06-27	14:31:49	14:42:15	623300	5c6ddaefdf677d00013fa313	4	1	DL_test	23	DL_test	21	stimuli_distractor_diamondtriangles.svg	stimuli_distractor_diamondtriangles.svg	40	no	ba	1	1111	6	6	antiphase_hc_ois.wav	3	6	5	noise_calib_stim_RIGHT.wav	2	2	blb_dichoticlistening_ba-da.mp3	ba	da	1	left
6.6.1	mac	2023-06-27	14:31:49	14:42:15	623300	5c6ddaefdf677d00013fa313	4	1	DL_test	23	DL_test	22	stimuli_distractor_diamondtriangles.svg	stimuli_distractor_diamondtriangles.svg	40	no	da	1	828	6	6	antiphase_hc_ois.wav	3	6	5	noise_calib_stim_RIGHT.wav	2	10	blb_dichoticlistening_da-ka.mp3	da	ka	1	left
6.6.1	mac	2023-06-27	14:31:49	14:42:15	623300	5c6ddaefdf677d00013fa313	4	1	DL_test	23	DL_test	23	stimuli_distractor_diamondtriangles.svg	stimuli_distractor_diamondtriangles.svg	40	no	ga	1	669	6	6	antiphase_hc_ois.wav	3	6	5	noise_calib_stim_RIGHT.wav	2	15	blb_dichoticlistening_ga-ga.mp3	ga	ga	0	left
6.6.1	mac	2023-06-27	14:31:49	14:42:15	623300	5c6ddaefdf677d00013fa313	4	1	DL_test	23	DL_test	24	stimuli_distractor_diamondtriangles.svg	stimuli_distractor_diamondtriangles.svg	40	no	ka	1	1078	6	6	antiphase_hc_ois.wav	3	6	5	noise_calib_stim_RIGHT.wav	2	4	blb_dichoticlistening_ba-ka.mp3	ba	ka	1	right
6.6.1	mac	2023-06-27	14:31:49	14:42:15	623300	5c6ddaefdf677d00013fa313	4	1	DL_test	23	DL_test	25	stimuli_distractor_diamondtriangles.svg	stimuli_distractor_diamondtriangles.svg	40	no	ga	1	953	6	6	antiphase_hc_ois.wav	3	6	5	noise_calib_stim_RIGHT.wav	2	17	blb_dichoticlistening_ga-pa.mp3	ga	pa	1	left
