build	computer.platform	date	time	timestamp	time_elapsed_ms	subject	group	session	blockcode	blocknum	trialcode	trialnum	stimulus_left	stimulus_right	stim_index	target_present	response	correct	latency	headphonecheck_countTestTrials	headphonecheck_index	headphonecheck_testSound	headphonecheck_correctResponse	stereocheck_countTestTrials	stereocheck_index	stereocheck_testSound	stereocheck_correctResponse	DL_index	DL_soundfile	DL_leftSound	DL_rightSound	DL_dualSound	DL_choice
6.6.1	win	2023-06-02	06:25:48	06:28:38	165382	5dee72917309b950e5262f3a	3	1	practice_slash	5	practice_slash	1	stimuli_distractor_trianglediamonds.svg	stimuli_distractor_trianglediamonds.svg	15	no	53	0	1640	0	0			0	0			1				0	
6.6.1	win	2023-06-02	06:25:48	06:28:38	165382	5dee72917309b950e5262f3a	3	1	practice_slash	5	advance_on_keypress_SLASH	2	stimuli_distractor_trianglediamonds.svg	stimuli_distractor_trianglediamonds.svg	15	no	57	0	585	0	0			0	0			1				0	
6.6.1	win	2023-06-02	06:25:48	06:28:43	169626	5dee72917309b950e5262f3a	3	1	practice_slash	5	practice_slash	3	stimuli_distractor_diamondtriangles.svg	stimuli_distractor_diamondtriangles.svg	13	no	0	1	2000	0	0			0	0			1				0	
6.6.1	win	2023-06-02	06:25:48	06:28:43	169626	5dee72917309b950e5262f3a	3	1	practice_slash	5	advance_on_keypress_SLASH	4	stimuli_distractor_diamondtriangles.svg	stimuli_distractor_diamondtriangles.svg	13	no	57	0	760	0	0			0	0			1				0	
6.6.1	win	2023-06-02	06:25:48	06:28:47	174040	5dee72917309b950e5262f3a	3	1	practice_slash	5	practice_slash	5	stimuli_target_diamondsquares.svg	stimuli_distractor_diamondtriangles.svg	3	yes	0	0	2000	0	0			0	0			1				0	
6.6.1	win	2023-06-02	06:25:48	06:28:47	174040	5dee72917309b950e5262f3a	3	1	practice_slash	5	advance_on_keypress_SLASH	6	stimuli_target_diamondsquares.svg	stimuli_distractor_diamondtriangles.svg	3	yes	57	0	2164	0	0			0	0			1				0	
6.6.1	win	2023-06-02	06:25:48	06:28:52	178440	5dee72917309b950e5262f3a	3	1	practice_slash	5	practice_slash	7	stimuli_target_squarediamonds.svg	stimuli_distractor_diamondtriangles.svg	2	yes	53	1	584	0	0			0	0			1				0	
6.6.1	win	2023-06-02	06:25:48	06:28:52	178440	5dee72917309b950e5262f3a	3	1	practice_slash	5	advance_on_keypress_SLASH	8	stimuli_target_squarediamonds.svg	stimuli_distractor_diamondtriangles.svg	2	yes	57	0	547	0	0			0	0			1				0	
6.6.1	win	2023-06-02	06:25:48	06:28:56	182639	5dee72917309b950e5262f3a	3	1	practice_slash	5	practice_slash	9	stimuli_distractor_diamondtriangles.svg	stimuli_distractor_trianglediamonds.svg	14	no	0	1	2000	0	0			0	0			1				0	
6.6.1	win	2023-06-02	06:25:48	06:28:56	182639	5dee72917309b950e5262f3a	3	1	practice_slash	5	advance_on_keypress_SLASH	10	stimuli_distractor_diamondtriangles.svg	stimuli_distractor_trianglediamonds.svg	14	no	57	0	517	0	0			0	0			1				0	
6.6.1	win	2023-06-02	06:25:48	06:29:00	186805	5dee72917309b950e5262f3a	3	1	practice_slash	5	practice_slash	11	stimuli_distractor_trianglediamonds.svg	stimuli_distractor_diamondtriangles.svg	16	no	0	1	2000	0	0			0	0			1				0	
6.6.1	win	2023-06-02	06:25:48	06:29:00	186805	5dee72917309b950e5262f3a	3	1	practice_slash	5	advance_on_keypress_SLASH	12	stimuli_distractor_trianglediamonds.svg	stimuli_distractor_diamondtriangles.svg	16	no	57	0	425	0	0			0	0			1				0	
6.6.1	win	2023-06-02	06:25:48	06:29:03	189408	5dee72917309b950e5262f3a	3	1	practice_slash	5	practice_slash	13	stimuli_target_rectanglediamonds.svg	stimuli_distractor_diamondtriangles.svg	1	yes	53	1	520	0	0			0	0			1				0	
6.6.1	win	2023-06-02	06:25:48	06:29:03	189408	5dee72917309b950e5262f3a	3	1	practice_slash	5	advance_on_keypress_SLASH	14	stimuli_target_rectanglediamonds.svg	stimuli_distractor_diamondtriangles.svg	1	yes	57	0	398	0	0			0	0			1				0	
6.6.1	win	2023-06-02	06:25:48	06:29:06	192465	5dee72917309b950e5262f3a	3	1	practice_slash	5	practice_slash	15	stimuli_distractor_trianglediamonds.svg	stimuli_target_rectanglediamonds.svg	10	yes	53	1	1011	0	0			0	0			1				0	
6.6.1	win	2023-06-02	06:25:48	06:29:06	192465	5dee72917309b950e5262f3a	3	1	practice_slash	5	advance_on_keypress_SLASH	16	stimuli_distractor_trianglediamonds.svg	stimuli_target_rectanglediamonds.svg	10	yes	57	0	523	0	0			0	0			1				0	
6.6.1	win	2023-06-02	06:25:48	06:29:08	195345	5dee72917309b950e5262f3a	3	1	practice_slash	5	practice_slash	17	stimuli_distractor_diamondtriangles.svg	stimuli_target_diamondrectangles.svg	8	yes	53	1	708	0	0			0	0			1				0	
6.6.1	win	2023-06-02	06:25:48	06:29:08	195345	5dee72917309b950e5262f3a	3	1	practice_slash	5	advance_on_keypress_SLASH	18	stimuli_distractor_diamondtriangles.svg	stimuli_target_diamondrectangles.svg	8	yes	57	0	405	0	0			0	0			1				0	
6.6.1	win	2023-06-02	06:25:48	06:29:11	198282	5dee72917309b950e5262f3a	3	1	practice_slash	5	practice_slash	19	stimuli_target_diamondsquares.svg	stimuli_distractor_trianglediamonds.svg	6	yes	53	1	880	0	0			0	0			1				0	
6.6.1	win	2023-06-02	06:25:48	06:29:11	198282	5dee72917309b950e5262f3a	3	1	practice_slash	5	advance_on_keypress_SLASH	20	stimuli_target_diamondsquares.svg	stimuli_distractor_trianglediamonds.svg	6	yes	57	0	402	0	0			0	0			1				0	
6.6.1	win	2023-06-02	06:25:48	06:29:14	201318	5dee72917309b950e5262f3a	3	1	practice_slash	5	practice_slash	21	stimuli_distractor_trianglediamonds.svg	stimuli_target_squarediamonds.svg	11	yes	53	1	982	0	0			0	0			1				0	
6.6.1	win	2023-06-02	06:25:48	06:29:14	201318	5dee72917309b950e5262f3a	3	1	practice_slash	5	advance_on_keypress_SLASH	22	stimuli_distractor_trianglediamonds.svg	stimuli_target_squarediamonds.svg	11	yes	57	0	829	0	0			0	0			1				0	
6.6.1	win	2023-06-02	06:25:48	06:29:18	204795	5dee72917309b950e5262f3a	3	1	practice_slash	5	practice_slash	23	stimuli_target_rectanglediamonds.svg	stimuli_distractor_trianglediamonds.svg	4	yes	53	1	993	0	0			0	0			1				0	
6.6.1	win	2023-06-02	06:25:48	06:29:18	204795	5dee72917309b950e5262f3a	3	1	practice_slash	5	advance_on_keypress_SLASH	24	stimuli_target_rectanglediamonds.svg	stimuli_distractor_trianglediamonds.svg	4	yes	57	0	436	0	0			0	0			1				0	
6.6.1	win	2023-06-02	06:25:48	06:29:21	207911	5dee72917309b950e5262f3a	3	1	practice_slash	5	practice_slash	25	stimuli_distractor_diamondtriangles.svg	stimuli_target_rectangletriangles.svg	7	yes	53	1	1026	0	0			0	0			1				0	
6.6.1	win	2023-06-02	06:25:48	06:29:21	207911	5dee72917309b950e5262f3a	3	1	practice_slash	5	advance_on_keypress_SLASH	26	stimuli_distractor_diamondtriangles.svg	stimuli_target_rectangletriangles.svg	7	yes	57	0	340	0	0			0	0			1				0	
6.6.1	win	2023-06-02	06:25:48	06:29:24	211078	5dee72917309b950e5262f3a	3	1	practice_slash	5	practice_slash	27	stimuli_distractor_trianglediamonds.svg	stimuli_target_diamondrectangles.svg	12	yes	53	1	1177	0	0			0	0			1				0	
6.6.1	win	2023-06-02	06:25:48	06:29:24	211078	5dee72917309b950e5262f3a	3	1	practice_slash	5	advance_on_keypress_SLASH	28	stimuli_distractor_trianglediamonds.svg	stimuli_target_diamondrectangles.svg	12	yes	57	0	411	0	0			0	0			1				0	
6.6.1	win	2023-06-02	06:25:48	06:29:27	213888	5dee72917309b950e5262f3a	3	1	practice_slash	5	practice_slash	29	stimuli_target_squarediamonds.svg	stimuli_distractor_trianglediamonds.svg	5	yes	53	1	738	0	0			0	0			1				0	
6.6.1	win	2023-06-02	06:25:48	06:29:27	213888	5dee72917309b950e5262f3a	3	1	practice_slash	5	advance_on_keypress_SLASH	30	stimuli_target_squarediamonds.svg	stimuli_distractor_trianglediamonds.svg	5	yes	57	0	430	0	0			0	0			1				0	
6.6.1	win	2023-06-02	06:25:48	06:29:30	217208	5dee72917309b950e5262f3a	3	1	practice_slash	5	practice_slash	31	stimuli_distractor_diamondtriangles.svg	stimuli_target_trianglerectangles.svg	9	yes	53	1	1243	0	0			0	0			1				0	
6.6.1	win	2023-06-02	06:25:48	06:29:30	217208	5dee72917309b950e5262f3a	3	1	practice_slash	5	advance_on_keypress_SLASH	32	stimuli_distractor_diamondtriangles.svg	stimuli_target_trianglerectangles.svg	9	yes	57	0	304	0	0			0	0			1				0	
6.6.1	win	2023-06-02	06:25:48	06:29:41	227836	5dee72917309b950e5262f3a	3	1	main_slash	7	main_slash	1	stimuli_distractor_trianglediamonds.svg	stimuli_target_rectanglediamonds.svg	10	yes	53	1	857	0	0			0	0			1				0	
6.6.1	win	2023-06-02	06:25:48	06:29:41	227836	5dee72917309b950e5262f3a	3	1	main_slash	7	advance_on_keypress_SLASH	2	stimuli_distractor_trianglediamonds.svg	stimuli_target_rectanglediamonds.svg	10	yes	57	0	784	0	0			0	0			1				0	
6.6.1	win	2023-06-02	06:25:48	06:29:43	230305	5dee72917309b950e5262f3a	3	1	main_slash	7	main_slash	3	stimuli_target_trianglerectangles.svg	stimuli_distractor_trianglediamonds.svg	17	yes	53	1	1044	0	0			0	0			1				0	
6.6.1	win	2023-06-02	06:25:48	06:29:43	230305	5dee72917309b950e5262f3a	3	1	main_slash	7	advance_on_keypress_SLASH	4	stimuli_target_trianglerectangles.svg	stimuli_distractor_trianglediamonds.svg	17	yes	57	0	685	0	0			0	0			1				0	
6.6.1	win	2023-06-02	06:25:48	06:29:47	233644	5dee72917309b950e5262f3a	3	1	main_slash	7	main_slash	5	stimuli_distractor_diamondtriangles.svg	stimuli_distractor_trianglediamonds.svg	38	no	0	1	2000	0	0			0	0			1				0	
6.6.1	win	2023-06-02	06:25:48	06:29:47	233644	5dee72917309b950e5262f3a	3	1	main_slash	7	advance_on_keypress_SLASH	6	stimuli_distractor_diamondtriangles.svg	stimuli_distractor_trianglediamonds.svg	38	no	57	0	497	0	0			0	0			1				0	
6.6.1	win	2023-06-02	06:25:48	06:29:49	235754	5dee72917309b950e5262f3a	3	1	main_slash	7	main_slash	7	stimuli_target_trianglesquares.svg	stimuli_distractor_trianglediamonds.svg	18	yes	53	1	960	0	0			0	0			1				0	
6.6.1	win	2023-06-02	06:25:48	06:29:49	235754	5dee72917309b950e5262f3a	3	1	main_slash	7	advance_on_keypress_SLASH	8	stimuli_target_trianglesquares.svg	stimuli_distractor_trianglediamonds.svg	18	yes	57	0	827	0	0			0	0			1				0	
6.6.1	win	2023-06-02	06:25:48	06:29:52	238724	5dee72917309b950e5262f3a	3	1	main_slash	7	main_slash	9	stimuli_target_trianglerectangles.svg	stimuli_distractor_diamondtriangles.svg	21	yes	53	1	1481	0	0			0	0			1				0	
6.6.1	win	2023-06-02	06:25:48	06:29:52	238724	5dee72917309b950e5262f3a	3	1	main_slash	7	advance_on_keypress_SLASH	10	stimuli_target_trianglerectangles.svg	stimuli_distractor_diamondtriangles.svg	21	yes	57	0	906	0	0			0	0			1				0	
6.6.1	win	2023-06-02	06:25:48	06:29:55	242276	5dee72917309b950e5262f3a	3	1	main_slash	7	main_slash	11	stimuli_distractor_trianglediamonds.svg	stimuli_distractor_diamondtriangles.svg	36	no	0	1	2000	0	0			0	0			1				0	
6.6.1	win	2023-06-02	06:25:48	06:29:55	242276	5dee72917309b950e5262f3a	3	1	main_slash	7	advance_on_keypress_SLASH	12	stimuli_distractor_trianglediamonds.svg	stimuli_distractor_diamondtriangles.svg	36	no	57	0	457	0	0			0	0			1				0	
6.6.1	win	2023-06-02	06:25:48	06:29:58	244536	5dee72917309b950e5262f3a	3	1	main_slash	7	main_slash	13	stimuli_target_trianglesquares.svg	stimuli_distractor_diamondtriangles.svg	22	yes	53	1	1160	0	0			0	0			1				0	
6.6.1	win	2023-06-02	06:25:48	06:29:58	244536	5dee72917309b950e5262f3a	3	1	main_slash	7	advance_on_keypress_SLASH	14	stimuli_target_trianglesquares.svg	stimuli_distractor_diamondtriangles.svg	22	yes	57	0	674	0	0			0	0			1				0	
6.6.1	win	2023-06-02	06:25:48	06:30:00	246988	5dee72917309b950e5262f3a	3	1	main_slash	7	main_slash	15	stimuli_target_diamondsquares.svg	stimuli_distractor_diamondtriangles.svg	24	yes	53	1	1129	0	0			0	0			1				0	
6.6.1	win	2023-06-02	06:25:48	06:30:00	246988	5dee72917309b950e5262f3a	3	1	main_slash	7	advance_on_keypress_SLASH	16	stimuli_target_diamondsquares.svg	stimuli_distractor_diamondtriangles.svg	24	yes	57	0	620	0	0			0	0			1				0	
6.6.1	win	2023-06-02	06:25:48	06:30:02	249271	5dee72917309b950e5262f3a	3	1	main_slash	7	main_slash	17	stimuli_target_rectanglediamonds.svg	stimuli_distractor_trianglediamonds.svg	2	yes	53	1	1013	0	0			0	0			1				0	
6.6.1	win	2023-06-02	06:25:48	06:30:02	249271	5dee72917309b950e5262f3a	3	1	main_slash	7	advance_on_keypress_SLASH	18	stimuli_target_rectanglediamonds.svg	stimuli_distractor_trianglediamonds.svg	2	yes	57	0	468	0	0			0	0			1				0	
6.6.1	win	2023-06-02	06:25:48	06:30:04	251248	5dee72917309b950e5262f3a	3	1	main_slash	7	main_slash	19	stimuli_target_squaretriangles.svg	stimuli_distractor_diamondtriangles.svg	7	yes	53	1	855	0	0			0	0			1				0	
6.6.1	win	2023-06-02	06:25:48	06:30:04	251248	5dee72917309b950e5262f3a	3	1	main_slash	7	advance_on_keypress_SLASH	20	stimuli_target_squaretriangles.svg	stimuli_distractor_diamondtriangles.svg	7	yes	57	0	1262	0	0			0	0			1				0	
6.6.1	win	2023-06-02	06:25:48	06:30:07	253879	5dee72917309b950e5262f3a	3	1	main_slash	7	main_slash	21	stimuli_distractor_trianglediamonds.svg	stimuli_target_trianglesquares.svg	26	yes	53	1	722	0	0			0	0			1				0	
6.6.1	win	2023-06-02	06:25:48	06:30:07	253879	5dee72917309b950e5262f3a	3	1	main_slash	7	advance_on_keypress_SLASH	22	stimuli_distractor_trianglediamonds.svg	stimuli_target_trianglesquares.svg	26	yes	57	0	1621	0	0			0	0			1				0	
6.6.1	win	2023-06-02	06:25:48	06:30:10	256955	5dee72917309b950e5262f3a	3	1	main_slash	7	main_slash	23	stimuli_distractor_diamondtriangles.svg	stimuli_target_squarediamonds.svg	16	yes	53	1	815	0	0			0	0			1				0	
6.6.1	win	2023-06-02	06:25:48	06:30:10	256955	5dee72917309b950e5262f3a	3	1	main_slash	7	advance_on_keypress_SLASH	24	stimuli_distractor_diamondtriangles.svg	stimuli_target_squarediamonds.svg	16	yes	57	0	1594	0	0			0	0			1				0	
6.6.1	win	2023-06-02	06:25:48	06:30:13	260102	5dee72917309b950e5262f3a	3	1	main_slash	7	main_slash	25	stimuli_distractor_diamondtriangles.svg	stimuli_target_diamondrectangles.svg	31	yes	53	1	896	0	0			0	0			1				0	
6.6.1	win	2023-06-02	06:25:48	06:30:13	260102	5dee72917309b950e5262f3a	3	1	main_slash	7	advance_on_keypress_SLASH	26	stimuli_distractor_diamondtriangles.svg	stimuli_target_diamondrectangles.svg	31	yes	57	0	774	0	0			0	0			1				0	
6.6.1	win	2023-06-02	06:25:48	06:30:17	263522	5dee72917309b950e5262f3a	3	1	main_slash	7	main_slash	27	stimuli_distractor_trianglediamonds.svg	stimuli_distractor_trianglediamonds.svg	34	no	0	1	2000	0	0			0	0			1				0	
6.6.1	win	2023-06-02	06:25:48	06:30:17	263522	5dee72917309b950e5262f3a	3	1	main_slash	7	advance_on_keypress_SLASH	28	stimuli_distractor_trianglediamonds.svg	stimuli_distractor_trianglediamonds.svg	34	no	57	0	703	0	0			0	0			1				0	
6.6.1	win	2023-06-02	06:25:48	06:30:19	265917	5dee72917309b950e5262f3a	3	1	main_slash	7	main_slash	29	stimuli_distractor_trianglediamonds.svg	stimuli_target_diamondrectangles.svg	27	yes	53	1	1046	0	0			0	0			1				0	
6.6.1	win	2023-06-02	06:25:48	06:30:19	265917	5dee72917309b950e5262f3a	3	1	main_slash	7	advance_on_keypress_SLASH	30	stimuli_distractor_trianglediamonds.svg	stimuli_target_diamondrectangles.svg	27	yes	57	0	605	0	0			0	0			1				0	
6.6.1	win	2023-06-02	06:25:48	06:30:22	269171	5dee72917309b950e5262f3a	3	1	main_slash	7	main_slash	31	stimuli_distractor_trianglediamonds.svg	stimuli_target_squaretriangles.svg	11	yes	0	0	2000	0	0			0	0			1				0	
6.6.1	win	2023-06-02	06:25:48	06:30:22	269171	5dee72917309b950e5262f3a	3	1	main_slash	7	advance_on_keypress_SLASH	32	stimuli_distractor_trianglediamonds.svg	stimuli_target_squaretriangles.svg	11	yes	57	0	1484	0	0			0	0			1				0	
6.6.1	win	2023-06-02	06:25:48	06:30:26	273303	5dee72917309b950e5262f3a	3	1	main_slash	7	main_slash	33	stimuli_distractor_diamondtriangles.svg	stimuli_distractor_diamondtriangles.svg	39	no	0	1	2000	0	0			0	0			1				0	
6.6.1	win	2023-06-02	06:25:48	06:30:26	273303	5dee72917309b950e5262f3a	3	1	main_slash	7	advance_on_keypress_SLASH	34	stimuli_distractor_diamondtriangles.svg	stimuli_distractor_diamondtriangles.svg	39	no	57	0	445	0	0			0	0			1				0	
6.6.1	win	2023-06-02	06:25:48	06:30:30	276405	5dee72917309b950e5262f3a	3	1	main_slash	7	main_slash	35	stimuli_distractor_diamondtriangles.svg	stimuli_target_squaretriangles.svg	15	yes	0	0	2000	0	0			0	0			1				0	
6.6.1	win	2023-06-02	06:25:48	06:30:30	276405	5dee72917309b950e5262f3a	3	1	main_slash	7	advance_on_keypress_SLASH	36	stimuli_distractor_diamondtriangles.svg	stimuli_target_squaretriangles.svg	15	yes	57	0	636	0	0			0	0			1				0	
6.6.1	win	2023-06-02	06:25:48	06:30:32	278651	5dee72917309b950e5262f3a	3	1	main_slash	7	main_slash	37	stimuli_distractor_diamondtriangles.svg	stimuli_target_rectanglediamonds.svg	14	yes	53	1	966	0	0			0	0			1				0	
6.6.1	win	2023-06-02	06:25:48	06:30:32	278651	5dee72917309b950e5262f3a	3	1	main_slash	7	advance_on_keypress_SLASH	38	stimuli_distractor_diamondtriangles.svg	stimuli_target_rectanglediamonds.svg	14	yes	57	0	687	0	0			0	0			1				0	
6.6.1	win	2023-06-02	06:25:48	06:30:34	280899	5dee72917309b950e5262f3a	3	1	main_slash	7	main_slash	39	stimuli_distractor_trianglediamonds.svg	stimuli_target_diamondsquares.svg	28	yes	53	1	913	0	0			0	0			1				0	
6.6.1	win	2023-06-02	06:25:48	06:30:34	280899	5dee72917309b950e5262f3a	3	1	main_slash	7	advance_on_keypress_SLASH	40	stimuli_distractor_trianglediamonds.svg	stimuli_target_diamondsquares.svg	28	yes	57	0	496	0	0			0	0			1				0	
6.6.1	win	2023-06-02	06:25:48	06:30:36	283064	5dee72917309b950e5262f3a	3	1	main_slash	7	main_slash	41	stimuli_target_rectanglediamonds.svg	stimuli_distractor_diamondtriangles.svg	6	yes	53	1	1010	0	0			0	0			1				0	
6.6.1	win	2023-06-02	06:25:48	06:30:36	283064	5dee72917309b950e5262f3a	3	1	main_slash	7	advance_on_keypress_SLASH	42	stimuli_target_rectanglediamonds.svg	stimuli_distractor_diamondtriangles.svg	6	yes	57	0	458	0	0			0	0			1				0	
6.6.1	win	2023-06-02	06:25:48	06:30:39	285415	5dee72917309b950e5262f3a	3	1	main_slash	7	main_slash	43	stimuli_target_squaretriangles.svg	stimuli_distractor_trianglediamonds.svg	3	yes	53	1	1247	0	0			0	0			1				0	
6.6.1	win	2023-06-02	06:25:48	06:30:39	285415	5dee72917309b950e5262f3a	3	1	main_slash	7	advance_on_keypress_SLASH	44	stimuli_target_squaretriangles.svg	stimuli_distractor_trianglediamonds.svg	3	yes	57	0	546	0	0			0	0			1				0	
6.6.1	win	2023-06-02	06:25:48	06:30:42	288617	5dee72917309b950e5262f3a	3	1	main_slash	7	main_slash	45	stimuli_distractor_diamondtriangles.svg	stimuli_distractor_diamondtriangles.svg	40	no	0	1	2000	0	0			0	0			1				0	
6.6.1	win	2023-06-02	06:25:48	06:30:42	288617	5dee72917309b950e5262f3a	3	1	main_slash	7	advance_on_keypress_SLASH	46	stimuli_distractor_diamondtriangles.svg	stimuli_distractor_diamondtriangles.svg	40	no	57	0	352	0	0			0	0			1				0	
6.6.1	win	2023-06-02	06:25:48	06:30:44	290604	5dee72917309b950e5262f3a	3	1	main_slash	7	main_slash	47	stimuli_distractor_diamondtriangles.svg	stimuli_target_rectangletriangles.svg	13	yes	53	1	987	0	0			0	0			1				0	
6.6.1	win	2023-06-02	06:25:48	06:30:44	290604	5dee72917309b950e5262f3a	3	1	main_slash	7	advance_on_keypress_SLASH	48	stimuli_distractor_diamondtriangles.svg	stimuli_target_rectangletriangles.svg	13	yes	57	0	447	0	0			0	0			1				0	
6.6.1	win	2023-06-02	06:25:48	06:30:47	293699	5dee72917309b950e5262f3a	3	1	main_slash	7	main_slash	49	stimuli_distractor_diamondtriangles.svg	stimuli_distractor_trianglediamonds.svg	37	no	0	1	2000	0	0			0	0			1				0	
6.6.1	win	2023-06-02	06:25:48	06:30:47	293699	5dee72917309b950e5262f3a	3	1	main_slash	7	advance_on_keypress_SLASH	50	stimuli_distractor_diamondtriangles.svg	stimuli_distractor_trianglediamonds.svg	37	no	57	0	321	0	0			0	0			1				0	
6.6.1	win	2023-06-02	06:25:48	06:30:49	295835	5dee72917309b950e5262f3a	3	1	main_slash	7	main_slash	51	stimuli_target_diamondrectangles.svg	stimuli_distractor_trianglediamonds.svg	19	yes	53	1	1170	0	0			0	0			1				0	
6.6.1	win	2023-06-02	06:25:48	06:30:49	295835	5dee72917309b950e5262f3a	3	1	main_slash	7	advance_on_keypress_SLASH	52	stimuli_target_diamondrectangles.svg	stimuli_distractor_trianglediamonds.svg	19	yes	57	0	542	0	0			0	0			1				0	
6.6.1	win	2023-06-02	06:25:48	06:30:51	298218	5dee72917309b950e5262f3a	3	1	main_slash	7	main_slash	53	stimuli_distractor_trianglediamonds.svg	stimuli_target_trianglerectangles.svg	25	yes	53	1	1203	0	0			0	0			1				0	
6.6.1	win	2023-06-02	06:25:48	06:30:51	298218	5dee72917309b950e5262f3a	3	1	main_slash	7	advance_on_keypress_SLASH	54	stimuli_distractor_trianglediamonds.svg	stimuli_target_trianglerectangles.svg	25	yes	57	0	490	0	0			0	0			1				0	
6.6.1	win	2023-06-02	06:25:48	06:30:54	301348	5dee72917309b950e5262f3a	3	1	main_slash	7	main_slash	55	stimuli_distractor_trianglediamonds.svg	stimuli_distractor_diamondtriangles.svg	35	no	0	1	2000	0	0			0	0			1				0	
6.6.1	win	2023-06-02	06:25:48	06:30:54	301348	5dee72917309b950e5262f3a	3	1	main_slash	7	advance_on_keypress_SLASH	56	stimuli_distractor_trianglediamonds.svg	stimuli_distractor_diamondtriangles.svg	35	no	57	0	437	0	0			0	0			1				0	
6.6.1	win	2023-06-02	06:25:48	06:30:57	303492	5dee72917309b950e5262f3a	3	1	main_slash	7	main_slash	57	stimuli_target_rectangletriangles.svg	stimuli_distractor_trianglediamonds.svg	1	yes	53	1	1061	0	0			0	0			1				0	
6.6.1	win	2023-06-02	06:25:48	06:30:57	303492	5dee72917309b950e5262f3a	3	1	main_slash	7	advance_on_keypress_SLASH	58	stimuli_target_rectangletriangles.svg	stimuli_distractor_trianglediamonds.svg	1	yes	57	0	829	0	0			0	0			1				0	
6.6.1	win	2023-06-02	06:25:48	06:30:59	305924	5dee72917309b950e5262f3a	3	1	main_slash	7	main_slash	59	stimuli_target_rectangletriangles.svg	stimuli_distractor_diamondtriangles.svg	5	yes	53	1	943	0	0			0	0			1				0	
6.6.1	win	2023-06-02	06:25:48	06:30:59	305924	5dee72917309b950e5262f3a	3	1	main_slash	7	advance_on_keypress_SLASH	60	stimuli_target_rectangletriangles.svg	stimuli_distractor_diamondtriangles.svg	5	yes	57	0	633	0	0			0	0			1				0	
6.6.1	win	2023-06-02	06:25:48	06:31:01	308168	5dee72917309b950e5262f3a	3	1	main_slash	7	main_slash	61	stimuli_distractor_diamondtriangles.svg	stimuli_target_diamondsquares.svg	32	yes	53	1	972	0	0			0	0			1				0	
6.6.1	win	2023-06-02	06:25:48	06:31:01	308168	5dee72917309b950e5262f3a	3	1	main_slash	7	advance_on_keypress_SLASH	62	stimuli_distractor_diamondtriangles.svg	stimuli_target_diamondsquares.svg	32	yes	57	0	859	0	0			0	0			1				0	
6.6.1	win	2023-06-02	06:25:48	06:31:04	310687	5dee72917309b950e5262f3a	3	1	main_slash	7	main_slash	63	stimuli_distractor_trianglediamonds.svg	stimuli_target_squarediamonds.svg	12	yes	53	1	1025	0	0			0	0			1				0	
6.6.1	win	2023-06-02	06:25:48	06:31:04	310687	5dee72917309b950e5262f3a	3	1	main_slash	7	advance_on_keypress_SLASH	64	stimuli_distractor_trianglediamonds.svg	stimuli_target_squarediamonds.svg	12	yes	57	0	685	0	0			0	0			1				0	
6.6.1	win	2023-06-02	06:25:48	06:31:06	312795	5dee72917309b950e5262f3a	3	1	main_slash	7	main_slash	65	stimuli_target_squarediamonds.svg	stimuli_distractor_trianglediamonds.svg	4	yes	53	1	783	0	0			0	0			1				0	
6.6.1	win	2023-06-02	06:25:48	06:31:06	312795	5dee72917309b950e5262f3a	3	1	main_slash	7	advance_on_keypress_SLASH	66	stimuli_target_squarediamonds.svg	stimuli_distractor_trianglediamonds.svg	4	yes	57	0	598	0	0			0	0			1				0	
6.6.1	win	2023-06-02	06:25:48	06:31:08	314940	5dee72917309b950e5262f3a	3	1	main_slash	7	main_slash	67	stimuli_distractor_diamondtriangles.svg	stimuli_target_trianglesquares.svg	30	yes	53	1	895	0	0			0	0			1				0	
6.6.1	win	2023-06-02	06:25:48	06:31:08	314940	5dee72917309b950e5262f3a	3	1	main_slash	7	advance_on_keypress_SLASH	68	stimuli_distractor_diamondtriangles.svg	stimuli_target_trianglesquares.svg	30	yes	57	0	493	0	0			0	0			1				0	
6.6.1	win	2023-06-02	06:25:48	06:31:10	316952	5dee72917309b950e5262f3a	3	1	main_slash	7	main_slash	69	stimuli_distractor_trianglediamonds.svg	stimuli_target_rectangletriangles.svg	9	yes	53	1	874	0	0			0	0			1				0	
6.6.1	win	2023-06-02	06:25:48	06:31:10	316952	5dee72917309b950e5262f3a	3	1	main_slash	7	advance_on_keypress_SLASH	70	stimuli_distractor_trianglediamonds.svg	stimuli_target_rectangletriangles.svg	9	yes	57	0	438	0	0			0	0			1				0	
6.6.1	win	2023-06-02	06:25:48	06:31:12	319042	5dee72917309b950e5262f3a	3	1	main_slash	7	main_slash	71	stimuli_distractor_diamondtriangles.svg	stimuli_target_trianglerectangles.svg	29	yes	53	1	1015	0	0			0	0			1				0	
6.6.1	win	2023-06-02	06:25:48	06:31:12	319042	5dee72917309b950e5262f3a	3	1	main_slash	7	advance_on_keypress_SLASH	72	stimuli_distractor_diamondtriangles.svg	stimuli_target_trianglerectangles.svg	29	yes	57	0	481	0	0			0	0			1				0	
6.6.1	win	2023-06-02	06:25:48	06:31:15	322177	5dee72917309b950e5262f3a	3	1	main_slash	7	main_slash	73	stimuli_target_diamondsquares.svg	stimuli_distractor_trianglediamonds.svg	20	yes	0	0	2000	0	0			0	0			1				0	
6.6.1	win	2023-06-02	06:25:48	06:31:15	322177	5dee72917309b950e5262f3a	3	1	main_slash	7	advance_on_keypress_SLASH	74	stimuli_target_diamondsquares.svg	stimuli_distractor_trianglediamonds.svg	20	yes	57	0	479	0	0			0	0			1				0	
6.6.1	win	2023-06-02	06:25:48	06:31:17	324322	5dee72917309b950e5262f3a	3	1	main_slash	7	main_slash	75	stimuli_target_diamondrectangles.svg	stimuli_distractor_diamondtriangles.svg	23	yes	53	1	1011	0	0			0	0			1				0	
6.6.1	win	2023-06-02	06:25:48	06:31:17	324322	5dee72917309b950e5262f3a	3	1	main_slash	7	advance_on_keypress_SLASH	76	stimuli_target_diamondrectangles.svg	stimuli_distractor_diamondtriangles.svg	23	yes	57	0	484	0	0			0	0			1				0	
6.6.1	win	2023-06-02	06:25:48	06:31:19	326165	5dee72917309b950e5262f3a	3	1	main_slash	7	main_slash	77	stimuli_target_squarediamonds.svg	stimuli_distractor_diamondtriangles.svg	8	yes	53	1	706	0	0			0	0			1				0	
6.6.1	win	2023-06-02	06:25:48	06:31:19	326165	5dee72917309b950e5262f3a	3	1	main_slash	7	advance_on_keypress_SLASH	78	stimuli_target_squarediamonds.svg	stimuli_distractor_diamondtriangles.svg	8	yes	57	0	610	0	0			0	0			1				0	
6.6.1	win	2023-06-02	06:25:48	06:31:23	329409	5dee72917309b950e5262f3a	3	1	main_slash	7	main_slash	79	stimuli_distractor_trianglediamonds.svg	stimuli_distractor_trianglediamonds.svg	33	no	0	1	2000	0	0			0	0			1				0	
6.6.1	win	2023-06-02	06:25:48	06:31:23	329409	5dee72917309b950e5262f3a	3	1	main_slash	7	advance_on_keypress_SLASH	80	stimuli_distractor_trianglediamonds.svg	stimuli_distractor_trianglediamonds.svg	33	no	57	0	403	0	0			0	0			1				0	
6.6.1	win	2023-06-02	06:25:48	06:31:24	331272	5dee72917309b950e5262f3a	3	1	main_slash	7	main_slash	81	stimuli_distractor_diamondtriangles.svg	stimuli_target_rectanglediamonds.svg	14	yes	53	1	814	0	0			0	0			1				0	
6.6.1	win	2023-06-02	06:25:48	06:31:24	331272	5dee72917309b950e5262f3a	3	1	main_slash	7	advance_on_keypress_SLASH	82	stimuli_distractor_diamondtriangles.svg	stimuli_target_rectanglediamonds.svg	14	yes	57	0	636	0	0			0	0			1				0	
6.6.1	win	2023-06-02	06:25:48	06:31:28	334560	5dee72917309b950e5262f3a	3	1	main_slash	7	main_slash	83	stimuli_distractor_trianglediamonds.svg	stimuli_distractor_trianglediamonds.svg	33	no	0	1	2000	0	0			0	0			1				0	
6.6.1	win	2023-06-02	06:25:48	06:31:28	334560	5dee72917309b950e5262f3a	3	1	main_slash	7	advance_on_keypress_SLASH	84	stimuli_distractor_trianglediamonds.svg	stimuli_distractor_trianglediamonds.svg	33	no	57	0	386	0	0			0	0			1				0	
6.6.1	win	2023-06-02	06:25:48	06:31:30	336448	5dee72917309b950e5262f3a	3	1	main_slash	7	main_slash	85	stimuli_target_trianglesquares.svg	stimuli_distractor_diamondtriangles.svg	22	yes	53	1	857	0	0			0	0			1				0	
6.6.1	win	2023-06-02	06:25:48	06:31:30	336448	5dee72917309b950e5262f3a	3	1	main_slash	7	advance_on_keypress_SLASH	86	stimuli_target_trianglesquares.svg	stimuli_distractor_diamondtriangles.svg	22	yes	57	0	560	0	0			0	0			1				0	
6.6.1	win	2023-06-02	06:25:48	06:31:33	339640	5dee72917309b950e5262f3a	3	1	main_slash	7	main_slash	87	stimuli_distractor_diamondtriangles.svg	stimuli_distractor_trianglediamonds.svg	38	no	0	1	2000	0	0			0	0			1				0	
6.6.1	win	2023-06-02	06:25:48	06:31:33	339640	5dee72917309b950e5262f3a	3	1	main_slash	7	advance_on_keypress_SLASH	88	stimuli_distractor_diamondtriangles.svg	stimuli_distractor_trianglediamonds.svg	38	no	57	0	505	0	0			0	0			1				0	
6.6.1	win	2023-06-02	06:25:48	06:31:35	341752	5dee72917309b950e5262f3a	3	1	main_slash	7	main_slash	89	stimuli_distractor_trianglediamonds.svg	stimuli_target_squarediamonds.svg	12	yes	53	1	962	0	0			0	0			1				0	
6.6.1	win	2023-06-02	06:25:48	06:31:35	341752	5dee72917309b950e5262f3a	3	1	main_slash	7	advance_on_keypress_SLASH	90	stimuli_distractor_trianglediamonds.svg	stimuli_target_squarediamonds.svg	12	yes	57	0	756	0	0			0	0			1				0	
6.6.1	win	2023-06-02	06:25:48	06:31:37	344103	5dee72917309b950e5262f3a	3	1	main_slash	7	main_slash	91	stimuli_distractor_diamondtriangles.svg	stimuli_target_diamondsquares.svg	32	yes	53	1	946	0	0			0	0			1				0	
6.6.1	win	2023-06-02	06:25:48	06:31:37	344103	5dee72917309b950e5262f3a	3	1	main_slash	7	advance_on_keypress_SLASH	92	stimuli_distractor_diamondtriangles.svg	stimuli_target_diamondsquares.svg	32	yes	57	0	919	0	0			0	0			1				0	
6.6.1	win	2023-06-02	06:25:48	06:31:40	346602	5dee72917309b950e5262f3a	3	1	main_slash	7	main_slash	93	stimuli_distractor_diamondtriangles.svg	stimuli_target_diamondrectangles.svg	31	yes	53	1	928	0	0			0	0			1				0	
6.6.1	win	2023-06-02	06:25:48	06:31:40	346602	5dee72917309b950e5262f3a	3	1	main_slash	7	advance_on_keypress_SLASH	94	stimuli_distractor_diamondtriangles.svg	stimuli_target_diamondrectangles.svg	31	yes	57	0	551	0	0			0	0			1				0	
6.6.1	win	2023-06-02	06:25:48	06:31:43	349805	5dee72917309b950e5262f3a	3	1	main_slash	7	main_slash	95	stimuli_distractor_diamondtriangles.svg	stimuli_target_rectangletriangles.svg	13	yes	0	0	2000	0	0			0	0			1				0	
6.6.1	win	2023-06-02	06:25:48	06:31:43	349805	5dee72917309b950e5262f3a	3	1	main_slash	7	advance_on_keypress_SLASH	96	stimuli_distractor_diamondtriangles.svg	stimuli_target_rectangletriangles.svg	13	yes	57	0	659	0	0			0	0			1				0	
6.6.1	win	2023-06-02	06:25:48	06:31:45	351880	5dee72917309b950e5262f3a	3	1	main_slash	7	main_slash	97	stimuli_target_squaretriangles.svg	stimuli_distractor_diamondtriangles.svg	7	yes	53	1	776	0	0			0	0			1				0	
6.6.1	win	2023-06-02	06:25:48	06:31:45	351880	5dee72917309b950e5262f3a	3	1	main_slash	7	advance_on_keypress_SLASH	98	stimuli_target_squaretriangles.svg	stimuli_distractor_diamondtriangles.svg	7	yes	57	0	865	0	0			0	0			1				0	
6.6.1	win	2023-06-02	06:25:48	06:31:48	354695	5dee72917309b950e5262f3a	3	1	main_slash	7	main_slash	99	stimuli_distractor_diamondtriangles.svg	stimuli_target_squarediamonds.svg	16	yes	53	1	1308	0	0			0	0			1				0	
6.6.1	win	2023-06-02	06:25:48	06:31:48	354695	5dee72917309b950e5262f3a	3	1	main_slash	7	advance_on_keypress_SLASH	100	stimuli_distractor_diamondtriangles.svg	stimuli_target_squarediamonds.svg	16	yes	57	0	968	0	0			0	0			1				0	
6.6.1	win	2023-06-02	06:25:48	06:31:50	357319	5dee72917309b950e5262f3a	3	1	main_slash	7	main_slash	101	stimuli_target_rectangletriangles.svg	stimuli_distractor_trianglediamonds.svg	1	yes	53	1	1015	0	0			0	0			1				0	
6.6.1	win	2023-06-02	06:25:48	06:31:50	357319	5dee72917309b950e5262f3a	3	1	main_slash	7	advance_on_keypress_SLASH	102	stimuli_target_rectangletriangles.svg	stimuli_distractor_trianglediamonds.svg	1	yes	57	0	712	0	0			0	0			1				0	
6.6.1	win	2023-06-02	06:25:48	06:31:53	359637	5dee72917309b950e5262f3a	3	1	main_slash	7	main_slash	103	stimuli_target_squaretriangles.svg	stimuli_distractor_trianglediamonds.svg	3	yes	53	1	951	0	0			0	0			1				0	
6.6.1	win	2023-06-02	06:25:48	06:31:53	359637	5dee72917309b950e5262f3a	3	1	main_slash	7	advance_on_keypress_SLASH	104	stimuli_target_squaretriangles.svg	stimuli_distractor_trianglediamonds.svg	3	yes	57	0	1200	0	0			0	0			1				0	
6.6.1	win	2023-06-02	06:25:48	06:31:55	362365	5dee72917309b950e5262f3a	3	1	main_slash	7	main_slash	105	stimuli_target_squarediamonds.svg	stimuli_distractor_diamondtriangles.svg	8	yes	53	1	877	0	0			0	0			1				0	
6.6.1	win	2023-06-02	06:25:48	06:31:55	362365	5dee72917309b950e5262f3a	3	1	main_slash	7	advance_on_keypress_SLASH	106	stimuli_target_squarediamonds.svg	stimuli_distractor_diamondtriangles.svg	8	yes	57	0	519	0	0			0	0			1				0	
6.6.1	win	2023-06-02	06:25:48	06:31:59	365535	5dee72917309b950e5262f3a	3	1	main_slash	7	main_slash	107	stimuli_distractor_diamondtriangles.svg	stimuli_distractor_diamondtriangles.svg	40	no	0	1	2000	0	0			0	0			1				0	
6.6.1	win	2023-06-02	06:25:48	06:31:59	365535	5dee72917309b950e5262f3a	3	1	main_slash	7	advance_on_keypress_SLASH	108	stimuli_distractor_diamondtriangles.svg	stimuli_distractor_diamondtriangles.svg	40	no	57	0	373	0	0			0	0			1				0	
6.6.1	win	2023-06-02	06:25:48	06:32:00	367269	5dee72917309b950e5262f3a	3	1	main_slash	7	main_slash	109	stimuli_target_rectangletriangles.svg	stimuli_distractor_diamondtriangles.svg	5	yes	53	1	717	0	0			0	0			1				0	
6.6.1	win	2023-06-02	06:25:48	06:32:00	367269	5dee72917309b950e5262f3a	3	1	main_slash	7	advance_on_keypress_SLASH	110	stimuli_target_rectangletriangles.svg	stimuli_distractor_diamondtriangles.svg	5	yes	57	0	615	0	0			0	0			1				0	
6.6.1	win	2023-06-02	06:25:48	06:32:03	369463	5dee72917309b950e5262f3a	3	1	main_slash	7	main_slash	111	stimuli_distractor_trianglediamonds.svg	stimuli_target_trianglerectangles.svg	25	yes	53	1	929	0	0			0	0			1				0	
6.6.1	win	2023-06-02	06:25:48	06:32:03	369463	5dee72917309b950e5262f3a	3	1	main_slash	7	advance_on_keypress_SLASH	112	stimuli_distractor_trianglediamonds.svg	stimuli_target_trianglerectangles.svg	25	yes	57	0	555	0	0			0	0			1				0	
6.6.1	win	2023-06-02	06:25:48	06:32:05	371607	5dee72917309b950e5262f3a	3	1	main_slash	7	main_slash	113	stimuli_target_diamondsquares.svg	stimuli_distractor_trianglediamonds.svg	20	yes	53	1	940	0	0			0	0			1				0	
6.6.1	win	2023-06-02	06:25:48	06:32:05	371607	5dee72917309b950e5262f3a	3	1	main_slash	7	advance_on_keypress_SLASH	114	stimuli_target_diamondsquares.svg	stimuli_distractor_trianglediamonds.svg	20	yes	57	0	1245	0	0			0	0			1				0	
6.6.1	win	2023-06-02	06:25:48	06:32:09	375500	5dee72917309b950e5262f3a	3	1	main_slash	7	main_slash	115	stimuli_distractor_trianglediamonds.svg	stimuli_distractor_diamondtriangles.svg	35	no	0	1	2000	0	0			0	0			1				0	
6.6.1	win	2023-06-02	06:25:48	06:32:09	375500	5dee72917309b950e5262f3a	3	1	main_slash	7	advance_on_keypress_SLASH	116	stimuli_distractor_trianglediamonds.svg	stimuli_distractor_diamondtriangles.svg	35	no	57	0	421	0	0			0	0			1				0	
6.6.1	win	2023-06-02	06:25:48	06:32:12	378570	5dee72917309b950e5262f3a	3	1	main_slash	7	main_slash	117	stimuli_distractor_diamondtriangles.svg	stimuli_target_squaretriangles.svg	15	yes	0	0	2000	0	0			0	0			1				0	
6.6.1	win	2023-06-02	06:25:48	06:32:12	378570	5dee72917309b950e5262f3a	3	1	main_slash	7	advance_on_keypress_SLASH	118	stimuli_distractor_diamondtriangles.svg	stimuli_target_squaretriangles.svg	15	yes	57	0	325	0	0			0	0			1				0	
6.6.1	win	2023-06-02	06:25:48	06:32:14	380581	5dee72917309b950e5262f3a	3	1	main_slash	7	main_slash	119	stimuli_target_diamondrectangles.svg	stimuli_distractor_diamondtriangles.svg	23	yes	53	1	1047	0	0			0	0			1				0	
6.6.1	win	2023-06-02	06:25:48	06:32:14	380581	5dee72917309b950e5262f3a	3	1	main_slash	7	advance_on_keypress_SLASH	120	stimuli_target_diamondrectangles.svg	stimuli_distractor_diamondtriangles.svg	23	yes	57	0	803	0	0			0	0			1				0	
6.6.1	win	2023-06-02	06:25:48	06:32:16	383075	5dee72917309b950e5262f3a	3	1	main_slash	7	main_slash	121	stimuli_target_rectanglediamonds.svg	stimuli_distractor_trianglediamonds.svg	2	yes	53	1	1043	0	0			0	0			1				0	
6.6.1	win	2023-06-02	06:25:48	06:32:16	383075	5dee72917309b950e5262f3a	3	1	main_slash	7	advance_on_keypress_SLASH	122	stimuli_target_rectanglediamonds.svg	stimuli_distractor_trianglediamonds.svg	2	yes	57	0	1305	0	0			0	0			1				0	
6.6.1	win	2023-06-02	06:25:48	06:32:19	386039	5dee72917309b950e5262f3a	3	1	main_slash	7	main_slash	123	stimuli_target_trianglesquares.svg	stimuli_distractor_trianglediamonds.svg	18	yes	53	1	1024	0	0			0	0			1				0	
6.6.1	win	2023-06-02	06:25:48	06:32:19	386039	5dee72917309b950e5262f3a	3	1	main_slash	7	advance_on_keypress_SLASH	124	stimuli_target_trianglesquares.svg	stimuli_distractor_trianglediamonds.svg	18	yes	57	0	545	0	0			0	0			1				0	
6.6.1	win	2023-06-02	06:25:48	06:32:21	388277	5dee72917309b950e5262f3a	3	1	main_slash	7	main_slash	125	stimuli_target_diamondsquares.svg	stimuli_distractor_diamondtriangles.svg	24	yes	53	1	1046	0	0			0	0			1				0	
6.6.1	win	2023-06-02	06:25:48	06:32:21	388277	5dee72917309b950e5262f3a	3	1	main_slash	7	advance_on_keypress_SLASH	126	stimuli_target_diamondsquares.svg	stimuli_distractor_diamondtriangles.svg	24	yes	57	0	626	0	0			0	0			1				0	
6.6.1	win	2023-06-02	06:25:48	06:32:24	390555	5dee72917309b950e5262f3a	3	1	main_slash	7	main_slash	127	stimuli_target_squarediamonds.svg	stimuli_distractor_trianglediamonds.svg	4	yes	53	1	1008	0	0			0	0			1				0	
6.6.1	win	2023-06-02	06:25:48	06:32:24	390555	5dee72917309b950e5262f3a	3	1	main_slash	7	advance_on_keypress_SLASH	128	stimuli_target_squarediamonds.svg	stimuli_distractor_trianglediamonds.svg	4	yes	57	0	603	0	0			0	0			1				0	
6.6.1	win	2023-06-02	06:25:48	06:32:27	393796	5dee72917309b950e5262f3a	3	1	main_slash	7	main_slash	129	stimuli_distractor_diamondtriangles.svg	stimuli_distractor_diamondtriangles.svg	39	no	0	1	2000	0	0			0	0			1				0	
6.6.1	win	2023-06-02	06:25:48	06:32:27	393796	5dee72917309b950e5262f3a	3	1	main_slash	7	advance_on_keypress_SLASH	130	stimuli_distractor_diamondtriangles.svg	stimuli_distractor_diamondtriangles.svg	39	no	57	0	440	0	0			0	0			1				0	
6.6.1	win	2023-06-02	06:25:48	06:32:29	395513	5dee72917309b950e5262f3a	3	1	main_slash	7	main_slash	131	stimuli_distractor_diamondtriangles.svg	stimuli_target_trianglesquares.svg	30	yes	53	1	634	0	0			0	0			1				0	
6.6.1	win	2023-06-02	06:25:48	06:32:29	395513	5dee72917309b950e5262f3a	3	1	main_slash	7	advance_on_keypress_SLASH	132	stimuli_distractor_diamondtriangles.svg	stimuli_target_trianglesquares.svg	30	yes	57	0	495	0	0			0	0			1				0	
6.6.1	win	2023-06-02	06:25:48	06:32:30	397287	5dee72917309b950e5262f3a	3	1	main_slash	7	main_slash	133	stimuli_target_diamondrectangles.svg	stimuli_distractor_trianglediamonds.svg	19	yes	53	1	624	0	0			0	0			1				0	
6.6.1	win	2023-06-02	06:25:48	06:32:30	397287	5dee72917309b950e5262f3a	3	1	main_slash	7	advance_on_keypress_SLASH	134	stimuli_target_diamondrectangles.svg	stimuli_distractor_trianglediamonds.svg	19	yes	57	0	441	0	0			0	0			1				0	
6.6.1	win	2023-06-02	06:25:48	06:32:32	398920	5dee72917309b950e5262f3a	3	1	main_slash	7	main_slash	135	stimuli_distractor_trianglediamonds.svg	stimuli_target_diamondrectangles.svg	27	yes	53	1	558	0	0			0	0			1				0	
6.6.1	win	2023-06-02	06:25:48	06:32:32	398920	5dee72917309b950e5262f3a	3	1	main_slash	7	advance_on_keypress_SLASH	136	stimuli_distractor_trianglediamonds.svg	stimuli_target_diamondrectangles.svg	27	yes	57	0	465	0	0			0	0			1				0	
6.6.1	win	2023-06-02	06:25:48	06:32:35	402028	5dee72917309b950e5262f3a	3	1	main_slash	7	main_slash	137	stimuli_distractor_diamondtriangles.svg	stimuli_distractor_trianglediamonds.svg	37	no	0	1	2000	0	0			0	0			1				0	
6.6.1	win	2023-06-02	06:25:48	06:32:35	402028	5dee72917309b950e5262f3a	3	1	main_slash	7	advance_on_keypress_SLASH	138	stimuli_distractor_diamondtriangles.svg	stimuli_distractor_trianglediamonds.svg	37	no	57	0	291	0	0			0	0			1				0	
6.6.1	win	2023-06-02	06:25:48	06:32:37	403439	5dee72917309b950e5262f3a	3	1	main_slash	7	main_slash	139	stimuli_distractor_trianglediamonds.svg	stimuli_target_diamondsquares.svg	28	yes	53	1	478	0	0			0	0			1				0	
6.6.1	win	2023-06-02	06:25:48	06:32:37	403439	5dee72917309b950e5262f3a	3	1	main_slash	7	advance_on_keypress_SLASH	140	stimuli_distractor_trianglediamonds.svg	stimuli_target_diamondsquares.svg	28	yes	57	0	391	0	0			0	0			1				0	
6.6.1	win	2023-06-02	06:25:48	06:32:40	406478	5dee72917309b950e5262f3a	3	1	main_slash	7	main_slash	141	stimuli_distractor_trianglediamonds.svg	stimuli_distractor_trianglediamonds.svg	34	no	0	1	2000	0	0			0	0			1				0	
6.6.1	win	2023-06-02	06:25:48	06:32:40	406478	5dee72917309b950e5262f3a	3	1	main_slash	7	advance_on_keypress_SLASH	142	stimuli_distractor_trianglediamonds.svg	stimuli_distractor_trianglediamonds.svg	34	no	57	0	370	0	0			0	0			1				0	
6.6.1	win	2023-06-02	06:25:48	06:32:41	408031	5dee72917309b950e5262f3a	3	1	main_slash	7	main_slash	143	stimuli_distractor_diamondtriangles.svg	stimuli_target_trianglerectangles.svg	29	yes	53	1	538	0	0			0	0			1				0	
6.6.1	win	2023-06-02	06:25:48	06:32:41	408031	5dee72917309b950e5262f3a	3	1	main_slash	7	advance_on_keypress_SLASH	144	stimuli_distractor_diamondtriangles.svg	stimuli_target_trianglerectangles.svg	29	yes	57	0	1124	0	0			0	0			1				0	
6.6.1	win	2023-06-02	06:25:48	06:32:44	410422	5dee72917309b950e5262f3a	3	1	main_slash	7	main_slash	145	stimuli_target_rectanglediamonds.svg	stimuli_distractor_diamondtriangles.svg	6	yes	53	1	629	0	0			0	0			1				0	
6.6.1	win	2023-06-02	06:25:48	06:32:44	410422	5dee72917309b950e5262f3a	3	1	main_slash	7	advance_on_keypress_SLASH	146	stimuli_target_rectanglediamonds.svg	stimuli_distractor_diamondtriangles.svg	6	yes	57	0	577	0	0			0	0			1				0	
6.6.1	win	2023-06-02	06:25:48	06:32:45	412211	5dee72917309b950e5262f3a	3	1	main_slash	7	main_slash	147	stimuli_distractor_trianglediamonds.svg	stimuli_target_trianglesquares.svg	26	yes	53	1	568	0	0			0	0			1				0	
6.6.1	win	2023-06-02	06:25:48	06:32:45	412211	5dee72917309b950e5262f3a	3	1	main_slash	7	advance_on_keypress_SLASH	148	stimuli_distractor_trianglediamonds.svg	stimuli_target_trianglesquares.svg	26	yes	57	0	426	0	0			0	0			1				0	
6.6.1	win	2023-06-02	06:25:48	06:32:47	414028	5dee72917309b950e5262f3a	3	1	main_slash	7	main_slash	149	stimuli_distractor_trianglediamonds.svg	stimuli_target_rectanglediamonds.svg	10	yes	53	1	751	0	0			0	0			1				0	
6.6.1	win	2023-06-02	06:25:48	06:32:47	414028	5dee72917309b950e5262f3a	3	1	main_slash	7	advance_on_keypress_SLASH	150	stimuli_distractor_trianglediamonds.svg	stimuli_target_rectanglediamonds.svg	10	yes	57	0	474	0	0			0	0			1				0	
6.6.1	win	2023-06-02	06:25:48	06:32:49	415900	5dee72917309b950e5262f3a	3	1	main_slash	7	main_slash	151	stimuli_target_trianglerectangles.svg	stimuli_distractor_diamondtriangles.svg	21	yes	53	1	758	0	0			0	0			1				0	
6.6.1	win	2023-06-02	06:25:48	06:32:49	415900	5dee72917309b950e5262f3a	3	1	main_slash	7	advance_on_keypress_SLASH	152	stimuli_target_trianglerectangles.svg	stimuli_distractor_diamondtriangles.svg	21	yes	57	0	512	0	0			0	0			1				0	
6.6.1	win	2023-06-02	06:25:48	06:32:51	417884	5dee72917309b950e5262f3a	3	1	main_slash	7	main_slash	153	stimuli_distractor_trianglediamonds.svg	stimuli_target_squaretriangles.svg	11	yes	53	1	825	0	0			0	0			1				0	
6.6.1	win	2023-06-02	06:25:48	06:32:51	417884	5dee72917309b950e5262f3a	3	1	main_slash	7	advance_on_keypress_SLASH	154	stimuli_distractor_trianglediamonds.svg	stimuli_target_squaretriangles.svg	11	yes	57	0	379	0	0			0	0			1				0	
6.6.1	win	2023-06-02	06:25:48	06:32:53	419520	5dee72917309b950e5262f3a	3	1	main_slash	7	main_slash	155	stimuli_target_trianglerectangles.svg	stimuli_distractor_trianglediamonds.svg	17	yes	53	1	612	0	0			0	0			1				0	
6.6.1	win	2023-06-02	06:25:48	06:32:53	419520	5dee72917309b950e5262f3a	3	1	main_slash	7	advance_on_keypress_SLASH	156	stimuli_target_trianglerectangles.svg	stimuli_distractor_trianglediamonds.svg	17	yes	57	0	412	0	0			0	0			1				0	
6.6.1	win	2023-06-02	06:25:48	06:32:56	422591	5dee72917309b950e5262f3a	3	1	main_slash	7	main_slash	157	stimuli_distractor_trianglediamonds.svg	stimuli_distractor_diamondtriangles.svg	36	no	0	1	2000	0	0			0	0			1				0	
6.6.1	win	2023-06-02	06:25:48	06:32:56	422591	5dee72917309b950e5262f3a	3	1	main_slash	7	advance_on_keypress_SLASH	158	stimuli_distractor_trianglediamonds.svg	stimuli_distractor_diamondtriangles.svg	36	no	57	0	383	0	0			0	0			1				0	
6.6.1	win	2023-06-02	06:25:48	06:32:57	424292	5dee72917309b950e5262f3a	3	1	main_slash	7	main_slash	159	stimuli_distractor_trianglediamonds.svg	stimuli_target_rectangletriangles.svg	9	yes	53	1	668	0	0			0	0			1				0	
6.6.1	win	2023-06-02	06:25:48	06:32:57	424292	5dee72917309b950e5262f3a	3	1	main_slash	7	advance_on_keypress_SLASH	160	stimuli_distractor_trianglediamonds.svg	stimuli_target_rectangletriangles.svg	9	yes	57	0	417	0	0			0	0			1				0	
6.6.1	win	2023-06-02	06:25:48	06:33:34	461157	5dee72917309b950e5262f3a	3	1	practice_z	9	practice_z	1	stimuli_distractor_diamondtriangles.svg	stimuli_distractor_trianglediamonds.svg	14	no	44	0	856	0	0			0	0			1				0	
6.6.1	win	2023-06-02	06:25:48	06:33:34	461157	5dee72917309b950e5262f3a	3	1	practice_z	9	advance_on_keypress_ZEE	2	stimuli_distractor_diamondtriangles.svg	stimuli_distractor_trianglediamonds.svg	14	no	57	0	399	0	0			0	0			1				0	
6.6.1	win	2023-06-02	06:25:48	06:33:38	465201	5dee72917309b950e5262f3a	3	1	practice_z	9	practice_z	3	stimuli_distractor_trianglediamonds.svg	stimuli_distractor_trianglediamonds.svg	15	no	0	1	2000	0	0			0	0			1				0	
6.6.1	win	2023-06-02	06:25:48	06:33:38	465201	5dee72917309b950e5262f3a	3	1	practice_z	9	advance_on_keypress_ZEE	4	stimuli_distractor_trianglediamonds.svg	stimuli_distractor_trianglediamonds.svg	15	no	57	0	395	0	0			0	0			1				0	
6.6.1	win	2023-06-02	06:25:48	06:33:42	469250	5dee72917309b950e5262f3a	3	1	practice_z	9	practice_z	5	stimuli_distractor_diamondtriangles.svg	stimuli_distractor_diamondtriangles.svg	13	no	0	1	2000	0	0			0	0			1				0	
6.6.1	win	2023-06-02	06:25:48	06:33:42	469250	5dee72917309b950e5262f3a	3	1	practice_z	9	advance_on_keypress_ZEE	6	stimuli_distractor_diamondtriangles.svg	stimuli_distractor_diamondtriangles.svg	13	no	57	0	384	0	0			0	0			1				0	
6.6.1	win	2023-06-02	06:25:48	06:33:45	471982	5dee72917309b950e5262f3a	3	1	practice_z	9	practice_z	7	stimuli_target_squarediamonds.svg	stimuli_distractor_diamondtriangles.svg	2	yes	44	1	700	0	0			0	0			1				0	
6.6.1	win	2023-06-02	06:25:48	06:33:45	471982	5dee72917309b950e5262f3a	3	1	practice_z	9	advance_on_keypress_ZEE	8	stimuli_target_squarediamonds.svg	stimuli_distractor_diamondtriangles.svg	2	yes	57	0	954	0	0			0	0			1				0	
6.6.1	win	2023-06-02	06:25:48	06:33:49	475431	5dee72917309b950e5262f3a	3	1	practice_z	9	practice_z	9	stimuli_distractor_diamondtriangles.svg	stimuli_target_diamondrectangles.svg	8	yes	44	1	848	0	0			0	0			1				0	
6.6.1	win	2023-06-02	06:25:48	06:33:49	475431	5dee72917309b950e5262f3a	3	1	practice_z	9	advance_on_keypress_ZEE	10	stimuli_distractor_diamondtriangles.svg	stimuli_target_diamondrectangles.svg	8	yes	57	0	325	0	0			0	0			1				0	
6.6.1	win	2023-06-02	06:25:48	06:33:51	478275	5dee72917309b950e5262f3a	3	1	practice_z	9	practice_z	11	stimuli_distractor_diamondtriangles.svg	stimuli_target_trianglerectangles.svg	9	yes	44	1	876	0	0			0	0			1				0	
6.6.1	win	2023-06-02	06:25:48	06:33:51	478275	5dee72917309b950e5262f3a	3	1	practice_z	9	advance_on_keypress_ZEE	12	stimuli_distractor_diamondtriangles.svg	stimuli_target_trianglerectangles.svg	9	yes	57	0	886	0	0			0	0			1				0	
6.6.1	win	2023-06-02	06:25:48	06:33:55	481497	5dee72917309b950e5262f3a	3	1	practice_z	9	practice_z	13	stimuli_distractor_trianglediamonds.svg	stimuli_target_diamondrectangles.svg	12	yes	44	1	682	0	0			0	0			1				0	
6.6.1	win	2023-06-02	06:25:48	06:33:55	481497	5dee72917309b950e5262f3a	3	1	practice_z	9	advance_on_keypress_ZEE	14	stimuli_distractor_trianglediamonds.svg	stimuli_target_diamondrectangles.svg	12	yes	57	0	331	0	0			0	0			1				0	
6.6.1	win	2023-06-02	06:25:48	06:33:57	484202	5dee72917309b950e5262f3a	3	1	practice_z	9	practice_z	15	stimuli_distractor_trianglediamonds.svg	stimuli_target_rectanglediamonds.svg	10	yes	44	1	722	0	0			0	0			1				0	
6.6.1	win	2023-06-02	06:25:48	06:33:57	484202	5dee72917309b950e5262f3a	3	1	practice_z	9	advance_on_keypress_ZEE	16	stimuli_distractor_trianglediamonds.svg	stimuli_target_rectanglediamonds.svg	10	yes	57	0	53	0	0			0	0			1				0	
6.6.1	win	2023-06-02	06:25:48	06:34:00	486742	5dee72917309b950e5262f3a	3	1	practice_z	9	practice_z	17	stimuli_distractor_diamondtriangles.svg	stimuli_target_rectangletriangles.svg	7	yes	44	1	846	0	0			0	0			1				0	
6.6.1	win	2023-06-02	06:25:48	06:34:00	486742	5dee72917309b950e5262f3a	3	1	practice_z	9	advance_on_keypress_ZEE	18	stimuli_distractor_diamondtriangles.svg	stimuli_target_rectangletriangles.svg	7	yes	57	0	342	0	0			0	0			1				0	
6.6.1	win	2023-06-02	06:25:48	06:34:02	489391	5dee72917309b950e5262f3a	3	1	practice_z	9	practice_z	19	stimuli_distractor_trianglediamonds.svg	stimuli_target_squarediamonds.svg	11	yes	44	1	661	0	0			0	0			1				0	
6.6.1	win	2023-06-02	06:25:48	06:34:02	489391	5dee72917309b950e5262f3a	3	1	practice_z	9	advance_on_keypress_ZEE	20	stimuli_distractor_trianglediamonds.svg	stimuli_target_squarediamonds.svg	11	yes	57	0	279	0	0			0	0			1				0	
6.6.1	win	2023-06-02	06:25:48	06:34:05	492034	5dee72917309b950e5262f3a	3	1	practice_z	9	practice_z	21	stimuli_target_diamondsquares.svg	stimuli_distractor_diamondtriangles.svg	3	yes	44	1	704	0	0			0	0			1				0	
6.6.1	win	2023-06-02	06:25:48	06:34:05	492034	5dee72917309b950e5262f3a	3	1	practice_z	9	advance_on_keypress_ZEE	22	stimuli_target_diamondsquares.svg	stimuli_distractor_diamondtriangles.svg	3	yes	57	0	284	0	0			0	0			1				0	
6.6.1	win	2023-06-02	06:25:48	06:34:08	494564	5dee72917309b950e5262f3a	3	1	practice_z	9	practice_z	23	stimuli_target_squarediamonds.svg	stimuli_distractor_trianglediamonds.svg	5	yes	44	1	602	0	0			0	0			1				0	
6.6.1	win	2023-06-02	06:25:48	06:34:08	494564	5dee72917309b950e5262f3a	3	1	practice_z	9	advance_on_keypress_ZEE	24	stimuli_target_squarediamonds.svg	stimuli_distractor_trianglediamonds.svg	5	yes	57	0	151	0	0			0	0			1				0	
6.6.1	win	2023-06-02	06:25:48	06:34:10	496949	5dee72917309b950e5262f3a	3	1	practice_z	9	practice_z	25	stimuli_target_rectanglediamonds.svg	stimuli_distractor_diamondtriangles.svg	1	yes	44	1	588	0	0			0	0			1				0	
6.6.1	win	2023-06-02	06:25:48	06:34:10	496949	5dee72917309b950e5262f3a	3	1	practice_z	9	advance_on_keypress_ZEE	26	stimuli_target_rectanglediamonds.svg	stimuli_distractor_diamondtriangles.svg	1	yes	57	0	387	0	0			0	0			1				0	
6.6.1	win	2023-06-02	06:25:48	06:34:14	500977	5dee72917309b950e5262f3a	3	1	practice_z	9	practice_z	27	stimuli_distractor_trianglediamonds.svg	stimuli_distractor_diamondtriangles.svg	16	no	0	1	2000	0	0			0	0			1				0	
6.6.1	win	2023-06-02	06:25:48	06:34:14	500977	5dee72917309b950e5262f3a	3	1	practice_z	9	advance_on_keypress_ZEE	28	stimuli_distractor_trianglediamonds.svg	stimuli_distractor_diamondtriangles.svg	16	no	57	0	411	0	0			0	0			1				0	
6.6.1	win	2023-06-02	06:25:48	06:34:17	503699	5dee72917309b950e5262f3a	3	1	practice_z	9	practice_z	29	stimuli_target_diamondsquares.svg	stimuli_distractor_trianglediamonds.svg	6	yes	44	1	655	0	0			0	0			1				0	
6.6.1	win	2023-06-02	06:25:48	06:34:17	503699	5dee72917309b950e5262f3a	3	1	practice_z	9	advance_on_keypress_ZEE	30	stimuli_target_diamondsquares.svg	stimuli_distractor_trianglediamonds.svg	6	yes	57	0	544	0	0			0	0			1				0	
6.6.1	win	2023-06-02	06:25:48	06:34:20	506490	5dee72917309b950e5262f3a	3	1	practice_z	9	practice_z	31	stimuli_target_rectanglediamonds.svg	stimuli_distractor_trianglediamonds.svg	4	yes	44	1	597	0	0			0	0			1				0	
6.6.1	win	2023-06-02	06:25:48	06:34:20	506490	5dee72917309b950e5262f3a	3	1	practice_z	9	advance_on_keypress_ZEE	32	stimuli_target_rectanglediamonds.svg	stimuli_distractor_trianglediamonds.svg	4	yes	57	0	295	0	0			0	0			1				0	
6.6.1	win	2023-06-02	06:25:48	06:34:25	512124	5dee72917309b950e5262f3a	3	1	main_z	11	main_z	1	stimuli_distractor_diamondtriangles.svg	stimuli_distractor_trianglediamonds.svg	37	no	0	1	2000	0	0			0	0			1				0	
6.6.1	win	2023-06-02	06:25:48	06:34:25	512124	5dee72917309b950e5262f3a	3	1	main_z	11	advance_on_keypress_ZEE	2	stimuli_distractor_diamondtriangles.svg	stimuli_distractor_trianglediamonds.svg	37	no	57	0	968	0	0			0	0			1				0	
6.6.1	win	2023-06-02	06:25:48	06:34:27	514334	5dee72917309b950e5262f3a	3	1	main_z	11	main_z	3	stimuli_target_rectangletriangles.svg	stimuli_distractor_trianglediamonds.svg	1	yes	44	1	594	0	0			0	0			1				0	
6.6.1	win	2023-06-02	06:25:48	06:34:27	514334	5dee72917309b950e5262f3a	3	1	main_z	11	advance_on_keypress_ZEE	4	stimuli_target_rectangletriangles.svg	stimuli_distractor_trianglediamonds.svg	1	yes	57	0	687	0	0			0	0			1				0	
6.6.1	win	2023-06-02	06:25:48	06:34:30	516519	5dee72917309b950e5262f3a	3	1	main_z	11	main_z	5	stimuli_distractor_diamondtriangles.svg	stimuli_target_trianglerectangles.svg	29	yes	44	1	847	0	0			0	0			1				0	
6.6.1	win	2023-06-02	06:25:48	06:34:30	516519	5dee72917309b950e5262f3a	3	1	main_z	11	advance_on_keypress_ZEE	6	stimuli_distractor_diamondtriangles.svg	stimuli_target_trianglerectangles.svg	29	yes	57	0	520	0	0			0	0			1				0	
6.6.1	win	2023-06-02	06:25:48	06:34:31	518290	5dee72917309b950e5262f3a	3	1	main_z	11	main_z	7	stimuli_target_squarediamonds.svg	stimuli_distractor_diamondtriangles.svg	8	yes	44	1	601	0	0			0	0			1				0	
6.6.1	win	2023-06-02	06:25:48	06:34:31	518290	5dee72917309b950e5262f3a	3	1	main_z	11	advance_on_keypress_ZEE	8	stimuli_target_squarediamonds.svg	stimuli_distractor_diamondtriangles.svg	8	yes	57	0	677	0	0			0	0			1				0	
6.6.1	win	2023-06-02	06:25:48	06:34:33	520223	5dee72917309b950e5262f3a	3	1	main_z	11	main_z	9	stimuli_distractor_diamondtriangles.svg	stimuli_target_rectanglediamonds.svg	14	yes	44	1	618	0	0			0	0			1				0	
6.6.1	win	2023-06-02	06:25:48	06:34:33	520223	5dee72917309b950e5262f3a	3	1	main_z	11	advance_on_keypress_ZEE	10	stimuli_distractor_diamondtriangles.svg	stimuli_target_rectanglediamonds.svg	14	yes	57	0	439	0	0			0	0			1				0	
6.6.1	win	2023-06-02	06:25:48	06:34:35	521854	5dee72917309b950e5262f3a	3	1	main_z	11	main_z	11	stimuli_target_rectangletriangles.svg	stimuli_distractor_diamondtriangles.svg	5	yes	44	1	549	0	0			0	0			1				0	
6.6.1	win	2023-06-02	06:25:48	06:34:35	521854	5dee72917309b950e5262f3a	3	1	main_z	11	advance_on_keypress_ZEE	12	stimuli_target_rectangletriangles.svg	stimuli_distractor_diamondtriangles.svg	5	yes	57	0	469	0	0			0	0			1				0	
6.6.1	win	2023-06-02	06:25:48	06:34:37	523642	5dee72917309b950e5262f3a	3	1	main_z	11	main_z	13	stimuli_target_trianglesquares.svg	stimuli_distractor_diamondtriangles.svg	22	yes	44	1	671	0	0			0	0			1				0	
6.6.1	win	2023-06-02	06:25:48	06:34:37	523642	5dee72917309b950e5262f3a	3	1	main_z	11	advance_on_keypress_ZEE	14	stimuli_target_trianglesquares.svg	stimuli_distractor_diamondtriangles.svg	22	yes	57	0	332	0	0			0	0			1				0	
6.6.1	win	2023-06-02	06:25:48	06:34:38	525182	5dee72917309b950e5262f3a	3	1	main_z	11	main_z	15	stimuli_target_diamondsquares.svg	stimuli_distractor_trianglediamonds.svg	20	yes	44	1	561	0	0			0	0			1				0	
6.6.1	win	2023-06-02	06:25:48	06:34:38	525182	5dee72917309b950e5262f3a	3	1	main_z	11	advance_on_keypress_ZEE	16	stimuli_target_diamondsquares.svg	stimuli_distractor_trianglediamonds.svg	20	yes	57	0	331	0	0			0	0			1				0	
6.6.1	win	2023-06-02	06:25:48	06:34:40	527082	5dee72917309b950e5262f3a	3	1	main_z	11	main_z	17	stimuli_target_trianglerectangles.svg	stimuli_distractor_trianglediamonds.svg	17	yes	44	1	911	0	0			0	0			1				0	
6.6.1	win	2023-06-02	06:25:48	06:34:40	527082	5dee72917309b950e5262f3a	3	1	main_z	11	advance_on_keypress_ZEE	18	stimuli_target_trianglerectangles.svg	stimuli_distractor_trianglediamonds.svg	17	yes	57	0	314	0	0			0	0			1				0	
6.6.1	win	2023-06-02	06:25:48	06:34:43	530053	5dee72917309b950e5262f3a	3	1	main_z	11	main_z	19	stimuli_distractor_trianglediamonds.svg	stimuli_distractor_diamondtriangles.svg	35	no	0	1	2000	0	0			0	0			1				0	
6.6.1	win	2023-06-02	06:25:48	06:34:43	530053	5dee72917309b950e5262f3a	3	1	main_z	11	advance_on_keypress_ZEE	20	stimuli_distractor_trianglediamonds.svg	stimuli_distractor_diamondtriangles.svg	35	no	57	0	489	0	0			0	0			1				0	
6.6.1	win	2023-06-02	06:25:48	06:34:45	531938	5dee72917309b950e5262f3a	3	1	main_z	11	main_z	21	stimuli_distractor_trianglediamonds.svg	stimuli_target_rectangletriangles.svg	9	yes	44	1	752	0	0			0	0			1				0	
6.6.1	win	2023-06-02	06:25:48	06:34:45	531938	5dee72917309b950e5262f3a	3	1	main_z	11	advance_on_keypress_ZEE	22	stimuli_distractor_trianglediamonds.svg	stimuli_target_rectangletriangles.svg	9	yes	57	0	367	0	0			0	0			1				0	
6.6.1	win	2023-06-02	06:25:48	06:34:47	533535	5dee72917309b950e5262f3a	3	1	main_z	11	main_z	23	stimuli_target_rectanglediamonds.svg	stimuli_distractor_trianglediamonds.svg	2	yes	44	1	583	0	0			0	0			1				0	
6.6.1	win	2023-06-02	06:25:48	06:34:47	533535	5dee72917309b950e5262f3a	3	1	main_z	11	advance_on_keypress_ZEE	24	stimuli_target_rectanglediamonds.svg	stimuli_distractor_trianglediamonds.svg	2	yes	57	0	420	0	0			0	0			1				0	
6.6.1	win	2023-06-02	06:25:48	06:34:48	535244	5dee72917309b950e5262f3a	3	1	main_z	11	main_z	25	stimuli_distractor_diamondtriangles.svg	stimuli_target_diamondrectangles.svg	31	yes	44	1	642	0	0			0	0			1				0	
6.6.1	win	2023-06-02	06:25:48	06:34:48	535244	5dee72917309b950e5262f3a	3	1	main_z	11	advance_on_keypress_ZEE	26	stimuli_distractor_diamondtriangles.svg	stimuli_target_diamondrectangles.svg	31	yes	57	0	418	0	0			0	0			1				0	
6.6.1	win	2023-06-02	06:25:48	06:34:50	536817	5dee72917309b950e5262f3a	3	1	main_z	11	main_z	27	stimuli_distractor_diamondtriangles.svg	stimuli_target_diamondsquares.svg	32	yes	44	1	512	0	0			0	0			1				0	
6.6.1	win	2023-06-02	06:25:48	06:34:50	536817	5dee72917309b950e5262f3a	3	1	main_z	11	advance_on_keypress_ZEE	28	stimuli_distractor_diamondtriangles.svg	stimuli_target_diamondsquares.svg	32	yes	57	0	422	0	0			0	0			1				0	
6.6.1	win	2023-06-02	06:25:48	06:34:52	538464	5dee72917309b950e5262f3a	3	1	main_z	11	main_z	29	stimuli_target_rectanglediamonds.svg	stimuli_distractor_diamondtriangles.svg	6	yes	44	1	579	0	0			0	0			1				0	
6.6.1	win	2023-06-02	06:25:48	06:34:52	538464	5dee72917309b950e5262f3a	3	1	main_z	11	advance_on_keypress_ZEE	30	stimuli_target_rectanglediamonds.svg	stimuli_distractor_diamondtriangles.svg	6	yes	57	0	371	0	0			0	0			1				0	
6.6.1	win	2023-06-02	06:25:48	06:34:53	540050	5dee72917309b950e5262f3a	3	1	main_z	11	main_z	31	stimuli_distractor_trianglediamonds.svg	stimuli_target_diamondsquares.svg	28	yes	44	1	565	0	0			0	0			1				0	
6.6.1	win	2023-06-02	06:25:48	06:34:53	540050	5dee72917309b950e5262f3a	3	1	main_z	11	advance_on_keypress_ZEE	32	stimuli_distractor_trianglediamonds.svg	stimuli_target_diamondsquares.svg	28	yes	57	0	355	0	0			0	0			1				0	
6.6.1	win	2023-06-02	06:25:48	06:34:55	542184	5dee72917309b950e5262f3a	3	1	main_z	11	main_z	33	stimuli_distractor_diamondtriangles.svg	stimuli_target_squarediamonds.svg	16	yes	44	1	1116	0	0			0	0			1				0	
6.6.1	win	2023-06-02	06:25:48	06:34:55	542184	5dee72917309b950e5262f3a	3	1	main_z	11	advance_on_keypress_ZEE	34	stimuli_distractor_diamondtriangles.svg	stimuli_target_squarediamonds.svg	16	yes	57	0	406	0	0			0	0			1				0	
6.6.1	win	2023-06-02	06:25:48	06:34:58	545234	5dee72917309b950e5262f3a	3	1	main_z	11	main_z	35	stimuli_distractor_diamondtriangles.svg	stimuli_distractor_trianglediamonds.svg	38	no	0	1	2000	0	0			0	0			1				0	
6.6.1	win	2023-06-02	06:25:48	06:34:58	545234	5dee72917309b950e5262f3a	3	1	main_z	11	advance_on_keypress_ZEE	36	stimuli_distractor_diamondtriangles.svg	stimuli_distractor_trianglediamonds.svg	38	no	57	0	457	0	0			0	0			1				0	
6.6.1	win	2023-06-02	06:25:48	06:35:00	546869	5dee72917309b950e5262f3a	3	1	main_z	11	main_z	37	stimuli_distractor_trianglediamonds.svg	stimuli_target_trianglesquares.svg	26	yes	44	1	536	0	0			0	0			1				0	
6.6.1	win	2023-06-02	06:25:48	06:35:00	546869	5dee72917309b950e5262f3a	3	1	main_z	11	advance_on_keypress_ZEE	38	stimuli_distractor_trianglediamonds.svg	stimuli_target_trianglesquares.svg	26	yes	57	0	958	0	0			0	0			1				0	
6.6.1	win	2023-06-02	06:25:48	06:35:02	549194	5dee72917309b950e5262f3a	3	1	main_z	11	main_z	39	stimuli_target_diamondsquares.svg	stimuli_distractor_diamondtriangles.svg	24	yes	44	1	727	0	0			0	0			1				0	
6.6.1	win	2023-06-02	06:25:48	06:35:02	549194	5dee72917309b950e5262f3a	3	1	main_z	11	advance_on_keypress_ZEE	40	stimuli_target_diamondsquares.svg	stimuli_distractor_diamondtriangles.svg	24	yes	57	0	425	0	0			0	0			1				0	
6.6.1	win	2023-06-02	06:25:48	06:35:04	551068	5dee72917309b950e5262f3a	3	1	main_z	11	main_z	41	stimuli_distractor_diamondtriangles.svg	stimuli_target_rectangletriangles.svg	13	yes	44	1	803	0	0			0	0			1				0	
6.6.1	win	2023-06-02	06:25:48	06:35:04	551068	5dee72917309b950e5262f3a	3	1	main_z	11	advance_on_keypress_ZEE	42	stimuli_distractor_diamondtriangles.svg	stimuli_target_rectangletriangles.svg	13	yes	57	0	441	0	0			0	0			1				0	
6.6.1	win	2023-06-02	06:25:48	06:35:06	552851	5dee72917309b950e5262f3a	3	1	main_z	11	main_z	43	stimuli_target_trianglesquares.svg	stimuli_distractor_trianglediamonds.svg	18	yes	44	1	701	0	0			0	0			1				0	
6.6.1	win	2023-06-02	06:25:48	06:35:06	552851	5dee72917309b950e5262f3a	3	1	main_z	11	advance_on_keypress_ZEE	44	stimuli_target_trianglesquares.svg	stimuli_distractor_trianglediamonds.svg	18	yes	57	0	450	0	0			0	0			1				0	
6.6.1	win	2023-06-02	06:25:48	06:35:09	555949	5dee72917309b950e5262f3a	3	1	main_z	11	main_z	45	stimuli_distractor_trianglediamonds.svg	stimuli_distractor_trianglediamonds.svg	33	no	0	1	2000	0	0			0	0			1				0	
6.6.1	win	2023-06-02	06:25:48	06:35:09	555949	5dee72917309b950e5262f3a	3	1	main_z	11	advance_on_keypress_ZEE	46	stimuli_distractor_trianglediamonds.svg	stimuli_distractor_trianglediamonds.svg	33	no	57	0	253	0	0			0	0			1				0	
6.6.1	win	2023-06-02	06:25:48	06:35:11	557432	5dee72917309b950e5262f3a	3	1	main_z	11	main_z	47	stimuli_distractor_trianglediamonds.svg	stimuli_target_diamondrectangles.svg	27	yes	44	1	583	0	0			0	0			1				0	
6.6.1	win	2023-06-02	06:25:48	06:35:11	557432	5dee72917309b950e5262f3a	3	1	main_z	11	advance_on_keypress_ZEE	48	stimuli_distractor_trianglediamonds.svg	stimuli_target_diamondrectangles.svg	27	yes	57	0	957	0	0			0	0			1				0	
6.6.1	win	2023-06-02	06:25:48	06:35:14	561031	5dee72917309b950e5262f3a	3	1	main_z	11	main_z	49	stimuli_distractor_diamondtriangles.svg	stimuli_distractor_diamondtriangles.svg	39	no	0	1	2000	0	0			0	0			1				0	
6.6.1	win	2023-06-02	06:25:48	06:35:14	561031	5dee72917309b950e5262f3a	3	1	main_z	11	advance_on_keypress_ZEE	50	stimuli_distractor_diamondtriangles.svg	stimuli_distractor_diamondtriangles.svg	39	no	57	0	404	0	0			0	0			1				0	
6.6.1	win	2023-06-02	06:25:48	06:35:17	564080	5dee72917309b950e5262f3a	3	1	main_z	11	main_z	51	stimuli_distractor_diamondtriangles.svg	stimuli_distractor_diamondtriangles.svg	40	no	0	1	2000	0	0			0	0			1				0	
6.6.1	win	2023-06-02	06:25:48	06:35:17	564080	5dee72917309b950e5262f3a	3	1	main_z	11	advance_on_keypress_ZEE	52	stimuli_distractor_diamondtriangles.svg	stimuli_distractor_diamondtriangles.svg	40	no	57	0	433	0	0			0	0			1				0	
6.6.1	win	2023-06-02	06:25:48	06:35:20	567163	5dee72917309b950e5262f3a	3	1	main_z	11	main_z	53	stimuli_distractor_trianglediamonds.svg	stimuli_distractor_diamondtriangles.svg	36	no	0	1	2000	0	0			0	0			1				0	
6.6.1	win	2023-06-02	06:25:48	06:35:20	567163	5dee72917309b950e5262f3a	3	1	main_z	11	advance_on_keypress_ZEE	54	stimuli_distractor_trianglediamonds.svg	stimuli_distractor_diamondtriangles.svg	36	no	57	0	478	0	0			0	0			1				0	
6.6.1	win	2023-06-02	06:25:48	06:35:22	569114	5dee72917309b950e5262f3a	3	1	main_z	11	main_z	55	stimuli_distractor_diamondtriangles.svg	stimuli_target_squaretriangles.svg	15	yes	44	1	818	0	0			0	0			1				0	
6.6.1	win	2023-06-02	06:25:48	06:35:22	569114	5dee72917309b950e5262f3a	3	1	main_z	11	advance_on_keypress_ZEE	56	stimuli_distractor_diamondtriangles.svg	stimuli_target_squaretriangles.svg	15	yes	57	0	575	0	0			0	0			1				0	
6.6.1	win	2023-06-02	06:25:48	06:35:24	570981	5dee72917309b950e5262f3a	3	1	main_z	11	main_z	57	stimuli_target_diamondrectangles.svg	stimuli_distractor_trianglediamonds.svg	19	yes	44	1	652	0	0			0	0			1				0	
6.6.1	win	2023-06-02	06:25:48	06:35:24	570981	5dee72917309b950e5262f3a	3	1	main_z	11	advance_on_keypress_ZEE	58	stimuli_target_diamondrectangles.svg	stimuli_distractor_trianglediamonds.svg	19	yes	57	0	492	0	0			0	0			1				0	
6.6.1	win	2023-06-02	06:25:48	06:35:26	572713	5dee72917309b950e5262f3a	3	1	main_z	11	main_z	59	stimuli_target_diamondrectangles.svg	stimuli_distractor_diamondtriangles.svg	23	yes	44	1	601	0	0			0	0			1				0	
6.6.1	win	2023-06-02	06:25:48	06:35:26	572713	5dee72917309b950e5262f3a	3	1	main_z	11	advance_on_keypress_ZEE	60	stimuli_target_diamondrectangles.svg	stimuli_distractor_diamondtriangles.svg	23	yes	57	0	519	0	0			0	0			1				0	
6.6.1	win	2023-06-02	06:25:48	06:35:28	574456	5dee72917309b950e5262f3a	3	1	main_z	11	main_z	61	stimuli_distractor_diamondtriangles.svg	stimuli_target_trianglesquares.svg	30	yes	44	1	578	0	0			0	0			1				0	
6.6.1	win	2023-06-02	06:25:48	06:35:28	574456	5dee72917309b950e5262f3a	3	1	main_z	11	advance_on_keypress_ZEE	62	stimuli_distractor_diamondtriangles.svg	stimuli_target_trianglesquares.svg	30	yes	57	0	507	0	0			0	0			1				0	
6.6.1	win	2023-06-02	06:25:48	06:35:29	576051	5dee72917309b950e5262f3a	3	1	main_z	11	main_z	63	stimuli_target_squaretriangles.svg	stimuli_distractor_trianglediamonds.svg	3	yes	44	1	440	0	0			0	0			1				0	
6.6.1	win	2023-06-02	06:25:48	06:35:29	576051	5dee72917309b950e5262f3a	3	1	main_z	11	advance_on_keypress_ZEE	64	stimuli_target_squaretriangles.svg	stimuli_distractor_trianglediamonds.svg	3	yes	57	0	561	0	0			0	0			1				0	
6.6.1	win	2023-06-02	06:25:48	06:35:31	577825	5dee72917309b950e5262f3a	3	1	main_z	11	main_z	65	stimuli_distractor_trianglediamonds.svg	stimuli_target_trianglerectangles.svg	25	yes	44	1	563	0	0			0	0			1				0	
6.6.1	win	2023-06-02	06:25:48	06:35:31	577825	5dee72917309b950e5262f3a	3	1	main_z	11	advance_on_keypress_ZEE	66	stimuli_distractor_trianglediamonds.svg	stimuli_target_trianglerectangles.svg	25	yes	57	0	457	0	0			0	0			1				0	
6.6.1	win	2023-06-02	06:25:48	06:35:33	579456	5dee72917309b950e5262f3a	3	1	main_z	11	main_z	67	stimuli_distractor_trianglediamonds.svg	stimuli_target_rectanglediamonds.svg	10	yes	44	1	529	0	0			0	0			1				0	
6.6.1	win	2023-06-02	06:25:48	06:35:33	579456	5dee72917309b950e5262f3a	3	1	main_z	11	advance_on_keypress_ZEE	68	stimuli_distractor_trianglediamonds.svg	stimuli_target_rectanglediamonds.svg	10	yes	57	0	473	0	0			0	0			1				0	
6.6.1	win	2023-06-02	06:25:48	06:35:34	581139	5dee72917309b950e5262f3a	3	1	main_z	11	main_z	69	stimuli_distractor_trianglediamonds.svg	stimuli_target_squarediamonds.svg	12	yes	44	1	562	0	0			0	0			1				0	
6.6.1	win	2023-06-02	06:25:48	06:35:34	581139	5dee72917309b950e5262f3a	3	1	main_z	11	advance_on_keypress_ZEE	70	stimuli_distractor_trianglediamonds.svg	stimuli_target_squarediamonds.svg	12	yes	57	0	396	0	0			0	0			1				0	
6.6.1	win	2023-06-02	06:25:48	06:35:36	582738	5dee72917309b950e5262f3a	3	1	main_z	11	main_z	71	stimuli_target_squaretriangles.svg	stimuli_distractor_diamondtriangles.svg	7	yes	44	1	545	0	0			0	0			1				0	
6.6.1	win	2023-06-02	06:25:48	06:35:36	582738	5dee72917309b950e5262f3a	3	1	main_z	11	advance_on_keypress_ZEE	72	stimuli_target_squaretriangles.svg	stimuli_distractor_diamondtriangles.svg	7	yes	57	0	444	0	0			0	0			1				0	
6.6.1	win	2023-06-02	06:25:48	06:35:37	584310	5dee72917309b950e5262f3a	3	1	main_z	11	main_z	73	stimuli_target_squarediamonds.svg	stimuli_distractor_trianglediamonds.svg	4	yes	44	1	483	0	0			0	0			1				0	
6.6.1	win	2023-06-02	06:25:48	06:35:37	584310	5dee72917309b950e5262f3a	3	1	main_z	11	advance_on_keypress_ZEE	74	stimuli_target_squarediamonds.svg	stimuli_distractor_trianglediamonds.svg	4	yes	57	0	644	0	0			0	0			1				0	
6.6.1	win	2023-06-02	06:25:48	06:35:39	586353	5dee72917309b950e5262f3a	3	1	main_z	11	main_z	75	stimuli_distractor_trianglediamonds.svg	stimuli_target_squaretriangles.svg	11	yes	44	1	744	0	0			0	0			1				0	
6.6.1	win	2023-06-02	06:25:48	06:35:39	586353	5dee72917309b950e5262f3a	3	1	main_z	11	advance_on_keypress_ZEE	76	stimuli_distractor_trianglediamonds.svg	stimuli_target_squaretriangles.svg	11	yes	57	0	405	0	0			0	0			1				0	
6.6.1	win	2023-06-02	06:25:48	06:35:43	589408	5dee72917309b950e5262f3a	3	1	main_z	11	main_z	77	stimuli_target_trianglerectangles.svg	stimuli_distractor_diamondtriangles.svg	21	yes	0	0	2000	0	0			0	0			1				0	
6.6.1	win	2023-06-02	06:25:48	06:35:43	589408	5dee72917309b950e5262f3a	3	1	main_z	11	advance_on_keypress_ZEE	78	stimuli_target_trianglerectangles.svg	stimuli_distractor_diamondtriangles.svg	21	yes	57	0	420	0	0			0	0			1				0	
6.6.1	win	2023-06-02	06:25:48	06:35:46	592476	5dee72917309b950e5262f3a	3	1	main_z	11	main_z	79	stimuli_distractor_trianglediamonds.svg	stimuli_distractor_trianglediamonds.svg	34	no	0	1	2000	0	0			0	0			1				0	
6.6.1	win	2023-06-02	06:25:48	06:35:46	592476	5dee72917309b950e5262f3a	3	1	main_z	11	advance_on_keypress_ZEE	80	stimuli_distractor_trianglediamonds.svg	stimuli_distractor_trianglediamonds.svg	34	no	57	0	512	0	0			0	0			1				0	
6.6.1	win	2023-06-02	06:25:48	06:35:47	594204	5dee72917309b950e5262f3a	3	1	main_z	11	main_z	81	stimuli_distractor_diamondtriangles.svg	stimuli_target_diamondrectangles.svg	31	yes	44	1	563	0	0			0	0			1				0	
6.6.1	win	2023-06-02	06:25:48	06:35:47	594204	5dee72917309b950e5262f3a	3	1	main_z	11	advance_on_keypress_ZEE	82	stimuli_distractor_diamondtriangles.svg	stimuli_target_diamondrectangles.svg	31	yes	57	0	469	0	0			0	0			1				0	
6.6.1	win	2023-06-02	06:25:48	06:35:49	595847	5dee72917309b950e5262f3a	3	1	main_z	11	main_z	83	stimuli_target_squarediamonds.svg	stimuli_distractor_diamondtriangles.svg	8	yes	44	1	524	0	0			0	0			1				0	
6.6.1	win	2023-06-02	06:25:48	06:35:49	595847	5dee72917309b950e5262f3a	3	1	main_z	11	advance_on_keypress_ZEE	84	stimuli_target_squarediamonds.svg	stimuli_distractor_diamondtriangles.svg	8	yes	57	0	447	0	0			0	0			1				0	
6.6.1	win	2023-06-02	06:25:48	06:35:51	597563	5dee72917309b950e5262f3a	3	1	main_z	11	main_z	85	stimuli_distractor_diamondtriangles.svg	stimuli_target_squaretriangles.svg	15	yes	44	1	623	0	0			0	0			1				0	
6.6.1	win	2023-06-02	06:25:48	06:35:51	597563	5dee72917309b950e5262f3a	3	1	main_z	11	advance_on_keypress_ZEE	86	stimuli_distractor_diamondtriangles.svg	stimuli_target_squaretriangles.svg	15	yes	57	0	406	0	0			0	0			1				0	
6.6.1	win	2023-06-02	06:25:48	06:35:52	599225	5dee72917309b950e5262f3a	3	1	main_z	11	main_z	87	stimuli_distractor_trianglediamonds.svg	stimuli_target_rectanglediamonds.svg	10	yes	44	1	619	0	0			0	0			1				0	
6.6.1	win	2023-06-02	06:25:48	06:35:52	599225	5dee72917309b950e5262f3a	3	1	main_z	11	advance_on_keypress_ZEE	88	stimuli_distractor_trianglediamonds.svg	stimuli_target_rectanglediamonds.svg	10	yes	57	0	933	0	0			0	0			1				0	
6.6.1	win	2023-06-02	06:25:48	06:35:56	602806	5dee72917309b950e5262f3a	3	1	main_z	11	main_z	89	stimuli_distractor_diamondtriangles.svg	stimuli_distractor_diamondtriangles.svg	40	no	0	1	2000	0	0			0	0			1				0	
6.6.1	win	2023-06-02	06:25:48	06:35:56	602806	5dee72917309b950e5262f3a	3	1	main_z	11	advance_on_keypress_ZEE	90	stimuli_distractor_diamondtriangles.svg	stimuli_distractor_diamondtriangles.svg	40	no	57	0	485	0	0			0	0			1				0	
6.6.1	win	2023-06-02	06:25:48	06:35:58	604486	5dee72917309b950e5262f3a	3	1	main_z	11	main_z	91	stimuli_distractor_trianglediamonds.svg	stimuli_target_diamondsquares.svg	28	yes	44	1	547	0	0			0	0			1				0	
6.6.1	win	2023-06-02	06:25:48	06:35:58	604486	5dee72917309b950e5262f3a	3	1	main_z	11	advance_on_keypress_ZEE	92	stimuli_distractor_trianglediamonds.svg	stimuli_target_diamondsquares.svg	28	yes	57	0	417	0	0			0	0			1				0	
6.6.1	win	2023-06-02	06:25:48	06:35:59	606162	5dee72917309b950e5262f3a	3	1	main_z	11	main_z	93	stimuli_target_trianglesquares.svg	stimuli_distractor_diamondtriangles.svg	22	yes	44	1	607	0	0			0	0			1				0	
6.6.1	win	2023-06-02	06:25:48	06:35:59	606162	5dee72917309b950e5262f3a	3	1	main_z	11	advance_on_keypress_ZEE	94	stimuli_target_trianglesquares.svg	stimuli_distractor_diamondtriangles.svg	22	yes	57	0	640	0	0			0	0			1				0	
6.6.1	win	2023-06-02	06:25:48	06:36:01	608038	5dee72917309b950e5262f3a	3	1	main_z	11	main_z	95	stimuli_distractor_diamondtriangles.svg	stimuli_target_trianglerectangles.svg	29	yes	44	1	600	0	0			0	0			1				0	
6.6.1	win	2023-06-02	06:25:48	06:36:01	608038	5dee72917309b950e5262f3a	3	1	main_z	11	advance_on_keypress_ZEE	96	stimuli_distractor_diamondtriangles.svg	stimuli_target_trianglerectangles.svg	29	yes	57	0	953	0	0			0	0			1				0	
6.6.1	win	2023-06-02	06:25:48	06:36:05	611638	5dee72917309b950e5262f3a	3	1	main_z	11	main_z	97	stimuli_distractor_trianglediamonds.svg	stimuli_distractor_diamondtriangles.svg	36	no	0	1	2000	0	0			0	0			1				0	
6.6.1	win	2023-06-02	06:25:48	06:36:05	611638	5dee72917309b950e5262f3a	3	1	main_z	11	advance_on_keypress_ZEE	98	stimuli_distractor_trianglediamonds.svg	stimuli_distractor_diamondtriangles.svg	36	no	57	0	711	0	0			0	0			1				0	
6.6.1	win	2023-06-02	06:25:48	06:36:07	613504	5dee72917309b950e5262f3a	3	1	main_z	11	main_z	99	stimuli_distractor_diamondtriangles.svg	stimuli_target_rectanglediamonds.svg	14	yes	44	1	499	0	0			0	0			1				0	
6.6.1	win	2023-06-02	06:25:48	06:36:07	613504	5dee72917309b950e5262f3a	3	1	main_z	11	advance_on_keypress_ZEE	100	stimuli_distractor_diamondtriangles.svg	stimuli_target_rectanglediamonds.svg	14	yes	57	0	340	0	0			0	0			1				0	
6.6.1	win	2023-06-02	06:25:48	06:36:09	615591	5dee72917309b950e5262f3a	3	1	main_z	11	main_z	101	stimuli_target_trianglerectangles.svg	stimuli_distractor_trianglediamonds.svg	17	yes	44	1	1104	0	0			0	0			1				0	
6.6.1	win	2023-06-02	06:25:48	06:36:09	615591	5dee72917309b950e5262f3a	3	1	main_z	11	advance_on_keypress_ZEE	102	stimuli_target_trianglerectangles.svg	stimuli_distractor_trianglediamonds.svg	17	yes	57	0	334	0	0			0	0			1				0	
6.6.1	win	2023-06-02	06:25:48	06:36:10	617183	5dee72917309b950e5262f3a	3	1	main_z	11	main_z	103	stimuli_target_trianglesquares.svg	stimuli_distractor_trianglediamonds.svg	18	yes	44	1	613	0	0			0	0			1				0	
6.6.1	win	2023-06-02	06:25:48	06:36:10	617183	5dee72917309b950e5262f3a	3	1	main_z	11	advance_on_keypress_ZEE	104	stimuli_target_trianglesquares.svg	stimuli_distractor_trianglediamonds.svg	18	yes	57	0	512	0	0			0	0			1				0	
6.6.1	win	2023-06-02	06:25:48	06:36:13	620371	5dee72917309b950e5262f3a	3	1	main_z	11	main_z	105	stimuli_distractor_trianglediamonds.svg	stimuli_distractor_trianglediamonds.svg	33	no	0	1	2000	0	0			0	0			1				0	
6.6.1	win	2023-06-02	06:25:48	06:36:13	620371	5dee72917309b950e5262f3a	3	1	main_z	11	advance_on_keypress_ZEE	106	stimuli_distractor_trianglediamonds.svg	stimuli_distractor_trianglediamonds.svg	33	no	57	0	330	0	0			0	0			1				0	
6.6.1	win	2023-06-02	06:25:48	06:36:15	621885	5dee72917309b950e5262f3a	3	1	main_z	11	main_z	107	stimuli_distractor_diamondtriangles.svg	stimuli_target_squarediamonds.svg	16	yes	44	1	533	0	0			0	0			1				0	
6.6.1	win	2023-06-02	06:25:48	06:36:15	621885	5dee72917309b950e5262f3a	3	1	main_z	11	advance_on_keypress_ZEE	108	stimuli_distractor_diamondtriangles.svg	stimuli_target_squarediamonds.svg	16	yes	57	0	360	0	0			0	0			1				0	
6.6.1	win	2023-06-02	06:25:48	06:36:18	624890	5dee72917309b950e5262f3a	3	1	main_z	11	main_z	109	stimuli_distractor_trianglediamonds.svg	stimuli_distractor_diamondtriangles.svg	35	no	0	1	2000	0	0			0	0			1				0	
6.6.1	win	2023-06-02	06:25:48	06:36:18	624890	5dee72917309b950e5262f3a	3	1	main_z	11	advance_on_keypress_ZEE	110	stimuli_distractor_trianglediamonds.svg	stimuli_distractor_diamondtriangles.svg	35	no	57	0	517	0	0			0	0			1				0	
6.6.1	win	2023-06-02	06:25:48	06:36:21	628051	5dee72917309b950e5262f3a	3	1	main_z	11	main_z	111	stimuli_distractor_diamondtriangles.svg	stimuli_distractor_trianglediamonds.svg	38	no	0	1	2000	0	0			0	0			1				0	
6.6.1	win	2023-06-02	06:25:48	06:36:21	628051	5dee72917309b950e5262f3a	3	1	main_z	11	advance_on_keypress_ZEE	112	stimuli_distractor_diamondtriangles.svg	stimuli_distractor_trianglediamonds.svg	38	no	57	0	412	0	0			0	0			1				0	
6.6.1	win	2023-06-02	06:25:48	06:36:24	631117	5dee72917309b950e5262f3a	3	1	main_z	11	main_z	113	stimuli_distractor_diamondtriangles.svg	stimuli_distractor_trianglediamonds.svg	37	no	0	1	2000	0	0			0	0			1				0	
6.6.1	win	2023-06-02	06:25:48	06:36:24	631117	5dee72917309b950e5262f3a	3	1	main_z	11	advance_on_keypress_ZEE	114	stimuli_distractor_diamondtriangles.svg	stimuli_distractor_trianglediamonds.svg	37	no	57	0	406	0	0			0	0			1				0	
6.6.1	win	2023-06-02	06:25:48	06:36:26	632768	5dee72917309b950e5262f3a	3	1	main_z	11	main_z	115	stimuli_distractor_trianglediamonds.svg	stimuli_target_squarediamonds.svg	12	yes	44	1	601	0	0			0	0			1				0	
6.6.1	win	2023-06-02	06:25:48	06:36:26	632768	5dee72917309b950e5262f3a	3	1	main_z	11	advance_on_keypress_ZEE	116	stimuli_distractor_trianglediamonds.svg	stimuli_target_squarediamonds.svg	12	yes	57	0	403	0	0			0	0			1				0	
6.6.1	win	2023-06-02	06:25:48	06:36:28	634421	5dee72917309b950e5262f3a	3	1	main_z	11	main_z	117	stimuli_target_diamondsquares.svg	stimuli_distractor_trianglediamonds.svg	20	yes	44	1	586	0	0			0	0			1				0	
6.6.1	win	2023-06-02	06:25:48	06:36:28	634421	5dee72917309b950e5262f3a	3	1	main_z	11	advance_on_keypress_ZEE	118	stimuli_target_diamondsquares.svg	stimuli_distractor_trianglediamonds.svg	20	yes	57	0	365	0	0			0	0			1				0	
6.6.1	win	2023-06-02	06:25:48	06:36:29	635928	5dee72917309b950e5262f3a	3	1	main_z	11	main_z	119	stimuli_target_squaretriangles.svg	stimuli_distractor_diamondtriangles.svg	7	yes	44	1	495	0	0			0	0			1				0	
6.6.1	win	2023-06-02	06:25:48	06:36:29	635928	5dee72917309b950e5262f3a	3	1	main_z	11	advance_on_keypress_ZEE	120	stimuli_target_squaretriangles.svg	stimuli_distractor_diamondtriangles.svg	7	yes	57	0	419	0	0			0	0			1				0	
6.6.1	win	2023-06-02	06:25:48	06:36:31	637515	5dee72917309b950e5262f3a	3	1	main_z	11	main_z	121	stimuli_target_rectanglediamonds.svg	stimuli_distractor_trianglediamonds.svg	2	yes	44	1	505	0	0			0	0			1				0	
6.6.1	win	2023-06-02	06:25:48	06:36:31	637515	5dee72917309b950e5262f3a	3	1	main_z	11	advance_on_keypress_ZEE	122	stimuli_target_rectanglediamonds.svg	stimuli_distractor_trianglediamonds.svg	2	yes	57	0	466	0	0			0	0			1				0	
6.6.1	win	2023-06-02	06:25:48	06:36:32	639253	5dee72917309b950e5262f3a	3	1	main_z	11	main_z	123	stimuli_distractor_diamondtriangles.svg	stimuli_target_trianglesquares.svg	30	yes	44	1	621	0	0			0	0			1				0	
6.6.1	win	2023-06-02	06:25:48	06:36:32	639253	5dee72917309b950e5262f3a	3	1	main_z	11	advance_on_keypress_ZEE	124	stimuli_distractor_diamondtriangles.svg	stimuli_target_trianglesquares.svg	30	yes	57	0	509	0	0			0	0			1				0	
6.6.1	win	2023-06-02	06:25:48	06:36:34	640993	5dee72917309b950e5262f3a	3	1	main_z	11	main_z	125	stimuli_target_diamondsquares.svg	stimuli_distractor_diamondtriangles.svg	24	yes	44	1	595	0	0			0	0			1				0	
6.6.1	win	2023-06-02	06:25:48	06:36:34	640993	5dee72917309b950e5262f3a	3	1	main_z	11	advance_on_keypress_ZEE	126	stimuli_target_diamondsquares.svg	stimuli_distractor_diamondtriangles.svg	24	yes	57	0	326	0	0			0	0			1				0	
6.6.1	win	2023-06-02	06:25:48	06:36:36	642501	5dee72917309b950e5262f3a	3	1	main_z	11	main_z	127	stimuli_target_rectangletriangles.svg	stimuli_distractor_trianglediamonds.svg	1	yes	44	1	536	0	0			0	0			1				0	
6.6.1	win	2023-06-02	06:25:48	06:36:36	642501	5dee72917309b950e5262f3a	3	1	main_z	11	advance_on_keypress_ZEE	128	stimuli_target_rectangletriangles.svg	stimuli_distractor_trianglediamonds.svg	1	yes	57	0	569	0	0			0	0			1				0	
6.6.1	win	2023-06-02	06:25:48	06:36:37	644200	5dee72917309b950e5262f3a	3	1	main_z	11	main_z	129	stimuli_distractor_trianglediamonds.svg	stimuli_target_squaretriangles.svg	11	yes	44	1	486	0	0			0	0			1				0	
6.6.1	win	2023-06-02	06:25:48	06:36:37	644200	5dee72917309b950e5262f3a	3	1	main_z	11	advance_on_keypress_ZEE	130	stimuli_distractor_trianglediamonds.svg	stimuli_target_squaretriangles.svg	11	yes	57	0	451	0	0			0	0			1				0	
6.6.1	win	2023-06-02	06:25:48	06:36:39	645754	5dee72917309b950e5262f3a	3	1	main_z	11	main_z	131	stimuli_target_rectanglediamonds.svg	stimuli_distractor_diamondtriangles.svg	6	yes	44	1	456	0	0			0	0			1				0	
6.6.1	win	2023-06-02	06:25:48	06:36:39	645754	5dee72917309b950e5262f3a	3	1	main_z	11	advance_on_keypress_ZEE	132	stimuli_target_rectanglediamonds.svg	stimuli_distractor_diamondtriangles.svg	6	yes	57	0	532	0	0			0	0			1				0	
6.6.1	win	2023-06-02	06:25:48	06:36:42	648931	5dee72917309b950e5262f3a	3	1	main_z	11	main_z	133	stimuli_distractor_trianglediamonds.svg	stimuli_distractor_trianglediamonds.svg	34	no	0	1	2000	0	0			0	0			1				0	
6.6.1	win	2023-06-02	06:25:48	06:36:42	648931	5dee72917309b950e5262f3a	3	1	main_z	11	advance_on_keypress_ZEE	134	stimuli_distractor_trianglediamonds.svg	stimuli_distractor_trianglediamonds.svg	34	no	57	0	487	0	0			0	0			1				0	
6.6.1	win	2023-06-02	06:25:48	06:36:44	650643	5dee72917309b950e5262f3a	3	1	main_z	11	main_z	135	stimuli_target_squaretriangles.svg	stimuli_distractor_trianglediamonds.svg	3	yes	44	1	580	0	0			0	0			1				0	
6.6.1	win	2023-06-02	06:25:48	06:36:44	650643	5dee72917309b950e5262f3a	3	1	main_z	11	advance_on_keypress_ZEE	136	stimuli_target_squaretriangles.svg	stimuli_distractor_trianglediamonds.svg	3	yes	57	0	337	0	0			0	0			1				0	
6.6.1	win	2023-06-02	06:25:48	06:36:46	652765	5dee72917309b950e5262f3a	3	1	main_z	11	main_z	137	stimuli_target_trianglerectangles.svg	stimuli_distractor_diamondtriangles.svg	21	yes	44	1	1135	0	0			0	0			1				0	
6.6.1	win	2023-06-02	06:25:48	06:36:46	652765	5dee72917309b950e5262f3a	3	1	main_z	11	advance_on_keypress_ZEE	138	stimuli_target_trianglerectangles.svg	stimuli_distractor_diamondtriangles.svg	21	yes	57	0	562	0	0			0	0			1				0	
6.6.1	win	2023-06-02	06:25:48	06:36:49	655979	5dee72917309b950e5262f3a	3	1	main_z	11	main_z	139	stimuli_distractor_diamondtriangles.svg	stimuli_distractor_diamondtriangles.svg	39	no	0	1	2000	0	0			0	0			1				0	
6.6.1	win	2023-06-02	06:25:48	06:36:49	655979	5dee72917309b950e5262f3a	3	1	main_z	11	advance_on_keypress_ZEE	140	stimuli_distractor_diamondtriangles.svg	stimuli_distractor_diamondtriangles.svg	39	no	57	0	484	0	0			0	0			1				0	
6.6.1	win	2023-06-02	06:25:48	06:36:51	657628	5dee72917309b950e5262f3a	3	1	main_z	11	main_z	141	stimuli_target_squarediamonds.svg	stimuli_distractor_trianglediamonds.svg	4	yes	44	1	504	0	0			0	0			1				0	
6.6.1	win	2023-06-02	06:25:48	06:36:51	657628	5dee72917309b950e5262f3a	3	1	main_z	11	advance_on_keypress_ZEE	142	stimuli_target_squarediamonds.svg	stimuli_distractor_trianglediamonds.svg	4	yes	57	0	354	0	0			0	0			1				0	
6.6.1	win	2023-06-02	06:25:48	06:36:52	659252	5dee72917309b950e5262f3a	3	1	main_z	11	main_z	143	stimuli_distractor_trianglediamonds.svg	stimuli_target_trianglesquares.svg	26	yes	44	1	623	0	0			0	0			1				0	
6.6.1	win	2023-06-02	06:25:48	06:36:52	659252	5dee72917309b950e5262f3a	3	1	main_z	11	advance_on_keypress_ZEE	144	stimuli_distractor_trianglediamonds.svg	stimuli_target_trianglesquares.svg	26	yes	57	0	412	0	0			0	0			1				0	
6.6.1	win	2023-06-02	06:25:48	06:36:54	660920	5dee72917309b950e5262f3a	3	1	main_z	11	main_z	145	stimuli_distractor_trianglediamonds.svg	stimuli_target_rectangletriangles.svg	9	yes	44	1	608	0	0			0	0			1				0	
6.6.1	win	2023-06-02	06:25:48	06:36:54	660920	5dee72917309b950e5262f3a	3	1	main_z	11	advance_on_keypress_ZEE	146	stimuli_distractor_trianglediamonds.svg	stimuli_target_rectangletriangles.svg	9	yes	57	0	520	0	0			0	0			1				0	
6.6.1	win	2023-06-02	06:25:48	06:36:56	662659	5dee72917309b950e5262f3a	3	1	main_z	11	main_z	147	stimuli_distractor_diamondtriangles.svg	stimuli_target_diamondsquares.svg	32	yes	44	1	582	0	0			0	0			1				0	
6.6.1	win	2023-06-02	06:25:48	06:36:56	662659	5dee72917309b950e5262f3a	3	1	main_z	11	advance_on_keypress_ZEE	148	stimuli_distractor_diamondtriangles.svg	stimuli_target_diamondsquares.svg	32	yes	57	0	352	0	0			0	0			1				0	
6.6.1	win	2023-06-02	06:25:48	06:36:57	664108	5dee72917309b950e5262f3a	3	1	main_z	11	main_z	149	stimuli_target_rectangletriangles.svg	stimuli_distractor_diamondtriangles.svg	5	yes	44	1	448	0	0			0	0			1				0	
6.6.1	win	2023-06-02	06:25:48	06:36:57	664108	5dee72917309b950e5262f3a	3	1	main_z	11	advance_on_keypress_ZEE	150	stimuli_target_rectangletriangles.svg	stimuli_distractor_diamondtriangles.svg	5	yes	57	0	521	0	0			0	0			1				0	
6.6.1	win	2023-06-02	06:25:48	06:36:59	665988	5dee72917309b950e5262f3a	3	1	main_z	11	main_z	151	stimuli_distractor_trianglediamonds.svg	stimuli_target_trianglerectangles.svg	25	yes	44	1	711	0	0			0	0			1				0	
6.6.1	win	2023-06-02	06:25:48	06:36:59	665988	5dee72917309b950e5262f3a	3	1	main_z	11	advance_on_keypress_ZEE	152	stimuli_distractor_trianglediamonds.svg	stimuli_target_trianglerectangles.svg	25	yes	57	0	368	0	0			0	0			1				0	
6.6.1	win	2023-06-02	06:25:48	06:37:01	667578	5dee72917309b950e5262f3a	3	1	main_z	11	main_z	153	stimuli_target_diamondrectangles.svg	stimuli_distractor_diamondtriangles.svg	23	yes	44	1	568	0	0			0	0			1				0	
6.6.1	win	2023-06-02	06:25:48	06:37:01	667578	5dee72917309b950e5262f3a	3	1	main_z	11	advance_on_keypress_ZEE	154	stimuli_target_diamondrectangles.svg	stimuli_distractor_diamondtriangles.svg	23	yes	57	0	342	0	0			0	0			1				0	
6.6.1	win	2023-06-02	06:25:48	06:37:02	669075	5dee72917309b950e5262f3a	3	1	main_z	11	main_z	155	stimuli_distractor_diamondtriangles.svg	stimuli_target_rectangletriangles.svg	13	yes	44	1	508	0	0			0	0			1				0	
6.6.1	win	2023-06-02	06:25:48	06:37:02	669075	5dee72917309b950e5262f3a	3	1	main_z	11	advance_on_keypress_ZEE	156	stimuli_distractor_diamondtriangles.svg	stimuli_target_rectangletriangles.svg	13	yes	57	0	355	0	0			0	0			1				0	
6.6.1	win	2023-06-02	06:25:48	06:37:04	670764	5dee72917309b950e5262f3a	3	1	main_z	11	main_z	157	stimuli_target_diamondrectangles.svg	stimuli_distractor_trianglediamonds.svg	19	yes	44	1	688	0	0			0	0			1				0	
6.6.1	win	2023-06-02	06:25:48	06:37:04	670764	5dee72917309b950e5262f3a	3	1	main_z	11	advance_on_keypress_ZEE	158	stimuli_target_diamondrectangles.svg	stimuli_distractor_trianglediamonds.svg	19	yes	57	0	477	0	0			0	0			1				0	
6.6.1	win	2023-06-02	06:25:48	06:37:06	672505	5dee72917309b950e5262f3a	3	1	main_z	11	main_z	159	stimuli_distractor_trianglediamonds.svg	stimuli_target_diamondrectangles.svg	27	yes	44	1	602	0	0			0	0			1				0	
6.6.1	win	2023-06-02	06:25:48	06:37:06	672505	5dee72917309b950e5262f3a	3	1	main_z	11	advance_on_keypress_ZEE	160	stimuli_distractor_trianglediamonds.svg	stimuli_target_diamondrectangles.svg	27	yes	57	0	337	0	0			0	0			1				0	
6.6.1	win	2023-06-02	06:25:48	06:37:06	672505	5dee72917309b950e5262f3a	3	1	headphonecheck_calibration	14	headphonecheck_calibrationIntro	1	stimuli_distractor_trianglediamonds.svg	stimuli_target_diamondrectangles.svg	27	yes	calibrationButton	0	1489	0	0			0	0			1				0	
6.6.1	win	2023-06-02	06:25:48	06:37:06	672505	5dee72917309b950e5262f3a	3	1	headphonecheck_testphase	15	test_collectResponse	3	stimuli_distractor_trianglediamonds.svg	stimuli_target_diamondrectangles.svg	27	yes	first	1	339	1	3	antiphase_hc_soi.wav	1	0	0			1				0	
6.6.1	win	2023-06-02	06:25:48	06:37:06	672505	5dee72917309b950e5262f3a	3	1	headphonecheck_testphase	15	test_collectResponse	6	stimuli_distractor_trianglediamonds.svg	stimuli_target_diamondrectangles.svg	27	yes	first	0	1985	2	5	antiphase_hc_osi.wav	2	0	0			1				0	
6.6.1	win	2023-06-02	06:25:48	06:37:06	672505	5dee72917309b950e5262f3a	3	1	headphonecheck_testphase	15	test_collectResponse	9	stimuli_distractor_trianglediamonds.svg	stimuli_target_diamondrectangles.svg	27	yes	first	0	1663	3	6	antiphase_hc_ois.wav	3	0	0			1				0	
6.6.1	win	2023-06-02	06:25:48	06:37:06	672505	5dee72917309b950e5262f3a	3	1	headphonecheck_testphase	15	test_collectResponse	12	stimuli_distractor_trianglediamonds.svg	stimuli_target_diamondrectangles.svg	27	yes	second	0	397	4	2	antiphase_hc_ios.wav	3	0	0			1				0	
6.6.1	win	2023-06-02	06:25:48	06:37:06	672505	5dee72917309b950e5262f3a	3	1	headphonecheck_testphase	15	test_collectResponse	15	stimuli_distractor_trianglediamonds.svg	stimuli_target_diamondrectangles.svg	27	yes	second	1	608	5	1	antiphase_hc_iso.wav	2	0	0			1				0	
6.6.1	win	2023-06-02	06:25:48	06:37:06	672505	5dee72917309b950e5262f3a	3	1	headphonecheck_testphase	15	test_collectResponse	18	stimuli_distractor_trianglediamonds.svg	stimuli_target_diamondrectangles.svg	27	yes	third	0	230	6	4	antiphase_hc_sio.wav	1	0	0			1				0	
6.6.1	win	2023-06-02	06:25:48	06:37:06	672505	5dee72917309b950e5262f3a	3	1	stereocheck_calibration	17	stereocheck_calibrationIntro	1	stimuli_distractor_trianglediamonds.svg	stimuli_target_diamondrectangles.svg	27	yes	stereocheck_calibrationButton	0	9180	6	4	antiphase_hc_sio.wav	1	0	0			1				0	
6.6.1	win	2023-06-02	06:25:48	06:37:06	672505	5dee72917309b950e5262f3a	3	1	stereocheck_testphase	18	stereocheck_test_collectResponse	3	stimuli_distractor_trianglediamonds.svg	stimuli_target_diamondrectangles.svg	27	yes	stereocheck_right	1	610	6	4	antiphase_hc_sio.wav	1	1	4	noise_calib_stim_RIGHT.wav	2	1				0	
6.6.1	win	2023-06-02	06:25:48	06:37:06	672505	5dee72917309b950e5262f3a	3	1	stereocheck_testphase	18	stereocheck_test_collectResponse	6	stimuli_distractor_trianglediamonds.svg	stimuli_target_diamondrectangles.svg	27	yes	stereocheck_right	1	654	6	4	antiphase_hc_sio.wav	1	2	5	noise_calib_stim_RIGHT.wav	2	1				0	
6.6.1	win	2023-06-02	06:25:48	06:37:06	672505	5dee72917309b950e5262f3a	3	1	stereocheck_testphase	18	stereocheck_test_collectResponse	9	stimuli_distractor_trianglediamonds.svg	stimuli_target_diamondrectangles.svg	27	yes	stereocheck_left	1	287	6	4	antiphase_hc_sio.wav	1	3	1	noise_calib_stim_LEFT.wav	1	1				0	
6.6.1	win	2023-06-02	06:25:48	06:37:06	672505	5dee72917309b950e5262f3a	3	1	stereocheck_testphase	18	stereocheck_test_collectResponse	12	stimuli_distractor_trianglediamonds.svg	stimuli_target_diamondrectangles.svg	27	yes	stereocheck_right	1	314	6	4	antiphase_hc_sio.wav	1	4	6	noise_calib_stim_RIGHT.wav	2	1				0	
6.6.1	win	2023-06-02	06:25:48	06:37:06	672505	5dee72917309b950e5262f3a	3	1	stereocheck_testphase	18	stereocheck_test_collectResponse	15	stimuli_distractor_trianglediamonds.svg	stimuli_target_diamondrectangles.svg	27	yes	stereocheck_left	1	187	6	4	antiphase_hc_sio.wav	1	5	2	noise_calib_stim_LEFT.wav	1	1				0	
6.6.1	win	2023-06-02	06:25:48	06:37:06	672505	5dee72917309b950e5262f3a	3	1	stereocheck_testphase	18	stereocheck_test_collectResponse	18	stimuli_distractor_trianglediamonds.svg	stimuli_target_diamondrectangles.svg	27	yes	stereocheck_left	1	397	6	4	antiphase_hc_sio.wav	1	6	3	noise_calib_stim_LEFT.wav	1	1				0	
6.6.1	win	2023-06-02	06:25:48	06:37:06	672505	5dee72917309b950e5262f3a	3	1	DL_practice	21	DL_practice	2	stimuli_distractor_trianglediamonds.svg	stimuli_target_diamondrectangles.svg	27	yes	ka	1	836	6	4	antiphase_hc_sio.wav	1	6	3	noise_calib_stim_LEFT.wav	1	22	blb_dichoticlistening_ka-ka.mp3	ka	ka	0	left
6.6.1	win	2023-06-02	06:25:48	06:37:06	672505	5dee72917309b950e5262f3a	3	1	DL_practice	21	DL_practice	3	stimuli_distractor_trianglediamonds.svg	stimuli_target_diamondrectangles.svg	27	yes	ba	1	1345	6	4	antiphase_hc_sio.wav	1	6	3	noise_calib_stim_LEFT.wav	1	1	blb_dichoticlistening_ba-ba.mp3	ba	ba	0	left
6.6.1	win	2023-06-02	06:25:48	06:37:06	672505	5dee72917309b950e5262f3a	3	1	DL_practice	21	DL_practice	4	stimuli_distractor_trianglediamonds.svg	stimuli_target_diamondrectangles.svg	27	yes	pa	1	927	6	4	antiphase_hc_sio.wav	1	6	3	noise_calib_stim_LEFT.wav	1	29	blb_dichoticlistening_pa-pa.mp3	pa	pa	0	left
6.6.1	win	2023-06-02	06:25:48	06:37:06	672505	5dee72917309b950e5262f3a	3	1	DL_practice	21	DL_practice	5	stimuli_distractor_trianglediamonds.svg	stimuli_target_diamondrectangles.svg	27	yes	da	1	1004	6	4	antiphase_hc_sio.wav	1	6	3	noise_calib_stim_LEFT.wav	1	8	blb_dichoticlistening_da-da.mp3	da	da	0	left
6.6.1	win	2023-06-02	06:25:48	06:37:06	672505	5dee72917309b950e5262f3a	3	1	DL_practice	21	DL_practice	6	stimuli_distractor_trianglediamonds.svg	stimuli_target_diamondrectangles.svg	27	yes	ga	1	707	6	4	antiphase_hc_sio.wav	1	6	3	noise_calib_stim_LEFT.wav	1	15	blb_dichoticlistening_ga-ga.mp3	ga	ga	0	left
6.6.1	win	2023-06-02	06:25:48	06:37:06	672505	5dee72917309b950e5262f3a	3	1	DL_practice	21	DL_practice	7	stimuli_distractor_trianglediamonds.svg	stimuli_target_diamondrectangles.svg	27	yes	da	1	1752	6	4	antiphase_hc_sio.wav	1	6	3	noise_calib_stim_LEFT.wav	1	7	blb_dichoticlistening_da-ba.mp3	da	ba	1	left
6.6.1	win	2023-06-02	06:25:48	06:37:06	672505	5dee72917309b950e5262f3a	3	1	DL_practice	21	DL_practice	8	stimuli_distractor_trianglediamonds.svg	stimuli_target_diamondrectangles.svg	27	yes	ga	1	1001	6	4	antiphase_hc_sio.wav	1	6	3	noise_calib_stim_LEFT.wav	1	18	blb_dichoticlistening_ga-ta.mp3	ga	ta	1	left
6.6.1	win	2023-06-02	06:25:48	06:37:06	672505	5dee72917309b950e5262f3a	3	1	DL_practice	21	DL_practice	9	stimuli_distractor_trianglediamonds.svg	stimuli_target_diamondrectangles.svg	27	yes	ka	1	1409	6	4	antiphase_hc_sio.wav	1	6	3	noise_calib_stim_LEFT.wav	1	23	blb_dichoticlistening_ka-pa.mp3	ka	pa	1	left
6.6.1	win	2023-06-02	06:25:48	06:37:06	672505	5dee72917309b950e5262f3a	3	1	DL_practice	21	DL_practice	10	stimuli_distractor_trianglediamonds.svg	stimuli_target_diamondrectangles.svg	27	yes	ta	1	1186	6	4	antiphase_hc_sio.wav	1	6	3	noise_calib_stim_LEFT.wav	1	36	blb_dichoticlistening_ta-ta.mp3	ta	ta	0	left
6.6.1	win	2023-06-02	06:25:48	06:37:06	672505	5dee72917309b950e5262f3a	3	1	DL_test	23	DL_test	1	stimuli_distractor_trianglediamonds.svg	stimuli_target_diamondrectangles.svg	27	yes	da	1	1445	6	4	antiphase_hc_sio.wav	1	6	3	noise_calib_stim_LEFT.wav	1	26	blb_dichoticlistening_pa-da.mp3	pa	da	1	right
6.6.1	win	2023-06-02	06:25:48	06:37:06	672505	5dee72917309b950e5262f3a	3	1	DL_test	23	DL_test	2	stimuli_distractor_trianglediamonds.svg	stimuli_target_diamondrectangles.svg	27	yes	ta	1	1631	6	4	antiphase_hc_sio.wav	1	6	3	noise_calib_stim_LEFT.wav	1	31	blb_dichoticlistening_ta-ba.mp3	ta	ba	1	left
6.6.1	win	2023-06-02	06:25:48	06:37:06	672505	5dee72917309b950e5262f3a	3	1	DL_test	23	DL_test	3	stimuli_distractor_trianglediamonds.svg	stimuli_target_diamondrectangles.svg	27	yes	ba	1	1888	6	4	antiphase_hc_sio.wav	1	6	3	noise_calib_stim_LEFT.wav	1	13	blb_dichoticlistening_ga-ba.mp3	ga	ba	1	right
6.6.1	win	2023-06-02	06:25:48	06:37:06	672505	5dee72917309b950e5262f3a	3	1	DL_test	23	DL_test	4	stimuli_distractor_trianglediamonds.svg	stimuli_target_diamondrectangles.svg	27	yes	ka	1	925	6	4	antiphase_hc_sio.wav	1	6	3	noise_calib_stim_LEFT.wav	1	22	blb_dichoticlistening_ka-ka.mp3	ka	ka	0	left
6.6.1	win	2023-06-02	06:25:48	06:37:06	672505	5dee72917309b950e5262f3a	3	1	DL_test	23	DL_test	5	stimuli_distractor_trianglediamonds.svg	stimuli_target_diamondrectangles.svg	27	yes	ta	1	1987	6	4	antiphase_hc_sio.wav	1	6	3	noise_calib_stim_LEFT.wav	1	6	blb_dichoticlistening_ba-ta.mp3	ba	ta	1	right
6.6.1	win	2023-06-02	06:25:48	06:37:06	672505	5dee72917309b950e5262f3a	3	1	DL_test	23	DL_test	6	stimuli_distractor_trianglediamonds.svg	stimuli_target_diamondrectangles.svg	27	yes	da	0	1797	6	4	antiphase_hc_sio.wav	1	6	3	noise_calib_stim_LEFT.wav	1	3	blb_dichoticlistening_ba-ga.mp3	ba	ga	1	other
6.6.1	win	2023-06-02	06:25:48	06:37:06	672505	5dee72917309b950e5262f3a	3	1	DL_test	23	DL_test	7	stimuli_distractor_trianglediamonds.svg	stimuli_target_diamondrectangles.svg	27	yes	da	1	782	6	4	antiphase_hc_sio.wav	1	6	3	noise_calib_stim_LEFT.wav	1	7	blb_dichoticlistening_da-ba.mp3	da	ba	1	left
6.6.1	win	2023-06-02	06:25:48	06:37:06	672505	5dee72917309b950e5262f3a	3	1	DL_test	23	DL_test	8	stimuli_distractor_trianglediamonds.svg	stimuli_target_diamondrectangles.svg	27	yes	da	1	808	6	4	antiphase_hc_sio.wav	1	6	3	noise_calib_stim_LEFT.wav	1	14	blb_dichoticlistening_ga-da.mp3	ga	da	1	right
6.6.1	win	2023-06-02	06:25:48	06:37:06	672505	5dee72917309b950e5262f3a	3	1	DL_test	23	DL_test	9	stimuli_distractor_trianglediamonds.svg	stimuli_target_diamondrectangles.svg	27	yes	ka	1	1181	6	4	antiphase_hc_sio.wav	1	6	3	noise_calib_stim_LEFT.wav	1	23	blb_dichoticlistening_ka-pa.mp3	ka	pa	1	left
6.6.1	win	2023-06-02	06:25:48	06:37:06	672505	5dee72917309b950e5262f3a	3	1	DL_test	23	DL_test	10	stimuli_distractor_trianglediamonds.svg	stimuli_target_diamondrectangles.svg	27	yes	da	1	1103	6	4	antiphase_hc_sio.wav	1	6	3	noise_calib_stim_LEFT.wav	1	9	blb_dichoticlistening_da-ga.mp3	da	ga	1	left
6.6.1	win	2023-06-02	06:25:48	06:37:06	672505	5dee72917309b950e5262f3a	3	1	DL_test	23	DL_test	11	stimuli_distractor_trianglediamonds.svg	stimuli_target_diamondrectangles.svg	27	yes	ta	1	1686	6	4	antiphase_hc_sio.wav	1	6	3	noise_calib_stim_LEFT.wav	1	36	blb_dichoticlistening_ta-ta.mp3	ta	ta	0	left
6.6.1	win	2023-06-02	06:25:48	06:37:06	672505	5dee72917309b950e5262f3a	3	1	DL_test	23	DL_test	12	stimuli_distractor_trianglediamonds.svg	stimuli_target_diamondrectangles.svg	27	yes	ta	1	1324	6	4	antiphase_hc_sio.wav	1	6	3	noise_calib_stim_LEFT.wav	1	35	blb_dichoticlistening_ta-pa.mp3	ta	pa	1	left
6.6.1	win	2023-06-02	06:25:48	06:37:06	672505	5dee72917309b950e5262f3a	3	1	DL_test	23	DL_test	13	stimuli_distractor_trianglediamonds.svg	stimuli_target_diamondrectangles.svg	27	yes	ta	1	1262	6	4	antiphase_hc_sio.wav	1	6	3	noise_calib_stim_LEFT.wav	1	30	blb_dichoticlistening_pa-ta.mp3	pa	ta	1	right
6.6.1	win	2023-06-02	06:25:48	06:37:06	672505	5dee72917309b950e5262f3a	3	1	DL_test	23	DL_test	14	stimuli_distractor_trianglediamonds.svg	stimuli_target_diamondrectangles.svg	27	yes	ka	1	1231	6	4	antiphase_hc_sio.wav	1	6	3	noise_calib_stim_LEFT.wav	1	24	blb_dichoticlistening_ka-ta.mp3	ka	ta	1	left
6.6.1	win	2023-06-02	06:25:48	06:37:06	672505	5dee72917309b950e5262f3a	3	1	DL_test	23	DL_test	15	stimuli_distractor_trianglediamonds.svg	stimuli_target_diamondrectangles.svg	27	yes	da	1	2250	6	4	antiphase_hc_sio.wav	1	6	3	noise_calib_stim_LEFT.wav	1	10	blb_dichoticlistening_da-ka.mp3	da	ka	1	left
6.6.1	win	2023-06-02	06:25:48	06:37:06	672505	5dee72917309b950e5262f3a	3	1	DL_test	23	DL_test	16	stimuli_distractor_trianglediamonds.svg	stimuli_target_diamondrectangles.svg	27	yes	ka	1	1168	6	4	antiphase_hc_sio.wav	1	6	3	noise_calib_stim_LEFT.wav	1	4	blb_dichoticlistening_ba-ka.mp3	ba	ka	1	right
6.6.1	win	2023-06-02	06:25:48	06:37:06	672505	5dee72917309b950e5262f3a	3	1	DL_test	23	DL_test	17	stimuli_distractor_trianglediamonds.svg	stimuli_target_diamondrectangles.svg	27	yes	ka	1	1042	6	4	antiphase_hc_sio.wav	1	6	3	noise_calib_stim_LEFT.wav	1	20	blb_dichoticlistening_ka-da.mp3	ka	da	1	left
6.6.1	win	2023-06-02	06:25:48	06:37:06	672505	5dee72917309b950e5262f3a	3	1	DL_test	23	DL_test	18	stimuli_distractor_trianglediamonds.svg	stimuli_target_diamondrectangles.svg	27	yes	ga	1	1900	6	4	antiphase_hc_sio.wav	1	6	3	noise_calib_stim_LEFT.wav	1	17	blb_dichoticlistening_ga-pa.mp3	ga	pa	1	left
6.6.1	win	2023-06-02	06:25:48	06:37:06	672505	5dee72917309b950e5262f3a	3	1	DL_test	23	DL_test	19	stimuli_distractor_trianglediamonds.svg	stimuli_target_diamondrectangles.svg	27	yes	ka	1	1218	6	4	antiphase_hc_sio.wav	1	6	3	noise_calib_stim_LEFT.wav	1	19	blb_dichoticlistening_ka-ba.mp3	ka	ba	1	left
6.6.1	win	2023-06-02	06:25:48	06:37:06	672505	5dee72917309b950e5262f3a	3	1	DL_test	23	DL_test	20	stimuli_distractor_trianglediamonds.svg	stimuli_target_diamondrectangles.svg	27	yes	ga	1	1099	6	4	antiphase_hc_sio.wav	1	6	3	noise_calib_stim_LEFT.wav	1	33	blb_dichoticlistening_ta-ga.mp3	ta	ga	1	right
6.6.1	win	2023-06-02	06:25:48	06:37:06	672505	5dee72917309b950e5262f3a	3	1	DL_test	23	DL_test	21	stimuli_distractor_trianglediamonds.svg	stimuli_target_diamondrectangles.svg	27	yes	pa	1	1188	6	4	antiphase_hc_sio.wav	1	6	3	noise_calib_stim_LEFT.wav	1	5	blb_dichoticlistening_ba-pa.mp3	ba	pa	1	right
6.6.1	win	2023-06-02	06:25:48	06:37:06	672505	5dee72917309b950e5262f3a	3	1	DL_test	23	DL_test	22	stimuli_distractor_trianglediamonds.svg	stimuli_target_diamondrectangles.svg	27	yes	pa	1	3204	6	4	antiphase_hc_sio.wav	1	6	3	noise_calib_stim_LEFT.wav	1	25	blb_dichoticlistening_pa-ba.mp3	pa	ba	1	left
6.6.1	win	2023-06-02	06:25:48	06:37:06	672505	5dee72917309b950e5262f3a	3	1	DL_test	23	DL_test	23	stimuli_distractor_trianglediamonds.svg	stimuli_target_diamondrectangles.svg	27	yes	da	1	1525	6	4	antiphase_hc_sio.wav	1	6	3	noise_calib_stim_LEFT.wav	1	2	blb_dichoticlistening_ba-da.mp3	ba	da	1	right
6.6.1	win	2023-06-02	06:25:48	06:37:06	672505	5dee72917309b950e5262f3a	3	1	DL_test	23	DL_test	24	stimuli_distractor_trianglediamonds.svg	stimuli_target_diamondrectangles.svg	27	yes	ga	1	1229	6	4	antiphase_hc_sio.wav	1	6	3	noise_calib_stim_LEFT.wav	1	18	blb_dichoticlistening_ga-ta.mp3	ga	ta	1	left
6.6.1	win	2023-06-02	06:25:48	06:37:06	672505	5dee72917309b950e5262f3a	3	1	DL_test	23	DL_test	25	stimuli_distractor_trianglediamonds.svg	stimuli_target_diamondrectangles.svg	27	yes	ga	1	874	6	4	antiphase_hc_sio.wav	1	6	3	noise_calib_stim_LEFT.wav	1	21	blb_dichoticlistening_ka-ga.mp3	ka	ga	1	right
6.6.1	win	2023-06-02	06:25:48	06:37:06	672505	5dee72917309b950e5262f3a	3	1	DL_test	23	DL_test	26	stimuli_distractor_trianglediamonds.svg	stimuli_target_diamondrectangles.svg	27	yes	da	1	1929	6	4	antiphase_hc_sio.wav	1	6	3	noise_calib_stim_LEFT.wav	1	12	blb_dichoticlistening_da-ta.mp3	da	ta	1	left
