build	computer.platform	date	time	timestamp	time_elapsed_ms	subject	group	session	blockcode	blocknum	trialcode	trialnum	stimulus_left	stimulus_right	stim_index	target_present	response	correct	latency	headphonecheck_countTestTrials	headphonecheck_index	headphonecheck_testSound	headphonecheck_correctResponse	stereocheck_countTestTrials	stereocheck_index	stereocheck_testSound	stereocheck_correctResponse	DL_index	DL_soundfile	DL_leftSound	DL_rightSound	DL_dualSound	DL_choice
6.6.1	win	2023-07-12	20:51:49	20:56:33	280871	6282a9b9015ed5c3dbf566b3	4	1	practice_z	5	practice_z	1	stimuli_distractor_trianglediamonds.svg	stimuli_distractor_diamondtriangles.svg	16	no	44	0	491	0	0			0	0			1				0	
6.6.1	win	2023-07-12	20:51:49	20:56:33	280871	6282a9b9015ed5c3dbf566b3	4	1	practice_z	5	advance_on_keypress_ZEE	2	stimuli_distractor_trianglediamonds.svg	stimuli_distractor_diamondtriangles.svg	16	no	57	0	1292	0	0			0	0			1				0	
6.6.1	win	2023-07-12	20:51:49	20:56:38	285829	6282a9b9015ed5c3dbf566b3	4	1	practice_z	5	practice_z	3	stimuli_target_squarediamonds.svg	stimuli_distractor_diamondtriangles.svg	2	yes	0	0	2000	0	0			0	0			1				0	
6.6.1	win	2023-07-12	20:51:49	20:56:38	285829	6282a9b9015ed5c3dbf566b3	4	1	practice_z	5	advance_on_keypress_ZEE	4	stimuli_target_squarediamonds.svg	stimuli_distractor_diamondtriangles.svg	2	yes	57	0	1820	0	0			0	0			1				0	
6.6.1	win	2023-07-12	20:51:49	20:56:43	291290	6282a9b9015ed5c3dbf566b3	4	1	practice_z	5	practice_z	5	stimuli_target_rectanglediamonds.svg	stimuli_distractor_trianglediamonds.svg	4	yes	0	0	2000	0	0			0	0			1				0	
6.6.1	win	2023-07-12	20:51:49	20:56:43	291290	6282a9b9015ed5c3dbf566b3	4	1	practice_z	5	advance_on_keypress_ZEE	6	stimuli_target_rectanglediamonds.svg	stimuli_distractor_trianglediamonds.svg	4	yes	57	0	636	0	0			0	0			1				0	
6.6.1	win	2023-07-12	20:51:49	20:56:46	293899	6282a9b9015ed5c3dbf566b3	4	1	practice_z	5	practice_z	7	stimuli_distractor_diamondtriangles.svg	stimuli_distractor_trianglediamonds.svg	14	no	44	0	329	0	0			0	0			1				0	
6.6.1	win	2023-07-12	20:51:49	20:56:46	293899	6282a9b9015ed5c3dbf566b3	4	1	practice_z	5	advance_on_keypress_ZEE	8	stimuli_distractor_diamondtriangles.svg	stimuli_distractor_trianglediamonds.svg	14	no	57	0	606	0	0			0	0			1				0	
6.6.1	win	2023-07-12	20:51:49	20:56:49	296586	6282a9b9015ed5c3dbf566b3	4	1	practice_z	5	practice_z	9	stimuli_distractor_trianglediamonds.svg	stimuli_target_squarediamonds.svg	11	yes	44	1	435	0	0			0	0			1				0	
6.6.1	win	2023-07-12	20:51:49	20:56:49	296586	6282a9b9015ed5c3dbf566b3	4	1	practice_z	5	advance_on_keypress_ZEE	10	stimuli_distractor_trianglediamonds.svg	stimuli_target_squarediamonds.svg	11	yes	57	0	995	0	0			0	0			1				0	
6.6.1	win	2023-07-12	20:51:49	20:56:52	299786	6282a9b9015ed5c3dbf566b3	4	1	practice_z	5	practice_z	11	stimuli_target_rectanglediamonds.svg	stimuli_distractor_diamondtriangles.svg	1	yes	44	1	555	0	0			0	0			1				0	
6.6.1	win	2023-07-12	20:51:49	20:56:52	299786	6282a9b9015ed5c3dbf566b3	4	1	practice_z	5	advance_on_keypress_ZEE	12	stimuli_target_rectanglediamonds.svg	stimuli_distractor_diamondtriangles.svg	1	yes	57	0	772	0	0			0	0			1				0	
6.6.1	win	2023-07-12	20:51:49	20:56:55	302703	6282a9b9015ed5c3dbf566b3	4	1	practice_z	5	practice_z	13	stimuli_target_squarediamonds.svg	stimuli_distractor_trianglediamonds.svg	5	yes	44	1	508	0	0			0	0			1				0	
6.6.1	win	2023-07-12	20:51:49	20:56:55	302703	6282a9b9015ed5c3dbf566b3	4	1	practice_z	5	advance_on_keypress_ZEE	14	stimuli_target_squarediamonds.svg	stimuli_distractor_trianglediamonds.svg	5	yes	57	0	512	0	0			0	0			1				0	
6.6.1	win	2023-07-12	20:51:49	20:56:58	305394	6282a9b9015ed5c3dbf566b3	4	1	practice_z	5	practice_z	15	stimuli_distractor_diamondtriangles.svg	stimuli_target_trianglerectangles.svg	9	yes	44	1	517	0	0			0	0			1				0	
6.6.1	win	2023-07-12	20:51:49	20:56:58	305394	6282a9b9015ed5c3dbf566b3	4	1	practice_z	5	advance_on_keypress_ZEE	16	stimuli_distractor_diamondtriangles.svg	stimuli_target_trianglerectangles.svg	9	yes	57	0	364	0	0			0	0			1				0	
6.6.1	win	2023-07-12	20:51:49	20:57:00	307861	6282a9b9015ed5c3dbf566b3	4	1	practice_z	5	practice_z	17	stimuli_target_diamondsquares.svg	stimuli_distractor_trianglediamonds.svg	6	yes	44	1	445	0	0			0	0			1				0	
6.6.1	win	2023-07-12	20:51:49	20:57:00	307861	6282a9b9015ed5c3dbf566b3	4	1	practice_z	5	advance_on_keypress_ZEE	18	stimuli_target_diamondsquares.svg	stimuli_distractor_trianglediamonds.svg	6	yes	57	0	363	0	0			0	0			1				0	
6.6.1	win	2023-07-12	20:51:49	20:57:03	310482	6282a9b9015ed5c3dbf566b3	4	1	practice_z	5	practice_z	19	stimuli_distractor_diamondtriangles.svg	stimuli_target_rectangletriangles.svg	7	yes	44	1	610	0	0			0	0			1				0	
6.6.1	win	2023-07-12	20:51:49	20:57:03	310482	6282a9b9015ed5c3dbf566b3	4	1	practice_z	5	advance_on_keypress_ZEE	20	stimuli_distractor_diamondtriangles.svg	stimuli_target_rectangletriangles.svg	7	yes	57	0	543	0	0			0	0			1				0	
6.6.1	win	2023-07-12	20:51:49	20:57:05	313007	6282a9b9015ed5c3dbf566b3	4	1	practice_z	5	practice_z	21	stimuli_distractor_diamondtriangles.svg	stimuli_distractor_diamondtriangles.svg	13	no	44	0	321	0	0			0	0			1				0	
6.6.1	win	2023-07-12	20:51:49	20:57:05	313007	6282a9b9015ed5c3dbf566b3	4	1	practice_z	5	advance_on_keypress_ZEE	22	stimuli_distractor_diamondtriangles.svg	stimuli_distractor_diamondtriangles.svg	13	no	57	0	412	0	0			0	0			1				0	
6.6.1	win	2023-07-12	20:51:49	20:57:08	315565	6282a9b9015ed5c3dbf566b3	4	1	practice_z	5	practice_z	23	stimuli_distractor_trianglediamonds.svg	stimuli_target_rectanglediamonds.svg	10	yes	44	1	497	0	0			0	0			1				0	
6.6.1	win	2023-07-12	20:51:49	20:57:08	315565	6282a9b9015ed5c3dbf566b3	4	1	practice_z	5	advance_on_keypress_ZEE	24	stimuli_distractor_trianglediamonds.svg	stimuli_target_rectanglediamonds.svg	10	yes	57	0	416	0	0			0	0			1				0	
6.6.1	win	2023-07-12	20:51:49	20:57:11	318431	6282a9b9015ed5c3dbf566b3	4	1	practice_z	5	practice_z	25	stimuli_target_diamondsquares.svg	stimuli_distractor_diamondtriangles.svg	3	yes	44	1	799	0	0			0	0			1				0	
6.6.1	win	2023-07-12	20:51:49	20:57:11	318431	6282a9b9015ed5c3dbf566b3	4	1	practice_z	5	advance_on_keypress_ZEE	26	stimuli_target_diamondsquares.svg	stimuli_distractor_diamondtriangles.svg	3	yes	57	0	489	0	0			0	0			1				0	
6.6.1	win	2023-07-12	20:51:49	20:57:13	321047	6282a9b9015ed5c3dbf566b3	4	1	practice_z	5	practice_z	27	stimuli_distractor_trianglediamonds.svg	stimuli_target_diamondrectangles.svg	12	yes	44	1	467	0	0			0	0			1				0	
6.6.1	win	2023-07-12	20:51:49	20:57:13	321047	6282a9b9015ed5c3dbf566b3	4	1	practice_z	5	advance_on_keypress_ZEE	28	stimuli_distractor_trianglediamonds.svg	stimuli_target_diamondrectangles.svg	12	yes	57	0	347	0	0			0	0			1				0	
6.6.1	win	2023-07-12	20:51:49	20:57:17	325044	6282a9b9015ed5c3dbf566b3	4	1	practice_z	5	practice_z	29	stimuli_distractor_trianglediamonds.svg	stimuli_distractor_trianglediamonds.svg	15	no	0	1	2000	0	0			0	0			1				0	
6.6.1	win	2023-07-12	20:51:49	20:57:17	325044	6282a9b9015ed5c3dbf566b3	4	1	practice_z	5	advance_on_keypress_ZEE	30	stimuli_distractor_trianglediamonds.svg	stimuli_distractor_trianglediamonds.svg	15	no	57	0	1016	0	0			0	0			1				0	
6.6.1	win	2023-07-12	20:51:49	20:57:21	328615	6282a9b9015ed5c3dbf566b3	4	1	practice_z	5	practice_z	31	stimuli_distractor_diamondtriangles.svg	stimuli_target_diamondrectangles.svg	8	yes	44	1	909	0	0			0	0			1				0	
6.6.1	win	2023-07-12	20:51:49	20:57:21	328615	6282a9b9015ed5c3dbf566b3	4	1	practice_z	5	advance_on_keypress_ZEE	32	stimuli_distractor_diamondtriangles.svg	stimuli_target_diamondrectangles.svg	8	yes	57	0	501	0	0			0	0			1				0	
6.6.1	win	2023-07-12	20:51:49	20:57:57	364936	6282a9b9015ed5c3dbf566b3	4	1	main_z	7	main_z	1	stimuli_distractor_diamondtriangles.svg	stimuli_target_rectangletriangles.svg	13	yes	44	1	514	0	0			0	0			1				0	
6.6.1	win	2023-07-12	20:51:49	20:57:57	364936	6282a9b9015ed5c3dbf566b3	4	1	main_z	7	advance_on_keypress_ZEE	2	stimuli_distractor_diamondtriangles.svg	stimuli_target_rectangletriangles.svg	13	yes	57	0	970	0	0			0	0			1				0	
6.6.1	win	2023-07-12	20:51:49	20:57:59	367255	6282a9b9015ed5c3dbf566b3	4	1	main_z	7	main_z	3	stimuli_distractor_trianglediamonds.svg	stimuli_target_diamondrectangles.svg	27	yes	44	1	702	0	0			0	0			1				0	
6.6.1	win	2023-07-12	20:51:49	20:57:59	367255	6282a9b9015ed5c3dbf566b3	4	1	main_z	7	advance_on_keypress_ZEE	4	stimuli_distractor_trianglediamonds.svg	stimuli_target_diamondrectangles.svg	27	yes	57	0	952	0	0			0	0			1				0	
6.6.1	win	2023-07-12	20:51:49	20:58:03	370851	6282a9b9015ed5c3dbf566b3	4	1	main_z	7	main_z	5	stimuli_distractor_trianglediamonds.svg	stimuli_distractor_diamondtriangles.svg	35	no	0	1	2000	0	0			0	0			1				0	
6.6.1	win	2023-07-12	20:51:49	20:58:03	370851	6282a9b9015ed5c3dbf566b3	4	1	main_z	7	advance_on_keypress_ZEE	6	stimuli_distractor_trianglediamonds.svg	stimuli_distractor_diamondtriangles.svg	35	no	57	0	540	0	0			0	0			1				0	
6.6.1	win	2023-07-12	20:51:49	20:58:05	372700	6282a9b9015ed5c3dbf566b3	4	1	main_z	7	main_z	7	stimuli_distractor_diamondtriangles.svg	stimuli_target_squarediamonds.svg	16	yes	44	1	668	0	0			0	0			1				0	
6.6.1	win	2023-07-12	20:51:49	20:58:05	372700	6282a9b9015ed5c3dbf566b3	4	1	main_z	7	advance_on_keypress_ZEE	8	stimuli_distractor_diamondtriangles.svg	stimuli_target_squarediamonds.svg	16	yes	57	0	873	0	0			0	0			1				0	
6.6.1	win	2023-07-12	20:51:49	20:58:07	374769	6282a9b9015ed5c3dbf566b3	4	1	main_z	7	main_z	9	stimuli_target_rectangletriangles.svg	stimuli_distractor_diamondtriangles.svg	5	yes	44	1	556	0	0			0	0			1				0	
6.6.1	win	2023-07-12	20:51:49	20:58:07	374769	6282a9b9015ed5c3dbf566b3	4	1	main_z	7	advance_on_keypress_ZEE	10	stimuli_target_rectangletriangles.svg	stimuli_distractor_diamondtriangles.svg	5	yes	57	0	610	0	0			0	0			1				0	
6.6.1	win	2023-07-12	20:51:49	20:58:09	376454	6282a9b9015ed5c3dbf566b3	4	1	main_z	7	main_z	11	stimuli_target_rectanglediamonds.svg	stimuli_distractor_trianglediamonds.svg	2	yes	44	1	426	0	0			0	0			1				0	
6.6.1	win	2023-07-12	20:51:49	20:58:09	376454	6282a9b9015ed5c3dbf566b3	4	1	main_z	7	advance_on_keypress_ZEE	12	stimuli_target_rectanglediamonds.svg	stimuli_distractor_trianglediamonds.svg	2	yes	57	0	431	0	0			0	0			1				0	
6.6.1	win	2023-07-12	20:51:49	20:58:11	378383	6282a9b9015ed5c3dbf566b3	4	1	main_z	7	main_z	13	stimuli_distractor_diamondtriangles.svg	stimuli_target_diamondsquares.svg	32	yes	44	1	855	0	0			0	0			1				0	
6.6.1	win	2023-07-12	20:51:49	20:58:11	378383	6282a9b9015ed5c3dbf566b3	4	1	main_z	7	advance_on_keypress_ZEE	14	stimuli_distractor_diamondtriangles.svg	stimuli_target_diamondsquares.svg	32	yes	57	0	606	0	0			0	0			1				0	
6.6.1	win	2023-07-12	20:51:49	20:58:12	380159	6282a9b9015ed5c3dbf566b3	4	1	main_z	7	main_z	15	stimuli_distractor_trianglediamonds.svg	stimuli_target_trianglerectangles.svg	25	yes	44	1	535	0	0			0	0			1				0	
6.6.1	win	2023-07-12	20:51:49	20:58:12	380159	6282a9b9015ed5c3dbf566b3	4	1	main_z	7	advance_on_keypress_ZEE	16	stimuli_distractor_trianglediamonds.svg	stimuli_target_trianglerectangles.svg	25	yes	57	0	497	0	0			0	0			1				0	
6.6.1	win	2023-07-12	20:51:49	20:58:14	381722	6282a9b9015ed5c3dbf566b3	4	1	main_z	7	main_z	17	stimuli_target_rectanglediamonds.svg	stimuli_distractor_diamondtriangles.svg	6	yes	44	1	415	0	0			0	0			1				0	
6.6.1	win	2023-07-12	20:51:49	20:58:14	381722	6282a9b9015ed5c3dbf566b3	4	1	main_z	7	advance_on_keypress_ZEE	18	stimuli_target_rectanglediamonds.svg	stimuli_distractor_diamondtriangles.svg	6	yes	57	0	541	0	0			0	0			1				0	
6.6.1	win	2023-07-12	20:51:49	20:58:16	383728	6282a9b9015ed5c3dbf566b3	4	1	main_z	7	main_z	19	stimuli_distractor_diamondtriangles.svg	stimuli_distractor_trianglediamonds.svg	38	no	44	0	822	0	0			0	0			1				0	
6.6.1	win	2023-07-12	20:51:49	20:58:16	383728	6282a9b9015ed5c3dbf566b3	4	1	main_z	7	advance_on_keypress_ZEE	20	stimuli_distractor_diamondtriangles.svg	stimuli_distractor_trianglediamonds.svg	38	no	57	0	777	0	0			0	0			1				0	
6.6.1	win	2023-07-12	20:51:49	20:58:18	385842	6282a9b9015ed5c3dbf566b3	4	1	main_z	7	main_z	21	stimuli_distractor_trianglediamonds.svg	stimuli_target_rectangletriangles.svg	9	yes	44	1	688	0	0			0	0			1				0	
6.6.1	win	2023-07-12	20:51:49	20:58:18	385842	6282a9b9015ed5c3dbf566b3	4	1	main_z	7	advance_on_keypress_ZEE	22	stimuli_distractor_trianglediamonds.svg	stimuli_target_rectangletriangles.svg	9	yes	57	0	588	0	0			0	0			1				0	
6.6.1	win	2023-07-12	20:51:49	20:58:20	388152	6282a9b9015ed5c3dbf566b3	4	1	main_z	7	main_z	23	stimuli_target_squaretriangles.svg	stimuli_distractor_diamondtriangles.svg	7	yes	44	1	1082	0	0			0	0			1				0	
6.6.1	win	2023-07-12	20:51:49	20:58:20	388152	6282a9b9015ed5c3dbf566b3	4	1	main_z	7	advance_on_keypress_ZEE	24	stimuli_target_squaretriangles.svg	stimuli_distractor_diamondtriangles.svg	7	yes	57	0	593	0	0			0	0			1				0	
6.6.1	win	2023-07-12	20:51:49	20:58:22	390122	6282a9b9015ed5c3dbf566b3	4	1	main_z	7	main_z	25	stimuli_distractor_diamondtriangles.svg	stimuli_target_rectanglediamonds.svg	14	yes	44	1	739	0	0			0	0			1				0	
6.6.1	win	2023-07-12	20:51:49	20:58:22	390122	6282a9b9015ed5c3dbf566b3	4	1	main_z	7	advance_on_keypress_ZEE	26	stimuli_distractor_diamondtriangles.svg	stimuli_target_rectanglediamonds.svg	14	yes	57	0	411	0	0			0	0			1				0	
6.6.1	win	2023-07-12	20:51:49	20:58:24	391831	6282a9b9015ed5c3dbf566b3	4	1	main_z	7	main_z	27	stimuli_distractor_trianglediamonds.svg	stimuli_target_squarediamonds.svg	12	yes	44	1	649	0	0			0	0			1				0	
6.6.1	win	2023-07-12	20:51:49	20:58:24	391831	6282a9b9015ed5c3dbf566b3	4	1	main_z	7	advance_on_keypress_ZEE	28	stimuli_distractor_trianglediamonds.svg	stimuli_target_squarediamonds.svg	12	yes	57	0	448	0	0			0	0			1				0	
6.6.1	win	2023-07-12	20:51:49	20:58:27	394930	6282a9b9015ed5c3dbf566b3	4	1	main_z	7	main_z	29	stimuli_distractor_diamondtriangles.svg	stimuli_distractor_diamondtriangles.svg	40	no	0	1	2000	0	0			0	0			1				0	
6.6.1	win	2023-07-12	20:51:49	20:58:27	394930	6282a9b9015ed5c3dbf566b3	4	1	main_z	7	advance_on_keypress_ZEE	30	stimuli_distractor_diamondtriangles.svg	stimuli_distractor_diamondtriangles.svg	40	no	57	0	447	0	0			0	0			1				0	
6.6.1	win	2023-07-12	20:51:49	20:58:29	396440	6282a9b9015ed5c3dbf566b3	4	1	main_z	7	main_z	31	stimuli_target_squarediamonds.svg	stimuli_distractor_diamondtriangles.svg	8	yes	44	1	412	0	0			0	0			1				0	
6.6.1	win	2023-07-12	20:51:49	20:58:29	396440	6282a9b9015ed5c3dbf566b3	4	1	main_z	7	advance_on_keypress_ZEE	32	stimuli_target_squarediamonds.svg	stimuli_distractor_diamondtriangles.svg	8	yes	57	0	405	0	0			0	0			1				0	
6.6.1	win	2023-07-12	20:51:49	20:58:32	399494	6282a9b9015ed5c3dbf566b3	4	1	main_z	7	main_z	33	stimuli_distractor_diamondtriangles.svg	stimuli_distractor_diamondtriangles.svg	39	no	0	1	2000	0	0			0	0			1				0	
6.6.1	win	2023-07-12	20:51:49	20:58:32	399494	6282a9b9015ed5c3dbf566b3	4	1	main_z	7	advance_on_keypress_ZEE	34	stimuli_distractor_diamondtriangles.svg	stimuli_distractor_diamondtriangles.svg	39	no	57	0	502	0	0			0	0			1				0	
6.6.1	win	2023-07-12	20:51:49	20:58:34	401307	6282a9b9015ed5c3dbf566b3	4	1	main_z	7	main_z	35	stimuli_distractor_diamondtriangles.svg	stimuli_target_diamondrectangles.svg	31	yes	44	1	667	0	0			0	0			1				0	
6.6.1	win	2023-07-12	20:51:49	20:58:34	401307	6282a9b9015ed5c3dbf566b3	4	1	main_z	7	advance_on_keypress_ZEE	36	stimuli_distractor_diamondtriangles.svg	stimuli_target_diamondrectangles.svg	31	yes	57	0	395	0	0			0	0			1				0	
6.6.1	win	2023-07-12	20:51:49	20:58:35	403140	6282a9b9015ed5c3dbf566b3	4	1	main_z	7	main_z	37	stimuli_target_trianglesquares.svg	stimuli_distractor_trianglediamonds.svg	18	yes	44	1	785	0	0			0	0			1				0	
6.6.1	win	2023-07-12	20:51:49	20:58:35	403140	6282a9b9015ed5c3dbf566b3	4	1	main_z	7	advance_on_keypress_ZEE	38	stimuli_target_trianglesquares.svg	stimuli_distractor_trianglediamonds.svg	18	yes	57	0	571	0	0			0	0			1				0	
6.6.1	win	2023-07-12	20:51:49	20:58:37	404971	6282a9b9015ed5c3dbf566b3	4	1	main_z	7	main_z	39	stimuli_target_squaretriangles.svg	stimuli_distractor_trianglediamonds.svg	3	yes	44	1	617	0	0			0	0			1				0	
6.6.1	win	2023-07-12	20:51:49	20:58:37	404971	6282a9b9015ed5c3dbf566b3	4	1	main_z	7	advance_on_keypress_ZEE	40	stimuli_target_squaretriangles.svg	stimuli_distractor_trianglediamonds.svg	3	yes	57	0	489	0	0			0	0			1				0	
6.6.1	win	2023-07-12	20:51:49	20:58:39	406671	6282a9b9015ed5c3dbf566b3	4	1	main_z	7	main_z	41	stimuli_distractor_diamondtriangles.svg	stimuli_target_trianglesquares.svg	30	yes	44	1	569	0	0			0	0			1				0	
6.6.1	win	2023-07-12	20:51:49	20:58:39	406671	6282a9b9015ed5c3dbf566b3	4	1	main_z	7	advance_on_keypress_ZEE	42	stimuli_distractor_diamondtriangles.svg	stimuli_target_trianglesquares.svg	30	yes	57	0	536	0	0			0	0			1				0	
6.6.1	win	2023-07-12	20:51:49	20:58:41	408513	6282a9b9015ed5c3dbf566b3	4	1	main_z	7	main_z	43	stimuli_target_rectangletriangles.svg	stimuli_distractor_trianglediamonds.svg	1	yes	44	1	661	0	0			0	0			1				0	
6.6.1	win	2023-07-12	20:51:49	20:58:41	408513	6282a9b9015ed5c3dbf566b3	4	1	main_z	7	advance_on_keypress_ZEE	44	stimuli_target_rectangletriangles.svg	stimuli_distractor_trianglediamonds.svg	1	yes	57	0	539	0	0			0	0			1				0	
6.6.1	win	2023-07-12	20:51:49	20:58:42	410141	6282a9b9015ed5c3dbf566b3	4	1	main_z	7	main_z	45	stimuli_distractor_trianglediamonds.svg	stimuli_target_rectanglediamonds.svg	10	yes	44	1	439	0	0			0	0			1				0	
6.6.1	win	2023-07-12	20:51:49	20:58:42	410141	6282a9b9015ed5c3dbf566b3	4	1	main_z	7	advance_on_keypress_ZEE	46	stimuli_distractor_trianglediamonds.svg	stimuli_target_rectanglediamonds.svg	10	yes	57	0	432	0	0			0	0			1				0	
6.6.1	win	2023-07-12	20:51:49	20:58:44	411626	6282a9b9015ed5c3dbf566b3	4	1	main_z	7	main_z	47	stimuli_target_diamondsquares.svg	stimuli_distractor_diamondtriangles.svg	24	yes	44	1	411	0	0			0	0			1				0	
6.6.1	win	2023-07-12	20:51:49	20:58:44	411626	6282a9b9015ed5c3dbf566b3	4	1	main_z	7	advance_on_keypress_ZEE	48	stimuli_target_diamondsquares.svg	stimuli_distractor_diamondtriangles.svg	24	yes	57	0	399	0	0			0	0			1				0	
6.6.1	win	2023-07-12	20:51:49	20:58:45	413072	6282a9b9015ed5c3dbf566b3	4	1	main_z	7	main_z	49	stimuli_target_diamondrectangles.svg	stimuli_distractor_trianglediamonds.svg	19	yes	44	1	391	0	0			0	0			1				0	
6.6.1	win	2023-07-12	20:51:49	20:58:45	413072	6282a9b9015ed5c3dbf566b3	4	1	main_z	7	advance_on_keypress_ZEE	50	stimuli_target_diamondrectangles.svg	stimuli_distractor_trianglediamonds.svg	19	yes	57	0	413	0	0			0	0			1				0	
6.6.1	win	2023-07-12	20:51:49	20:58:47	414451	6282a9b9015ed5c3dbf566b3	4	1	main_z	7	main_z	51	stimuli_target_trianglerectangles.svg	stimuli_distractor_trianglediamonds.svg	17	yes	44	1	323	0	0			0	0			1				0	
6.6.1	win	2023-07-12	20:51:49	20:58:47	414451	6282a9b9015ed5c3dbf566b3	4	1	main_z	7	advance_on_keypress_ZEE	52	stimuli_target_trianglerectangles.svg	stimuli_distractor_trianglediamonds.svg	17	yes	57	0	577	0	0			0	0			1				0	
6.6.1	win	2023-07-12	20:51:49	20:58:48	415934	6282a9b9015ed5c3dbf566b3	4	1	main_z	7	main_z	53	stimuli_distractor_trianglediamonds.svg	stimuli_target_trianglesquares.svg	26	yes	44	1	257	0	0			0	0			1				0	
6.6.1	win	2023-07-12	20:51:49	20:58:48	415934	6282a9b9015ed5c3dbf566b3	4	1	main_z	7	advance_on_keypress_ZEE	54	stimuli_distractor_trianglediamonds.svg	stimuli_target_trianglesquares.svg	26	yes	57	0	593	0	0			0	0			1				0	
6.6.1	win	2023-07-12	20:51:49	20:58:50	417563	6282a9b9015ed5c3dbf566b3	4	1	main_z	7	main_z	55	stimuli_distractor_trianglediamonds.svg	stimuli_distractor_trianglediamonds.svg	34	no	44	0	403	0	0			0	0			1				0	
6.6.1	win	2023-07-12	20:51:49	20:58:50	417563	6282a9b9015ed5c3dbf566b3	4	1	main_z	7	advance_on_keypress_ZEE	56	stimuli_distractor_trianglediamonds.svg	stimuli_distractor_trianglediamonds.svg	34	no	57	0	673	0	0			0	0			1				0	
6.6.1	win	2023-07-12	20:51:49	20:58:52	420019	6282a9b9015ed5c3dbf566b3	4	1	main_z	7	main_z	57	stimuli_distractor_diamondtriangles.svg	stimuli_target_trianglerectangles.svg	29	yes	44	1	1145	0	0			0	0			1				0	
6.6.1	win	2023-07-12	20:51:49	20:58:52	420019	6282a9b9015ed5c3dbf566b3	4	1	main_z	7	advance_on_keypress_ZEE	58	stimuli_distractor_diamondtriangles.svg	stimuli_target_trianglerectangles.svg	29	yes	57	0	2013	0	0			0	0			1				0	
6.6.1	win	2023-07-12	20:51:49	20:58:56	423317	6282a9b9015ed5c3dbf566b3	4	1	main_z	7	main_z	59	stimuli_target_diamondsquares.svg	stimuli_distractor_trianglediamonds.svg	20	yes	44	1	629	0	0			0	0			1				0	
6.6.1	win	2023-07-12	20:51:49	20:58:56	423317	6282a9b9015ed5c3dbf566b3	4	1	main_z	7	advance_on_keypress_ZEE	60	stimuli_target_diamondsquares.svg	stimuli_distractor_trianglediamonds.svg	20	yes	57	0	972	0	0			0	0			1				0	
6.6.1	win	2023-07-12	20:51:49	20:58:59	426936	6282a9b9015ed5c3dbf566b3	4	1	main_z	7	main_z	61	stimuli_distractor_diamondtriangles.svg	stimuli_distractor_trianglediamonds.svg	37	no	0	1	2000	0	0			0	0			1				0	
6.6.1	win	2023-07-12	20:51:49	20:58:59	426936	6282a9b9015ed5c3dbf566b3	4	1	main_z	7	advance_on_keypress_ZEE	62	stimuli_distractor_diamondtriangles.svg	stimuli_distractor_trianglediamonds.svg	37	no	57	0	414	0	0			0	0			1				0	
6.6.1	win	2023-07-12	20:51:49	20:59:01	428619	6282a9b9015ed5c3dbf566b3	4	1	main_z	7	main_z	63	stimuli_distractor_trianglediamonds.svg	stimuli_target_squaretriangles.svg	11	yes	44	1	619	0	0			0	0			1				0	
6.6.1	win	2023-07-12	20:51:49	20:59:01	428619	6282a9b9015ed5c3dbf566b3	4	1	main_z	7	advance_on_keypress_ZEE	64	stimuli_distractor_trianglediamonds.svg	stimuli_target_squaretriangles.svg	11	yes	57	0	430	0	0			0	0			1				0	
6.6.1	win	2023-07-12	20:51:49	20:59:03	430482	6282a9b9015ed5c3dbf566b3	4	1	main_z	7	main_z	65	stimuli_target_diamondrectangles.svg	stimuli_distractor_diamondtriangles.svg	23	yes	44	1	783	0	0			0	0			1				0	
6.6.1	win	2023-07-12	20:51:49	20:59:03	430482	6282a9b9015ed5c3dbf566b3	4	1	main_z	7	advance_on_keypress_ZEE	66	stimuli_target_diamondrectangles.svg	stimuli_distractor_diamondtriangles.svg	23	yes	57	0	520	0	0			0	0			1				0	
6.6.1	win	2023-07-12	20:51:49	20:59:04	432183	6282a9b9015ed5c3dbf566b3	4	1	main_z	7	main_z	67	stimuli_target_trianglerectangles.svg	stimuli_distractor_diamondtriangles.svg	21	yes	44	1	537	0	0			0	0			1				0	
6.6.1	win	2023-07-12	20:51:49	20:59:04	432183	6282a9b9015ed5c3dbf566b3	4	1	main_z	7	advance_on_keypress_ZEE	68	stimuli_target_trianglerectangles.svg	stimuli_distractor_diamondtriangles.svg	21	yes	57	0	525	0	0			0	0			1				0	
6.6.1	win	2023-07-12	20:51:49	20:59:06	433751	6282a9b9015ed5c3dbf566b3	4	1	main_z	7	main_z	69	stimuli_target_squarediamonds.svg	stimuli_distractor_trianglediamonds.svg	4	yes	44	1	405	0	0			0	0			1				0	
6.6.1	win	2023-07-12	20:51:49	20:59:06	433751	6282a9b9015ed5c3dbf566b3	4	1	main_z	7	advance_on_keypress_ZEE	70	stimuli_target_squarediamonds.svg	stimuli_distractor_trianglediamonds.svg	4	yes	57	0	406	0	0			0	0			1				0	
6.6.1	win	2023-07-12	20:51:49	20:59:08	435480	6282a9b9015ed5c3dbf566b3	4	1	main_z	7	main_z	71	stimuli_distractor_diamondtriangles.svg	stimuli_target_squaretriangles.svg	15	yes	44	1	685	0	0			0	0			1				0	
6.6.1	win	2023-07-12	20:51:49	20:59:08	435480	6282a9b9015ed5c3dbf566b3	4	1	main_z	7	advance_on_keypress_ZEE	72	stimuli_distractor_diamondtriangles.svg	stimuli_target_squaretriangles.svg	15	yes	57	0	594	0	0			0	0			1				0	
6.6.1	win	2023-07-12	20:51:49	20:59:11	438725	6282a9b9015ed5c3dbf566b3	4	1	main_z	7	main_z	73	stimuli_distractor_trianglediamonds.svg	stimuli_distractor_diamondtriangles.svg	36	no	0	1	2000	0	0			0	0			1				0	
6.6.1	win	2023-07-12	20:51:49	20:59:11	438725	6282a9b9015ed5c3dbf566b3	4	1	main_z	7	advance_on_keypress_ZEE	74	stimuli_distractor_trianglediamonds.svg	stimuli_distractor_diamondtriangles.svg	36	no	57	0	323	0	0			0	0			1				0	
6.6.1	win	2023-07-12	20:51:49	20:59:12	440210	6282a9b9015ed5c3dbf566b3	4	1	main_z	7	main_z	75	stimuli_distractor_trianglediamonds.svg	stimuli_target_diamondsquares.svg	28	yes	44	1	521	0	0			0	0			1				0	
6.6.1	win	2023-07-12	20:51:49	20:59:12	440210	6282a9b9015ed5c3dbf566b3	4	1	main_z	7	advance_on_keypress_ZEE	76	stimuli_distractor_trianglediamonds.svg	stimuli_target_diamondsquares.svg	28	yes	57	0	405	0	0			0	0			1				0	
6.6.1	win	2023-07-12	20:51:49	20:59:14	441971	6282a9b9015ed5c3dbf566b3	4	1	main_z	7	main_z	77	stimuli_target_trianglesquares.svg	stimuli_distractor_diamondtriangles.svg	22	yes	44	1	715	0	0			0	0			1				0	
6.6.1	win	2023-07-12	20:51:49	20:59:14	441971	6282a9b9015ed5c3dbf566b3	4	1	main_z	7	advance_on_keypress_ZEE	78	stimuli_target_trianglesquares.svg	stimuli_distractor_diamondtriangles.svg	22	yes	57	0	420	0	0			0	0			1				0	
6.6.1	win	2023-07-12	20:51:49	20:59:17	445036	6282a9b9015ed5c3dbf566b3	4	1	main_z	7	main_z	79	stimuli_distractor_trianglediamonds.svg	stimuli_distractor_trianglediamonds.svg	33	no	0	1	2000	0	0			0	0			1				0	
6.6.1	win	2023-07-12	20:51:49	20:59:17	445036	6282a9b9015ed5c3dbf566b3	4	1	main_z	7	advance_on_keypress_ZEE	80	stimuli_distractor_trianglediamonds.svg	stimuli_distractor_trianglediamonds.svg	33	no	57	0	56222	0	0			0	0			1				0	
6.6.1	win	2023-07-12	20:51:49	21:00:15	502324	6282a9b9015ed5c3dbf566b3	4	1	main_z	7	main_z	81	stimuli_target_trianglesquares.svg	stimuli_distractor_diamondtriangles.svg	22	yes	44	1	422	0	0			0	0			1				0	
6.6.1	win	2023-07-12	20:51:49	21:00:15	502324	6282a9b9015ed5c3dbf566b3	4	1	main_z	7	advance_on_keypress_ZEE	82	stimuli_target_trianglesquares.svg	stimuli_distractor_diamondtriangles.svg	22	yes	57	0	381	0	0			0	0			1				0	
6.6.1	win	2023-07-12	20:51:49	21:00:16	503859	6282a9b9015ed5c3dbf566b3	4	1	main_z	7	main_z	83	stimuli_distractor_trianglediamonds.svg	stimuli_target_trianglerectangles.svg	25	yes	44	1	507	0	0			0	0			1				0	
6.6.1	win	2023-07-12	20:51:49	21:00:16	503859	6282a9b9015ed5c3dbf566b3	4	1	main_z	7	advance_on_keypress_ZEE	84	stimuli_distractor_trianglediamonds.svg	stimuli_target_trianglerectangles.svg	25	yes	57	0	1555	0	0			0	0			1				0	
6.6.1	win	2023-07-12	20:51:49	21:00:19	506371	6282a9b9015ed5c3dbf566b3	4	1	main_z	7	main_z	85	stimuli_target_trianglesquares.svg	stimuli_distractor_trianglediamonds.svg	18	yes	44	1	322	0	0			0	0			1				0	
6.6.1	win	2023-07-12	20:51:49	21:00:19	506371	6282a9b9015ed5c3dbf566b3	4	1	main_z	7	advance_on_keypress_ZEE	86	stimuli_target_trianglesquares.svg	stimuli_distractor_trianglediamonds.svg	18	yes	57	0	489	0	0			0	0			1				0	
6.6.1	win	2023-07-12	20:51:49	21:00:20	508156	6282a9b9015ed5c3dbf566b3	4	1	main_z	7	main_z	87	stimuli_distractor_trianglediamonds.svg	stimuli_target_rectanglediamonds.svg	10	yes	44	1	659	0	0			0	0			1				0	
6.6.1	win	2023-07-12	20:51:49	21:00:20	508156	6282a9b9015ed5c3dbf566b3	4	1	main_z	7	advance_on_keypress_ZEE	88	stimuli_distractor_trianglediamonds.svg	stimuli_target_rectanglediamonds.svg	10	yes	57	0	404	0	0			0	0			1				0	
6.6.1	win	2023-07-12	20:51:49	21:00:23	511195	6282a9b9015ed5c3dbf566b3	4	1	main_z	7	main_z	89	stimuli_distractor_trianglediamonds.svg	stimuli_distractor_diamondtriangles.svg	35	no	0	1	2000	0	0			0	0			1				0	
6.6.1	win	2023-07-12	20:51:49	21:00:23	511195	6282a9b9015ed5c3dbf566b3	4	1	main_z	7	advance_on_keypress_ZEE	90	stimuli_distractor_trianglediamonds.svg	stimuli_distractor_diamondtriangles.svg	35	no	57	0	423	0	0			0	0			1				0	
6.6.1	win	2023-07-12	20:51:49	21:00:25	512801	6282a9b9015ed5c3dbf566b3	4	1	main_z	7	main_z	91	stimuli_distractor_trianglediamonds.svg	stimuli_target_diamondsquares.svg	28	yes	44	1	542	0	0			0	0			1				0	
6.6.1	win	2023-07-12	20:51:49	21:00:25	512801	6282a9b9015ed5c3dbf566b3	4	1	main_z	7	advance_on_keypress_ZEE	92	stimuli_distractor_trianglediamonds.svg	stimuli_target_diamondsquares.svg	28	yes	57	0	367	0	0			0	0			1				0	
6.6.1	win	2023-07-12	20:51:49	21:00:28	515808	6282a9b9015ed5c3dbf566b3	4	1	main_z	7	main_z	93	stimuli_distractor_trianglediamonds.svg	stimuli_distractor_trianglediamonds.svg	33	no	0	1	2000	0	0			0	0			1				0	
6.6.1	win	2023-07-12	20:51:49	21:00:28	515808	6282a9b9015ed5c3dbf566b3	4	1	main_z	7	advance_on_keypress_ZEE	94	stimuli_distractor_trianglediamonds.svg	stimuli_distractor_trianglediamonds.svg	33	no	57	0	506	0	0			0	0			1				0	
6.6.1	win	2023-07-12	20:51:49	21:00:30	517454	6282a9b9015ed5c3dbf566b3	4	1	main_z	7	main_z	95	stimuli_distractor_diamondtriangles.svg	stimuli_target_squarediamonds.svg	16	yes	44	1	499	0	0			0	0			1				0	
6.6.1	win	2023-07-12	20:51:49	21:00:30	517454	6282a9b9015ed5c3dbf566b3	4	1	main_z	7	advance_on_keypress_ZEE	96	stimuli_distractor_diamondtriangles.svg	stimuli_target_squarediamonds.svg	16	yes	57	0	454	0	0			0	0			1				0	
6.6.1	win	2023-07-12	20:51:49	21:00:31	518958	6282a9b9015ed5c3dbf566b3	4	1	main_z	7	main_z	97	stimuli_target_squarediamonds.svg	stimuli_distractor_trianglediamonds.svg	4	yes	44	1	404	0	0			0	0			1				0	
6.6.1	win	2023-07-12	20:51:49	21:00:31	518958	6282a9b9015ed5c3dbf566b3	4	1	main_z	7	advance_on_keypress_ZEE	98	stimuli_target_squarediamonds.svg	stimuli_distractor_trianglediamonds.svg	4	yes	57	0	463	0	0			0	0			1				0	
6.6.1	win	2023-07-12	20:51:49	21:00:33	520502	6282a9b9015ed5c3dbf566b3	4	1	main_z	7	main_z	99	stimuli_target_rectanglediamonds.svg	stimuli_distractor_diamondtriangles.svg	6	yes	44	1	432	0	0			0	0			1				0	
6.6.1	win	2023-07-12	20:51:49	21:00:33	520502	6282a9b9015ed5c3dbf566b3	4	1	main_z	7	advance_on_keypress_ZEE	100	stimuli_target_rectanglediamonds.svg	stimuli_distractor_diamondtriangles.svg	6	yes	57	0	30801	0	0			0	0			1				0	
6.6.1	win	2023-07-12	20:51:49	21:01:05	552575	6282a9b9015ed5c3dbf566b3	4	1	main_z	7	main_z	101	stimuli_distractor_diamondtriangles.svg	stimuli_target_trianglerectangles.svg	29	yes	44	1	617	0	0			0	0			1				0	
6.6.1	win	2023-07-12	20:51:49	21:01:05	552575	6282a9b9015ed5c3dbf566b3	4	1	main_z	7	advance_on_keypress_ZEE	102	stimuli_distractor_diamondtriangles.svg	stimuli_target_trianglerectangles.svg	29	yes	57	0	543	0	0			0	0			1				0	
6.6.1	win	2023-07-12	20:51:49	21:01:06	554200	6282a9b9015ed5c3dbf566b3	4	1	main_z	7	main_z	103	stimuli_target_rectanglediamonds.svg	stimuli_distractor_trianglediamonds.svg	2	yes	44	1	444	0	0			0	0			1				0	
6.6.1	win	2023-07-12	20:51:49	21:01:06	554200	6282a9b9015ed5c3dbf566b3	4	1	main_z	7	advance_on_keypress_ZEE	104	stimuli_target_rectanglediamonds.svg	stimuli_distractor_trianglediamonds.svg	2	yes	57	0	19804	0	0			0	0			1				0	
6.6.1	win	2023-07-12	20:51:49	21:01:29	576639	6282a9b9015ed5c3dbf566b3	4	1	main_z	7	main_z	105	stimuli_distractor_diamondtriangles.svg	stimuli_distractor_trianglediamonds.svg	37	no	0	1	2000	0	0			0	0			1				0	
6.6.1	win	2023-07-12	20:51:49	21:01:29	576639	6282a9b9015ed5c3dbf566b3	4	1	main_z	7	advance_on_keypress_ZEE	106	stimuli_distractor_diamondtriangles.svg	stimuli_distractor_trianglediamonds.svg	37	no	57	0	337	0	0			0	0			1				0	
6.6.1	win	2023-07-12	20:51:49	21:01:30	578033	6282a9b9015ed5c3dbf566b3	4	1	main_z	7	main_z	107	stimuli_target_rectangletriangles.svg	stimuli_distractor_diamondtriangles.svg	5	yes	44	1	413	0	0			0	0			1				0	
6.6.1	win	2023-07-12	20:51:49	21:01:30	578033	6282a9b9015ed5c3dbf566b3	4	1	main_z	7	advance_on_keypress_ZEE	108	stimuli_target_rectangletriangles.svg	stimuli_distractor_diamondtriangles.svg	5	yes	57	0	334	0	0			0	0			1				0	
6.6.1	win	2023-07-12	20:51:49	21:01:32	579393	6282a9b9015ed5c3dbf566b3	4	1	main_z	7	main_z	109	stimuli_target_rectangletriangles.svg	stimuli_distractor_trianglediamonds.svg	1	yes	44	1	373	0	0			0	0			1				0	
6.6.1	win	2023-07-12	20:51:49	21:01:32	579393	6282a9b9015ed5c3dbf566b3	4	1	main_z	7	advance_on_keypress_ZEE	110	stimuli_target_rectangletriangles.svg	stimuli_distractor_trianglediamonds.svg	1	yes	57	0	375	0	0			0	0			1				0	
6.6.1	win	2023-07-12	20:51:49	21:01:33	580906	6282a9b9015ed5c3dbf566b3	4	1	main_z	7	main_z	111	stimuli_distractor_diamondtriangles.svg	stimuli_target_diamondrectangles.svg	31	yes	44	1	502	0	0			0	0			1				0	
6.6.1	win	2023-07-12	20:51:49	21:01:33	580906	6282a9b9015ed5c3dbf566b3	4	1	main_z	7	advance_on_keypress_ZEE	112	stimuli_distractor_diamondtriangles.svg	stimuli_target_diamondrectangles.svg	31	yes	57	0	414	0	0			0	0			1				0	
6.6.1	win	2023-07-12	20:51:49	21:01:35	582356	6282a9b9015ed5c3dbf566b3	4	1	main_z	7	main_z	113	stimuli_target_squarediamonds.svg	stimuli_distractor_diamondtriangles.svg	8	yes	44	1	391	0	0			0	0			1				0	
6.6.1	win	2023-07-12	20:51:49	21:01:35	582356	6282a9b9015ed5c3dbf566b3	4	1	main_z	7	advance_on_keypress_ZEE	114	stimuli_target_squarediamonds.svg	stimuli_distractor_diamondtriangles.svg	8	yes	57	0	895	0	0			0	0			1				0	
6.6.1	win	2023-07-12	20:51:49	21:01:38	585896	6282a9b9015ed5c3dbf566b3	4	1	main_z	7	main_z	115	stimuli_distractor_trianglediamonds.svg	stimuli_target_rectangletriangles.svg	9	yes	0	0	2000	0	0			0	0			1				0	
6.6.1	win	2023-07-12	20:51:49	21:01:38	585896	6282a9b9015ed5c3dbf566b3	4	1	main_z	7	advance_on_keypress_ZEE	116	stimuli_distractor_trianglediamonds.svg	stimuli_target_rectangletriangles.svg	9	yes	57	0	1941	0	0			0	0			1				0	
6.6.1	win	2023-07-12	20:51:49	21:01:41	588814	6282a9b9015ed5c3dbf566b3	4	1	main_z	7	main_z	117	stimuli_target_diamondrectangles.svg	stimuli_distractor_trianglediamonds.svg	19	yes	44	1	338	0	0			0	0			1				0	
6.6.1	win	2023-07-12	20:51:49	21:01:41	588814	6282a9b9015ed5c3dbf566b3	4	1	main_z	7	advance_on_keypress_ZEE	118	stimuli_target_diamondrectangles.svg	stimuli_distractor_trianglediamonds.svg	19	yes	57	0	746	0	0			0	0			1				0	
6.6.1	win	2023-07-12	20:51:49	21:01:43	590568	6282a9b9015ed5c3dbf566b3	4	1	main_z	7	main_z	119	stimuli_target_diamondsquares.svg	stimuli_distractor_trianglediamonds.svg	20	yes	44	1	356	0	0			0	0			1				0	
6.6.1	win	2023-07-12	20:51:49	21:01:43	590568	6282a9b9015ed5c3dbf566b3	4	1	main_z	7	advance_on_keypress_ZEE	120	stimuli_target_diamondsquares.svg	stimuli_distractor_trianglediamonds.svg	20	yes	57	0	1159	0	0			0	0			1				0	
6.6.1	win	2023-07-12	20:51:49	21:01:45	592649	6282a9b9015ed5c3dbf566b3	4	1	main_z	7	main_z	121	stimuli_distractor_diamondtriangles.svg	stimuli_distractor_diamondtriangles.svg	40	no	44	0	276	0	0			0	0			1				0	
6.6.1	win	2023-07-12	20:51:49	21:01:45	592649	6282a9b9015ed5c3dbf566b3	4	1	main_z	7	advance_on_keypress_ZEE	122	stimuli_distractor_diamondtriangles.svg	stimuli_distractor_diamondtriangles.svg	40	no	57	0	840	0	0			0	0			1				0	
6.6.1	win	2023-07-12	20:51:49	21:01:47	594606	6282a9b9015ed5c3dbf566b3	4	1	main_z	7	main_z	123	stimuli_distractor_diamondtriangles.svg	stimuli_target_rectanglediamonds.svg	14	yes	44	1	468	0	0			0	0			1				0	
6.6.1	win	2023-07-12	20:51:49	21:01:47	594606	6282a9b9015ed5c3dbf566b3	4	1	main_z	7	advance_on_keypress_ZEE	124	stimuli_distractor_diamondtriangles.svg	stimuli_target_rectanglediamonds.svg	14	yes	57	0	397	0	0			0	0			1				0	
6.6.1	win	2023-07-12	20:51:49	21:01:48	596067	6282a9b9015ed5c3dbf566b3	4	1	main_z	7	main_z	125	stimuli_distractor_trianglediamonds.svg	stimuli_target_diamondrectangles.svg	27	yes	44	1	414	0	0			0	0			1				0	
6.6.1	win	2023-07-12	20:51:49	21:01:48	596067	6282a9b9015ed5c3dbf566b3	4	1	main_z	7	advance_on_keypress_ZEE	126	stimuli_distractor_trianglediamonds.svg	stimuli_target_diamondrectangles.svg	27	yes	57	0	14271	0	0			0	0			1				0	
6.6.1	win	2023-07-12	20:51:49	21:02:04	611424	6282a9b9015ed5c3dbf566b3	4	1	main_z	7	main_z	127	stimuli_distractor_diamondtriangles.svg	stimuli_target_diamondsquares.svg	32	yes	44	1	434	0	0			0	0			1				0	
6.6.1	win	2023-07-12	20:51:49	21:02:04	611424	6282a9b9015ed5c3dbf566b3	4	1	main_z	7	advance_on_keypress_ZEE	128	stimuli_distractor_diamondtriangles.svg	stimuli_target_diamondsquares.svg	32	yes	57	0	1408	0	0			0	0			1				0	
6.6.1	win	2023-07-12	20:51:49	21:02:06	613934	6282a9b9015ed5c3dbf566b3	4	1	main_z	7	main_z	129	stimuli_target_diamondrectangles.svg	stimuli_distractor_diamondtriangles.svg	23	yes	44	1	463	0	0			0	0			1				0	
6.6.1	win	2023-07-12	20:51:49	21:02:06	613934	6282a9b9015ed5c3dbf566b3	4	1	main_z	7	advance_on_keypress_ZEE	130	stimuli_target_diamondrectangles.svg	stimuli_distractor_diamondtriangles.svg	23	yes	57	0	357	0	0			0	0			1				0	
6.6.1	win	2023-07-12	20:51:49	21:02:08	615426	6282a9b9015ed5c3dbf566b3	4	1	main_z	7	main_z	131	stimuli_distractor_diamondtriangles.svg	stimuli_target_trianglesquares.svg	30	yes	44	1	491	0	0			0	0			1				0	
6.6.1	win	2023-07-12	20:51:49	21:02:08	615426	6282a9b9015ed5c3dbf566b3	4	1	main_z	7	advance_on_keypress_ZEE	132	stimuli_distractor_diamondtriangles.svg	stimuli_target_trianglesquares.svg	30	yes	57	0	121531	0	0			0	0			1				0	
6.6.1	win	2023-07-12	20:51:49	21:04:10	738123	6282a9b9015ed5c3dbf566b3	4	1	main_z	7	main_z	133	stimuli_distractor_diamondtriangles.svg	stimuli_distractor_trianglediamonds.svg	38	no	44	0	528	0	0			0	0			1				0	
6.6.1	win	2023-07-12	20:51:49	21:04:10	738123	6282a9b9015ed5c3dbf566b3	4	1	main_z	7	advance_on_keypress_ZEE	134	stimuli_distractor_diamondtriangles.svg	stimuli_distractor_trianglediamonds.svg	38	no	57	0	468	0	0			0	0			1				0	
6.6.1	win	2023-07-12	20:51:49	21:04:12	739892	6282a9b9015ed5c3dbf566b3	4	1	main_z	7	main_z	135	stimuli_distractor_trianglediamonds.svg	stimuli_target_trianglesquares.svg	26	yes	44	1	647	0	0			0	0			1				0	
6.6.1	win	2023-07-12	20:51:49	21:04:12	739892	6282a9b9015ed5c3dbf566b3	4	1	main_z	7	advance_on_keypress_ZEE	136	stimuli_distractor_trianglediamonds.svg	stimuli_target_trianglesquares.svg	26	yes	57	0	1225	0	0			0	0			1				0	
6.6.1	win	2023-07-12	20:51:49	21:04:14	742110	6282a9b9015ed5c3dbf566b3	4	1	main_z	7	main_z	137	stimuli_distractor_trianglediamonds.svg	stimuli_target_squarediamonds.svg	12	yes	44	1	351	0	0			0	0			1				0	
6.6.1	win	2023-07-12	20:51:49	21:04:14	742110	6282a9b9015ed5c3dbf566b3	4	1	main_z	7	advance_on_keypress_ZEE	138	stimuli_distractor_trianglediamonds.svg	stimuli_target_squarediamonds.svg	12	yes	57	0	639	0	0			0	0			1				0	
6.6.1	win	2023-07-12	20:51:49	21:04:16	743865	6282a9b9015ed5c3dbf566b3	4	1	main_z	7	main_z	139	stimuli_target_trianglerectangles.svg	stimuli_distractor_diamondtriangles.svg	21	yes	44	1	474	0	0			0	0			1				0	
6.6.1	win	2023-07-12	20:51:49	21:04:16	743865	6282a9b9015ed5c3dbf566b3	4	1	main_z	7	advance_on_keypress_ZEE	140	stimuli_target_trianglerectangles.svg	stimuli_distractor_diamondtriangles.svg	21	yes	57	0	464	0	0			0	0			1				0	
6.6.1	win	2023-07-12	20:51:49	21:04:18	745722	6282a9b9015ed5c3dbf566b3	4	1	main_z	7	main_z	141	stimuli_distractor_diamondtriangles.svg	stimuli_target_rectangletriangles.svg	13	yes	44	1	749	0	0			0	0			1				0	
6.6.1	win	2023-07-12	20:51:49	21:04:18	745722	6282a9b9015ed5c3dbf566b3	4	1	main_z	7	advance_on_keypress_ZEE	142	stimuli_distractor_diamondtriangles.svg	stimuli_target_rectangletriangles.svg	13	yes	57	0	439	0	0			0	0			1				0	
6.6.1	win	2023-07-12	20:51:49	21:04:19	747275	6282a9b9015ed5c3dbf566b3	4	1	main_z	7	main_z	143	stimuli_target_diamondsquares.svg	stimuli_distractor_diamondtriangles.svg	24	yes	44	1	469	0	0			0	0			1				0	
6.6.1	win	2023-07-12	20:51:49	21:04:19	747275	6282a9b9015ed5c3dbf566b3	4	1	main_z	7	advance_on_keypress_ZEE	144	stimuli_target_diamondsquares.svg	stimuli_distractor_diamondtriangles.svg	24	yes	57	0	415	0	0			0	0			1				0	
6.6.1	win	2023-07-12	20:51:49	21:04:21	748644	6282a9b9015ed5c3dbf566b3	4	1	main_z	7	main_z	145	stimuli_distractor_diamondtriangles.svg	stimuli_distractor_diamondtriangles.svg	39	no	44	0	308	0	0			0	0			1				0	
6.6.1	win	2023-07-12	20:51:49	21:04:21	748644	6282a9b9015ed5c3dbf566b3	4	1	main_z	7	advance_on_keypress_ZEE	146	stimuli_distractor_diamondtriangles.svg	stimuli_distractor_diamondtriangles.svg	39	no	57	0	587	0	0			0	0			1				0	
6.6.1	win	2023-07-12	20:51:49	21:04:23	750350	6282a9b9015ed5c3dbf566b3	4	1	main_z	7	main_z	147	stimuli_target_squaretriangles.svg	stimuli_distractor_trianglediamonds.svg	3	yes	44	1	482	0	0			0	0			1				0	
6.6.1	win	2023-07-12	20:51:49	21:04:23	750350	6282a9b9015ed5c3dbf566b3	4	1	main_z	7	advance_on_keypress_ZEE	148	stimuli_target_squaretriangles.svg	stimuli_distractor_trianglediamonds.svg	3	yes	57	0	1888	0	0			0	0			1				0	
6.6.1	win	2023-07-12	20:51:49	21:04:25	753278	6282a9b9015ed5c3dbf566b3	4	1	main_z	7	main_z	149	stimuli_target_squaretriangles.svg	stimuli_distractor_diamondtriangles.svg	7	yes	44	1	397	0	0			0	0			1				0	
6.6.1	win	2023-07-12	20:51:49	21:04:25	753278	6282a9b9015ed5c3dbf566b3	4	1	main_z	7	advance_on_keypress_ZEE	150	stimuli_target_squaretriangles.svg	stimuli_distractor_diamondtriangles.svg	7	yes	57	0	673	0	0			0	0			1				0	
6.6.1	win	2023-07-12	20:51:49	21:04:27	755122	6282a9b9015ed5c3dbf566b3	4	1	main_z	7	main_z	151	stimuli_distractor_trianglediamonds.svg	stimuli_target_squaretriangles.svg	11	yes	44	1	524	0	0			0	0			1				0	
6.6.1	win	2023-07-12	20:51:49	21:04:27	755122	6282a9b9015ed5c3dbf566b3	4	1	main_z	7	advance_on_keypress_ZEE	152	stimuli_distractor_trianglediamonds.svg	stimuli_target_squaretriangles.svg	11	yes	57	0	1166	0	0			0	0			1				0	
6.6.1	win	2023-07-12	20:51:49	21:04:29	757262	6282a9b9015ed5c3dbf566b3	4	1	main_z	7	main_z	153	stimuli_distractor_diamondtriangles.svg	stimuli_target_squaretriangles.svg	15	yes	44	1	329	0	0			0	0			1				0	
6.6.1	win	2023-07-12	20:51:49	21:04:29	757262	6282a9b9015ed5c3dbf566b3	4	1	main_z	7	advance_on_keypress_ZEE	154	stimuli_distractor_diamondtriangles.svg	stimuli_target_squaretriangles.svg	15	yes	57	0	43366	0	0			0	0			1				0	
6.6.1	win	2023-07-12	20:51:49	21:05:15	803273	6282a9b9015ed5c3dbf566b3	4	1	main_z	7	main_z	155	stimuli_distractor_trianglediamonds.svg	stimuli_distractor_diamondtriangles.svg	36	no	0	1	2000	0	0			0	0			1				0	
6.6.1	win	2023-07-12	20:51:49	21:05:15	803273	6282a9b9015ed5c3dbf566b3	4	1	main_z	7	advance_on_keypress_ZEE	156	stimuli_distractor_trianglediamonds.svg	stimuli_distractor_diamondtriangles.svg	36	no	57	0	5357	0	0			0	0			1				0	
6.6.1	win	2023-07-12	20:51:49	21:05:23	811283	6282a9b9015ed5c3dbf566b3	4	1	main_z	7	main_z	157	stimuli_distractor_trianglediamonds.svg	stimuli_distractor_trianglediamonds.svg	34	no	0	1	2000	0	0			0	0			1				0	
6.6.1	win	2023-07-12	20:51:49	21:05:23	811283	6282a9b9015ed5c3dbf566b3	4	1	main_z	7	advance_on_keypress_ZEE	158	stimuli_distractor_trianglediamonds.svg	stimuli_distractor_trianglediamonds.svg	34	no	57	0	856	0	0			0	0			1				0	
6.6.1	win	2023-07-12	20:51:49	21:05:25	813248	6282a9b9015ed5c3dbf566b3	4	1	main_z	7	main_z	159	stimuli_target_trianglerectangles.svg	stimuli_distractor_trianglediamonds.svg	17	yes	44	1	468	0	0			0	0			1				0	
6.6.1	win	2023-07-12	20:51:49	21:05:25	813248	6282a9b9015ed5c3dbf566b3	4	1	main_z	7	advance_on_keypress_ZEE	160	stimuli_target_trianglerectangles.svg	stimuli_distractor_trianglediamonds.svg	17	yes	57	0	11090	0	0			0	0			1				0	
6.6.1	win	2023-07-12	20:51:49	21:06:45	892489	6282a9b9015ed5c3dbf566b3	4	1	practice_slash	9	practice_slash	1	stimuli_distractor_diamondtriangles.svg	stimuli_distractor_trianglediamonds.svg	14	no	53	0	543	0	0			0	0			1				0	
6.6.1	win	2023-07-12	20:51:49	21:06:45	892489	6282a9b9015ed5c3dbf566b3	4	1	practice_slash	9	advance_on_keypress_SLASH	2	stimuli_distractor_diamondtriangles.svg	stimuli_distractor_trianglediamonds.svg	14	no	57	0	487	0	0			0	0			1				0	
6.6.1	win	2023-07-12	20:51:49	21:06:47	895035	6282a9b9015ed5c3dbf566b3	4	1	practice_slash	9	practice_slash	3	stimuli_distractor_diamondtriangles.svg	stimuli_target_trianglerectangles.svg	9	yes	53	1	407	0	0			0	0			1				0	
6.6.1	win	2023-07-12	20:51:49	21:06:47	895035	6282a9b9015ed5c3dbf566b3	4	1	practice_slash	9	advance_on_keypress_SLASH	4	stimuli_distractor_diamondtriangles.svg	stimuli_target_trianglerectangles.svg	9	yes	57	0	533	0	0			0	0			1				0	
6.6.1	win	2023-07-12	20:51:49	21:06:50	897520	6282a9b9015ed5c3dbf566b3	4	1	practice_slash	9	practice_slash	5	stimuli_target_diamondsquares.svg	stimuli_distractor_diamondtriangles.svg	3	yes	53	1	311	0	0			0	0			1				0	
6.6.1	win	2023-07-12	20:51:49	21:06:50	897520	6282a9b9015ed5c3dbf566b3	4	1	practice_slash	9	advance_on_keypress_SLASH	6	stimuli_target_diamondsquares.svg	stimuli_distractor_diamondtriangles.svg	3	yes	57	0	36389	0	0			0	0			1				0	
6.6.1	win	2023-07-12	20:51:49	21:07:28	935931	6282a9b9015ed5c3dbf566b3	4	1	practice_slash	9	practice_slash	7	stimuli_target_squarediamonds.svg	stimuli_distractor_trianglediamonds.svg	5	yes	53	1	372	0	0			0	0			1				0	
6.6.1	win	2023-07-12	20:51:49	21:07:28	935931	6282a9b9015ed5c3dbf566b3	4	1	practice_slash	9	advance_on_keypress_SLASH	8	stimuli_target_squarediamonds.svg	stimuli_distractor_trianglediamonds.svg	5	yes	57	0	1438	0	0			0	0			1				0	
6.6.1	win	2023-07-12	20:51:49	21:07:32	939347	6282a9b9015ed5c3dbf566b3	4	1	practice_slash	9	practice_slash	9	stimuli_target_rectanglediamonds.svg	stimuli_distractor_trianglediamonds.svg	4	yes	53	1	341	0	0			0	0			1				0	
6.6.1	win	2023-07-12	20:51:49	21:07:32	939347	6282a9b9015ed5c3dbf566b3	4	1	practice_slash	9	advance_on_keypress_SLASH	10	stimuli_target_rectanglediamonds.svg	stimuli_distractor_trianglediamonds.svg	4	yes	57	0	585	0	0			0	0			1				0	
6.6.1	win	2023-07-12	20:51:49	21:07:34	941912	6282a9b9015ed5c3dbf566b3	4	1	practice_slash	9	practice_slash	11	stimuli_distractor_trianglediamonds.svg	stimuli_target_rectanglediamonds.svg	10	yes	53	1	326	0	0			0	0			1				0	
6.6.1	win	2023-07-12	20:51:49	21:07:34	941912	6282a9b9015ed5c3dbf566b3	4	1	practice_slash	9	advance_on_keypress_SLASH	12	stimuli_distractor_trianglediamonds.svg	stimuli_target_rectanglediamonds.svg	10	yes	57	0	689	0	0			0	0			1				0	
6.6.1	win	2023-07-12	20:51:49	21:07:37	944522	6282a9b9015ed5c3dbf566b3	4	1	practice_slash	9	practice_slash	13	stimuli_distractor_diamondtriangles.svg	stimuli_target_rectangletriangles.svg	7	yes	53	1	271	0	0			0	0			1				0	
6.6.1	win	2023-07-12	20:51:49	21:07:37	944522	6282a9b9015ed5c3dbf566b3	4	1	practice_slash	9	advance_on_keypress_SLASH	14	stimuli_distractor_diamondtriangles.svg	stimuli_target_rectangletriangles.svg	7	yes	57	0	530	0	0			0	0			1				0	
6.6.1	win	2023-07-12	20:51:49	21:07:39	947192	6282a9b9015ed5c3dbf566b3	4	1	practice_slash	9	practice_slash	15	stimuli_distractor_trianglediamonds.svg	stimuli_distractor_diamondtriangles.svg	16	no	53	0	493	0	0			0	0			1				0	
6.6.1	win	2023-07-12	20:51:49	21:07:39	947192	6282a9b9015ed5c3dbf566b3	4	1	practice_slash	9	advance_on_keypress_SLASH	16	stimuli_distractor_trianglediamonds.svg	stimuli_distractor_diamondtriangles.svg	16	no	57	0	680	0	0			0	0			1				0	
6.6.1	win	2023-07-12	20:51:49	21:07:42	949761	6282a9b9015ed5c3dbf566b3	4	1	practice_slash	9	practice_slash	17	stimuli_distractor_trianglediamonds.svg	stimuli_target_diamondrectangles.svg	12	yes	53	1	231	0	0			0	0			1				0	
6.6.1	win	2023-07-12	20:51:49	21:07:42	949761	6282a9b9015ed5c3dbf566b3	4	1	practice_slash	9	advance_on_keypress_SLASH	18	stimuli_distractor_trianglediamonds.svg	stimuli_target_diamondrectangles.svg	12	yes	57	0	792	0	0			0	0			1				0	
6.6.1	win	2023-07-12	20:51:49	21:07:46	954212	6282a9b9015ed5c3dbf566b3	4	1	practice_slash	9	practice_slash	19	stimuli_distractor_diamondtriangles.svg	stimuli_distractor_diamondtriangles.svg	13	no	0	1	2000	0	0			0	0			1				0	
6.6.1	win	2023-07-12	20:51:49	21:07:46	954212	6282a9b9015ed5c3dbf566b3	4	1	practice_slash	9	advance_on_keypress_SLASH	20	stimuli_distractor_diamondtriangles.svg	stimuli_distractor_diamondtriangles.svg	13	no	57	0	546	0	0			0	0			1				0	
6.6.1	win	2023-07-12	20:51:49	21:07:49	956811	6282a9b9015ed5c3dbf566b3	4	1	practice_slash	9	practice_slash	21	stimuli_target_diamondsquares.svg	stimuli_distractor_trianglediamonds.svg	6	yes	53	1	404	0	0			0	0			1				0	
6.6.1	win	2023-07-12	20:51:49	21:07:49	956811	6282a9b9015ed5c3dbf566b3	4	1	practice_slash	9	advance_on_keypress_SLASH	22	stimuli_target_diamondsquares.svg	stimuli_distractor_trianglediamonds.svg	6	yes	57	0	447	0	0			0	0			1				0	
6.6.1	win	2023-07-12	20:51:49	21:07:51	959281	6282a9b9015ed5c3dbf566b3	4	1	practice_slash	9	practice_slash	23	stimuli_distractor_trianglediamonds.svg	stimuli_target_squarediamonds.svg	11	yes	53	1	378	0	0			0	0			1				0	
6.6.1	win	2023-07-12	20:51:49	21:07:51	959281	6282a9b9015ed5c3dbf566b3	4	1	practice_slash	9	advance_on_keypress_SLASH	24	stimuli_distractor_trianglediamonds.svg	stimuli_target_squarediamonds.svg	11	yes	57	0	714	0	0			0	0			1				0	
6.6.1	win	2023-07-12	20:51:49	21:07:56	963652	6282a9b9015ed5c3dbf566b3	4	1	practice_slash	9	practice_slash	25	stimuli_distractor_trianglediamonds.svg	stimuli_distractor_trianglediamonds.svg	15	no	0	1	2000	0	0			0	0			1				0	
6.6.1	win	2023-07-12	20:51:49	21:07:56	963652	6282a9b9015ed5c3dbf566b3	4	1	practice_slash	9	advance_on_keypress_SLASH	26	stimuli_distractor_trianglediamonds.svg	stimuli_distractor_trianglediamonds.svg	15	no	57	0	399	0	0			0	0			1				0	
6.6.1	win	2023-07-12	20:51:49	21:07:58	966042	6282a9b9015ed5c3dbf566b3	4	1	practice_slash	9	practice_slash	27	stimuli_target_rectanglediamonds.svg	stimuli_distractor_diamondtriangles.svg	1	yes	53	1	342	0	0			0	0			1				0	
6.6.1	win	2023-07-12	20:51:49	21:07:58	966042	6282a9b9015ed5c3dbf566b3	4	1	practice_slash	9	advance_on_keypress_SLASH	28	stimuli_target_rectanglediamonds.svg	stimuli_distractor_diamondtriangles.svg	1	yes	57	0	669	0	0			0	0			1				0	
6.6.1	win	2023-07-12	20:51:49	21:08:01	968816	6282a9b9015ed5c3dbf566b3	4	1	practice_slash	9	practice_slash	29	stimuli_distractor_diamondtriangles.svg	stimuli_target_diamondrectangles.svg	8	yes	53	1	452	0	0			0	0			1				0	
6.6.1	win	2023-07-12	20:51:49	21:08:01	968816	6282a9b9015ed5c3dbf566b3	4	1	practice_slash	9	advance_on_keypress_SLASH	30	stimuli_distractor_diamondtriangles.svg	stimuli_target_diamondrectangles.svg	8	yes	57	0	374	0	0			0	0			1				0	
6.6.1	win	2023-07-12	20:51:49	21:08:03	971227	6282a9b9015ed5c3dbf566b3	4	1	practice_slash	9	practice_slash	31	stimuli_target_squarediamonds.svg	stimuli_distractor_diamondtriangles.svg	2	yes	53	1	399	0	0			0	0			1				0	
6.6.1	win	2023-07-12	20:51:49	21:08:03	971227	6282a9b9015ed5c3dbf566b3	4	1	practice_slash	9	advance_on_keypress_SLASH	32	stimuli_target_squarediamonds.svg	stimuli_distractor_diamondtriangles.svg	2	yes	57	0	417	0	0			0	0			1				0	
6.6.1	win	2023-07-12	20:51:49	21:08:08	976173	6282a9b9015ed5c3dbf566b3	4	1	main_slash	11	main_slash	1	stimuli_distractor_diamondtriangles.svg	stimuli_target_squarediamonds.svg	16	yes	53	1	432	0	0			0	0			1				0	
6.6.1	win	2023-07-12	20:51:49	21:08:08	976173	6282a9b9015ed5c3dbf566b3	4	1	main_slash	11	advance_on_keypress_SLASH	2	stimuli_distractor_diamondtriangles.svg	stimuli_target_squarediamonds.svg	16	yes	57	0	1026	0	0			0	0			1				0	
6.6.1	win	2023-07-12	20:51:49	21:08:10	978172	6282a9b9015ed5c3dbf566b3	4	1	main_slash	11	main_slash	3	stimuli_distractor_trianglediamonds.svg	stimuli_target_rectanglediamonds.svg	10	yes	53	1	336	0	0			0	0			1				0	
6.6.1	win	2023-07-12	20:51:49	21:08:10	978172	6282a9b9015ed5c3dbf566b3	4	1	main_slash	11	advance_on_keypress_SLASH	4	stimuli_distractor_trianglediamonds.svg	stimuli_target_rectanglediamonds.svg	10	yes	57	0	2636	0	0			0	0			1				0	
6.6.1	win	2023-07-12	20:51:49	21:08:16	983449	6282a9b9015ed5c3dbf566b3	4	1	main_slash	11	main_slash	5	stimuli_distractor_diamondtriangles.svg	stimuli_distractor_diamondtriangles.svg	40	no	0	1	2000	0	0			0	0			1				0	
6.6.1	win	2023-07-12	20:51:49	21:08:16	983449	6282a9b9015ed5c3dbf566b3	4	1	main_slash	11	advance_on_keypress_SLASH	6	stimuli_distractor_diamondtriangles.svg	stimuli_distractor_diamondtriangles.svg	40	no	57	0	754	0	0			0	0			1				0	
6.6.1	win	2023-07-12	20:51:49	21:08:17	985059	6282a9b9015ed5c3dbf566b3	4	1	main_slash	11	main_slash	7	stimuli_target_diamondsquares.svg	stimuli_distractor_diamondtriangles.svg	24	yes	53	1	213	0	0			0	0			1				0	
6.6.1	win	2023-07-12	20:51:49	21:08:17	985059	6282a9b9015ed5c3dbf566b3	4	1	main_slash	11	advance_on_keypress_SLASH	8	stimuli_target_diamondsquares.svg	stimuli_distractor_diamondtriangles.svg	24	yes	57	0	931	0	0			0	0			1				0	
6.6.1	win	2023-07-12	20:51:49	21:08:19	987052	6282a9b9015ed5c3dbf566b3	4	1	main_slash	11	main_slash	9	stimuli_target_rectangletriangles.svg	stimuli_distractor_trianglediamonds.svg	1	yes	53	1	407	0	0			0	0			1				0	
6.6.1	win	2023-07-12	20:51:49	21:08:19	987052	6282a9b9015ed5c3dbf566b3	4	1	main_slash	11	advance_on_keypress_SLASH	10	stimuli_target_rectangletriangles.svg	stimuli_distractor_trianglediamonds.svg	1	yes	57	0	747	0	0			0	0			1				0	
6.6.1	win	2023-07-12	20:51:49	21:08:21	988840	6282a9b9015ed5c3dbf566b3	4	1	main_slash	11	main_slash	11	stimuli_distractor_trianglediamonds.svg	stimuli_target_squaretriangles.svg	11	yes	53	1	397	0	0			0	0			1				0	
6.6.1	win	2023-07-12	20:51:49	21:08:21	988840	6282a9b9015ed5c3dbf566b3	4	1	main_slash	11	advance_on_keypress_SLASH	12	stimuli_distractor_trianglediamonds.svg	stimuli_target_squaretriangles.svg	11	yes	57	0	543	0	0			0	0			1				0	
6.6.1	win	2023-07-12	20:51:49	21:08:24	992041	6282a9b9015ed5c3dbf566b3	4	1	main_slash	11	main_slash	13	stimuli_distractor_diamondtriangles.svg	stimuli_target_trianglesquares.svg	30	yes	0	0	2000	0	0			0	0			1				0	
6.6.1	win	2023-07-12	20:51:49	21:08:24	992041	6282a9b9015ed5c3dbf566b3	4	1	main_slash	11	advance_on_keypress_SLASH	14	stimuli_distractor_diamondtriangles.svg	stimuli_target_trianglesquares.svg	30	yes	57	0	952	0	0			0	0			1				0	
6.6.1	win	2023-07-12	20:51:49	21:08:26	993984	6282a9b9015ed5c3dbf566b3	4	1	main_slash	11	main_slash	15	stimuli_distractor_trianglediamonds.svg	stimuli_target_diamondsquares.svg	28	yes	53	1	344	0	0			0	0			1				0	
6.6.1	win	2023-07-12	20:51:49	21:08:26	993984	6282a9b9015ed5c3dbf566b3	4	1	main_slash	11	advance_on_keypress_SLASH	16	stimuli_distractor_trianglediamonds.svg	stimuli_target_diamondsquares.svg	28	yes	57	0	651	0	0			0	0			1				0	
6.6.1	win	2023-07-12	20:51:49	21:08:28	995694	6282a9b9015ed5c3dbf566b3	4	1	main_slash	11	main_slash	17	stimuli_target_squaretriangles.svg	stimuli_distractor_trianglediamonds.svg	3	yes	53	1	408	0	0			0	0			1				0	
6.6.1	win	2023-07-12	20:51:49	21:08:28	995694	6282a9b9015ed5c3dbf566b3	4	1	main_slash	11	advance_on_keypress_SLASH	18	stimuli_target_squaretriangles.svg	stimuli_distractor_trianglediamonds.svg	3	yes	57	0	1164	0	0			0	0			1				0	
6.6.1	win	2023-07-12	20:51:49	21:08:30	997732	6282a9b9015ed5c3dbf566b3	4	1	main_slash	11	main_slash	19	stimuli_target_trianglerectangles.svg	stimuli_distractor_diamondtriangles.svg	21	yes	53	1	230	0	0			0	0			1				0	
6.6.1	win	2023-07-12	20:51:49	21:08:30	997732	6282a9b9015ed5c3dbf566b3	4	1	main_slash	11	advance_on_keypress_SLASH	20	stimuli_target_trianglerectangles.svg	stimuli_distractor_diamondtriangles.svg	21	yes	57	0	2407	0	0			0	0			1				0	
6.6.1	win	2023-07-12	20:51:49	21:08:33	1001036	6282a9b9015ed5c3dbf566b3	4	1	main_slash	11	main_slash	21	stimuli_distractor_trianglediamonds.svg	stimuli_target_diamondrectangles.svg	27	yes	53	1	237	0	0			0	0			1				0	
6.6.1	win	2023-07-12	20:51:49	21:08:33	1001036	6282a9b9015ed5c3dbf566b3	4	1	main_slash	11	advance_on_keypress_SLASH	22	stimuli_distractor_trianglediamonds.svg	stimuli_target_diamondrectangles.svg	27	yes	57	0	1095	0	0			0	0			1				0	
6.6.1	win	2023-07-12	20:51:49	21:08:35	1003078	6282a9b9015ed5c3dbf566b3	4	1	main_slash	11	main_slash	23	stimuli_distractor_diamondtriangles.svg	stimuli_target_rectanglediamonds.svg	14	yes	53	1	296	0	0			0	0			1				0	
6.6.1	win	2023-07-12	20:51:49	21:08:35	1003078	6282a9b9015ed5c3dbf566b3	4	1	main_slash	11	advance_on_keypress_SLASH	24	stimuli_distractor_diamondtriangles.svg	stimuli_target_rectanglediamonds.svg	14	yes	57	0	920	0	0			0	0			1				0	
6.6.1	win	2023-07-12	20:51:49	21:08:37	1004955	6282a9b9015ed5c3dbf566b3	4	1	main_slash	11	main_slash	25	stimuli_distractor_diamondtriangles.svg	stimuli_distractor_diamondtriangles.svg	39	no	53	0	309	0	0			0	0			1				0	
6.6.1	win	2023-07-12	20:51:49	21:08:37	1004955	6282a9b9015ed5c3dbf566b3	4	1	main_slash	11	advance_on_keypress_SLASH	26	stimuli_distractor_diamondtriangles.svg	stimuli_distractor_diamondtriangles.svg	39	no	57	0	786	0	0			0	0			1				0	
6.6.1	win	2023-07-12	20:51:49	21:08:39	1006771	6282a9b9015ed5c3dbf566b3	4	1	main_slash	11	main_slash	27	stimuli_target_squaretriangles.svg	stimuli_distractor_diamondtriangles.svg	7	yes	53	1	394	0	0			0	0			1				0	
6.6.1	win	2023-07-12	20:51:49	21:08:39	1006771	6282a9b9015ed5c3dbf566b3	4	1	main_slash	11	advance_on_keypress_SLASH	28	stimuli_target_squaretriangles.svg	stimuli_distractor_diamondtriangles.svg	7	yes	57	0	9291	0	0			0	0			1				0	
6.6.1	win	2023-07-12	20:51:49	21:08:49	1016993	6282a9b9015ed5c3dbf566b3	4	1	main_slash	11	main_slash	29	stimuli_distractor_diamondtriangles.svg	stimuli_target_squaretriangles.svg	15	yes	53	1	275	0	0			0	0			1				0	
6.6.1	win	2023-07-12	20:51:49	21:08:49	1016993	6282a9b9015ed5c3dbf566b3	4	1	main_slash	11	advance_on_keypress_SLASH	30	stimuli_distractor_diamondtriangles.svg	stimuli_target_squaretriangles.svg	15	yes	57	0	518	0	0			0	0			1				0	
6.6.1	win	2023-07-12	20:51:49	21:08:51	1018428	6282a9b9015ed5c3dbf566b3	4	1	main_slash	11	main_slash	31	stimuli_distractor_diamondtriangles.svg	stimuli_target_rectangletriangles.svg	13	yes	53	1	278	0	0			0	0			1				0	
6.6.1	win	2023-07-12	20:51:49	21:08:51	1018428	6282a9b9015ed5c3dbf566b3	4	1	main_slash	11	advance_on_keypress_SLASH	32	stimuli_distractor_diamondtriangles.svg	stimuli_target_rectangletriangles.svg	13	yes	57	0	806	0	0			0	0			1				0	
6.6.1	win	2023-07-12	20:51:49	21:08:52	1020081	6282a9b9015ed5c3dbf566b3	4	1	main_slash	11	main_slash	33	stimuli_distractor_diamondtriangles.svg	stimuli_target_trianglerectangles.svg	29	yes	53	1	215	0	0			0	0			1				0	
6.6.1	win	2023-07-12	20:51:49	21:08:52	1020081	6282a9b9015ed5c3dbf566b3	4	1	main_slash	11	advance_on_keypress_SLASH	34	stimuli_distractor_diamondtriangles.svg	stimuli_target_trianglerectangles.svg	29	yes	57	0	615	0	0			0	0			1				0	
6.6.1	win	2023-07-12	20:51:49	21:08:54	1021674	6282a9b9015ed5c3dbf566b3	4	1	main_slash	11	main_slash	35	stimuli_target_rectangletriangles.svg	stimuli_distractor_diamondtriangles.svg	5	yes	53	1	326	0	0			0	0			1				0	
6.6.1	win	2023-07-12	20:51:49	21:08:54	1021674	6282a9b9015ed5c3dbf566b3	4	1	main_slash	11	advance_on_keypress_SLASH	36	stimuli_target_rectangletriangles.svg	stimuli_distractor_diamondtriangles.svg	5	yes	57	0	513	0	0			0	0			1				0	
6.6.1	win	2023-07-12	20:51:49	21:08:55	1023070	6282a9b9015ed5c3dbf566b3	4	1	main_slash	11	main_slash	37	stimuli_distractor_diamondtriangles.svg	stimuli_distractor_trianglediamonds.svg	38	no	53	0	240	0	0			0	0			1				0	
6.6.1	win	2023-07-12	20:51:49	21:08:55	1023070	6282a9b9015ed5c3dbf566b3	4	1	main_slash	11	advance_on_keypress_SLASH	38	stimuli_distractor_diamondtriangles.svg	stimuli_distractor_trianglediamonds.svg	38	no	57	0	674	0	0			0	0			1				0	
6.6.1	win	2023-07-12	20:51:49	21:08:57	1024753	6282a9b9015ed5c3dbf566b3	4	1	main_slash	11	main_slash	39	stimuli_distractor_trianglediamonds.svg	stimuli_target_trianglerectangles.svg	25	yes	53	1	374	0	0			0	0			1				0	
6.6.1	win	2023-07-12	20:51:49	21:08:57	1024753	6282a9b9015ed5c3dbf566b3	4	1	main_slash	11	advance_on_keypress_SLASH	40	stimuli_distractor_trianglediamonds.svg	stimuli_target_trianglerectangles.svg	25	yes	57	0	495	0	0			0	0			1				0	
6.6.1	win	2023-07-12	20:51:49	21:08:58	1026210	6282a9b9015ed5c3dbf566b3	4	1	main_slash	11	main_slash	41	stimuli_distractor_trianglediamonds.svg	stimuli_target_trianglesquares.svg	26	yes	53	1	316	0	0			0	0			1				0	
6.6.1	win	2023-07-12	20:51:49	21:08:58	1026210	6282a9b9015ed5c3dbf566b3	4	1	main_slash	11	advance_on_keypress_SLASH	42	stimuli_distractor_trianglediamonds.svg	stimuli_target_trianglesquares.svg	26	yes	57	0	789	0	0			0	0			1				0	
6.6.1	win	2023-07-12	20:51:49	21:09:00	1028001	6282a9b9015ed5c3dbf566b3	4	1	main_slash	11	main_slash	43	stimuli_target_rectanglediamonds.svg	stimuli_distractor_trianglediamonds.svg	2	yes	53	1	359	0	0			0	0			1				0	
6.6.1	win	2023-07-12	20:51:49	21:09:00	1028001	6282a9b9015ed5c3dbf566b3	4	1	main_slash	11	advance_on_keypress_SLASH	44	stimuli_target_rectanglediamonds.svg	stimuli_distractor_trianglediamonds.svg	2	yes	57	0	583	0	0			0	0			1				0	
6.6.1	win	2023-07-12	20:51:49	21:09:02	1029443	6282a9b9015ed5c3dbf566b3	4	1	main_slash	11	main_slash	45	stimuli_target_trianglesquares.svg	stimuli_distractor_trianglediamonds.svg	18	yes	53	1	219	0	0			0	0			1				0	
6.6.1	win	2023-07-12	20:51:49	21:09:02	1029443	6282a9b9015ed5c3dbf566b3	4	1	main_slash	11	advance_on_keypress_SLASH	46	stimuli_target_trianglesquares.svg	stimuli_distractor_trianglediamonds.svg	18	yes	57	0	1086	0	0			0	0			1				0	
6.6.1	win	2023-07-12	20:51:49	21:09:04	1031453	6282a9b9015ed5c3dbf566b3	4	1	main_slash	11	main_slash	47	stimuli_target_squarediamonds.svg	stimuli_distractor_trianglediamonds.svg	4	yes	53	1	280	0	0			0	0			1				0	
6.6.1	win	2023-07-12	20:51:49	21:09:04	1031453	6282a9b9015ed5c3dbf566b3	4	1	main_slash	11	advance_on_keypress_SLASH	48	stimuli_target_squarediamonds.svg	stimuli_distractor_trianglediamonds.svg	4	yes	57	0	481	0	0			0	0			1				0	
6.6.1	win	2023-07-12	20:51:49	21:09:05	1032814	6282a9b9015ed5c3dbf566b3	4	1	main_slash	11	main_slash	49	stimuli_distractor_trianglediamonds.svg	stimuli_distractor_trianglediamonds.svg	33	no	53	0	225	0	0			0	0			1				0	
6.6.1	win	2023-07-12	20:51:49	21:09:05	1032814	6282a9b9015ed5c3dbf566b3	4	1	main_slash	11	advance_on_keypress_SLASH	50	stimuli_distractor_trianglediamonds.svg	stimuli_distractor_trianglediamonds.svg	33	no	57	0	606	0	0			0	0			1				0	
6.6.1	win	2023-07-12	20:51:49	21:09:07	1034391	6282a9b9015ed5c3dbf566b3	4	1	main_slash	11	main_slash	51	stimuli_distractor_trianglediamonds.svg	stimuli_target_squarediamonds.svg	12	yes	53	1	339	0	0			0	0			1				0	
6.6.1	win	2023-07-12	20:51:49	21:09:07	1034391	6282a9b9015ed5c3dbf566b3	4	1	main_slash	11	advance_on_keypress_SLASH	52	stimuli_distractor_trianglediamonds.svg	stimuli_target_squarediamonds.svg	12	yes	57	0	561	0	0			0	0			1				0	
6.6.1	win	2023-07-12	20:51:49	21:09:08	1035907	6282a9b9015ed5c3dbf566b3	4	1	main_slash	11	main_slash	53	stimuli_target_diamondsquares.svg	stimuli_distractor_trianglediamonds.svg	20	yes	53	1	305	0	0			0	0			1				0	
6.6.1	win	2023-07-12	20:51:49	21:09:08	1035907	6282a9b9015ed5c3dbf566b3	4	1	main_slash	11	advance_on_keypress_SLASH	54	stimuli_target_diamondsquares.svg	stimuli_distractor_trianglediamonds.svg	20	yes	57	0	539	0	0			0	0			1				0	
6.6.1	win	2023-07-12	20:51:49	21:09:10	1037532	6282a9b9015ed5c3dbf566b3	4	1	main_slash	11	main_slash	55	stimuli_target_diamondrectangles.svg	stimuli_distractor_trianglediamonds.svg	19	yes	53	1	449	0	0			0	0			1				0	
6.6.1	win	2023-07-12	20:51:49	21:09:10	1037532	6282a9b9015ed5c3dbf566b3	4	1	main_slash	11	advance_on_keypress_SLASH	56	stimuli_target_diamondrectangles.svg	stimuli_distractor_trianglediamonds.svg	19	yes	57	0	570	0	0			0	0			1				0	
6.6.1	win	2023-07-12	20:51:49	21:09:11	1038964	6282a9b9015ed5c3dbf566b3	4	1	main_slash	11	main_slash	57	stimuli_target_diamondrectangles.svg	stimuli_distractor_diamondtriangles.svg	23	yes	53	1	215	0	0			0	0			1				0	
6.6.1	win	2023-07-12	20:51:49	21:09:11	1038964	6282a9b9015ed5c3dbf566b3	4	1	main_slash	11	advance_on_keypress_SLASH	58	stimuli_target_diamondrectangles.svg	stimuli_distractor_diamondtriangles.svg	23	yes	57	0	533	0	0			0	0			1				0	
6.6.1	win	2023-07-12	20:51:49	21:09:13	1040331	6282a9b9015ed5c3dbf566b3	4	1	main_slash	11	main_slash	59	stimuli_distractor_diamondtriangles.svg	stimuli_target_diamondrectangles.svg	31	yes	53	1	183	0	0			0	0			1				0	
6.6.1	win	2023-07-12	20:51:49	21:09:13	1040331	6282a9b9015ed5c3dbf566b3	4	1	main_slash	11	advance_on_keypress_SLASH	60	stimuli_distractor_diamondtriangles.svg	stimuli_target_diamondrectangles.svg	31	yes	57	0	624	0	0			0	0			1				0	
6.6.1	win	2023-07-12	20:51:49	21:09:14	1041871	6282a9b9015ed5c3dbf566b3	4	1	main_slash	11	main_slash	61	stimuli_distractor_trianglediamonds.svg	stimuli_distractor_trianglediamonds.svg	34	no	53	0	274	0	0			0	0			1				0	
6.6.1	win	2023-07-12	20:51:49	21:09:14	1041871	6282a9b9015ed5c3dbf566b3	4	1	main_slash	11	advance_on_keypress_SLASH	62	stimuli_distractor_trianglediamonds.svg	stimuli_distractor_trianglediamonds.svg	34	no	57	0	632	0	0			0	0			1				0	
6.6.1	win	2023-07-12	20:51:49	21:09:16	1043520	6282a9b9015ed5c3dbf566b3	4	1	main_slash	11	main_slash	63	stimuli_distractor_trianglediamonds.svg	stimuli_distractor_diamondtriangles.svg	35	no	53	0	368	0	0			0	0			1				0	
6.6.1	win	2023-07-12	20:51:49	21:09:16	1043520	6282a9b9015ed5c3dbf566b3	4	1	main_slash	11	advance_on_keypress_SLASH	64	stimuli_distractor_trianglediamonds.svg	stimuli_distractor_diamondtriangles.svg	35	no	57	0	700	0	0			0	0			1				0	
6.6.1	win	2023-07-12	20:51:49	21:09:17	1045158	6282a9b9015ed5c3dbf566b3	4	1	main_slash	11	main_slash	65	stimuli_target_trianglerectangles.svg	stimuli_distractor_trianglediamonds.svg	17	yes	53	1	297	0	0			0	0			1				0	
6.6.1	win	2023-07-12	20:51:49	21:09:17	1045158	6282a9b9015ed5c3dbf566b3	4	1	main_slash	11	advance_on_keypress_SLASH	66	stimuli_target_trianglerectangles.svg	stimuli_distractor_trianglediamonds.svg	17	yes	57	0	515	0	0			0	0			1				0	
6.6.1	win	2023-07-12	20:51:49	21:09:19	1046689	6282a9b9015ed5c3dbf566b3	4	1	main_slash	11	main_slash	67	stimuli_target_squarediamonds.svg	stimuli_distractor_diamondtriangles.svg	8	yes	53	1	363	0	0			0	0			1				0	
6.6.1	win	2023-07-12	20:51:49	21:09:19	1046689	6282a9b9015ed5c3dbf566b3	4	1	main_slash	11	advance_on_keypress_SLASH	68	stimuli_target_squarediamonds.svg	stimuli_distractor_diamondtriangles.svg	8	yes	57	0	818	0	0			0	0			1				0	
6.6.1	win	2023-07-12	20:51:49	21:09:21	1048488	6282a9b9015ed5c3dbf566b3	4	1	main_slash	11	main_slash	69	stimuli_distractor_trianglediamonds.svg	stimuli_distractor_diamondtriangles.svg	36	no	53	0	330	0	0			0	0			1				0	
6.6.1	win	2023-07-12	20:51:49	21:09:21	1048488	6282a9b9015ed5c3dbf566b3	4	1	main_slash	11	advance_on_keypress_SLASH	70	stimuli_distractor_trianglediamonds.svg	stimuli_distractor_diamondtriangles.svg	36	no	57	0	857	0	0			0	0			1				0	
6.6.1	win	2023-07-12	20:51:49	21:09:23	1050519	6282a9b9015ed5c3dbf566b3	4	1	main_slash	11	main_slash	71	stimuli_distractor_trianglediamonds.svg	stimuli_target_rectangletriangles.svg	9	yes	53	1	530	0	0			0	0			1				0	
6.6.1	win	2023-07-12	20:51:49	21:09:23	1050519	6282a9b9015ed5c3dbf566b3	4	1	main_slash	11	advance_on_keypress_SLASH	72	stimuli_distractor_trianglediamonds.svg	stimuli_target_rectangletriangles.svg	9	yes	57	0	577	0	0			0	0			1				0	
6.6.1	win	2023-07-12	20:51:49	21:09:24	1052113	6282a9b9015ed5c3dbf566b3	4	1	main_slash	11	main_slash	73	stimuli_distractor_diamondtriangles.svg	stimuli_target_diamondsquares.svg	32	yes	53	1	359	0	0			0	0			1				0	
6.6.1	win	2023-07-12	20:51:49	21:09:24	1052113	6282a9b9015ed5c3dbf566b3	4	1	main_slash	11	advance_on_keypress_SLASH	74	stimuli_distractor_diamondtriangles.svg	stimuli_target_diamondsquares.svg	32	yes	57	0	691	0	0			0	0			1				0	
6.6.1	win	2023-07-12	20:51:49	21:09:26	1053743	6282a9b9015ed5c3dbf566b3	4	1	main_slash	11	main_slash	75	stimuli_target_trianglesquares.svg	stimuli_distractor_diamondtriangles.svg	22	yes	53	1	307	0	0			0	0			1				0	
6.6.1	win	2023-07-12	20:51:49	21:09:26	1053743	6282a9b9015ed5c3dbf566b3	4	1	main_slash	11	advance_on_keypress_SLASH	76	stimuli_target_trianglesquares.svg	stimuli_distractor_diamondtriangles.svg	22	yes	57	0	481	0	0			0	0			1				0	
6.6.1	win	2023-07-12	20:51:49	21:09:27	1055197	6282a9b9015ed5c3dbf566b3	4	1	main_slash	11	main_slash	77	stimuli_distractor_diamondtriangles.svg	stimuli_distractor_trianglediamonds.svg	37	no	53	0	329	0	0			0	0			1				0	
6.6.1	win	2023-07-12	20:51:49	21:09:27	1055197	6282a9b9015ed5c3dbf566b3	4	1	main_slash	11	advance_on_keypress_SLASH	78	stimuli_distractor_diamondtriangles.svg	stimuli_distractor_trianglediamonds.svg	37	no	57	0	556	0	0			0	0			1				0	
6.6.1	win	2023-07-12	20:51:49	21:09:29	1056759	6282a9b9015ed5c3dbf566b3	4	1	main_slash	11	main_slash	79	stimuli_target_rectanglediamonds.svg	stimuli_distractor_diamondtriangles.svg	6	yes	53	1	359	0	0			0	0			1				0	
6.6.1	win	2023-07-12	20:51:49	21:09:29	1056759	6282a9b9015ed5c3dbf566b3	4	1	main_slash	11	advance_on_keypress_SLASH	80	stimuli_target_rectanglediamonds.svg	stimuli_distractor_diamondtriangles.svg	6	yes	57	0	548	0	0			0	0			1				0	
6.6.1	win	2023-07-12	20:51:49	21:09:30	1058203	6282a9b9015ed5c3dbf566b3	4	1	main_slash	11	main_slash	81	stimuli_target_diamondsquares.svg	stimuli_distractor_trianglediamonds.svg	20	yes	53	1	255	0	0			0	0			1				0	
6.6.1	win	2023-07-12	20:51:49	21:09:30	1058203	6282a9b9015ed5c3dbf566b3	4	1	main_slash	11	advance_on_keypress_SLASH	82	stimuli_target_diamondsquares.svg	stimuli_distractor_trianglediamonds.svg	20	yes	57	0	600	0	0			0	0			1				0	
6.6.1	win	2023-07-12	20:51:49	21:09:32	1059721	6282a9b9015ed5c3dbf566b3	4	1	main_slash	11	main_slash	83	stimuli_target_squarediamonds.svg	stimuli_distractor_trianglediamonds.svg	4	yes	53	1	273	0	0			0	0			1				0	
6.6.1	win	2023-07-12	20:51:49	21:09:32	1059721	6282a9b9015ed5c3dbf566b3	4	1	main_slash	11	advance_on_keypress_SLASH	84	stimuli_target_squarediamonds.svg	stimuli_distractor_trianglediamonds.svg	4	yes	57	0	547	0	0			0	0			1				0	
6.6.1	win	2023-07-12	20:51:49	21:09:33	1061157	6282a9b9015ed5c3dbf566b3	4	1	main_slash	11	main_slash	85	stimuli_distractor_diamondtriangles.svg	stimuli_target_diamondrectangles.svg	31	yes	53	1	244	0	0			0	0			1				0	
6.6.1	win	2023-07-12	20:51:49	21:09:33	1061157	6282a9b9015ed5c3dbf566b3	4	1	main_slash	11	advance_on_keypress_SLASH	86	stimuli_distractor_diamondtriangles.svg	stimuli_target_diamondrectangles.svg	31	yes	57	0	530	0	0			0	0			1				0	
6.6.1	win	2023-07-12	20:51:49	21:09:35	1062563	6282a9b9015ed5c3dbf566b3	4	1	main_slash	11	main_slash	87	stimuli_target_diamondrectangles.svg	stimuli_distractor_diamondtriangles.svg	23	yes	53	1	234	0	0			0	0			1				0	
6.6.1	win	2023-07-12	20:51:49	21:09:35	1062563	6282a9b9015ed5c3dbf566b3	4	1	main_slash	11	advance_on_keypress_SLASH	88	stimuli_target_diamondrectangles.svg	stimuli_distractor_diamondtriangles.svg	23	yes	57	0	540	0	0			0	0			1				0	
6.6.1	win	2023-07-12	20:51:49	21:09:36	1063977	6282a9b9015ed5c3dbf566b3	4	1	main_slash	11	main_slash	89	stimuli_distractor_trianglediamonds.svg	stimuli_target_squarediamonds.svg	12	yes	53	1	233	0	0			0	0			1				0	
6.6.1	win	2023-07-12	20:51:49	21:09:36	1063977	6282a9b9015ed5c3dbf566b3	4	1	main_slash	11	advance_on_keypress_SLASH	90	stimuli_distractor_trianglediamonds.svg	stimuli_target_squarediamonds.svg	12	yes	57	0	618	0	0			0	0			1				0	
6.6.1	win	2023-07-12	20:51:49	21:09:38	1065620	6282a9b9015ed5c3dbf566b3	4	1	main_slash	11	main_slash	91	stimuli_target_diamondrectangles.svg	stimuli_distractor_trianglediamonds.svg	19	yes	53	1	377	0	0			0	0			1				0	
6.6.1	win	2023-07-12	20:51:49	21:09:38	1065620	6282a9b9015ed5c3dbf566b3	4	1	main_slash	11	advance_on_keypress_SLASH	92	stimuli_target_diamondrectangles.svg	stimuli_distractor_trianglediamonds.svg	19	yes	57	0	3573	0	0			0	0			1				0	
6.6.1	win	2023-07-12	20:51:49	21:09:42	1070113	6282a9b9015ed5c3dbf566b3	4	1	main_slash	11	main_slash	93	stimuli_distractor_diamondtriangles.svg	stimuli_target_squarediamonds.svg	16	yes	53	1	274	0	0			0	0			1				0	
6.6.1	win	2023-07-12	20:51:49	21:09:42	1070113	6282a9b9015ed5c3dbf566b3	4	1	main_slash	11	advance_on_keypress_SLASH	94	stimuli_distractor_diamondtriangles.svg	stimuli_target_squarediamonds.svg	16	yes	57	0	399	0	0			0	0			1				0	
6.6.1	win	2023-07-12	20:51:49	21:09:44	1071519	6282a9b9015ed5c3dbf566b3	4	1	main_slash	11	main_slash	95	stimuli_target_trianglesquares.svg	stimuli_distractor_diamondtriangles.svg	22	yes	53	1	364	0	0			0	0			1				0	
6.6.1	win	2023-07-12	20:51:49	21:09:44	1071519	6282a9b9015ed5c3dbf566b3	4	1	main_slash	11	advance_on_keypress_SLASH	96	stimuli_target_trianglesquares.svg	stimuli_distractor_diamondtriangles.svg	22	yes	57	0	416	0	0			0	0			1				0	
6.6.1	win	2023-07-12	20:51:49	21:09:45	1072964	6282a9b9015ed5c3dbf566b3	4	1	main_slash	11	main_slash	97	stimuli_distractor_diamondtriangles.svg	stimuli_target_trianglesquares.svg	30	yes	53	1	378	0	0			0	0			1				0	
6.6.1	win	2023-07-12	20:51:49	21:09:45	1072964	6282a9b9015ed5c3dbf566b3	4	1	main_slash	11	advance_on_keypress_SLASH	98	stimuli_distractor_diamondtriangles.svg	stimuli_target_trianglesquares.svg	30	yes	57	0	613	0	0			0	0			1				0	
6.6.1	win	2023-07-12	20:51:49	21:09:47	1074437	6282a9b9015ed5c3dbf566b3	4	1	main_slash	11	main_slash	99	stimuli_distractor_trianglediamonds.svg	stimuli_target_trianglesquares.svg	26	yes	53	1	203	0	0			0	0			1				0	
6.6.1	win	2023-07-12	20:51:49	21:09:47	1074437	6282a9b9015ed5c3dbf566b3	4	1	main_slash	11	advance_on_keypress_SLASH	100	stimuli_distractor_trianglediamonds.svg	stimuli_target_trianglesquares.svg	26	yes	57	0	774	0	0			0	0			1				0	
6.6.1	win	2023-07-12	20:51:49	21:09:48	1076089	6282a9b9015ed5c3dbf566b3	4	1	main_slash	11	main_slash	101	stimuli_target_squaretriangles.svg	stimuli_distractor_trianglediamonds.svg	3	yes	53	1	239	0	0			0	0			1				0	
6.6.1	win	2023-07-12	20:51:49	21:09:48	1076089	6282a9b9015ed5c3dbf566b3	4	1	main_slash	11	advance_on_keypress_SLASH	102	stimuli_target_squaretriangles.svg	stimuli_distractor_trianglediamonds.svg	3	yes	57	0	7185	0	0			0	0			1				0	
6.6.1	win	2023-07-12	20:51:49	21:09:56	1084125	6282a9b9015ed5c3dbf566b3	4	1	main_slash	11	main_slash	103	stimuli_distractor_diamondtriangles.svg	stimuli_distractor_diamondtriangles.svg	40	no	53	0	215	0	0			0	0			1				0	
6.6.1	win	2023-07-12	20:51:49	21:09:56	1084125	6282a9b9015ed5c3dbf566b3	4	1	main_slash	11	advance_on_keypress_SLASH	104	stimuli_distractor_diamondtriangles.svg	stimuli_distractor_diamondtriangles.svg	40	no	57	0	472	0	0			0	0			1				0	
6.6.1	win	2023-07-12	20:51:49	21:09:59	1087242	6282a9b9015ed5c3dbf566b3	4	1	main_slash	11	main_slash	105	stimuli_distractor_diamondtriangles.svg	stimuli_distractor_trianglediamonds.svg	37	no	0	1	2000	0	0			0	0			1				0	
6.6.1	win	2023-07-12	20:51:49	21:09:59	1087242	6282a9b9015ed5c3dbf566b3	4	1	main_slash	11	advance_on_keypress_SLASH	106	stimuli_distractor_diamondtriangles.svg	stimuli_distractor_trianglediamonds.svg	37	no	57	0	24836	0	0			0	0			1				0	
6.6.1	win	2023-07-12	20:51:49	21:10:25	1113167	6282a9b9015ed5c3dbf566b3	4	1	main_slash	11	main_slash	107	stimuli_distractor_trianglediamonds.svg	stimuli_target_diamondsquares.svg	28	yes	53	1	449	0	0			0	0			1				0	
6.6.1	win	2023-07-12	20:51:49	21:10:25	1113167	6282a9b9015ed5c3dbf566b3	4	1	main_slash	11	advance_on_keypress_SLASH	108	stimuli_distractor_trianglediamonds.svg	stimuli_target_diamondsquares.svg	28	yes	57	0	422	0	0			0	0			1				0	
6.6.1	win	2023-07-12	20:51:49	21:10:27	1114497	6282a9b9015ed5c3dbf566b3	4	1	main_slash	11	main_slash	109	stimuli_distractor_diamondtriangles.svg	stimuli_target_squaretriangles.svg	15	yes	53	1	264	0	0			0	0			1				0	
6.6.1	win	2023-07-12	20:51:49	21:10:27	1114497	6282a9b9015ed5c3dbf566b3	4	1	main_slash	11	advance_on_keypress_SLASH	110	stimuli_distractor_diamondtriangles.svg	stimuli_target_squaretriangles.svg	15	yes	57	0	431	0	0			0	0			1				0	
6.6.1	win	2023-07-12	20:51:49	21:10:28	1115917	6282a9b9015ed5c3dbf566b3	4	1	main_slash	11	main_slash	111	stimuli_target_rectangletriangles.svg	stimuli_distractor_trianglediamonds.svg	1	yes	53	1	334	0	0			0	0			1				0	
6.6.1	win	2023-07-12	20:51:49	21:10:28	1115917	6282a9b9015ed5c3dbf566b3	4	1	main_slash	11	advance_on_keypress_SLASH	112	stimuli_target_rectangletriangles.svg	stimuli_distractor_trianglediamonds.svg	1	yes	57	0	375	0	0			0	0			1				0	
6.6.1	win	2023-07-12	20:51:49	21:10:29	1117144	6282a9b9015ed5c3dbf566b3	4	1	main_slash	11	main_slash	113	stimuli_distractor_trianglediamonds.svg	stimuli_distractor_diamondtriangles.svg	36	no	53	0	212	0	0			0	0			1				0	
6.6.1	win	2023-07-12	20:51:49	21:10:29	1117144	6282a9b9015ed5c3dbf566b3	4	1	main_slash	11	advance_on_keypress_SLASH	114	stimuli_distractor_trianglediamonds.svg	stimuli_distractor_diamondtriangles.svg	36	no	57	0	414	0	0			0	0			1				0	
6.6.1	win	2023-07-12	20:51:49	21:10:31	1118683	6282a9b9015ed5c3dbf566b3	4	1	main_slash	11	main_slash	115	stimuli_target_trianglerectangles.svg	stimuli_distractor_trianglediamonds.svg	17	yes	53	1	470	0	0			0	0			1				0	
6.6.1	win	2023-07-12	20:51:49	21:10:31	1118683	6282a9b9015ed5c3dbf566b3	4	1	main_slash	11	advance_on_keypress_SLASH	116	stimuli_target_trianglerectangles.svg	stimuli_distractor_trianglediamonds.svg	17	yes	57	0	487	0	0			0	0			1				0	
6.6.1	win	2023-07-12	20:51:49	21:10:32	1120252	6282a9b9015ed5c3dbf566b3	4	1	main_slash	11	main_slash	117	stimuli_target_diamondsquares.svg	stimuli_distractor_diamondtriangles.svg	24	yes	53	1	440	0	0			0	0			1				0	
6.6.1	win	2023-07-12	20:51:49	21:10:32	1120252	6282a9b9015ed5c3dbf566b3	4	1	main_slash	11	advance_on_keypress_SLASH	118	stimuli_target_diamondsquares.svg	stimuli_distractor_diamondtriangles.svg	24	yes	57	0	2301	0	0			0	0			1				0	
6.6.1	win	2023-07-12	20:51:49	21:10:37	1125193	6282a9b9015ed5c3dbf566b3	4	1	main_slash	11	main_slash	119	stimuli_distractor_trianglediamonds.svg	stimuli_distractor_trianglediamonds.svg	34	no	0	1	2000	0	0			0	0			1				0	
6.6.1	win	2023-07-12	20:51:49	21:10:37	1125193	6282a9b9015ed5c3dbf566b3	4	1	main_slash	11	advance_on_keypress_SLASH	120	stimuli_distractor_trianglediamonds.svg	stimuli_distractor_trianglediamonds.svg	34	no	57	0	468	0	0			0	0			1				0	
6.6.1	win	2023-07-12	20:51:49	21:10:41	1128306	6282a9b9015ed5c3dbf566b3	4	1	main_slash	11	main_slash	121	stimuli_distractor_diamondtriangles.svg	stimuli_distractor_diamondtriangles.svg	39	no	0	1	2000	0	0			0	0			1				0	
6.6.1	win	2023-07-12	20:51:49	21:10:41	1128306	6282a9b9015ed5c3dbf566b3	4	1	main_slash	11	advance_on_keypress_SLASH	122	stimuli_distractor_diamondtriangles.svg	stimuli_distractor_diamondtriangles.svg	39	no	57	0	315	0	0			0	0			1				0	
6.6.1	win	2023-07-12	20:51:49	21:10:42	1129633	6282a9b9015ed5c3dbf566b3	4	1	main_slash	11	main_slash	123	stimuli_distractor_trianglediamonds.svg	stimuli_target_squaretriangles.svg	11	yes	53	1	362	0	0			0	0			1				0	
6.6.1	win	2023-07-12	20:51:49	21:10:42	1129633	6282a9b9015ed5c3dbf566b3	4	1	main_slash	11	advance_on_keypress_SLASH	124	stimuli_distractor_trianglediamonds.svg	stimuli_target_squaretriangles.svg	11	yes	57	0	1176	0	0			0	0			1				0	
6.6.1	win	2023-07-12	20:51:49	21:10:44	1131806	6282a9b9015ed5c3dbf566b3	4	1	main_slash	11	main_slash	125	stimuli_distractor_trianglediamonds.svg	stimuli_target_rectangletriangles.svg	9	yes	53	1	338	0	0			0	0			1				0	
6.6.1	win	2023-07-12	20:51:49	21:10:44	1131806	6282a9b9015ed5c3dbf566b3	4	1	main_slash	11	advance_on_keypress_SLASH	126	stimuli_distractor_trianglediamonds.svg	stimuli_target_rectangletriangles.svg	9	yes	57	0	800	0	0			0	0			1				0	
6.6.1	win	2023-07-12	20:51:49	21:10:46	1133684	6282a9b9015ed5c3dbf566b3	4	1	main_slash	11	main_slash	127	stimuli_distractor_diamondtriangles.svg	stimuli_distractor_trianglediamonds.svg	38	no	53	0	434	0	0			0	0			1				0	
6.6.1	win	2023-07-12	20:51:49	21:10:46	1133684	6282a9b9015ed5c3dbf566b3	4	1	main_slash	11	advance_on_keypress_SLASH	128	stimuli_distractor_diamondtriangles.svg	stimuli_distractor_trianglediamonds.svg	38	no	57	0	500	0	0			0	0			1				0	
6.6.1	win	2023-07-12	20:51:49	21:10:48	1135426	6282a9b9015ed5c3dbf566b3	4	1	main_slash	11	main_slash	129	stimuli_target_rectanglediamonds.svg	stimuli_distractor_trianglediamonds.svg	2	yes	53	1	594	0	0			0	0			1				0	
6.6.1	win	2023-07-12	20:51:49	21:10:48	1135426	6282a9b9015ed5c3dbf566b3	4	1	main_slash	11	advance_on_keypress_SLASH	130	stimuli_target_rectanglediamonds.svg	stimuli_distractor_trianglediamonds.svg	2	yes	57	0	4427	0	0			0	0			1				0	
6.6.1	win	2023-07-12	20:51:49	21:10:53	1140828	6282a9b9015ed5c3dbf566b3	4	1	main_slash	11	main_slash	131	stimuli_target_trianglerectangles.svg	stimuli_distractor_diamondtriangles.svg	21	yes	53	1	334	0	0			0	0			1				0	
6.6.1	win	2023-07-12	20:51:49	21:10:53	1140828	6282a9b9015ed5c3dbf566b3	4	1	main_slash	11	advance_on_keypress_SLASH	132	stimuli_target_trianglerectangles.svg	stimuli_distractor_diamondtriangles.svg	21	yes	57	0	1059	0	0			0	0			1				0	
6.6.1	win	2023-07-12	20:51:49	21:10:55	1143268	6282a9b9015ed5c3dbf566b3	4	1	main_slash	11	main_slash	133	stimuli_distractor_diamondtriangles.svg	stimuli_target_diamondsquares.svg	32	yes	53	1	743	0	0			0	0			1				0	
6.6.1	win	2023-07-12	20:51:49	21:10:55	1143268	6282a9b9015ed5c3dbf566b3	4	1	main_slash	11	advance_on_keypress_SLASH	134	stimuli_distractor_diamondtriangles.svg	stimuli_target_diamondsquares.svg	32	yes	57	0	521	0	0			0	0			1				0	
6.6.1	win	2023-07-12	20:51:49	21:10:57	1144835	6282a9b9015ed5c3dbf566b3	4	1	main_slash	11	main_slash	135	stimuli_distractor_diamondtriangles.svg	stimuli_target_rectanglediamonds.svg	14	yes	53	1	395	0	0			0	0			1				0	
6.6.1	win	2023-07-12	20:51:49	21:10:57	1144835	6282a9b9015ed5c3dbf566b3	4	1	main_slash	11	advance_on_keypress_SLASH	136	stimuli_distractor_diamondtriangles.svg	stimuli_target_rectanglediamonds.svg	14	yes	57	0	537	0	0			0	0			1				0	
6.6.1	win	2023-07-12	20:51:49	21:10:59	1146463	6282a9b9015ed5c3dbf566b3	4	1	main_slash	11	main_slash	137	stimuli_distractor_trianglediamonds.svg	stimuli_target_trianglerectangles.svg	25	yes	53	1	458	0	0			0	0			1				0	
6.6.1	win	2023-07-12	20:51:49	21:10:59	1146463	6282a9b9015ed5c3dbf566b3	4	1	main_slash	11	advance_on_keypress_SLASH	138	stimuli_distractor_trianglediamonds.svg	stimuli_target_trianglerectangles.svg	25	yes	57	0	601	0	0			0	0			1				0	
6.6.1	win	2023-07-12	20:51:49	21:11:00	1148002	6282a9b9015ed5c3dbf566b3	4	1	main_slash	11	main_slash	139	stimuli_distractor_trianglediamonds.svg	stimuli_target_diamondrectangles.svg	27	yes	53	1	298	0	0			0	0			1				0	
6.6.1	win	2023-07-12	20:51:49	21:11:00	1148002	6282a9b9015ed5c3dbf566b3	4	1	main_slash	11	advance_on_keypress_SLASH	140	stimuli_distractor_trianglediamonds.svg	stimuli_target_diamondrectangles.svg	27	yes	57	0	667	0	0			0	0			1				0	
6.6.1	win	2023-07-12	20:51:49	21:11:02	1149703	6282a9b9015ed5c3dbf566b3	4	1	main_slash	11	main_slash	141	stimuli_target_trianglesquares.svg	stimuli_distractor_trianglediamonds.svg	18	yes	53	1	383	0	0			0	0			1				0	
6.6.1	win	2023-07-12	20:51:49	21:11:02	1149703	6282a9b9015ed5c3dbf566b3	4	1	main_slash	11	advance_on_keypress_SLASH	142	stimuli_target_trianglesquares.svg	stimuli_distractor_trianglediamonds.svg	18	yes	57	0	9710	0	0			0	0			1				0	
6.6.1	win	2023-07-12	20:51:49	21:11:13	1160916	6282a9b9015ed5c3dbf566b3	4	1	main_slash	11	main_slash	143	stimuli_target_rectanglediamonds.svg	stimuli_distractor_diamondtriangles.svg	6	yes	53	1	856	0	0			0	0			1				0	
6.6.1	win	2023-07-12	20:51:49	21:11:13	1160916	6282a9b9015ed5c3dbf566b3	4	1	main_slash	11	advance_on_keypress_SLASH	144	stimuli_target_rectanglediamonds.svg	stimuli_distractor_diamondtriangles.svg	6	yes	57	0	441	0	0			0	0			1				0	
6.6.1	win	2023-07-12	20:51:49	21:11:14	1162264	6282a9b9015ed5c3dbf566b3	4	1	main_slash	11	main_slash	145	stimuli_distractor_trianglediamonds.svg	stimuli_distractor_diamondtriangles.svg	35	no	53	0	273	0	0			0	0			1				0	
6.6.1	win	2023-07-12	20:51:49	21:11:14	1162264	6282a9b9015ed5c3dbf566b3	4	1	main_slash	11	advance_on_keypress_SLASH	146	stimuli_distractor_trianglediamonds.svg	stimuli_distractor_diamondtriangles.svg	35	no	57	0	422	0	0			0	0			1				0	
6.6.1	win	2023-07-12	20:51:49	21:11:16	1163698	6282a9b9015ed5c3dbf566b3	4	1	main_slash	11	main_slash	147	stimuli_target_squaretriangles.svg	stimuli_distractor_diamondtriangles.svg	7	yes	53	1	374	0	0			0	0			1				0	
6.6.1	win	2023-07-12	20:51:49	21:11:16	1163698	6282a9b9015ed5c3dbf566b3	4	1	main_slash	11	advance_on_keypress_SLASH	148	stimuli_target_squaretriangles.svg	stimuli_distractor_diamondtriangles.svg	7	yes	57	0	444	0	0			0	0			1				0	
6.6.1	win	2023-07-12	20:51:49	21:11:19	1166789	6282a9b9015ed5c3dbf566b3	4	1	main_slash	11	main_slash	149	stimuli_distractor_trianglediamonds.svg	stimuli_distractor_trianglediamonds.svg	33	no	0	1	2000	0	0			0	0			1				0	
6.6.1	win	2023-07-12	20:51:49	21:11:19	1166789	6282a9b9015ed5c3dbf566b3	4	1	main_slash	11	advance_on_keypress_SLASH	150	stimuli_distractor_trianglediamonds.svg	stimuli_distractor_trianglediamonds.svg	33	no	57	0	264	0	0			0	0			1				0	
6.6.1	win	2023-07-12	20:51:49	21:11:20	1168083	6282a9b9015ed5c3dbf566b3	4	1	main_slash	11	main_slash	151	stimuli_target_squarediamonds.svg	stimuli_distractor_diamondtriangles.svg	8	yes	53	1	380	0	0			0	0			1				0	
6.6.1	win	2023-07-12	20:51:49	21:11:20	1168083	6282a9b9015ed5c3dbf566b3	4	1	main_slash	11	advance_on_keypress_SLASH	152	stimuli_target_squarediamonds.svg	stimuli_distractor_diamondtriangles.svg	8	yes	57	0	364	0	0			0	0			1				0	
6.6.1	win	2023-07-12	20:51:49	21:11:22	1169502	6282a9b9015ed5c3dbf566b3	4	1	main_slash	11	main_slash	153	stimuli_target_rectangletriangles.svg	stimuli_distractor_diamondtriangles.svg	5	yes	53	1	400	0	0			0	0			1				0	
6.6.1	win	2023-07-12	20:51:49	21:11:22	1169502	6282a9b9015ed5c3dbf566b3	4	1	main_slash	11	advance_on_keypress_SLASH	154	stimuli_target_rectangletriangles.svg	stimuli_distractor_diamondtriangles.svg	5	yes	57	0	524	0	0			0	0			1				0	
6.6.1	win	2023-07-12	20:51:49	21:11:23	1170926	6282a9b9015ed5c3dbf566b3	4	1	main_slash	11	main_slash	155	stimuli_distractor_diamondtriangles.svg	stimuli_target_rectangletriangles.svg	13	yes	53	1	259	0	0			0	0			1				0	
6.6.1	win	2023-07-12	20:51:49	21:11:23	1170926	6282a9b9015ed5c3dbf566b3	4	1	main_slash	11	advance_on_keypress_SLASH	156	stimuli_distractor_diamondtriangles.svg	stimuli_target_rectangletriangles.svg	13	yes	57	0	427	0	0			0	0			1				0	
6.6.1	win	2023-07-12	20:51:49	21:11:25	1172363	6282a9b9015ed5c3dbf566b3	4	1	main_slash	11	main_slash	157	stimuli_distractor_diamondtriangles.svg	stimuli_target_trianglerectangles.svg	29	yes	53	1	381	0	0			0	0			1				0	
6.6.1	win	2023-07-12	20:51:49	21:11:25	1172363	6282a9b9015ed5c3dbf566b3	4	1	main_slash	11	advance_on_keypress_SLASH	158	stimuli_distractor_diamondtriangles.svg	stimuli_target_trianglerectangles.svg	29	yes	57	0	378	0	0			0	0			1				0	
6.6.1	win	2023-07-12	20:51:49	21:11:26	1173733	6282a9b9015ed5c3dbf566b3	4	1	main_slash	11	main_slash	159	stimuli_distractor_trianglediamonds.svg	stimuli_target_rectanglediamonds.svg	10	yes	53	1	335	0	0			0	0			1				0	
6.6.1	win	2023-07-12	20:51:49	21:11:26	1173733	6282a9b9015ed5c3dbf566b3	4	1	main_slash	11	advance_on_keypress_SLASH	160	stimuli_distractor_trianglediamonds.svg	stimuli_target_rectanglediamonds.svg	10	yes	57	0	381	0	0			0	0			1				0	
6.6.1	win	2023-07-12	20:51:49	21:11:26	1173733	6282a9b9015ed5c3dbf566b3	4	1	headphonecheck_calibration	14	headphonecheck_calibrationIntro	1	stimuli_distractor_trianglediamonds.svg	stimuli_target_rectanglediamonds.svg	10	yes	calibrationButton	0	187997	0	0			0	0			1				0	
6.6.1	win	2023-07-12	20:51:49	21:11:26	1173733	6282a9b9015ed5c3dbf566b3	4	1	headphonecheck_testphase	15	test_collectResponse	3	stimuli_distractor_trianglediamonds.svg	stimuli_target_rectanglediamonds.svg	10	yes	first	0	8177	1	2	antiphase_hc_ios.wav	3	0	0			1				0	
6.6.1	win	2023-07-12	20:51:49	21:11:26	1173733	6282a9b9015ed5c3dbf566b3	4	1	headphonecheck_testphase	15	test_collectResponse	6	stimuli_distractor_trianglediamonds.svg	stimuli_target_rectanglediamonds.svg	10	yes	second	1	801	2	5	antiphase_hc_osi.wav	2	0	0			1				0	
6.6.1	win	2023-07-12	20:51:49	21:11:26	1173733	6282a9b9015ed5c3dbf566b3	4	1	headphonecheck_testphase	15	test_collectResponse	9	stimuli_distractor_trianglediamonds.svg	stimuli_target_rectanglediamonds.svg	10	yes	first	0	1242	3	1	antiphase_hc_iso.wav	2	0	0			1				0	
6.6.1	win	2023-07-12	20:51:49	21:11:26	1173733	6282a9b9015ed5c3dbf566b3	4	1	headphonecheck_testphase	15	test_collectResponse	12	stimuli_distractor_trianglediamonds.svg	stimuli_target_rectanglediamonds.svg	10	yes	third	1	464	4	6	antiphase_hc_ois.wav	3	0	0			1				0	
6.6.1	win	2023-07-12	20:51:49	21:11:26	1173733	6282a9b9015ed5c3dbf566b3	4	1	headphonecheck_testphase	15	test_collectResponse	15	stimuli_distractor_trianglediamonds.svg	stimuli_target_rectanglediamonds.svg	10	yes	second	0	636	5	3	antiphase_hc_soi.wav	1	0	0			1				0	
6.6.1	win	2023-07-12	20:51:49	21:11:26	1173733	6282a9b9015ed5c3dbf566b3	4	1	headphonecheck_testphase	15	test_collectResponse	18	stimuli_distractor_trianglediamonds.svg	stimuli_target_rectanglediamonds.svg	10	yes	first	1	114	6	4	antiphase_hc_sio.wav	1	0	0			1				0	
6.6.1	win	2023-07-12	20:51:49	21:11:26	1173733	6282a9b9015ed5c3dbf566b3	4	1	stereocheck_calibration	17	stereocheck_calibrationIntro	1	stimuli_distractor_trianglediamonds.svg	stimuli_target_rectanglediamonds.svg	10	yes	stereocheck_calibrationButton	0	17504	6	4	antiphase_hc_sio.wav	1	0	0			1				0	
6.6.1	win	2023-07-12	20:51:49	21:11:26	1173733	6282a9b9015ed5c3dbf566b3	4	1	stereocheck_testphase	18	stereocheck_test_collectResponse	3	stimuli_distractor_trianglediamonds.svg	stimuli_target_rectanglediamonds.svg	10	yes	stereocheck_right	0	1328	6	4	antiphase_hc_sio.wav	1	1	2	noise_calib_stim_LEFT.wav	1	1				0	
6.6.1	win	2023-07-12	20:51:49	21:11:26	1173733	6282a9b9015ed5c3dbf566b3	4	1	stereocheck_testphase	18	stereocheck_test_collectResponse	6	stimuli_distractor_trianglediamonds.svg	stimuli_target_rectanglediamonds.svg	10	yes	stereocheck_right	1	99	6	4	antiphase_hc_sio.wav	1	2	4	noise_calib_stim_RIGHT.wav	2	1				0	
6.6.1	win	2023-07-12	20:51:49	21:11:26	1173733	6282a9b9015ed5c3dbf566b3	4	1	stereocheck_testphase	18	stereocheck_test_collectResponse	9	stimuli_distractor_trianglediamonds.svg	stimuli_target_rectanglediamonds.svg	10	yes	stereocheck_right	1	649	6	4	antiphase_hc_sio.wav	1	3	5	noise_calib_stim_RIGHT.wav	2	1				0	
6.6.1	win	2023-07-12	20:51:49	21:11:26	1173733	6282a9b9015ed5c3dbf566b3	4	1	stereocheck_testphase	18	stereocheck_test_collectResponse	12	stimuli_distractor_trianglediamonds.svg	stimuli_target_rectanglediamonds.svg	10	yes	stereocheck_left	1	1617	6	4	antiphase_hc_sio.wav	1	4	1	noise_calib_stim_LEFT.wav	1	1				0	
6.6.1	win	2023-07-12	20:51:49	21:11:26	1173733	6282a9b9015ed5c3dbf566b3	4	1	stereocheck_testphase	18	stereocheck_test_collectResponse	15	stimuli_distractor_trianglediamonds.svg	stimuli_target_rectanglediamonds.svg	10	yes	stereocheck_left	1	6010	6	4	antiphase_hc_sio.wav	1	5	3	noise_calib_stim_LEFT.wav	1	1				0	
6.6.1	win	2023-07-12	20:51:49	21:11:26	1173733	6282a9b9015ed5c3dbf566b3	4	1	stereocheck_testphase	18	stereocheck_test_collectResponse	18	stimuli_distractor_trianglediamonds.svg	stimuli_target_rectanglediamonds.svg	10	yes	stereocheck_right	1	1995	6	4	antiphase_hc_sio.wav	1	6	6	noise_calib_stim_RIGHT.wav	2	1				0	
6.6.1	win	2023-07-12	20:51:49	21:11:26	1173733	6282a9b9015ed5c3dbf566b3	4	1	DL_practice	21	DL_practice	2	stimuli_distractor_trianglediamonds.svg	stimuli_target_rectanglediamonds.svg	10	yes	da	1	1772	6	4	antiphase_hc_sio.wav	1	6	6	noise_calib_stim_RIGHT.wav	2	7	blb_dichoticlistening_da-ba.mp3	da	ba	1	left
6.6.1	win	2023-07-12	20:51:49	21:11:26	1173733	6282a9b9015ed5c3dbf566b3	4	1	DL_practice	21	DL_practice	3	stimuli_distractor_trianglediamonds.svg	stimuli_target_rectanglediamonds.svg	10	yes	ka	1	1334	6	4	antiphase_hc_sio.wav	1	6	6	noise_calib_stim_RIGHT.wav	2	22	blb_dichoticlistening_ka-ka.mp3	ka	ka	0	left
6.6.1	win	2023-07-12	20:51:49	21:11:26	1173733	6282a9b9015ed5c3dbf566b3	4	1	DL_practice	21	DL_practice	4	stimuli_distractor_trianglediamonds.svg	stimuli_target_rectanglediamonds.svg	10	yes	ta	1	1411	6	4	antiphase_hc_sio.wav	1	6	6	noise_calib_stim_RIGHT.wav	2	36	blb_dichoticlistening_ta-ta.mp3	ta	ta	0	left
6.6.1	win	2023-07-12	20:51:49	21:11:26	1173733	6282a9b9015ed5c3dbf566b3	4	1	DL_practice	21	DL_practice	5	stimuli_distractor_trianglediamonds.svg	stimuli_target_rectanglediamonds.svg	10	yes	ka	1	1052	6	4	antiphase_hc_sio.wav	1	6	6	noise_calib_stim_RIGHT.wav	2	23	blb_dichoticlistening_ka-pa.mp3	ka	pa	1	left
6.6.1	win	2023-07-12	20:51:49	21:11:26	1173733	6282a9b9015ed5c3dbf566b3	4	1	DL_practice	21	DL_practice	6	stimuli_distractor_trianglediamonds.svg	stimuli_target_rectanglediamonds.svg	10	yes	ga	1	1979	6	4	antiphase_hc_sio.wav	1	6	6	noise_calib_stim_RIGHT.wav	2	15	blb_dichoticlistening_ga-ga.mp3	ga	ga	0	left
6.6.1	win	2023-07-12	20:51:49	21:11:26	1173733	6282a9b9015ed5c3dbf566b3	4	1	DL_practice	21	DL_practice	7	stimuli_distractor_trianglediamonds.svg	stimuli_target_rectanglediamonds.svg	10	yes	pa	1	1361	6	4	antiphase_hc_sio.wav	1	6	6	noise_calib_stim_RIGHT.wav	2	29	blb_dichoticlistening_pa-pa.mp3	pa	pa	0	left
6.6.1	win	2023-07-12	20:51:49	21:11:26	1173733	6282a9b9015ed5c3dbf566b3	4	1	DL_practice	21	DL_practice	8	stimuli_distractor_trianglediamonds.svg	stimuli_target_rectanglediamonds.svg	10	yes	ba	1	4153	6	4	antiphase_hc_sio.wav	1	6	6	noise_calib_stim_RIGHT.wav	2	1	blb_dichoticlistening_ba-ba.mp3	ba	ba	0	left
6.6.1	win	2023-07-12	20:51:49	21:11:26	1173733	6282a9b9015ed5c3dbf566b3	4	1	DL_practice	21	DL_practice	9	stimuli_distractor_trianglediamonds.svg	stimuli_target_rectanglediamonds.svg	10	yes	da	1	1115	6	4	antiphase_hc_sio.wav	1	6	6	noise_calib_stim_RIGHT.wav	2	8	blb_dichoticlistening_da-da.mp3	da	da	0	left
6.6.1	win	2023-07-12	20:51:49	21:11:26	1173733	6282a9b9015ed5c3dbf566b3	4	1	DL_practice	21	DL_practice	10	stimuli_distractor_trianglediamonds.svg	stimuli_target_rectanglediamonds.svg	10	yes	ga	1	1297	6	4	antiphase_hc_sio.wav	1	6	6	noise_calib_stim_RIGHT.wav	2	18	blb_dichoticlistening_ga-ta.mp3	ga	ta	1	left
6.6.1	win	2023-07-12	20:51:49	21:11:26	1173733	6282a9b9015ed5c3dbf566b3	4	1	DL_test	23	DL_test	1	stimuli_distractor_trianglediamonds.svg	stimuli_target_rectanglediamonds.svg	10	yes	ka	1	58099	6	4	antiphase_hc_sio.wav	1	6	6	noise_calib_stim_RIGHT.wav	2	23	blb_dichoticlistening_ka-pa.mp3	ka	pa	1	left
6.6.1	win	2023-07-12	20:51:49	21:11:26	1173733	6282a9b9015ed5c3dbf566b3	4	1	DL_test	23	DL_test	2	stimuli_distractor_trianglediamonds.svg	stimuli_target_rectanglediamonds.svg	10	yes	pa	1	2282	6	4	antiphase_hc_sio.wav	1	6	6	noise_calib_stim_RIGHT.wav	2	30	blb_dichoticlistening_pa-ta.mp3	pa	ta	1	left
6.6.1	win	2023-07-12	20:51:49	21:11:26	1173733	6282a9b9015ed5c3dbf566b3	4	1	DL_test	23	DL_test	3	stimuli_distractor_trianglediamonds.svg	stimuli_target_rectanglediamonds.svg	10	yes	ga	1	1553	6	4	antiphase_hc_sio.wav	1	6	6	noise_calib_stim_RIGHT.wav	2	15	blb_dichoticlistening_ga-ga.mp3	ga	ga	0	left
6.6.1	win	2023-07-12	20:51:49	21:11:26	1173733	6282a9b9015ed5c3dbf566b3	4	1	DL_test	23	DL_test	4	stimuli_distractor_trianglediamonds.svg	stimuli_target_rectanglediamonds.svg	10	yes	ka	1	1083	6	4	antiphase_hc_sio.wav	1	6	6	noise_calib_stim_RIGHT.wav	2	19	blb_dichoticlistening_ka-ba.mp3	ka	ba	1	left
6.6.1	win	2023-07-12	20:51:49	21:11:26	1173733	6282a9b9015ed5c3dbf566b3	4	1	DL_test	23	DL_test	5	stimuli_distractor_trianglediamonds.svg	stimuli_target_rectanglediamonds.svg	10	yes	ba	1	1744	6	4	antiphase_hc_sio.wav	1	6	6	noise_calib_stim_RIGHT.wav	2	5	blb_dichoticlistening_ba-pa.mp3	ba	pa	1	left
6.6.1	win	2023-07-12	20:51:49	21:11:26	1173733	6282a9b9015ed5c3dbf566b3	4	1	DL_test	23	DL_test	6	stimuli_distractor_trianglediamonds.svg	stimuli_target_rectanglediamonds.svg	10	yes	da	1	1039	6	4	antiphase_hc_sio.wav	1	6	6	noise_calib_stim_RIGHT.wav	2	9	blb_dichoticlistening_da-ga.mp3	da	ga	1	left
6.6.1	win	2023-07-12	20:51:49	21:11:26	1173733	6282a9b9015ed5c3dbf566b3	4	1	DL_test	23	DL_test	7	stimuli_distractor_trianglediamonds.svg	stimuli_target_rectanglediamonds.svg	10	yes	pa	1	1290	6	4	antiphase_hc_sio.wav	1	6	6	noise_calib_stim_RIGHT.wav	2	25	blb_dichoticlistening_pa-ba.mp3	pa	ba	1	left
6.6.1	win	2023-07-12	20:51:49	21:11:26	1173733	6282a9b9015ed5c3dbf566b3	4	1	DL_test	23	DL_test	8	stimuli_distractor_trianglediamonds.svg	stimuli_target_rectanglediamonds.svg	10	yes	ga	1	1436	6	4	antiphase_hc_sio.wav	1	6	6	noise_calib_stim_RIGHT.wav	2	18	blb_dichoticlistening_ga-ta.mp3	ga	ta	1	left
6.6.1	win	2023-07-12	20:51:49	21:11:26	1173733	6282a9b9015ed5c3dbf566b3	4	1	DL_test	23	DL_test	9	stimuli_distractor_trianglediamonds.svg	stimuli_target_rectanglediamonds.svg	10	yes	ba	1	3030	6	4	antiphase_hc_sio.wav	1	6	6	noise_calib_stim_RIGHT.wav	2	2	blb_dichoticlistening_ba-da.mp3	ba	da	1	left
6.6.1	win	2023-07-12	20:51:49	21:11:26	1173733	6282a9b9015ed5c3dbf566b3	4	1	DL_test	23	DL_test	10	stimuli_distractor_trianglediamonds.svg	stimuli_target_rectanglediamonds.svg	10	yes	pa	1	1098	6	4	antiphase_hc_sio.wav	1	6	6	noise_calib_stim_RIGHT.wav	2	29	blb_dichoticlistening_pa-pa.mp3	pa	pa	0	left
6.6.1	win	2023-07-12	20:51:49	21:11:26	1173733	6282a9b9015ed5c3dbf566b3	4	1	DL_test	23	DL_test	11	stimuli_distractor_trianglediamonds.svg	stimuli_target_rectanglediamonds.svg	10	yes	ga	1	1542	6	4	antiphase_hc_sio.wav	1	6	6	noise_calib_stim_RIGHT.wav	2	13	blb_dichoticlistening_ga-ba.mp3	ga	ba	1	left
6.6.1	win	2023-07-12	20:51:49	21:11:26	1173733	6282a9b9015ed5c3dbf566b3	4	1	DL_test	23	DL_test	12	stimuli_distractor_trianglediamonds.svg	stimuli_target_rectanglediamonds.svg	10	yes	ga	1	1011	6	4	antiphase_hc_sio.wav	1	6	6	noise_calib_stim_RIGHT.wav	2	16	blb_dichoticlistening_ga-ka.mp3	ga	ka	1	left
6.6.1	win	2023-07-12	20:51:49	21:11:26	1173733	6282a9b9015ed5c3dbf566b3	4	1	DL_test	23	DL_test	13	stimuli_distractor_trianglediamonds.svg	stimuli_target_rectanglediamonds.svg	10	yes	ba	1	1930	6	4	antiphase_hc_sio.wav	1	6	6	noise_calib_stim_RIGHT.wav	2	6	blb_dichoticlistening_ba-ta.mp3	ba	ta	1	left
6.6.1	win	2023-07-12	20:51:49	21:11:26	1173733	6282a9b9015ed5c3dbf566b3	4	1	DL_test	23	DL_test	14	stimuli_distractor_trianglediamonds.svg	stimuli_target_rectanglediamonds.svg	10	yes	ka	1	1189	6	4	antiphase_hc_sio.wav	1	6	6	noise_calib_stim_RIGHT.wav	2	24	blb_dichoticlistening_ka-ta.mp3	ka	ta	1	left
6.6.1	win	2023-07-12	20:51:49	21:11:26	1173733	6282a9b9015ed5c3dbf566b3	4	1	DL_test	23	DL_test	15	stimuli_distractor_trianglediamonds.svg	stimuli_target_rectanglediamonds.svg	10	yes	pa	1	1324	6	4	antiphase_hc_sio.wav	1	6	6	noise_calib_stim_RIGHT.wav	2	26	blb_dichoticlistening_pa-da.mp3	pa	da	1	left
6.6.1	win	2023-07-12	20:51:49	21:11:26	1173733	6282a9b9015ed5c3dbf566b3	4	1	DL_test	23	DL_test	16	stimuli_distractor_trianglediamonds.svg	stimuli_target_rectanglediamonds.svg	10	yes	pa	1	8125	6	4	antiphase_hc_sio.wav	1	6	6	noise_calib_stim_RIGHT.wav	2	27	blb_dichoticlistening_pa-ga.mp3	pa	ga	1	left
6.6.1	win	2023-07-12	20:51:49	21:11:26	1173733	6282a9b9015ed5c3dbf566b3	4	1	DL_test	23	DL_test	17	stimuli_distractor_trianglediamonds.svg	stimuli_target_rectanglediamonds.svg	10	yes	da	1	2052	6	4	antiphase_hc_sio.wav	1	6	6	noise_calib_stim_RIGHT.wav	2	8	blb_dichoticlistening_da-da.mp3	da	da	0	left
6.6.1	win	2023-07-12	20:51:49	21:11:26	1173733	6282a9b9015ed5c3dbf566b3	4	1	DL_test	23	DL_test	18	stimuli_distractor_trianglediamonds.svg	stimuli_target_rectanglediamonds.svg	10	yes	ga	0	4852	6	4	antiphase_hc_sio.wav	1	6	6	noise_calib_stim_RIGHT.wav	2	31	blb_dichoticlistening_ta-ba.mp3	ta	ba	1	other
6.6.1	win	2023-07-12	20:51:49	21:11:26	1173733	6282a9b9015ed5c3dbf566b3	4	1	DL_test	23	DL_test	19	stimuli_distractor_trianglediamonds.svg	stimuli_target_rectanglediamonds.svg	10	yes	ba	1	1397	6	4	antiphase_hc_sio.wav	1	6	6	noise_calib_stim_RIGHT.wav	2	1	blb_dichoticlistening_ba-ba.mp3	ba	ba	0	left
6.6.1	win	2023-07-12	20:51:49	21:11:26	1173733	6282a9b9015ed5c3dbf566b3	4	1	DL_test	23	DL_test	20	stimuli_distractor_trianglediamonds.svg	stimuli_target_rectanglediamonds.svg	10	yes	ga	1	1056	6	4	antiphase_hc_sio.wav	1	6	6	noise_calib_stim_RIGHT.wav	2	14	blb_dichoticlistening_ga-da.mp3	ga	da	1	left
6.6.1	win	2023-07-12	20:51:49	21:11:26	1173733	6282a9b9015ed5c3dbf566b3	4	1	DL_test	23	DL_test	21	stimuli_distractor_trianglediamonds.svg	stimuli_target_rectanglediamonds.svg	10	yes	ga	1	10473	6	4	antiphase_hc_sio.wav	1	6	6	noise_calib_stim_RIGHT.wav	2	17	blb_dichoticlistening_ga-pa.mp3	ga	pa	1	left
6.6.1	win	2023-07-12	20:51:49	21:11:26	1173733	6282a9b9015ed5c3dbf566b3	4	1	DL_test	23	DL_test	22	stimuli_distractor_trianglediamonds.svg	stimuli_target_rectanglediamonds.svg	10	yes	ta	1	1873	6	4	antiphase_hc_sio.wav	1	6	6	noise_calib_stim_RIGHT.wav	2	35	blb_dichoticlistening_ta-pa.mp3	ta	pa	1	left
6.6.1	win	2023-07-12	20:51:49	21:11:26	1173733	6282a9b9015ed5c3dbf566b3	4	1	DL_test	23	DL_test	23	stimuli_distractor_trianglediamonds.svg	stimuli_target_rectanglediamonds.svg	10	yes	da	1	3485	6	4	antiphase_hc_sio.wav	1	6	6	noise_calib_stim_RIGHT.wav	2	7	blb_dichoticlistening_da-ba.mp3	da	ba	1	left
6.6.1	win	2023-07-12	20:51:49	21:11:26	1173733	6282a9b9015ed5c3dbf566b3	4	1	DL_test	23	DL_test	24	stimuli_distractor_trianglediamonds.svg	stimuli_target_rectanglediamonds.svg	10	yes	ta	1	1878	6	4	antiphase_hc_sio.wav	1	6	6	noise_calib_stim_RIGHT.wav	2	36	blb_dichoticlistening_ta-ta.mp3	ta	ta	0	left
6.6.1	win	2023-07-12	20:51:49	21:11:26	1173733	6282a9b9015ed5c3dbf566b3	4	1	DL_test	23	DL_test	25	stimuli_distractor_trianglediamonds.svg	stimuli_target_rectanglediamonds.svg	10	yes	ka	0	44922	6	4	antiphase_hc_sio.wav	1	6	6	noise_calib_stim_RIGHT.wav	2	33	blb_dichoticlistening_ta-ga.mp3	ta	ga	1	other
