build	computer.platform	date	time	timestamp	time_elapsed_ms	subject	group	session	blockcode	blocknum	trialcode	trialnum	stimulus_left	stimulus_right	stim_index	target_present	response	correct	latency	headphonecheck_countTestTrials	headphonecheck_index	headphonecheck_testSound	headphonecheck_correctResponse	stereocheck_countTestTrials	stereocheck_index	stereocheck_testSound	stereocheck_correctResponse	DL_index	DL_soundfile	DL_leftSound	DL_rightSound	DL_dualSound	DL_choice
6.6.1	win	2023-06-19	17:50:38	17:54:05	202673	641b1fcd7275677c08982bae	3	1	practice_slash	5	practice_slash	1	stimuli_distractor_diamondtriangles.svg	stimuli_target_trianglerectangles.svg	9	yes	0	0	2000	0	0			0	0			1				0	
6.6.1	win	2023-06-19	17:50:38	17:54:05	202673	641b1fcd7275677c08982bae	3	1	practice_slash	5	advance_on_keypress_SLASH	2	stimuli_distractor_diamondtriangles.svg	stimuli_target_trianglerectangles.svg	9	yes	57	0	858	0	0			0	0			1				0	
6.6.1	win	2023-06-19	17:50:38	17:54:09	206700	641b1fcd7275677c08982bae	3	1	practice_slash	5	practice_slash	3	stimuli_target_diamondsquares.svg	stimuli_distractor_diamondtriangles.svg	3	yes	53	1	1509	0	0			0	0			1				0	
6.6.1	win	2023-06-19	17:50:38	17:54:09	206700	641b1fcd7275677c08982bae	3	1	practice_slash	5	advance_on_keypress_SLASH	4	stimuli_target_diamondsquares.svg	stimuli_distractor_diamondtriangles.svg	3	yes	57	0	754	0	0			0	0			1				0	
6.6.1	win	2023-06-19	17:50:38	17:54:12	209855	641b1fcd7275677c08982bae	3	1	practice_slash	5	practice_slash	5	stimuli_distractor_diamondtriangles.svg	stimuli_target_rectangletriangles.svg	7	yes	53	1	747	0	0			0	0			1				0	
6.6.1	win	2023-06-19	17:50:38	17:54:12	209855	641b1fcd7275677c08982bae	3	1	practice_slash	5	advance_on_keypress_SLASH	6	stimuli_distractor_diamondtriangles.svg	stimuli_target_rectangletriangles.svg	7	yes	57	0	482	0	0			0	0			1				0	
6.6.1	win	2023-06-19	17:50:38	17:54:16	213991	641b1fcd7275677c08982bae	3	1	practice_slash	5	practice_slash	7	stimuli_distractor_diamondtriangles.svg	stimuli_distractor_trianglediamonds.svg	14	no	0	1	2000	0	0			0	0			1				0	
6.6.1	win	2023-06-19	17:50:38	17:54:16	213991	641b1fcd7275677c08982bae	3	1	practice_slash	5	advance_on_keypress_SLASH	8	stimuli_distractor_diamondtriangles.svg	stimuli_distractor_trianglediamonds.svg	14	no	57	0	918	0	0			0	0			1				0	
6.6.1	win	2023-06-19	17:50:38	17:54:21	218558	641b1fcd7275677c08982bae	3	1	practice_slash	5	practice_slash	9	stimuli_distractor_trianglediamonds.svg	stimuli_distractor_trianglediamonds.svg	15	no	0	1	2000	0	0			0	0			1				0	
6.6.1	win	2023-06-19	17:50:38	17:54:21	218558	641b1fcd7275677c08982bae	3	1	practice_slash	5	advance_on_keypress_SLASH	10	stimuli_distractor_trianglediamonds.svg	stimuli_distractor_trianglediamonds.svg	15	no	57	0	511	0	0			0	0			1				0	
6.6.1	win	2023-06-19	17:50:38	17:54:24	221524	641b1fcd7275677c08982bae	3	1	practice_slash	5	practice_slash	11	stimuli_distractor_trianglediamonds.svg	stimuli_target_rectanglediamonds.svg	10	yes	53	1	798	0	0			0	0			1				0	
6.6.1	win	2023-06-19	17:50:38	17:54:24	221524	641b1fcd7275677c08982bae	3	1	practice_slash	5	advance_on_keypress_SLASH	12	stimuli_distractor_trianglediamonds.svg	stimuli_target_rectanglediamonds.svg	10	yes	57	0	450	0	0			0	0			1				0	
6.6.1	win	2023-06-19	17:50:38	17:54:27	224382	641b1fcd7275677c08982bae	3	1	practice_slash	5	practice_slash	13	stimuli_target_diamondsquares.svg	stimuli_distractor_trianglediamonds.svg	6	yes	53	1	757	0	0			0	0			1				0	
6.6.1	win	2023-06-19	17:50:38	17:54:27	224382	641b1fcd7275677c08982bae	3	1	practice_slash	5	advance_on_keypress_SLASH	14	stimuli_target_diamondsquares.svg	stimuli_distractor_trianglediamonds.svg	6	yes	57	0	901	0	0			0	0			1				0	
6.6.1	win	2023-06-19	17:50:38	17:54:30	227705	641b1fcd7275677c08982bae	3	1	practice_slash	5	practice_slash	15	stimuli_distractor_diamondtriangles.svg	stimuli_target_diamondrectangles.svg	8	yes	53	1	779	0	0			0	0			1				0	
6.6.1	win	2023-06-19	17:50:38	17:54:30	227705	641b1fcd7275677c08982bae	3	1	practice_slash	5	advance_on_keypress_SLASH	16	stimuli_distractor_diamondtriangles.svg	stimuli_target_diamondrectangles.svg	8	yes	57	0	353	0	0			0	0			1				0	
6.6.1	win	2023-06-19	17:50:38	17:54:33	230486	641b1fcd7275677c08982bae	3	1	practice_slash	5	practice_slash	17	stimuli_target_squarediamonds.svg	stimuli_distractor_diamondtriangles.svg	2	yes	53	1	777	0	0			0	0			1				0	
6.6.1	win	2023-06-19	17:50:38	17:54:33	230486	641b1fcd7275677c08982bae	3	1	practice_slash	5	advance_on_keypress_SLASH	18	stimuli_target_squarediamonds.svg	stimuli_distractor_diamondtriangles.svg	2	yes	57	0	395	0	0			0	0			1				0	
6.6.1	win	2023-06-19	17:50:38	17:54:35	233113	641b1fcd7275677c08982bae	3	1	practice_slash	5	practice_slash	19	stimuli_target_rectanglediamonds.svg	stimuli_distractor_diamondtriangles.svg	1	yes	53	1	569	0	0			0	0			1				0	
6.6.1	win	2023-06-19	17:50:38	17:54:35	233113	641b1fcd7275677c08982bae	3	1	practice_slash	5	advance_on_keypress_SLASH	20	stimuli_target_rectanglediamonds.svg	stimuli_distractor_diamondtriangles.svg	1	yes	57	0	320	0	0			0	0			1				0	
6.6.1	win	2023-06-19	17:50:38	17:54:38	235815	641b1fcd7275677c08982bae	3	1	practice_slash	5	practice_slash	21	stimuli_distractor_trianglediamonds.svg	stimuli_target_squarediamonds.svg	11	yes	53	1	738	0	0			0	0			1				0	
6.6.1	win	2023-06-19	17:50:38	17:54:38	235815	641b1fcd7275677c08982bae	3	1	practice_slash	5	advance_on_keypress_SLASH	22	stimuli_distractor_trianglediamonds.svg	stimuli_target_squarediamonds.svg	11	yes	57	0	522	0	0			0	0			1				0	
6.6.1	win	2023-06-19	17:50:38	17:54:41	238778	641b1fcd7275677c08982bae	3	1	practice_slash	5	practice_slash	23	stimuli_target_rectanglediamonds.svg	stimuli_distractor_trianglediamonds.svg	4	yes	53	1	801	0	0			0	0			1				0	
6.6.1	win	2023-06-19	17:50:38	17:54:41	238778	641b1fcd7275677c08982bae	3	1	practice_slash	5	advance_on_keypress_SLASH	24	stimuli_target_rectanglediamonds.svg	stimuli_distractor_trianglediamonds.svg	4	yes	57	0	598	0	0			0	0			1				0	
6.6.1	win	2023-06-19	17:50:38	17:54:44	241837	641b1fcd7275677c08982bae	3	1	practice_slash	5	practice_slash	25	stimuli_target_squarediamonds.svg	stimuli_distractor_trianglediamonds.svg	5	yes	53	1	810	0	0			0	0			1				0	
6.6.1	win	2023-06-19	17:50:38	17:54:44	241837	641b1fcd7275677c08982bae	3	1	practice_slash	5	advance_on_keypress_SLASH	26	stimuli_target_squarediamonds.svg	stimuli_distractor_trianglediamonds.svg	5	yes	57	0	430	0	0			0	0			1				0	
6.6.1	win	2023-06-19	17:50:38	17:54:47	244690	641b1fcd7275677c08982bae	3	1	practice_slash	5	practice_slash	27	stimuli_distractor_trianglediamonds.svg	stimuli_target_diamondrectangles.svg	12	yes	53	1	779	0	0			0	0			1				0	
6.6.1	win	2023-06-19	17:50:38	17:54:47	244690	641b1fcd7275677c08982bae	3	1	practice_slash	5	advance_on_keypress_SLASH	28	stimuli_distractor_trianglediamonds.svg	stimuli_target_diamondrectangles.svg	12	yes	57	0	356	0	0			0	0			1				0	
6.6.1	win	2023-06-19	17:50:38	17:54:51	248694	641b1fcd7275677c08982bae	3	1	practice_slash	5	practice_slash	29	stimuli_distractor_trianglediamonds.svg	stimuli_distractor_diamondtriangles.svg	16	no	0	1	2000	0	0			0	0			1				0	
6.6.1	win	2023-06-19	17:50:38	17:54:51	248694	641b1fcd7275677c08982bae	3	1	practice_slash	5	advance_on_keypress_SLASH	30	stimuli_distractor_trianglediamonds.svg	stimuli_distractor_diamondtriangles.svg	16	no	57	0	905	0	0			0	0			1				0	
6.6.1	win	2023-06-19	17:50:38	17:54:56	253246	641b1fcd7275677c08982bae	3	1	practice_slash	5	practice_slash	31	stimuli_distractor_diamondtriangles.svg	stimuli_distractor_diamondtriangles.svg	13	no	0	1	2000	0	0			0	0			1				0	
6.6.1	win	2023-06-19	17:50:38	17:54:56	253246	641b1fcd7275677c08982bae	3	1	practice_slash	5	advance_on_keypress_SLASH	32	stimuli_distractor_diamondtriangles.svg	stimuli_distractor_diamondtriangles.svg	13	no	57	0	1009	0	0			0	0			1				0	
6.6.1	win	2023-06-19	17:50:38	17:55:09	266744	641b1fcd7275677c08982bae	3	1	main_slash	7	main_slash	1	stimuli_distractor_trianglediamonds.svg	stimuli_target_rectangletriangles.svg	9	yes	53	1	700	0	0			0	0			1				0	
6.6.1	win	2023-06-19	17:50:38	17:55:09	266744	641b1fcd7275677c08982bae	3	1	main_slash	7	advance_on_keypress_SLASH	2	stimuli_distractor_trianglediamonds.svg	stimuli_target_rectangletriangles.svg	9	yes	57	0	2087	0	0			0	0			1				0	
6.6.1	win	2023-06-19	17:50:38	17:55:12	270111	641b1fcd7275677c08982bae	3	1	main_slash	7	main_slash	3	stimuli_target_squarediamonds.svg	stimuli_distractor_trianglediamonds.svg	4	yes	53	1	633	0	0			0	0			1				0	
6.6.1	win	2023-06-19	17:50:38	17:55:12	270111	641b1fcd7275677c08982bae	3	1	main_slash	7	advance_on_keypress_SLASH	4	stimuli_target_squarediamonds.svg	stimuli_distractor_trianglediamonds.svg	4	yes	57	0	716	0	0			0	0			1				0	
6.6.1	win	2023-06-19	17:50:38	17:55:16	273478	641b1fcd7275677c08982bae	3	1	main_slash	7	main_slash	5	stimuli_distractor_trianglediamonds.svg	stimuli_distractor_diamondtriangles.svg	36	no	0	1	2000	0	0			0	0			1				0	
6.6.1	win	2023-06-19	17:50:38	17:55:16	273478	641b1fcd7275677c08982bae	3	1	main_slash	7	advance_on_keypress_SLASH	6	stimuli_distractor_trianglediamonds.svg	stimuli_distractor_diamondtriangles.svg	36	no	57	0	543	0	0			0	0			1				0	
6.6.1	win	2023-06-19	17:50:38	17:55:18	275367	641b1fcd7275677c08982bae	3	1	main_slash	7	main_slash	7	stimuli_target_diamondrectangles.svg	stimuli_distractor_diamondtriangles.svg	23	yes	53	1	705	0	0			0	0			1				0	
6.6.1	win	2023-06-19	17:50:38	17:55:18	275367	641b1fcd7275677c08982bae	3	1	main_slash	7	advance_on_keypress_SLASH	8	stimuli_target_diamondrectangles.svg	stimuli_distractor_diamondtriangles.svg	23	yes	57	0	848	0	0			0	0			1				0	
6.6.1	win	2023-06-19	17:50:38	17:55:20	277627	641b1fcd7275677c08982bae	3	1	main_slash	7	main_slash	9	stimuli_target_squarediamonds.svg	stimuli_distractor_diamondtriangles.svg	8	yes	53	1	765	0	0			0	0			1				0	
6.6.1	win	2023-06-19	17:50:38	17:55:20	277627	641b1fcd7275677c08982bae	3	1	main_slash	7	advance_on_keypress_SLASH	10	stimuli_target_squarediamonds.svg	stimuli_distractor_diamondtriangles.svg	8	yes	57	0	1096	0	0			0	0			1				0	
6.6.1	win	2023-06-19	17:50:38	17:55:22	280060	641b1fcd7275677c08982bae	3	1	main_slash	7	main_slash	11	stimuli_target_squaretriangles.svg	stimuli_distractor_trianglediamonds.svg	3	yes	53	1	681	0	0			0	0			1				0	
6.6.1	win	2023-06-19	17:50:38	17:55:22	280060	641b1fcd7275677c08982bae	3	1	main_slash	7	advance_on_keypress_SLASH	12	stimuli_target_squaretriangles.svg	stimuli_distractor_trianglediamonds.svg	3	yes	57	0	628	0	0			0	0			1				0	
6.6.1	win	2023-06-19	17:50:38	17:55:26	283346	641b1fcd7275677c08982bae	3	1	main_slash	7	main_slash	13	stimuli_distractor_trianglediamonds.svg	stimuli_distractor_trianglediamonds.svg	34	no	0	1	2000	0	0			0	0			1				0	
6.6.1	win	2023-06-19	17:50:38	17:55:26	283346	641b1fcd7275677c08982bae	3	1	main_slash	7	advance_on_keypress_SLASH	14	stimuli_distractor_trianglediamonds.svg	stimuli_distractor_trianglediamonds.svg	34	no	57	0	569	0	0			0	0			1				0	
6.6.1	win	2023-06-19	17:50:38	17:55:28	285318	641b1fcd7275677c08982bae	3	1	main_slash	7	main_slash	15	stimuli_distractor_diamondtriangles.svg	stimuli_target_rectanglediamonds.svg	14	yes	53	1	755	0	0			0	0			1				0	
6.6.1	win	2023-06-19	17:50:38	17:55:28	285318	641b1fcd7275677c08982bae	3	1	main_slash	7	advance_on_keypress_SLASH	16	stimuli_distractor_diamondtriangles.svg	stimuli_target_rectanglediamonds.svg	14	yes	57	0	1173	0	0			0	0			1				0	
6.6.1	win	2023-06-19	17:50:38	17:55:30	287838	641b1fcd7275677c08982bae	3	1	main_slash	7	main_slash	17	stimuli_distractor_trianglediamonds.svg	stimuli_target_squarediamonds.svg	12	yes	53	1	708	0	0			0	0			1				0	
6.6.1	win	2023-06-19	17:50:38	17:55:30	287838	641b1fcd7275677c08982bae	3	1	main_slash	7	advance_on_keypress_SLASH	18	stimuli_distractor_trianglediamonds.svg	stimuli_target_squarediamonds.svg	12	yes	57	0	1678	0	0			0	0			1				0	
6.6.1	win	2023-06-19	17:50:38	17:55:33	290956	641b1fcd7275677c08982bae	3	1	main_slash	7	main_slash	19	stimuli_distractor_trianglediamonds.svg	stimuli_target_rectanglediamonds.svg	10	yes	53	1	809	0	0			0	0			1				0	
6.6.1	win	2023-06-19	17:50:38	17:55:33	290956	641b1fcd7275677c08982bae	3	1	main_slash	7	advance_on_keypress_SLASH	20	stimuli_distractor_trianglediamonds.svg	stimuli_target_rectanglediamonds.svg	10	yes	57	0	1109	0	0			0	0			1				0	
6.6.1	win	2023-06-19	17:50:38	17:55:36	293528	641b1fcd7275677c08982bae	3	1	main_slash	7	main_slash	21	stimuli_distractor_diamondtriangles.svg	stimuli_target_squarediamonds.svg	16	yes	53	1	830	0	0			0	0			1				0	
6.6.1	win	2023-06-19	17:50:38	17:55:36	293528	641b1fcd7275677c08982bae	3	1	main_slash	7	advance_on_keypress_SLASH	22	stimuli_distractor_diamondtriangles.svg	stimuli_target_squarediamonds.svg	16	yes	57	0	1342	0	0			0	0			1				0	
6.6.1	win	2023-06-19	17:50:38	17:55:39	296365	641b1fcd7275677c08982bae	3	1	main_slash	7	main_slash	23	stimuli_distractor_diamondtriangles.svg	stimuli_target_rectangletriangles.svg	13	yes	53	1	851	0	0			0	0			1				0	
6.6.1	win	2023-06-19	17:50:38	17:55:39	296365	641b1fcd7275677c08982bae	3	1	main_slash	7	advance_on_keypress_SLASH	24	stimuli_distractor_diamondtriangles.svg	stimuli_target_rectangletriangles.svg	13	yes	57	0	849	0	0			0	0			1				0	
6.6.1	win	2023-06-19	17:50:38	17:55:42	299864	641b1fcd7275677c08982bae	3	1	main_slash	7	main_slash	25	stimuli_distractor_trianglediamonds.svg	stimuli_target_trianglerectangles.svg	25	yes	0	0	2000	0	0			0	0			1				0	
6.6.1	win	2023-06-19	17:50:38	17:55:42	299864	641b1fcd7275677c08982bae	3	1	main_slash	7	advance_on_keypress_SLASH	26	stimuli_distractor_trianglediamonds.svg	stimuli_target_trianglerectangles.svg	25	yes	57	0	409	0	0			0	0			1				0	
6.6.1	win	2023-06-19	17:50:38	17:55:44	301641	641b1fcd7275677c08982bae	3	1	main_slash	7	main_slash	27	stimuli_target_rectanglediamonds.svg	stimuli_distractor_diamondtriangles.svg	6	yes	53	1	727	0	0			0	0			1				0	
6.6.1	win	2023-06-19	17:50:38	17:55:44	301641	641b1fcd7275677c08982bae	3	1	main_slash	7	advance_on_keypress_SLASH	28	stimuli_target_rectanglediamonds.svg	stimuli_distractor_diamondtriangles.svg	6	yes	57	0	769	0	0			0	0			1				0	
6.6.1	win	2023-06-19	17:50:38	17:55:47	305048	641b1fcd7275677c08982bae	3	1	main_slash	7	main_slash	29	stimuli_distractor_diamondtriangles.svg	stimuli_distractor_trianglediamonds.svg	38	no	0	1	2000	0	0			0	0			1				0	
6.6.1	win	2023-06-19	17:50:38	17:55:47	305048	641b1fcd7275677c08982bae	3	1	main_slash	7	advance_on_keypress_SLASH	30	stimuli_distractor_diamondtriangles.svg	stimuli_distractor_trianglediamonds.svg	38	no	57	0	331	0	0			0	0			1				0	
6.6.1	win	2023-06-19	17:50:38	17:55:49	306782	641b1fcd7275677c08982bae	3	1	main_slash	7	main_slash	31	stimuli_distractor_diamondtriangles.svg	stimuli_target_diamondrectangles.svg	31	yes	53	1	750	0	0			0	0			1				0	
6.6.1	win	2023-06-19	17:50:38	17:55:49	306782	641b1fcd7275677c08982bae	3	1	main_slash	7	advance_on_keypress_SLASH	32	stimuli_distractor_diamondtriangles.svg	stimuli_target_diamondrectangles.svg	31	yes	57	0	734	0	0			0	0			1				0	
6.6.1	win	2023-06-19	17:50:38	17:55:52	309184	641b1fcd7275677c08982bae	3	1	main_slash	7	main_slash	33	stimuli_distractor_diamondtriangles.svg	stimuli_target_squaretriangles.svg	15	yes	53	1	1019	0	0			0	0			1				0	
6.6.1	win	2023-06-19	17:50:38	17:55:52	309184	641b1fcd7275677c08982bae	3	1	main_slash	7	advance_on_keypress_SLASH	34	stimuli_distractor_diamondtriangles.svg	stimuli_target_squaretriangles.svg	15	yes	57	0	926	0	0			0	0			1				0	
6.6.1	win	2023-06-19	17:50:38	17:55:54	311502	641b1fcd7275677c08982bae	3	1	main_slash	7	main_slash	35	stimuli_target_diamondsquares.svg	stimuli_distractor_diamondtriangles.svg	24	yes	53	1	753	0	0			0	0			1				0	
6.6.1	win	2023-06-19	17:50:38	17:55:54	311502	641b1fcd7275677c08982bae	3	1	main_slash	7	advance_on_keypress_SLASH	36	stimuli_target_diamondsquares.svg	stimuli_distractor_diamondtriangles.svg	24	yes	57	0	875	0	0			0	0			1				0	
6.6.1	win	2023-06-19	17:50:38	17:55:57	315016	641b1fcd7275677c08982bae	3	1	main_slash	7	main_slash	37	stimuli_distractor_trianglediamonds.svg	stimuli_distractor_diamondtriangles.svg	35	no	0	1	2000	0	0			0	0			1				0	
6.6.1	win	2023-06-19	17:50:38	17:55:57	315016	641b1fcd7275677c08982bae	3	1	main_slash	7	advance_on_keypress_SLASH	38	stimuli_distractor_trianglediamonds.svg	stimuli_distractor_diamondtriangles.svg	35	no	57	0	1641	0	0			0	0			1				0	
6.6.1	win	2023-06-19	17:50:38	17:56:00	318055	641b1fcd7275677c08982bae	3	1	main_slash	7	main_slash	39	stimuli_target_rectangletriangles.svg	stimuli_distractor_diamondtriangles.svg	5	yes	53	1	755	0	0			0	0			1				0	
6.6.1	win	2023-06-19	17:50:38	17:56:00	318055	641b1fcd7275677c08982bae	3	1	main_slash	7	advance_on_keypress_SLASH	40	stimuli_target_rectangletriangles.svg	stimuli_distractor_diamondtriangles.svg	5	yes	57	0	1044	0	0			0	0			1				0	
6.6.1	win	2023-06-19	17:50:38	17:56:03	320473	641b1fcd7275677c08982bae	3	1	main_slash	7	main_slash	41	stimuli_target_squaretriangles.svg	stimuli_distractor_diamondtriangles.svg	7	yes	53	1	740	0	0			0	0			1				0	
6.6.1	win	2023-06-19	17:50:38	17:56:03	320473	641b1fcd7275677c08982bae	3	1	main_slash	7	advance_on_keypress_SLASH	42	stimuli_target_squaretriangles.svg	stimuli_distractor_diamondtriangles.svg	7	yes	57	0	878	0	0			0	0			1				0	
6.6.1	win	2023-06-19	17:50:38	17:56:05	322758	641b1fcd7275677c08982bae	3	1	main_slash	7	main_slash	43	stimuli_target_trianglesquares.svg	stimuli_distractor_trianglediamonds.svg	18	yes	53	1	758	0	0			0	0			1				0	
6.6.1	win	2023-06-19	17:50:38	17:56:05	322758	641b1fcd7275677c08982bae	3	1	main_slash	7	advance_on_keypress_SLASH	44	stimuli_target_trianglesquares.svg	stimuli_distractor_trianglediamonds.svg	18	yes	57	0	704	0	0			0	0			1				0	
6.6.1	win	2023-06-19	17:50:38	17:56:07	324873	641b1fcd7275677c08982bae	3	1	main_slash	7	main_slash	45	stimuli_distractor_trianglediamonds.svg	stimuli_target_diamondsquares.svg	28	yes	53	1	773	0	0			0	0			1				0	
6.6.1	win	2023-06-19	17:50:38	17:56:07	324873	641b1fcd7275677c08982bae	3	1	main_slash	7	advance_on_keypress_SLASH	46	stimuli_distractor_trianglediamonds.svg	stimuli_target_diamondsquares.svg	28	yes	57	0	702	0	0			0	0			1				0	
6.6.1	win	2023-06-19	17:50:38	17:56:11	328217	641b1fcd7275677c08982bae	3	1	main_slash	7	main_slash	47	stimuli_distractor_diamondtriangles.svg	stimuli_distractor_diamondtriangles.svg	40	no	0	1	2000	0	0			0	0			1				0	
6.6.1	win	2023-06-19	17:50:38	17:56:11	328217	641b1fcd7275677c08982bae	3	1	main_slash	7	advance_on_keypress_SLASH	48	stimuli_distractor_diamondtriangles.svg	stimuli_distractor_diamondtriangles.svg	40	no	57	0	423	0	0			0	0			1				0	
6.6.1	win	2023-06-19	17:50:38	17:56:12	330062	641b1fcd7275677c08982bae	3	1	main_slash	7	main_slash	49	stimuli_distractor_trianglediamonds.svg	stimuli_target_trianglesquares.svg	26	yes	53	1	778	0	0			0	0			1				0	
6.6.1	win	2023-06-19	17:50:38	17:56:12	330062	641b1fcd7275677c08982bae	3	1	main_slash	7	advance_on_keypress_SLASH	50	stimuli_distractor_trianglediamonds.svg	stimuli_target_trianglesquares.svg	26	yes	57	0	562	0	0			0	0			1				0	
6.6.1	win	2023-06-19	17:50:38	17:56:16	333268	641b1fcd7275677c08982bae	3	1	main_slash	7	main_slash	51	stimuli_distractor_diamondtriangles.svg	stimuli_distractor_diamondtriangles.svg	39	no	0	1	2000	0	0			0	0			1				0	
6.6.1	win	2023-06-19	17:50:38	17:56:16	333268	641b1fcd7275677c08982bae	3	1	main_slash	7	advance_on_keypress_SLASH	52	stimuli_distractor_diamondtriangles.svg	stimuli_distractor_diamondtriangles.svg	39	no	57	0	2154	0	0			0	0			1				0	
6.6.1	win	2023-06-19	17:50:38	17:56:19	336717	641b1fcd7275677c08982bae	3	1	main_slash	7	main_slash	53	stimuli_target_diamondsquares.svg	stimuli_distractor_trianglediamonds.svg	20	yes	53	1	649	0	0			0	0			1				0	
6.6.1	win	2023-06-19	17:50:38	17:56:19	336717	641b1fcd7275677c08982bae	3	1	main_slash	7	advance_on_keypress_SLASH	54	stimuli_target_diamondsquares.svg	stimuli_distractor_trianglediamonds.svg	20	yes	57	0	545	0	0			0	0			1				0	
6.6.1	win	2023-06-19	17:50:38	17:56:21	338625	641b1fcd7275677c08982bae	3	1	main_slash	7	main_slash	55	stimuli_distractor_diamondtriangles.svg	stimuli_target_trianglesquares.svg	30	yes	53	1	706	0	0			0	0			1				0	
6.6.1	win	2023-06-19	17:50:38	17:56:21	338625	641b1fcd7275677c08982bae	3	1	main_slash	7	advance_on_keypress_SLASH	56	stimuli_distractor_diamondtriangles.svg	stimuli_target_trianglesquares.svg	30	yes	57	0	520	0	0			0	0			1				0	
6.6.1	win	2023-06-19	17:50:38	17:56:24	341785	641b1fcd7275677c08982bae	3	1	main_slash	7	main_slash	57	stimuli_distractor_diamondtriangles.svg	stimuli_distractor_trianglediamonds.svg	37	no	0	1	2000	0	0			0	0			1				0	
6.6.1	win	2023-06-19	17:50:38	17:56:24	341785	641b1fcd7275677c08982bae	3	1	main_slash	7	advance_on_keypress_SLASH	58	stimuli_distractor_diamondtriangles.svg	stimuli_distractor_trianglediamonds.svg	37	no	57	0	346	0	0			0	0			1				0	
6.6.1	win	2023-06-19	17:50:38	17:56:26	343400	641b1fcd7275677c08982bae	3	1	main_slash	7	main_slash	59	stimuli_target_diamondrectangles.svg	stimuli_distractor_trianglediamonds.svg	19	yes	53	1	614	0	0			0	0			1				0	
6.6.1	win	2023-06-19	17:50:38	17:56:26	343400	641b1fcd7275677c08982bae	3	1	main_slash	7	advance_on_keypress_SLASH	60	stimuli_target_diamondrectangles.svg	stimuli_distractor_trianglediamonds.svg	19	yes	57	0	542	0	0			0	0			1				0	
6.6.1	win	2023-06-19	17:50:38	17:56:28	345167	641b1fcd7275677c08982bae	3	1	main_slash	7	main_slash	61	stimuli_target_trianglerectangles.svg	stimuli_distractor_diamondtriangles.svg	21	yes	53	1	580	0	0			0	0			1				0	
6.6.1	win	2023-06-19	17:50:38	17:56:28	345167	641b1fcd7275677c08982bae	3	1	main_slash	7	advance_on_keypress_SLASH	62	stimuli_target_trianglerectangles.svg	stimuli_distractor_diamondtriangles.svg	21	yes	57	0	17941	0	0			0	0			1				0	
6.6.1	win	2023-06-19	17:50:38	17:56:48	365754	641b1fcd7275677c08982bae	3	1	main_slash	7	main_slash	63	stimuli_distractor_trianglediamonds.svg	stimuli_distractor_trianglediamonds.svg	33	no	0	1	2000	0	0			0	0			1				0	
6.6.1	win	2023-06-19	17:50:38	17:56:48	365754	641b1fcd7275677c08982bae	3	1	main_slash	7	advance_on_keypress_SLASH	64	stimuli_distractor_trianglediamonds.svg	stimuli_distractor_trianglediamonds.svg	33	no	57	0	367	0	0			0	0			1				0	
6.6.1	win	2023-06-19	17:50:38	17:56:50	367454	641b1fcd7275677c08982bae	3	1	main_slash	7	main_slash	65	stimuli_target_trianglerectangles.svg	stimuli_distractor_trianglediamonds.svg	17	yes	53	1	683	0	0			0	0			1				0	
6.6.1	win	2023-06-19	17:50:38	17:56:50	367454	641b1fcd7275677c08982bae	3	1	main_slash	7	advance_on_keypress_SLASH	66	stimuli_target_trianglerectangles.svg	stimuli_distractor_trianglediamonds.svg	17	yes	57	0	755	0	0			0	0			1				0	
6.6.1	win	2023-06-19	17:50:38	17:56:52	369427	641b1fcd7275677c08982bae	3	1	main_slash	7	main_slash	67	stimuli_target_trianglesquares.svg	stimuli_distractor_diamondtriangles.svg	22	yes	53	1	573	0	0			0	0			1				0	
6.6.1	win	2023-06-19	17:50:38	17:56:52	369427	641b1fcd7275677c08982bae	3	1	main_slash	7	advance_on_keypress_SLASH	68	stimuli_target_trianglesquares.svg	stimuli_distractor_diamondtriangles.svg	22	yes	57	0	612	0	0			0	0			1				0	
6.6.1	win	2023-06-19	17:50:38	17:56:54	371394	641b1fcd7275677c08982bae	3	1	main_slash	7	main_slash	69	stimuli_distractor_diamondtriangles.svg	stimuli_target_trianglerectangles.svg	29	yes	53	1	705	0	0			0	0			1				0	
6.6.1	win	2023-06-19	17:50:38	17:56:54	371394	641b1fcd7275677c08982bae	3	1	main_slash	7	advance_on_keypress_SLASH	70	stimuli_distractor_diamondtriangles.svg	stimuli_target_trianglerectangles.svg	29	yes	57	0	574	0	0			0	0			1				0	
6.6.1	win	2023-06-19	17:50:38	17:56:56	373366	641b1fcd7275677c08982bae	3	1	main_slash	7	main_slash	71	stimuli_target_rectangletriangles.svg	stimuli_distractor_trianglediamonds.svg	1	yes	53	1	760	0	0			0	0			1				0	
6.6.1	win	2023-06-19	17:50:38	17:56:56	373366	641b1fcd7275677c08982bae	3	1	main_slash	7	advance_on_keypress_SLASH	72	stimuli_target_rectangletriangles.svg	stimuli_distractor_trianglediamonds.svg	1	yes	57	0	1449	0	0			0	0			1				0	
6.6.1	win	2023-06-19	17:50:38	17:56:59	376535	641b1fcd7275677c08982bae	3	1	main_slash	7	main_slash	73	stimuli_distractor_trianglediamonds.svg	stimuli_target_diamondrectangles.svg	27	yes	53	1	1077	0	0			0	0			1				0	
6.6.1	win	2023-06-19	17:50:38	17:56:59	376535	641b1fcd7275677c08982bae	3	1	main_slash	7	advance_on_keypress_SLASH	74	stimuli_distractor_trianglediamonds.svg	stimuli_target_diamondrectangles.svg	27	yes	57	0	569	0	0			0	0			1				0	
6.6.1	win	2023-06-19	17:50:38	17:57:01	378434	641b1fcd7275677c08982bae	3	1	main_slash	7	main_slash	75	stimuli_distractor_diamondtriangles.svg	stimuli_target_diamondsquares.svg	32	yes	53	1	678	0	0			0	0			1				0	
6.6.1	win	2023-06-19	17:50:38	17:57:01	378434	641b1fcd7275677c08982bae	3	1	main_slash	7	advance_on_keypress_SLASH	76	stimuli_distractor_diamondtriangles.svg	stimuli_target_diamondsquares.svg	32	yes	57	0	1103	0	0			0	0			1				0	
6.6.1	win	2023-06-19	17:50:38	17:57:03	380905	641b1fcd7275677c08982bae	3	1	main_slash	7	main_slash	77	stimuli_target_rectanglediamonds.svg	stimuli_distractor_trianglediamonds.svg	2	yes	53	1	715	0	0			0	0			1				0	
6.6.1	win	2023-06-19	17:50:38	17:57:03	380905	641b1fcd7275677c08982bae	3	1	main_slash	7	advance_on_keypress_SLASH	78	stimuli_target_rectanglediamonds.svg	stimuli_distractor_trianglediamonds.svg	2	yes	57	0	590	0	0			0	0			1				0	
6.6.1	win	2023-06-19	17:50:38	17:57:05	382914	641b1fcd7275677c08982bae	3	1	main_slash	7	main_slash	79	stimuli_distractor_trianglediamonds.svg	stimuli_target_squaretriangles.svg	11	yes	53	1	773	0	0			0	0			1				0	
6.6.1	win	2023-06-19	17:50:38	17:57:05	382914	641b1fcd7275677c08982bae	3	1	main_slash	7	advance_on_keypress_SLASH	80	stimuli_distractor_trianglediamonds.svg	stimuli_target_squaretriangles.svg	11	yes	57	0	557	0	0			0	0			1				0	
6.6.1	win	2023-06-19	17:50:38	17:57:07	384922	641b1fcd7275677c08982bae	3	1	main_slash	7	main_slash	81	stimuli_distractor_diamondtriangles.svg	stimuli_target_trianglesquares.svg	30	yes	53	1	816	0	0			0	0			1				0	
6.6.1	win	2023-06-19	17:50:38	17:57:07	384922	641b1fcd7275677c08982bae	3	1	main_slash	7	advance_on_keypress_SLASH	82	stimuli_distractor_diamondtriangles.svg	stimuli_target_trianglesquares.svg	30	yes	57	0	526	0	0			0	0			1				0	
6.6.1	win	2023-06-19	17:50:38	17:57:09	387014	641b1fcd7275677c08982bae	3	1	main_slash	7	main_slash	83	stimuli_distractor_trianglediamonds.svg	stimuli_target_trianglerectangles.svg	25	yes	53	1	923	0	0			0	0			1				0	
6.6.1	win	2023-06-19	17:50:38	17:57:09	387014	641b1fcd7275677c08982bae	3	1	main_slash	7	advance_on_keypress_SLASH	84	stimuli_distractor_trianglediamonds.svg	stimuli_target_trianglerectangles.svg	25	yes	57	0	1269	0	0			0	0			1				0	
6.6.1	win	2023-06-19	17:50:38	17:57:12	389762	641b1fcd7275677c08982bae	3	1	main_slash	7	main_slash	85	stimuli_target_squarediamonds.svg	stimuli_distractor_diamondtriangles.svg	8	yes	53	1	838	0	0			0	0			1				0	
6.6.1	win	2023-06-19	17:50:38	17:57:12	389762	641b1fcd7275677c08982bae	3	1	main_slash	7	advance_on_keypress_SLASH	86	stimuli_target_squarediamonds.svg	stimuli_distractor_diamondtriangles.svg	8	yes	57	0	545	0	0			0	0			1				0	
6.6.1	win	2023-06-19	17:50:38	17:57:15	392957	641b1fcd7275677c08982bae	3	1	main_slash	7	main_slash	87	stimuli_distractor_diamondtriangles.svg	stimuli_target_rectanglediamonds.svg	14	yes	0	0	2000	0	0			0	0			1				0	
6.6.1	win	2023-06-19	17:50:38	17:57:15	392957	641b1fcd7275677c08982bae	3	1	main_slash	7	advance_on_keypress_SLASH	88	stimuli_distractor_diamondtriangles.svg	stimuli_target_rectanglediamonds.svg	14	yes	57	0	303	0	0			0	0			1				0	
6.6.1	win	2023-06-19	17:50:38	17:57:17	394840	641b1fcd7275677c08982bae	3	1	main_slash	7	main_slash	89	stimuli_distractor_trianglediamonds.svg	stimuli_target_squarediamonds.svg	12	yes	53	1	933	0	0			0	0			1				0	
6.6.1	win	2023-06-19	17:50:38	17:57:17	394840	641b1fcd7275677c08982bae	3	1	main_slash	7	advance_on_keypress_SLASH	90	stimuli_distractor_trianglediamonds.svg	stimuli_target_squarediamonds.svg	12	yes	57	0	464	0	0			0	0			1				0	
6.6.1	win	2023-06-19	17:50:38	17:57:19	396619	641b1fcd7275677c08982bae	3	1	main_slash	7	main_slash	91	stimuli_target_trianglesquares.svg	stimuli_distractor_diamondtriangles.svg	22	yes	53	1	661	0	0			0	0			1				0	
6.6.1	win	2023-06-19	17:50:38	17:57:19	396619	641b1fcd7275677c08982bae	3	1	main_slash	7	advance_on_keypress_SLASH	92	stimuli_target_trianglesquares.svg	stimuli_distractor_diamondtriangles.svg	22	yes	57	0	482	0	0			0	0			1				0	
6.6.1	win	2023-06-19	17:50:38	17:57:21	398403	641b1fcd7275677c08982bae	3	1	main_slash	7	main_slash	93	stimuli_target_diamondrectangles.svg	stimuli_distractor_trianglediamonds.svg	19	yes	53	1	662	0	0			0	0			1				0	
6.6.1	win	2023-06-19	17:50:38	17:57:21	398403	641b1fcd7275677c08982bae	3	1	main_slash	7	advance_on_keypress_SLASH	94	stimuli_target_diamondrectangles.svg	stimuli_distractor_trianglediamonds.svg	19	yes	57	0	489	0	0			0	0			1				0	
6.6.1	win	2023-06-19	17:50:38	17:57:23	400170	641b1fcd7275677c08982bae	3	1	main_slash	7	main_slash	95	stimuli_distractor_trianglediamonds.svg	stimuli_target_trianglesquares.svg	26	yes	53	1	645	0	0			0	0			1				0	
6.6.1	win	2023-06-19	17:50:38	17:57:23	400170	641b1fcd7275677c08982bae	3	1	main_slash	7	advance_on_keypress_SLASH	96	stimuli_distractor_trianglediamonds.svg	stimuli_target_trianglesquares.svg	26	yes	57	0	637	0	0			0	0			1				0	
6.6.1	win	2023-06-19	17:50:38	17:57:24	401904	641b1fcd7275677c08982bae	3	1	main_slash	7	main_slash	97	stimuli_target_trianglerectangles.svg	stimuli_distractor_diamondtriangles.svg	21	yes	53	1	445	0	0			0	0			1				0	
6.6.1	win	2023-06-19	17:50:38	17:57:24	401904	641b1fcd7275677c08982bae	3	1	main_slash	7	advance_on_keypress_SLASH	98	stimuli_target_trianglerectangles.svg	stimuli_distractor_diamondtriangles.svg	21	yes	57	0	668	0	0			0	0			1				0	
6.6.1	win	2023-06-19	17:50:38	17:57:26	403688	641b1fcd7275677c08982bae	3	1	main_slash	7	main_slash	99	stimuli_distractor_trianglediamonds.svg	stimuli_target_diamondsquares.svg	28	yes	53	1	462	0	0			0	0			1				0	
6.6.1	win	2023-06-19	17:50:38	17:57:26	403688	641b1fcd7275677c08982bae	3	1	main_slash	7	advance_on_keypress_SLASH	100	stimuli_distractor_trianglediamonds.svg	stimuli_target_diamondsquares.svg	28	yes	57	0	533	0	0			0	0			1				0	
6.6.1	win	2023-06-19	17:50:38	17:57:28	405445	641b1fcd7275677c08982bae	3	1	main_slash	7	main_slash	101	stimuli_distractor_diamondtriangles.svg	stimuli_distractor_trianglediamonds.svg	37	no	53	0	570	0	0			0	0			1				0	
6.6.1	win	2023-06-19	17:50:38	17:57:28	405445	641b1fcd7275677c08982bae	3	1	main_slash	7	advance_on_keypress_SLASH	102	stimuli_distractor_diamondtriangles.svg	stimuli_distractor_trianglediamonds.svg	37	no	57	0	896	0	0			0	0			1				0	
6.6.1	win	2023-06-19	17:50:38	17:57:31	408992	641b1fcd7275677c08982bae	3	1	main_slash	7	main_slash	103	stimuli_distractor_trianglediamonds.svg	stimuli_distractor_diamondtriangles.svg	35	no	0	1	2000	0	0			0	0			1				0	
6.6.1	win	2023-06-19	17:50:38	17:57:31	408992	641b1fcd7275677c08982bae	3	1	main_slash	7	advance_on_keypress_SLASH	104	stimuli_distractor_trianglediamonds.svg	stimuli_distractor_diamondtriangles.svg	35	no	57	0	794	0	0			0	0			1				0	
6.6.1	win	2023-06-19	17:50:38	17:57:35	412426	641b1fcd7275677c08982bae	3	1	main_slash	7	main_slash	105	stimuli_distractor_trianglediamonds.svg	stimuli_distractor_trianglediamonds.svg	33	no	0	1	2000	0	0			0	0			1				0	
6.6.1	win	2023-06-19	17:50:38	17:57:35	412426	641b1fcd7275677c08982bae	3	1	main_slash	7	advance_on_keypress_SLASH	106	stimuli_distractor_trianglediamonds.svg	stimuli_distractor_trianglediamonds.svg	33	no	57	0	365	0	0			0	0			1				0	
6.6.1	win	2023-06-19	17:50:38	17:57:37	414273	641b1fcd7275677c08982bae	3	1	main_slash	7	main_slash	107	stimuli_target_trianglerectangles.svg	stimuli_distractor_trianglediamonds.svg	17	yes	53	1	830	0	0			0	0			1				0	
6.6.1	win	2023-06-19	17:50:38	17:57:37	414273	641b1fcd7275677c08982bae	3	1	main_slash	7	advance_on_keypress_SLASH	108	stimuli_target_trianglerectangles.svg	stimuli_distractor_trianglediamonds.svg	17	yes	57	0	488	0	0			0	0			1				0	
6.6.1	win	2023-06-19	17:50:38	17:57:39	416155	641b1fcd7275677c08982bae	3	1	main_slash	7	main_slash	109	stimuli_target_trianglesquares.svg	stimuli_distractor_trianglediamonds.svg	18	yes	53	1	745	0	0			0	0			1				0	
6.6.1	win	2023-06-19	17:50:38	17:57:39	416155	641b1fcd7275677c08982bae	3	1	main_slash	7	advance_on_keypress_SLASH	110	stimuli_target_trianglesquares.svg	stimuli_distractor_trianglediamonds.svg	18	yes	57	0	456	0	0			0	0			1				0	
6.6.1	win	2023-06-19	17:50:38	17:57:40	418052	641b1fcd7275677c08982bae	3	1	main_slash	7	main_slash	111	stimuli_distractor_diamondtriangles.svg	stimuli_target_diamondrectangles.svg	31	yes	53	1	809	0	0			0	0			1				0	
6.6.1	win	2023-06-19	17:50:38	17:57:40	418052	641b1fcd7275677c08982bae	3	1	main_slash	7	advance_on_keypress_SLASH	112	stimuli_distractor_diamondtriangles.svg	stimuli_target_diamondrectangles.svg	31	yes	57	0	441	0	0			0	0			1				0	
6.6.1	win	2023-06-19	17:50:38	17:57:42	419962	641b1fcd7275677c08982bae	3	1	main_slash	7	main_slash	113	stimuli_target_squaretriangles.svg	stimuli_distractor_diamondtriangles.svg	7	yes	53	1	834	0	0			0	0			1				0	
6.6.1	win	2023-06-19	17:50:38	17:57:42	419962	641b1fcd7275677c08982bae	3	1	main_slash	7	advance_on_keypress_SLASH	114	stimuli_target_squaretriangles.svg	stimuli_distractor_diamondtriangles.svg	7	yes	57	0	438	0	0			0	0			1				0	
6.6.1	win	2023-06-19	17:50:38	17:57:45	423044	641b1fcd7275677c08982bae	3	1	main_slash	7	main_slash	115	stimuli_distractor_diamondtriangles.svg	stimuli_target_squarediamonds.svg	16	yes	0	0	2000	0	0			0	0			1				0	
6.6.1	win	2023-06-19	17:50:38	17:57:45	423044	641b1fcd7275677c08982bae	3	1	main_slash	7	advance_on_keypress_SLASH	116	stimuli_distractor_diamondtriangles.svg	stimuli_target_squarediamonds.svg	16	yes	57	0	678	0	0			0	0			1				0	
6.6.1	win	2023-06-19	17:50:38	17:57:47	425094	641b1fcd7275677c08982bae	3	1	main_slash	7	main_slash	117	stimuli_distractor_diamondtriangles.svg	stimuli_target_squaretriangles.svg	15	yes	53	1	733	0	0			0	0			1				0	
6.6.1	win	2023-06-19	17:50:38	17:57:47	425094	641b1fcd7275677c08982bae	3	1	main_slash	7	advance_on_keypress_SLASH	118	stimuli_distractor_diamondtriangles.svg	stimuli_target_squaretriangles.svg	15	yes	57	0	3997	0	0			0	0			1				0	
6.6.1	win	2023-06-19	17:50:38	17:57:53	430516	641b1fcd7275677c08982bae	3	1	main_slash	7	main_slash	119	stimuli_target_diamondrectangles.svg	stimuli_distractor_diamondtriangles.svg	23	yes	53	1	771	0	0			0	0			1				0	
6.6.1	win	2023-06-19	17:50:38	17:57:53	430516	641b1fcd7275677c08982bae	3	1	main_slash	7	advance_on_keypress_SLASH	120	stimuli_target_diamondrectangles.svg	stimuli_distractor_diamondtriangles.svg	23	yes	57	0	724	0	0			0	0			1				0	
6.6.1	win	2023-06-19	17:50:38	17:57:55	432544	641b1fcd7275677c08982bae	3	1	main_slash	7	main_slash	121	stimuli_distractor_diamondtriangles.svg	stimuli_target_rectangletriangles.svg	13	yes	53	1	666	0	0			0	0			1				0	
6.6.1	win	2023-06-19	17:50:38	17:57:55	432544	641b1fcd7275677c08982bae	3	1	main_slash	7	advance_on_keypress_SLASH	122	stimuli_distractor_diamondtriangles.svg	stimuli_target_rectangletriangles.svg	13	yes	57	0	536	0	0			0	0			1				0	
6.6.1	win	2023-06-19	17:50:38	17:57:57	434380	641b1fcd7275677c08982bae	3	1	main_slash	7	main_slash	123	stimuli_target_diamondsquares.svg	stimuli_distractor_trianglediamonds.svg	20	yes	53	1	652	0	0			0	0			1				0	
6.6.1	win	2023-06-19	17:50:38	17:57:57	434380	641b1fcd7275677c08982bae	3	1	main_slash	7	advance_on_keypress_SLASH	124	stimuli_target_diamondsquares.svg	stimuli_distractor_trianglediamonds.svg	20	yes	57	0	417	0	0			0	0			1				0	
6.6.1	win	2023-06-19	17:50:38	17:57:58	436076	641b1fcd7275677c08982bae	3	1	main_slash	7	main_slash	125	stimuli_distractor_trianglediamonds.svg	stimuli_target_rectangletriangles.svg	9	yes	53	1	630	0	0			0	0			1				0	
6.6.1	win	2023-06-19	17:50:38	17:57:58	436076	641b1fcd7275677c08982bae	3	1	main_slash	7	advance_on_keypress_SLASH	126	stimuli_distractor_trianglediamonds.svg	stimuli_target_rectangletriangles.svg	9	yes	57	0	516	0	0			0	0			1				0	
6.6.1	win	2023-06-19	17:50:38	17:58:00	437886	641b1fcd7275677c08982bae	3	1	main_slash	7	main_slash	127	stimuli_distractor_trianglediamonds.svg	stimuli_target_diamondrectangles.svg	27	yes	53	1	641	0	0			0	0			1				0	
6.6.1	win	2023-06-19	17:50:38	17:58:00	437886	641b1fcd7275677c08982bae	3	1	main_slash	7	advance_on_keypress_SLASH	128	stimuli_distractor_trianglediamonds.svg	stimuli_target_diamondrectangles.svg	27	yes	57	0	416	0	0			0	0			1				0	
6.6.1	win	2023-06-19	17:50:38	17:58:02	439533	641b1fcd7275677c08982bae	3	1	main_slash	7	main_slash	129	stimuli_target_rectanglediamonds.svg	stimuli_distractor_trianglediamonds.svg	2	yes	53	1	588	0	0			0	0			1				0	
6.6.1	win	2023-06-19	17:50:38	17:58:02	439533	641b1fcd7275677c08982bae	3	1	main_slash	7	advance_on_keypress_SLASH	130	stimuli_target_rectanglediamonds.svg	stimuli_distractor_trianglediamonds.svg	2	yes	57	0	452	0	0			0	0			1				0	
6.6.1	win	2023-06-19	17:50:38	17:58:03	441099	641b1fcd7275677c08982bae	3	1	main_slash	7	main_slash	131	stimuli_distractor_diamondtriangles.svg	stimuli_target_diamondsquares.svg	32	yes	53	1	470	0	0			0	0			1				0	
6.6.1	win	2023-06-19	17:50:38	17:58:03	441099	641b1fcd7275677c08982bae	3	1	main_slash	7	advance_on_keypress_SLASH	132	stimuli_distractor_diamondtriangles.svg	stimuli_target_diamondsquares.svg	32	yes	57	0	463	0	0			0	0			1				0	
6.6.1	win	2023-06-19	17:50:38	17:58:05	442757	641b1fcd7275677c08982bae	3	1	main_slash	7	main_slash	133	stimuli_target_squarediamonds.svg	stimuli_distractor_trianglediamonds.svg	4	yes	53	1	545	0	0			0	0			1				0	
6.6.1	win	2023-06-19	17:50:38	17:58:05	442757	641b1fcd7275677c08982bae	3	1	main_slash	7	advance_on_keypress_SLASH	134	stimuli_target_squarediamonds.svg	stimuli_distractor_trianglediamonds.svg	4	yes	57	0	504	0	0			0	0			1				0	
6.6.1	win	2023-06-19	17:50:38	17:58:07	444517	641b1fcd7275677c08982bae	3	1	main_slash	7	main_slash	135	stimuli_distractor_diamondtriangles.svg	stimuli_target_trianglerectangles.svg	29	yes	53	1	604	0	0			0	0			1				0	
6.6.1	win	2023-06-19	17:50:38	17:58:07	444517	641b1fcd7275677c08982bae	3	1	main_slash	7	advance_on_keypress_SLASH	136	stimuli_distractor_diamondtriangles.svg	stimuli_target_trianglerectangles.svg	29	yes	57	0	406	0	0			0	0			1				0	
6.6.1	win	2023-06-19	17:50:38	17:58:10	447563	641b1fcd7275677c08982bae	3	1	main_slash	7	main_slash	137	stimuli_distractor_diamondtriangles.svg	stimuli_distractor_diamondtriangles.svg	40	no	0	1	2000	0	0			0	0			1				0	
6.6.1	win	2023-06-19	17:50:38	17:58:10	447563	641b1fcd7275677c08982bae	3	1	main_slash	7	advance_on_keypress_SLASH	138	stimuli_distractor_diamondtriangles.svg	stimuli_distractor_diamondtriangles.svg	40	no	57	0	392	0	0			0	0			1				0	
6.6.1	win	2023-06-19	17:50:38	17:58:13	450597	641b1fcd7275677c08982bae	3	1	main_slash	7	main_slash	139	stimuli_distractor_trianglediamonds.svg	stimuli_distractor_trianglediamonds.svg	34	no	0	1	2000	0	0			0	0			1				0	
6.6.1	win	2023-06-19	17:50:38	17:58:13	450597	641b1fcd7275677c08982bae	3	1	main_slash	7	advance_on_keypress_SLASH	140	stimuli_distractor_trianglediamonds.svg	stimuli_distractor_trianglediamonds.svg	34	no	57	0	289	0	0			0	0			1				0	
6.6.1	win	2023-06-19	17:50:38	17:58:16	453530	641b1fcd7275677c08982bae	3	1	main_slash	7	main_slash	141	stimuli_distractor_diamondtriangles.svg	stimuli_distractor_trianglediamonds.svg	38	no	0	1	2000	0	0			0	0			1				0	
6.6.1	win	2023-06-19	17:50:38	17:58:16	453530	641b1fcd7275677c08982bae	3	1	main_slash	7	advance_on_keypress_SLASH	142	stimuli_distractor_diamondtriangles.svg	stimuli_distractor_trianglediamonds.svg	38	no	57	0	354	0	0			0	0			1				0	
6.6.1	win	2023-06-19	17:50:38	17:58:18	455287	641b1fcd7275677c08982bae	3	1	main_slash	7	main_slash	143	stimuli_target_rectangletriangles.svg	stimuli_distractor_trianglediamonds.svg	1	yes	53	1	757	0	0			0	0			1				0	
6.6.1	win	2023-06-19	17:50:38	17:58:18	455287	641b1fcd7275677c08982bae	3	1	main_slash	7	advance_on_keypress_SLASH	144	stimuli_target_rectangletriangles.svg	stimuli_distractor_trianglediamonds.svg	1	yes	57	0	421	0	0			0	0			1				0	
6.6.1	win	2023-06-19	17:50:38	17:58:19	456883	641b1fcd7275677c08982bae	3	1	main_slash	7	main_slash	145	stimuli_target_squaretriangles.svg	stimuli_distractor_trianglediamonds.svg	3	yes	53	1	536	0	0			0	0			1				0	
6.6.1	win	2023-06-19	17:50:38	17:58:19	456883	641b1fcd7275677c08982bae	3	1	main_slash	7	advance_on_keypress_SLASH	146	stimuli_target_squaretriangles.svg	stimuli_distractor_trianglediamonds.svg	3	yes	57	0	438	0	0			0	0			1				0	
6.6.1	win	2023-06-19	17:50:38	17:58:21	458354	641b1fcd7275677c08982bae	3	1	main_slash	7	main_slash	147	stimuli_target_rectanglediamonds.svg	stimuli_distractor_diamondtriangles.svg	6	yes	53	1	390	0	0			0	0			1				0	
6.6.1	win	2023-06-19	17:50:38	17:58:21	458354	641b1fcd7275677c08982bae	3	1	main_slash	7	advance_on_keypress_SLASH	148	stimuli_target_rectanglediamonds.svg	stimuli_distractor_diamondtriangles.svg	6	yes	57	0	431	0	0			0	0			1				0	
6.6.1	win	2023-06-19	17:50:38	17:58:22	459788	641b1fcd7275677c08982bae	3	1	main_slash	7	main_slash	149	stimuli_target_rectangletriangles.svg	stimuli_distractor_diamondtriangles.svg	5	yes	53	1	357	0	0			0	0			1				0	
6.6.1	win	2023-06-19	17:50:38	17:58:22	459788	641b1fcd7275677c08982bae	3	1	main_slash	7	advance_on_keypress_SLASH	150	stimuli_target_rectangletriangles.svg	stimuli_distractor_diamondtriangles.svg	5	yes	57	0	438	0	0			0	0			1				0	
6.6.1	win	2023-06-19	17:50:38	17:58:24	461456	641b1fcd7275677c08982bae	3	1	main_slash	7	main_slash	151	stimuli_distractor_trianglediamonds.svg	stimuli_target_rectanglediamonds.svg	10	yes	53	1	592	0	0			0	0			1				0	
6.6.1	win	2023-06-19	17:50:38	17:58:24	461456	641b1fcd7275677c08982bae	3	1	main_slash	7	advance_on_keypress_SLASH	152	stimuli_distractor_trianglediamonds.svg	stimuli_target_rectanglediamonds.svg	10	yes	57	0	432	0	0			0	0			1				0	
6.6.1	win	2023-06-19	17:50:38	17:58:27	464531	641b1fcd7275677c08982bae	3	1	main_slash	7	main_slash	153	stimuli_distractor_trianglediamonds.svg	stimuli_distractor_diamondtriangles.svg	36	no	0	1	2000	0	0			0	0			1				0	
6.6.1	win	2023-06-19	17:50:38	17:58:27	464531	641b1fcd7275677c08982bae	3	1	main_slash	7	advance_on_keypress_SLASH	154	stimuli_distractor_trianglediamonds.svg	stimuli_distractor_diamondtriangles.svg	36	no	57	0	330	0	0			0	0			1				0	
6.6.1	win	2023-06-19	17:50:38	17:58:30	467515	641b1fcd7275677c08982bae	3	1	main_slash	7	main_slash	155	stimuli_distractor_diamondtriangles.svg	stimuli_distractor_diamondtriangles.svg	39	no	0	1	2000	0	0			0	0			1				0	
6.6.1	win	2023-06-19	17:50:38	17:58:30	467515	641b1fcd7275677c08982bae	3	1	main_slash	7	advance_on_keypress_SLASH	156	stimuli_distractor_diamondtriangles.svg	stimuli_distractor_diamondtriangles.svg	39	no	57	0	452	0	0			0	0			1				0	
6.6.1	win	2023-06-19	17:50:38	17:58:31	469013	641b1fcd7275677c08982bae	3	1	main_slash	7	main_slash	157	stimuli_distractor_trianglediamonds.svg	stimuli_target_squaretriangles.svg	11	yes	53	1	398	0	0			0	0			1				0	
6.6.1	win	2023-06-19	17:50:38	17:58:31	469013	641b1fcd7275677c08982bae	3	1	main_slash	7	advance_on_keypress_SLASH	158	stimuli_distractor_trianglediamonds.svg	stimuli_target_squaretriangles.svg	11	yes	57	0	427	0	0			0	0			1				0	
6.6.1	win	2023-06-19	17:50:38	17:58:33	470577	641b1fcd7275677c08982bae	3	1	main_slash	7	main_slash	159	stimuli_target_diamondsquares.svg	stimuli_distractor_diamondtriangles.svg	24	yes	53	1	494	0	0			0	0			1				0	
6.6.1	win	2023-06-19	17:50:38	17:58:33	470577	641b1fcd7275677c08982bae	3	1	main_slash	7	advance_on_keypress_SLASH	160	stimuli_target_diamondsquares.svg	stimuli_distractor_diamondtriangles.svg	24	yes	57	0	529	0	0			0	0			1				0	
6.6.1	win	2023-06-19	17:50:38	17:58:57	494392	641b1fcd7275677c08982bae	3	1	practice_z	9	practice_z	1	stimuli_target_squarediamonds.svg	stimuli_distractor_diamondtriangles.svg	2	yes	44	1	756	0	0			0	0			1				0	
6.6.1	win	2023-06-19	17:50:38	17:58:57	494392	641b1fcd7275677c08982bae	3	1	practice_z	9	advance_on_keypress_ZEE	2	stimuli_target_squarediamonds.svg	stimuli_distractor_diamondtriangles.svg	2	yes	57	0	376	0	0			0	0			1				0	
6.6.1	win	2023-06-19	17:50:38	17:58:59	496959	641b1fcd7275677c08982bae	3	1	practice_z	9	practice_z	3	stimuli_distractor_trianglediamonds.svg	stimuli_target_squarediamonds.svg	11	yes	44	1	538	0	0			0	0			1				0	
6.6.1	win	2023-06-19	17:50:38	17:58:59	496959	641b1fcd7275677c08982bae	3	1	practice_z	9	advance_on_keypress_ZEE	4	stimuli_distractor_trianglediamonds.svg	stimuli_target_squarediamonds.svg	11	yes	57	0	362	0	0			0	0			1				0	
6.6.1	win	2023-06-19	17:50:38	17:59:03	500970	641b1fcd7275677c08982bae	3	1	practice_z	9	practice_z	5	stimuli_distractor_diamondtriangles.svg	stimuli_distractor_diamondtriangles.svg	13	no	0	1	2000	0	0			0	0			1				0	
6.6.1	win	2023-06-19	17:50:38	17:59:03	500970	641b1fcd7275677c08982bae	3	1	practice_z	9	advance_on_keypress_ZEE	6	stimuli_distractor_diamondtriangles.svg	stimuli_distractor_diamondtriangles.svg	13	no	57	0	374	0	0			0	0			1				0	
6.6.1	win	2023-06-19	17:50:38	17:59:06	503620	641b1fcd7275677c08982bae	3	1	practice_z	9	practice_z	7	stimuli_distractor_trianglediamonds.svg	stimuli_target_diamondrectangles.svg	12	yes	44	1	632	0	0			0	0			1				0	
6.6.1	win	2023-06-19	17:50:38	17:59:06	503620	641b1fcd7275677c08982bae	3	1	practice_z	9	advance_on_keypress_ZEE	8	stimuli_distractor_trianglediamonds.svg	stimuli_target_diamondrectangles.svg	12	yes	57	0	432	0	0			0	0			1				0	
6.6.1	win	2023-06-19	17:50:38	17:59:09	506307	641b1fcd7275677c08982bae	3	1	practice_z	9	practice_z	9	stimuli_target_squarediamonds.svg	stimuli_distractor_trianglediamonds.svg	5	yes	44	1	603	0	0			0	0			1				0	
6.6.1	win	2023-06-19	17:50:38	17:59:09	506307	641b1fcd7275677c08982bae	3	1	practice_z	9	advance_on_keypress_ZEE	10	stimuli_target_squarediamonds.svg	stimuli_distractor_trianglediamonds.svg	5	yes	57	0	481	0	0			0	0			1				0	
6.6.1	win	2023-06-19	17:50:38	17:59:11	508927	641b1fcd7275677c08982bae	3	1	practice_z	9	practice_z	11	stimuli_distractor_diamondtriangles.svg	stimuli_target_trianglerectangles.svg	9	yes	44	1	488	0	0			0	0			1				0	
6.6.1	win	2023-06-19	17:50:38	17:59:11	508927	641b1fcd7275677c08982bae	3	1	practice_z	9	advance_on_keypress_ZEE	12	stimuli_distractor_diamondtriangles.svg	stimuli_target_trianglerectangles.svg	9	yes	57	0	455	0	0			0	0			1				0	
6.6.1	win	2023-06-19	17:50:38	17:59:15	513021	641b1fcd7275677c08982bae	3	1	practice_z	9	practice_z	13	stimuli_distractor_trianglediamonds.svg	stimuli_distractor_diamondtriangles.svg	16	no	0	1	2000	0	0			0	0			1				0	
6.6.1	win	2023-06-19	17:50:38	17:59:15	513021	641b1fcd7275677c08982bae	3	1	practice_z	9	advance_on_keypress_ZEE	14	stimuli_distractor_trianglediamonds.svg	stimuli_distractor_diamondtriangles.svg	16	no	57	0	400	0	0			0	0			1				0	
6.6.1	win	2023-06-19	17:50:38	17:59:18	515587	641b1fcd7275677c08982bae	3	1	practice_z	9	practice_z	15	stimuli_target_diamondsquares.svg	stimuli_distractor_trianglediamonds.svg	6	yes	44	1	507	0	0			0	0			1				0	
6.6.1	win	2023-06-19	17:50:38	17:59:18	515587	641b1fcd7275677c08982bae	3	1	practice_z	9	advance_on_keypress_ZEE	16	stimuli_target_diamondsquares.svg	stimuli_distractor_trianglediamonds.svg	6	yes	57	0	427	0	0			0	0			1				0	
6.6.1	win	2023-06-19	17:50:38	17:59:21	518169	641b1fcd7275677c08982bae	3	1	practice_z	9	practice_z	17	stimuli_target_rectanglediamonds.svg	stimuli_distractor_diamondtriangles.svg	1	yes	44	1	496	0	0			0	0			1				0	
6.6.1	win	2023-06-19	17:50:38	17:59:21	518169	641b1fcd7275677c08982bae	3	1	practice_z	9	advance_on_keypress_ZEE	18	stimuli_target_rectanglediamonds.svg	stimuli_distractor_diamondtriangles.svg	1	yes	57	0	554	0	0			0	0			1				0	
6.6.1	win	2023-06-19	17:50:38	17:59:24	521253	641b1fcd7275677c08982bae	3	1	practice_z	9	practice_z	19	stimuli_distractor_diamondtriangles.svg	stimuli_target_rectangletriangles.svg	7	yes	44	1	880	0	0			0	0			1				0	
6.6.1	win	2023-06-19	17:50:38	17:59:24	521253	641b1fcd7275677c08982bae	3	1	practice_z	9	advance_on_keypress_ZEE	20	stimuli_distractor_diamondtriangles.svg	stimuli_target_rectangletriangles.svg	7	yes	57	0	492	0	0			0	0			1				0	
6.6.1	win	2023-06-19	17:50:38	17:59:26	523940	641b1fcd7275677c08982bae	3	1	practice_z	9	practice_z	21	stimuli_distractor_trianglediamonds.svg	stimuli_target_rectanglediamonds.svg	10	yes	44	1	550	0	0			0	0			1				0	
6.6.1	win	2023-06-19	17:50:38	17:59:26	523940	641b1fcd7275677c08982bae	3	1	practice_z	9	advance_on_keypress_ZEE	22	stimuli_distractor_trianglediamonds.svg	stimuli_target_rectanglediamonds.svg	10	yes	57	0	414	0	0			0	0			1				0	
6.6.1	win	2023-06-19	17:50:38	17:59:30	528007	641b1fcd7275677c08982bae	3	1	practice_z	9	practice_z	23	stimuli_distractor_trianglediamonds.svg	stimuli_distractor_trianglediamonds.svg	15	no	0	1	2000	0	0			0	0			1				0	
6.6.1	win	2023-06-19	17:50:38	17:59:30	528007	641b1fcd7275677c08982bae	3	1	practice_z	9	advance_on_keypress_ZEE	24	stimuli_distractor_trianglediamonds.svg	stimuli_distractor_trianglediamonds.svg	15	no	57	0	379	0	0			0	0			1				0	
6.6.1	win	2023-06-19	17:50:38	17:59:34	532041	641b1fcd7275677c08982bae	3	1	practice_z	9	practice_z	25	stimuli_distractor_diamondtriangles.svg	stimuli_distractor_trianglediamonds.svg	14	no	0	1	2000	0	0			0	0			1				0	
6.6.1	win	2023-06-19	17:50:38	17:59:34	532041	641b1fcd7275677c08982bae	3	1	practice_z	9	advance_on_keypress_ZEE	26	stimuli_distractor_diamondtriangles.svg	stimuli_distractor_trianglediamonds.svg	14	no	57	0	420	0	0			0	0			1				0	
6.6.1	win	2023-06-19	17:50:38	17:59:37	534697	641b1fcd7275677c08982bae	3	1	practice_z	9	practice_z	27	stimuli_target_diamondsquares.svg	stimuli_distractor_diamondtriangles.svg	3	yes	44	1	590	0	0			0	0			1				0	
6.6.1	win	2023-06-19	17:50:38	17:59:37	534697	641b1fcd7275677c08982bae	3	1	practice_z	9	advance_on_keypress_ZEE	28	stimuli_target_diamondsquares.svg	stimuli_distractor_diamondtriangles.svg	3	yes	57	0	355	0	0			0	0			1				0	
6.6.1	win	2023-06-19	17:50:38	17:59:39	537073	641b1fcd7275677c08982bae	3	1	practice_z	9	practice_z	29	stimuli_target_rectanglediamonds.svg	stimuli_distractor_trianglediamonds.svg	4	yes	44	1	371	0	0			0	0			1				0	
6.6.1	win	2023-06-19	17:50:38	17:59:39	537073	641b1fcd7275677c08982bae	3	1	practice_z	9	advance_on_keypress_ZEE	30	stimuli_target_rectanglediamonds.svg	stimuli_distractor_trianglediamonds.svg	4	yes	57	0	721	0	0			0	0			1				0	
6.6.1	win	2023-06-19	17:50:38	17:59:42	539994	641b1fcd7275677c08982bae	3	1	practice_z	9	practice_z	31	stimuli_distractor_diamondtriangles.svg	stimuli_target_diamondrectangles.svg	8	yes	44	1	552	0	0			0	0			1				0	
6.6.1	win	2023-06-19	17:50:38	17:59:42	539994	641b1fcd7275677c08982bae	3	1	practice_z	9	advance_on_keypress_ZEE	32	stimuli_distractor_diamondtriangles.svg	stimuli_target_diamondrectangles.svg	8	yes	57	0	473	0	0			0	0			1				0	
6.6.1	win	2023-06-19	17:50:38	17:59:50	547838	641b1fcd7275677c08982bae	3	1	main_z	11	main_z	1	stimuli_distractor_diamondtriangles.svg	stimuli_target_rectangletriangles.svg	13	yes	44	1	631	0	0			0	0			1				0	
6.6.1	win	2023-06-19	17:50:38	17:59:50	547838	641b1fcd7275677c08982bae	3	1	main_z	11	advance_on_keypress_ZEE	2	stimuli_distractor_diamondtriangles.svg	stimuli_target_rectangletriangles.svg	13	yes	57	0	780	0	0			0	0			1				0	
6.6.1	win	2023-06-19	17:50:38	17:59:54	551274	641b1fcd7275677c08982bae	3	1	main_z	11	main_z	3	stimuli_distractor_diamondtriangles.svg	stimuli_distractor_diamondtriangles.svg	39	no	0	1	2000	0	0			0	0			1				0	
6.6.1	win	2023-06-19	17:50:38	17:59:54	551274	641b1fcd7275677c08982bae	3	1	main_z	11	advance_on_keypress_ZEE	4	stimuli_distractor_diamondtriangles.svg	stimuli_distractor_diamondtriangles.svg	39	no	57	0	381	0	0			0	0			1				0	
6.6.1	win	2023-06-19	17:50:38	17:59:55	552761	641b1fcd7275677c08982bae	3	1	main_z	11	main_z	5	stimuli_distractor_diamondtriangles.svg	stimuli_target_trianglerectangles.svg	29	yes	44	1	453	0	0			0	0			1				0	
6.6.1	win	2023-06-19	17:50:38	17:59:55	552761	641b1fcd7275677c08982bae	3	1	main_z	11	advance_on_keypress_ZEE	6	stimuli_distractor_diamondtriangles.svg	stimuli_target_trianglerectangles.svg	29	yes	57	0	614	0	0			0	0			1				0	
6.6.1	win	2023-06-19	17:50:38	17:59:57	554550	641b1fcd7275677c08982bae	3	1	main_z	11	main_z	7	stimuli_target_rectangletriangles.svg	stimuli_distractor_diamondtriangles.svg	5	yes	44	1	526	0	0			0	0			1				0	
6.6.1	win	2023-06-19	17:50:38	17:59:57	554550	641b1fcd7275677c08982bae	3	1	main_z	11	advance_on_keypress_ZEE	8	stimuli_target_rectangletriangles.svg	stimuli_distractor_diamondtriangles.svg	5	yes	57	0	493	0	0			0	0			1				0	
6.6.1	win	2023-06-19	17:50:38	17:59:59	556234	641b1fcd7275677c08982bae	3	1	main_z	11	main_z	9	stimuli_distractor_diamondtriangles.svg	stimuli_target_trianglesquares.svg	30	yes	44	1	560	0	0			0	0			1				0	
6.6.1	win	2023-06-19	17:50:38	17:59:59	556234	641b1fcd7275677c08982bae	3	1	main_z	11	advance_on_keypress_ZEE	10	stimuli_distractor_diamondtriangles.svg	stimuli_target_trianglesquares.svg	30	yes	57	0	491	0	0			0	0			1				0	
6.6.1	win	2023-06-19	17:50:38	18:00:00	557810	641b1fcd7275677c08982bae	3	1	main_z	11	main_z	11	stimuli_target_trianglesquares.svg	stimuli_distractor_trianglediamonds.svg	18	yes	44	1	452	0	0			0	0			1				0	
6.6.1	win	2023-06-19	17:50:38	18:00:00	557810	641b1fcd7275677c08982bae	3	1	main_z	11	advance_on_keypress_ZEE	12	stimuli_target_trianglesquares.svg	stimuli_distractor_trianglediamonds.svg	18	yes	57	0	431	0	0			0	0			1				0	
6.6.1	win	2023-06-19	17:50:38	18:00:02	559294	641b1fcd7275677c08982bae	3	1	main_z	11	main_z	13	stimuli_target_diamondsquares.svg	stimuli_distractor_trianglediamonds.svg	20	yes	44	1	403	0	0			0	0			1				0	
6.6.1	win	2023-06-19	17:50:38	18:00:02	559294	641b1fcd7275677c08982bae	3	1	main_z	11	advance_on_keypress_ZEE	14	stimuli_target_diamondsquares.svg	stimuli_distractor_trianglediamonds.svg	20	yes	57	0	562	0	0			0	0			1				0	
6.6.1	win	2023-06-19	17:50:38	18:00:03	560856	641b1fcd7275677c08982bae	3	1	main_z	11	main_z	15	stimuli_target_rectanglediamonds.svg	stimuli_distractor_trianglediamonds.svg	2	yes	44	1	347	0	0			0	0			1				0	
6.6.1	win	2023-06-19	17:50:38	18:00:03	560856	641b1fcd7275677c08982bae	3	1	main_z	11	advance_on_keypress_ZEE	16	stimuli_target_rectanglediamonds.svg	stimuli_distractor_trianglediamonds.svg	2	yes	57	0	532	0	0			0	0			1				0	
6.6.1	win	2023-06-19	17:50:38	18:00:05	562392	641b1fcd7275677c08982bae	3	1	main_z	11	main_z	17	stimuli_target_squaretriangles.svg	stimuli_distractor_diamondtriangles.svg	7	yes	44	1	351	0	0			0	0			1				0	
6.6.1	win	2023-06-19	17:50:38	18:00:05	562392	641b1fcd7275677c08982bae	3	1	main_z	11	advance_on_keypress_ZEE	18	stimuli_target_squaretriangles.svg	stimuli_distractor_diamondtriangles.svg	7	yes	57	0	458	0	0			0	0			1				0	
6.6.1	win	2023-06-19	17:50:38	18:00:06	563908	641b1fcd7275677c08982bae	3	1	main_z	11	main_z	19	stimuli_distractor_trianglediamonds.svg	stimuli_target_squaretriangles.svg	11	yes	44	1	416	0	0			0	0			1				0	
6.6.1	win	2023-06-19	17:50:38	18:00:06	563908	641b1fcd7275677c08982bae	3	1	main_z	11	advance_on_keypress_ZEE	20	stimuli_distractor_trianglediamonds.svg	stimuli_target_squaretriangles.svg	11	yes	57	0	431	0	0			0	0			1				0	
6.6.1	win	2023-06-19	17:50:38	18:00:08	565534	641b1fcd7275677c08982bae	3	1	main_z	11	main_z	21	stimuli_target_trianglerectangles.svg	stimuli_distractor_trianglediamonds.svg	17	yes	44	1	542	0	0			0	0			1				0	
6.6.1	win	2023-06-19	17:50:38	18:00:08	565534	641b1fcd7275677c08982bae	3	1	main_z	11	advance_on_keypress_ZEE	22	stimuli_target_trianglerectangles.svg	stimuli_distractor_trianglediamonds.svg	17	yes	57	0	486	0	0			0	0			1				0	
6.6.1	win	2023-06-19	17:50:38	18:00:09	567002	641b1fcd7275677c08982bae	3	1	main_z	11	main_z	23	stimuli_target_rectangletriangles.svg	stimuli_distractor_trianglediamonds.svg	1	yes	44	1	344	0	0			0	0			1				0	
6.6.1	win	2023-06-19	17:50:38	18:00:09	567002	641b1fcd7275677c08982bae	3	1	main_z	11	advance_on_keypress_ZEE	24	stimuli_target_rectangletriangles.svg	stimuli_distractor_trianglediamonds.svg	1	yes	57	0	487	0	0			0	0			1				0	
6.6.1	win	2023-06-19	17:50:38	18:00:11	568506	641b1fcd7275677c08982bae	3	1	main_z	11	main_z	25	stimuli_distractor_diamondtriangles.svg	stimuli_target_squaretriangles.svg	15	yes	44	1	373	0	0			0	0			1				0	
6.6.1	win	2023-06-19	17:50:38	18:00:11	568506	641b1fcd7275677c08982bae	3	1	main_z	11	advance_on_keypress_ZEE	26	stimuli_distractor_diamondtriangles.svg	stimuli_target_squaretriangles.svg	15	yes	57	0	438	0	0			0	0			1				0	
6.6.1	win	2023-06-19	17:50:38	18:00:12	569910	641b1fcd7275677c08982bae	3	1	main_z	11	main_z	27	stimuli_target_rectanglediamonds.svg	stimuli_distractor_diamondtriangles.svg	6	yes	44	1	318	0	0			0	0			1				0	
6.6.1	win	2023-06-19	17:50:38	18:00:12	569910	641b1fcd7275677c08982bae	3	1	main_z	11	advance_on_keypress_ZEE	28	stimuli_target_rectanglediamonds.svg	stimuli_distractor_diamondtriangles.svg	6	yes	57	0	443	0	0			0	0			1				0	
6.6.1	win	2023-06-19	17:50:38	18:00:15	572993	641b1fcd7275677c08982bae	3	1	main_z	11	main_z	29	stimuli_distractor_diamondtriangles.svg	stimuli_distractor_diamondtriangles.svg	40	no	0	1	2000	0	0			0	0			1				0	
6.6.1	win	2023-06-19	17:50:38	18:00:15	572993	641b1fcd7275677c08982bae	3	1	main_z	11	advance_on_keypress_ZEE	30	stimuli_distractor_diamondtriangles.svg	stimuli_distractor_diamondtriangles.svg	40	no	57	0	263	0	0			0	0			1				0	
6.6.1	win	2023-06-19	17:50:38	18:00:17	574291	641b1fcd7275677c08982bae	3	1	main_z	11	main_z	31	stimuli_target_diamondsquares.svg	stimuli_distractor_diamondtriangles.svg	24	yes	44	1	371	0	0			0	0			1				0	
6.6.1	win	2023-06-19	17:50:38	18:00:17	574291	641b1fcd7275677c08982bae	3	1	main_z	11	advance_on_keypress_ZEE	32	stimuli_target_diamondsquares.svg	stimuli_distractor_diamondtriangles.svg	24	yes	57	0	417	0	0			0	0			1				0	
6.6.1	win	2023-06-19	17:50:38	18:00:18	575759	641b1fcd7275677c08982bae	3	1	main_z	11	main_z	33	stimuli_distractor_trianglediamonds.svg	stimuli_target_trianglesquares.svg	26	yes	44	1	400	0	0			0	0			1				0	
6.6.1	win	2023-06-19	17:50:38	18:00:18	575759	641b1fcd7275677c08982bae	3	1	main_z	11	advance_on_keypress_ZEE	34	stimuli_distractor_trianglediamonds.svg	stimuli_target_trianglesquares.svg	26	yes	57	0	509	0	0			0	0			1				0	
6.6.1	win	2023-06-19	17:50:38	18:00:20	577295	641b1fcd7275677c08982bae	3	1	main_z	11	main_z	35	stimuli_target_trianglesquares.svg	stimuli_distractor_diamondtriangles.svg	22	yes	44	1	385	0	0			0	0			1				0	
6.6.1	win	2023-06-19	17:50:38	18:00:20	577295	641b1fcd7275677c08982bae	3	1	main_z	11	advance_on_keypress_ZEE	36	stimuli_target_trianglesquares.svg	stimuli_distractor_diamondtriangles.svg	22	yes	57	0	406	0	0			0	0			1				0	
6.6.1	win	2023-06-19	17:50:38	18:00:21	578684	641b1fcd7275677c08982bae	3	1	main_z	11	main_z	37	stimuli_distractor_diamondtriangles.svg	stimuli_target_diamondsquares.svg	32	yes	44	1	341	0	0			0	0			1				0	
6.6.1	win	2023-06-19	17:50:38	18:00:21	578684	641b1fcd7275677c08982bae	3	1	main_z	11	advance_on_keypress_ZEE	38	stimuli_distractor_diamondtriangles.svg	stimuli_target_diamondsquares.svg	32	yes	57	0	424	0	0			0	0			1				0	
6.6.1	win	2023-06-19	17:50:38	18:00:22	580072	641b1fcd7275677c08982bae	3	1	main_z	11	main_z	39	stimuli_distractor_trianglediamonds.svg	stimuli_distractor_diamondtriangles.svg	35	no	44	0	329	0	0			0	0			1				0	
6.6.1	win	2023-06-19	17:50:38	18:00:22	580072	641b1fcd7275677c08982bae	3	1	main_z	11	advance_on_keypress_ZEE	40	stimuli_distractor_trianglediamonds.svg	stimuli_distractor_diamondtriangles.svg	35	no	57	0	756	0	0			0	0			1				0	
6.6.1	win	2023-06-19	17:50:38	18:00:24	581853	641b1fcd7275677c08982bae	3	1	main_z	11	main_z	41	stimuli_target_diamondrectangles.svg	stimuli_distractor_trianglediamonds.svg	19	yes	44	1	393	0	0			0	0			1				0	
6.6.1	win	2023-06-19	17:50:38	18:00:24	581853	641b1fcd7275677c08982bae	3	1	main_z	11	advance_on_keypress_ZEE	42	stimuli_target_diamondrectangles.svg	stimuli_distractor_trianglediamonds.svg	19	yes	57	0	490	0	0			0	0			1				0	
6.6.1	win	2023-06-19	17:50:38	18:00:26	583358	641b1fcd7275677c08982bae	3	1	main_z	11	main_z	43	stimuli_target_trianglerectangles.svg	stimuli_distractor_diamondtriangles.svg	21	yes	44	1	375	0	0			0	0			1				0	
6.6.1	win	2023-06-19	17:50:38	18:00:26	583358	641b1fcd7275677c08982bae	3	1	main_z	11	advance_on_keypress_ZEE	44	stimuli_target_trianglerectangles.svg	stimuli_distractor_diamondtriangles.svg	21	yes	57	0	428	0	0			0	0			1				0	
6.6.1	win	2023-06-19	17:50:38	18:00:28	585157	641b1fcd7275677c08982bae	3	1	main_z	11	main_z	45	stimuli_distractor_diamondtriangles.svg	stimuli_target_diamondrectangles.svg	31	yes	44	1	730	0	0			0	0			1				0	
6.6.1	win	2023-06-19	17:50:38	18:00:28	585157	641b1fcd7275677c08982bae	3	1	main_z	11	advance_on_keypress_ZEE	46	stimuli_distractor_diamondtriangles.svg	stimuli_target_diamondrectangles.svg	31	yes	57	0	459	0	0			0	0			1				0	
6.6.1	win	2023-06-19	17:50:38	18:00:29	586843	641b1fcd7275677c08982bae	3	1	main_z	11	main_z	47	stimuli_distractor_trianglediamonds.svg	stimuli_target_rectanglediamonds.svg	10	yes	44	1	583	0	0			0	0			1				0	
6.6.1	win	2023-06-19	17:50:38	18:00:29	586843	641b1fcd7275677c08982bae	3	1	main_z	11	advance_on_keypress_ZEE	48	stimuli_distractor_trianglediamonds.svg	stimuli_target_rectanglediamonds.svg	10	yes	57	0	489	0	0			0	0			1				0	
6.6.1	win	2023-06-19	17:50:38	18:00:31	588341	641b1fcd7275677c08982bae	3	1	main_z	11	main_z	49	stimuli_target_squarediamonds.svg	stimuli_distractor_trianglediamonds.svg	4	yes	44	1	363	0	0			0	0			1				0	
6.6.1	win	2023-06-19	17:50:38	18:00:31	588341	641b1fcd7275677c08982bae	3	1	main_z	11	advance_on_keypress_ZEE	50	stimuli_target_squarediamonds.svg	stimuli_distractor_trianglediamonds.svg	4	yes	57	0	443	0	0			0	0			1				0	
6.6.1	win	2023-06-19	17:50:38	18:00:32	589906	641b1fcd7275677c08982bae	3	1	main_z	11	main_z	51	stimuli_target_diamondrectangles.svg	stimuli_distractor_diamondtriangles.svg	23	yes	44	1	478	0	0			0	0			1				0	
6.6.1	win	2023-06-19	17:50:38	18:00:32	589906	641b1fcd7275677c08982bae	3	1	main_z	11	advance_on_keypress_ZEE	52	stimuli_target_diamondrectangles.svg	stimuli_distractor_diamondtriangles.svg	23	yes	57	0	416	0	0			0	0			1				0	
6.6.1	win	2023-06-19	17:50:38	18:00:34	591560	641b1fcd7275677c08982bae	3	1	main_z	11	main_z	53	stimuli_distractor_diamondtriangles.svg	stimuli_target_rectanglediamonds.svg	14	yes	44	1	582	0	0			0	0			1				0	
6.6.1	win	2023-06-19	17:50:38	18:00:34	591560	641b1fcd7275677c08982bae	3	1	main_z	11	advance_on_keypress_ZEE	54	stimuli_distractor_diamondtriangles.svg	stimuli_target_rectanglediamonds.svg	14	yes	57	0	416	0	0			0	0			1				0	
6.6.1	win	2023-06-19	17:50:38	18:00:36	593320	641b1fcd7275677c08982bae	3	1	main_z	11	main_z	55	stimuli_distractor_trianglediamonds.svg	stimuli_target_diamondsquares.svg	28	yes	44	1	692	0	0			0	0			1				0	
6.6.1	win	2023-06-19	17:50:38	18:00:36	593320	641b1fcd7275677c08982bae	3	1	main_z	11	advance_on_keypress_ZEE	56	stimuli_distractor_trianglediamonds.svg	stimuli_target_diamondsquares.svg	28	yes	57	0	463	0	0			0	0			1				0	
6.6.1	win	2023-06-19	17:50:38	18:00:37	594813	641b1fcd7275677c08982bae	3	1	main_z	11	main_z	57	stimuli_distractor_trianglediamonds.svg	stimuli_target_trianglerectangles.svg	25	yes	44	1	384	0	0			0	0			1				0	
6.6.1	win	2023-06-19	17:50:38	18:00:37	594813	641b1fcd7275677c08982bae	3	1	main_z	11	advance_on_keypress_ZEE	58	stimuli_distractor_trianglediamonds.svg	stimuli_target_trianglerectangles.svg	25	yes	57	0	434	0	0			0	0			1				0	
6.6.1	win	2023-06-19	17:50:38	18:00:40	597895	641b1fcd7275677c08982bae	3	1	main_z	11	main_z	59	stimuli_distractor_trianglediamonds.svg	stimuli_distractor_trianglediamonds.svg	34	no	0	1	2000	0	0			0	0			1				0	
6.6.1	win	2023-06-19	17:50:38	18:00:40	597895	641b1fcd7275677c08982bae	3	1	main_z	11	advance_on_keypress_ZEE	60	stimuli_distractor_trianglediamonds.svg	stimuli_distractor_trianglediamonds.svg	34	no	57	0	310	0	0			0	0			1				0	
6.6.1	win	2023-06-19	17:50:38	18:00:42	599231	641b1fcd7275677c08982bae	3	1	main_z	11	main_z	61	stimuli_target_squaretriangles.svg	stimuli_distractor_trianglediamonds.svg	3	yes	44	1	386	0	0			0	0			1				0	
6.6.1	win	2023-06-19	17:50:38	18:00:42	599231	641b1fcd7275677c08982bae	3	1	main_z	11	advance_on_keypress_ZEE	62	stimuli_target_squaretriangles.svg	stimuli_distractor_trianglediamonds.svg	3	yes	57	0	457	0	0			0	0			1				0	
6.6.1	win	2023-06-19	17:50:38	18:00:45	602329	641b1fcd7275677c08982bae	3	1	main_z	11	main_z	63	stimuli_distractor_trianglediamonds.svg	stimuli_distractor_diamondtriangles.svg	36	no	0	1	2000	0	0			0	0			1				0	
6.6.1	win	2023-06-19	17:50:38	18:00:45	602329	641b1fcd7275677c08982bae	3	1	main_z	11	advance_on_keypress_ZEE	64	stimuli_distractor_trianglediamonds.svg	stimuli_distractor_diamondtriangles.svg	36	no	57	0	393	0	0			0	0			1				0	
6.6.1	win	2023-06-19	17:50:38	18:00:46	603877	641b1fcd7275677c08982bae	3	1	main_z	11	main_z	65	stimuli_distractor_trianglediamonds.svg	stimuli_target_squarediamonds.svg	12	yes	44	1	513	0	0			0	0			1				0	
6.6.1	win	2023-06-19	17:50:38	18:00:46	603877	641b1fcd7275677c08982bae	3	1	main_z	11	advance_on_keypress_ZEE	66	stimuli_distractor_trianglediamonds.svg	stimuli_target_squarediamonds.svg	12	yes	57	0	374	0	0			0	0			1				0	
6.6.1	win	2023-06-19	17:50:38	18:00:48	605645	641b1fcd7275677c08982bae	3	1	main_z	11	main_z	67	stimuli_distractor_trianglediamonds.svg	stimuli_target_rectangletriangles.svg	9	yes	44	1	748	0	0			0	0			1				0	
6.6.1	win	2023-06-19	17:50:38	18:00:48	605645	641b1fcd7275677c08982bae	3	1	main_z	11	advance_on_keypress_ZEE	68	stimuli_distractor_trianglediamonds.svg	stimuli_target_rectangletriangles.svg	9	yes	57	0	511	0	0			0	0			1				0	
6.6.1	win	2023-06-19	17:50:38	18:00:50	607545	641b1fcd7275677c08982bae	3	1	main_z	11	main_z	69	stimuli_distractor_trianglediamonds.svg	stimuli_target_diamondrectangles.svg	27	yes	44	1	731	0	0			0	0			1				0	
6.6.1	win	2023-06-19	17:50:38	18:00:50	607545	641b1fcd7275677c08982bae	3	1	main_z	11	advance_on_keypress_ZEE	70	stimuli_distractor_trianglediamonds.svg	stimuli_target_diamondrectangles.svg	27	yes	57	0	498	0	0			0	0			1				0	
6.6.1	win	2023-06-19	17:50:38	18:00:53	610696	641b1fcd7275677c08982bae	3	1	main_z	11	main_z	71	stimuli_distractor_trianglediamonds.svg	stimuli_distractor_trianglediamonds.svg	33	no	0	1	2000	0	0			0	0			1				0	
6.6.1	win	2023-06-19	17:50:38	18:00:53	610696	641b1fcd7275677c08982bae	3	1	main_z	11	advance_on_keypress_ZEE	72	stimuli_distractor_trianglediamonds.svg	stimuli_distractor_trianglediamonds.svg	33	no	57	0	344	0	0			0	0			1				0	
6.6.1	win	2023-06-19	17:50:38	18:00:56	613680	641b1fcd7275677c08982bae	3	1	main_z	11	main_z	73	stimuli_distractor_diamondtriangles.svg	stimuli_distractor_trianglediamonds.svg	37	no	0	1	2000	0	0			0	0			1				0	
6.6.1	win	2023-06-19	17:50:38	18:00:56	613680	641b1fcd7275677c08982bae	3	1	main_z	11	advance_on_keypress_ZEE	74	stimuli_distractor_diamondtriangles.svg	stimuli_distractor_trianglediamonds.svg	37	no	57	0	377	0	0			0	0			1				0	
6.6.1	win	2023-06-19	17:50:38	18:00:58	615180	641b1fcd7275677c08982bae	3	1	main_z	11	main_z	75	stimuli_distractor_diamondtriangles.svg	stimuli_target_squarediamonds.svg	16	yes	44	1	483	0	0			0	0			1				0	
6.6.1	win	2023-06-19	17:50:38	18:00:58	615180	641b1fcd7275677c08982bae	3	1	main_z	11	advance_on_keypress_ZEE	76	stimuli_distractor_diamondtriangles.svg	stimuli_target_squarediamonds.svg	16	yes	57	0	380	0	0			0	0			1				0	
6.6.1	win	2023-06-19	17:50:38	18:00:59	616671	641b1fcd7275677c08982bae	3	1	main_z	11	main_z	77	stimuli_target_squarediamonds.svg	stimuli_distractor_diamondtriangles.svg	8	yes	44	1	456	0	0			0	0			1				0	
6.6.1	win	2023-06-19	17:50:38	18:00:59	616671	641b1fcd7275677c08982bae	3	1	main_z	11	advance_on_keypress_ZEE	78	stimuli_target_squarediamonds.svg	stimuli_distractor_diamondtriangles.svg	8	yes	57	0	377	0	0			0	0			1				0	
6.6.1	win	2023-06-19	17:50:38	18:01:02	619681	641b1fcd7275677c08982bae	3	1	main_z	11	main_z	79	stimuli_distractor_diamondtriangles.svg	stimuli_distractor_trianglediamonds.svg	38	no	0	1	2000	0	0			0	0			1				0	
6.6.1	win	2023-06-19	17:50:38	18:01:02	619681	641b1fcd7275677c08982bae	3	1	main_z	11	advance_on_keypress_ZEE	80	stimuli_distractor_diamondtriangles.svg	stimuli_distractor_trianglediamonds.svg	38	no	57	0	412	0	0			0	0			1				0	
6.6.1	win	2023-06-19	17:50:38	18:01:05	622748	641b1fcd7275677c08982bae	3	1	main_z	11	main_z	81	stimuli_distractor_trianglediamonds.svg	stimuli_distractor_trianglediamonds.svg	33	no	0	1	2000	0	0			0	0			1				0	
6.6.1	win	2023-06-19	17:50:38	18:01:05	622748	641b1fcd7275677c08982bae	3	1	main_z	11	advance_on_keypress_ZEE	82	stimuli_distractor_trianglediamonds.svg	stimuli_distractor_trianglediamonds.svg	33	no	57	0	304	0	0			0	0			1				0	
6.6.1	win	2023-06-19	17:50:38	18:01:07	624256	641b1fcd7275677c08982bae	3	1	main_z	11	main_z	83	stimuli_distractor_trianglediamonds.svg	stimuli_target_rectangletriangles.svg	9	yes	44	1	558	0	0			0	0			1				0	
6.6.1	win	2023-06-19	17:50:38	18:01:07	624256	641b1fcd7275677c08982bae	3	1	main_z	11	advance_on_keypress_ZEE	84	stimuli_distractor_trianglediamonds.svg	stimuli_target_rectangletriangles.svg	9	yes	57	0	390	0	0			0	0			1				0	
6.6.1	win	2023-06-19	17:50:38	18:01:08	625783	641b1fcd7275677c08982bae	3	1	main_z	11	main_z	85	stimuli_target_diamondrectangles.svg	stimuli_distractor_diamondtriangles.svg	23	yes	44	1	485	0	0			0	0			1				0	
6.6.1	win	2023-06-19	17:50:38	18:01:08	625783	641b1fcd7275677c08982bae	3	1	main_z	11	advance_on_keypress_ZEE	86	stimuli_target_diamondrectangles.svg	stimuli_distractor_diamondtriangles.svg	23	yes	57	0	391	0	0			0	0			1				0	
6.6.1	win	2023-06-19	17:50:38	18:01:10	627256	641b1fcd7275677c08982bae	3	1	main_z	11	main_z	87	stimuli_distractor_diamondtriangles.svg	stimuli_target_trianglesquares.svg	30	yes	44	1	441	0	0			0	0			1				0	
6.6.1	win	2023-06-19	17:50:38	18:01:10	627256	641b1fcd7275677c08982bae	3	1	main_z	11	advance_on_keypress_ZEE	88	stimuli_distractor_diamondtriangles.svg	stimuli_target_trianglesquares.svg	30	yes	57	0	369	0	0			0	0			1				0	
6.6.1	win	2023-06-19	17:50:38	18:01:13	630265	641b1fcd7275677c08982bae	3	1	main_z	11	main_z	89	stimuli_distractor_trianglediamonds.svg	stimuli_distractor_diamondtriangles.svg	36	no	0	1	2000	0	0			0	0			1				0	
6.6.1	win	2023-06-19	17:50:38	18:01:13	630265	641b1fcd7275677c08982bae	3	1	main_z	11	advance_on_keypress_ZEE	90	stimuli_distractor_trianglediamonds.svg	stimuli_distractor_diamondtriangles.svg	36	no	57	0	477	0	0			0	0			1				0	
6.6.1	win	2023-06-19	17:50:38	18:01:14	631852	641b1fcd7275677c08982bae	3	1	main_z	11	main_z	91	stimuli_target_trianglerectangles.svg	stimuli_distractor_diamondtriangles.svg	21	yes	44	1	470	0	0			0	0			1				0	
6.6.1	win	2023-06-19	17:50:38	18:01:14	631852	641b1fcd7275677c08982bae	3	1	main_z	11	advance_on_keypress_ZEE	92	stimuli_target_trianglerectangles.svg	stimuli_distractor_diamondtriangles.svg	21	yes	57	0	380	0	0			0	0			1				0	
6.6.1	win	2023-06-19	17:50:38	18:01:16	633456	641b1fcd7275677c08982bae	3	1	main_z	11	main_z	93	stimuli_distractor_trianglediamonds.svg	stimuli_target_rectanglediamonds.svg	10	yes	44	1	573	0	0			0	0			1				0	
6.6.1	win	2023-06-19	17:50:38	18:01:16	633456	641b1fcd7275677c08982bae	3	1	main_z	11	advance_on_keypress_ZEE	94	stimuli_distractor_trianglediamonds.svg	stimuli_target_rectanglediamonds.svg	10	yes	57	0	367	0	0			0	0			1				0	
6.6.1	win	2023-06-19	17:50:38	18:01:19	636466	641b1fcd7275677c08982bae	3	1	main_z	11	main_z	95	stimuli_distractor_trianglediamonds.svg	stimuli_distractor_trianglediamonds.svg	34	no	0	1	2000	0	0			0	0			1				0	
6.6.1	win	2023-06-19	17:50:38	18:01:19	636466	641b1fcd7275677c08982bae	3	1	main_z	11	advance_on_keypress_ZEE	96	stimuli_distractor_trianglediamonds.svg	stimuli_distractor_trianglediamonds.svg	34	no	57	0	332	0	0			0	0			1				0	
6.6.1	win	2023-06-19	17:50:38	18:01:20	637858	641b1fcd7275677c08982bae	3	1	main_z	11	main_z	97	stimuli_distractor_trianglediamonds.svg	stimuli_target_squaretriangles.svg	11	yes	44	1	409	0	0			0	0			1				0	
6.6.1	win	2023-06-19	17:50:38	18:01:20	637858	641b1fcd7275677c08982bae	3	1	main_z	11	advance_on_keypress_ZEE	98	stimuli_distractor_trianglediamonds.svg	stimuli_target_squaretriangles.svg	11	yes	57	0	390	0	0			0	0			1				0	
6.6.1	win	2023-06-19	17:50:38	18:01:22	639290	641b1fcd7275677c08982bae	3	1	main_z	11	main_z	99	stimuli_target_rectanglediamonds.svg	stimuli_distractor_trianglediamonds.svg	2	yes	44	1	407	0	0			0	0			1				0	
6.6.1	win	2023-06-19	17:50:38	18:01:22	639290	641b1fcd7275677c08982bae	3	1	main_z	11	advance_on_keypress_ZEE	100	stimuli_target_rectanglediamonds.svg	stimuli_distractor_trianglediamonds.svg	2	yes	57	0	383	0	0			0	0			1				0	
6.6.1	win	2023-06-19	17:50:38	18:01:25	642316	641b1fcd7275677c08982bae	3	1	main_z	11	main_z	101	stimuli_distractor_diamondtriangles.svg	stimuli_distractor_trianglediamonds.svg	38	no	0	1	2000	0	0			0	0			1				0	
6.6.1	win	2023-06-19	17:50:38	18:01:25	642316	641b1fcd7275677c08982bae	3	1	main_z	11	advance_on_keypress_ZEE	102	stimuli_distractor_diamondtriangles.svg	stimuli_distractor_trianglediamonds.svg	38	no	57	0	361	0	0			0	0			1				0	
6.6.1	win	2023-06-19	17:50:38	18:01:26	643736	641b1fcd7275677c08982bae	3	1	main_z	11	main_z	103	stimuli_distractor_diamondtriangles.svg	stimuli_target_squarediamonds.svg	16	yes	44	1	403	0	0			0	0			1				0	
6.6.1	win	2023-06-19	17:50:38	18:01:26	643736	641b1fcd7275677c08982bae	3	1	main_z	11	advance_on_keypress_ZEE	104	stimuli_distractor_diamondtriangles.svg	stimuli_target_squarediamonds.svg	16	yes	57	0	369	0	0			0	0			1				0	
6.6.1	win	2023-06-19	17:50:38	18:01:28	645137	641b1fcd7275677c08982bae	3	1	main_z	11	main_z	105	stimuli_target_squarediamonds.svg	stimuli_distractor_trianglediamonds.svg	4	yes	44	1	387	0	0			0	0			1				0	
6.6.1	win	2023-06-19	17:50:38	18:01:28	645137	641b1fcd7275677c08982bae	3	1	main_z	11	advance_on_keypress_ZEE	106	stimuli_target_squarediamonds.svg	stimuli_distractor_trianglediamonds.svg	4	yes	57	0	398	0	0			0	0			1				0	
6.6.1	win	2023-06-19	17:50:38	18:01:29	646580	641b1fcd7275677c08982bae	3	1	main_z	11	main_z	107	stimuli_target_squaretriangles.svg	stimuli_distractor_diamondtriangles.svg	7	yes	44	1	396	0	0			0	0			1				0	
6.6.1	win	2023-06-19	17:50:38	18:01:29	646580	641b1fcd7275677c08982bae	3	1	main_z	11	advance_on_keypress_ZEE	108	stimuli_target_squaretriangles.svg	stimuli_distractor_diamondtriangles.svg	7	yes	57	0	435	0	0			0	0			1				0	
6.6.1	win	2023-06-19	17:50:38	18:01:30	648048	641b1fcd7275677c08982bae	3	1	main_z	11	main_z	109	stimuli_distractor_trianglediamonds.svg	stimuli_target_diamondrectangles.svg	27	yes	44	1	378	0	0			0	0			1				0	
6.6.1	win	2023-06-19	17:50:38	18:01:30	648048	641b1fcd7275677c08982bae	3	1	main_z	11	advance_on_keypress_ZEE	110	stimuli_distractor_trianglediamonds.svg	stimuli_target_diamondrectangles.svg	27	yes	57	0	428	0	0			0	0			1				0	
6.6.1	win	2023-06-19	17:50:38	18:01:32	649629	641b1fcd7275677c08982bae	3	1	main_z	11	main_z	111	stimuli_distractor_diamondtriangles.svg	stimuli_target_rectangletriangles.svg	13	yes	44	1	495	0	0			0	0			1				0	
6.6.1	win	2023-06-19	17:50:38	18:01:32	649629	641b1fcd7275677c08982bae	3	1	main_z	11	advance_on_keypress_ZEE	112	stimuli_distractor_diamondtriangles.svg	stimuli_target_rectangletriangles.svg	13	yes	57	0	418	0	0			0	0			1				0	
6.6.1	win	2023-06-19	17:50:38	18:01:34	651309	641b1fcd7275677c08982bae	3	1	main_z	11	main_z	113	stimuli_target_trianglesquares.svg	stimuli_distractor_trianglediamonds.svg	18	yes	44	1	625	0	0			0	0			1				0	
6.6.1	win	2023-06-19	17:50:38	18:01:34	651309	641b1fcd7275677c08982bae	3	1	main_z	11	advance_on_keypress_ZEE	114	stimuli_target_trianglesquares.svg	stimuli_distractor_trianglediamonds.svg	18	yes	57	0	436	0	0			0	0			1				0	
6.6.1	win	2023-06-19	17:50:38	18:01:35	652976	641b1fcd7275677c08982bae	3	1	main_z	11	main_z	115	stimuli_target_rectangletriangles.svg	stimuli_distractor_diamondtriangles.svg	5	yes	44	1	592	0	0			0	0			1				0	
6.6.1	win	2023-06-19	17:50:38	18:01:35	652976	641b1fcd7275677c08982bae	3	1	main_z	11	advance_on_keypress_ZEE	116	stimuli_target_rectangletriangles.svg	stimuli_distractor_diamondtriangles.svg	5	yes	57	0	482	0	0			0	0			1				0	
6.6.1	win	2023-06-19	17:50:38	18:01:37	654705	641b1fcd7275677c08982bae	3	1	main_z	11	main_z	117	stimuli_distractor_diamondtriangles.svg	stimuli_target_rectanglediamonds.svg	14	yes	44	1	603	0	0			0	0			1				0	
6.6.1	win	2023-06-19	17:50:38	18:01:37	654705	641b1fcd7275677c08982bae	3	1	main_z	11	advance_on_keypress_ZEE	118	stimuli_distractor_diamondtriangles.svg	stimuli_target_rectanglediamonds.svg	14	yes	57	0	361	0	0			0	0			1				0	
6.6.1	win	2023-06-19	17:50:38	18:01:39	656191	641b1fcd7275677c08982bae	3	1	main_z	11	main_z	119	stimuli_target_diamondrectangles.svg	stimuli_distractor_trianglediamonds.svg	19	yes	44	1	473	0	0			0	0			1				0	
6.6.1	win	2023-06-19	17:50:38	18:01:39	656191	641b1fcd7275677c08982bae	3	1	main_z	11	advance_on_keypress_ZEE	120	stimuli_target_diamondrectangles.svg	stimuli_distractor_trianglediamonds.svg	19	yes	57	0	376	0	0			0	0			1				0	
6.6.1	win	2023-06-19	17:50:38	18:01:40	657907	641b1fcd7275677c08982bae	3	1	main_z	11	main_z	121	stimuli_target_diamondsquares.svg	stimuli_distractor_trianglediamonds.svg	20	yes	44	1	705	0	0			0	0			1				0	
6.6.1	win	2023-06-19	17:50:38	18:01:40	657907	641b1fcd7275677c08982bae	3	1	main_z	11	advance_on_keypress_ZEE	122	stimuli_target_diamondsquares.svg	stimuli_distractor_trianglediamonds.svg	20	yes	57	0	963	0	0			0	0			1				0	
6.6.1	win	2023-06-19	17:50:38	18:01:42	659905	641b1fcd7275677c08982bae	3	1	main_z	11	main_z	123	stimuli_target_rectangletriangles.svg	stimuli_distractor_trianglediamonds.svg	1	yes	44	1	387	0	0			0	0			1				0	
6.6.1	win	2023-06-19	17:50:38	18:01:42	659905	641b1fcd7275677c08982bae	3	1	main_z	11	advance_on_keypress_ZEE	124	stimuli_target_rectangletriangles.svg	stimuli_distractor_trianglediamonds.svg	1	yes	57	0	740	0	0			0	0			1				0	
6.6.1	win	2023-06-19	17:50:38	18:01:44	661702	641b1fcd7275677c08982bae	3	1	main_z	11	main_z	125	stimuli_distractor_diamondtriangles.svg	stimuli_target_diamondrectangles.svg	31	yes	44	1	416	0	0			0	0			1				0	
6.6.1	win	2023-06-19	17:50:38	18:01:44	661702	641b1fcd7275677c08982bae	3	1	main_z	11	advance_on_keypress_ZEE	126	stimuli_distractor_diamondtriangles.svg	stimuli_target_diamondrectangles.svg	31	yes	57	0	360	0	0			0	0			1				0	
6.6.1	win	2023-06-19	17:50:38	18:01:46	663181	641b1fcd7275677c08982bae	3	1	main_z	11	main_z	127	stimuli_distractor_diamondtriangles.svg	stimuli_target_diamondsquares.svg	32	yes	44	1	479	0	0			0	0			1				0	
6.6.1	win	2023-06-19	17:50:38	18:01:46	663181	641b1fcd7275677c08982bae	3	1	main_z	11	advance_on_keypress_ZEE	128	stimuli_distractor_diamondtriangles.svg	stimuli_target_diamondsquares.svg	32	yes	57	0	378	0	0			0	0			1				0	
6.6.1	win	2023-06-19	17:50:38	18:01:47	664592	641b1fcd7275677c08982bae	3	1	main_z	11	main_z	129	stimuli_distractor_diamondtriangles.svg	stimuli_target_squaretriangles.svg	15	yes	44	1	390	0	0			0	0			1				0	
6.6.1	win	2023-06-19	17:50:38	18:01:47	664592	641b1fcd7275677c08982bae	3	1	main_z	11	advance_on_keypress_ZEE	130	stimuli_distractor_diamondtriangles.svg	stimuli_target_squaretriangles.svg	15	yes	57	0	376	0	0			0	0			1				0	
6.6.1	win	2023-06-19	17:50:38	18:01:50	667602	641b1fcd7275677c08982bae	3	1	main_z	11	main_z	131	stimuli_distractor_trianglediamonds.svg	stimuli_distractor_diamondtriangles.svg	35	no	0	1	2000	0	0			0	0			1				0	
6.6.1	win	2023-06-19	17:50:38	18:01:50	667602	641b1fcd7275677c08982bae	3	1	main_z	11	advance_on_keypress_ZEE	132	stimuli_distractor_trianglediamonds.svg	stimuli_distractor_diamondtriangles.svg	35	no	57	0	403	0	0			0	0			1				0	
6.6.1	win	2023-06-19	17:50:38	18:01:52	669493	641b1fcd7275677c08982bae	3	1	main_z	11	main_z	133	stimuli_target_trianglesquares.svg	stimuli_distractor_diamondtriangles.svg	22	yes	44	1	841	0	0			0	0			1				0	
6.6.1	win	2023-06-19	17:50:38	18:01:52	669493	641b1fcd7275677c08982bae	3	1	main_z	11	advance_on_keypress_ZEE	134	stimuli_target_trianglesquares.svg	stimuli_distractor_diamondtriangles.svg	22	yes	57	0	388	0	0			0	0			1				0	
6.6.1	win	2023-06-19	17:50:38	18:01:54	671321	641b1fcd7275677c08982bae	3	1	main_z	11	main_z	135	stimuli_target_diamondsquares.svg	stimuli_distractor_diamondtriangles.svg	24	yes	44	1	802	0	0			0	0			1				0	
6.6.1	win	2023-06-19	17:50:38	18:01:54	671321	641b1fcd7275677c08982bae	3	1	main_z	11	advance_on_keypress_ZEE	136	stimuli_target_diamondsquares.svg	stimuli_distractor_diamondtriangles.svg	24	yes	57	0	519	0	0			0	0			1				0	
6.6.1	win	2023-06-19	17:50:38	18:01:55	673124	641b1fcd7275677c08982bae	3	1	main_z	11	main_z	137	stimuli_distractor_trianglediamonds.svg	stimuli_target_trianglerectangles.svg	25	yes	44	1	638	0	0			0	0			1				0	
6.6.1	win	2023-06-19	17:50:38	18:01:55	673124	641b1fcd7275677c08982bae	3	1	main_z	11	advance_on_keypress_ZEE	138	stimuli_distractor_trianglediamonds.svg	stimuli_target_trianglerectangles.svg	25	yes	57	0	617	0	0			0	0			1				0	
6.6.1	win	2023-06-19	17:50:38	18:01:58	675176	641b1fcd7275677c08982bae	3	1	main_z	11	main_z	139	stimuli_target_rectanglediamonds.svg	stimuli_distractor_diamondtriangles.svg	6	yes	44	1	789	0	0			0	0			1				0	
6.6.1	win	2023-06-19	17:50:38	18:01:58	675176	641b1fcd7275677c08982bae	3	1	main_z	11	advance_on_keypress_ZEE	140	stimuli_target_rectanglediamonds.svg	stimuli_distractor_diamondtriangles.svg	6	yes	57	0	712	0	0			0	0			1				0	
6.6.1	win	2023-06-19	17:50:38	18:02:01	678537	641b1fcd7275677c08982bae	3	1	main_z	11	main_z	141	stimuli_distractor_diamondtriangles.svg	stimuli_distractor_diamondtriangles.svg	40	no	0	1	2000	0	0			0	0			1				0	
6.6.1	win	2023-06-19	17:50:38	18:02:01	678537	641b1fcd7275677c08982bae	3	1	main_z	11	advance_on_keypress_ZEE	142	stimuli_distractor_diamondtriangles.svg	stimuli_distractor_diamondtriangles.svg	40	no	57	0	388	0	0			0	0			1				0	
6.6.1	win	2023-06-19	17:50:38	18:02:03	680194	641b1fcd7275677c08982bae	3	1	main_z	11	main_z	143	stimuli_target_squaretriangles.svg	stimuli_distractor_trianglediamonds.svg	3	yes	44	1	624	0	0			0	0			1				0	
6.6.1	win	2023-06-19	17:50:38	18:02:03	680194	641b1fcd7275677c08982bae	3	1	main_z	11	advance_on_keypress_ZEE	144	stimuli_target_squaretriangles.svg	stimuli_distractor_trianglediamonds.svg	3	yes	57	0	397	0	0			0	0			1				0	
6.6.1	win	2023-06-19	17:50:38	18:02:06	683237	641b1fcd7275677c08982bae	3	1	main_z	11	main_z	145	stimuli_distractor_diamondtriangles.svg	stimuli_distractor_trianglediamonds.svg	37	no	0	1	2000	0	0			0	0			1				0	
6.6.1	win	2023-06-19	17:50:38	18:02:06	683237	641b1fcd7275677c08982bae	3	1	main_z	11	advance_on_keypress_ZEE	146	stimuli_distractor_diamondtriangles.svg	stimuli_distractor_trianglediamonds.svg	37	no	57	0	380	0	0			0	0			1				0	
6.6.1	win	2023-06-19	17:50:38	18:02:07	685076	641b1fcd7275677c08982bae	3	1	main_z	11	main_z	147	stimuli_distractor_diamondtriangles.svg	stimuli_target_trianglerectangles.svg	29	yes	44	1	804	0	0			0	0			1				0	
6.6.1	win	2023-06-19	17:50:38	18:02:07	685076	641b1fcd7275677c08982bae	3	1	main_z	11	advance_on_keypress_ZEE	148	stimuli_distractor_diamondtriangles.svg	stimuli_target_trianglerectangles.svg	29	yes	57	0	603	0	0			0	0			1				0	
6.6.1	win	2023-06-19	17:50:38	18:02:10	687930	641b1fcd7275677c08982bae	3	1	main_z	11	main_z	149	stimuli_target_squarediamonds.svg	stimuli_distractor_diamondtriangles.svg	8	yes	44	1	1609	0	0			0	0			1				0	
6.6.1	win	2023-06-19	17:50:38	18:02:10	687930	641b1fcd7275677c08982bae	3	1	main_z	11	advance_on_keypress_ZEE	150	stimuli_target_squarediamonds.svg	stimuli_distractor_diamondtriangles.svg	8	yes	57	0	522	0	0			0	0			1				0	
6.6.1	win	2023-06-19	17:50:38	18:02:13	691088	641b1fcd7275677c08982bae	3	1	main_z	11	main_z	151	stimuli_distractor_diamondtriangles.svg	stimuli_distractor_diamondtriangles.svg	39	no	0	1	2000	0	0			0	0			1				0	
6.6.1	win	2023-06-19	17:50:38	18:02:13	691088	641b1fcd7275677c08982bae	3	1	main_z	11	advance_on_keypress_ZEE	152	stimuli_distractor_diamondtriangles.svg	stimuli_distractor_diamondtriangles.svg	39	no	57	0	444	0	0			0	0			1				0	
6.6.1	win	2023-06-19	17:50:38	18:02:15	692687	641b1fcd7275677c08982bae	3	1	main_z	11	main_z	153	stimuli_distractor_trianglediamonds.svg	stimuli_target_trianglesquares.svg	26	yes	44	1	515	0	0			0	0			1				0	
6.6.1	win	2023-06-19	17:50:38	18:02:15	692687	641b1fcd7275677c08982bae	3	1	main_z	11	advance_on_keypress_ZEE	154	stimuli_distractor_trianglediamonds.svg	stimuli_target_trianglesquares.svg	26	yes	57	0	406	0	0			0	0			1				0	
6.6.1	win	2023-06-19	17:50:38	18:02:17	694413	641b1fcd7275677c08982bae	3	1	main_z	11	main_z	155	stimuli_distractor_trianglediamonds.svg	stimuli_target_squarediamonds.svg	12	yes	44	1	675	0	0			0	0			1				0	
6.6.1	win	2023-06-19	17:50:38	18:02:17	694413	641b1fcd7275677c08982bae	3	1	main_z	11	advance_on_keypress_ZEE	156	stimuli_distractor_trianglediamonds.svg	stimuli_target_squarediamonds.svg	12	yes	57	0	770	0	0			0	0			1				0	
6.6.1	win	2023-06-19	17:50:38	18:02:19	696321	641b1fcd7275677c08982bae	3	1	main_z	11	main_z	157	stimuli_distractor_trianglediamonds.svg	stimuli_target_diamondsquares.svg	28	yes	44	1	499	0	0			0	0			1				0	
6.6.1	win	2023-06-19	17:50:38	18:02:19	696321	641b1fcd7275677c08982bae	3	1	main_z	11	advance_on_keypress_ZEE	158	stimuli_distractor_trianglediamonds.svg	stimuli_target_diamondsquares.svg	28	yes	57	0	733	0	0			0	0			1				0	
6.6.1	win	2023-06-19	17:50:38	18:02:21	698390	641b1fcd7275677c08982bae	3	1	main_z	11	main_z	159	stimuli_target_trianglerectangles.svg	stimuli_distractor_trianglediamonds.svg	17	yes	44	1	684	0	0			0	0			1				0	
6.6.1	win	2023-06-19	17:50:38	18:02:21	698390	641b1fcd7275677c08982bae	3	1	main_z	11	advance_on_keypress_ZEE	160	stimuli_target_trianglerectangles.svg	stimuli_distractor_trianglediamonds.svg	17	yes	57	0	452	0	0			0	0			1				0	
6.6.1	win	2023-06-19	17:50:38	18:02:21	698390	641b1fcd7275677c08982bae	3	1	headphonecheck_calibration	14	headphonecheck_calibrationIntro	1	stimuli_target_trianglerectangles.svg	stimuli_distractor_trianglediamonds.svg	17	yes	calibrationButton	0	6121	0	0			0	0			1				0	
6.6.1	win	2023-06-19	17:50:38	18:02:21	698390	641b1fcd7275677c08982bae	3	1	headphonecheck_testphase	15	test_collectResponse	3	stimuli_target_trianglerectangles.svg	stimuli_distractor_trianglediamonds.svg	17	yes	third	0	3596	1	5	antiphase_hc_osi.wav	2	0	0			1				0	
6.6.1	win	2023-06-19	17:50:38	18:02:21	698390	641b1fcd7275677c08982bae	3	1	headphonecheck_testphase	15	test_collectResponse	6	stimuli_target_trianglerectangles.svg	stimuli_distractor_trianglediamonds.svg	17	yes	first	0	453	2	2	antiphase_hc_ios.wav	3	0	0			1				0	
6.6.1	win	2023-06-19	17:50:38	18:02:21	698390	641b1fcd7275677c08982bae	3	1	headphonecheck_testphase	15	test_collectResponse	9	stimuli_target_trianglerectangles.svg	stimuli_distractor_trianglediamonds.svg	17	yes	first	0	304	3	1	antiphase_hc_iso.wav	2	0	0			1				0	
6.6.1	win	2023-06-19	17:50:38	18:02:21	698390	641b1fcd7275677c08982bae	3	1	headphonecheck_testphase	15	test_collectResponse	12	stimuli_target_trianglerectangles.svg	stimuli_distractor_trianglediamonds.svg	17	yes	second	0	482	4	3	antiphase_hc_soi.wav	1	0	0			1				0	
6.6.1	win	2023-06-19	17:50:38	18:02:21	698390	641b1fcd7275677c08982bae	3	1	headphonecheck_testphase	15	test_collectResponse	15	stimuli_target_trianglerectangles.svg	stimuli_distractor_trianglediamonds.svg	17	yes	first	0	158	5	6	antiphase_hc_ois.wav	3	0	0			1				0	
6.6.1	win	2023-06-19	17:50:38	18:02:21	698390	641b1fcd7275677c08982bae	3	1	headphonecheck_testphase	15	test_collectResponse	18	stimuli_target_trianglerectangles.svg	stimuli_distractor_trianglediamonds.svg	17	yes	second	0	238	6	4	antiphase_hc_sio.wav	1	0	0			1				0	
6.6.1	win	2023-06-19	17:50:38	18:02:21	698390	641b1fcd7275677c08982bae	3	1	stereocheck_calibration	17	stereocheck_calibrationIntro	1	stimuli_target_trianglerectangles.svg	stimuli_distractor_trianglediamonds.svg	17	yes	stereocheck_calibrationButton	0	7755	6	4	antiphase_hc_sio.wav	1	0	0			1				0	
6.6.1	win	2023-06-19	17:50:38	18:02:21	698390	641b1fcd7275677c08982bae	3	1	stereocheck_testphase	18	stereocheck_test_collectResponse	3	stimuli_target_trianglerectangles.svg	stimuli_distractor_trianglediamonds.svg	17	yes	stereocheck_left	1	599	6	4	antiphase_hc_sio.wav	1	1	1	noise_calib_stim_LEFT.wav	1	1				0	
6.6.1	win	2023-06-19	17:50:38	18:02:21	698390	641b1fcd7275677c08982bae	3	1	stereocheck_testphase	18	stereocheck_test_collectResponse	6	stimuli_target_trianglerectangles.svg	stimuli_distractor_trianglediamonds.svg	17	yes	stereocheck_right	1	397	6	4	antiphase_hc_sio.wav	1	2	6	noise_calib_stim_RIGHT.wav	2	1				0	
6.6.1	win	2023-06-19	17:50:38	18:02:21	698390	641b1fcd7275677c08982bae	3	1	stereocheck_testphase	18	stereocheck_test_collectResponse	9	stimuli_target_trianglerectangles.svg	stimuli_distractor_trianglediamonds.svg	17	yes	stereocheck_right	1	348	6	4	antiphase_hc_sio.wav	1	3	5	noise_calib_stim_RIGHT.wav	2	1				0	
6.6.1	win	2023-06-19	17:50:38	18:02:21	698390	641b1fcd7275677c08982bae	3	1	stereocheck_testphase	18	stereocheck_test_collectResponse	12	stimuli_target_trianglerectangles.svg	stimuli_distractor_trianglediamonds.svg	17	yes	stereocheck_left	1	301	6	4	antiphase_hc_sio.wav	1	4	3	noise_calib_stim_LEFT.wav	1	1				0	
6.6.1	win	2023-06-19	17:50:38	18:02:21	698390	641b1fcd7275677c08982bae	3	1	stereocheck_testphase	18	stereocheck_test_collectResponse	15	stimuli_target_trianglerectangles.svg	stimuli_distractor_trianglediamonds.svg	17	yes	stereocheck_right	1	290	6	4	antiphase_hc_sio.wav	1	5	4	noise_calib_stim_RIGHT.wav	2	1				0	
6.6.1	win	2023-06-19	17:50:38	18:02:21	698390	641b1fcd7275677c08982bae	3	1	stereocheck_testphase	18	stereocheck_test_collectResponse	18	stimuli_target_trianglerectangles.svg	stimuli_distractor_trianglediamonds.svg	17	yes	stereocheck_left	1	256	6	4	antiphase_hc_sio.wav	1	6	2	noise_calib_stim_LEFT.wav	1	1				0	
6.6.1	win	2023-06-19	17:50:38	18:02:21	698390	641b1fcd7275677c08982bae	3	1	DL_practice	21	DL_practice	2	stimuli_target_trianglerectangles.svg	stimuli_distractor_trianglediamonds.svg	17	yes	ka	1	1196	6	4	antiphase_hc_sio.wav	1	6	2	noise_calib_stim_LEFT.wav	1	23	blb_dichoticlistening_ka-pa.mp3	ka	pa	1	left
6.6.1	win	2023-06-19	17:50:38	18:02:21	698390	641b1fcd7275677c08982bae	3	1	DL_practice	21	DL_practice	3	stimuli_target_trianglerectangles.svg	stimuli_distractor_trianglediamonds.svg	17	yes	ta	1	1112	6	4	antiphase_hc_sio.wav	1	6	2	noise_calib_stim_LEFT.wav	1	36	blb_dichoticlistening_ta-ta.mp3	ta	ta	0	left
6.6.1	win	2023-06-19	17:50:38	18:02:21	698390	641b1fcd7275677c08982bae	3	1	DL_practice	21	DL_practice	4	stimuli_target_trianglerectangles.svg	stimuli_distractor_trianglediamonds.svg	17	yes	ga	1	907	6	4	antiphase_hc_sio.wav	1	6	2	noise_calib_stim_LEFT.wav	1	18	blb_dichoticlistening_ga-ta.mp3	ga	ta	1	left
6.6.1	win	2023-06-19	17:50:38	18:02:21	698390	641b1fcd7275677c08982bae	3	1	DL_practice	21	DL_practice	5	stimuli_target_trianglerectangles.svg	stimuli_distractor_trianglediamonds.svg	17	yes	ka	1	1097	6	4	antiphase_hc_sio.wav	1	6	2	noise_calib_stim_LEFT.wav	1	22	blb_dichoticlistening_ka-ka.mp3	ka	ka	0	left
6.6.1	win	2023-06-19	17:50:38	18:02:21	698390	641b1fcd7275677c08982bae	3	1	DL_practice	21	DL_practice	6	stimuli_target_trianglerectangles.svg	stimuli_distractor_trianglediamonds.svg	17	yes	pa	1	913	6	4	antiphase_hc_sio.wav	1	6	2	noise_calib_stim_LEFT.wav	1	29	blb_dichoticlistening_pa-pa.mp3	pa	pa	0	left
6.6.1	win	2023-06-19	17:50:38	18:02:21	698390	641b1fcd7275677c08982bae	3	1	DL_practice	21	DL_practice	7	stimuli_target_trianglerectangles.svg	stimuli_distractor_trianglediamonds.svg	17	yes	ga	1	660	6	4	antiphase_hc_sio.wav	1	6	2	noise_calib_stim_LEFT.wav	1	15	blb_dichoticlistening_ga-ga.mp3	ga	ga	0	left
6.6.1	win	2023-06-19	17:50:38	18:02:21	698390	641b1fcd7275677c08982bae	3	1	DL_practice	21	DL_practice	8	stimuli_target_trianglerectangles.svg	stimuli_distractor_trianglediamonds.svg	17	yes	ga	0	1222	6	4	antiphase_hc_sio.wav	1	6	2	noise_calib_stim_LEFT.wav	1	7	blb_dichoticlistening_da-ba.mp3	da	ba	1	other
6.6.1	win	2023-06-19	17:50:38	18:02:21	698390	641b1fcd7275677c08982bae	3	1	DL_practice	21	DL_practice	9	stimuli_target_trianglerectangles.svg	stimuli_distractor_trianglediamonds.svg	17	yes	ba	1	1800	6	4	antiphase_hc_sio.wav	1	6	2	noise_calib_stim_LEFT.wav	1	1	blb_dichoticlistening_ba-ba.mp3	ba	ba	0	left
6.6.1	win	2023-06-19	17:50:38	18:02:21	698390	641b1fcd7275677c08982bae	3	1	DL_practice	21	DL_practice	10	stimuli_target_trianglerectangles.svg	stimuli_distractor_trianglediamonds.svg	17	yes	da	1	1082	6	4	antiphase_hc_sio.wav	1	6	2	noise_calib_stim_LEFT.wav	1	8	blb_dichoticlistening_da-da.mp3	da	da	0	left
6.6.1	win	2023-06-19	17:50:38	18:02:21	698390	641b1fcd7275677c08982bae	3	1	DL_test	23	DL_test	1	stimuli_target_trianglerectangles.svg	stimuli_distractor_trianglediamonds.svg	17	yes	ga	0	914	6	4	antiphase_hc_sio.wav	1	6	2	noise_calib_stim_LEFT.wav	1	11	blb_dichoticlistening_da-pa.mp3	da	pa	1	other
6.6.1	win	2023-06-19	17:50:38	18:02:21	698390	641b1fcd7275677c08982bae	3	1	DL_test	23	DL_test	2	stimuli_target_trianglerectangles.svg	stimuli_distractor_trianglediamonds.svg	17	yes	ga	1	1917	6	4	antiphase_hc_sio.wav	1	6	2	noise_calib_stim_LEFT.wav	1	27	blb_dichoticlistening_pa-ga.mp3	pa	ga	1	right
6.6.1	win	2023-06-19	17:50:38	18:02:21	698390	641b1fcd7275677c08982bae	3	1	DL_test	23	DL_test	3	stimuli_target_trianglerectangles.svg	stimuli_distractor_trianglediamonds.svg	17	yes	da	0	1828	6	4	antiphase_hc_sio.wav	1	6	2	noise_calib_stim_LEFT.wav	1	19	blb_dichoticlistening_ka-ba.mp3	ka	ba	1	other
6.6.1	win	2023-06-19	17:50:38	18:02:21	698390	641b1fcd7275677c08982bae	3	1	DL_test	23	DL_test	4	stimuli_target_trianglerectangles.svg	stimuli_distractor_trianglediamonds.svg	17	yes	ga	1	738	6	4	antiphase_hc_sio.wav	1	6	2	noise_calib_stim_LEFT.wav	1	15	blb_dichoticlistening_ga-ga.mp3	ga	ga	0	left
6.6.1	win	2023-06-19	17:50:38	18:02:21	698390	641b1fcd7275677c08982bae	3	1	DL_test	23	DL_test	5	stimuli_target_trianglerectangles.svg	stimuli_distractor_trianglediamonds.svg	17	yes	ba	1	1613	6	4	antiphase_hc_sio.wav	1	6	2	noise_calib_stim_LEFT.wav	1	25	blb_dichoticlistening_pa-ba.mp3	pa	ba	1	right
6.6.1	win	2023-06-19	17:50:38	18:02:21	698390	641b1fcd7275677c08982bae	3	1	DL_test	23	DL_test	6	stimuli_target_trianglerectangles.svg	stimuli_distractor_trianglediamonds.svg	17	yes	ta	1	1278	6	4	antiphase_hc_sio.wav	1	6	2	noise_calib_stim_LEFT.wav	1	30	blb_dichoticlistening_pa-ta.mp3	pa	ta	1	right
6.6.1	win	2023-06-19	17:50:38	18:02:21	698390	641b1fcd7275677c08982bae	3	1	DL_test	23	DL_test	7	stimuli_target_trianglerectangles.svg	stimuli_distractor_trianglediamonds.svg	17	yes	ga	1	648	6	4	antiphase_hc_sio.wav	1	6	2	noise_calib_stim_LEFT.wav	1	21	blb_dichoticlistening_ka-ga.mp3	ka	ga	1	right
6.6.1	win	2023-06-19	17:50:38	18:02:21	698390	641b1fcd7275677c08982bae	3	1	DL_test	23	DL_test	8	stimuli_target_trianglerectangles.svg	stimuli_distractor_trianglediamonds.svg	17	yes	ga	1	685	6	4	antiphase_hc_sio.wav	1	6	2	noise_calib_stim_LEFT.wav	1	14	blb_dichoticlistening_ga-da.mp3	ga	da	1	left
6.6.1	win	2023-06-19	17:50:38	18:02:21	698390	641b1fcd7275677c08982bae	3	1	DL_test	23	DL_test	9	stimuli_target_trianglerectangles.svg	stimuli_distractor_trianglediamonds.svg	17	yes	ga	1	530	6	4	antiphase_hc_sio.wav	1	6	2	noise_calib_stim_LEFT.wav	1	9	blb_dichoticlistening_da-ga.mp3	da	ga	1	right
6.6.1	win	2023-06-19	17:50:38	18:02:21	698390	641b1fcd7275677c08982bae	3	1	DL_test	23	DL_test	10	stimuli_target_trianglerectangles.svg	stimuli_distractor_trianglediamonds.svg	17	yes	ga	0	508	6	4	antiphase_hc_sio.wav	1	6	2	noise_calib_stim_LEFT.wav	1	20	blb_dichoticlistening_ka-da.mp3	ka	da	1	other
6.6.1	win	2023-06-19	17:50:38	18:02:21	698390	641b1fcd7275677c08982bae	3	1	DL_test	23	DL_test	11	stimuli_target_trianglerectangles.svg	stimuli_distractor_trianglediamonds.svg	17	yes	ga	1	695	6	4	antiphase_hc_sio.wav	1	6	2	noise_calib_stim_LEFT.wav	1	13	blb_dichoticlistening_ga-ba.mp3	ga	ba	1	left
6.6.1	win	2023-06-19	17:50:38	18:02:21	698390	641b1fcd7275677c08982bae	3	1	DL_test	23	DL_test	12	stimuli_target_trianglerectangles.svg	stimuli_distractor_trianglediamonds.svg	17	yes	ka	1	1013	6	4	antiphase_hc_sio.wav	1	6	2	noise_calib_stim_LEFT.wav	1	23	blb_dichoticlistening_ka-pa.mp3	ka	pa	1	left
6.6.1	win	2023-06-19	17:50:38	18:02:21	698390	641b1fcd7275677c08982bae	3	1	DL_test	23	DL_test	13	stimuli_target_trianglerectangles.svg	stimuli_distractor_trianglediamonds.svg	17	yes	ka	1	713	6	4	antiphase_hc_sio.wav	1	6	2	noise_calib_stim_LEFT.wav	1	24	blb_dichoticlistening_ka-ta.mp3	ka	ta	1	left
6.6.1	win	2023-06-19	17:50:38	18:02:21	698390	641b1fcd7275677c08982bae	3	1	DL_test	23	DL_test	14	stimuli_target_trianglerectangles.svg	stimuli_distractor_trianglediamonds.svg	17	yes	ba	1	1418	6	4	antiphase_hc_sio.wav	1	6	2	noise_calib_stim_LEFT.wav	1	4	blb_dichoticlistening_ba-ka.mp3	ba	ka	1	left
6.6.1	win	2023-06-19	17:50:38	18:02:21	698390	641b1fcd7275677c08982bae	3	1	DL_test	23	DL_test	15	stimuli_target_trianglerectangles.svg	stimuli_distractor_trianglediamonds.svg	17	yes	ba	1	1310	6	4	antiphase_hc_sio.wav	1	6	2	noise_calib_stim_LEFT.wav	1	5	blb_dichoticlistening_ba-pa.mp3	ba	pa	1	left
6.6.1	win	2023-06-19	17:50:38	18:02:21	698390	641b1fcd7275677c08982bae	3	1	DL_test	23	DL_test	16	stimuli_target_trianglerectangles.svg	stimuli_distractor_trianglediamonds.svg	17	yes	da	1	968	6	4	antiphase_hc_sio.wav	1	6	2	noise_calib_stim_LEFT.wav	1	7	blb_dichoticlistening_da-ba.mp3	da	ba	1	left
6.6.1	win	2023-06-19	17:50:38	18:02:21	698390	641b1fcd7275677c08982bae	3	1	DL_test	23	DL_test	17	stimuli_target_trianglerectangles.svg	stimuli_distractor_trianglediamonds.svg	17	yes	ga	1	565	6	4	antiphase_hc_sio.wav	1	6	2	noise_calib_stim_LEFT.wav	1	16	blb_dichoticlistening_ga-ka.mp3	ga	ka	1	left
6.6.1	win	2023-06-19	17:50:38	18:02:21	698390	641b1fcd7275677c08982bae	3	1	DL_test	23	DL_test	18	stimuli_target_trianglerectangles.svg	stimuli_distractor_trianglediamonds.svg	17	yes	ga	1	514	6	4	antiphase_hc_sio.wav	1	6	2	noise_calib_stim_LEFT.wav	1	33	blb_dichoticlistening_ta-ga.mp3	ta	ga	1	right
6.6.1	win	2023-06-19	17:50:38	18:02:21	698390	641b1fcd7275677c08982bae	3	1	DL_test	23	DL_test	19	stimuli_target_trianglerectangles.svg	stimuli_distractor_trianglediamonds.svg	17	yes	ba	1	1089	6	4	antiphase_hc_sio.wav	1	6	2	noise_calib_stim_LEFT.wav	1	1	blb_dichoticlistening_ba-ba.mp3	ba	ba	0	left
6.6.1	win	2023-06-19	17:50:38	18:02:21	698390	641b1fcd7275677c08982bae	3	1	DL_test	23	DL_test	20	stimuli_target_trianglerectangles.svg	stimuli_distractor_trianglediamonds.svg	17	yes	ba	1	1074	6	4	antiphase_hc_sio.wav	1	6	2	noise_calib_stim_LEFT.wav	1	6	blb_dichoticlistening_ba-ta.mp3	ba	ta	1	left
6.6.1	win	2023-06-19	17:50:38	18:02:21	698390	641b1fcd7275677c08982bae	3	1	DL_test	23	DL_test	21	stimuli_target_trianglerectangles.svg	stimuli_distractor_trianglediamonds.svg	17	yes	ba	1	1018	6	4	antiphase_hc_sio.wav	1	6	2	noise_calib_stim_LEFT.wav	1	2	blb_dichoticlistening_ba-da.mp3	ba	da	1	left
6.6.1	win	2023-06-19	17:50:38	18:02:21	698390	641b1fcd7275677c08982bae	3	1	DL_test	23	DL_test	22	stimuli_target_trianglerectangles.svg	stimuli_distractor_trianglediamonds.svg	17	yes	ka	1	1064	6	4	antiphase_hc_sio.wav	1	6	2	noise_calib_stim_LEFT.wav	1	22	blb_dichoticlistening_ka-ka.mp3	ka	ka	0	left
6.6.1	win	2023-06-19	17:50:38	18:02:21	698390	641b1fcd7275677c08982bae	3	1	DL_test	23	DL_test	23	stimuli_target_trianglerectangles.svg	stimuli_distractor_trianglediamonds.svg	17	yes	ka	1	499	6	4	antiphase_hc_sio.wav	1	6	2	noise_calib_stim_LEFT.wav	1	28	blb_dichoticlistening_pa-ka.mp3	pa	ka	1	right
6.6.1	win	2023-06-19	17:50:38	18:02:21	698390	641b1fcd7275677c08982bae	3	1	DL_test	23	DL_test	24	stimuli_target_trianglerectangles.svg	stimuli_distractor_trianglediamonds.svg	17	yes	da	0	1086	6	4	antiphase_hc_sio.wav	1	6	2	noise_calib_stim_LEFT.wav	1	31	blb_dichoticlistening_ta-ba.mp3	ta	ba	1	other
6.6.1	win	2023-06-19	17:50:38	18:02:21	698390	641b1fcd7275677c08982bae	3	1	DL_test	23	DL_test	25	stimuli_target_trianglerectangles.svg	stimuli_distractor_trianglediamonds.svg	17	yes	ga	0	557	6	4	antiphase_hc_sio.wav	1	6	2	noise_calib_stim_LEFT.wav	1	10	blb_dichoticlistening_da-ka.mp3	da	ka	1	other
6.6.1	win	2023-06-19	17:50:38	18:02:21	698390	641b1fcd7275677c08982bae	3	1	DL_test	23	DL_test	26	stimuli_target_trianglerectangles.svg	stimuli_distractor_trianglediamonds.svg	17	yes	da	0	1161	6	4	antiphase_hc_sio.wav	1	6	2	noise_calib_stim_LEFT.wav	1	3	blb_dichoticlistening_ba-ga.mp3	ba	ga	1	other
