build	computer.platform	date	time	timestamp	time_elapsed_ms	subject	group	session	blockcode	blocknum	trialcode	trialnum	stimulus_left	stimulus_right	stim_index	target_present	response	correct	latency	headphonecheck_countTestTrials	headphonecheck_index	headphonecheck_testSound	headphonecheck_correctResponse	stereocheck_countTestTrials	stereocheck_index	stereocheck_testSound	stereocheck_correctResponse	DL_index	DL_soundfile	DL_leftSound	DL_rightSound	DL_dualSound	DL_choice
6.6.1	win	2023-06-13	03:24:38	03:29:28	282615	5e405a1cfce14d29997364da	4	1	practice_z	5	practice_z	1	stimuli_distractor_trianglediamonds.svg	stimuli_target_diamondrectangles.svg	12	yes	44	1	1059	0	0			0	0			1				0	
6.6.1	win	2023-06-13	03:24:38	03:29:28	282615	5e405a1cfce14d29997364da	4	1	practice_z	5	advance_on_keypress_ZEE	2	stimuli_distractor_trianglediamonds.svg	stimuli_target_diamondrectangles.svg	12	yes	57	0	2020	0	0			0	0			1				0	
6.6.1	win	2023-06-13	03:24:38	03:29:33	286974	5e405a1cfce14d29997364da	4	1	practice_z	5	practice_z	3	stimuli_target_diamondsquares.svg	stimuli_distractor_diamondtriangles.svg	3	yes	44	1	676	0	0			0	0			1				0	
6.6.1	win	2023-06-13	03:24:38	03:29:33	286974	5e405a1cfce14d29997364da	4	1	practice_z	5	advance_on_keypress_ZEE	4	stimuli_target_diamondsquares.svg	stimuli_distractor_diamondtriangles.svg	3	yes	57	0	1006	0	0			0	0			1				0	
6.6.1	win	2023-06-13	03:24:38	03:29:36	290125	5e405a1cfce14d29997364da	4	1	practice_z	5	practice_z	5	stimuli_target_diamondsquares.svg	stimuli_distractor_trianglediamonds.svg	6	yes	44	1	500	0	0			0	0			1				0	
6.6.1	win	2023-06-13	03:24:38	03:29:36	290125	5e405a1cfce14d29997364da	4	1	practice_z	5	advance_on_keypress_ZEE	6	stimuli_target_diamondsquares.svg	stimuli_distractor_trianglediamonds.svg	6	yes	57	0	849	0	0			0	0			1				0	
6.6.1	win	2023-06-13	03:24:38	03:29:39	293104	5e405a1cfce14d29997364da	4	1	practice_z	5	practice_z	7	stimuli_target_rectanglediamonds.svg	stimuli_distractor_diamondtriangles.svg	1	yes	44	1	482	0	0			0	0			1				0	
6.6.1	win	2023-06-13	03:24:38	03:29:39	293104	5e405a1cfce14d29997364da	4	1	practice_z	5	advance_on_keypress_ZEE	8	stimuli_target_rectanglediamonds.svg	stimuli_distractor_diamondtriangles.svg	1	yes	57	0	664	0	0			0	0			1				0	
6.6.1	win	2023-06-13	03:24:38	03:29:42	295887	5e405a1cfce14d29997364da	4	1	practice_z	5	practice_z	9	stimuli_distractor_trianglediamonds.svg	stimuli_target_rectanglediamonds.svg	10	yes	44	1	469	0	0			0	0			1				0	
6.6.1	win	2023-06-13	03:24:38	03:29:42	295887	5e405a1cfce14d29997364da	4	1	practice_z	5	advance_on_keypress_ZEE	10	stimuli_distractor_trianglediamonds.svg	stimuli_target_rectanglediamonds.svg	10	yes	57	0	750	0	0			0	0			1				0	
6.6.1	win	2023-06-13	03:24:38	03:29:46	300280	5e405a1cfce14d29997364da	4	1	practice_z	5	practice_z	11	stimuli_distractor_diamondtriangles.svg	stimuli_target_diamondrectangles.svg	8	yes	0	0	2000	0	0			0	0			1				0	
6.6.1	win	2023-06-13	03:24:38	03:29:46	300280	5e405a1cfce14d29997364da	4	1	practice_z	5	advance_on_keypress_ZEE	12	stimuli_distractor_diamondtriangles.svg	stimuli_target_diamondrectangles.svg	8	yes	57	0	779	0	0			0	0			1				0	
6.6.1	win	2023-06-13	03:24:38	03:29:49	303250	5e405a1cfce14d29997364da	4	1	practice_z	5	practice_z	13	stimuli_target_squarediamonds.svg	stimuli_distractor_trianglediamonds.svg	5	yes	44	1	543	0	0			0	0			1				0	
6.6.1	win	2023-06-13	03:24:38	03:29:49	303250	5e405a1cfce14d29997364da	4	1	practice_z	5	advance_on_keypress_ZEE	14	stimuli_target_squarediamonds.svg	stimuli_distractor_trianglediamonds.svg	5	yes	57	0	937	0	0			0	0			1				0	
6.6.1	win	2023-06-13	03:24:38	03:29:52	306335	5e405a1cfce14d29997364da	4	1	practice_z	5	practice_z	15	stimuli_target_rectanglediamonds.svg	stimuli_distractor_trianglediamonds.svg	4	yes	44	1	500	0	0			0	0			1				0	
6.6.1	win	2023-06-13	03:24:38	03:29:52	306335	5e405a1cfce14d29997364da	4	1	practice_z	5	advance_on_keypress_ZEE	16	stimuli_target_rectanglediamonds.svg	stimuli_distractor_trianglediamonds.svg	4	yes	57	0	699	0	0			0	0			1				0	
6.6.1	win	2023-06-13	03:24:38	03:29:55	309125	5e405a1cfce14d29997364da	4	1	practice_z	5	practice_z	17	stimuli_distractor_trianglediamonds.svg	stimuli_distractor_trianglediamonds.svg	15	no	44	0	445	0	0			0	0			1				0	
6.6.1	win	2023-06-13	03:24:38	03:29:55	309125	5e405a1cfce14d29997364da	4	1	practice_z	5	advance_on_keypress_ZEE	18	stimuli_distractor_trianglediamonds.svg	stimuli_distractor_trianglediamonds.svg	15	no	57	0	767	0	0			0	0			1				0	
6.6.1	win	2023-06-13	03:24:38	03:29:58	312095	5e405a1cfce14d29997364da	4	1	practice_z	5	practice_z	19	stimuli_target_squarediamonds.svg	stimuli_distractor_diamondtriangles.svg	2	yes	44	1	552	0	0			0	0			1				0	
6.6.1	win	2023-06-13	03:24:38	03:29:58	312095	5e405a1cfce14d29997364da	4	1	practice_z	5	advance_on_keypress_ZEE	20	stimuli_target_squarediamonds.svg	stimuli_distractor_diamondtriangles.svg	2	yes	57	0	633	0	0			0	0			1				0	
6.6.1	win	2023-06-13	03:24:38	03:30:01	315047	5e405a1cfce14d29997364da	4	1	practice_z	5	practice_z	21	stimuli_distractor_trianglediamonds.svg	stimuli_distractor_diamondtriangles.svg	16	no	44	0	676	0	0			0	0			1				0	
6.6.1	win	2023-06-13	03:24:38	03:30:01	315047	5e405a1cfce14d29997364da	4	1	practice_z	5	advance_on_keypress_ZEE	22	stimuli_distractor_trianglediamonds.svg	stimuli_distractor_diamondtriangles.svg	16	no	57	0	534	0	0			0	0			1				0	
6.6.1	win	2023-06-13	03:24:38	03:30:04	318033	5e405a1cfce14d29997364da	4	1	practice_z	5	practice_z	23	stimuli_distractor_diamondtriangles.svg	stimuli_target_rectangletriangles.svg	7	yes	44	1	799	0	0			0	0			1				0	
6.6.1	win	2023-06-13	03:24:38	03:30:04	318033	5e405a1cfce14d29997364da	4	1	practice_z	5	advance_on_keypress_ZEE	24	stimuli_distractor_diamondtriangles.svg	stimuli_target_rectangletriangles.svg	7	yes	57	0	761	0	0			0	0			1				0	
6.6.1	win	2023-06-13	03:24:38	03:30:07	321525	5e405a1cfce14d29997364da	4	1	practice_z	5	practice_z	25	stimuli_distractor_diamondtriangles.svg	stimuli_distractor_diamondtriangles.svg	13	no	44	0	1081	0	0			0	0			1				0	
6.6.1	win	2023-06-13	03:24:38	03:30:07	321525	5e405a1cfce14d29997364da	4	1	practice_z	5	advance_on_keypress_ZEE	26	stimuli_distractor_diamondtriangles.svg	stimuli_distractor_diamondtriangles.svg	13	no	57	0	747	0	0			0	0			1				0	
6.6.1	win	2023-06-13	03:24:38	03:30:12	325923	5e405a1cfce14d29997364da	4	1	practice_z	5	practice_z	27	stimuli_distractor_diamondtriangles.svg	stimuli_target_trianglerectangles.svg	9	yes	0	0	2000	0	0			0	0			1				0	
6.6.1	win	2023-06-13	03:24:38	03:30:12	325923	5e405a1cfce14d29997364da	4	1	practice_z	5	advance_on_keypress_ZEE	28	stimuli_distractor_diamondtriangles.svg	stimuli_target_trianglerectangles.svg	9	yes	57	0	785	0	0			0	0			1				0	
6.6.1	win	2023-06-13	03:24:38	03:30:15	329462	5e405a1cfce14d29997364da	4	1	practice_z	5	practice_z	29	stimuli_distractor_diamondtriangles.svg	stimuli_distractor_trianglediamonds.svg	14	no	44	0	1112	0	0			0	0			1				0	
6.6.1	win	2023-06-13	03:24:38	03:30:15	329462	5e405a1cfce14d29997364da	4	1	practice_z	5	advance_on_keypress_ZEE	30	stimuli_distractor_diamondtriangles.svg	stimuli_distractor_trianglediamonds.svg	14	no	57	0	808	0	0			0	0			1				0	
6.6.1	win	2023-06-13	03:24:38	03:30:19	333081	5e405a1cfce14d29997364da	4	1	practice_z	5	practice_z	31	stimuli_distractor_trianglediamonds.svg	stimuli_target_squarediamonds.svg	11	yes	44	1	1154	0	0			0	0			1				0	
6.6.1	win	2023-06-13	03:24:38	03:30:19	333081	5e405a1cfce14d29997364da	4	1	practice_z	5	advance_on_keypress_ZEE	32	stimuli_distractor_trianglediamonds.svg	stimuli_target_squarediamonds.svg	11	yes	57	0	932	0	0			0	0			1				0	
6.6.1	win	2023-06-13	03:24:38	03:30:31	345332	5e405a1cfce14d29997364da	4	1	main_z	7	main_z	1	stimuli_distractor_diamondtriangles.svg	stimuli_target_trianglesquares.svg	30	yes	44	1	711	0	0			0	0			1				0	
6.6.1	win	2023-06-13	03:24:38	03:30:31	345332	5e405a1cfce14d29997364da	4	1	main_z	7	advance_on_keypress_ZEE	2	stimuli_distractor_diamondtriangles.svg	stimuli_target_trianglesquares.svg	30	yes	57	0	1460	0	0			0	0			1				0	
6.6.1	win	2023-06-13	03:24:38	03:30:34	348123	5e405a1cfce14d29997364da	4	1	main_z	7	main_z	3	stimuli_distractor_diamondtriangles.svg	stimuli_target_squarediamonds.svg	16	yes	44	1	674	0	0			0	0			1				0	
6.6.1	win	2023-06-13	03:24:38	03:30:34	348123	5e405a1cfce14d29997364da	4	1	main_z	7	advance_on_keypress_ZEE	4	stimuli_distractor_diamondtriangles.svg	stimuli_target_squarediamonds.svg	16	yes	57	0	856	0	0			0	0			1				0	
6.6.1	win	2023-06-13	03:24:38	03:30:36	350318	5e405a1cfce14d29997364da	4	1	main_z	7	main_z	5	stimuli_target_squaretriangles.svg	stimuli_distractor_diamondtriangles.svg	7	yes	44	1	705	0	0			0	0			1				0	
6.6.1	win	2023-06-13	03:24:38	03:30:36	350318	5e405a1cfce14d29997364da	4	1	main_z	7	advance_on_keypress_ZEE	6	stimuli_target_squaretriangles.svg	stimuli_distractor_diamondtriangles.svg	7	yes	57	0	805	0	0			0	0			1				0	
6.6.1	win	2023-06-13	03:24:38	03:30:39	353759	5e405a1cfce14d29997364da	4	1	main_z	7	main_z	7	stimuli_distractor_trianglediamonds.svg	stimuli_target_trianglerectangles.svg	25	yes	0	0	2000	0	0			0	0			1				0	
6.6.1	win	2023-06-13	03:24:38	03:30:39	353759	5e405a1cfce14d29997364da	4	1	main_z	7	advance_on_keypress_ZEE	8	stimuli_distractor_trianglediamonds.svg	stimuli_target_trianglerectangles.svg	25	yes	57	0	1072	0	0			0	0			1				0	
6.6.1	win	2023-06-13	03:24:38	03:30:42	356151	5e405a1cfce14d29997364da	4	1	main_z	7	main_z	9	stimuli_target_diamondsquares.svg	stimuli_distractor_diamondtriangles.svg	24	yes	44	1	680	0	0			0	0			1				0	
6.6.1	win	2023-06-13	03:24:38	03:30:42	356151	5e405a1cfce14d29997364da	4	1	main_z	7	advance_on_keypress_ZEE	10	stimuli_target_diamondsquares.svg	stimuli_distractor_diamondtriangles.svg	24	yes	57	0	1106	0	0			0	0			1				0	
6.6.1	win	2023-06-13	03:24:38	03:30:44	358571	5e405a1cfce14d29997364da	4	1	main_z	7	main_z	11	stimuli_distractor_diamondtriangles.svg	stimuli_distractor_trianglediamonds.svg	37	no	44	0	671	0	0			0	0			1				0	
6.6.1	win	2023-06-13	03:24:38	03:30:44	358571	5e405a1cfce14d29997364da	4	1	main_z	7	advance_on_keypress_ZEE	12	stimuli_distractor_diamondtriangles.svg	stimuli_distractor_trianglediamonds.svg	37	no	57	0	854	0	0			0	0			1				0	
6.6.1	win	2023-06-13	03:24:38	03:30:47	360997	5e405a1cfce14d29997364da	4	1	main_z	7	main_z	13	stimuli_distractor_trianglediamonds.svg	stimuli_target_diamondsquares.svg	28	yes	44	1	933	0	0			0	0			1				0	
6.6.1	win	2023-06-13	03:24:38	03:30:47	360997	5e405a1cfce14d29997364da	4	1	main_z	7	advance_on_keypress_ZEE	14	stimuli_distractor_trianglediamonds.svg	stimuli_target_diamondsquares.svg	28	yes	57	0	760	0	0			0	0			1				0	
6.6.1	win	2023-06-13	03:24:38	03:30:49	363292	5e405a1cfce14d29997364da	4	1	main_z	7	main_z	15	stimuli_distractor_diamondtriangles.svg	stimuli_target_diamondrectangles.svg	31	yes	44	1	882	0	0			0	0			1				0	
6.6.1	win	2023-06-13	03:24:38	03:30:49	363292	5e405a1cfce14d29997364da	4	1	main_z	7	advance_on_keypress_ZEE	16	stimuli_distractor_diamondtriangles.svg	stimuli_target_diamondrectangles.svg	31	yes	57	0	727	0	0			0	0			1				0	
6.6.1	win	2023-06-13	03:24:38	03:30:51	365580	5e405a1cfce14d29997364da	4	1	main_z	7	main_z	17	stimuli_target_diamondsquares.svg	stimuli_distractor_trianglediamonds.svg	20	yes	44	1	908	0	0			0	0			1				0	
6.6.1	win	2023-06-13	03:24:38	03:30:51	365580	5e405a1cfce14d29997364da	4	1	main_z	7	advance_on_keypress_ZEE	18	stimuli_target_diamondsquares.svg	stimuli_distractor_trianglediamonds.svg	20	yes	57	0	718	0	0			0	0			1				0	
6.6.1	win	2023-06-13	03:24:38	03:30:53	367699	5e405a1cfce14d29997364da	4	1	main_z	7	main_z	19	stimuli_target_diamondrectangles.svg	stimuli_distractor_diamondtriangles.svg	23	yes	44	1	762	0	0			0	0			1				0	
6.6.1	win	2023-06-13	03:24:38	03:30:53	367699	5e405a1cfce14d29997364da	4	1	main_z	7	advance_on_keypress_ZEE	20	stimuli_target_diamondrectangles.svg	stimuli_distractor_diamondtriangles.svg	23	yes	57	0	628	0	0			0	0			1				0	
6.6.1	win	2023-06-13	03:24:38	03:30:55	369736	5e405a1cfce14d29997364da	4	1	main_z	7	main_z	21	stimuli_target_squarediamonds.svg	stimuli_distractor_trianglediamonds.svg	4	yes	44	1	754	0	0			0	0			1				0	
6.6.1	win	2023-06-13	03:24:38	03:30:55	369736	5e405a1cfce14d29997364da	4	1	main_z	7	advance_on_keypress_ZEE	22	stimuli_target_squarediamonds.svg	stimuli_distractor_trianglediamonds.svg	4	yes	57	0	585	0	0			0	0			1				0	
6.6.1	win	2023-06-13	03:24:38	03:30:57	371699	5e405a1cfce14d29997364da	4	1	main_z	7	main_z	23	stimuli_distractor_diamondtriangles.svg	stimuli_target_diamondsquares.svg	32	yes	44	1	735	0	0			0	0			1				0	
6.6.1	win	2023-06-13	03:24:38	03:30:57	371699	5e405a1cfce14d29997364da	4	1	main_z	7	advance_on_keypress_ZEE	24	stimuli_distractor_diamondtriangles.svg	stimuli_target_diamondsquares.svg	32	yes	57	0	523	0	0			0	0			1				0	
6.6.1	win	2023-06-13	03:24:38	03:30:59	373667	5e405a1cfce14d29997364da	4	1	main_z	7	main_z	25	stimuli_distractor_diamondtriangles.svg	stimuli_target_rectanglediamonds.svg	14	yes	44	1	807	0	0			0	0			1				0	
6.6.1	win	2023-06-13	03:24:38	03:30:59	373667	5e405a1cfce14d29997364da	4	1	main_z	7	advance_on_keypress_ZEE	26	stimuli_distractor_diamondtriangles.svg	stimuli_target_rectanglediamonds.svg	14	yes	57	0	537	0	0			0	0			1				0	
6.6.1	win	2023-06-13	03:24:38	03:31:03	376840	5e405a1cfce14d29997364da	4	1	main_z	7	main_z	27	stimuli_target_trianglesquares.svg	stimuli_distractor_trianglediamonds.svg	18	yes	0	0	2000	0	0			0	0			1				0	
6.6.1	win	2023-06-13	03:24:38	03:31:03	376840	5e405a1cfce14d29997364da	4	1	main_z	7	advance_on_keypress_ZEE	28	stimuli_target_trianglesquares.svg	stimuli_distractor_trianglediamonds.svg	18	yes	57	0	1647	0	0			0	0			1				0	
6.6.1	win	2023-06-13	03:24:38	03:31:06	379900	5e405a1cfce14d29997364da	4	1	main_z	7	main_z	29	stimuli_target_rectanglediamonds.svg	stimuli_distractor_trianglediamonds.svg	2	yes	44	1	767	0	0			0	0			1				0	
6.6.1	win	2023-06-13	03:24:38	03:31:06	379900	5e405a1cfce14d29997364da	4	1	main_z	7	advance_on_keypress_ZEE	30	stimuli_target_rectanglediamonds.svg	stimuli_distractor_trianglediamonds.svg	2	yes	57	0	658	0	0			0	0			1				0	
6.6.1	win	2023-06-13	03:24:38	03:31:08	381994	5e405a1cfce14d29997364da	4	1	main_z	7	main_z	31	stimuli_distractor_trianglediamonds.svg	stimuli_target_rectangletriangles.svg	9	yes	44	1	797	0	0			0	0			1				0	
6.6.1	win	2023-06-13	03:24:38	03:31:08	381994	5e405a1cfce14d29997364da	4	1	main_z	7	advance_on_keypress_ZEE	32	stimuli_distractor_trianglediamonds.svg	stimuli_target_rectangletriangles.svg	9	yes	57	0	767	0	0			0	0			1				0	
6.6.1	win	2023-06-13	03:24:38	03:31:10	384002	5e405a1cfce14d29997364da	4	1	main_z	7	main_z	33	stimuli_distractor_diamondtriangles.svg	stimuli_distractor_diamondtriangles.svg	39	no	44	0	592	0	0			0	0			1				0	
6.6.1	win	2023-06-13	03:24:38	03:31:10	384002	5e405a1cfce14d29997364da	4	1	main_z	7	advance_on_keypress_ZEE	34	stimuli_distractor_diamondtriangles.svg	stimuli_distractor_diamondtriangles.svg	39	no	57	0	667	0	0			0	0			1				0	
6.6.1	win	2023-06-13	03:24:38	03:31:12	386044	5e405a1cfce14d29997364da	4	1	main_z	7	main_z	35	stimuli_target_rectangletriangles.svg	stimuli_distractor_diamondtriangles.svg	5	yes	44	1	736	0	0			0	0			1				0	
6.6.1	win	2023-06-13	03:24:38	03:31:12	386044	5e405a1cfce14d29997364da	4	1	main_z	7	advance_on_keypress_ZEE	36	stimuli_target_rectangletriangles.svg	stimuli_distractor_diamondtriangles.svg	5	yes	57	0	603	0	0			0	0			1				0	
6.6.1	win	2023-06-13	03:24:38	03:31:14	388093	5e405a1cfce14d29997364da	4	1	main_z	7	main_z	37	stimuli_distractor_trianglediamonds.svg	stimuli_target_squaretriangles.svg	11	yes	44	1	805	0	0			0	0			1				0	
6.6.1	win	2023-06-13	03:24:38	03:31:14	388093	5e405a1cfce14d29997364da	4	1	main_z	7	advance_on_keypress_ZEE	38	stimuli_distractor_trianglediamonds.svg	stimuli_target_squaretriangles.svg	11	yes	57	0	564	0	0			0	0			1				0	
6.6.1	win	2023-06-13	03:24:38	03:31:17	391301	5e405a1cfce14d29997364da	4	1	main_z	7	main_z	39	stimuli_distractor_trianglediamonds.svg	stimuli_distractor_diamondtriangles.svg	35	no	0	1	2000	0	0			0	0			1				0	
6.6.1	win	2023-06-13	03:24:38	03:31:17	391301	5e405a1cfce14d29997364da	4	1	main_z	7	advance_on_keypress_ZEE	40	stimuli_distractor_trianglediamonds.svg	stimuli_distractor_diamondtriangles.svg	35	no	57	0	1186	0	0			0	0			1				0	
6.6.1	win	2023-06-13	03:24:38	03:31:21	395128	5e405a1cfce14d29997364da	4	1	main_z	7	main_z	41	stimuli_target_trianglesquares.svg	stimuli_distractor_diamondtriangles.svg	22	yes	0	0	2000	0	0			0	0			1				0	
6.6.1	win	2023-06-13	03:24:38	03:31:21	395128	5e405a1cfce14d29997364da	4	1	main_z	7	advance_on_keypress_ZEE	42	stimuli_target_trianglesquares.svg	stimuli_distractor_diamondtriangles.svg	22	yes	57	0	797	0	0			0	0			1				0	
6.6.1	win	2023-06-13	03:24:38	03:31:23	397090	5e405a1cfce14d29997364da	4	1	main_z	7	main_z	43	stimuli_distractor_diamondtriangles.svg	stimuli_distractor_diamondtriangles.svg	40	no	44	0	509	0	0			0	0			1				0	
6.6.1	win	2023-06-13	03:24:38	03:31:23	397090	5e405a1cfce14d29997364da	4	1	main_z	7	advance_on_keypress_ZEE	44	stimuli_distractor_diamondtriangles.svg	stimuli_distractor_diamondtriangles.svg	40	no	57	0	681	0	0			0	0			1				0	
6.6.1	win	2023-06-13	03:24:38	03:31:25	399133	5e405a1cfce14d29997364da	4	1	main_z	7	main_z	45	stimuli_distractor_diamondtriangles.svg	stimuli_target_squaretriangles.svg	15	yes	44	1	713	0	0			0	0			1				0	
6.6.1	win	2023-06-13	03:24:38	03:31:25	399133	5e405a1cfce14d29997364da	4	1	main_z	7	advance_on_keypress_ZEE	46	stimuli_distractor_diamondtriangles.svg	stimuli_target_squaretriangles.svg	15	yes	57	0	643	0	0			0	0			1				0	
6.6.1	win	2023-06-13	03:24:38	03:31:27	401099	5e405a1cfce14d29997364da	4	1	main_z	7	main_z	47	stimuli_distractor_trianglediamonds.svg	stimuli_target_rectanglediamonds.svg	10	yes	44	1	681	0	0			0	0			1				0	
6.6.1	win	2023-06-13	03:24:38	03:31:27	401099	5e405a1cfce14d29997364da	4	1	main_z	7	advance_on_keypress_ZEE	48	stimuli_distractor_trianglediamonds.svg	stimuli_target_rectanglediamonds.svg	10	yes	57	0	552	0	0			0	0			1				0	
6.6.1	win	2023-06-13	03:24:38	03:31:29	403059	5e405a1cfce14d29997364da	4	1	main_z	7	main_z	49	stimuli_distractor_diamondtriangles.svg	stimuli_distractor_trianglediamonds.svg	38	no	44	0	761	0	0			0	0			1				0	
6.6.1	win	2023-06-13	03:24:38	03:31:29	403059	5e405a1cfce14d29997364da	4	1	main_z	7	advance_on_keypress_ZEE	50	stimuli_distractor_diamondtriangles.svg	stimuli_distractor_trianglediamonds.svg	38	no	57	0	652	0	0			0	0			1				0	
6.6.1	win	2023-06-13	03:24:38	03:31:32	406361	5e405a1cfce14d29997364da	4	1	main_z	7	main_z	51	stimuli_target_diamondrectangles.svg	stimuli_distractor_trianglediamonds.svg	19	yes	0	0	2000	0	0			0	0			1				0	
6.6.1	win	2023-06-13	03:24:38	03:31:32	406361	5e405a1cfce14d29997364da	4	1	main_z	7	advance_on_keypress_ZEE	52	stimuli_target_diamondrectangles.svg	stimuli_distractor_trianglediamonds.svg	19	yes	57	0	855	0	0			0	0			1				0	
6.6.1	win	2023-06-13	03:24:38	03:31:34	408570	5e405a1cfce14d29997364da	4	1	main_z	7	main_z	53	stimuli_distractor_diamondtriangles.svg	stimuli_target_rectangletriangles.svg	13	yes	44	1	714	0	0			0	0			1				0	
6.6.1	win	2023-06-13	03:24:38	03:31:34	408570	5e405a1cfce14d29997364da	4	1	main_z	7	advance_on_keypress_ZEE	54	stimuli_distractor_diamondtriangles.svg	stimuli_target_rectangletriangles.svg	13	yes	57	0	575	0	0			0	0			1				0	
6.6.1	win	2023-06-13	03:24:38	03:31:37	411786	5e405a1cfce14d29997364da	4	1	main_z	7	main_z	55	stimuli_target_trianglerectangles.svg	stimuli_distractor_trianglediamonds.svg	17	yes	0	0	2000	0	0			0	0			1				0	
6.6.1	win	2023-06-13	03:24:38	03:31:37	411786	5e405a1cfce14d29997364da	4	1	main_z	7	advance_on_keypress_ZEE	56	stimuli_target_trianglerectangles.svg	stimuli_distractor_trianglediamonds.svg	17	yes	57	0	916	0	0			0	0			1				0	
6.6.1	win	2023-06-13	03:24:38	03:31:40	414075	5e405a1cfce14d29997364da	4	1	main_z	7	main_z	57	stimuli_target_rectanglediamonds.svg	stimuli_distractor_diamondtriangles.svg	6	yes	44	1	728	0	0			0	0			1				0	
6.6.1	win	2023-06-13	03:24:38	03:31:40	414075	5e405a1cfce14d29997364da	4	1	main_z	7	advance_on_keypress_ZEE	58	stimuli_target_rectanglediamonds.svg	stimuli_distractor_diamondtriangles.svg	6	yes	57	0	597	0	0			0	0			1				0	
6.6.1	win	2023-06-13	03:24:38	03:31:42	415963	5e405a1cfce14d29997364da	4	1	main_z	7	main_z	59	stimuli_target_squarediamonds.svg	stimuli_distractor_diamondtriangles.svg	8	yes	44	1	635	0	0			0	0			1				0	
6.6.1	win	2023-06-13	03:24:38	03:31:42	415963	5e405a1cfce14d29997364da	4	1	main_z	7	advance_on_keypress_ZEE	60	stimuli_target_squarediamonds.svg	stimuli_distractor_diamondtriangles.svg	8	yes	57	0	659	0	0			0	0			1				0	
6.6.1	win	2023-06-13	03:24:38	03:31:45	419258	5e405a1cfce14d29997364da	4	1	main_z	7	main_z	61	stimuli_distractor_trianglediamonds.svg	stimuli_distractor_trianglediamonds.svg	34	no	0	1	2000	0	0			0	0			1				0	
6.6.1	win	2023-06-13	03:24:38	03:31:45	419258	5e405a1cfce14d29997364da	4	1	main_z	7	advance_on_keypress_ZEE	62	stimuli_distractor_trianglediamonds.svg	stimuli_distractor_trianglediamonds.svg	34	no	57	0	675	0	0			0	0			1				0	
6.6.1	win	2023-06-13	03:24:38	03:31:47	421290	5e405a1cfce14d29997364da	4	1	main_z	7	main_z	63	stimuli_distractor_trianglediamonds.svg	stimuli_target_squarediamonds.svg	12	yes	44	1	721	0	0			0	0			1				0	
6.6.1	win	2023-06-13	03:24:38	03:31:47	421290	5e405a1cfce14d29997364da	4	1	main_z	7	advance_on_keypress_ZEE	64	stimuli_distractor_trianglediamonds.svg	stimuli_target_squarediamonds.svg	12	yes	57	0	608	0	0			0	0			1				0	
6.6.1	win	2023-06-13	03:24:38	03:31:49	423251	5e405a1cfce14d29997364da	4	1	main_z	7	main_z	65	stimuli_target_rectangletriangles.svg	stimuli_distractor_trianglediamonds.svg	1	yes	44	1	718	0	0			0	0			1				0	
6.6.1	win	2023-06-13	03:24:38	03:31:49	423251	5e405a1cfce14d29997364da	4	1	main_z	7	advance_on_keypress_ZEE	66	stimuli_target_rectangletriangles.svg	stimuli_distractor_trianglediamonds.svg	1	yes	57	0	705	0	0			0	0			1				0	
6.6.1	win	2023-06-13	03:24:38	03:31:52	426597	5e405a1cfce14d29997364da	4	1	main_z	7	main_z	67	stimuli_distractor_trianglediamonds.svg	stimuli_distractor_diamondtriangles.svg	36	no	0	1	2000	0	0			0	0			1				0	
6.6.1	win	2023-06-13	03:24:38	03:31:52	426597	5e405a1cfce14d29997364da	4	1	main_z	7	advance_on_keypress_ZEE	68	stimuli_distractor_trianglediamonds.svg	stimuli_distractor_diamondtriangles.svg	36	no	57	0	795	0	0			0	0			1				0	
6.6.1	win	2023-06-13	03:24:38	03:31:54	428626	5e405a1cfce14d29997364da	4	1	main_z	7	main_z	69	stimuli_target_squaretriangles.svg	stimuli_distractor_trianglediamonds.svg	3	yes	44	1	585	0	0			0	0			1				0	
6.6.1	win	2023-06-13	03:24:38	03:31:54	428626	5e405a1cfce14d29997364da	4	1	main_z	7	advance_on_keypress_ZEE	70	stimuli_target_squaretriangles.svg	stimuli_distractor_trianglediamonds.svg	3	yes	57	0	628	0	0			0	0			1				0	
6.6.1	win	2023-06-13	03:24:38	03:31:58	431905	5e405a1cfce14d29997364da	4	1	main_z	7	main_z	71	stimuli_distractor_trianglediamonds.svg	stimuli_target_diamondrectangles.svg	27	yes	0	0	2000	0	0			0	0			1				0	
6.6.1	win	2023-06-13	03:24:38	03:31:58	431905	5e405a1cfce14d29997364da	4	1	main_z	7	advance_on_keypress_ZEE	72	stimuli_distractor_trianglediamonds.svg	stimuli_target_diamondrectangles.svg	27	yes	57	0	754	0	0			0	0			1				0	
6.6.1	win	2023-06-13	03:24:38	03:32:00	433882	5e405a1cfce14d29997364da	4	1	main_z	7	main_z	73	stimuli_distractor_diamondtriangles.svg	stimuli_target_trianglerectangles.svg	29	yes	44	1	583	0	0			0	0			1				0	
6.6.1	win	2023-06-13	03:24:38	03:32:00	433882	5e405a1cfce14d29997364da	4	1	main_z	7	advance_on_keypress_ZEE	74	stimuli_distractor_diamondtriangles.svg	stimuli_target_trianglerectangles.svg	29	yes	57	0	722	0	0			0	0			1				0	
6.6.1	win	2023-06-13	03:24:38	03:32:03	437246	5e405a1cfce14d29997364da	4	1	main_z	7	main_z	75	stimuli_target_trianglerectangles.svg	stimuli_distractor_diamondtriangles.svg	21	yes	0	0	2000	0	0			0	0			1				0	
6.6.1	win	2023-06-13	03:24:38	03:32:03	437246	5e405a1cfce14d29997364da	4	1	main_z	7	advance_on_keypress_ZEE	76	stimuli_target_trianglerectangles.svg	stimuli_distractor_diamondtriangles.svg	21	yes	57	0	1393	0	0			0	0			1				0	
6.6.1	win	2023-06-13	03:24:38	03:32:07	441291	5e405a1cfce14d29997364da	4	1	main_z	7	main_z	77	stimuli_distractor_trianglediamonds.svg	stimuli_target_trianglesquares.svg	26	yes	0	0	2000	0	0			0	0			1				0	
6.6.1	win	2023-06-13	03:24:38	03:32:07	441291	5e405a1cfce14d29997364da	4	1	main_z	7	advance_on_keypress_ZEE	78	stimuli_distractor_trianglediamonds.svg	stimuli_target_trianglesquares.svg	26	yes	57	0	742	0	0			0	0			1				0	
6.6.1	win	2023-06-13	03:24:38	03:32:09	443234	5e405a1cfce14d29997364da	4	1	main_z	7	main_z	79	stimuli_distractor_trianglediamonds.svg	stimuli_distractor_trianglediamonds.svg	33	no	44	0	566	0	0			0	0			1				0	
6.6.1	win	2023-06-13	03:24:38	03:32:09	443234	5e405a1cfce14d29997364da	4	1	main_z	7	advance_on_keypress_ZEE	80	stimuli_distractor_trianglediamonds.svg	stimuli_distractor_trianglediamonds.svg	33	no	57	0	680	0	0			0	0			1				0	
6.6.1	win	2023-06-13	03:24:38	03:32:11	445346	5e405a1cfce14d29997364da	4	1	main_z	7	main_z	81	stimuli_distractor_diamondtriangles.svg	stimuli_distractor_trianglediamonds.svg	38	no	44	0	780	0	0			0	0			1				0	
6.6.1	win	2023-06-13	03:24:38	03:32:11	445346	5e405a1cfce14d29997364da	4	1	main_z	7	advance_on_keypress_ZEE	82	stimuli_distractor_diamondtriangles.svg	stimuli_distractor_trianglediamonds.svg	38	no	57	0	599	0	0			0	0			1				0	
6.6.1	win	2023-06-13	03:24:38	03:32:13	447441	5e405a1cfce14d29997364da	4	1	main_z	7	main_z	83	stimuli_target_squarediamonds.svg	stimuli_distractor_diamondtriangles.svg	8	yes	44	1	846	0	0			0	0			1				0	
6.6.1	win	2023-06-13	03:24:38	03:32:13	447441	5e405a1cfce14d29997364da	4	1	main_z	7	advance_on_keypress_ZEE	84	stimuli_target_squarediamonds.svg	stimuli_distractor_diamondtriangles.svg	8	yes	57	0	606	0	0			0	0			1				0	
6.6.1	win	2023-06-13	03:24:38	03:32:15	449441	5e405a1cfce14d29997364da	4	1	main_z	7	main_z	85	stimuli_target_squaretriangles.svg	stimuli_distractor_trianglediamonds.svg	3	yes	44	1	749	0	0			0	0			1				0	
6.6.1	win	2023-06-13	03:24:38	03:32:15	449441	5e405a1cfce14d29997364da	4	1	main_z	7	advance_on_keypress_ZEE	86	stimuli_target_squaretriangles.svg	stimuli_distractor_trianglediamonds.svg	3	yes	57	0	561	0	0			0	0			1				0	
6.6.1	win	2023-06-13	03:24:38	03:32:17	451306	5e405a1cfce14d29997364da	4	1	main_z	7	main_z	87	stimuli_distractor_diamondtriangles.svg	stimuli_target_rectanglediamonds.svg	14	yes	44	1	650	0	0			0	0			1				0	
6.6.1	win	2023-06-13	03:24:38	03:32:17	451306	5e405a1cfce14d29997364da	4	1	main_z	7	advance_on_keypress_ZEE	88	stimuli_distractor_diamondtriangles.svg	stimuli_target_rectanglediamonds.svg	14	yes	57	0	641	0	0			0	0			1				0	
6.6.1	win	2023-06-13	03:24:38	03:32:19	453283	5e405a1cfce14d29997364da	4	1	main_z	7	main_z	89	stimuli_distractor_trianglediamonds.svg	stimuli_target_squarediamonds.svg	12	yes	44	1	696	0	0			0	0			1				0	
6.6.1	win	2023-06-13	03:24:38	03:32:19	453283	5e405a1cfce14d29997364da	4	1	main_z	7	advance_on_keypress_ZEE	90	stimuli_distractor_trianglediamonds.svg	stimuli_target_squarediamonds.svg	12	yes	57	0	524	0	0			0	0			1				0	
6.6.1	win	2023-06-13	03:24:38	03:32:22	456450	5e405a1cfce14d29997364da	4	1	main_z	7	main_z	91	stimuli_target_diamondrectangles.svg	stimuli_distractor_diamondtriangles.svg	23	yes	0	0	2000	0	0			0	0			1				0	
6.6.1	win	2023-06-13	03:24:38	03:32:22	456450	5e405a1cfce14d29997364da	4	1	main_z	7	advance_on_keypress_ZEE	92	stimuli_target_diamondrectangles.svg	stimuli_distractor_diamondtriangles.svg	23	yes	57	0	741	0	0			0	0			1				0	
6.6.1	win	2023-06-13	03:24:38	03:32:25	458890	5e405a1cfce14d29997364da	4	1	main_z	7	main_z	93	stimuli_target_squarediamonds.svg	stimuli_distractor_trianglediamonds.svg	4	yes	44	1	1061	0	0			0	0			1				0	
6.6.1	win	2023-06-13	03:24:38	03:32:25	458890	5e405a1cfce14d29997364da	4	1	main_z	7	advance_on_keypress_ZEE	94	stimuli_target_squarediamonds.svg	stimuli_distractor_trianglediamonds.svg	4	yes	57	0	527	0	0			0	0			1				0	
6.6.1	win	2023-06-13	03:24:38	03:32:28	462058	5e405a1cfce14d29997364da	4	1	main_z	7	main_z	95	stimuli_distractor_diamondtriangles.svg	stimuli_target_squaretriangles.svg	15	yes	0	0	2000	0	0			0	0			1				0	
6.6.1	win	2023-06-13	03:24:38	03:32:28	462058	5e405a1cfce14d29997364da	4	1	main_z	7	advance_on_keypress_ZEE	96	stimuli_distractor_diamondtriangles.svg	stimuli_target_squaretriangles.svg	15	yes	57	0	1028	0	0			0	0			1				0	
6.6.1	win	2023-06-13	03:24:38	03:32:30	464369	5e405a1cfce14d29997364da	4	1	main_z	7	main_z	97	stimuli_target_rectanglediamonds.svg	stimuli_distractor_diamondtriangles.svg	6	yes	44	1	634	0	0			0	0			1				0	
6.6.1	win	2023-06-13	03:24:38	03:32:30	464369	5e405a1cfce14d29997364da	4	1	main_z	7	advance_on_keypress_ZEE	98	stimuli_target_rectanglediamonds.svg	stimuli_distractor_diamondtriangles.svg	6	yes	57	0	605	0	0			0	0			1				0	
6.6.1	win	2023-06-13	03:24:38	03:32:33	467616	5e405a1cfce14d29997364da	4	1	main_z	7	main_z	99	stimuli_distractor_diamondtriangles.svg	stimuli_target_diamondsquares.svg	32	yes	0	0	2000	0	0			0	0			1				0	
6.6.1	win	2023-06-13	03:24:38	03:32:33	467616	5e405a1cfce14d29997364da	4	1	main_z	7	advance_on_keypress_ZEE	100	stimuli_distractor_diamondtriangles.svg	stimuli_target_diamondsquares.svg	32	yes	57	0	831	0	0			0	0			1				0	
6.6.1	win	2023-06-13	03:24:38	03:32:37	471094	5e405a1cfce14d29997364da	4	1	main_z	7	main_z	101	stimuli_distractor_diamondtriangles.svg	stimuli_target_diamondrectangles.svg	31	yes	0	0	2000	0	0			0	0			1				0	
6.6.1	win	2023-06-13	03:24:38	03:32:37	471094	5e405a1cfce14d29997364da	4	1	main_z	7	advance_on_keypress_ZEE	102	stimuli_distractor_diamondtriangles.svg	stimuli_target_diamondrectangles.svg	31	yes	57	0	655	0	0			0	0			1				0	
6.6.1	win	2023-06-13	03:24:38	03:32:40	474388	5e405a1cfce14d29997364da	4	1	main_z	7	main_z	103	stimuli_distractor_trianglediamonds.svg	stimuli_distractor_trianglediamonds.svg	34	no	0	1	2000	0	0			0	0			1				0	
6.6.1	win	2023-06-13	03:24:38	03:32:40	474388	5e405a1cfce14d29997364da	4	1	main_z	7	advance_on_keypress_ZEE	104	stimuli_distractor_trianglediamonds.svg	stimuli_distractor_trianglediamonds.svg	34	no	57	0	561	0	0			0	0			1				0	
6.6.1	win	2023-06-13	03:24:38	03:32:42	476305	5e405a1cfce14d29997364da	4	1	main_z	7	main_z	105	stimuli_target_squaretriangles.svg	stimuli_distractor_diamondtriangles.svg	7	yes	44	1	705	0	0			0	0			1				0	
6.6.1	win	2023-06-13	03:24:38	03:32:42	476305	5e405a1cfce14d29997364da	4	1	main_z	7	advance_on_keypress_ZEE	106	stimuli_target_squaretriangles.svg	stimuli_distractor_diamondtriangles.svg	7	yes	57	0	630	0	0			0	0			1				0	
6.6.1	win	2023-06-13	03:24:38	03:32:44	478338	5e405a1cfce14d29997364da	4	1	main_z	7	main_z	107	stimuli_target_rectanglediamonds.svg	stimuli_distractor_trianglediamonds.svg	2	yes	44	1	758	0	0			0	0			1				0	
6.6.1	win	2023-06-13	03:24:38	03:32:44	478338	5e405a1cfce14d29997364da	4	1	main_z	7	advance_on_keypress_ZEE	108	stimuli_target_rectanglediamonds.svg	stimuli_distractor_trianglediamonds.svg	2	yes	57	0	599	0	0			0	0			1				0	
6.6.1	win	2023-06-13	03:24:38	03:32:46	480170	5e405a1cfce14d29997364da	4	1	main_z	7	main_z	109	stimuli_target_diamondrectangles.svg	stimuli_distractor_trianglediamonds.svg	19	yes	44	1	593	0	0			0	0			1				0	
6.6.1	win	2023-06-13	03:24:38	03:32:46	480170	5e405a1cfce14d29997364da	4	1	main_z	7	advance_on_keypress_ZEE	110	stimuli_target_diamondrectangles.svg	stimuli_distractor_trianglediamonds.svg	19	yes	57	0	577	0	0			0	0			1				0	
6.6.1	win	2023-06-13	03:24:38	03:32:48	482051	5e405a1cfce14d29997364da	4	1	main_z	7	main_z	111	stimuli_distractor_diamondtriangles.svg	stimuli_target_trianglerectangles.svg	29	yes	44	1	659	0	0			0	0			1				0	
6.6.1	win	2023-06-13	03:24:38	03:32:48	482051	5e405a1cfce14d29997364da	4	1	main_z	7	advance_on_keypress_ZEE	112	stimuli_distractor_diamondtriangles.svg	stimuli_target_trianglerectangles.svg	29	yes	57	0	513	0	0			0	0			1				0	
6.6.1	win	2023-06-13	03:24:38	03:32:50	484151	5e405a1cfce14d29997364da	4	1	main_z	7	main_z	113	stimuli_distractor_trianglediamonds.svg	stimuli_distractor_diamondtriangles.svg	35	no	44	0	929	0	0			0	0			1				0	
6.6.1	win	2023-06-13	03:24:38	03:32:50	484151	5e405a1cfce14d29997364da	4	1	main_z	7	advance_on_keypress_ZEE	114	stimuli_distractor_trianglediamonds.svg	stimuli_distractor_diamondtriangles.svg	35	no	57	0	520	0	0			0	0			1				0	
6.6.1	win	2023-06-13	03:24:38	03:32:53	487318	5e405a1cfce14d29997364da	4	1	main_z	7	main_z	115	stimuli_distractor_diamondtriangles.svg	stimuli_distractor_diamondtriangles.svg	39	no	0	1	2000	0	0			0	0			1				0	
6.6.1	win	2023-06-13	03:24:38	03:32:53	487318	5e405a1cfce14d29997364da	4	1	main_z	7	advance_on_keypress_ZEE	116	stimuli_distractor_diamondtriangles.svg	stimuli_distractor_diamondtriangles.svg	39	no	57	0	639	0	0			0	0			1				0	
6.6.1	win	2023-06-13	03:24:38	03:32:56	489953	5e405a1cfce14d29997364da	4	1	main_z	7	main_z	117	stimuli_distractor_trianglediamonds.svg	stimuli_target_diamondrectangles.svg	27	yes	44	1	1357	0	0			0	0			1				0	
6.6.1	win	2023-06-13	03:24:38	03:32:56	489953	5e405a1cfce14d29997364da	4	1	main_z	7	advance_on_keypress_ZEE	118	stimuli_distractor_trianglediamonds.svg	stimuli_target_diamondrectangles.svg	27	yes	57	0	697	0	0			0	0			1				0	
6.6.1	win	2023-06-13	03:24:38	03:32:58	492064	5e405a1cfce14d29997364da	4	1	main_z	7	main_z	119	stimuli_distractor_trianglediamonds.svg	stimuli_target_squaretriangles.svg	11	yes	44	1	772	0	0			0	0			1				0	
6.6.1	win	2023-06-13	03:24:38	03:32:58	492064	5e405a1cfce14d29997364da	4	1	main_z	7	advance_on_keypress_ZEE	120	stimuli_distractor_trianglediamonds.svg	stimuli_target_squaretriangles.svg	11	yes	57	0	627	0	0			0	0			1				0	
6.6.1	win	2023-06-13	03:24:38	03:33:00	493986	5e405a1cfce14d29997364da	4	1	main_z	7	main_z	121	stimuli_distractor_diamondtriangles.svg	stimuli_target_squarediamonds.svg	16	yes	44	1	663	0	0			0	0			1				0	
6.6.1	win	2023-06-13	03:24:38	03:33:00	493986	5e405a1cfce14d29997364da	4	1	main_z	7	advance_on_keypress_ZEE	122	stimuli_distractor_diamondtriangles.svg	stimuli_target_squarediamonds.svg	16	yes	57	0	652	0	0			0	0			1				0	
6.6.1	win	2023-06-13	03:24:38	03:33:02	496457	5e405a1cfce14d29997364da	4	1	main_z	7	main_z	123	stimuli_target_trianglesquares.svg	stimuli_distractor_trianglediamonds.svg	18	yes	44	1	1170	0	0			0	0			1				0	
6.6.1	win	2023-06-13	03:24:38	03:33:02	496457	5e405a1cfce14d29997364da	4	1	main_z	7	advance_on_keypress_ZEE	124	stimuli_target_trianglesquares.svg	stimuli_distractor_trianglediamonds.svg	18	yes	57	0	567	0	0			0	0			1				0	
6.6.1	win	2023-06-13	03:24:38	03:33:04	498369	5e405a1cfce14d29997364da	4	1	main_z	7	main_z	125	stimuli_target_rectangletriangles.svg	stimuli_distractor_trianglediamonds.svg	1	yes	44	1	703	0	0			0	0			1				0	
6.6.1	win	2023-06-13	03:24:38	03:33:04	498369	5e405a1cfce14d29997364da	4	1	main_z	7	advance_on_keypress_ZEE	126	stimuli_target_rectangletriangles.svg	stimuli_distractor_trianglediamonds.svg	1	yes	57	0	637	0	0			0	0			1				0	
6.6.1	win	2023-06-13	03:24:38	03:33:06	500306	5e405a1cfce14d29997364da	4	1	main_z	7	main_z	127	stimuli_distractor_trianglediamonds.svg	stimuli_target_diamondsquares.svg	28	yes	44	1	660	0	0			0	0			1				0	
6.6.1	win	2023-06-13	03:24:38	03:33:06	500306	5e405a1cfce14d29997364da	4	1	main_z	7	advance_on_keypress_ZEE	128	stimuli_distractor_trianglediamonds.svg	stimuli_target_diamondsquares.svg	28	yes	57	0	586	0	0			0	0			1				0	
6.6.1	win	2023-06-13	03:24:38	03:33:09	503543	5e405a1cfce14d29997364da	4	1	main_z	7	main_z	129	stimuli_distractor_diamondtriangles.svg	stimuli_distractor_trianglediamonds.svg	37	no	0	1	2000	0	0			0	0			1				0	
6.6.1	win	2023-06-13	03:24:38	03:33:09	503543	5e405a1cfce14d29997364da	4	1	main_z	7	advance_on_keypress_ZEE	130	stimuli_distractor_diamondtriangles.svg	stimuli_distractor_trianglediamonds.svg	37	no	57	0	719	0	0			0	0			1				0	
6.6.1	win	2023-06-13	03:24:38	03:33:13	506905	5e405a1cfce14d29997364da	4	1	main_z	7	main_z	131	stimuli_distractor_trianglediamonds.svg	stimuli_distractor_diamondtriangles.svg	36	no	0	1	2000	0	0			0	0			1				0	
6.6.1	win	2023-06-13	03:24:38	03:33:13	506905	5e405a1cfce14d29997364da	4	1	main_z	7	advance_on_keypress_ZEE	132	stimuli_distractor_trianglediamonds.svg	stimuli_distractor_diamondtriangles.svg	36	no	57	0	788	0	0			0	0			1				0	
6.6.1	win	2023-06-13	03:24:38	03:33:15	509234	5e405a1cfce14d29997364da	4	1	main_z	7	main_z	133	stimuli_distractor_diamondtriangles.svg	stimuli_target_rectangletriangles.svg	13	yes	44	1	901	0	0			0	0			1				0	
6.6.1	win	2023-06-13	03:24:38	03:33:15	509234	5e405a1cfce14d29997364da	4	1	main_z	7	advance_on_keypress_ZEE	134	stimuli_distractor_diamondtriangles.svg	stimuli_target_rectangletriangles.svg	13	yes	57	0	842	0	0			0	0			1				0	
6.6.1	win	2023-06-13	03:24:38	03:33:18	512712	5e405a1cfce14d29997364da	4	1	main_z	7	main_z	135	stimuli_distractor_trianglediamonds.svg	stimuli_target_trianglerectangles.svg	25	yes	0	0	2000	0	0			0	0			1				0	
6.6.1	win	2023-06-13	03:24:38	03:33:18	512712	5e405a1cfce14d29997364da	4	1	main_z	7	advance_on_keypress_ZEE	136	stimuli_distractor_trianglediamonds.svg	stimuli_target_trianglerectangles.svg	25	yes	57	0	861	0	0			0	0			1				0	
6.6.1	win	2023-06-13	03:24:38	03:33:21	514985	5e405a1cfce14d29997364da	4	1	main_z	7	main_z	137	stimuli_distractor_diamondtriangles.svg	stimuli_distractor_diamondtriangles.svg	40	no	44	0	762	0	0			0	0			1				0	
6.6.1	win	2023-06-13	03:24:38	03:33:21	514985	5e405a1cfce14d29997364da	4	1	main_z	7	advance_on_keypress_ZEE	138	stimuli_distractor_diamondtriangles.svg	stimuli_distractor_diamondtriangles.svg	40	no	57	0	541	0	0			0	0			1				0	
6.6.1	win	2023-06-13	03:24:38	03:33:24	518171	5e405a1cfce14d29997364da	4	1	main_z	7	main_z	139	stimuli_target_trianglerectangles.svg	stimuli_distractor_diamondtriangles.svg	21	yes	0	0	2000	0	0			0	0			1				0	
6.6.1	win	2023-06-13	03:24:38	03:33:24	518171	5e405a1cfce14d29997364da	4	1	main_z	7	advance_on_keypress_ZEE	140	stimuli_target_trianglerectangles.svg	stimuli_distractor_diamondtriangles.svg	21	yes	57	0	689	0	0			0	0			1				0	
6.6.1	win	2023-06-13	03:24:38	03:33:27	521499	5e405a1cfce14d29997364da	4	1	main_z	7	main_z	141	stimuli_distractor_diamondtriangles.svg	stimuli_target_trianglesquares.svg	30	yes	0	0	2000	0	0			0	0			1				0	
6.6.1	win	2023-06-13	03:24:38	03:33:27	521499	5e405a1cfce14d29997364da	4	1	main_z	7	advance_on_keypress_ZEE	142	stimuli_distractor_diamondtriangles.svg	stimuli_target_trianglesquares.svg	30	yes	57	0	786	0	0			0	0			1				0	
6.6.1	win	2023-06-13	03:24:38	03:33:30	523969	5e405a1cfce14d29997364da	4	1	main_z	7	main_z	143	stimuli_target_diamondsquares.svg	stimuli_distractor_diamondtriangles.svg	24	yes	44	1	1043	0	0			0	0			1				0	
6.6.1	win	2023-06-13	03:24:38	03:33:30	523969	5e405a1cfce14d29997364da	4	1	main_z	7	advance_on_keypress_ZEE	144	stimuli_target_diamondsquares.svg	stimuli_distractor_diamondtriangles.svg	24	yes	57	0	594	0	0			0	0			1				0	
6.6.1	win	2023-06-13	03:24:38	03:33:33	527224	5e405a1cfce14d29997364da	4	1	main_z	7	main_z	145	stimuli_target_trianglerectangles.svg	stimuli_distractor_trianglediamonds.svg	17	yes	0	0	2000	0	0			0	0			1				0	
6.6.1	win	2023-06-13	03:24:38	03:33:33	527224	5e405a1cfce14d29997364da	4	1	main_z	7	advance_on_keypress_ZEE	146	stimuli_target_trianglerectangles.svg	stimuli_distractor_trianglediamonds.svg	17	yes	57	0	679	0	0			0	0			1				0	
6.6.1	win	2023-06-13	03:24:38	03:33:35	529257	5e405a1cfce14d29997364da	4	1	main_z	7	main_z	147	stimuli_target_rectangletriangles.svg	stimuli_distractor_diamondtriangles.svg	5	yes	44	1	706	0	0			0	0			1				0	
6.6.1	win	2023-06-13	03:24:38	03:33:35	529257	5e405a1cfce14d29997364da	4	1	main_z	7	advance_on_keypress_ZEE	148	stimuli_target_rectangletriangles.svg	stimuli_distractor_diamondtriangles.svg	5	yes	57	0	646	0	0			0	0			1				0	
6.6.1	win	2023-06-13	03:24:38	03:33:37	531241	5e405a1cfce14d29997364da	4	1	main_z	7	main_z	149	stimuli_target_diamondsquares.svg	stimuli_distractor_trianglediamonds.svg	20	yes	44	1	692	0	0			0	0			1				0	
6.6.1	win	2023-06-13	03:24:38	03:33:37	531241	5e405a1cfce14d29997364da	4	1	main_z	7	advance_on_keypress_ZEE	150	stimuli_target_diamondsquares.svg	stimuli_distractor_trianglediamonds.svg	20	yes	57	0	510	0	0			0	0			1				0	
6.6.1	win	2023-06-13	03:24:38	03:33:40	534379	5e405a1cfce14d29997364da	4	1	main_z	7	main_z	151	stimuli_distractor_trianglediamonds.svg	stimuli_target_trianglesquares.svg	26	yes	0	0	2000	0	0			0	0			1				0	
6.6.1	win	2023-06-13	03:24:38	03:33:40	534379	5e405a1cfce14d29997364da	4	1	main_z	7	advance_on_keypress_ZEE	152	stimuli_distractor_trianglediamonds.svg	stimuli_target_trianglesquares.svg	26	yes	57	0	626	0	0			0	0			1				0	
6.6.1	win	2023-06-13	03:24:38	03:33:43	537640	5e405a1cfce14d29997364da	4	1	main_z	7	main_z	153	stimuli_distractor_trianglediamonds.svg	stimuli_distractor_trianglediamonds.svg	33	no	0	1	2000	0	0			0	0			1				0	
6.6.1	win	2023-06-13	03:24:38	03:33:43	537640	5e405a1cfce14d29997364da	4	1	main_z	7	advance_on_keypress_ZEE	154	stimuli_distractor_trianglediamonds.svg	stimuli_distractor_trianglediamonds.svg	33	no	57	0	1155	0	0			0	0			1				0	
6.6.1	win	2023-06-13	03:24:38	03:33:47	541435	5e405a1cfce14d29997364da	4	1	main_z	7	main_z	155	stimuli_distractor_trianglediamonds.svg	stimuli_target_rectanglediamonds.svg	10	yes	0	0	2000	0	0			0	0			1				0	
6.6.1	win	2023-06-13	03:24:38	03:33:47	541435	5e405a1cfce14d29997364da	4	1	main_z	7	advance_on_keypress_ZEE	156	stimuli_distractor_trianglediamonds.svg	stimuli_target_rectanglediamonds.svg	10	yes	57	0	825	0	0			0	0			1				0	
6.6.1	win	2023-06-13	03:24:38	03:33:51	544896	5e405a1cfce14d29997364da	4	1	main_z	7	main_z	157	stimuli_target_trianglesquares.svg	stimuli_distractor_diamondtriangles.svg	22	yes	0	0	2000	0	0			0	0			1				0	
6.6.1	win	2023-06-13	03:24:38	03:33:51	544896	5e405a1cfce14d29997364da	4	1	main_z	7	advance_on_keypress_ZEE	158	stimuli_target_trianglesquares.svg	stimuli_distractor_diamondtriangles.svg	22	yes	57	0	717	0	0			0	0			1				0	
6.6.1	win	2023-06-13	03:24:38	03:33:52	546774	5e405a1cfce14d29997364da	4	1	main_z	7	main_z	159	stimuli_distractor_trianglediamonds.svg	stimuli_target_rectangletriangles.svg	9	yes	44	1	511	0	0			0	0			1				0	
6.6.1	win	2023-06-13	03:24:38	03:33:52	546774	5e405a1cfce14d29997364da	4	1	main_z	7	advance_on_keypress_ZEE	160	stimuli_distractor_trianglediamonds.svg	stimuli_target_rectangletriangles.svg	9	yes	57	0	668	0	0			0	0			1				0	
6.6.1	win	2023-06-13	03:24:38	03:34:19	573012	5e405a1cfce14d29997364da	4	1	practice_slash	9	practice_slash	1	stimuli_target_squarediamonds.svg	stimuli_distractor_diamondtriangles.svg	2	yes	53	1	526	0	0			0	0			1				0	
6.6.1	win	2023-06-13	03:24:38	03:34:19	573012	5e405a1cfce14d29997364da	4	1	practice_slash	9	advance_on_keypress_SLASH	2	stimuli_target_squarediamonds.svg	stimuli_distractor_diamondtriangles.svg	2	yes	57	0	874	0	0			0	0			1				0	
6.6.1	win	2023-06-13	03:24:38	03:34:22	576274	5e405a1cfce14d29997364da	4	1	practice_slash	9	practice_slash	3	stimuli_distractor_trianglediamonds.svg	stimuli_target_diamondrectangles.svg	12	yes	53	1	742	0	0			0	0			1				0	
6.6.1	win	2023-06-13	03:24:38	03:34:22	576274	5e405a1cfce14d29997364da	4	1	practice_slash	9	advance_on_keypress_SLASH	4	stimuli_distractor_trianglediamonds.svg	stimuli_target_diamondrectangles.svg	12	yes	57	0	756	0	0			0	0			1				0	
6.6.1	win	2023-06-13	03:24:38	03:34:26	580677	5e405a1cfce14d29997364da	4	1	practice_slash	9	practice_slash	5	stimuli_distractor_trianglediamonds.svg	stimuli_distractor_trianglediamonds.svg	15	no	0	1	2000	0	0			0	0			1				0	
6.6.1	win	2023-06-13	03:24:38	03:34:26	580677	5e405a1cfce14d29997364da	4	1	practice_slash	9	advance_on_keypress_SLASH	6	stimuli_distractor_trianglediamonds.svg	stimuli_distractor_trianglediamonds.svg	15	no	57	0	786	0	0			0	0			1				0	
6.6.1	win	2023-06-13	03:24:38	03:34:29	583810	5e405a1cfce14d29997364da	4	1	practice_slash	9	practice_slash	7	stimuli_target_diamondsquares.svg	stimuli_distractor_diamondtriangles.svg	3	yes	53	1	707	0	0			0	0			1				0	
6.6.1	win	2023-06-13	03:24:38	03:34:29	583810	5e405a1cfce14d29997364da	4	1	practice_slash	9	advance_on_keypress_SLASH	8	stimuli_target_diamondsquares.svg	stimuli_distractor_diamondtriangles.svg	3	yes	57	0	706	0	0			0	0			1				0	
6.6.1	win	2023-06-13	03:24:38	03:34:34	588167	5e405a1cfce14d29997364da	4	1	practice_slash	9	practice_slash	9	stimuli_distractor_diamondtriangles.svg	stimuli_target_diamondrectangles.svg	8	yes	0	0	2000	0	0			0	0			1				0	
6.6.1	win	2023-06-13	03:24:38	03:34:34	588167	5e405a1cfce14d29997364da	4	1	practice_slash	9	advance_on_keypress_SLASH	10	stimuli_distractor_diamondtriangles.svg	stimuli_target_diamondrectangles.svg	8	yes	57	0	754	0	0			0	0			1				0	
6.6.1	win	2023-06-13	03:24:38	03:34:37	591155	5e405a1cfce14d29997364da	4	1	practice_slash	9	practice_slash	11	stimuli_distractor_trianglediamonds.svg	stimuli_target_rectanglediamonds.svg	10	yes	53	1	596	0	0			0	0			1				0	
6.6.1	win	2023-06-13	03:24:38	03:34:37	591155	5e405a1cfce14d29997364da	4	1	practice_slash	9	advance_on_keypress_SLASH	12	stimuli_distractor_trianglediamonds.svg	stimuli_target_rectanglediamonds.svg	10	yes	57	0	687	0	0			0	0			1				0	
6.6.1	win	2023-06-13	03:24:38	03:34:40	594137	5e405a1cfce14d29997364da	4	1	practice_slash	9	practice_slash	13	stimuli_distractor_diamondtriangles.svg	stimuli_distractor_trianglediamonds.svg	14	no	53	0	650	0	0			0	0			1				0	
6.6.1	win	2023-06-13	03:24:38	03:34:40	594137	5e405a1cfce14d29997364da	4	1	practice_slash	9	advance_on_keypress_SLASH	14	stimuli_distractor_diamondtriangles.svg	stimuli_distractor_trianglediamonds.svg	14	no	57	0	812	0	0			0	0			1				0	
6.6.1	win	2023-06-13	03:24:38	03:34:43	597299	5e405a1cfce14d29997364da	4	1	practice_slash	9	practice_slash	15	stimuli_distractor_trianglediamonds.svg	stimuli_target_squarediamonds.svg	11	yes	53	1	700	0	0			0	0			1				0	
6.6.1	win	2023-06-13	03:24:38	03:34:43	597299	5e405a1cfce14d29997364da	4	1	practice_slash	9	advance_on_keypress_SLASH	16	stimuli_distractor_trianglediamonds.svg	stimuli_target_squarediamonds.svg	11	yes	57	0	682	0	0			0	0			1				0	
6.6.1	win	2023-06-13	03:24:38	03:34:46	600353	5e405a1cfce14d29997364da	4	1	practice_slash	9	practice_slash	17	stimuli_target_rectanglediamonds.svg	stimuli_distractor_trianglediamonds.svg	4	yes	53	1	726	0	0			0	0			1				0	
6.6.1	win	2023-06-13	03:24:38	03:34:46	600353	5e405a1cfce14d29997364da	4	1	practice_slash	9	advance_on_keypress_SLASH	18	stimuli_target_rectanglediamonds.svg	stimuli_distractor_trianglediamonds.svg	4	yes	57	0	621	0	0			0	0			1				0	
6.6.1	win	2023-06-13	03:24:38	03:34:49	603250	5e405a1cfce14d29997364da	4	1	practice_slash	9	practice_slash	19	stimuli_distractor_diamondtriangles.svg	stimuli_target_rectangletriangles.svg	7	yes	53	1	626	0	0			0	0			1				0	
6.6.1	win	2023-06-13	03:24:38	03:34:49	603250	5e405a1cfce14d29997364da	4	1	practice_slash	9	advance_on_keypress_SLASH	20	stimuli_distractor_diamondtriangles.svg	stimuli_target_rectangletriangles.svg	7	yes	57	0	742	0	0			0	0			1				0	
6.6.1	win	2023-06-13	03:24:38	03:34:52	606361	5e405a1cfce14d29997364da	4	1	practice_slash	9	practice_slash	21	stimuli_distractor_diamondtriangles.svg	stimuli_distractor_diamondtriangles.svg	13	no	53	0	726	0	0			0	0			1				0	
6.6.1	win	2023-06-13	03:24:38	03:34:52	606361	5e405a1cfce14d29997364da	4	1	practice_slash	9	advance_on_keypress_SLASH	22	stimuli_distractor_diamondtriangles.svg	stimuli_distractor_diamondtriangles.svg	13	no	57	0	693	0	0			0	0			1				0	
6.6.1	win	2023-06-13	03:24:38	03:34:55	609402	5e405a1cfce14d29997364da	4	1	practice_slash	9	practice_slash	23	stimuli_target_rectanglediamonds.svg	stimuli_distractor_diamondtriangles.svg	1	yes	53	1	688	0	0			0	0			1				0	
6.6.1	win	2023-06-13	03:24:38	03:34:55	609402	5e405a1cfce14d29997364da	4	1	practice_slash	9	advance_on_keypress_SLASH	24	stimuli_target_rectanglediamonds.svg	stimuli_distractor_diamondtriangles.svg	1	yes	57	0	729	0	0			0	0			1				0	
6.6.1	win	2023-06-13	03:24:38	03:34:59	613775	5e405a1cfce14d29997364da	4	1	practice_slash	9	practice_slash	25	stimuli_target_diamondsquares.svg	stimuli_distractor_trianglediamonds.svg	6	yes	0	0	2000	0	0			0	0			1				0	
6.6.1	win	2023-06-13	03:24:38	03:34:59	613775	5e405a1cfce14d29997364da	4	1	practice_slash	9	advance_on_keypress_SLASH	26	stimuli_target_diamondsquares.svg	stimuli_distractor_trianglediamonds.svg	6	yes	57	0	704	0	0			0	0			1				0	
6.6.1	win	2023-06-13	03:24:38	03:35:04	618119	5e405a1cfce14d29997364da	4	1	practice_slash	9	practice_slash	27	stimuli_distractor_diamondtriangles.svg	stimuli_target_trianglerectangles.svg	9	yes	0	0	2000	0	0			0	0			1				0	
6.6.1	win	2023-06-13	03:24:38	03:35:04	618119	5e405a1cfce14d29997364da	4	1	practice_slash	9	advance_on_keypress_SLASH	28	stimuli_distractor_diamondtriangles.svg	stimuli_target_trianglerectangles.svg	9	yes	57	0	761	0	0			0	0			1				0	
6.6.1	win	2023-06-13	03:24:38	03:35:07	621242	5e405a1cfce14d29997364da	4	1	practice_slash	9	practice_slash	29	stimuli_target_squarediamonds.svg	stimuli_distractor_trianglediamonds.svg	5	yes	53	1	714	0	0			0	0			1				0	
6.6.1	win	2023-06-13	03:24:38	03:35:07	621242	5e405a1cfce14d29997364da	4	1	practice_slash	9	advance_on_keypress_SLASH	30	stimuli_target_squarediamonds.svg	stimuli_distractor_trianglediamonds.svg	5	yes	57	0	672	0	0			0	0			1				0	
6.6.1	win	2023-06-13	03:24:38	03:35:10	624249	5e405a1cfce14d29997364da	4	1	practice_slash	9	practice_slash	31	stimuli_distractor_trianglediamonds.svg	stimuli_distractor_diamondtriangles.svg	16	no	53	0	692	0	0			0	0			1				0	
6.6.1	win	2023-06-13	03:24:38	03:35:10	624249	5e405a1cfce14d29997364da	4	1	practice_slash	9	advance_on_keypress_SLASH	32	stimuli_distractor_trianglediamonds.svg	stimuli_distractor_diamondtriangles.svg	16	no	57	0	675	0	0			0	0			1				0	
6.6.1	win	2023-06-13	03:24:38	03:35:15	629015	5e405a1cfce14d29997364da	4	1	main_slash	11	main_slash	1	stimuli_target_rectangletriangles.svg	stimuli_distractor_trianglediamonds.svg	1	yes	53	1	768	0	0			0	0			1				0	
6.6.1	win	2023-06-13	03:24:38	03:35:15	629015	5e405a1cfce14d29997364da	4	1	main_slash	11	advance_on_keypress_SLASH	2	stimuli_target_rectangletriangles.svg	stimuli_distractor_trianglediamonds.svg	1	yes	57	0	915	0	0			0	0			1				0	
6.6.1	win	2023-06-13	03:24:38	03:35:17	631200	5e405a1cfce14d29997364da	4	1	main_slash	11	main_slash	3	stimuli_distractor_diamondtriangles.svg	stimuli_target_diamondsquares.svg	32	yes	53	1	623	0	0			0	0			1				0	
6.6.1	win	2023-06-13	03:24:38	03:35:17	631200	5e405a1cfce14d29997364da	4	1	main_slash	11	advance_on_keypress_SLASH	4	stimuli_distractor_diamondtriangles.svg	stimuli_target_diamondsquares.svg	32	yes	57	0	680	0	0			0	0			1				0	
6.6.1	win	2023-06-13	03:24:38	03:35:20	634523	5e405a1cfce14d29997364da	4	1	main_slash	11	main_slash	5	stimuli_distractor_diamondtriangles.svg	stimuli_distractor_diamondtriangles.svg	40	no	0	1	2000	0	0			0	0			1				0	
6.6.1	win	2023-06-13	03:24:38	03:35:20	634523	5e405a1cfce14d29997364da	4	1	main_slash	11	advance_on_keypress_SLASH	6	stimuli_distractor_diamondtriangles.svg	stimuli_distractor_diamondtriangles.svg	40	no	57	0	634	0	0			0	0			1				0	
6.6.1	win	2023-06-13	03:24:38	03:35:22	636496	5e405a1cfce14d29997364da	4	1	main_slash	11	main_slash	7	stimuli_target_rectangletriangles.svg	stimuli_distractor_diamondtriangles.svg	5	yes	53	1	694	0	0			0	0			1				0	
6.6.1	win	2023-06-13	03:24:38	03:35:22	636496	5e405a1cfce14d29997364da	4	1	main_slash	11	advance_on_keypress_SLASH	8	stimuli_target_rectangletriangles.svg	stimuli_distractor_diamondtriangles.svg	5	yes	57	0	692	0	0			0	0			1				0	
6.6.1	win	2023-06-13	03:24:38	03:35:24	638640	5e405a1cfce14d29997364da	4	1	main_slash	11	main_slash	9	stimuli_distractor_diamondtriangles.svg	stimuli_target_squaretriangles.svg	15	yes	53	1	809	0	0			0	0			1				0	
6.6.1	win	2023-06-13	03:24:38	03:35:24	638640	5e405a1cfce14d29997364da	4	1	main_slash	11	advance_on_keypress_SLASH	10	stimuli_distractor_diamondtriangles.svg	stimuli_target_squaretriangles.svg	15	yes	57	0	625	0	0			0	0			1				0	
6.6.1	win	2023-06-13	03:24:38	03:35:27	641071	5e405a1cfce14d29997364da	4	1	main_slash	11	main_slash	11	stimuli_target_squarediamonds.svg	stimuli_distractor_trianglediamonds.svg	4	yes	53	1	1159	0	0			0	0			1				0	
6.6.1	win	2023-06-13	03:24:38	03:35:27	641071	5e405a1cfce14d29997364da	4	1	main_slash	11	advance_on_keypress_SLASH	12	stimuli_target_squarediamonds.svg	stimuli_distractor_trianglediamonds.svg	4	yes	57	0	955	0	0			0	0			1				0	
6.6.1	win	2023-06-13	03:24:38	03:35:29	643343	5e405a1cfce14d29997364da	4	1	main_slash	11	main_slash	13	stimuli_target_rectanglediamonds.svg	stimuli_distractor_trianglediamonds.svg	2	yes	53	1	669	0	0			0	0			1				0	
6.6.1	win	2023-06-13	03:24:38	03:35:29	643343	5e405a1cfce14d29997364da	4	1	main_slash	11	advance_on_keypress_SLASH	14	stimuli_target_rectanglediamonds.svg	stimuli_distractor_trianglediamonds.svg	2	yes	57	0	668	0	0			0	0			1				0	
6.6.1	win	2023-06-13	03:24:38	03:35:31	645286	5e405a1cfce14d29997364da	4	1	main_slash	11	main_slash	15	stimuli_distractor_trianglediamonds.svg	stimuli_target_rectanglediamonds.svg	10	yes	53	1	632	0	0			0	0			1				0	
6.6.1	win	2023-06-13	03:24:38	03:35:31	645286	5e405a1cfce14d29997364da	4	1	main_slash	11	advance_on_keypress_SLASH	16	stimuli_distractor_trianglediamonds.svg	stimuli_target_rectanglediamonds.svg	10	yes	57	0	617	0	0			0	0			1				0	
6.6.1	win	2023-06-13	03:24:38	03:35:34	648551	5e405a1cfce14d29997364da	4	1	main_slash	11	main_slash	17	stimuli_target_diamondsquares.svg	stimuli_distractor_diamondtriangles.svg	24	yes	0	0	2000	0	0			0	0			1				0	
6.6.1	win	2023-06-13	03:24:38	03:35:34	648551	5e405a1cfce14d29997364da	4	1	main_slash	11	advance_on_keypress_SLASH	18	stimuli_target_diamondsquares.svg	stimuli_distractor_diamondtriangles.svg	24	yes	57	0	893	0	0			0	0			1				0	
6.6.1	win	2023-06-13	03:24:38	03:35:36	650648	5e405a1cfce14d29997364da	4	1	main_slash	11	main_slash	19	stimuli_distractor_diamondtriangles.svg	stimuli_target_rectangletriangles.svg	13	yes	53	1	568	0	0			0	0			1				0	
6.6.1	win	2023-06-13	03:24:38	03:35:36	650648	5e405a1cfce14d29997364da	4	1	main_slash	11	advance_on_keypress_SLASH	20	stimuli_distractor_diamondtriangles.svg	stimuli_target_rectangletriangles.svg	13	yes	57	0	580	0	0			0	0			1				0	
6.6.1	win	2023-06-13	03:24:38	03:35:38	652601	5e405a1cfce14d29997364da	4	1	main_slash	11	main_slash	21	stimuli_target_squaretriangles.svg	stimuli_distractor_diamondtriangles.svg	7	yes	53	1	724	0	0			0	0			1				0	
6.6.1	win	2023-06-13	03:24:38	03:35:38	652601	5e405a1cfce14d29997364da	4	1	main_slash	11	advance_on_keypress_SLASH	22	stimuli_target_squaretriangles.svg	stimuli_distractor_diamondtriangles.svg	7	yes	57	0	536	0	0			0	0			1				0	
6.6.1	win	2023-06-13	03:24:38	03:35:40	654363	5e405a1cfce14d29997364da	4	1	main_slash	11	main_slash	23	stimuli_target_rectanglediamonds.svg	stimuli_distractor_diamondtriangles.svg	6	yes	53	1	590	0	0			0	0			1				0	
6.6.1	win	2023-06-13	03:24:38	03:35:40	654363	5e405a1cfce14d29997364da	4	1	main_slash	11	advance_on_keypress_SLASH	24	stimuli_target_rectanglediamonds.svg	stimuli_distractor_diamondtriangles.svg	6	yes	57	0	574	0	0			0	0			1				0	
6.6.1	win	2023-06-13	03:24:38	03:35:43	657570	5e405a1cfce14d29997364da	4	1	main_slash	11	main_slash	25	stimuli_distractor_trianglediamonds.svg	stimuli_distractor_trianglediamonds.svg	33	no	0	1	2000	0	0			0	0			1				0	
6.6.1	win	2023-06-13	03:24:38	03:35:43	657570	5e405a1cfce14d29997364da	4	1	main_slash	11	advance_on_keypress_SLASH	26	stimuli_distractor_trianglediamonds.svg	stimuli_distractor_trianglediamonds.svg	33	no	57	0	841	0	0			0	0			1				0	
6.6.1	win	2023-06-13	03:24:38	03:35:45	659640	5e405a1cfce14d29997364da	4	1	main_slash	11	main_slash	27	stimuli_target_trianglesquares.svg	stimuli_distractor_diamondtriangles.svg	22	yes	53	1	591	0	0			0	0			1				0	
6.6.1	win	2023-06-13	03:24:38	03:35:45	659640	5e405a1cfce14d29997364da	4	1	main_slash	11	advance_on_keypress_SLASH	28	stimuli_target_trianglesquares.svg	stimuli_distractor_diamondtriangles.svg	22	yes	57	0	633	0	0			0	0			1				0	
6.6.1	win	2023-06-13	03:24:38	03:35:47	661551	5e405a1cfce14d29997364da	4	1	main_slash	11	main_slash	29	stimuli_distractor_diamondtriangles.svg	stimuli_target_rectanglediamonds.svg	14	yes	53	1	639	0	0			0	0			1				0	
6.6.1	win	2023-06-13	03:24:38	03:35:47	661551	5e405a1cfce14d29997364da	4	1	main_slash	11	advance_on_keypress_SLASH	30	stimuli_distractor_diamondtriangles.svg	stimuli_target_rectanglediamonds.svg	14	yes	57	0	639	0	0			0	0			1				0	
6.6.1	win	2023-06-13	03:24:38	03:35:50	664826	5e405a1cfce14d29997364da	4	1	main_slash	11	main_slash	31	stimuli_target_diamondrectangles.svg	stimuli_distractor_diamondtriangles.svg	23	yes	0	0	2000	0	0			0	0			1				0	
6.6.1	win	2023-06-13	03:24:38	03:35:50	664826	5e405a1cfce14d29997364da	4	1	main_slash	11	advance_on_keypress_SLASH	32	stimuli_target_diamondrectangles.svg	stimuli_distractor_diamondtriangles.svg	23	yes	57	0	817	0	0			0	0			1				0	
6.6.1	win	2023-06-13	03:24:38	03:35:53	666882	5e405a1cfce14d29997364da	4	1	main_slash	11	main_slash	33	stimuli_distractor_trianglediamonds.svg	stimuli_target_squarediamonds.svg	12	yes	53	1	595	0	0			0	0			1				0	
6.6.1	win	2023-06-13	03:24:38	03:35:53	666882	5e405a1cfce14d29997364da	4	1	main_slash	11	advance_on_keypress_SLASH	34	stimuli_distractor_trianglediamonds.svg	stimuli_target_squarediamonds.svg	12	yes	57	0	624	0	0			0	0			1				0	
6.6.1	win	2023-06-13	03:24:38	03:35:56	670151	5e405a1cfce14d29997364da	4	1	main_slash	11	main_slash	35	stimuli_target_trianglerectangles.svg	stimuli_distractor_diamondtriangles.svg	21	yes	0	0	2000	0	0			0	0			1				0	
6.6.1	win	2023-06-13	03:24:38	03:35:56	670151	5e405a1cfce14d29997364da	4	1	main_slash	11	advance_on_keypress_SLASH	36	stimuli_target_trianglerectangles.svg	stimuli_distractor_diamondtriangles.svg	21	yes	57	0	739	0	0			0	0			1				0	
6.6.1	win	2023-06-13	03:24:38	03:35:59	673529	5e405a1cfce14d29997364da	4	1	main_slash	11	main_slash	37	stimuli_distractor_trianglediamonds.svg	stimuli_target_diamondrectangles.svg	27	yes	0	0	2000	0	0			0	0			1				0	
6.6.1	win	2023-06-13	03:24:38	03:35:59	673529	5e405a1cfce14d29997364da	4	1	main_slash	11	advance_on_keypress_SLASH	38	stimuli_distractor_trianglediamonds.svg	stimuli_target_diamondrectangles.svg	27	yes	57	0	594	0	0			0	0			1				0	
6.6.1	win	2023-06-13	03:24:38	03:36:01	675327	5e405a1cfce14d29997364da	4	1	main_slash	11	main_slash	39	stimuli_target_diamondrectangles.svg	stimuli_distractor_trianglediamonds.svg	19	yes	53	1	553	0	0			0	0			1				0	
6.6.1	win	2023-06-13	03:24:38	03:36:01	675327	5e405a1cfce14d29997364da	4	1	main_slash	11	advance_on_keypress_SLASH	40	stimuli_target_diamondrectangles.svg	stimuli_distractor_trianglediamonds.svg	19	yes	57	0	615	0	0			0	0			1				0	
6.6.1	win	2023-06-13	03:24:38	03:36:03	677303	5e405a1cfce14d29997364da	4	1	main_slash	11	main_slash	41	stimuli_distractor_diamondtriangles.svg	stimuli_target_squarediamonds.svg	16	yes	53	1	715	0	0			0	0			1				0	
6.6.1	win	2023-06-13	03:24:38	03:36:03	677303	5e405a1cfce14d29997364da	4	1	main_slash	11	advance_on_keypress_SLASH	42	stimuli_distractor_diamondtriangles.svg	stimuli_target_squarediamonds.svg	16	yes	57	0	672	0	0			0	0			1				0	
6.6.1	win	2023-06-13	03:24:38	03:36:06	680618	5e405a1cfce14d29997364da	4	1	main_slash	11	main_slash	43	stimuli_target_diamondsquares.svg	stimuli_distractor_trianglediamonds.svg	20	yes	0	0	2000	0	0			0	0			1				0	
6.6.1	win	2023-06-13	03:24:38	03:36:06	680618	5e405a1cfce14d29997364da	4	1	main_slash	11	advance_on_keypress_SLASH	44	stimuli_target_diamondsquares.svg	stimuli_distractor_trianglediamonds.svg	20	yes	57	0	905	0	0			0	0			1				0	
6.6.1	win	2023-06-13	03:24:38	03:36:10	684163	5e405a1cfce14d29997364da	4	1	main_slash	11	main_slash	45	stimuli_distractor_diamondtriangles.svg	stimuli_distractor_trianglediamonds.svg	37	no	0	1	2000	0	0			0	0			1				0	
6.6.1	win	2023-06-13	03:24:38	03:36:10	684163	5e405a1cfce14d29997364da	4	1	main_slash	11	advance_on_keypress_SLASH	46	stimuli_distractor_diamondtriangles.svg	stimuli_distractor_trianglediamonds.svg	37	no	57	0	665	0	0			0	0			1				0	
6.6.1	win	2023-06-13	03:24:38	03:36:12	686151	5e405a1cfce14d29997364da	4	1	main_slash	11	main_slash	47	stimuli_distractor_diamondtriangles.svg	stimuli_distractor_trianglediamonds.svg	38	no	53	0	677	0	0			0	0			1				0	
6.6.1	win	2023-06-13	03:24:38	03:36:12	686151	5e405a1cfce14d29997364da	4	1	main_slash	11	advance_on_keypress_SLASH	48	stimuli_distractor_diamondtriangles.svg	stimuli_distractor_trianglediamonds.svg	38	no	57	0	611	0	0			0	0			1				0	
6.6.1	win	2023-06-13	03:24:38	03:36:15	689421	5e405a1cfce14d29997364da	4	1	main_slash	11	main_slash	49	stimuli_target_trianglesquares.svg	stimuli_distractor_trianglediamonds.svg	18	yes	0	0	2000	0	0			0	0			1				0	
6.6.1	win	2023-06-13	03:24:38	03:36:15	689421	5e405a1cfce14d29997364da	4	1	main_slash	11	advance_on_keypress_SLASH	50	stimuli_target_trianglesquares.svg	stimuli_distractor_trianglediamonds.svg	18	yes	57	0	593	0	0			0	0			1				0	
6.6.1	win	2023-06-13	03:24:38	03:36:18	692649	5e405a1cfce14d29997364da	4	1	main_slash	11	main_slash	51	stimuli_distractor_diamondtriangles.svg	stimuli_target_diamondrectangles.svg	31	yes	0	0	2000	0	0			0	0			1				0	
6.6.1	win	2023-06-13	03:24:38	03:36:18	692649	5e405a1cfce14d29997364da	4	1	main_slash	11	advance_on_keypress_SLASH	52	stimuli_distractor_diamondtriangles.svg	stimuli_target_diamondrectangles.svg	31	yes	57	0	185	0	0			0	0			1				0	
6.6.1	win	2023-06-13	03:24:38	03:36:21	695478	5e405a1cfce14d29997364da	4	1	main_slash	11	main_slash	53	stimuli_distractor_diamondtriangles.svg	stimuli_target_trianglesquares.svg	30	yes	0	0	2000	0	0			0	0			1				0	
6.6.1	win	2023-06-13	03:24:38	03:36:21	695478	5e405a1cfce14d29997364da	4	1	main_slash	11	advance_on_keypress_SLASH	54	stimuli_distractor_diamondtriangles.svg	stimuli_target_trianglesquares.svg	30	yes	57	0	485	0	0			0	0			1				0	
6.6.1	win	2023-06-13	03:24:38	03:36:23	697286	5e405a1cfce14d29997364da	4	1	main_slash	11	main_slash	55	stimuli_distractor_trianglediamonds.svg	stimuli_distractor_diamondtriangles.svg	36	no	53	0	680	0	0			0	0			1				0	
6.6.1	win	2023-06-13	03:24:38	03:36:23	697286	5e405a1cfce14d29997364da	4	1	main_slash	11	advance_on_keypress_SLASH	56	stimuli_distractor_trianglediamonds.svg	stimuli_distractor_diamondtriangles.svg	36	no	57	0	655	0	0			0	0			1				0	
6.6.1	win	2023-06-13	03:24:38	03:36:25	699279	5e405a1cfce14d29997364da	4	1	main_slash	11	main_slash	57	stimuli_distractor_trianglediamonds.svg	stimuli_target_squaretriangles.svg	11	yes	53	1	691	0	0			0	0			1				0	
6.6.1	win	2023-06-13	03:24:38	03:36:25	699279	5e405a1cfce14d29997364da	4	1	main_slash	11	advance_on_keypress_SLASH	58	stimuli_distractor_trianglediamonds.svg	stimuli_target_squaretriangles.svg	11	yes	57	0	593	0	0			0	0			1				0	
6.6.1	win	2023-06-13	03:24:38	03:36:27	701207	5e405a1cfce14d29997364da	4	1	main_slash	11	main_slash	59	stimuli_distractor_diamondtriangles.svg	stimuli_target_trianglerectangles.svg	29	yes	53	1	706	0	0			0	0			1				0	
6.6.1	win	2023-06-13	03:24:38	03:36:27	701207	5e405a1cfce14d29997364da	4	1	main_slash	11	advance_on_keypress_SLASH	60	stimuli_distractor_diamondtriangles.svg	stimuli_target_trianglerectangles.svg	29	yes	57	0	613	0	0			0	0			1				0	
6.6.1	win	2023-06-13	03:24:38	03:36:30	704464	5e405a1cfce14d29997364da	4	1	main_slash	11	main_slash	61	stimuli_distractor_diamondtriangles.svg	stimuli_distractor_diamondtriangles.svg	39	no	0	1	2000	0	0			0	0			1				0	
6.6.1	win	2023-06-13	03:24:38	03:36:30	704464	5e405a1cfce14d29997364da	4	1	main_slash	11	advance_on_keypress_SLASH	62	stimuli_distractor_diamondtriangles.svg	stimuli_distractor_diamondtriangles.svg	39	no	57	0	627	0	0			0	0			1				0	
6.6.1	win	2023-06-13	03:24:38	03:36:32	706342	5e405a1cfce14d29997364da	4	1	main_slash	11	main_slash	63	stimuli_target_squarediamonds.svg	stimuli_distractor_diamondtriangles.svg	8	yes	53	1	617	0	0			0	0			1				0	
6.6.1	win	2023-06-13	03:24:38	03:36:32	706342	5e405a1cfce14d29997364da	4	1	main_slash	11	advance_on_keypress_SLASH	64	stimuli_target_squarediamonds.svg	stimuli_distractor_diamondtriangles.svg	8	yes	57	0	577	0	0			0	0			1				0	
6.6.1	win	2023-06-13	03:24:38	03:36:35	709556	5e405a1cfce14d29997364da	4	1	main_slash	11	main_slash	65	stimuli_distractor_trianglediamonds.svg	stimuli_distractor_trianglediamonds.svg	34	no	0	1	2000	0	0			0	0			1				0	
6.6.1	win	2023-06-13	03:24:38	03:36:35	709556	5e405a1cfce14d29997364da	4	1	main_slash	11	advance_on_keypress_SLASH	66	stimuli_distractor_trianglediamonds.svg	stimuli_distractor_trianglediamonds.svg	34	no	57	0	590	0	0			0	0			1				0	
6.6.1	win	2023-06-13	03:24:38	03:36:38	712785	5e405a1cfce14d29997364da	4	1	main_slash	11	main_slash	67	stimuli_distractor_trianglediamonds.svg	stimuli_target_trianglerectangles.svg	25	yes	0	0	2000	0	0			0	0			1				0	
6.6.1	win	2023-06-13	03:24:38	03:36:38	712785	5e405a1cfce14d29997364da	4	1	main_slash	11	advance_on_keypress_SLASH	68	stimuli_distractor_trianglediamonds.svg	stimuli_target_trianglerectangles.svg	25	yes	57	0	770	0	0			0	0			1				0	
6.6.1	win	2023-06-13	03:24:38	03:36:42	716197	5e405a1cfce14d29997364da	4	1	main_slash	11	main_slash	69	stimuli_target_trianglerectangles.svg	stimuli_distractor_trianglediamonds.svg	17	yes	0	0	2000	0	0			0	0			1				0	
6.6.1	win	2023-06-13	03:24:38	03:36:42	716197	5e405a1cfce14d29997364da	4	1	main_slash	11	advance_on_keypress_SLASH	70	stimuli_target_trianglerectangles.svg	stimuli_distractor_trianglediamonds.svg	17	yes	57	0	575	0	0			0	0			1				0	
6.6.1	win	2023-06-13	03:24:38	03:36:45	719408	5e405a1cfce14d29997364da	4	1	main_slash	11	main_slash	71	stimuli_distractor_trianglediamonds.svg	stimuli_target_trianglesquares.svg	26	yes	0	0	2000	0	0			0	0			1				0	
6.6.1	win	2023-06-13	03:24:38	03:36:45	719408	5e405a1cfce14d29997364da	4	1	main_slash	11	advance_on_keypress_SLASH	72	stimuli_distractor_trianglediamonds.svg	stimuli_target_trianglesquares.svg	26	yes	57	0	611	0	0			0	0			1				0	
6.6.1	win	2023-06-13	03:24:38	03:36:47	721398	5e405a1cfce14d29997364da	4	1	main_slash	11	main_slash	73	stimuli_distractor_trianglediamonds.svg	stimuli_target_rectangletriangles.svg	9	yes	53	1	728	0	0			0	0			1				0	
6.6.1	win	2023-06-13	03:24:38	03:36:47	721398	5e405a1cfce14d29997364da	4	1	main_slash	11	advance_on_keypress_SLASH	74	stimuli_distractor_trianglediamonds.svg	stimuli_target_rectangletriangles.svg	9	yes	57	0	556	0	0			0	0			1				0	
6.6.1	win	2023-06-13	03:24:38	03:36:49	723327	5e405a1cfce14d29997364da	4	1	main_slash	11	main_slash	75	stimuli_target_squaretriangles.svg	stimuli_distractor_trianglediamonds.svg	3	yes	53	1	727	0	0			0	0			1				0	
6.6.1	win	2023-06-13	03:24:38	03:36:49	723327	5e405a1cfce14d29997364da	4	1	main_slash	11	advance_on_keypress_SLASH	76	stimuli_target_squaretriangles.svg	stimuli_distractor_trianglediamonds.svg	3	yes	57	0	580	0	0			0	0			1				0	
6.6.1	win	2023-06-13	03:24:38	03:36:51	725142	5e405a1cfce14d29997364da	4	1	main_slash	11	main_slash	77	stimuli_distractor_trianglediamonds.svg	stimuli_target_diamondsquares.svg	28	yes	53	1	578	0	0			0	0			1				0	
6.6.1	win	2023-06-13	03:24:38	03:36:51	725142	5e405a1cfce14d29997364da	4	1	main_slash	11	advance_on_keypress_SLASH	78	stimuli_distractor_trianglediamonds.svg	stimuli_target_diamondsquares.svg	28	yes	57	0	589	0	0			0	0			1				0	
6.6.1	win	2023-06-13	03:24:38	03:36:53	726862	5e405a1cfce14d29997364da	4	1	main_slash	11	main_slash	79	stimuli_distractor_trianglediamonds.svg	stimuli_distractor_diamondtriangles.svg	35	no	53	0	485	0	0			0	0			1				0	
6.6.1	win	2023-06-13	03:24:38	03:36:53	726862	5e405a1cfce14d29997364da	4	1	main_slash	11	advance_on_keypress_SLASH	80	stimuli_distractor_trianglediamonds.svg	stimuli_distractor_diamondtriangles.svg	35	no	57	0	610	0	0			0	0			1				0	
6.6.1	win	2023-06-13	03:24:38	03:36:54	728655	5e405a1cfce14d29997364da	4	1	main_slash	11	main_slash	81	stimuli_distractor_trianglediamonds.svg	stimuli_target_rectangletriangles.svg	9	yes	53	1	547	0	0			0	0			1				0	
6.6.1	win	2023-06-13	03:24:38	03:36:54	728655	5e405a1cfce14d29997364da	4	1	main_slash	11	advance_on_keypress_SLASH	82	stimuli_distractor_trianglediamonds.svg	stimuli_target_rectangletriangles.svg	9	yes	57	0	677	0	0			0	0			1				0	
6.6.1	win	2023-06-13	03:24:38	03:36:58	731972	5e405a1cfce14d29997364da	4	1	main_slash	11	main_slash	83	stimuli_distractor_diamondtriangles.svg	stimuli_target_diamondrectangles.svg	31	yes	0	0	2000	0	0			0	0			1				0	
6.6.1	win	2023-06-13	03:24:38	03:36:58	731972	5e405a1cfce14d29997364da	4	1	main_slash	11	advance_on_keypress_SLASH	84	stimuli_distractor_diamondtriangles.svg	stimuli_target_diamondrectangles.svg	31	yes	57	0	622	0	0			0	0			1				0	
6.6.1	win	2023-06-13	03:24:38	03:37:00	733942	5e405a1cfce14d29997364da	4	1	main_slash	11	main_slash	85	stimuli_distractor_trianglediamonds.svg	stimuli_target_squaretriangles.svg	11	yes	53	1	709	0	0			0	0			1				0	
6.6.1	win	2023-06-13	03:24:38	03:37:00	733942	5e405a1cfce14d29997364da	4	1	main_slash	11	advance_on_keypress_SLASH	86	stimuli_distractor_trianglediamonds.svg	stimuli_target_squaretriangles.svg	11	yes	57	0	698	0	0			0	0			1				0	
6.6.1	win	2023-06-13	03:24:38	03:37:03	737297	5e405a1cfce14d29997364da	4	1	main_slash	11	main_slash	87	stimuli_distractor_trianglediamonds.svg	stimuli_target_diamondsquares.svg	28	yes	0	0	2000	0	0			0	0			1				0	
6.6.1	win	2023-06-13	03:24:38	03:37:03	737297	5e405a1cfce14d29997364da	4	1	main_slash	11	advance_on_keypress_SLASH	88	stimuli_distractor_trianglediamonds.svg	stimuli_target_diamondsquares.svg	28	yes	57	0	594	0	0			0	0			1				0	
6.6.1	win	2023-06-13	03:24:38	03:37:06	740541	5e405a1cfce14d29997364da	4	1	main_slash	11	main_slash	89	stimuli_target_diamondsquares.svg	stimuli_distractor_trianglediamonds.svg	20	yes	0	0	2000	0	0			0	0			1				0	
6.6.1	win	2023-06-13	03:24:38	03:37:06	740541	5e405a1cfce14d29997364da	4	1	main_slash	11	advance_on_keypress_SLASH	90	stimuli_target_diamondsquares.svg	stimuli_distractor_trianglediamonds.svg	20	yes	57	0	701	0	0			0	0			1				0	
6.6.1	win	2023-06-13	03:24:38	03:37:09	743023	5e405a1cfce14d29997364da	4	1	main_slash	11	main_slash	91	stimuli_distractor_trianglediamonds.svg	stimuli_distractor_trianglediamonds.svg	34	no	53	0	1136	0	0			0	0			1				0	
6.6.1	win	2023-06-13	03:24:38	03:37:09	743023	5e405a1cfce14d29997364da	4	1	main_slash	11	advance_on_keypress_SLASH	92	stimuli_distractor_trianglediamonds.svg	stimuli_distractor_trianglediamonds.svg	34	no	57	0	628	0	0			0	0			1				0	
6.6.1	win	2023-06-13	03:24:38	03:37:11	744839	5e405a1cfce14d29997364da	4	1	main_slash	11	main_slash	93	stimuli_distractor_diamondtriangles.svg	stimuli_target_trianglerectangles.svg	29	yes	53	1	539	0	0			0	0			1				0	
6.6.1	win	2023-06-13	03:24:38	03:37:11	744839	5e405a1cfce14d29997364da	4	1	main_slash	11	advance_on_keypress_SLASH	94	stimuli_distractor_diamondtriangles.svg	stimuli_target_trianglerectangles.svg	29	yes	57	0	673	0	0			0	0			1				0	
6.6.1	win	2023-06-13	03:24:38	03:37:14	748147	5e405a1cfce14d29997364da	4	1	main_slash	11	main_slash	95	stimuli_target_trianglesquares.svg	stimuli_distractor_trianglediamonds.svg	18	yes	0	0	2000	0	0			0	0			1				0	
6.6.1	win	2023-06-13	03:24:38	03:37:14	748147	5e405a1cfce14d29997364da	4	1	main_slash	11	advance_on_keypress_SLASH	96	stimuli_target_trianglesquares.svg	stimuli_distractor_trianglediamonds.svg	18	yes	57	0	536	0	0			0	0			1				0	
6.6.1	win	2023-06-13	03:24:38	03:37:17	751325	5e405a1cfce14d29997364da	4	1	main_slash	11	main_slash	97	stimuli_distractor_trianglediamonds.svg	stimuli_distractor_trianglediamonds.svg	33	no	0	1	2000	0	0			0	0			1				0	
6.6.1	win	2023-06-13	03:24:38	03:37:17	751325	5e405a1cfce14d29997364da	4	1	main_slash	11	advance_on_keypress_SLASH	98	stimuli_distractor_trianglediamonds.svg	stimuli_distractor_trianglediamonds.svg	33	no	57	0	622	0	0			0	0			1				0	
6.6.1	win	2023-06-13	03:24:38	03:37:19	753158	5e405a1cfce14d29997364da	4	1	main_slash	11	main_slash	99	stimuli_distractor_diamondtriangles.svg	stimuli_distractor_trianglediamonds.svg	38	no	53	0	571	0	0			0	0			1				0	
6.6.1	win	2023-06-13	03:24:38	03:37:19	753158	5e405a1cfce14d29997364da	4	1	main_slash	11	advance_on_keypress_SLASH	100	stimuli_distractor_diamondtriangles.svg	stimuli_distractor_trianglediamonds.svg	38	no	57	0	575	0	0			0	0			1				0	
6.6.1	win	2023-06-13	03:24:38	03:37:22	756367	5e405a1cfce14d29997364da	4	1	main_slash	11	main_slash	101	stimuli_target_diamondsquares.svg	stimuli_distractor_diamondtriangles.svg	24	yes	0	0	2000	0	0			0	0			1				0	
6.6.1	win	2023-06-13	03:24:38	03:37:22	756367	5e405a1cfce14d29997364da	4	1	main_slash	11	advance_on_keypress_SLASH	102	stimuli_target_diamondsquares.svg	stimuli_distractor_diamondtriangles.svg	24	yes	57	0	523	0	0			0	0			1				0	
6.6.1	win	2023-06-13	03:24:38	03:37:24	758349	5e405a1cfce14d29997364da	4	1	main_slash	11	main_slash	103	stimuli_target_squaretriangles.svg	stimuli_distractor_diamondtriangles.svg	7	yes	53	1	816	0	0			0	0			1				0	
6.6.1	win	2023-06-13	03:24:38	03:37:24	758349	5e405a1cfce14d29997364da	4	1	main_slash	11	advance_on_keypress_SLASH	104	stimuli_target_squaretriangles.svg	stimuli_distractor_diamondtriangles.svg	7	yes	57	0	567	0	0			0	0			1				0	
6.6.1	win	2023-06-13	03:24:38	03:37:27	761559	5e405a1cfce14d29997364da	4	1	main_slash	11	main_slash	105	stimuli_target_diamondrectangles.svg	stimuli_distractor_trianglediamonds.svg	19	yes	0	0	2000	0	0			0	0			1				0	
6.6.1	win	2023-06-13	03:24:38	03:37:27	761559	5e405a1cfce14d29997364da	4	1	main_slash	11	advance_on_keypress_SLASH	106	stimuli_target_diamondrectangles.svg	stimuli_distractor_trianglediamonds.svg	19	yes	57	0	602	0	0			0	0			1				0	
6.6.1	win	2023-06-13	03:24:38	03:37:29	763510	5e405a1cfce14d29997364da	4	1	main_slash	11	main_slash	107	stimuli_target_rectangletriangles.svg	stimuli_distractor_diamondtriangles.svg	5	yes	53	1	706	0	0			0	0			1				0	
6.6.1	win	2023-06-13	03:24:38	03:37:29	763510	5e405a1cfce14d29997364da	4	1	main_slash	11	advance_on_keypress_SLASH	108	stimuli_target_rectangletriangles.svg	stimuli_distractor_diamondtriangles.svg	5	yes	57	0	559	0	0			0	0			1				0	
6.6.1	win	2023-06-13	03:24:38	03:37:31	765437	5e405a1cfce14d29997364da	4	1	main_slash	11	main_slash	109	stimuli_target_squarediamonds.svg	stimuli_distractor_trianglediamonds.svg	4	yes	53	1	736	0	0			0	0			1				0	
6.6.1	win	2023-06-13	03:24:38	03:37:31	765437	5e405a1cfce14d29997364da	4	1	main_slash	11	advance_on_keypress_SLASH	110	stimuli_target_squarediamonds.svg	stimuli_distractor_trianglediamonds.svg	4	yes	57	0	558	0	0			0	0			1				0	
6.6.1	win	2023-06-13	03:24:38	03:37:34	768631	5e405a1cfce14d29997364da	4	1	main_slash	11	main_slash	111	stimuli_distractor_diamondtriangles.svg	stimuli_target_diamondsquares.svg	32	yes	0	0	2000	0	0			0	0			1				0	
6.6.1	win	2023-06-13	03:24:38	03:37:34	768631	5e405a1cfce14d29997364da	4	1	main_slash	11	advance_on_keypress_SLASH	112	stimuli_distractor_diamondtriangles.svg	stimuli_target_diamondsquares.svg	32	yes	57	0	691	0	0			0	0			1				0	
6.6.1	win	2023-06-13	03:24:38	03:37:36	770646	5e405a1cfce14d29997364da	4	1	main_slash	11	main_slash	113	stimuli_distractor_diamondtriangles.svg	stimuli_target_squarediamonds.svg	16	yes	53	1	687	0	0			0	0			1				0	
6.6.1	win	2023-06-13	03:24:38	03:37:36	770646	5e405a1cfce14d29997364da	4	1	main_slash	11	advance_on_keypress_SLASH	114	stimuli_distractor_diamondtriangles.svg	stimuli_target_squarediamonds.svg	16	yes	57	0	564	0	0			0	0			1				0	
6.6.1	win	2023-06-13	03:24:38	03:37:38	772614	5e405a1cfce14d29997364da	4	1	main_slash	11	main_slash	115	stimuli_target_squarediamonds.svg	stimuli_distractor_diamondtriangles.svg	8	yes	53	1	758	0	0			0	0			1				0	
6.6.1	win	2023-06-13	03:24:38	03:37:38	772614	5e405a1cfce14d29997364da	4	1	main_slash	11	advance_on_keypress_SLASH	116	stimuli_target_squarediamonds.svg	stimuli_distractor_diamondtriangles.svg	8	yes	57	0	840	0	0			0	0			1				0	
6.6.1	win	2023-06-13	03:24:38	03:37:40	774685	5e405a1cfce14d29997364da	4	1	main_slash	11	main_slash	117	stimuli_distractor_diamondtriangles.svg	stimuli_target_squaretriangles.svg	15	yes	53	1	598	0	0			0	0			1				0	
6.6.1	win	2023-06-13	03:24:38	03:37:40	774685	5e405a1cfce14d29997364da	4	1	main_slash	11	advance_on_keypress_SLASH	118	stimuli_distractor_diamondtriangles.svg	stimuli_target_squaretriangles.svg	15	yes	57	0	647	0	0			0	0			1				0	
6.6.1	win	2023-06-13	03:24:38	03:37:42	776557	5e405a1cfce14d29997364da	4	1	main_slash	11	main_slash	119	stimuli_distractor_trianglediamonds.svg	stimuli_target_rectanglediamonds.svg	10	yes	53	1	574	0	0			0	0			1				0	
6.6.1	win	2023-06-13	03:24:38	03:37:42	776557	5e405a1cfce14d29997364da	4	1	main_slash	11	advance_on_keypress_SLASH	120	stimuli_distractor_trianglediamonds.svg	stimuli_target_rectanglediamonds.svg	10	yes	57	0	609	0	0			0	0			1				0	
6.6.1	win	2023-06-13	03:24:38	03:37:44	778314	5e405a1cfce14d29997364da	4	1	main_slash	11	main_slash	121	stimuli_distractor_diamondtriangles.svg	stimuli_distractor_diamondtriangles.svg	39	no	53	0	504	0	0			0	0			1				0	
6.6.1	win	2023-06-13	03:24:38	03:37:44	778314	5e405a1cfce14d29997364da	4	1	main_slash	11	advance_on_keypress_SLASH	122	stimuli_distractor_diamondtriangles.svg	stimuli_distractor_diamondtriangles.svg	39	no	57	0	621	0	0			0	0			1				0	
6.6.1	win	2023-06-13	03:24:38	03:37:47	781578	5e405a1cfce14d29997364da	4	1	main_slash	11	main_slash	123	stimuli_distractor_diamondtriangles.svg	stimuli_distractor_diamondtriangles.svg	40	no	0	1	2000	0	0			0	0			1				0	
6.6.1	win	2023-06-13	03:24:38	03:37:47	781578	5e405a1cfce14d29997364da	4	1	main_slash	11	advance_on_keypress_SLASH	124	stimuli_distractor_diamondtriangles.svg	stimuli_distractor_diamondtriangles.svg	40	no	57	0	670	0	0			0	0			1				0	
6.6.1	win	2023-06-13	03:24:38	03:37:49	783558	5e405a1cfce14d29997364da	4	1	main_slash	11	main_slash	125	stimuli_distractor_trianglediamonds.svg	stimuli_distractor_diamondtriangles.svg	35	no	53	0	669	0	0			0	0			1				0	
6.6.1	win	2023-06-13	03:24:38	03:37:49	783558	5e405a1cfce14d29997364da	4	1	main_slash	11	advance_on_keypress_SLASH	126	stimuli_distractor_trianglediamonds.svg	stimuli_distractor_diamondtriangles.svg	35	no	57	0	580	0	0			0	0			1				0	
6.6.1	win	2023-06-13	03:24:38	03:37:52	786786	5e405a1cfce14d29997364da	4	1	main_slash	11	main_slash	127	stimuli_target_trianglerectangles.svg	stimuli_distractor_diamondtriangles.svg	21	yes	0	0	2000	0	0			0	0			1				0	
6.6.1	win	2023-06-13	03:24:38	03:37:52	786786	5e405a1cfce14d29997364da	4	1	main_slash	11	advance_on_keypress_SLASH	128	stimuli_target_trianglerectangles.svg	stimuli_distractor_diamondtriangles.svg	21	yes	57	0	607	0	0			0	0			1				0	
6.6.1	win	2023-06-13	03:24:38	03:37:56	790031	5e405a1cfce14d29997364da	4	1	main_slash	11	main_slash	129	stimuli_distractor_diamondtriangles.svg	stimuli_target_trianglesquares.svg	30	yes	0	0	2000	0	0			0	0			1				0	
6.6.1	win	2023-06-13	03:24:38	03:37:56	790031	5e405a1cfce14d29997364da	4	1	main_slash	11	advance_on_keypress_SLASH	130	stimuli_distractor_diamondtriangles.svg	stimuli_target_trianglesquares.svg	30	yes	57	0	650	0	0			0	0			1				0	
6.6.1	win	2023-06-13	03:24:38	03:37:59	793326	5e405a1cfce14d29997364da	4	1	main_slash	11	main_slash	131	stimuli_target_trianglerectangles.svg	stimuli_distractor_trianglediamonds.svg	17	yes	0	0	2000	0	0			0	0			1				0	
6.6.1	win	2023-06-13	03:24:38	03:37:59	793326	5e405a1cfce14d29997364da	4	1	main_slash	11	advance_on_keypress_SLASH	132	stimuli_target_trianglerectangles.svg	stimuli_distractor_trianglediamonds.svg	17	yes	57	0	637	0	0			0	0			1				0	
6.6.1	win	2023-06-13	03:24:38	03:38:01	795269	5e405a1cfce14d29997364da	4	1	main_slash	11	main_slash	133	stimuli_target_rectangletriangles.svg	stimuli_distractor_trianglediamonds.svg	1	yes	53	1	665	0	0			0	0			1				0	
6.6.1	win	2023-06-13	03:24:38	03:38:01	795269	5e405a1cfce14d29997364da	4	1	main_slash	11	advance_on_keypress_SLASH	134	stimuli_target_rectangletriangles.svg	stimuli_distractor_trianglediamonds.svg	1	yes	57	0	656	0	0			0	0			1				0	
6.6.1	win	2023-06-13	03:24:38	03:38:03	797245	5e405a1cfce14d29997364da	4	1	main_slash	11	main_slash	135	stimuli_distractor_diamondtriangles.svg	stimuli_target_rectangletriangles.svg	13	yes	53	1	677	0	0			0	0			1				0	
6.6.1	win	2023-06-13	03:24:38	03:38:03	797245	5e405a1cfce14d29997364da	4	1	main_slash	11	advance_on_keypress_SLASH	136	stimuli_distractor_diamondtriangles.svg	stimuli_target_rectangletriangles.svg	13	yes	57	0	852	0	0			0	0			1				0	
6.6.1	win	2023-06-13	03:24:38	03:38:05	799374	5e405a1cfce14d29997364da	4	1	main_slash	11	main_slash	137	stimuli_distractor_diamondtriangles.svg	stimuli_target_rectanglediamonds.svg	14	yes	53	1	625	0	0			0	0			1				0	
6.6.1	win	2023-06-13	03:24:38	03:38:05	799374	5e405a1cfce14d29997364da	4	1	main_slash	11	advance_on_keypress_SLASH	138	stimuli_distractor_diamondtriangles.svg	stimuli_target_rectanglediamonds.svg	14	yes	57	0	577	0	0			0	0			1				0	
6.6.1	win	2023-06-13	03:24:38	03:38:08	802595	5e405a1cfce14d29997364da	4	1	main_slash	11	main_slash	139	stimuli_distractor_diamondtriangles.svg	stimuli_distractor_trianglediamonds.svg	37	no	0	1	2000	0	0			0	0			1				0	
6.6.1	win	2023-06-13	03:24:38	03:38:08	802595	5e405a1cfce14d29997364da	4	1	main_slash	11	advance_on_keypress_SLASH	140	stimuli_distractor_diamondtriangles.svg	stimuli_distractor_trianglediamonds.svg	37	no	57	0	741	0	0			0	0			1				0	
6.6.1	win	2023-06-13	03:24:38	03:38:10	804661	5e405a1cfce14d29997364da	4	1	main_slash	11	main_slash	141	stimuli_target_trianglesquares.svg	stimuli_distractor_diamondtriangles.svg	22	yes	53	1	687	0	0			0	0			1				0	
6.6.1	win	2023-06-13	03:24:38	03:38:10	804661	5e405a1cfce14d29997364da	4	1	main_slash	11	advance_on_keypress_SLASH	142	stimuli_target_trianglesquares.svg	stimuli_distractor_diamondtriangles.svg	22	yes	57	0	606	0	0			0	0			1				0	
6.6.1	win	2023-06-13	03:24:38	03:38:12	806470	5e405a1cfce14d29997364da	4	1	main_slash	11	main_slash	143	stimuli_target_rectanglediamonds.svg	stimuli_distractor_trianglediamonds.svg	2	yes	53	1	566	0	0			0	0			1				0	
6.6.1	win	2023-06-13	03:24:38	03:38:12	806470	5e405a1cfce14d29997364da	4	1	main_slash	11	advance_on_keypress_SLASH	144	stimuli_target_rectanglediamonds.svg	stimuli_distractor_trianglediamonds.svg	2	yes	57	0	568	0	0			0	0			1				0	
6.6.1	win	2023-06-13	03:24:38	03:38:14	808326	5e405a1cfce14d29997364da	4	1	main_slash	11	main_slash	145	stimuli_target_squaretriangles.svg	stimuli_distractor_trianglediamonds.svg	3	yes	53	1	641	0	0			0	0			1				0	
6.6.1	win	2023-06-13	03:24:38	03:38:14	808326	5e405a1cfce14d29997364da	4	1	main_slash	11	advance_on_keypress_SLASH	146	stimuli_target_squaretriangles.svg	stimuli_distractor_trianglediamonds.svg	3	yes	57	0	521	0	0			0	0			1				0	
6.6.1	win	2023-06-13	03:24:38	03:38:16	810014	5e405a1cfce14d29997364da	4	1	main_slash	11	main_slash	147	stimuli_target_rectanglediamonds.svg	stimuli_distractor_diamondtriangles.svg	6	yes	53	1	533	0	0			0	0			1				0	
6.6.1	win	2023-06-13	03:24:38	03:38:16	810014	5e405a1cfce14d29997364da	4	1	main_slash	11	advance_on_keypress_SLASH	148	stimuli_target_rectanglediamonds.svg	stimuli_distractor_diamondtriangles.svg	6	yes	57	0	617	0	0			0	0			1				0	
6.6.1	win	2023-06-13	03:24:38	03:38:17	811813	5e405a1cfce14d29997364da	4	1	main_slash	11	main_slash	149	stimuli_target_diamondrectangles.svg	stimuli_distractor_diamondtriangles.svg	23	yes	53	1	534	0	0			0	0			1				0	
6.6.1	win	2023-06-13	03:24:38	03:38:17	811813	5e405a1cfce14d29997364da	4	1	main_slash	11	advance_on_keypress_SLASH	150	stimuli_target_diamondrectangles.svg	stimuli_distractor_diamondtriangles.svg	23	yes	57	0	547	0	0			0	0			1				0	
6.6.1	win	2023-06-13	03:24:38	03:38:21	815009	5e405a1cfce14d29997364da	4	1	main_slash	11	main_slash	151	stimuli_distractor_trianglediamonds.svg	stimuli_target_diamondrectangles.svg	27	yes	0	0	2000	0	0			0	0			1				0	
6.6.1	win	2023-06-13	03:24:38	03:38:21	815009	5e405a1cfce14d29997364da	4	1	main_slash	11	advance_on_keypress_SLASH	152	stimuli_distractor_trianglediamonds.svg	stimuli_target_diamondrectangles.svg	27	yes	57	0	679	0	0			0	0			1				0	
6.6.1	win	2023-06-13	03:24:38	03:38:24	818337	5e405a1cfce14d29997364da	4	1	main_slash	11	main_slash	153	stimuli_distractor_trianglediamonds.svg	stimuli_target_trianglesquares.svg	26	yes	0	0	2000	0	0			0	0			1				0	
6.6.1	win	2023-06-13	03:24:38	03:38:24	818337	5e405a1cfce14d29997364da	4	1	main_slash	11	advance_on_keypress_SLASH	154	stimuli_distractor_trianglediamonds.svg	stimuli_target_trianglesquares.svg	26	yes	57	0	713	0	0			0	0			1				0	
6.6.1	win	2023-06-13	03:24:38	03:38:27	821699	5e405a1cfce14d29997364da	4	1	main_slash	11	main_slash	155	stimuli_distractor_trianglediamonds.svg	stimuli_distractor_diamondtriangles.svg	36	no	0	1	2000	0	0			0	0			1				0	
6.6.1	win	2023-06-13	03:24:38	03:38:27	821699	5e405a1cfce14d29997364da	4	1	main_slash	11	advance_on_keypress_SLASH	156	stimuli_distractor_trianglediamonds.svg	stimuli_distractor_diamondtriangles.svg	36	no	57	0	782	0	0			0	0			1				0	
6.6.1	win	2023-06-13	03:24:38	03:38:31	825127	5e405a1cfce14d29997364da	4	1	main_slash	11	main_slash	157	stimuli_distractor_trianglediamonds.svg	stimuli_target_trianglerectangles.svg	25	yes	0	0	2000	0	0			0	0			1				0	
6.6.1	win	2023-06-13	03:24:38	03:38:31	825127	5e405a1cfce14d29997364da	4	1	main_slash	11	advance_on_keypress_SLASH	158	stimuli_distractor_trianglediamonds.svg	stimuli_target_trianglerectangles.svg	25	yes	57	0	604	0	0			0	0			1				0	
6.6.1	win	2023-06-13	03:24:38	03:38:33	827133	5e405a1cfce14d29997364da	4	1	main_slash	11	main_slash	159	stimuli_distractor_trianglediamonds.svg	stimuli_target_squarediamonds.svg	12	yes	53	1	762	0	0			0	0			1				0	
6.6.1	win	2023-06-13	03:24:38	03:38:33	827133	5e405a1cfce14d29997364da	4	1	main_slash	11	advance_on_keypress_SLASH	160	stimuli_distractor_trianglediamonds.svg	stimuli_target_squarediamonds.svg	12	yes	57	0	539	0	0			0	0			1				0	
6.6.1	win	2023-06-13	03:24:38	03:38:33	827133	5e405a1cfce14d29997364da	4	1	headphonecheck_calibration	14	headphonecheck_calibrationIntro	1	stimuli_distractor_trianglediamonds.svg	stimuli_target_squarediamonds.svg	12	yes	calibrationButton	0	2227	0	0			0	0			1				0	
6.6.1	win	2023-06-13	03:24:38	03:38:33	827133	5e405a1cfce14d29997364da	4	1	headphonecheck_testphase	15	test_collectResponse	3	stimuli_distractor_trianglediamonds.svg	stimuli_target_squarediamonds.svg	12	yes	first	0	11593	1	5	antiphase_hc_osi.wav	2	0	0			1				0	
6.6.1	win	2023-06-13	03:24:38	03:38:33	827133	5e405a1cfce14d29997364da	4	1	headphonecheck_testphase	15	test_collectResponse	6	stimuli_distractor_trianglediamonds.svg	stimuli_target_squarediamonds.svg	12	yes	first	1	846	2	4	antiphase_hc_sio.wav	1	0	0			1				0	
6.6.1	win	2023-06-13	03:24:38	03:38:33	827133	5e405a1cfce14d29997364da	4	1	headphonecheck_testphase	15	test_collectResponse	9	stimuli_distractor_trianglediamonds.svg	stimuli_target_squarediamonds.svg	12	yes	first	1	797	3	3	antiphase_hc_soi.wav	1	0	0			1				0	
6.6.1	win	2023-06-13	03:24:38	03:38:33	827133	5e405a1cfce14d29997364da	4	1	headphonecheck_testphase	15	test_collectResponse	12	stimuli_distractor_trianglediamonds.svg	stimuli_target_squarediamonds.svg	12	yes	third	1	668	4	6	antiphase_hc_ois.wav	3	0	0			1				0	
6.6.1	win	2023-06-13	03:24:38	03:38:33	827133	5e405a1cfce14d29997364da	4	1	headphonecheck_testphase	15	test_collectResponse	15	stimuli_distractor_trianglediamonds.svg	stimuli_target_squarediamonds.svg	12	yes	third	1	769	5	2	antiphase_hc_ios.wav	3	0	0			1				0	
6.6.1	win	2023-06-13	03:24:38	03:38:33	827133	5e405a1cfce14d29997364da	4	1	headphonecheck_testphase	15	test_collectResponse	18	stimuli_distractor_trianglediamonds.svg	stimuli_target_squarediamonds.svg	12	yes	second	1	773	6	1	antiphase_hc_iso.wav	2	0	0			1				0	
6.6.1	win	2023-06-13	03:24:38	03:38:33	827133	5e405a1cfce14d29997364da	4	1	stereocheck_calibration	17	stereocheck_calibrationIntro	1	stimuli_distractor_trianglediamonds.svg	stimuli_target_squarediamonds.svg	12	yes	stereocheck_calibrationButton	0	3562	6	1	antiphase_hc_iso.wav	2	0	0			1				0	
6.6.1	win	2023-06-13	03:24:38	03:38:33	827133	5e405a1cfce14d29997364da	4	1	stereocheck_testphase	18	stereocheck_test_collectResponse	3	stimuli_distractor_trianglediamonds.svg	stimuli_target_squarediamonds.svg	12	yes	stereocheck_left	1	843	6	1	antiphase_hc_iso.wav	2	1	1	noise_calib_stim_LEFT.wav	1	1				0	
6.6.1	win	2023-06-13	03:24:38	03:38:33	827133	5e405a1cfce14d29997364da	4	1	stereocheck_testphase	18	stereocheck_test_collectResponse	6	stimuli_distractor_trianglediamonds.svg	stimuli_target_squarediamonds.svg	12	yes	stereocheck_right	1	686	6	1	antiphase_hc_iso.wav	2	2	5	noise_calib_stim_RIGHT.wav	2	1				0	
6.6.1	win	2023-06-13	03:24:38	03:38:33	827133	5e405a1cfce14d29997364da	4	1	stereocheck_testphase	18	stereocheck_test_collectResponse	9	stimuli_distractor_trianglediamonds.svg	stimuli_target_squarediamonds.svg	12	yes	stereocheck_left	1	741	6	1	antiphase_hc_iso.wav	2	3	3	noise_calib_stim_LEFT.wav	1	1				0	
6.6.1	win	2023-06-13	03:24:38	03:38:33	827133	5e405a1cfce14d29997364da	4	1	stereocheck_testphase	18	stereocheck_test_collectResponse	12	stimuli_distractor_trianglediamonds.svg	stimuli_target_squarediamonds.svg	12	yes	stereocheck_left	1	647	6	1	antiphase_hc_iso.wav	2	4	2	noise_calib_stim_LEFT.wav	1	1				0	
6.6.1	win	2023-06-13	03:24:38	03:38:33	827133	5e405a1cfce14d29997364da	4	1	stereocheck_testphase	18	stereocheck_test_collectResponse	15	stimuli_distractor_trianglediamonds.svg	stimuli_target_squarediamonds.svg	12	yes	stereocheck_right	1	448	6	1	antiphase_hc_iso.wav	2	5	4	noise_calib_stim_RIGHT.wav	2	1				0	
6.6.1	win	2023-06-13	03:24:38	03:38:33	827133	5e405a1cfce14d29997364da	4	1	stereocheck_testphase	18	stereocheck_test_collectResponse	18	stimuli_distractor_trianglediamonds.svg	stimuli_target_squarediamonds.svg	12	yes	stereocheck_right	1	1300	6	1	antiphase_hc_iso.wav	2	6	6	noise_calib_stim_RIGHT.wav	2	1				0	
6.6.1	win	2023-06-13	03:24:38	03:38:33	827133	5e405a1cfce14d29997364da	4	1	DL_practice	21	DL_practice	2	stimuli_distractor_trianglediamonds.svg	stimuli_target_squarediamonds.svg	12	yes	da	1	1665	6	1	antiphase_hc_iso.wav	2	6	6	noise_calib_stim_RIGHT.wav	2	7	blb_dichoticlistening_da-ba.mp3	da	ba	1	left
6.6.1	win	2023-06-13	03:24:38	03:38:33	827133	5e405a1cfce14d29997364da	4	1	DL_practice	21	DL_practice	3	stimuli_distractor_trianglediamonds.svg	stimuli_target_squarediamonds.svg	12	yes	ta	1	1766	6	1	antiphase_hc_iso.wav	2	6	6	noise_calib_stim_RIGHT.wav	2	36	blb_dichoticlistening_ta-ta.mp3	ta	ta	0	left
6.6.1	win	2023-06-13	03:24:38	03:38:33	827133	5e405a1cfce14d29997364da	4	1	DL_practice	21	DL_practice	4	stimuli_distractor_trianglediamonds.svg	stimuli_target_squarediamonds.svg	12	yes	ga	1	1547	6	1	antiphase_hc_iso.wav	2	6	6	noise_calib_stim_RIGHT.wav	2	15	blb_dichoticlistening_ga-ga.mp3	ga	ga	0	left
6.6.1	win	2023-06-13	03:24:38	03:38:33	827133	5e405a1cfce14d29997364da	4	1	DL_practice	21	DL_practice	5	stimuli_distractor_trianglediamonds.svg	stimuli_target_squarediamonds.svg	12	yes	ba	1	1706	6	1	antiphase_hc_iso.wav	2	6	6	noise_calib_stim_RIGHT.wav	2	1	blb_dichoticlistening_ba-ba.mp3	ba	ba	0	left
6.6.1	win	2023-06-13	03:24:38	03:38:33	827133	5e405a1cfce14d29997364da	4	1	DL_practice	21	DL_practice	6	stimuli_distractor_trianglediamonds.svg	stimuli_target_squarediamonds.svg	12	yes	da	1	2122	6	1	antiphase_hc_iso.wav	2	6	6	noise_calib_stim_RIGHT.wav	2	8	blb_dichoticlistening_da-da.mp3	da	da	0	left
6.6.1	win	2023-06-13	03:24:38	03:38:33	827133	5e405a1cfce14d29997364da	4	1	DL_practice	21	DL_practice	7	stimuli_distractor_trianglediamonds.svg	stimuli_target_squarediamonds.svg	12	yes	pa	1	1865	6	1	antiphase_hc_iso.wav	2	6	6	noise_calib_stim_RIGHT.wav	2	29	blb_dichoticlistening_pa-pa.mp3	pa	pa	0	left
6.6.1	win	2023-06-13	03:24:38	03:38:33	827133	5e405a1cfce14d29997364da	4	1	DL_practice	21	DL_practice	8	stimuli_distractor_trianglediamonds.svg	stimuli_target_squarediamonds.svg	12	yes	ka	1	1746	6	1	antiphase_hc_iso.wav	2	6	6	noise_calib_stim_RIGHT.wav	2	23	blb_dichoticlistening_ka-pa.mp3	ka	pa	1	left
6.6.1	win	2023-06-13	03:24:38	03:38:33	827133	5e405a1cfce14d29997364da	4	1	DL_practice	21	DL_practice	9	stimuli_distractor_trianglediamonds.svg	stimuli_target_squarediamonds.svg	12	yes	ga	1	1690	6	1	antiphase_hc_iso.wav	2	6	6	noise_calib_stim_RIGHT.wav	2	18	blb_dichoticlistening_ga-ta.mp3	ga	ta	1	left
6.6.1	win	2023-06-13	03:24:38	03:38:33	827133	5e405a1cfce14d29997364da	4	1	DL_practice	21	DL_practice	10	stimuli_distractor_trianglediamonds.svg	stimuli_target_squarediamonds.svg	12	yes	ka	1	2240	6	1	antiphase_hc_iso.wav	2	6	6	noise_calib_stim_RIGHT.wav	2	22	blb_dichoticlistening_ka-ka.mp3	ka	ka	0	left
6.6.1	win	2023-06-13	03:24:38	03:38:33	827133	5e405a1cfce14d29997364da	4	1	DL_test	23	DL_test	1	stimuli_distractor_trianglediamonds.svg	stimuli_target_squarediamonds.svg	12	yes	da	1	2332	6	1	antiphase_hc_iso.wav	2	6	6	noise_calib_stim_RIGHT.wav	2	2	blb_dichoticlistening_ba-da.mp3	ba	da	1	right
6.6.1	win	2023-06-13	03:24:38	03:38:33	827133	5e405a1cfce14d29997364da	4	1	DL_test	23	DL_test	2	stimuli_distractor_trianglediamonds.svg	stimuli_target_squarediamonds.svg	12	yes	ta	0	3322	6	1	antiphase_hc_iso.wav	2	6	6	noise_calib_stim_RIGHT.wav	2	26	blb_dichoticlistening_pa-da.mp3	pa	da	1	other
6.6.1	win	2023-06-13	03:24:38	03:38:33	827133	5e405a1cfce14d29997364da	4	1	DL_test	23	DL_test	3	stimuli_distractor_trianglediamonds.svg	stimuli_target_squarediamonds.svg	12	yes	ka	1	1392	6	1	antiphase_hc_iso.wav	2	6	6	noise_calib_stim_RIGHT.wav	2	23	blb_dichoticlistening_ka-pa.mp3	ka	pa	1	left
6.6.1	win	2023-06-13	03:24:38	03:38:33	827133	5e405a1cfce14d29997364da	4	1	DL_test	23	DL_test	4	stimuli_distractor_trianglediamonds.svg	stimuli_target_squarediamonds.svg	12	yes	ga	1	1542	6	1	antiphase_hc_iso.wav	2	6	6	noise_calib_stim_RIGHT.wav	2	15	blb_dichoticlistening_ga-ga.mp3	ga	ga	0	left
6.6.1	win	2023-06-13	03:24:38	03:38:33	827133	5e405a1cfce14d29997364da	4	1	DL_test	23	DL_test	5	stimuli_distractor_trianglediamonds.svg	stimuli_target_squarediamonds.svg	12	yes	ka	1	1575	6	1	antiphase_hc_iso.wav	2	6	6	noise_calib_stim_RIGHT.wav	2	24	blb_dichoticlistening_ka-ta.mp3	ka	ta	1	left
6.6.1	win	2023-06-13	03:24:38	03:38:33	827133	5e405a1cfce14d29997364da	4	1	DL_test	23	DL_test	6	stimuli_distractor_trianglediamonds.svg	stimuli_target_squarediamonds.svg	12	yes	pa	1	1537	6	1	antiphase_hc_iso.wav	2	6	6	noise_calib_stim_RIGHT.wav	2	5	blb_dichoticlistening_ba-pa.mp3	ba	pa	1	right
6.6.1	win	2023-06-13	03:24:38	03:38:33	827133	5e405a1cfce14d29997364da	4	1	DL_test	23	DL_test	7	stimuli_distractor_trianglediamonds.svg	stimuli_target_squarediamonds.svg	12	yes	ka	0	1449	6	1	antiphase_hc_iso.wav	2	6	6	noise_calib_stim_RIGHT.wav	2	6	blb_dichoticlistening_ba-ta.mp3	ba	ta	1	other
6.6.1	win	2023-06-13	03:24:38	03:38:33	827133	5e405a1cfce14d29997364da	4	1	DL_test	23	DL_test	8	stimuli_distractor_trianglediamonds.svg	stimuli_target_squarediamonds.svg	12	yes	pa	1	1588	6	1	antiphase_hc_iso.wav	2	6	6	noise_calib_stim_RIGHT.wav	2	25	blb_dichoticlistening_pa-ba.mp3	pa	ba	1	left
6.6.1	win	2023-06-13	03:24:38	03:38:33	827133	5e405a1cfce14d29997364da	4	1	DL_test	23	DL_test	9	stimuli_distractor_trianglediamonds.svg	stimuli_target_squarediamonds.svg	12	yes	ka	0	2265	6	1	antiphase_hc_iso.wav	2	6	6	noise_calib_stim_RIGHT.wav	2	12	blb_dichoticlistening_da-ta.mp3	da	ta	1	other
6.6.1	win	2023-06-13	03:24:38	03:38:33	827133	5e405a1cfce14d29997364da	4	1	DL_test	23	DL_test	10	stimuli_distractor_trianglediamonds.svg	stimuli_target_squarediamonds.svg	12	yes	pa	1	1485	6	1	antiphase_hc_iso.wav	2	6	6	noise_calib_stim_RIGHT.wav	2	29	blb_dichoticlistening_pa-pa.mp3	pa	pa	0	left
6.6.1	win	2023-06-13	03:24:38	03:38:33	827133	5e405a1cfce14d29997364da	4	1	DL_test	23	DL_test	11	stimuli_distractor_trianglediamonds.svg	stimuli_target_squarediamonds.svg	12	yes	da	0	4362	6	1	antiphase_hc_iso.wav	2	6	6	noise_calib_stim_RIGHT.wav	2	13	blb_dichoticlistening_ga-ba.mp3	ga	ba	1	other
6.6.1	win	2023-06-13	03:24:38	03:38:33	827133	5e405a1cfce14d29997364da	4	1	DL_test	23	DL_test	12	stimuli_distractor_trianglediamonds.svg	stimuli_target_squarediamonds.svg	12	yes	ga	1	1239	6	1	antiphase_hc_iso.wav	2	6	6	noise_calib_stim_RIGHT.wav	2	33	blb_dichoticlistening_ta-ga.mp3	ta	ga	1	right
6.6.1	win	2023-06-13	03:24:38	03:38:33	827133	5e405a1cfce14d29997364da	4	1	DL_test	23	DL_test	13	stimuli_distractor_trianglediamonds.svg	stimuli_target_squarediamonds.svg	12	yes	ka	1	1254	6	1	antiphase_hc_iso.wav	2	6	6	noise_calib_stim_RIGHT.wav	2	28	blb_dichoticlistening_pa-ka.mp3	pa	ka	1	right
6.6.1	win	2023-06-13	03:24:38	03:38:33	827133	5e405a1cfce14d29997364da	4	1	DL_test	23	DL_test	14	stimuli_distractor_trianglediamonds.svg	stimuli_target_squarediamonds.svg	12	yes	ka	0	1271	6	1	antiphase_hc_iso.wav	2	6	6	noise_calib_stim_RIGHT.wav	2	30	blb_dichoticlistening_pa-ta.mp3	pa	ta	1	other
6.6.1	win	2023-06-13	03:24:38	03:38:33	827133	5e405a1cfce14d29997364da	4	1	DL_test	23	DL_test	15	stimuli_distractor_trianglediamonds.svg	stimuli_target_squarediamonds.svg	12	yes	ka	0	1640	6	1	antiphase_hc_iso.wav	2	6	6	noise_calib_stim_RIGHT.wav	2	27	blb_dichoticlistening_pa-ga.mp3	pa	ga	1	other
6.6.1	win	2023-06-13	03:24:38	03:38:33	827133	5e405a1cfce14d29997364da	4	1	DL_test	23	DL_test	16	stimuli_distractor_trianglediamonds.svg	stimuli_target_squarediamonds.svg	12	yes	ga	1	1223	6	1	antiphase_hc_iso.wav	2	6	6	noise_calib_stim_RIGHT.wav	2	14	blb_dichoticlistening_ga-da.mp3	ga	da	1	left
6.6.1	win	2023-06-13	03:24:38	03:38:33	827133	5e405a1cfce14d29997364da	4	1	DL_test	23	DL_test	17	stimuli_distractor_trianglediamonds.svg	stimuli_target_squarediamonds.svg	12	yes	da	1	1977	6	1	antiphase_hc_iso.wav	2	6	6	noise_calib_stim_RIGHT.wav	2	7	blb_dichoticlistening_da-ba.mp3	da	ba	1	left
6.6.1	win	2023-06-13	03:24:38	03:38:33	827133	5e405a1cfce14d29997364da	4	1	DL_test	23	DL_test	18	stimuli_distractor_trianglediamonds.svg	stimuli_target_squarediamonds.svg	12	yes	ka	1	2518	6	1	antiphase_hc_iso.wav	2	6	6	noise_calib_stim_RIGHT.wav	2	22	blb_dichoticlistening_ka-ka.mp3	ka	ka	0	left
6.6.1	win	2023-06-13	03:24:38	03:38:33	827133	5e405a1cfce14d29997364da	4	1	DL_test	23	DL_test	19	stimuli_distractor_trianglediamonds.svg	stimuli_target_squarediamonds.svg	12	yes	pa	0	2186	6	1	antiphase_hc_iso.wav	2	6	6	noise_calib_stim_RIGHT.wav	2	19	blb_dichoticlistening_ka-ba.mp3	ka	ba	1	other
6.6.1	win	2023-06-13	03:24:38	03:38:33	827133	5e405a1cfce14d29997364da	4	1	DL_test	23	DL_test	20	stimuli_distractor_trianglediamonds.svg	stimuli_target_squarediamonds.svg	12	yes	ka	1	2460	6	1	antiphase_hc_iso.wav	2	6	6	noise_calib_stim_RIGHT.wav	2	10	blb_dichoticlistening_da-ka.mp3	da	ka	1	right
6.6.1	win	2023-06-13	03:24:38	03:38:33	827133	5e405a1cfce14d29997364da	4	1	DL_test	23	DL_test	21	stimuli_distractor_trianglediamonds.svg	stimuli_target_squarediamonds.svg	12	yes	ga	1	1152	6	1	antiphase_hc_iso.wav	2	6	6	noise_calib_stim_RIGHT.wav	2	9	blb_dichoticlistening_da-ga.mp3	da	ga	1	right
6.6.1	win	2023-06-13	03:24:38	03:38:33	827133	5e405a1cfce14d29997364da	4	1	DL_test	23	DL_test	22	stimuli_distractor_trianglediamonds.svg	stimuli_target_squarediamonds.svg	12	yes	ka	0	1234	6	1	antiphase_hc_iso.wav	2	6	6	noise_calib_stim_RIGHT.wav	2	18	blb_dichoticlistening_ga-ta.mp3	ga	ta	1	other
6.6.1	win	2023-06-13	03:24:38	03:38:33	827133	5e405a1cfce14d29997364da	4	1	DL_test	23	DL_test	23	stimuli_distractor_trianglediamonds.svg	stimuli_target_squarediamonds.svg	12	yes	ta	1	2236	6	1	antiphase_hc_iso.wav	2	6	6	noise_calib_stim_RIGHT.wav	2	35	blb_dichoticlistening_ta-pa.mp3	ta	pa	1	left
6.6.1	win	2023-06-13	03:24:38	03:38:33	827133	5e405a1cfce14d29997364da	4	1	DL_test	23	DL_test	24	stimuli_distractor_trianglediamonds.svg	stimuli_target_squarediamonds.svg	12	yes	ga	1	1591	6	1	antiphase_hc_iso.wav	2	6	6	noise_calib_stim_RIGHT.wav	2	21	blb_dichoticlistening_ka-ga.mp3	ka	ga	1	right
6.6.1	win	2023-06-13	03:24:38	03:38:33	827133	5e405a1cfce14d29997364da	4	1	DL_test	23	DL_test	25	stimuli_distractor_trianglediamonds.svg	stimuli_target_squarediamonds.svg	12	yes	pa	0	1740	6	1	antiphase_hc_iso.wav	2	6	6	noise_calib_stim_RIGHT.wav	2	1	blb_dichoticlistening_ba-ba.mp3	ba	ba	0	other
6.6.1	win	2023-06-13	03:24:38	03:38:33	827133	5e405a1cfce14d29997364da	4	1	DL_test	23	DL_test	26	stimuli_distractor_trianglediamonds.svg	stimuli_target_squarediamonds.svg	12	yes	ka	1	2047	6	1	antiphase_hc_iso.wav	2	6	6	noise_calib_stim_RIGHT.wav	2	4	blb_dichoticlistening_ba-ka.mp3	ba	ka	1	right
