build	computer.platform	date	time	timestamp	time_elapsed_ms	subject	group	session	blockcode	blocknum	trialcode	trialnum	stimulus_left	stimulus_right	stim_index	target_present	response	correct	latency	headphonecheck_countTestTrials	headphonecheck_index	headphonecheck_testSound	headphonecheck_correctResponse	stereocheck_countTestTrials	stereocheck_index	stereocheck_testSound	stereocheck_correctResponse	DL_index	DL_soundfile	DL_leftSound	DL_rightSound	DL_dualSound	DL_choice
6.6.1	win	2023-06-27	19:27:05	19:30:35	204897	632b19a12e685b61f1ac6508	4	1	practice_z	5	practice_z	1	stimuli_distractor_trianglediamonds.svg	stimuli_target_diamondrectangles.svg	12	yes	44	1	1940	0	0			0	0			1				0	
6.6.1	win	2023-06-27	19:27:05	19:30:35	204897	632b19a12e685b61f1ac6508	4	1	practice_z	5	advance_on_keypress_ZEE	2	stimuli_distractor_trianglediamonds.svg	stimuli_target_diamondrectangles.svg	12	yes	57	0	2769	0	0			0	0			1				0	
6.6.1	win	2023-06-27	19:27:05	19:30:41	210650	632b19a12e685b61f1ac6508	4	1	practice_z	5	practice_z	3	stimuli_distractor_diamondtriangles.svg	stimuli_target_diamondrectangles.svg	8	yes	44	1	1327	0	0			0	0			1				0	
6.6.1	win	2023-06-27	19:27:05	19:30:41	210650	632b19a12e685b61f1ac6508	4	1	practice_z	5	advance_on_keypress_ZEE	4	stimuli_distractor_diamondtriangles.svg	stimuli_target_diamondrectangles.svg	8	yes	57	0	1702	0	0			0	0			1				0	
6.6.1	win	2023-06-27	19:27:05	19:30:45	214922	632b19a12e685b61f1ac6508	4	1	practice_z	5	practice_z	5	stimuli_target_rectanglediamonds.svg	stimuli_distractor_diamondtriangles.svg	1	yes	44	1	917	0	0			0	0			1				0	
6.6.1	win	2023-06-27	19:27:05	19:30:45	214922	632b19a12e685b61f1ac6508	4	1	practice_z	5	advance_on_keypress_ZEE	6	stimuli_target_rectanglediamonds.svg	stimuli_distractor_diamondtriangles.svg	1	yes	57	0	1217	0	0			0	0			1				0	
6.6.1	win	2023-06-27	19:27:05	19:30:50	219788	632b19a12e685b61f1ac6508	4	1	practice_z	5	practice_z	7	stimuli_distractor_trianglediamonds.svg	stimuli_distractor_diamondtriangles.svg	16	no	0	1	2000	0	0			0	0			1				0	
6.6.1	win	2023-06-27	19:27:05	19:30:50	219788	632b19a12e685b61f1ac6508	4	1	practice_z	5	advance_on_keypress_ZEE	8	stimuli_distractor_trianglediamonds.svg	stimuli_distractor_diamondtriangles.svg	16	no	57	0	1016	0	0			0	0			1				0	
6.6.1	win	2023-06-27	19:27:05	19:30:54	224455	632b19a12e685b61f1ac6508	4	1	practice_z	5	practice_z	9	stimuli_target_diamondsquares.svg	stimuli_distractor_diamondtriangles.svg	3	yes	0	0	2000	0	0			0	0			1				0	
6.6.1	win	2023-06-27	19:27:05	19:30:54	224455	632b19a12e685b61f1ac6508	4	1	practice_z	5	advance_on_keypress_ZEE	10	stimuli_target_diamondsquares.svg	stimuli_distractor_diamondtriangles.svg	3	yes	57	0	906	0	0			0	0			1				0	
6.6.1	win	2023-06-27	19:27:05	19:30:59	228941	632b19a12e685b61f1ac6508	4	1	practice_z	5	practice_z	11	stimuli_distractor_diamondtriangles.svg	stimuli_distractor_diamondtriangles.svg	13	no	44	0	1937	0	0			0	0			1				0	
6.6.1	win	2023-06-27	19:27:05	19:30:59	228941	632b19a12e685b61f1ac6508	4	1	practice_z	5	advance_on_keypress_ZEE	12	stimuli_distractor_diamondtriangles.svg	stimuli_distractor_diamondtriangles.svg	13	no	57	0	542	0	0			0	0			1				0	
6.6.1	win	2023-06-27	19:27:05	19:31:02	231876	632b19a12e685b61f1ac6508	4	1	practice_z	5	practice_z	13	stimuli_distractor_trianglediamonds.svg	stimuli_target_squarediamonds.svg	11	yes	44	1	738	0	0			0	0			1				0	
6.6.1	win	2023-06-27	19:27:05	19:31:02	231876	632b19a12e685b61f1ac6508	4	1	practice_z	5	advance_on_keypress_ZEE	14	stimuli_distractor_trianglediamonds.svg	stimuli_target_squarediamonds.svg	11	yes	57	0	1150	0	0			0	0			1				0	
6.6.1	win	2023-06-27	19:27:05	19:31:07	236613	632b19a12e685b61f1ac6508	4	1	practice_z	5	practice_z	15	stimuli_target_diamondsquares.svg	stimuli_distractor_trianglediamonds.svg	6	yes	44	1	1942	0	0			0	0			1				0	
6.6.1	win	2023-06-27	19:27:05	19:31:07	236613	632b19a12e685b61f1ac6508	4	1	practice_z	5	advance_on_keypress_ZEE	16	stimuli_target_diamondsquares.svg	stimuli_distractor_trianglediamonds.svg	6	yes	57	0	702	0	0			0	0			1				0	
6.6.1	win	2023-06-27	19:27:05	19:31:11	240954	632b19a12e685b61f1ac6508	4	1	practice_z	5	practice_z	17	stimuli_distractor_diamondtriangles.svg	stimuli_distractor_trianglediamonds.svg	14	no	0	1	2000	0	0			0	0			1				0	
6.6.1	win	2023-06-27	19:27:05	19:31:11	240954	632b19a12e685b61f1ac6508	4	1	practice_z	5	advance_on_keypress_ZEE	18	stimuli_distractor_diamondtriangles.svg	stimuli_distractor_trianglediamonds.svg	14	no	57	0	713	0	0			0	0			1				0	
6.6.1	win	2023-06-27	19:27:05	19:31:15	244848	632b19a12e685b61f1ac6508	4	1	practice_z	5	practice_z	19	stimuli_distractor_diamondtriangles.svg	stimuli_target_trianglerectangles.svg	9	yes	44	1	1527	0	0			0	0			1				0	
6.6.1	win	2023-06-27	19:27:05	19:31:15	244848	632b19a12e685b61f1ac6508	4	1	practice_z	5	advance_on_keypress_ZEE	20	stimuli_distractor_diamondtriangles.svg	stimuli_target_trianglerectangles.svg	9	yes	57	0	537	0	0			0	0			1				0	
6.6.1	win	2023-06-27	19:27:05	19:31:18	247920	632b19a12e685b61f1ac6508	4	1	practice_z	5	practice_z	21	stimuli_target_squarediamonds.svg	stimuli_distractor_diamondtriangles.svg	2	yes	44	1	884	0	0			0	0			1				0	
6.6.1	win	2023-06-27	19:27:05	19:31:18	247920	632b19a12e685b61f1ac6508	4	1	practice_z	5	advance_on_keypress_ZEE	22	stimuli_target_squarediamonds.svg	stimuli_distractor_diamondtriangles.svg	2	yes	57	0	637	0	0			0	0			1				0	
6.6.1	win	2023-06-27	19:27:05	19:31:21	251002	632b19a12e685b61f1ac6508	4	1	practice_z	5	practice_z	23	stimuli_target_rectanglediamonds.svg	stimuli_distractor_trianglediamonds.svg	4	yes	44	1	800	0	0			0	0			1				0	
6.6.1	win	2023-06-27	19:27:05	19:31:21	251002	632b19a12e685b61f1ac6508	4	1	practice_z	5	advance_on_keypress_ZEE	24	stimuli_target_rectanglediamonds.svg	stimuli_distractor_trianglediamonds.svg	4	yes	57	0	572	0	0			0	0			1				0	
6.6.1	win	2023-06-27	19:27:05	19:31:24	253846	632b19a12e685b61f1ac6508	4	1	practice_z	5	practice_z	25	stimuli_target_squarediamonds.svg	stimuli_distractor_trianglediamonds.svg	5	yes	44	1	627	0	0			0	0			1				0	
6.6.1	win	2023-06-27	19:27:05	19:31:24	253846	632b19a12e685b61f1ac6508	4	1	practice_z	5	advance_on_keypress_ZEE	26	stimuli_target_squarediamonds.svg	stimuli_distractor_trianglediamonds.svg	5	yes	57	0	557	0	0			0	0			1				0	
6.6.1	win	2023-06-27	19:27:05	19:31:28	258052	632b19a12e685b61f1ac6508	4	1	practice_z	5	practice_z	27	stimuli_distractor_trianglediamonds.svg	stimuli_distractor_trianglediamonds.svg	15	no	0	1	2000	0	0			0	0			1				0	
6.6.1	win	2023-06-27	19:27:05	19:31:28	258052	632b19a12e685b61f1ac6508	4	1	practice_z	5	advance_on_keypress_ZEE	28	stimuli_distractor_trianglediamonds.svg	stimuli_distractor_trianglediamonds.svg	15	no	57	0	834	0	0			0	0			1				0	
6.6.1	win	2023-06-27	19:27:05	19:31:31	261250	632b19a12e685b61f1ac6508	4	1	practice_z	5	practice_z	29	stimuli_distractor_trianglediamonds.svg	stimuli_target_rectanglediamonds.svg	10	yes	44	1	716	0	0			0	0			1				0	
6.6.1	win	2023-06-27	19:27:05	19:31:31	261250	632b19a12e685b61f1ac6508	4	1	practice_z	5	advance_on_keypress_ZEE	30	stimuli_distractor_trianglediamonds.svg	stimuli_target_rectanglediamonds.svg	10	yes	57	0	1182	0	0			0	0			1				0	
6.6.1	win	2023-06-27	19:27:05	19:31:35	264622	632b19a12e685b61f1ac6508	4	1	practice_z	5	practice_z	31	stimuli_distractor_diamondtriangles.svg	stimuli_target_rectangletriangles.svg	7	yes	44	1	538	0	0			0	0			1				0	
6.6.1	win	2023-06-27	19:27:05	19:31:35	264622	632b19a12e685b61f1ac6508	4	1	practice_z	5	advance_on_keypress_ZEE	32	stimuli_distractor_diamondtriangles.svg	stimuli_target_rectangletriangles.svg	7	yes	57	0	534	0	0			0	0			1				0	
6.6.1	win	2023-06-27	19:27:05	19:37:37	626908	632b19a12e685b61f1ac6508	4	1	main_z	7	main_z	1	stimuli_distractor_diamondtriangles.svg	stimuli_target_rectanglediamonds.svg	14	yes	44	1	666	0	0			0	0			1				0	
6.6.1	win	2023-06-27	19:27:05	19:37:37	626908	632b19a12e685b61f1ac6508	4	1	main_z	7	advance_on_keypress_ZEE	2	stimuli_distractor_diamondtriangles.svg	stimuli_target_rectanglediamonds.svg	14	yes	57	0	6852	0	0			0	0			1				0	
6.6.1	win	2023-06-27	19:27:05	19:37:46	636408	632b19a12e685b61f1ac6508	4	1	main_z	7	main_z	3	stimuli_target_diamondsquares.svg	stimuli_distractor_trianglediamonds.svg	20	yes	0	0	2000	0	0			0	0			1				0	
6.6.1	win	2023-06-27	19:27:05	19:37:46	636408	632b19a12e685b61f1ac6508	4	1	main_z	7	advance_on_keypress_ZEE	4	stimuli_target_diamondsquares.svg	stimuli_distractor_trianglediamonds.svg	20	yes	57	0	691	0	0			0	0			1				0	
6.6.1	win	2023-06-27	19:27:05	19:37:48	638410	632b19a12e685b61f1ac6508	4	1	main_z	7	main_z	5	stimuli_distractor_trianglediamonds.svg	stimuli_target_squaretriangles.svg	11	yes	44	1	670	0	0			0	0			1				0	
6.6.1	win	2023-06-27	19:27:05	19:37:48	638410	632b19a12e685b61f1ac6508	4	1	main_z	7	advance_on_keypress_ZEE	6	stimuli_distractor_trianglediamonds.svg	stimuli_target_squaretriangles.svg	11	yes	57	0	1141	0	0			0	0			1				0	
6.6.1	win	2023-06-27	19:27:05	19:37:51	641393	632b19a12e685b61f1ac6508	4	1	main_z	7	main_z	7	stimuli_distractor_diamondtriangles.svg	stimuli_target_diamondrectangles.svg	31	yes	44	1	1202	0	0			0	0			1				0	
6.6.1	win	2023-06-27	19:27:05	19:37:51	641393	632b19a12e685b61f1ac6508	4	1	main_z	7	advance_on_keypress_ZEE	8	stimuli_distractor_diamondtriangles.svg	stimuli_target_diamondrectangles.svg	31	yes	57	0	815	0	0			0	0			1				0	
6.6.1	win	2023-06-27	19:27:05	19:37:54	643620	632b19a12e685b61f1ac6508	4	1	main_z	7	main_z	9	stimuli_target_trianglerectangles.svg	stimuli_distractor_diamondtriangles.svg	21	yes	44	1	763	0	0			0	0			1				0	
6.6.1	win	2023-06-27	19:27:05	19:37:54	643620	632b19a12e685b61f1ac6508	4	1	main_z	7	advance_on_keypress_ZEE	10	stimuli_target_trianglerectangles.svg	stimuli_distractor_diamondtriangles.svg	21	yes	57	0	484	0	0			0	0			1				0	
6.6.1	win	2023-06-27	19:27:05	19:37:57	646504	632b19a12e685b61f1ac6508	4	1	main_z	7	main_z	11	stimuli_target_rectanglediamonds.svg	stimuli_distractor_trianglediamonds.svg	2	yes	44	1	1746	0	0			0	0			1				0	
6.6.1	win	2023-06-27	19:27:05	19:37:57	646504	632b19a12e685b61f1ac6508	4	1	main_z	7	advance_on_keypress_ZEE	12	stimuli_target_rectanglediamonds.svg	stimuli_distractor_trianglediamonds.svg	2	yes	57	0	427	0	0			0	0			1				0	
6.6.1	win	2023-06-27	19:27:05	19:37:58	648090	632b19a12e685b61f1ac6508	4	1	main_z	7	main_z	13	stimuli_target_rectangletriangles.svg	stimuli_distractor_diamondtriangles.svg	5	yes	44	1	514	0	0			0	0			1				0	
6.6.1	win	2023-06-27	19:27:05	19:37:58	648090	632b19a12e685b61f1ac6508	4	1	main_z	7	advance_on_keypress_ZEE	14	stimuli_target_rectangletriangles.svg	stimuli_distractor_diamondtriangles.svg	5	yes	57	0	546	0	0			0	0			1				0	
6.6.1	win	2023-06-27	19:27:05	19:38:01	650484	632b19a12e685b61f1ac6508	4	1	main_z	7	main_z	15	stimuli_distractor_trianglediamonds.svg	stimuli_target_trianglesquares.svg	26	yes	44	1	1193	0	0			0	0			1				0	
6.6.1	win	2023-06-27	19:27:05	19:38:01	650484	632b19a12e685b61f1ac6508	4	1	main_z	7	advance_on_keypress_ZEE	16	stimuli_distractor_trianglediamonds.svg	stimuli_target_trianglesquares.svg	26	yes	57	0	360	0	0			0	0			1				0	
6.6.1	win	2023-06-27	19:27:05	19:38:03	652630	632b19a12e685b61f1ac6508	4	1	main_z	7	main_z	17	stimuli_target_diamondrectangles.svg	stimuli_distractor_diamondtriangles.svg	23	yes	44	1	1156	0	0			0	0			1				0	
6.6.1	win	2023-06-27	19:27:05	19:38:03	652630	632b19a12e685b61f1ac6508	4	1	main_z	7	advance_on_keypress_ZEE	18	stimuli_target_diamondrectangles.svg	stimuli_distractor_diamondtriangles.svg	23	yes	57	0	374	0	0			0	0			1				0	
6.6.1	win	2023-06-27	19:27:05	19:38:04	654301	632b19a12e685b61f1ac6508	4	1	main_z	7	main_z	19	stimuli_distractor_trianglediamonds.svg	stimuli_target_rectanglediamonds.svg	10	yes	44	1	661	0	0			0	0			1				0	
6.6.1	win	2023-06-27	19:27:05	19:38:04	654301	632b19a12e685b61f1ac6508	4	1	main_z	7	advance_on_keypress_ZEE	20	stimuli_distractor_trianglediamonds.svg	stimuli_target_rectanglediamonds.svg	10	yes	57	0	404	0	0			0	0			1				0	
6.6.1	win	2023-06-27	19:27:05	19:38:06	656362	632b19a12e685b61f1ac6508	4	1	main_z	7	main_z	21	stimuli_target_trianglerectangles.svg	stimuli_distractor_trianglediamonds.svg	17	yes	44	1	1022	0	0			0	0			1				0	
6.6.1	win	2023-06-27	19:27:05	19:38:06	656362	632b19a12e685b61f1ac6508	4	1	main_z	7	advance_on_keypress_ZEE	22	stimuli_target_trianglerectangles.svg	stimuli_distractor_trianglediamonds.svg	17	yes	57	0	324	0	0			0	0			1				0	
6.6.1	win	2023-06-27	19:27:05	19:38:09	659324	632b19a12e685b61f1ac6508	4	1	main_z	7	main_z	23	stimuli_target_squaretriangles.svg	stimuli_distractor_diamondtriangles.svg	7	yes	0	0	2000	0	0			0	0			1				0	
6.6.1	win	2023-06-27	19:27:05	19:38:09	659324	632b19a12e685b61f1ac6508	4	1	main_z	7	advance_on_keypress_ZEE	24	stimuli_target_squaretriangles.svg	stimuli_distractor_diamondtriangles.svg	7	yes	57	0	430	0	0			0	0			1				0	
6.6.1	win	2023-06-27	19:27:05	19:38:11	661138	632b19a12e685b61f1ac6508	4	1	main_z	7	main_z	25	stimuli_distractor_diamondtriangles.svg	stimuli_target_trianglerectangles.svg	29	yes	44	1	732	0	0			0	0			1				0	
6.6.1	win	2023-06-27	19:27:05	19:38:11	661138	632b19a12e685b61f1ac6508	4	1	main_z	7	advance_on_keypress_ZEE	26	stimuli_distractor_diamondtriangles.svg	stimuli_target_trianglerectangles.svg	29	yes	57	0	392	0	0			0	0			1				0	
6.6.1	win	2023-06-27	19:27:05	19:38:13	663337	632b19a12e685b61f1ac6508	4	1	main_z	7	main_z	27	stimuli_distractor_diamondtriangles.svg	stimuli_target_squaretriangles.svg	15	yes	44	1	1164	0	0			0	0			1				0	
6.6.1	win	2023-06-27	19:27:05	19:38:13	663337	632b19a12e685b61f1ac6508	4	1	main_z	7	advance_on_keypress_ZEE	28	stimuli_distractor_diamondtriangles.svg	stimuli_target_squaretriangles.svg	15	yes	57	0	314	0	0			0	0			1				0	
6.6.1	win	2023-06-27	19:27:05	19:38:15	664836	632b19a12e685b61f1ac6508	4	1	main_z	7	main_z	29	stimuli_target_squaretriangles.svg	stimuli_distractor_trianglediamonds.svg	3	yes	44	1	531	0	0			0	0			1				0	
6.6.1	win	2023-06-27	19:27:05	19:38:15	664836	632b19a12e685b61f1ac6508	4	1	main_z	7	advance_on_keypress_ZEE	30	stimuli_target_squaretriangles.svg	stimuli_distractor_trianglediamonds.svg	3	yes	57	0	412	0	0			0	0			1				0	
6.6.1	win	2023-06-27	19:27:05	19:38:18	667905	632b19a12e685b61f1ac6508	4	1	main_z	7	main_z	31	stimuli_distractor_trianglediamonds.svg	stimuli_distractor_trianglediamonds.svg	33	no	0	1	2000	0	0			0	0			1				0	
6.6.1	win	2023-06-27	19:27:05	19:38:18	667905	632b19a12e685b61f1ac6508	4	1	main_z	7	advance_on_keypress_ZEE	32	stimuli_distractor_trianglediamonds.svg	stimuli_distractor_trianglediamonds.svg	33	no	57	0	337	0	0			0	0			1				0	
6.6.1	win	2023-06-27	19:27:05	19:38:20	669872	632b19a12e685b61f1ac6508	4	1	main_z	7	main_z	33	stimuli_distractor_diamondtriangles.svg	stimuli_target_rectangletriangles.svg	13	yes	44	1	983	0	0			0	0			1				0	
6.6.1	win	2023-06-27	19:27:05	19:38:20	669872	632b19a12e685b61f1ac6508	4	1	main_z	7	advance_on_keypress_ZEE	34	stimuli_distractor_diamondtriangles.svg	stimuli_target_rectangletriangles.svg	13	yes	57	0	287	0	0			0	0			1				0	
6.6.1	win	2023-06-27	19:27:05	19:38:23	672806	632b19a12e685b61f1ac6508	4	1	main_z	7	main_z	35	stimuli_distractor_trianglediamonds.svg	stimuli_distractor_diamondtriangles.svg	35	no	0	1	2000	0	0			0	0			1				0	
6.6.1	win	2023-06-27	19:27:05	19:38:23	672806	632b19a12e685b61f1ac6508	4	1	main_z	7	advance_on_keypress_ZEE	36	stimuli_distractor_trianglediamonds.svg	stimuli_distractor_diamondtriangles.svg	35	no	57	0	19956	0	0			0	0			1				0	
6.6.1	win	2023-06-27	19:27:05	19:38:44	694023	632b19a12e685b61f1ac6508	4	1	main_z	7	main_z	37	stimuli_distractor_diamondtriangles.svg	stimuli_target_squarediamonds.svg	16	yes	44	1	619	0	0			0	0			1				0	
6.6.1	win	2023-06-27	19:27:05	19:38:44	694023	632b19a12e685b61f1ac6508	4	1	main_z	7	advance_on_keypress_ZEE	38	stimuli_distractor_diamondtriangles.svg	stimuli_target_squarediamonds.svg	16	yes	57	0	3341	0	0			0	0			1				0	
6.6.1	win	2023-06-27	19:27:05	19:38:49	698714	632b19a12e685b61f1ac6508	4	1	main_z	7	main_z	39	stimuli_target_squarediamonds.svg	stimuli_distractor_diamondtriangles.svg	8	yes	44	1	711	0	0			0	0			1				0	
6.6.1	win	2023-06-27	19:27:05	19:38:49	698714	632b19a12e685b61f1ac6508	4	1	main_z	7	advance_on_keypress_ZEE	40	stimuli_target_squarediamonds.svg	stimuli_distractor_diamondtriangles.svg	8	yes	57	0	1404	0	0			0	0			1				0	
6.6.1	win	2023-06-27	19:27:05	19:38:52	702163	632b19a12e685b61f1ac6508	4	1	main_z	7	main_z	41	stimuli_distractor_diamondtriangles.svg	stimuli_target_diamondsquares.svg	32	yes	44	1	1411	0	0			0	0			1				0	
6.6.1	win	2023-06-27	19:27:05	19:38:52	702163	632b19a12e685b61f1ac6508	4	1	main_z	7	advance_on_keypress_ZEE	42	stimuli_distractor_diamondtriangles.svg	stimuli_target_diamondsquares.svg	32	yes	57	0	1217	0	0			0	0			1				0	
6.6.1	win	2023-06-27	19:27:05	19:38:55	705317	632b19a12e685b61f1ac6508	4	1	main_z	7	main_z	43	stimuli_distractor_trianglediamonds.svg	stimuli_target_rectangletriangles.svg	9	yes	44	1	1296	0	0			0	0			1				0	
6.6.1	win	2023-06-27	19:27:05	19:38:55	705317	632b19a12e685b61f1ac6508	4	1	main_z	7	advance_on_keypress_ZEE	44	stimuli_distractor_trianglediamonds.svg	stimuli_target_rectangletriangles.svg	9	yes	57	0	1872	0	0			0	0			1				0	
6.6.1	win	2023-06-27	19:27:05	19:39:00	709836	632b19a12e685b61f1ac6508	4	1	main_z	7	main_z	45	stimuli_distractor_diamondtriangles.svg	stimuli_distractor_trianglediamonds.svg	38	no	0	1	2000	0	0			0	0			1				0	
6.6.1	win	2023-06-27	19:27:05	19:39:00	709836	632b19a12e685b61f1ac6508	4	1	main_z	7	advance_on_keypress_ZEE	46	stimuli_distractor_diamondtriangles.svg	stimuli_distractor_trianglediamonds.svg	38	no	57	0	576	0	0			0	0			1				0	
6.6.1	win	2023-06-27	19:27:05	19:39:03	712557	632b19a12e685b61f1ac6508	4	1	main_z	7	main_z	47	stimuli_target_trianglesquares.svg	stimuli_distractor_diamondtriangles.svg	22	yes	44	1	1504	0	0			0	0			1				0	
6.6.1	win	2023-06-27	19:27:05	19:39:03	712557	632b19a12e685b61f1ac6508	4	1	main_z	7	advance_on_keypress_ZEE	48	stimuli_target_trianglesquares.svg	stimuli_distractor_diamondtriangles.svg	22	yes	57	0	412	0	0			0	0			1				0	
6.6.1	win	2023-06-27	19:27:05	19:39:06	715620	632b19a12e685b61f1ac6508	4	1	main_z	7	main_z	49	stimuli_distractor_trianglediamonds.svg	stimuli_distractor_diamondtriangles.svg	36	no	0	1	2000	0	0			0	0			1				0	
6.6.1	win	2023-06-27	19:27:05	19:39:06	715620	632b19a12e685b61f1ac6508	4	1	main_z	7	advance_on_keypress_ZEE	50	stimuli_distractor_trianglediamonds.svg	stimuli_distractor_diamondtriangles.svg	36	no	57	0	493	0	0			0	0			1				0	
6.6.1	win	2023-06-27	19:27:05	19:39:09	718753	632b19a12e685b61f1ac6508	4	1	main_z	7	main_z	51	stimuli_distractor_diamondtriangles.svg	stimuli_distractor_diamondtriangles.svg	40	no	0	1	2000	0	0			0	0			1				0	
6.6.1	win	2023-06-27	19:27:05	19:39:09	718753	632b19a12e685b61f1ac6508	4	1	main_z	7	advance_on_keypress_ZEE	52	stimuli_distractor_diamondtriangles.svg	stimuli_distractor_diamondtriangles.svg	40	no	57	0	528	0	0			0	0			1				0	
6.6.1	win	2023-06-27	19:27:05	19:39:11	720500	632b19a12e685b61f1ac6508	4	1	main_z	7	main_z	53	stimuli_target_squarediamonds.svg	stimuli_distractor_trianglediamonds.svg	4	yes	44	1	564	0	0			0	0			1				0	
6.6.1	win	2023-06-27	19:27:05	19:39:11	720500	632b19a12e685b61f1ac6508	4	1	main_z	7	advance_on_keypress_ZEE	54	stimuli_target_squarediamonds.svg	stimuli_distractor_trianglediamonds.svg	4	yes	57	0	309	0	0			0	0			1				0	
6.6.1	win	2023-06-27	19:27:05	19:39:12	722289	632b19a12e685b61f1ac6508	4	1	main_z	7	main_z	55	stimuli_target_diamondrectangles.svg	stimuli_distractor_trianglediamonds.svg	19	yes	44	1	837	0	0			0	0			1				0	
6.6.1	win	2023-06-27	19:27:05	19:39:12	722289	632b19a12e685b61f1ac6508	4	1	main_z	7	advance_on_keypress_ZEE	56	stimuli_target_diamondrectangles.svg	stimuli_distractor_trianglediamonds.svg	19	yes	57	0	294	0	0			0	0			1				0	
6.6.1	win	2023-06-27	19:27:05	19:39:14	724015	632b19a12e685b61f1ac6508	4	1	main_z	7	main_z	57	stimuli_distractor_trianglediamonds.svg	stimuli_target_trianglerectangles.svg	25	yes	44	1	796	0	0			0	0			1				0	
6.6.1	win	2023-06-27	19:27:05	19:39:14	724015	632b19a12e685b61f1ac6508	4	1	main_z	7	advance_on_keypress_ZEE	58	stimuli_distractor_trianglediamonds.svg	stimuli_target_trianglerectangles.svg	25	yes	57	0	241	0	0			0	0			1				0	
6.6.1	win	2023-06-27	19:27:05	19:39:16	725507	632b19a12e685b61f1ac6508	4	1	main_z	7	main_z	59	stimuli_distractor_trianglediamonds.svg	stimuli_target_diamondrectangles.svg	27	yes	44	1	604	0	0			0	0			1				0	
6.6.1	win	2023-06-27	19:27:05	19:39:16	725507	632b19a12e685b61f1ac6508	4	1	main_z	7	advance_on_keypress_ZEE	60	stimuli_distractor_trianglediamonds.svg	stimuli_target_diamondrectangles.svg	27	yes	57	0	227	0	0			0	0			1				0	
6.6.1	win	2023-06-27	19:27:05	19:39:18	728368	632b19a12e685b61f1ac6508	4	1	main_z	7	main_z	61	stimuli_distractor_diamondtriangles.svg	stimuli_distractor_trianglediamonds.svg	37	no	0	1	2000	0	0			0	0			1				0	
6.6.1	win	2023-06-27	19:27:05	19:39:18	728368	632b19a12e685b61f1ac6508	4	1	main_z	7	advance_on_keypress_ZEE	62	stimuli_distractor_diamondtriangles.svg	stimuli_distractor_trianglediamonds.svg	37	no	57	0	509	0	0			0	0			1				0	
6.6.1	win	2023-06-27	19:27:05	19:39:20	730251	632b19a12e685b61f1ac6508	4	1	main_z	7	main_z	63	stimuli_target_diamondsquares.svg	stimuli_distractor_diamondtriangles.svg	24	yes	44	1	732	0	0			0	0			1				0	
6.6.1	win	2023-06-27	19:27:05	19:39:20	730251	632b19a12e685b61f1ac6508	4	1	main_z	7	advance_on_keypress_ZEE	64	stimuli_target_diamondsquares.svg	stimuli_distractor_diamondtriangles.svg	24	yes	57	0	272	0	0			0	0			1				0	
6.6.1	win	2023-06-27	19:27:05	19:39:23	733168	632b19a12e685b61f1ac6508	4	1	main_z	7	main_z	65	stimuli_distractor_diamondtriangles.svg	stimuli_target_trianglesquares.svg	30	yes	0	0	2000	0	0			0	0			1				0	
6.6.1	win	2023-06-27	19:27:05	19:39:23	733168	632b19a12e685b61f1ac6508	4	1	main_z	7	advance_on_keypress_ZEE	66	stimuli_distractor_diamondtriangles.svg	stimuli_target_trianglesquares.svg	30	yes	57	0	642	0	0			0	0			1				0	
6.6.1	win	2023-06-27	19:27:05	19:39:25	734922	632b19a12e685b61f1ac6508	4	1	main_z	7	main_z	67	stimuli_target_rectanglediamonds.svg	stimuli_distractor_diamondtriangles.svg	6	yes	44	1	472	0	0			0	0			1				0	
6.6.1	win	2023-06-27	19:27:05	19:39:25	734922	632b19a12e685b61f1ac6508	4	1	main_z	7	advance_on_keypress_ZEE	68	stimuli_target_rectanglediamonds.svg	stimuli_distractor_diamondtriangles.svg	6	yes	57	0	410	0	0			0	0			1				0	
6.6.1	win	2023-06-27	19:27:05	19:39:27	736746	632b19a12e685b61f1ac6508	4	1	main_z	7	main_z	69	stimuli_target_trianglesquares.svg	stimuli_distractor_trianglediamonds.svg	18	yes	44	1	778	0	0			0	0			1				0	
6.6.1	win	2023-06-27	19:27:05	19:39:27	736746	632b19a12e685b61f1ac6508	4	1	main_z	7	advance_on_keypress_ZEE	70	stimuli_target_trianglesquares.svg	stimuli_distractor_trianglediamonds.svg	18	yes	57	0	227	0	0			0	0			1				0	
6.6.1	win	2023-06-27	19:27:05	19:39:28	738359	632b19a12e685b61f1ac6508	4	1	main_z	7	main_z	71	stimuli_distractor_trianglediamonds.svg	stimuli_target_diamondsquares.svg	28	yes	44	1	758	0	0			0	0			1				0	
6.6.1	win	2023-06-27	19:27:05	19:39:28	738359	632b19a12e685b61f1ac6508	4	1	main_z	7	advance_on_keypress_ZEE	72	stimuli_distractor_trianglediamonds.svg	stimuli_target_diamondsquares.svg	28	yes	57	0	184	0	0			0	0			1				0	
6.6.1	win	2023-06-27	19:27:05	19:39:30	739961	632b19a12e685b61f1ac6508	4	1	main_z	7	main_z	73	stimuli_distractor_trianglediamonds.svg	stimuli_target_squarediamonds.svg	12	yes	44	1	777	0	0			0	0			1				0	
6.6.1	win	2023-06-27	19:27:05	19:39:30	739961	632b19a12e685b61f1ac6508	4	1	main_z	7	advance_on_keypress_ZEE	74	stimuli_distractor_trianglediamonds.svg	stimuli_target_squarediamonds.svg	12	yes	57	0	49	0	0			0	0			1				0	
6.6.1	win	2023-06-27	19:27:05	19:39:33	742650	632b19a12e685b61f1ac6508	4	1	main_z	7	main_z	75	stimuli_distractor_trianglediamonds.svg	stimuli_distractor_trianglediamonds.svg	34	no	0	1	2000	0	0			0	0			1				0	
6.6.1	win	2023-06-27	19:27:05	19:39:33	742650	632b19a12e685b61f1ac6508	4	1	main_z	7	advance_on_keypress_ZEE	76	stimuli_distractor_trianglediamonds.svg	stimuli_distractor_trianglediamonds.svg	34	no	57	0	512	0	0			0	0			1				0	
6.6.1	win	2023-06-27	19:27:05	19:39:34	744442	632b19a12e685b61f1ac6508	4	1	main_z	7	main_z	77	stimuli_target_rectangletriangles.svg	stimuli_distractor_trianglediamonds.svg	1	yes	44	1	624	0	0			0	0			1				0	
6.6.1	win	2023-06-27	19:27:05	19:39:34	744442	632b19a12e685b61f1ac6508	4	1	main_z	7	advance_on_keypress_ZEE	78	stimuli_target_rectangletriangles.svg	stimuli_distractor_trianglediamonds.svg	1	yes	57	0	148	0	0			0	0			1				0	
6.6.1	win	2023-06-27	19:27:05	19:39:37	747233	632b19a12e685b61f1ac6508	4	1	main_z	7	main_z	79	stimuli_distractor_diamondtriangles.svg	stimuli_distractor_diamondtriangles.svg	39	no	0	1	2000	0	0			0	0			1				0	
6.6.1	win	2023-06-27	19:27:05	19:39:37	747233	632b19a12e685b61f1ac6508	4	1	main_z	7	advance_on_keypress_ZEE	80	stimuli_distractor_diamondtriangles.svg	stimuli_distractor_diamondtriangles.svg	39	no	57	0	499	0	0			0	0			1				0	
6.6.1	win	2023-06-27	19:27:05	19:39:40	750384	632b19a12e685b61f1ac6508	4	1	main_z	7	main_z	81	stimuli_distractor_diamondtriangles.svg	stimuli_distractor_trianglediamonds.svg	38	no	0	1	2000	0	0			0	0			1				0	
6.6.1	win	2023-06-27	19:27:05	19:39:40	750384	632b19a12e685b61f1ac6508	4	1	main_z	7	advance_on_keypress_ZEE	82	stimuli_distractor_diamondtriangles.svg	stimuli_distractor_trianglediamonds.svg	38	no	57	0	457	0	0			0	0			1				0	
6.6.1	win	2023-06-27	19:27:05	19:39:44	753484	632b19a12e685b61f1ac6508	4	1	main_z	7	main_z	83	stimuli_distractor_trianglediamonds.svg	stimuli_distractor_trianglediamonds.svg	33	no	0	1	2000	0	0			0	0			1				0	
6.6.1	win	2023-06-27	19:27:05	19:39:44	753484	632b19a12e685b61f1ac6508	4	1	main_z	7	advance_on_keypress_ZEE	84	stimuli_distractor_trianglediamonds.svg	stimuli_distractor_trianglediamonds.svg	33	no	57	0	326	0	0			0	0			1				0	
6.6.1	win	2023-06-27	19:27:05	19:39:45	755314	632b19a12e685b61f1ac6508	4	1	main_z	7	main_z	85	stimuli_target_diamondsquares.svg	stimuli_distractor_trianglediamonds.svg	20	yes	44	1	864	0	0			0	0			1				0	
6.6.1	win	2023-06-27	19:27:05	19:39:45	755314	632b19a12e685b61f1ac6508	4	1	main_z	7	advance_on_keypress_ZEE	86	stimuli_target_diamondsquares.svg	stimuli_distractor_trianglediamonds.svg	20	yes	57	0	111	0	0			0	0			1				0	
6.6.1	win	2023-06-27	19:27:05	19:39:47	757368	632b19a12e685b61f1ac6508	4	1	main_z	7	main_z	87	stimuli_target_rectangletriangles.svg	stimuli_distractor_diamondtriangles.svg	5	yes	44	1	1302	0	0			0	0			1				0	
6.6.1	win	2023-06-27	19:27:05	19:39:47	757368	632b19a12e685b61f1ac6508	4	1	main_z	7	advance_on_keypress_ZEE	88	stimuli_target_rectangletriangles.svg	stimuli_distractor_diamondtriangles.svg	5	yes	57	0	82	0	0			0	0			1				0	
6.6.1	win	2023-06-27	19:27:05	19:39:49	759146	632b19a12e685b61f1ac6508	4	1	main_z	7	main_z	89	stimuli_distractor_diamondtriangles.svg	stimuli_target_squaretriangles.svg	15	yes	44	1	1046	0	0			0	0			1				0	
6.6.1	win	2023-06-27	19:27:05	19:39:49	759146	632b19a12e685b61f1ac6508	4	1	main_z	7	advance_on_keypress_ZEE	90	stimuli_distractor_diamondtriangles.svg	stimuli_target_squaretriangles.svg	15	yes	57	0	105	0	0			0	0			1				0	
6.6.1	win	2023-06-27	19:27:05	19:39:52	761899	632b19a12e685b61f1ac6508	4	1	main_z	7	main_z	91	stimuli_distractor_trianglediamonds.svg	stimuli_distractor_diamondtriangles.svg	36	no	0	1	2000	0	0			0	0			1				0	
6.6.1	win	2023-06-27	19:27:05	19:39:52	761899	632b19a12e685b61f1ac6508	4	1	main_z	7	advance_on_keypress_ZEE	92	stimuli_distractor_trianglediamonds.svg	stimuli_distractor_diamondtriangles.svg	36	no	57	0	484	0	0			0	0			1				0	
6.6.1	win	2023-06-27	19:27:05	19:39:54	763853	632b19a12e685b61f1ac6508	4	1	main_z	7	main_z	93	stimuli_target_trianglesquares.svg	stimuli_distractor_diamondtriangles.svg	22	yes	44	1	821	0	0			0	0			1				0	
6.6.1	win	2023-06-27	19:27:05	19:39:54	763853	632b19a12e685b61f1ac6508	4	1	main_z	7	advance_on_keypress_ZEE	94	stimuli_target_trianglesquares.svg	stimuli_distractor_diamondtriangles.svg	22	yes	57	0	153	0	0			0	0			1				0	
6.6.1	win	2023-06-27	19:27:05	19:39:56	766047	632b19a12e685b61f1ac6508	4	1	main_z	7	main_z	95	stimuli_distractor_diamondtriangles.svg	stimuli_target_diamondsquares.svg	32	yes	44	1	1398	0	0			0	0			1				0	
6.6.1	win	2023-06-27	19:27:05	19:39:56	766047	632b19a12e685b61f1ac6508	4	1	main_z	7	advance_on_keypress_ZEE	96	stimuli_distractor_diamondtriangles.svg	stimuli_target_diamondsquares.svg	32	yes	57	0	97	0	0			0	0			1				0	
6.6.1	win	2023-06-27	19:27:05	19:39:58	767840	632b19a12e685b61f1ac6508	4	1	main_z	7	main_z	97	stimuli_distractor_trianglediamonds.svg	stimuli_target_rectangletriangles.svg	9	yes	44	1	1041	0	0			0	0			1				0	
6.6.1	win	2023-06-27	19:27:05	19:39:58	767840	632b19a12e685b61f1ac6508	4	1	main_z	7	advance_on_keypress_ZEE	98	stimuli_distractor_trianglediamonds.svg	stimuli_target_rectangletriangles.svg	9	yes	57	0	99	0	0			0	0			1				0	
6.6.1	win	2023-06-27	19:27:05	19:40:00	769496	632b19a12e685b61f1ac6508	4	1	main_z	7	main_z	99	stimuli_distractor_diamondtriangles.svg	stimuli_target_rectanglediamonds.svg	14	yes	44	1	914	0	0			0	0			1				0	
6.6.1	win	2023-06-27	19:27:05	19:40:00	769496	632b19a12e685b61f1ac6508	4	1	main_z	7	advance_on_keypress_ZEE	100	stimuli_distractor_diamondtriangles.svg	stimuli_target_rectanglediamonds.svg	14	yes	57	0	140	0	0			0	0			1				0	
6.6.1	win	2023-06-27	19:27:05	19:40:02	772281	632b19a12e685b61f1ac6508	4	1	main_z	7	main_z	101	stimuli_distractor_diamondtriangles.svg	stimuli_target_trianglerectangles.svg	29	yes	0	0	2000	0	0			0	0			1				0	
6.6.1	win	2023-06-27	19:27:05	19:40:02	772281	632b19a12e685b61f1ac6508	4	1	main_z	7	advance_on_keypress_ZEE	102	stimuli_distractor_diamondtriangles.svg	stimuli_target_trianglerectangles.svg	29	yes	57	0	1650	0	0			0	0			1				0	
6.6.1	win	2023-06-27	19:27:05	19:40:06	775560	632b19a12e685b61f1ac6508	4	1	main_z	7	main_z	103	stimuli_distractor_diamondtriangles.svg	stimuli_target_rectangletriangles.svg	13	yes	44	1	978	0	0			0	0			1				0	
6.6.1	win	2023-06-27	19:27:05	19:40:06	775560	632b19a12e685b61f1ac6508	4	1	main_z	7	advance_on_keypress_ZEE	104	stimuli_distractor_diamondtriangles.svg	stimuli_target_rectangletriangles.svg	13	yes	57	0	186	0	0			0	0			1				0	
6.6.1	win	2023-06-27	19:27:05	19:40:08	777645	632b19a12e685b61f1ac6508	4	1	main_z	7	main_z	105	stimuli_distractor_trianglediamonds.svg	stimuli_target_squarediamonds.svg	12	yes	44	1	1263	0	0			0	0			1				0	
6.6.1	win	2023-06-27	19:27:05	19:40:08	777645	632b19a12e685b61f1ac6508	4	1	main_z	7	advance_on_keypress_ZEE	106	stimuli_distractor_trianglediamonds.svg	stimuli_target_squarediamonds.svg	12	yes	57	0	1341	0	0			0	0			1				0	
6.6.1	win	2023-06-27	19:27:05	19:40:11	780736	632b19a12e685b61f1ac6508	4	1	main_z	7	main_z	107	stimuli_target_squaretriangles.svg	stimuli_distractor_diamondtriangles.svg	7	yes	44	1	1103	0	0			0	0			1				0	
6.6.1	win	2023-06-27	19:27:05	19:40:11	780736	632b19a12e685b61f1ac6508	4	1	main_z	7	advance_on_keypress_ZEE	108	stimuli_target_squaretriangles.svg	stimuli_distractor_diamondtriangles.svg	7	yes	57	0	158	0	0			0	0			1				0	
6.6.1	win	2023-06-27	19:27:05	19:40:13	782538	632b19a12e685b61f1ac6508	4	1	main_z	7	main_z	109	stimuli_target_squarediamonds.svg	stimuli_distractor_diamondtriangles.svg	8	yes	44	1	1008	0	0			0	0			1				0	
6.6.1	win	2023-06-27	19:27:05	19:40:13	782538	632b19a12e685b61f1ac6508	4	1	main_z	7	advance_on_keypress_ZEE	110	stimuli_target_squarediamonds.svg	stimuli_distractor_diamondtriangles.svg	8	yes	57	0	136	0	0			0	0			1				0	
6.6.1	win	2023-06-27	19:27:05	19:40:15	784494	632b19a12e685b61f1ac6508	4	1	main_z	7	main_z	111	stimuli_target_trianglerectangles.svg	stimuli_distractor_diamondtriangles.svg	21	yes	44	1	1177	0	0			0	0			1				0	
6.6.1	win	2023-06-27	19:27:05	19:40:15	784494	632b19a12e685b61f1ac6508	4	1	main_z	7	advance_on_keypress_ZEE	112	stimuli_target_trianglerectangles.svg	stimuli_distractor_diamondtriangles.svg	21	yes	57	0	120	0	0			0	0			1				0	
6.6.1	win	2023-06-27	19:27:05	19:40:16	785976	632b19a12e685b61f1ac6508	4	1	main_z	7	main_z	113	stimuli_target_diamondsquares.svg	stimuli_distractor_diamondtriangles.svg	24	yes	44	1	712	0	0			0	0			1				0	
6.6.1	win	2023-06-27	19:27:05	19:40:16	785976	632b19a12e685b61f1ac6508	4	1	main_z	7	advance_on_keypress_ZEE	114	stimuli_target_diamondsquares.svg	stimuli_distractor_diamondtriangles.svg	24	yes	57	0	161	0	0			0	0			1				0	
6.6.1	win	2023-06-27	19:27:05	19:40:18	788287	632b19a12e685b61f1ac6508	4	1	main_z	7	main_z	115	stimuli_distractor_trianglediamonds.svg	stimuli_target_diamondrectangles.svg	27	yes	44	1	1522	0	0			0	0			1				0	
6.6.1	win	2023-06-27	19:27:05	19:40:18	788287	632b19a12e685b61f1ac6508	4	1	main_z	7	advance_on_keypress_ZEE	116	stimuli_distractor_trianglediamonds.svg	stimuli_target_diamondrectangles.svg	27	yes	57	0	142	0	0			0	0			1				0	
6.6.1	win	2023-06-27	19:27:05	19:40:20	790254	632b19a12e685b61f1ac6508	4	1	main_z	7	main_z	117	stimuli_distractor_trianglediamonds.svg	stimuli_target_diamondsquares.svg	28	yes	44	1	1191	0	0			0	0			1				0	
6.6.1	win	2023-06-27	19:27:05	19:40:20	790254	632b19a12e685b61f1ac6508	4	1	main_z	7	advance_on_keypress_ZEE	118	stimuli_distractor_trianglediamonds.svg	stimuli_target_diamondsquares.svg	28	yes	57	0	112	0	0			0	0			1				0	
6.6.1	win	2023-06-27	19:27:05	19:40:22	791934	632b19a12e685b61f1ac6508	4	1	main_z	7	main_z	119	stimuli_target_trianglerectangles.svg	stimuli_distractor_trianglediamonds.svg	17	yes	44	1	920	0	0			0	0			1				0	
6.6.1	win	2023-06-27	19:27:05	19:40:22	791934	632b19a12e685b61f1ac6508	4	1	main_z	7	advance_on_keypress_ZEE	120	stimuli_target_trianglerectangles.svg	stimuli_distractor_trianglediamonds.svg	17	yes	57	0	168	0	0			0	0			1				0	
6.6.1	win	2023-06-27	19:27:05	19:40:25	794749	632b19a12e685b61f1ac6508	4	1	main_z	7	main_z	121	stimuli_distractor_diamondtriangles.svg	stimuli_distractor_trianglediamonds.svg	37	no	0	1	2000	0	0			0	0			1				0	
6.6.1	win	2023-06-27	19:27:05	19:40:25	794749	632b19a12e685b61f1ac6508	4	1	main_z	7	advance_on_keypress_ZEE	122	stimuli_distractor_diamondtriangles.svg	stimuli_distractor_trianglediamonds.svg	37	no	57	0	1706	0	0			0	0			1				0	
6.6.1	win	2023-06-27	19:27:05	19:40:28	797905	632b19a12e685b61f1ac6508	4	1	main_z	7	main_z	123	stimuli_target_diamondrectangles.svg	stimuli_distractor_trianglediamonds.svg	19	yes	44	1	809	0	0			0	0			1				0	
6.6.1	win	2023-06-27	19:27:05	19:40:28	797905	632b19a12e685b61f1ac6508	4	1	main_z	7	advance_on_keypress_ZEE	124	stimuli_target_diamondrectangles.svg	stimuli_distractor_trianglediamonds.svg	19	yes	57	0	114	0	0			0	0			1				0	
6.6.1	win	2023-06-27	19:27:05	19:40:30	799934	632b19a12e685b61f1ac6508	4	1	main_z	7	main_z	125	stimuli_distractor_diamondtriangles.svg	stimuli_target_squarediamonds.svg	16	yes	44	1	1271	0	0			0	0			1				0	
6.6.1	win	2023-06-27	19:27:05	19:40:30	799934	632b19a12e685b61f1ac6508	4	1	main_z	7	advance_on_keypress_ZEE	126	stimuli_distractor_diamondtriangles.svg	stimuli_target_squarediamonds.svg	16	yes	57	0	89	0	0			0	0			1				0	
6.6.1	win	2023-06-27	19:27:05	19:40:31	801305	632b19a12e685b61f1ac6508	4	1	main_z	7	main_z	127	stimuli_distractor_trianglediamonds.svg	stimuli_target_squaretriangles.svg	11	yes	44	1	642	0	0			0	0			1				0	
6.6.1	win	2023-06-27	19:27:05	19:40:31	801305	632b19a12e685b61f1ac6508	4	1	main_z	7	advance_on_keypress_ZEE	128	stimuli_distractor_trianglediamonds.svg	stimuli_target_squaretriangles.svg	11	yes	57	0	122	0	0			0	0			1				0	
6.6.1	win	2023-06-27	19:27:05	19:40:34	804063	632b19a12e685b61f1ac6508	4	1	main_z	7	main_z	129	stimuli_distractor_diamondtriangles.svg	stimuli_target_trianglesquares.svg	30	yes	0	0	2000	0	0			0	0			1				0	
6.6.1	win	2023-06-27	19:27:05	19:40:34	804063	632b19a12e685b61f1ac6508	4	1	main_z	7	advance_on_keypress_ZEE	130	stimuli_distractor_diamondtriangles.svg	stimuli_target_trianglesquares.svg	30	yes	57	0	479	0	0			0	0			1				0	
6.6.1	win	2023-06-27	19:27:05	19:40:36	805929	632b19a12e685b61f1ac6508	4	1	main_z	7	main_z	131	stimuli_target_squaretriangles.svg	stimuli_distractor_trianglediamonds.svg	3	yes	44	1	749	0	0			0	0			1				0	
6.6.1	win	2023-06-27	19:27:05	19:40:36	805929	632b19a12e685b61f1ac6508	4	1	main_z	7	advance_on_keypress_ZEE	132	stimuli_target_squaretriangles.svg	stimuli_distractor_trianglediamonds.svg	3	yes	57	0	93	0	0			0	0			1				0	
6.6.1	win	2023-06-27	19:27:05	19:40:38	807615	632b19a12e685b61f1ac6508	4	1	main_z	7	main_z	133	stimuli_distractor_diamondtriangles.svg	stimuli_target_diamondrectangles.svg	31	yes	44	1	952	0	0			0	0			1				0	
6.6.1	win	2023-06-27	19:27:05	19:40:38	807615	632b19a12e685b61f1ac6508	4	1	main_z	7	advance_on_keypress_ZEE	134	stimuli_distractor_diamondtriangles.svg	stimuli_target_diamondrectangles.svg	31	yes	57	0	116	0	0			0	0			1				0	
6.6.1	win	2023-06-27	19:27:05	19:40:39	809410	632b19a12e685b61f1ac6508	4	1	main_z	7	main_z	135	stimuli_target_rectangletriangles.svg	stimuli_distractor_trianglediamonds.svg	1	yes	44	1	1031	0	0			0	0			1				0	
6.6.1	win	2023-06-27	19:27:05	19:40:39	809410	632b19a12e685b61f1ac6508	4	1	main_z	7	advance_on_keypress_ZEE	136	stimuli_target_rectangletriangles.svg	stimuli_distractor_trianglediamonds.svg	1	yes	57	0	111	0	0			0	0			1				0	
6.6.1	win	2023-06-27	19:27:05	19:40:42	812163	632b19a12e685b61f1ac6508	4	1	main_z	7	main_z	137	stimuli_distractor_diamondtriangles.svg	stimuli_distractor_diamondtriangles.svg	40	no	0	1	2000	0	0			0	0			1				0	
6.6.1	win	2023-06-27	19:27:05	19:40:42	812163	632b19a12e685b61f1ac6508	4	1	main_z	7	advance_on_keypress_ZEE	138	stimuli_distractor_diamondtriangles.svg	stimuli_distractor_diamondtriangles.svg	40	no	57	0	1113	0	0			0	0			1				0	
6.6.1	win	2023-06-27	19:27:05	19:40:45	814670	632b19a12e685b61f1ac6508	4	1	main_z	7	main_z	139	stimuli_distractor_trianglediamonds.svg	stimuli_target_trianglesquares.svg	26	yes	44	1	741	0	0			0	0			1				0	
6.6.1	win	2023-06-27	19:27:05	19:40:45	814670	632b19a12e685b61f1ac6508	4	1	main_z	7	advance_on_keypress_ZEE	140	stimuli_distractor_trianglediamonds.svg	stimuli_target_trianglesquares.svg	26	yes	57	0	70	0	0			0	0			1				0	
6.6.1	win	2023-06-27	19:27:05	19:40:47	817379	632b19a12e685b61f1ac6508	4	1	main_z	7	main_z	141	stimuli_distractor_trianglediamonds.svg	stimuli_distractor_trianglediamonds.svg	34	no	0	1	2000	0	0			0	0			1				0	
6.6.1	win	2023-06-27	19:27:05	19:40:47	817379	632b19a12e685b61f1ac6508	4	1	main_z	7	advance_on_keypress_ZEE	142	stimuli_distractor_trianglediamonds.svg	stimuli_distractor_trianglediamonds.svg	34	no	57	0	480	0	0			0	0			1				0	
6.6.1	win	2023-06-27	19:27:05	19:40:51	820512	632b19a12e685b61f1ac6508	4	1	main_z	7	main_z	143	stimuli_distractor_trianglediamonds.svg	stimuli_distractor_diamondtriangles.svg	35	no	0	1	2000	0	0			0	0			1				0	
6.6.1	win	2023-06-27	19:27:05	19:40:51	820512	632b19a12e685b61f1ac6508	4	1	main_z	7	advance_on_keypress_ZEE	144	stimuli_distractor_trianglediamonds.svg	stimuli_distractor_diamondtriangles.svg	35	no	57	0	513	0	0			0	0			1				0	
6.6.1	win	2023-06-27	19:27:05	19:40:52	822310	632b19a12e685b61f1ac6508	4	1	main_z	7	main_z	145	stimuli_target_diamondrectangles.svg	stimuli_distractor_diamondtriangles.svg	23	yes	44	1	631	0	0			0	0			1				0	
6.6.1	win	2023-06-27	19:27:05	19:40:52	822310	632b19a12e685b61f1ac6508	4	1	main_z	7	advance_on_keypress_ZEE	146	stimuli_target_diamondrectangles.svg	stimuli_distractor_diamondtriangles.svg	23	yes	57	0	113	0	0			0	0			1				0	
6.6.1	win	2023-06-27	19:27:05	19:40:54	824075	632b19a12e685b61f1ac6508	4	1	main_z	7	main_z	147	stimuli_distractor_trianglediamonds.svg	stimuli_target_rectanglediamonds.svg	10	yes	44	1	998	0	0			0	0			1				0	
6.6.1	win	2023-06-27	19:27:05	19:40:54	824075	632b19a12e685b61f1ac6508	4	1	main_z	7	advance_on_keypress_ZEE	148	stimuli_distractor_trianglediamonds.svg	stimuli_target_rectanglediamonds.svg	10	yes	57	0	121	0	0			0	0			1				0	
6.6.1	win	2023-06-27	19:27:05	19:40:56	825612	632b19a12e685b61f1ac6508	4	1	main_z	7	main_z	149	stimuli_target_squarediamonds.svg	stimuli_distractor_trianglediamonds.svg	4	yes	44	1	767	0	0			0	0			1				0	
6.6.1	win	2023-06-27	19:27:05	19:40:56	825612	632b19a12e685b61f1ac6508	4	1	main_z	7	advance_on_keypress_ZEE	150	stimuli_target_squarediamonds.svg	stimuli_distractor_trianglediamonds.svg	4	yes	57	0	114	0	0			0	0			1				0	
6.6.1	win	2023-06-27	19:27:05	19:40:57	827165	632b19a12e685b61f1ac6508	4	1	main_z	7	main_z	151	stimuli_target_rectanglediamonds.svg	stimuli_distractor_diamondtriangles.svg	6	yes	44	1	787	0	0			0	0			1				0	
6.6.1	win	2023-06-27	19:27:05	19:40:57	827165	632b19a12e685b61f1ac6508	4	1	main_z	7	advance_on_keypress_ZEE	152	stimuli_target_rectanglediamonds.svg	stimuli_distractor_diamondtriangles.svg	6	yes	57	0	94	0	0			0	0			1				0	
6.6.1	win	2023-06-27	19:27:05	19:40:59	828822	632b19a12e685b61f1ac6508	4	1	main_z	7	main_z	153	stimuli_target_rectanglediamonds.svg	stimuli_distractor_trianglediamonds.svg	2	yes	44	1	927	0	0			0	0			1				0	
6.6.1	win	2023-06-27	19:27:05	19:40:59	828822	632b19a12e685b61f1ac6508	4	1	main_z	7	advance_on_keypress_ZEE	154	stimuli_target_rectanglediamonds.svg	stimuli_distractor_trianglediamonds.svg	2	yes	57	0	134	0	0			0	0			1				0	
6.6.1	win	2023-06-27	19:27:05	19:41:01	830709	632b19a12e685b61f1ac6508	4	1	main_z	7	main_z	155	stimuli_target_trianglesquares.svg	stimuli_distractor_trianglediamonds.svg	18	yes	44	1	1114	0	0			0	0			1				0	
6.6.1	win	2023-06-27	19:27:05	19:41:01	830709	632b19a12e685b61f1ac6508	4	1	main_z	7	advance_on_keypress_ZEE	156	stimuli_target_trianglesquares.svg	stimuli_distractor_trianglediamonds.svg	18	yes	57	0	93	0	0			0	0			1				0	
6.6.1	win	2023-06-27	19:27:05	19:41:03	832718	632b19a12e685b61f1ac6508	4	1	main_z	7	main_z	157	stimuli_distractor_diamondtriangles.svg	stimuli_distractor_diamondtriangles.svg	39	no	44	0	1273	0	0			0	0			1				0	
6.6.1	win	2023-06-27	19:27:05	19:41:03	832718	632b19a12e685b61f1ac6508	4	1	main_z	7	advance_on_keypress_ZEE	158	stimuli_distractor_diamondtriangles.svg	stimuli_distractor_diamondtriangles.svg	39	no	57	0	172	0	0			0	0			1				0	
6.6.1	win	2023-06-27	19:27:05	19:41:06	835527	632b19a12e685b61f1ac6508	4	1	main_z	7	main_z	159	stimuli_distractor_trianglediamonds.svg	stimuli_target_trianglerectangles.svg	25	yes	0	0	2000	0	0			0	0			1				0	
6.6.1	win	2023-06-27	19:27:05	19:41:06	835527	632b19a12e685b61f1ac6508	4	1	main_z	7	advance_on_keypress_ZEE	160	stimuli_distractor_trianglediamonds.svg	stimuli_target_trianglerectangles.svg	25	yes	57	0	3441	0	0			0	0			1				0	
6.6.1	win	2023-06-27	19:27:05	19:42:17	907271	632b19a12e685b61f1ac6508	4	1	practice_slash	9	practice_slash	1	stimuli_distractor_diamondtriangles.svg	stimuli_target_trianglerectangles.svg	9	yes	53	1	695	0	0			0	0			1				0	
6.6.1	win	2023-06-27	19:27:05	19:42:17	907271	632b19a12e685b61f1ac6508	4	1	practice_slash	9	advance_on_keypress_SLASH	2	stimuli_distractor_diamondtriangles.svg	stimuli_target_trianglerectangles.svg	9	yes	57	0	617	0	0			0	0			1				0	
6.6.1	win	2023-06-27	19:27:05	19:42:21	910495	632b19a12e685b61f1ac6508	4	1	practice_slash	9	practice_slash	3	stimuli_target_squarediamonds.svg	stimuli_distractor_diamondtriangles.svg	2	yes	53	1	952	0	0			0	0			1				0	
6.6.1	win	2023-06-27	19:27:05	19:42:21	910495	632b19a12e685b61f1ac6508	4	1	practice_slash	9	advance_on_keypress_SLASH	4	stimuli_target_squarediamonds.svg	stimuli_distractor_diamondtriangles.svg	2	yes	57	0	669	0	0			0	0			1				0	
6.6.1	win	2023-06-27	19:27:05	19:42:24	913491	632b19a12e685b61f1ac6508	4	1	practice_slash	9	practice_slash	5	stimuli_target_diamondsquares.svg	stimuli_distractor_trianglediamonds.svg	6	yes	53	1	682	0	0			0	0			1				0	
6.6.1	win	2023-06-27	19:27:05	19:42:24	913491	632b19a12e685b61f1ac6508	4	1	practice_slash	9	advance_on_keypress_SLASH	6	stimuli_target_diamondsquares.svg	stimuli_distractor_trianglediamonds.svg	6	yes	57	0	616	0	0			0	0			1				0	
6.6.1	win	2023-06-27	19:27:05	19:42:27	916782	632b19a12e685b61f1ac6508	4	1	practice_slash	9	practice_slash	7	stimuli_distractor_diamondtriangles.svg	stimuli_target_diamondrectangles.svg	8	yes	53	1	1024	0	0			0	0			1				0	
6.6.1	win	2023-06-27	19:27:05	19:42:27	916782	632b19a12e685b61f1ac6508	4	1	practice_slash	9	advance_on_keypress_SLASH	8	stimuli_distractor_diamondtriangles.svg	stimuli_target_diamondrectangles.svg	8	yes	57	0	517	0	0			0	0			1				0	
6.6.1	win	2023-06-27	19:27:05	19:42:31	920941	632b19a12e685b61f1ac6508	4	1	practice_slash	9	practice_slash	9	stimuli_distractor_trianglediamonds.svg	stimuli_distractor_diamondtriangles.svg	16	no	0	1	2000	0	0			0	0			1				0	
6.6.1	win	2023-06-27	19:27:05	19:42:31	920941	632b19a12e685b61f1ac6508	4	1	practice_slash	9	advance_on_keypress_SLASH	10	stimuli_distractor_trianglediamonds.svg	stimuli_distractor_diamondtriangles.svg	16	no	57	0	696	0	0			0	0			1				0	
6.6.1	win	2023-06-27	19:27:05	19:42:34	924126	632b19a12e685b61f1ac6508	4	1	practice_slash	9	practice_slash	11	stimuli_distractor_trianglediamonds.svg	stimuli_target_squarediamonds.svg	11	yes	53	1	836	0	0			0	0			1				0	
6.6.1	win	2023-06-27	19:27:05	19:42:34	924126	632b19a12e685b61f1ac6508	4	1	practice_slash	9	advance_on_keypress_SLASH	12	stimuli_distractor_trianglediamonds.svg	stimuli_target_squarediamonds.svg	11	yes	57	0	512	0	0			0	0			1				0	
6.6.1	win	2023-06-27	19:27:05	19:42:37	927324	632b19a12e685b61f1ac6508	4	1	practice_slash	9	practice_slash	13	stimuli_target_diamondsquares.svg	stimuli_distractor_diamondtriangles.svg	3	yes	53	1	1033	0	0			0	0			1				0	
6.6.1	win	2023-06-27	19:27:05	19:42:37	927324	632b19a12e685b61f1ac6508	4	1	practice_slash	9	advance_on_keypress_SLASH	14	stimuli_target_diamondsquares.svg	stimuli_distractor_diamondtriangles.svg	3	yes	57	0	543	0	0			0	0			1				0	
6.6.1	win	2023-06-27	19:27:05	19:42:42	931523	632b19a12e685b61f1ac6508	4	1	practice_slash	9	practice_slash	15	stimuli_distractor_trianglediamonds.svg	stimuli_distractor_trianglediamonds.svg	15	no	0	1	2000	0	0			0	0			1				0	
6.6.1	win	2023-06-27	19:27:05	19:42:42	931523	632b19a12e685b61f1ac6508	4	1	practice_slash	9	advance_on_keypress_SLASH	16	stimuli_distractor_trianglediamonds.svg	stimuli_distractor_trianglediamonds.svg	15	no	57	0	408	0	0			0	0			1				0	
6.6.1	win	2023-06-27	19:27:05	19:42:45	934518	632b19a12e685b61f1ac6508	4	1	practice_slash	9	practice_slash	17	stimuli_distractor_trianglediamonds.svg	stimuli_target_diamondrectangles.svg	12	yes	53	1	945	0	0			0	0			1				0	
6.6.1	win	2023-06-27	19:27:05	19:42:45	934518	632b19a12e685b61f1ac6508	4	1	practice_slash	9	advance_on_keypress_SLASH	18	stimuli_distractor_trianglediamonds.svg	stimuli_target_diamondrectangles.svg	12	yes	57	0	659	0	0			0	0			1				0	
6.6.1	win	2023-06-27	19:27:05	19:42:48	937904	632b19a12e685b61f1ac6508	4	1	practice_slash	9	practice_slash	19	stimuli_target_squarediamonds.svg	stimuli_distractor_trianglediamonds.svg	5	yes	53	1	1081	0	0			0	0			1				0	
6.6.1	win	2023-06-27	19:27:05	19:42:48	937904	632b19a12e685b61f1ac6508	4	1	practice_slash	9	advance_on_keypress_SLASH	20	stimuli_target_squarediamonds.svg	stimuli_distractor_trianglediamonds.svg	5	yes	57	0	565	0	0			0	0			1				0	
6.6.1	win	2023-06-27	19:27:05	19:42:51	940895	632b19a12e685b61f1ac6508	4	1	practice_slash	9	practice_slash	21	stimuli_target_rectanglediamonds.svg	stimuli_distractor_trianglediamonds.svg	4	yes	53	1	771	0	0			0	0			1				0	
6.6.1	win	2023-06-27	19:27:05	19:42:51	940895	632b19a12e685b61f1ac6508	4	1	practice_slash	9	advance_on_keypress_SLASH	22	stimuli_target_rectanglediamonds.svg	stimuli_distractor_trianglediamonds.svg	4	yes	57	0	593	0	0			0	0			1				0	
6.6.1	win	2023-06-27	19:27:05	19:42:54	943891	632b19a12e685b61f1ac6508	4	1	practice_slash	9	practice_slash	23	stimuli_target_rectanglediamonds.svg	stimuli_distractor_diamondtriangles.svg	1	yes	53	1	769	0	0			0	0			1				0	
6.6.1	win	2023-06-27	19:27:05	19:42:54	943891	632b19a12e685b61f1ac6508	4	1	practice_slash	9	advance_on_keypress_SLASH	24	stimuli_target_rectanglediamonds.svg	stimuli_distractor_diamondtriangles.svg	1	yes	57	0	552	0	0			0	0			1				0	
6.6.1	win	2023-06-27	19:27:05	19:42:57	946876	632b19a12e685b61f1ac6508	4	1	practice_slash	9	practice_slash	25	stimuli_distractor_trianglediamonds.svg	stimuli_target_rectanglediamonds.svg	10	yes	53	1	787	0	0			0	0			1				0	
6.6.1	win	2023-06-27	19:27:05	19:42:57	946876	632b19a12e685b61f1ac6508	4	1	practice_slash	9	advance_on_keypress_SLASH	26	stimuli_distractor_trianglediamonds.svg	stimuli_target_rectanglediamonds.svg	10	yes	57	0	628	0	0			0	0			1				0	
6.6.1	win	2023-06-27	19:27:05	19:43:01	951155	632b19a12e685b61f1ac6508	4	1	practice_slash	9	practice_slash	27	stimuli_distractor_diamondtriangles.svg	stimuli_distractor_trianglediamonds.svg	14	no	0	1	2000	0	0			0	0			1				0	
6.6.1	win	2023-06-27	19:27:05	19:43:01	951155	632b19a12e685b61f1ac6508	4	1	practice_slash	9	advance_on_keypress_SLASH	28	stimuli_distractor_diamondtriangles.svg	stimuli_distractor_trianglediamonds.svg	14	no	57	0	461	0	0			0	0			1				0	
6.6.1	win	2023-06-27	19:27:05	19:43:04	953886	632b19a12e685b61f1ac6508	4	1	practice_slash	9	practice_slash	29	stimuli_distractor_diamondtriangles.svg	stimuli_target_rectangletriangles.svg	7	yes	53	1	615	0	0			0	0			1				0	
6.6.1	win	2023-06-27	19:27:05	19:43:04	953886	632b19a12e685b61f1ac6508	4	1	practice_slash	9	advance_on_keypress_SLASH	30	stimuli_distractor_diamondtriangles.svg	stimuli_target_rectangletriangles.svg	7	yes	57	0	577	0	0			0	0			1				0	
6.6.1	win	2023-06-27	19:27:05	19:43:08	958105	632b19a12e685b61f1ac6508	4	1	practice_slash	9	practice_slash	31	stimuli_distractor_diamondtriangles.svg	stimuli_distractor_diamondtriangles.svg	13	no	0	1	2000	0	0			0	0			1				0	
6.6.1	win	2023-06-27	19:27:05	19:43:08	958105	632b19a12e685b61f1ac6508	4	1	practice_slash	9	advance_on_keypress_SLASH	32	stimuli_distractor_diamondtriangles.svg	stimuli_distractor_diamondtriangles.svg	13	no	57	0	444	0	0			0	0			1				0	
6.6.1	win	2023-06-27	19:27:05	19:45:27	1096823	632b19a12e685b61f1ac6508	4	1	main_slash	11	main_slash	1	stimuli_target_squaretriangles.svg	stimuli_distractor_trianglediamonds.svg	3	yes	53	1	1263	0	0			0	0			1				0	
6.6.1	win	2023-06-27	19:27:05	19:45:27	1096823	632b19a12e685b61f1ac6508	4	1	main_slash	11	advance_on_keypress_SLASH	2	stimuli_target_squaretriangles.svg	stimuli_distractor_trianglediamonds.svg	3	yes	57	0	1473	0	0			0	0			1				0	
6.6.1	win	2023-06-27	19:27:05	19:45:30	1099638	632b19a12e685b61f1ac6508	4	1	main_slash	11	main_slash	3	stimuli_target_squaretriangles.svg	stimuli_distractor_diamondtriangles.svg	7	yes	53	1	695	0	0			0	0			1				0	
6.6.1	win	2023-06-27	19:27:05	19:45:30	1099638	632b19a12e685b61f1ac6508	4	1	main_slash	11	advance_on_keypress_SLASH	4	stimuli_target_squaretriangles.svg	stimuli_distractor_diamondtriangles.svg	7	yes	57	0	298	0	0			0	0			1				0	
6.6.1	win	2023-06-27	19:27:05	19:45:31	1101355	632b19a12e685b61f1ac6508	4	1	main_slash	11	main_slash	5	stimuli_target_squarediamonds.svg	stimuli_distractor_trianglediamonds.svg	4	yes	53	1	763	0	0			0	0			1				0	
6.6.1	win	2023-06-27	19:27:05	19:45:31	1101355	632b19a12e685b61f1ac6508	4	1	main_slash	11	advance_on_keypress_SLASH	6	stimuli_target_squarediamonds.svg	stimuli_distractor_trianglediamonds.svg	4	yes	57	0	275	0	0			0	0			1				0	
6.6.1	win	2023-06-27	19:27:05	19:45:34	1104277	632b19a12e685b61f1ac6508	4	1	main_slash	11	main_slash	7	stimuli_distractor_trianglediamonds.svg	stimuli_distractor_trianglediamonds.svg	33	no	0	1	2000	0	0			0	0			1				0	
6.6.1	win	2023-06-27	19:27:05	19:45:34	1104277	632b19a12e685b61f1ac6508	4	1	main_slash	11	advance_on_keypress_SLASH	8	stimuli_distractor_trianglediamonds.svg	stimuli_distractor_trianglediamonds.svg	33	no	57	0	342	0	0			0	0			1				0	
6.6.1	win	2023-06-27	19:27:05	19:45:36	1105792	632b19a12e685b61f1ac6508	4	1	main_slash	11	main_slash	9	stimuli_distractor_trianglediamonds.svg	stimuli_target_rectanglediamonds.svg	10	yes	53	1	533	0	0			0	0			1				0	
6.6.1	win	2023-06-27	19:27:05	19:45:36	1105792	632b19a12e685b61f1ac6508	4	1	main_slash	11	advance_on_keypress_SLASH	10	stimuli_distractor_trianglediamonds.svg	stimuli_target_rectanglediamonds.svg	10	yes	57	0	1007	0	0			0	0			1				0	
6.6.1	win	2023-06-27	19:27:05	19:45:38	1108202	632b19a12e685b61f1ac6508	4	1	main_slash	11	main_slash	11	stimuli_target_squarediamonds.svg	stimuli_distractor_diamondtriangles.svg	8	yes	53	1	759	0	0			0	0			1				0	
6.6.1	win	2023-06-27	19:27:05	19:45:38	1108202	632b19a12e685b61f1ac6508	4	1	main_slash	11	advance_on_keypress_SLASH	12	stimuli_target_squarediamonds.svg	stimuli_distractor_diamondtriangles.svg	8	yes	57	0	1521	0	0			0	0			1				0	
6.6.1	win	2023-06-27	19:27:05	19:45:41	1111120	632b19a12e685b61f1ac6508	4	1	main_slash	11	main_slash	13	stimuli_distractor_diamondtriangles.svg	stimuli_target_rectangletriangles.svg	13	yes	53	1	761	0	0			0	0			1				0	
6.6.1	win	2023-06-27	19:27:05	19:45:41	1111120	632b19a12e685b61f1ac6508	4	1	main_slash	11	advance_on_keypress_SLASH	14	stimuli_distractor_diamondtriangles.svg	stimuli_target_rectangletriangles.svg	13	yes	57	0	501	0	0			0	0			1				0	
6.6.1	win	2023-06-27	19:27:05	19:45:43	1112978	632b19a12e685b61f1ac6508	4	1	main_slash	11	main_slash	15	stimuli_distractor_diamondtriangles.svg	stimuli_target_diamondrectangles.svg	31	yes	53	1	719	0	0			0	0			1				0	
6.6.1	win	2023-06-27	19:27:05	19:45:43	1112978	632b19a12e685b61f1ac6508	4	1	main_slash	11	advance_on_keypress_SLASH	16	stimuli_distractor_diamondtriangles.svg	stimuli_target_diamondrectangles.svg	31	yes	57	0	451	0	0			0	0			1				0	
6.6.1	win	2023-06-27	19:27:05	19:45:45	1114813	632b19a12e685b61f1ac6508	4	1	main_slash	11	main_slash	17	stimuli_distractor_trianglediamonds.svg	stimuli_target_trianglesquares.svg	26	yes	53	1	737	0	0			0	0			1				0	
6.6.1	win	2023-06-27	19:27:05	19:45:45	1114813	632b19a12e685b61f1ac6508	4	1	main_slash	11	advance_on_keypress_SLASH	18	stimuli_distractor_trianglediamonds.svg	stimuli_target_trianglesquares.svg	26	yes	57	0	410	0	0			0	0			1				0	
6.6.1	win	2023-06-27	19:27:05	19:45:47	1116695	632b19a12e685b61f1ac6508	4	1	main_slash	11	main_slash	19	stimuli_target_trianglesquares.svg	stimuli_distractor_trianglediamonds.svg	18	yes	53	1	836	0	0			0	0			1				0	
6.6.1	win	2023-06-27	19:27:05	19:45:47	1116695	632b19a12e685b61f1ac6508	4	1	main_slash	11	advance_on_keypress_SLASH	20	stimuli_target_trianglesquares.svg	stimuli_distractor_trianglediamonds.svg	18	yes	57	0	500	0	0			0	0			1				0	
6.6.1	win	2023-06-27	19:27:05	19:45:49	1118525	632b19a12e685b61f1ac6508	4	1	main_slash	11	main_slash	21	stimuli_target_trianglerectangles.svg	stimuli_distractor_diamondtriangles.svg	21	yes	53	1	682	0	0			0	0			1				0	
6.6.1	win	2023-06-27	19:27:05	19:45:49	1118525	632b19a12e685b61f1ac6508	4	1	main_slash	11	advance_on_keypress_SLASH	22	stimuli_target_trianglerectangles.svg	stimuli_distractor_diamondtriangles.svg	21	yes	57	0	876	0	0			0	0			1				0	
6.6.1	win	2023-06-27	19:27:05	19:45:51	1120680	632b19a12e685b61f1ac6508	4	1	main_slash	11	main_slash	23	stimuli_target_diamondsquares.svg	stimuli_distractor_diamondtriangles.svg	24	yes	53	1	639	0	0			0	0			1				0	
6.6.1	win	2023-06-27	19:27:05	19:45:51	1120680	632b19a12e685b61f1ac6508	4	1	main_slash	11	advance_on_keypress_SLASH	24	stimuli_target_diamondsquares.svg	stimuli_distractor_diamondtriangles.svg	24	yes	57	0	411	0	0			0	0			1				0	
6.6.1	win	2023-06-27	19:27:05	19:45:53	1122664	632b19a12e685b61f1ac6508	4	1	main_slash	11	main_slash	25	stimuli_target_trianglerectangles.svg	stimuli_distractor_trianglediamonds.svg	17	yes	53	1	939	0	0			0	0			1				0	
6.6.1	win	2023-06-27	19:27:05	19:45:53	1122664	632b19a12e685b61f1ac6508	4	1	main_slash	11	advance_on_keypress_SLASH	26	stimuli_target_trianglerectangles.svg	stimuli_distractor_trianglediamonds.svg	17	yes	57	0	432	0	0			0	0			1				0	
6.6.1	win	2023-06-27	19:27:05	19:45:55	1125340	632b19a12e685b61f1ac6508	4	1	main_slash	11	main_slash	27	stimuli_distractor_diamondtriangles.svg	stimuli_target_rectanglediamonds.svg	14	yes	53	1	1599	0	0			0	0			1				0	
6.6.1	win	2023-06-27	19:27:05	19:45:55	1125340	632b19a12e685b61f1ac6508	4	1	main_slash	11	advance_on_keypress_SLASH	28	stimuli_distractor_diamondtriangles.svg	stimuli_target_rectanglediamonds.svg	14	yes	57	0	708	0	0			0	0			1				0	
6.6.1	win	2023-06-27	19:27:05	19:45:58	1127768	632b19a12e685b61f1ac6508	4	1	main_slash	11	main_slash	29	stimuli_distractor_trianglediamonds.svg	stimuli_distractor_diamondtriangles.svg	36	no	53	0	1076	0	0			0	0			1				0	
6.6.1	win	2023-06-27	19:27:05	19:45:58	1127768	632b19a12e685b61f1ac6508	4	1	main_slash	11	advance_on_keypress_SLASH	30	stimuli_distractor_trianglediamonds.svg	stimuli_distractor_diamondtriangles.svg	36	no	57	0	385	0	0			0	0			1				0	
6.6.1	win	2023-06-27	19:27:05	19:46:01	1130791	632b19a12e685b61f1ac6508	4	1	main_slash	11	main_slash	31	stimuli_distractor_diamondtriangles.svg	stimuli_distractor_trianglediamonds.svg	37	no	0	1	2000	0	0			0	0			1				0	
6.6.1	win	2023-06-27	19:27:05	19:46:01	1130791	632b19a12e685b61f1ac6508	4	1	main_slash	11	advance_on_keypress_SLASH	32	stimuli_distractor_diamondtriangles.svg	stimuli_distractor_trianglediamonds.svg	37	no	57	0	921	0	0			0	0			1				0	
6.6.1	win	2023-06-27	19:27:05	19:46:03	1132854	632b19a12e685b61f1ac6508	4	1	main_slash	11	main_slash	33	stimuli_target_diamondsquares.svg	stimuli_distractor_trianglediamonds.svg	20	yes	53	1	496	0	0			0	0			1				0	
6.6.1	win	2023-06-27	19:27:05	19:46:03	1132854	632b19a12e685b61f1ac6508	4	1	main_slash	11	advance_on_keypress_SLASH	34	stimuli_target_diamondsquares.svg	stimuli_distractor_trianglediamonds.svg	20	yes	57	0	448	0	0			0	0			1				0	
6.6.1	win	2023-06-27	19:27:05	19:46:05	1134769	632b19a12e685b61f1ac6508	4	1	main_slash	11	main_slash	35	stimuli_distractor_trianglediamonds.svg	stimuli_target_squarediamonds.svg	12	yes	53	1	811	0	0			0	0			1				0	
6.6.1	win	2023-06-27	19:27:05	19:46:05	1134769	632b19a12e685b61f1ac6508	4	1	main_slash	11	advance_on_keypress_SLASH	36	stimuli_distractor_trianglediamonds.svg	stimuli_target_squarediamonds.svg	12	yes	57	0	344	0	0			0	0			1				0	
6.6.1	win	2023-06-27	19:27:05	19:46:07	1137107	632b19a12e685b61f1ac6508	4	1	main_slash	11	main_slash	37	stimuli_target_rectangletriangles.svg	stimuli_distractor_trianglediamonds.svg	1	yes	53	1	1350	0	0			0	0			1				0	
6.6.1	win	2023-06-27	19:27:05	19:46:07	1137107	632b19a12e685b61f1ac6508	4	1	main_slash	11	advance_on_keypress_SLASH	38	stimuli_target_rectangletriangles.svg	stimuli_distractor_trianglediamonds.svg	1	yes	57	0	1108	0	0			0	0			1				0	
6.6.1	win	2023-06-27	19:27:05	19:46:10	1140008	632b19a12e685b61f1ac6508	4	1	main_slash	11	main_slash	39	stimuli_distractor_diamondtriangles.svg	stimuli_target_squaretriangles.svg	15	yes	53	1	1152	0	0			0	0			1				0	
6.6.1	win	2023-06-27	19:27:05	19:46:10	1140008	632b19a12e685b61f1ac6508	4	1	main_slash	11	advance_on_keypress_SLASH	40	stimuli_distractor_diamondtriangles.svg	stimuli_target_squaretriangles.svg	15	yes	57	0	394	0	0			0	0			1				0	
6.6.1	win	2023-06-27	19:27:05	19:46:12	1141744	632b19a12e685b61f1ac6508	4	1	main_slash	11	main_slash	41	stimuli_distractor_trianglediamonds.svg	stimuli_target_squaretriangles.svg	11	yes	53	1	704	0	0			0	0			1				0	
6.6.1	win	2023-06-27	19:27:05	19:46:12	1141744	632b19a12e685b61f1ac6508	4	1	main_slash	11	advance_on_keypress_SLASH	42	stimuli_distractor_trianglediamonds.svg	stimuli_target_squaretriangles.svg	11	yes	57	0	356	0	0			0	0			1				0	
6.6.1	win	2023-06-27	19:27:05	19:46:13	1143461	632b19a12e685b61f1ac6508	4	1	main_slash	11	main_slash	43	stimuli_distractor_trianglediamonds.svg	stimuli_target_trianglerectangles.svg	25	yes	53	1	721	0	0			0	0			1				0	
6.6.1	win	2023-06-27	19:27:05	19:46:13	1143461	632b19a12e685b61f1ac6508	4	1	main_slash	11	advance_on_keypress_SLASH	44	stimuli_distractor_trianglediamonds.svg	stimuli_target_trianglerectangles.svg	25	yes	57	0	329	0	0			0	0			1				0	
6.6.1	win	2023-06-27	19:27:05	19:46:15	1145165	632b19a12e685b61f1ac6508	4	1	main_slash	11	main_slash	45	stimuli_distractor_diamondtriangles.svg	stimuli_target_diamondsquares.svg	32	yes	53	1	725	0	0			0	0			1				0	
6.6.1	win	2023-06-27	19:27:05	19:46:15	1145165	632b19a12e685b61f1ac6508	4	1	main_slash	11	advance_on_keypress_SLASH	46	stimuli_distractor_diamondtriangles.svg	stimuli_target_diamondsquares.svg	32	yes	57	0	367	0	0			0	0			1				0	
6.6.1	win	2023-06-27	19:27:05	19:46:18	1148173	632b19a12e685b61f1ac6508	4	1	main_slash	11	main_slash	47	stimuli_distractor_diamondtriangles.svg	stimuli_distractor_diamondtriangles.svg	40	no	0	1	2000	0	0			0	0			1				0	
6.6.1	win	2023-06-27	19:27:05	19:46:18	1148173	632b19a12e685b61f1ac6508	4	1	main_slash	11	advance_on_keypress_SLASH	48	stimuli_distractor_diamondtriangles.svg	stimuli_distractor_diamondtriangles.svg	40	no	57	0	429	0	0			0	0			1				0	
6.6.1	win	2023-06-27	19:27:05	19:46:20	1149713	632b19a12e685b61f1ac6508	4	1	main_slash	11	main_slash	49	stimuli_target_rectanglediamonds.svg	stimuli_distractor_diamondtriangles.svg	6	yes	53	1	456	0	0			0	0			1				0	
6.6.1	win	2023-06-27	19:27:05	19:46:20	1149713	632b19a12e685b61f1ac6508	4	1	main_slash	11	advance_on_keypress_SLASH	50	stimuli_target_rectanglediamonds.svg	stimuli_distractor_diamondtriangles.svg	6	yes	57	0	442	0	0			0	0			1				0	
6.6.1	win	2023-06-27	19:27:05	19:46:21	1151326	632b19a12e685b61f1ac6508	4	1	main_slash	11	main_slash	51	stimuli_distractor_diamondtriangles.svg	stimuli_target_trianglerectangles.svg	29	yes	53	1	535	0	0			0	0			1				0	
6.6.1	win	2023-06-27	19:27:05	19:46:21	1151326	632b19a12e685b61f1ac6508	4	1	main_slash	11	advance_on_keypress_SLASH	52	stimuli_distractor_diamondtriangles.svg	stimuli_target_trianglerectangles.svg	29	yes	57	0	580	0	0			0	0			1				0	
6.6.1	win	2023-06-27	19:27:05	19:46:23	1153008	632b19a12e685b61f1ac6508	4	1	main_slash	11	main_slash	53	stimuli_distractor_trianglediamonds.svg	stimuli_target_diamondsquares.svg	28	yes	53	1	453	0	0			0	0			1				0	
6.6.1	win	2023-06-27	19:27:05	19:46:23	1153008	632b19a12e685b61f1ac6508	4	1	main_slash	11	advance_on_keypress_SLASH	54	stimuli_distractor_trianglediamonds.svg	stimuli_target_diamondsquares.svg	28	yes	57	0	341	0	0			0	0			1				0	
6.6.1	win	2023-06-27	19:27:05	19:46:25	1154509	632b19a12e685b61f1ac6508	4	1	main_slash	11	main_slash	55	stimuli_target_trianglesquares.svg	stimuli_distractor_diamondtriangles.svg	22	yes	53	1	521	0	0			0	0			1				0	
6.6.1	win	2023-06-27	19:27:05	19:46:25	1154509	632b19a12e685b61f1ac6508	4	1	main_slash	11	advance_on_keypress_SLASH	56	stimuli_target_trianglesquares.svg	stimuli_distractor_diamondtriangles.svg	22	yes	57	0	355	0	0			0	0			1				0	
6.6.1	win	2023-06-27	19:27:05	19:46:26	1156242	632b19a12e685b61f1ac6508	4	1	main_slash	11	main_slash	57	stimuli_target_diamondrectangles.svg	stimuli_distractor_diamondtriangles.svg	23	yes	53	1	736	0	0			0	0			1				0	
6.6.1	win	2023-06-27	19:27:05	19:46:26	1156242	632b19a12e685b61f1ac6508	4	1	main_slash	11	advance_on_keypress_SLASH	58	stimuli_target_diamondrectangles.svg	stimuli_distractor_diamondtriangles.svg	23	yes	57	0	218	0	0			0	0			1				0	
6.6.1	win	2023-06-27	19:27:05	19:46:28	1157879	632b19a12e685b61f1ac6508	4	1	main_slash	11	main_slash	59	stimuli_distractor_diamondtriangles.svg	stimuli_distractor_trianglediamonds.svg	38	no	53	0	773	0	0			0	0			1				0	
6.6.1	win	2023-06-27	19:27:05	19:46:28	1157879	632b19a12e685b61f1ac6508	4	1	main_slash	11	advance_on_keypress_SLASH	60	stimuli_distractor_diamondtriangles.svg	stimuli_distractor_trianglediamonds.svg	38	no	57	0	512	0	0			0	0			1				0	
6.6.1	win	2023-06-27	19:27:05	19:46:30	1159786	632b19a12e685b61f1ac6508	4	1	main_slash	11	main_slash	61	stimuli_target_rectangletriangles.svg	stimuli_distractor_diamondtriangles.svg	5	yes	53	1	747	0	0			0	0			1				0	
6.6.1	win	2023-06-27	19:27:05	19:46:30	1159786	632b19a12e685b61f1ac6508	4	1	main_slash	11	advance_on_keypress_SLASH	62	stimuli_target_rectangletriangles.svg	stimuli_distractor_diamondtriangles.svg	5	yes	57	0	225	0	0			0	0			1				0	
6.6.1	win	2023-06-27	19:27:05	19:46:33	1162655	632b19a12e685b61f1ac6508	4	1	main_slash	11	main_slash	63	stimuli_distractor_trianglediamonds.svg	stimuli_distractor_diamondtriangles.svg	35	no	0	1	2000	0	0			0	0			1				0	
6.6.1	win	2023-06-27	19:27:05	19:46:33	1162655	632b19a12e685b61f1ac6508	4	1	main_slash	11	advance_on_keypress_SLASH	64	stimuli_distractor_trianglediamonds.svg	stimuli_distractor_diamondtriangles.svg	35	no	57	0	656	0	0			0	0			1				0	
6.6.1	win	2023-06-27	19:27:05	19:46:34	1164381	632b19a12e685b61f1ac6508	4	1	main_slash	11	main_slash	65	stimuli_distractor_diamondtriangles.svg	stimuli_target_squarediamonds.svg	16	yes	53	1	425	0	0			0	0			1				0	
6.6.1	win	2023-06-27	19:27:05	19:46:34	1164381	632b19a12e685b61f1ac6508	4	1	main_slash	11	advance_on_keypress_SLASH	66	stimuli_distractor_diamondtriangles.svg	stimuli_target_squarediamonds.svg	16	yes	57	0	307	0	0			0	0			1				0	
6.6.1	win	2023-06-27	19:27:05	19:46:37	1167322	632b19a12e685b61f1ac6508	4	1	main_slash	11	main_slash	67	stimuli_distractor_trianglediamonds.svg	stimuli_distractor_trianglediamonds.svg	34	no	0	1	2000	0	0			0	0			1				0	
6.6.1	win	2023-06-27	19:27:05	19:46:37	1167322	632b19a12e685b61f1ac6508	4	1	main_slash	11	advance_on_keypress_SLASH	68	stimuli_distractor_trianglediamonds.svg	stimuli_distractor_trianglediamonds.svg	34	no	57	0	537	0	0			0	0			1				0	
6.6.1	win	2023-06-27	19:27:05	19:46:39	1169000	632b19a12e685b61f1ac6508	4	1	main_slash	11	main_slash	69	stimuli_target_diamondrectangles.svg	stimuli_distractor_trianglediamonds.svg	19	yes	53	1	494	0	0			0	0			1				0	
6.6.1	win	2023-06-27	19:27:05	19:46:39	1169000	632b19a12e685b61f1ac6508	4	1	main_slash	11	advance_on_keypress_SLASH	70	stimuli_target_diamondrectangles.svg	stimuli_distractor_trianglediamonds.svg	19	yes	57	0	276	0	0			0	0			1				0	
6.6.1	win	2023-06-27	19:27:05	19:46:42	1171905	632b19a12e685b61f1ac6508	4	1	main_slash	11	main_slash	71	stimuli_distractor_diamondtriangles.svg	stimuli_distractor_diamondtriangles.svg	39	no	0	1	2000	0	0			0	0			1				0	
6.6.1	win	2023-06-27	19:27:05	19:46:42	1171905	632b19a12e685b61f1ac6508	4	1	main_slash	11	advance_on_keypress_SLASH	72	stimuli_distractor_diamondtriangles.svg	stimuli_distractor_diamondtriangles.svg	39	no	57	0	547	0	0			0	0			1				0	
6.6.1	win	2023-06-27	19:27:05	19:46:44	1173961	632b19a12e685b61f1ac6508	4	1	main_slash	11	main_slash	73	stimuli_target_rectanglediamonds.svg	stimuli_distractor_trianglediamonds.svg	2	yes	53	1	856	0	0			0	0			1				0	
6.6.1	win	2023-06-27	19:27:05	19:46:44	1173961	632b19a12e685b61f1ac6508	4	1	main_slash	11	advance_on_keypress_SLASH	74	stimuli_target_rectanglediamonds.svg	stimuli_distractor_trianglediamonds.svg	2	yes	57	0	246	0	0			0	0			1				0	
6.6.1	win	2023-06-27	19:27:05	19:46:45	1175296	632b19a12e685b61f1ac6508	4	1	main_slash	11	main_slash	75	stimuli_distractor_trianglediamonds.svg	stimuli_target_rectangletriangles.svg	9	yes	53	1	442	0	0			0	0			1				0	
6.6.1	win	2023-06-27	19:27:05	19:46:45	1175296	632b19a12e685b61f1ac6508	4	1	main_slash	11	advance_on_keypress_SLASH	76	stimuli_distractor_trianglediamonds.svg	stimuli_target_rectangletriangles.svg	9	yes	57	0	179	0	0			0	0			1				0	
6.6.1	win	2023-06-27	19:27:05	19:46:47	1176728	632b19a12e685b61f1ac6508	4	1	main_slash	11	main_slash	77	stimuli_distractor_trianglediamonds.svg	stimuli_target_diamondrectangles.svg	27	yes	53	1	606	0	0			0	0			1				0	
6.6.1	win	2023-06-27	19:27:05	19:46:47	1176728	632b19a12e685b61f1ac6508	4	1	main_slash	11	advance_on_keypress_SLASH	78	stimuli_distractor_trianglediamonds.svg	stimuli_target_diamondrectangles.svg	27	yes	57	0	201	0	0			0	0			1				0	
6.6.1	win	2023-06-27	19:27:05	19:46:48	1178127	632b19a12e685b61f1ac6508	4	1	main_slash	11	main_slash	79	stimuli_distractor_diamondtriangles.svg	stimuli_target_trianglesquares.svg	30	yes	53	1	557	0	0			0	0			1				0	
6.6.1	win	2023-06-27	19:27:05	19:46:48	1178127	632b19a12e685b61f1ac6508	4	1	main_slash	11	advance_on_keypress_SLASH	80	stimuli_distractor_diamondtriangles.svg	stimuli_target_trianglesquares.svg	30	yes	57	0	188	0	0			0	0			1				0	
6.6.1	win	2023-06-27	19:27:05	19:46:50	1179718	632b19a12e685b61f1ac6508	4	1	main_slash	11	main_slash	81	stimuli_distractor_trianglediamonds.svg	stimuli_target_squarediamonds.svg	12	yes	53	1	763	0	0			0	0			1				0	
6.6.1	win	2023-06-27	19:27:05	19:46:50	1179718	632b19a12e685b61f1ac6508	4	1	main_slash	11	advance_on_keypress_SLASH	82	stimuli_distractor_trianglediamonds.svg	stimuli_target_squarediamonds.svg	12	yes	57	0	211	0	0			0	0			1				0	
6.6.1	win	2023-06-27	19:27:05	19:46:51	1181193	632b19a12e685b61f1ac6508	4	1	main_slash	11	main_slash	83	stimuli_target_squarediamonds.svg	stimuli_distractor_trianglediamonds.svg	4	yes	53	1	622	0	0			0	0			1				0	
6.6.1	win	2023-06-27	19:27:05	19:46:51	1181193	632b19a12e685b61f1ac6508	4	1	main_slash	11	advance_on_keypress_SLASH	84	stimuli_target_squarediamonds.svg	stimuli_distractor_trianglediamonds.svg	4	yes	57	0	246	0	0			0	0			1				0	
6.6.1	win	2023-06-27	19:27:05	19:46:53	1182755	632b19a12e685b61f1ac6508	4	1	main_slash	11	main_slash	85	stimuli_target_diamondsquares.svg	stimuli_distractor_diamondtriangles.svg	24	yes	53	1	668	0	0			0	0			1				0	
6.6.1	win	2023-06-27	19:27:05	19:46:53	1182755	632b19a12e685b61f1ac6508	4	1	main_slash	11	advance_on_keypress_SLASH	86	stimuli_target_diamondsquares.svg	stimuli_distractor_diamondtriangles.svg	24	yes	57	0	255	0	0			0	0			1				0	
6.6.1	win	2023-06-27	19:27:05	19:46:54	1184093	632b19a12e685b61f1ac6508	4	1	main_slash	11	main_slash	87	stimuli_distractor_trianglediamonds.svg	stimuli_target_rectanglediamonds.svg	10	yes	53	1	440	0	0			0	0			1				0	
6.6.1	win	2023-06-27	19:27:05	19:46:54	1184093	632b19a12e685b61f1ac6508	4	1	main_slash	11	advance_on_keypress_SLASH	88	stimuli_distractor_trianglediamonds.svg	stimuli_target_rectanglediamonds.svg	10	yes	57	0	242	0	0			0	0			1				0	
6.6.1	win	2023-06-27	19:27:05	19:46:56	1185601	632b19a12e685b61f1ac6508	4	1	main_slash	11	main_slash	89	stimuli_distractor_diamondtriangles.svg	stimuli_target_diamondsquares.svg	32	yes	53	1	631	0	0			0	0			1				0	
6.6.1	win	2023-06-27	19:27:05	19:46:56	1185601	632b19a12e685b61f1ac6508	4	1	main_slash	11	advance_on_keypress_SLASH	90	stimuli_distractor_diamondtriangles.svg	stimuli_target_diamondsquares.svg	32	yes	57	0	258	0	0			0	0			1				0	
6.6.1	win	2023-06-27	19:27:05	19:46:57	1186902	632b19a12e685b61f1ac6508	4	1	main_slash	11	main_slash	91	stimuli_distractor_trianglediamonds.svg	stimuli_target_squaretriangles.svg	11	yes	53	1	399	0	0			0	0			1				0	
6.6.1	win	2023-06-27	19:27:05	19:46:57	1186902	632b19a12e685b61f1ac6508	4	1	main_slash	11	advance_on_keypress_SLASH	92	stimuli_distractor_trianglediamonds.svg	stimuli_target_squaretriangles.svg	11	yes	57	0	269	0	0			0	0			1				0	
6.6.1	win	2023-06-27	19:27:05	19:46:59	1188839	632b19a12e685b61f1ac6508	4	1	main_slash	11	main_slash	93	stimuli_target_trianglerectangles.svg	stimuli_distractor_trianglediamonds.svg	17	yes	53	1	1017	0	0			0	0			1				0	
6.6.1	win	2023-06-27	19:27:05	19:46:59	1188839	632b19a12e685b61f1ac6508	4	1	main_slash	11	advance_on_keypress_SLASH	94	stimuli_target_trianglerectangles.svg	stimuli_distractor_trianglediamonds.svg	17	yes	57	0	201	0	0			0	0			1				0	
6.6.1	win	2023-06-27	19:27:05	19:47:00	1190408	632b19a12e685b61f1ac6508	4	1	main_slash	11	main_slash	95	stimuli_target_diamondrectangles.svg	stimuli_distractor_diamondtriangles.svg	23	yes	53	1	721	0	0			0	0			1				0	
6.6.1	win	2023-06-27	19:27:05	19:47:00	1190408	632b19a12e685b61f1ac6508	4	1	main_slash	11	advance_on_keypress_SLASH	96	stimuli_target_diamondrectangles.svg	stimuli_distractor_diamondtriangles.svg	23	yes	57	0	227	0	0			0	0			1				0	
6.6.1	win	2023-06-27	19:27:05	19:47:03	1192690	632b19a12e685b61f1ac6508	4	1	main_slash	11	main_slash	97	stimuli_distractor_diamondtriangles.svg	stimuli_target_diamondrectangles.svg	31	yes	53	1	1420	0	0			0	0			1				0	
6.6.1	win	2023-06-27	19:27:05	19:47:03	1192690	632b19a12e685b61f1ac6508	4	1	main_slash	11	advance_on_keypress_SLASH	98	stimuli_distractor_diamondtriangles.svg	stimuli_target_diamondrectangles.svg	31	yes	57	0	202	0	0			0	0			1				0	
6.6.1	win	2023-06-27	19:27:05	19:47:04	1194242	632b19a12e685b61f1ac6508	4	1	main_slash	11	main_slash	99	stimuli_target_rectanglediamonds.svg	stimuli_distractor_diamondtriangles.svg	6	yes	53	1	705	0	0			0	0			1				0	
6.6.1	win	2023-06-27	19:27:05	19:47:04	1194242	632b19a12e685b61f1ac6508	4	1	main_slash	11	advance_on_keypress_SLASH	100	stimuli_target_rectanglediamonds.svg	stimuli_distractor_diamondtriangles.svg	6	yes	57	0	201	0	0			0	0			1				0	
6.6.1	win	2023-06-27	19:27:05	19:47:07	1197088	632b19a12e685b61f1ac6508	4	1	main_slash	11	main_slash	101	stimuli_distractor_diamondtriangles.svg	stimuli_distractor_diamondtriangles.svg	39	no	0	1	2000	0	0			0	0			1				0	
6.6.1	win	2023-06-27	19:27:05	19:47:07	1197088	632b19a12e685b61f1ac6508	4	1	main_slash	11	advance_on_keypress_SLASH	102	stimuli_distractor_diamondtriangles.svg	stimuli_distractor_diamondtriangles.svg	39	no	57	0	494	0	0			0	0			1				0	
6.6.1	win	2023-06-27	19:27:05	19:47:09	1198799	632b19a12e685b61f1ac6508	4	1	main_slash	11	main_slash	103	stimuli_distractor_trianglediamonds.svg	stimuli_target_rectangletriangles.svg	9	yes	53	1	580	0	0			0	0			1				0	
6.6.1	win	2023-06-27	19:27:05	19:47:09	1198799	632b19a12e685b61f1ac6508	4	1	main_slash	11	advance_on_keypress_SLASH	104	stimuli_distractor_trianglediamonds.svg	stimuli_target_rectangletriangles.svg	9	yes	57	0	139	0	0			0	0			1				0	
6.6.1	win	2023-06-27	19:27:05	19:47:10	1200246	632b19a12e685b61f1ac6508	4	1	main_slash	11	main_slash	105	stimuli_distractor_diamondtriangles.svg	stimuli_target_trianglerectangles.svg	29	yes	53	1	660	0	0			0	0			1				0	
6.6.1	win	2023-06-27	19:27:05	19:47:10	1200246	632b19a12e685b61f1ac6508	4	1	main_slash	11	advance_on_keypress_SLASH	106	stimuli_distractor_diamondtriangles.svg	stimuli_target_trianglerectangles.svg	29	yes	57	0	196	0	0			0	0			1				0	
6.6.1	win	2023-06-27	19:27:05	19:47:12	1201697	632b19a12e685b61f1ac6508	4	1	main_slash	11	main_slash	107	stimuli_target_squaretriangles.svg	stimuli_distractor_diamondtriangles.svg	7	yes	53	1	612	0	0			0	0			1				0	
6.6.1	win	2023-06-27	19:27:05	19:47:12	1201697	632b19a12e685b61f1ac6508	4	1	main_slash	11	advance_on_keypress_SLASH	108	stimuli_target_squaretriangles.svg	stimuli_distractor_diamondtriangles.svg	7	yes	57	0	262	0	0			0	0			1				0	
6.6.1	win	2023-06-27	19:27:05	19:47:13	1203210	632b19a12e685b61f1ac6508	4	1	main_slash	11	main_slash	109	stimuli_target_squarediamonds.svg	stimuli_distractor_diamondtriangles.svg	8	yes	53	1	607	0	0			0	0			1				0	
6.6.1	win	2023-06-27	19:27:05	19:47:13	1203210	632b19a12e685b61f1ac6508	4	1	main_slash	11	advance_on_keypress_SLASH	110	stimuli_target_squarediamonds.svg	stimuli_distractor_diamondtriangles.svg	8	yes	57	0	249	0	0			0	0			1				0	
6.6.1	win	2023-06-27	19:27:05	19:47:15	1205037	632b19a12e685b61f1ac6508	4	1	main_slash	11	main_slash	111	stimuli_distractor_trianglediamonds.svg	stimuli_target_trianglerectangles.svg	25	yes	53	1	934	0	0			0	0			1				0	
6.6.1	win	2023-06-27	19:27:05	19:47:15	1205037	632b19a12e685b61f1ac6508	4	1	main_slash	11	advance_on_keypress_SLASH	112	stimuli_distractor_trianglediamonds.svg	stimuli_target_trianglerectangles.svg	25	yes	57	0	219	0	0			0	0			1				0	
6.6.1	win	2023-06-27	19:27:05	19:47:18	1207903	632b19a12e685b61f1ac6508	4	1	main_slash	11	main_slash	113	stimuli_distractor_diamondtriangles.svg	stimuli_distractor_trianglediamonds.svg	38	no	0	1	2000	0	0			0	0			1				0	
6.6.1	win	2023-06-27	19:27:05	19:47:18	1207903	632b19a12e685b61f1ac6508	4	1	main_slash	11	advance_on_keypress_SLASH	114	stimuli_distractor_diamondtriangles.svg	stimuli_distractor_trianglediamonds.svg	38	no	57	0	4899	0	0			0	0			1				0	
6.6.1	win	2023-06-27	19:27:05	19:47:25	1215452	632b19a12e685b61f1ac6508	4	1	main_slash	11	main_slash	115	stimuli_distractor_diamondtriangles.svg	stimuli_distractor_diamondtriangles.svg	40	no	0	1	2000	0	0			0	0			1				0	
6.6.1	win	2023-06-27	19:27:05	19:47:25	1215452	632b19a12e685b61f1ac6508	4	1	main_slash	11	advance_on_keypress_SLASH	116	stimuli_distractor_diamondtriangles.svg	stimuli_distractor_diamondtriangles.svg	40	no	57	0	485	0	0			0	0			1				0	
6.6.1	win	2023-06-27	19:27:05	19:47:27	1217259	632b19a12e685b61f1ac6508	4	1	main_slash	11	main_slash	117	stimuli_distractor_diamondtriangles.svg	stimuli_target_rectangletriangles.svg	13	yes	53	1	673	0	0			0	0			1				0	
6.6.1	win	2023-06-27	19:27:05	19:47:27	1217259	632b19a12e685b61f1ac6508	4	1	main_slash	11	advance_on_keypress_SLASH	118	stimuli_distractor_diamondtriangles.svg	stimuli_target_rectangletriangles.svg	13	yes	57	0	267	0	0			0	0			1				0	
6.6.1	win	2023-06-27	19:27:05	19:47:30	1220168	632b19a12e685b61f1ac6508	4	1	main_slash	11	main_slash	119	stimuli_distractor_trianglediamonds.svg	stimuli_distractor_diamondtriangles.svg	35	no	0	1	2000	0	0			0	0			1				0	
6.6.1	win	2023-06-27	19:27:05	19:47:30	1220168	632b19a12e685b61f1ac6508	4	1	main_slash	11	advance_on_keypress_SLASH	120	stimuli_distractor_trianglediamonds.svg	stimuli_distractor_diamondtriangles.svg	35	no	57	0	706	0	0			0	0			1				0	
6.6.1	win	2023-06-27	19:27:05	19:47:34	1223518	632b19a12e685b61f1ac6508	4	1	main_slash	11	main_slash	121	stimuli_distractor_trianglediamonds.svg	stimuli_distractor_trianglediamonds.svg	33	no	0	1	2000	0	0			0	0			1				0	
6.6.1	win	2023-06-27	19:27:05	19:47:34	1223518	632b19a12e685b61f1ac6508	4	1	main_slash	11	advance_on_keypress_SLASH	122	stimuli_distractor_trianglediamonds.svg	stimuli_distractor_trianglediamonds.svg	33	no	57	0	642	0	0			0	0			1				0	
6.6.1	win	2023-06-27	19:27:05	19:47:36	1225568	632b19a12e685b61f1ac6508	4	1	main_slash	11	main_slash	123	stimuli_distractor_diamondtriangles.svg	stimuli_target_rectanglediamonds.svg	14	yes	53	1	767	0	0			0	0			1				0	
6.6.1	win	2023-06-27	19:27:05	19:47:36	1225568	632b19a12e685b61f1ac6508	4	1	main_slash	11	advance_on_keypress_SLASH	124	stimuli_distractor_diamondtriangles.svg	stimuli_target_rectanglediamonds.svg	14	yes	57	0	242	0	0			0	0			1				0	
6.6.1	win	2023-06-27	19:27:05	19:47:38	1228451	632b19a12e685b61f1ac6508	4	1	main_slash	11	main_slash	125	stimuli_distractor_diamondtriangles.svg	stimuli_distractor_trianglediamonds.svg	37	no	0	1	2000	0	0			0	0			1				0	
6.6.1	win	2023-06-27	19:27:05	19:47:38	1228451	632b19a12e685b61f1ac6508	4	1	main_slash	11	advance_on_keypress_SLASH	126	stimuli_distractor_diamondtriangles.svg	stimuli_distractor_trianglediamonds.svg	37	no	57	0	742	0	0			0	0			1				0	
6.6.1	win	2023-06-27	19:27:05	19:47:42	1231835	632b19a12e685b61f1ac6508	4	1	main_slash	11	main_slash	127	stimuli_distractor_trianglediamonds.svg	stimuli_distractor_trianglediamonds.svg	34	no	0	1	2000	0	0			0	0			1				0	
6.6.1	win	2023-06-27	19:27:05	19:47:42	1231835	632b19a12e685b61f1ac6508	4	1	main_slash	11	advance_on_keypress_SLASH	128	stimuli_distractor_trianglediamonds.svg	stimuli_distractor_trianglediamonds.svg	34	no	57	0	783	0	0			0	0			1				0	
6.6.1	win	2023-06-27	19:27:05	19:47:44	1233963	632b19a12e685b61f1ac6508	4	1	main_slash	11	main_slash	129	stimuli_distractor_diamondtriangles.svg	stimuli_target_trianglesquares.svg	30	yes	53	1	696	0	0			0	0			1				0	
6.6.1	win	2023-06-27	19:27:05	19:47:44	1233963	632b19a12e685b61f1ac6508	4	1	main_slash	11	advance_on_keypress_SLASH	130	stimuli_distractor_diamondtriangles.svg	stimuli_target_trianglesquares.svg	30	yes	57	0	230	0	0			0	0			1				0	
6.6.1	win	2023-06-27	19:27:05	19:47:46	1235542	632b19a12e685b61f1ac6508	4	1	main_slash	11	main_slash	131	stimuli_distractor_diamondtriangles.svg	stimuli_target_squaretriangles.svg	15	yes	53	1	693	0	0			0	0			1				0	
6.6.1	win	2023-06-27	19:27:05	19:47:46	1235542	632b19a12e685b61f1ac6508	4	1	main_slash	11	advance_on_keypress_SLASH	132	stimuli_distractor_diamondtriangles.svg	stimuli_target_squaretriangles.svg	15	yes	57	0	217	0	0			0	0			1				0	
6.6.1	win	2023-06-27	19:27:05	19:47:47	1237137	632b19a12e685b61f1ac6508	4	1	main_slash	11	main_slash	133	stimuli_target_diamondsquares.svg	stimuli_distractor_trianglediamonds.svg	20	yes	53	1	736	0	0			0	0			1				0	
6.6.1	win	2023-06-27	19:27:05	19:47:47	1237137	632b19a12e685b61f1ac6508	4	1	main_slash	11	advance_on_keypress_SLASH	134	stimuli_target_diamondsquares.svg	stimuli_distractor_trianglediamonds.svg	20	yes	57	0	209	0	0			0	0			1				0	
6.6.1	win	2023-06-27	19:27:05	19:47:49	1238631	632b19a12e685b61f1ac6508	4	1	main_slash	11	main_slash	135	stimuli_target_squaretriangles.svg	stimuli_distractor_trianglediamonds.svg	3	yes	53	1	647	0	0			0	0			1				0	
6.6.1	win	2023-06-27	19:27:05	19:47:49	1238631	632b19a12e685b61f1ac6508	4	1	main_slash	11	advance_on_keypress_SLASH	136	stimuli_target_squaretriangles.svg	stimuli_distractor_trianglediamonds.svg	3	yes	57	0	205	0	0			0	0			1				0	
6.6.1	win	2023-06-27	19:27:05	19:47:50	1240347	632b19a12e685b61f1ac6508	4	1	main_slash	11	main_slash	137	stimuli_target_trianglerectangles.svg	stimuli_distractor_diamondtriangles.svg	21	yes	53	1	864	0	0			0	0			1				0	
6.6.1	win	2023-06-27	19:27:05	19:47:50	1240347	632b19a12e685b61f1ac6508	4	1	main_slash	11	advance_on_keypress_SLASH	138	stimuli_target_trianglerectangles.svg	stimuli_distractor_diamondtriangles.svg	21	yes	57	0	223	0	0			0	0			1				0	
6.6.1	win	2023-06-27	19:27:05	19:47:52	1241799	632b19a12e685b61f1ac6508	4	1	main_slash	11	main_slash	139	stimuli_distractor_trianglediamonds.svg	stimuli_target_diamondrectangles.svg	27	yes	53	1	583	0	0			0	0			1				0	
6.6.1	win	2023-06-27	19:27:05	19:47:52	1241799	632b19a12e685b61f1ac6508	4	1	main_slash	11	advance_on_keypress_SLASH	140	stimuli_distractor_trianglediamonds.svg	stimuli_target_diamondrectangles.svg	27	yes	57	0	213	0	0			0	0			1				0	
6.6.1	win	2023-06-27	19:27:05	19:47:53	1243284	632b19a12e685b61f1ac6508	4	1	main_slash	11	main_slash	141	stimuli_target_trianglesquares.svg	stimuli_distractor_trianglediamonds.svg	18	yes	53	1	617	0	0			0	0			1				0	
6.6.1	win	2023-06-27	19:27:05	19:47:53	1243284	632b19a12e685b61f1ac6508	4	1	main_slash	11	advance_on_keypress_SLASH	142	stimuli_target_trianglesquares.svg	stimuli_distractor_trianglediamonds.svg	18	yes	57	0	205	0	0			0	0			1				0	
6.6.1	win	2023-06-27	19:27:05	19:47:55	1245371	632b19a12e685b61f1ac6508	4	1	main_slash	11	main_slash	143	stimuli_distractor_diamondtriangles.svg	stimuli_target_squarediamonds.svg	16	yes	53	1	1237	0	0			0	0			1				0	
6.6.1	win	2023-06-27	19:27:05	19:47:55	1245371	632b19a12e685b61f1ac6508	4	1	main_slash	11	advance_on_keypress_SLASH	144	stimuli_distractor_diamondtriangles.svg	stimuli_target_squarediamonds.svg	16	yes	57	0	242	0	0			0	0			1				0	
6.6.1	win	2023-06-27	19:27:05	19:47:57	1246873	632b19a12e685b61f1ac6508	4	1	main_slash	11	main_slash	145	stimuli_target_rectangletriangles.svg	stimuli_distractor_diamondtriangles.svg	5	yes	53	1	624	0	0			0	0			1				0	
6.6.1	win	2023-06-27	19:27:05	19:47:57	1246873	632b19a12e685b61f1ac6508	4	1	main_slash	11	advance_on_keypress_SLASH	146	stimuli_target_rectangletriangles.svg	stimuli_distractor_diamondtriangles.svg	5	yes	57	0	208	0	0			0	0			1				0	
6.6.1	win	2023-06-27	19:27:05	19:47:58	1248428	632b19a12e685b61f1ac6508	4	1	main_slash	11	main_slash	147	stimuli_target_trianglesquares.svg	stimuli_distractor_diamondtriangles.svg	22	yes	53	1	712	0	0			0	0			1				0	
6.6.1	win	2023-06-27	19:27:05	19:47:58	1248428	632b19a12e685b61f1ac6508	4	1	main_slash	11	advance_on_keypress_SLASH	148	stimuli_target_trianglesquares.svg	stimuli_distractor_diamondtriangles.svg	22	yes	57	0	215	0	0			0	0			1				0	
6.6.1	win	2023-06-27	19:27:05	19:48:00	1249934	632b19a12e685b61f1ac6508	4	1	main_slash	11	main_slash	149	stimuli_target_rectangletriangles.svg	stimuli_distractor_trianglediamonds.svg	1	yes	53	1	634	0	0			0	0			1				0	
6.6.1	win	2023-06-27	19:27:05	19:48:00	1249934	632b19a12e685b61f1ac6508	4	1	main_slash	11	advance_on_keypress_SLASH	150	stimuli_target_rectangletriangles.svg	stimuli_distractor_trianglediamonds.svg	1	yes	57	0	269	0	0			0	0			1				0	
6.6.1	win	2023-06-27	19:27:05	19:48:03	1252850	632b19a12e685b61f1ac6508	4	1	main_slash	11	main_slash	151	stimuli_distractor_trianglediamonds.svg	stimuli_distractor_diamondtriangles.svg	36	no	0	1	2000	0	0			0	0			1				0	
6.6.1	win	2023-06-27	19:27:05	19:48:03	1252850	632b19a12e685b61f1ac6508	4	1	main_slash	11	advance_on_keypress_SLASH	152	stimuli_distractor_trianglediamonds.svg	stimuli_distractor_diamondtriangles.svg	36	no	57	0	412	0	0			0	0			1				0	
6.6.1	win	2023-06-27	19:27:05	19:48:05	1254506	632b19a12e685b61f1ac6508	4	1	main_slash	11	main_slash	153	stimuli_distractor_trianglediamonds.svg	stimuli_target_diamondsquares.svg	28	yes	53	1	608	0	0			0	0			1				0	
6.6.1	win	2023-06-27	19:27:05	19:48:05	1254506	632b19a12e685b61f1ac6508	4	1	main_slash	11	advance_on_keypress_SLASH	154	stimuli_distractor_trianglediamonds.svg	stimuli_target_diamondsquares.svg	28	yes	57	0	477	0	0			0	0			1				0	
6.6.1	win	2023-06-27	19:27:05	19:48:06	1256406	632b19a12e685b61f1ac6508	4	1	main_slash	11	main_slash	155	stimuli_target_rectanglediamonds.svg	stimuli_distractor_trianglediamonds.svg	2	yes	53	1	790	0	0			0	0			1				0	
6.6.1	win	2023-06-27	19:27:05	19:48:06	1256406	632b19a12e685b61f1ac6508	4	1	main_slash	11	advance_on_keypress_SLASH	156	stimuli_target_rectanglediamonds.svg	stimuli_distractor_trianglediamonds.svg	2	yes	57	0	259	0	0			0	0			1				0	
6.6.1	win	2023-06-27	19:27:05	19:48:08	1257883	632b19a12e685b61f1ac6508	4	1	main_slash	11	main_slash	157	stimuli_target_diamondrectangles.svg	stimuli_distractor_trianglediamonds.svg	19	yes	53	1	585	0	0			0	0			1				0	
6.6.1	win	2023-06-27	19:27:05	19:48:08	1257883	632b19a12e685b61f1ac6508	4	1	main_slash	11	advance_on_keypress_SLASH	158	stimuli_target_diamondrectangles.svg	stimuli_distractor_trianglediamonds.svg	19	yes	57	0	369	0	0			0	0			1				0	
6.6.1	win	2023-06-27	19:27:05	19:48:10	1259705	632b19a12e685b61f1ac6508	4	1	main_slash	11	main_slash	159	stimuli_distractor_trianglediamonds.svg	stimuli_target_trianglesquares.svg	26	yes	53	1	806	0	0			0	0			1				0	
6.6.1	win	2023-06-27	19:27:05	19:48:10	1259705	632b19a12e685b61f1ac6508	4	1	main_slash	11	advance_on_keypress_SLASH	160	stimuli_distractor_trianglediamonds.svg	stimuli_target_trianglesquares.svg	26	yes	57	0	262	0	0			0	0			1				0	
6.6.1	win	2023-06-27	19:27:05	19:48:10	1259705	632b19a12e685b61f1ac6508	4	1	headphonecheck_calibration	14	headphonecheck_calibrationIntro	1	stimuli_distractor_trianglediamonds.svg	stimuli_target_trianglesquares.svg	26	yes	calibrationButton	0	4980	0	0			0	0			1				0	
6.6.1	win	2023-06-27	19:27:05	19:48:10	1259705	632b19a12e685b61f1ac6508	4	1	headphonecheck_testphase	15	test_collectResponse	3	stimuli_distractor_trianglediamonds.svg	stimuli_target_trianglesquares.svg	26	yes	second	1	1215	1	1	antiphase_hc_iso.wav	2	0	0			1				0	
6.6.1	win	2023-06-27	19:27:05	19:48:10	1259705	632b19a12e685b61f1ac6508	4	1	headphonecheck_testphase	15	test_collectResponse	6	stimuli_distractor_trianglediamonds.svg	stimuli_target_trianglesquares.svg	26	yes	third	0	976	2	4	antiphase_hc_sio.wav	1	0	0			1				0	
6.6.1	win	2023-06-27	19:27:05	19:48:10	1259705	632b19a12e685b61f1ac6508	4	1	headphonecheck_testphase	15	test_collectResponse	9	stimuli_distractor_trianglediamonds.svg	stimuli_target_trianglesquares.svg	26	yes	first	0	972	3	6	antiphase_hc_ois.wav	3	0	0			1				0	
6.6.1	win	2023-06-27	19:27:05	19:48:10	1259705	632b19a12e685b61f1ac6508	4	1	headphonecheck_testphase	15	test_collectResponse	12	stimuli_distractor_trianglediamonds.svg	stimuli_target_trianglesquares.svg	26	yes	first	1	8617	4	3	antiphase_hc_soi.wav	1	0	0			1				0	
6.6.1	win	2023-06-27	19:27:05	19:48:10	1259705	632b19a12e685b61f1ac6508	4	1	headphonecheck_testphase	15	test_collectResponse	15	stimuli_distractor_trianglediamonds.svg	stimuli_target_trianglesquares.svg	26	yes	first	0	787	5	5	antiphase_hc_osi.wav	2	0	0			1				0	
6.6.1	win	2023-06-27	19:27:05	19:48:10	1259705	632b19a12e685b61f1ac6508	4	1	headphonecheck_testphase	15	test_collectResponse	18	stimuli_distractor_trianglediamonds.svg	stimuli_target_trianglesquares.svg	26	yes	second	0	587	6	2	antiphase_hc_ios.wav	3	0	0			1				0	
6.6.1	win	2023-06-27	19:27:05	19:48:10	1259705	632b19a12e685b61f1ac6508	4	1	stereocheck_calibration	17	stereocheck_calibrationIntro	1	stimuli_distractor_trianglediamonds.svg	stimuli_target_trianglesquares.svg	26	yes	stereocheck_calibrationButton	0	7628	6	2	antiphase_hc_ios.wav	3	0	0			1				0	
6.6.1	win	2023-06-27	19:27:05	19:48:10	1259705	632b19a12e685b61f1ac6508	4	1	stereocheck_testphase	18	stereocheck_test_collectResponse	3	stimuli_distractor_trianglediamonds.svg	stimuli_target_trianglesquares.svg	26	yes	stereocheck_right	1	5611	6	2	antiphase_hc_ios.wav	3	1	6	noise_calib_stim_RIGHT.wav	2	1				0	
6.6.1	win	2023-06-27	19:27:05	19:48:10	1259705	632b19a12e685b61f1ac6508	4	1	stereocheck_testphase	18	stereocheck_test_collectResponse	6	stimuli_distractor_trianglediamonds.svg	stimuli_target_trianglesquares.svg	26	yes	stereocheck_right	1	780	6	2	antiphase_hc_ios.wav	3	2	4	noise_calib_stim_RIGHT.wav	2	1				0	
6.6.1	win	2023-06-27	19:27:05	19:48:10	1259705	632b19a12e685b61f1ac6508	4	1	stereocheck_testphase	18	stereocheck_test_collectResponse	9	stimuli_distractor_trianglediamonds.svg	stimuli_target_trianglesquares.svg	26	yes	stereocheck_left	1	418	6	2	antiphase_hc_ios.wav	3	3	2	noise_calib_stim_LEFT.wav	1	1				0	
6.6.1	win	2023-06-27	19:27:05	19:48:10	1259705	632b19a12e685b61f1ac6508	4	1	stereocheck_testphase	18	stereocheck_test_collectResponse	12	stimuli_distractor_trianglediamonds.svg	stimuli_target_trianglesquares.svg	26	yes	stereocheck_left	1	207	6	2	antiphase_hc_ios.wav	3	4	3	noise_calib_stim_LEFT.wav	1	1				0	
6.6.1	win	2023-06-27	19:27:05	19:48:10	1259705	632b19a12e685b61f1ac6508	4	1	stereocheck_testphase	18	stereocheck_test_collectResponse	15	stimuli_distractor_trianglediamonds.svg	stimuli_target_trianglesquares.svg	26	yes	stereocheck_left	1	604	6	2	antiphase_hc_ios.wav	3	5	1	noise_calib_stim_LEFT.wav	1	1				0	
6.6.1	win	2023-06-27	19:27:05	19:48:10	1259705	632b19a12e685b61f1ac6508	4	1	stereocheck_testphase	18	stereocheck_test_collectResponse	18	stimuli_distractor_trianglediamonds.svg	stimuli_target_trianglesquares.svg	26	yes	stereocheck_right	1	190	6	2	antiphase_hc_ios.wav	3	6	5	noise_calib_stim_RIGHT.wav	2	1				0	
6.6.1	win	2023-06-27	19:27:05	19:48:10	1259705	632b19a12e685b61f1ac6508	4	1	DL_practice	21	DL_practice	2	stimuli_distractor_trianglediamonds.svg	stimuli_target_trianglesquares.svg	26	yes	ta	1	1693	6	2	antiphase_hc_ios.wav	3	6	5	noise_calib_stim_RIGHT.wav	2	36	blb_dichoticlistening_ta-ta.mp3	ta	ta	0	left
6.6.1	win	2023-06-27	19:27:05	19:48:10	1259705	632b19a12e685b61f1ac6508	4	1	DL_practice	21	DL_practice	3	stimuli_distractor_trianglediamonds.svg	stimuli_target_trianglesquares.svg	26	yes	ba	1	2158	6	2	antiphase_hc_ios.wav	3	6	5	noise_calib_stim_RIGHT.wav	2	7	blb_dichoticlistening_da-ba.mp3	da	ba	1	right
6.6.1	win	2023-06-27	19:27:05	19:48:10	1259705	632b19a12e685b61f1ac6508	4	1	DL_practice	21	DL_practice	4	stimuli_distractor_trianglediamonds.svg	stimuli_target_trianglesquares.svg	26	yes	ba	1	1310	6	2	antiphase_hc_ios.wav	3	6	5	noise_calib_stim_RIGHT.wav	2	1	blb_dichoticlistening_ba-ba.mp3	ba	ba	0	left
6.6.1	win	2023-06-27	19:27:05	19:48:10	1259705	632b19a12e685b61f1ac6508	4	1	DL_practice	21	DL_practice	5	stimuli_distractor_trianglediamonds.svg	stimuli_target_trianglesquares.svg	26	yes	ka	1	1895	6	2	antiphase_hc_ios.wav	3	6	5	noise_calib_stim_RIGHT.wav	2	23	blb_dichoticlistening_ka-pa.mp3	ka	pa	1	left
6.6.1	win	2023-06-27	19:27:05	19:48:10	1259705	632b19a12e685b61f1ac6508	4	1	DL_practice	21	DL_practice	6	stimuli_distractor_trianglediamonds.svg	stimuli_target_trianglesquares.svg	26	yes	da	1	1312	6	2	antiphase_hc_ios.wav	3	6	5	noise_calib_stim_RIGHT.wav	2	8	blb_dichoticlistening_da-da.mp3	da	da	0	left
6.6.1	win	2023-06-27	19:27:05	19:48:10	1259705	632b19a12e685b61f1ac6508	4	1	DL_practice	21	DL_practice	7	stimuli_distractor_trianglediamonds.svg	stimuli_target_trianglesquares.svg	26	yes	ga	1	1449	6	2	antiphase_hc_ios.wav	3	6	5	noise_calib_stim_RIGHT.wav	2	18	blb_dichoticlistening_ga-ta.mp3	ga	ta	1	left
6.6.1	win	2023-06-27	19:27:05	19:48:10	1259705	632b19a12e685b61f1ac6508	4	1	DL_practice	21	DL_practice	8	stimuli_distractor_trianglediamonds.svg	stimuli_target_trianglesquares.svg	26	yes	ka	1	1213	6	2	antiphase_hc_ios.wav	3	6	5	noise_calib_stim_RIGHT.wav	2	22	blb_dichoticlistening_ka-ka.mp3	ka	ka	0	left
6.6.1	win	2023-06-27	19:27:05	19:48:10	1259705	632b19a12e685b61f1ac6508	4	1	DL_practice	21	DL_practice	9	stimuli_distractor_trianglediamonds.svg	stimuli_target_trianglesquares.svg	26	yes	pa	1	1065	6	2	antiphase_hc_ios.wav	3	6	5	noise_calib_stim_RIGHT.wav	2	29	blb_dichoticlistening_pa-pa.mp3	pa	pa	0	left
6.6.1	win	2023-06-27	19:27:05	19:48:10	1259705	632b19a12e685b61f1ac6508	4	1	DL_practice	21	DL_practice	10	stimuli_distractor_trianglediamonds.svg	stimuli_target_trianglesquares.svg	26	yes	ga	1	1060	6	2	antiphase_hc_ios.wav	3	6	5	noise_calib_stim_RIGHT.wav	2	15	blb_dichoticlistening_ga-ga.mp3	ga	ga	0	left
6.6.1	win	2023-06-27	19:27:05	19:48:10	1259705	632b19a12e685b61f1ac6508	4	1	DL_test	23	DL_test	1	stimuli_distractor_trianglediamonds.svg	stimuli_target_trianglesquares.svg	26	yes	ga	1	1226	6	2	antiphase_hc_ios.wav	3	6	5	noise_calib_stim_RIGHT.wav	2	33	blb_dichoticlistening_ta-ga.mp3	ta	ga	1	right
6.6.1	win	2023-06-27	19:27:05	19:48:10	1259705	632b19a12e685b61f1ac6508	4	1	DL_test	23	DL_test	2	stimuli_distractor_trianglediamonds.svg	stimuli_target_trianglesquares.svg	26	yes	ka	1	1268	6	2	antiphase_hc_ios.wav	3	6	5	noise_calib_stim_RIGHT.wav	2	4	blb_dichoticlistening_ba-ka.mp3	ba	ka	1	right
6.6.1	win	2023-06-27	19:27:05	19:48:10	1259705	632b19a12e685b61f1ac6508	4	1	DL_test	23	DL_test	3	stimuli_distractor_trianglediamonds.svg	stimuli_target_trianglesquares.svg	26	yes	ba	1	1625	6	2	antiphase_hc_ios.wav	3	6	5	noise_calib_stim_RIGHT.wav	2	2	blb_dichoticlistening_ba-da.mp3	ba	da	1	left
6.6.1	win	2023-06-27	19:27:05	19:48:10	1259705	632b19a12e685b61f1ac6508	4	1	DL_test	23	DL_test	4	stimuli_distractor_trianglediamonds.svg	stimuli_target_trianglesquares.svg	26	yes	ka	1	1597	6	2	antiphase_hc_ios.wav	3	6	5	noise_calib_stim_RIGHT.wav	2	19	blb_dichoticlistening_ka-ba.mp3	ka	ba	1	left
6.6.1	win	2023-06-27	19:27:05	19:48:10	1259705	632b19a12e685b61f1ac6508	4	1	DL_test	23	DL_test	5	stimuli_distractor_trianglediamonds.svg	stimuli_target_trianglesquares.svg	26	yes	ka	1	858	6	2	antiphase_hc_ios.wav	3	6	5	noise_calib_stim_RIGHT.wav	2	28	blb_dichoticlistening_pa-ka.mp3	pa	ka	1	right
6.6.1	win	2023-06-27	19:27:05	19:48:10	1259705	632b19a12e685b61f1ac6508	4	1	DL_test	23	DL_test	6	stimuli_distractor_trianglediamonds.svg	stimuli_target_trianglesquares.svg	26	yes	ka	1	580	6	2	antiphase_hc_ios.wav	3	6	5	noise_calib_stim_RIGHT.wav	2	23	blb_dichoticlistening_ka-pa.mp3	ka	pa	1	left
6.6.1	win	2023-06-27	19:27:05	19:48:10	1259705	632b19a12e685b61f1ac6508	4	1	DL_test	23	DL_test	7	stimuli_distractor_trianglediamonds.svg	stimuli_target_trianglesquares.svg	26	yes	da	1	1153	6	2	antiphase_hc_ios.wav	3	6	5	noise_calib_stim_RIGHT.wav	2	10	blb_dichoticlistening_da-ka.mp3	da	ka	1	left
6.6.1	win	2023-06-27	19:27:05	19:48:10	1259705	632b19a12e685b61f1ac6508	4	1	DL_test	23	DL_test	8	stimuli_distractor_trianglediamonds.svg	stimuli_target_trianglesquares.svg	26	yes	pa	1	1248	6	2	antiphase_hc_ios.wav	3	6	5	noise_calib_stim_RIGHT.wav	2	5	blb_dichoticlistening_ba-pa.mp3	ba	pa	1	right
6.6.1	win	2023-06-27	19:27:05	19:48:10	1259705	632b19a12e685b61f1ac6508	4	1	DL_test	23	DL_test	9	stimuli_distractor_trianglediamonds.svg	stimuli_target_trianglesquares.svg	26	yes	ga	1	1002	6	2	antiphase_hc_ios.wav	3	6	5	noise_calib_stim_RIGHT.wav	2	9	blb_dichoticlistening_da-ga.mp3	da	ga	1	right
6.6.1	win	2023-06-27	19:27:05	19:48:10	1259705	632b19a12e685b61f1ac6508	4	1	DL_test	23	DL_test	10	stimuli_distractor_trianglediamonds.svg	stimuli_target_trianglesquares.svg	26	yes	ka	1	838	6	2	antiphase_hc_ios.wav	3	6	5	noise_calib_stim_RIGHT.wav	2	22	blb_dichoticlistening_ka-ka.mp3	ka	ka	0	left
6.6.1	win	2023-06-27	19:27:05	19:48:10	1259705	632b19a12e685b61f1ac6508	4	1	DL_test	23	DL_test	11	stimuli_distractor_trianglediamonds.svg	stimuli_target_trianglesquares.svg	26	yes	ga	0	1116	6	2	antiphase_hc_ios.wav	3	6	5	noise_calib_stim_RIGHT.wav	2	20	blb_dichoticlistening_ka-da.mp3	ka	da	1	other
6.6.1	win	2023-06-27	19:27:05	19:48:10	1259705	632b19a12e685b61f1ac6508	4	1	DL_test	23	DL_test	12	stimuli_distractor_trianglediamonds.svg	stimuli_target_trianglesquares.svg	26	yes	ba	1	2148	6	2	antiphase_hc_ios.wav	3	6	5	noise_calib_stim_RIGHT.wav	2	13	blb_dichoticlistening_ga-ba.mp3	ga	ba	1	right
6.6.1	win	2023-06-27	19:27:05	19:48:10	1259705	632b19a12e685b61f1ac6508	4	1	DL_test	23	DL_test	13	stimuli_distractor_trianglediamonds.svg	stimuli_target_trianglesquares.svg	26	yes	ta	1	1387	6	2	antiphase_hc_ios.wav	3	6	5	noise_calib_stim_RIGHT.wav	2	6	blb_dichoticlistening_ba-ta.mp3	ba	ta	1	right
6.6.1	win	2023-06-27	19:27:05	19:48:10	1259705	632b19a12e685b61f1ac6508	4	1	DL_test	23	DL_test	14	stimuli_distractor_trianglediamonds.svg	stimuli_target_trianglesquares.svg	26	yes	da	1	1168	6	2	antiphase_hc_ios.wav	3	6	5	noise_calib_stim_RIGHT.wav	2	32	blb_dichoticlistening_ta-da.mp3	ta	da	1	right
6.6.1	win	2023-06-27	19:27:05	19:48:10	1259705	632b19a12e685b61f1ac6508	4	1	DL_test	23	DL_test	15	stimuli_distractor_trianglediamonds.svg	stimuli_target_trianglesquares.svg	26	yes	ga	1	1021	6	2	antiphase_hc_ios.wav	3	6	5	noise_calib_stim_RIGHT.wav	2	14	blb_dichoticlistening_ga-da.mp3	ga	da	1	left
6.6.1	win	2023-06-27	19:27:05	19:48:10	1259705	632b19a12e685b61f1ac6508	4	1	DL_test	23	DL_test	16	stimuli_distractor_trianglediamonds.svg	stimuli_target_trianglesquares.svg	26	yes	ba	1	1872	6	2	antiphase_hc_ios.wav	3	6	5	noise_calib_stim_RIGHT.wav	2	3	blb_dichoticlistening_ba-ga.mp3	ba	ga	1	left
6.6.1	win	2023-06-27	19:27:05	19:48:10	1259705	632b19a12e685b61f1ac6508	4	1	DL_test	23	DL_test	17	stimuli_distractor_trianglediamonds.svg	stimuli_target_trianglesquares.svg	26	yes	da	1	1316	6	2	antiphase_hc_ios.wav	3	6	5	noise_calib_stim_RIGHT.wav	2	11	blb_dichoticlistening_da-pa.mp3	da	pa	1	left
6.6.1	win	2023-06-27	19:27:05	19:48:10	1259705	632b19a12e685b61f1ac6508	4	1	DL_test	23	DL_test	18	stimuli_distractor_trianglediamonds.svg	stimuli_target_trianglesquares.svg	26	yes	da	1	1546	6	2	antiphase_hc_ios.wav	3	6	5	noise_calib_stim_RIGHT.wav	2	26	blb_dichoticlistening_pa-da.mp3	pa	da	1	right
6.6.1	win	2023-06-27	19:27:05	19:48:10	1259705	632b19a12e685b61f1ac6508	4	1	DL_test	23	DL_test	19	stimuli_distractor_trianglediamonds.svg	stimuli_target_trianglesquares.svg	26	yes	ba	1	1609	6	2	antiphase_hc_ios.wav	3	6	5	noise_calib_stim_RIGHT.wav	2	1	blb_dichoticlistening_ba-ba.mp3	ba	ba	0	left
6.6.1	win	2023-06-27	19:27:05	19:48:10	1259705	632b19a12e685b61f1ac6508	4	1	DL_test	23	DL_test	20	stimuli_distractor_trianglediamonds.svg	stimuli_target_trianglesquares.svg	26	yes	da	1	1031	6	2	antiphase_hc_ios.wav	3	6	5	noise_calib_stim_RIGHT.wav	2	12	blb_dichoticlistening_da-ta.mp3	da	ta	1	left
6.6.1	win	2023-06-27	19:27:05	19:48:10	1259705	632b19a12e685b61f1ac6508	4	1	DL_test	23	DL_test	21	stimuli_distractor_trianglediamonds.svg	stimuli_target_trianglesquares.svg	26	yes	ka	1	1088	6	2	antiphase_hc_ios.wav	3	6	5	noise_calib_stim_RIGHT.wav	2	24	blb_dichoticlistening_ka-ta.mp3	ka	ta	1	left
6.6.1	win	2023-06-27	19:27:05	19:48:10	1259705	632b19a12e685b61f1ac6508	4	1	DL_test	23	DL_test	22	stimuli_distractor_trianglediamonds.svg	stimuli_target_trianglesquares.svg	26	yes	ba	1	1557	6	2	antiphase_hc_ios.wav	3	6	5	noise_calib_stim_RIGHT.wav	2	7	blb_dichoticlistening_da-ba.mp3	da	ba	1	right
6.6.1	win	2023-06-27	19:27:05	19:48:10	1259705	632b19a12e685b61f1ac6508	4	1	DL_test	23	DL_test	23	stimuli_distractor_trianglediamonds.svg	stimuli_target_trianglesquares.svg	26	yes	ta	1	1571	6	2	antiphase_hc_ios.wav	3	6	5	noise_calib_stim_RIGHT.wav	2	36	blb_dichoticlistening_ta-ta.mp3	ta	ta	0	left
6.6.1	win	2023-06-27	19:27:05	19:48:10	1259705	632b19a12e685b61f1ac6508	4	1	DL_test	23	DL_test	24	stimuli_distractor_trianglediamonds.svg	stimuli_target_trianglesquares.svg	26	yes	pa	1	1392	6	2	antiphase_hc_ios.wav	3	6	5	noise_calib_stim_RIGHT.wav	2	25	blb_dichoticlistening_pa-ba.mp3	pa	ba	1	left
6.6.1	win	2023-06-27	19:27:05	19:48:10	1259705	632b19a12e685b61f1ac6508	4	1	DL_test	23	DL_test	25	stimuli_distractor_trianglediamonds.svg	stimuli_target_trianglesquares.svg	26	yes	ka	1	1102	6	2	antiphase_hc_ios.wav	3	6	5	noise_calib_stim_RIGHT.wav	2	34	blb_dichoticlistening_ta-ka.mp3	ta	ka	1	right
