build	computer.platform	date	time	timestamp	time_elapsed_ms	subject	group	session	blockcode	blocknum	trialcode	trialnum	stimulus_left	stimulus_right	stim_index	target_present	response	correct	latency	headphonecheck_countTestTrials	headphonecheck_index	headphonecheck_testSound	headphonecheck_correctResponse	stereocheck_countTestTrials	stereocheck_index	stereocheck_testSound	stereocheck_correctResponse	DL_index	DL_soundfile	DL_leftSound	DL_rightSound	DL_dualSound	DL_choice
6.6.1	win	2023-06-02	08:41:03	08:54:07	777394	5ee232f2b970662cfa352567	4	1	practice_z	5	practice_z	1	stimuli_distractor_diamondtriangles.svg	stimuli_target_diamondrectangles.svg	8	yes	44	1	1022	0	0			0	0			1				0	
6.6.1	win	2023-06-02	08:41:03	08:54:07	777394	5ee232f2b970662cfa352567	4	1	practice_z	5	advance_on_keypress_ZEE	2	stimuli_distractor_diamondtriangles.svg	stimuli_target_diamondrectangles.svg	8	yes	57	0	1191	0	0			0	0			1				0	
6.6.1	win	2023-06-02	08:41:03	08:54:12	781707	5ee232f2b970662cfa352567	4	1	practice_z	5	practice_z	3	stimuli_distractor_diamondtriangles.svg	stimuli_target_rectangletriangles.svg	7	yes	44	1	1431	0	0			0	0			1				0	
6.6.1	win	2023-06-02	08:41:03	08:54:12	781707	5ee232f2b970662cfa352567	4	1	practice_z	5	advance_on_keypress_ZEE	4	stimuli_distractor_diamondtriangles.svg	stimuli_target_rectangletriangles.svg	7	yes	57	0	872	0	0			0	0			1				0	
6.6.1	win	2023-06-02	08:41:03	08:54:16	786277	5ee232f2b970662cfa352567	4	1	practice_z	5	practice_z	5	stimuli_target_diamondsquares.svg	stimuli_distractor_diamondtriangles.svg	3	yes	0	0	2000	0	0			0	0			1				0	
6.6.1	win	2023-06-02	08:41:03	08:54:16	786277	5ee232f2b970662cfa352567	4	1	practice_z	5	advance_on_keypress_ZEE	6	stimuli_target_diamondsquares.svg	stimuli_distractor_diamondtriangles.svg	3	yes	57	0	1058	0	0			0	0			1				0	
6.6.1	win	2023-06-02	08:41:03	08:54:21	791066	5ee232f2b970662cfa352567	4	1	practice_z	5	practice_z	7	stimuli_distractor_diamondtriangles.svg	stimuli_distractor_trianglediamonds.svg	14	no	0	1	2000	0	0			0	0			1				0	
6.6.1	win	2023-06-02	08:41:03	08:54:21	791066	5ee232f2b970662cfa352567	4	1	practice_z	5	advance_on_keypress_ZEE	8	stimuli_distractor_diamondtriangles.svg	stimuli_distractor_trianglediamonds.svg	14	no	57	0	650	0	0			0	0			1				0	
6.6.1	win	2023-06-02	08:41:03	08:54:25	794879	5ee232f2b970662cfa352567	4	1	practice_z	5	practice_z	9	stimuli_distractor_diamondtriangles.svg	stimuli_target_trianglerectangles.svg	9	yes	44	1	1425	0	0			0	0			1				0	
6.6.1	win	2023-06-02	08:41:03	08:54:25	794879	5ee232f2b970662cfa352567	4	1	practice_z	5	advance_on_keypress_ZEE	10	stimuli_distractor_diamondtriangles.svg	stimuli_target_trianglerectangles.svg	9	yes	57	0	506	0	0			0	0			1				0	
6.6.1	win	2023-06-02	08:41:03	08:54:29	798463	5ee232f2b970662cfa352567	4	1	practice_z	5	practice_z	11	stimuli_distractor_trianglediamonds.svg	stimuli_target_rectanglediamonds.svg	10	yes	44	1	1340	0	0			0	0			1				0	
6.6.1	win	2023-06-02	08:41:03	08:54:29	798463	5ee232f2b970662cfa352567	4	1	practice_z	5	advance_on_keypress_ZEE	12	stimuli_distractor_trianglediamonds.svg	stimuli_target_rectanglediamonds.svg	10	yes	57	0	513	0	0			0	0			1				0	
6.6.1	win	2023-06-02	08:41:03	08:54:32	801765	5ee232f2b970662cfa352567	4	1	practice_z	5	practice_z	13	stimuli_distractor_trianglediamonds.svg	stimuli_target_squarediamonds.svg	11	yes	44	1	1087	0	0			0	0			1				0	
6.6.1	win	2023-06-02	08:41:03	08:54:32	801765	5ee232f2b970662cfa352567	4	1	practice_z	5	advance_on_keypress_ZEE	14	stimuli_distractor_trianglediamonds.svg	stimuli_target_squarediamonds.svg	11	yes	57	0	583	0	0			0	0			1				0	
6.6.1	win	2023-06-02	08:41:03	08:54:36	805771	5ee232f2b970662cfa352567	4	1	practice_z	5	practice_z	15	stimuli_target_diamondsquares.svg	stimuli_distractor_trianglediamonds.svg	6	yes	44	1	1707	0	0			0	0			1				0	
6.6.1	win	2023-06-02	08:41:03	08:54:36	805771	5ee232f2b970662cfa352567	4	1	practice_z	5	advance_on_keypress_ZEE	16	stimuli_target_diamondsquares.svg	stimuli_distractor_trianglediamonds.svg	6	yes	57	0	529	0	0			0	0			1				0	
6.6.1	win	2023-06-02	08:41:03	08:54:39	809130	5ee232f2b970662cfa352567	4	1	practice_z	5	practice_z	17	stimuli_distractor_trianglediamonds.svg	stimuli_target_diamondrectangles.svg	12	yes	44	1	1162	0	0			0	0			1				0	
6.6.1	win	2023-06-02	08:41:03	08:54:39	809130	5ee232f2b970662cfa352567	4	1	practice_z	5	advance_on_keypress_ZEE	18	stimuli_distractor_trianglediamonds.svg	stimuli_target_diamondrectangles.svg	12	yes	57	0	559	0	0			0	0			1				0	
6.6.1	win	2023-06-02	08:41:03	08:54:42	812271	5ee232f2b970662cfa352567	4	1	practice_z	5	practice_z	19	stimuli_target_squarediamonds.svg	stimuli_distractor_trianglediamonds.svg	5	yes	44	1	900	0	0			0	0			1				0	
6.6.1	win	2023-06-02	08:41:03	08:54:42	812271	5ee232f2b970662cfa352567	4	1	practice_z	5	advance_on_keypress_ZEE	20	stimuli_target_squarediamonds.svg	stimuli_distractor_trianglediamonds.svg	5	yes	57	0	501	0	0			0	0			1				0	
6.6.1	win	2023-06-02	08:41:03	08:54:47	816444	5ee232f2b970662cfa352567	4	1	practice_z	5	practice_z	21	stimuli_distractor_trianglediamonds.svg	stimuli_distractor_trianglediamonds.svg	15	no	0	1	2000	0	0			0	0			1				0	
6.6.1	win	2023-06-02	08:41:03	08:54:47	816444	5ee232f2b970662cfa352567	4	1	practice_z	5	advance_on_keypress_ZEE	22	stimuli_distractor_trianglediamonds.svg	stimuli_distractor_trianglediamonds.svg	15	no	57	0	447	0	0			0	0			1				0	
6.6.1	win	2023-06-02	08:41:03	08:54:50	819528	5ee232f2b970662cfa352567	4	1	practice_z	5	practice_z	23	stimuli_target_rectanglediamonds.svg	stimuli_distractor_diamondtriangles.svg	1	yes	44	1	966	0	0			0	0			1				0	
6.6.1	win	2023-06-02	08:41:03	08:54:50	819528	5ee232f2b970662cfa352567	4	1	practice_z	5	advance_on_keypress_ZEE	24	stimuli_target_rectanglediamonds.svg	stimuli_distractor_diamondtriangles.svg	1	yes	57	0	440	0	0			0	0			1				0	
6.6.1	win	2023-06-02	08:41:03	08:54:54	823701	5ee232f2b970662cfa352567	4	1	practice_z	5	practice_z	25	stimuli_distractor_diamondtriangles.svg	stimuli_distractor_diamondtriangles.svg	13	no	0	1	2000	0	0			0	0			1				0	
6.6.1	win	2023-06-02	08:41:03	08:54:54	823701	5ee232f2b970662cfa352567	4	1	practice_z	5	advance_on_keypress_ZEE	26	stimuli_distractor_diamondtriangles.svg	stimuli_distractor_diamondtriangles.svg	13	no	57	0	385	0	0			0	0			1				0	
6.6.1	win	2023-06-02	08:41:03	08:54:57	826904	5ee232f2b970662cfa352567	4	1	practice_z	5	practice_z	27	stimuli_distractor_trianglediamonds.svg	stimuli_distractor_diamondtriangles.svg	16	no	44	0	1150	0	0			0	0			1				0	
6.6.1	win	2023-06-02	08:41:03	08:54:57	826904	5ee232f2b970662cfa352567	4	1	practice_z	5	advance_on_keypress_ZEE	28	stimuli_distractor_trianglediamonds.svg	stimuli_distractor_diamondtriangles.svg	16	no	57	0	495	0	0			0	0			1				0	
6.6.1	win	2023-06-02	08:41:03	08:55:00	830099	5ee232f2b970662cfa352567	4	1	practice_z	5	practice_z	29	stimuli_target_squarediamonds.svg	stimuli_distractor_diamondtriangles.svg	2	yes	44	1	1027	0	0			0	0			1				0	
6.6.1	win	2023-06-02	08:41:03	08:55:00	830099	5ee232f2b970662cfa352567	4	1	practice_z	5	advance_on_keypress_ZEE	30	stimuli_target_squarediamonds.svg	stimuli_distractor_diamondtriangles.svg	2	yes	57	0	420	0	0			0	0			1				0	
6.6.1	win	2023-06-02	08:41:03	08:55:03	833046	5ee232f2b970662cfa352567	4	1	practice_z	5	practice_z	31	stimuli_target_rectanglediamonds.svg	stimuli_distractor_trianglediamonds.svg	4	yes	44	1	813	0	0			0	0			1				0	
6.6.1	win	2023-06-02	08:41:03	08:55:03	833046	5ee232f2b970662cfa352567	4	1	practice_z	5	advance_on_keypress_ZEE	32	stimuli_target_rectanglediamonds.svg	stimuli_distractor_trianglediamonds.svg	4	yes	57	0	326	0	0			0	0			1				0	
6.6.1	win	2023-06-02	08:41:03	08:55:10	839775	5ee232f2b970662cfa352567	4	1	main_z	7	main_z	1	stimuli_distractor_trianglediamonds.svg	stimuli_target_rectangletriangles.svg	9	yes	44	1	724	0	0			0	0			1				0	
6.6.1	win	2023-06-02	08:41:03	08:55:10	839775	5ee232f2b970662cfa352567	4	1	main_z	7	advance_on_keypress_ZEE	2	stimuli_distractor_trianglediamonds.svg	stimuli_target_rectangletriangles.svg	9	yes	57	0	757	0	0			0	0			1				0	
6.6.1	win	2023-06-02	08:41:03	08:55:13	843192	5ee232f2b970662cfa352567	4	1	main_z	7	main_z	3	stimuli_distractor_trianglediamonds.svg	stimuli_distractor_diamondtriangles.svg	36	no	0	1	2000	0	0			0	0			1				0	
6.6.1	win	2023-06-02	08:41:03	08:55:13	843192	5ee232f2b970662cfa352567	4	1	main_z	7	advance_on_keypress_ZEE	4	stimuli_distractor_trianglediamonds.svg	stimuli_distractor_diamondtriangles.svg	36	no	57	0	393	0	0			0	0			1				0	
6.6.1	win	2023-06-02	08:41:03	08:55:15	845184	5ee232f2b970662cfa352567	4	1	main_z	7	main_z	5	stimuli_distractor_trianglediamonds.svg	stimuli_target_trianglerectangles.svg	25	yes	44	1	939	0	0			0	0			1				0	
6.6.1	win	2023-06-02	08:41:03	08:55:15	845184	5ee232f2b970662cfa352567	4	1	main_z	7	advance_on_keypress_ZEE	6	stimuli_distractor_trianglediamonds.svg	stimuli_target_trianglerectangles.svg	25	yes	57	0	501	0	0			0	0			1				0	
6.6.1	win	2023-06-02	08:41:03	08:55:17	846994	5ee232f2b970662cfa352567	4	1	main_z	7	main_z	7	stimuli_distractor_diamondtriangles.svg	stimuli_target_diamondrectangles.svg	31	yes	44	1	647	0	0			0	0			1				0	
6.6.1	win	2023-06-02	08:41:03	08:55:17	846994	5ee232f2b970662cfa352567	4	1	main_z	7	advance_on_keypress_ZEE	8	stimuli_distractor_diamondtriangles.svg	stimuli_target_diamondrectangles.svg	31	yes	57	0	459	0	0			0	0			1				0	
6.6.1	win	2023-06-02	08:41:03	08:55:19	848839	5ee232f2b970662cfa352567	4	1	main_z	7	main_z	9	stimuli_target_squarediamonds.svg	stimuli_distractor_diamondtriangles.svg	8	yes	44	1	723	0	0			0	0			1				0	
6.6.1	win	2023-06-02	08:41:03	08:55:19	848839	5ee232f2b970662cfa352567	4	1	main_z	7	advance_on_keypress_ZEE	10	stimuli_target_squarediamonds.svg	stimuli_distractor_diamondtriangles.svg	8	yes	57	0	507	0	0			0	0			1				0	
6.6.1	win	2023-06-02	08:41:03	08:55:22	852017	5ee232f2b970662cfa352567	4	1	main_z	7	main_z	11	stimuli_distractor_diamondtriangles.svg	stimuli_distractor_trianglediamonds.svg	37	no	0	1	2000	0	0			0	0			1				0	
6.6.1	win	2023-06-02	08:41:03	08:55:22	852017	5ee232f2b970662cfa352567	4	1	main_z	7	advance_on_keypress_ZEE	12	stimuli_distractor_diamondtriangles.svg	stimuli_distractor_trianglediamonds.svg	37	no	57	0	315	0	0			0	0			1				0	
6.6.1	win	2023-06-02	08:41:03	08:55:24	853986	5ee232f2b970662cfa352567	4	1	main_z	7	main_z	13	stimuli_target_squaretriangles.svg	stimuli_distractor_diamondtriangles.svg	7	yes	44	1	999	0	0			0	0			1				0	
6.6.1	win	2023-06-02	08:41:03	08:55:24	853986	5ee232f2b970662cfa352567	4	1	main_z	7	advance_on_keypress_ZEE	14	stimuli_target_squaretriangles.svg	stimuli_distractor_diamondtriangles.svg	7	yes	57	0	433	0	0			0	0			1				0	
6.6.1	win	2023-06-02	08:41:03	08:55:26	856152	5ee232f2b970662cfa352567	4	1	main_z	7	main_z	15	stimuli_target_diamondsquares.svg	stimuli_distractor_trianglediamonds.svg	20	yes	44	1	1032	0	0			0	0			1				0	
6.6.1	win	2023-06-02	08:41:03	08:55:26	856152	5ee232f2b970662cfa352567	4	1	main_z	7	advance_on_keypress_ZEE	16	stimuli_target_diamondsquares.svg	stimuli_distractor_trianglediamonds.svg	20	yes	57	0	379	0	0			0	0			1				0	
6.6.1	win	2023-06-02	08:41:03	08:55:28	858334	5ee232f2b970662cfa352567	4	1	main_z	7	main_z	17	stimuli_distractor_diamondtriangles.svg	stimuli_distractor_trianglediamonds.svg	38	no	44	0	1143	0	0			0	0			1				0	
6.6.1	win	2023-06-02	08:41:03	08:55:28	858334	5ee232f2b970662cfa352567	4	1	main_z	7	advance_on_keypress_ZEE	18	stimuli_distractor_diamondtriangles.svg	stimuli_distractor_trianglediamonds.svg	38	no	57	0	370	0	0			0	0			1				0	
6.6.1	win	2023-06-02	08:41:03	08:55:31	861376	5ee232f2b970662cfa352567	4	1	main_z	7	main_z	19	stimuli_target_trianglesquares.svg	stimuli_distractor_diamondtriangles.svg	22	yes	0	0	2000	0	0			0	0			1				0	
6.6.1	win	2023-06-02	08:41:03	08:55:31	861376	5ee232f2b970662cfa352567	4	1	main_z	7	advance_on_keypress_ZEE	20	stimuli_target_trianglesquares.svg	stimuli_distractor_diamondtriangles.svg	22	yes	57	0	320	0	0			0	0			1				0	
6.6.1	win	2023-06-02	08:41:03	08:55:33	863269	5ee232f2b970662cfa352567	4	1	main_z	7	main_z	21	stimuli_distractor_trianglediamonds.svg	stimuli_target_squarediamonds.svg	12	yes	44	1	923	0	0			0	0			1				0	
6.6.1	win	2023-06-02	08:41:03	08:55:33	863269	5ee232f2b970662cfa352567	4	1	main_z	7	advance_on_keypress_ZEE	22	stimuli_distractor_trianglediamonds.svg	stimuli_target_squarediamonds.svg	12	yes	57	0	391	0	0			0	0			1				0	
6.6.1	win	2023-06-02	08:41:03	08:55:35	865378	5ee232f2b970662cfa352567	4	1	main_z	7	main_z	23	stimuli_target_trianglesquares.svg	stimuli_distractor_trianglediamonds.svg	18	yes	44	1	1046	0	0			0	0			1				0	
6.6.1	win	2023-06-02	08:41:03	08:55:35	865378	5ee232f2b970662cfa352567	4	1	main_z	7	advance_on_keypress_ZEE	24	stimuli_target_trianglesquares.svg	stimuli_distractor_trianglediamonds.svg	18	yes	57	0	352	0	0			0	0			1				0	
6.6.1	win	2023-06-02	08:41:03	08:55:38	868384	5ee232f2b970662cfa352567	4	1	main_z	7	main_z	25	stimuli_distractor_diamondtriangles.svg	stimuli_distractor_diamondtriangles.svg	39	no	0	1	2000	0	0			0	0			1				0	
6.6.1	win	2023-06-02	08:41:03	08:55:38	868384	5ee232f2b970662cfa352567	4	1	main_z	7	advance_on_keypress_ZEE	26	stimuli_distractor_diamondtriangles.svg	stimuli_distractor_diamondtriangles.svg	39	no	57	0	337	0	0			0	0			1				0	
6.6.1	win	2023-06-02	08:41:03	08:55:40	870369	5ee232f2b970662cfa352567	4	1	main_z	7	main_z	27	stimuli_target_diamondrectangles.svg	stimuli_distractor_trianglediamonds.svg	19	yes	44	1	982	0	0			0	0			1				0	
6.6.1	win	2023-06-02	08:41:03	08:55:40	870369	5ee232f2b970662cfa352567	4	1	main_z	7	advance_on_keypress_ZEE	28	stimuli_target_diamondrectangles.svg	stimuli_distractor_trianglediamonds.svg	19	yes	57	0	477	0	0			0	0			1				0	
6.6.1	win	2023-06-02	08:41:03	08:55:43	872801	5ee232f2b970662cfa352567	4	1	main_z	7	main_z	29	stimuli_distractor_trianglediamonds.svg	stimuli_distractor_trianglediamonds.svg	34	no	44	0	1296	0	0			0	0			1				0	
6.6.1	win	2023-06-02	08:41:03	08:55:43	872801	5ee232f2b970662cfa352567	4	1	main_z	7	advance_on_keypress_ZEE	30	stimuli_distractor_trianglediamonds.svg	stimuli_distractor_trianglediamonds.svg	34	no	57	0	405	0	0			0	0			1				0	
6.6.1	win	2023-06-02	08:41:03	08:55:45	875054	5ee232f2b970662cfa352567	4	1	main_z	7	main_z	31	stimuli_distractor_diamondtriangles.svg	stimuli_target_trianglerectangles.svg	29	yes	44	1	1179	0	0			0	0			1				0	
6.6.1	win	2023-06-02	08:41:03	08:55:45	875054	5ee232f2b970662cfa352567	4	1	main_z	7	advance_on_keypress_ZEE	32	stimuli_distractor_diamondtriangles.svg	stimuli_target_trianglerectangles.svg	29	yes	57	0	660	0	0			0	0			1				0	
6.6.1	win	2023-06-02	08:41:03	08:55:48	877696	5ee232f2b970662cfa352567	4	1	main_z	7	main_z	33	stimuli_distractor_diamondtriangles.svg	stimuli_target_squaretriangles.svg	15	yes	44	1	1319	0	0			0	0			1				0	
6.6.1	win	2023-06-02	08:41:03	08:55:48	877696	5ee232f2b970662cfa352567	4	1	main_z	7	advance_on_keypress_ZEE	34	stimuli_distractor_diamondtriangles.svg	stimuli_target_squaretriangles.svg	15	yes	57	0	470	0	0			0	0			1				0	
6.6.1	win	2023-06-02	08:41:03	08:55:51	880813	5ee232f2b970662cfa352567	4	1	main_z	7	main_z	35	stimuli_distractor_diamondtriangles.svg	stimuli_distractor_diamondtriangles.svg	40	no	0	1	2000	0	0			0	0			1				0	
6.6.1	win	2023-06-02	08:41:03	08:55:51	880813	5ee232f2b970662cfa352567	4	1	main_z	7	advance_on_keypress_ZEE	36	stimuli_distractor_diamondtriangles.svg	stimuli_distractor_diamondtriangles.svg	40	no	57	0	397	0	0			0	0			1				0	
6.6.1	win	2023-06-02	08:41:03	08:55:53	882834	5ee232f2b970662cfa352567	4	1	main_z	7	main_z	37	stimuli_target_rectangletriangles.svg	stimuli_distractor_trianglediamonds.svg	1	yes	44	1	968	0	0			0	0			1				0	
6.6.1	win	2023-06-02	08:41:03	08:55:53	882834	5ee232f2b970662cfa352567	4	1	main_z	7	advance_on_keypress_ZEE	38	stimuli_target_rectangletriangles.svg	stimuli_distractor_trianglediamonds.svg	1	yes	57	0	430	0	0			0	0			1				0	
6.6.1	win	2023-06-02	08:41:03	08:55:55	884848	5ee232f2b970662cfa352567	4	1	main_z	7	main_z	39	stimuli_distractor_trianglediamonds.svg	stimuli_target_diamondsquares.svg	28	yes	44	1	931	0	0			0	0			1				0	
6.6.1	win	2023-06-02	08:41:03	08:55:55	884848	5ee232f2b970662cfa352567	4	1	main_z	7	advance_on_keypress_ZEE	40	stimuli_distractor_trianglediamonds.svg	stimuli_target_diamondsquares.svg	28	yes	57	0	321	0	0			0	0			1				0	
6.6.1	win	2023-06-02	08:41:03	08:55:57	886825	5ee232f2b970662cfa352567	4	1	main_z	7	main_z	41	stimuli_distractor_trianglediamonds.svg	stimuli_target_diamondrectangles.svg	27	yes	44	1	988	0	0			0	0			1				0	
6.6.1	win	2023-06-02	08:41:03	08:55:57	886825	5ee232f2b970662cfa352567	4	1	main_z	7	advance_on_keypress_ZEE	42	stimuli_distractor_trianglediamonds.svg	stimuli_target_diamondrectangles.svg	27	yes	57	0	508	0	0			0	0			1				0	
6.6.1	win	2023-06-02	08:41:03	08:55:59	889136	5ee232f2b970662cfa352567	4	1	main_z	7	main_z	43	stimuli_distractor_diamondtriangles.svg	stimuli_target_rectanglediamonds.svg	14	yes	44	1	1126	0	0			0	0			1				0	
6.6.1	win	2023-06-02	08:41:03	08:55:59	889136	5ee232f2b970662cfa352567	4	1	main_z	7	advance_on_keypress_ZEE	44	stimuli_distractor_diamondtriangles.svg	stimuli_target_rectanglediamonds.svg	14	yes	57	0	381	0	0			0	0			1				0	
6.6.1	win	2023-06-02	08:41:03	08:56:01	891265	5ee232f2b970662cfa352567	4	1	main_z	7	main_z	45	stimuli_target_diamondrectangles.svg	stimuli_distractor_diamondtriangles.svg	23	yes	44	1	1092	0	0			0	0			1				0	
6.6.1	win	2023-06-02	08:41:03	08:56:01	891265	5ee232f2b970662cfa352567	4	1	main_z	7	advance_on_keypress_ZEE	46	stimuli_target_diamondrectangles.svg	stimuli_distractor_diamondtriangles.svg	23	yes	57	0	316	0	0			0	0			1				0	
6.6.1	win	2023-06-02	08:41:03	08:56:04	893870	5ee232f2b970662cfa352567	4	1	main_z	7	main_z	47	stimuli_target_diamondsquares.svg	stimuli_distractor_diamondtriangles.svg	24	yes	44	1	1627	0	0			0	0			1				0	
6.6.1	win	2023-06-02	08:41:03	08:56:04	893870	5ee232f2b970662cfa352567	4	1	main_z	7	advance_on_keypress_ZEE	48	stimuli_target_diamondsquares.svg	stimuli_distractor_diamondtriangles.svg	24	yes	57	0	306	0	0			0	0			1				0	
6.6.1	win	2023-06-02	08:41:03	08:56:06	895780	5ee232f2b970662cfa352567	4	1	main_z	7	main_z	49	stimuli_target_rectanglediamonds.svg	stimuli_distractor_diamondtriangles.svg	6	yes	44	1	934	0	0			0	0			1				0	
6.6.1	win	2023-06-02	08:41:03	08:56:06	895780	5ee232f2b970662cfa352567	4	1	main_z	7	advance_on_keypress_ZEE	50	stimuli_target_rectanglediamonds.svg	stimuli_distractor_diamondtriangles.svg	6	yes	57	0	437	0	0			0	0			1				0	
6.6.1	win	2023-06-02	08:41:03	08:56:08	897753	5ee232f2b970662cfa352567	4	1	main_z	7	main_z	51	stimuli_target_squaretriangles.svg	stimuli_distractor_trianglediamonds.svg	3	yes	44	1	889	0	0			0	0			1				0	
6.6.1	win	2023-06-02	08:41:03	08:56:08	897753	5ee232f2b970662cfa352567	4	1	main_z	7	advance_on_keypress_ZEE	52	stimuli_target_squaretriangles.svg	stimuli_distractor_trianglediamonds.svg	3	yes	57	0	456	0	0			0	0			1				0	
6.6.1	win	2023-06-02	08:41:03	08:56:10	899941	5ee232f2b970662cfa352567	4	1	main_z	7	main_z	53	stimuli_target_squarediamonds.svg	stimuli_distractor_trianglediamonds.svg	4	yes	44	1	1059	0	0			0	0			1				0	
6.6.1	win	2023-06-02	08:41:03	08:56:10	899941	5ee232f2b970662cfa352567	4	1	main_z	7	advance_on_keypress_ZEE	54	stimuli_target_squarediamonds.svg	stimuli_distractor_trianglediamonds.svg	4	yes	57	0	493	0	0			0	0			1				0	
6.6.1	win	2023-06-02	08:41:03	08:56:12	902054	5ee232f2b970662cfa352567	4	1	main_z	7	main_z	55	stimuli_target_rectanglediamonds.svg	stimuli_distractor_trianglediamonds.svg	2	yes	44	1	952	0	0			0	0			1				0	
6.6.1	win	2023-06-02	08:41:03	08:56:12	902054	5ee232f2b970662cfa352567	4	1	main_z	7	advance_on_keypress_ZEE	56	stimuli_target_rectanglediamonds.svg	stimuli_distractor_trianglediamonds.svg	2	yes	57	0	377	0	0			0	0			1				0	
6.6.1	win	2023-06-02	08:41:03	08:56:14	904108	5ee232f2b970662cfa352567	4	1	main_z	7	main_z	57	stimuli_distractor_diamondtriangles.svg	stimuli_target_squarediamonds.svg	16	yes	44	1	1021	0	0			0	0			1				0	
6.6.1	win	2023-06-02	08:41:03	08:56:14	904108	5ee232f2b970662cfa352567	4	1	main_z	7	advance_on_keypress_ZEE	58	stimuli_distractor_diamondtriangles.svg	stimuli_target_squarediamonds.svg	16	yes	57	0	389	0	0			0	0			1				0	
6.6.1	win	2023-06-02	08:41:03	08:56:16	906130	5ee232f2b970662cfa352567	4	1	main_z	7	main_z	59	stimuli_distractor_trianglediamonds.svg	stimuli_target_rectanglediamonds.svg	10	yes	44	1	974	0	0			0	0			1				0	
6.6.1	win	2023-06-02	08:41:03	08:56:16	906130	5ee232f2b970662cfa352567	4	1	main_z	7	advance_on_keypress_ZEE	60	stimuli_distractor_trianglediamonds.svg	stimuli_target_rectanglediamonds.svg	10	yes	57	0	358	0	0			0	0			1				0	
6.6.1	win	2023-06-02	08:41:03	08:56:19	909157	5ee232f2b970662cfa352567	4	1	main_z	7	main_z	61	stimuli_distractor_trianglediamonds.svg	stimuli_distractor_diamondtriangles.svg	35	no	0	1	2000	0	0			0	0			1				0	
6.6.1	win	2023-06-02	08:41:03	08:56:19	909157	5ee232f2b970662cfa352567	4	1	main_z	7	advance_on_keypress_ZEE	62	stimuli_distractor_trianglediamonds.svg	stimuli_distractor_diamondtriangles.svg	35	no	57	0	413	0	0			0	0			1				0	
6.6.1	win	2023-06-02	08:41:03	08:56:21	911323	5ee232f2b970662cfa352567	4	1	main_z	7	main_z	63	stimuli_distractor_diamondtriangles.svg	stimuli_target_rectangletriangles.svg	13	yes	44	1	1096	0	0			0	0			1				0	
6.6.1	win	2023-06-02	08:41:03	08:56:21	911323	5ee232f2b970662cfa352567	4	1	main_z	7	advance_on_keypress_ZEE	64	stimuli_distractor_diamondtriangles.svg	stimuli_target_rectangletriangles.svg	13	yes	57	0	337	0	0			0	0			1				0	
6.6.1	win	2023-06-02	08:41:03	08:56:24	913466	5ee232f2b970662cfa352567	4	1	main_z	7	main_z	65	stimuli_distractor_trianglediamonds.svg	stimuli_target_trianglesquares.svg	26	yes	44	1	1137	0	0			0	0			1				0	
6.6.1	win	2023-06-02	08:41:03	08:56:24	913466	5ee232f2b970662cfa352567	4	1	main_z	7	advance_on_keypress_ZEE	66	stimuli_distractor_trianglediamonds.svg	stimuli_target_trianglesquares.svg	26	yes	57	0	384	0	0			0	0			1				0	
6.6.1	win	2023-06-02	08:41:03	08:56:27	916498	5ee232f2b970662cfa352567	4	1	main_z	7	main_z	67	stimuli_distractor_trianglediamonds.svg	stimuli_distractor_trianglediamonds.svg	33	no	0	1	2000	0	0			0	0			1				0	
6.6.1	win	2023-06-02	08:41:03	08:56:27	916498	5ee232f2b970662cfa352567	4	1	main_z	7	advance_on_keypress_ZEE	68	stimuli_distractor_trianglediamonds.svg	stimuli_distractor_trianglediamonds.svg	33	no	57	0	400	0	0			0	0			1				0	
6.6.1	win	2023-06-02	08:41:03	08:56:29	918597	5ee232f2b970662cfa352567	4	1	main_z	7	main_z	69	stimuli_target_trianglerectangles.svg	stimuli_distractor_trianglediamonds.svg	17	yes	44	1	1045	0	0			0	0			1				0	
6.6.1	win	2023-06-02	08:41:03	08:56:29	918597	5ee232f2b970662cfa352567	4	1	main_z	7	advance_on_keypress_ZEE	70	stimuli_target_trianglerectangles.svg	stimuli_distractor_trianglediamonds.svg	17	yes	57	0	334	0	0			0	0			1				0	
6.6.1	win	2023-06-02	08:41:03	08:56:31	920652	5ee232f2b970662cfa352567	4	1	main_z	7	main_z	71	stimuli_distractor_diamondtriangles.svg	stimuli_target_diamondsquares.svg	32	yes	44	1	1065	0	0			0	0			1				0	
6.6.1	win	2023-06-02	08:41:03	08:56:31	920652	5ee232f2b970662cfa352567	4	1	main_z	7	advance_on_keypress_ZEE	72	stimuli_distractor_diamondtriangles.svg	stimuli_target_diamondsquares.svg	32	yes	57	0	340	0	0			0	0			1				0	
6.6.1	win	2023-06-02	08:41:03	08:56:33	922715	5ee232f2b970662cfa352567	4	1	main_z	7	main_z	73	stimuli_target_rectangletriangles.svg	stimuli_distractor_diamondtriangles.svg	5	yes	44	1	1059	0	0			0	0			1				0	
6.6.1	win	2023-06-02	08:41:03	08:56:33	922715	5ee232f2b970662cfa352567	4	1	main_z	7	advance_on_keypress_ZEE	74	stimuli_target_rectangletriangles.svg	stimuli_distractor_diamondtriangles.svg	5	yes	57	0	364	0	0			0	0			1				0	
6.6.1	win	2023-06-02	08:41:03	08:56:35	924782	5ee232f2b970662cfa352567	4	1	main_z	7	main_z	75	stimuli_distractor_diamondtriangles.svg	stimuli_target_trianglesquares.svg	30	yes	44	1	1041	0	0			0	0			1				0	
6.6.1	win	2023-06-02	08:41:03	08:56:35	924782	5ee232f2b970662cfa352567	4	1	main_z	7	advance_on_keypress_ZEE	76	stimuli_distractor_diamondtriangles.svg	stimuli_target_trianglesquares.svg	30	yes	57	0	329	0	0			0	0			1				0	
6.6.1	win	2023-06-02	08:41:03	08:56:37	926894	5ee232f2b970662cfa352567	4	1	main_z	7	main_z	77	stimuli_distractor_trianglediamonds.svg	stimuli_target_squaretriangles.svg	11	yes	44	1	1117	0	0			0	0			1				0	
6.6.1	win	2023-06-02	08:41:03	08:56:37	926894	5ee232f2b970662cfa352567	4	1	main_z	7	advance_on_keypress_ZEE	78	stimuli_distractor_trianglediamonds.svg	stimuli_target_squaretriangles.svg	11	yes	57	0	355	0	0			0	0			1				0	
6.6.1	win	2023-06-02	08:41:03	08:56:40	929525	5ee232f2b970662cfa352567	4	1	main_z	7	main_z	79	stimuli_target_trianglerectangles.svg	stimuli_distractor_diamondtriangles.svg	21	yes	44	1	1614	0	0			0	0			1				0	
6.6.1	win	2023-06-02	08:41:03	08:56:40	929525	5ee232f2b970662cfa352567	4	1	main_z	7	advance_on_keypress_ZEE	80	stimuli_target_trianglerectangles.svg	stimuli_distractor_diamondtriangles.svg	21	yes	57	0	355	0	0			0	0			1				0	
6.6.1	win	2023-06-02	08:41:03	08:56:42	931557	5ee232f2b970662cfa352567	4	1	main_z	7	main_z	81	stimuli_distractor_trianglediamonds.svg	stimuli_target_diamondsquares.svg	28	yes	44	1	1009	0	0			0	0			1				0	
6.6.1	win	2023-06-02	08:41:03	08:56:42	931557	5ee232f2b970662cfa352567	4	1	main_z	7	advance_on_keypress_ZEE	82	stimuli_distractor_trianglediamonds.svg	stimuli_target_diamondsquares.svg	28	yes	57	0	338	0	0			0	0			1				0	
6.6.1	win	2023-06-02	08:41:03	08:56:44	933572	5ee232f2b970662cfa352567	4	1	main_z	7	main_z	83	stimuli_target_diamondsquares.svg	stimuli_distractor_diamondtriangles.svg	24	yes	44	1	1005	0	0			0	0			1				0	
6.6.1	win	2023-06-02	08:41:03	08:56:44	933572	5ee232f2b970662cfa352567	4	1	main_z	7	advance_on_keypress_ZEE	84	stimuli_target_diamondsquares.svg	stimuli_distractor_diamondtriangles.svg	24	yes	57	0	296	0	0			0	0			1				0	
6.6.1	win	2023-06-02	08:41:03	08:56:46	935545	5ee232f2b970662cfa352567	4	1	main_z	7	main_z	85	stimuli_distractor_trianglediamonds.svg	stimuli_target_trianglesquares.svg	26	yes	44	1	1010	0	0			0	0			1				0	
6.6.1	win	2023-06-02	08:41:03	08:56:46	935545	5ee232f2b970662cfa352567	4	1	main_z	7	advance_on_keypress_ZEE	86	stimuli_distractor_trianglediamonds.svg	stimuli_target_trianglesquares.svg	26	yes	57	0	359	0	0			0	0			1				0	
6.6.1	win	2023-06-02	08:41:03	08:56:48	937691	5ee232f2b970662cfa352567	4	1	main_z	7	main_z	87	stimuli_target_trianglesquares.svg	stimuli_distractor_trianglediamonds.svg	18	yes	44	1	1120	0	0			0	0			1				0	
6.6.1	win	2023-06-02	08:41:03	08:56:48	937691	5ee232f2b970662cfa352567	4	1	main_z	7	advance_on_keypress_ZEE	88	stimuli_target_trianglesquares.svg	stimuli_distractor_trianglediamonds.svg	18	yes	57	0	359	0	0			0	0			1				0	
6.6.1	win	2023-06-02	08:41:03	08:56:50	939651	5ee232f2b970662cfa352567	4	1	main_z	7	main_z	89	stimuli_distractor_diamondtriangles.svg	stimuli_target_rectanglediamonds.svg	14	yes	44	1	945	0	0			0	0			1				0	
6.6.1	win	2023-06-02	08:41:03	08:56:50	939651	5ee232f2b970662cfa352567	4	1	main_z	7	advance_on_keypress_ZEE	90	stimuli_distractor_diamondtriangles.svg	stimuli_target_rectanglediamonds.svg	14	yes	57	0	382	0	0			0	0			1				0	
6.6.1	win	2023-06-02	08:41:03	08:56:52	941654	5ee232f2b970662cfa352567	4	1	main_z	7	main_z	91	stimuli_distractor_diamondtriangles.svg	stimuli_target_squarediamonds.svg	16	yes	44	1	962	0	0			0	0			1				0	
6.6.1	win	2023-06-02	08:41:03	08:56:52	941654	5ee232f2b970662cfa352567	4	1	main_z	7	advance_on_keypress_ZEE	92	stimuli_distractor_diamondtriangles.svg	stimuli_target_squarediamonds.svg	16	yes	57	0	351	0	0			0	0			1				0	
6.6.1	win	2023-06-02	08:41:03	08:56:55	944667	5ee232f2b970662cfa352567	4	1	main_z	7	main_z	93	stimuli_distractor_trianglediamonds.svg	stimuli_distractor_diamondtriangles.svg	36	no	0	1	2000	0	0			0	0			1				0	
6.6.1	win	2023-06-02	08:41:03	08:56:55	944667	5ee232f2b970662cfa352567	4	1	main_z	7	advance_on_keypress_ZEE	94	stimuli_distractor_trianglediamonds.svg	stimuli_distractor_diamondtriangles.svg	36	no	57	0	311	0	0			0	0			1				0	
6.6.1	win	2023-06-02	08:41:03	08:56:57	946556	5ee232f2b970662cfa352567	4	1	main_z	7	main_z	95	stimuli_distractor_diamondtriangles.svg	stimuli_target_trianglerectangles.svg	29	yes	44	1	910	0	0			0	0			1				0	
6.6.1	win	2023-06-02	08:41:03	08:56:57	946556	5ee232f2b970662cfa352567	4	1	main_z	7	advance_on_keypress_ZEE	96	stimuli_distractor_diamondtriangles.svg	stimuli_target_trianglerectangles.svg	29	yes	57	0	336	0	0			0	0			1				0	
6.6.1	win	2023-06-02	08:41:03	08:57:00	949548	5ee232f2b970662cfa352567	4	1	main_z	7	main_z	97	stimuli_distractor_trianglediamonds.svg	stimuli_target_rectangletriangles.svg	9	yes	0	0	2000	0	0			0	0			1				0	
6.6.1	win	2023-06-02	08:41:03	08:57:00	949548	5ee232f2b970662cfa352567	4	1	main_z	7	advance_on_keypress_ZEE	98	stimuli_distractor_trianglediamonds.svg	stimuli_target_rectangletriangles.svg	9	yes	57	0	505	0	0			0	0			1				0	
6.6.1	win	2023-06-02	08:41:03	08:57:02	951623	5ee232f2b970662cfa352567	4	1	main_z	7	main_z	99	stimuli_distractor_trianglediamonds.svg	stimuli_target_rectanglediamonds.svg	10	yes	44	1	905	0	0			0	0			1				0	
6.6.1	win	2023-06-02	08:41:03	08:57:02	951623	5ee232f2b970662cfa352567	4	1	main_z	7	advance_on_keypress_ZEE	100	stimuli_distractor_trianglediamonds.svg	stimuli_target_rectanglediamonds.svg	10	yes	57	0	334	0	0			0	0			1				0	
6.6.1	win	2023-06-02	08:41:03	08:57:05	954623	5ee232f2b970662cfa352567	4	1	main_z	7	main_z	101	stimuli_target_trianglerectangles.svg	stimuli_distractor_trianglediamonds.svg	17	yes	0	0	2000	0	0			0	0			1				0	
6.6.1	win	2023-06-02	08:41:03	08:57:05	954623	5ee232f2b970662cfa352567	4	1	main_z	7	advance_on_keypress_ZEE	102	stimuli_target_trianglerectangles.svg	stimuli_distractor_trianglediamonds.svg	17	yes	57	0	408	0	0			0	0			1				0	
6.6.1	win	2023-06-02	08:41:03	08:57:07	956719	5ee232f2b970662cfa352567	4	1	main_z	7	main_z	103	stimuli_distractor_trianglediamonds.svg	stimuli_target_squaretriangles.svg	11	yes	44	1	1029	0	0			0	0			1				0	
6.6.1	win	2023-06-02	08:41:03	08:57:07	956719	5ee232f2b970662cfa352567	4	1	main_z	7	advance_on_keypress_ZEE	104	stimuli_distractor_trianglediamonds.svg	stimuli_target_squaretriangles.svg	11	yes	57	0	301	0	0			0	0			1				0	
6.6.1	win	2023-06-02	08:41:03	08:57:09	958813	5ee232f2b970662cfa352567	4	1	main_z	7	main_z	105	stimuli_target_diamondrectangles.svg	stimuli_distractor_trianglediamonds.svg	19	yes	44	1	1139	0	0			0	0			1				0	
6.6.1	win	2023-06-02	08:41:03	08:57:09	958813	5ee232f2b970662cfa352567	4	1	main_z	7	advance_on_keypress_ZEE	106	stimuli_target_diamondrectangles.svg	stimuli_distractor_trianglediamonds.svg	19	yes	57	0	263	0	0			0	0			1				0	
6.6.1	win	2023-06-02	08:41:03	08:57:12	961744	5ee232f2b970662cfa352567	4	1	main_z	7	main_z	107	stimuli_distractor_trianglediamonds.svg	stimuli_distractor_trianglediamonds.svg	34	no	0	1	2000	0	0			0	0			1				0	
6.6.1	win	2023-06-02	08:41:03	08:57:12	961744	5ee232f2b970662cfa352567	4	1	main_z	7	advance_on_keypress_ZEE	108	stimuli_distractor_trianglediamonds.svg	stimuli_distractor_trianglediamonds.svg	34	no	57	0	437	0	0			0	0			1				0	
6.6.1	win	2023-06-02	08:41:03	08:57:15	964462	5ee232f2b970662cfa352567	4	1	main_z	7	main_z	109	stimuli_target_trianglerectangles.svg	stimuli_distractor_diamondtriangles.svg	21	yes	44	1	1632	0	0			0	0			1				0	
6.6.1	win	2023-06-02	08:41:03	08:57:15	964462	5ee232f2b970662cfa352567	4	1	main_z	7	advance_on_keypress_ZEE	110	stimuli_target_trianglerectangles.svg	stimuli_distractor_diamondtriangles.svg	21	yes	57	0	343	0	0			0	0			1				0	
6.6.1	win	2023-06-02	08:41:03	08:57:17	966514	5ee232f2b970662cfa352567	4	1	main_z	7	main_z	111	stimuli_distractor_trianglediamonds.svg	stimuli_target_diamondrectangles.svg	27	yes	44	1	1049	0	0			0	0			1				0	
6.6.1	win	2023-06-02	08:41:03	08:57:17	966514	5ee232f2b970662cfa352567	4	1	main_z	7	advance_on_keypress_ZEE	112	stimuli_distractor_trianglediamonds.svg	stimuli_target_diamondrectangles.svg	27	yes	57	0	336	0	0			0	0			1				0	
6.6.1	win	2023-06-02	08:41:03	08:57:18	968402	5ee232f2b970662cfa352567	4	1	main_z	7	main_z	113	stimuli_target_squaretriangles.svg	stimuli_distractor_trianglediamonds.svg	3	yes	44	1	901	0	0			0	0			1				0	
6.6.1	win	2023-06-02	08:41:03	08:57:18	968402	5ee232f2b970662cfa352567	4	1	main_z	7	advance_on_keypress_ZEE	114	stimuli_target_squaretriangles.svg	stimuli_distractor_trianglediamonds.svg	3	yes	57	0	323	0	0			0	0			1				0	
6.6.1	win	2023-06-02	08:41:03	08:57:20	970241	5ee232f2b970662cfa352567	4	1	main_z	7	main_z	115	stimuli_distractor_diamondtriangles.svg	stimuli_target_squaretriangles.svg	15	yes	44	1	854	0	0			0	0			1				0	
6.6.1	win	2023-06-02	08:41:03	08:57:20	970241	5ee232f2b970662cfa352567	4	1	main_z	7	advance_on_keypress_ZEE	116	stimuli_distractor_diamondtriangles.svg	stimuli_target_squaretriangles.svg	15	yes	57	0	332	0	0			0	0			1				0	
6.6.1	win	2023-06-02	08:41:03	08:57:22	972087	5ee232f2b970662cfa352567	4	1	main_z	7	main_z	117	stimuli_target_squaretriangles.svg	stimuli_distractor_diamondtriangles.svg	7	yes	44	1	865	0	0			0	0			1				0	
6.6.1	win	2023-06-02	08:41:03	08:57:22	972087	5ee232f2b970662cfa352567	4	1	main_z	7	advance_on_keypress_ZEE	118	stimuli_target_squaretriangles.svg	stimuli_distractor_diamondtriangles.svg	7	yes	57	0	375	0	0			0	0			1				0	
6.6.1	win	2023-06-02	08:41:03	08:57:25	975124	5ee232f2b970662cfa352567	4	1	main_z	7	main_z	119	stimuli_distractor_diamondtriangles.svg	stimuli_distractor_trianglediamonds.svg	37	no	0	1	2000	0	0			0	0			1				0	
6.6.1	win	2023-06-02	08:41:03	08:57:25	975124	5ee232f2b970662cfa352567	4	1	main_z	7	advance_on_keypress_ZEE	120	stimuli_distractor_diamondtriangles.svg	stimuli_distractor_trianglediamonds.svg	37	no	57	0	418	0	0			0	0			1				0	
6.6.1	win	2023-06-02	08:41:03	08:57:28	978194	5ee232f2b970662cfa352567	4	1	main_z	7	main_z	121	stimuli_target_diamondrectangles.svg	stimuli_distractor_diamondtriangles.svg	23	yes	0	0	2000	0	0			0	0			1				0	
6.6.1	win	2023-06-02	08:41:03	08:57:28	978194	5ee232f2b970662cfa352567	4	1	main_z	7	advance_on_keypress_ZEE	122	stimuli_target_diamondrectangles.svg	stimuli_distractor_diamondtriangles.svg	23	yes	57	0	305	0	0			0	0			1				0	
6.6.1	win	2023-06-02	08:41:03	08:57:31	981163	5ee232f2b970662cfa352567	4	1	main_z	7	main_z	123	stimuli_target_diamondsquares.svg	stimuli_distractor_trianglediamonds.svg	20	yes	0	0	2000	0	0			0	0			1				0	
6.6.1	win	2023-06-02	08:41:03	08:57:31	981163	5ee232f2b970662cfa352567	4	1	main_z	7	advance_on_keypress_ZEE	124	stimuli_target_diamondsquares.svg	stimuli_distractor_trianglediamonds.svg	20	yes	57	0	334	0	0			0	0			1				0	
6.6.1	win	2023-06-02	08:41:03	08:57:34	984149	5ee232f2b970662cfa352567	4	1	main_z	7	main_z	125	stimuli_distractor_diamondtriangles.svg	stimuli_distractor_trianglediamonds.svg	38	no	0	1	2000	0	0			0	0			1				0	
6.6.1	win	2023-06-02	08:41:03	08:57:34	984149	5ee232f2b970662cfa352567	4	1	main_z	7	advance_on_keypress_ZEE	126	stimuli_distractor_diamondtriangles.svg	stimuli_distractor_trianglediamonds.svg	38	no	57	0	305	0	0			0	0			1				0	
6.6.1	win	2023-06-02	08:41:03	08:57:36	986017	5ee232f2b970662cfa352567	4	1	main_z	7	main_z	127	stimuli_target_rectanglediamonds.svg	stimuli_distractor_trianglediamonds.svg	2	yes	44	1	898	0	0			0	0			1				0	
6.6.1	win	2023-06-02	08:41:03	08:57:36	986017	5ee232f2b970662cfa352567	4	1	main_z	7	advance_on_keypress_ZEE	128	stimuli_target_rectanglediamonds.svg	stimuli_distractor_trianglediamonds.svg	2	yes	57	0	377	0	0			0	0			1				0	
6.6.1	win	2023-06-02	08:41:03	08:57:38	987900	5ee232f2b970662cfa352567	4	1	main_z	7	main_z	129	stimuli_target_rectangletriangles.svg	stimuli_distractor_trianglediamonds.svg	1	yes	44	1	846	0	0			0	0			1				0	
6.6.1	win	2023-06-02	08:41:03	08:57:38	987900	5ee232f2b970662cfa352567	4	1	main_z	7	advance_on_keypress_ZEE	130	stimuli_target_rectangletriangles.svg	stimuli_distractor_trianglediamonds.svg	1	yes	57	0	298	0	0			0	0			1				0	
6.6.1	win	2023-06-02	08:41:03	08:57:40	990132	5ee232f2b970662cfa352567	4	1	main_z	7	main_z	131	stimuli_distractor_trianglediamonds.svg	stimuli_distractor_trianglediamonds.svg	33	no	44	0	1276	0	0			0	0			1				0	
6.6.1	win	2023-06-02	08:41:03	08:57:40	990132	5ee232f2b970662cfa352567	4	1	main_z	7	advance_on_keypress_ZEE	132	stimuli_distractor_trianglediamonds.svg	stimuli_distractor_trianglediamonds.svg	33	no	57	0	233	0	0			0	0			1				0	
6.6.1	win	2023-06-02	08:41:03	08:57:42	991950	5ee232f2b970662cfa352567	4	1	main_z	7	main_z	133	stimuli_target_rectangletriangles.svg	stimuli_distractor_diamondtriangles.svg	5	yes	44	1	926	0	0			0	0			1				0	
6.6.1	win	2023-06-02	08:41:03	08:57:42	991950	5ee232f2b970662cfa352567	4	1	main_z	7	advance_on_keypress_ZEE	134	stimuli_target_rectangletriangles.svg	stimuli_distractor_diamondtriangles.svg	5	yes	57	0	295	0	0			0	0			1				0	
6.6.1	win	2023-06-02	08:41:03	08:57:44	993818	5ee232f2b970662cfa352567	4	1	main_z	7	main_z	135	stimuli_distractor_diamondtriangles.svg	stimuli_target_diamondsquares.svg	32	yes	44	1	907	0	0			0	0			1				0	
6.6.1	win	2023-06-02	08:41:03	08:57:44	993818	5ee232f2b970662cfa352567	4	1	main_z	7	advance_on_keypress_ZEE	136	stimuli_distractor_diamondtriangles.svg	stimuli_target_diamondsquares.svg	32	yes	57	0	252	0	0			0	0			1				0	
6.6.1	win	2023-06-02	08:41:03	08:57:46	995462	5ee232f2b970662cfa352567	4	1	main_z	7	main_z	137	stimuli_distractor_diamondtriangles.svg	stimuli_target_rectangletriangles.svg	13	yes	44	1	731	0	0			0	0			1				0	
6.6.1	win	2023-06-02	08:41:03	08:57:46	995462	5ee232f2b970662cfa352567	4	1	main_z	7	advance_on_keypress_ZEE	138	stimuli_distractor_diamondtriangles.svg	stimuli_target_rectangletriangles.svg	13	yes	57	0	273	0	0			0	0			1				0	
6.6.1	win	2023-06-02	08:41:03	08:57:48	998397	5ee232f2b970662cfa352567	4	1	main_z	7	main_z	139	stimuli_distractor_diamondtriangles.svg	stimuli_distractor_diamondtriangles.svg	39	no	0	1	2000	0	0			0	0			1				0	
6.6.1	win	2023-06-02	08:41:03	08:57:48	998397	5ee232f2b970662cfa352567	4	1	main_z	7	advance_on_keypress_ZEE	140	stimuli_distractor_diamondtriangles.svg	stimuli_distractor_diamondtriangles.svg	39	no	57	0	486	0	0			0	0			1				0	
6.6.1	win	2023-06-02	08:41:03	08:57:51	1000473	5ee232f2b970662cfa352567	4	1	main_z	7	main_z	141	stimuli_distractor_diamondtriangles.svg	stimuli_target_diamondrectangles.svg	31	yes	44	1	940	0	0			0	0			1				0	
6.6.1	win	2023-06-02	08:41:03	08:57:51	1000473	5ee232f2b970662cfa352567	4	1	main_z	7	advance_on_keypress_ZEE	142	stimuli_distractor_diamondtriangles.svg	stimuli_target_diamondrectangles.svg	31	yes	57	0	322	0	0			0	0			1				0	
6.6.1	win	2023-06-02	08:41:03	08:57:53	1002816	5ee232f2b970662cfa352567	4	1	main_z	7	main_z	143	stimuli_target_trianglesquares.svg	stimuli_distractor_diamondtriangles.svg	22	yes	44	1	1347	0	0			0	0			1				0	
6.6.1	win	2023-06-02	08:41:03	08:57:53	1002816	5ee232f2b970662cfa352567	4	1	main_z	7	advance_on_keypress_ZEE	144	stimuli_target_trianglesquares.svg	stimuli_distractor_diamondtriangles.svg	22	yes	57	0	239	0	0			0	0			1				0	
6.6.1	win	2023-06-02	08:41:03	08:57:55	1004635	5ee232f2b970662cfa352567	4	1	main_z	7	main_z	145	stimuli_distractor_trianglediamonds.svg	stimuli_target_squarediamonds.svg	12	yes	44	1	914	0	0			0	0			1				0	
6.6.1	win	2023-06-02	08:41:03	08:57:55	1004635	5ee232f2b970662cfa352567	4	1	main_z	7	advance_on_keypress_ZEE	146	stimuli_distractor_trianglediamonds.svg	stimuli_target_squarediamonds.svg	12	yes	57	0	322	0	0			0	0			1				0	
6.6.1	win	2023-06-02	08:41:03	08:57:57	1006660	5ee232f2b970662cfa352567	4	1	main_z	7	main_z	147	stimuli_target_rectanglediamonds.svg	stimuli_distractor_diamondtriangles.svg	6	yes	44	1	1038	0	0			0	0			1				0	
6.6.1	win	2023-06-02	08:41:03	08:57:57	1006660	5ee232f2b970662cfa352567	4	1	main_z	7	advance_on_keypress_ZEE	148	stimuli_target_rectanglediamonds.svg	stimuli_distractor_diamondtriangles.svg	6	yes	57	0	293	0	0			0	0			1				0	
6.6.1	win	2023-06-02	08:41:03	08:58:00	1009608	5ee232f2b970662cfa352567	4	1	main_z	7	main_z	149	stimuli_distractor_trianglediamonds.svg	stimuli_distractor_diamondtriangles.svg	35	no	0	1	2000	0	0			0	0			1				0	
6.6.1	win	2023-06-02	08:41:03	08:58:00	1009608	5ee232f2b970662cfa352567	4	1	main_z	7	advance_on_keypress_ZEE	150	stimuli_distractor_trianglediamonds.svg	stimuli_distractor_diamondtriangles.svg	35	no	57	0	406	0	0			0	0			1				0	
6.6.1	win	2023-06-02	08:41:03	08:58:02	1011585	5ee232f2b970662cfa352567	4	1	main_z	7	main_z	151	stimuli_target_squarediamonds.svg	stimuli_distractor_trianglediamonds.svg	4	yes	44	1	907	0	0			0	0			1				0	
6.6.1	win	2023-06-02	08:41:03	08:58:02	1011585	5ee232f2b970662cfa352567	4	1	main_z	7	advance_on_keypress_ZEE	152	stimuli_target_squarediamonds.svg	stimuli_distractor_trianglediamonds.svg	4	yes	57	0	300	0	0			0	0			1				0	
6.6.1	win	2023-06-02	08:41:03	08:58:04	1013512	5ee232f2b970662cfa352567	4	1	main_z	7	main_z	153	stimuli_distractor_diamondtriangles.svg	stimuli_target_trianglesquares.svg	30	yes	44	1	966	0	0			0	0			1				0	
6.6.1	win	2023-06-02	08:41:03	08:58:04	1013512	5ee232f2b970662cfa352567	4	1	main_z	7	advance_on_keypress_ZEE	154	stimuli_distractor_diamondtriangles.svg	stimuli_target_trianglesquares.svg	30	yes	57	0	304	0	0			0	0			1				0	
6.6.1	win	2023-06-02	08:41:03	08:58:07	1016485	5ee232f2b970662cfa352567	4	1	main_z	7	main_z	155	stimuli_distractor_diamondtriangles.svg	stimuli_distractor_diamondtriangles.svg	40	no	0	1	2000	0	0			0	0			1				0	
6.6.1	win	2023-06-02	08:41:03	08:58:07	1016485	5ee232f2b970662cfa352567	4	1	main_z	7	advance_on_keypress_ZEE	156	stimuli_distractor_diamondtriangles.svg	stimuli_distractor_diamondtriangles.svg	40	no	57	0	467	0	0			0	0			1				0	
6.6.1	win	2023-06-02	08:41:03	08:58:09	1018529	5ee232f2b970662cfa352567	4	1	main_z	7	main_z	157	stimuli_distractor_trianglediamonds.svg	stimuli_target_trianglerectangles.svg	25	yes	44	1	928	0	0			0	0			1				0	
6.6.1	win	2023-06-02	08:41:03	08:58:09	1018529	5ee232f2b970662cfa352567	4	1	main_z	7	advance_on_keypress_ZEE	158	stimuli_distractor_trianglediamonds.svg	stimuli_target_trianglerectangles.svg	25	yes	57	0	246	0	0			0	0			1				0	
6.6.1	win	2023-06-02	08:41:03	08:58:10	1020343	5ee232f2b970662cfa352567	4	1	main_z	7	main_z	159	stimuli_target_squarediamonds.svg	stimuli_distractor_diamondtriangles.svg	8	yes	44	1	907	0	0			0	0			1				0	
6.6.1	win	2023-06-02	08:41:03	08:58:10	1020343	5ee232f2b970662cfa352567	4	1	main_z	7	advance_on_keypress_ZEE	160	stimuli_target_squarediamonds.svg	stimuli_distractor_diamondtriangles.svg	8	yes	57	0	273	0	0			0	0			1				0	
6.6.1	win	2023-06-02	08:41:03	08:59:03	1073029	5ee232f2b970662cfa352567	4	1	practice_slash	9	practice_slash	1	stimuli_distractor_diamondtriangles.svg	stimuli_target_rectangletriangles.svg	7	yes	53	1	843	0	0			0	0			1				0	
6.6.1	win	2023-06-02	08:41:03	08:59:03	1073029	5ee232f2b970662cfa352567	4	1	practice_slash	9	advance_on_keypress_SLASH	2	stimuli_distractor_diamondtriangles.svg	stimuli_target_rectangletriangles.svg	7	yes	57	0	1254	0	0			0	0			1				0	
6.6.1	win	2023-06-02	08:41:03	08:59:07	1076744	5ee232f2b970662cfa352567	4	1	practice_slash	9	practice_slash	3	stimuli_target_squarediamonds.svg	stimuli_distractor_trianglediamonds.svg	5	yes	53	1	785	0	0			0	0			1				0	
6.6.1	win	2023-06-02	08:41:03	08:59:07	1076744	5ee232f2b970662cfa352567	4	1	practice_slash	9	advance_on_keypress_SLASH	4	stimuli_target_squarediamonds.svg	stimuli_distractor_trianglediamonds.svg	5	yes	57	0	312	0	0			0	0			1				0	
6.6.1	win	2023-06-02	08:41:03	08:59:11	1080722	5ee232f2b970662cfa352567	4	1	practice_slash	9	practice_slash	5	stimuli_distractor_trianglediamonds.svg	stimuli_distractor_trianglediamonds.svg	15	no	0	1	2000	0	0			0	0			1				0	
6.6.1	win	2023-06-02	08:41:03	08:59:11	1080722	5ee232f2b970662cfa352567	4	1	practice_slash	9	advance_on_keypress_SLASH	6	stimuli_distractor_trianglediamonds.svg	stimuli_distractor_trianglediamonds.svg	15	no	57	0	428	0	0			0	0			1				0	
6.6.1	win	2023-06-02	08:41:03	08:59:14	1083750	5ee232f2b970662cfa352567	4	1	practice_slash	9	practice_slash	7	stimuli_distractor_diamondtriangles.svg	stimuli_target_diamondrectangles.svg	8	yes	53	1	924	0	0			0	0			1				0	
6.6.1	win	2023-06-02	08:41:03	08:59:14	1083750	5ee232f2b970662cfa352567	4	1	practice_slash	9	advance_on_keypress_SLASH	8	stimuli_distractor_diamondtriangles.svg	stimuli_target_diamondrectangles.svg	8	yes	57	0	466	0	0			0	0			1				0	
6.6.1	win	2023-06-02	08:41:03	08:59:17	1086996	5ee232f2b970662cfa352567	4	1	practice_slash	9	practice_slash	9	stimuli_distractor_trianglediamonds.svg	stimuli_target_squarediamonds.svg	11	yes	53	1	1117	0	0			0	0			1				0	
6.6.1	win	2023-06-02	08:41:03	08:59:17	1086996	5ee232f2b970662cfa352567	4	1	practice_slash	9	advance_on_keypress_SLASH	10	stimuli_distractor_trianglediamonds.svg	stimuli_target_squarediamonds.svg	11	yes	57	0	427	0	0			0	0			1				0	
6.6.1	win	2023-06-02	08:41:03	08:59:20	1089998	5ee232f2b970662cfa352567	4	1	practice_slash	9	practice_slash	11	stimuli_target_squarediamonds.svg	stimuli_distractor_diamondtriangles.svg	2	yes	53	1	896	0	0			0	0			1				0	
6.6.1	win	2023-06-02	08:41:03	08:59:20	1089998	5ee232f2b970662cfa352567	4	1	practice_slash	9	advance_on_keypress_SLASH	12	stimuli_target_squarediamonds.svg	stimuli_distractor_diamondtriangles.svg	2	yes	57	0	417	0	0			0	0			1				0	
6.6.1	win	2023-06-02	08:41:03	08:59:24	1094085	5ee232f2b970662cfa352567	4	1	practice_slash	9	practice_slash	13	stimuli_distractor_diamondtriangles.svg	stimuli_distractor_diamondtriangles.svg	13	no	0	1	2000	0	0			0	0			1				0	
6.6.1	win	2023-06-02	08:41:03	08:59:24	1094085	5ee232f2b970662cfa352567	4	1	practice_slash	9	advance_on_keypress_SLASH	14	stimuli_distractor_diamondtriangles.svg	stimuli_distractor_diamondtriangles.svg	13	no	57	0	380	0	0			0	0			1				0	
6.6.1	win	2023-06-02	08:41:03	08:59:28	1098142	5ee232f2b970662cfa352567	4	1	practice_slash	9	practice_slash	15	stimuli_distractor_trianglediamonds.svg	stimuli_distractor_diamondtriangles.svg	16	no	0	1	2000	0	0			0	0			1				0	
6.6.1	win	2023-06-02	08:41:03	08:59:28	1098142	5ee232f2b970662cfa352567	4	1	practice_slash	9	advance_on_keypress_SLASH	16	stimuli_distractor_trianglediamonds.svg	stimuli_distractor_diamondtriangles.svg	16	no	57	0	370	0	0			0	0			1				0	
6.6.1	win	2023-06-02	08:41:03	08:59:31	1101114	5ee232f2b970662cfa352567	4	1	practice_slash	9	practice_slash	17	stimuli_distractor_trianglediamonds.svg	stimuli_target_diamondrectangles.svg	12	yes	53	1	921	0	0			0	0			1				0	
6.6.1	win	2023-06-02	08:41:03	08:59:31	1101114	5ee232f2b970662cfa352567	4	1	practice_slash	9	advance_on_keypress_SLASH	18	stimuli_distractor_trianglediamonds.svg	stimuli_target_diamondrectangles.svg	12	yes	57	0	431	0	0			0	0			1				0	
6.6.1	win	2023-06-02	08:41:03	08:59:34	1104160	5ee232f2b970662cfa352567	4	1	practice_slash	9	practice_slash	19	stimuli_target_diamondsquares.svg	stimuli_distractor_diamondtriangles.svg	3	yes	53	1	947	0	0			0	0			1				0	
6.6.1	win	2023-06-02	08:41:03	08:59:34	1104160	5ee232f2b970662cfa352567	4	1	practice_slash	9	advance_on_keypress_SLASH	20	stimuli_target_diamondsquares.svg	stimuli_distractor_diamondtriangles.svg	3	yes	57	0	365	0	0			0	0			1				0	
6.6.1	win	2023-06-02	08:41:03	08:59:37	1107082	5ee232f2b970662cfa352567	4	1	practice_slash	9	practice_slash	21	stimuli_target_diamondsquares.svg	stimuli_distractor_trianglediamonds.svg	6	yes	53	1	883	0	0			0	0			1				0	
6.6.1	win	2023-06-02	08:41:03	08:59:37	1107082	5ee232f2b970662cfa352567	4	1	practice_slash	9	advance_on_keypress_SLASH	22	stimuli_target_diamondsquares.svg	stimuli_distractor_trianglediamonds.svg	6	yes	57	0	376	0	0			0	0			1				0	
6.6.1	win	2023-06-02	08:41:03	08:59:40	1109981	5ee232f2b970662cfa352567	4	1	practice_slash	9	practice_slash	23	stimuli_distractor_diamondtriangles.svg	stimuli_target_trianglerectangles.svg	9	yes	53	1	846	0	0			0	0			1				0	
6.6.1	win	2023-06-02	08:41:03	08:59:40	1109981	5ee232f2b970662cfa352567	4	1	practice_slash	9	advance_on_keypress_SLASH	24	stimuli_distractor_diamondtriangles.svg	stimuli_target_trianglerectangles.svg	9	yes	57	0	370	0	0			0	0			1				0	
6.6.1	win	2023-06-02	08:41:03	08:59:43	1112901	5ee232f2b970662cfa352567	4	1	practice_slash	9	practice_slash	25	stimuli_distractor_trianglediamonds.svg	stimuli_target_rectanglediamonds.svg	10	yes	53	1	862	0	0			0	0			1				0	
6.6.1	win	2023-06-02	08:41:03	08:59:43	1112901	5ee232f2b970662cfa352567	4	1	practice_slash	9	advance_on_keypress_SLASH	26	stimuli_distractor_trianglediamonds.svg	stimuli_target_rectanglediamonds.svg	10	yes	57	0	403	0	0			0	0			1				0	
6.6.1	win	2023-06-02	08:41:03	08:59:46	1115839	5ee232f2b970662cfa352567	4	1	practice_slash	9	practice_slash	27	stimuli_target_rectanglediamonds.svg	stimuli_distractor_diamondtriangles.svg	1	yes	53	1	864	0	0			0	0			1				0	
6.6.1	win	2023-06-02	08:41:03	08:59:46	1115839	5ee232f2b970662cfa352567	4	1	practice_slash	9	advance_on_keypress_SLASH	28	stimuli_target_rectanglediamonds.svg	stimuli_distractor_diamondtriangles.svg	1	yes	57	0	374	0	0			0	0			1				0	
6.6.1	win	2023-06-02	08:41:03	08:59:50	1119894	5ee232f2b970662cfa352567	4	1	practice_slash	9	practice_slash	29	stimuli_distractor_diamondtriangles.svg	stimuli_distractor_trianglediamonds.svg	14	no	0	1	2000	0	0			0	0			1				0	
6.6.1	win	2023-06-02	08:41:03	08:59:50	1119894	5ee232f2b970662cfa352567	4	1	practice_slash	9	advance_on_keypress_SLASH	30	stimuli_distractor_diamondtriangles.svg	stimuli_distractor_trianglediamonds.svg	14	no	57	0	372	0	0			0	0			1				0	
6.6.1	win	2023-06-02	08:41:03	08:59:53	1122678	5ee232f2b970662cfa352567	4	1	practice_slash	9	practice_slash	31	stimuli_target_rectanglediamonds.svg	stimuli_distractor_trianglediamonds.svg	4	yes	53	1	729	0	0			0	0			1				0	
6.6.1	win	2023-06-02	08:41:03	08:59:53	1122678	5ee232f2b970662cfa352567	4	1	practice_slash	9	advance_on_keypress_SLASH	32	stimuli_target_rectanglediamonds.svg	stimuli_distractor_trianglediamonds.svg	4	yes	57	0	390	0	0			0	0			1				0	
6.6.1	win	2023-06-02	08:41:03	08:59:57	1126735	5ee232f2b970662cfa352567	4	1	main_slash	11	main_slash	1	stimuli_target_rectanglediamonds.svg	stimuli_distractor_trianglediamonds.svg	2	yes	53	1	816	0	0			0	0			1				0	
6.6.1	win	2023-06-02	08:41:03	08:59:57	1126735	5ee232f2b970662cfa352567	4	1	main_slash	11	advance_on_keypress_SLASH	2	stimuli_target_rectanglediamonds.svg	stimuli_distractor_trianglediamonds.svg	2	yes	57	0	392	0	0			0	0			1				0	
6.6.1	win	2023-06-02	08:41:03	08:59:59	1128681	5ee232f2b970662cfa352567	4	1	main_slash	11	main_slash	3	stimuli_distractor_diamondtriangles.svg	stimuli_target_trianglerectangles.svg	29	yes	53	1	907	0	0			0	0			1				0	
6.6.1	win	2023-06-02	08:41:03	08:59:59	1128681	5ee232f2b970662cfa352567	4	1	main_slash	11	advance_on_keypress_SLASH	4	stimuli_distractor_diamondtriangles.svg	stimuli_target_trianglerectangles.svg	29	yes	57	0	389	0	0			0	0			1				0	
6.6.1	win	2023-06-02	08:41:03	09:00:01	1130555	5ee232f2b970662cfa352567	4	1	main_slash	11	main_slash	5	stimuli_distractor_trianglediamonds.svg	stimuli_target_trianglerectangles.svg	25	yes	53	1	847	0	0			0	0			1				0	
6.6.1	win	2023-06-02	08:41:03	09:00:01	1130555	5ee232f2b970662cfa352567	4	1	main_slash	11	advance_on_keypress_SLASH	6	stimuli_distractor_trianglediamonds.svg	stimuli_target_trianglerectangles.svg	25	yes	57	0	357	0	0			0	0			1				0	
6.6.1	win	2023-06-02	08:41:03	09:00:04	1133582	5ee232f2b970662cfa352567	4	1	main_slash	11	main_slash	7	stimuli_distractor_trianglediamonds.svg	stimuli_distractor_trianglediamonds.svg	33	no	0	1	2000	0	0			0	0			1				0	
6.6.1	win	2023-06-02	08:41:03	09:00:04	1133582	5ee232f2b970662cfa352567	4	1	main_slash	11	advance_on_keypress_SLASH	8	stimuli_distractor_trianglediamonds.svg	stimuli_distractor_trianglediamonds.svg	33	no	57	0	380	0	0			0	0			1				0	
6.6.1	win	2023-06-02	08:41:03	09:00:06	1135572	5ee232f2b970662cfa352567	4	1	main_slash	11	main_slash	9	stimuli_target_squarediamonds.svg	stimuli_distractor_trianglediamonds.svg	4	yes	53	1	954	0	0			0	0			1				0	
6.6.1	win	2023-06-02	08:41:03	09:00:06	1135572	5ee232f2b970662cfa352567	4	1	main_slash	11	advance_on_keypress_SLASH	10	stimuli_target_squarediamonds.svg	stimuli_distractor_trianglediamonds.svg	4	yes	57	0	418	0	0			0	0			1				0	
6.6.1	win	2023-06-02	08:41:03	09:00:09	1138645	5ee232f2b970662cfa352567	4	1	main_slash	11	main_slash	11	stimuli_target_diamondrectangles.svg	stimuli_distractor_trianglediamonds.svg	19	yes	0	0	2000	0	0			0	0			1				0	
6.6.1	win	2023-06-02	08:41:03	09:00:09	1138645	5ee232f2b970662cfa352567	4	1	main_slash	11	advance_on_keypress_SLASH	12	stimuli_target_diamondrectangles.svg	stimuli_distractor_trianglediamonds.svg	19	yes	57	0	406	0	0			0	0			1				0	
6.6.1	win	2023-06-02	08:41:03	09:00:11	1140669	5ee232f2b970662cfa352567	4	1	main_slash	11	main_slash	13	stimuli_distractor_diamondtriangles.svg	stimuli_target_rectanglediamonds.svg	14	yes	53	1	946	0	0			0	0			1				0	
6.6.1	win	2023-06-02	08:41:03	09:00:11	1140669	5ee232f2b970662cfa352567	4	1	main_slash	11	advance_on_keypress_SLASH	14	stimuli_distractor_diamondtriangles.svg	stimuli_target_rectanglediamonds.svg	14	yes	57	0	430	0	0			0	0			1				0	
6.6.1	win	2023-06-02	08:41:03	09:00:14	1143759	5ee232f2b970662cfa352567	4	1	main_slash	11	main_slash	15	stimuli_distractor_diamondtriangles.svg	stimuli_distractor_diamondtriangles.svg	40	no	0	1	2000	0	0			0	0			1				0	
6.6.1	win	2023-06-02	08:41:03	09:00:14	1143759	5ee232f2b970662cfa352567	4	1	main_slash	11	advance_on_keypress_SLASH	16	stimuli_distractor_diamondtriangles.svg	stimuli_distractor_diamondtriangles.svg	40	no	57	0	415	0	0			0	0			1				0	
6.6.1	win	2023-06-02	08:41:03	09:00:16	1145703	5ee232f2b970662cfa352567	4	1	main_slash	11	main_slash	17	stimuli_target_squaretriangles.svg	stimuli_distractor_trianglediamonds.svg	3	yes	53	1	874	0	0			0	0			1				0	
6.6.1	win	2023-06-02	08:41:03	09:00:16	1145703	5ee232f2b970662cfa352567	4	1	main_slash	11	advance_on_keypress_SLASH	18	stimuli_target_squaretriangles.svg	stimuli_distractor_trianglediamonds.svg	3	yes	57	0	392	0	0			0	0			1				0	
6.6.1	win	2023-06-02	08:41:03	09:00:18	1147668	5ee232f2b970662cfa352567	4	1	main_slash	11	main_slash	19	stimuli_target_rectangletriangles.svg	stimuli_distractor_diamondtriangles.svg	5	yes	53	1	905	0	0			0	0			1				0	
6.6.1	win	2023-06-02	08:41:03	09:00:18	1147668	5ee232f2b970662cfa352567	4	1	main_slash	11	advance_on_keypress_SLASH	20	stimuli_target_rectangletriangles.svg	stimuli_distractor_diamondtriangles.svg	5	yes	57	0	377	0	0			0	0			1				0	
6.6.1	win	2023-06-02	08:41:03	09:00:21	1150699	5ee232f2b970662cfa352567	4	1	main_slash	11	main_slash	21	stimuli_distractor_trianglediamonds.svg	stimuli_distractor_diamondtriangles.svg	35	no	0	1	2000	0	0			0	0			1				0	
6.6.1	win	2023-06-02	08:41:03	09:00:21	1150699	5ee232f2b970662cfa352567	4	1	main_slash	11	advance_on_keypress_SLASH	22	stimuli_distractor_trianglediamonds.svg	stimuli_distractor_diamondtriangles.svg	35	no	57	0	400	0	0			0	0			1				0	
6.6.1	win	2023-06-02	08:41:03	09:00:23	1152542	5ee232f2b970662cfa352567	4	1	main_slash	11	main_slash	23	stimuli_distractor_trianglediamonds.svg	stimuli_target_diamondsquares.svg	28	yes	53	1	789	0	0			0	0			1				0	
6.6.1	win	2023-06-02	08:41:03	09:00:23	1152542	5ee232f2b970662cfa352567	4	1	main_slash	11	advance_on_keypress_SLASH	24	stimuli_distractor_trianglediamonds.svg	stimuli_target_diamondsquares.svg	28	yes	57	0	391	0	0			0	0			1				0	
6.6.1	win	2023-06-02	08:41:03	09:00:26	1155609	5ee232f2b970662cfa352567	4	1	main_slash	11	main_slash	25	stimuli_distractor_trianglediamonds.svg	stimuli_distractor_trianglediamonds.svg	34	no	0	1	2000	0	0			0	0			1				0	
6.6.1	win	2023-06-02	08:41:03	09:00:26	1155609	5ee232f2b970662cfa352567	4	1	main_slash	11	advance_on_keypress_SLASH	26	stimuli_distractor_trianglediamonds.svg	stimuli_distractor_trianglediamonds.svg	34	no	57	0	388	0	0			0	0			1				0	
6.6.1	win	2023-06-02	08:41:03	09:00:29	1158657	5ee232f2b970662cfa352567	4	1	main_slash	11	main_slash	27	stimuli_distractor_diamondtriangles.svg	stimuli_distractor_trianglediamonds.svg	37	no	0	1	2000	0	0			0	0			1				0	
6.6.1	win	2023-06-02	08:41:03	09:00:29	1158657	5ee232f2b970662cfa352567	4	1	main_slash	11	advance_on_keypress_SLASH	28	stimuli_distractor_diamondtriangles.svg	stimuli_distractor_trianglediamonds.svg	37	no	57	0	465	0	0			0	0			1				0	
6.6.1	win	2023-06-02	08:41:03	09:00:31	1160935	5ee232f2b970662cfa352567	4	1	main_slash	11	main_slash	29	stimuli_target_trianglerectangles.svg	stimuli_distractor_diamondtriangles.svg	21	yes	53	1	1158	0	0			0	0			1				0	
6.6.1	win	2023-06-02	08:41:03	09:00:31	1160935	5ee232f2b970662cfa352567	4	1	main_slash	11	advance_on_keypress_SLASH	30	stimuli_target_trianglerectangles.svg	stimuli_distractor_diamondtriangles.svg	21	yes	57	0	462	0	0			0	0			1				0	
6.6.1	win	2023-06-02	08:41:03	09:00:33	1163069	5ee232f2b970662cfa352567	4	1	main_slash	11	main_slash	31	stimuli_target_rectangletriangles.svg	stimuli_distractor_trianglediamonds.svg	1	yes	53	1	1006	0	0			0	0			1				0	
6.6.1	win	2023-06-02	08:41:03	09:00:33	1163069	5ee232f2b970662cfa352567	4	1	main_slash	11	advance_on_keypress_SLASH	32	stimuli_target_rectangletriangles.svg	stimuli_distractor_trianglediamonds.svg	1	yes	57	0	545	0	0			0	0			1				0	
6.6.1	win	2023-06-02	08:41:03	09:00:35	1165203	5ee232f2b970662cfa352567	4	1	main_slash	11	main_slash	33	stimuli_distractor_diamondtriangles.svg	stimuli_target_squarediamonds.svg	16	yes	53	1	921	0	0			0	0			1				0	
6.6.1	win	2023-06-02	08:41:03	09:00:35	1165203	5ee232f2b970662cfa352567	4	1	main_slash	11	advance_on_keypress_SLASH	34	stimuli_distractor_diamondtriangles.svg	stimuli_target_squarediamonds.svg	16	yes	57	0	350	0	0			0	0			1				0	
6.6.1	win	2023-06-02	08:41:03	09:00:37	1167130	5ee232f2b970662cfa352567	4	1	main_slash	11	main_slash	35	stimuli_distractor_trianglediamonds.svg	stimuli_target_diamondrectangles.svg	27	yes	53	1	914	0	0			0	0			1				0	
6.6.1	win	2023-06-02	08:41:03	09:00:37	1167130	5ee232f2b970662cfa352567	4	1	main_slash	11	advance_on_keypress_SLASH	36	stimuli_distractor_trianglediamonds.svg	stimuli_target_diamondrectangles.svg	27	yes	57	0	372	0	0			0	0			1				0	
6.6.1	win	2023-06-02	08:41:03	09:00:39	1169043	5ee232f2b970662cfa352567	4	1	main_slash	11	main_slash	37	stimuli_distractor_diamondtriangles.svg	stimuli_target_trianglesquares.svg	30	yes	53	1	874	0	0			0	0			1				0	
6.6.1	win	2023-06-02	08:41:03	09:00:39	1169043	5ee232f2b970662cfa352567	4	1	main_slash	11	advance_on_keypress_SLASH	38	stimuli_distractor_diamondtriangles.svg	stimuli_target_trianglesquares.svg	30	yes	57	0	429	0	0			0	0			1				0	
6.6.1	win	2023-06-02	08:41:03	09:00:41	1171027	5ee232f2b970662cfa352567	4	1	main_slash	11	main_slash	39	stimuli_distractor_trianglediamonds.svg	stimuli_target_trianglesquares.svg	26	yes	53	1	889	0	0			0	0			1				0	
6.6.1	win	2023-06-02	08:41:03	09:00:41	1171027	5ee232f2b970662cfa352567	4	1	main_slash	11	advance_on_keypress_SLASH	40	stimuli_distractor_trianglediamonds.svg	stimuli_target_trianglesquares.svg	26	yes	57	0	346	0	0			0	0			1				0	
6.6.1	win	2023-06-02	08:41:03	09:00:43	1173088	5ee232f2b970662cfa352567	4	1	main_slash	11	main_slash	41	stimuli_target_diamondrectangles.svg	stimuli_distractor_diamondtriangles.svg	23	yes	53	1	1049	0	0			0	0			1				0	
6.6.1	win	2023-06-02	08:41:03	09:00:43	1173088	5ee232f2b970662cfa352567	4	1	main_slash	11	advance_on_keypress_SLASH	42	stimuli_target_diamondrectangles.svg	stimuli_distractor_diamondtriangles.svg	23	yes	57	0	313	0	0			0	0			1				0	
6.6.1	win	2023-06-02	08:41:03	09:00:45	1175022	5ee232f2b970662cfa352567	4	1	main_slash	11	main_slash	43	stimuli_distractor_trianglediamonds.svg	stimuli_target_squarediamonds.svg	12	yes	53	1	964	0	0			0	0			1				0	
6.6.1	win	2023-06-02	08:41:03	09:00:45	1175022	5ee232f2b970662cfa352567	4	1	main_slash	11	advance_on_keypress_SLASH	44	stimuli_distractor_trianglediamonds.svg	stimuli_target_squarediamonds.svg	12	yes	57	0	419	0	0			0	0			1				0	
6.6.1	win	2023-06-02	08:41:03	09:00:47	1176922	5ee232f2b970662cfa352567	4	1	main_slash	11	main_slash	45	stimuli_distractor_diamondtriangles.svg	stimuli_target_diamondsquares.svg	32	yes	53	1	829	0	0			0	0			1				0	
6.6.1	win	2023-06-02	08:41:03	09:00:47	1176922	5ee232f2b970662cfa352567	4	1	main_slash	11	advance_on_keypress_SLASH	46	stimuli_distractor_diamondtriangles.svg	stimuli_target_diamondsquares.svg	32	yes	57	0	320	0	0			0	0			1				0	
6.6.1	win	2023-06-02	08:41:03	09:00:49	1178877	5ee232f2b970662cfa352567	4	1	main_slash	11	main_slash	47	stimuli_distractor_diamondtriangles.svg	stimuli_target_diamondrectangles.svg	31	yes	53	1	982	0	0			0	0			1				0	
6.6.1	win	2023-06-02	08:41:03	09:00:49	1178877	5ee232f2b970662cfa352567	4	1	main_slash	11	advance_on_keypress_SLASH	48	stimuli_distractor_diamondtriangles.svg	stimuli_target_diamondrectangles.svg	31	yes	57	0	337	0	0			0	0			1				0	
6.6.1	win	2023-06-02	08:41:03	09:00:52	1181880	5ee232f2b970662cfa352567	4	1	main_slash	11	main_slash	49	stimuli_distractor_diamondtriangles.svg	stimuli_target_rectangletriangles.svg	13	yes	0	0	2000	0	0			0	0			1				0	
6.6.1	win	2023-06-02	08:41:03	09:00:52	1181880	5ee232f2b970662cfa352567	4	1	main_slash	11	advance_on_keypress_SLASH	50	stimuli_distractor_diamondtriangles.svg	stimuli_target_rectangletriangles.svg	13	yes	57	0	465	0	0			0	0			1				0	
6.6.1	win	2023-06-02	08:41:03	09:00:54	1184028	5ee232f2b970662cfa352567	4	1	main_slash	11	main_slash	51	stimuli_target_rectanglediamonds.svg	stimuli_distractor_diamondtriangles.svg	6	yes	53	1	1028	0	0			0	0			1				0	
6.6.1	win	2023-06-02	08:41:03	09:00:54	1184028	5ee232f2b970662cfa352567	4	1	main_slash	11	advance_on_keypress_SLASH	52	stimuli_target_rectanglediamonds.svg	stimuli_distractor_diamondtriangles.svg	6	yes	57	0	355	0	0			0	0			1				0	
6.6.1	win	2023-06-02	08:41:03	09:00:56	1185980	5ee232f2b970662cfa352567	4	1	main_slash	11	main_slash	53	stimuli_distractor_trianglediamonds.svg	stimuli_target_rectanglediamonds.svg	10	yes	53	1	928	0	0			0	0			1				0	
6.6.1	win	2023-06-02	08:41:03	09:00:56	1185980	5ee232f2b970662cfa352567	4	1	main_slash	11	advance_on_keypress_SLASH	54	stimuli_distractor_trianglediamonds.svg	stimuli_target_rectanglediamonds.svg	10	yes	57	0	360	0	0			0	0			1				0	
6.6.1	win	2023-06-02	08:41:03	09:00:58	1188100	5ee232f2b970662cfa352567	4	1	main_slash	11	main_slash	55	stimuli_distractor_trianglediamonds.svg	stimuli_target_squaretriangles.svg	11	yes	53	1	1095	0	0			0	0			1				0	
6.6.1	win	2023-06-02	08:41:03	09:00:58	1188100	5ee232f2b970662cfa352567	4	1	main_slash	11	advance_on_keypress_SLASH	56	stimuli_distractor_trianglediamonds.svg	stimuli_target_squaretriangles.svg	11	yes	57	0	350	0	0			0	0			1				0	
6.6.1	win	2023-06-02	08:41:03	09:01:01	1191106	5ee232f2b970662cfa352567	4	1	main_slash	11	main_slash	57	stimuli_distractor_diamondtriangles.svg	stimuli_distractor_diamondtriangles.svg	39	no	0	1	2000	0	0			0	0			1				0	
6.6.1	win	2023-06-02	08:41:03	09:01:01	1191106	5ee232f2b970662cfa352567	4	1	main_slash	11	advance_on_keypress_SLASH	58	stimuli_distractor_diamondtriangles.svg	stimuli_distractor_diamondtriangles.svg	39	no	57	0	307	0	0			0	0			1				0	
6.6.1	win	2023-06-02	08:41:03	09:01:04	1194076	5ee232f2b970662cfa352567	4	1	main_slash	11	main_slash	59	stimuli_distractor_diamondtriangles.svg	stimuli_distractor_trianglediamonds.svg	38	no	0	1	2000	0	0			0	0			1				0	
6.6.1	win	2023-06-02	08:41:03	09:01:04	1194076	5ee232f2b970662cfa352567	4	1	main_slash	11	advance_on_keypress_SLASH	60	stimuli_distractor_diamondtriangles.svg	stimuli_distractor_trianglediamonds.svg	38	no	57	0	327	0	0			0	0			1				0	
6.6.1	win	2023-06-02	08:41:03	09:01:06	1195892	5ee232f2b970662cfa352567	4	1	main_slash	11	main_slash	61	stimuli_distractor_trianglediamonds.svg	stimuli_target_rectangletriangles.svg	9	yes	53	1	829	0	0			0	0			1				0	
6.6.1	win	2023-06-02	08:41:03	09:01:06	1195892	5ee232f2b970662cfa352567	4	1	main_slash	11	advance_on_keypress_SLASH	62	stimuli_distractor_trianglediamonds.svg	stimuli_target_rectangletriangles.svg	9	yes	57	0	361	0	0			0	0			1				0	
6.6.1	win	2023-06-02	08:41:03	09:01:08	1197881	5ee232f2b970662cfa352567	4	1	main_slash	11	main_slash	63	stimuli_target_diamondsquares.svg	stimuli_distractor_diamondtriangles.svg	24	yes	53	1	966	0	0			0	0			1				0	
6.6.1	win	2023-06-02	08:41:03	09:01:08	1197881	5ee232f2b970662cfa352567	4	1	main_slash	11	advance_on_keypress_SLASH	64	stimuli_target_diamondsquares.svg	stimuli_distractor_diamondtriangles.svg	24	yes	57	0	286	0	0			0	0			1				0	
6.6.1	win	2023-06-02	08:41:03	09:01:10	1199648	5ee232f2b970662cfa352567	4	1	main_slash	11	main_slash	65	stimuli_target_squaretriangles.svg	stimuli_distractor_diamondtriangles.svg	7	yes	53	1	832	0	0			0	0			1				0	
6.6.1	win	2023-06-02	08:41:03	09:01:10	1199648	5ee232f2b970662cfa352567	4	1	main_slash	11	advance_on_keypress_SLASH	66	stimuli_target_squaretriangles.svg	stimuli_distractor_diamondtriangles.svg	7	yes	57	0	301	0	0			0	0			1				0	
6.6.1	win	2023-06-02	08:41:03	09:01:12	1201456	5ee232f2b970662cfa352567	4	1	main_slash	11	main_slash	67	stimuli_target_trianglerectangles.svg	stimuli_distractor_trianglediamonds.svg	17	yes	53	1	855	0	0			0	0			1				0	
6.6.1	win	2023-06-02	08:41:03	09:01:12	1201456	5ee232f2b970662cfa352567	4	1	main_slash	11	advance_on_keypress_SLASH	68	stimuli_target_trianglerectangles.svg	stimuli_distractor_trianglediamonds.svg	17	yes	57	0	321	0	0			0	0			1				0	
6.6.1	win	2023-06-02	08:41:03	09:01:13	1203268	5ee232f2b970662cfa352567	4	1	main_slash	11	main_slash	69	stimuli_target_diamondsquares.svg	stimuli_distractor_trianglediamonds.svg	20	yes	53	1	831	0	0			0	0			1				0	
6.6.1	win	2023-06-02	08:41:03	09:01:13	1203268	5ee232f2b970662cfa352567	4	1	main_slash	11	advance_on_keypress_SLASH	70	stimuli_target_diamondsquares.svg	stimuli_distractor_trianglediamonds.svg	20	yes	57	0	336	0	0			0	0			1				0	
6.6.1	win	2023-06-02	08:41:03	09:01:15	1205116	5ee232f2b970662cfa352567	4	1	main_slash	11	main_slash	71	stimuli_distractor_diamondtriangles.svg	stimuli_target_squaretriangles.svg	15	yes	53	1	861	0	0			0	0			1				0	
6.6.1	win	2023-06-02	08:41:03	09:01:15	1205116	5ee232f2b970662cfa352567	4	1	main_slash	11	advance_on_keypress_SLASH	72	stimuli_distractor_diamondtriangles.svg	stimuli_target_squaretriangles.svg	15	yes	57	0	318	0	0			0	0			1				0	
6.6.1	win	2023-06-02	08:41:03	09:01:18	1208090	5ee232f2b970662cfa352567	4	1	main_slash	11	main_slash	73	stimuli_distractor_trianglediamonds.svg	stimuli_distractor_diamondtriangles.svg	36	no	0	1	2000	0	0			0	0			1				0	
6.6.1	win	2023-06-02	08:41:03	09:01:18	1208090	5ee232f2b970662cfa352567	4	1	main_slash	11	advance_on_keypress_SLASH	74	stimuli_distractor_trianglediamonds.svg	stimuli_distractor_diamondtriangles.svg	36	no	57	0	385	0	0			0	0			1				0	
6.6.1	win	2023-06-02	08:41:03	09:01:20	1209943	5ee232f2b970662cfa352567	4	1	main_slash	11	main_slash	75	stimuli_target_trianglesquares.svg	stimuli_distractor_trianglediamonds.svg	18	yes	53	1	816	0	0			0	0			1				0	
6.6.1	win	2023-06-02	08:41:03	09:01:20	1209943	5ee232f2b970662cfa352567	4	1	main_slash	11	advance_on_keypress_SLASH	76	stimuli_target_trianglesquares.svg	stimuli_distractor_trianglediamonds.svg	18	yes	57	0	286	0	0			0	0			1				0	
6.6.1	win	2023-06-02	08:41:03	09:01:22	1211708	5ee232f2b970662cfa352567	4	1	main_slash	11	main_slash	77	stimuli_target_trianglesquares.svg	stimuli_distractor_diamondtriangles.svg	22	yes	53	1	829	0	0			0	0			1				0	
6.6.1	win	2023-06-02	08:41:03	09:01:22	1211708	5ee232f2b970662cfa352567	4	1	main_slash	11	advance_on_keypress_SLASH	78	stimuli_target_trianglesquares.svg	stimuli_distractor_diamondtriangles.svg	22	yes	57	0	296	0	0			0	0			1				0	
6.6.1	win	2023-06-02	08:41:03	09:01:24	1213514	5ee232f2b970662cfa352567	4	1	main_slash	11	main_slash	79	stimuli_target_squarediamonds.svg	stimuli_distractor_diamondtriangles.svg	8	yes	53	1	850	0	0			0	0			1				0	
6.6.1	win	2023-06-02	08:41:03	09:01:24	1213514	5ee232f2b970662cfa352567	4	1	main_slash	11	advance_on_keypress_SLASH	80	stimuli_target_squarediamonds.svg	stimuli_distractor_diamondtriangles.svg	8	yes	57	0	330	0	0			0	0			1				0	
6.6.1	win	2023-06-02	08:41:03	09:01:26	1215532	5ee232f2b970662cfa352567	4	1	main_slash	11	main_slash	81	stimuli_target_rectangletriangles.svg	stimuli_distractor_diamondtriangles.svg	5	yes	53	1	1033	0	0			0	0			1				0	
6.6.1	win	2023-06-02	08:41:03	09:01:26	1215532	5ee232f2b970662cfa352567	4	1	main_slash	11	advance_on_keypress_SLASH	82	stimuli_target_rectangletriangles.svg	stimuli_distractor_diamondtriangles.svg	5	yes	57	0	326	0	0			0	0			1				0	
6.6.1	win	2023-06-02	08:41:03	09:01:28	1217420	5ee232f2b970662cfa352567	4	1	main_slash	11	main_slash	83	stimuli_distractor_diamondtriangles.svg	stimuli_target_diamondsquares.svg	32	yes	53	1	902	0	0			0	0			1				0	
6.6.1	win	2023-06-02	08:41:03	09:01:28	1217420	5ee232f2b970662cfa352567	4	1	main_slash	11	advance_on_keypress_SLASH	84	stimuli_distractor_diamondtriangles.svg	stimuli_target_diamondsquares.svg	32	yes	57	0	348	0	0			0	0			1				0	
6.6.1	win	2023-06-02	08:41:03	09:01:29	1219178	5ee232f2b970662cfa352567	4	1	main_slash	11	main_slash	85	stimuli_distractor_diamondtriangles.svg	stimuli_target_rectanglediamonds.svg	14	yes	53	1	759	0	0			0	0			1				0	
6.6.1	win	2023-06-02	08:41:03	09:01:29	1219178	5ee232f2b970662cfa352567	4	1	main_slash	11	advance_on_keypress_SLASH	86	stimuli_distractor_diamondtriangles.svg	stimuli_target_rectanglediamonds.svg	14	yes	57	0	300	0	0			0	0			1				0	
6.6.1	win	2023-06-02	08:41:03	09:01:32	1222137	5ee232f2b970662cfa352567	4	1	main_slash	11	main_slash	87	stimuli_distractor_trianglediamonds.svg	stimuli_distractor_diamondtriangles.svg	35	no	0	1	2000	0	0			0	0			1				0	
6.6.1	win	2023-06-02	08:41:03	09:01:32	1222137	5ee232f2b970662cfa352567	4	1	main_slash	11	advance_on_keypress_SLASH	88	stimuli_distractor_trianglediamonds.svg	stimuli_distractor_diamondtriangles.svg	35	no	57	0	280	0	0			0	0			1				0	
6.6.1	win	2023-06-02	08:41:03	09:01:34	1223930	5ee232f2b970662cfa352567	4	1	main_slash	11	main_slash	89	stimuli_target_rectanglediamonds.svg	stimuli_distractor_trianglediamonds.svg	2	yes	53	1	856	0	0			0	0			1				0	
6.6.1	win	2023-06-02	08:41:03	09:01:34	1223930	5ee232f2b970662cfa352567	4	1	main_slash	11	advance_on_keypress_SLASH	90	stimuli_target_rectanglediamonds.svg	stimuli_distractor_trianglediamonds.svg	2	yes	57	0	307	0	0			0	0			1				0	
6.6.1	win	2023-06-02	08:41:03	09:01:36	1225797	5ee232f2b970662cfa352567	4	1	main_slash	11	main_slash	91	stimuli_target_trianglesquares.svg	stimuli_distractor_diamondtriangles.svg	22	yes	53	1	889	0	0			0	0			1				0	
6.6.1	win	2023-06-02	08:41:03	09:01:36	1225797	5ee232f2b970662cfa352567	4	1	main_slash	11	advance_on_keypress_SLASH	92	stimuli_target_trianglesquares.svg	stimuli_distractor_diamondtriangles.svg	22	yes	57	0	312	0	0			0	0			1				0	
6.6.1	win	2023-06-02	08:41:03	09:01:38	1227657	5ee232f2b970662cfa352567	4	1	main_slash	11	main_slash	93	stimuli_distractor_diamondtriangles.svg	stimuli_target_squarediamonds.svg	16	yes	53	1	880	0	0			0	0			1				0	
6.6.1	win	2023-06-02	08:41:03	09:01:38	1227657	5ee232f2b970662cfa352567	4	1	main_slash	11	advance_on_keypress_SLASH	94	stimuli_distractor_diamondtriangles.svg	stimuli_target_squarediamonds.svg	16	yes	57	0	321	0	0			0	0			1				0	
6.6.1	win	2023-06-02	08:41:03	09:01:41	1230646	5ee232f2b970662cfa352567	4	1	main_slash	11	main_slash	95	stimuli_distractor_trianglediamonds.svg	stimuli_distractor_trianglediamonds.svg	33	no	0	1	2000	0	0			0	0			1				0	
6.6.1	win	2023-06-02	08:41:03	09:01:41	1230646	5ee232f2b970662cfa352567	4	1	main_slash	11	advance_on_keypress_SLASH	96	stimuli_distractor_trianglediamonds.svg	stimuli_distractor_trianglediamonds.svg	33	no	57	0	391	0	0			0	0			1				0	
6.6.1	win	2023-06-02	08:41:03	09:01:43	1232486	5ee232f2b970662cfa352567	4	1	main_slash	11	main_slash	97	stimuli_distractor_diamondtriangles.svg	stimuli_target_rectangletriangles.svg	13	yes	53	1	787	0	0			0	0			1				0	
6.6.1	win	2023-06-02	08:41:03	09:01:43	1232486	5ee232f2b970662cfa352567	4	1	main_slash	11	advance_on_keypress_SLASH	98	stimuli_distractor_diamondtriangles.svg	stimuli_target_rectangletriangles.svg	13	yes	57	0	328	0	0			0	0			1				0	
6.6.1	win	2023-06-02	08:41:03	09:01:44	1234347	5ee232f2b970662cfa352567	4	1	main_slash	11	main_slash	99	stimuli_target_squarediamonds.svg	stimuli_distractor_diamondtriangles.svg	8	yes	53	1	880	0	0			0	0			1				0	
6.6.1	win	2023-06-02	08:41:03	09:01:44	1234347	5ee232f2b970662cfa352567	4	1	main_slash	11	advance_on_keypress_SLASH	100	stimuli_target_squarediamonds.svg	stimuli_distractor_diamondtriangles.svg	8	yes	57	0	298	0	0			0	0			1				0	
6.6.1	win	2023-06-02	08:41:03	09:01:47	1237303	5ee232f2b970662cfa352567	4	1	main_slash	11	main_slash	101	stimuli_distractor_diamondtriangles.svg	stimuli_distractor_trianglediamonds.svg	37	no	0	1	2000	0	0			0	0			1				0	
6.6.1	win	2023-06-02	08:41:03	09:01:47	1237303	5ee232f2b970662cfa352567	4	1	main_slash	11	advance_on_keypress_SLASH	102	stimuli_distractor_diamondtriangles.svg	stimuli_distractor_trianglediamonds.svg	37	no	57	0	280	0	0			0	0			1				0	
6.6.1	win	2023-06-02	08:41:03	09:01:49	1239128	5ee232f2b970662cfa352567	4	1	main_slash	11	main_slash	103	stimuli_target_squaretriangles.svg	stimuli_distractor_diamondtriangles.svg	7	yes	53	1	890	0	0			0	0			1				0	
6.6.1	win	2023-06-02	08:41:03	09:01:49	1239128	5ee232f2b970662cfa352567	4	1	main_slash	11	advance_on_keypress_SLASH	104	stimuli_target_squaretriangles.svg	stimuli_distractor_diamondtriangles.svg	7	yes	57	0	292	0	0			0	0			1				0	
6.6.1	win	2023-06-02	08:41:03	09:01:51	1241057	5ee232f2b970662cfa352567	4	1	main_slash	11	main_slash	105	stimuli_target_diamondrectangles.svg	stimuli_distractor_trianglediamonds.svg	19	yes	53	1	966	0	0			0	0			1				0	
6.6.1	win	2023-06-02	08:41:03	09:01:51	1241057	5ee232f2b970662cfa352567	4	1	main_slash	11	advance_on_keypress_SLASH	106	stimuli_target_diamondrectangles.svg	stimuli_distractor_trianglediamonds.svg	19	yes	57	0	305	0	0			0	0			1				0	
6.6.1	win	2023-06-02	08:41:03	09:01:53	1242846	5ee232f2b970662cfa352567	4	1	main_slash	11	main_slash	107	stimuli_target_squarediamonds.svg	stimuli_distractor_trianglediamonds.svg	4	yes	53	1	821	0	0			0	0			1				0	
6.6.1	win	2023-06-02	08:41:03	09:01:53	1242846	5ee232f2b970662cfa352567	4	1	main_slash	11	advance_on_keypress_SLASH	108	stimuli_target_squarediamonds.svg	stimuli_distractor_trianglediamonds.svg	4	yes	57	0	327	0	0			0	0			1				0	
6.6.1	win	2023-06-02	08:41:03	09:01:55	1244595	5ee232f2b970662cfa352567	4	1	main_slash	11	main_slash	109	stimuli_distractor_trianglediamonds.svg	stimuli_target_diamondsquares.svg	28	yes	53	1	768	0	0			0	0			1				0	
6.6.1	win	2023-06-02	08:41:03	09:01:55	1244595	5ee232f2b970662cfa352567	4	1	main_slash	11	advance_on_keypress_SLASH	110	stimuli_distractor_trianglediamonds.svg	stimuli_target_diamondsquares.svg	28	yes	57	0	348	0	0			0	0			1				0	
6.6.1	win	2023-06-02	08:41:03	09:01:56	1246410	5ee232f2b970662cfa352567	4	1	main_slash	11	main_slash	111	stimuli_distractor_trianglediamonds.svg	stimuli_target_rectanglediamonds.svg	10	yes	53	1	814	0	0			0	0			1				0	
6.6.1	win	2023-06-02	08:41:03	09:01:56	1246410	5ee232f2b970662cfa352567	4	1	main_slash	11	advance_on_keypress_SLASH	112	stimuli_distractor_trianglediamonds.svg	stimuli_target_rectanglediamonds.svg	10	yes	57	0	317	0	0			0	0			1				0	
6.6.1	win	2023-06-02	08:41:03	09:01:58	1248402	5ee232f2b970662cfa352567	4	1	main_slash	11	main_slash	113	stimuli_target_trianglerectangles.svg	stimuli_distractor_trianglediamonds.svg	17	yes	53	1	1021	0	0			0	0			1				0	
6.6.1	win	2023-06-02	08:41:03	09:01:58	1248402	5ee232f2b970662cfa352567	4	1	main_slash	11	advance_on_keypress_SLASH	114	stimuli_target_trianglerectangles.svg	stimuli_distractor_trianglediamonds.svg	17	yes	57	0	303	0	0			0	0			1				0	
6.6.1	win	2023-06-02	08:41:03	09:02:00	1250199	5ee232f2b970662cfa352567	4	1	main_slash	11	main_slash	115	stimuli_distractor_diamondtriangles.svg	stimuli_target_trianglerectangles.svg	29	yes	53	1	849	0	0			0	0			1				0	
6.6.1	win	2023-06-02	08:41:03	09:02:00	1250199	5ee232f2b970662cfa352567	4	1	main_slash	11	advance_on_keypress_SLASH	116	stimuli_distractor_diamondtriangles.svg	stimuli_target_trianglerectangles.svg	29	yes	57	0	311	0	0			0	0			1				0	
6.6.1	win	2023-06-02	08:41:03	09:02:02	1252116	5ee232f2b970662cfa352567	4	1	main_slash	11	main_slash	117	stimuli_target_rectangletriangles.svg	stimuli_distractor_trianglediamonds.svg	1	yes	53	1	948	0	0			0	0			1				0	
6.6.1	win	2023-06-02	08:41:03	09:02:02	1252116	5ee232f2b970662cfa352567	4	1	main_slash	11	advance_on_keypress_SLASH	118	stimuli_target_rectangletriangles.svg	stimuli_distractor_trianglediamonds.svg	1	yes	57	0	310	0	0			0	0			1				0	
6.6.1	win	2023-06-02	08:41:03	09:02:05	1255087	5ee232f2b970662cfa352567	4	1	main_slash	11	main_slash	119	stimuli_distractor_trianglediamonds.svg	stimuli_distractor_trianglediamonds.svg	34	no	0	1	2000	0	0			0	0			1				0	
6.6.1	win	2023-06-02	08:41:03	09:02:05	1255087	5ee232f2b970662cfa352567	4	1	main_slash	11	advance_on_keypress_SLASH	120	stimuli_distractor_trianglediamonds.svg	stimuli_distractor_trianglediamonds.svg	34	no	57	0	436	0	0			0	0			1				0	
6.6.1	win	2023-06-02	08:41:03	09:02:07	1256994	5ee232f2b970662cfa352567	4	1	main_slash	11	main_slash	121	stimuli_target_trianglerectangles.svg	stimuli_distractor_diamondtriangles.svg	21	yes	53	1	820	0	0			0	0			1				0	
6.6.1	win	2023-06-02	08:41:03	09:02:07	1256994	5ee232f2b970662cfa352567	4	1	main_slash	11	advance_on_keypress_SLASH	122	stimuli_target_trianglerectangles.svg	stimuli_distractor_diamondtriangles.svg	21	yes	57	0	329	0	0			0	0			1				0	
6.6.1	win	2023-06-02	08:41:03	09:02:09	1258851	5ee232f2b970662cfa352567	4	1	main_slash	11	main_slash	123	stimuli_distractor_diamondtriangles.svg	stimuli_target_trianglesquares.svg	30	yes	53	1	873	0	0			0	0			1				0	
6.6.1	win	2023-06-02	08:41:03	09:02:09	1258851	5ee232f2b970662cfa352567	4	1	main_slash	11	advance_on_keypress_SLASH	124	stimuli_distractor_diamondtriangles.svg	stimuli_target_trianglesquares.svg	30	yes	57	0	317	0	0			0	0			1				0	
6.6.1	win	2023-06-02	08:41:03	09:02:11	1260809	5ee232f2b970662cfa352567	4	1	main_slash	11	main_slash	125	stimuli_distractor_trianglediamonds.svg	stimuli_target_trianglerectangles.svg	25	yes	53	1	981	0	0			0	0			1				0	
6.6.1	win	2023-06-02	08:41:03	09:02:11	1260809	5ee232f2b970662cfa352567	4	1	main_slash	11	advance_on_keypress_SLASH	126	stimuli_distractor_trianglediamonds.svg	stimuli_target_trianglerectangles.svg	25	yes	57	0	457	0	0			0	0			1				0	
6.6.1	win	2023-06-02	08:41:03	09:02:13	1262940	5ee232f2b970662cfa352567	4	1	main_slash	11	main_slash	127	stimuli_distractor_trianglediamonds.svg	stimuli_distractor_diamondtriangles.svg	36	no	53	0	1010	0	0			0	0			1				0	
6.6.1	win	2023-06-02	08:41:03	09:02:13	1262940	5ee232f2b970662cfa352567	4	1	main_slash	11	advance_on_keypress_SLASH	128	stimuli_distractor_trianglediamonds.svg	stimuli_distractor_diamondtriangles.svg	36	no	57	0	243	0	0			0	0			1				0	
6.6.1	win	2023-06-02	08:41:03	09:02:15	1264684	5ee232f2b970662cfa352567	4	1	main_slash	11	main_slash	129	stimuli_target_diamondsquares.svg	stimuli_distractor_trianglediamonds.svg	20	yes	53	1	836	0	0			0	0			1				0	
6.6.1	win	2023-06-02	08:41:03	09:02:15	1264684	5ee232f2b970662cfa352567	4	1	main_slash	11	advance_on_keypress_SLASH	130	stimuli_target_diamondsquares.svg	stimuli_distractor_trianglediamonds.svg	20	yes	57	0	318	0	0			0	0			1				0	
6.6.1	win	2023-06-02	08:41:03	09:02:18	1267650	5ee232f2b970662cfa352567	4	1	main_slash	11	main_slash	131	stimuli_distractor_trianglediamonds.svg	stimuli_target_squaretriangles.svg	11	yes	0	0	2000	0	0			0	0			1				0	
6.6.1	win	2023-06-02	08:41:03	09:02:18	1267650	5ee232f2b970662cfa352567	4	1	main_slash	11	advance_on_keypress_SLASH	132	stimuli_distractor_trianglediamonds.svg	stimuli_target_squaretriangles.svg	11	yes	57	0	410	0	0			0	0			1				0	
6.6.1	win	2023-06-02	08:41:03	09:02:20	1269434	5ee232f2b970662cfa352567	4	1	main_slash	11	main_slash	133	stimuli_distractor_trianglediamonds.svg	stimuli_target_rectangletriangles.svg	9	yes	53	1	715	0	0			0	0			1				0	
6.6.1	win	2023-06-02	08:41:03	09:02:20	1269434	5ee232f2b970662cfa352567	4	1	main_slash	11	advance_on_keypress_SLASH	134	stimuli_distractor_trianglediamonds.svg	stimuli_target_rectangletriangles.svg	9	yes	57	0	392	0	0			0	0			1				0	
6.6.1	win	2023-06-02	08:41:03	09:02:21	1271401	5ee232f2b970662cfa352567	4	1	main_slash	11	main_slash	135	stimuli_target_diamondrectangles.svg	stimuli_distractor_diamondtriangles.svg	23	yes	53	1	913	0	0			0	0			1				0	
6.6.1	win	2023-06-02	08:41:03	09:02:21	1271401	5ee232f2b970662cfa352567	4	1	main_slash	11	advance_on_keypress_SLASH	136	stimuli_target_diamondrectangles.svg	stimuli_distractor_diamondtriangles.svg	23	yes	57	0	440	0	0			0	0			1				0	
6.6.1	win	2023-06-02	08:41:03	09:02:24	1273422	5ee232f2b970662cfa352567	4	1	main_slash	11	main_slash	137	stimuli_distractor_trianglediamonds.svg	stimuli_target_trianglesquares.svg	26	yes	53	1	916	0	0			0	0			1				0	
6.6.1	win	2023-06-02	08:41:03	09:02:24	1273422	5ee232f2b970662cfa352567	4	1	main_slash	11	advance_on_keypress_SLASH	138	stimuli_distractor_trianglediamonds.svg	stimuli_target_trianglesquares.svg	26	yes	57	0	405	0	0			0	0			1				0	
6.6.1	win	2023-06-02	08:41:03	09:02:26	1275660	5ee232f2b970662cfa352567	4	1	main_slash	11	main_slash	139	stimuli_distractor_trianglediamonds.svg	stimuli_target_diamondrectangles.svg	27	yes	53	1	1169	0	0			0	0			1				0	
6.6.1	win	2023-06-02	08:41:03	09:02:26	1275660	5ee232f2b970662cfa352567	4	1	main_slash	11	advance_on_keypress_SLASH	140	stimuli_distractor_trianglediamonds.svg	stimuli_target_diamondrectangles.svg	27	yes	57	0	397	0	0			0	0			1				0	
6.6.1	win	2023-06-02	08:41:03	09:02:29	1278714	5ee232f2b970662cfa352567	4	1	main_slash	11	main_slash	141	stimuli_distractor_diamondtriangles.svg	stimuli_distractor_diamondtriangles.svg	39	no	0	1	2000	0	0			0	0			1				0	
6.6.1	win	2023-06-02	08:41:03	09:02:29	1278714	5ee232f2b970662cfa352567	4	1	main_slash	11	advance_on_keypress_SLASH	142	stimuli_distractor_diamondtriangles.svg	stimuli_distractor_diamondtriangles.svg	39	no	57	0	336	0	0			0	0			1				0	
6.6.1	win	2023-06-02	08:41:03	09:02:31	1280625	5ee232f2b970662cfa352567	4	1	main_slash	11	main_slash	143	stimuli_target_diamondsquares.svg	stimuli_distractor_diamondtriangles.svg	24	yes	53	1	928	0	0			0	0			1				0	
6.6.1	win	2023-06-02	08:41:03	09:02:31	1280625	5ee232f2b970662cfa352567	4	1	main_slash	11	advance_on_keypress_SLASH	144	stimuli_target_diamondsquares.svg	stimuli_distractor_diamondtriangles.svg	24	yes	57	0	312	0	0			0	0			1				0	
6.6.1	win	2023-06-02	08:41:03	09:02:33	1282554	5ee232f2b970662cfa352567	4	1	main_slash	11	main_slash	145	stimuli_target_squaretriangles.svg	stimuli_distractor_trianglediamonds.svg	3	yes	53	1	955	0	0			0	0			1				0	
6.6.1	win	2023-06-02	08:41:03	09:02:33	1282554	5ee232f2b970662cfa352567	4	1	main_slash	11	advance_on_keypress_SLASH	146	stimuli_target_squaretriangles.svg	stimuli_distractor_trianglediamonds.svg	3	yes	57	0	314	0	0			0	0			1				0	
6.6.1	win	2023-06-02	08:41:03	09:02:36	1285517	5ee232f2b970662cfa352567	4	1	main_slash	11	main_slash	147	stimuli_distractor_diamondtriangles.svg	stimuli_distractor_trianglediamonds.svg	38	no	0	1	2000	0	0			0	0			1				0	
6.6.1	win	2023-06-02	08:41:03	09:02:36	1285517	5ee232f2b970662cfa352567	4	1	main_slash	11	advance_on_keypress_SLASH	148	stimuli_distractor_diamondtriangles.svg	stimuli_distractor_trianglediamonds.svg	38	no	57	0	385	0	0			0	0			1				0	
6.6.1	win	2023-06-02	08:41:03	09:02:38	1287440	5ee232f2b970662cfa352567	4	1	main_slash	11	main_slash	149	stimuli_distractor_diamondtriangles.svg	stimuli_target_diamondrectangles.svg	31	yes	53	1	885	0	0			0	0			1				0	
6.6.1	win	2023-06-02	08:41:03	09:02:38	1287440	5ee232f2b970662cfa352567	4	1	main_slash	11	advance_on_keypress_SLASH	150	stimuli_distractor_diamondtriangles.svg	stimuli_target_diamondrectangles.svg	31	yes	57	0	297	0	0			0	0			1				0	
6.6.1	win	2023-06-02	08:41:03	09:02:39	1289205	5ee232f2b970662cfa352567	4	1	main_slash	11	main_slash	151	stimuli_target_rectanglediamonds.svg	stimuli_distractor_diamondtriangles.svg	6	yes	53	1	816	0	0			0	0			1				0	
6.6.1	win	2023-06-02	08:41:03	09:02:39	1289205	5ee232f2b970662cfa352567	4	1	main_slash	11	advance_on_keypress_SLASH	152	stimuli_target_rectanglediamonds.svg	stimuli_distractor_diamondtriangles.svg	6	yes	57	0	320	0	0			0	0			1				0	
6.6.1	win	2023-06-02	08:41:03	09:02:41	1291094	5ee232f2b970662cfa352567	4	1	main_slash	11	main_slash	153	stimuli_distractor_trianglediamonds.svg	stimuli_target_squarediamonds.svg	12	yes	53	1	919	0	0			0	0			1				0	
6.6.1	win	2023-06-02	08:41:03	09:02:41	1291094	5ee232f2b970662cfa352567	4	1	main_slash	11	advance_on_keypress_SLASH	154	stimuli_distractor_trianglediamonds.svg	stimuli_target_squarediamonds.svg	12	yes	57	0	344	0	0			0	0			1				0	
6.6.1	win	2023-06-02	08:41:03	09:02:43	1293151	5ee232f2b970662cfa352567	4	1	main_slash	11	main_slash	155	stimuli_target_trianglesquares.svg	stimuli_distractor_trianglediamonds.svg	18	yes	53	1	1059	0	0			0	0			1				0	
6.6.1	win	2023-06-02	08:41:03	09:02:43	1293151	5ee232f2b970662cfa352567	4	1	main_slash	11	advance_on_keypress_SLASH	156	stimuli_target_trianglesquares.svg	stimuli_distractor_trianglediamonds.svg	18	yes	57	0	312	0	0			0	0			1				0	
6.6.1	win	2023-06-02	08:41:03	09:02:46	1296131	5ee232f2b970662cfa352567	4	1	main_slash	11	main_slash	157	stimuli_distractor_diamondtriangles.svg	stimuli_distractor_diamondtriangles.svg	40	no	0	1	2000	0	0			0	0			1				0	
6.6.1	win	2023-06-02	08:41:03	09:02:46	1296131	5ee232f2b970662cfa352567	4	1	main_slash	11	advance_on_keypress_SLASH	158	stimuli_distractor_diamondtriangles.svg	stimuli_distractor_diamondtriangles.svg	40	no	57	0	461	0	0			0	0			1				0	
6.6.1	win	2023-06-02	08:41:03	09:02:48	1298100	5ee232f2b970662cfa352567	4	1	main_slash	11	main_slash	159	stimuli_distractor_diamondtriangles.svg	stimuli_target_squaretriangles.svg	15	yes	53	1	853	0	0			0	0			1				0	
6.6.1	win	2023-06-02	08:41:03	09:02:48	1298100	5ee232f2b970662cfa352567	4	1	main_slash	11	advance_on_keypress_SLASH	160	stimuli_distractor_diamondtriangles.svg	stimuli_target_squaretriangles.svg	15	yes	57	0	332	0	0			0	0			1				0	
6.6.1	win	2023-06-02	08:41:03	09:02:48	1298100	5ee232f2b970662cfa352567	4	1	headphonecheck_calibration	14	headphonecheck_calibrationIntro	1	stimuli_distractor_diamondtriangles.svg	stimuli_target_squaretriangles.svg	15	yes	calibrationButton	0	1843	0	0			0	0			1				0	
6.6.1	win	2023-06-02	08:41:03	09:02:48	1298100	5ee232f2b970662cfa352567	4	1	headphonecheck_testphase	15	test_collectResponse	3	stimuli_distractor_diamondtriangles.svg	stimuli_target_squaretriangles.svg	15	yes	third	1	485	1	6	antiphase_hc_ois.wav	3	0	0			1				0	
6.6.1	win	2023-06-02	08:41:03	09:02:48	1298100	5ee232f2b970662cfa352567	4	1	headphonecheck_testphase	15	test_collectResponse	6	stimuli_distractor_diamondtriangles.svg	stimuli_target_squaretriangles.svg	15	yes	first	1	4382	2	4	antiphase_hc_sio.wav	1	0	0			1				0	
6.6.1	win	2023-06-02	08:41:03	09:02:48	1298100	5ee232f2b970662cfa352567	4	1	headphonecheck_testphase	15	test_collectResponse	9	stimuli_distractor_diamondtriangles.svg	stimuli_target_squaretriangles.svg	15	yes	first	1	348	3	3	antiphase_hc_soi.wav	1	0	0			1				0	
6.6.1	win	2023-06-02	08:41:03	09:02:48	1298100	5ee232f2b970662cfa352567	4	1	headphonecheck_testphase	15	test_collectResponse	12	stimuli_distractor_diamondtriangles.svg	stimuli_target_squaretriangles.svg	15	yes	second	1	333	4	1	antiphase_hc_iso.wav	2	0	0			1				0	
6.6.1	win	2023-06-02	08:41:03	09:02:48	1298100	5ee232f2b970662cfa352567	4	1	headphonecheck_testphase	15	test_collectResponse	15	stimuli_distractor_diamondtriangles.svg	stimuli_target_squaretriangles.svg	15	yes	third	1	435	5	2	antiphase_hc_ios.wav	3	0	0			1				0	
6.6.1	win	2023-06-02	08:41:03	09:02:48	1298100	5ee232f2b970662cfa352567	4	1	headphonecheck_testphase	15	test_collectResponse	18	stimuli_distractor_diamondtriangles.svg	stimuli_target_squaretriangles.svg	15	yes	second	1	476	6	5	antiphase_hc_osi.wav	2	0	0			1				0	
6.6.1	win	2023-06-02	08:41:03	09:02:48	1298100	5ee232f2b970662cfa352567	4	1	stereocheck_calibration	17	stereocheck_calibrationIntro	1	stimuli_distractor_diamondtriangles.svg	stimuli_target_squaretriangles.svg	15	yes	stereocheck_calibrationButton	0	4052	6	5	antiphase_hc_osi.wav	2	0	0			1				0	
6.6.1	win	2023-06-02	08:41:03	09:02:48	1298100	5ee232f2b970662cfa352567	4	1	stereocheck_testphase	18	stereocheck_test_collectResponse	3	stimuli_distractor_diamondtriangles.svg	stimuli_target_squaretriangles.svg	15	yes	stereocheck_right	1	3266	6	5	antiphase_hc_osi.wav	2	1	4	noise_calib_stim_RIGHT.wav	2	1				0	
6.6.1	win	2023-06-02	08:41:03	09:02:48	1298100	5ee232f2b970662cfa352567	4	1	stereocheck_testphase	18	stereocheck_test_collectResponse	6	stimuli_distractor_diamondtriangles.svg	stimuli_target_squaretriangles.svg	15	yes	stereocheck_left	1	658	6	5	antiphase_hc_osi.wav	2	2	1	noise_calib_stim_LEFT.wav	1	1				0	
6.6.1	win	2023-06-02	08:41:03	09:02:48	1298100	5ee232f2b970662cfa352567	4	1	stereocheck_testphase	18	stereocheck_test_collectResponse	9	stimuli_distractor_diamondtriangles.svg	stimuli_target_squaretriangles.svg	15	yes	stereocheck_left	1	579	6	5	antiphase_hc_osi.wav	2	3	3	noise_calib_stim_LEFT.wav	1	1				0	
6.6.1	win	2023-06-02	08:41:03	09:02:48	1298100	5ee232f2b970662cfa352567	4	1	stereocheck_testphase	18	stereocheck_test_collectResponse	12	stimuli_distractor_diamondtriangles.svg	stimuli_target_squaretriangles.svg	15	yes	stereocheck_left	1	547	6	5	antiphase_hc_osi.wav	2	4	2	noise_calib_stim_LEFT.wav	1	1				0	
6.6.1	win	2023-06-02	08:41:03	09:02:48	1298100	5ee232f2b970662cfa352567	4	1	stereocheck_testphase	18	stereocheck_test_collectResponse	15	stimuli_distractor_diamondtriangles.svg	stimuli_target_squaretriangles.svg	15	yes	stereocheck_right	1	334	6	5	antiphase_hc_osi.wav	2	5	5	noise_calib_stim_RIGHT.wav	2	1				0	
6.6.1	win	2023-06-02	08:41:03	09:02:48	1298100	5ee232f2b970662cfa352567	4	1	stereocheck_testphase	18	stereocheck_test_collectResponse	18	stimuli_distractor_diamondtriangles.svg	stimuli_target_squaretriangles.svg	15	yes	stereocheck_right	1	101	6	5	antiphase_hc_osi.wav	2	6	6	noise_calib_stim_RIGHT.wav	2	1				0	
6.6.1	win	2023-06-02	08:41:03	09:02:48	1298100	5ee232f2b970662cfa352567	4	1	DL_practice	21	DL_practice	2	stimuli_distractor_diamondtriangles.svg	stimuli_target_squaretriangles.svg	15	yes	da	1	2340	6	5	antiphase_hc_osi.wav	2	6	6	noise_calib_stim_RIGHT.wav	2	7	blb_dichoticlistening_da-ba.mp3	da	ba	1	left
6.6.1	win	2023-06-02	08:41:03	09:02:48	1298100	5ee232f2b970662cfa352567	4	1	DL_practice	21	DL_practice	3	stimuli_distractor_diamondtriangles.svg	stimuli_target_squaretriangles.svg	15	yes	ba	1	1242	6	5	antiphase_hc_osi.wav	2	6	6	noise_calib_stim_RIGHT.wav	2	1	blb_dichoticlistening_ba-ba.mp3	ba	ba	0	left
6.6.1	win	2023-06-02	08:41:03	09:02:48	1298100	5ee232f2b970662cfa352567	4	1	DL_practice	21	DL_practice	4	stimuli_distractor_diamondtriangles.svg	stimuli_target_squaretriangles.svg	15	yes	ga	1	1333	6	5	antiphase_hc_osi.wav	2	6	6	noise_calib_stim_RIGHT.wav	2	15	blb_dichoticlistening_ga-ga.mp3	ga	ga	0	left
6.6.1	win	2023-06-02	08:41:03	09:02:48	1298100	5ee232f2b970662cfa352567	4	1	DL_practice	21	DL_practice	5	stimuli_distractor_diamondtriangles.svg	stimuli_target_squaretriangles.svg	15	yes	ta	1	1507	6	5	antiphase_hc_osi.wav	2	6	6	noise_calib_stim_RIGHT.wav	2	36	blb_dichoticlistening_ta-ta.mp3	ta	ta	0	left
6.6.1	win	2023-06-02	08:41:03	09:02:48	1298100	5ee232f2b970662cfa352567	4	1	DL_practice	21	DL_practice	6	stimuli_distractor_diamondtriangles.svg	stimuli_target_squaretriangles.svg	15	yes	ka	1	1978	6	5	antiphase_hc_osi.wav	2	6	6	noise_calib_stim_RIGHT.wav	2	23	blb_dichoticlistening_ka-pa.mp3	ka	pa	1	left
6.6.1	win	2023-06-02	08:41:03	09:02:48	1298100	5ee232f2b970662cfa352567	4	1	DL_practice	21	DL_practice	7	stimuli_distractor_diamondtriangles.svg	stimuli_target_squaretriangles.svg	15	yes	da	1	1297	6	5	antiphase_hc_osi.wav	2	6	6	noise_calib_stim_RIGHT.wav	2	8	blb_dichoticlistening_da-da.mp3	da	da	0	left
6.6.1	win	2023-06-02	08:41:03	09:02:48	1298100	5ee232f2b970662cfa352567	4	1	DL_practice	21	DL_practice	8	stimuli_distractor_diamondtriangles.svg	stimuli_target_squaretriangles.svg	15	yes	da	0	1639	6	5	antiphase_hc_osi.wav	2	6	6	noise_calib_stim_RIGHT.wav	2	18	blb_dichoticlistening_ga-ta.mp3	ga	ta	1	other
6.6.1	win	2023-06-02	08:41:03	09:02:48	1298100	5ee232f2b970662cfa352567	4	1	DL_practice	21	DL_practice	9	stimuli_distractor_diamondtriangles.svg	stimuli_target_squaretriangles.svg	15	yes	pa	1	1822	6	5	antiphase_hc_osi.wav	2	6	6	noise_calib_stim_RIGHT.wav	2	29	blb_dichoticlistening_pa-pa.mp3	pa	pa	0	left
6.6.1	win	2023-06-02	08:41:03	09:02:48	1298100	5ee232f2b970662cfa352567	4	1	DL_practice	21	DL_practice	10	stimuli_distractor_diamondtriangles.svg	stimuli_target_squaretriangles.svg	15	yes	ka	1	935	6	5	antiphase_hc_osi.wav	2	6	6	noise_calib_stim_RIGHT.wav	2	22	blb_dichoticlistening_ka-ka.mp3	ka	ka	0	left
6.6.1	win	2023-06-02	08:41:03	09:02:48	1298100	5ee232f2b970662cfa352567	4	1	DL_test	23	DL_test	1	stimuli_distractor_diamondtriangles.svg	stimuli_target_squaretriangles.svg	15	yes	ba	1	2274	6	5	antiphase_hc_osi.wav	2	6	6	noise_calib_stim_RIGHT.wav	2	2	blb_dichoticlistening_ba-da.mp3	ba	da	1	left
6.6.1	win	2023-06-02	08:41:03	09:02:48	1298100	5ee232f2b970662cfa352567	4	1	DL_test	23	DL_test	2	stimuli_distractor_diamondtriangles.svg	stimuli_target_squaretriangles.svg	15	yes	ka	1	1528	6	5	antiphase_hc_osi.wav	2	6	6	noise_calib_stim_RIGHT.wav	2	22	blb_dichoticlistening_ka-ka.mp3	ka	ka	0	left
6.6.1	win	2023-06-02	08:41:03	09:02:48	1298100	5ee232f2b970662cfa352567	4	1	DL_test	23	DL_test	3	stimuli_distractor_diamondtriangles.svg	stimuli_target_squaretriangles.svg	15	yes	ka	0	1827	6	5	antiphase_hc_osi.wav	2	6	6	noise_calib_stim_RIGHT.wav	2	18	blb_dichoticlistening_ga-ta.mp3	ga	ta	1	other
6.6.1	win	2023-06-02	08:41:03	09:02:48	1298100	5ee232f2b970662cfa352567	4	1	DL_test	23	DL_test	4	stimuli_distractor_diamondtriangles.svg	stimuli_target_squaretriangles.svg	15	yes	pa	1	1295	6	5	antiphase_hc_osi.wav	2	6	6	noise_calib_stim_RIGHT.wav	2	29	blb_dichoticlistening_pa-pa.mp3	pa	pa	0	left
6.6.1	win	2023-06-02	08:41:03	09:02:48	1298100	5ee232f2b970662cfa352567	4	1	DL_test	23	DL_test	5	stimuli_distractor_diamondtriangles.svg	stimuli_target_squaretriangles.svg	15	yes	da	1	1536	6	5	antiphase_hc_osi.wav	2	6	6	noise_calib_stim_RIGHT.wav	2	26	blb_dichoticlistening_pa-da.mp3	pa	da	1	right
6.6.1	win	2023-06-02	08:41:03	09:02:48	1298100	5ee232f2b970662cfa352567	4	1	DL_test	23	DL_test	6	stimuli_distractor_diamondtriangles.svg	stimuli_target_squaretriangles.svg	15	yes	ka	1	1880	6	5	antiphase_hc_osi.wav	2	6	6	noise_calib_stim_RIGHT.wav	2	23	blb_dichoticlistening_ka-pa.mp3	ka	pa	1	left
6.6.1	win	2023-06-02	08:41:03	09:02:48	1298100	5ee232f2b970662cfa352567	4	1	DL_test	23	DL_test	7	stimuli_distractor_diamondtriangles.svg	stimuli_target_squaretriangles.svg	15	yes	ga	1	1381	6	5	antiphase_hc_osi.wav	2	6	6	noise_calib_stim_RIGHT.wav	2	21	blb_dichoticlistening_ka-ga.mp3	ka	ga	1	right
6.6.1	win	2023-06-02	08:41:03	09:02:48	1298100	5ee232f2b970662cfa352567	4	1	DL_test	23	DL_test	8	stimuli_distractor_diamondtriangles.svg	stimuli_target_squaretriangles.svg	15	yes	ta	1	1403	6	5	antiphase_hc_osi.wav	2	6	6	noise_calib_stim_RIGHT.wav	2	6	blb_dichoticlistening_ba-ta.mp3	ba	ta	1	right
6.6.1	win	2023-06-02	08:41:03	09:02:48	1298100	5ee232f2b970662cfa352567	4	1	DL_test	23	DL_test	9	stimuli_distractor_diamondtriangles.svg	stimuli_target_squaretriangles.svg	15	yes	ba	1	2520	6	5	antiphase_hc_osi.wav	2	6	6	noise_calib_stim_RIGHT.wav	2	19	blb_dichoticlistening_ka-ba.mp3	ka	ba	1	right
6.6.1	win	2023-06-02	08:41:03	09:02:48	1298100	5ee232f2b970662cfa352567	4	1	DL_test	23	DL_test	10	stimuli_distractor_diamondtriangles.svg	stimuli_target_squaretriangles.svg	15	yes	ba	1	1079	6	5	antiphase_hc_osi.wav	2	6	6	noise_calib_stim_RIGHT.wav	2	1	blb_dichoticlistening_ba-ba.mp3	ba	ba	0	left
6.6.1	win	2023-06-02	08:41:03	09:02:48	1298100	5ee232f2b970662cfa352567	4	1	DL_test	23	DL_test	11	stimuli_distractor_diamondtriangles.svg	stimuli_target_squaretriangles.svg	15	yes	pa	1	1844	6	5	antiphase_hc_osi.wav	2	6	6	noise_calib_stim_RIGHT.wav	2	5	blb_dichoticlistening_ba-pa.mp3	ba	pa	1	right
6.6.1	win	2023-06-02	08:41:03	09:02:48	1298100	5ee232f2b970662cfa352567	4	1	DL_test	23	DL_test	12	stimuli_distractor_diamondtriangles.svg	stimuli_target_squaretriangles.svg	15	yes	pa	1	1834	6	5	antiphase_hc_osi.wav	2	6	6	noise_calib_stim_RIGHT.wav	2	28	blb_dichoticlistening_pa-ka.mp3	pa	ka	1	left
6.6.1	win	2023-06-02	08:41:03	09:02:48	1298100	5ee232f2b970662cfa352567	4	1	DL_test	23	DL_test	13	stimuli_distractor_diamondtriangles.svg	stimuli_target_squaretriangles.svg	15	yes	ka	1	1319	6	5	antiphase_hc_osi.wav	2	6	6	noise_calib_stim_RIGHT.wav	2	34	blb_dichoticlistening_ta-ka.mp3	ta	ka	1	right
6.6.1	win	2023-06-02	08:41:03	09:02:48	1298100	5ee232f2b970662cfa352567	4	1	DL_test	23	DL_test	14	stimuli_distractor_diamondtriangles.svg	stimuli_target_squaretriangles.svg	15	yes	ga	1	1556	6	5	antiphase_hc_osi.wav	2	6	6	noise_calib_stim_RIGHT.wav	2	33	blb_dichoticlistening_ta-ga.mp3	ta	ga	1	right
6.6.1	win	2023-06-02	08:41:03	09:02:48	1298100	5ee232f2b970662cfa352567	4	1	DL_test	23	DL_test	15	stimuli_distractor_diamondtriangles.svg	stimuli_target_squaretriangles.svg	15	yes	ba	1	2026	6	5	antiphase_hc_osi.wav	2	6	6	noise_calib_stim_RIGHT.wav	2	13	blb_dichoticlistening_ga-ba.mp3	ga	ba	1	right
6.6.1	win	2023-06-02	08:41:03	09:02:48	1298100	5ee232f2b970662cfa352567	4	1	DL_test	23	DL_test	16	stimuli_distractor_diamondtriangles.svg	stimuli_target_squaretriangles.svg	15	yes	ga	1	1562	6	5	antiphase_hc_osi.wav	2	6	6	noise_calib_stim_RIGHT.wav	2	27	blb_dichoticlistening_pa-ga.mp3	pa	ga	1	right
6.6.1	win	2023-06-02	08:41:03	09:02:48	1298100	5ee232f2b970662cfa352567	4	1	DL_test	23	DL_test	17	stimuli_distractor_diamondtriangles.svg	stimuli_target_squaretriangles.svg	15	yes	ta	1	1663	6	5	antiphase_hc_osi.wav	2	6	6	noise_calib_stim_RIGHT.wav	2	12	blb_dichoticlistening_da-ta.mp3	da	ta	1	right
6.6.1	win	2023-06-02	08:41:03	09:02:48	1298100	5ee232f2b970662cfa352567	4	1	DL_test	23	DL_test	18	stimuli_distractor_diamondtriangles.svg	stimuli_target_squaretriangles.svg	15	yes	ga	0	1898	6	5	antiphase_hc_osi.wav	2	6	6	noise_calib_stim_RIGHT.wav	2	10	blb_dichoticlistening_da-ka.mp3	da	ka	1	other
6.6.1	win	2023-06-02	08:41:03	09:02:48	1298100	5ee232f2b970662cfa352567	4	1	DL_test	23	DL_test	19	stimuli_distractor_diamondtriangles.svg	stimuli_target_squaretriangles.svg	15	yes	ta	1	2084	6	5	antiphase_hc_osi.wav	2	6	6	noise_calib_stim_RIGHT.wav	2	35	blb_dichoticlistening_ta-pa.mp3	ta	pa	1	left
6.6.1	win	2023-06-02	08:41:03	09:02:48	1298100	5ee232f2b970662cfa352567	4	1	DL_test	23	DL_test	20	stimuli_distractor_diamondtriangles.svg	stimuli_target_squaretriangles.svg	15	yes	ba	1	2444	6	5	antiphase_hc_osi.wav	2	6	6	noise_calib_stim_RIGHT.wav	2	25	blb_dichoticlistening_pa-ba.mp3	pa	ba	1	right
6.6.1	win	2023-06-02	08:41:03	09:02:48	1298100	5ee232f2b970662cfa352567	4	1	DL_test	23	DL_test	21	stimuli_distractor_diamondtriangles.svg	stimuli_target_squaretriangles.svg	15	yes	ta	1	1599	6	5	antiphase_hc_osi.wav	2	6	6	noise_calib_stim_RIGHT.wav	2	30	blb_dichoticlistening_pa-ta.mp3	pa	ta	1	right
6.6.1	win	2023-06-02	08:41:03	09:02:48	1298100	5ee232f2b970662cfa352567	4	1	DL_test	23	DL_test	22	stimuli_distractor_diamondtriangles.svg	stimuli_target_squaretriangles.svg	15	yes	ka	1	1619	6	5	antiphase_hc_osi.wav	2	6	6	noise_calib_stim_RIGHT.wav	2	16	blb_dichoticlistening_ga-ka.mp3	ga	ka	1	right
6.6.1	win	2023-06-02	08:41:03	09:02:48	1298100	5ee232f2b970662cfa352567	4	1	DL_test	23	DL_test	23	stimuli_distractor_diamondtriangles.svg	stimuli_target_squaretriangles.svg	15	yes	da	1	1790	6	5	antiphase_hc_osi.wav	2	6	6	noise_calib_stim_RIGHT.wav	2	8	blb_dichoticlistening_da-da.mp3	da	da	0	left
6.6.1	win	2023-06-02	08:41:03	09:02:48	1298100	5ee232f2b970662cfa352567	4	1	DL_test	23	DL_test	24	stimuli_distractor_diamondtriangles.svg	stimuli_target_squaretriangles.svg	15	yes	da	1	1229	6	5	antiphase_hc_osi.wav	2	6	6	noise_calib_stim_RIGHT.wav	2	32	blb_dichoticlistening_ta-da.mp3	ta	da	1	right
6.6.1	win	2023-06-02	08:41:03	09:02:48	1298100	5ee232f2b970662cfa352567	4	1	DL_test	23	DL_test	25	stimuli_distractor_diamondtriangles.svg	stimuli_target_squaretriangles.svg	15	yes	pa	1	1589	6	5	antiphase_hc_osi.wav	2	6	6	noise_calib_stim_RIGHT.wav	2	17	blb_dichoticlistening_ga-pa.mp3	ga	pa	1	right
