build	computer.platform	date	time	timestamp	time_elapsed_ms	subject	group	session	blockcode	blocknum	trialcode	trialnum	stimulus_left	stimulus_right	stim_index	target_present	response	correct	latency	headphonecheck_countTestTrials	headphonecheck_index	headphonecheck_testSound	headphonecheck_correctResponse	stereocheck_countTestTrials	stereocheck_index	stereocheck_testSound	stereocheck_correctResponse	DL_index	DL_soundfile	DL_leftSound	DL_rightSound	DL_dualSound	DL_choice
6.6.1	mac	2023-06-26	22:49:36	22:54:33	292784	5ab65c67f69e940001d8e06c	3	1	practice_slash	5	practice_slash	1	stimuli_distractor_trianglediamonds.svg	stimuli_distractor_trianglediamonds.svg	15	no	0	1	2000	0	0			0	0			1				0	
6.6.1	mac	2023-06-26	22:49:36	22:54:33	292784	5ab65c67f69e940001d8e06c	3	1	practice_slash	5	advance_on_keypress_SLASH	2	stimuli_distractor_trianglediamonds.svg	stimuli_distractor_trianglediamonds.svg	15	no	57	0	8717	0	0			0	0			1				0	
6.6.1	mac	2023-06-26	22:49:36	22:54:45	305150	5ab65c67f69e940001d8e06c	3	1	practice_slash	5	practice_slash	3	stimuli_distractor_diamondtriangles.svg	stimuli_distractor_trianglediamonds.svg	14	no	0	1	2000	0	0			0	0			1				0	
6.6.1	mac	2023-06-26	22:49:36	22:54:45	305150	5ab65c67f69e940001d8e06c	3	1	practice_slash	5	advance_on_keypress_SLASH	4	stimuli_distractor_diamondtriangles.svg	stimuli_distractor_trianglediamonds.svg	14	no	57	0	7214	0	0			0	0			1				0	
6.6.1	mac	2023-06-26	22:49:36	22:54:55	314585	5ab65c67f69e940001d8e06c	3	1	practice_slash	5	practice_slash	5	stimuli_distractor_diamondtriangles.svg	stimuli_target_trianglerectangles.svg	9	yes	53	1	583	0	0			0	0			1				0	
6.6.1	mac	2023-06-26	22:49:36	22:54:55	314585	5ab65c67f69e940001d8e06c	3	1	practice_slash	5	advance_on_keypress_SLASH	6	stimuli_distractor_diamondtriangles.svg	stimuli_target_trianglerectangles.svg	9	yes	57	0	604	0	0			0	0			1				0	
6.6.1	mac	2023-06-26	22:49:36	22:54:58	317252	5ab65c67f69e940001d8e06c	3	1	practice_slash	5	practice_slash	7	stimuli_target_rectanglediamonds.svg	stimuli_distractor_diamondtriangles.svg	1	yes	53	1	416	0	0			0	0			1				0	
6.6.1	mac	2023-06-26	22:49:36	22:54:58	317252	5ab65c67f69e940001d8e06c	3	1	practice_slash	5	advance_on_keypress_SLASH	8	stimuli_target_rectanglediamonds.svg	stimuli_distractor_diamondtriangles.svg	1	yes	57	0	624	0	0			0	0			1				0	
6.6.1	mac	2023-06-26	22:49:36	22:55:00	319949	5ab65c67f69e940001d8e06c	3	1	practice_slash	5	practice_slash	9	stimuli_target_squarediamonds.svg	stimuli_distractor_trianglediamonds.svg	5	yes	53	1	431	0	0			0	0			1				0	
6.6.1	mac	2023-06-26	22:49:36	22:55:00	319949	5ab65c67f69e940001d8e06c	3	1	practice_slash	5	advance_on_keypress_SLASH	10	stimuli_target_squarediamonds.svg	stimuli_distractor_trianglediamonds.svg	5	yes	57	0	605	0	0			0	0			1				0	
6.6.1	mac	2023-06-26	22:49:36	22:55:05	324186	5ab65c67f69e940001d8e06c	3	1	practice_slash	5	practice_slash	11	stimuli_distractor_trianglediamonds.svg	stimuli_distractor_diamondtriangles.svg	16	no	0	1	2000	0	0			0	0			1				0	
6.6.1	mac	2023-06-26	22:49:36	22:55:05	324186	5ab65c67f69e940001d8e06c	3	1	practice_slash	5	advance_on_keypress_SLASH	12	stimuli_distractor_trianglediamonds.svg	stimuli_distractor_diamondtriangles.svg	16	no	57	0	3059	0	0			0	0			1				0	
6.6.1	mac	2023-06-26	22:49:36	22:55:10	329362	5ab65c67f69e940001d8e06c	3	1	practice_slash	5	practice_slash	13	stimuli_distractor_diamondtriangles.svg	stimuli_target_rectangletriangles.svg	7	yes	53	1	476	0	0			0	0			1				0	
6.6.1	mac	2023-06-26	22:49:36	22:55:10	329362	5ab65c67f69e940001d8e06c	3	1	practice_slash	5	advance_on_keypress_SLASH	14	stimuli_distractor_diamondtriangles.svg	stimuli_target_rectangletriangles.svg	7	yes	57	0	673	0	0			0	0			1				0	
6.6.1	mac	2023-06-26	22:49:36	22:55:14	333685	5ab65c67f69e940001d8e06c	3	1	practice_slash	5	practice_slash	15	stimuli_distractor_diamondtriangles.svg	stimuli_distractor_diamondtriangles.svg	13	no	0	1	2000	0	0			0	0			1				0	
6.6.1	mac	2023-06-26	22:49:36	22:55:14	333685	5ab65c67f69e940001d8e06c	3	1	practice_slash	5	advance_on_keypress_SLASH	16	stimuli_distractor_diamondtriangles.svg	stimuli_distractor_diamondtriangles.svg	13	no	57	0	779	0	0			0	0			1				0	
6.6.1	mac	2023-06-26	22:49:36	22:55:17	336831	5ab65c67f69e940001d8e06c	3	1	practice_slash	5	practice_slash	17	stimuli_target_diamondsquares.svg	stimuli_distractor_trianglediamonds.svg	6	yes	53	1	729	0	0			0	0			1				0	
6.6.1	mac	2023-06-26	22:49:36	22:55:17	336831	5ab65c67f69e940001d8e06c	3	1	practice_slash	5	advance_on_keypress_SLASH	18	stimuli_target_diamondsquares.svg	stimuli_distractor_trianglediamonds.svg	6	yes	57	0	1238	0	0			0	0			1				0	
6.6.1	mac	2023-06-26	22:49:36	22:55:21	340284	5ab65c67f69e940001d8e06c	3	1	practice_slash	5	practice_slash	19	stimuli_target_rectanglediamonds.svg	stimuli_distractor_trianglediamonds.svg	4	yes	53	1	582	0	0			0	0			1				0	
6.6.1	mac	2023-06-26	22:49:36	22:55:21	340284	5ab65c67f69e940001d8e06c	3	1	practice_slash	5	advance_on_keypress_SLASH	20	stimuli_target_rectanglediamonds.svg	stimuli_distractor_trianglediamonds.svg	4	yes	57	0	675	0	0			0	0			1				0	
6.6.1	mac	2023-06-26	22:49:36	22:55:23	343064	5ab65c67f69e940001d8e06c	3	1	practice_slash	5	practice_slash	21	stimuli_target_squarediamonds.svg	stimuli_distractor_diamondtriangles.svg	2	yes	53	1	478	0	0			0	0			1				0	
6.6.1	mac	2023-06-26	22:49:36	22:55:23	343064	5ab65c67f69e940001d8e06c	3	1	practice_slash	5	advance_on_keypress_SLASH	22	stimuli_target_squarediamonds.svg	stimuli_distractor_diamondtriangles.svg	2	yes	57	0	599	0	0			0	0			1				0	
6.6.1	mac	2023-06-26	22:49:36	22:55:26	346010	5ab65c67f69e940001d8e06c	3	1	practice_slash	5	practice_slash	23	stimuli_distractor_diamondtriangles.svg	stimuli_target_diamondrectangles.svg	8	yes	53	1	707	0	0			0	0			1				0	
6.6.1	mac	2023-06-26	22:49:36	22:55:26	346010	5ab65c67f69e940001d8e06c	3	1	practice_slash	5	advance_on_keypress_SLASH	24	stimuli_distractor_diamondtriangles.svg	stimuli_target_diamondrectangles.svg	8	yes	57	0	262	0	0			0	0			1				0	
6.6.1	mac	2023-06-26	22:49:36	22:55:29	348407	5ab65c67f69e940001d8e06c	3	1	practice_slash	5	practice_slash	25	stimuli_distractor_trianglediamonds.svg	stimuli_target_squarediamonds.svg	11	yes	53	1	489	0	0			0	0			1				0	
6.6.1	mac	2023-06-26	22:49:36	22:55:29	348407	5ab65c67f69e940001d8e06c	3	1	practice_slash	5	advance_on_keypress_SLASH	26	stimuli_distractor_trianglediamonds.svg	stimuli_target_squarediamonds.svg	11	yes	57	0	418	0	0			0	0			1				0	
6.6.1	mac	2023-06-26	22:49:36	22:55:31	350945	5ab65c67f69e940001d8e06c	3	1	practice_slash	5	practice_slash	27	stimuli_distractor_trianglediamonds.svg	stimuli_target_rectanglediamonds.svg	10	yes	53	1	491	0	0			0	0			1				0	
6.6.1	mac	2023-06-26	22:49:36	22:55:31	350945	5ab65c67f69e940001d8e06c	3	1	practice_slash	5	advance_on_keypress_SLASH	28	stimuli_distractor_trianglediamonds.svg	stimuli_target_rectanglediamonds.svg	10	yes	57	0	373	0	0			0	0			1				0	
6.6.1	mac	2023-06-26	22:49:36	22:55:35	354434	5ab65c67f69e940001d8e06c	3	1	practice_slash	5	practice_slash	29	stimuli_target_diamondsquares.svg	stimuli_distractor_diamondtriangles.svg	3	yes	53	1	1466	0	0			0	0			1				0	
6.6.1	mac	2023-06-26	22:49:36	22:55:35	354434	5ab65c67f69e940001d8e06c	3	1	practice_slash	5	advance_on_keypress_SLASH	30	stimuli_target_diamondsquares.svg	stimuli_distractor_diamondtriangles.svg	3	yes	57	0	394	0	0			0	0			1				0	
6.6.1	mac	2023-06-26	22:49:36	22:55:38	357162	5ab65c67f69e940001d8e06c	3	1	practice_slash	5	practice_slash	31	stimuli_distractor_trianglediamonds.svg	stimuli_target_diamondrectangles.svg	12	yes	53	1	694	0	0			0	0			1				0	
6.6.1	mac	2023-06-26	22:49:36	22:55:38	357162	5ab65c67f69e940001d8e06c	3	1	practice_slash	5	advance_on_keypress_SLASH	32	stimuli_distractor_trianglediamonds.svg	stimuli_target_diamondrectangles.svg	12	yes	57	0	300	0	0			0	0			1				0	
6.6.1	mac	2023-06-26	22:49:36	22:56:16	395902	5ab65c67f69e940001d8e06c	3	1	main_slash	7	main_slash	1	stimuli_distractor_trianglediamonds.svg	stimuli_target_diamondrectangles.svg	27	yes	53	1	418	0	0			0	0			1				0	
6.6.1	mac	2023-06-26	22:49:36	22:56:16	395902	5ab65c67f69e940001d8e06c	3	1	main_slash	7	advance_on_keypress_SLASH	2	stimuli_distractor_trianglediamonds.svg	stimuli_target_diamondrectangles.svg	27	yes	57	0	2401	0	0			0	0			1				0	
6.6.1	mac	2023-06-26	22:49:36	22:56:20	399270	5ab65c67f69e940001d8e06c	3	1	main_slash	7	main_slash	3	stimuli_target_diamondsquares.svg	stimuli_distractor_diamondtriangles.svg	24	yes	53	1	336	0	0			0	0			1				0	
6.6.1	mac	2023-06-26	22:49:36	22:56:20	399270	5ab65c67f69e940001d8e06c	3	1	main_slash	7	advance_on_keypress_SLASH	4	stimuli_target_diamondsquares.svg	stimuli_distractor_diamondtriangles.svg	24	yes	57	0	861	0	0			0	0			1				0	
6.6.1	mac	2023-06-26	22:49:36	22:56:22	401502	5ab65c67f69e940001d8e06c	3	1	main_slash	7	main_slash	5	stimuli_distractor_diamondtriangles.svg	stimuli_distractor_diamondtriangles.svg	39	no	53	0	736	0	0			0	0			1				0	
6.6.1	mac	2023-06-26	22:49:36	22:56:22	401502	5ab65c67f69e940001d8e06c	3	1	main_slash	7	advance_on_keypress_SLASH	6	stimuli_distractor_diamondtriangles.svg	stimuli_distractor_diamondtriangles.svg	39	no	57	0	1454	0	0			0	0			1				0	
6.6.1	mac	2023-06-26	22:49:36	22:56:26	405583	5ab65c67f69e940001d8e06c	3	1	main_slash	7	main_slash	7	stimuli_distractor_trianglediamonds.svg	stimuli_distractor_diamondtriangles.svg	35	no	0	1	2000	0	0			0	0			1				0	
6.6.1	mac	2023-06-26	22:49:36	22:56:26	405583	5ab65c67f69e940001d8e06c	3	1	main_slash	7	advance_on_keypress_SLASH	8	stimuli_distractor_trianglediamonds.svg	stimuli_distractor_diamondtriangles.svg	35	no	57	0	1853	0	0			0	0			1				0	
6.6.1	mac	2023-06-26	22:49:36	22:56:29	408683	5ab65c67f69e940001d8e06c	3	1	main_slash	7	main_slash	9	stimuli_target_trianglesquares.svg	stimuli_distractor_trianglediamonds.svg	18	yes	53	1	616	0	0			0	0			1				0	
6.6.1	mac	2023-06-26	22:49:36	22:56:29	408683	5ab65c67f69e940001d8e06c	3	1	main_slash	7	advance_on_keypress_SLASH	10	stimuli_target_trianglesquares.svg	stimuli_distractor_trianglediamonds.svg	18	yes	57	0	1110	0	0			0	0			1				0	
6.6.1	mac	2023-06-26	22:49:36	22:56:32	411357	5ab65c67f69e940001d8e06c	3	1	main_slash	7	main_slash	11	stimuli_distractor_diamondtriangles.svg	stimuli_target_diamondrectangles.svg	31	yes	53	1	923	0	0			0	0			1				0	
6.6.1	mac	2023-06-26	22:49:36	22:56:32	411357	5ab65c67f69e940001d8e06c	3	1	main_slash	7	advance_on_keypress_SLASH	12	stimuli_distractor_diamondtriangles.svg	stimuli_target_diamondrectangles.svg	31	yes	57	0	1056	0	0			0	0			1				0	
6.6.1	mac	2023-06-26	22:49:36	22:56:34	413739	5ab65c67f69e940001d8e06c	3	1	main_slash	7	main_slash	13	stimuli_distractor_trianglediamonds.svg	stimuli_target_trianglesquares.svg	26	yes	53	1	705	0	0			0	0			1				0	
6.6.1	mac	2023-06-26	22:49:36	22:56:34	413739	5ab65c67f69e940001d8e06c	3	1	main_slash	7	advance_on_keypress_SLASH	14	stimuli_distractor_trianglediamonds.svg	stimuli_target_trianglesquares.svg	26	yes	57	0	815	0	0			0	0			1				0	
6.6.1	mac	2023-06-26	22:49:36	22:56:36	415773	5ab65c67f69e940001d8e06c	3	1	main_slash	7	main_slash	15	stimuli_target_diamondrectangles.svg	stimuli_distractor_diamondtriangles.svg	23	yes	53	1	589	0	0			0	0			1				0	
6.6.1	mac	2023-06-26	22:49:36	22:56:36	415773	5ab65c67f69e940001d8e06c	3	1	main_slash	7	advance_on_keypress_SLASH	16	stimuli_target_diamondrectangles.svg	stimuli_distractor_diamondtriangles.svg	23	yes	57	0	728	0	0			0	0			1				0	
6.6.1	mac	2023-06-26	22:49:36	22:56:39	419133	5ab65c67f69e940001d8e06c	3	1	main_slash	7	main_slash	17	stimuli_target_rectanglediamonds.svg	stimuli_distractor_diamondtriangles.svg	6	yes	0	0	2000	0	0			0	0			1				0	
6.6.1	mac	2023-06-26	22:49:36	22:56:39	419133	5ab65c67f69e940001d8e06c	3	1	main_slash	7	advance_on_keypress_SLASH	18	stimuli_target_rectanglediamonds.svg	stimuli_distractor_diamondtriangles.svg	6	yes	57	0	11788	0	0			0	0			1				0	
6.6.1	mac	2023-06-26	22:49:36	22:56:52	432103	5ab65c67f69e940001d8e06c	3	1	main_slash	7	main_slash	19	stimuli_target_trianglerectangles.svg	stimuli_distractor_diamondtriangles.svg	21	yes	53	1	536	0	0			0	0			1				0	
6.6.1	mac	2023-06-26	22:49:36	22:56:52	432103	5ab65c67f69e940001d8e06c	3	1	main_slash	7	advance_on_keypress_SLASH	20	stimuli_target_trianglerectangles.svg	stimuli_distractor_diamondtriangles.svg	21	yes	57	0	10309	0	0			0	0			1				0	
6.6.1	mac	2023-06-26	22:49:36	22:57:04	443485	5ab65c67f69e940001d8e06c	3	1	main_slash	7	main_slash	21	stimuli_target_rectanglediamonds.svg	stimuli_distractor_trianglediamonds.svg	2	yes	53	1	434	0	0			0	0			1				0	
6.6.1	mac	2023-06-26	22:49:36	22:57:04	443485	5ab65c67f69e940001d8e06c	3	1	main_slash	7	advance_on_keypress_SLASH	22	stimuli_target_rectanglediamonds.svg	stimuli_distractor_trianglediamonds.svg	2	yes	57	0	1729	0	0			0	0			1				0	
6.6.1	mac	2023-06-26	22:49:36	22:57:07	446367	5ab65c67f69e940001d8e06c	3	1	main_slash	7	main_slash	23	stimuli_distractor_trianglediamonds.svg	stimuli_target_squarediamonds.svg	12	yes	53	1	517	0	0			0	0			1				0	
6.6.1	mac	2023-06-26	22:49:36	22:57:07	446367	5ab65c67f69e940001d8e06c	3	1	main_slash	7	advance_on_keypress_SLASH	24	stimuli_distractor_trianglediamonds.svg	stimuli_target_squarediamonds.svg	12	yes	57	0	769	0	0			0	0			1				0	
6.6.1	mac	2023-06-26	22:49:36	22:57:10	449765	5ab65c67f69e940001d8e06c	3	1	main_slash	7	main_slash	25	stimuli_distractor_trianglediamonds.svg	stimuli_distractor_trianglediamonds.svg	34	no	0	1	2000	0	0			0	0			1				0	
6.6.1	mac	2023-06-26	22:49:36	22:57:10	449765	5ab65c67f69e940001d8e06c	3	1	main_slash	7	advance_on_keypress_SLASH	26	stimuli_distractor_trianglediamonds.svg	stimuli_distractor_trianglediamonds.svg	34	no	57	0	443	0	0			0	0			1				0	
6.6.1	mac	2023-06-26	22:49:36	22:57:13	452849	5ab65c67f69e940001d8e06c	3	1	main_slash	7	main_slash	27	stimuli_distractor_trianglediamonds.svg	stimuli_distractor_trianglediamonds.svg	33	no	0	1	2000	0	0			0	0			1				0	
6.6.1	mac	2023-06-26	22:49:36	22:57:13	452849	5ab65c67f69e940001d8e06c	3	1	main_slash	7	advance_on_keypress_SLASH	28	stimuli_distractor_trianglediamonds.svg	stimuli_distractor_trianglediamonds.svg	33	no	57	0	465	0	0			0	0			1				0	
6.6.1	mac	2023-06-26	22:49:36	22:57:15	454450	5ab65c67f69e940001d8e06c	3	1	main_slash	7	main_slash	29	stimuli_distractor_trianglediamonds.svg	stimuli_target_rectangletriangles.svg	9	yes	53	1	498	0	0			0	0			1				0	
6.6.1	mac	2023-06-26	22:49:36	22:57:15	454450	5ab65c67f69e940001d8e06c	3	1	main_slash	7	advance_on_keypress_SLASH	30	stimuli_distractor_trianglediamonds.svg	stimuli_target_rectangletriangles.svg	9	yes	57	0	3855	0	0			0	0			1				0	
6.6.1	mac	2023-06-26	22:49:36	22:57:21	460933	5ab65c67f69e940001d8e06c	3	1	main_slash	7	main_slash	31	stimuli_distractor_diamondtriangles.svg	stimuli_distractor_diamondtriangles.svg	40	no	0	1	2000	0	0			0	0			1				0	
6.6.1	mac	2023-06-26	22:49:36	22:57:21	460933	5ab65c67f69e940001d8e06c	3	1	main_slash	7	advance_on_keypress_SLASH	32	stimuli_distractor_diamondtriangles.svg	stimuli_distractor_diamondtriangles.svg	40	no	57	0	310	0	0			0	0			1				0	
6.6.1	mac	2023-06-26	22:49:36	22:57:23	462520	5ab65c67f69e940001d8e06c	3	1	main_slash	7	main_slash	33	stimuli_target_trianglesquares.svg	stimuli_distractor_diamondtriangles.svg	22	yes	53	1	636	0	0			0	0			1				0	
6.6.1	mac	2023-06-26	22:49:36	22:57:23	462520	5ab65c67f69e940001d8e06c	3	1	main_slash	7	advance_on_keypress_SLASH	34	stimuli_target_trianglesquares.svg	stimuli_distractor_diamondtriangles.svg	22	yes	57	0	1189	0	0			0	0			1				0	
6.6.1	mac	2023-06-26	22:49:36	22:57:26	465184	5ab65c67f69e940001d8e06c	3	1	main_slash	7	main_slash	35	stimuli_distractor_diamondtriangles.svg	stimuli_target_diamondsquares.svg	32	yes	53	1	850	0	0			0	0			1				0	
6.6.1	mac	2023-06-26	22:49:36	22:57:26	465184	5ab65c67f69e940001d8e06c	3	1	main_slash	7	advance_on_keypress_SLASH	36	stimuli_distractor_diamondtriangles.svg	stimuli_target_diamondsquares.svg	32	yes	57	0	613	0	0			0	0			1				0	
6.6.1	mac	2023-06-26	22:49:36	22:57:27	467049	5ab65c67f69e940001d8e06c	3	1	main_slash	7	main_slash	37	stimuli_target_diamondrectangles.svg	stimuli_distractor_trianglediamonds.svg	19	yes	53	1	615	0	0			0	0			1				0	
6.6.1	mac	2023-06-26	22:49:36	22:57:27	467049	5ab65c67f69e940001d8e06c	3	1	main_slash	7	advance_on_keypress_SLASH	38	stimuli_target_diamondrectangles.svg	stimuli_distractor_trianglediamonds.svg	19	yes	57	0	678	0	0			0	0			1				0	
6.6.1	mac	2023-06-26	22:49:36	22:57:31	470366	5ab65c67f69e940001d8e06c	3	1	main_slash	7	main_slash	39	stimuli_distractor_trianglediamonds.svg	stimuli_target_trianglerectangles.svg	25	yes	0	0	2000	0	0			0	0			1				0	
6.6.1	mac	2023-06-26	22:49:36	22:57:31	470366	5ab65c67f69e940001d8e06c	3	1	main_slash	7	advance_on_keypress_SLASH	40	stimuli_distractor_trianglediamonds.svg	stimuli_target_trianglerectangles.svg	25	yes	57	0	307	0	0			0	0			1				0	
6.6.1	mac	2023-06-26	22:49:36	22:57:34	473316	5ab65c67f69e940001d8e06c	3	1	main_slash	7	main_slash	41	stimuli_target_squaretriangles.svg	stimuli_distractor_diamondtriangles.svg	7	yes	0	0	2000	0	0			0	0			1				0	
6.6.1	mac	2023-06-26	22:49:36	22:57:34	473316	5ab65c67f69e940001d8e06c	3	1	main_slash	7	advance_on_keypress_SLASH	42	stimuli_target_squaretriangles.svg	stimuli_distractor_diamondtriangles.svg	7	yes	57	0	309	0	0			0	0			1				0	
6.6.1	mac	2023-06-26	22:49:36	22:57:36	475197	5ab65c67f69e940001d8e06c	3	1	main_slash	7	main_slash	43	stimuli_target_rectangletriangles.svg	stimuli_distractor_diamondtriangles.svg	5	yes	53	1	930	0	0			0	0			1				0	
6.6.1	mac	2023-06-26	22:49:36	22:57:36	475197	5ab65c67f69e940001d8e06c	3	1	main_slash	7	advance_on_keypress_SLASH	44	stimuli_target_rectangletriangles.svg	stimuli_distractor_diamondtriangles.svg	5	yes	57	0	24211	0	0			0	0			1				0	
6.6.1	mac	2023-06-26	22:49:36	22:58:02	501189	5ab65c67f69e940001d8e06c	3	1	main_slash	7	main_slash	45	stimuli_distractor_trianglediamonds.svg	stimuli_target_diamondsquares.svg	28	yes	53	1	1137	0	0			0	0			1				0	
6.6.1	mac	2023-06-26	22:49:36	22:58:02	501189	5ab65c67f69e940001d8e06c	3	1	main_slash	7	advance_on_keypress_SLASH	46	stimuli_distractor_trianglediamonds.svg	stimuli_target_diamondsquares.svg	28	yes	57	0	2969	0	0			0	0			1				0	
6.6.1	mac	2023-06-26	22:49:36	22:58:06	505326	5ab65c67f69e940001d8e06c	3	1	main_slash	7	main_slash	47	stimuli_distractor_diamondtriangles.svg	stimuli_target_squaretriangles.svg	15	yes	53	1	526	0	0			0	0			1				0	
6.6.1	mac	2023-06-26	22:49:36	22:58:06	505326	5ab65c67f69e940001d8e06c	3	1	main_slash	7	advance_on_keypress_SLASH	48	stimuli_distractor_diamondtriangles.svg	stimuli_target_squaretriangles.svg	15	yes	57	0	613	0	0			0	0			1				0	
6.6.1	mac	2023-06-26	22:49:36	22:58:07	507135	5ab65c67f69e940001d8e06c	3	1	main_slash	7	main_slash	49	stimuli_target_squarediamonds.svg	stimuli_distractor_diamondtriangles.svg	8	yes	53	1	551	0	0			0	0			1				0	
6.6.1	mac	2023-06-26	22:49:36	22:58:07	507135	5ab65c67f69e940001d8e06c	3	1	main_slash	7	advance_on_keypress_SLASH	50	stimuli_target_squarediamonds.svg	stimuli_distractor_diamondtriangles.svg	8	yes	57	0	532	0	0			0	0			1				0	
6.6.1	mac	2023-06-26	22:49:36	22:58:09	508817	5ab65c67f69e940001d8e06c	3	1	main_slash	7	main_slash	51	stimuli_distractor_diamondtriangles.svg	stimuli_target_rectanglediamonds.svg	14	yes	53	1	515	0	0			0	0			1				0	
6.6.1	mac	2023-06-26	22:49:36	22:58:09	508817	5ab65c67f69e940001d8e06c	3	1	main_slash	7	advance_on_keypress_SLASH	52	stimuli_distractor_diamondtriangles.svg	stimuli_target_rectanglediamonds.svg	14	yes	57	0	417	0	0			0	0			1				0	
6.6.1	mac	2023-06-26	22:49:36	22:58:12	511866	5ab65c67f69e940001d8e06c	3	1	main_slash	7	main_slash	53	stimuli_distractor_diamondtriangles.svg	stimuli_distractor_trianglediamonds.svg	38	no	0	1	2000	0	0			0	0			1				0	
6.6.1	mac	2023-06-26	22:49:36	22:58:12	511866	5ab65c67f69e940001d8e06c	3	1	main_slash	7	advance_on_keypress_SLASH	54	stimuli_distractor_diamondtriangles.svg	stimuli_distractor_trianglediamonds.svg	38	no	57	0	245	0	0			0	0			1				0	
6.6.1	mac	2023-06-26	22:49:36	22:58:14	513651	5ab65c67f69e940001d8e06c	3	1	main_slash	7	main_slash	55	stimuli_distractor_trianglediamonds.svg	stimuli_target_rectanglediamonds.svg	10	yes	53	1	901	0	0			0	0			1				0	
6.6.1	mac	2023-06-26	22:49:36	22:58:14	513651	5ab65c67f69e940001d8e06c	3	1	main_slash	7	advance_on_keypress_SLASH	56	stimuli_distractor_trianglediamonds.svg	stimuli_target_rectanglediamonds.svg	10	yes	57	0	513	0	0			0	0			1				0	
6.6.1	mac	2023-06-26	22:49:36	22:58:16	515702	5ab65c67f69e940001d8e06c	3	1	main_slash	7	main_slash	57	stimuli_target_trianglerectangles.svg	stimuli_distractor_trianglediamonds.svg	17	yes	53	1	901	0	0			0	0			1				0	
6.6.1	mac	2023-06-26	22:49:36	22:58:16	515702	5ab65c67f69e940001d8e06c	3	1	main_slash	7	advance_on_keypress_SLASH	58	stimuli_target_trianglerectangles.svg	stimuli_distractor_trianglediamonds.svg	17	yes	57	0	475	0	0			0	0			1				0	
6.6.1	mac	2023-06-26	22:49:36	22:58:18	517665	5ab65c67f69e940001d8e06c	3	1	main_slash	7	main_slash	59	stimuli_distractor_diamondtriangles.svg	stimuli_target_rectangletriangles.svg	13	yes	53	1	847	0	0			0	0			1				0	
6.6.1	mac	2023-06-26	22:49:36	22:58:18	517665	5ab65c67f69e940001d8e06c	3	1	main_slash	7	advance_on_keypress_SLASH	60	stimuli_distractor_diamondtriangles.svg	stimuli_target_rectangletriangles.svg	13	yes	57	0	1041	0	0			0	0			1				0	
6.6.1	mac	2023-06-26	22:49:36	22:58:21	520162	5ab65c67f69e940001d8e06c	3	1	main_slash	7	main_slash	61	stimuli_target_squarediamonds.svg	stimuli_distractor_trianglediamonds.svg	4	yes	53	1	828	0	0			0	0			1				0	
6.6.1	mac	2023-06-26	22:49:36	22:58:21	520162	5ab65c67f69e940001d8e06c	3	1	main_slash	7	advance_on_keypress_SLASH	62	stimuli_target_squarediamonds.svg	stimuli_distractor_trianglediamonds.svg	4	yes	57	0	9909	0	0			0	0			1				0	
6.6.1	mac	2023-06-26	22:49:36	22:58:33	532716	5ab65c67f69e940001d8e06c	3	1	main_slash	7	main_slash	63	stimuli_distractor_trianglediamonds.svg	stimuli_distractor_diamondtriangles.svg	36	no	0	1	2000	0	0			0	0			1				0	
6.6.1	mac	2023-06-26	22:49:36	22:58:33	532716	5ab65c67f69e940001d8e06c	3	1	main_slash	7	advance_on_keypress_SLASH	64	stimuli_distractor_trianglediamonds.svg	stimuli_distractor_diamondtriangles.svg	36	no	57	0	684	0	0			0	0			1				0	
6.6.1	mac	2023-06-26	22:49:36	22:58:35	534618	5ab65c67f69e940001d8e06c	3	1	main_slash	7	main_slash	65	stimuli_target_diamondsquares.svg	stimuli_distractor_trianglediamonds.svg	20	yes	53	1	583	0	0			0	0			1				0	
6.6.1	mac	2023-06-26	22:49:36	22:58:35	534618	5ab65c67f69e940001d8e06c	3	1	main_slash	7	advance_on_keypress_SLASH	66	stimuli_target_diamondsquares.svg	stimuli_distractor_trianglediamonds.svg	20	yes	57	0	543	0	0			0	0			1				0	
6.6.1	mac	2023-06-26	22:49:36	22:58:37	536589	5ab65c67f69e940001d8e06c	3	1	main_slash	7	main_slash	67	stimuli_target_rectangletriangles.svg	stimuli_distractor_trianglediamonds.svg	1	yes	53	1	787	0	0			0	0			1				0	
6.6.1	mac	2023-06-26	22:49:36	22:58:37	536589	5ab65c67f69e940001d8e06c	3	1	main_slash	7	advance_on_keypress_SLASH	68	stimuli_target_rectangletriangles.svg	stimuli_distractor_trianglediamonds.svg	1	yes	57	0	553	0	0			0	0			1				0	
6.6.1	mac	2023-06-26	22:49:36	22:58:40	539766	5ab65c67f69e940001d8e06c	3	1	main_slash	7	main_slash	69	stimuli_distractor_diamondtriangles.svg	stimuli_distractor_trianglediamonds.svg	37	no	0	1	2000	0	0			0	0			1				0	
6.6.1	mac	2023-06-26	22:49:36	22:58:40	539766	5ab65c67f69e940001d8e06c	3	1	main_slash	7	advance_on_keypress_SLASH	70	stimuli_distractor_diamondtriangles.svg	stimuli_distractor_trianglediamonds.svg	37	no	57	0	13673	0	0			0	0			1				0	
6.6.1	mac	2023-06-26	22:49:36	22:58:55	554785	5ab65c67f69e940001d8e06c	3	1	main_slash	7	main_slash	71	stimuli_distractor_diamondtriangles.svg	stimuli_target_trianglerectangles.svg	29	yes	53	1	701	0	0			0	0			1				0	
6.6.1	mac	2023-06-26	22:49:36	22:58:55	554785	5ab65c67f69e940001d8e06c	3	1	main_slash	7	advance_on_keypress_SLASH	72	stimuli_distractor_diamondtriangles.svg	stimuli_target_trianglerectangles.svg	29	yes	57	0	518	0	0			0	0			1				0	
6.6.1	mac	2023-06-26	22:49:36	22:58:57	556549	5ab65c67f69e940001d8e06c	3	1	main_slash	7	main_slash	73	stimuli_distractor_diamondtriangles.svg	stimuli_target_trianglesquares.svg	30	yes	53	1	615	0	0			0	0			1				0	
6.6.1	mac	2023-06-26	22:49:36	22:58:57	556549	5ab65c67f69e940001d8e06c	3	1	main_slash	7	advance_on_keypress_SLASH	74	stimuli_distractor_diamondtriangles.svg	stimuli_target_trianglesquares.svg	30	yes	57	0	410	0	0			0	0			1				0	
6.6.1	mac	2023-06-26	22:49:36	22:59:00	559600	5ab65c67f69e940001d8e06c	3	1	main_slash	7	main_slash	75	stimuli_target_squaretriangles.svg	stimuli_distractor_trianglediamonds.svg	3	yes	0	0	2000	0	0			0	0			1				0	
6.6.1	mac	2023-06-26	22:49:36	22:59:00	559600	5ab65c67f69e940001d8e06c	3	1	main_slash	7	advance_on_keypress_SLASH	76	stimuli_target_squaretriangles.svg	stimuli_distractor_trianglediamonds.svg	3	yes	57	0	325	0	0			0	0			1				0	
6.6.1	mac	2023-06-26	22:49:36	22:59:02	561531	5ab65c67f69e940001d8e06c	3	1	main_slash	7	main_slash	77	stimuli_distractor_trianglediamonds.svg	stimuli_target_squaretriangles.svg	11	yes	53	1	963	0	0			0	0			1				0	
6.6.1	mac	2023-06-26	22:49:36	22:59:02	561531	5ab65c67f69e940001d8e06c	3	1	main_slash	7	advance_on_keypress_SLASH	78	stimuli_distractor_trianglediamonds.svg	stimuli_target_squaretriangles.svg	11	yes	57	0	429	0	0			0	0			1				0	
6.6.1	mac	2023-06-26	22:49:36	22:59:03	563093	5ab65c67f69e940001d8e06c	3	1	main_slash	7	main_slash	79	stimuli_distractor_diamondtriangles.svg	stimuli_target_squarediamonds.svg	16	yes	53	1	492	0	0			0	0			1				0	
6.6.1	mac	2023-06-26	22:49:36	22:59:03	563093	5ab65c67f69e940001d8e06c	3	1	main_slash	7	advance_on_keypress_SLASH	80	stimuli_distractor_diamondtriangles.svg	stimuli_target_squarediamonds.svg	16	yes	57	0	319	0	0			0	0			1				0	
6.6.1	mac	2023-06-26	22:49:36	22:59:05	564587	5ab65c67f69e940001d8e06c	3	1	main_slash	7	main_slash	81	stimuli_target_squarediamonds.svg	stimuli_distractor_trianglediamonds.svg	4	yes	53	1	536	0	0			0	0			1				0	
6.6.1	mac	2023-06-26	22:49:36	22:59:05	564587	5ab65c67f69e940001d8e06c	3	1	main_slash	7	advance_on_keypress_SLASH	82	stimuli_target_squarediamonds.svg	stimuli_distractor_trianglediamonds.svg	4	yes	57	0	374	0	0			0	0			1				0	
6.6.1	mac	2023-06-26	22:49:36	22:59:08	567600	5ab65c67f69e940001d8e06c	3	1	main_slash	7	main_slash	83	stimuli_distractor_diamondtriangles.svg	stimuli_distractor_trianglediamonds.svg	38	no	0	1	2000	0	0			0	0			1				0	
6.6.1	mac	2023-06-26	22:49:36	22:59:08	567600	5ab65c67f69e940001d8e06c	3	1	main_slash	7	advance_on_keypress_SLASH	84	stimuli_distractor_diamondtriangles.svg	stimuli_distractor_trianglediamonds.svg	38	no	57	0	296	0	0			0	0			1				0	
6.6.1	mac	2023-06-26	22:49:36	22:59:10	569174	5ab65c67f69e940001d8e06c	3	1	main_slash	7	main_slash	85	stimuli_target_diamondrectangles.svg	stimuli_distractor_diamondtriangles.svg	23	yes	53	1	639	0	0			0	0			1				0	
6.6.1	mac	2023-06-26	22:49:36	22:59:10	569174	5ab65c67f69e940001d8e06c	3	1	main_slash	7	advance_on_keypress_SLASH	86	stimuli_target_diamondrectangles.svg	stimuli_distractor_diamondtriangles.svg	23	yes	57	0	669	0	0			0	0			1				0	
6.6.1	mac	2023-06-26	22:49:36	22:59:12	571272	5ab65c67f69e940001d8e06c	3	1	main_slash	7	main_slash	87	stimuli_target_diamondsquares.svg	stimuli_distractor_diamondtriangles.svg	24	yes	53	1	787	0	0			0	0			1				0	
6.6.1	mac	2023-06-26	22:49:36	22:59:12	571272	5ab65c67f69e940001d8e06c	3	1	main_slash	7	advance_on_keypress_SLASH	88	stimuli_target_diamondsquares.svg	stimuli_distractor_diamondtriangles.svg	24	yes	57	0	11380	0	0			0	0			1				0	
6.6.1	mac	2023-06-26	22:49:36	22:59:24	583747	5ab65c67f69e940001d8e06c	3	1	main_slash	7	main_slash	89	stimuli_distractor_trianglediamonds.svg	stimuli_target_trianglesquares.svg	26	yes	53	1	464	0	0			0	0			1				0	
6.6.1	mac	2023-06-26	22:49:36	22:59:24	583747	5ab65c67f69e940001d8e06c	3	1	main_slash	7	advance_on_keypress_SLASH	90	stimuli_distractor_trianglediamonds.svg	stimuli_target_trianglesquares.svg	26	yes	57	0	707	0	0			0	0			1				0	
6.6.1	mac	2023-06-26	22:49:36	22:59:26	585600	5ab65c67f69e940001d8e06c	3	1	main_slash	7	main_slash	91	stimuli_target_trianglesquares.svg	stimuli_distractor_trianglediamonds.svg	18	yes	53	1	515	0	0			0	0			1				0	
6.6.1	mac	2023-06-26	22:49:36	22:59:26	585600	5ab65c67f69e940001d8e06c	3	1	main_slash	7	advance_on_keypress_SLASH	92	stimuli_target_trianglesquares.svg	stimuli_distractor_trianglediamonds.svg	18	yes	57	0	442	0	0			0	0			1				0	
6.6.1	mac	2023-06-26	22:49:36	22:59:29	588683	5ab65c67f69e940001d8e06c	3	1	main_slash	7	main_slash	93	stimuli_distractor_diamondtriangles.svg	stimuli_distractor_trianglediamonds.svg	37	no	0	1	2000	0	0			0	0			1				0	
6.6.1	mac	2023-06-26	22:49:36	22:59:29	588683	5ab65c67f69e940001d8e06c	3	1	main_slash	7	advance_on_keypress_SLASH	94	stimuli_distractor_diamondtriangles.svg	stimuli_distractor_trianglediamonds.svg	37	no	57	0	260	0	0			0	0			1				0	
6.6.1	mac	2023-06-26	22:49:36	22:59:30	590044	5ab65c67f69e940001d8e06c	3	1	main_slash	7	main_slash	95	stimuli_distractor_trianglediamonds.svg	stimuli_target_diamondrectangles.svg	27	yes	53	1	460	0	0			0	0			1				0	
6.6.1	mac	2023-06-26	22:49:36	22:59:30	590044	5ab65c67f69e940001d8e06c	3	1	main_slash	7	advance_on_keypress_SLASH	96	stimuli_distractor_trianglediamonds.svg	stimuli_target_diamondrectangles.svg	27	yes	57	0	432	0	0			0	0			1				0	
6.6.1	mac	2023-06-26	22:49:36	22:59:32	591755	5ab65c67f69e940001d8e06c	3	1	main_slash	7	main_slash	97	stimuli_distractor_diamondtriangles.svg	stimuli_target_squarediamonds.svg	16	yes	53	1	636	0	0			0	0			1				0	
6.6.1	mac	2023-06-26	22:49:36	22:59:32	591755	5ab65c67f69e940001d8e06c	3	1	main_slash	7	advance_on_keypress_SLASH	98	stimuli_distractor_diamondtriangles.svg	stimuli_target_squarediamonds.svg	16	yes	57	0	435	0	0			0	0			1				0	
6.6.1	mac	2023-06-26	22:49:36	22:59:34	593277	5ab65c67f69e940001d8e06c	3	1	main_slash	7	main_slash	99	stimuli_target_trianglerectangles.svg	stimuli_distractor_trianglediamonds.svg	17	yes	53	1	459	0	0			0	0			1				0	
6.6.1	mac	2023-06-26	22:49:36	22:59:34	593277	5ab65c67f69e940001d8e06c	3	1	main_slash	7	advance_on_keypress_SLASH	100	stimuli_target_trianglerectangles.svg	stimuli_distractor_trianglediamonds.svg	17	yes	57	0	389	0	0			0	0			1				0	
6.6.1	mac	2023-06-26	22:49:36	22:59:35	594968	5ab65c67f69e940001d8e06c	3	1	main_slash	7	main_slash	101	stimuli_target_squaretriangles.svg	stimuli_distractor_diamondtriangles.svg	7	yes	53	1	667	0	0			0	0			1				0	
6.6.1	mac	2023-06-26	22:49:36	22:59:35	594968	5ab65c67f69e940001d8e06c	3	1	main_slash	7	advance_on_keypress_SLASH	102	stimuli_target_squaretriangles.svg	stimuli_distractor_diamondtriangles.svg	7	yes	57	0	585	0	0			0	0			1				0	
6.6.1	mac	2023-06-26	22:49:36	22:59:37	596595	5ab65c67f69e940001d8e06c	3	1	main_slash	7	main_slash	103	stimuli_distractor_trianglediamonds.svg	stimuli_target_rectangletriangles.svg	9	yes	53	1	411	0	0			0	0			1				0	
6.6.1	mac	2023-06-26	22:49:36	22:59:37	596595	5ab65c67f69e940001d8e06c	3	1	main_slash	7	advance_on_keypress_SLASH	104	stimuli_distractor_trianglediamonds.svg	stimuli_target_rectangletriangles.svg	9	yes	57	0	302	0	0			0	0			1				0	
6.6.1	mac	2023-06-26	22:49:36	22:59:40	599533	5ab65c67f69e940001d8e06c	3	1	main_slash	7	main_slash	105	stimuli_distractor_trianglediamonds.svg	stimuli_distractor_diamondtriangles.svg	36	no	0	1	2000	0	0			0	0			1				0	
6.6.1	mac	2023-06-26	22:49:36	22:59:40	599533	5ab65c67f69e940001d8e06c	3	1	main_slash	7	advance_on_keypress_SLASH	106	stimuli_distractor_trianglediamonds.svg	stimuli_distractor_diamondtriangles.svg	36	no	57	0	27659	0	0			0	0			1				0	
6.6.1	mac	2023-06-26	22:49:36	23:00:09	628232	5ab65c67f69e940001d8e06c	3	1	main_slash	7	main_slash	107	stimuli_target_squarediamonds.svg	stimuli_distractor_diamondtriangles.svg	8	yes	53	1	398	0	0			0	0			1				0	
6.6.1	mac	2023-06-26	22:49:36	23:00:09	628232	5ab65c67f69e940001d8e06c	3	1	main_slash	7	advance_on_keypress_SLASH	108	stimuli_target_squarediamonds.svg	stimuli_distractor_diamondtriangles.svg	8	yes	57	0	346	0	0			0	0			1				0	
6.6.1	mac	2023-06-26	22:49:36	23:00:10	629809	5ab65c67f69e940001d8e06c	3	1	main_slash	7	main_slash	109	stimuli_distractor_diamondtriangles.svg	stimuli_target_diamondsquares.svg	32	yes	53	1	591	0	0			0	0			1				0	
6.6.1	mac	2023-06-26	22:49:36	23:00:10	629809	5ab65c67f69e940001d8e06c	3	1	main_slash	7	advance_on_keypress_SLASH	110	stimuli_distractor_diamondtriangles.svg	stimuli_target_diamondsquares.svg	32	yes	57	0	343	0	0			0	0			1				0	
6.6.1	mac	2023-06-26	22:49:36	23:00:13	632783	5ab65c67f69e940001d8e06c	3	1	main_slash	7	main_slash	111	stimuli_distractor_diamondtriangles.svg	stimuli_distractor_diamondtriangles.svg	39	no	0	1	2000	0	0			0	0			1				0	
6.6.1	mac	2023-06-26	22:49:36	23:00:13	632783	5ab65c67f69e940001d8e06c	3	1	main_slash	7	advance_on_keypress_SLASH	112	stimuli_distractor_diamondtriangles.svg	stimuli_distractor_diamondtriangles.svg	39	no	57	0	314	0	0			0	0			1				0	
6.6.1	mac	2023-06-26	22:49:36	23:00:15	634359	5ab65c67f69e940001d8e06c	3	1	main_slash	7	main_slash	113	stimuli_distractor_diamondtriangles.svg	stimuli_target_diamondrectangles.svg	31	yes	53	1	625	0	0			0	0			1				0	
6.6.1	mac	2023-06-26	22:49:36	23:00:15	634359	5ab65c67f69e940001d8e06c	3	1	main_slash	7	advance_on_keypress_SLASH	114	stimuli_distractor_diamondtriangles.svg	stimuli_target_diamondrectangles.svg	31	yes	57	0	318	0	0			0	0			1				0	
6.6.1	mac	2023-06-26	22:49:36	23:00:16	635879	5ab65c67f69e940001d8e06c	3	1	main_slash	7	main_slash	115	stimuli_target_diamondrectangles.svg	stimuli_distractor_trianglediamonds.svg	19	yes	53	1	578	0	0			0	0			1				0	
6.6.1	mac	2023-06-26	22:49:36	23:00:16	635879	5ab65c67f69e940001d8e06c	3	1	main_slash	7	advance_on_keypress_SLASH	116	stimuli_target_diamondrectangles.svg	stimuli_distractor_trianglediamonds.svg	19	yes	57	0	323	0	0			0	0			1				0	
6.6.1	mac	2023-06-26	22:49:36	23:00:18	637330	5ab65c67f69e940001d8e06c	3	1	main_slash	7	main_slash	117	stimuli_target_diamondsquares.svg	stimuli_distractor_trianglediamonds.svg	20	yes	53	1	496	0	0			0	0			1				0	
6.6.1	mac	2023-06-26	22:49:36	23:00:18	637330	5ab65c67f69e940001d8e06c	3	1	main_slash	7	advance_on_keypress_SLASH	118	stimuli_target_diamondsquares.svg	stimuli_distractor_trianglediamonds.svg	20	yes	57	0	261	0	0			0	0			1				0	
6.6.1	mac	2023-06-26	22:49:36	23:00:19	638755	5ab65c67f69e940001d8e06c	3	1	main_slash	7	main_slash	119	stimuli_distractor_diamondtriangles.svg	stimuli_target_squaretriangles.svg	15	yes	53	1	521	0	0			0	0			1				0	
6.6.1	mac	2023-06-26	22:49:36	23:00:19	638755	5ab65c67f69e940001d8e06c	3	1	main_slash	7	advance_on_keypress_SLASH	120	stimuli_distractor_diamondtriangles.svg	stimuli_target_squaretriangles.svg	15	yes	57	0	536	0	0			0	0			1				0	
6.6.1	mac	2023-06-26	22:49:36	23:00:22	641933	5ab65c67f69e940001d8e06c	3	1	main_slash	7	main_slash	121	stimuli_distractor_trianglediamonds.svg	stimuli_distractor_trianglediamonds.svg	34	no	0	1	2000	0	0			0	0			1				0	
6.6.1	mac	2023-06-26	22:49:36	23:00:22	641933	5ab65c67f69e940001d8e06c	3	1	main_slash	7	advance_on_keypress_SLASH	122	stimuli_distractor_trianglediamonds.svg	stimuli_distractor_trianglediamonds.svg	34	no	57	0	598	0	0			0	0			1				0	
6.6.1	mac	2023-06-26	22:49:36	23:00:24	643646	5ab65c67f69e940001d8e06c	3	1	main_slash	7	main_slash	123	stimuli_distractor_trianglediamonds.svg	stimuli_target_squaretriangles.svg	11	yes	53	1	477	0	0			0	0			1				0	
6.6.1	mac	2023-06-26	22:49:36	23:00:24	643646	5ab65c67f69e940001d8e06c	3	1	main_slash	7	advance_on_keypress_SLASH	124	stimuli_distractor_trianglediamonds.svg	stimuli_target_squaretriangles.svg	11	yes	57	0	800	0	0			0	0			1				0	
6.6.1	mac	2023-06-26	22:49:36	23:00:27	647083	5ab65c67f69e940001d8e06c	3	1	main_slash	7	main_slash	125	stimuli_distractor_trianglediamonds.svg	stimuli_distractor_trianglediamonds.svg	33	no	0	1	2000	0	0			0	0			1				0	
6.6.1	mac	2023-06-26	22:49:36	23:00:27	647083	5ab65c67f69e940001d8e06c	3	1	main_slash	7	advance_on_keypress_SLASH	126	stimuli_distractor_trianglediamonds.svg	stimuli_distractor_trianglediamonds.svg	33	no	57	0	261	0	0			0	0			1				0	
6.6.1	mac	2023-06-26	22:49:36	23:00:29	648779	5ab65c67f69e940001d8e06c	3	1	main_slash	7	main_slash	127	stimuli_distractor_trianglediamonds.svg	stimuli_target_trianglerectangles.svg	25	yes	53	1	794	0	0			0	0			1				0	
6.6.1	mac	2023-06-26	22:49:36	23:00:29	648779	5ab65c67f69e940001d8e06c	3	1	main_slash	7	advance_on_keypress_SLASH	128	stimuli_distractor_trianglediamonds.svg	stimuli_target_trianglerectangles.svg	25	yes	57	0	306	0	0			0	0			1				0	
6.6.1	mac	2023-06-26	22:49:36	23:00:32	651716	5ab65c67f69e940001d8e06c	3	1	main_slash	7	main_slash	129	stimuli_distractor_trianglediamonds.svg	stimuli_distractor_diamondtriangles.svg	35	no	0	1	2000	0	0			0	0			1				0	
6.6.1	mac	2023-06-26	22:49:36	23:00:32	651716	5ab65c67f69e940001d8e06c	3	1	main_slash	7	advance_on_keypress_SLASH	130	stimuli_distractor_trianglediamonds.svg	stimuli_distractor_diamondtriangles.svg	35	no	57	0	126	0	0			0	0			1				0	
6.6.1	mac	2023-06-26	22:49:36	23:00:33	652975	5ab65c67f69e940001d8e06c	3	1	main_slash	7	main_slash	131	stimuli_target_rectangletriangles.svg	stimuli_distractor_trianglediamonds.svg	1	yes	53	1	490	0	0			0	0			1				0	
6.6.1	mac	2023-06-26	22:49:36	23:00:33	652975	5ab65c67f69e940001d8e06c	3	1	main_slash	7	advance_on_keypress_SLASH	132	stimuli_target_rectangletriangles.svg	stimuli_distractor_trianglediamonds.svg	1	yes	57	0	317	0	0			0	0			1				0	
6.6.1	mac	2023-06-26	22:49:36	23:00:35	654403	5ab65c67f69e940001d8e06c	3	1	main_slash	7	main_slash	133	stimuli_target_rectanglediamonds.svg	stimuli_distractor_diamondtriangles.svg	6	yes	53	1	486	0	0			0	0			1				0	
6.6.1	mac	2023-06-26	22:49:36	23:00:35	654403	5ab65c67f69e940001d8e06c	3	1	main_slash	7	advance_on_keypress_SLASH	134	stimuli_target_rectanglediamonds.svg	stimuli_distractor_diamondtriangles.svg	6	yes	57	0	302	0	0			0	0			1				0	
6.6.1	mac	2023-06-26	22:49:36	23:00:36	655876	5ab65c67f69e940001d8e06c	3	1	main_slash	7	main_slash	135	stimuli_target_rectangletriangles.svg	stimuli_distractor_diamondtriangles.svg	5	yes	53	1	541	0	0			0	0			1				0	
6.6.1	mac	2023-06-26	22:49:36	23:00:36	655876	5ab65c67f69e940001d8e06c	3	1	main_slash	7	advance_on_keypress_SLASH	136	stimuli_target_rectangletriangles.svg	stimuli_distractor_diamondtriangles.svg	5	yes	57	0	292	0	0			0	0			1				0	
6.6.1	mac	2023-06-26	22:49:36	23:00:38	657269	5ab65c67f69e940001d8e06c	3	1	main_slash	7	main_slash	137	stimuli_distractor_diamondtriangles.svg	stimuli_target_rectangletriangles.svg	13	yes	53	1	467	0	0			0	0			1				0	
6.6.1	mac	2023-06-26	22:49:36	23:00:38	657269	5ab65c67f69e940001d8e06c	3	1	main_slash	7	advance_on_keypress_SLASH	138	stimuli_distractor_diamondtriangles.svg	stimuli_target_rectangletriangles.svg	13	yes	57	0	319	0	0			0	0			1				0	
6.6.1	mac	2023-06-26	22:49:36	23:00:39	658850	5ab65c67f69e940001d8e06c	3	1	main_slash	7	main_slash	139	stimuli_target_trianglesquares.svg	stimuli_distractor_diamondtriangles.svg	22	yes	53	1	632	0	0			0	0			1				0	
6.6.1	mac	2023-06-26	22:49:36	23:00:39	658850	5ab65c67f69e940001d8e06c	3	1	main_slash	7	advance_on_keypress_SLASH	140	stimuli_target_trianglesquares.svg	stimuli_distractor_diamondtriangles.svg	22	yes	57	0	27452	0	0			0	0			1				0	
6.6.1	mac	2023-06-26	22:49:36	23:01:08	687335	5ab65c67f69e940001d8e06c	3	1	main_slash	7	main_slash	141	stimuli_distractor_diamondtriangles.svg	stimuli_target_rectanglediamonds.svg	14	yes	53	1	401	0	0			0	0			1				0	
6.6.1	mac	2023-06-26	22:49:36	23:01:08	687335	5ab65c67f69e940001d8e06c	3	1	main_slash	7	advance_on_keypress_SLASH	142	stimuli_distractor_diamondtriangles.svg	stimuli_target_rectanglediamonds.svg	14	yes	57	0	374	0	0			0	0			1				0	
6.6.1	mac	2023-06-26	22:49:36	23:01:09	688842	5ab65c67f69e940001d8e06c	3	1	main_slash	7	main_slash	143	stimuli_distractor_diamondtriangles.svg	stimuli_target_trianglesquares.svg	30	yes	53	1	507	0	0			0	0			1				0	
6.6.1	mac	2023-06-26	22:49:36	23:01:09	688842	5ab65c67f69e940001d8e06c	3	1	main_slash	7	advance_on_keypress_SLASH	144	stimuli_distractor_diamondtriangles.svg	stimuli_target_trianglesquares.svg	30	yes	57	0	270	0	0			0	0			1				0	
6.6.1	mac	2023-06-26	22:49:36	23:01:10	690099	5ab65c67f69e940001d8e06c	3	1	main_slash	7	main_slash	145	stimuli_distractor_trianglediamonds.svg	stimuli_target_rectanglediamonds.svg	10	yes	53	1	348	0	0			0	0			1				0	
6.6.1	mac	2023-06-26	22:49:36	23:01:10	690099	5ab65c67f69e940001d8e06c	3	1	main_slash	7	advance_on_keypress_SLASH	146	stimuli_distractor_trianglediamonds.svg	stimuli_target_rectanglediamonds.svg	10	yes	57	0	5091	0	0			0	0			1				0	
6.6.1	mac	2023-06-26	22:49:36	23:01:17	696195	5ab65c67f69e940001d8e06c	3	1	main_slash	7	main_slash	147	stimuli_target_squaretriangles.svg	stimuli_distractor_trianglediamonds.svg	3	yes	53	1	361	0	0			0	0			1				0	
6.6.1	mac	2023-06-26	22:49:36	23:01:17	696195	5ab65c67f69e940001d8e06c	3	1	main_slash	7	advance_on_keypress_SLASH	148	stimuli_target_squaretriangles.svg	stimuli_distractor_trianglediamonds.svg	3	yes	57	0	294	0	0			0	0			1				0	
6.6.1	mac	2023-06-26	22:49:36	23:01:18	697510	5ab65c67f69e940001d8e06c	3	1	main_slash	7	main_slash	149	stimuli_target_trianglerectangles.svg	stimuli_distractor_diamondtriangles.svg	21	yes	53	1	375	0	0			0	0			1				0	
6.6.1	mac	2023-06-26	22:49:36	23:01:18	697510	5ab65c67f69e940001d8e06c	3	1	main_slash	7	advance_on_keypress_SLASH	150	stimuli_target_trianglerectangles.svg	stimuli_distractor_diamondtriangles.svg	21	yes	57	0	305	0	0			0	0			1				0	
6.6.1	mac	2023-06-26	22:49:36	23:01:19	698919	5ab65c67f69e940001d8e06c	3	1	main_slash	7	main_slash	151	stimuli_distractor_diamondtriangles.svg	stimuli_target_trianglerectangles.svg	29	yes	53	1	468	0	0			0	0			1				0	
6.6.1	mac	2023-06-26	22:49:36	23:01:19	698919	5ab65c67f69e940001d8e06c	3	1	main_slash	7	advance_on_keypress_SLASH	152	stimuli_distractor_diamondtriangles.svg	stimuli_target_trianglerectangles.svg	29	yes	57	0	217	0	0			0	0			1				0	
6.6.1	mac	2023-06-26	22:49:36	23:01:20	700144	5ab65c67f69e940001d8e06c	3	1	main_slash	7	main_slash	153	stimuli_distractor_trianglediamonds.svg	stimuli_target_squarediamonds.svg	12	yes	53	1	375	0	0			0	0			1				0	
6.6.1	mac	2023-06-26	22:49:36	23:01:20	700144	5ab65c67f69e940001d8e06c	3	1	main_slash	7	advance_on_keypress_SLASH	154	stimuli_distractor_trianglediamonds.svg	stimuli_target_squarediamonds.svg	12	yes	57	0	176	0	0			0	0			1				0	
6.6.1	mac	2023-06-26	22:49:36	23:01:23	702967	5ab65c67f69e940001d8e06c	3	1	main_slash	7	main_slash	155	stimuli_distractor_diamondtriangles.svg	stimuli_distractor_diamondtriangles.svg	40	no	0	1	2000	0	0			0	0			1				0	
6.6.1	mac	2023-06-26	22:49:36	23:01:23	702967	5ab65c67f69e940001d8e06c	3	1	main_slash	7	advance_on_keypress_SLASH	156	stimuli_distractor_diamondtriangles.svg	stimuli_distractor_diamondtriangles.svg	40	no	57	0	5634	0	0			0	0			1				0	
6.6.1	mac	2023-06-26	22:49:36	23:01:30	709673	5ab65c67f69e940001d8e06c	3	1	main_slash	7	main_slash	157	stimuli_distractor_trianglediamonds.svg	stimuli_target_diamondsquares.svg	28	yes	53	1	438	0	0			0	0			1				0	
6.6.1	mac	2023-06-26	22:49:36	23:01:30	709673	5ab65c67f69e940001d8e06c	3	1	main_slash	7	advance_on_keypress_SLASH	158	stimuli_distractor_trianglediamonds.svg	stimuli_target_diamondsquares.svg	28	yes	57	0	252	0	0			0	0			1				0	
6.6.1	mac	2023-06-26	22:49:36	23:01:31	710928	5ab65c67f69e940001d8e06c	3	1	main_slash	7	main_slash	159	stimuli_target_rectanglediamonds.svg	stimuli_distractor_trianglediamonds.svg	2	yes	53	1	360	0	0			0	0			1				0	
6.6.1	mac	2023-06-26	22:49:36	23:01:31	710928	5ab65c67f69e940001d8e06c	3	1	main_slash	7	advance_on_keypress_SLASH	160	stimuli_target_rectanglediamonds.svg	stimuli_distractor_trianglediamonds.svg	2	yes	57	0	216	0	0			0	0			1				0	
6.6.1	mac	2023-06-26	22:49:36	23:01:50	729337	5ab65c67f69e940001d8e06c	3	1	practice_z	9	practice_z	1	stimuli_target_rectanglediamonds.svg	stimuli_distractor_trianglediamonds.svg	4	yes	44	1	368	0	0			0	0			1				0	
6.6.1	mac	2023-06-26	22:49:36	23:01:50	729337	5ab65c67f69e940001d8e06c	3	1	practice_z	9	advance_on_keypress_ZEE	2	stimuli_target_rectanglediamonds.svg	stimuli_distractor_trianglediamonds.svg	4	yes	57	0	486	0	0			0	0			1				0	
6.6.1	mac	2023-06-26	22:49:36	23:01:52	731803	5ab65c67f69e940001d8e06c	3	1	practice_z	9	practice_z	3	stimuli_distractor_diamondtriangles.svg	stimuli_target_rectangletriangles.svg	7	yes	44	1	351	0	0			0	0			1				0	
6.6.1	mac	2023-06-26	22:49:36	23:01:52	731803	5ab65c67f69e940001d8e06c	3	1	practice_z	9	advance_on_keypress_ZEE	4	stimuli_distractor_diamondtriangles.svg	stimuli_target_rectangletriangles.svg	7	yes	57	0	317	0	0			0	0			1				0	
6.6.1	mac	2023-06-26	22:49:36	23:01:54	734012	5ab65c67f69e940001d8e06c	3	1	practice_z	9	practice_z	5	stimuli_distractor_diamondtriangles.svg	stimuli_distractor_trianglediamonds.svg	14	no	44	0	260	0	0			0	0			1				0	
6.6.1	mac	2023-06-26	22:49:36	23:01:54	734012	5ab65c67f69e940001d8e06c	3	1	practice_z	9	advance_on_keypress_ZEE	6	stimuli_distractor_diamondtriangles.svg	stimuli_distractor_trianglediamonds.svg	14	no	57	0	522	0	0			0	0			1				0	
6.6.1	mac	2023-06-26	22:49:36	23:01:57	736871	5ab65c67f69e940001d8e06c	3	1	practice_z	9	practice_z	7	stimuli_distractor_diamondtriangles.svg	stimuli_target_diamondrectangles.svg	8	yes	44	1	684	0	0			0	0			1				0	
6.6.1	mac	2023-06-26	22:49:36	23:01:57	736871	5ab65c67f69e940001d8e06c	3	1	practice_z	9	advance_on_keypress_ZEE	8	stimuli_distractor_diamondtriangles.svg	stimuli_target_diamondrectangles.svg	8	yes	57	0	386	0	0			0	0			1				0	
6.6.1	mac	2023-06-26	22:49:36	23:02:00	739629	5ab65c67f69e940001d8e06c	3	1	practice_z	9	practice_z	9	stimuli_distractor_trianglediamonds.svg	stimuli_distractor_trianglediamonds.svg	15	no	44	0	743	0	0			0	0			1				0	
6.6.1	mac	2023-06-26	22:49:36	23:02:00	739629	5ab65c67f69e940001d8e06c	3	1	practice_z	9	advance_on_keypress_ZEE	10	stimuli_distractor_trianglediamonds.svg	stimuli_distractor_trianglediamonds.svg	15	no	57	0	466	0	0			0	0			1				0	
6.6.1	mac	2023-06-26	22:49:36	23:02:03	742376	5ab65c67f69e940001d8e06c	3	1	practice_z	9	practice_z	11	stimuli_distractor_diamondtriangles.svg	stimuli_target_trianglerectangles.svg	9	yes	44	1	641	0	0			0	0			1				0	
6.6.1	mac	2023-06-26	22:49:36	23:02:03	742376	5ab65c67f69e940001d8e06c	3	1	practice_z	9	advance_on_keypress_ZEE	12	stimuli_distractor_diamondtriangles.svg	stimuli_target_trianglerectangles.svg	9	yes	57	0	3996	0	0			0	0			1				0	
6.6.1	mac	2023-06-26	22:49:36	23:02:09	748385	5ab65c67f69e940001d8e06c	3	1	practice_z	9	practice_z	13	stimuli_distractor_trianglediamonds.svg	stimuli_target_rectanglediamonds.svg	10	yes	44	1	381	0	0			0	0			1				0	
6.6.1	mac	2023-06-26	22:49:36	23:02:09	748385	5ab65c67f69e940001d8e06c	3	1	practice_z	9	advance_on_keypress_ZEE	14	stimuli_distractor_trianglediamonds.svg	stimuli_target_rectanglediamonds.svg	10	yes	57	0	257	0	0			0	0			1				0	
6.6.1	mac	2023-06-26	22:49:36	23:02:11	750585	5ab65c67f69e940001d8e06c	3	1	practice_z	9	practice_z	15	stimuli_target_rectanglediamonds.svg	stimuli_distractor_diamondtriangles.svg	1	yes	44	1	300	0	0			0	0			1				0	
6.6.1	mac	2023-06-26	22:49:36	23:02:11	750585	5ab65c67f69e940001d8e06c	3	1	practice_z	9	advance_on_keypress_ZEE	16	stimuli_target_rectanglediamonds.svg	stimuli_distractor_diamondtriangles.svg	1	yes	57	0	391	0	0			0	0			1				0	
6.6.1	mac	2023-06-26	22:49:36	23:02:13	752997	5ab65c67f69e940001d8e06c	3	1	practice_z	9	practice_z	17	stimuli_target_squarediamonds.svg	stimuli_distractor_trianglediamonds.svg	5	yes	44	1	377	0	0			0	0			1				0	
6.6.1	mac	2023-06-26	22:49:36	23:02:13	752997	5ab65c67f69e940001d8e06c	3	1	practice_z	9	advance_on_keypress_ZEE	18	stimuli_target_squarediamonds.svg	stimuli_distractor_trianglediamonds.svg	5	yes	57	0	348	0	0			0	0			1				0	
6.6.1	mac	2023-06-26	22:49:36	23:02:16	755388	5ab65c67f69e940001d8e06c	3	1	practice_z	9	practice_z	19	stimuli_distractor_trianglediamonds.svg	stimuli_target_diamondrectangles.svg	12	yes	44	1	401	0	0			0	0			1				0	
6.6.1	mac	2023-06-26	22:49:36	23:02:16	755388	5ab65c67f69e940001d8e06c	3	1	practice_z	9	advance_on_keypress_ZEE	20	stimuli_distractor_trianglediamonds.svg	stimuli_target_diamondrectangles.svg	12	yes	57	0	381	0	0			0	0			1				0	
6.6.1	mac	2023-06-26	22:49:36	23:02:18	757777	5ab65c67f69e940001d8e06c	3	1	practice_z	9	practice_z	21	stimuli_target_squarediamonds.svg	stimuli_distractor_diamondtriangles.svg	2	yes	44	1	374	0	0			0	0			1				0	
6.6.1	mac	2023-06-26	22:49:36	23:02:18	757777	5ab65c67f69e940001d8e06c	3	1	practice_z	9	advance_on_keypress_ZEE	22	stimuli_target_squarediamonds.svg	stimuli_distractor_diamondtriangles.svg	2	yes	57	0	394	0	0			0	0			1				0	
6.6.1	mac	2023-06-26	22:49:36	23:02:22	761818	5ab65c67f69e940001d8e06c	3	1	practice_z	9	practice_z	23	stimuli_distractor_trianglediamonds.svg	stimuli_distractor_diamondtriangles.svg	16	no	0	1	2000	0	0			0	0			1				0	
6.6.1	mac	2023-06-26	22:49:36	23:02:22	761818	5ab65c67f69e940001d8e06c	3	1	practice_z	9	advance_on_keypress_ZEE	24	stimuli_distractor_trianglediamonds.svg	stimuli_distractor_diamondtriangles.svg	16	no	57	0	2491	0	0			0	0			1				0	
6.6.1	mac	2023-06-26	22:49:36	23:02:27	766329	5ab65c67f69e940001d8e06c	3	1	practice_z	9	practice_z	25	stimuli_target_diamondsquares.svg	stimuli_distractor_diamondtriangles.svg	3	yes	44	1	376	0	0			0	0			1				0	
6.6.1	mac	2023-06-26	22:49:36	23:02:27	766329	5ab65c67f69e940001d8e06c	3	1	practice_z	9	advance_on_keypress_ZEE	26	stimuli_target_diamondsquares.svg	stimuli_distractor_diamondtriangles.svg	3	yes	57	0	328	0	0			0	0			1				0	
6.6.1	mac	2023-06-26	22:49:36	23:02:29	769010	5ab65c67f69e940001d8e06c	3	1	practice_z	9	practice_z	27	stimuli_distractor_diamondtriangles.svg	stimuli_distractor_diamondtriangles.svg	13	no	44	0	708	0	0			0	0			1				0	
6.6.1	mac	2023-06-26	22:49:36	23:02:29	769010	5ab65c67f69e940001d8e06c	3	1	practice_z	9	advance_on_keypress_ZEE	28	stimuli_distractor_diamondtriangles.svg	stimuli_distractor_diamondtriangles.svg	13	no	57	0	331	0	0			0	0			1				0	
6.6.1	mac	2023-06-26	22:49:36	23:02:32	771380	5ab65c67f69e940001d8e06c	3	1	practice_z	9	practice_z	29	stimuli_target_diamondsquares.svg	stimuli_distractor_trianglediamonds.svg	6	yes	44	1	396	0	0			0	0			1				0	
6.6.1	mac	2023-06-26	22:49:36	23:02:32	771380	5ab65c67f69e940001d8e06c	3	1	practice_z	9	advance_on_keypress_ZEE	30	stimuli_target_diamondsquares.svg	stimuli_distractor_trianglediamonds.svg	6	yes	57	0	467	0	0			0	0			1				0	
6.6.1	mac	2023-06-26	22:49:36	23:02:34	773955	5ab65c67f69e940001d8e06c	3	1	practice_z	9	practice_z	31	stimuli_distractor_trianglediamonds.svg	stimuli_target_squarediamonds.svg	11	yes	44	1	470	0	0			0	0			1				0	
6.6.1	mac	2023-06-26	22:49:36	23:02:34	773955	5ab65c67f69e940001d8e06c	3	1	practice_z	9	advance_on_keypress_ZEE	32	stimuli_distractor_trianglediamonds.svg	stimuli_target_squarediamonds.svg	11	yes	57	0	407	0	0			0	0			1				0	
6.6.1	mac	2023-06-26	22:49:36	23:02:59	798213	5ab65c67f69e940001d8e06c	3	1	main_z	11	main_z	1	stimuli_target_diamondsquares.svg	stimuli_distractor_diamondtriangles.svg	24	yes	44	1	412	0	0			0	0			1				0	
6.6.1	mac	2023-06-26	22:49:36	23:02:59	798213	5ab65c67f69e940001d8e06c	3	1	main_z	11	advance_on_keypress_ZEE	2	stimuli_target_diamondsquares.svg	stimuli_distractor_diamondtriangles.svg	24	yes	57	0	999	0	0			0	0			1				0	
6.6.1	mac	2023-06-26	22:49:36	23:03:01	800375	5ab65c67f69e940001d8e06c	3	1	main_z	11	main_z	3	stimuli_distractor_trianglediamonds.svg	stimuli_target_trianglesquares.svg	26	yes	44	1	525	0	0			0	0			1				0	
6.6.1	mac	2023-06-26	22:49:36	23:03:01	800375	5ab65c67f69e940001d8e06c	3	1	main_z	11	advance_on_keypress_ZEE	4	stimuli_distractor_trianglediamonds.svg	stimuli_target_trianglesquares.svg	26	yes	57	0	542	0	0			0	0			1				0	
6.6.1	mac	2023-06-26	22:49:36	23:03:02	801946	5ab65c67f69e940001d8e06c	3	1	main_z	11	main_z	5	stimuli_distractor_trianglediamonds.svg	stimuli_target_rectangletriangles.svg	9	yes	44	1	396	0	0			0	0			1				0	
6.6.1	mac	2023-06-26	22:49:36	23:03:02	801946	5ab65c67f69e940001d8e06c	3	1	main_z	11	advance_on_keypress_ZEE	6	stimuli_distractor_trianglediamonds.svg	stimuli_target_rectangletriangles.svg	9	yes	57	0	353	0	0			0	0			1				0	
6.6.1	mac	2023-06-26	22:49:36	23:03:04	803337	5ab65c67f69e940001d8e06c	3	1	main_z	11	main_z	7	stimuli_target_trianglerectangles.svg	stimuli_distractor_trianglediamonds.svg	17	yes	44	1	402	0	0			0	0			1				0	
6.6.1	mac	2023-06-26	22:49:36	23:03:04	803337	5ab65c67f69e940001d8e06c	3	1	main_z	11	advance_on_keypress_ZEE	8	stimuli_target_trianglerectangles.svg	stimuli_distractor_trianglediamonds.svg	17	yes	57	0	279	0	0			0	0			1				0	
6.6.1	mac	2023-06-26	22:49:36	23:03:05	804573	5ab65c67f69e940001d8e06c	3	1	main_z	11	main_z	9	stimuli_distractor_diamondtriangles.svg	stimuli_distractor_diamondtriangles.svg	40	no	44	0	321	0	0			0	0			1				0	
6.6.1	mac	2023-06-26	22:49:36	23:03:05	804573	5ab65c67f69e940001d8e06c	3	1	main_z	11	advance_on_keypress_ZEE	10	stimuli_distractor_diamondtriangles.svg	stimuli_distractor_diamondtriangles.svg	40	no	57	0	653	0	0			0	0			1				0	
6.6.1	mac	2023-06-26	22:49:36	23:03:07	806234	5ab65c67f69e940001d8e06c	3	1	main_z	11	main_z	11	stimuli_target_diamondsquares.svg	stimuli_distractor_trianglediamonds.svg	20	yes	44	1	383	0	0			0	0			1				0	
6.6.1	mac	2023-06-26	22:49:36	23:03:07	806234	5ab65c67f69e940001d8e06c	3	1	main_z	11	advance_on_keypress_ZEE	12	stimuli_target_diamondsquares.svg	stimuli_distractor_trianglediamonds.svg	20	yes	57	0	231	0	0			0	0			1				0	
6.6.1	mac	2023-06-26	22:49:36	23:03:09	808143	5ab65c67f69e940001d8e06c	3	1	main_z	11	main_z	13	stimuli_target_diamondrectangles.svg	stimuli_distractor_trianglediamonds.svg	19	yes	44	1	1041	0	0			0	0			1				0	
6.6.1	mac	2023-06-26	22:49:36	23:03:09	808143	5ab65c67f69e940001d8e06c	3	1	main_z	11	advance_on_keypress_ZEE	14	stimuli_target_diamondrectangles.svg	stimuli_distractor_trianglediamonds.svg	19	yes	57	0	1287	0	0			0	0			1				0	
6.6.1	mac	2023-06-26	22:49:36	23:03:12	812050	5ab65c67f69e940001d8e06c	3	1	main_z	11	main_z	15	stimuli_distractor_trianglediamonds.svg	stimuli_distractor_trianglediamonds.svg	34	no	0	1	2000	0	0			0	0			1				0	
6.6.1	mac	2023-06-26	22:49:36	23:03:12	812050	5ab65c67f69e940001d8e06c	3	1	main_z	11	advance_on_keypress_ZEE	16	stimuli_distractor_trianglediamonds.svg	stimuli_distractor_trianglediamonds.svg	34	no	57	0	8789	0	0			0	0			1				0	
6.6.1	mac	2023-06-26	22:49:36	23:03:22	822025	5ab65c67f69e940001d8e06c	3	1	main_z	11	main_z	17	stimuli_distractor_trianglediamonds.svg	stimuli_target_trianglerectangles.svg	25	yes	44	1	556	0	0			0	0			1				0	
6.6.1	mac	2023-06-26	22:49:36	23:03:22	822025	5ab65c67f69e940001d8e06c	3	1	main_z	11	advance_on_keypress_ZEE	18	stimuli_distractor_trianglediamonds.svg	stimuli_target_trianglerectangles.svg	25	yes	57	0	539	0	0			0	0			1				0	
6.6.1	mac	2023-06-26	22:49:36	23:03:24	823503	5ab65c67f69e940001d8e06c	3	1	main_z	11	main_z	19	stimuli_distractor_diamondtriangles.svg	stimuli_target_trianglerectangles.svg	29	yes	44	1	302	0	0			0	0			1				0	
6.6.1	mac	2023-06-26	22:49:36	23:03:24	823503	5ab65c67f69e940001d8e06c	3	1	main_z	11	advance_on_keypress_ZEE	20	stimuli_distractor_diamondtriangles.svg	stimuli_target_trianglerectangles.svg	29	yes	57	0	305	0	0			0	0			1				0	
6.6.1	mac	2023-06-26	22:49:36	23:03:25	824752	5ab65c67f69e940001d8e06c	3	1	main_z	11	main_z	21	stimuli_target_trianglesquares.svg	stimuli_distractor_trianglediamonds.svg	18	yes	44	1	317	0	0			0	0			1				0	
6.6.1	mac	2023-06-26	22:49:36	23:03:25	824752	5ab65c67f69e940001d8e06c	3	1	main_z	11	advance_on_keypress_ZEE	22	stimuli_target_trianglesquares.svg	stimuli_distractor_trianglediamonds.svg	18	yes	57	0	298	0	0			0	0			1				0	
6.6.1	mac	2023-06-26	22:49:36	23:03:26	826056	5ab65c67f69e940001d8e06c	3	1	main_z	11	main_z	23	stimuli_target_rectangletriangles.svg	stimuli_distractor_diamondtriangles.svg	5	yes	44	1	371	0	0			0	0			1				0	
6.6.1	mac	2023-06-26	22:49:36	23:03:26	826056	5ab65c67f69e940001d8e06c	3	1	main_z	11	advance_on_keypress_ZEE	24	stimuli_target_rectangletriangles.svg	stimuli_distractor_diamondtriangles.svg	5	yes	57	0	283	0	0			0	0			1				0	
6.6.1	mac	2023-06-26	22:49:36	23:03:28	827414	5ab65c67f69e940001d8e06c	3	1	main_z	11	main_z	25	stimuli_distractor_diamondtriangles.svg	stimuli_target_squarediamonds.svg	16	yes	44	1	446	0	0			0	0			1				0	
6.6.1	mac	2023-06-26	22:49:36	23:03:28	827414	5ab65c67f69e940001d8e06c	3	1	main_z	11	advance_on_keypress_ZEE	26	stimuli_distractor_diamondtriangles.svg	stimuli_target_squarediamonds.svg	16	yes	57	0	10459	0	0			0	0			1				0	
6.6.1	mac	2023-06-26	22:49:36	23:03:39	838849	5ab65c67f69e940001d8e06c	3	1	main_z	11	main_z	27	stimuli_distractor_diamondtriangles.svg	stimuli_target_diamondrectangles.svg	31	yes	44	1	330	0	0			0	0			1				0	
6.6.1	mac	2023-06-26	22:49:36	23:03:39	838849	5ab65c67f69e940001d8e06c	3	1	main_z	11	advance_on_keypress_ZEE	28	stimuli_distractor_diamondtriangles.svg	stimuli_target_diamondrectangles.svg	31	yes	57	0	624	0	0			0	0			1				0	
6.6.1	mac	2023-06-26	22:49:36	23:03:41	840368	5ab65c67f69e940001d8e06c	3	1	main_z	11	main_z	29	stimuli_distractor_diamondtriangles.svg	stimuli_target_rectangletriangles.svg	13	yes	44	1	267	0	0			0	0			1				0	
6.6.1	mac	2023-06-26	22:49:36	23:03:41	840368	5ab65c67f69e940001d8e06c	3	1	main_z	11	advance_on_keypress_ZEE	30	stimuli_distractor_diamondtriangles.svg	stimuli_target_rectangletriangles.svg	13	yes	57	0	330	0	0			0	0			1				0	
6.6.1	mac	2023-06-26	22:49:36	23:03:42	841615	5ab65c67f69e940001d8e06c	3	1	main_z	11	main_z	31	stimuli_target_squaretriangles.svg	stimuli_distractor_trianglediamonds.svg	3	yes	44	1	281	0	0			0	0			1				0	
6.6.1	mac	2023-06-26	22:49:36	23:03:42	841615	5ab65c67f69e940001d8e06c	3	1	main_z	11	advance_on_keypress_ZEE	32	stimuli_target_squaretriangles.svg	stimuli_distractor_trianglediamonds.svg	3	yes	57	0	260	0	0			0	0			1				0	
6.6.1	mac	2023-06-26	22:49:36	23:03:43	842854	5ab65c67f69e940001d8e06c	3	1	main_z	11	main_z	33	stimuli_distractor_diamondtriangles.svg	stimuli_target_trianglesquares.svg	30	yes	44	1	336	0	0			0	0			1				0	
6.6.1	mac	2023-06-26	22:49:36	23:03:43	842854	5ab65c67f69e940001d8e06c	3	1	main_z	11	advance_on_keypress_ZEE	34	stimuli_distractor_diamondtriangles.svg	stimuli_target_trianglesquares.svg	30	yes	57	0	1093	0	0			0	0			1				0	
6.6.1	mac	2023-06-26	22:49:36	23:03:45	844852	5ab65c67f69e940001d8e06c	3	1	main_z	11	main_z	35	stimuli_distractor_trianglediamonds.svg	stimuli_distractor_diamondtriangles.svg	35	no	44	0	267	0	0			0	0			1				0	
6.6.1	mac	2023-06-26	22:49:36	23:03:45	844852	5ab65c67f69e940001d8e06c	3	1	main_z	11	advance_on_keypress_ZEE	36	stimuli_distractor_trianglediamonds.svg	stimuli_distractor_diamondtriangles.svg	35	no	57	0	714	0	0			0	0			1				0	
6.6.1	mac	2023-06-26	22:49:36	23:03:47	846582	5ab65c67f69e940001d8e06c	3	1	main_z	11	main_z	37	stimuli_target_rectanglediamonds.svg	stimuli_distractor_trianglediamonds.svg	2	yes	44	1	380	0	0			0	0			1				0	
6.6.1	mac	2023-06-26	22:49:36	23:03:47	846582	5ab65c67f69e940001d8e06c	3	1	main_z	11	advance_on_keypress_ZEE	38	stimuli_target_rectanglediamonds.svg	stimuli_distractor_trianglediamonds.svg	2	yes	57	0	250	0	0			0	0			1				0	
6.6.1	mac	2023-06-26	22:49:36	23:03:48	847879	5ab65c67f69e940001d8e06c	3	1	main_z	11	main_z	39	stimuli_distractor_diamondtriangles.svg	stimuli_target_squaretriangles.svg	15	yes	44	1	411	0	0			0	0			1				0	
6.6.1	mac	2023-06-26	22:49:36	23:03:48	847879	5ab65c67f69e940001d8e06c	3	1	main_z	11	advance_on_keypress_ZEE	40	stimuli_distractor_diamondtriangles.svg	stimuli_target_squaretriangles.svg	15	yes	57	0	203	0	0			0	0			1				0	
6.6.1	mac	2023-06-26	22:49:36	23:03:51	850717	5ab65c67f69e940001d8e06c	3	1	main_z	11	main_z	41	stimuli_distractor_trianglediamonds.svg	stimuli_target_diamondrectangles.svg	27	yes	0	0	2000	0	0			0	0			1				0	
6.6.1	mac	2023-06-26	22:49:36	23:03:51	850717	5ab65c67f69e940001d8e06c	3	1	main_z	11	advance_on_keypress_ZEE	42	stimuli_distractor_trianglediamonds.svg	stimuli_target_diamondrectangles.svg	27	yes	57	0	8394	0	0			0	0			1				0	
6.6.1	mac	2023-06-26	22:49:36	23:04:00	860100	5ab65c67f69e940001d8e06c	3	1	main_z	11	main_z	43	stimuli_target_squaretriangles.svg	stimuli_distractor_diamondtriangles.svg	7	yes	44	1	350	0	0			0	0			1				0	
6.6.1	mac	2023-06-26	22:49:36	23:04:00	860100	5ab65c67f69e940001d8e06c	3	1	main_z	11	advance_on_keypress_ZEE	44	stimuli_target_squaretriangles.svg	stimuli_distractor_diamondtriangles.svg	7	yes	57	0	302	0	0			0	0			1				0	
6.6.1	mac	2023-06-26	22:49:36	23:04:02	861798	5ab65c67f69e940001d8e06c	3	1	main_z	11	main_z	45	stimuli_distractor_trianglediamonds.svg	stimuli_target_diamondsquares.svg	28	yes	44	1	764	0	0			0	0			1				0	
6.6.1	mac	2023-06-26	22:49:36	23:04:02	861798	5ab65c67f69e940001d8e06c	3	1	main_z	11	advance_on_keypress_ZEE	46	stimuli_distractor_trianglediamonds.svg	stimuli_target_diamondsquares.svg	28	yes	57	0	6480	0	0			0	0			1				0	
6.6.1	mac	2023-06-26	22:49:36	23:04:10	869313	5ab65c67f69e940001d8e06c	3	1	main_z	11	main_z	47	stimuli_distractor_diamondtriangles.svg	stimuli_target_rectanglediamonds.svg	14	yes	44	1	396	0	0			0	0			1				0	
6.6.1	mac	2023-06-26	22:49:36	23:04:10	869313	5ab65c67f69e940001d8e06c	3	1	main_z	11	advance_on_keypress_ZEE	48	stimuli_distractor_diamondtriangles.svg	stimuli_target_rectanglediamonds.svg	14	yes	57	0	335	0	0			0	0			1				0	
6.6.1	mac	2023-06-26	22:49:36	23:04:11	870659	5ab65c67f69e940001d8e06c	3	1	main_z	11	main_z	49	stimuli_target_trianglesquares.svg	stimuli_distractor_diamondtriangles.svg	22	yes	44	1	373	0	0			0	0			1				0	
6.6.1	mac	2023-06-26	22:49:36	23:04:11	870659	5ab65c67f69e940001d8e06c	3	1	main_z	11	advance_on_keypress_ZEE	50	stimuli_target_trianglesquares.svg	stimuli_distractor_diamondtriangles.svg	22	yes	57	0	208	0	0			0	0			1				0	
6.6.1	mac	2023-06-26	22:49:36	23:04:12	871902	5ab65c67f69e940001d8e06c	3	1	main_z	11	main_z	51	stimuli_target_diamondrectangles.svg	stimuli_distractor_diamondtriangles.svg	23	yes	44	1	385	0	0			0	0			1				0	
6.6.1	mac	2023-06-26	22:49:36	23:04:12	871902	5ab65c67f69e940001d8e06c	3	1	main_z	11	advance_on_keypress_ZEE	52	stimuli_target_diamondrectangles.svg	stimuli_distractor_diamondtriangles.svg	23	yes	57	0	268	0	0			0	0			1				0	
6.6.1	mac	2023-06-26	22:49:36	23:04:14	873381	5ab65c67f69e940001d8e06c	3	1	main_z	11	main_z	53	stimuli_distractor_diamondtriangles.svg	stimuli_target_diamondsquares.svg	32	yes	44	1	580	0	0			0	0			1				0	
6.6.1	mac	2023-06-26	22:49:36	23:04:14	873381	5ab65c67f69e940001d8e06c	3	1	main_z	11	advance_on_keypress_ZEE	54	stimuli_distractor_diamondtriangles.svg	stimuli_target_diamondsquares.svg	32	yes	57	0	245	0	0			0	0			1				0	
6.6.1	mac	2023-06-26	22:49:36	23:04:15	874666	5ab65c67f69e940001d8e06c	3	1	main_z	11	main_z	55	stimuli_target_rectangletriangles.svg	stimuli_distractor_trianglediamonds.svg	1	yes	44	1	398	0	0			0	0			1				0	
6.6.1	mac	2023-06-26	22:49:36	23:04:15	874666	5ab65c67f69e940001d8e06c	3	1	main_z	11	advance_on_keypress_ZEE	56	stimuli_target_rectangletriangles.svg	stimuli_distractor_trianglediamonds.svg	1	yes	57	0	234	0	0			0	0			1				0	
6.6.1	mac	2023-06-26	22:49:36	23:04:16	875865	5ab65c67f69e940001d8e06c	3	1	main_z	11	main_z	57	stimuli_target_squarediamonds.svg	stimuli_distractor_diamondtriangles.svg	8	yes	44	1	330	0	0			0	0			1				0	
6.6.1	mac	2023-06-26	22:49:36	23:04:16	875865	5ab65c67f69e940001d8e06c	3	1	main_z	11	advance_on_keypress_ZEE	58	stimuli_target_squarediamonds.svg	stimuli_distractor_diamondtriangles.svg	8	yes	57	0	189	0	0			0	0			1				0	
6.6.1	mac	2023-06-26	22:49:36	23:04:17	877074	5ab65c67f69e940001d8e06c	3	1	main_z	11	main_z	59	stimuli_target_squarediamonds.svg	stimuli_distractor_trianglediamonds.svg	4	yes	44	1	389	0	0			0	0			1				0	
6.6.1	mac	2023-06-26	22:49:36	23:04:17	877074	5ab65c67f69e940001d8e06c	3	1	main_z	11	advance_on_keypress_ZEE	60	stimuli_target_squarediamonds.svg	stimuli_distractor_trianglediamonds.svg	4	yes	57	0	137	0	0			0	0			1				0	
6.6.1	mac	2023-06-26	22:49:36	23:04:19	878230	5ab65c67f69e940001d8e06c	3	1	main_z	11	main_z	61	stimuli_distractor_trianglediamonds.svg	stimuli_target_rectanglediamonds.svg	10	yes	44	1	379	0	0			0	0			1				0	
6.6.1	mac	2023-06-26	22:49:36	23:04:19	878230	5ab65c67f69e940001d8e06c	3	1	main_z	11	advance_on_keypress_ZEE	62	stimuli_distractor_trianglediamonds.svg	stimuli_target_rectanglediamonds.svg	10	yes	57	0	119	0	0			0	0			1				0	
6.6.1	mac	2023-06-26	22:49:36	23:04:21	880983	5ab65c67f69e940001d8e06c	3	1	main_z	11	main_z	63	stimuli_distractor_diamondtriangles.svg	stimuli_distractor_trianglediamonds.svg	37	no	0	1	2000	0	0			0	0			1				0	
6.6.1	mac	2023-06-26	22:49:36	23:04:21	880983	5ab65c67f69e940001d8e06c	3	1	main_z	11	advance_on_keypress_ZEE	64	stimuli_distractor_diamondtriangles.svg	stimuli_distractor_trianglediamonds.svg	37	no	57	0	56734	0	0			0	0			1				0	
6.6.1	mac	2023-06-26	22:49:36	23:05:19	938836	5ab65c67f69e940001d8e06c	3	1	main_z	11	main_z	65	stimuli_distractor_trianglediamonds.svg	stimuli_distractor_diamondtriangles.svg	36	no	44	0	484	0	0			0	0			1				0	
6.6.1	mac	2023-06-26	22:49:36	23:05:19	938836	5ab65c67f69e940001d8e06c	3	1	main_z	11	advance_on_keypress_ZEE	66	stimuli_distractor_trianglediamonds.svg	stimuli_distractor_diamondtriangles.svg	36	no	57	0	334	0	0			0	0			1				0	
6.6.1	mac	2023-06-26	22:49:36	23:05:20	940073	5ab65c67f69e940001d8e06c	3	1	main_z	11	main_z	67	stimuli_target_rectanglediamonds.svg	stimuli_distractor_diamondtriangles.svg	6	yes	44	1	271	0	0			0	0			1				0	
6.6.1	mac	2023-06-26	22:49:36	23:05:20	940073	5ab65c67f69e940001d8e06c	3	1	main_z	11	advance_on_keypress_ZEE	68	stimuli_target_rectanglediamonds.svg	stimuli_distractor_diamondtriangles.svg	6	yes	57	0	98	0	0			0	0			1				0	
6.6.1	mac	2023-06-26	22:49:36	23:05:22	941470	5ab65c67f69e940001d8e06c	3	1	main_z	11	main_z	69	stimuli_distractor_diamondtriangles.svg	stimuli_distractor_trianglediamonds.svg	38	no	44	0	670	0	0			0	0			1				0	
6.6.1	mac	2023-06-26	22:49:36	23:05:22	941470	5ab65c67f69e940001d8e06c	3	1	main_z	11	advance_on_keypress_ZEE	70	stimuli_distractor_diamondtriangles.svg	stimuli_distractor_trianglediamonds.svg	38	no	57	0	121	0	0			0	0			1				0	
6.6.1	mac	2023-06-26	22:49:36	23:05:23	942717	5ab65c67f69e940001d8e06c	3	1	main_z	11	main_z	71	stimuli_distractor_trianglediamonds.svg	stimuli_target_squarediamonds.svg	12	yes	44	1	498	0	0			0	0			1				0	
6.6.1	mac	2023-06-26	22:49:36	23:05:23	942717	5ab65c67f69e940001d8e06c	3	1	main_z	11	advance_on_keypress_ZEE	72	stimuli_distractor_trianglediamonds.svg	stimuli_target_squarediamonds.svg	12	yes	57	0	225	0	0			0	0			1				0	
6.6.1	mac	2023-06-26	22:49:36	23:05:26	945583	5ab65c67f69e940001d8e06c	3	1	main_z	11	main_z	73	stimuli_distractor_diamondtriangles.svg	stimuli_distractor_diamondtriangles.svg	39	no	0	1	2000	0	0			0	0			1				0	
6.6.1	mac	2023-06-26	22:49:36	23:05:26	945583	5ab65c67f69e940001d8e06c	3	1	main_z	11	advance_on_keypress_ZEE	74	stimuli_distractor_diamondtriangles.svg	stimuli_distractor_diamondtriangles.svg	39	no	57	0	296	0	0			0	0			1				0	
6.6.1	mac	2023-06-26	22:49:36	23:05:27	946984	5ab65c67f69e940001d8e06c	3	1	main_z	11	main_z	75	stimuli_distractor_trianglediamonds.svg	stimuli_target_squaretriangles.svg	11	yes	44	1	466	0	0			0	0			1				0	
6.6.1	mac	2023-06-26	22:49:36	23:05:27	946984	5ab65c67f69e940001d8e06c	3	1	main_z	11	advance_on_keypress_ZEE	76	stimuli_distractor_trianglediamonds.svg	stimuli_target_squaretriangles.svg	11	yes	57	0	287	0	0			0	0			1				0	
6.6.1	mac	2023-06-26	22:49:36	23:05:30	949900	5ab65c67f69e940001d8e06c	3	1	main_z	11	main_z	77	stimuli_distractor_trianglediamonds.svg	stimuli_distractor_trianglediamonds.svg	33	no	0	1	2000	0	0			0	0			1				0	
6.6.1	mac	2023-06-26	22:49:36	23:05:30	949900	5ab65c67f69e940001d8e06c	3	1	main_z	11	advance_on_keypress_ZEE	78	stimuli_distractor_trianglediamonds.svg	stimuli_distractor_trianglediamonds.svg	33	no	57	0	250	0	0			0	0			1				0	
6.6.1	mac	2023-06-26	22:49:36	23:05:32	951187	5ab65c67f69e940001d8e06c	3	1	main_z	11	main_z	79	stimuli_target_trianglerectangles.svg	stimuli_distractor_diamondtriangles.svg	21	yes	44	1	402	0	0			0	0			1				0	
6.6.1	mac	2023-06-26	22:49:36	23:05:32	951187	5ab65c67f69e940001d8e06c	3	1	main_z	11	advance_on_keypress_ZEE	80	stimuli_target_trianglerectangles.svg	stimuli_distractor_diamondtriangles.svg	21	yes	57	0	219	0	0			0	0			1				0	
6.6.1	mac	2023-06-26	22:49:36	23:05:33	952745	5ab65c67f69e940001d8e06c	3	1	main_z	11	main_z	81	stimuli_distractor_diamondtriangles.svg	stimuli_target_diamondsquares.svg	32	yes	44	1	711	0	0			0	0			1				0	
6.6.1	mac	2023-06-26	22:49:36	23:05:33	952745	5ab65c67f69e940001d8e06c	3	1	main_z	11	advance_on_keypress_ZEE	82	stimuli_distractor_diamondtriangles.svg	stimuli_target_diamondsquares.svg	32	yes	57	0	3275	0	0			0	0			1				0	
6.6.1	mac	2023-06-26	22:49:36	23:05:37	957040	5ab65c67f69e940001d8e06c	3	1	main_z	11	main_z	83	stimuli_target_diamondrectangles.svg	stimuli_distractor_trianglediamonds.svg	19	yes	44	1	371	0	0			0	0			1				0	
6.6.1	mac	2023-06-26	22:49:36	23:05:37	957040	5ab65c67f69e940001d8e06c	3	1	main_z	11	advance_on_keypress_ZEE	84	stimuli_target_diamondrectangles.svg	stimuli_distractor_trianglediamonds.svg	19	yes	57	0	210	0	0			0	0			1				0	
6.6.1	mac	2023-06-26	22:49:36	23:05:39	958216	5ab65c67f69e940001d8e06c	3	1	main_z	11	main_z	85	stimuli_target_squaretriangles.svg	stimuli_distractor_trianglediamonds.svg	3	yes	44	1	330	0	0			0	0			1				0	
6.6.1	mac	2023-06-26	22:49:36	23:05:39	958216	5ab65c67f69e940001d8e06c	3	1	main_z	11	advance_on_keypress_ZEE	86	stimuli_target_squaretriangles.svg	stimuli_distractor_trianglediamonds.svg	3	yes	57	0	209	0	0			0	0			1				0	
6.6.1	mac	2023-06-26	22:49:36	23:05:41	961067	5ab65c67f69e940001d8e06c	3	1	main_z	11	main_z	87	stimuli_distractor_diamondtriangles.svg	stimuli_distractor_diamondtriangles.svg	39	no	0	1	2000	0	0			0	0			1				0	
6.6.1	mac	2023-06-26	22:49:36	23:05:41	961067	5ab65c67f69e940001d8e06c	3	1	main_z	11	advance_on_keypress_ZEE	88	stimuli_distractor_diamondtriangles.svg	stimuli_distractor_diamondtriangles.svg	39	no	57	0	348	0	0			0	0			1				0	
6.6.1	mac	2023-06-26	22:49:36	23:05:43	962506	5ab65c67f69e940001d8e06c	3	1	main_z	11	main_z	89	stimuli_distractor_trianglediamonds.svg	stimuli_target_diamondsquares.svg	28	yes	44	1	455	0	0			0	0			1				0	
6.6.1	mac	2023-06-26	22:49:36	23:05:43	962506	5ab65c67f69e940001d8e06c	3	1	main_z	11	advance_on_keypress_ZEE	90	stimuli_distractor_trianglediamonds.svg	stimuli_target_diamondsquares.svg	28	yes	57	0	226	0	0			0	0			1				0	
6.6.1	mac	2023-06-26	22:49:36	23:05:44	963743	5ab65c67f69e940001d8e06c	3	1	main_z	11	main_z	91	stimuli_target_squarediamonds.svg	stimuli_distractor_trianglediamonds.svg	4	yes	44	1	374	0	0			0	0			1				0	
6.6.1	mac	2023-06-26	22:49:36	23:05:44	963743	5ab65c67f69e940001d8e06c	3	1	main_z	11	advance_on_keypress_ZEE	92	stimuli_target_squarediamonds.svg	stimuli_distractor_trianglediamonds.svg	4	yes	57	0	223	0	0			0	0			1				0	
6.6.1	mac	2023-06-26	22:49:36	23:05:45	965027	5ab65c67f69e940001d8e06c	3	1	main_z	11	main_z	93	stimuli_target_trianglesquares.svg	stimuli_distractor_trianglediamonds.svg	18	yes	44	1	426	0	0			0	0			1				0	
6.6.1	mac	2023-06-26	22:49:36	23:05:45	965027	5ab65c67f69e940001d8e06c	3	1	main_z	11	advance_on_keypress_ZEE	94	stimuli_target_trianglesquares.svg	stimuli_distractor_trianglediamonds.svg	18	yes	57	0	120	0	0			0	0			1				0	
6.6.1	mac	2023-06-26	22:49:36	23:05:47	966146	5ab65c67f69e940001d8e06c	3	1	main_z	11	main_z	95	stimuli_target_diamondsquares.svg	stimuli_distractor_trianglediamonds.svg	20	yes	44	1	361	0	0			0	0			1				0	
6.6.1	mac	2023-06-26	22:49:36	23:05:47	966146	5ab65c67f69e940001d8e06c	3	1	main_z	11	advance_on_keypress_ZEE	96	stimuli_target_diamondsquares.svg	stimuli_distractor_trianglediamonds.svg	20	yes	57	0	142	0	0			0	0			1				0	
6.6.1	mac	2023-06-26	22:49:36	23:05:48	967558	5ab65c67f69e940001d8e06c	3	1	main_z	11	main_z	97	stimuli_distractor_trianglediamonds.svg	stimuli_target_trianglerectangles.svg	25	yes	44	1	623	0	0			0	0			1				0	
6.6.1	mac	2023-06-26	22:49:36	23:05:48	967558	5ab65c67f69e940001d8e06c	3	1	main_z	11	advance_on_keypress_ZEE	98	stimuli_distractor_trianglediamonds.svg	stimuli_target_trianglerectangles.svg	25	yes	57	0	143	0	0			0	0			1				0	
6.6.1	mac	2023-06-26	22:49:36	23:05:51	970317	5ab65c67f69e940001d8e06c	3	1	main_z	11	main_z	99	stimuli_distractor_trianglediamonds.svg	stimuli_distractor_trianglediamonds.svg	34	no	0	1	2000	0	0			0	0			1				0	
6.6.1	mac	2023-06-26	22:49:36	23:05:51	970317	5ab65c67f69e940001d8e06c	3	1	main_z	11	advance_on_keypress_ZEE	100	stimuli_distractor_trianglediamonds.svg	stimuli_distractor_trianglediamonds.svg	34	no	57	0	850	0	0			0	0			1				0	
6.6.1	mac	2023-06-26	22:49:36	23:05:53	972199	5ab65c67f69e940001d8e06c	3	1	main_z	11	main_z	101	stimuli_target_squaretriangles.svg	stimuli_distractor_diamondtriangles.svg	7	yes	44	1	398	0	0			0	0			1				0	
6.6.1	mac	2023-06-26	22:49:36	23:05:53	972199	5ab65c67f69e940001d8e06c	3	1	main_z	11	advance_on_keypress_ZEE	102	stimuli_target_squaretriangles.svg	stimuli_distractor_diamondtriangles.svg	7	yes	57	0	180	0	0			0	0			1				0	
6.6.1	mac	2023-06-26	22:49:36	23:05:54	973540	5ab65c67f69e940001d8e06c	3	1	main_z	11	main_z	103	stimuli_target_trianglerectangles.svg	stimuli_distractor_trianglediamonds.svg	17	yes	44	1	521	0	0			0	0			1				0	
6.6.1	mac	2023-06-26	22:49:36	23:05:54	973540	5ab65c67f69e940001d8e06c	3	1	main_z	11	advance_on_keypress_ZEE	104	stimuli_target_trianglerectangles.svg	stimuli_distractor_trianglediamonds.svg	17	yes	57	0	151	0	0			0	0			1				0	
6.6.1	mac	2023-06-26	22:49:36	23:05:55	974684	5ab65c67f69e940001d8e06c	3	1	main_z	11	main_z	105	stimuli_target_rectanglediamonds.svg	stimuli_distractor_diamondtriangles.svg	6	yes	44	1	348	0	0			0	0			1				0	
6.6.1	mac	2023-06-26	22:49:36	23:05:55	974684	5ab65c67f69e940001d8e06c	3	1	main_z	11	advance_on_keypress_ZEE	106	stimuli_target_rectanglediamonds.svg	stimuli_distractor_diamondtriangles.svg	6	yes	57	0	130	0	0			0	0			1				0	
6.6.1	mac	2023-06-26	22:49:36	23:05:57	976141	5ab65c67f69e940001d8e06c	3	1	main_z	11	main_z	107	stimuli_distractor_diamondtriangles.svg	stimuli_target_trianglerectangles.svg	29	yes	44	1	689	0	0			0	0			1				0	
6.6.1	mac	2023-06-26	22:49:36	23:05:57	976141	5ab65c67f69e940001d8e06c	3	1	main_z	11	advance_on_keypress_ZEE	108	stimuli_distractor_diamondtriangles.svg	stimuli_target_trianglerectangles.svg	29	yes	57	0	219	0	0			0	0			1				0	
6.6.1	mac	2023-06-26	22:49:36	23:05:58	977348	5ab65c67f69e940001d8e06c	3	1	main_z	11	main_z	109	stimuli_distractor_trianglediamonds.svg	stimuli_target_rectanglediamonds.svg	10	yes	44	1	362	0	0			0	0			1				0	
6.6.1	mac	2023-06-26	22:49:36	23:05:58	977348	5ab65c67f69e940001d8e06c	3	1	main_z	11	advance_on_keypress_ZEE	110	stimuli_distractor_trianglediamonds.svg	stimuli_target_rectanglediamonds.svg	10	yes	57	0	174	0	0			0	0			1				0	
6.6.1	mac	2023-06-26	22:49:36	23:06:01	980150	5ab65c67f69e940001d8e06c	3	1	main_z	11	main_z	111	stimuli_distractor_trianglediamonds.svg	stimuli_distractor_diamondtriangles.svg	36	no	0	1	2000	0	0			0	0			1				0	
6.6.1	mac	2023-06-26	22:49:36	23:06:01	980150	5ab65c67f69e940001d8e06c	3	1	main_z	11	advance_on_keypress_ZEE	112	stimuli_distractor_trianglediamonds.svg	stimuli_distractor_diamondtriangles.svg	36	no	57	0	1245	0	0			0	0			1				0	
6.6.1	mac	2023-06-26	22:49:36	23:06:04	984033	5ab65c67f69e940001d8e06c	3	1	main_z	11	main_z	113	stimuli_distractor_diamondtriangles.svg	stimuli_distractor_trianglediamonds.svg	38	no	0	1	2000	0	0			0	0			1				0	
6.6.1	mac	2023-06-26	22:49:36	23:06:04	984033	5ab65c67f69e940001d8e06c	3	1	main_z	11	advance_on_keypress_ZEE	114	stimuli_distractor_diamondtriangles.svg	stimuli_distractor_trianglediamonds.svg	38	no	57	0	338	0	0			0	0			1				0	
6.6.1	mac	2023-06-26	22:49:36	23:06:06	985545	5ab65c67f69e940001d8e06c	3	1	main_z	11	main_z	115	stimuli_distractor_trianglediamonds.svg	stimuli_target_trianglesquares.svg	26	yes	44	1	544	0	0			0	0			1				0	
6.6.1	mac	2023-06-26	22:49:36	23:06:06	985545	5ab65c67f69e940001d8e06c	3	1	main_z	11	advance_on_keypress_ZEE	116	stimuli_distractor_trianglediamonds.svg	stimuli_target_trianglesquares.svg	26	yes	57	0	186	0	0			0	0			1				0	
6.6.1	mac	2023-06-26	22:49:36	23:06:07	986911	5ab65c67f69e940001d8e06c	3	1	main_z	11	main_z	117	stimuli_distractor_diamondtriangles.svg	stimuli_target_trianglesquares.svg	30	yes	44	1	543	0	0			0	0			1				0	
6.6.1	mac	2023-06-26	22:49:36	23:06:07	986911	5ab65c67f69e940001d8e06c	3	1	main_z	11	advance_on_keypress_ZEE	118	stimuli_distractor_diamondtriangles.svg	stimuli_target_trianglesquares.svg	30	yes	57	0	162	0	0			0	0			1				0	
6.6.1	mac	2023-06-26	22:49:36	23:06:09	988149	5ab65c67f69e940001d8e06c	3	1	main_z	11	main_z	119	stimuli_distractor_trianglediamonds.svg	stimuli_target_diamondrectangles.svg	27	yes	44	1	430	0	0			0	0			1				0	
6.6.1	mac	2023-06-26	22:49:36	23:06:09	988149	5ab65c67f69e940001d8e06c	3	1	main_z	11	advance_on_keypress_ZEE	120	stimuli_distractor_trianglediamonds.svg	stimuli_target_diamondrectangles.svg	27	yes	57	0	167	0	0			0	0			1				0	
6.6.1	mac	2023-06-26	22:49:36	23:06:10	989327	5ab65c67f69e940001d8e06c	3	1	main_z	11	main_z	121	stimuli_target_diamondsquares.svg	stimuli_distractor_diamondtriangles.svg	24	yes	44	1	375	0	0			0	0			1				0	
6.6.1	mac	2023-06-26	22:49:36	23:06:10	989327	5ab65c67f69e940001d8e06c	3	1	main_z	11	advance_on_keypress_ZEE	122	stimuli_target_diamondsquares.svg	stimuli_distractor_diamondtriangles.svg	24	yes	57	0	219	0	0			0	0			1				0	
6.6.1	mac	2023-06-26	22:49:36	23:06:13	992184	5ab65c67f69e940001d8e06c	3	1	main_z	11	main_z	123	stimuli_distractor_diamondtriangles.svg	stimuli_distractor_diamondtriangles.svg	40	no	0	1	2000	0	0			0	0			1				0	
6.6.1	mac	2023-06-26	22:49:36	23:06:13	992184	5ab65c67f69e940001d8e06c	3	1	main_z	11	advance_on_keypress_ZEE	124	stimuli_distractor_diamondtriangles.svg	stimuli_distractor_diamondtriangles.svg	40	no	57	0	251	0	0			0	0			1				0	
6.6.1	mac	2023-06-26	22:49:36	23:06:15	995066	5ab65c67f69e940001d8e06c	3	1	main_z	11	main_z	125	stimuli_distractor_diamondtriangles.svg	stimuli_distractor_trianglediamonds.svg	37	no	0	1	2000	0	0			0	0			1				0	
6.6.1	mac	2023-06-26	22:49:36	23:06:15	995066	5ab65c67f69e940001d8e06c	3	1	main_z	11	advance_on_keypress_ZEE	126	stimuli_distractor_diamondtriangles.svg	stimuli_distractor_trianglediamonds.svg	37	no	57	0	280	0	0			0	0			1				0	
6.6.1	mac	2023-06-26	22:49:36	23:06:17	996345	5ab65c67f69e940001d8e06c	3	1	main_z	11	main_z	127	stimuli_target_squarediamonds.svg	stimuli_distractor_diamondtriangles.svg	8	yes	44	1	360	0	0			0	0			1				0	
6.6.1	mac	2023-06-26	22:49:36	23:06:17	996345	5ab65c67f69e940001d8e06c	3	1	main_z	11	advance_on_keypress_ZEE	128	stimuli_target_squarediamonds.svg	stimuli_distractor_diamondtriangles.svg	8	yes	57	0	211	0	0			0	0			1				0	
6.6.1	mac	2023-06-26	22:49:36	23:06:18	997618	5ab65c67f69e940001d8e06c	3	1	main_z	11	main_z	129	stimuli_distractor_trianglediamonds.svg	stimuli_target_squarediamonds.svg	12	yes	44	1	417	0	0			0	0			1				0	
6.6.1	mac	2023-06-26	22:49:36	23:06:18	997618	5ab65c67f69e940001d8e06c	3	1	main_z	11	advance_on_keypress_ZEE	130	stimuli_distractor_trianglediamonds.svg	stimuli_target_squarediamonds.svg	12	yes	57	0	187	0	0			0	0			1				0	
6.6.1	mac	2023-06-26	22:49:36	23:06:19	998843	5ab65c67f69e940001d8e06c	3	1	main_z	11	main_z	131	stimuli_distractor_diamondtriangles.svg	stimuli_target_rectanglediamonds.svg	14	yes	44	1	407	0	0			0	0			1				0	
6.6.1	mac	2023-06-26	22:49:36	23:06:19	998843	5ab65c67f69e940001d8e06c	3	1	main_z	11	advance_on_keypress_ZEE	132	stimuli_distractor_diamondtriangles.svg	stimuli_target_rectanglediamonds.svg	14	yes	57	0	189	0	0			0	0			1				0	
6.6.1	mac	2023-06-26	22:49:36	23:06:20	1000124	5ab65c67f69e940001d8e06c	3	1	main_z	11	main_z	133	stimuli_target_trianglesquares.svg	stimuli_distractor_diamondtriangles.svg	22	yes	44	1	455	0	0			0	0			1				0	
6.6.1	mac	2023-06-26	22:49:36	23:06:20	1000124	5ab65c67f69e940001d8e06c	3	1	main_z	11	advance_on_keypress_ZEE	134	stimuli_target_trianglesquares.svg	stimuli_distractor_diamondtriangles.svg	22	yes	57	0	199	0	0			0	0			1				0	
6.6.1	mac	2023-06-26	22:49:36	23:06:22	1001467	5ab65c67f69e940001d8e06c	3	1	main_z	11	main_z	135	stimuli_distractor_diamondtriangles.svg	stimuli_target_squaretriangles.svg	15	yes	44	1	515	0	0			0	0			1				0	
6.6.1	mac	2023-06-26	22:49:36	23:06:22	1001467	5ab65c67f69e940001d8e06c	3	1	main_z	11	advance_on_keypress_ZEE	136	stimuli_distractor_diamondtriangles.svg	stimuli_target_squaretriangles.svg	15	yes	57	0	165	0	0			0	0			1				0	
6.6.1	mac	2023-06-26	22:49:36	23:06:23	1002661	5ab65c67f69e940001d8e06c	3	1	main_z	11	main_z	137	stimuli_target_rectangletriangles.svg	stimuli_distractor_diamondtriangles.svg	5	yes	44	1	394	0	0			0	0			1				0	
6.6.1	mac	2023-06-26	22:49:36	23:06:23	1002661	5ab65c67f69e940001d8e06c	3	1	main_z	11	advance_on_keypress_ZEE	138	stimuli_target_rectangletriangles.svg	stimuli_distractor_diamondtriangles.svg	5	yes	57	0	167	0	0			0	0			1				0	
6.6.1	mac	2023-06-26	22:49:36	23:06:24	1003847	5ab65c67f69e940001d8e06c	3	1	main_z	11	main_z	139	stimuli_distractor_diamondtriangles.svg	stimuli_target_rectangletriangles.svg	13	yes	44	1	378	0	0			0	0			1				0	
6.6.1	mac	2023-06-26	22:49:36	23:06:24	1003847	5ab65c67f69e940001d8e06c	3	1	main_z	11	advance_on_keypress_ZEE	140	stimuli_distractor_diamondtriangles.svg	stimuli_target_rectangletriangles.svg	13	yes	57	0	174	0	0			0	0			1				0	
6.6.1	mac	2023-06-26	22:49:36	23:06:25	1005115	5ab65c67f69e940001d8e06c	3	1	main_z	11	main_z	141	stimuli_distractor_trianglediamonds.svg	stimuli_target_squaretriangles.svg	11	yes	44	1	464	0	0			0	0			1				0	
6.6.1	mac	2023-06-26	22:49:36	23:06:25	1005115	5ab65c67f69e940001d8e06c	3	1	main_z	11	advance_on_keypress_ZEE	142	stimuli_distractor_trianglediamonds.svg	stimuli_target_squaretriangles.svg	11	yes	57	0	159	0	0			0	0			1				0	
6.6.1	mac	2023-06-26	22:49:36	23:06:27	1006534	5ab65c67f69e940001d8e06c	3	1	main_z	11	main_z	143	stimuli_distractor_diamondtriangles.svg	stimuli_target_diamondrectangles.svg	31	yes	44	1	616	0	0			0	0			1				0	
6.6.1	mac	2023-06-26	22:49:36	23:06:27	1006534	5ab65c67f69e940001d8e06c	3	1	main_z	11	advance_on_keypress_ZEE	144	stimuli_distractor_diamondtriangles.svg	stimuli_target_diamondrectangles.svg	31	yes	57	0	169	0	0			0	0			1				0	
6.6.1	mac	2023-06-26	22:49:36	23:06:28	1007727	5ab65c67f69e940001d8e06c	3	1	main_z	11	main_z	145	stimuli_target_rectangletriangles.svg	stimuli_distractor_trianglediamonds.svg	1	yes	44	1	395	0	0			0	0			1				0	
6.6.1	mac	2023-06-26	22:49:36	23:06:28	1007727	5ab65c67f69e940001d8e06c	3	1	main_z	11	advance_on_keypress_ZEE	146	stimuli_target_rectangletriangles.svg	stimuli_distractor_trianglediamonds.svg	1	yes	57	0	179	0	0			0	0			1				0	
6.6.1	mac	2023-06-26	22:49:36	23:06:31	1010534	5ab65c67f69e940001d8e06c	3	1	main_z	11	main_z	147	stimuli_distractor_trianglediamonds.svg	stimuli_distractor_trianglediamonds.svg	33	no	0	1	2000	0	0			0	0			1				0	
6.6.1	mac	2023-06-26	22:49:36	23:06:31	1010534	5ab65c67f69e940001d8e06c	3	1	main_z	11	advance_on_keypress_ZEE	148	stimuli_distractor_trianglediamonds.svg	stimuli_distractor_trianglediamonds.svg	33	no	57	0	263	0	0			0	0			1				0	
6.6.1	mac	2023-06-26	22:49:36	23:06:32	1011941	5ab65c67f69e940001d8e06c	3	1	main_z	11	main_z	149	stimuli_distractor_trianglediamonds.svg	stimuli_distractor_diamondtriangles.svg	35	no	44	0	505	0	0			0	0			1				0	
6.6.1	mac	2023-06-26	22:49:36	23:06:32	1011941	5ab65c67f69e940001d8e06c	3	1	main_z	11	advance_on_keypress_ZEE	150	stimuli_distractor_trianglediamonds.svg	stimuli_distractor_diamondtriangles.svg	35	no	57	0	536	0	0			0	0			1				0	
6.6.1	mac	2023-06-26	22:49:36	23:06:34	1013510	5ab65c67f69e940001d8e06c	3	1	main_z	11	main_z	151	stimuli_target_trianglerectangles.svg	stimuli_distractor_diamondtriangles.svg	21	yes	44	1	409	0	0			0	0			1				0	
6.6.1	mac	2023-06-26	22:49:36	23:06:34	1013510	5ab65c67f69e940001d8e06c	3	1	main_z	11	advance_on_keypress_ZEE	152	stimuli_target_trianglerectangles.svg	stimuli_distractor_diamondtriangles.svg	21	yes	57	0	150	0	0			0	0			1				0	
6.6.1	mac	2023-06-26	22:49:36	23:06:35	1014709	5ab65c67f69e940001d8e06c	3	1	main_z	11	main_z	153	stimuli_distractor_diamondtriangles.svg	stimuli_target_squarediamonds.svg	16	yes	44	1	425	0	0			0	0			1				0	
6.6.1	mac	2023-06-26	22:49:36	23:06:35	1014709	5ab65c67f69e940001d8e06c	3	1	main_z	11	advance_on_keypress_ZEE	154	stimuli_distractor_diamondtriangles.svg	stimuli_target_squarediamonds.svg	16	yes	57	0	149	0	0			0	0			1				0	
6.6.1	mac	2023-06-26	22:49:36	23:06:36	1015789	5ab65c67f69e940001d8e06c	3	1	main_z	11	main_z	155	stimuli_target_rectanglediamonds.svg	stimuli_distractor_trianglediamonds.svg	2	yes	44	1	304	0	0			0	0			1				0	
6.6.1	mac	2023-06-26	22:49:36	23:06:36	1015789	5ab65c67f69e940001d8e06c	3	1	main_z	11	advance_on_keypress_ZEE	156	stimuli_target_rectanglediamonds.svg	stimuli_distractor_trianglediamonds.svg	2	yes	57	0	199	0	0			0	0			1				0	
6.6.1	mac	2023-06-26	22:49:36	23:06:37	1017076	5ab65c67f69e940001d8e06c	3	1	main_z	11	main_z	157	stimuli_distractor_trianglediamonds.svg	stimuli_target_rectangletriangles.svg	9	yes	44	1	457	0	0			0	0			1				0	
6.6.1	mac	2023-06-26	22:49:36	23:06:37	1017076	5ab65c67f69e940001d8e06c	3	1	main_z	11	advance_on_keypress_ZEE	158	stimuli_distractor_trianglediamonds.svg	stimuli_target_rectangletriangles.svg	9	yes	57	0	115	0	0			0	0			1				0	
6.6.1	mac	2023-06-26	22:49:36	23:06:38	1018097	5ab65c67f69e940001d8e06c	3	1	main_z	11	main_z	159	stimuli_target_diamondrectangles.svg	stimuli_distractor_diamondtriangles.svg	23	yes	44	1	278	0	0			0	0			1				0	
6.6.1	mac	2023-06-26	22:49:36	23:06:38	1018097	5ab65c67f69e940001d8e06c	3	1	main_z	11	advance_on_keypress_ZEE	160	stimuli_target_diamondrectangles.svg	stimuli_distractor_diamondtriangles.svg	23	yes	57	0	117	0	0			0	0			1				0	
6.6.1	mac	2023-06-26	22:49:36	23:06:38	1018097	5ab65c67f69e940001d8e06c	3	1	headphonecheck_calibration	14	headphonecheck_calibrationIntro	1	stimuli_target_diamondrectangles.svg	stimuli_distractor_diamondtriangles.svg	23	yes	calibrationButton	0	1752	0	0			0	0			1				0	
6.6.1	mac	2023-06-26	22:49:36	23:06:38	1018097	5ab65c67f69e940001d8e06c	3	1	headphonecheck_testphase	15	test_collectResponse	3	stimuli_target_diamondrectangles.svg	stimuli_distractor_diamondtriangles.svg	23	yes	third	1	8600	1	2	antiphase_hc_ios.wav	3	0	0			1				0	
6.6.1	mac	2023-06-26	22:49:36	23:06:38	1018097	5ab65c67f69e940001d8e06c	3	1	headphonecheck_testphase	15	test_collectResponse	6	stimuli_target_diamondrectangles.svg	stimuli_distractor_diamondtriangles.svg	23	yes	third	1	334	2	6	antiphase_hc_ois.wav	3	0	0			1				0	
6.6.1	mac	2023-06-26	22:49:36	23:06:38	1018097	5ab65c67f69e940001d8e06c	3	1	headphonecheck_testphase	15	test_collectResponse	9	stimuli_target_diamondrectangles.svg	stimuli_distractor_diamondtriangles.svg	23	yes	third	0	1769	3	3	antiphase_hc_soi.wav	1	0	0			1				0	
6.6.1	mac	2023-06-26	22:49:36	23:06:38	1018097	5ab65c67f69e940001d8e06c	3	1	headphonecheck_testphase	15	test_collectResponse	12	stimuli_target_diamondrectangles.svg	stimuli_distractor_diamondtriangles.svg	23	yes	third	0	470	4	4	antiphase_hc_sio.wav	1	0	0			1				0	
6.6.1	mac	2023-06-26	22:49:36	23:06:38	1018097	5ab65c67f69e940001d8e06c	3	1	headphonecheck_testphase	15	test_collectResponse	15	stimuli_target_diamondrectangles.svg	stimuli_distractor_diamondtriangles.svg	23	yes	second	1	341	5	5	antiphase_hc_osi.wav	2	0	0			1				0	
6.6.1	mac	2023-06-26	22:49:36	23:06:38	1018097	5ab65c67f69e940001d8e06c	3	1	headphonecheck_testphase	15	test_collectResponse	18	stimuli_target_diamondrectangles.svg	stimuli_distractor_diamondtriangles.svg	23	yes	second	1	7460	6	1	antiphase_hc_iso.wav	2	0	0			1				0	
6.6.1	mac	2023-06-26	22:49:36	23:06:38	1018097	5ab65c67f69e940001d8e06c	3	1	stereocheck_calibration	17	stereocheck_calibrationIntro	1	stimuli_target_diamondrectangles.svg	stimuli_distractor_diamondtriangles.svg	23	yes	stereocheck_calibrationButton	0	8016	6	1	antiphase_hc_iso.wav	2	0	0			1				0	
6.6.1	mac	2023-06-26	22:49:36	23:06:38	1018097	5ab65c67f69e940001d8e06c	3	1	stereocheck_testphase	18	stereocheck_test_collectResponse	3	stimuli_target_diamondrectangles.svg	stimuli_distractor_diamondtriangles.svg	23	yes	stereocheck_left	1	315	6	1	antiphase_hc_iso.wav	2	1	2	noise_calib_stim_LEFT.wav	1	1				0	
6.6.1	mac	2023-06-26	22:49:36	23:06:38	1018097	5ab65c67f69e940001d8e06c	3	1	stereocheck_testphase	18	stereocheck_test_collectResponse	6	stimuli_target_diamondrectangles.svg	stimuli_distractor_diamondtriangles.svg	23	yes	stereocheck_left	1	370	6	1	antiphase_hc_iso.wav	2	2	1	noise_calib_stim_LEFT.wav	1	1				0	
6.6.1	mac	2023-06-26	22:49:36	23:06:38	1018097	5ab65c67f69e940001d8e06c	3	1	stereocheck_testphase	18	stereocheck_test_collectResponse	9	stimuli_target_diamondrectangles.svg	stimuli_distractor_diamondtriangles.svg	23	yes	stereocheck_right	1	1872	6	1	antiphase_hc_iso.wav	2	3	6	noise_calib_stim_RIGHT.wav	2	1				0	
6.6.1	mac	2023-06-26	22:49:36	23:06:38	1018097	5ab65c67f69e940001d8e06c	3	1	stereocheck_testphase	18	stereocheck_test_collectResponse	12	stimuli_target_diamondrectangles.svg	stimuli_distractor_diamondtriangles.svg	23	yes	stereocheck_left	1	239	6	1	antiphase_hc_iso.wav	2	4	3	noise_calib_stim_LEFT.wav	1	1				0	
6.6.1	mac	2023-06-26	22:49:36	23:06:38	1018097	5ab65c67f69e940001d8e06c	3	1	stereocheck_testphase	18	stereocheck_test_collectResponse	15	stimuli_target_diamondrectangles.svg	stimuli_distractor_diamondtriangles.svg	23	yes	stereocheck_right	1	230	6	1	antiphase_hc_iso.wav	2	5	4	noise_calib_stim_RIGHT.wav	2	1				0	
6.6.1	mac	2023-06-26	22:49:36	23:06:38	1018097	5ab65c67f69e940001d8e06c	3	1	stereocheck_testphase	18	stereocheck_test_collectResponse	18	stimuli_target_diamondrectangles.svg	stimuli_distractor_diamondtriangles.svg	23	yes	stereocheck_right	1	392	6	1	antiphase_hc_iso.wav	2	6	5	noise_calib_stim_RIGHT.wav	2	1				0	
6.6.1	mac	2023-06-26	22:49:36	23:06:38	1018097	5ab65c67f69e940001d8e06c	3	1	DL_practice	21	DL_practice	2	stimuli_target_diamondrectangles.svg	stimuli_distractor_diamondtriangles.svg	23	yes	ga	1	1453	6	1	antiphase_hc_iso.wav	2	6	5	noise_calib_stim_RIGHT.wav	2	18	blb_dichoticlistening_ga-ta.mp3	ga	ta	1	left
6.6.1	mac	2023-06-26	22:49:36	23:06:38	1018097	5ab65c67f69e940001d8e06c	3	1	DL_practice	21	DL_practice	3	stimuli_target_diamondrectangles.svg	stimuli_distractor_diamondtriangles.svg	23	yes	ta	1	1250	6	1	antiphase_hc_iso.wav	2	6	5	noise_calib_stim_RIGHT.wav	2	36	blb_dichoticlistening_ta-ta.mp3	ta	ta	0	left
6.6.1	mac	2023-06-26	22:49:36	23:06:38	1018097	5ab65c67f69e940001d8e06c	3	1	DL_practice	21	DL_practice	4	stimuli_target_diamondrectangles.svg	stimuli_distractor_diamondtriangles.svg	23	yes	ka	1	1046	6	1	antiphase_hc_iso.wav	2	6	5	noise_calib_stim_RIGHT.wav	2	22	blb_dichoticlistening_ka-ka.mp3	ka	ka	0	left
6.6.1	mac	2023-06-26	22:49:36	23:06:38	1018097	5ab65c67f69e940001d8e06c	3	1	DL_practice	21	DL_practice	5	stimuli_target_diamondrectangles.svg	stimuli_distractor_diamondtriangles.svg	23	yes	da	1	915	6	1	antiphase_hc_iso.wav	2	6	5	noise_calib_stim_RIGHT.wav	2	7	blb_dichoticlistening_da-ba.mp3	da	ba	1	left
6.6.1	mac	2023-06-26	22:49:36	23:06:38	1018097	5ab65c67f69e940001d8e06c	3	1	DL_practice	21	DL_practice	6	stimuli_target_diamondrectangles.svg	stimuli_distractor_diamondtriangles.svg	23	yes	pa	1	1410	6	1	antiphase_hc_iso.wav	2	6	5	noise_calib_stim_RIGHT.wav	2	29	blb_dichoticlistening_pa-pa.mp3	pa	pa	0	left
6.6.1	mac	2023-06-26	22:49:36	23:06:38	1018097	5ab65c67f69e940001d8e06c	3	1	DL_practice	21	DL_practice	7	stimuli_target_diamondrectangles.svg	stimuli_distractor_diamondtriangles.svg	23	yes	da	1	873	6	1	antiphase_hc_iso.wav	2	6	5	noise_calib_stim_RIGHT.wav	2	8	blb_dichoticlistening_da-da.mp3	da	da	0	left
6.6.1	mac	2023-06-26	22:49:36	23:06:38	1018097	5ab65c67f69e940001d8e06c	3	1	DL_practice	21	DL_practice	8	stimuli_target_diamondrectangles.svg	stimuli_distractor_diamondtriangles.svg	23	yes	pa	0	1069	6	1	antiphase_hc_iso.wav	2	6	5	noise_calib_stim_RIGHT.wav	2	1	blb_dichoticlistening_ba-ba.mp3	ba	ba	0	other
6.6.1	mac	2023-06-26	22:49:36	23:06:38	1018097	5ab65c67f69e940001d8e06c	3	1	DL_practice	21	DL_practice	9	stimuli_target_diamondrectangles.svg	stimuli_distractor_diamondtriangles.svg	23	yes	ga	1	1136	6	1	antiphase_hc_iso.wav	2	6	5	noise_calib_stim_RIGHT.wav	2	15	blb_dichoticlistening_ga-ga.mp3	ga	ga	0	left
6.6.1	mac	2023-06-26	22:49:36	23:06:38	1018097	5ab65c67f69e940001d8e06c	3	1	DL_practice	21	DL_practice	10	stimuli_target_diamondrectangles.svg	stimuli_distractor_diamondtriangles.svg	23	yes	ka	1	1090	6	1	antiphase_hc_iso.wav	2	6	5	noise_calib_stim_RIGHT.wav	2	23	blb_dichoticlistening_ka-pa.mp3	ka	pa	1	left
6.6.1	mac	2023-06-26	22:49:36	23:06:38	1018097	5ab65c67f69e940001d8e06c	3	1	DL_test	23	DL_test	1	stimuli_target_diamondrectangles.svg	stimuli_distractor_diamondtriangles.svg	23	yes	ka	1	864	6	1	antiphase_hc_iso.wav	2	6	5	noise_calib_stim_RIGHT.wav	2	22	blb_dichoticlistening_ka-ka.mp3	ka	ka	0	left
6.6.1	mac	2023-06-26	22:49:36	23:06:38	1018097	5ab65c67f69e940001d8e06c	3	1	DL_test	23	DL_test	2	stimuli_target_diamondrectangles.svg	stimuli_distractor_diamondtriangles.svg	23	yes	ka	1	843	6	1	antiphase_hc_iso.wav	2	6	5	noise_calib_stim_RIGHT.wav	2	23	blb_dichoticlistening_ka-pa.mp3	ka	pa	1	left
6.6.1	mac	2023-06-26	22:49:36	23:06:38	1018097	5ab65c67f69e940001d8e06c	3	1	DL_test	23	DL_test	3	stimuli_target_diamondrectangles.svg	stimuli_distractor_diamondtriangles.svg	23	yes	pa	0	1559	6	1	antiphase_hc_iso.wav	2	6	5	noise_calib_stim_RIGHT.wav	2	10	blb_dichoticlistening_da-ka.mp3	da	ka	1	other
6.6.1	mac	2023-06-26	22:49:36	23:06:38	1018097	5ab65c67f69e940001d8e06c	3	1	DL_test	23	DL_test	4	stimuli_target_diamondrectangles.svg	stimuli_distractor_diamondtriangles.svg	23	yes	ka	1	993	6	1	antiphase_hc_iso.wav	2	6	5	noise_calib_stim_RIGHT.wav	2	21	blb_dichoticlistening_ka-ga.mp3	ka	ga	1	left
6.6.1	mac	2023-06-26	22:49:36	23:06:38	1018097	5ab65c67f69e940001d8e06c	3	1	DL_test	23	DL_test	5	stimuli_target_diamondrectangles.svg	stimuli_distractor_diamondtriangles.svg	23	yes	pa	0	1201	6	1	antiphase_hc_iso.wav	2	6	5	noise_calib_stim_RIGHT.wav	2	4	blb_dichoticlistening_ba-ka.mp3	ba	ka	1	other
6.6.1	mac	2023-06-26	22:49:36	23:06:38	1018097	5ab65c67f69e940001d8e06c	3	1	DL_test	23	DL_test	6	stimuli_target_diamondrectangles.svg	stimuli_distractor_diamondtriangles.svg	23	yes	pa	0	531	6	1	antiphase_hc_iso.wav	2	6	5	noise_calib_stim_RIGHT.wav	2	1	blb_dichoticlistening_ba-ba.mp3	ba	ba	0	other
6.6.1	mac	2023-06-26	22:49:36	23:06:38	1018097	5ab65c67f69e940001d8e06c	3	1	DL_test	23	DL_test	7	stimuli_target_diamondrectangles.svg	stimuli_distractor_diamondtriangles.svg	23	yes	ta	1	1327	6	1	antiphase_hc_iso.wav	2	6	5	noise_calib_stim_RIGHT.wav	2	32	blb_dichoticlistening_ta-da.mp3	ta	da	1	left
6.6.1	mac	2023-06-26	22:49:36	23:06:38	1018097	5ab65c67f69e940001d8e06c	3	1	DL_test	23	DL_test	8	stimuli_target_diamondrectangles.svg	stimuli_distractor_diamondtriangles.svg	23	yes	ta	1	567	6	1	antiphase_hc_iso.wav	2	6	5	noise_calib_stim_RIGHT.wav	2	36	blb_dichoticlistening_ta-ta.mp3	ta	ta	0	left
6.6.1	mac	2023-06-26	22:49:36	23:06:38	1018097	5ab65c67f69e940001d8e06c	3	1	DL_test	23	DL_test	9	stimuli_target_diamondrectangles.svg	stimuli_distractor_diamondtriangles.svg	23	yes	pa	1	797	6	1	antiphase_hc_iso.wav	2	6	5	noise_calib_stim_RIGHT.wav	2	29	blb_dichoticlistening_pa-pa.mp3	pa	pa	0	left
6.6.1	mac	2023-06-26	22:49:36	23:06:38	1018097	5ab65c67f69e940001d8e06c	3	1	DL_test	23	DL_test	10	stimuli_target_diamondrectangles.svg	stimuli_distractor_diamondtriangles.svg	23	yes	pa	1	764	6	1	antiphase_hc_iso.wav	2	6	5	noise_calib_stim_RIGHT.wav	2	26	blb_dichoticlistening_pa-da.mp3	pa	da	1	left
6.6.1	mac	2023-06-26	22:49:36	23:06:38	1018097	5ab65c67f69e940001d8e06c	3	1	DL_test	23	DL_test	11	stimuli_target_diamondrectangles.svg	stimuli_distractor_diamondtriangles.svg	23	yes	pa	0	1575	6	1	antiphase_hc_iso.wav	2	6	5	noise_calib_stim_RIGHT.wav	2	20	blb_dichoticlistening_ka-da.mp3	ka	da	1	other
6.6.1	mac	2023-06-26	22:49:36	23:06:38	1018097	5ab65c67f69e940001d8e06c	3	1	DL_test	23	DL_test	12	stimuli_target_diamondrectangles.svg	stimuli_distractor_diamondtriangles.svg	23	yes	ka	1	955	6	1	antiphase_hc_iso.wav	2	6	5	noise_calib_stim_RIGHT.wav	2	24	blb_dichoticlistening_ka-ta.mp3	ka	ta	1	left
6.6.1	mac	2023-06-26	22:49:36	23:06:38	1018097	5ab65c67f69e940001d8e06c	3	1	DL_test	23	DL_test	13	stimuli_target_diamondrectangles.svg	stimuli_distractor_diamondtriangles.svg	23	yes	ka	1	716	6	1	antiphase_hc_iso.wav	2	6	5	noise_calib_stim_RIGHT.wav	2	34	blb_dichoticlistening_ta-ka.mp3	ta	ka	1	right
6.6.1	mac	2023-06-26	22:49:36	23:06:38	1018097	5ab65c67f69e940001d8e06c	3	1	DL_test	23	DL_test	14	stimuli_target_diamondrectangles.svg	stimuli_distractor_diamondtriangles.svg	23	yes	ga	1	948	6	1	antiphase_hc_iso.wav	2	6	5	noise_calib_stim_RIGHT.wav	2	16	blb_dichoticlistening_ga-ka.mp3	ga	ka	1	left
6.6.1	mac	2023-06-26	22:49:36	23:06:38	1018097	5ab65c67f69e940001d8e06c	3	1	DL_test	23	DL_test	15	stimuli_target_diamondrectangles.svg	stimuli_distractor_diamondtriangles.svg	23	yes	pa	1	1255	6	1	antiphase_hc_iso.wav	2	6	5	noise_calib_stim_RIGHT.wav	2	30	blb_dichoticlistening_pa-ta.mp3	pa	ta	1	left
6.6.1	mac	2023-06-26	22:49:36	23:06:38	1018097	5ab65c67f69e940001d8e06c	3	1	DL_test	23	DL_test	16	stimuli_target_diamondrectangles.svg	stimuli_distractor_diamondtriangles.svg	23	yes	ga	1	1771	6	1	antiphase_hc_iso.wav	2	6	5	noise_calib_stim_RIGHT.wav	2	18	blb_dichoticlistening_ga-ta.mp3	ga	ta	1	left
6.6.1	mac	2023-06-26	22:49:36	23:06:38	1018097	5ab65c67f69e940001d8e06c	3	1	DL_test	23	DL_test	17	stimuli_target_diamondrectangles.svg	stimuli_distractor_diamondtriangles.svg	23	yes	da	1	1510	6	1	antiphase_hc_iso.wav	2	6	5	noise_calib_stim_RIGHT.wav	2	9	blb_dichoticlistening_da-ga.mp3	da	ga	1	left
6.6.1	mac	2023-06-26	22:49:36	23:06:38	1018097	5ab65c67f69e940001d8e06c	3	1	DL_test	23	DL_test	18	stimuli_target_diamondrectangles.svg	stimuli_distractor_diamondtriangles.svg	23	yes	ta	1	1809	6	1	antiphase_hc_iso.wav	2	6	5	noise_calib_stim_RIGHT.wav	2	33	blb_dichoticlistening_ta-ga.mp3	ta	ga	1	left
6.6.1	mac	2023-06-26	22:49:36	23:06:38	1018097	5ab65c67f69e940001d8e06c	3	1	DL_test	23	DL_test	19	stimuli_target_diamondrectangles.svg	stimuli_distractor_diamondtriangles.svg	23	yes	ga	1	976	6	1	antiphase_hc_iso.wav	2	6	5	noise_calib_stim_RIGHT.wav	2	15	blb_dichoticlistening_ga-ga.mp3	ga	ga	0	left
6.6.1	mac	2023-06-26	22:49:36	23:06:38	1018097	5ab65c67f69e940001d8e06c	3	1	DL_test	23	DL_test	20	stimuli_target_diamondrectangles.svg	stimuli_distractor_diamondtriangles.svg	23	yes	ta	1	1121	6	1	antiphase_hc_iso.wav	2	6	5	noise_calib_stim_RIGHT.wav	2	35	blb_dichoticlistening_ta-pa.mp3	ta	pa	1	left
6.6.1	mac	2023-06-26	22:49:36	23:06:38	1018097	5ab65c67f69e940001d8e06c	3	1	DL_test	23	DL_test	21	stimuli_target_diamondrectangles.svg	stimuli_distractor_diamondtriangles.svg	23	yes	ga	1	1088	6	1	antiphase_hc_iso.wav	2	6	5	noise_calib_stim_RIGHT.wav	2	13	blb_dichoticlistening_ga-ba.mp3	ga	ba	1	left
6.6.1	mac	2023-06-26	22:49:36	23:06:38	1018097	5ab65c67f69e940001d8e06c	3	1	DL_test	23	DL_test	22	stimuli_target_diamondrectangles.svg	stimuli_distractor_diamondtriangles.svg	23	yes	ba	1	1366	6	1	antiphase_hc_iso.wav	2	6	5	noise_calib_stim_RIGHT.wav	2	3	blb_dichoticlistening_ba-ga.mp3	ba	ga	1	left
6.6.1	mac	2023-06-26	22:49:36	23:06:38	1018097	5ab65c67f69e940001d8e06c	3	1	DL_test	23	DL_test	23	stimuli_target_diamondrectangles.svg	stimuli_distractor_diamondtriangles.svg	23	yes	pa	1	1573	6	1	antiphase_hc_iso.wav	2	6	5	noise_calib_stim_RIGHT.wav	2	5	blb_dichoticlistening_ba-pa.mp3	ba	pa	1	right
6.6.1	mac	2023-06-26	22:49:36	23:06:38	1018097	5ab65c67f69e940001d8e06c	3	1	DL_test	23	DL_test	24	stimuli_target_diamondrectangles.svg	stimuli_distractor_diamondtriangles.svg	23	yes	ga	1	880	6	1	antiphase_hc_iso.wav	2	6	5	noise_calib_stim_RIGHT.wav	2	17	blb_dichoticlistening_ga-pa.mp3	ga	pa	1	left
6.6.1	mac	2023-06-26	22:49:36	23:06:38	1018097	5ab65c67f69e940001d8e06c	3	1	DL_test	23	DL_test	25	stimuli_target_diamondrectangles.svg	stimuli_distractor_diamondtriangles.svg	23	yes	da	1	1075	6	1	antiphase_hc_iso.wav	2	6	5	noise_calib_stim_RIGHT.wav	2	12	blb_dichoticlistening_da-ta.mp3	da	ta	1	left
