build	computer.platform	date	time	timestamp	time_elapsed_ms	subject	group	session	blockcode	blocknum	trialcode	trialnum	stimulus_left	stimulus_right	stim_index	target_present	response	correct	latency	headphonecheck_countTestTrials	headphonecheck_index	headphonecheck_testSound	headphonecheck_correctResponse	stereocheck_countTestTrials	stereocheck_index	stereocheck_testSound	stereocheck_correctResponse	DL_index	DL_soundfile	DL_leftSound	DL_rightSound	DL_dualSound	DL_choice
6.6.1	win	2023-06-12	17:50:56	17:52:52	111435	610acf76d33d448b391eb588	4	1	practice_z	5	practice_z	1	stimuli_target_rectanglediamonds.svg	stimuli_distractor_diamondtriangles.svg	1	yes	44	1	966	0	0			0	0			1				0	
6.6.1	win	2023-06-12	17:50:56	17:52:52	111435	610acf76d33d448b391eb588	4	1	practice_z	5	advance_on_keypress_ZEE	2	stimuli_target_rectanglediamonds.svg	stimuli_distractor_diamondtriangles.svg	1	yes	57	0	1066	0	0			0	0			1				0	
6.6.1	win	2023-06-12	17:50:56	17:52:57	116167	610acf76d33d448b391eb588	4	1	practice_z	5	practice_z	3	stimuli_distractor_trianglediamonds.svg	stimuli_distractor_trianglediamonds.svg	15	no	0	1	2000	0	0			0	0			1				0	
6.6.1	win	2023-06-12	17:50:56	17:52:57	116167	610acf76d33d448b391eb588	4	1	practice_z	5	advance_on_keypress_ZEE	4	stimuli_distractor_trianglediamonds.svg	stimuli_distractor_trianglediamonds.svg	15	no	57	0	486	0	0			0	0			1				0	
6.6.1	win	2023-06-12	17:50:56	17:53:00	119291	610acf76d33d448b391eb588	4	1	practice_z	5	practice_z	5	stimuli_target_rectanglediamonds.svg	stimuli_distractor_trianglediamonds.svg	4	yes	44	1	991	0	0			0	0			1				0	
6.6.1	win	2023-06-12	17:50:56	17:53:00	119291	610acf76d33d448b391eb588	4	1	practice_z	5	advance_on_keypress_ZEE	6	stimuli_target_rectanglediamonds.svg	stimuli_distractor_trianglediamonds.svg	4	yes	57	0	582	0	0			0	0			1				0	
6.6.1	win	2023-06-12	17:50:56	17:53:04	123532	610acf76d33d448b391eb588	4	1	practice_z	5	practice_z	7	stimuli_distractor_diamondtriangles.svg	stimuli_target_trianglerectangles.svg	9	yes	0	0	2000	0	0			0	0			1				0	
6.6.1	win	2023-06-12	17:50:56	17:53:04	123532	610acf76d33d448b391eb588	4	1	practice_z	5	advance_on_keypress_ZEE	8	stimuli_distractor_diamondtriangles.svg	stimuli_target_trianglerectangles.svg	9	yes	57	0	444	0	0			0	0			1				0	
6.6.1	win	2023-06-12	17:50:56	17:53:07	126174	610acf76d33d448b391eb588	4	1	practice_z	5	practice_z	9	stimuli_distractor_trianglediamonds.svg	stimuli_target_rectanglediamonds.svg	10	yes	44	1	543	0	0			0	0			1				0	
6.6.1	win	2023-06-12	17:50:56	17:53:07	126174	610acf76d33d448b391eb588	4	1	practice_z	5	advance_on_keypress_ZEE	10	stimuli_distractor_trianglediamonds.svg	stimuli_target_rectanglediamonds.svg	10	yes	57	0	673	0	0			0	0			1				0	
6.6.1	win	2023-06-12	17:50:56	17:53:11	130497	610acf76d33d448b391eb588	4	1	practice_z	5	practice_z	11	stimuli_distractor_diamondtriangles.svg	stimuli_distractor_trianglediamonds.svg	14	no	0	1	2000	0	0			0	0			1				0	
6.6.1	win	2023-06-12	17:50:56	17:53:11	130497	610acf76d33d448b391eb588	4	1	practice_z	5	advance_on_keypress_ZEE	12	stimuli_distractor_diamondtriangles.svg	stimuli_distractor_trianglediamonds.svg	14	no	57	0	408	0	0			0	0			1				0	
6.6.1	win	2023-06-12	17:50:56	17:53:14	133077	610acf76d33d448b391eb588	4	1	practice_z	5	practice_z	13	stimuli_target_diamondsquares.svg	stimuli_distractor_trianglediamonds.svg	6	yes	44	1	515	0	0			0	0			1				0	
6.6.1	win	2023-06-12	17:50:56	17:53:14	133077	610acf76d33d448b391eb588	4	1	practice_z	5	advance_on_keypress_ZEE	14	stimuli_target_diamondsquares.svg	stimuli_distractor_trianglediamonds.svg	6	yes	57	0	458	0	0			0	0			1				0	
6.6.1	win	2023-06-12	17:50:56	17:53:16	135870	610acf76d33d448b391eb588	4	1	practice_z	5	practice_z	15	stimuli_distractor_trianglediamonds.svg	stimuli_target_diamondrectangles.svg	12	yes	44	1	676	0	0			0	0			1				0	
6.6.1	win	2023-06-12	17:50:56	17:53:16	135870	610acf76d33d448b391eb588	4	1	practice_z	5	advance_on_keypress_ZEE	16	stimuli_distractor_trianglediamonds.svg	stimuli_target_diamondrectangles.svg	12	yes	57	0	297	0	0			0	0			1				0	
6.6.1	win	2023-06-12	17:50:56	17:53:19	138239	610acf76d33d448b391eb588	4	1	practice_z	5	practice_z	17	stimuli_target_squarediamonds.svg	stimuli_distractor_diamondtriangles.svg	2	yes	44	1	411	0	0			0	0			1				0	
6.6.1	win	2023-06-12	17:50:56	17:53:19	138239	610acf76d33d448b391eb588	4	1	practice_z	5	advance_on_keypress_ZEE	18	stimuli_target_squarediamonds.svg	stimuli_distractor_diamondtriangles.svg	2	yes	57	0	280	0	0			0	0			1				0	
6.6.1	win	2023-06-12	17:50:56	17:53:21	140847	610acf76d33d448b391eb588	4	1	practice_z	5	practice_z	19	stimuli_target_diamondsquares.svg	stimuli_distractor_diamondtriangles.svg	3	yes	44	1	671	0	0			0	0			1				0	
6.6.1	win	2023-06-12	17:50:56	17:53:21	140847	610acf76d33d448b391eb588	4	1	practice_z	5	advance_on_keypress_ZEE	20	stimuli_target_diamondsquares.svg	stimuli_distractor_diamondtriangles.svg	3	yes	57	0	389	0	0			0	0			1				0	
6.6.1	win	2023-06-12	17:50:56	17:53:24	143281	610acf76d33d448b391eb588	4	1	practice_z	5	practice_z	21	stimuli_distractor_diamondtriangles.svg	stimuli_target_rectangletriangles.svg	7	yes	44	1	389	0	0			0	0			1				0	
6.6.1	win	2023-06-12	17:50:56	17:53:24	143281	610acf76d33d448b391eb588	4	1	practice_z	5	advance_on_keypress_ZEE	22	stimuli_distractor_diamondtriangles.svg	stimuli_target_rectangletriangles.svg	7	yes	57	0	336	0	0			0	0			1				0	
6.6.1	win	2023-06-12	17:50:56	17:53:28	147258	610acf76d33d448b391eb588	4	1	practice_z	5	practice_z	23	stimuli_distractor_diamondtriangles.svg	stimuli_distractor_diamondtriangles.svg	13	no	0	1	2000	0	0			0	0			1				0	
6.6.1	win	2023-06-12	17:50:56	17:53:28	147258	610acf76d33d448b391eb588	4	1	practice_z	5	advance_on_keypress_ZEE	24	stimuli_distractor_diamondtriangles.svg	stimuli_distractor_diamondtriangles.svg	13	no	57	0	289	0	0			0	0			1				0	
6.6.1	win	2023-06-12	17:50:56	17:53:30	149715	610acf76d33d448b391eb588	4	1	practice_z	5	practice_z	25	stimuli_distractor_diamondtriangles.svg	stimuli_target_diamondrectangles.svg	8	yes	44	1	524	0	0			0	0			1				0	
6.6.1	win	2023-06-12	17:50:56	17:53:30	149715	610acf76d33d448b391eb588	4	1	practice_z	5	advance_on_keypress_ZEE	26	stimuli_distractor_diamondtriangles.svg	stimuli_target_diamondrectangles.svg	8	yes	57	0	377	0	0			0	0			1				0	
6.6.1	win	2023-06-12	17:50:56	17:53:33	152143	610acf76d33d448b391eb588	4	1	practice_z	5	practice_z	27	stimuli_target_squarediamonds.svg	stimuli_distractor_trianglediamonds.svg	5	yes	44	1	388	0	0			0	0			1				0	
6.6.1	win	2023-06-12	17:50:56	17:53:33	152143	610acf76d33d448b391eb588	4	1	practice_z	5	advance_on_keypress_ZEE	28	stimuli_target_squarediamonds.svg	stimuli_distractor_trianglediamonds.svg	5	yes	57	0	270	0	0			0	0			1				0	
6.6.1	win	2023-06-12	17:50:56	17:53:37	156055	610acf76d33d448b391eb588	4	1	practice_z	5	practice_z	29	stimuli_distractor_trianglediamonds.svg	stimuli_distractor_diamondtriangles.svg	16	no	0	1	2000	0	0			0	0			1				0	
6.6.1	win	2023-06-12	17:50:56	17:53:37	156055	610acf76d33d448b391eb588	4	1	practice_z	5	advance_on_keypress_ZEE	30	stimuli_distractor_trianglediamonds.svg	stimuli_distractor_diamondtriangles.svg	16	no	57	0	285	0	0			0	0			1				0	
6.6.1	win	2023-06-12	17:50:56	17:53:39	158425	610acf76d33d448b391eb588	4	1	practice_z	5	practice_z	31	stimuli_distractor_trianglediamonds.svg	stimuli_target_squarediamonds.svg	11	yes	44	1	438	0	0			0	0			1				0	
6.6.1	win	2023-06-12	17:50:56	17:53:39	158425	610acf76d33d448b391eb588	4	1	practice_z	5	advance_on_keypress_ZEE	32	stimuli_distractor_trianglediamonds.svg	stimuli_target_squarediamonds.svg	11	yes	57	0	19	0	0			0	0			1				0	
6.6.1	win	2023-06-12	17:50:56	17:53:45	164695	610acf76d33d448b391eb588	4	1	main_z	7	main_z	1	stimuli_distractor_diamondtriangles.svg	stimuli_target_rectanglediamonds.svg	14	yes	44	1	376	0	0			0	0			1				0	
6.6.1	win	2023-06-12	17:50:56	17:53:45	164695	610acf76d33d448b391eb588	4	1	main_z	7	advance_on_keypress_ZEE	2	stimuli_distractor_diamondtriangles.svg	stimuli_target_rectanglediamonds.svg	14	yes	57	0	950	0	0			0	0			1				0	
6.6.1	win	2023-06-12	17:50:56	17:53:47	166661	610acf76d33d448b391eb588	4	1	main_z	7	main_z	3	stimuli_target_rectanglediamonds.svg	stimuli_distractor_trianglediamonds.svg	2	yes	44	1	364	0	0			0	0			1				0	
6.6.1	win	2023-06-12	17:50:56	17:53:47	166661	610acf76d33d448b391eb588	4	1	main_z	7	advance_on_keypress_ZEE	4	stimuli_target_rectanglediamonds.svg	stimuli_distractor_trianglediamonds.svg	2	yes	57	0	535	0	0			0	0			1				0	
6.6.1	win	2023-06-12	17:50:56	17:53:49	168237	610acf76d33d448b391eb588	4	1	main_z	7	main_z	5	stimuli_distractor_trianglediamonds.svg	stimuli_target_rectangletriangles.svg	9	yes	44	1	390	0	0			0	0			1				0	
6.6.1	win	2023-06-12	17:50:56	17:53:49	168237	610acf76d33d448b391eb588	4	1	main_z	7	advance_on_keypress_ZEE	6	stimuli_distractor_trianglediamonds.svg	stimuli_target_rectangletriangles.svg	9	yes	57	0	489	0	0			0	0			1				0	
6.6.1	win	2023-06-12	17:50:56	17:53:50	169899	610acf76d33d448b391eb588	4	1	main_z	7	main_z	7	stimuli_target_trianglesquares.svg	stimuli_distractor_trianglediamonds.svg	18	yes	44	1	535	0	0			0	0			1				0	
6.6.1	win	2023-06-12	17:50:56	17:53:50	169899	610acf76d33d448b391eb588	4	1	main_z	7	advance_on_keypress_ZEE	8	stimuli_target_trianglesquares.svg	stimuli_distractor_trianglediamonds.svg	18	yes	57	0	444	0	0			0	0			1				0	
6.6.1	win	2023-06-12	17:50:56	17:53:52	171345	610acf76d33d448b391eb588	4	1	main_z	7	main_z	9	stimuli_distractor_trianglediamonds.svg	stimuli_distractor_trianglediamonds.svg	34	no	44	0	348	0	0			0	0			1				0	
6.6.1	win	2023-06-12	17:50:56	17:53:52	171345	610acf76d33d448b391eb588	4	1	main_z	7	advance_on_keypress_ZEE	10	stimuli_distractor_trianglediamonds.svg	stimuli_distractor_trianglediamonds.svg	34	no	57	0	1015	0	0			0	0			1				0	
6.6.1	win	2023-06-12	17:50:56	17:53:54	173993	610acf76d33d448b391eb588	4	1	main_z	7	main_z	11	stimuli_target_trianglerectangles.svg	stimuli_distractor_trianglediamonds.svg	17	yes	44	1	981	0	0			0	0			1				0	
6.6.1	win	2023-06-12	17:50:56	17:53:54	173993	610acf76d33d448b391eb588	4	1	main_z	7	advance_on_keypress_ZEE	12	stimuli_target_trianglerectangles.svg	stimuli_distractor_trianglediamonds.svg	17	yes	57	0	540	0	0			0	0			1				0	
6.6.1	win	2023-06-12	17:50:56	17:53:56	175515	610acf76d33d448b391eb588	4	1	main_z	7	main_z	13	stimuli_target_squarediamonds.svg	stimuli_distractor_diamondtriangles.svg	8	yes	44	1	336	0	0			0	0			1				0	
6.6.1	win	2023-06-12	17:50:56	17:53:56	175515	610acf76d33d448b391eb588	4	1	main_z	7	advance_on_keypress_ZEE	14	stimuli_target_squarediamonds.svg	stimuli_distractor_diamondtriangles.svg	8	yes	57	0	455	0	0			0	0			1				0	
6.6.1	win	2023-06-12	17:50:56	17:53:58	177131	610acf76d33d448b391eb588	4	1	main_z	7	main_z	15	stimuli_distractor_diamondtriangles.svg	stimuli_target_trianglesquares.svg	30	yes	44	1	520	0	0			0	0			1				0	
6.6.1	win	2023-06-12	17:50:56	17:53:58	177131	610acf76d33d448b391eb588	4	1	main_z	7	advance_on_keypress_ZEE	16	stimuli_distractor_diamondtriangles.svg	stimuli_target_trianglesquares.svg	30	yes	57	0	410	0	0			0	0			1				0	
6.6.1	win	2023-06-12	17:50:56	17:53:59	178579	610acf76d33d448b391eb588	4	1	main_z	7	main_z	17	stimuli_distractor_diamondtriangles.svg	stimuli_target_squaretriangles.svg	15	yes	44	1	383	0	0			0	0			1				0	
6.6.1	win	2023-06-12	17:50:56	17:53:59	178579	610acf76d33d448b391eb588	4	1	main_z	7	advance_on_keypress_ZEE	18	stimuli_distractor_diamondtriangles.svg	stimuli_target_squaretriangles.svg	15	yes	57	0	372	0	0			0	0			1				0	
6.6.1	win	2023-06-12	17:50:56	17:54:02	181593	610acf76d33d448b391eb588	4	1	main_z	7	main_z	19	stimuli_distractor_diamondtriangles.svg	stimuli_distractor_trianglediamonds.svg	37	no	0	1	2000	0	0			0	0			1				0	
6.6.1	win	2023-06-12	17:50:56	17:54:02	181593	610acf76d33d448b391eb588	4	1	main_z	7	advance_on_keypress_ZEE	20	stimuli_distractor_diamondtriangles.svg	stimuli_distractor_trianglediamonds.svg	37	no	57	0	329	0	0			0	0			1				0	
6.6.1	win	2023-06-12	17:50:56	17:54:03	182939	610acf76d33d448b391eb588	4	1	main_z	7	main_z	21	stimuli_distractor_trianglediamonds.svg	stimuli_distractor_diamondtriangles.svg	36	no	44	0	364	0	0			0	0			1				0	
6.6.1	win	2023-06-12	17:50:56	17:54:03	182939	610acf76d33d448b391eb588	4	1	main_z	7	advance_on_keypress_ZEE	22	stimuli_distractor_trianglediamonds.svg	stimuli_distractor_diamondtriangles.svg	36	no	57	0	600	0	0			0	0			1				0	
6.6.1	win	2023-06-12	17:50:56	17:54:05	184806	610acf76d33d448b391eb588	4	1	main_z	7	main_z	23	stimuli_target_diamondrectangles.svg	stimuli_distractor_trianglediamonds.svg	19	yes	44	1	614	0	0			0	0			1				0	
6.6.1	win	2023-06-12	17:50:56	17:54:05	184806	610acf76d33d448b391eb588	4	1	main_z	7	advance_on_keypress_ZEE	24	stimuli_target_diamondrectangles.svg	stimuli_distractor_trianglediamonds.svg	19	yes	57	0	425	0	0			0	0			1				0	
6.6.1	win	2023-06-12	17:50:56	17:54:07	186347	610acf76d33d448b391eb588	4	1	main_z	7	main_z	25	stimuli_distractor_diamondtriangles.svg	stimuli_target_diamondrectangles.svg	31	yes	44	1	472	0	0			0	0			1				0	
6.6.1	win	2023-06-12	17:50:56	17:54:07	186347	610acf76d33d448b391eb588	4	1	main_z	7	advance_on_keypress_ZEE	26	stimuli_distractor_diamondtriangles.svg	stimuli_target_diamondrectangles.svg	31	yes	57	0	353	0	0			0	0			1				0	
6.6.1	win	2023-06-12	17:50:56	17:54:08	187854	610acf76d33d448b391eb588	4	1	main_z	7	main_z	27	stimuli_distractor_diamondtriangles.svg	stimuli_target_diamondsquares.svg	32	yes	44	1	512	0	0			0	0			1				0	
6.6.1	win	2023-06-12	17:50:56	17:54:08	187854	610acf76d33d448b391eb588	4	1	main_z	7	advance_on_keypress_ZEE	28	stimuli_distractor_diamondtriangles.svg	stimuli_target_diamondsquares.svg	32	yes	57	0	433	0	0			0	0			1				0	
6.6.1	win	2023-06-12	17:50:56	17:54:10	189343	610acf76d33d448b391eb588	4	1	main_z	7	main_z	29	stimuli_target_squaretriangles.svg	stimuli_distractor_diamondtriangles.svg	7	yes	44	1	403	0	0			0	0			1				0	
6.6.1	win	2023-06-12	17:50:56	17:54:10	189343	610acf76d33d448b391eb588	4	1	main_z	7	advance_on_keypress_ZEE	30	stimuli_target_squaretriangles.svg	stimuli_distractor_diamondtriangles.svg	7	yes	57	0	351	0	0			0	0			1				0	
6.6.1	win	2023-06-12	17:50:56	17:54:12	191035	610acf76d33d448b391eb588	4	1	main_z	7	main_z	31	stimuli_target_rectanglediamonds.svg	stimuli_distractor_diamondtriangles.svg	6	yes	44	1	696	0	0			0	0			1				0	
6.6.1	win	2023-06-12	17:50:56	17:54:12	191035	610acf76d33d448b391eb588	4	1	main_z	7	advance_on_keypress_ZEE	32	stimuli_target_rectanglediamonds.svg	stimuli_distractor_diamondtriangles.svg	6	yes	57	0	445	0	0			0	0			1				0	
6.6.1	win	2023-06-12	17:50:56	17:54:15	194122	610acf76d33d448b391eb588	4	1	main_z	7	main_z	33	stimuli_distractor_diamondtriangles.svg	stimuli_distractor_diamondtriangles.svg	39	no	0	1	2000	0	0			0	0			1				0	
6.6.1	win	2023-06-12	17:50:56	17:54:15	194122	610acf76d33d448b391eb588	4	1	main_z	7	advance_on_keypress_ZEE	34	stimuli_distractor_diamondtriangles.svg	stimuli_distractor_diamondtriangles.svg	39	no	57	0	447	0	0			0	0			1				0	
6.6.1	win	2023-06-12	17:50:56	17:54:16	195698	610acf76d33d448b391eb588	4	1	main_z	7	main_z	35	stimuli_target_diamondsquares.svg	stimuli_distractor_diamondtriangles.svg	24	yes	44	1	476	0	0			0	0			1				0	
6.6.1	win	2023-06-12	17:50:56	17:54:16	195698	610acf76d33d448b391eb588	4	1	main_z	7	advance_on_keypress_ZEE	36	stimuli_target_diamondsquares.svg	stimuli_distractor_diamondtriangles.svg	24	yes	57	0	367	0	0			0	0			1				0	
6.6.1	win	2023-06-12	17:50:56	17:54:18	197159	610acf76d33d448b391eb588	4	1	main_z	7	main_z	37	stimuli_target_diamondrectangles.svg	stimuli_distractor_diamondtriangles.svg	23	yes	44	1	454	0	0			0	0			1				0	
6.6.1	win	2023-06-12	17:50:56	17:54:18	197159	610acf76d33d448b391eb588	4	1	main_z	7	advance_on_keypress_ZEE	38	stimuli_target_diamondrectangles.svg	stimuli_distractor_diamondtriangles.svg	23	yes	57	0	367	0	0			0	0			1				0	
6.6.1	win	2023-06-12	17:50:56	17:54:19	198581	610acf76d33d448b391eb588	4	1	main_z	7	main_z	39	stimuli_target_rectangletriangles.svg	stimuli_distractor_diamondtriangles.svg	5	yes	44	1	410	0	0			0	0			1				0	
6.6.1	win	2023-06-12	17:50:56	17:54:19	198581	610acf76d33d448b391eb588	4	1	main_z	7	advance_on_keypress_ZEE	40	stimuli_target_rectangletriangles.svg	stimuli_distractor_diamondtriangles.svg	5	yes	57	0	345	0	0			0	0			1				0	
6.6.1	win	2023-06-12	17:50:56	17:54:21	200200	610acf76d33d448b391eb588	4	1	main_z	7	main_z	41	stimuli_distractor_diamondtriangles.svg	stimuli_target_squarediamonds.svg	16	yes	44	1	614	0	0			0	0			1				0	
6.6.1	win	2023-06-12	17:50:56	17:54:21	200200	610acf76d33d448b391eb588	4	1	main_z	7	advance_on_keypress_ZEE	42	stimuli_distractor_diamondtriangles.svg	stimuli_target_squarediamonds.svg	16	yes	57	0	380	0	0			0	0			1				0	
6.6.1	win	2023-06-12	17:50:56	17:54:22	201647	610acf76d33d448b391eb588	4	1	main_z	7	main_z	43	stimuli_target_squarediamonds.svg	stimuli_distractor_trianglediamonds.svg	4	yes	44	1	411	0	0			0	0			1				0	
6.6.1	win	2023-06-12	17:50:56	17:54:22	201647	610acf76d33d448b391eb588	4	1	main_z	7	advance_on_keypress_ZEE	44	stimuli_target_squarediamonds.svg	stimuli_distractor_trianglediamonds.svg	4	yes	57	0	283	0	0			0	0			1				0	
6.6.1	win	2023-06-12	17:50:56	17:54:24	203067	610acf76d33d448b391eb588	4	1	main_z	7	main_z	45	stimuli_target_rectangletriangles.svg	stimuli_distractor_trianglediamonds.svg	1	yes	44	1	499	0	0			0	0			1				0	
6.6.1	win	2023-06-12	17:50:56	17:54:24	203067	610acf76d33d448b391eb588	4	1	main_z	7	advance_on_keypress_ZEE	46	stimuli_target_rectangletriangles.svg	stimuli_distractor_trianglediamonds.svg	1	yes	57	0	217	0	0			0	0			1				0	
6.6.1	win	2023-06-12	17:50:56	17:54:25	204579	610acf76d33d448b391eb588	4	1	main_z	7	main_z	47	stimuli_distractor_diamondtriangles.svg	stimuli_target_trianglerectangles.svg	29	yes	44	1	644	0	0			0	0			1				0	
6.6.1	win	2023-06-12	17:50:56	17:54:25	204579	610acf76d33d448b391eb588	4	1	main_z	7	advance_on_keypress_ZEE	48	stimuli_distractor_diamondtriangles.svg	stimuli_target_trianglerectangles.svg	29	yes	57	0	277	0	0			0	0			1				0	
6.6.1	win	2023-06-12	17:50:56	17:54:27	206051	610acf76d33d448b391eb588	4	1	main_z	7	main_z	49	stimuli_distractor_diamondtriangles.svg	stimuli_target_rectangletriangles.svg	13	yes	44	1	549	0	0			0	0			1				0	
6.6.1	win	2023-06-12	17:50:56	17:54:27	206051	610acf76d33d448b391eb588	4	1	main_z	7	advance_on_keypress_ZEE	50	stimuli_distractor_diamondtriangles.svg	stimuli_target_rectangletriangles.svg	13	yes	57	0	217	0	0			0	0			1				0	
6.6.1	win	2023-06-12	17:50:56	17:54:28	207741	610acf76d33d448b391eb588	4	1	main_z	7	main_z	51	stimuli_distractor_trianglediamonds.svg	stimuli_target_trianglerectangles.svg	25	yes	44	1	823	0	0			0	0			1				0	
6.6.1	win	2023-06-12	17:50:56	17:54:28	207741	610acf76d33d448b391eb588	4	1	main_z	7	advance_on_keypress_ZEE	52	stimuli_distractor_trianglediamonds.svg	stimuli_target_trianglerectangles.svg	25	yes	57	0	260	0	0			0	0			1				0	
6.6.1	win	2023-06-12	17:50:56	17:54:30	209192	610acf76d33d448b391eb588	4	1	main_z	7	main_z	53	stimuli_target_squaretriangles.svg	stimuli_distractor_trianglediamonds.svg	3	yes	44	1	559	0	0			0	0			1				0	
6.6.1	win	2023-06-12	17:50:56	17:54:30	209192	610acf76d33d448b391eb588	4	1	main_z	7	advance_on_keypress_ZEE	54	stimuli_target_squaretriangles.svg	stimuli_distractor_trianglediamonds.svg	3	yes	57	0	286	0	0			0	0			1				0	
6.6.1	win	2023-06-12	17:50:56	17:54:31	210684	610acf76d33d448b391eb588	4	1	main_z	7	main_z	55	stimuli_distractor_trianglediamonds.svg	stimuli_target_diamondsquares.svg	28	yes	44	1	568	0	0			0	0			1				0	
6.6.1	win	2023-06-12	17:50:56	17:54:31	210684	610acf76d33d448b391eb588	4	1	main_z	7	advance_on_keypress_ZEE	56	stimuli_distractor_trianglediamonds.svg	stimuli_target_diamondsquares.svg	28	yes	57	0	178	0	0			0	0			1				0	
6.6.1	win	2023-06-12	17:50:56	17:54:33	212130	610acf76d33d448b391eb588	4	1	main_z	7	main_z	57	stimuli_target_trianglerectangles.svg	stimuli_distractor_diamondtriangles.svg	21	yes	44	1	615	0	0			0	0			1				0	
6.6.1	win	2023-06-12	17:50:56	17:54:33	212130	610acf76d33d448b391eb588	4	1	main_z	7	advance_on_keypress_ZEE	58	stimuli_target_trianglerectangles.svg	stimuli_distractor_diamondtriangles.svg	21	yes	57	0	176	0	0			0	0			1				0	
6.6.1	win	2023-06-12	17:50:56	17:54:35	214949	610acf76d33d448b391eb588	4	1	main_z	7	main_z	59	stimuli_distractor_diamondtriangles.svg	stimuli_distractor_trianglediamonds.svg	38	no	0	1	2000	0	0			0	0			1				0	
6.6.1	win	2023-06-12	17:50:56	17:54:35	214949	610acf76d33d448b391eb588	4	1	main_z	7	advance_on_keypress_ZEE	60	stimuli_distractor_diamondtriangles.svg	stimuli_distractor_trianglediamonds.svg	38	no	57	0	896	0	0			0	0			1				0	
6.6.1	win	2023-06-12	17:50:56	17:54:37	216918	610acf76d33d448b391eb588	4	1	main_z	7	main_z	61	stimuli_distractor_trianglediamonds.svg	stimuli_target_squaretriangles.svg	11	yes	44	1	420	0	0			0	0			1				0	
6.6.1	win	2023-06-12	17:50:56	17:54:37	216918	610acf76d33d448b391eb588	4	1	main_z	7	advance_on_keypress_ZEE	62	stimuli_distractor_trianglediamonds.svg	stimuli_target_squaretriangles.svg	11	yes	57	0	307	0	0			0	0			1				0	
6.6.1	win	2023-06-12	17:50:56	17:54:40	219863	610acf76d33d448b391eb588	4	1	main_z	7	main_z	63	stimuli_distractor_trianglediamonds.svg	stimuli_distractor_trianglediamonds.svg	33	no	0	1	2000	0	0			0	0			1				0	
6.6.1	win	2023-06-12	17:50:56	17:54:40	219863	610acf76d33d448b391eb588	4	1	main_z	7	advance_on_keypress_ZEE	64	stimuli_distractor_trianglediamonds.svg	stimuli_distractor_trianglediamonds.svg	33	no	57	0	470	0	0			0	0			1				0	
6.6.1	win	2023-06-12	17:50:56	17:54:42	221537	610acf76d33d448b391eb588	4	1	main_z	7	main_z	65	stimuli_distractor_trianglediamonds.svg	stimuli_target_squarediamonds.svg	12	yes	44	1	557	0	0			0	0			1				0	
6.6.1	win	2023-06-12	17:50:56	17:54:42	221537	610acf76d33d448b391eb588	4	1	main_z	7	advance_on_keypress_ZEE	66	stimuli_distractor_trianglediamonds.svg	stimuli_target_squarediamonds.svg	12	yes	57	0	204	0	0			0	0			1				0	
6.6.1	win	2023-06-12	17:50:56	17:54:43	222973	610acf76d33d448b391eb588	4	1	main_z	7	main_z	67	stimuli_distractor_trianglediamonds.svg	stimuli_target_diamondrectangles.svg	27	yes	44	1	594	0	0			0	0			1				0	
6.6.1	win	2023-06-12	17:50:56	17:54:43	222973	610acf76d33d448b391eb588	4	1	main_z	7	advance_on_keypress_ZEE	68	stimuli_distractor_trianglediamonds.svg	stimuli_target_diamondrectangles.svg	27	yes	57	0	177	0	0			0	0			1				0	
6.6.1	win	2023-06-12	17:50:56	17:54:45	224469	610acf76d33d448b391eb588	4	1	main_z	7	main_z	69	stimuli_target_trianglesquares.svg	stimuli_distractor_diamondtriangles.svg	22	yes	44	1	657	0	0			0	0			1				0	
6.6.1	win	2023-06-12	17:50:56	17:54:45	224469	610acf76d33d448b391eb588	4	1	main_z	7	advance_on_keypress_ZEE	70	stimuli_target_trianglesquares.svg	stimuli_distractor_diamondtriangles.svg	22	yes	57	0	195	0	0			0	0			1				0	
6.6.1	win	2023-06-12	17:50:56	17:54:48	227311	610acf76d33d448b391eb588	4	1	main_z	7	main_z	71	stimuli_distractor_trianglediamonds.svg	stimuli_distractor_diamondtriangles.svg	35	no	0	1	2000	0	0			0	0			1				0	
6.6.1	win	2023-06-12	17:50:56	17:54:48	227311	610acf76d33d448b391eb588	4	1	main_z	7	advance_on_keypress_ZEE	72	stimuli_distractor_trianglediamonds.svg	stimuli_distractor_diamondtriangles.svg	35	no	57	0	869	0	0			0	0			1				0	
6.6.1	win	2023-06-12	17:50:56	17:54:50	229341	610acf76d33d448b391eb588	4	1	main_z	7	main_z	73	stimuli_distractor_trianglediamonds.svg	stimuli_target_rectanglediamonds.svg	10	yes	44	1	506	0	0			0	0			1				0	
6.6.1	win	2023-06-12	17:50:56	17:54:50	229341	610acf76d33d448b391eb588	4	1	main_z	7	advance_on_keypress_ZEE	74	stimuli_distractor_trianglediamonds.svg	stimuli_target_rectanglediamonds.svg	10	yes	57	0	267	0	0			0	0			1				0	
6.6.1	win	2023-06-12	17:50:56	17:54:51	230714	610acf76d33d448b391eb588	4	1	main_z	7	main_z	75	stimuli_distractor_trianglediamonds.svg	stimuli_target_trianglesquares.svg	26	yes	44	1	454	0	0			0	0			1				0	
6.6.1	win	2023-06-12	17:50:56	17:54:51	230714	610acf76d33d448b391eb588	4	1	main_z	7	advance_on_keypress_ZEE	76	stimuli_distractor_trianglediamonds.svg	stimuli_target_trianglesquares.svg	26	yes	57	0	262	0	0			0	0			1				0	
6.6.1	win	2023-06-12	17:50:56	17:54:53	232120	610acf76d33d448b391eb588	4	1	main_z	7	main_z	77	stimuli_target_diamondsquares.svg	stimuli_distractor_trianglediamonds.svg	20	yes	44	1	495	0	0			0	0			1				0	
6.6.1	win	2023-06-12	17:50:56	17:54:53	232120	610acf76d33d448b391eb588	4	1	main_z	7	advance_on_keypress_ZEE	78	stimuli_target_diamondsquares.svg	stimuli_distractor_trianglediamonds.svg	20	yes	57	0	187	0	0			0	0			1				0	
6.6.1	win	2023-06-12	17:50:56	17:54:55	234958	610acf76d33d448b391eb588	4	1	main_z	7	main_z	79	stimuli_distractor_diamondtriangles.svg	stimuli_distractor_diamondtriangles.svg	40	no	0	1	2000	0	0			0	0			1				0	
6.6.1	win	2023-06-12	17:50:56	17:54:55	234958	610acf76d33d448b391eb588	4	1	main_z	7	advance_on_keypress_ZEE	80	stimuli_distractor_diamondtriangles.svg	stimuli_distractor_diamondtriangles.svg	40	no	57	0	337	0	0			0	0			1				0	
6.6.1	win	2023-06-12	17:50:56	17:54:57	236356	610acf76d33d448b391eb588	4	1	main_z	7	main_z	81	stimuli_target_diamondsquares.svg	stimuli_distractor_diamondtriangles.svg	24	yes	44	1	414	0	0			0	0			1				0	
6.6.1	win	2023-06-12	17:50:56	17:54:57	236356	610acf76d33d448b391eb588	4	1	main_z	7	advance_on_keypress_ZEE	82	stimuli_target_diamondsquares.svg	stimuli_distractor_diamondtriangles.svg	24	yes	57	0	280	0	0			0	0			1				0	
6.6.1	win	2023-06-12	17:50:56	17:54:58	237900	610acf76d33d448b391eb588	4	1	main_z	7	main_z	83	stimuli_target_rectanglediamonds.svg	stimuli_distractor_diamondtriangles.svg	6	yes	44	1	610	0	0			0	0			1				0	
6.6.1	win	2023-06-12	17:50:56	17:54:58	237900	610acf76d33d448b391eb588	4	1	main_z	7	advance_on_keypress_ZEE	84	stimuli_target_rectanglediamonds.svg	stimuli_distractor_diamondtriangles.svg	6	yes	57	0	143	0	0			0	0			1				0	
6.6.1	win	2023-06-12	17:50:56	17:55:00	239252	610acf76d33d448b391eb588	4	1	main_z	7	main_z	85	stimuli_distractor_trianglediamonds.svg	stimuli_target_rectangletriangles.svg	9	yes	44	1	579	0	0			0	0			1				0	
6.6.1	win	2023-06-12	17:50:56	17:55:00	239252	610acf76d33d448b391eb588	4	1	main_z	7	advance_on_keypress_ZEE	86	stimuli_distractor_trianglediamonds.svg	stimuli_target_rectangletriangles.svg	9	yes	57	0	118	0	0			0	0			1				0	
6.6.1	win	2023-06-12	17:50:56	17:55:01	240634	610acf76d33d448b391eb588	4	1	main_z	7	main_z	87	stimuli_distractor_trianglediamonds.svg	stimuli_target_rectanglediamonds.svg	10	yes	44	1	611	0	0			0	0			1				0	
6.6.1	win	2023-06-12	17:50:56	17:55:01	240634	610acf76d33d448b391eb588	4	1	main_z	7	advance_on_keypress_ZEE	88	stimuli_distractor_trianglediamonds.svg	stimuli_target_rectanglediamonds.svg	10	yes	57	0	138	0	0			0	0			1				0	
6.6.1	win	2023-06-12	17:50:56	17:55:02	242026	610acf76d33d448b391eb588	4	1	main_z	7	main_z	89	stimuli_target_squarediamonds.svg	stimuli_distractor_diamondtriangles.svg	8	yes	44	1	603	0	0			0	0			1				0	
6.6.1	win	2023-06-12	17:50:56	17:55:02	242026	610acf76d33d448b391eb588	4	1	main_z	7	advance_on_keypress_ZEE	90	stimuli_target_squarediamonds.svg	stimuli_distractor_diamondtriangles.svg	8	yes	57	0	131	0	0			0	0			1				0	
6.6.1	win	2023-06-12	17:50:56	17:55:04	243372	610acf76d33d448b391eb588	4	1	main_z	7	main_z	91	stimuli_distractor_trianglediamonds.svg	stimuli_target_squaretriangles.svg	11	yes	44	1	566	0	0			0	0			1				0	
6.6.1	win	2023-06-12	17:50:56	17:55:04	243372	610acf76d33d448b391eb588	4	1	main_z	7	advance_on_keypress_ZEE	92	stimuli_distractor_trianglediamonds.svg	stimuli_target_squaretriangles.svg	11	yes	57	0	178	0	0			0	0			1				0	
6.6.1	win	2023-06-12	17:50:56	17:55:05	244908	610acf76d33d448b391eb588	4	1	main_z	7	main_z	93	stimuli_distractor_diamondtriangles.svg	stimuli_target_squarediamonds.svg	16	yes	44	1	704	0	0			0	0			1				0	
6.6.1	win	2023-06-12	17:50:56	17:55:05	244908	610acf76d33d448b391eb588	4	1	main_z	7	advance_on_keypress_ZEE	94	stimuli_distractor_diamondtriangles.svg	stimuli_target_squarediamonds.svg	16	yes	57	0	221	0	0			0	0			1				0	
6.6.1	win	2023-06-12	17:50:56	17:55:07	246738	610acf76d33d448b391eb588	4	1	main_z	7	main_z	95	stimuli_target_diamondsquares.svg	stimuli_distractor_trianglediamonds.svg	20	yes	44	1	968	0	0			0	0			1				0	
6.6.1	win	2023-06-12	17:50:56	17:55:07	246738	610acf76d33d448b391eb588	4	1	main_z	7	advance_on_keypress_ZEE	96	stimuli_target_diamondsquares.svg	stimuli_distractor_trianglediamonds.svg	20	yes	57	0	149	0	0			0	0			1				0	
6.6.1	win	2023-06-12	17:50:56	17:55:09	248259	610acf76d33d448b391eb588	4	1	main_z	7	main_z	97	stimuli_distractor_diamondtriangles.svg	stimuli_target_diamondsquares.svg	32	yes	44	1	722	0	0			0	0			1				0	
6.6.1	win	2023-06-12	17:50:56	17:55:09	248259	610acf76d33d448b391eb588	4	1	main_z	7	advance_on_keypress_ZEE	98	stimuli_distractor_diamondtriangles.svg	stimuli_target_diamondsquares.svg	32	yes	57	0	283	0	0			0	0			1				0	
6.6.1	win	2023-06-12	17:50:56	17:55:10	249950	610acf76d33d448b391eb588	4	1	main_z	7	main_z	99	stimuli_target_trianglesquares.svg	stimuli_distractor_diamondtriangles.svg	22	yes	44	1	763	0	0			0	0			1				0	
6.6.1	win	2023-06-12	17:50:56	17:55:10	249950	610acf76d33d448b391eb588	4	1	main_z	7	advance_on_keypress_ZEE	100	stimuli_target_trianglesquares.svg	stimuli_distractor_diamondtriangles.svg	22	yes	57	0	195	0	0			0	0			1				0	
6.6.1	win	2023-06-12	17:50:56	17:55:12	251248	610acf76d33d448b391eb588	4	1	main_z	7	main_z	101	stimuli_distractor_trianglediamonds.svg	stimuli_target_trianglesquares.svg	26	yes	44	1	446	0	0			0	0			1				0	
6.6.1	win	2023-06-12	17:50:56	17:55:12	251248	610acf76d33d448b391eb588	4	1	main_z	7	advance_on_keypress_ZEE	102	stimuli_distractor_trianglediamonds.svg	stimuli_target_trianglesquares.svg	26	yes	57	0	388	0	0			0	0			1				0	
6.6.1	win	2023-06-12	17:50:56	17:55:13	252768	610acf76d33d448b391eb588	4	1	main_z	7	main_z	103	stimuli_distractor_trianglediamonds.svg	stimuli_target_squarediamonds.svg	12	yes	44	1	482	0	0			0	0			1				0	
6.6.1	win	2023-06-12	17:50:56	17:55:13	252768	610acf76d33d448b391eb588	4	1	main_z	7	advance_on_keypress_ZEE	104	stimuli_distractor_trianglediamonds.svg	stimuli_target_squarediamonds.svg	12	yes	57	0	122	0	0			0	0			1				0	
6.6.1	win	2023-06-12	17:50:56	17:55:15	254104	610acf76d33d448b391eb588	4	1	main_z	7	main_z	105	stimuli_distractor_diamondtriangles.svg	stimuli_target_trianglesquares.svg	30	yes	44	1	569	0	0			0	0			1				0	
6.6.1	win	2023-06-12	17:50:56	17:55:15	254104	610acf76d33d448b391eb588	4	1	main_z	7	advance_on_keypress_ZEE	106	stimuli_distractor_diamondtriangles.svg	stimuli_target_trianglesquares.svg	30	yes	57	0	161	0	0			0	0			1				0	
6.6.1	win	2023-06-12	17:50:56	17:55:17	256901	610acf76d33d448b391eb588	4	1	main_z	7	main_z	107	stimuli_distractor_diamondtriangles.svg	stimuli_distractor_diamondtriangles.svg	40	no	0	1	2000	0	0			0	0			1				0	
6.6.1	win	2023-06-12	17:50:56	17:55:17	256901	610acf76d33d448b391eb588	4	1	main_z	7	advance_on_keypress_ZEE	108	stimuli_distractor_diamondtriangles.svg	stimuli_distractor_diamondtriangles.svg	40	no	57	0	514	0	0			0	0			1				0	
6.6.1	win	2023-06-12	17:50:56	17:55:19	258523	610acf76d33d448b391eb588	4	1	main_z	7	main_z	109	stimuli_target_trianglerectangles.svg	stimuli_distractor_diamondtriangles.svg	21	yes	44	1	457	0	0			0	0			1				0	
6.6.1	win	2023-06-12	17:50:56	17:55:19	258523	610acf76d33d448b391eb588	4	1	main_z	7	advance_on_keypress_ZEE	110	stimuli_target_trianglerectangles.svg	stimuli_distractor_diamondtriangles.svg	21	yes	57	0	479	0	0			0	0			1				0	
6.6.1	win	2023-06-12	17:50:56	17:55:21	260149	610acf76d33d448b391eb588	4	1	main_z	7	main_z	111	stimuli_distractor_trianglediamonds.svg	stimuli_target_trianglerectangles.svg	25	yes	44	1	499	0	0			0	0			1				0	
6.6.1	win	2023-06-12	17:50:56	17:55:21	260149	610acf76d33d448b391eb588	4	1	main_z	7	advance_on_keypress_ZEE	112	stimuli_distractor_trianglediamonds.svg	stimuli_target_trianglerectangles.svg	25	yes	57	0	318	0	0			0	0			1				0	
6.6.1	win	2023-06-12	17:50:56	17:55:22	261576	610acf76d33d448b391eb588	4	1	main_z	7	main_z	113	stimuli_target_rectangletriangles.svg	stimuli_distractor_diamondtriangles.svg	5	yes	44	1	460	0	0			0	0			1				0	
6.6.1	win	2023-06-12	17:50:56	17:55:22	261576	610acf76d33d448b391eb588	4	1	main_z	7	advance_on_keypress_ZEE	114	stimuli_target_rectangletriangles.svg	stimuli_distractor_diamondtriangles.svg	5	yes	57	0	232	0	0			0	0			1				0	
6.6.1	win	2023-06-12	17:50:56	17:55:23	262908	610acf76d33d448b391eb588	4	1	main_z	7	main_z	115	stimuli_target_squaretriangles.svg	stimuli_distractor_trianglediamonds.svg	3	yes	44	1	459	0	0			0	0			1				0	
6.6.1	win	2023-06-12	17:50:56	17:55:23	262908	610acf76d33d448b391eb588	4	1	main_z	7	advance_on_keypress_ZEE	116	stimuli_target_squaretriangles.svg	stimuli_distractor_trianglediamonds.svg	3	yes	57	0	201	0	0			0	0			1				0	
6.6.1	win	2023-06-12	17:50:56	17:55:25	264158	610acf76d33d448b391eb588	4	1	main_z	7	main_z	117	stimuli_distractor_diamondtriangles.svg	stimuli_target_squaretriangles.svg	15	yes	44	1	410	0	0			0	0			1				0	
6.6.1	win	2023-06-12	17:50:56	17:55:25	264158	610acf76d33d448b391eb588	4	1	main_z	7	advance_on_keypress_ZEE	118	stimuli_distractor_diamondtriangles.svg	stimuli_target_squaretriangles.svg	15	yes	57	0	164	0	0			0	0			1				0	
6.6.1	win	2023-06-12	17:50:56	17:55:26	265486	610acf76d33d448b391eb588	4	1	main_z	7	main_z	119	stimuli_target_diamondrectangles.svg	stimuli_distractor_trianglediamonds.svg	19	yes	44	1	521	0	0			0	0			1				0	
6.6.1	win	2023-06-12	17:50:56	17:55:26	265486	610acf76d33d448b391eb588	4	1	main_z	7	advance_on_keypress_ZEE	120	stimuli_target_diamondrectangles.svg	stimuli_distractor_trianglediamonds.svg	19	yes	57	0	168	0	0			0	0			1				0	
6.6.1	win	2023-06-12	17:50:56	17:55:29	268297	610acf76d33d448b391eb588	4	1	main_z	7	main_z	121	stimuli_distractor_trianglediamonds.svg	stimuli_distractor_diamondtriangles.svg	36	no	0	1	2000	0	0			0	0			1				0	
6.6.1	win	2023-06-12	17:50:56	17:55:29	268297	610acf76d33d448b391eb588	4	1	main_z	7	advance_on_keypress_ZEE	122	stimuli_distractor_trianglediamonds.svg	stimuli_distractor_diamondtriangles.svg	36	no	57	0	392	0	0			0	0			1				0	
6.6.1	win	2023-06-12	17:50:56	17:55:30	269755	610acf76d33d448b391eb588	4	1	main_z	7	main_z	123	stimuli_distractor_trianglediamonds.svg	stimuli_target_diamondsquares.svg	28	yes	44	1	425	0	0			0	0			1				0	
6.6.1	win	2023-06-12	17:50:56	17:55:30	269755	610acf76d33d448b391eb588	4	1	main_z	7	advance_on_keypress_ZEE	124	stimuli_distractor_trianglediamonds.svg	stimuli_target_diamondsquares.svg	28	yes	57	0	366	0	0			0	0			1				0	
6.6.1	win	2023-06-12	17:50:56	17:55:32	271630	610acf76d33d448b391eb588	4	1	main_z	7	main_z	125	stimuli_target_trianglerectangles.svg	stimuli_distractor_trianglediamonds.svg	17	yes	44	1	868	0	0			0	0			1				0	
6.6.1	win	2023-06-12	17:50:56	17:55:32	271630	610acf76d33d448b391eb588	4	1	main_z	7	advance_on_keypress_ZEE	126	stimuli_target_trianglerectangles.svg	stimuli_distractor_trianglediamonds.svg	17	yes	57	0	279	0	0			0	0			1				0	
6.6.1	win	2023-06-12	17:50:56	17:55:34	273076	610acf76d33d448b391eb588	4	1	main_z	7	main_z	127	stimuli_target_squaretriangles.svg	stimuli_distractor_diamondtriangles.svg	7	yes	44	1	505	0	0			0	0			1				0	
6.6.1	win	2023-06-12	17:50:56	17:55:34	273076	610acf76d33d448b391eb588	4	1	main_z	7	advance_on_keypress_ZEE	128	stimuli_target_squaretriangles.svg	stimuli_distractor_diamondtriangles.svg	7	yes	57	0	220	0	0			0	0			1				0	
6.6.1	win	2023-06-12	17:50:56	17:55:35	274459	610acf76d33d448b391eb588	4	1	main_z	7	main_z	129	stimuli_target_trianglesquares.svg	stimuli_distractor_trianglediamonds.svg	18	yes	44	1	509	0	0			0	0			1				0	
6.6.1	win	2023-06-12	17:50:56	17:55:35	274459	610acf76d33d448b391eb588	4	1	main_z	7	advance_on_keypress_ZEE	130	stimuli_target_trianglesquares.svg	stimuli_distractor_trianglediamonds.svg	18	yes	57	0	125	0	0			0	0			1				0	
6.6.1	win	2023-06-12	17:50:56	17:55:36	275809	610acf76d33d448b391eb588	4	1	main_z	7	main_z	131	stimuli_distractor_diamondtriangles.svg	stimuli_target_rectangletriangles.svg	13	yes	44	1	582	0	0			0	0			1				0	
6.6.1	win	2023-06-12	17:50:56	17:55:36	275809	610acf76d33d448b391eb588	4	1	main_z	7	advance_on_keypress_ZEE	132	stimuli_distractor_diamondtriangles.svg	stimuli_target_rectangletriangles.svg	13	yes	57	0	127	0	0			0	0			1				0	
6.6.1	win	2023-06-12	17:50:56	17:55:38	277186	610acf76d33d448b391eb588	4	1	main_z	7	main_z	133	stimuli_target_diamondrectangles.svg	stimuli_distractor_diamondtriangles.svg	23	yes	44	1	592	0	0			0	0			1				0	
6.6.1	win	2023-06-12	17:50:56	17:55:38	277186	610acf76d33d448b391eb588	4	1	main_z	7	advance_on_keypress_ZEE	134	stimuli_target_diamondrectangles.svg	stimuli_distractor_diamondtriangles.svg	23	yes	57	0	107	0	0			0	0			1				0	
6.6.1	win	2023-06-12	17:50:56	17:55:40	279927	610acf76d33d448b391eb588	4	1	main_z	7	main_z	135	stimuli_distractor_diamondtriangles.svg	stimuli_distractor_trianglediamonds.svg	38	no	0	1	2000	0	0			0	0			1				0	
6.6.1	win	2023-06-12	17:50:56	17:55:40	279927	610acf76d33d448b391eb588	4	1	main_z	7	advance_on_keypress_ZEE	136	stimuli_distractor_diamondtriangles.svg	stimuli_distractor_trianglediamonds.svg	38	no	57	0	512	0	0			0	0			1				0	
6.6.1	win	2023-06-12	17:50:56	17:55:44	283092	610acf76d33d448b391eb588	4	1	main_z	7	main_z	137	stimuli_distractor_trianglediamonds.svg	stimuli_distractor_diamondtriangles.svg	35	no	0	1	2000	0	0			0	0			1				0	
6.6.1	win	2023-06-12	17:50:56	17:55:44	283092	610acf76d33d448b391eb588	4	1	main_z	7	advance_on_keypress_ZEE	138	stimuli_distractor_trianglediamonds.svg	stimuli_distractor_diamondtriangles.svg	35	no	57	0	232	0	0			0	0			1				0	
6.6.1	win	2023-06-12	17:50:56	17:55:46	285975	610acf76d33d448b391eb588	4	1	main_z	7	main_z	139	stimuli_distractor_trianglediamonds.svg	stimuli_distractor_trianglediamonds.svg	33	no	0	1	2000	0	0			0	0			1				0	
6.6.1	win	2023-06-12	17:50:56	17:55:46	285975	610acf76d33d448b391eb588	4	1	main_z	7	advance_on_keypress_ZEE	140	stimuli_distractor_trianglediamonds.svg	stimuli_distractor_trianglediamonds.svg	33	no	57	0	292	0	0			0	0			1				0	
6.6.1	win	2023-06-12	17:50:56	17:55:48	287345	610acf76d33d448b391eb588	4	1	main_z	7	main_z	141	stimuli_target_rectanglediamonds.svg	stimuli_distractor_trianglediamonds.svg	2	yes	44	1	438	0	0			0	0			1				0	
6.6.1	win	2023-06-12	17:50:56	17:55:48	287345	610acf76d33d448b391eb588	4	1	main_z	7	advance_on_keypress_ZEE	142	stimuli_target_rectanglediamonds.svg	stimuli_distractor_trianglediamonds.svg	2	yes	57	0	163	0	0			0	0			1				0	
6.6.1	win	2023-06-12	17:50:56	17:55:49	288722	610acf76d33d448b391eb588	4	1	main_z	7	main_z	143	stimuli_distractor_trianglediamonds.svg	stimuli_target_diamondrectangles.svg	27	yes	44	1	565	0	0			0	0			1				0	
6.6.1	win	2023-06-12	17:50:56	17:55:49	288722	610acf76d33d448b391eb588	4	1	main_z	7	advance_on_keypress_ZEE	144	stimuli_distractor_trianglediamonds.svg	stimuli_target_diamondrectangles.svg	27	yes	57	0	72	0	0			0	0			1				0	
6.6.1	win	2023-06-12	17:50:56	17:55:52	291439	610acf76d33d448b391eb588	4	1	main_z	7	main_z	145	stimuli_distractor_trianglediamonds.svg	stimuli_distractor_trianglediamonds.svg	34	no	0	1	2000	0	0			0	0			1				0	
6.6.1	win	2023-06-12	17:50:56	17:55:52	291439	610acf76d33d448b391eb588	4	1	main_z	7	advance_on_keypress_ZEE	146	stimuli_distractor_trianglediamonds.svg	stimuli_distractor_trianglediamonds.svg	34	no	57	0	294	0	0			0	0			1				0	
6.6.1	win	2023-06-12	17:50:56	17:55:53	292826	610acf76d33d448b391eb588	4	1	main_z	7	main_z	147	stimuli_distractor_diamondtriangles.svg	stimuli_target_diamondrectangles.svg	31	yes	44	1	455	0	0			0	0			1				0	
6.6.1	win	2023-06-12	17:50:56	17:55:53	292826	610acf76d33d448b391eb588	4	1	main_z	7	advance_on_keypress_ZEE	148	stimuli_distractor_diamondtriangles.svg	stimuli_target_diamondrectangles.svg	31	yes	57	0	177	0	0			0	0			1				0	
6.6.1	win	2023-06-12	17:50:56	17:55:55	294078	610acf76d33d448b391eb588	4	1	main_z	7	main_z	149	stimuli_target_squarediamonds.svg	stimuli_distractor_trianglediamonds.svg	4	yes	44	1	423	0	0			0	0			1				0	
6.6.1	win	2023-06-12	17:50:56	17:55:55	294078	610acf76d33d448b391eb588	4	1	main_z	7	advance_on_keypress_ZEE	150	stimuli_target_squarediamonds.svg	stimuli_distractor_trianglediamonds.svg	4	yes	57	0	111	0	0			0	0			1				0	
6.6.1	win	2023-06-12	17:50:56	17:55:56	295220	610acf76d33d448b391eb588	4	1	main_z	7	main_z	151	stimuli_target_rectangletriangles.svg	stimuli_distractor_trianglediamonds.svg	1	yes	44	1	399	0	0			0	0			1				0	
6.6.1	win	2023-06-12	17:50:56	17:55:56	295220	610acf76d33d448b391eb588	4	1	main_z	7	advance_on_keypress_ZEE	152	stimuli_target_rectangletriangles.svg	stimuli_distractor_trianglediamonds.svg	1	yes	57	0	127	0	0			0	0			1				0	
6.6.1	win	2023-06-12	17:50:56	17:55:57	296385	610acf76d33d448b391eb588	4	1	main_z	7	main_z	153	stimuli_distractor_diamondtriangles.svg	stimuli_target_rectanglediamonds.svg	14	yes	44	1	374	0	0			0	0			1				0	
6.6.1	win	2023-06-12	17:50:56	17:55:57	296385	610acf76d33d448b391eb588	4	1	main_z	7	advance_on_keypress_ZEE	154	stimuli_distractor_diamondtriangles.svg	stimuli_target_rectanglediamonds.svg	14	yes	57	0	83	0	0			0	0			1				0	
6.6.1	win	2023-06-12	17:50:56	17:55:58	297555	610acf76d33d448b391eb588	4	1	main_z	7	main_z	155	stimuli_distractor_diamondtriangles.svg	stimuli_target_trianglerectangles.svg	29	yes	44	1	434	0	0			0	0			1				0	
6.6.1	win	2023-06-12	17:50:56	17:55:58	297555	610acf76d33d448b391eb588	4	1	main_z	7	advance_on_keypress_ZEE	156	stimuli_distractor_diamondtriangles.svg	stimuli_target_trianglerectangles.svg	29	yes	57	0	293	0	0			0	0			1				0	
6.6.1	win	2023-06-12	17:50:56	17:56:01	300487	610acf76d33d448b391eb588	4	1	main_z	7	main_z	157	stimuli_distractor_diamondtriangles.svg	stimuli_distractor_diamondtriangles.svg	39	no	0	1	2000	0	0			0	0			1				0	
6.6.1	win	2023-06-12	17:50:56	17:56:01	300487	610acf76d33d448b391eb588	4	1	main_z	7	advance_on_keypress_ZEE	158	stimuli_distractor_diamondtriangles.svg	stimuli_distractor_diamondtriangles.svg	39	no	57	0	374	0	0			0	0			1				0	
6.6.1	win	2023-06-12	17:50:56	17:56:04	303503	610acf76d33d448b391eb588	4	1	main_z	7	main_z	159	stimuli_distractor_diamondtriangles.svg	stimuli_distractor_trianglediamonds.svg	37	no	0	1	2000	0	0			0	0			1				0	
6.6.1	win	2023-06-12	17:50:56	17:56:04	303503	610acf76d33d448b391eb588	4	1	main_z	7	advance_on_keypress_ZEE	160	stimuli_distractor_diamondtriangles.svg	stimuli_distractor_trianglediamonds.svg	37	no	57	0	290	0	0			0	0			1				0	
6.6.1	win	2023-06-12	17:50:56	17:56:21	320696	610acf76d33d448b391eb588	4	1	practice_slash	9	practice_slash	1	stimuli_distractor_trianglediamonds.svg	stimuli_target_diamondrectangles.svg	12	yes	53	1	613	0	0			0	0			1				0	
6.6.1	win	2023-06-12	17:50:56	17:56:21	320696	610acf76d33d448b391eb588	4	1	practice_slash	9	advance_on_keypress_SLASH	2	stimuli_distractor_trianglediamonds.svg	stimuli_target_diamondrectangles.svg	12	yes	57	0	552	0	0			0	0			1				0	
6.6.1	win	2023-06-12	17:50:56	17:56:24	323358	610acf76d33d448b391eb588	4	1	practice_slash	9	practice_slash	3	stimuli_target_diamondsquares.svg	stimuli_distractor_diamondtriangles.svg	3	yes	53	1	461	0	0			0	0			1				0	
6.6.1	win	2023-06-12	17:50:56	17:56:24	323358	610acf76d33d448b391eb588	4	1	practice_slash	9	advance_on_keypress_SLASH	4	stimuli_target_diamondsquares.svg	stimuli_distractor_diamondtriangles.svg	3	yes	57	0	515	0	0			0	0			1				0	
6.6.1	win	2023-06-12	17:50:56	17:56:27	326346	610acf76d33d448b391eb588	4	1	practice_slash	9	practice_slash	5	stimuli_target_squarediamonds.svg	stimuli_distractor_diamondtriangles.svg	2	yes	53	1	816	0	0			0	0			1				0	
6.6.1	win	2023-06-12	17:50:56	17:56:27	326346	610acf76d33d448b391eb588	4	1	practice_slash	9	advance_on_keypress_SLASH	6	stimuli_target_squarediamonds.svg	stimuli_distractor_diamondtriangles.svg	2	yes	57	0	369	0	0			0	0			1				0	
6.6.1	win	2023-06-12	17:50:56	17:56:29	328819	610acf76d33d448b391eb588	4	1	practice_slash	9	practice_slash	7	stimuli_distractor_diamondtriangles.svg	stimuli_target_rectangletriangles.svg	7	yes	53	1	457	0	0			0	0			1				0	
6.6.1	win	2023-06-12	17:50:56	17:56:29	328819	610acf76d33d448b391eb588	4	1	practice_slash	9	advance_on_keypress_SLASH	8	stimuli_distractor_diamondtriangles.svg	stimuli_target_rectangletriangles.svg	7	yes	57	0	327	0	0			0	0			1				0	
6.6.1	win	2023-06-12	17:50:56	17:56:32	331322	610acf76d33d448b391eb588	4	1	practice_slash	9	practice_slash	9	stimuli_distractor_diamondtriangles.svg	stimuli_target_diamondrectangles.svg	8	yes	53	1	528	0	0			0	0			1				0	
6.6.1	win	2023-06-12	17:50:56	17:56:32	331322	610acf76d33d448b391eb588	4	1	practice_slash	9	advance_on_keypress_SLASH	10	stimuli_distractor_diamondtriangles.svg	stimuli_target_diamondrectangles.svg	8	yes	57	0	446	0	0			0	0			1				0	
6.6.1	win	2023-06-12	17:50:56	17:56:34	333816	610acf76d33d448b391eb588	4	1	practice_slash	9	practice_slash	11	stimuli_target_diamondsquares.svg	stimuli_distractor_trianglediamonds.svg	6	yes	53	1	389	0	0			0	0			1				0	
6.6.1	win	2023-06-12	17:50:56	17:56:34	333816	610acf76d33d448b391eb588	4	1	practice_slash	9	advance_on_keypress_SLASH	12	stimuli_target_diamondsquares.svg	stimuli_distractor_trianglediamonds.svg	6	yes	57	0	705	0	0			0	0			1				0	
6.6.1	win	2023-06-12	17:50:56	17:56:37	336499	610acf76d33d448b391eb588	4	1	practice_slash	9	practice_slash	13	stimuli_target_rectanglediamonds.svg	stimuli_distractor_diamondtriangles.svg	1	yes	53	1	340	0	0			0	0			1				0	
6.6.1	win	2023-06-12	17:50:56	17:56:37	336499	610acf76d33d448b391eb588	4	1	practice_slash	9	advance_on_keypress_SLASH	14	stimuli_target_rectanglediamonds.svg	stimuli_distractor_diamondtriangles.svg	1	yes	57	0	356	0	0			0	0			1				0	
6.6.1	win	2023-06-12	17:50:56	17:56:41	340509	610acf76d33d448b391eb588	4	1	practice_slash	9	practice_slash	15	stimuli_distractor_diamondtriangles.svg	stimuli_distractor_trianglediamonds.svg	14	no	0	1	2000	0	0			0	0			1				0	
6.6.1	win	2023-06-12	17:50:56	17:56:41	340509	610acf76d33d448b391eb588	4	1	practice_slash	9	advance_on_keypress_SLASH	16	stimuli_distractor_diamondtriangles.svg	stimuli_distractor_trianglediamonds.svg	14	no	57	0	341	0	0			0	0			1				0	
6.6.1	win	2023-06-12	17:50:56	17:56:43	342919	610acf76d33d448b391eb588	4	1	practice_slash	9	practice_slash	17	stimuli_target_rectanglediamonds.svg	stimuli_distractor_trianglediamonds.svg	4	yes	53	1	410	0	0			0	0			1				0	
6.6.1	win	2023-06-12	17:50:56	17:56:43	342919	610acf76d33d448b391eb588	4	1	practice_slash	9	advance_on_keypress_SLASH	18	stimuli_target_rectanglediamonds.svg	stimuli_distractor_trianglediamonds.svg	4	yes	57	0	259	0	0			0	0			1				0	
6.6.1	win	2023-06-12	17:50:56	17:56:47	346823	610acf76d33d448b391eb588	4	1	practice_slash	9	practice_slash	19	stimuli_distractor_trianglediamonds.svg	stimuli_distractor_trianglediamonds.svg	15	no	0	1	2000	0	0			0	0			1				0	
6.6.1	win	2023-06-12	17:50:56	17:56:47	346823	610acf76d33d448b391eb588	4	1	practice_slash	9	advance_on_keypress_SLASH	20	stimuli_distractor_trianglediamonds.svg	stimuli_distractor_trianglediamonds.svg	15	no	57	0	391	0	0			0	0			1				0	
6.6.1	win	2023-06-12	17:50:56	17:56:50	349370	610acf76d33d448b391eb588	4	1	practice_slash	9	practice_slash	21	stimuli_distractor_trianglediamonds.svg	stimuli_target_rectanglediamonds.svg	10	yes	53	1	505	0	0			0	0			1				0	
6.6.1	win	2023-06-12	17:50:56	17:56:50	349370	610acf76d33d448b391eb588	4	1	practice_slash	9	advance_on_keypress_SLASH	22	stimuli_distractor_trianglediamonds.svg	stimuli_target_rectanglediamonds.svg	10	yes	57	0	425	0	0			0	0			1				0	
6.6.1	win	2023-06-12	17:50:56	17:56:54	353456	610acf76d33d448b391eb588	4	1	practice_slash	9	practice_slash	23	stimuli_distractor_trianglediamonds.svg	stimuli_distractor_diamondtriangles.svg	16	no	0	1	2000	0	0			0	0			1				0	
6.6.1	win	2023-06-12	17:50:56	17:56:54	353456	610acf76d33d448b391eb588	4	1	practice_slash	9	advance_on_keypress_SLASH	24	stimuli_distractor_trianglediamonds.svg	stimuli_distractor_diamondtriangles.svg	16	no	57	0	309	0	0			0	0			1				0	
6.6.1	win	2023-06-12	17:50:56	17:56:58	357420	610acf76d33d448b391eb588	4	1	practice_slash	9	practice_slash	25	stimuli_distractor_diamondtriangles.svg	stimuli_target_trianglerectangles.svg	9	yes	0	0	2000	0	0			0	0			1				0	
6.6.1	win	2023-06-12	17:50:56	17:56:58	357420	610acf76d33d448b391eb588	4	1	practice_slash	9	advance_on_keypress_SLASH	26	stimuli_distractor_diamondtriangles.svg	stimuli_target_trianglerectangles.svg	9	yes	57	0	393	0	0			0	0			1				0	
6.6.1	win	2023-06-12	17:50:56	17:57:00	359920	610acf76d33d448b391eb588	4	1	practice_slash	9	practice_slash	27	stimuli_distractor_trianglediamonds.svg	stimuli_target_squarediamonds.svg	11	yes	53	1	452	0	0			0	0			1				0	
6.6.1	win	2023-06-12	17:50:56	17:57:00	359920	610acf76d33d448b391eb588	4	1	practice_slash	9	advance_on_keypress_SLASH	28	stimuli_distractor_trianglediamonds.svg	stimuli_target_squarediamonds.svg	11	yes	57	0	402	0	0			0	0			1				0	
6.6.1	win	2023-06-12	17:50:56	17:57:04	363968	610acf76d33d448b391eb588	4	1	practice_slash	9	practice_slash	29	stimuli_distractor_diamondtriangles.svg	stimuli_distractor_diamondtriangles.svg	13	no	0	1	2000	0	0			0	0			1				0	
6.6.1	win	2023-06-12	17:50:56	17:57:04	363968	610acf76d33d448b391eb588	4	1	practice_slash	9	advance_on_keypress_SLASH	30	stimuli_distractor_diamondtriangles.svg	stimuli_distractor_diamondtriangles.svg	13	no	57	0	289	0	0			0	0			1				0	
6.6.1	win	2023-06-12	17:50:56	17:57:07	366281	610acf76d33d448b391eb588	4	1	practice_slash	9	practice_slash	31	stimuli_target_squarediamonds.svg	stimuli_distractor_trianglediamonds.svg	5	yes	53	1	376	0	0			0	0			1				0	
6.6.1	win	2023-06-12	17:50:56	17:57:07	366281	610acf76d33d448b391eb588	4	1	practice_slash	9	advance_on_keypress_SLASH	32	stimuli_target_squarediamonds.svg	stimuli_distractor_trianglediamonds.svg	5	yes	57	0	407	0	0			0	0			1				0	
6.6.1	win	2023-06-12	17:50:56	17:57:15	374311	610acf76d33d448b391eb588	4	1	main_slash	11	main_slash	1	stimuli_distractor_trianglediamonds.svg	stimuli_distractor_diamondtriangles.svg	35	no	0	1	2000	0	0			0	0			1				0	
6.6.1	win	2023-06-12	17:50:56	17:57:15	374311	610acf76d33d448b391eb588	4	1	main_slash	11	advance_on_keypress_SLASH	2	stimuli_distractor_trianglediamonds.svg	stimuli_distractor_diamondtriangles.svg	35	no	57	0	331	0	0			0	0			1				0	
6.6.1	win	2023-06-12	17:50:56	17:57:16	375695	610acf76d33d448b391eb588	4	1	main_slash	11	main_slash	3	stimuli_distractor_trianglediamonds.svg	stimuli_target_trianglerectangles.svg	25	yes	53	1	401	0	0			0	0			1				0	
6.6.1	win	2023-06-12	17:50:56	17:57:16	375695	610acf76d33d448b391eb588	4	1	main_slash	11	advance_on_keypress_SLASH	4	stimuli_distractor_trianglediamonds.svg	stimuli_target_trianglerectangles.svg	25	yes	57	0	519	0	0			0	0			1				0	
6.6.1	win	2023-06-12	17:50:56	17:57:18	377241	610acf76d33d448b391eb588	4	1	main_slash	11	main_slash	5	stimuli_target_rectangletriangles.svg	stimuli_distractor_diamondtriangles.svg	5	yes	53	1	372	0	0			0	0			1				0	
6.6.1	win	2023-06-12	17:50:56	17:57:18	377241	610acf76d33d448b391eb588	4	1	main_slash	11	advance_on_keypress_SLASH	6	stimuli_target_rectangletriangles.svg	stimuli_distractor_diamondtriangles.svg	5	yes	57	0	437	0	0			0	0			1				0	
6.6.1	win	2023-06-12	17:50:56	17:57:21	380326	610acf76d33d448b391eb588	4	1	main_slash	11	main_slash	7	stimuli_distractor_trianglediamonds.svg	stimuli_distractor_trianglediamonds.svg	34	no	0	1	2000	0	0			0	0			1				0	
6.6.1	win	2023-06-12	17:50:56	17:57:21	380326	610acf76d33d448b391eb588	4	1	main_slash	11	advance_on_keypress_SLASH	8	stimuli_distractor_trianglediamonds.svg	stimuli_distractor_trianglediamonds.svg	34	no	57	0	255	0	0			0	0			1				0	
6.6.1	win	2023-06-12	17:50:56	17:57:22	381710	610acf76d33d448b391eb588	4	1	main_slash	11	main_slash	9	stimuli_distractor_trianglediamonds.svg	stimuli_target_diamondsquares.svg	28	yes	53	1	484	0	0			0	0			1				0	
6.6.1	win	2023-06-12	17:50:56	17:57:22	381710	610acf76d33d448b391eb588	4	1	main_slash	11	advance_on_keypress_SLASH	10	stimuli_distractor_trianglediamonds.svg	stimuli_target_diamondsquares.svg	28	yes	57	0	434	0	0			0	0			1				0	
6.6.1	win	2023-06-12	17:50:56	17:57:25	384791	610acf76d33d448b391eb588	4	1	main_slash	11	main_slash	11	stimuli_distractor_diamondtriangles.svg	stimuli_distractor_diamondtriangles.svg	40	no	0	1	2000	0	0			0	0			1				0	
6.6.1	win	2023-06-12	17:50:56	17:57:25	384791	610acf76d33d448b391eb588	4	1	main_slash	11	advance_on_keypress_SLASH	12	stimuli_distractor_diamondtriangles.svg	stimuli_distractor_diamondtriangles.svg	40	no	57	0	289	0	0			0	0			1				0	
6.6.1	win	2023-06-12	17:50:56	17:57:27	386143	610acf76d33d448b391eb588	4	1	main_slash	11	main_slash	13	stimuli_distractor_diamondtriangles.svg	stimuli_target_squarediamonds.svg	16	yes	53	1	420	0	0			0	0			1				0	
6.6.1	win	2023-06-12	17:50:56	17:57:27	386143	610acf76d33d448b391eb588	4	1	main_slash	11	advance_on_keypress_SLASH	14	stimuli_distractor_diamondtriangles.svg	stimuli_target_squarediamonds.svg	16	yes	57	0	441	0	0			0	0			1				0	
6.6.1	win	2023-06-12	17:50:56	17:57:28	387675	610acf76d33d448b391eb588	4	1	main_slash	11	main_slash	15	stimuli_distractor_diamondtriangles.svg	stimuli_target_rectangletriangles.svg	13	yes	53	1	451	0	0			0	0			1				0	
6.6.1	win	2023-06-12	17:50:56	17:57:28	387675	610acf76d33d448b391eb588	4	1	main_slash	11	advance_on_keypress_SLASH	16	stimuli_distractor_diamondtriangles.svg	stimuli_target_rectangletriangles.svg	13	yes	57	0	334	0	0			0	0			1				0	
6.6.1	win	2023-06-12	17:50:56	17:57:30	389056	610acf76d33d448b391eb588	4	1	main_slash	11	main_slash	17	stimuli_distractor_diamondtriangles.svg	stimuli_target_rectanglediamonds.svg	14	yes	53	1	400	0	0			0	0			1				0	
6.6.1	win	2023-06-12	17:50:56	17:57:30	389056	610acf76d33d448b391eb588	4	1	main_slash	11	advance_on_keypress_SLASH	18	stimuli_distractor_diamondtriangles.svg	stimuli_target_rectanglediamonds.svg	14	yes	57	0	288	0	0			0	0			1				0	
6.6.1	win	2023-06-12	17:50:56	17:57:31	390548	610acf76d33d448b391eb588	4	1	main_slash	11	main_slash	19	stimuli_distractor_diamondtriangles.svg	stimuli_target_trianglesquares.svg	30	yes	53	1	558	0	0			0	0			1				0	
6.6.1	win	2023-06-12	17:50:56	17:57:31	390548	610acf76d33d448b391eb588	4	1	main_slash	11	advance_on_keypress_SLASH	20	stimuli_distractor_diamondtriangles.svg	stimuli_target_trianglesquares.svg	30	yes	57	0	351	0	0			0	0			1				0	
6.6.1	win	2023-06-12	17:50:56	17:57:32	391934	610acf76d33d448b391eb588	4	1	main_slash	11	main_slash	21	stimuli_distractor_trianglediamonds.svg	stimuli_target_squaretriangles.svg	11	yes	53	1	396	0	0			0	0			1				0	
6.6.1	win	2023-06-12	17:50:56	17:57:32	391934	610acf76d33d448b391eb588	4	1	main_slash	11	advance_on_keypress_SLASH	22	stimuli_distractor_trianglediamonds.svg	stimuli_target_squaretriangles.svg	11	yes	57	0	373	0	0			0	0			1				0	
6.6.1	win	2023-06-12	17:50:56	17:57:35	394298	610acf76d33d448b391eb588	4	1	main_slash	11	main_slash	23	stimuli_target_trianglerectangles.svg	stimuli_distractor_diamondtriangles.svg	21	yes	53	1	1343	0	0			0	0			1				0	
6.6.1	win	2023-06-12	17:50:56	17:57:35	394298	610acf76d33d448b391eb588	4	1	main_slash	11	advance_on_keypress_SLASH	24	stimuli_target_trianglerectangles.svg	stimuli_distractor_diamondtriangles.svg	21	yes	57	0	417	0	0			0	0			1				0	
6.6.1	win	2023-06-12	17:50:56	17:57:38	397354	610acf76d33d448b391eb588	4	1	main_slash	11	main_slash	25	stimuli_distractor_trianglediamonds.svg	stimuli_distractor_trianglediamonds.svg	33	no	0	1	2000	0	0			0	0			1				0	
6.6.1	win	2023-06-12	17:50:56	17:57:38	397354	610acf76d33d448b391eb588	4	1	main_slash	11	advance_on_keypress_SLASH	26	stimuli_distractor_trianglediamonds.svg	stimuli_distractor_trianglediamonds.svg	33	no	57	0	309	0	0			0	0			1				0	
6.6.1	win	2023-06-12	17:50:56	17:57:39	398726	610acf76d33d448b391eb588	4	1	main_slash	11	main_slash	27	stimuli_distractor_diamondtriangles.svg	stimuli_target_diamondrectangles.svg	31	yes	53	1	424	0	0			0	0			1				0	
6.6.1	win	2023-06-12	17:50:56	17:57:39	398726	610acf76d33d448b391eb588	4	1	main_slash	11	advance_on_keypress_SLASH	28	stimuli_distractor_diamondtriangles.svg	stimuli_target_diamondrectangles.svg	31	yes	57	0	249	0	0			0	0			1				0	
6.6.1	win	2023-06-12	17:50:56	17:57:40	400012	610acf76d33d448b391eb588	4	1	main_slash	11	main_slash	29	stimuli_target_diamondrectangles.svg	stimuli_distractor_trianglediamonds.svg	19	yes	53	1	393	0	0			0	0			1				0	
6.6.1	win	2023-06-12	17:50:56	17:57:40	400012	610acf76d33d448b391eb588	4	1	main_slash	11	advance_on_keypress_SLASH	30	stimuli_target_diamondrectangles.svg	stimuli_distractor_trianglediamonds.svg	19	yes	57	0	264	0	0			0	0			1				0	
6.6.1	win	2023-06-12	17:50:56	17:57:43	402918	610acf76d33d448b391eb588	4	1	main_slash	11	main_slash	31	stimuli_distractor_diamondtriangles.svg	stimuli_distractor_trianglediamonds.svg	37	no	0	1	2000	0	0			0	0			1				0	
6.6.1	win	2023-06-12	17:50:56	17:57:43	402918	610acf76d33d448b391eb588	4	1	main_slash	11	advance_on_keypress_SLASH	32	stimuli_distractor_diamondtriangles.svg	stimuli_distractor_trianglediamonds.svg	37	no	57	0	310	0	0			0	0			1				0	
6.6.1	win	2023-06-12	17:50:56	17:57:45	404232	610acf76d33d448b391eb588	4	1	main_slash	11	main_slash	33	stimuli_target_rectanglediamonds.svg	stimuli_distractor_trianglediamonds.svg	2	yes	53	1	365	0	0			0	0			1				0	
6.6.1	win	2023-06-12	17:50:56	17:57:45	404232	610acf76d33d448b391eb588	4	1	main_slash	11	advance_on_keypress_SLASH	34	stimuli_target_rectanglediamonds.svg	stimuli_distractor_trianglediamonds.svg	2	yes	57	0	311	0	0			0	0			1				0	
6.6.1	win	2023-06-12	17:50:56	17:57:46	405613	610acf76d33d448b391eb588	4	1	main_slash	11	main_slash	35	stimuli_target_squaretriangles.svg	stimuli_distractor_diamondtriangles.svg	7	yes	53	1	413	0	0			0	0			1				0	
6.6.1	win	2023-06-12	17:50:56	17:57:46	405613	610acf76d33d448b391eb588	4	1	main_slash	11	advance_on_keypress_SLASH	36	stimuli_target_squaretriangles.svg	stimuli_distractor_diamondtriangles.svg	7	yes	57	0	224	0	0			0	0			1				0	
6.6.1	win	2023-06-12	17:50:56	17:57:48	407105	610acf76d33d448b391eb588	4	1	main_slash	11	main_slash	37	stimuli_target_trianglesquares.svg	stimuli_distractor_diamondtriangles.svg	22	yes	53	1	621	0	0			0	0			1				0	
6.6.1	win	2023-06-12	17:50:56	17:57:48	407105	610acf76d33d448b391eb588	4	1	main_slash	11	advance_on_keypress_SLASH	38	stimuli_target_trianglesquares.svg	stimuli_distractor_diamondtriangles.svg	22	yes	57	0	297	0	0			0	0			1				0	
6.6.1	win	2023-06-12	17:50:56	17:57:49	408461	610acf76d33d448b391eb588	4	1	main_slash	11	main_slash	39	stimuli_target_squaretriangles.svg	stimuli_distractor_trianglediamonds.svg	3	yes	53	1	412	0	0			0	0			1				0	
6.6.1	win	2023-06-12	17:50:56	17:57:49	408461	610acf76d33d448b391eb588	4	1	main_slash	11	advance_on_keypress_SLASH	40	stimuli_target_squaretriangles.svg	stimuli_distractor_trianglediamonds.svg	3	yes	57	0	233	0	0			0	0			1				0	
6.6.1	win	2023-06-12	17:50:56	17:57:50	409730	610acf76d33d448b391eb588	4	1	main_slash	11	main_slash	41	stimuli_distractor_trianglediamonds.svg	stimuli_target_squarediamonds.svg	12	yes	53	1	374	0	0			0	0			1				0	
6.6.1	win	2023-06-12	17:50:56	17:57:50	409730	610acf76d33d448b391eb588	4	1	main_slash	11	advance_on_keypress_SLASH	42	stimuli_distractor_trianglediamonds.svg	stimuli_target_squarediamonds.svg	12	yes	57	0	139	0	0			0	0			1				0	
6.6.1	win	2023-06-12	17:50:56	17:57:51	411005	610acf76d33d448b391eb588	4	1	main_slash	11	main_slash	43	stimuli_target_rectanglediamonds.svg	stimuli_distractor_diamondtriangles.svg	6	yes	53	1	490	0	0			0	0			1				0	
6.6.1	win	2023-06-12	17:50:56	17:57:51	411005	610acf76d33d448b391eb588	4	1	main_slash	11	advance_on_keypress_SLASH	44	stimuli_target_rectanglediamonds.svg	stimuli_distractor_diamondtriangles.svg	6	yes	57	0	184	0	0			0	0			1				0	
6.6.1	win	2023-06-12	17:50:56	17:57:54	413832	610acf76d33d448b391eb588	4	1	main_slash	11	main_slash	45	stimuli_distractor_diamondtriangles.svg	stimuli_target_trianglerectangles.svg	29	yes	0	0	2000	0	0			0	0			1				0	
6.6.1	win	2023-06-12	17:50:56	17:57:54	413832	610acf76d33d448b391eb588	4	1	main_slash	11	advance_on_keypress_SLASH	46	stimuli_distractor_diamondtriangles.svg	stimuli_target_trianglerectangles.svg	29	yes	57	0	384	0	0			0	0			1				0	
6.6.1	win	2023-06-12	17:50:56	17:57:56	415250	610acf76d33d448b391eb588	4	1	main_slash	11	main_slash	47	stimuli_target_rectangletriangles.svg	stimuli_distractor_trianglediamonds.svg	1	yes	53	1	386	0	0			0	0			1				0	
6.6.1	win	2023-06-12	17:50:56	17:57:56	415250	610acf76d33d448b391eb588	4	1	main_slash	11	advance_on_keypress_SLASH	48	stimuli_target_rectangletriangles.svg	stimuli_distractor_trianglediamonds.svg	1	yes	57	0	249	0	0			0	0			1				0	
6.6.1	win	2023-06-12	17:50:56	17:57:57	416490	610acf76d33d448b391eb588	4	1	main_slash	11	main_slash	49	stimuli_distractor_trianglediamonds.svg	stimuli_target_rectangletriangles.svg	9	yes	53	1	343	0	0			0	0			1				0	
6.6.1	win	2023-06-12	17:50:56	17:57:57	416490	610acf76d33d448b391eb588	4	1	main_slash	11	advance_on_keypress_SLASH	50	stimuli_distractor_trianglediamonds.svg	stimuli_target_rectangletriangles.svg	9	yes	57	0	144	0	0			0	0			1				0	
6.6.1	win	2023-06-12	17:50:56	17:58:00	419263	610acf76d33d448b391eb588	4	1	main_slash	11	main_slash	51	stimuli_distractor_diamondtriangles.svg	stimuli_distractor_trianglediamonds.svg	38	no	0	1	2000	0	0			0	0			1				0	
6.6.1	win	2023-06-12	17:50:56	17:58:00	419263	610acf76d33d448b391eb588	4	1	main_slash	11	advance_on_keypress_SLASH	52	stimuli_distractor_diamondtriangles.svg	stimuli_distractor_trianglediamonds.svg	38	no	57	0	333	0	0			0	0			1				0	
6.6.1	win	2023-06-12	17:50:56	17:58:01	420870	610acf76d33d448b391eb588	4	1	main_slash	11	main_slash	53	stimuli_distractor_diamondtriangles.svg	stimuli_target_diamondsquares.svg	32	yes	53	1	625	0	0			0	0			1				0	
6.6.1	win	2023-06-12	17:50:56	17:58:01	420870	610acf76d33d448b391eb588	4	1	main_slash	11	advance_on_keypress_SLASH	54	stimuli_distractor_diamondtriangles.svg	stimuli_target_diamondsquares.svg	32	yes	57	0	206	0	0			0	0			1				0	
6.6.1	win	2023-06-12	17:50:56	17:58:03	422102	610acf76d33d448b391eb588	4	1	main_slash	11	main_slash	55	stimuli_distractor_trianglediamonds.svg	stimuli_target_rectanglediamonds.svg	10	yes	53	1	390	0	0			0	0			1				0	
6.6.1	win	2023-06-12	17:50:56	17:58:03	422102	610acf76d33d448b391eb588	4	1	main_slash	11	advance_on_keypress_SLASH	56	stimuli_distractor_trianglediamonds.svg	stimuli_target_rectanglediamonds.svg	10	yes	57	0	160	0	0			0	0			1				0	
6.6.1	win	2023-06-12	17:50:56	17:58:04	423314	610acf76d33d448b391eb588	4	1	main_slash	11	main_slash	57	stimuli_distractor_diamondtriangles.svg	stimuli_target_squaretriangles.svg	15	yes	53	1	419	0	0			0	0			1				0	
6.6.1	win	2023-06-12	17:50:56	17:58:04	423314	610acf76d33d448b391eb588	4	1	main_slash	11	advance_on_keypress_SLASH	58	stimuli_distractor_diamondtriangles.svg	stimuli_target_squaretriangles.svg	15	yes	57	0	105	0	0			0	0			1				0	
6.6.1	win	2023-06-12	17:50:56	17:58:07	426061	610acf76d33d448b391eb588	4	1	main_slash	11	main_slash	59	stimuli_distractor_diamondtriangles.svg	stimuli_distractor_diamondtriangles.svg	39	no	0	1	2000	0	0			0	0			1				0	
6.6.1	win	2023-06-12	17:50:56	17:58:07	426061	610acf76d33d448b391eb588	4	1	main_slash	11	advance_on_keypress_SLASH	60	stimuli_distractor_diamondtriangles.svg	stimuli_distractor_diamondtriangles.svg	39	no	57	0	499	0	0			0	0			1				0	
6.6.1	win	2023-06-12	17:50:56	17:58:08	427622	610acf76d33d448b391eb588	4	1	main_slash	11	main_slash	61	stimuli_target_diamondrectangles.svg	stimuli_distractor_diamondtriangles.svg	23	yes	53	1	413	0	0			0	0			1				0	
6.6.1	win	2023-06-12	17:50:56	17:58:08	427622	610acf76d33d448b391eb588	4	1	main_slash	11	advance_on_keypress_SLASH	62	stimuli_target_diamondrectangles.svg	stimuli_distractor_diamondtriangles.svg	23	yes	57	0	85	0	0			0	0			1				0	
6.6.1	win	2023-06-12	17:50:56	17:58:09	428720	610acf76d33d448b391eb588	4	1	main_slash	11	main_slash	63	stimuli_distractor_trianglediamonds.svg	stimuli_target_diamondrectangles.svg	27	yes	53	1	361	0	0			0	0			1				0	
6.6.1	win	2023-06-12	17:50:56	17:58:09	428720	610acf76d33d448b391eb588	4	1	main_slash	11	advance_on_keypress_SLASH	64	stimuli_distractor_trianglediamonds.svg	stimuli_target_diamondrectangles.svg	27	yes	57	0	109	0	0			0	0			1				0	
6.6.1	win	2023-06-12	17:50:56	17:58:10	429852	610acf76d33d448b391eb588	4	1	main_slash	11	main_slash	65	stimuli_distractor_trianglediamonds.svg	stimuli_distractor_diamondtriangles.svg	36	no	53	0	392	0	0			0	0			1				0	
6.6.1	win	2023-06-12	17:50:56	17:58:10	429852	610acf76d33d448b391eb588	4	1	main_slash	11	advance_on_keypress_SLASH	66	stimuli_distractor_trianglediamonds.svg	stimuli_distractor_diamondtriangles.svg	36	no	57	0	1264	0	0			0	0			1				0	
6.6.1	win	2023-06-12	17:50:56	17:58:13	432146	610acf76d33d448b391eb588	4	1	main_slash	11	main_slash	67	stimuli_target_squarediamonds.svg	stimuli_distractor_diamondtriangles.svg	8	yes	53	1	387	0	0			0	0			1				0	
6.6.1	win	2023-06-12	17:50:56	17:58:13	432146	610acf76d33d448b391eb588	4	1	main_slash	11	advance_on_keypress_SLASH	68	stimuli_target_squarediamonds.svg	stimuli_distractor_diamondtriangles.svg	8	yes	57	0	134	0	0			0	0			1				0	
6.6.1	win	2023-06-12	17:50:56	17:58:14	433438	610acf76d33d448b391eb588	4	1	main_slash	11	main_slash	69	stimuli_target_trianglesquares.svg	stimuli_distractor_trianglediamonds.svg	18	yes	53	1	513	0	0			0	0			1				0	
6.6.1	win	2023-06-12	17:50:56	17:58:14	433438	610acf76d33d448b391eb588	4	1	main_slash	11	advance_on_keypress_SLASH	70	stimuli_target_trianglesquares.svg	stimuli_distractor_trianglediamonds.svg	18	yes	57	0	154	0	0			0	0			1				0	
6.6.1	win	2023-06-12	17:50:56	17:58:15	434665	610acf76d33d448b391eb588	4	1	main_slash	11	main_slash	71	stimuli_target_squarediamonds.svg	stimuli_distractor_trianglediamonds.svg	4	yes	53	1	424	0	0			0	0			1				0	
6.6.1	win	2023-06-12	17:50:56	17:58:15	434665	610acf76d33d448b391eb588	4	1	main_slash	11	advance_on_keypress_SLASH	72	stimuli_target_squarediamonds.svg	stimuli_distractor_trianglediamonds.svg	4	yes	57	0	145	0	0			0	0			1				0	
6.6.1	win	2023-06-12	17:50:56	17:58:16	436006	610acf76d33d448b391eb588	4	1	main_slash	11	main_slash	73	stimuli_target_diamondsquares.svg	stimuli_distractor_trianglediamonds.svg	20	yes	53	1	548	0	0			0	0			1				0	
6.6.1	win	2023-06-12	17:50:56	17:58:16	436006	610acf76d33d448b391eb588	4	1	main_slash	11	advance_on_keypress_SLASH	74	stimuli_target_diamondsquares.svg	stimuli_distractor_trianglediamonds.svg	20	yes	57	0	112	0	0			0	0			1				0	
6.6.1	win	2023-06-12	17:50:56	17:58:18	437177	610acf76d33d448b391eb588	4	1	main_slash	11	main_slash	75	stimuli_distractor_trianglediamonds.svg	stimuli_target_trianglesquares.svg	26	yes	53	1	404	0	0			0	0			1				0	
6.6.1	win	2023-06-12	17:50:56	17:58:18	437177	610acf76d33d448b391eb588	4	1	main_slash	11	advance_on_keypress_SLASH	76	stimuli_distractor_trianglediamonds.svg	stimuli_target_trianglesquares.svg	26	yes	57	0	118	0	0			0	0			1				0	
6.6.1	win	2023-06-12	17:50:56	17:58:19	438345	610acf76d33d448b391eb588	4	1	main_slash	11	main_slash	77	stimuli_target_diamondsquares.svg	stimuli_distractor_diamondtriangles.svg	24	yes	53	1	406	0	0			0	0			1				0	
6.6.1	win	2023-06-12	17:50:56	17:58:19	438345	610acf76d33d448b391eb588	4	1	main_slash	11	advance_on_keypress_SLASH	78	stimuli_target_diamondsquares.svg	stimuli_distractor_diamondtriangles.svg	24	yes	57	0	138	0	0			0	0			1				0	
6.6.1	win	2023-06-12	17:50:56	17:58:20	439546	610acf76d33d448b391eb588	4	1	main_slash	11	main_slash	79	stimuli_target_trianglerectangles.svg	stimuli_distractor_trianglediamonds.svg	17	yes	53	1	424	0	0			0	0			1				0	
6.6.1	win	2023-06-12	17:50:56	17:58:20	439546	610acf76d33d448b391eb588	4	1	main_slash	11	advance_on_keypress_SLASH	80	stimuli_target_trianglerectangles.svg	stimuli_distractor_trianglediamonds.svg	17	yes	57	0	1004	0	0			0	0			1				0	
6.6.1	win	2023-06-12	17:50:56	17:58:22	441681	610acf76d33d448b391eb588	4	1	main_slash	11	main_slash	81	stimuli_distractor_diamondtriangles.svg	stimuli_target_squarediamonds.svg	16	yes	53	1	492	0	0			0	0			1				0	
6.6.1	win	2023-06-12	17:50:56	17:58:22	441681	610acf76d33d448b391eb588	4	1	main_slash	11	advance_on_keypress_SLASH	82	stimuli_distractor_diamondtriangles.svg	stimuli_target_squarediamonds.svg	16	yes	57	0	192	0	0			0	0			1				0	
6.6.1	win	2023-06-12	17:50:56	17:58:23	442853	610acf76d33d448b391eb588	4	1	main_slash	11	main_slash	83	stimuli_distractor_trianglediamonds.svg	stimuli_target_squarediamonds.svg	12	yes	53	1	349	0	0			0	0			1				0	
6.6.1	win	2023-06-12	17:50:56	17:58:23	442853	610acf76d33d448b391eb588	4	1	main_slash	11	advance_on_keypress_SLASH	84	stimuli_distractor_trianglediamonds.svg	stimuli_target_squarediamonds.svg	12	yes	57	0	177	0	0			0	0			1				0	
6.6.1	win	2023-06-12	17:50:56	17:58:25	444201	610acf76d33d448b391eb588	4	1	main_slash	11	main_slash	85	stimuli_target_trianglerectangles.svg	stimuli_distractor_diamondtriangles.svg	21	yes	53	1	508	0	0			0	0			1				0	
6.6.1	win	2023-06-12	17:50:56	17:58:25	444201	610acf76d33d448b391eb588	4	1	main_slash	11	advance_on_keypress_SLASH	86	stimuli_target_trianglerectangles.svg	stimuli_distractor_diamondtriangles.svg	21	yes	57	0	243	0	0			0	0			1				0	
6.6.1	win	2023-06-12	17:50:56	17:58:26	445875	610acf76d33d448b391eb588	4	1	main_slash	11	main_slash	87	stimuli_distractor_trianglediamonds.svg	stimuli_target_diamondrectangles.svg	27	yes	53	1	788	0	0			0	0			1				0	
6.6.1	win	2023-06-12	17:50:56	17:58:26	445875	610acf76d33d448b391eb588	4	1	main_slash	11	advance_on_keypress_SLASH	88	stimuli_distractor_trianglediamonds.svg	stimuli_target_diamondrectangles.svg	27	yes	57	0	154	0	0			0	0			1				0	
6.6.1	win	2023-06-12	17:50:56	17:58:28	447167	610acf76d33d448b391eb588	4	1	main_slash	11	main_slash	89	stimuli_target_squarediamonds.svg	stimuli_distractor_diamondtriangles.svg	8	yes	53	1	498	0	0			0	0			1				0	
6.6.1	win	2023-06-12	17:50:56	17:58:28	447167	610acf76d33d448b391eb588	4	1	main_slash	11	advance_on_keypress_SLASH	90	stimuli_target_squarediamonds.svg	stimuli_distractor_diamondtriangles.svg	8	yes	57	0	155	0	0			0	0			1				0	
6.6.1	win	2023-06-12	17:50:56	17:58:29	448414	610acf76d33d448b391eb588	4	1	main_slash	11	main_slash	91	stimuli_target_rectanglediamonds.svg	stimuli_distractor_diamondtriangles.svg	6	yes	53	1	444	0	0			0	0			1				0	
6.6.1	win	2023-06-12	17:50:56	17:58:29	448414	610acf76d33d448b391eb588	4	1	main_slash	11	advance_on_keypress_SLASH	92	stimuli_target_rectanglediamonds.svg	stimuli_distractor_diamondtriangles.svg	6	yes	57	0	103	0	0			0	0			1				0	
6.6.1	win	2023-06-12	17:50:56	17:58:32	451170	610acf76d33d448b391eb588	4	1	main_slash	11	main_slash	93	stimuli_distractor_trianglediamonds.svg	stimuli_distractor_trianglediamonds.svg	34	no	0	1	2000	0	0			0	0			1				0	
6.6.1	win	2023-06-12	17:50:56	17:58:32	451170	610acf76d33d448b391eb588	4	1	main_slash	11	advance_on_keypress_SLASH	94	stimuli_distractor_trianglediamonds.svg	stimuli_distractor_trianglediamonds.svg	34	no	57	0	256	0	0			0	0			1				0	
6.6.1	win	2023-06-12	17:50:56	17:58:33	452478	610acf76d33d448b391eb588	4	1	main_slash	11	main_slash	95	stimuli_target_trianglerectangles.svg	stimuli_distractor_trianglediamonds.svg	17	yes	53	1	410	0	0			0	0			1				0	
6.6.1	win	2023-06-12	17:50:56	17:58:33	452478	610acf76d33d448b391eb588	4	1	main_slash	11	advance_on_keypress_SLASH	96	stimuli_target_trianglerectangles.svg	stimuli_distractor_trianglediamonds.svg	17	yes	57	0	108	0	0			0	0			1				0	
6.6.1	win	2023-06-12	17:50:56	17:58:34	453605	610acf76d33d448b391eb588	4	1	main_slash	11	main_slash	97	stimuli_target_diamondsquares.svg	stimuli_distractor_trianglediamonds.svg	20	yes	53	1	388	0	0			0	0			1				0	
6.6.1	win	2023-06-12	17:50:56	17:58:34	453605	610acf76d33d448b391eb588	4	1	main_slash	11	advance_on_keypress_SLASH	98	stimuli_target_diamondsquares.svg	stimuli_distractor_trianglediamonds.svg	20	yes	57	0	92	0	0			0	0			1				0	
6.6.1	win	2023-06-12	17:50:56	17:58:35	454687	610acf76d33d448b391eb588	4	1	main_slash	11	main_slash	99	stimuli_distractor_trianglediamonds.svg	stimuli_target_rectanglediamonds.svg	10	yes	53	1	353	0	0			0	0			1				0	
6.6.1	win	2023-06-12	17:50:56	17:58:35	454687	610acf76d33d448b391eb588	4	1	main_slash	11	advance_on_keypress_SLASH	100	stimuli_distractor_trianglediamonds.svg	stimuli_target_rectanglediamonds.svg	10	yes	57	0	111	0	0			0	0			1				0	
6.6.1	win	2023-06-12	17:50:56	17:58:36	455994	610acf76d33d448b391eb588	4	1	main_slash	11	main_slash	101	stimuli_distractor_diamondtriangles.svg	stimuli_target_trianglerectangles.svg	29	yes	53	1	543	0	0			0	0			1				0	
6.6.1	win	2023-06-12	17:50:56	17:58:36	455994	610acf76d33d448b391eb588	4	1	main_slash	11	advance_on_keypress_SLASH	102	stimuli_distractor_diamondtriangles.svg	stimuli_target_trianglerectangles.svg	29	yes	57	0	157	0	0			0	0			1				0	
6.6.1	win	2023-06-12	17:50:56	17:58:38	457406	610acf76d33d448b391eb588	4	1	main_slash	11	main_slash	103	stimuli_target_rectangletriangles.svg	stimuli_distractor_diamondtriangles.svg	5	yes	53	1	605	0	0			0	0			1				0	
6.6.1	win	2023-06-12	17:50:56	17:58:38	457406	610acf76d33d448b391eb588	4	1	main_slash	11	advance_on_keypress_SLASH	104	stimuli_target_rectangletriangles.svg	stimuli_distractor_diamondtriangles.svg	5	yes	57	0	118	0	0			0	0			1				0	
6.6.1	win	2023-06-12	17:50:56	17:58:41	460166	610acf76d33d448b391eb588	4	1	main_slash	11	main_slash	105	stimuli_distractor_diamondtriangles.svg	stimuli_distractor_trianglediamonds.svg	38	no	0	1	2000	0	0			0	0			1				0	
6.6.1	win	2023-06-12	17:50:56	17:58:41	460166	610acf76d33d448b391eb588	4	1	main_slash	11	advance_on_keypress_SLASH	106	stimuli_distractor_diamondtriangles.svg	stimuli_distractor_trianglediamonds.svg	38	no	57	0	271	0	0			0	0			1				0	
6.6.1	win	2023-06-12	17:50:56	17:58:44	463082	610acf76d33d448b391eb588	4	1	main_slash	11	main_slash	107	stimuli_distractor_diamondtriangles.svg	stimuli_distractor_diamondtriangles.svg	40	no	0	1	2000	0	0			0	0			1				0	
6.6.1	win	2023-06-12	17:50:56	17:58:44	463082	610acf76d33d448b391eb588	4	1	main_slash	11	advance_on_keypress_SLASH	108	stimuli_distractor_diamondtriangles.svg	stimuli_distractor_diamondtriangles.svg	40	no	57	0	43	0	0			0	0			1				0	
6.6.1	win	2023-06-12	17:50:56	17:58:46	465765	610acf76d33d448b391eb588	4	1	main_slash	11	main_slash	109	stimuli_distractor_trianglediamonds.svg	stimuli_distractor_diamondtriangles.svg	36	no	0	1	2000	0	0			0	0			1				0	
6.6.1	win	2023-06-12	17:50:56	17:58:46	465765	610acf76d33d448b391eb588	4	1	main_slash	11	advance_on_keypress_SLASH	110	stimuli_distractor_trianglediamonds.svg	stimuli_distractor_diamondtriangles.svg	36	no	57	0	292	0	0			0	0			1				0	
6.6.1	win	2023-06-12	17:50:56	17:58:48	467210	610acf76d33d448b391eb588	4	1	main_slash	11	main_slash	111	stimuli_target_diamondrectangles.svg	stimuli_distractor_diamondtriangles.svg	23	yes	53	1	504	0	0			0	0			1				0	
6.6.1	win	2023-06-12	17:50:56	17:58:48	467210	610acf76d33d448b391eb588	4	1	main_slash	11	advance_on_keypress_SLASH	112	stimuli_target_diamondrectangles.svg	stimuli_distractor_diamondtriangles.svg	23	yes	57	0	125	0	0			0	0			1				0	
6.6.1	win	2023-06-12	17:50:56	17:58:49	468387	610acf76d33d448b391eb588	4	1	main_slash	11	main_slash	113	stimuli_distractor_trianglediamonds.svg	stimuli_target_squaretriangles.svg	11	yes	53	1	407	0	0			0	0			1				0	
6.6.1	win	2023-06-12	17:50:56	17:58:49	468387	610acf76d33d448b391eb588	4	1	main_slash	11	advance_on_keypress_SLASH	114	stimuli_distractor_trianglediamonds.svg	stimuli_target_squaretriangles.svg	11	yes	57	0	160	0	0			0	0			1				0	
6.6.1	win	2023-06-12	17:50:56	17:58:52	471179	610acf76d33d448b391eb588	4	1	main_slash	11	main_slash	115	stimuli_distractor_diamondtriangles.svg	stimuli_distractor_diamondtriangles.svg	39	no	0	1	2000	0	0			0	0			1				0	
6.6.1	win	2023-06-12	17:50:56	17:58:52	471179	610acf76d33d448b391eb588	4	1	main_slash	11	advance_on_keypress_SLASH	116	stimuli_distractor_diamondtriangles.svg	stimuli_distractor_diamondtriangles.svg	39	no	57	0	284	0	0			0	0			1				0	
6.6.1	win	2023-06-12	17:50:56	17:58:53	472551	610acf76d33d448b391eb588	4	1	main_slash	11	main_slash	117	stimuli_distractor_trianglediamonds.svg	stimuli_target_rectangletriangles.svg	9	yes	53	1	440	0	0			0	0			1				0	
6.6.1	win	2023-06-12	17:50:56	17:58:53	472551	610acf76d33d448b391eb588	4	1	main_slash	11	advance_on_keypress_SLASH	118	stimuli_distractor_trianglediamonds.svg	stimuli_target_rectangletriangles.svg	9	yes	57	0	149	0	0			0	0			1				0	
6.6.1	win	2023-06-12	17:50:56	17:58:54	473763	610acf76d33d448b391eb588	4	1	main_slash	11	main_slash	119	stimuli_target_diamondrectangles.svg	stimuli_distractor_trianglediamonds.svg	19	yes	53	1	419	0	0			0	0			1				0	
6.6.1	win	2023-06-12	17:50:56	17:58:54	473763	610acf76d33d448b391eb588	4	1	main_slash	11	advance_on_keypress_SLASH	120	stimuli_target_diamondrectangles.svg	stimuli_distractor_trianglediamonds.svg	19	yes	57	0	170	0	0			0	0			1				0	
6.6.1	win	2023-06-12	17:50:56	17:58:55	474979	610acf76d33d448b391eb588	4	1	main_slash	11	main_slash	121	stimuli_distractor_trianglediamonds.svg	stimuli_target_trianglesquares.svg	26	yes	53	1	402	0	0			0	0			1				0	
6.6.1	win	2023-06-12	17:50:56	17:58:55	474979	610acf76d33d448b391eb588	4	1	main_slash	11	advance_on_keypress_SLASH	122	stimuli_distractor_trianglediamonds.svg	stimuli_target_trianglesquares.svg	26	yes	57	0	146	0	0			0	0			1				0	
6.6.1	win	2023-06-12	17:50:56	17:58:57	476241	610acf76d33d448b391eb588	4	1	main_slash	11	main_slash	123	stimuli_distractor_trianglediamonds.svg	stimuli_target_trianglerectangles.svg	25	yes	53	1	465	0	0			0	0			1				0	
6.6.1	win	2023-06-12	17:50:56	17:58:57	476241	610acf76d33d448b391eb588	4	1	main_slash	11	advance_on_keypress_SLASH	124	stimuli_distractor_trianglediamonds.svg	stimuli_target_trianglerectangles.svg	25	yes	57	0	127	0	0			0	0			1				0	
6.6.1	win	2023-06-12	17:50:56	17:58:58	477448	610acf76d33d448b391eb588	4	1	main_slash	11	main_slash	125	stimuli_distractor_diamondtriangles.svg	stimuli_target_rectanglediamonds.svg	14	yes	53	1	439	0	0			0	0			1				0	
6.6.1	win	2023-06-12	17:50:56	17:58:58	477448	610acf76d33d448b391eb588	4	1	main_slash	11	advance_on_keypress_SLASH	126	stimuli_distractor_diamondtriangles.svg	stimuli_target_rectanglediamonds.svg	14	yes	57	0	143	0	0			0	0			1				0	
6.6.1	win	2023-06-12	17:50:56	17:58:59	478670	610acf76d33d448b391eb588	4	1	main_slash	11	main_slash	127	stimuli_target_trianglesquares.svg	stimuli_distractor_trianglediamonds.svg	18	yes	53	1	428	0	0			0	0			1				0	
6.6.1	win	2023-06-12	17:50:56	17:58:59	478670	610acf76d33d448b391eb588	4	1	main_slash	11	advance_on_keypress_SLASH	128	stimuli_target_trianglesquares.svg	stimuli_distractor_trianglediamonds.svg	18	yes	57	0	114	0	0			0	0			1				0	
6.6.1	win	2023-06-12	17:50:56	17:59:00	479867	610acf76d33d448b391eb588	4	1	main_slash	11	main_slash	129	stimuli_target_squarediamonds.svg	stimuli_distractor_trianglediamonds.svg	4	yes	53	1	442	0	0			0	0			1				0	
6.6.1	win	2023-06-12	17:50:56	17:59:00	479867	610acf76d33d448b391eb588	4	1	main_slash	11	advance_on_keypress_SLASH	130	stimuli_target_squarediamonds.svg	stimuli_distractor_trianglediamonds.svg	4	yes	57	0	112	0	0			0	0			1				0	
6.6.1	win	2023-06-12	17:50:56	17:59:01	481030	610acf76d33d448b391eb588	4	1	main_slash	11	main_slash	131	stimuli_distractor_diamondtriangles.svg	stimuli_target_diamondsquares.svg	32	yes	53	1	404	0	0			0	0			1				0	
6.6.1	win	2023-06-12	17:50:56	17:59:01	481030	610acf76d33d448b391eb588	4	1	main_slash	11	advance_on_keypress_SLASH	132	stimuli_distractor_diamondtriangles.svg	stimuli_target_diamondsquares.svg	32	yes	57	0	132	0	0			0	0			1				0	
6.6.1	win	2023-06-12	17:50:56	17:59:04	483808	610acf76d33d448b391eb588	4	1	main_slash	11	main_slash	133	stimuli_distractor_diamondtriangles.svg	stimuli_distractor_trianglediamonds.svg	37	no	0	1	2000	0	0			0	0			1				0	
6.6.1	win	2023-06-12	17:50:56	17:59:04	483808	610acf76d33d448b391eb588	4	1	main_slash	11	advance_on_keypress_SLASH	134	stimuli_distractor_diamondtriangles.svg	stimuli_distractor_trianglediamonds.svg	37	no	57	0	312	0	0			0	0			1				0	
6.6.1	win	2023-06-12	17:50:56	17:59:06	485133	610acf76d33d448b391eb588	4	1	main_slash	11	main_slash	135	stimuli_target_squaretriangles.svg	stimuli_distractor_trianglediamonds.svg	3	yes	53	1	360	0	0			0	0			1				0	
6.6.1	win	2023-06-12	17:50:56	17:59:06	485133	610acf76d33d448b391eb588	4	1	main_slash	11	advance_on_keypress_SLASH	136	stimuli_target_squaretriangles.svg	stimuli_distractor_trianglediamonds.svg	3	yes	57	0	113	0	0			0	0			1				0	
6.6.1	win	2023-06-12	17:50:56	17:59:07	486376	610acf76d33d448b391eb588	4	1	main_slash	11	main_slash	137	stimuli_distractor_diamondtriangles.svg	stimuli_target_diamondrectangles.svg	31	yes	53	1	485	0	0			0	0			1				0	
6.6.1	win	2023-06-12	17:50:56	17:59:07	486376	610acf76d33d448b391eb588	4	1	main_slash	11	advance_on_keypress_SLASH	138	stimuli_distractor_diamondtriangles.svg	stimuli_target_diamondrectangles.svg	31	yes	57	0	91	0	0			0	0			1				0	
6.6.1	win	2023-06-12	17:50:56	17:59:08	487557	610acf76d33d448b391eb588	4	1	main_slash	11	main_slash	139	stimuli_target_trianglesquares.svg	stimuli_distractor_diamondtriangles.svg	22	yes	53	1	451	0	0			0	0			1				0	
6.6.1	win	2023-06-12	17:50:56	17:59:08	487557	610acf76d33d448b391eb588	4	1	main_slash	11	advance_on_keypress_SLASH	140	stimuli_target_trianglesquares.svg	stimuli_distractor_diamondtriangles.svg	22	yes	57	0	94	0	0			0	0			1				0	
6.6.1	win	2023-06-12	17:50:56	17:59:11	490289	610acf76d33d448b391eb588	4	1	main_slash	11	main_slash	141	stimuli_distractor_trianglediamonds.svg	stimuli_distractor_diamondtriangles.svg	35	no	0	1	2000	0	0			0	0			1				0	
6.6.1	win	2023-06-12	17:50:56	17:59:11	490289	610acf76d33d448b391eb588	4	1	main_slash	11	advance_on_keypress_SLASH	142	stimuli_distractor_trianglediamonds.svg	stimuli_distractor_diamondtriangles.svg	35	no	57	0	619	0	0			0	0			1				0	
6.6.1	win	2023-06-12	17:50:56	17:59:12	491961	610acf76d33d448b391eb588	4	1	main_slash	11	main_slash	143	stimuli_distractor_diamondtriangles.svg	stimuli_target_squaretriangles.svg	15	yes	53	1	407	0	0			0	0			1				0	
6.6.1	win	2023-06-12	17:50:56	17:59:12	491961	610acf76d33d448b391eb588	4	1	main_slash	11	advance_on_keypress_SLASH	144	stimuli_distractor_diamondtriangles.svg	stimuli_target_squaretriangles.svg	15	yes	57	0	150	0	0			0	0			1				0	
6.6.1	win	2023-06-12	17:50:56	17:59:14	493268	610acf76d33d448b391eb588	4	1	main_slash	11	main_slash	145	stimuli_distractor_trianglediamonds.svg	stimuli_target_diamondsquares.svg	28	yes	53	1	513	0	0			0	0			1				0	
6.6.1	win	2023-06-12	17:50:56	17:59:14	493268	610acf76d33d448b391eb588	4	1	main_slash	11	advance_on_keypress_SLASH	146	stimuli_distractor_trianglediamonds.svg	stimuli_target_diamondsquares.svg	28	yes	57	0	120	0	0			0	0			1				0	
6.6.1	win	2023-06-12	17:50:56	17:59:15	494480	610acf76d33d448b391eb588	4	1	main_slash	11	main_slash	147	stimuli_distractor_diamondtriangles.svg	stimuli_target_trianglesquares.svg	30	yes	53	1	442	0	0			0	0			1				0	
6.6.1	win	2023-06-12	17:50:56	17:59:15	494480	610acf76d33d448b391eb588	4	1	main_slash	11	advance_on_keypress_SLASH	148	stimuli_distractor_diamondtriangles.svg	stimuli_target_trianglesquares.svg	30	yes	57	0	182	0	0			0	0			1				0	
6.6.1	win	2023-06-12	17:50:56	17:59:16	495817	610acf76d33d448b391eb588	4	1	main_slash	11	main_slash	149	stimuli_target_squaretriangles.svg	stimuli_distractor_diamondtriangles.svg	7	yes	53	1	513	0	0			0	0			1				0	
6.6.1	win	2023-06-12	17:50:56	17:59:16	495817	610acf76d33d448b391eb588	4	1	main_slash	11	advance_on_keypress_SLASH	150	stimuli_target_squaretriangles.svg	stimuli_distractor_diamondtriangles.svg	7	yes	57	0	130	0	0			0	0			1				0	
6.6.1	win	2023-06-12	17:50:56	17:59:17	496984	610acf76d33d448b391eb588	4	1	main_slash	11	main_slash	151	stimuli_target_rectangletriangles.svg	stimuli_distractor_trianglediamonds.svg	1	yes	53	1	370	0	0			0	0			1				0	
6.6.1	win	2023-06-12	17:50:56	17:59:17	496984	610acf76d33d448b391eb588	4	1	main_slash	11	advance_on_keypress_SLASH	152	stimuli_target_rectangletriangles.svg	stimuli_distractor_trianglediamonds.svg	1	yes	57	0	86	0	0			0	0			1				0	
6.6.1	win	2023-06-12	17:50:56	17:59:19	498176	610acf76d33d448b391eb588	4	1	main_slash	11	main_slash	153	stimuli_target_diamondsquares.svg	stimuli_distractor_diamondtriangles.svg	24	yes	53	1	456	0	0			0	0			1				0	
6.6.1	win	2023-06-12	17:50:56	17:59:19	498176	610acf76d33d448b391eb588	4	1	main_slash	11	advance_on_keypress_SLASH	154	stimuli_target_diamondsquares.svg	stimuli_distractor_diamondtriangles.svg	24	yes	57	0	65	0	0			0	0			1				0	
6.6.1	win	2023-06-12	17:50:56	17:59:20	499399	610acf76d33d448b391eb588	4	1	main_slash	11	main_slash	155	stimuli_target_rectanglediamonds.svg	stimuli_distractor_trianglediamonds.svg	2	yes	53	1	508	0	0			0	0			1				0	
6.6.1	win	2023-06-12	17:50:56	17:59:20	499399	610acf76d33d448b391eb588	4	1	main_slash	11	advance_on_keypress_SLASH	156	stimuli_target_rectanglediamonds.svg	stimuli_distractor_trianglediamonds.svg	2	yes	57	0	54	0	0			0	0			1				0	
6.6.1	win	2023-06-12	17:50:56	17:59:21	500495	610acf76d33d448b391eb588	4	1	main_slash	11	main_slash	157	stimuli_distractor_diamondtriangles.svg	stimuli_target_rectangletriangles.svg	13	yes	53	1	393	0	0			0	0			1				0	
6.6.1	win	2023-06-12	17:50:56	17:59:21	500495	610acf76d33d448b391eb588	4	1	main_slash	11	advance_on_keypress_SLASH	158	stimuli_distractor_diamondtriangles.svg	stimuli_target_rectangletriangles.svg	13	yes	57	0	138	0	0			0	0			1				0	
6.6.1	win	2023-06-12	17:50:56	17:59:22	501676	610acf76d33d448b391eb588	4	1	main_slash	11	main_slash	159	stimuli_distractor_trianglediamonds.svg	stimuli_distractor_trianglediamonds.svg	33	no	53	0	408	0	0			0	0			1				0	
6.6.1	win	2023-06-12	17:50:56	17:59:22	501676	610acf76d33d448b391eb588	4	1	main_slash	11	advance_on_keypress_SLASH	160	stimuli_distractor_trianglediamonds.svg	stimuli_distractor_trianglediamonds.svg	33	no	57	0	795	0	0			0	0			1				0	
6.6.1	win	2023-06-12	17:50:56	17:59:22	501676	610acf76d33d448b391eb588	4	1	headphonecheck_calibration	14	headphonecheck_calibrationIntro	1	stimuli_distractor_trianglediamonds.svg	stimuli_distractor_trianglediamonds.svg	33	no	calibrationButton	0	3180	0	0			0	0			1				0	
6.6.1	win	2023-06-12	17:50:56	17:59:22	501676	610acf76d33d448b391eb588	4	1	headphonecheck_testphase	15	test_collectResponse	3	stimuli_distractor_trianglediamonds.svg	stimuli_distractor_trianglediamonds.svg	33	no	third	1	2223	1	2	antiphase_hc_ios.wav	3	0	0			1				0	
6.6.1	win	2023-06-12	17:50:56	17:59:22	501676	610acf76d33d448b391eb588	4	1	headphonecheck_testphase	15	test_collectResponse	6	stimuli_distractor_trianglediamonds.svg	stimuli_distractor_trianglediamonds.svg	33	no	third	1	1775	2	6	antiphase_hc_ois.wav	3	0	0			1				0	
6.6.1	win	2023-06-12	17:50:56	17:59:22	501676	610acf76d33d448b391eb588	4	1	headphonecheck_testphase	15	test_collectResponse	9	stimuli_distractor_trianglediamonds.svg	stimuli_distractor_trianglediamonds.svg	33	no	second	1	519	3	1	antiphase_hc_iso.wav	2	0	0			1				0	
6.6.1	win	2023-06-12	17:50:56	17:59:22	501676	610acf76d33d448b391eb588	4	1	headphonecheck_testphase	15	test_collectResponse	12	stimuli_distractor_trianglediamonds.svg	stimuli_distractor_trianglediamonds.svg	33	no	first	1	663	4	4	antiphase_hc_sio.wav	1	0	0			1				0	
6.6.1	win	2023-06-12	17:50:56	17:59:22	501676	610acf76d33d448b391eb588	4	1	headphonecheck_testphase	15	test_collectResponse	15	stimuli_distractor_trianglediamonds.svg	stimuli_distractor_trianglediamonds.svg	33	no	second	1	1016	5	5	antiphase_hc_osi.wav	2	0	0			1				0	
6.6.1	win	2023-06-12	17:50:56	17:59:22	501676	610acf76d33d448b391eb588	4	1	headphonecheck_testphase	15	test_collectResponse	18	stimuli_distractor_trianglediamonds.svg	stimuli_distractor_trianglediamonds.svg	33	no	first	1	424	6	3	antiphase_hc_soi.wav	1	0	0			1				0	
6.6.1	win	2023-06-12	17:50:56	17:59:22	501676	610acf76d33d448b391eb588	4	1	stereocheck_calibration	17	stereocheck_calibrationIntro	1	stimuli_distractor_trianglediamonds.svg	stimuli_distractor_trianglediamonds.svg	33	no	stereocheck_calibrationButton	0	2370	6	3	antiphase_hc_soi.wav	1	0	0			1				0	
6.6.1	win	2023-06-12	17:50:56	17:59:22	501676	610acf76d33d448b391eb588	4	1	stereocheck_testphase	18	stereocheck_test_collectResponse	3	stimuli_distractor_trianglediamonds.svg	stimuli_distractor_trianglediamonds.svg	33	no	stereocheck_left	1	431	6	3	antiphase_hc_soi.wav	1	1	2	noise_calib_stim_LEFT.wav	1	1				0	
6.6.1	win	2023-06-12	17:50:56	17:59:22	501676	610acf76d33d448b391eb588	4	1	stereocheck_testphase	18	stereocheck_test_collectResponse	6	stimuli_distractor_trianglediamonds.svg	stimuli_distractor_trianglediamonds.svg	33	no	stereocheck_right	1	506	6	3	antiphase_hc_soi.wav	1	2	5	noise_calib_stim_RIGHT.wav	2	1				0	
6.6.1	win	2023-06-12	17:50:56	17:59:22	501676	610acf76d33d448b391eb588	4	1	stereocheck_testphase	18	stereocheck_test_collectResponse	9	stimuli_distractor_trianglediamonds.svg	stimuli_distractor_trianglediamonds.svg	33	no	stereocheck_right	1	349	6	3	antiphase_hc_soi.wav	1	3	4	noise_calib_stim_RIGHT.wav	2	1				0	
6.6.1	win	2023-06-12	17:50:56	17:59:22	501676	610acf76d33d448b391eb588	4	1	stereocheck_testphase	18	stereocheck_test_collectResponse	12	stimuli_distractor_trianglediamonds.svg	stimuli_distractor_trianglediamonds.svg	33	no	stereocheck_left	1	351	6	3	antiphase_hc_soi.wav	1	4	3	noise_calib_stim_LEFT.wav	1	1				0	
6.6.1	win	2023-06-12	17:50:56	17:59:22	501676	610acf76d33d448b391eb588	4	1	stereocheck_testphase	18	stereocheck_test_collectResponse	15	stimuli_distractor_trianglediamonds.svg	stimuli_distractor_trianglediamonds.svg	33	no	stereocheck_left	1	416	6	3	antiphase_hc_soi.wav	1	5	1	noise_calib_stim_LEFT.wav	1	1				0	
6.6.1	win	2023-06-12	17:50:56	17:59:22	501676	610acf76d33d448b391eb588	4	1	stereocheck_testphase	18	stereocheck_test_collectResponse	18	stimuli_distractor_trianglediamonds.svg	stimuli_distractor_trianglediamonds.svg	33	no	stereocheck_right	1	462	6	3	antiphase_hc_soi.wav	1	6	6	noise_calib_stim_RIGHT.wav	2	1				0	
6.6.1	win	2023-06-12	17:50:56	17:59:22	501676	610acf76d33d448b391eb588	4	1	DL_practice	21	DL_practice	2	stimuli_distractor_trianglediamonds.svg	stimuli_distractor_trianglediamonds.svg	33	no	ba	1	1380	6	3	antiphase_hc_soi.wav	1	6	6	noise_calib_stim_RIGHT.wav	2	1	blb_dichoticlistening_ba-ba.mp3	ba	ba	0	left
6.6.1	win	2023-06-12	17:50:56	17:59:22	501676	610acf76d33d448b391eb588	4	1	DL_practice	21	DL_practice	3	stimuli_distractor_trianglediamonds.svg	stimuli_distractor_trianglediamonds.svg	33	no	ka	1	1637	6	3	antiphase_hc_soi.wav	1	6	6	noise_calib_stim_RIGHT.wav	2	23	blb_dichoticlistening_ka-pa.mp3	ka	pa	1	left
6.6.1	win	2023-06-12	17:50:56	17:59:22	501676	610acf76d33d448b391eb588	4	1	DL_practice	21	DL_practice	4	stimuli_distractor_trianglediamonds.svg	stimuli_distractor_trianglediamonds.svg	33	no	da	1	1021	6	3	antiphase_hc_soi.wav	1	6	6	noise_calib_stim_RIGHT.wav	2	7	blb_dichoticlistening_da-ba.mp3	da	ba	1	left
6.6.1	win	2023-06-12	17:50:56	17:59:22	501676	610acf76d33d448b391eb588	4	1	DL_practice	21	DL_practice	5	stimuli_distractor_trianglediamonds.svg	stimuli_distractor_trianglediamonds.svg	33	no	pa	1	894	6	3	antiphase_hc_soi.wav	1	6	6	noise_calib_stim_RIGHT.wav	2	29	blb_dichoticlistening_pa-pa.mp3	pa	pa	0	left
6.6.1	win	2023-06-12	17:50:56	17:59:22	501676	610acf76d33d448b391eb588	4	1	DL_practice	21	DL_practice	6	stimuli_distractor_trianglediamonds.svg	stimuli_distractor_trianglediamonds.svg	33	no	ka	0	1095	6	3	antiphase_hc_soi.wav	1	6	6	noise_calib_stim_RIGHT.wav	2	36	blb_dichoticlistening_ta-ta.mp3	ta	ta	0	other
6.6.1	win	2023-06-12	17:50:56	17:59:22	501676	610acf76d33d448b391eb588	4	1	DL_practice	21	DL_practice	7	stimuli_distractor_trianglediamonds.svg	stimuli_distractor_trianglediamonds.svg	33	no	ga	1	612	6	3	antiphase_hc_soi.wav	1	6	6	noise_calib_stim_RIGHT.wav	2	18	blb_dichoticlistening_ga-ta.mp3	ga	ta	1	left
6.6.1	win	2023-06-12	17:50:56	17:59:22	501676	610acf76d33d448b391eb588	4	1	DL_practice	21	DL_practice	8	stimuli_distractor_trianglediamonds.svg	stimuli_distractor_trianglediamonds.svg	33	no	ka	1	1160	6	3	antiphase_hc_soi.wav	1	6	6	noise_calib_stim_RIGHT.wav	2	22	blb_dichoticlistening_ka-ka.mp3	ka	ka	0	left
6.6.1	win	2023-06-12	17:50:56	17:59:22	501676	610acf76d33d448b391eb588	4	1	DL_practice	21	DL_practice	9	stimuli_distractor_trianglediamonds.svg	stimuli_distractor_trianglediamonds.svg	33	no	da	1	921	6	3	antiphase_hc_soi.wav	1	6	6	noise_calib_stim_RIGHT.wav	2	8	blb_dichoticlistening_da-da.mp3	da	da	0	left
6.6.1	win	2023-06-12	17:50:56	17:59:22	501676	610acf76d33d448b391eb588	4	1	DL_practice	21	DL_practice	10	stimuli_distractor_trianglediamonds.svg	stimuli_distractor_trianglediamonds.svg	33	no	ga	1	969	6	3	antiphase_hc_soi.wav	1	6	6	noise_calib_stim_RIGHT.wav	2	15	blb_dichoticlistening_ga-ga.mp3	ga	ga	0	left
6.6.1	win	2023-06-12	17:50:56	17:59:22	501676	610acf76d33d448b391eb588	4	1	DL_test	23	DL_test	1	stimuli_distractor_trianglediamonds.svg	stimuli_distractor_trianglediamonds.svg	33	no	ba	1	1177	6	3	antiphase_hc_soi.wav	1	6	6	noise_calib_stim_RIGHT.wav	2	13	blb_dichoticlistening_ga-ba.mp3	ga	ba	1	right
6.6.1	win	2023-06-12	17:50:56	17:59:22	501676	610acf76d33d448b391eb588	4	1	DL_test	23	DL_test	2	stimuli_distractor_trianglediamonds.svg	stimuli_distractor_trianglediamonds.svg	33	no	ka	1	802	6	3	antiphase_hc_soi.wav	1	6	6	noise_calib_stim_RIGHT.wav	2	24	blb_dichoticlistening_ka-ta.mp3	ka	ta	1	left
6.6.1	win	2023-06-12	17:50:56	17:59:22	501676	610acf76d33d448b391eb588	4	1	DL_test	23	DL_test	3	stimuli_distractor_trianglediamonds.svg	stimuli_distractor_trianglediamonds.svg	33	no	da	1	1458	6	3	antiphase_hc_soi.wav	1	6	6	noise_calib_stim_RIGHT.wav	2	7	blb_dichoticlistening_da-ba.mp3	da	ba	1	left
6.6.1	win	2023-06-12	17:50:56	17:59:22	501676	610acf76d33d448b391eb588	4	1	DL_test	23	DL_test	4	stimuli_distractor_trianglediamonds.svg	stimuli_distractor_trianglediamonds.svg	33	no	ba	1	1054	6	3	antiphase_hc_soi.wav	1	6	6	noise_calib_stim_RIGHT.wav	2	19	blb_dichoticlistening_ka-ba.mp3	ka	ba	1	right
6.6.1	win	2023-06-12	17:50:56	17:59:22	501676	610acf76d33d448b391eb588	4	1	DL_test	23	DL_test	5	stimuli_distractor_trianglediamonds.svg	stimuli_distractor_trianglediamonds.svg	33	no	ka	1	706	6	3	antiphase_hc_soi.wav	1	6	6	noise_calib_stim_RIGHT.wav	2	34	blb_dichoticlistening_ta-ka.mp3	ta	ka	1	right
6.6.1	win	2023-06-12	17:50:56	17:59:22	501676	610acf76d33d448b391eb588	4	1	DL_test	23	DL_test	6	stimuli_distractor_trianglediamonds.svg	stimuli_distractor_trianglediamonds.svg	33	no	pa	0	1539	6	3	antiphase_hc_soi.wav	1	6	6	noise_calib_stim_RIGHT.wav	2	6	blb_dichoticlistening_ba-ta.mp3	ba	ta	1	other
6.6.1	win	2023-06-12	17:50:56	17:59:22	501676	610acf76d33d448b391eb588	4	1	DL_test	23	DL_test	7	stimuli_distractor_trianglediamonds.svg	stimuli_distractor_trianglediamonds.svg	33	no	da	1	850	6	3	antiphase_hc_soi.wav	1	6	6	noise_calib_stim_RIGHT.wav	2	8	blb_dichoticlistening_da-da.mp3	da	da	0	left
6.6.1	win	2023-06-12	17:50:56	17:59:22	501676	610acf76d33d448b391eb588	4	1	DL_test	23	DL_test	8	stimuli_distractor_trianglediamonds.svg	stimuli_distractor_trianglediamonds.svg	33	no	pa	1	1196	6	3	antiphase_hc_soi.wav	1	6	6	noise_calib_stim_RIGHT.wav	2	35	blb_dichoticlistening_ta-pa.mp3	ta	pa	1	right
6.6.1	win	2023-06-12	17:50:56	17:59:22	501676	610acf76d33d448b391eb588	4	1	DL_test	23	DL_test	9	stimuli_distractor_trianglediamonds.svg	stimuli_distractor_trianglediamonds.svg	33	no	pa	0	1369	6	3	antiphase_hc_soi.wav	1	6	6	noise_calib_stim_RIGHT.wav	2	31	blb_dichoticlistening_ta-ba.mp3	ta	ba	1	other
6.6.1	win	2023-06-12	17:50:56	17:59:22	501676	610acf76d33d448b391eb588	4	1	DL_test	23	DL_test	10	stimuli_distractor_trianglediamonds.svg	stimuli_distractor_trianglediamonds.svg	33	no	da	1	1004	6	3	antiphase_hc_soi.wav	1	6	6	noise_calib_stim_RIGHT.wav	2	32	blb_dichoticlistening_ta-da.mp3	ta	da	1	right
6.6.1	win	2023-06-12	17:50:56	17:59:22	501676	610acf76d33d448b391eb588	4	1	DL_test	23	DL_test	11	stimuli_distractor_trianglediamonds.svg	stimuli_distractor_trianglediamonds.svg	33	no	ga	0	2348	6	3	antiphase_hc_soi.wav	1	6	6	noise_calib_stim_RIGHT.wav	2	2	blb_dichoticlistening_ba-da.mp3	ba	da	1	other
6.6.1	win	2023-06-12	17:50:56	17:59:22	501676	610acf76d33d448b391eb588	4	1	DL_test	23	DL_test	12	stimuli_distractor_trianglediamonds.svg	stimuli_distractor_trianglediamonds.svg	33	no	da	1	1649	6	3	antiphase_hc_soi.wav	1	6	6	noise_calib_stim_RIGHT.wav	2	20	blb_dichoticlistening_ka-da.mp3	ka	da	1	right
6.6.1	win	2023-06-12	17:50:56	17:59:22	501676	610acf76d33d448b391eb588	4	1	DL_test	23	DL_test	13	stimuli_distractor_trianglediamonds.svg	stimuli_distractor_trianglediamonds.svg	33	no	ka	0	1772	6	3	antiphase_hc_soi.wav	1	6	6	noise_calib_stim_RIGHT.wav	2	26	blb_dichoticlistening_pa-da.mp3	pa	da	1	other
6.6.1	win	2023-06-12	17:50:56	17:59:22	501676	610acf76d33d448b391eb588	4	1	DL_test	23	DL_test	14	stimuli_distractor_trianglediamonds.svg	stimuli_distractor_trianglediamonds.svg	33	no	ga	1	830	6	3	antiphase_hc_soi.wav	1	6	6	noise_calib_stim_RIGHT.wav	2	9	blb_dichoticlistening_da-ga.mp3	da	ga	1	right
6.6.1	win	2023-06-12	17:50:56	17:59:22	501676	610acf76d33d448b391eb588	4	1	DL_test	23	DL_test	15	stimuli_distractor_trianglediamonds.svg	stimuli_distractor_trianglediamonds.svg	33	no	pa	1	1006	6	3	antiphase_hc_soi.wav	1	6	6	noise_calib_stim_RIGHT.wav	2	29	blb_dichoticlistening_pa-pa.mp3	pa	pa	0	left
6.6.1	win	2023-06-12	17:50:56	17:59:22	501676	610acf76d33d448b391eb588	4	1	DL_test	23	DL_test	16	stimuli_distractor_trianglediamonds.svg	stimuli_distractor_trianglediamonds.svg	33	no	ba	1	3649	6	3	antiphase_hc_soi.wav	1	6	6	noise_calib_stim_RIGHT.wav	2	4	blb_dichoticlistening_ba-ka.mp3	ba	ka	1	left
6.6.1	win	2023-06-12	17:50:56	17:59:22	501676	610acf76d33d448b391eb588	4	1	DL_test	23	DL_test	17	stimuli_distractor_trianglediamonds.svg	stimuli_distractor_trianglediamonds.svg	33	no	pa	1	1153	6	3	antiphase_hc_soi.wav	1	6	6	noise_calib_stim_RIGHT.wav	2	25	blb_dichoticlistening_pa-ba.mp3	pa	ba	1	left
6.6.1	win	2023-06-12	17:50:56	17:59:22	501676	610acf76d33d448b391eb588	4	1	DL_test	23	DL_test	18	stimuli_distractor_trianglediamonds.svg	stimuli_distractor_trianglediamonds.svg	33	no	da	1	1565	6	3	antiphase_hc_soi.wav	1	6	6	noise_calib_stim_RIGHT.wav	2	12	blb_dichoticlistening_da-ta.mp3	da	ta	1	left
6.6.1	win	2023-06-12	17:50:56	17:59:22	501676	610acf76d33d448b391eb588	4	1	DL_test	23	DL_test	19	stimuli_distractor_trianglediamonds.svg	stimuli_distractor_trianglediamonds.svg	33	no	ga	1	650	6	3	antiphase_hc_soi.wav	1	6	6	noise_calib_stim_RIGHT.wav	2	21	blb_dichoticlistening_ka-ga.mp3	ka	ga	1	right
6.6.1	win	2023-06-12	17:50:56	17:59:22	501676	610acf76d33d448b391eb588	4	1	DL_test	23	DL_test	20	stimuli_distractor_trianglediamonds.svg	stimuli_distractor_trianglediamonds.svg	33	no	da	1	2040	6	3	antiphase_hc_soi.wav	1	6	6	noise_calib_stim_RIGHT.wav	2	10	blb_dichoticlistening_da-ka.mp3	da	ka	1	left
6.6.1	win	2023-06-12	17:50:56	17:59:22	501676	610acf76d33d448b391eb588	4	1	DL_test	23	DL_test	21	stimuli_distractor_trianglediamonds.svg	stimuli_distractor_trianglediamonds.svg	33	no	ka	1	1067	6	3	antiphase_hc_soi.wav	1	6	6	noise_calib_stim_RIGHT.wav	2	28	blb_dichoticlistening_pa-ka.mp3	pa	ka	1	right
6.6.1	win	2023-06-12	17:50:56	17:59:22	501676	610acf76d33d448b391eb588	4	1	DL_test	23	DL_test	22	stimuli_distractor_trianglediamonds.svg	stimuli_distractor_trianglediamonds.svg	33	no	pa	1	1650	6	3	antiphase_hc_soi.wav	1	6	6	noise_calib_stim_RIGHT.wav	2	11	blb_dichoticlistening_da-pa.mp3	da	pa	1	right
6.6.1	win	2023-06-12	17:50:56	17:59:22	501676	610acf76d33d448b391eb588	4	1	DL_test	23	DL_test	23	stimuli_distractor_trianglediamonds.svg	stimuli_distractor_trianglediamonds.svg	33	no	ba	1	1186	6	3	antiphase_hc_soi.wav	1	6	6	noise_calib_stim_RIGHT.wav	2	1	blb_dichoticlistening_ba-ba.mp3	ba	ba	0	left
6.6.1	win	2023-06-12	17:50:56	17:59:22	501676	610acf76d33d448b391eb588	4	1	DL_test	23	DL_test	24	stimuli_distractor_trianglediamonds.svg	stimuli_distractor_trianglediamonds.svg	33	no	ga	1	726	6	3	antiphase_hc_soi.wav	1	6	6	noise_calib_stim_RIGHT.wav	2	33	blb_dichoticlistening_ta-ga.mp3	ta	ga	1	right
6.6.1	win	2023-06-12	17:50:56	17:59:22	501676	610acf76d33d448b391eb588	4	1	DL_test	23	DL_test	25	stimuli_distractor_trianglediamonds.svg	stimuli_distractor_trianglediamonds.svg	33	no	ga	1	623	6	3	antiphase_hc_soi.wav	1	6	6	noise_calib_stim_RIGHT.wav	2	15	blb_dichoticlistening_ga-ga.mp3	ga	ga	0	left
6.6.1	win	2023-06-12	17:50:56	17:59:22	501676	610acf76d33d448b391eb588	4	1	DL_test	23	DL_test	26	stimuli_distractor_trianglediamonds.svg	stimuli_distractor_trianglediamonds.svg	33	no	pa	1	1035	6	3	antiphase_hc_soi.wav	1	6	6	noise_calib_stim_RIGHT.wav	2	30	blb_dichoticlistening_pa-ta.mp3	pa	ta	1	left
