build	computer.platform	date	time	timestamp	time_elapsed_ms	subject	group	session	blockcode	blocknum	trialcode	trialnum	stimulus_left	stimulus_right	stim_index	target_present	response	correct	latency	headphonecheck_countTestTrials	headphonecheck_index	headphonecheck_testSound	headphonecheck_correctResponse	stereocheck_countTestTrials	stereocheck_index	stereocheck_testSound	stereocheck_correctResponse	DL_index	DL_soundfile	DL_leftSound	DL_rightSound	DL_dualSound	DL_choice
6.6.1	mac	2023-06-02	05:43:54	05:47:15	198574	5eeaa8ee94a7f8046a02a20d	3	1	practice_slash	5	practice_slash	1	stimuli_distractor_diamondtriangles.svg	stimuli_distractor_trianglediamonds.svg	14	no	0	1	2000	0	0			0	0			1				0	
6.6.1	mac	2023-06-02	05:43:54	05:47:15	198574	5eeaa8ee94a7f8046a02a20d	3	1	practice_slash	5	advance_on_keypress_SLASH	2	stimuli_distractor_diamondtriangles.svg	stimuli_distractor_trianglediamonds.svg	14	no	57	0	1643	0	0			0	0			1				0	
6.6.1	mac	2023-06-02	05:43:54	05:47:21	203855	5eeaa8ee94a7f8046a02a20d	3	1	practice_slash	5	practice_slash	3	stimuli_distractor_trianglediamonds.svg	stimuli_target_diamondrectangles.svg	12	yes	0	0	2000	0	0			0	0			1				0	
6.6.1	mac	2023-06-02	05:43:54	05:47:21	203855	5eeaa8ee94a7f8046a02a20d	3	1	practice_slash	5	advance_on_keypress_SLASH	4	stimuli_distractor_trianglediamonds.svg	stimuli_target_diamondrectangles.svg	12	yes	57	0	4373	0	0			0	0			1				0	
6.6.1	mac	2023-06-02	05:43:54	05:47:27	210450	5eeaa8ee94a7f8046a02a20d	3	1	practice_slash	5	practice_slash	5	stimuli_target_rectanglediamonds.svg	stimuli_distractor_diamondtriangles.svg	1	yes	53	1	580	0	0			0	0			1				0	
6.6.1	mac	2023-06-02	05:43:54	05:47:27	210450	5eeaa8ee94a7f8046a02a20d	3	1	practice_slash	5	advance_on_keypress_SLASH	6	stimuli_target_rectanglediamonds.svg	stimuli_distractor_diamondtriangles.svg	1	yes	57	0	1002	0	0			0	0			1				0	
6.6.1	mac	2023-06-02	05:43:54	05:47:32	215087	5eeaa8ee94a7f8046a02a20d	3	1	practice_slash	5	practice_slash	7	stimuli_distractor_trianglediamonds.svg	stimuli_distractor_diamondtriangles.svg	16	no	0	1	2000	0	0			0	0			1				0	
6.6.1	mac	2023-06-02	05:43:54	05:47:32	215087	5eeaa8ee94a7f8046a02a20d	3	1	practice_slash	5	advance_on_keypress_SLASH	8	stimuli_distractor_trianglediamonds.svg	stimuli_distractor_diamondtriangles.svg	16	no	57	0	648	0	0			0	0			1				0	
6.6.1	mac	2023-06-02	05:43:54	05:47:35	218502	5eeaa8ee94a7f8046a02a20d	3	1	practice_slash	5	practice_slash	9	stimuli_distractor_diamondtriangles.svg	stimuli_target_trianglerectangles.svg	9	yes	53	1	1126	0	0			0	0			1				0	
6.6.1	mac	2023-06-02	05:43:54	05:47:35	218502	5eeaa8ee94a7f8046a02a20d	3	1	practice_slash	5	advance_on_keypress_SLASH	10	stimuli_distractor_diamondtriangles.svg	stimuli_target_trianglerectangles.svg	9	yes	57	0	2175	0	0			0	0			1				0	
6.6.1	mac	2023-06-02	05:43:54	05:47:40	222859	5eeaa8ee94a7f8046a02a20d	3	1	practice_slash	5	practice_slash	11	stimuli_target_squarediamonds.svg	stimuli_distractor_diamondtriangles.svg	2	yes	53	1	538	0	0			0	0			1				0	
6.6.1	mac	2023-06-02	05:43:54	05:47:40	222859	5eeaa8ee94a7f8046a02a20d	3	1	practice_slash	5	advance_on_keypress_SLASH	12	stimuli_target_squarediamonds.svg	stimuli_distractor_diamondtriangles.svg	2	yes	57	0	686	0	0			0	0			1				0	
6.6.1	mac	2023-06-02	05:43:54	05:47:44	227175	5eeaa8ee94a7f8046a02a20d	3	1	practice_slash	5	practice_slash	13	stimuli_distractor_diamondtriangles.svg	stimuli_distractor_diamondtriangles.svg	13	no	0	1	2000	0	0			0	0			1				0	
6.6.1	mac	2023-06-02	05:43:54	05:47:44	227175	5eeaa8ee94a7f8046a02a20d	3	1	practice_slash	5	advance_on_keypress_SLASH	14	stimuli_distractor_diamondtriangles.svg	stimuli_distractor_diamondtriangles.svg	13	no	57	0	446	0	0			0	0			1				0	
6.6.1	mac	2023-06-02	05:43:54	05:47:46	229640	5eeaa8ee94a7f8046a02a20d	3	1	practice_slash	5	practice_slash	15	stimuli_distractor_trianglediamonds.svg	stimuli_target_rectanglediamonds.svg	10	yes	53	1	383	0	0			0	0			1				0	
6.6.1	mac	2023-06-02	05:43:54	05:47:46	229640	5eeaa8ee94a7f8046a02a20d	3	1	practice_slash	5	advance_on_keypress_SLASH	16	stimuli_distractor_trianglediamonds.svg	stimuli_target_rectanglediamonds.svg	10	yes	57	0	481	0	0			0	0			1				0	
6.6.1	mac	2023-06-02	05:43:54	05:47:51	233754	5eeaa8ee94a7f8046a02a20d	3	1	practice_slash	5	practice_slash	17	stimuli_distractor_trianglediamonds.svg	stimuli_distractor_trianglediamonds.svg	15	no	0	1	2000	0	0			0	0			1				0	
6.6.1	mac	2023-06-02	05:43:54	05:47:51	233754	5eeaa8ee94a7f8046a02a20d	3	1	practice_slash	5	advance_on_keypress_SLASH	18	stimuli_distractor_trianglediamonds.svg	stimuli_distractor_trianglediamonds.svg	15	no	57	0	1281	0	0			0	0			1				0	
6.6.1	mac	2023-06-02	05:43:54	05:47:54	237207	5eeaa8ee94a7f8046a02a20d	3	1	practice_slash	5	practice_slash	19	stimuli_target_diamondsquares.svg	stimuli_distractor_trianglediamonds.svg	6	yes	53	1	536	0	0			0	0			1				0	
6.6.1	mac	2023-06-02	05:43:54	05:47:54	237207	5eeaa8ee94a7f8046a02a20d	3	1	practice_slash	5	advance_on_keypress_SLASH	20	stimuli_target_diamondsquares.svg	stimuli_distractor_trianglediamonds.svg	6	yes	57	0	402	0	0			0	0			1				0	
6.6.1	mac	2023-06-02	05:43:54	05:47:57	240035	5eeaa8ee94a7f8046a02a20d	3	1	practice_slash	5	practice_slash	21	stimuli_target_squarediamonds.svg	stimuli_distractor_trianglediamonds.svg	5	yes	53	1	792	0	0			0	0			1				0	
6.6.1	mac	2023-06-02	05:43:54	05:47:57	240035	5eeaa8ee94a7f8046a02a20d	3	1	practice_slash	5	advance_on_keypress_SLASH	22	stimuli_target_squarediamonds.svg	stimuli_distractor_trianglediamonds.svg	5	yes	57	0	368	0	0			0	0			1				0	
6.6.1	mac	2023-06-02	05:43:54	05:48:00	242966	5eeaa8ee94a7f8046a02a20d	3	1	practice_slash	5	practice_slash	23	stimuli_distractor_trianglediamonds.svg	stimuli_target_squarediamonds.svg	11	yes	53	1	925	0	0			0	0			1				0	
6.6.1	mac	2023-06-02	05:43:54	05:48:00	242966	5eeaa8ee94a7f8046a02a20d	3	1	practice_slash	5	advance_on_keypress_SLASH	24	stimuli_distractor_trianglediamonds.svg	stimuli_target_squarediamonds.svg	11	yes	57	0	391	0	0			0	0			1				0	
6.6.1	mac	2023-06-02	05:43:54	05:48:02	245646	5eeaa8ee94a7f8046a02a20d	3	1	practice_slash	5	practice_slash	25	stimuli_target_rectanglediamonds.svg	stimuli_distractor_trianglediamonds.svg	4	yes	53	1	655	0	0			0	0			1				0	
6.6.1	mac	2023-06-02	05:43:54	05:48:02	245646	5eeaa8ee94a7f8046a02a20d	3	1	practice_slash	5	advance_on_keypress_SLASH	26	stimuli_target_rectanglediamonds.svg	stimuli_distractor_trianglediamonds.svg	4	yes	57	0	475	0	0			0	0			1				0	
6.6.1	mac	2023-06-02	05:43:54	05:48:05	248319	5eeaa8ee94a7f8046a02a20d	3	1	practice_slash	5	practice_slash	27	stimuli_target_diamondsquares.svg	stimuli_distractor_diamondtriangles.svg	3	yes	53	1	564	0	0			0	0			1				0	
6.6.1	mac	2023-06-02	05:43:54	05:48:05	248319	5eeaa8ee94a7f8046a02a20d	3	1	practice_slash	5	advance_on_keypress_SLASH	28	stimuli_target_diamondsquares.svg	stimuli_distractor_diamondtriangles.svg	3	yes	57	0	496	0	0			0	0			1				0	
6.6.1	mac	2023-06-02	05:43:54	05:48:09	251800	5eeaa8ee94a7f8046a02a20d	3	1	practice_slash	5	practice_slash	29	stimuli_distractor_diamondtriangles.svg	stimuli_target_rectangletriangles.svg	7	yes	53	1	1339	0	0			0	0			1				0	
6.6.1	mac	2023-06-02	05:43:54	05:48:09	251800	5eeaa8ee94a7f8046a02a20d	3	1	practice_slash	5	advance_on_keypress_SLASH	30	stimuli_distractor_diamondtriangles.svg	stimuli_target_rectangletriangles.svg	7	yes	57	0	526	0	0			0	0			1				0	
6.6.1	mac	2023-06-02	05:43:54	05:48:11	254533	5eeaa8ee94a7f8046a02a20d	3	1	practice_slash	5	practice_slash	31	stimuli_distractor_diamondtriangles.svg	stimuli_target_diamondrectangles.svg	8	yes	53	1	561	0	0			0	0			1				0	
6.6.1	mac	2023-06-02	05:43:54	05:48:11	254533	5eeaa8ee94a7f8046a02a20d	3	1	practice_slash	5	advance_on_keypress_SLASH	32	stimuli_distractor_diamondtriangles.svg	stimuli_target_diamondrectangles.svg	8	yes	57	0	409	0	0			0	0			1				0	
6.6.1	mac	2023-06-02	05:43:54	05:48:18	260691	5eeaa8ee94a7f8046a02a20d	3	1	main_slash	7	main_slash	1	stimuli_distractor_trianglediamonds.svg	stimuli_distractor_trianglediamonds.svg	34	no	53	0	1137	0	0			0	0			1				0	
6.6.1	mac	2023-06-02	05:43:54	05:48:18	260691	5eeaa8ee94a7f8046a02a20d	3	1	main_slash	7	advance_on_keypress_SLASH	2	stimuli_distractor_trianglediamonds.svg	stimuli_distractor_trianglediamonds.svg	34	no	57	0	1198	0	0			0	0			1				0	
6.6.1	mac	2023-06-02	05:43:54	05:48:20	263077	5eeaa8ee94a7f8046a02a20d	3	1	main_slash	7	main_slash	3	stimuli_target_rectangletriangles.svg	stimuli_distractor_diamondtriangles.svg	5	yes	53	1	559	0	0			0	0			1				0	
6.6.1	mac	2023-06-02	05:43:54	05:48:20	263077	5eeaa8ee94a7f8046a02a20d	3	1	main_slash	7	advance_on_keypress_SLASH	4	stimuli_target_rectangletriangles.svg	stimuli_distractor_diamondtriangles.svg	5	yes	57	0	989	0	0			0	0			1				0	
6.6.1	mac	2023-06-02	05:43:54	05:48:22	265184	5eeaa8ee94a7f8046a02a20d	3	1	main_slash	7	main_slash	5	stimuli_distractor_diamondtriangles.svg	stimuli_target_rectanglediamonds.svg	14	yes	53	1	498	0	0			0	0			1				0	
6.6.1	mac	2023-06-02	05:43:54	05:48:22	265184	5eeaa8ee94a7f8046a02a20d	3	1	main_slash	7	advance_on_keypress_SLASH	6	stimuli_distractor_diamondtriangles.svg	stimuli_target_rectanglediamonds.svg	14	yes	57	0	1034	0	0			0	0			1				0	
6.6.1	mac	2023-06-02	05:43:54	05:48:24	267490	5eeaa8ee94a7f8046a02a20d	3	1	main_slash	7	main_slash	7	stimuli_distractor_trianglediamonds.svg	stimuli_target_trianglerectangles.svg	25	yes	53	1	634	0	0			0	0			1				0	
6.6.1	mac	2023-06-02	05:43:54	05:48:24	267490	5eeaa8ee94a7f8046a02a20d	3	1	main_slash	7	advance_on_keypress_SLASH	8	stimuli_distractor_trianglediamonds.svg	stimuli_target_trianglerectangles.svg	25	yes	57	0	588	0	0			0	0			1				0	
6.6.1	mac	2023-06-02	05:43:54	05:48:26	269227	5eeaa8ee94a7f8046a02a20d	3	1	main_slash	7	main_slash	9	stimuli_target_rectanglediamonds.svg	stimuli_distractor_diamondtriangles.svg	6	yes	53	1	523	0	0			0	0			1				0	
6.6.1	mac	2023-06-02	05:43:54	05:48:26	269227	5eeaa8ee94a7f8046a02a20d	3	1	main_slash	7	advance_on_keypress_SLASH	10	stimuli_target_rectanglediamonds.svg	stimuli_distractor_diamondtriangles.svg	6	yes	57	0	655	0	0			0	0			1				0	
6.6.1	mac	2023-06-02	05:43:54	05:48:28	271164	5eeaa8ee94a7f8046a02a20d	3	1	main_slash	7	main_slash	11	stimuli_target_diamondrectangles.svg	stimuli_distractor_trianglediamonds.svg	19	yes	53	1	643	0	0			0	0			1				0	
6.6.1	mac	2023-06-02	05:43:54	05:48:28	271164	5eeaa8ee94a7f8046a02a20d	3	1	main_slash	7	advance_on_keypress_SLASH	12	stimuli_target_diamondrectangles.svg	stimuli_distractor_trianglediamonds.svg	19	yes	57	0	974	0	0			0	0			1				0	
6.6.1	mac	2023-06-02	05:43:54	05:48:30	273476	5eeaa8ee94a7f8046a02a20d	3	1	main_slash	7	main_slash	13	stimuli_distractor_trianglediamonds.svg	stimuli_target_rectangletriangles.svg	9	yes	53	1	704	0	0			0	0			1				0	
6.6.1	mac	2023-06-02	05:43:54	05:48:30	273476	5eeaa8ee94a7f8046a02a20d	3	1	main_slash	7	advance_on_keypress_SLASH	14	stimuli_distractor_trianglediamonds.svg	stimuli_target_rectangletriangles.svg	9	yes	57	0	700	0	0			0	0			1				0	
6.6.1	mac	2023-06-02	05:43:54	05:48:34	276803	5eeaa8ee94a7f8046a02a20d	3	1	main_slash	7	main_slash	15	stimuli_target_diamondsquares.svg	stimuli_distractor_diamondtriangles.svg	24	yes	0	0	2000	0	0			0	0			1				0	
6.6.1	mac	2023-06-02	05:43:54	05:48:34	276803	5eeaa8ee94a7f8046a02a20d	3	1	main_slash	7	advance_on_keypress_SLASH	16	stimuli_target_diamondsquares.svg	stimuli_distractor_diamondtriangles.svg	24	yes	57	0	525	0	0			0	0			1				0	
6.6.1	mac	2023-06-02	05:43:54	05:48:36	279482	5eeaa8ee94a7f8046a02a20d	3	1	main_slash	7	main_slash	17	stimuli_distractor_trianglediamonds.svg	stimuli_distractor_diamondtriangles.svg	36	no	53	0	1525	0	0			0	0			1				0	
6.6.1	mac	2023-06-02	05:43:54	05:48:36	279482	5eeaa8ee94a7f8046a02a20d	3	1	main_slash	7	advance_on_keypress_SLASH	18	stimuli_distractor_trianglediamonds.svg	stimuli_distractor_diamondtriangles.svg	36	no	57	0	637	0	0			0	0			1				0	
6.6.1	mac	2023-06-02	05:43:54	05:48:38	281360	5eeaa8ee94a7f8046a02a20d	3	1	main_slash	7	main_slash	19	stimuli_target_trianglesquares.svg	stimuli_distractor_trianglediamonds.svg	18	yes	53	1	606	0	0			0	0			1				0	
6.6.1	mac	2023-06-02	05:43:54	05:48:38	281360	5eeaa8ee94a7f8046a02a20d	3	1	main_slash	7	advance_on_keypress_SLASH	20	stimuli_target_trianglesquares.svg	stimuli_distractor_trianglediamonds.svg	18	yes	57	0	560	0	0			0	0			1				0	
6.6.1	mac	2023-06-02	05:43:54	05:48:40	283112	5eeaa8ee94a7f8046a02a20d	3	1	main_slash	7	main_slash	21	stimuli_target_squaretriangles.svg	stimuli_distractor_trianglediamonds.svg	3	yes	53	1	559	0	0			0	0			1				0	
6.6.1	mac	2023-06-02	05:43:54	05:48:40	283112	5eeaa8ee94a7f8046a02a20d	3	1	main_slash	7	advance_on_keypress_SLASH	22	stimuli_target_squaretriangles.svg	stimuli_distractor_trianglediamonds.svg	3	yes	57	0	720	0	0			0	0			1				0	
6.6.1	mac	2023-06-02	05:43:54	05:48:42	285053	5eeaa8ee94a7f8046a02a20d	3	1	main_slash	7	main_slash	23	stimuli_distractor_diamondtriangles.svg	stimuli_target_diamondrectangles.svg	31	yes	53	1	585	0	0			0	0			1				0	
6.6.1	mac	2023-06-02	05:43:54	05:48:42	285053	5eeaa8ee94a7f8046a02a20d	3	1	main_slash	7	advance_on_keypress_SLASH	24	stimuli_distractor_diamondtriangles.svg	stimuli_target_diamondrectangles.svg	31	yes	57	0	598	0	0			0	0			1				0	
6.6.1	mac	2023-06-02	05:43:54	05:48:44	286962	5eeaa8ee94a7f8046a02a20d	3	1	main_slash	7	main_slash	25	stimuli_distractor_diamondtriangles.svg	stimuli_target_trianglerectangles.svg	29	yes	53	1	676	0	0			0	0			1				0	
6.6.1	mac	2023-06-02	05:43:54	05:48:44	286962	5eeaa8ee94a7f8046a02a20d	3	1	main_slash	7	advance_on_keypress_SLASH	26	stimuli_distractor_diamondtriangles.svg	stimuli_target_trianglerectangles.svg	29	yes	57	0	553	0	0			0	0			1				0	
6.6.1	mac	2023-06-02	05:43:54	05:48:46	289149	5eeaa8ee94a7f8046a02a20d	3	1	main_slash	7	main_slash	27	stimuli_target_squarediamonds.svg	stimuli_distractor_trianglediamonds.svg	4	yes	53	1	994	0	0			0	0			1				0	
6.6.1	mac	2023-06-02	05:43:54	05:48:46	289149	5eeaa8ee94a7f8046a02a20d	3	1	main_slash	7	advance_on_keypress_SLASH	28	stimuli_target_squarediamonds.svg	stimuli_distractor_trianglediamonds.svg	4	yes	57	0	425	0	0			0	0			1				0	
6.6.1	mac	2023-06-02	05:43:54	05:48:48	291007	5eeaa8ee94a7f8046a02a20d	3	1	main_slash	7	main_slash	29	stimuli_distractor_trianglediamonds.svg	stimuli_target_diamondsquares.svg	28	yes	53	1	805	0	0			0	0			1				0	
6.6.1	mac	2023-06-02	05:43:54	05:48:48	291007	5eeaa8ee94a7f8046a02a20d	3	1	main_slash	7	advance_on_keypress_SLASH	30	stimuli_distractor_trianglediamonds.svg	stimuli_target_diamondsquares.svg	28	yes	57	0	486	0	0			0	0			1				0	
6.6.1	mac	2023-06-02	05:43:54	05:48:51	294121	5eeaa8ee94a7f8046a02a20d	3	1	main_slash	7	main_slash	31	stimuli_distractor_diamondtriangles.svg	stimuli_distractor_trianglediamonds.svg	38	no	0	1	2000	0	0			0	0			1				0	
6.6.1	mac	2023-06-02	05:43:54	05:48:51	294121	5eeaa8ee94a7f8046a02a20d	3	1	main_slash	7	advance_on_keypress_SLASH	32	stimuli_distractor_diamondtriangles.svg	stimuli_distractor_trianglediamonds.svg	38	no	57	0	669	0	0			0	0			1				0	
6.6.1	mac	2023-06-02	05:43:54	05:48:54	297171	5eeaa8ee94a7f8046a02a20d	3	1	main_slash	7	main_slash	33	stimuli_distractor_trianglediamonds.svg	stimuli_distractor_trianglediamonds.svg	33	no	53	0	1749	0	0			0	0			1				0	
6.6.1	mac	2023-06-02	05:43:54	05:48:54	297171	5eeaa8ee94a7f8046a02a20d	3	1	main_slash	7	advance_on_keypress_SLASH	34	stimuli_distractor_trianglediamonds.svg	stimuli_distractor_trianglediamonds.svg	33	no	57	0	696	0	0			0	0			1				0	
6.6.1	mac	2023-06-02	05:43:54	05:48:57	300501	5eeaa8ee94a7f8046a02a20d	3	1	main_slash	7	main_slash	35	stimuli_distractor_trianglediamonds.svg	stimuli_distractor_diamondtriangles.svg	35	no	0	1	2000	0	0			0	0			1				0	
6.6.1	mac	2023-06-02	05:43:54	05:48:57	300501	5eeaa8ee94a7f8046a02a20d	3	1	main_slash	7	advance_on_keypress_SLASH	36	stimuli_distractor_trianglediamonds.svg	stimuli_distractor_diamondtriangles.svg	35	no	57	0	631	0	0			0	0			1				0	
6.6.1	mac	2023-06-02	05:43:54	05:48:59	302466	5eeaa8ee94a7f8046a02a20d	3	1	main_slash	7	main_slash	37	stimuli_target_trianglerectangles.svg	stimuli_distractor_trianglediamonds.svg	17	yes	53	1	697	0	0			0	0			1				0	
6.6.1	mac	2023-06-02	05:43:54	05:48:59	302466	5eeaa8ee94a7f8046a02a20d	3	1	main_slash	7	advance_on_keypress_SLASH	38	stimuli_target_trianglerectangles.svg	stimuli_distractor_trianglediamonds.svg	17	yes	57	0	529	0	0			0	0			1				0	
6.6.1	mac	2023-06-02	05:43:54	05:49:01	304189	5eeaa8ee94a7f8046a02a20d	3	1	main_slash	7	main_slash	39	stimuli_distractor_trianglediamonds.svg	stimuli_target_squaretriangles.svg	11	yes	53	1	553	0	0			0	0			1				0	
6.6.1	mac	2023-06-02	05:43:54	05:49:01	304189	5eeaa8ee94a7f8046a02a20d	3	1	main_slash	7	advance_on_keypress_SLASH	40	stimuli_distractor_trianglediamonds.svg	stimuli_target_squaretriangles.svg	11	yes	57	0	719	0	0			0	0			1				0	
6.6.1	mac	2023-06-02	05:43:54	05:49:03	306216	5eeaa8ee94a7f8046a02a20d	3	1	main_slash	7	main_slash	41	stimuli_distractor_trianglediamonds.svg	stimuli_target_squarediamonds.svg	12	yes	53	1	678	0	0			0	0			1				0	
6.6.1	mac	2023-06-02	05:43:54	05:49:03	306216	5eeaa8ee94a7f8046a02a20d	3	1	main_slash	7	advance_on_keypress_SLASH	42	stimuli_distractor_trianglediamonds.svg	stimuli_target_squarediamonds.svg	12	yes	57	0	491	0	0			0	0			1				0	
6.6.1	mac	2023-06-02	05:43:54	05:49:06	309336	5eeaa8ee94a7f8046a02a20d	3	1	main_slash	7	main_slash	43	stimuli_target_diamondsquares.svg	stimuli_distractor_trianglediamonds.svg	20	yes	0	0	2000	0	0			0	0			1				0	
6.6.1	mac	2023-06-02	05:43:54	05:49:06	309336	5eeaa8ee94a7f8046a02a20d	3	1	main_slash	7	advance_on_keypress_SLASH	44	stimuli_target_diamondsquares.svg	stimuli_distractor_trianglediamonds.svg	20	yes	57	0	615	0	0			0	0			1				0	
6.6.1	mac	2023-06-02	05:43:54	05:49:08	311429	5eeaa8ee94a7f8046a02a20d	3	1	main_slash	7	main_slash	45	stimuli_target_rectanglediamonds.svg	stimuli_distractor_trianglediamonds.svg	2	yes	53	1	840	0	0			0	0			1				0	
6.6.1	mac	2023-06-02	05:43:54	05:49:08	311429	5eeaa8ee94a7f8046a02a20d	3	1	main_slash	7	advance_on_keypress_SLASH	46	stimuli_target_rectanglediamonds.svg	stimuli_distractor_trianglediamonds.svg	2	yes	57	0	565	0	0			0	0			1				0	
6.6.1	mac	2023-06-02	05:43:54	05:49:10	313250	5eeaa8ee94a7f8046a02a20d	3	1	main_slash	7	main_slash	47	stimuli_distractor_diamondtriangles.svg	stimuli_target_trianglesquares.svg	30	yes	53	1	612	0	0			0	0			1				0	
6.6.1	mac	2023-06-02	05:43:54	05:49:10	313250	5eeaa8ee94a7f8046a02a20d	3	1	main_slash	7	advance_on_keypress_SLASH	48	stimuli_distractor_diamondtriangles.svg	stimuli_target_trianglesquares.svg	30	yes	57	0	452	0	0			0	0			1				0	
6.6.1	mac	2023-06-02	05:43:54	05:49:12	315408	5eeaa8ee94a7f8046a02a20d	3	1	main_slash	7	main_slash	49	stimuli_distractor_trianglediamonds.svg	stimuli_target_diamondrectangles.svg	27	yes	53	1	1068	0	0			0	0			1				0	
6.6.1	mac	2023-06-02	05:43:54	05:49:12	315408	5eeaa8ee94a7f8046a02a20d	3	1	main_slash	7	advance_on_keypress_SLASH	50	stimuli_distractor_trianglediamonds.svg	stimuli_target_diamondrectangles.svg	27	yes	57	0	484	0	0			0	0			1				0	
6.6.1	mac	2023-06-02	05:43:54	05:49:15	317686	5eeaa8ee94a7f8046a02a20d	3	1	main_slash	7	main_slash	51	stimuli_target_rectangletriangles.svg	stimuli_distractor_trianglediamonds.svg	1	yes	53	1	1163	0	0			0	0			1				0	
6.6.1	mac	2023-06-02	05:43:54	05:49:15	317686	5eeaa8ee94a7f8046a02a20d	3	1	main_slash	7	advance_on_keypress_SLASH	52	stimuli_target_rectangletriangles.svg	stimuli_distractor_trianglediamonds.svg	1	yes	57	0	615	0	0			0	0			1				0	
6.6.1	mac	2023-06-02	05:43:54	05:49:17	319805	5eeaa8ee94a7f8046a02a20d	3	1	main_slash	7	main_slash	53	stimuli_distractor_trianglediamonds.svg	stimuli_target_trianglesquares.svg	26	yes	53	1	866	0	0			0	0			1				0	
6.6.1	mac	2023-06-02	05:43:54	05:49:17	319805	5eeaa8ee94a7f8046a02a20d	3	1	main_slash	7	advance_on_keypress_SLASH	54	stimuli_distractor_trianglediamonds.svg	stimuli_target_trianglesquares.svg	26	yes	57	0	560	0	0			0	0			1				0	
6.6.1	mac	2023-06-02	05:43:54	05:49:19	321930	5eeaa8ee94a7f8046a02a20d	3	1	main_slash	7	main_slash	55	stimuli_distractor_diamondtriangles.svg	stimuli_target_squaretriangles.svg	15	yes	53	1	924	0	0			0	0			1				0	
6.6.1	mac	2023-06-02	05:43:54	05:49:19	321930	5eeaa8ee94a7f8046a02a20d	3	1	main_slash	7	advance_on_keypress_SLASH	56	stimuli_distractor_diamondtriangles.svg	stimuli_target_squaretriangles.svg	15	yes	57	0	393	0	0			0	0			1				0	
6.6.1	mac	2023-06-02	05:43:54	05:49:21	323806	5eeaa8ee94a7f8046a02a20d	3	1	main_slash	7	main_slash	57	stimuli_target_squaretriangles.svg	stimuli_distractor_diamondtriangles.svg	7	yes	53	1	836	0	0			0	0			1				0	
6.6.1	mac	2023-06-02	05:43:54	05:49:21	323806	5eeaa8ee94a7f8046a02a20d	3	1	main_slash	7	advance_on_keypress_SLASH	58	stimuli_target_squaretriangles.svg	stimuli_distractor_diamondtriangles.svg	7	yes	57	0	432	0	0			0	0			1				0	
6.6.1	mac	2023-06-02	05:43:54	05:49:23	325686	5eeaa8ee94a7f8046a02a20d	3	1	main_slash	7	main_slash	59	stimuli_target_squarediamonds.svg	stimuli_distractor_diamondtriangles.svg	8	yes	53	1	815	0	0			0	0			1				0	
6.6.1	mac	2023-06-02	05:43:54	05:49:23	325686	5eeaa8ee94a7f8046a02a20d	3	1	main_slash	7	advance_on_keypress_SLASH	60	stimuli_target_squarediamonds.svg	stimuli_distractor_diamondtriangles.svg	8	yes	57	0	454	0	0			0	0			1				0	
6.6.1	mac	2023-06-02	05:43:54	05:49:24	327607	5eeaa8ee94a7f8046a02a20d	3	1	main_slash	7	main_slash	61	stimuli_target_trianglerectangles.svg	stimuli_distractor_diamondtriangles.svg	21	yes	53	1	835	0	0			0	0			1				0	
6.6.1	mac	2023-06-02	05:43:54	05:49:24	327607	5eeaa8ee94a7f8046a02a20d	3	1	main_slash	7	advance_on_keypress_SLASH	62	stimuli_target_trianglerectangles.svg	stimuli_distractor_diamondtriangles.svg	21	yes	57	0	419	0	0			0	0			1				0	
6.6.1	mac	2023-06-02	05:43:54	05:49:26	329461	5eeaa8ee94a7f8046a02a20d	3	1	main_slash	7	main_slash	63	stimuli_distractor_diamondtriangles.svg	stimuli_target_rectangletriangles.svg	13	yes	53	1	808	0	0			0	0			1				0	
6.6.1	mac	2023-06-02	05:43:54	05:49:26	329461	5eeaa8ee94a7f8046a02a20d	3	1	main_slash	7	advance_on_keypress_SLASH	64	stimuli_distractor_diamondtriangles.svg	stimuli_target_rectangletriangles.svg	13	yes	57	0	466	0	0			0	0			1				0	
6.6.1	mac	2023-06-02	05:43:54	05:49:29	331669	5eeaa8ee94a7f8046a02a20d	3	1	main_slash	7	main_slash	65	stimuli_distractor_diamondtriangles.svg	stimuli_distractor_diamondtriangles.svg	40	no	53	0	1113	0	0			0	0			1				0	
6.6.1	mac	2023-06-02	05:43:54	05:49:29	331669	5eeaa8ee94a7f8046a02a20d	3	1	main_slash	7	advance_on_keypress_SLASH	66	stimuli_distractor_diamondtriangles.svg	stimuli_distractor_diamondtriangles.svg	40	no	57	0	811	0	0			0	0			1				0	
6.6.1	mac	2023-06-02	05:43:54	05:49:32	335119	5eeaa8ee94a7f8046a02a20d	3	1	main_slash	7	main_slash	67	stimuli_distractor_diamondtriangles.svg	stimuli_distractor_diamondtriangles.svg	39	no	0	1	2000	0	0			0	0			1				0	
6.6.1	mac	2023-06-02	05:43:54	05:49:32	335119	5eeaa8ee94a7f8046a02a20d	3	1	main_slash	7	advance_on_keypress_SLASH	68	stimuli_distractor_diamondtriangles.svg	stimuli_distractor_diamondtriangles.svg	39	no	57	0	684	0	0			0	0			1				0	
6.6.1	mac	2023-06-02	05:43:54	05:49:34	336982	5eeaa8ee94a7f8046a02a20d	3	1	main_slash	7	main_slash	69	stimuli_target_trianglesquares.svg	stimuli_distractor_diamondtriangles.svg	22	yes	53	1	546	0	0			0	0			1				0	
6.6.1	mac	2023-06-02	05:43:54	05:49:34	336982	5eeaa8ee94a7f8046a02a20d	3	1	main_slash	7	advance_on_keypress_SLASH	70	stimuli_target_trianglesquares.svg	stimuli_distractor_diamondtriangles.svg	22	yes	57	0	525	0	0			0	0			1				0	
6.6.1	mac	2023-06-02	05:43:54	05:49:36	338728	5eeaa8ee94a7f8046a02a20d	3	1	main_slash	7	main_slash	71	stimuli_distractor_diamondtriangles.svg	stimuli_target_squarediamonds.svg	16	yes	53	1	593	0	0			0	0			1				0	
6.6.1	mac	2023-06-02	05:43:54	05:49:36	338728	5eeaa8ee94a7f8046a02a20d	3	1	main_slash	7	advance_on_keypress_SLASH	72	stimuli_distractor_diamondtriangles.svg	stimuli_target_squarediamonds.svg	16	yes	57	0	466	0	0			0	0			1				0	
6.6.1	mac	2023-06-02	05:43:54	05:49:37	340575	5eeaa8ee94a7f8046a02a20d	3	1	main_slash	7	main_slash	73	stimuli_distractor_trianglediamonds.svg	stimuli_target_rectanglediamonds.svg	10	yes	53	1	754	0	0			0	0			1				0	
6.6.1	mac	2023-06-02	05:43:54	05:49:37	340575	5eeaa8ee94a7f8046a02a20d	3	1	main_slash	7	advance_on_keypress_SLASH	74	stimuli_distractor_trianglediamonds.svg	stimuli_target_rectanglediamonds.svg	10	yes	57	0	443	0	0			0	0			1				0	
6.6.1	mac	2023-06-02	05:43:54	05:49:39	342532	5eeaa8ee94a7f8046a02a20d	3	1	main_slash	7	main_slash	75	stimuli_distractor_diamondtriangles.svg	stimuli_target_diamondsquares.svg	32	yes	53	1	876	0	0			0	0			1				0	
6.6.1	mac	2023-06-02	05:43:54	05:49:39	342532	5eeaa8ee94a7f8046a02a20d	3	1	main_slash	7	advance_on_keypress_SLASH	76	stimuli_distractor_diamondtriangles.svg	stimuli_target_diamondsquares.svg	32	yes	57	0	4796	0	0			0	0			1				0	
6.6.1	mac	2023-06-02	05:43:54	05:49:47	349970	5eeaa8ee94a7f8046a02a20d	3	1	main_slash	7	main_slash	77	stimuli_distractor_diamondtriangles.svg	stimuli_distractor_trianglediamonds.svg	37	no	0	1	2000	0	0			0	0			1				0	
6.6.1	mac	2023-06-02	05:43:54	05:49:47	349970	5eeaa8ee94a7f8046a02a20d	3	1	main_slash	7	advance_on_keypress_SLASH	78	stimuli_distractor_diamondtriangles.svg	stimuli_distractor_trianglediamonds.svg	37	no	57	0	498	0	0			0	0			1				0	
6.6.1	mac	2023-06-02	05:43:54	05:49:48	351664	5eeaa8ee94a7f8046a02a20d	3	1	main_slash	7	main_slash	79	stimuli_target_diamondrectangles.svg	stimuli_distractor_diamondtriangles.svg	23	yes	53	1	561	0	0			0	0			1				0	
6.6.1	mac	2023-06-02	05:43:54	05:49:48	351664	5eeaa8ee94a7f8046a02a20d	3	1	main_slash	7	advance_on_keypress_SLASH	80	stimuli_target_diamondrectangles.svg	stimuli_distractor_diamondtriangles.svg	23	yes	57	0	428	0	0			0	0			1				0	
6.6.1	mac	2023-06-02	05:43:54	05:49:51	353689	5eeaa8ee94a7f8046a02a20d	3	1	main_slash	7	main_slash	81	stimuli_target_squaretriangles.svg	stimuli_distractor_diamondtriangles.svg	7	yes	53	1	948	0	0			0	0			1				0	
6.6.1	mac	2023-06-02	05:43:54	05:49:51	353689	5eeaa8ee94a7f8046a02a20d	3	1	main_slash	7	advance_on_keypress_SLASH	82	stimuli_target_squaretriangles.svg	stimuli_distractor_diamondtriangles.svg	7	yes	57	0	436	0	0			0	0			1				0	
6.6.1	mac	2023-06-02	05:43:54	05:49:52	355584	5eeaa8ee94a7f8046a02a20d	3	1	main_slash	7	main_slash	83	stimuli_distractor_trianglediamonds.svg	stimuli_target_squarediamonds.svg	12	yes	53	1	832	0	0			0	0			1				0	
6.6.1	mac	2023-06-02	05:43:54	05:49:52	355584	5eeaa8ee94a7f8046a02a20d	3	1	main_slash	7	advance_on_keypress_SLASH	84	stimuli_distractor_trianglediamonds.svg	stimuli_target_squarediamonds.svg	12	yes	57	0	1017	0	0			0	0			1				0	
6.6.1	mac	2023-06-02	05:43:54	05:49:56	358803	5eeaa8ee94a7f8046a02a20d	3	1	main_slash	7	main_slash	85	stimuli_distractor_diamondtriangles.svg	stimuli_target_squarediamonds.svg	16	yes	53	1	1563	0	0			0	0			1				0	
6.6.1	mac	2023-06-02	05:43:54	05:49:56	358803	5eeaa8ee94a7f8046a02a20d	3	1	main_slash	7	advance_on_keypress_SLASH	86	stimuli_distractor_diamondtriangles.svg	stimuli_target_squarediamonds.svg	16	yes	57	0	436	0	0			0	0			1				0	
6.6.1	mac	2023-06-02	05:43:54	05:49:57	360586	5eeaa8ee94a7f8046a02a20d	3	1	main_slash	7	main_slash	87	stimuli_target_diamondsquares.svg	stimuli_distractor_trianglediamonds.svg	20	yes	53	1	715	0	0			0	0			1				0	
6.6.1	mac	2023-06-02	05:43:54	05:49:57	360586	5eeaa8ee94a7f8046a02a20d	3	1	main_slash	7	advance_on_keypress_SLASH	88	stimuli_target_diamondsquares.svg	stimuli_distractor_trianglediamonds.svg	20	yes	57	0	403	0	0			0	0			1				0	
6.6.1	mac	2023-06-02	05:43:54	05:50:00	362705	5eeaa8ee94a7f8046a02a20d	3	1	main_slash	7	main_slash	89	stimuli_distractor_trianglediamonds.svg	stimuli_target_diamondrectangles.svg	27	yes	53	1	1084	0	0			0	0			1				0	
6.6.1	mac	2023-06-02	05:43:54	05:50:00	362705	5eeaa8ee94a7f8046a02a20d	3	1	main_slash	7	advance_on_keypress_SLASH	90	stimuli_distractor_trianglediamonds.svg	stimuli_target_diamondrectangles.svg	27	yes	57	0	496	0	0			0	0			1				0	
6.6.1	mac	2023-06-02	05:43:54	05:50:03	365837	5eeaa8ee94a7f8046a02a20d	3	1	main_slash	7	main_slash	91	stimuli_distractor_trianglediamonds.svg	stimuli_distractor_diamondtriangles.svg	35	no	0	1	2000	0	0			0	0			1				0	
6.6.1	mac	2023-06-02	05:43:54	05:50:03	365837	5eeaa8ee94a7f8046a02a20d	3	1	main_slash	7	advance_on_keypress_SLASH	92	stimuli_distractor_trianglediamonds.svg	stimuli_distractor_diamondtriangles.svg	35	no	57	0	560	0	0			0	0			1				0	
6.6.1	mac	2023-06-02	05:43:54	05:50:05	368069	5eeaa8ee94a7f8046a02a20d	3	1	main_slash	7	main_slash	93	stimuli_target_diamondrectangles.svg	stimuli_distractor_diamondtriangles.svg	23	yes	53	1	1030	0	0			0	0			1				0	
6.6.1	mac	2023-06-02	05:43:54	05:50:05	368069	5eeaa8ee94a7f8046a02a20d	3	1	main_slash	7	advance_on_keypress_SLASH	94	stimuli_target_diamondrectangles.svg	stimuli_distractor_diamondtriangles.svg	23	yes	57	0	837	0	0			0	0			1				0	
6.6.1	mac	2023-06-02	05:43:54	05:50:07	370646	5eeaa8ee94a7f8046a02a20d	3	1	main_slash	7	main_slash	95	stimuli_target_rectanglediamonds.svg	stimuli_distractor_trianglediamonds.svg	2	yes	53	1	1106	0	0			0	0			1				0	
6.6.1	mac	2023-06-02	05:43:54	05:50:07	370646	5eeaa8ee94a7f8046a02a20d	3	1	main_slash	7	advance_on_keypress_SLASH	96	stimuli_target_rectanglediamonds.svg	stimuli_distractor_trianglediamonds.svg	2	yes	57	0	534	0	0			0	0			1				0	
6.6.1	mac	2023-06-02	05:43:54	05:50:09	372621	5eeaa8ee94a7f8046a02a20d	3	1	main_slash	7	main_slash	97	stimuli_distractor_trianglediamonds.svg	stimuli_target_diamondsquares.svg	28	yes	53	1	798	0	0			0	0			1				0	
6.6.1	mac	2023-06-02	05:43:54	05:50:09	372621	5eeaa8ee94a7f8046a02a20d	3	1	main_slash	7	advance_on_keypress_SLASH	98	stimuli_distractor_trianglediamonds.svg	stimuli_target_diamondsquares.svg	28	yes	57	0	479	0	0			0	0			1				0	
6.6.1	mac	2023-06-02	05:43:54	05:50:12	374865	5eeaa8ee94a7f8046a02a20d	3	1	main_slash	7	main_slash	99	stimuli_target_trianglerectangles.svg	stimuli_distractor_trianglediamonds.svg	17	yes	53	1	1126	0	0			0	0			1				0	
6.6.1	mac	2023-06-02	05:43:54	05:50:12	374865	5eeaa8ee94a7f8046a02a20d	3	1	main_slash	7	advance_on_keypress_SLASH	100	stimuli_target_trianglerectangles.svg	stimuli_distractor_trianglediamonds.svg	17	yes	57	0	465	0	0			0	0			1				0	
6.6.1	mac	2023-06-02	05:43:54	05:50:15	377969	5eeaa8ee94a7f8046a02a20d	3	1	main_slash	7	main_slash	101	stimuli_target_squarediamonds.svg	stimuli_distractor_diamondtriangles.svg	8	yes	0	0	2000	0	0			0	0			1				0	
6.6.1	mac	2023-06-02	05:43:54	05:50:15	377969	5eeaa8ee94a7f8046a02a20d	3	1	main_slash	7	advance_on_keypress_SLASH	102	stimuli_target_squarediamonds.svg	stimuli_distractor_diamondtriangles.svg	8	yes	57	0	441	0	0			0	0			1				0	
6.6.1	mac	2023-06-02	05:43:54	05:50:17	379796	5eeaa8ee94a7f8046a02a20d	3	1	main_slash	7	main_slash	103	stimuli_target_trianglesquares.svg	stimuli_distractor_trianglediamonds.svg	18	yes	53	1	758	0	0			0	0			1				0	
6.6.1	mac	2023-06-02	05:43:54	05:50:17	379796	5eeaa8ee94a7f8046a02a20d	3	1	main_slash	7	advance_on_keypress_SLASH	104	stimuli_target_trianglesquares.svg	stimuli_distractor_trianglediamonds.svg	18	yes	57	0	614	0	0			0	0			1				0	
6.6.1	mac	2023-06-02	05:43:54	05:50:19	381868	5eeaa8ee94a7f8046a02a20d	3	1	main_slash	7	main_slash	105	stimuli_distractor_diamondtriangles.svg	stimuli_target_diamondsquares.svg	32	yes	53	1	811	0	0			0	0			1				0	
6.6.1	mac	2023-06-02	05:43:54	05:50:19	381868	5eeaa8ee94a7f8046a02a20d	3	1	main_slash	7	advance_on_keypress_SLASH	106	stimuli_distractor_diamondtriangles.svg	stimuli_target_diamondsquares.svg	32	yes	57	0	384	0	0			0	0			1				0	
6.6.1	mac	2023-06-02	05:43:54	05:50:21	384015	5eeaa8ee94a7f8046a02a20d	3	1	main_slash	7	main_slash	107	stimuli_distractor_diamondtriangles.svg	stimuli_target_squaretriangles.svg	15	yes	53	1	1130	0	0			0	0			1				0	
6.6.1	mac	2023-06-02	05:43:54	05:50:21	384015	5eeaa8ee94a7f8046a02a20d	3	1	main_slash	7	advance_on_keypress_SLASH	108	stimuli_distractor_diamondtriangles.svg	stimuli_target_squaretriangles.svg	15	yes	57	0	431	0	0			0	0			1				0	
6.6.1	mac	2023-06-02	05:43:54	05:50:23	385955	5eeaa8ee94a7f8046a02a20d	3	1	main_slash	7	main_slash	109	stimuli_distractor_diamondtriangles.svg	stimuli_target_trianglesquares.svg	30	yes	53	1	867	0	0			0	0			1				0	
6.6.1	mac	2023-06-02	05:43:54	05:50:23	385955	5eeaa8ee94a7f8046a02a20d	3	1	main_slash	7	advance_on_keypress_SLASH	110	stimuli_distractor_diamondtriangles.svg	stimuli_target_trianglesquares.svg	30	yes	57	0	396	0	0			0	0			1				0	
6.6.1	mac	2023-06-02	05:43:54	05:50:25	387863	5eeaa8ee94a7f8046a02a20d	3	1	main_slash	7	main_slash	111	stimuli_target_rectangletriangles.svg	stimuli_distractor_diamondtriangles.svg	5	yes	53	1	876	0	0			0	0			1				0	
6.6.1	mac	2023-06-02	05:43:54	05:50:25	387863	5eeaa8ee94a7f8046a02a20d	3	1	main_slash	7	advance_on_keypress_SLASH	112	stimuli_target_rectangletriangles.svg	stimuli_distractor_diamondtriangles.svg	5	yes	57	0	410	0	0			0	0			1				0	
6.6.1	mac	2023-06-02	05:43:54	05:50:27	389843	5eeaa8ee94a7f8046a02a20d	3	1	main_slash	7	main_slash	113	stimuli_distractor_trianglediamonds.svg	stimuli_target_trianglesquares.svg	26	yes	53	1	921	0	0			0	0			1				0	
6.6.1	mac	2023-06-02	05:43:54	05:50:27	389843	5eeaa8ee94a7f8046a02a20d	3	1	main_slash	7	advance_on_keypress_SLASH	114	stimuli_distractor_trianglediamonds.svg	stimuli_target_trianglesquares.svg	26	yes	57	0	550	0	0			0	0			1				0	
6.6.1	mac	2023-06-02	05:43:54	05:50:29	391953	5eeaa8ee94a7f8046a02a20d	3	1	main_slash	7	main_slash	115	stimuli_distractor_trianglediamonds.svg	stimuli_target_rectanglediamonds.svg	10	yes	53	1	932	0	0			0	0			1				0	
6.6.1	mac	2023-06-02	05:43:54	05:50:29	391953	5eeaa8ee94a7f8046a02a20d	3	1	main_slash	7	advance_on_keypress_SLASH	116	stimuli_distractor_trianglediamonds.svg	stimuli_target_rectanglediamonds.svg	10	yes	57	0	429	0	0			0	0			1				0	
6.6.1	mac	2023-06-02	05:43:54	05:50:31	394204	5eeaa8ee94a7f8046a02a20d	3	1	main_slash	7	main_slash	117	stimuli_distractor_trianglediamonds.svg	stimuli_distractor_trianglediamonds.svg	33	no	53	0	1184	0	0			0	0			1				0	
6.6.1	mac	2023-06-02	05:43:54	05:50:31	394204	5eeaa8ee94a7f8046a02a20d	3	1	main_slash	7	advance_on_keypress_SLASH	118	stimuli_distractor_trianglediamonds.svg	stimuli_distractor_trianglediamonds.svg	33	no	57	0	489	0	0			0	0			1				0	
6.6.1	mac	2023-06-02	05:43:54	05:50:33	396254	5eeaa8ee94a7f8046a02a20d	3	1	main_slash	7	main_slash	119	stimuli_target_diamondrectangles.svg	stimuli_distractor_trianglediamonds.svg	19	yes	53	1	933	0	0			0	0			1				0	
6.6.1	mac	2023-06-02	05:43:54	05:50:33	396254	5eeaa8ee94a7f8046a02a20d	3	1	main_slash	7	advance_on_keypress_SLASH	120	stimuli_target_diamondrectangles.svg	stimuli_distractor_trianglediamonds.svg	19	yes	57	0	389	0	0			0	0			1				0	
6.6.1	mac	2023-06-02	05:43:54	05:50:35	398668	5eeaa8ee94a7f8046a02a20d	3	1	main_slash	7	main_slash	121	stimuli_distractor_trianglediamonds.svg	stimuli_distractor_diamondtriangles.svg	36	no	53	0	1395	0	0			0	0			1				0	
6.6.1	mac	2023-06-02	05:43:54	05:50:35	398668	5eeaa8ee94a7f8046a02a20d	3	1	main_slash	7	advance_on_keypress_SLASH	122	stimuli_distractor_trianglediamonds.svg	stimuli_distractor_diamondtriangles.svg	36	no	57	0	425	0	0			0	0			1				0	
6.6.1	mac	2023-06-02	05:43:54	05:50:39	401718	5eeaa8ee94a7f8046a02a20d	3	1	main_slash	7	main_slash	123	stimuli_distractor_diamondtriangles.svg	stimuli_distractor_diamondtriangles.svg	40	no	0	1	2000	0	0			0	0			1				0	
6.6.1	mac	2023-06-02	05:43:54	05:50:39	401718	5eeaa8ee94a7f8046a02a20d	3	1	main_slash	7	advance_on_keypress_SLASH	124	stimuli_distractor_diamondtriangles.svg	stimuli_distractor_diamondtriangles.svg	40	no	57	0	553	0	0			0	0			1				0	
6.6.1	mac	2023-06-02	05:43:54	05:50:41	403800	5eeaa8ee94a7f8046a02a20d	3	1	main_slash	7	main_slash	125	stimuli_distractor_diamondtriangles.svg	stimuli_target_rectangletriangles.svg	13	yes	53	1	894	0	0			0	0			1				0	
6.6.1	mac	2023-06-02	05:43:54	05:50:41	403800	5eeaa8ee94a7f8046a02a20d	3	1	main_slash	7	advance_on_keypress_SLASH	126	stimuli_distractor_diamondtriangles.svg	stimuli_target_rectangletriangles.svg	13	yes	57	0	1229	0	0			0	0			1				0	
6.6.1	mac	2023-06-02	05:43:54	05:50:44	407422	5eeaa8ee94a7f8046a02a20d	3	1	main_slash	7	main_slash	127	stimuli_target_rectangletriangles.svg	stimuli_distractor_trianglediamonds.svg	1	yes	53	1	1750	0	0			0	0			1				0	
6.6.1	mac	2023-06-02	05:43:54	05:50:44	407422	5eeaa8ee94a7f8046a02a20d	3	1	main_slash	7	advance_on_keypress_SLASH	128	stimuli_target_rectangletriangles.svg	stimuli_distractor_trianglediamonds.svg	1	yes	57	0	742	0	0			0	0			1				0	
6.6.1	mac	2023-06-02	05:43:54	05:50:46	409665	5eeaa8ee94a7f8046a02a20d	3	1	main_slash	7	main_slash	129	stimuli_target_squarediamonds.svg	stimuli_distractor_trianglediamonds.svg	4	yes	53	1	859	0	0			0	0			1				0	
6.6.1	mac	2023-06-02	05:43:54	05:50:46	409665	5eeaa8ee94a7f8046a02a20d	3	1	main_slash	7	advance_on_keypress_SLASH	130	stimuli_target_squarediamonds.svg	stimuli_distractor_trianglediamonds.svg	4	yes	57	0	501	0	0			0	0			1				0	
6.6.1	mac	2023-06-02	05:43:54	05:50:48	411625	5eeaa8ee94a7f8046a02a20d	3	1	main_slash	7	main_slash	131	stimuli_distractor_trianglediamonds.svg	stimuli_target_rectangletriangles.svg	9	yes	53	1	819	0	0			0	0			1				0	
6.6.1	mac	2023-06-02	05:43:54	05:50:48	411625	5eeaa8ee94a7f8046a02a20d	3	1	main_slash	7	advance_on_keypress_SLASH	132	stimuli_distractor_trianglediamonds.svg	stimuli_target_rectangletriangles.svg	9	yes	57	0	456	0	0			0	0			1				0	
6.6.1	mac	2023-06-02	05:43:54	05:50:52	414703	5eeaa8ee94a7f8046a02a20d	3	1	main_slash	7	main_slash	133	stimuli_distractor_diamondtriangles.svg	stimuli_distractor_trianglediamonds.svg	37	no	0	1	2000	0	0			0	0			1				0	
6.6.1	mac	2023-06-02	05:43:54	05:50:52	414703	5eeaa8ee94a7f8046a02a20d	3	1	main_slash	7	advance_on_keypress_SLASH	134	stimuli_distractor_diamondtriangles.svg	stimuli_distractor_trianglediamonds.svg	37	no	57	0	385	0	0			0	0			1				0	
6.6.1	mac	2023-06-02	05:43:54	05:50:53	416392	5eeaa8ee94a7f8046a02a20d	3	1	main_slash	7	main_slash	135	stimuli_target_trianglerectangles.svg	stimuli_distractor_diamondtriangles.svg	21	yes	53	1	672	0	0			0	0			1				0	
6.6.1	mac	2023-06-02	05:43:54	05:50:53	416392	5eeaa8ee94a7f8046a02a20d	3	1	main_slash	7	advance_on_keypress_SLASH	136	stimuli_target_trianglerectangles.svg	stimuli_distractor_diamondtriangles.svg	21	yes	57	0	474	0	0			0	0			1				0	
6.6.1	mac	2023-06-02	05:43:54	05:50:55	418282	5eeaa8ee94a7f8046a02a20d	3	1	main_slash	7	main_slash	137	stimuli_distractor_trianglediamonds.svg	stimuli_target_trianglerectangles.svg	25	yes	53	1	793	0	0			0	0			1				0	
6.6.1	mac	2023-06-02	05:43:54	05:50:55	418282	5eeaa8ee94a7f8046a02a20d	3	1	main_slash	7	advance_on_keypress_SLASH	138	stimuli_distractor_trianglediamonds.svg	stimuli_target_trianglerectangles.svg	25	yes	57	0	604	0	0			0	0			1				0	
6.6.1	mac	2023-06-02	05:43:54	05:50:57	420290	5eeaa8ee94a7f8046a02a20d	3	1	main_slash	7	main_slash	139	stimuli_target_squaretriangles.svg	stimuli_distractor_trianglediamonds.svg	3	yes	53	1	768	0	0			0	0			1				0	
6.6.1	mac	2023-06-02	05:43:54	05:50:57	420290	5eeaa8ee94a7f8046a02a20d	3	1	main_slash	7	advance_on_keypress_SLASH	140	stimuli_target_squaretriangles.svg	stimuli_distractor_trianglediamonds.svg	3	yes	57	0	485	0	0			0	0			1				0	
6.6.1	mac	2023-06-02	05:43:54	05:51:00	423402	5eeaa8ee94a7f8046a02a20d	3	1	main_slash	7	main_slash	141	stimuli_distractor_diamondtriangles.svg	stimuli_distractor_diamondtriangles.svg	39	no	0	1	2000	0	0			0	0			1				0	
6.6.1	mac	2023-06-02	05:43:54	05:51:00	423402	5eeaa8ee94a7f8046a02a20d	3	1	main_slash	7	advance_on_keypress_SLASH	142	stimuli_distractor_diamondtriangles.svg	stimuli_distractor_diamondtriangles.svg	39	no	57	0	409	0	0			0	0			1				0	
6.6.1	mac	2023-06-02	05:43:54	05:51:02	425249	5eeaa8ee94a7f8046a02a20d	3	1	main_slash	7	main_slash	143	stimuli_distractor_diamondtriangles.svg	stimuli_target_rectanglediamonds.svg	14	yes	53	1	811	0	0			0	0			1				0	
6.6.1	mac	2023-06-02	05:43:54	05:51:02	425249	5eeaa8ee94a7f8046a02a20d	3	1	main_slash	7	advance_on_keypress_SLASH	144	stimuli_distractor_diamondtriangles.svg	stimuli_target_rectanglediamonds.svg	14	yes	57	0	598	0	0			0	0			1				0	
6.6.1	mac	2023-06-02	05:43:54	05:51:05	428488	5eeaa8ee94a7f8046a02a20d	3	1	main_slash	7	main_slash	145	stimuli_distractor_diamondtriangles.svg	stimuli_distractor_trianglediamonds.svg	38	no	0	1	2000	0	0			0	0			1				0	
6.6.1	mac	2023-06-02	05:43:54	05:51:05	428488	5eeaa8ee94a7f8046a02a20d	3	1	main_slash	7	advance_on_keypress_SLASH	146	stimuli_distractor_diamondtriangles.svg	stimuli_distractor_trianglediamonds.svg	38	no	57	0	536	0	0			0	0			1				0	
6.6.1	mac	2023-06-02	05:43:54	05:51:07	430527	5eeaa8ee94a7f8046a02a20d	3	1	main_slash	7	main_slash	147	stimuli_target_diamondsquares.svg	stimuli_distractor_diamondtriangles.svg	24	yes	53	1	858	0	0			0	0			1				0	
6.6.1	mac	2023-06-02	05:43:54	05:51:07	430527	5eeaa8ee94a7f8046a02a20d	3	1	main_slash	7	advance_on_keypress_SLASH	148	stimuli_target_diamondsquares.svg	stimuli_distractor_diamondtriangles.svg	24	yes	57	0	555	0	0			0	0			1				0	
6.6.1	mac	2023-06-02	05:43:54	05:51:09	432515	5eeaa8ee94a7f8046a02a20d	3	1	main_slash	7	main_slash	149	stimuli_target_trianglesquares.svg	stimuli_distractor_diamondtriangles.svg	22	yes	53	1	812	0	0			0	0			1				0	
6.6.1	mac	2023-06-02	05:43:54	05:51:09	432515	5eeaa8ee94a7f8046a02a20d	3	1	main_slash	7	advance_on_keypress_SLASH	150	stimuli_target_trianglesquares.svg	stimuli_distractor_diamondtriangles.svg	22	yes	57	0	462	0	0			0	0			1				0	
6.6.1	mac	2023-06-02	05:43:54	05:51:11	434550	5eeaa8ee94a7f8046a02a20d	3	1	main_slash	7	main_slash	151	stimuli_distractor_trianglediamonds.svg	stimuli_target_squaretriangles.svg	11	yes	53	1	928	0	0			0	0			1				0	
6.6.1	mac	2023-06-02	05:43:54	05:51:11	434550	5eeaa8ee94a7f8046a02a20d	3	1	main_slash	7	advance_on_keypress_SLASH	152	stimuli_distractor_trianglediamonds.svg	stimuli_target_squaretriangles.svg	11	yes	57	0	548	0	0			0	0			1				0	
6.6.1	mac	2023-06-02	05:43:54	05:51:15	437736	5eeaa8ee94a7f8046a02a20d	3	1	main_slash	7	main_slash	153	stimuli_distractor_trianglediamonds.svg	stimuli_distractor_trianglediamonds.svg	34	no	0	1	2000	0	0			0	0			1				0	
6.6.1	mac	2023-06-02	05:43:54	05:51:15	437736	5eeaa8ee94a7f8046a02a20d	3	1	main_slash	7	advance_on_keypress_SLASH	154	stimuli_distractor_trianglediamonds.svg	stimuli_distractor_trianglediamonds.svg	34	no	57	0	397	0	0			0	0			1				0	
6.6.1	mac	2023-06-02	05:43:54	05:51:16	439443	5eeaa8ee94a7f8046a02a20d	3	1	main_slash	7	main_slash	155	stimuli_distractor_diamondtriangles.svg	stimuli_target_diamondrectangles.svg	31	yes	53	1	672	0	0			0	0			1				0	
6.6.1	mac	2023-06-02	05:43:54	05:51:16	439443	5eeaa8ee94a7f8046a02a20d	3	1	main_slash	7	advance_on_keypress_SLASH	156	stimuli_distractor_diamondtriangles.svg	stimuli_target_diamondrectangles.svg	31	yes	57	0	1701	0	0			0	0			1				0	
6.6.1	mac	2023-06-02	05:43:54	05:51:19	442436	5eeaa8ee94a7f8046a02a20d	3	1	main_slash	7	main_slash	157	stimuli_distractor_diamondtriangles.svg	stimuli_target_trianglerectangles.svg	29	yes	53	1	666	0	0			0	0			1				0	
6.6.1	mac	2023-06-02	05:43:54	05:51:19	442436	5eeaa8ee94a7f8046a02a20d	3	1	main_slash	7	advance_on_keypress_SLASH	158	stimuli_distractor_diamondtriangles.svg	stimuli_target_trianglerectangles.svg	29	yes	57	0	557	0	0			0	0			1				0	
6.6.1	mac	2023-06-02	05:43:54	05:51:21	444343	5eeaa8ee94a7f8046a02a20d	3	1	main_slash	7	main_slash	159	stimuli_target_rectanglediamonds.svg	stimuli_distractor_diamondtriangles.svg	6	yes	53	1	721	0	0			0	0			1				0	
6.6.1	mac	2023-06-02	05:43:54	05:51:21	444343	5eeaa8ee94a7f8046a02a20d	3	1	main_slash	7	advance_on_keypress_SLASH	160	stimuli_target_rectanglediamonds.svg	stimuli_distractor_diamondtriangles.svg	6	yes	57	0	431	0	0			0	0			1				0	
6.6.1	mac	2023-06-02	05:43:54	05:51:49	471755	5eeaa8ee94a7f8046a02a20d	3	1	practice_z	9	practice_z	1	stimuli_target_diamondsquares.svg	stimuli_distractor_diamondtriangles.svg	3	yes	44	1	1364	0	0			0	0			1				0	
6.6.1	mac	2023-06-02	05:43:54	05:51:49	471755	5eeaa8ee94a7f8046a02a20d	3	1	practice_z	9	advance_on_keypress_ZEE	2	stimuli_target_diamondsquares.svg	stimuli_distractor_diamondtriangles.svg	3	yes	57	0	528	0	0			0	0			1				0	
6.6.1	mac	2023-06-02	05:43:54	05:51:52	475008	5eeaa8ee94a7f8046a02a20d	3	1	practice_z	9	practice_z	3	stimuli_distractor_trianglediamonds.svg	stimuli_target_squarediamonds.svg	11	yes	44	1	1083	0	0			0	0			1				0	
6.6.1	mac	2023-06-02	05:43:54	05:51:52	475008	5eeaa8ee94a7f8046a02a20d	3	1	practice_z	9	advance_on_keypress_ZEE	4	stimuli_distractor_trianglediamonds.svg	stimuli_target_squarediamonds.svg	11	yes	57	0	344	0	0			0	0			1				0	
6.6.1	mac	2023-06-02	05:43:54	05:51:55	477745	5eeaa8ee94a7f8046a02a20d	3	1	practice_z	9	practice_z	5	stimuli_target_diamondsquares.svg	stimuli_distractor_trianglediamonds.svg	6	yes	44	1	754	0	0			0	0			1				0	
6.6.1	mac	2023-06-02	05:43:54	05:51:55	477745	5eeaa8ee94a7f8046a02a20d	3	1	practice_z	9	advance_on_keypress_ZEE	6	stimuli_target_diamondsquares.svg	stimuli_distractor_trianglediamonds.svg	6	yes	57	0	305	0	0			0	0			1				0	
6.6.1	mac	2023-06-02	05:43:54	05:51:58	481195	5eeaa8ee94a7f8046a02a20d	3	1	practice_z	9	practice_z	7	stimuli_distractor_trianglediamonds.svg	stimuli_distractor_diamondtriangles.svg	16	no	44	0	1501	0	0			0	0			1				0	
6.6.1	mac	2023-06-02	05:43:54	05:51:58	481195	5eeaa8ee94a7f8046a02a20d	3	1	practice_z	9	advance_on_keypress_ZEE	8	stimuli_distractor_trianglediamonds.svg	stimuli_distractor_diamondtriangles.svg	16	no	57	0	371	0	0			0	0			1				0	
6.6.1	mac	2023-06-02	05:43:54	05:52:01	483938	5eeaa8ee94a7f8046a02a20d	3	1	practice_z	9	practice_z	9	stimuli_target_rectanglediamonds.svg	stimuli_distractor_trianglediamonds.svg	4	yes	44	1	732	0	0			0	0			1				0	
6.6.1	mac	2023-06-02	05:43:54	05:52:01	483938	5eeaa8ee94a7f8046a02a20d	3	1	practice_z	9	advance_on_keypress_ZEE	10	stimuli_target_rectanglediamonds.svg	stimuli_distractor_trianglediamonds.svg	4	yes	57	0	357	0	0			0	0			1				0	
6.6.1	mac	2023-06-02	05:43:54	05:52:04	487060	5eeaa8ee94a7f8046a02a20d	3	1	practice_z	9	practice_z	11	stimuli_target_squarediamonds.svg	stimuli_distractor_trianglediamonds.svg	5	yes	44	1	1135	0	0			0	0			1				0	
6.6.1	mac	2023-06-02	05:43:54	05:52:04	487060	5eeaa8ee94a7f8046a02a20d	3	1	practice_z	9	advance_on_keypress_ZEE	12	stimuli_target_squarediamonds.svg	stimuli_distractor_trianglediamonds.svg	5	yes	57	0	498	0	0			0	0			1				0	
6.6.1	mac	2023-06-02	05:43:54	05:52:07	489871	5eeaa8ee94a7f8046a02a20d	3	1	practice_z	9	practice_z	13	stimuli_target_squarediamonds.svg	stimuli_distractor_diamondtriangles.svg	2	yes	44	1	682	0	0			0	0			1				0	
6.6.1	mac	2023-06-02	05:43:54	05:52:07	489871	5eeaa8ee94a7f8046a02a20d	3	1	practice_z	9	advance_on_keypress_ZEE	14	stimuli_target_squarediamonds.svg	stimuli_distractor_diamondtriangles.svg	2	yes	57	0	406	0	0			0	0			1				0	
6.6.1	mac	2023-06-02	05:43:54	05:52:09	492655	5eeaa8ee94a7f8046a02a20d	3	1	practice_z	9	practice_z	15	stimuli_distractor_diamondtriangles.svg	stimuli_target_rectangletriangles.svg	7	yes	44	1	749	0	0			0	0			1				0	
6.6.1	mac	2023-06-02	05:43:54	05:52:09	492655	5eeaa8ee94a7f8046a02a20d	3	1	practice_z	9	advance_on_keypress_ZEE	16	stimuli_distractor_diamondtriangles.svg	stimuli_target_rectangletriangles.svg	7	yes	57	0	341	0	0			0	0			1				0	
6.6.1	mac	2023-06-02	05:43:54	05:52:13	496640	5eeaa8ee94a7f8046a02a20d	3	1	practice_z	9	practice_z	17	stimuli_distractor_diamondtriangles.svg	stimuli_distractor_diamondtriangles.svg	13	no	0	1	2000	0	0			0	0			1				0	
6.6.1	mac	2023-06-02	05:43:54	05:52:13	496640	5eeaa8ee94a7f8046a02a20d	3	1	practice_z	9	advance_on_keypress_ZEE	18	stimuli_distractor_diamondtriangles.svg	stimuli_distractor_diamondtriangles.svg	13	no	57	0	466	0	0			0	0			1				0	
6.6.1	mac	2023-06-02	05:43:54	05:52:16	499340	5eeaa8ee94a7f8046a02a20d	3	1	practice_z	9	practice_z	19	stimuli_distractor_diamondtriangles.svg	stimuli_target_diamondrectangles.svg	8	yes	44	1	602	0	0			0	0			1				0	
6.6.1	mac	2023-06-02	05:43:54	05:52:16	499340	5eeaa8ee94a7f8046a02a20d	3	1	practice_z	9	advance_on_keypress_ZEE	20	stimuli_distractor_diamondtriangles.svg	stimuli_target_diamondrectangles.svg	8	yes	57	0	410	0	0			0	0			1				0	
6.6.1	mac	2023-06-02	05:43:54	05:52:19	502039	5eeaa8ee94a7f8046a02a20d	3	1	practice_z	9	practice_z	21	stimuli_target_rectanglediamonds.svg	stimuli_distractor_diamondtriangles.svg	1	yes	44	1	648	0	0			0	0			1				0	
6.6.1	mac	2023-06-02	05:43:54	05:52:19	502039	5eeaa8ee94a7f8046a02a20d	3	1	practice_z	9	advance_on_keypress_ZEE	22	stimuli_target_rectanglediamonds.svg	stimuli_distractor_diamondtriangles.svg	1	yes	57	0	287	0	0			0	0			1				0	
6.6.1	mac	2023-06-02	05:43:54	05:52:22	504749	5eeaa8ee94a7f8046a02a20d	3	1	practice_z	9	practice_z	23	stimuli_distractor_trianglediamonds.svg	stimuli_target_diamondrectangles.svg	12	yes	44	1	792	0	0			0	0			1				0	
6.6.1	mac	2023-06-02	05:43:54	05:52:22	504749	5eeaa8ee94a7f8046a02a20d	3	1	practice_z	9	advance_on_keypress_ZEE	24	stimuli_distractor_trianglediamonds.svg	stimuli_target_diamondrectangles.svg	12	yes	57	0	519	0	0			0	0			1				0	
6.6.1	mac	2023-06-02	05:43:54	05:52:26	508905	5eeaa8ee94a7f8046a02a20d	3	1	practice_z	9	practice_z	25	stimuli_distractor_trianglediamonds.svg	stimuli_distractor_trianglediamonds.svg	15	no	0	1	2000	0	0			0	0			1				0	
6.6.1	mac	2023-06-02	05:43:54	05:52:26	508905	5eeaa8ee94a7f8046a02a20d	3	1	practice_z	9	advance_on_keypress_ZEE	26	stimuli_distractor_trianglediamonds.svg	stimuli_distractor_trianglediamonds.svg	15	no	57	0	480	0	0			0	0			1				0	
6.6.1	mac	2023-06-02	05:43:54	05:52:28	511658	5eeaa8ee94a7f8046a02a20d	3	1	practice_z	9	practice_z	27	stimuli_distractor_diamondtriangles.svg	stimuli_target_trianglerectangles.svg	9	yes	44	1	635	0	0			0	0			1				0	
6.6.1	mac	2023-06-02	05:43:54	05:52:28	511658	5eeaa8ee94a7f8046a02a20d	3	1	practice_z	9	advance_on_keypress_ZEE	28	stimuli_distractor_diamondtriangles.svg	stimuli_target_trianglerectangles.svg	9	yes	57	0	474	0	0			0	0			1				0	
6.6.1	mac	2023-06-02	05:43:54	05:52:31	514479	5eeaa8ee94a7f8046a02a20d	3	1	practice_z	9	practice_z	29	stimuli_distractor_trianglediamonds.svg	stimuli_target_rectanglediamonds.svg	10	yes	44	1	720	0	0			0	0			1				0	
6.6.1	mac	2023-06-02	05:43:54	05:52:31	514479	5eeaa8ee94a7f8046a02a20d	3	1	practice_z	9	advance_on_keypress_ZEE	30	stimuli_distractor_trianglediamonds.svg	stimuli_target_rectanglediamonds.svg	10	yes	57	0	446	0	0			0	0			1				0	
6.6.1	mac	2023-06-02	05:43:54	05:52:35	517815	5eeaa8ee94a7f8046a02a20d	3	1	practice_z	9	practice_z	31	stimuli_distractor_diamondtriangles.svg	stimuli_distractor_trianglediamonds.svg	14	no	44	0	1240	0	0			0	0			1				0	
6.6.1	mac	2023-06-02	05:43:54	05:52:35	517815	5eeaa8ee94a7f8046a02a20d	3	1	practice_z	9	advance_on_keypress_ZEE	32	stimuli_distractor_diamondtriangles.svg	stimuli_distractor_trianglediamonds.svg	14	no	57	0	272	0	0			0	0			1				0	
6.6.1	mac	2023-06-02	05:43:54	05:52:39	522384	5eeaa8ee94a7f8046a02a20d	3	1	main_z	11	main_z	1	stimuli_distractor_diamondtriangles.svg	stimuli_target_squaretriangles.svg	15	yes	44	1	549	0	0			0	0			1				0	
6.6.1	mac	2023-06-02	05:43:54	05:52:39	522384	5eeaa8ee94a7f8046a02a20d	3	1	main_z	11	advance_on_keypress_ZEE	2	stimuli_distractor_diamondtriangles.svg	stimuli_target_squaretriangles.svg	15	yes	57	0	848	0	0			0	0			1				0	
6.6.1	mac	2023-06-02	05:43:54	05:52:41	524397	5eeaa8ee94a7f8046a02a20d	3	1	main_z	11	main_z	3	stimuli_distractor_trianglediamonds.svg	stimuli_target_diamondsquares.svg	28	yes	44	1	527	0	0			0	0			1				0	
6.6.1	mac	2023-06-02	05:43:54	05:52:41	524397	5eeaa8ee94a7f8046a02a20d	3	1	main_z	11	advance_on_keypress_ZEE	4	stimuli_distractor_trianglediamonds.svg	stimuli_target_diamondsquares.svg	28	yes	57	0	432	0	0			0	0			1				0	
6.6.1	mac	2023-06-02	05:43:54	05:52:43	526075	5eeaa8ee94a7f8046a02a20d	3	1	main_z	11	main_z	5	stimuli_distractor_diamondtriangles.svg	stimuli_target_diamondsquares.svg	32	yes	44	1	606	0	0			0	0			1				0	
6.6.1	mac	2023-06-02	05:43:54	05:52:43	526075	5eeaa8ee94a7f8046a02a20d	3	1	main_z	11	advance_on_keypress_ZEE	6	stimuli_distractor_diamondtriangles.svg	stimuli_target_diamondsquares.svg	32	yes	57	0	371	0	0			0	0			1				0	
6.6.1	mac	2023-06-02	05:43:54	05:52:46	529070	5eeaa8ee94a7f8046a02a20d	3	1	main_z	11	main_z	7	stimuli_distractor_trianglediamonds.svg	stimuli_distractor_trianglediamonds.svg	33	no	0	1	2000	0	0			0	0			1				0	
6.6.1	mac	2023-06-02	05:43:54	05:52:46	529070	5eeaa8ee94a7f8046a02a20d	3	1	main_z	11	advance_on_keypress_ZEE	8	stimuli_distractor_trianglediamonds.svg	stimuli_distractor_trianglediamonds.svg	33	no	57	0	442	0	0			0	0			1				0	
6.6.1	mac	2023-06-02	05:43:54	05:52:48	530871	5eeaa8ee94a7f8046a02a20d	3	1	main_z	11	main_z	9	stimuli_distractor_trianglediamonds.svg	stimuli_target_rectangletriangles.svg	9	yes	44	1	716	0	0			0	0			1				0	
6.6.1	mac	2023-06-02	05:43:54	05:52:48	530871	5eeaa8ee94a7f8046a02a20d	3	1	main_z	11	advance_on_keypress_ZEE	10	stimuli_distractor_trianglediamonds.svg	stimuli_target_rectangletriangles.svg	9	yes	57	0	715	0	0			0	0			1				0	
6.6.1	mac	2023-06-02	05:43:54	05:52:50	533174	5eeaa8ee94a7f8046a02a20d	3	1	main_z	11	main_z	11	stimuli_distractor_diamondtriangles.svg	stimuli_target_rectanglediamonds.svg	14	yes	44	1	952	0	0			0	0			1				0	
6.6.1	mac	2023-06-02	05:43:54	05:52:50	533174	5eeaa8ee94a7f8046a02a20d	3	1	main_z	11	advance_on_keypress_ZEE	12	stimuli_distractor_diamondtriangles.svg	stimuli_target_rectanglediamonds.svg	14	yes	57	0	529	0	0			0	0			1				0	
6.6.1	mac	2023-06-02	05:43:54	05:52:52	535071	5eeaa8ee94a7f8046a02a20d	3	1	main_z	11	main_z	13	stimuli_target_rectanglediamonds.svg	stimuli_distractor_diamondtriangles.svg	6	yes	44	1	734	0	0			0	0			1				0	
6.6.1	mac	2023-06-02	05:43:54	05:52:52	535071	5eeaa8ee94a7f8046a02a20d	3	1	main_z	11	advance_on_keypress_ZEE	14	stimuli_target_rectanglediamonds.svg	stimuli_distractor_diamondtriangles.svg	6	yes	57	0	510	0	0			0	0			1				0	
6.6.1	mac	2023-06-02	05:43:54	05:52:55	538203	5eeaa8ee94a7f8046a02a20d	3	1	main_z	11	main_z	15	stimuli_distractor_trianglediamonds.svg	stimuli_target_rectanglediamonds.svg	10	yes	0	0	2000	0	0			0	0			1				0	
6.6.1	mac	2023-06-02	05:43:54	05:52:55	538203	5eeaa8ee94a7f8046a02a20d	3	1	main_z	11	advance_on_keypress_ZEE	16	stimuli_distractor_trianglediamonds.svg	stimuli_target_rectanglediamonds.svg	10	yes	57	0	296	0	0			0	0			1				0	
6.6.1	mac	2023-06-02	05:43:54	05:52:58	541138	5eeaa8ee94a7f8046a02a20d	3	1	main_z	11	main_z	17	stimuli_distractor_trianglediamonds.svg	stimuli_distractor_diamondtriangles.svg	35	no	0	1	2000	0	0			0	0			1				0	
6.6.1	mac	2023-06-02	05:43:54	05:52:58	541138	5eeaa8ee94a7f8046a02a20d	3	1	main_z	11	advance_on_keypress_ZEE	18	stimuli_distractor_trianglediamonds.svg	stimuli_distractor_diamondtriangles.svg	35	no	57	0	360	0	0			0	0			1				0	
6.6.1	mac	2023-06-02	05:43:54	05:53:00	542819	5eeaa8ee94a7f8046a02a20d	3	1	main_z	11	main_z	19	stimuli_distractor_diamondtriangles.svg	stimuli_target_rectangletriangles.svg	13	yes	44	1	681	0	0			0	0			1				0	
6.6.1	mac	2023-06-02	05:43:54	05:53:00	542819	5eeaa8ee94a7f8046a02a20d	3	1	main_z	11	advance_on_keypress_ZEE	20	stimuli_distractor_diamondtriangles.svg	stimuli_target_rectangletriangles.svg	13	yes	57	0	654	0	0			0	0			1				0	
6.6.1	mac	2023-06-02	05:43:54	05:53:01	544650	5eeaa8ee94a7f8046a02a20d	3	1	main_z	11	main_z	21	stimuli_target_rectanglediamonds.svg	stimuli_distractor_trianglediamonds.svg	2	yes	44	1	547	0	0			0	0			1				0	
6.6.1	mac	2023-06-02	05:43:54	05:53:01	544650	5eeaa8ee94a7f8046a02a20d	3	1	main_z	11	advance_on_keypress_ZEE	22	stimuli_target_rectanglediamonds.svg	stimuli_distractor_trianglediamonds.svg	2	yes	57	0	425	0	0			0	0			1				0	
6.6.1	mac	2023-06-02	05:43:54	05:53:03	546465	5eeaa8ee94a7f8046a02a20d	3	1	main_z	11	main_z	23	stimuli_target_trianglerectangles.svg	stimuli_distractor_trianglediamonds.svg	17	yes	44	1	760	0	0			0	0			1				0	
6.6.1	mac	2023-06-02	05:43:54	05:53:03	546465	5eeaa8ee94a7f8046a02a20d	3	1	main_z	11	advance_on_keypress_ZEE	24	stimuli_target_trianglerectangles.svg	stimuli_distractor_trianglediamonds.svg	17	yes	57	0	402	0	0			0	0			1				0	
6.6.1	mac	2023-06-02	05:43:54	05:53:05	548575	5eeaa8ee94a7f8046a02a20d	3	1	main_z	11	main_z	25	stimuli_target_squarediamonds.svg	stimuli_distractor_trianglediamonds.svg	4	yes	44	1	1069	0	0			0	0			1				0	
6.6.1	mac	2023-06-02	05:43:54	05:53:05	548575	5eeaa8ee94a7f8046a02a20d	3	1	main_z	11	advance_on_keypress_ZEE	26	stimuli_target_squarediamonds.svg	stimuli_distractor_trianglediamonds.svg	4	yes	57	0	414	0	0			0	0			1				0	
6.6.1	mac	2023-06-02	05:43:54	05:53:07	550134	5eeaa8ee94a7f8046a02a20d	3	1	main_z	11	main_z	27	stimuli_distractor_trianglediamonds.svg	stimuli_target_trianglesquares.svg	26	yes	44	1	514	0	0			0	0			1				0	
6.6.1	mac	2023-06-02	05:43:54	05:53:07	550134	5eeaa8ee94a7f8046a02a20d	3	1	main_z	11	advance_on_keypress_ZEE	28	stimuli_distractor_trianglediamonds.svg	stimuli_target_trianglesquares.svg	26	yes	57	0	485	0	0			0	0			1				0	
6.6.1	mac	2023-06-02	05:43:54	05:53:09	552209	5eeaa8ee94a7f8046a02a20d	3	1	main_z	11	main_z	29	stimuli_target_diamondrectangles.svg	stimuli_distractor_trianglediamonds.svg	19	yes	44	1	953	0	0			0	0			1				0	
6.6.1	mac	2023-06-02	05:43:54	05:53:09	552209	5eeaa8ee94a7f8046a02a20d	3	1	main_z	11	advance_on_keypress_ZEE	30	stimuli_target_diamondrectangles.svg	stimuli_distractor_trianglediamonds.svg	19	yes	57	0	383	0	0			0	0			1				0	
6.6.1	mac	2023-06-02	05:43:54	05:53:12	555221	5eeaa8ee94a7f8046a02a20d	3	1	main_z	11	main_z	31	stimuli_distractor_trianglediamonds.svg	stimuli_distractor_diamondtriangles.svg	36	no	0	1	2000	0	0			0	0			1				0	
6.6.1	mac	2023-06-02	05:43:54	05:53:12	555221	5eeaa8ee94a7f8046a02a20d	3	1	main_z	11	advance_on_keypress_ZEE	32	stimuli_distractor_trianglediamonds.svg	stimuli_distractor_diamondtriangles.svg	36	no	57	0	347	0	0			0	0			1				0	
6.6.1	mac	2023-06-02	05:43:54	05:53:15	558208	5eeaa8ee94a7f8046a02a20d	3	1	main_z	11	main_z	33	stimuli_distractor_diamondtriangles.svg	stimuli_distractor_diamondtriangles.svg	40	no	0	1	2000	0	0			0	0			1				0	
6.6.1	mac	2023-06-02	05:43:54	05:53:15	558208	5eeaa8ee94a7f8046a02a20d	3	1	main_z	11	advance_on_keypress_ZEE	34	stimuli_distractor_diamondtriangles.svg	stimuli_distractor_diamondtriangles.svg	40	no	57	0	407	0	0			0	0			1				0	
6.6.1	mac	2023-06-02	05:43:54	05:53:17	559813	5eeaa8ee94a7f8046a02a20d	3	1	main_z	11	main_z	35	stimuli_target_trianglesquares.svg	stimuli_distractor_diamondtriangles.svg	22	yes	44	1	561	0	0			0	0			1				0	
6.6.1	mac	2023-06-02	05:43:54	05:53:17	559813	5eeaa8ee94a7f8046a02a20d	3	1	main_z	11	advance_on_keypress_ZEE	36	stimuli_target_trianglesquares.svg	stimuli_distractor_diamondtriangles.svg	22	yes	57	0	675	0	0			0	0			1				0	
6.6.1	mac	2023-06-02	05:43:54	05:53:19	561850	5eeaa8ee94a7f8046a02a20d	3	1	main_z	11	main_z	37	stimuli_target_rectangletriangles.svg	stimuli_distractor_diamondtriangles.svg	5	yes	44	1	712	0	0			0	0			1				0	
6.6.1	mac	2023-06-02	05:43:54	05:53:19	561850	5eeaa8ee94a7f8046a02a20d	3	1	main_z	11	advance_on_keypress_ZEE	38	stimuli_target_rectangletriangles.svg	stimuli_distractor_diamondtriangles.svg	5	yes	57	0	518	0	0			0	0			1				0	
6.6.1	mac	2023-06-02	05:43:54	05:53:20	563567	5eeaa8ee94a7f8046a02a20d	3	1	main_z	11	main_z	39	stimuli_target_squarediamonds.svg	stimuli_distractor_diamondtriangles.svg	8	yes	44	1	565	0	0			0	0			1				0	
6.6.1	mac	2023-06-02	05:43:54	05:53:20	563567	5eeaa8ee94a7f8046a02a20d	3	1	main_z	11	advance_on_keypress_ZEE	40	stimuli_target_squarediamonds.svg	stimuli_distractor_diamondtriangles.svg	8	yes	57	0	432	0	0			0	0			1				0	
6.6.1	mac	2023-06-02	05:43:54	05:53:22	565490	5eeaa8ee94a7f8046a02a20d	3	1	main_z	11	main_z	41	stimuli_target_diamondsquares.svg	stimuli_distractor_trianglediamonds.svg	20	yes	44	1	850	0	0			0	0			1				0	
6.6.1	mac	2023-06-02	05:43:54	05:53:22	565490	5eeaa8ee94a7f8046a02a20d	3	1	main_z	11	advance_on_keypress_ZEE	42	stimuli_target_diamondsquares.svg	stimuli_distractor_trianglediamonds.svg	20	yes	57	0	364	0	0			0	0			1				0	
6.6.1	mac	2023-06-02	05:43:54	05:53:24	567363	5eeaa8ee94a7f8046a02a20d	3	1	main_z	11	main_z	43	stimuli_target_rectangletriangles.svg	stimuli_distractor_trianglediamonds.svg	1	yes	44	1	874	0	0			0	0			1				0	
6.6.1	mac	2023-06-02	05:43:54	05:53:24	567363	5eeaa8ee94a7f8046a02a20d	3	1	main_z	11	advance_on_keypress_ZEE	44	stimuli_target_rectangletriangles.svg	stimuli_distractor_trianglediamonds.svg	1	yes	57	0	746	0	0			0	0			1				0	
6.6.1	mac	2023-06-02	05:43:54	05:53:28	570753	5eeaa8ee94a7f8046a02a20d	3	1	main_z	11	main_z	45	stimuli_distractor_diamondtriangles.svg	stimuli_distractor_diamondtriangles.svg	39	no	0	1	2000	0	0			0	0			1				0	
6.6.1	mac	2023-06-02	05:43:54	05:53:28	570753	5eeaa8ee94a7f8046a02a20d	3	1	main_z	11	advance_on_keypress_ZEE	46	stimuli_distractor_diamondtriangles.svg	stimuli_distractor_diamondtriangles.svg	39	no	57	0	371	0	0			0	0			1				0	
6.6.1	mac	2023-06-02	05:43:54	05:53:29	572323	5eeaa8ee94a7f8046a02a20d	3	1	main_z	11	main_z	47	stimuli_target_diamondrectangles.svg	stimuli_distractor_diamondtriangles.svg	23	yes	44	1	572	0	0			0	0			1				0	
6.6.1	mac	2023-06-02	05:43:54	05:53:29	572323	5eeaa8ee94a7f8046a02a20d	3	1	main_z	11	advance_on_keypress_ZEE	48	stimuli_target_diamondrectangles.svg	stimuli_distractor_diamondtriangles.svg	23	yes	57	0	462	0	0			0	0			1				0	
6.6.1	mac	2023-06-02	05:43:54	05:53:31	574419	5eeaa8ee94a7f8046a02a20d	3	1	main_z	11	main_z	49	stimuli_distractor_diamondtriangles.svg	stimuli_target_squarediamonds.svg	16	yes	44	1	996	0	0			0	0			1				0	
6.6.1	mac	2023-06-02	05:43:54	05:53:31	574419	5eeaa8ee94a7f8046a02a20d	3	1	main_z	11	advance_on_keypress_ZEE	50	stimuli_distractor_diamondtriangles.svg	stimuli_target_squarediamonds.svg	16	yes	57	0	10	0	0			0	0			1				0	
6.6.1	mac	2023-06-02	05:43:54	05:53:32	575655	5eeaa8ee94a7f8046a02a20d	3	1	main_z	11	main_z	51	stimuli_distractor_diamondtriangles.svg	stimuli_target_diamondrectangles.svg	31	yes	44	1	603	0	0			0	0			1				0	
6.6.1	mac	2023-06-02	05:43:54	05:53:32	575655	5eeaa8ee94a7f8046a02a20d	3	1	main_z	11	advance_on_keypress_ZEE	52	stimuli_distractor_diamondtriangles.svg	stimuli_target_diamondrectangles.svg	31	yes	57	0	587	0	0			0	0			1				0	
6.6.1	mac	2023-06-02	05:43:54	05:53:36	578869	5eeaa8ee94a7f8046a02a20d	3	1	main_z	11	main_z	53	stimuli_distractor_diamondtriangles.svg	stimuli_distractor_trianglediamonds.svg	37	no	0	1	2000	0	0			0	0			1				0	
6.6.1	mac	2023-06-02	05:43:54	05:53:36	578869	5eeaa8ee94a7f8046a02a20d	3	1	main_z	11	advance_on_keypress_ZEE	54	stimuli_distractor_diamondtriangles.svg	stimuli_distractor_trianglediamonds.svg	37	no	57	0	358	0	0			0	0			1				0	
6.6.1	mac	2023-06-02	05:43:54	05:53:37	580358	5eeaa8ee94a7f8046a02a20d	3	1	main_z	11	main_z	55	stimuli_target_squaretriangles.svg	stimuli_distractor_diamondtriangles.svg	7	yes	44	1	505	0	0			0	0			1				0	
6.6.1	mac	2023-06-02	05:43:54	05:53:37	580358	5eeaa8ee94a7f8046a02a20d	3	1	main_z	11	advance_on_keypress_ZEE	56	stimuli_target_squaretriangles.svg	stimuli_distractor_diamondtriangles.svg	7	yes	57	0	495	0	0			0	0			1				0	
6.6.1	mac	2023-06-02	05:43:54	05:53:39	582128	5eeaa8ee94a7f8046a02a20d	3	1	main_z	11	main_z	57	stimuli_distractor_diamondtriangles.svg	stimuli_target_trianglerectangles.svg	29	yes	44	1	640	0	0			0	0			1				0	
6.6.1	mac	2023-06-02	05:43:54	05:53:39	582128	5eeaa8ee94a7f8046a02a20d	3	1	main_z	11	advance_on_keypress_ZEE	58	stimuli_distractor_diamondtriangles.svg	stimuli_target_trianglerectangles.svg	29	yes	57	0	416	0	0			0	0			1				0	
6.6.1	mac	2023-06-02	05:43:54	05:53:42	585170	5eeaa8ee94a7f8046a02a20d	3	1	main_z	11	main_z	59	stimuli_distractor_trianglediamonds.svg	stimuli_distractor_trianglediamonds.svg	34	no	0	1	2000	0	0			0	0			1				0	
6.6.1	mac	2023-06-02	05:43:54	05:53:42	585170	5eeaa8ee94a7f8046a02a20d	3	1	main_z	11	advance_on_keypress_ZEE	60	stimuli_distractor_trianglediamonds.svg	stimuli_distractor_trianglediamonds.svg	34	no	57	0	477	0	0			0	0			1				0	
6.6.1	mac	2023-06-02	05:43:54	05:53:44	586774	5eeaa8ee94a7f8046a02a20d	3	1	main_z	11	main_z	61	stimuli_target_trianglesquares.svg	stimuli_distractor_trianglediamonds.svg	18	yes	44	1	485	0	0			0	0			1				0	
6.6.1	mac	2023-06-02	05:43:54	05:53:44	586774	5eeaa8ee94a7f8046a02a20d	3	1	main_z	11	advance_on_keypress_ZEE	62	stimuli_target_trianglesquares.svg	stimuli_distractor_trianglediamonds.svg	18	yes	57	0	439	0	0			0	0			1				0	
6.6.1	mac	2023-06-02	05:43:54	05:53:45	588330	5eeaa8ee94a7f8046a02a20d	3	1	main_z	11	main_z	63	stimuli_distractor_diamondtriangles.svg	stimuli_target_trianglesquares.svg	30	yes	44	1	493	0	0			0	0			1				0	
6.6.1	mac	2023-06-02	05:43:54	05:53:45	588330	5eeaa8ee94a7f8046a02a20d	3	1	main_z	11	advance_on_keypress_ZEE	64	stimuli_distractor_diamondtriangles.svg	stimuli_target_trianglesquares.svg	30	yes	57	0	618	0	0			0	0			1				0	
6.6.1	mac	2023-06-02	05:43:54	05:53:47	590606	5eeaa8ee94a7f8046a02a20d	3	1	main_z	11	main_z	65	stimuli_distractor_trianglediamonds.svg	stimuli_target_squarediamonds.svg	12	yes	44	1	1017	0	0			0	0			1				0	
6.6.1	mac	2023-06-02	05:43:54	05:53:47	590606	5eeaa8ee94a7f8046a02a20d	3	1	main_z	11	advance_on_keypress_ZEE	66	stimuli_distractor_trianglediamonds.svg	stimuli_target_squarediamonds.svg	12	yes	57	0	418	0	0			0	0			1				0	
6.6.1	mac	2023-06-02	05:43:54	05:53:50	592739	5eeaa8ee94a7f8046a02a20d	3	1	main_z	11	main_z	67	stimuli_distractor_diamondtriangles.svg	stimuli_distractor_trianglediamonds.svg	38	no	44	0	1087	0	0			0	0			1				0	
6.6.1	mac	2023-06-02	05:43:54	05:53:50	592739	5eeaa8ee94a7f8046a02a20d	3	1	main_z	11	advance_on_keypress_ZEE	68	stimuli_distractor_diamondtriangles.svg	stimuli_distractor_trianglediamonds.svg	38	no	57	0	399	0	0			0	0			1				0	
6.6.1	mac	2023-06-02	05:43:54	05:53:51	594483	5eeaa8ee94a7f8046a02a20d	3	1	main_z	11	main_z	69	stimuli_target_trianglerectangles.svg	stimuli_distractor_diamondtriangles.svg	21	yes	44	1	713	0	0			0	0			1				0	
6.6.1	mac	2023-06-02	05:43:54	05:53:51	594483	5eeaa8ee94a7f8046a02a20d	3	1	main_z	11	advance_on_keypress_ZEE	70	stimuli_target_trianglerectangles.svg	stimuli_distractor_diamondtriangles.svg	21	yes	57	0	397	0	0			0	0			1				0	
6.6.1	mac	2023-06-02	05:43:54	05:53:53	596072	5eeaa8ee94a7f8046a02a20d	3	1	main_z	11	main_z	71	stimuli_target_diamondsquares.svg	stimuli_distractor_diamondtriangles.svg	24	yes	44	1	553	0	0			0	0			1				0	
6.6.1	mac	2023-06-02	05:43:54	05:53:53	596072	5eeaa8ee94a7f8046a02a20d	3	1	main_z	11	advance_on_keypress_ZEE	72	stimuli_target_diamondsquares.svg	stimuli_distractor_diamondtriangles.svg	24	yes	57	0	410	0	0			0	0			1				0	
6.6.1	mac	2023-06-02	05:43:54	05:53:54	597609	5eeaa8ee94a7f8046a02a20d	3	1	main_z	11	main_z	73	stimuli_target_squaretriangles.svg	stimuli_distractor_trianglediamonds.svg	3	yes	44	1	489	0	0			0	0			1				0	
6.6.1	mac	2023-06-02	05:43:54	05:53:54	597609	5eeaa8ee94a7f8046a02a20d	3	1	main_z	11	advance_on_keypress_ZEE	74	stimuli_target_squaretriangles.svg	stimuli_distractor_trianglediamonds.svg	3	yes	57	0	542	0	0			0	0			1				0	
6.6.1	mac	2023-06-02	05:43:54	05:53:56	599410	5eeaa8ee94a7f8046a02a20d	3	1	main_z	11	main_z	75	stimuli_distractor_trianglediamonds.svg	stimuli_target_trianglerectangles.svg	25	yes	44	1	639	0	0			0	0			1				0	
6.6.1	mac	2023-06-02	05:43:54	05:53:56	599410	5eeaa8ee94a7f8046a02a20d	3	1	main_z	11	advance_on_keypress_ZEE	76	stimuli_distractor_trianglediamonds.svg	stimuli_target_trianglerectangles.svg	25	yes	57	0	364	0	0			0	0			1				0	
6.6.1	mac	2023-06-02	05:43:54	05:53:58	601084	5eeaa8ee94a7f8046a02a20d	3	1	main_z	11	main_z	77	stimuli_distractor_trianglediamonds.svg	stimuli_target_squaretriangles.svg	11	yes	44	1	679	0	0			0	0			1				0	
6.6.1	mac	2023-06-02	05:43:54	05:53:58	601084	5eeaa8ee94a7f8046a02a20d	3	1	main_z	11	advance_on_keypress_ZEE	78	stimuli_distractor_trianglediamonds.svg	stimuli_target_squaretriangles.svg	11	yes	57	0	342	0	0			0	0			1				0	
6.6.1	mac	2023-06-02	05:43:54	05:53:59	602662	5eeaa8ee94a7f8046a02a20d	3	1	main_z	11	main_z	79	stimuli_distractor_trianglediamonds.svg	stimuli_target_diamondrectangles.svg	27	yes	44	1	607	0	0			0	0			1				0	
6.6.1	mac	2023-06-02	05:43:54	05:53:59	602662	5eeaa8ee94a7f8046a02a20d	3	1	main_z	11	advance_on_keypress_ZEE	80	stimuli_distractor_trianglediamonds.svg	stimuli_target_diamondrectangles.svg	27	yes	57	0	460	0	0			0	0			1				0	
6.6.1	mac	2023-06-02	05:43:54	05:54:01	604570	5eeaa8ee94a7f8046a02a20d	3	1	main_z	11	main_z	81	stimuli_target_diamondsquares.svg	stimuli_distractor_diamondtriangles.svg	24	yes	44	1	798	0	0			0	0			1				0	
6.6.1	mac	2023-06-02	05:43:54	05:54:01	604570	5eeaa8ee94a7f8046a02a20d	3	1	main_z	11	advance_on_keypress_ZEE	82	stimuli_target_diamondsquares.svg	stimuli_distractor_diamondtriangles.svg	24	yes	57	0	389	0	0			0	0			1				0	
6.6.1	mac	2023-06-02	05:43:54	05:54:03	606161	5eeaa8ee94a7f8046a02a20d	3	1	main_z	11	main_z	83	stimuli_distractor_trianglediamonds.svg	stimuli_target_squarediamonds.svg	12	yes	44	1	575	0	0			0	0			1				0	
6.6.1	mac	2023-06-02	05:43:54	05:54:03	606161	5eeaa8ee94a7f8046a02a20d	3	1	main_z	11	advance_on_keypress_ZEE	84	stimuli_distractor_trianglediamonds.svg	stimuli_target_squarediamonds.svg	12	yes	57	0	498	0	0			0	0			1				0	
6.6.1	mac	2023-06-02	05:43:54	05:54:06	609286	5eeaa8ee94a7f8046a02a20d	3	1	main_z	11	main_z	85	stimuli_distractor_diamondtriangles.svg	stimuli_distractor_diamondtriangles.svg	40	no	0	1	2000	0	0			0	0			1				0	
6.6.1	mac	2023-06-02	05:43:54	05:54:06	609286	5eeaa8ee94a7f8046a02a20d	3	1	main_z	11	advance_on_keypress_ZEE	86	stimuli_distractor_diamondtriangles.svg	stimuli_distractor_diamondtriangles.svg	40	no	57	0	721	0	0			0	0			1				0	
6.6.1	mac	2023-06-02	05:43:54	05:54:08	611529	5eeaa8ee94a7f8046a02a20d	3	1	main_z	11	main_z	87	stimuli_distractor_diamondtriangles.svg	stimuli_target_squarediamonds.svg	16	yes	44	1	891	0	0			0	0			1				0	
6.6.1	mac	2023-06-02	05:43:54	05:54:08	611529	5eeaa8ee94a7f8046a02a20d	3	1	main_z	11	advance_on_keypress_ZEE	88	stimuli_distractor_diamondtriangles.svg	stimuli_target_squarediamonds.svg	16	yes	57	0	376	0	0			0	0			1				0	
6.6.1	mac	2023-06-02	05:43:54	05:54:10	613137	5eeaa8ee94a7f8046a02a20d	3	1	main_z	11	main_z	89	stimuli_target_squaretriangles.svg	stimuli_distractor_trianglediamonds.svg	3	yes	44	1	583	0	0			0	0			1				0	
6.6.1	mac	2023-06-02	05:43:54	05:54:10	613137	5eeaa8ee94a7f8046a02a20d	3	1	main_z	11	advance_on_keypress_ZEE	90	stimuli_target_squaretriangles.svg	stimuli_distractor_trianglediamonds.svg	3	yes	57	0	444	0	0			0	0			1				0	
6.6.1	mac	2023-06-02	05:43:54	05:54:12	615543	5eeaa8ee94a7f8046a02a20d	3	1	main_z	11	main_z	91	stimuli_target_squarediamonds.svg	stimuli_distractor_trianglediamonds.svg	4	yes	44	1	1320	0	0			0	0			1				0	
6.6.1	mac	2023-06-02	05:43:54	05:54:12	615543	5eeaa8ee94a7f8046a02a20d	3	1	main_z	11	advance_on_keypress_ZEE	92	stimuli_target_squarediamonds.svg	stimuli_distractor_trianglediamonds.svg	4	yes	57	0	389	0	0			0	0			1				0	
6.6.1	mac	2023-06-02	05:43:54	05:54:14	617416	5eeaa8ee94a7f8046a02a20d	3	1	main_z	11	main_z	93	stimuli_distractor_diamondtriangles.svg	stimuli_target_squaretriangles.svg	15	yes	44	1	863	0	0			0	0			1				0	
6.6.1	mac	2023-06-02	05:43:54	05:54:14	617416	5eeaa8ee94a7f8046a02a20d	3	1	main_z	11	advance_on_keypress_ZEE	94	stimuli_distractor_diamondtriangles.svg	stimuli_target_squaretriangles.svg	15	yes	57	0	372	0	0			0	0			1				0	
6.6.1	mac	2023-06-02	05:43:54	05:54:16	619566	5eeaa8ee94a7f8046a02a20d	3	1	main_z	11	main_z	95	stimuli_distractor_diamondtriangles.svg	stimuli_distractor_trianglediamonds.svg	38	no	44	0	1143	0	0			0	0			1				0	
6.6.1	mac	2023-06-02	05:43:54	05:54:16	619566	5eeaa8ee94a7f8046a02a20d	3	1	main_z	11	advance_on_keypress_ZEE	96	stimuli_distractor_diamondtriangles.svg	stimuli_distractor_trianglediamonds.svg	38	no	57	0	364	0	0			0	0			1				0	
6.6.1	mac	2023-06-02	05:43:54	05:54:18	621243	5eeaa8ee94a7f8046a02a20d	3	1	main_z	11	main_z	97	stimuli_distractor_diamondtriangles.svg	stimuli_target_rectangletriangles.svg	13	yes	44	1	672	0	0			0	0			1				0	
6.6.1	mac	2023-06-02	05:43:54	05:54:18	621243	5eeaa8ee94a7f8046a02a20d	3	1	main_z	11	advance_on_keypress_ZEE	98	stimuli_distractor_diamondtriangles.svg	stimuli_target_rectangletriangles.svg	13	yes	57	0	547	0	0			0	0			1				0	
6.6.1	mac	2023-06-02	05:43:54	05:54:20	623473	5eeaa8ee94a7f8046a02a20d	3	1	main_z	11	main_z	99	stimuli_target_trianglerectangles.svg	stimuli_distractor_diamondtriangles.svg	21	yes	44	1	1053	0	0			0	0			1				0	
6.6.1	mac	2023-06-02	05:43:54	05:54:20	623473	5eeaa8ee94a7f8046a02a20d	3	1	main_z	11	advance_on_keypress_ZEE	100	stimuli_target_trianglerectangles.svg	stimuli_distractor_diamondtriangles.svg	21	yes	57	0	328	0	0			0	0			1				0	
6.6.1	mac	2023-06-02	05:43:54	05:54:22	625217	5eeaa8ee94a7f8046a02a20d	3	1	main_z	11	main_z	101	stimuli_distractor_diamondtriangles.svg	stimuli_distractor_trianglediamonds.svg	37	no	44	0	779	0	0			0	0			1				0	
6.6.1	mac	2023-06-02	05:43:54	05:54:22	625217	5eeaa8ee94a7f8046a02a20d	3	1	main_z	11	advance_on_keypress_ZEE	102	stimuli_distractor_diamondtriangles.svg	stimuli_distractor_trianglediamonds.svg	37	no	57	0	376	0	0			0	0			1				0	
6.6.1	mac	2023-06-02	05:43:54	05:54:24	626760	5eeaa8ee94a7f8046a02a20d	3	1	main_z	11	main_z	103	stimuli_target_rectanglediamonds.svg	stimuli_distractor_trianglediamonds.svg	2	yes	44	1	541	0	0			0	0			1				0	
6.6.1	mac	2023-06-02	05:43:54	05:54:24	626760	5eeaa8ee94a7f8046a02a20d	3	1	main_z	11	advance_on_keypress_ZEE	104	stimuli_target_rectanglediamonds.svg	stimuli_distractor_trianglediamonds.svg	2	yes	57	0	427	0	0			0	0			1				0	
6.6.1	mac	2023-06-02	05:43:54	05:54:25	628501	5eeaa8ee94a7f8046a02a20d	3	1	main_z	11	main_z	105	stimuli_target_trianglesquares.svg	stimuli_distractor_diamondtriangles.svg	22	yes	44	1	682	0	0			0	0			1				0	
6.6.1	mac	2023-06-02	05:43:54	05:54:25	628501	5eeaa8ee94a7f8046a02a20d	3	1	main_z	11	advance_on_keypress_ZEE	106	stimuli_target_trianglesquares.svg	stimuli_distractor_diamondtriangles.svg	22	yes	57	0	414	0	0			0	0			1				0	
6.6.1	mac	2023-06-02	05:43:54	05:54:27	630302	5eeaa8ee94a7f8046a02a20d	3	1	main_z	11	main_z	107	stimuli_distractor_trianglediamonds.svg	stimuli_distractor_diamondtriangles.svg	35	no	44	0	748	0	0			0	0			1				0	
6.6.1	mac	2023-06-02	05:43:54	05:54:27	630302	5eeaa8ee94a7f8046a02a20d	3	1	main_z	11	advance_on_keypress_ZEE	108	stimuli_distractor_trianglediamonds.svg	stimuli_distractor_diamondtriangles.svg	35	no	57	0	705	0	0			0	0			1				0	
6.6.1	mac	2023-06-02	05:43:54	05:54:29	632367	5eeaa8ee94a7f8046a02a20d	3	1	main_z	11	main_z	109	stimuli_target_squarediamonds.svg	stimuli_distractor_diamondtriangles.svg	8	yes	44	1	728	0	0			0	0			1				0	
6.6.1	mac	2023-06-02	05:43:54	05:54:29	632367	5eeaa8ee94a7f8046a02a20d	3	1	main_z	11	advance_on_keypress_ZEE	110	stimuli_target_squarediamonds.svg	stimuli_distractor_diamondtriangles.svg	8	yes	57	0	394	0	0			0	0			1				0	
6.6.1	mac	2023-06-02	05:43:54	05:54:31	634255	5eeaa8ee94a7f8046a02a20d	3	1	main_z	11	main_z	111	stimuli_target_diamondrectangles.svg	stimuli_distractor_trianglediamonds.svg	19	yes	44	1	851	0	0			0	0			1				0	
6.6.1	mac	2023-06-02	05:43:54	05:54:31	634255	5eeaa8ee94a7f8046a02a20d	3	1	main_z	11	advance_on_keypress_ZEE	112	stimuli_target_diamondrectangles.svg	stimuli_distractor_trianglediamonds.svg	19	yes	57	0	402	0	0			0	0			1				0	
6.6.1	mac	2023-06-02	05:43:54	05:54:33	635948	5eeaa8ee94a7f8046a02a20d	3	1	main_z	11	main_z	113	stimuli_distractor_diamondtriangles.svg	stimuli_target_trianglerectangles.svg	29	yes	44	1	662	0	0			0	0			1				0	
6.6.1	mac	2023-06-02	05:43:54	05:54:33	635948	5eeaa8ee94a7f8046a02a20d	3	1	main_z	11	advance_on_keypress_ZEE	114	stimuli_distractor_diamondtriangles.svg	stimuli_target_trianglerectangles.svg	29	yes	57	0	405	0	0			0	0			1				0	
6.6.1	mac	2023-06-02	05:43:54	05:54:35	637724	5eeaa8ee94a7f8046a02a20d	3	1	main_z	11	main_z	115	stimuli_distractor_trianglediamonds.svg	stimuli_target_rectanglediamonds.svg	10	yes	44	1	735	0	0			0	0			1				0	
6.6.1	mac	2023-06-02	05:43:54	05:54:35	637724	5eeaa8ee94a7f8046a02a20d	3	1	main_z	11	advance_on_keypress_ZEE	116	stimuli_distractor_trianglediamonds.svg	stimuli_target_rectanglediamonds.svg	10	yes	57	0	394	0	0			0	0			1				0	
6.6.1	mac	2023-06-02	05:43:54	05:54:36	639452	5eeaa8ee94a7f8046a02a20d	3	1	main_z	11	main_z	117	stimuli_target_trianglesquares.svg	stimuli_distractor_trianglediamonds.svg	18	yes	44	1	698	0	0			0	0			1				0	
6.6.1	mac	2023-06-02	05:43:54	05:54:36	639452	5eeaa8ee94a7f8046a02a20d	3	1	main_z	11	advance_on_keypress_ZEE	118	stimuli_target_trianglesquares.svg	stimuli_distractor_trianglediamonds.svg	18	yes	57	0	386	0	0			0	0			1				0	
6.6.1	mac	2023-06-02	05:43:54	05:54:39	641775	5eeaa8ee94a7f8046a02a20d	3	1	main_z	11	main_z	119	stimuli_distractor_trianglediamonds.svg	stimuli_target_rectangletriangles.svg	9	yes	44	1	1303	0	0			0	0			1				0	
6.6.1	mac	2023-06-02	05:43:54	05:54:39	641775	5eeaa8ee94a7f8046a02a20d	3	1	main_z	11	advance_on_keypress_ZEE	120	stimuli_distractor_trianglediamonds.svg	stimuli_target_rectangletriangles.svg	9	yes	57	0	546	0	0			0	0			1				0	
6.6.1	mac	2023-06-02	05:43:54	05:54:41	643738	5eeaa8ee94a7f8046a02a20d	3	1	main_z	11	main_z	121	stimuli_target_rectangletriangles.svg	stimuli_distractor_trianglediamonds.svg	1	yes	44	1	782	0	0			0	0			1				0	
6.6.1	mac	2023-06-02	05:43:54	05:54:41	643738	5eeaa8ee94a7f8046a02a20d	3	1	main_z	11	advance_on_keypress_ZEE	122	stimuli_target_rectangletriangles.svg	stimuli_distractor_trianglediamonds.svg	1	yes	57	0	365	0	0			0	0			1				0	
6.6.1	mac	2023-06-02	05:43:54	05:54:42	645272	5eeaa8ee94a7f8046a02a20d	3	1	main_z	11	main_z	123	stimuli_distractor_trianglediamonds.svg	stimuli_target_diamondsquares.svg	28	yes	44	1	537	0	0			0	0			1				0	
6.6.1	mac	2023-06-02	05:43:54	05:54:42	645272	5eeaa8ee94a7f8046a02a20d	3	1	main_z	11	advance_on_keypress_ZEE	124	stimuli_distractor_trianglediamonds.svg	stimuli_target_diamondsquares.svg	28	yes	57	0	386	0	0			0	0			1				0	
6.6.1	mac	2023-06-02	05:43:54	05:54:45	648285	5eeaa8ee94a7f8046a02a20d	3	1	main_z	11	main_z	125	stimuli_distractor_trianglediamonds.svg	stimuli_distractor_trianglediamonds.svg	33	no	0	1	2000	0	0			0	0			1				0	
6.6.1	mac	2023-06-02	05:43:54	05:54:45	648285	5eeaa8ee94a7f8046a02a20d	3	1	main_z	11	advance_on_keypress_ZEE	126	stimuli_distractor_trianglediamonds.svg	stimuli_distractor_trianglediamonds.svg	33	no	57	0	1956	0	0			0	0			1				0	
6.6.1	mac	2023-06-02	05:43:54	05:54:48	651469	5eeaa8ee94a7f8046a02a20d	3	1	main_z	11	main_z	127	stimuli_distractor_trianglediamonds.svg	stimuli_target_squaretriangles.svg	11	yes	44	1	584	0	0			0	0			1				0	
6.6.1	mac	2023-06-02	05:43:54	05:54:48	651469	5eeaa8ee94a7f8046a02a20d	3	1	main_z	11	advance_on_keypress_ZEE	128	stimuli_distractor_trianglediamonds.svg	stimuli_target_squaretriangles.svg	11	yes	57	0	626	0	0			0	0			1				0	
6.6.1	mac	2023-06-02	05:43:54	05:54:52	654742	5eeaa8ee94a7f8046a02a20d	3	1	main_z	11	main_z	129	stimuli_distractor_trianglediamonds.svg	stimuli_distractor_diamondtriangles.svg	36	no	0	1	2000	0	0			0	0			1				0	
6.6.1	mac	2023-06-02	05:43:54	05:54:52	654742	5eeaa8ee94a7f8046a02a20d	3	1	main_z	11	advance_on_keypress_ZEE	130	stimuli_distractor_trianglediamonds.svg	stimuli_distractor_diamondtriangles.svg	36	no	57	0	492	0	0			0	0			1				0	
6.6.1	mac	2023-06-02	05:43:54	05:54:53	656345	5eeaa8ee94a7f8046a02a20d	3	1	main_z	11	main_z	131	stimuli_distractor_trianglediamonds.svg	stimuli_target_trianglerectangles.svg	25	yes	44	1	476	0	0			0	0			1				0	
6.6.1	mac	2023-06-02	05:43:54	05:54:53	656345	5eeaa8ee94a7f8046a02a20d	3	1	main_z	11	advance_on_keypress_ZEE	132	stimuli_distractor_trianglediamonds.svg	stimuli_target_trianglerectangles.svg	25	yes	57	0	453	0	0			0	0			1				0	
6.6.1	mac	2023-06-02	05:43:54	05:54:55	658224	5eeaa8ee94a7f8046a02a20d	3	1	main_z	11	main_z	133	stimuli_target_diamondsquares.svg	stimuli_distractor_trianglediamonds.svg	20	yes	44	1	786	0	0			0	0			1				0	
6.6.1	mac	2023-06-02	05:43:54	05:54:55	658224	5eeaa8ee94a7f8046a02a20d	3	1	main_z	11	advance_on_keypress_ZEE	134	stimuli_target_diamondsquares.svg	stimuli_distractor_trianglediamonds.svg	20	yes	57	0	449	0	0			0	0			1				0	
6.6.1	mac	2023-06-02	05:43:54	05:54:57	659871	5eeaa8ee94a7f8046a02a20d	3	1	main_z	11	main_z	135	stimuli_distractor_diamondtriangles.svg	stimuli_target_trianglesquares.svg	30	yes	44	1	570	0	0			0	0			1				0	
6.6.1	mac	2023-06-02	05:43:54	05:54:57	659871	5eeaa8ee94a7f8046a02a20d	3	1	main_z	11	advance_on_keypress_ZEE	136	stimuli_distractor_diamondtriangles.svg	stimuli_target_trianglesquares.svg	30	yes	57	0	415	0	0			0	0			1				0	
6.6.1	mac	2023-06-02	05:43:54	05:54:59	661956	5eeaa8ee94a7f8046a02a20d	3	1	main_z	11	main_z	137	stimuli_target_trianglerectangles.svg	stimuli_distractor_trianglediamonds.svg	17	yes	44	1	1036	0	0			0	0			1				0	
6.6.1	mac	2023-06-02	05:43:54	05:54:59	661956	5eeaa8ee94a7f8046a02a20d	3	1	main_z	11	advance_on_keypress_ZEE	138	stimuli_target_trianglerectangles.svg	stimuli_distractor_trianglediamonds.svg	17	yes	57	0	410	0	0			0	0			1				0	
6.6.1	mac	2023-06-02	05:43:54	05:55:00	663605	5eeaa8ee94a7f8046a02a20d	3	1	main_z	11	main_z	139	stimuli_distractor_trianglediamonds.svg	stimuli_target_trianglesquares.svg	26	yes	44	1	602	0	0			0	0			1				0	
6.6.1	mac	2023-06-02	05:43:54	05:55:00	663605	5eeaa8ee94a7f8046a02a20d	3	1	main_z	11	advance_on_keypress_ZEE	140	stimuli_distractor_trianglediamonds.svg	stimuli_target_trianglesquares.svg	26	yes	57	0	516	0	0			0	0			1				0	
6.6.1	mac	2023-06-02	05:43:54	05:55:04	666752	5eeaa8ee94a7f8046a02a20d	3	1	main_z	11	main_z	141	stimuli_distractor_trianglediamonds.svg	stimuli_distractor_trianglediamonds.svg	34	no	0	1	2000	0	0			0	0			1				0	
6.6.1	mac	2023-06-02	05:43:54	05:55:04	666752	5eeaa8ee94a7f8046a02a20d	3	1	main_z	11	advance_on_keypress_ZEE	142	stimuli_distractor_trianglediamonds.svg	stimuli_distractor_trianglediamonds.svg	34	no	57	0	376	0	0			0	0			1				0	
6.6.1	mac	2023-06-02	05:43:54	05:55:05	668517	5eeaa8ee94a7f8046a02a20d	3	1	main_z	11	main_z	143	stimuli_distractor_diamondtriangles.svg	stimuli_target_rectanglediamonds.svg	14	yes	44	1	747	0	0			0	0			1				0	
6.6.1	mac	2023-06-02	05:43:54	05:55:05	668517	5eeaa8ee94a7f8046a02a20d	3	1	main_z	11	advance_on_keypress_ZEE	144	stimuli_distractor_diamondtriangles.svg	stimuli_target_rectanglediamonds.svg	14	yes	57	0	514	0	0			0	0			1				0	
6.6.1	mac	2023-06-02	05:43:54	05:55:08	671313	5eeaa8ee94a7f8046a02a20d	3	1	main_z	11	main_z	145	stimuli_target_diamondrectangles.svg	stimuli_distractor_diamondtriangles.svg	23	yes	44	1	1640	0	0			0	0			1				0	
6.6.1	mac	2023-06-02	05:43:54	05:55:08	671313	5eeaa8ee94a7f8046a02a20d	3	1	main_z	11	advance_on_keypress_ZEE	146	stimuli_target_diamondrectangles.svg	stimuli_distractor_diamondtriangles.svg	23	yes	57	0	601	0	0			0	0			1				0	
6.6.1	mac	2023-06-02	05:43:54	05:55:10	673086	5eeaa8ee94a7f8046a02a20d	3	1	main_z	11	main_z	147	stimuli_distractor_diamondtriangles.svg	stimuli_target_diamondsquares.svg	32	yes	44	1	532	0	0			0	0			1				0	
6.6.1	mac	2023-06-02	05:43:54	05:55:10	673086	5eeaa8ee94a7f8046a02a20d	3	1	main_z	11	advance_on_keypress_ZEE	148	stimuli_distractor_diamondtriangles.svg	stimuli_target_diamondsquares.svg	32	yes	57	0	341	0	0			0	0			1				0	
6.6.1	mac	2023-06-02	05:43:54	05:55:13	676053	5eeaa8ee94a7f8046a02a20d	3	1	main_z	11	main_z	149	stimuli_distractor_diamondtriangles.svg	stimuli_distractor_diamondtriangles.svg	39	no	0	1	2000	0	0			0	0			1				0	
6.6.1	mac	2023-06-02	05:43:54	05:55:13	676053	5eeaa8ee94a7f8046a02a20d	3	1	main_z	11	advance_on_keypress_ZEE	150	stimuli_distractor_diamondtriangles.svg	stimuli_distractor_diamondtriangles.svg	39	no	57	0	557	0	0			0	0			1				0	
6.6.1	mac	2023-06-02	05:43:54	05:55:15	677975	5eeaa8ee94a7f8046a02a20d	3	1	main_z	11	main_z	151	stimuli_target_squaretriangles.svg	stimuli_distractor_diamondtriangles.svg	7	yes	44	1	720	0	0			0	0			1				0	
6.6.1	mac	2023-06-02	05:43:54	05:55:15	677975	5eeaa8ee94a7f8046a02a20d	3	1	main_z	11	advance_on_keypress_ZEE	152	stimuli_target_squaretriangles.svg	stimuli_distractor_diamondtriangles.svg	7	yes	57	0	424	0	0			0	0			1				0	
6.6.1	mac	2023-06-02	05:43:54	05:55:16	679560	5eeaa8ee94a7f8046a02a20d	3	1	main_z	11	main_z	153	stimuli_distractor_diamondtriangles.svg	stimuli_target_diamondrectangles.svg	31	yes	44	1	539	0	0			0	0			1				0	
6.6.1	mac	2023-06-02	05:43:54	05:55:16	679560	5eeaa8ee94a7f8046a02a20d	3	1	main_z	11	advance_on_keypress_ZEE	154	stimuli_distractor_diamondtriangles.svg	stimuli_target_diamondrectangles.svg	31	yes	57	0	333	0	0			0	0			1				0	
6.6.1	mac	2023-06-02	05:43:54	05:55:18	680941	5eeaa8ee94a7f8046a02a20d	3	1	main_z	11	main_z	155	stimuli_distractor_trianglediamonds.svg	stimuli_target_diamondrectangles.svg	27	yes	44	1	420	0	0			0	0			1				0	
6.6.1	mac	2023-06-02	05:43:54	05:55:18	680941	5eeaa8ee94a7f8046a02a20d	3	1	main_z	11	advance_on_keypress_ZEE	156	stimuli_distractor_trianglediamonds.svg	stimuli_target_diamondrectangles.svg	27	yes	57	0	412	0	0			0	0			1				0	
6.6.1	mac	2023-06-02	05:43:54	05:55:19	682593	5eeaa8ee94a7f8046a02a20d	3	1	main_z	11	main_z	157	stimuli_target_rectanglediamonds.svg	stimuli_distractor_diamondtriangles.svg	6	yes	44	1	607	0	0			0	0			1				0	
6.6.1	mac	2023-06-02	05:43:54	05:55:19	682593	5eeaa8ee94a7f8046a02a20d	3	1	main_z	11	advance_on_keypress_ZEE	158	stimuli_target_rectanglediamonds.svg	stimuli_distractor_diamondtriangles.svg	6	yes	57	0	370	0	0			0	0			1				0	
6.6.1	mac	2023-06-02	05:43:54	05:55:21	684097	5eeaa8ee94a7f8046a02a20d	3	1	main_z	11	main_z	159	stimuli_target_rectangletriangles.svg	stimuli_distractor_diamondtriangles.svg	5	yes	44	1	511	0	0			0	0			1				0	
6.6.1	mac	2023-06-02	05:43:54	05:55:21	684097	5eeaa8ee94a7f8046a02a20d	3	1	main_z	11	advance_on_keypress_ZEE	160	stimuli_target_rectangletriangles.svg	stimuli_distractor_diamondtriangles.svg	5	yes	57	0	358	0	0			0	0			1				0	
6.6.1	mac	2023-06-02	05:43:54	05:55:21	684097	5eeaa8ee94a7f8046a02a20d	3	1	headphonecheck_calibration	14	headphonecheck_calibrationIntro	1	stimuli_target_rectangletriangles.svg	stimuli_distractor_diamondtriangles.svg	5	yes	calibrationButton	0	2712	0	0			0	0			1				0	
6.6.1	mac	2023-06-02	05:43:54	05:55:21	684097	5eeaa8ee94a7f8046a02a20d	3	1	headphonecheck_testphase	15	test_collectResponse	3	stimuli_target_rectangletriangles.svg	stimuli_distractor_diamondtriangles.svg	5	yes	first	1	6110	1	4	antiphase_hc_sio.wav	1	0	0			1				0	
6.6.1	mac	2023-06-02	05:43:54	05:55:21	684097	5eeaa8ee94a7f8046a02a20d	3	1	headphonecheck_testphase	15	test_collectResponse	6	stimuli_target_rectangletriangles.svg	stimuli_distractor_diamondtriangles.svg	5	yes	second	1	195	2	5	antiphase_hc_osi.wav	2	0	0			1				0	
6.6.1	mac	2023-06-02	05:43:54	05:55:21	684097	5eeaa8ee94a7f8046a02a20d	3	1	headphonecheck_testphase	15	test_collectResponse	9	stimuli_target_rectangletriangles.svg	stimuli_distractor_diamondtriangles.svg	5	yes	third	1	443	3	6	antiphase_hc_ois.wav	3	0	0			1				0	
6.6.1	mac	2023-06-02	05:43:54	05:55:21	684097	5eeaa8ee94a7f8046a02a20d	3	1	headphonecheck_testphase	15	test_collectResponse	12	stimuli_target_rectangletriangles.svg	stimuli_distractor_diamondtriangles.svg	5	yes	third	1	411	4	2	antiphase_hc_ios.wav	3	0	0			1				0	
6.6.1	mac	2023-06-02	05:43:54	05:55:21	684097	5eeaa8ee94a7f8046a02a20d	3	1	headphonecheck_testphase	15	test_collectResponse	15	stimuli_target_rectangletriangles.svg	stimuli_distractor_diamondtriangles.svg	5	yes	second	1	311	5	1	antiphase_hc_iso.wav	2	0	0			1				0	
6.6.1	mac	2023-06-02	05:43:54	05:55:21	684097	5eeaa8ee94a7f8046a02a20d	3	1	headphonecheck_testphase	15	test_collectResponse	18	stimuli_target_rectangletriangles.svg	stimuli_distractor_diamondtriangles.svg	5	yes	first	1	322	6	3	antiphase_hc_soi.wav	1	0	0			1				0	
6.6.1	mac	2023-06-02	05:43:54	05:55:21	684097	5eeaa8ee94a7f8046a02a20d	3	1	stereocheck_calibration	17	stereocheck_calibrationIntro	1	stimuli_target_rectangletriangles.svg	stimuli_distractor_diamondtriangles.svg	5	yes	stereocheck_calibrationButton	0	4041	6	3	antiphase_hc_soi.wav	1	0	0			1				0	
6.6.1	mac	2023-06-02	05:43:54	05:55:21	684097	5eeaa8ee94a7f8046a02a20d	3	1	stereocheck_testphase	18	stereocheck_test_collectResponse	3	stimuli_target_rectangletriangles.svg	stimuli_distractor_diamondtriangles.svg	5	yes	stereocheck_left	1	282	6	3	antiphase_hc_soi.wav	1	1	1	noise_calib_stim_LEFT.wav	1	1				0	
6.6.1	mac	2023-06-02	05:43:54	05:55:21	684097	5eeaa8ee94a7f8046a02a20d	3	1	stereocheck_testphase	18	stereocheck_test_collectResponse	6	stimuli_target_rectangletriangles.svg	stimuli_distractor_diamondtriangles.svg	5	yes	stereocheck_right	1	457	6	3	antiphase_hc_soi.wav	1	2	4	noise_calib_stim_RIGHT.wav	2	1				0	
6.6.1	mac	2023-06-02	05:43:54	05:55:21	684097	5eeaa8ee94a7f8046a02a20d	3	1	stereocheck_testphase	18	stereocheck_test_collectResponse	9	stimuli_target_rectangletriangles.svg	stimuli_distractor_diamondtriangles.svg	5	yes	stereocheck_right	1	486	6	3	antiphase_hc_soi.wav	1	3	6	noise_calib_stim_RIGHT.wav	2	1				0	
6.6.1	mac	2023-06-02	05:43:54	05:55:21	684097	5eeaa8ee94a7f8046a02a20d	3	1	stereocheck_testphase	18	stereocheck_test_collectResponse	12	stimuli_target_rectangletriangles.svg	stimuli_distractor_diamondtriangles.svg	5	yes	stereocheck_right	1	369	6	3	antiphase_hc_soi.wav	1	4	5	noise_calib_stim_RIGHT.wav	2	1				0	
6.6.1	mac	2023-06-02	05:43:54	05:55:21	684097	5eeaa8ee94a7f8046a02a20d	3	1	stereocheck_testphase	18	stereocheck_test_collectResponse	15	stimuli_target_rectangletriangles.svg	stimuli_distractor_diamondtriangles.svg	5	yes	stereocheck_left	1	340	6	3	antiphase_hc_soi.wav	1	5	3	noise_calib_stim_LEFT.wav	1	1				0	
6.6.1	mac	2023-06-02	05:43:54	05:55:21	684097	5eeaa8ee94a7f8046a02a20d	3	1	stereocheck_testphase	18	stereocheck_test_collectResponse	18	stimuli_target_rectangletriangles.svg	stimuli_distractor_diamondtriangles.svg	5	yes	stereocheck_left	1	382	6	3	antiphase_hc_soi.wav	1	6	2	noise_calib_stim_LEFT.wav	1	1				0	
6.6.1	mac	2023-06-02	05:43:54	05:55:21	684097	5eeaa8ee94a7f8046a02a20d	3	1	DL_practice	21	DL_practice	2	stimuli_target_rectangletriangles.svg	stimuli_distractor_diamondtriangles.svg	5	yes	ga	1	1856	6	3	antiphase_hc_soi.wav	1	6	2	noise_calib_stim_LEFT.wav	1	18	blb_dichoticlistening_ga-ta.mp3	ga	ta	1	left
6.6.1	mac	2023-06-02	05:43:54	05:55:21	684097	5eeaa8ee94a7f8046a02a20d	3	1	DL_practice	21	DL_practice	3	stimuli_target_rectangletriangles.svg	stimuli_distractor_diamondtriangles.svg	5	yes	ka	1	1015	6	3	antiphase_hc_soi.wav	1	6	2	noise_calib_stim_LEFT.wav	1	22	blb_dichoticlistening_ka-ka.mp3	ka	ka	0	left
6.6.1	mac	2023-06-02	05:43:54	05:55:21	684097	5eeaa8ee94a7f8046a02a20d	3	1	DL_practice	21	DL_practice	4	stimuli_target_rectangletriangles.svg	stimuli_distractor_diamondtriangles.svg	5	yes	da	1	1365	6	3	antiphase_hc_soi.wav	1	6	2	noise_calib_stim_LEFT.wav	1	7	blb_dichoticlistening_da-ba.mp3	da	ba	1	left
6.6.1	mac	2023-06-02	05:43:54	05:55:21	684097	5eeaa8ee94a7f8046a02a20d	3	1	DL_practice	21	DL_practice	5	stimuli_target_rectangletriangles.svg	stimuli_distractor_diamondtriangles.svg	5	yes	pa	1	1531	6	3	antiphase_hc_soi.wav	1	6	2	noise_calib_stim_LEFT.wav	1	23	blb_dichoticlistening_ka-pa.mp3	ka	pa	1	right
6.6.1	mac	2023-06-02	05:43:54	05:55:21	684097	5eeaa8ee94a7f8046a02a20d	3	1	DL_practice	21	DL_practice	6	stimuli_target_rectangletriangles.svg	stimuli_distractor_diamondtriangles.svg	5	yes	pa	1	1156	6	3	antiphase_hc_soi.wav	1	6	2	noise_calib_stim_LEFT.wav	1	29	blb_dichoticlistening_pa-pa.mp3	pa	pa	0	left
6.6.1	mac	2023-06-02	05:43:54	05:55:21	684097	5eeaa8ee94a7f8046a02a20d	3	1	DL_practice	21	DL_practice	7	stimuli_target_rectangletriangles.svg	stimuli_distractor_diamondtriangles.svg	5	yes	ta	1	1348	6	3	antiphase_hc_soi.wav	1	6	2	noise_calib_stim_LEFT.wav	1	36	blb_dichoticlistening_ta-ta.mp3	ta	ta	0	left
6.6.1	mac	2023-06-02	05:43:54	05:55:21	684097	5eeaa8ee94a7f8046a02a20d	3	1	DL_practice	21	DL_practice	8	stimuli_target_rectangletriangles.svg	stimuli_distractor_diamondtriangles.svg	5	yes	ba	1	1531	6	3	antiphase_hc_soi.wav	1	6	2	noise_calib_stim_LEFT.wav	1	1	blb_dichoticlistening_ba-ba.mp3	ba	ba	0	left
6.6.1	mac	2023-06-02	05:43:54	05:55:21	684097	5eeaa8ee94a7f8046a02a20d	3	1	DL_practice	21	DL_practice	9	stimuli_target_rectangletriangles.svg	stimuli_distractor_diamondtriangles.svg	5	yes	ga	1	1336	6	3	antiphase_hc_soi.wav	1	6	2	noise_calib_stim_LEFT.wav	1	15	blb_dichoticlistening_ga-ga.mp3	ga	ga	0	left
6.6.1	mac	2023-06-02	05:43:54	05:55:21	684097	5eeaa8ee94a7f8046a02a20d	3	1	DL_practice	21	DL_practice	10	stimuli_target_rectangletriangles.svg	stimuli_distractor_diamondtriangles.svg	5	yes	da	1	1265	6	3	antiphase_hc_soi.wav	1	6	2	noise_calib_stim_LEFT.wav	1	8	blb_dichoticlistening_da-da.mp3	da	da	0	left
6.6.1	mac	2023-06-02	05:43:54	05:55:21	684097	5eeaa8ee94a7f8046a02a20d	3	1	DL_test	23	DL_test	1	stimuli_target_rectangletriangles.svg	stimuli_distractor_diamondtriangles.svg	5	yes	da	1	1064	6	3	antiphase_hc_soi.wav	1	6	2	noise_calib_stim_LEFT.wav	1	2	blb_dichoticlistening_ba-da.mp3	ba	da	1	right
6.6.1	mac	2023-06-02	05:43:54	05:55:21	684097	5eeaa8ee94a7f8046a02a20d	3	1	DL_test	23	DL_test	2	stimuli_target_rectangletriangles.svg	stimuli_distractor_diamondtriangles.svg	5	yes	da	1	824	6	3	antiphase_hc_soi.wav	1	6	2	noise_calib_stim_LEFT.wav	1	14	blb_dichoticlistening_ga-da.mp3	ga	da	1	right
6.6.1	mac	2023-06-02	05:43:54	05:55:21	684097	5eeaa8ee94a7f8046a02a20d	3	1	DL_test	23	DL_test	3	stimuli_target_rectangletriangles.svg	stimuli_distractor_diamondtriangles.svg	5	yes	ta	1	1460	6	3	antiphase_hc_soi.wav	1	6	2	noise_calib_stim_LEFT.wav	1	36	blb_dichoticlistening_ta-ta.mp3	ta	ta	0	left
6.6.1	mac	2023-06-02	05:43:54	05:55:21	684097	5eeaa8ee94a7f8046a02a20d	3	1	DL_test	23	DL_test	4	stimuli_target_rectangletriangles.svg	stimuli_distractor_diamondtriangles.svg	5	yes	pa	1	990	6	3	antiphase_hc_soi.wav	1	6	2	noise_calib_stim_LEFT.wav	1	35	blb_dichoticlistening_ta-pa.mp3	ta	pa	1	right
6.6.1	mac	2023-06-02	05:43:54	05:55:21	684097	5eeaa8ee94a7f8046a02a20d	3	1	DL_test	23	DL_test	5	stimuli_target_rectangletriangles.svg	stimuli_distractor_diamondtriangles.svg	5	yes	pa	1	910	6	3	antiphase_hc_soi.wav	1	6	2	noise_calib_stim_LEFT.wav	1	17	blb_dichoticlistening_ga-pa.mp3	ga	pa	1	right
6.6.1	mac	2023-06-02	05:43:54	05:55:21	684097	5eeaa8ee94a7f8046a02a20d	3	1	DL_test	23	DL_test	6	stimuli_target_rectangletriangles.svg	stimuli_distractor_diamondtriangles.svg	5	yes	ta	1	1128	6	3	antiphase_hc_soi.wav	1	6	2	noise_calib_stim_LEFT.wav	1	6	blb_dichoticlistening_ba-ta.mp3	ba	ta	1	right
6.6.1	mac	2023-06-02	05:43:54	05:55:21	684097	5eeaa8ee94a7f8046a02a20d	3	1	DL_test	23	DL_test	7	stimuli_target_rectangletriangles.svg	stimuli_distractor_diamondtriangles.svg	5	yes	ka	1	1268	6	3	antiphase_hc_soi.wav	1	6	2	noise_calib_stim_LEFT.wav	1	19	blb_dichoticlistening_ka-ba.mp3	ka	ba	1	left
6.6.1	mac	2023-06-02	05:43:54	05:55:21	684097	5eeaa8ee94a7f8046a02a20d	3	1	DL_test	23	DL_test	8	stimuli_target_rectangletriangles.svg	stimuli_distractor_diamondtriangles.svg	5	yes	da	1	1447	6	3	antiphase_hc_soi.wav	1	6	2	noise_calib_stim_LEFT.wav	1	32	blb_dichoticlistening_ta-da.mp3	ta	da	1	right
6.6.1	mac	2023-06-02	05:43:54	05:55:21	684097	5eeaa8ee94a7f8046a02a20d	3	1	DL_test	23	DL_test	9	stimuli_target_rectangletriangles.svg	stimuli_distractor_diamondtriangles.svg	5	yes	pa	1	1409	6	3	antiphase_hc_soi.wav	1	6	2	noise_calib_stim_LEFT.wav	1	5	blb_dichoticlistening_ba-pa.mp3	ba	pa	1	right
6.6.1	mac	2023-06-02	05:43:54	05:55:21	684097	5eeaa8ee94a7f8046a02a20d	3	1	DL_test	23	DL_test	10	stimuli_target_rectangletriangles.svg	stimuli_distractor_diamondtriangles.svg	5	yes	pa	1	2752	6	3	antiphase_hc_soi.wav	1	6	2	noise_calib_stim_LEFT.wav	1	26	blb_dichoticlistening_pa-da.mp3	pa	da	1	left
6.6.1	mac	2023-06-02	05:43:54	05:55:21	684097	5eeaa8ee94a7f8046a02a20d	3	1	DL_test	23	DL_test	11	stimuli_target_rectangletriangles.svg	stimuli_distractor_diamondtriangles.svg	5	yes	ta	1	1352	6	3	antiphase_hc_soi.wav	1	6	2	noise_calib_stim_LEFT.wav	1	30	blb_dichoticlistening_pa-ta.mp3	pa	ta	1	right
6.6.1	mac	2023-06-02	05:43:54	05:55:21	684097	5eeaa8ee94a7f8046a02a20d	3	1	DL_test	23	DL_test	12	stimuli_target_rectangletriangles.svg	stimuli_distractor_diamondtriangles.svg	5	yes	ga	1	1518	6	3	antiphase_hc_soi.wav	1	6	2	noise_calib_stim_LEFT.wav	1	18	blb_dichoticlistening_ga-ta.mp3	ga	ta	1	left
6.6.1	mac	2023-06-02	05:43:54	05:55:21	684097	5eeaa8ee94a7f8046a02a20d	3	1	DL_test	23	DL_test	13	stimuli_target_rectangletriangles.svg	stimuli_distractor_diamondtriangles.svg	5	yes	pa	1	1332	6	3	antiphase_hc_soi.wav	1	6	2	noise_calib_stim_LEFT.wav	1	11	blb_dichoticlistening_da-pa.mp3	da	pa	1	right
6.6.1	mac	2023-06-02	05:43:54	05:55:21	684097	5eeaa8ee94a7f8046a02a20d	3	1	DL_test	23	DL_test	14	stimuli_target_rectangletriangles.svg	stimuli_distractor_diamondtriangles.svg	5	yes	ka	1	1165	6	3	antiphase_hc_soi.wav	1	6	2	noise_calib_stim_LEFT.wav	1	4	blb_dichoticlistening_ba-ka.mp3	ba	ka	1	right
6.6.1	mac	2023-06-02	05:43:54	05:55:21	684097	5eeaa8ee94a7f8046a02a20d	3	1	DL_test	23	DL_test	15	stimuli_target_rectangletriangles.svg	stimuli_distractor_diamondtriangles.svg	5	yes	pa	0	1373	6	3	antiphase_hc_soi.wav	1	6	2	noise_calib_stim_LEFT.wav	1	10	blb_dichoticlistening_da-ka.mp3	da	ka	1	other
6.6.1	mac	2023-06-02	05:43:54	05:55:21	684097	5eeaa8ee94a7f8046a02a20d	3	1	DL_test	23	DL_test	16	stimuli_target_rectangletriangles.svg	stimuli_distractor_diamondtriangles.svg	5	yes	ga	1	1290	6	3	antiphase_hc_soi.wav	1	6	2	noise_calib_stim_LEFT.wav	1	27	blb_dichoticlistening_pa-ga.mp3	pa	ga	1	right
6.6.1	mac	2023-06-02	05:43:54	05:55:21	684097	5eeaa8ee94a7f8046a02a20d	3	1	DL_test	23	DL_test	17	stimuli_target_rectangletriangles.svg	stimuli_distractor_diamondtriangles.svg	5	yes	ka	1	1827	6	3	antiphase_hc_soi.wav	1	6	2	noise_calib_stim_LEFT.wav	1	24	blb_dichoticlistening_ka-ta.mp3	ka	ta	1	left
6.6.1	mac	2023-06-02	05:43:54	05:55:21	684097	5eeaa8ee94a7f8046a02a20d	3	1	DL_test	23	DL_test	18	stimuli_target_rectangletriangles.svg	stimuli_distractor_diamondtriangles.svg	5	yes	pa	1	923	6	3	antiphase_hc_soi.wav	1	6	2	noise_calib_stim_LEFT.wav	1	29	blb_dichoticlistening_pa-pa.mp3	pa	pa	0	left
6.6.1	mac	2023-06-02	05:43:54	05:55:21	684097	5eeaa8ee94a7f8046a02a20d	3	1	DL_test	23	DL_test	19	stimuli_target_rectangletriangles.svg	stimuli_distractor_diamondtriangles.svg	5	yes	da	1	2065	6	3	antiphase_hc_soi.wav	1	6	2	noise_calib_stim_LEFT.wav	1	7	blb_dichoticlistening_da-ba.mp3	da	ba	1	left
6.6.1	mac	2023-06-02	05:43:54	05:55:21	684097	5eeaa8ee94a7f8046a02a20d	3	1	DL_test	23	DL_test	20	stimuli_target_rectangletriangles.svg	stimuli_distractor_diamondtriangles.svg	5	yes	ga	1	2185	6	3	antiphase_hc_soi.wav	1	6	2	noise_calib_stim_LEFT.wav	1	21	blb_dichoticlistening_ka-ga.mp3	ka	ga	1	right
6.6.1	mac	2023-06-02	05:43:54	05:55:21	684097	5eeaa8ee94a7f8046a02a20d	3	1	DL_test	23	DL_test	21	stimuli_target_rectangletriangles.svg	stimuli_distractor_diamondtriangles.svg	5	yes	pa	0	1185	6	3	antiphase_hc_soi.wav	1	6	2	noise_calib_stim_LEFT.wav	1	31	blb_dichoticlistening_ta-ba.mp3	ta	ba	1	other
6.6.1	mac	2023-06-02	05:43:54	05:55:21	684097	5eeaa8ee94a7f8046a02a20d	3	1	DL_test	23	DL_test	22	stimuli_target_rectangletriangles.svg	stimuli_distractor_diamondtriangles.svg	5	yes	ba	1	1384	6	3	antiphase_hc_soi.wav	1	6	2	noise_calib_stim_LEFT.wav	1	13	blb_dichoticlistening_ga-ba.mp3	ga	ba	1	right
6.6.1	mac	2023-06-02	05:43:54	05:55:21	684097	5eeaa8ee94a7f8046a02a20d	3	1	DL_test	23	DL_test	23	stimuli_target_rectangletriangles.svg	stimuli_distractor_diamondtriangles.svg	5	yes	da	1	1056	6	3	antiphase_hc_soi.wav	1	6	2	noise_calib_stim_LEFT.wav	1	8	blb_dichoticlistening_da-da.mp3	da	da	0	left
6.6.1	mac	2023-06-02	05:43:54	05:55:21	684097	5eeaa8ee94a7f8046a02a20d	3	1	DL_test	23	DL_test	24	stimuli_target_rectangletriangles.svg	stimuli_distractor_diamondtriangles.svg	5	yes	ga	1	1523	6	3	antiphase_hc_soi.wav	1	6	2	noise_calib_stim_LEFT.wav	1	3	blb_dichoticlistening_ba-ga.mp3	ba	ga	1	right
6.6.1	mac	2023-06-02	05:43:54	05:55:21	684097	5eeaa8ee94a7f8046a02a20d	3	1	DL_test	23	DL_test	25	stimuli_target_rectangletriangles.svg	stimuli_distractor_diamondtriangles.svg	5	yes	ba	1	1694	6	3	antiphase_hc_soi.wav	1	6	2	noise_calib_stim_LEFT.wav	1	1	blb_dichoticlistening_ba-ba.mp3	ba	ba	0	left
6.6.1	mac	2023-06-02	05:43:54	05:55:21	684097	5eeaa8ee94a7f8046a02a20d	3	1	DL_test	23	DL_test	26	stimuli_target_rectangletriangles.svg	stimuli_distractor_diamondtriangles.svg	5	yes	ga	1	1215	6	3	antiphase_hc_soi.wav	1	6	2	noise_calib_stim_LEFT.wav	1	9	blb_dichoticlistening_da-ga.mp3	da	ga	1	right
